Timestamp,Acceleration_x,Acceleration_y,Acceleration_z,roll,pitch,yaw
2023-02-16 21:22:47:562,-1.25591,2.61922,-9.32027,-15.5854,-6.97057,92.4174
2023-02-16 21:22:47:569,-1.24961,2.61207,-9.31203,-15.581,-6.97852,92.4148
2023-02-16 21:22:47:579,-1.21655,2.60975,-9.31374,-15.5776,-6.98158,92.4116
2023-02-16 21:22:47:589,-1.19213,2.60934,-9.32795,-15.5748,-6.98669,92.4062
2023-02-16 21:22:47:599,-1.16966,2.61058,-9.32348,-15.5728,-6.98777,92.3973
2023-02-16 21:22:47:609,-1.14573,2.61136,-9.32804,-15.5726,-6.98742,92.3918
2023-02-16 21:22:47:619,-1.13959,2.61662,-9.35288,-15.5744,-6.98533,92.387
2023-02-16 21:22:47:630,-1.14077,2.6147,-9.37241,-15.5733,-6.98938,92.3844
2023-02-16 21:22:47:639,-1.14243,2.60238,-9.37923,-15.5727,-6.9898,92.3825
2023-02-16 21:22:47:649,-1.16208,2.60291,-9.38284,-15.5723,-6.98906,92.3829
2023-02-16 21:22:47:659,-1.18088,2.60114,-9.39262,-15.5714,-6.99505,92.3884
2023-02-16 21:22:47:669,-1.19373,2.59648,-9.38314,-15.5714,-7.00229,92.3859
2023-02-16 21:22:47:679,-1.20964,2.58238,-9.35993,-15.5702,-7.01185,92.3908
2023-02-16 21:22:47:689,-1.22914,2.5907,-9.32454,-15.5761,-7.01871,92.3942
2023-02-16 21:22:47:699,-1.25199,2.61893,-9.31213,-15.581,-7.02827,92.4011
2023-02-16 21:22:47:709,-1.26407,2.63939,-9.33045,-15.5901,-7.03418,92.4045
2023-02-16 21:22:47:719,-1.26232,2.6646,-9.36598,-15.5949,-7.04076,92.4096
2023-02-16 21:22:47:729,-1.27648,2.66885,-9.40724,-15.5982,-7.0419,92.4112
2023-02-16 21:22:47:739,-1.2981,2.69166,-9.45218,-15.596,-7.04515,92.41
2023-02-16 21:22:47:750,-1.29807,2.69813,-9.47567,-15.5912,-7.04863,92.4084
2023-02-16 21:22:47:759,-1.28956,2.67507,-9.44139,-15.5827,-7.05247,92.4009
2023-02-16 21:22:47:769,-1.27548,2.63291,-9.40002,-15.5704,-7.05501,92.3912
2023-02-16 21:22:47:780,-1.257,2.60653,-9.37054,-15.5549,-7.05979,92.3772
2023-02-16 21:22:47:790,-1.2336,2.56832,-9.32661,-15.5361,-7.05955,92.3613
2023-02-16 21:22:47:800,-1.22539,2.56043,-9.2894,-15.5158,-7.05953,92.3488
2023-02-16 21:22:47:809,-1.21635,2.565,-9.26931,-15.4969,-7.0541,92.3403
2023-02-16 21:22:47:819,-1.18804,2.55423,-9.22305,-15.4823,-7.04126,92.3344
2023-02-16 21:22:47:830,-1.13262,2.52346,-9.19385,-15.4676,-7.01929,92.3293
2023-02-16 21:22:47:839,-1.10188,2.52153,-9.22662,-15.4579,-6.99199,92.3277
2023-02-16 21:22:47:849,-1.10518,2.5478,-9.28142,-15.4544,-6.96288,92.3275
2023-02-16 21:22:47:859,-1.09694,2.5663,-9.30538,-15.4536,-6.9313,92.332
2023-02-16 21:22:47:870,-1.07927,2.57097,-9.31362,-15.4569,-6.90391,92.3329
2023-02-16 21:22:47:880,-1.06802,2.57701,-9.32197,-15.4678,-6.87912,92.336
2023-02-16 21:22:47:889,-1.07543,2.60667,-9.35279,-15.4847,-6.85467,92.3382
2023-02-16 21:22:47:899,-1.08774,2.63125,-9.35514,-15.5007,-6.8346,92.3426
2023-02-16 21:22:47:909,-1.09429,2.64623,-9.33632,-15.5193,-6.81718,92.3433
2023-02-16 21:22:47:919,-1.10549,2.64857,-9.29256,-15.5356,-6.80726,92.3426
2023-02-16 21:22:47:929,-1.11008,2.64462,-9.26392,-15.555,-6.79766,92.3446
2023-02-16 21:22:47:939,-1.10399,2.64895,-9.26343,-15.5735,-6.78799,92.3443
2023-02-16 21:22:47:949,-1.09579,2.66177,-9.28607,-15.5905,-6.77593,92.3441
2023-02-16 21:22:47:959,-1.08419,2.69542,-9.32068,-15.6106,-6.77012,92.3432
2023-02-16 21:22:47:969,-1.06758,2.71256,-9.36598,-15.6308,-6.76541,92.3424
2023-02-16 21:22:47:979,-1.06975,2.73448,-9.40219,-15.6539,-6.76508,92.3385
2023-02-16 21:22:47:989,-1.0867,2.75771,-9.43484,-15.6768,-6.76825,92.3369
2023-02-16 21:22:47:999,-1.10187,2.76813,-9.44381,-15.6962,-6.77376,92.338
2023-02-16 21:22:48:9,-1.14044,2.78413,-9.4461,-15.7143,-6.78243,92.3399
2023-02-16 21:22:48:19,-1.16403,2.79917,-9.49178,-15.7252,-6.79424,92.3391
2023-02-16 21:22:48:29,-1.2242,2.81992,-9.55204,-15.7333,-6.80605,92.3431
2023-02-16 21:22:48:39,-1.28434,2.83258,-9.53906,-15.7312,-6.81252,92.3474
2023-02-16 21:22:48:49,-1.2907,2.77337,-9.48148,-15.7171,-6.81959,92.345
2023-02-16 21:22:48:59,-1.2664,2.70444,-9.42863,-15.6923,-6.82534,92.3362
2023-02-16 21:22:48:69,-1.27412,2.66573,-9.39558,-15.6674,-6.83386,92.324
2023-02-16 21:22:48:79,-1.27568,2.62886,-9.35438,-15.6377,-6.83705,92.3066
2023-02-16 21:22:48:90,-1.22123,2.58073,-9.32939,-15.6043,-6.83581,92.2827
2023-02-16 21:22:48:99,-1.16336,2.57185,-9.30942,-15.5743,-6.83074,92.2527
2023-02-16 21:22:48:110,-1.11542,2.54655,-9.32854,-15.544,-6.82403,92.219
2023-02-16 21:22:48:119,-1.06565,2.52209,-9.34216,-15.5155,-6.81479,92.1848
2023-02-16 21:22:48:130,-1.0055,2.50881,-9.3424,-15.4851,-6.79907,92.1569
2023-02-16 21:22:48:139,-0.976069,2.50705,-9.33442,-15.4599,-6.77948,92.1338
2023-02-16 21:22:48:149,-0.981988,2.50965,-9.33859,-15.435,-6.7607,92.1171
2023-02-16 21:22:48:159,-1.00479,2.51678,-9.34894,-15.413,-6.7436,92.1061
2023-02-16 21:22:48:169,-1.03632,2.51249,-9.34185,-15.3953,-6.7277,92.1008
2023-02-16 21:22:48:179,-1.07645,2.51521,-9.32943,-15.3786,-6.70983,92.1007
2023-02-16 21:22:48:189,-1.11141,2.51393,-9.32671,-15.3632,-6.68985,92.1027
2023-02-16 21:22:48:199,-1.13483,2.49866,-9.33045,-15.352,-6.67476,92.1097
2023-02-16 21:22:48:209,-1.13946,2.49442,-9.32981,-15.3423,-6.66327,92.1132
2023-02-16 21:22:48:219,-1.13261,2.5063,-9.31696,-15.3291,-6.65261,92.1105
2023-02-16 21:22:48:229,-1.13173,2.50185,-9.33269,-15.3212,-6.64322,92.1044
2023-02-16 21:22:48:239,-1.11435,2.49599,-9.32473,-15.3167,-6.63593,92.0939
2023-02-16 21:22:48:249,-1.07839,2.51288,-9.32023,-15.3174,-6.6332,92.0832
2023-02-16 21:22:48:259,-1.0482,2.52106,-9.32164,-15.3201,-6.62842,92.0677
2023-02-16 21:22:48:269,-1.02407,2.52018,-9.34356,-15.3282,-6.62125,92.0541
2023-02-16 21:22:48:279,-1.00946,2.52912,-9.33913,-15.3369,-6.61689,92.0443
2023-02-16 21:22:48:289,-1.00873,2.52419,-9.34341,-15.349,-6.61373,92.036
2023-02-16 21:22:48:299,-1.00814,2.54519,-9.35408,-15.3634,-6.6116,92.0329
2023-02-16 21:22:48:310,-1.02684,2.56805,-9.37364,-15.381,-6.60813,92.0364
2023-02-16 21:22:48:319,-1.05191,2.59353,-9.39347,-15.4029,-6.60691,92.0405
2023-02-16 21:22:48:329,-1.07068,2.61456,-9.39954,-15.4225,-6.60396,92.0499
2023-02-16 21:22:48:339,-1.08949,2.62159,-9.38169,-15.4383,-6.60509,92.0588
2023-02-16 21:22:48:349,-1.10644,2.60709,-9.35921,-15.4539,-6.60595,92.0696
2023-02-16 21:22:48:359,-1.10815,2.60691,-9.35042,-15.4697,-6.61169,92.0775
2023-02-16 21:22:48:369,-1.09659,2.61726,-9.36731,-15.488,-6.61611,92.0866
2023-02-16 21:22:48:380,-1.1019,2.63178,-9.36485,-15.506,-6.62191,92.0959
2023-02-16 21:22:48:389,-1.11927,2.65138,-9.37004,-15.5216,-6.63102,92.1046
2023-02-16 21:22:48:399,-1.11652,2.67987,-9.36558,-15.5328,-6.63704,92.1131
2023-02-16 21:22:48:409,-1.11955,2.66834,-9.3836,-15.5482,-6.64181,92.1234
2023-02-16 21:22:48:419,-1.12626,2.67959,-9.40127,-15.5583,-6.64727,92.1326
2023-02-16 21:22:48:429,-1.1315,2.67167,-9.4097,-15.567,-6.65073,92.1374
2023-02-16 21:22:48:439,-1.12236,2.65034,-9.41034,-15.5757,-6.66014,92.1466
2023-02-16 21:22:48:449,-1.11865,2.63413,-9.41143,-15.5773,-6.66713,92.1493
2023-02-16 21:22:48:459,-1.10852,2.63405,-9.42249,-15.5826,-6.67655,92.1554
2023-02-16 21:22:48:469,-1.09719,2.62947,-9.39418,-15.5819,-6.69093,92.1616
2023-02-16 21:22:48:480,-1.08278,2.61329,-9.3518,-15.5789,-6.70716,92.1651
2023-02-16 21:22:48:489,-1.06334,2.59482,-9.30501,-15.5805,-6.71623,92.1734
2023-02-16 21:22:48:499,-1.01033,2.58654,-9.30074,-15.5835,-6.72568,92.1809
2023-02-16 21:22:48:510,-0.979209,2.59171,-9.30757,-15.5888,-6.7309,92.1967
2023-02-16 21:22:48:520,-1.00963,2.6079,-9.30718,-15.5987,-6.73645,92.22
2023-02-16 21:22:48:529,-1.05854,2.65196,-9.36938,-15.6144,-6.74238,92.2549
2023-02-16 21:22:48:540,-1.11504,2.69592,-9.39384,-15.6331,-6.74893,92.2968
2023-02-16 21:22:48:550,-1.17721,2.70462,-9.396,-15.6463,-6.75606,92.3376
2023-02-16 21:22:48:559,-1.2531,2.71163,-9.38697,-15.6595,-6.76156,92.3841
2023-02-16 21:22:48:570,-1.30897,2.69349,-9.37614,-15.6667,-6.77004,92.4286
2023-02-16 21:22:48:580,-1.3311,2.6717,-9.37378,-15.6703,-6.78247,92.4613
2023-02-16 21:22:48:590,-1.352,2.67087,-9.40634,-15.6698,-6.79806,92.4895
2023-02-16 21:22:48:600,-1.33421,2.65773,-9.44777,-15.6657,-6.822,92.5042
2023-02-16 21:22:48:609,-1.27117,2.64106,-9.41986,-15.6552,-6.84626,92.5103
2023-02-16 21:22:48:619,-1.24143,2.5905,-9.34541,-15.6422,-6.87862,92.5108
2023-02-16 21:22:48:629,-1.2351,2.57228,-9.27625,-15.6328,-6.9176,92.5049
2023-02-16 21:22:48:639,-1.25592,2.58334,-9.24386,-15.633,-6.95838,92.5029
2023-02-16 21:22:48:649,-1.27556,2.62438,-9.23372,-15.637,-6.99428,92.4988
2023-02-16 21:22:48:659,-1.24747,2.65635,-9.26818,-15.6501,-7.02529,92.4958
2023-02-16 21:22:48:669,-1.23997,2.68622,-9.29471,-15.6649,-7.04326,92.4943
2023-02-16 21:22:48:679,-1.24199,2.71331,-9.30578,-15.6814,-7.05146,92.4953
2023-02-16 21:22:48:689,-1.25021,2.72242,-9.28909,-15.6956,-7.04736,92.5018
2023-02-16 21:22:48:700,-1.26288,2.71012,-9.25051,-15.706,-7.03909,92.5061
2023-02-16 21:22:48:710,-1.28063,2.71082,-9.22518,-15.7115,-7.02316,92.5064
2023-02-16 21:22:48:720,-1.27081,2.70421,-9.24128,-15.7178,-7.00283,92.5036
2023-02-16 21:22:48:730,-1.2339,2.69936,-9.26851,-15.723,-6.97438,92.4957
2023-02-16 21:22:48:739,-1.17724,2.69104,-9.26995,-15.7298,-6.94989,92.4831
2023-02-16 21:22:48:749,-1.11568,2.68287,-9.26219,-15.7376,-6.92492,92.4635
2023-02-16 21:22:48:759,-1.06551,2.69014,-9.28969,-15.7462,-6.90392,92.4377
2023-02-16 21:22:48:769,-1.04202,2.71312,-9.34613,-15.7644,-6.88987,92.4106
2023-02-16 21:22:48:779,-1.01896,2.75382,-9.39154,-15.7853,-6.8858,92.3818
2023-02-16 21:22:48:789,-1.02193,2.7681,-9.41122,-15.8086,-6.8896,92.353
2023-02-16 21:22:48:799,-1.02918,2.76059,-9.39755,-15.8288,-6.89964,92.3298
2023-02-16 21:22:48:809,-1.0688,2.79794,-9.4276,-15.8533,-6.91772,92.3076
2023-02-16 21:22:48:819,-1.14818,2.83604,-9.48255,-15.8726,-6.9347,92.2892
2023-02-16 21:22:48:830,-1.1643,2.82607,-9.48534,-15.8841,-6.95295,92.2715
2023-02-16 21:22:48:839,-1.15148,2.76877,-9.45239,-15.8885,-6.96883,92.2566
2023-02-16 21:22:48:849,-1.18074,2.72716,-9.40878,-15.8829,-6.98936,92.2418
2023-02-16 21:22:48:859,-1.23911,2.70675,-9.3804,-15.8713,-7.00772,92.2264
2023-02-16 21:22:48:869,-1.28004,2.67636,-9.3381,-15.8544,-7.02691,92.2099
2023-02-16 21:22:48:879,-1.27925,2.63901,-9.30619,-15.8363,-7.04529,92.1906
2023-02-16 21:22:48:889,-1.27277,2.61211,-9.30166,-15.8151,-7.06531,92.1686
2023-02-16 21:22:48:899,-1.25813,2.60535,-9.27346,-15.7937,-7.07853,92.1425
2023-02-16 21:22:48:909,-1.21542,2.58336,-9.23817,-15.7787,-7.08663,92.1164
2023-02-16 21:22:48:919,-1.16016,2.57251,-9.24558,-15.7643,-7.09167,92.0839
2023-02-16 21:22:48:930,-1.11624,2.58551,-9.2664,-15.7541,-7.09327,92.0542
2023-02-16 21:22:48:939,-1.08536,2.59366,-9.28251,-15.7458,-7.09337,92.0221
2023-02-16 21:22:48:949,-1.06489,2.6,-9.30344,-15.7405,-7.088,91.9967
2023-02-16 21:22:48:959,-1.05761,2.60956,-9.31161,-15.7402,-7.0831,91.9722
2023-02-16 21:22:48:970,-1.0887,2.60941,-9.31875,-15.74,-7.07704,91.9554
2023-02-16 21:22:48:979,-1.14247,2.62024,-9.31532,-15.7405,-7.07616,91.9394
2023-02-16 21:22:48:989,-1.19495,2.63938,-9.30464,-15.7432,-7.07577,91.925
2023-02-16 21:22:48:999,-1.22914,2.62329,-9.32027,-15.7475,-7.07715,91.9119
2023-02-16 21:22:49:9,-1.22571,2.61649,-9.32847,-15.7502,-7.07891,91.8914
2023-02-16 21:22:49:19,-1.22871,2.63711,-9.32546,-15.7507,-7.08192,91.8656
2023-02-16 21:22:49:29,-1.22576,2.63442,-9.33237,-15.7553,-7.0849,91.8357
2023-02-16 21:22:49:39,-1.19083,2.64969,-9.36008,-15.7587,-7.09175,91.802
2023-02-16 21:22:49:49,-1.15646,2.68061,-9.40653,-15.768,-7.10754,91.7597
2023-02-16 21:22:49:60,-1.17037,2.69303,-9.41687,-15.7774,-7.13128,91.7156
2023-02-16 21:22:49:69,-1.21219,2.69857,-9.42295,-15.7881,-7.15931,91.6751
2023-02-16 21:22:49:79,-1.23612,2.70675,-9.42152,-15.797,-7.19108,91.6382
2023-02-16 21:22:49:90,-1.25348,2.71297,-9.40344,-15.8025,-7.21754,91.6015
2023-02-16 21:22:49:99,-1.27164,2.70719,-9.37334,-15.8054,-7.24551,91.5677
2023-02-16 21:22:49:109,-1.29234,2.68916,-9.35007,-15.8044,-7.26934,91.5371
2023-02-16 21:22:49:119,-1.31301,2.67174,-9.34198,-15.7993,-7.28736,91.5073
2023-02-16 21:22:49:130,-1.33644,2.66099,-9.33137,-15.7928,-7.30096,91.4779
2023-02-16 21:22:49:139,-1.32712,2.64462,-9.31272,-15.779,-7.30988,91.4521
2023-02-16 21:22:49:149,-1.30743,2.64598,-9.31439,-15.7642,-7.31274,91.4222
2023-02-16 21:22:49:159,-1.31925,2.65362,-9.3514,-15.7511,-7.31312,91.3915
2023-02-16 21:22:49:170,-1.34386,2.66304,-9.37634,-15.7336,-7.31182,91.3607
2023-02-16 21:22:49:180,-1.34181,2.6726,-9.37309,-15.7167,-7.30811,91.3307
2023-02-16 21:22:49:190,-1.33235,2.65556,-9.37059,-15.6991,-7.30267,91.2972
2023-02-16 21:22:49:199,-1.34109,2.64807,-9.37395,-15.6771,-7.29509,91.2623
2023-02-16 21:22:49:209,-1.31476,2.62021,-9.37108,-15.6541,-7.28529,91.225
2023-02-16 21:22:49:219,-1.30736,2.59028,-9.36313,-15.63,-7.27417,91.186
2023-02-16 21:22:49:229,-1.31327,2.57927,-9.36667,-15.6034,-7.26253,91.1463
2023-02-16 21:22:49:240,-1.28524,2.57682,-9.36395,-15.5751,-7.25202,91.1034
2023-02-16 21:22:49:249,-1.26658,2.55522,-9.32735,-15.5494,-7.23954,91.0555
2023-02-16 21:22:49:259,-1.26677,2.55489,-9.30933,-15.5218,-7.22831,91.0056
2023-02-16 21:22:49:269,-1.25948,2.55462,-9.32393,-15.4974,-7.21761,90.952
2023-02-16 21:22:49:279,-1.25626,2.54535,-9.30923,-15.4731,-7.20755,90.8949
2023-02-16 21:22:49:290,-1.23857,2.54261,-9.3232,-15.4511,-7.19648,90.836
2023-02-16 21:22:49:299,-1.21824,2.54628,-9.37699,-15.4283,-7.18584,90.7795
2023-02-16 21:22:49:310,-1.20724,2.5436,-9.39333,-15.4053,-7.17261,90.725
2023-02-16 21:22:49:319,-1.18566,2.51878,-9.36803,-15.3813,-7.16147,90.6632
2023-02-16 21:22:49:330,-1.15986,2.50162,-9.34012,-15.3568,-7.15109,90.6056
2023-02-16 21:22:49:339,-1.16166,2.49701,-9.30413,-15.3351,-7.14446,90.5499
2023-02-16 21:22:49:349,-1.15226,2.47748,-9.26801,-15.3128,-7.13614,90.4969
2023-02-16 21:22:49:359,-1.1593,2.48202,-9.31398,-15.2958,-7.12928,90.4476
2023-02-16 21:22:49:369,-1.15456,2.52691,-9.4071,-15.2795,-7.1208,90.3987
2023-02-16 21:22:49:379,-1.12683,2.53908,-9.45412,-15.2661,-7.11305,90.3553
2023-02-16 21:22:49:390,-1.08556,2.50897,-9.4462,-15.2507,-7.10515,90.31
2023-02-16 21:22:49:399,-1.07432,2.49558,-9.4057,-15.2373,-7.10309,90.2708
2023-02-16 21:22:49:410,-1.10096,2.50733,-9.40864,-15.2286,-7.10097,90.2371
2023-02-16 21:22:49:419,-1.11464,2.52603,-9.40462,-15.2197,-7.10289,90.2069
2023-02-16 21:22:49:430,-1.1155,2.5247,-9.39179,-15.2149,-7.1055,90.1806
2023-02-16 21:22:49:439,-1.11214,2.5301,-9.34615,-15.2103,-7.10783,90.1653
2023-02-16 21:22:49:449,-1.12609,2.54106,-9.29697,-15.2067,-7.11091,90.1522
2023-02-16 21:22:49:459,-1.14749,2.55397,-9.26402,-15.209,-7.11261,90.1461
2023-02-16 21:22:49:470,-1.16855,2.55412,-9.2638,-15.2066,-7.11279,90.1438
2023-02-16 21:22:49:479,-1.20362,2.56942,-9.28381,-15.2087,-7.11125,90.1414
2023-02-16 21:22:49:489,-1.22131,2.58386,-9.30317,-15.2095,-7.11007,90.1393
2023-02-16 21:22:49:500,-1.22389,2.5761,-9.3109,-15.2103,-7.10492,90.1376
2023-02-16 21:22:49:510,-1.23466,2.56415,-9.30991,-15.2102,-7.10307,90.1378
2023-02-16 21:22:49:519,-1.24149,2.54189,-9.31654,-15.2116,-7.09786,90.1358
2023-02-16 21:22:49:530,-1.23243,2.55389,-9.33171,-15.2136,-7.09079,90.1365
2023-02-16 21:22:49:539,-1.21697,2.57769,-9.3531,-15.2174,-7.08199,90.1352
2023-02-16 21:22:49:550,-1.19819,2.58614,-9.36186,-15.2257,-7.07427,90.1341
2023-02-16 21:22:49:559,-1.19391,2.59995,-9.38063,-15.2361,-7.06874,90.1309
2023-02-16 21:22:49:570,-1.20885,2.61197,-9.36868,-15.2501,-7.066,90.1298
2023-02-16 21:22:49:579,-1.26331,2.62074,-9.35161,-15.262,-7.06084,90.1273
2023-02-16 21:22:49:589,-1.29921,2.62965,-9.34796,-15.2743,-7.0556,90.1279
2023-02-16 21:22:49:599,-1.283,2.63415,-9.34822,-15.2869,-7.0493,90.1268
2023-02-16 21:22:49:609,-1.24189,2.622,-9.31459,-15.2993,-7.03643,90.1212
2023-02-16 21:22:49:619,-1.19886,2.60517,-9.29515,-15.3075,-7.02298,90.1102
2023-02-16 21:22:49:629,-1.18755,2.60747,-9.32993,-15.3188,-7.01046,90.0953
2023-02-16 21:22:49:639,-1.19749,2.61571,-9.36282,-15.3326,-6.99877,90.083
2023-02-16 21:22:49:649,-1.19229,2.60401,-9.34285,-15.3455,-6.98492,90.0697
2023-02-16 21:22:49:659,-1.17978,2.59486,-9.33433,-15.357,-6.9736,90.0569
2023-02-16 21:22:49:669,-1.16968,2.63224,-9.38405,-15.3697,-6.9594,90.0396
2023-02-16 21:22:49:679,-1.14926,2.667,-9.40968,-15.3829,-6.94795,90.0258
2023-02-16 21:22:49:689,-1.12082,2.64874,-9.39795,-15.3899,-6.93275,90.009
2023-02-16 21:22:49:700,-1.11228,2.64756,-9.39665,-15.3941,-6.91906,89.9921
2023-02-16 21:22:49:709,-1.10974,2.65858,-9.38107,-15.4001,-6.90712,89.9779
2023-02-16 21:22:49:720,-1.09132,2.64455,-9.38135,-15.4037,-6.8942,89.962
2023-02-16 21:22:49:729,-1.0715,2.63254,-9.38686,-15.4065,-6.88721,89.9503
2023-02-16 21:22:49:739,-1.06423,2.63112,-9.38427,-15.4128,-6.88069,89.9389
2023-02-16 21:22:49:749,-1.08318,2.62841,-9.39169,-15.4181,-6.87671,89.9308
2023-02-16 21:22:49:759,-1.11532,2.63544,-9.40422,-15.4252,-6.87972,89.9251
2023-02-16 21:22:49:769,-1.13544,2.65879,-9.40907,-15.4278,-6.88208,89.9192
2023-02-16 21:22:49:779,-1.13597,2.66926,-9.4045,-15.4292,-6.88595,89.9111
2023-02-16 21:22:49:789,-1.13537,2.66905,-9.38997,-15.429,-6.88854,89.906
2023-02-16 21:22:49:800,-1.11233,2.64281,-9.3629,-15.4218,-6.88903,89.903
2023-02-16 21:22:49:809,-1.08102,2.62825,-9.32947,-15.4118,-6.88468,89.9013
2023-02-16 21:22:49:820,-1.04899,2.60562,-9.3038,-15.4059,-6.87909,89.8997
2023-02-16 21:22:49:830,-1.02549,2.59137,-9.3017,-15.3992,-6.87517,89.9048
2023-02-16 21:22:49:839,-1.00645,2.59377,-9.33543,-15.393,-6.87358,89.9108
2023-02-16 21:22:49:849,-1.00955,2.61791,-9.36506,-15.392,-6.8674,89.9232
2023-02-16 21:22:49:859,-1.04296,2.63462,-9.38858,-15.3943,-6.86196,89.9422
2023-02-16 21:22:49:869,-1.09047,2.64914,-9.39513,-15.3968,-6.85852,89.9674
2023-02-16 21:22:49:879,-1.14146,2.65801,-9.39724,-15.3983,-6.85719,89.9944
2023-02-16 21:22:49:889,-1.18481,2.66324,-9.38212,-15.3946,-6.85635,90.0199
2023-02-16 21:22:49:899,-1.21555,2.66063,-9.36451,-15.3914,-6.85799,90.0473
2023-02-16 21:22:49:910,-1.24511,2.66042,-9.35925,-15.3867,-6.86053,90.0721
2023-02-16 21:22:49:919,-1.26301,2.6539,-9.35018,-15.379,-6.8648,90.093
2023-02-16 21:22:49:930,-1.27626,2.63788,-9.34899,-15.3699,-6.86876,90.1103
2023-02-16 21:22:49:939,-1.27042,2.6264,-9.32952,-15.3628,-6.87364,90.1205
2023-02-16 21:22:49:950,-1.26093,2.63374,-9.31431,-15.3552,-6.87827,90.1262
2023-02-16 21:22:49:959,-1.2459,2.61607,-9.319,-15.3507,-6.8901,90.1258
2023-02-16 21:22:49:969,-1.22736,2.61467,-9.32504,-15.3474,-6.89994,90.1187
2023-02-16 21:22:49:979,-1.22162,2.61864,-9.32982,-15.3403,-6.90886,90.1126
2023-02-16 21:22:49:989,-1.21563,2.62733,-9.33772,-15.3383,-6.9178,90.1014
2023-02-16 21:22:49:999,-1.19019,2.62824,-9.36623,-15.3326,-6.92573,90.09
2023-02-16 21:22:50:10,-1.18458,2.63619,-9.38573,-15.3281,-6.93127,90.0788
2023-02-16 21:22:50:19,-1.19128,2.63099,-9.40422,-15.3219,-6.9378,90.0647
2023-02-16 21:22:50:30,-1.19627,2.64252,-9.43782,-15.3149,-6.94014,90.0539
2023-02-16 21:22:50:39,-1.1826,2.64615,-9.43555,-15.3041,-6.94006,90.0457
2023-02-16 21:22:50:50,-1.15043,2.60422,-9.41579,-15.287,-6.93458,90.0355
2023-02-16 21:22:50:59,-1.14985,2.57341,-9.40793,-15.2696,-6.93329,90.0305
2023-02-16 21:22:50:69,-1.15354,2.55643,-9.36496,-15.2476,-6.9292,90.0257
2023-02-16 21:22:50:79,-1.14822,2.53597,-9.33756,-15.2258,-6.92764,90.0229
2023-02-16 21:22:50:89,-1.12652,2.50361,-9.34525,-15.2032,-6.92225,90.0201
2023-02-16 21:22:50:99,-1.11664,2.50922,-9.38604,-15.1842,-6.91445,90.0111
2023-02-16 21:22:50:110,-1.10723,2.50156,-9.41459,-15.1622,-6.90659,90.0037
2023-02-16 21:22:50:119,-1.05111,2.45607,-9.39084,-15.1413,-6.90469,89.9961
2023-02-16 21:22:50:130,-1.04204,2.42412,-9.38647,-15.1224,-6.91276,89.9855
2023-02-16 21:22:50:139,-1.06373,2.43978,-9.40264,-15.1075,-6.92414,89.9789
2023-02-16 21:22:50:150,-1.07218,2.45623,-9.39865,-15.0972,-6.93922,89.9767
2023-02-16 21:22:50:159,-1.07188,2.46655,-9.37039,-15.0905,-6.95203,89.9771
2023-02-16 21:22:50:169,-1.08246,2.47806,-9.34461,-15.0869,-6.96286,89.986
2023-02-16 21:22:50:179,-1.09723,2.47945,-9.32928,-15.0877,-6.97549,89.9983
2023-02-16 21:22:50:189,-1.11434,2.48624,-9.3211,-15.0885,-6.9843,90.0155
2023-02-16 21:22:50:199,-1.13282,2.49005,-9.30389,-15.0922,-6.99072,90.0398
2023-02-16 21:22:50:209,-1.19418,2.48205,-9.28876,-15.0971,-7.00119,90.0646
2023-02-16 21:22:50:219,-1.22339,2.485,-9.29886,-15.1021,-7.00747,90.0949
2023-02-16 21:22:50:229,-1.25671,2.49344,-9.29393,-15.1085,-7.00934,90.1264
2023-02-16 21:22:50:239,-1.27864,2.49247,-9.32461,-15.1157,-7.01498,90.1556
2023-02-16 21:22:50:249,-1.30032,2.4866,-9.34659,-15.1176,-7.01739,90.182
2023-02-16 21:22:50:259,-1.29605,2.47863,-9.34149,-15.1249,-7.02216,90.2041
2023-02-16 21:22:50:270,-1.28238,2.49501,-9.33896,-15.1383,-7.02627,90.2217
2023-02-16 21:22:50:279,-1.27705,2.51907,-9.35926,-15.1494,-7.0235,90.2358
2023-02-16 21:22:50:289,-1.24793,2.53979,-9.38588,-15.1678,-7.02572,90.2481
2023-02-16 21:22:50:299,-1.24436,2.5596,-9.37547,-15.1867,-7.03174,90.2555
2023-02-16 21:22:50:310,-1.26884,2.57747,-9.38617,-15.2085,-7.04076,90.2656
2023-02-16 21:22:50:319,-1.2795,2.59934,-9.42765,-15.2294,-7.04775,90.2732
2023-02-16 21:22:50:330,-1.28178,2.61424,-9.41869,-15.2504,-7.0497,90.2819
2023-02-16 21:22:50:339,-1.24363,2.59566,-9.39838,-15.2619,-7.04777,90.2858
2023-02-16 21:22:50:349,-1.19727,2.5779,-9.36412,-15.2719,-7.04488,90.2891
2023-02-16 21:22:50:359,-1.19329,2.55132,-9.35997,-15.2823,-7.04882,90.2893
2023-02-16 21:22:50:370,-1.20893,2.54901,-9.36767,-15.2897,-7.0529,90.2912
2023-02-16 21:22:50:379,-1.22425,2.55988,-9.34062,-15.296,-7.05652,90.2941
2023-02-16 21:22:50:389,-1.21098,2.56576,-9.3261,-15.3058,-7.05853,90.2958
2023-02-16 21:22:50:399,-1.20302,2.58866,-9.37223,-15.3191,-7.05863,90.2969
2023-02-16 21:22:50:410,-1.18649,2.59871,-9.3912,-15.3324,-7.05342,90.2975
2023-02-16 21:22:50:419,-1.18511,2.60091,-9.3969,-15.3449,-7.05046,90.2994
2023-02-16 21:22:50:429,-1.17273,2.6263,-9.4215,-15.3571,-7.04592,90.3087
2023-02-16 21:22:50:439,-1.16297,2.62616,-9.429,-15.3675,-7.03966,90.3144
2023-02-16 21:22:50:449,-1.16256,2.6202,-9.42126,-15.3719,-7.03248,90.3225
2023-02-16 21:22:50:459,-1.16057,2.61624,-9.406,-15.3778,-7.02717,90.3348
2023-02-16 21:22:50:469,-1.17963,2.61407,-9.38501,-15.3804,-7.02295,90.3458
2023-02-16 21:22:50:479,-1.19608,2.59651,-9.37291,-15.3794,-7.02467,90.3605
2023-02-16 21:22:50:489,-1.18748,2.58175,-9.36505,-15.3742,-7.0271,90.3702
2023-02-16 21:22:50:499,-1.17842,2.57664,-9.36285,-15.3694,-7.03301,90.378
2023-02-16 21:22:50:509,-1.15801,2.55824,-9.34763,-15.363,-7.03876,90.3894
2023-02-16 21:22:50:519,-1.1601,2.53793,-9.31025,-15.36,-7.05109,90.4
2023-02-16 21:22:50:529,-1.16438,2.5267,-9.30107,-15.3591,-7.06612,90.4104
2023-02-16 21:22:50:539,-1.14659,2.54527,-9.35807,-15.356,-7.08255,90.4242
2023-02-16 21:22:50:549,-1.09466,2.57516,-9.42466,-15.3556,-7.09553,90.4393
2023-02-16 21:22:50:559,-1.01148,2.57947,-9.47384,-15.3535,-7.1084,90.4562
2023-02-16 21:22:50:569,-1.02146,2.57834,-9.42049,-15.3518,-7.12037,90.4842
2023-02-16 21:22:50:579,-1.16963,2.54548,-9.29746,-15.3464,-7.12812,90.5253
2023-02-16 21:22:50:589,-1.2164,2.51622,-9.27458,-15.3429,-7.12011,90.5824
2023-02-16 21:22:50:599,-1.14976,2.55473,-9.38803,-15.3446,-7.10291,90.6443
2023-02-16 21:22:50:610,-1.02735,2.58048,-9.45477,-15.3477,-7.08075,90.718
2023-02-16 21:22:50:619,-1.07323,2.52095,-9.33396,-15.345,-7.06414,90.8044
2023-02-16 21:22:50:629,-1.19766,2.52261,-9.24657,-15.3453,-7.03811,90.907
2023-02-16 21:22:50:639,-1.22309,2.51831,-9.24149,-15.3522,-6.99446,91.02
2023-02-16 21:22:50:649,-1.18606,2.524,-9.26455,-15.3642,-6.94088,91.141
2023-02-16 21:22:50:659,-1.16898,2.56032,-9.30671,-15.3837,-6.8674,91.2658
2023-02-16 21:22:50:669,-1.1834,2.61715,-9.3596,-15.41,-6.78807,91.3959
2023-02-16 21:22:50:679,-1.19276,2.66154,-9.40371,-15.4393,-6.71282,91.5291
2023-02-16 21:22:50:689,-1.21026,2.70183,-9.39666,-15.4715,-6.64137,91.6579
2023-02-16 21:22:50:699,-1.23354,2.71141,-9.33901,-15.5037,-6.57334,91.7865
2023-02-16 21:22:50:709,-1.22674,2.7243,-9.30068,-15.5338,-6.51131,91.9034
2023-02-16 21:22:50:719,-1.19599,2.7471,-9.2663,-15.5613,-6.45241,92.014
2023-02-16 21:22:50:729,-1.19133,2.76147,-9.24353,-15.5925,-6.39896,92.1098
2023-02-16 21:22:50:739,-1.20215,2.77336,-9.25013,-15.6235,-6.35473,92.1986
2023-02-16 21:22:50:749,-1.22623,2.78684,-9.30984,-15.6535,-6.32149,92.2758
2023-02-16 21:22:50:759,-1.23289,2.82466,-9.39474,-15.6877,-6.29476,92.338
2023-02-16 21:22:50:769,-1.25388,2.87623,-9.49412,-15.7175,-6.26946,92.3868
2023-02-16 21:22:50:779,-1.25108,2.87039,-9.53372,-15.7327,-6.25308,92.4181
2023-02-16 21:22:50:789,-1.24954,2.84209,-9.53385,-15.7341,-6.23548,92.4297
2023-02-16 21:22:50:799,-1.22074,2.80676,-9.54168,-15.7182,-6.22224,92.4273
2023-02-16 21:22:50:809,-1.13824,2.71958,-9.53114,-15.6879,-6.21003,92.4062
2023-02-16 21:22:50:819,-1.03742,2.62606,-9.46063,-15.6458,-6.19901,92.3702
2023-02-16 21:22:50:829,-0.950192,2.53215,-9.40621,-15.5961,-6.19089,92.3218
2023-02-16 21:22:50:839,-0.8598,2.46033,-9.35866,-15.5412,-6.18225,92.2659
2023-02-16 21:22:50:849,-0.784952,2.41881,-9.28936,-15.4945,-6.17512,92.2072
2023-02-16 21:22:50:859,-0.753044,2.3723,-9.19986,-15.4516,-6.17484,92.1525
2023-02-16 21:22:50:869,-0.746831,2.36033,-9.13008,-15.4237,-6.17723,92.1062
2023-02-16 21:22:50:879,-0.761667,2.37829,-9.09812,-15.409,-6.18283,92.0616
2023-02-16 21:22:50:889,-0.741953,2.41445,-9.11027,-15.4097,-6.18696,92.0304
2023-02-16 21:22:50:899,-0.718366,2.44255,-9.12673,-15.4295,-6.19226,92.008
2023-02-16 21:22:50:909,-0.745222,2.48787,-9.15305,-15.4587,-6.20225,91.9997
2023-02-16 21:22:50:919,-0.802405,2.54324,-9.21539,-15.5021,-6.21351,92.0082
2023-02-16 21:22:50:930,-0.886572,2.6092,-9.28528,-15.5497,-6.22821,92.0308
2023-02-16 21:22:50:939,-0.979564,2.65518,-9.30467,-15.5998,-6.23657,92.063
2023-02-16 21:22:50:949,-1.06835,2.65137,-9.28489,-15.6433,-6.24537,92.0983
2023-02-16 21:22:50:959,-1.11875,2.65953,-9.27395,-15.6861,-6.25409,92.141
2023-02-16 21:22:50:969,-1.13067,2.68757,-9.30667,-15.7317,-6.26085,92.1796
2023-02-16 21:22:50:979,-1.13528,2.7189,-9.35969,-15.7747,-6.26652,92.2135
2023-02-16 21:22:50:989,-1.11827,2.74111,-9.40234,-15.8188,-6.27541,92.2457
2023-02-16 21:22:50:999,-1.15903,2.7652,-9.45625,-15.8652,-6.2928,92.2704
2023-02-16 21:22:51:9,-1.19003,2.79927,-9.48669,-15.9151,-6.31728,92.2953
2023-02-16 21:22:51:19,-1.20569,2.82606,-9.49372,-15.9621,-6.35031,92.3174
2023-02-16 21:22:51:30,-1.23584,2.83309,-9.454,-16.0061,-6.38561,92.3342
2023-02-16 21:22:51:39,-1.26524,2.82798,-9.4092,-16.0448,-6.42533,92.3428
2023-02-16 21:22:51:49,-1.2961,2.83153,-9.40338,-16.0772,-6.46773,92.3472
2023-02-16 21:22:51:59,-1.3143,2.84497,-9.42744,-16.1033,-6.50864,92.3481
2023-02-16 21:22:51:69,-1.30193,2.82932,-9.43098,-16.1192,-6.53926,92.346
2023-02-16 21:22:51:79,-1.2558,2.78195,-9.41134,-16.1282,-6.56897,92.3369
2023-02-16 21:22:51:89,-1.24625,2.74515,-9.41206,-16.1307,-6.59721,92.3231
2023-02-16 21:22:51:99,-1.25958,2.7366,-9.41764,-16.1285,-6.62149,92.3114
2023-02-16 21:22:51:109,-1.26158,2.725,-9.41464,-16.1248,-6.64435,92.2997
2023-02-16 21:22:51:119,-1.23774,2.68156,-9.4137,-16.1171,-6.66599,92.2845
2023-02-16 21:22:51:130,-1.19819,2.6526,-9.39758,-16.1042,-6.68048,92.2705
2023-02-16 21:22:51:139,-1.15704,2.60799,-9.36361,-16.0889,-6.69257,92.2576
2023-02-16 21:22:51:149,-1.12159,2.56019,-9.295,-16.0694,-6.70199,92.2468
2023-02-16 21:22:51:159,-1.09437,2.52437,-9.25485,-16.0535,-6.70599,92.2374
2023-02-16 21:22:51:169,-1.0835,2.51464,-9.24891,-16.0397,-6.70713,92.2311
2023-02-16 21:22:51:179,-1.09001,2.52166,-9.24246,-16.0343,-6.709,92.2237
2023-02-16 21:22:51:189,-1.11383,2.52462,-9.2411,-16.0373,-6.70916,92.2232
2023-02-16 21:22:51:199,-1.11104,2.53563,-9.27916,-16.0438,-6.71047,92.2231
2023-02-16 21:22:51:209,-1.07438,2.53357,-9.36077,-16.0492,-6.70651,92.2242
2023-02-16 21:22:51:219,-1.05612,2.55285,-9.40919,-16.0573,-6.69931,92.2299
2023-02-16 21:22:51:229,-1.04971,2.54814,-9.41629,-16.0626,-6.68865,92.2339
2023-02-16 21:22:51:239,-1.00929,2.56257,-9.39868,-16.0741,-6.67768,92.2453
2023-02-16 21:22:51:250,-0.949642,2.56605,-9.36662,-16.0896,-6.66934,92.2627
2023-02-16 21:22:51:259,-0.950024,2.58457,-9.30405,-16.1024,-6.66263,92.2893
2023-02-16 21:22:51:269,-1.00485,2.61783,-9.27208,-16.1287,-6.65875,92.3278
2023-02-16 21:22:51:279,-1.0546,2.68254,-9.246,-16.1616,-6.65742,92.3732
2023-02-16 21:22:51:289,-1.11209,2.71263,-9.25017,-16.1956,-6.65801,92.4247
2023-02-16 21:22:51:299,-1.14492,2.76002,-9.27815,-16.2292,-6.65908,92.4807
2023-02-16 21:22:51:309,-1.15091,2.79634,-9.32892,-16.2659,-6.65792,92.5366
2023-02-16 21:22:51:319,-1.16027,2.82293,-9.33268,-16.2993,-6.66224,92.5907
2023-02-16 21:22:51:329,-1.18677,2.83568,-9.36022,-16.3279,-6.66633,92.645
2023-02-16 21:22:51:339,-1.23182,2.85992,-9.41766,-16.3557,-6.67824,92.6961
2023-02-16 21:22:51:349,-1.26505,2.87413,-9.49513,-16.3772,-6.6943,92.7453
2023-02-16 21:22:51:360,-1.29717,2.87665,-9.53036,-16.3924,-6.71031,92.7938
2023-02-16 21:22:51:369,-1.33843,2.88156,-9.51558,-16.3981,-6.72893,92.8385
2023-02-16 21:22:51:379,-1.38957,2.86656,-9.49258,-16.3958,-6.74926,92.8754
2023-02-16 21:22:51:390,-1.41241,2.84211,-9.48037,-16.3853,-6.77099,92.9067
2023-02-16 21:22:51:400,-1.39828,2.81412,-9.43144,-16.3695,-6.79136,92.9264
2023-02-16 21:22:51:410,-1.40277,2.78043,-9.36021,-16.3435,-6.80701,92.937
2023-02-16 21:22:51:419,-1.4251,2.74637,-9.29683,-16.3105,-6.8214,92.9349
2023-02-16 21:22:51:429,-1.39123,2.70402,-9.243,-16.275,-6.83644,92.9232
2023-02-16 21:22:51:439,-1.34466,2.68405,-9.21667,-16.2368,-6.84466,92.8964
2023-02-16 21:22:51:450,-1.26263,2.68571,-9.18312,-16.2049,-6.84498,92.8618
2023-02-16 21:22:51:460,-1.17329,2.66129,-9.16234,-16.1734,-6.83844,92.8168
2023-02-16 21:22:51:469,-1.09998,2.65781,-9.19205,-16.1452,-6.82507,92.7654
2023-02-16 21:22:51:479,-1.03083,2.66982,-9.21808,-16.1234,-6.80538,92.712
2023-02-16 21:22:51:489,-1.00084,2.69039,-9.25599,-16.1004,-6.78553,92.6545
2023-02-16 21:22:51:500,-0.974222,2.69167,-9.30984,-16.0814,-6.76506,92.6012
2023-02-16 21:22:51:510,-0.925332,2.66473,-9.31321,-16.0586,-6.73765,92.5504
2023-02-16 21:22:51:520,-0.87858,2.64866,-9.27881,-16.0346,-6.70763,92.5012
2023-02-16 21:22:51:529,-0.815923,2.6574,-9.28177,-16.018,-6.67729,92.4552
2023-02-16 21:22:51:539,-0.750174,2.63167,-9.25482,-16.0075,-6.6462,92.4153
2023-02-16 21:22:51:550,-0.707674,2.58786,-9.1889,-16.002,-6.62106,92.384
2023-02-16 21:22:51:560,-0.70051,2.5961,-9.20241,-16.0019,-6.60386,92.3676
2023-02-16 21:22:51:569,-0.733164,2.66614,-9.29648,-16.016,-6.59878,92.3655
2023-02-16 21:22:51:579,-0.790344,2.74521,-9.3935,-16.0394,-6.60061,92.3748
2023-02-16 21:22:51:589,-0.854863,2.79422,-9.41921,-16.0707,-6.60929,92.3967
2023-02-16 21:22:51:599,-0.959356,2.8031,-9.41525,-16.1009,-6.62951,92.4345
2023-02-16 21:22:51:609,-1.08558,2.84142,-9.40836,-16.1312,-6.65745,92.4805
2023-02-16 21:22:51:619,-1.19135,2.87637,-9.38089,-16.1641,-6.68659,92.5354
2023-02-16 21:22:51:629,-1.28815,2.88075,-9.33827,-16.1952,-6.71728,92.5934
2023-02-16 21:22:51:639,-1.33969,2.88996,-9.28478,-16.2213,-6.74659,92.6502
2023-02-16 21:22:51:649,-1.37728,2.89573,-9.2729,-16.2436,-6.76988,92.7071
2023-02-16 21:22:51:659,-1.43083,2.91636,-9.29703,-16.2634,-6.78607,92.759
2023-02-16 21:22:51:669,-1.47849,2.92079,-9.31173,-16.2771,-6.80037,92.8051
2023-02-16 21:22:51:679,-1.49043,2.90276,-9.33108,-16.2861,-6.80515,92.8421
2023-02-16 21:22:51:689,-1.48676,2.86619,-9.34481,-16.2841,-6.80766,92.8643
2023-02-16 21:22:51:699,-1.47211,2.82942,-9.3412,-16.2728,-6.80068,92.8752
2023-02-16 21:22:51:709,-1.43222,2.79289,-9.31855,-16.249,-6.79051,92.8688
2023-02-16 21:22:51:719,-1.37938,2.74113,-9.31868,-16.2219,-6.77691,92.8533
2023-02-16 21:22:51:729,-1.31049,2.70917,-9.31851,-16.1956,-6.75818,92.8263
2023-02-16 21:22:51:739,-1.20911,2.67595,-9.31777,-16.1715,-6.73574,92.7834
2023-02-16 21:22:51:749,-1.09225,2.65187,-9.33843,-16.1489,-6.71257,92.7339
2023-02-16 21:22:51:759,-1.01723,2.64284,-9.37098,-16.1314,-6.68895,92.68
2023-02-16 21:22:51:769,-0.962801,2.62069,-9.36016,-16.1201,-6.67047,92.6253
2023-02-16 21:22:51:779,-0.942911,2.61469,-9.3392,-16.1077,-6.65679,92.5752
2023-02-16 21:22:51:789,-0.957438,2.65311,-9.3468,-16.1011,-6.64125,92.5311
2023-02-16 21:22:51:799,-0.964429,2.68029,-9.35538,-16.0959,-6.62762,92.4941
2023-02-16 21:22:51:809,-0.933067,2.65288,-9.33568,-16.0846,-6.61105,92.4645
2023-02-16 21:22:51:819,-0.891976,2.62597,-9.29329,-16.0775,-6.59491,92.4363
2023-02-16 21:22:51:830,-0.868539,2.60868,-9.28144,-16.0714,-6.58215,92.4174
2023-02-16 21:22:51:839,-0.888718,2.61955,-9.30441,-16.0679,-6.57134,92.4036
2023-02-16 21:22:51:849,-0.929283,2.63095,-9.32035,-16.0671,-6.56825,92.3995
2023-02-16 21:22:51:860,-0.968615,2.65899,-9.3519,-16.0711,-6.56814,92.4072
2023-02-16 21:22:51:869,-1.00492,2.6887,-9.38551,-16.0816,-6.57688,92.4196
2023-02-16 21:22:51:879,-1.04075,2.70025,-9.39364,-16.0908,-6.58231,92.4392
2023-02-16 21:22:51:889,-1.08299,2.71145,-9.3625,-16.0967,-6.59321,92.4608
2023-02-16 21:22:51:899,-1.11563,2.69315,-9.32132,-16.1051,-6.6058,92.4845
2023-02-16 21:22:51:909,-1.12502,2.6923,-9.28688,-16.1093,-6.61653,92.5122
2023-02-16 21:22:51:919,-1.13768,2.69929,-9.26285,-16.1204,-6.62556,92.5413
2023-02-16 21:22:51:929,-1.1663,2.70687,-9.2557,-16.1367,-6.63482,92.5678
2023-02-16 21:22:51:939,-1.18428,2.73489,-9.2597,-16.1525,-6.64472,92.5989
2023-02-16 21:22:51:950,-1.18892,2.75403,-9.28402,-16.1743,-6.6541,92.6288
2023-02-16 21:22:51:960,-1.16431,2.77974,-9.318,-16.1949,-6.66657,92.657
2023-02-16 21:22:51:970,-1.16591,2.80976,-9.32341,-16.2143,-6.67816,92.6858
2023-02-16 21:22:51:979,-1.2092,2.80489,-9.30873,-16.2353,-6.69086,92.7152
2023-02-16 21:22:51:990,-1.22444,2.80937,-9.29886,-16.258,-6.70791,92.7426
2023-02-16 21:22:51:999,-1.24412,2.83867,-9.30302,-16.2806,-6.72243,92.7729
2023-02-16 21:22:52:9,-1.25761,2.86336,-9.32313,-16.3037,-6.73208,92.8001
2023-02-16 21:22:52:19,-1.25131,2.88976,-9.34191,-16.3236,-6.73972,92.8257
2023-02-16 21:22:52:29,-1.26095,2.88427,-9.34552,-16.3436,-6.74891,92.8508
2023-02-16 21:22:52:39,-1.24918,2.8889,-9.34802,-16.3559,-6.75579,92.8704
2023-02-16 21:22:52:49,-1.257,2.88767,-9.37268,-16.3649,-6.76127,92.8889
2023-02-16 21:22:52:59,-1.25896,2.88465,-9.38011,-16.3694,-6.76581,92.9002
2023-02-16 21:22:52:69,-1.24229,2.86556,-9.38206,-16.367,-6.7727,92.9113
2023-02-16 21:22:52:79,-1.25673,2.84421,-9.37352,-16.3594,-6.78307,92.9151
2023-02-16 21:22:52:89,-1.29012,2.83685,-9.36015,-16.351,-6.79591,92.916
2023-02-16 21:22:52:99,-1.30447,2.8168,-9.33791,-16.3369,-6.8062,92.913
2023-02-16 21:22:52:109,-1.28938,2.78621,-9.33482,-16.3234,-6.81399,92.9054
2023-02-16 21:22:52:119,-1.27041,2.76217,-9.3343,-16.3063,-6.81973,92.8942
2023-02-16 21:22:52:129,-1.25353,2.72516,-9.3123,-16.2849,-6.82476,92.878
2023-02-16 21:22:52:139,-1.2227,2.69754,-9.28838,-16.261,-6.82974,92.8566
2023-02-16 21:22:52:150,-1.19153,2.66839,-9.27429,-16.2431,-6.83373,92.8362
2023-02-16 21:22:52:160,-1.1728,2.66606,-9.26586,-16.2213,-6.83067,92.8158
2023-02-16 21:22:52:170,-1.14113,2.66995,-9.24308,-16.2064,-6.82511,92.7952
2023-02-16 21:22:52:180,-1.08685,2.65447,-9.23602,-16.1979,-6.81386,92.7758
2023-02-16 21:22:52:189,-1.02212,2.64768,-9.26654,-16.1909,-6.79782,92.7591
2023-02-16 21:22:52:199,-0.982583,2.69776,-9.28294,-16.1862,-6.77963,92.7465
2023-02-16 21:22:52:210,-0.983901,2.70676,-9.30075,-16.1871,-6.75976,92.7399
2023-02-16 21:22:52:219,-1.0366,2.71889,-9.30537,-16.1912,-6.74233,92.7447
2023-02-16 21:22:52:230,-1.11755,2.75472,-9.31218,-16.1944,-6.72228,92.7532
2023-02-16 21:22:52:239,-1.1534,2.75528,-9.31943,-16.2015,-6.70244,92.7646
2023-02-16 21:22:52:250,-1.18521,2.76176,-9.33098,-16.2066,-6.68543,92.7786
2023-02-16 21:22:52:260,-1.23298,2.75995,-9.34378,-16.2085,-6.67203,92.791
2023-02-16 21:22:52:270,-1.26494,2.76974,-9.3508,-16.2094,-6.6618,92.7977
2023-02-16 21:22:52:279,-1.27196,2.78657,-9.39374,-16.2046,-6.6523,92.796
2023-02-16 21:22:52:289,-1.24131,2.7793,-9.4536,-16.1967,-6.64771,92.7901
2023-02-16 21:22:52:299,-1.1822,2.77141,-9.46091,-16.1809,-6.65217,92.7728
2023-02-16 21:22:52:309,-1.15246,2.73738,-9.43638,-16.1627,-6.661,92.746
2023-02-16 21:22:52:319,-1.13506,2.72041,-9.40458,-16.1423,-6.67734,92.7116
2023-02-16 21:22:52:329,-1.12245,2.7025,-9.36753,-16.1184,-6.69519,92.6695
2023-02-16 21:22:52:339,-1.08999,2.66814,-9.32395,-16.0932,-6.71631,92.6341
2023-02-16 21:22:52:350,-1.0495,2.64959,-9.25822,-16.0722,-6.7325,92.5972
2023-02-16 21:22:52:359,-1.003,2.64463,-9.22752,-16.061,-6.74747,92.5668
2023-02-16 21:22:52:369,-0.979241,2.65645,-9.23505,-16.057,-6.75559,92.5362
2023-02-16 21:22:52:379,-0.996855,2.69105,-9.24908,-16.0588,-6.76278,92.5139
2023-02-16 21:22:52:389,-1.04699,2.72575,-9.25774,-16.0651,-6.7643,92.5054
2023-02-16 21:22:52:399,-1.09948,2.73358,-9.27898,-16.0695,-6.76443,92.5023
2023-02-16 21:22:52:409,-1.13604,2.7431,-9.29909,-16.0725,-6.76363,92.5038
2023-02-16 21:22:52:419,-1.15141,2.73356,-9.32031,-16.0746,-6.75991,92.5126
2023-02-16 21:22:52:429,-1.1423,2.70576,-9.31873,-16.0715,-6.75397,92.5222
2023-02-16 21:22:52:439,-1.1171,2.70322,-9.29544,-16.0671,-6.74765,92.533
2023-02-16 21:22:52:449,-1.10653,2.6994,-9.2922,-16.0679,-6.74225,92.5406
2023-02-16 21:22:52:459,-1.12934,2.7186,-9.3169,-16.0738,-6.73774,92.5543
2023-02-16 21:22:52:469,-1.14389,2.729,-9.32962,-16.0786,-6.73226,92.57
2023-02-16 21:22:52:479,-1.13933,2.73694,-9.35909,-16.0856,-6.72813,92.5871
2023-02-16 21:22:52:489,-1.16605,2.74997,-9.39426,-16.0927,-6.72026,92.6048
2023-02-16 21:22:52:499,-1.19892,2.75758,-9.39428,-16.0953,-6.70983,92.6208
2023-02-16 21:22:52:509,-1.22166,2.74839,-9.36706,-16.095,-6.69872,92.6359
2023-02-16 21:22:52:519,-1.20177,2.71351,-9.34899,-16.0872,-6.68407,92.6484
2023-02-16 21:22:52:529,-1.10508,2.66613,-9.34294,-16.0745,-6.66639,92.6537
2023-02-16 21:22:52:539,-1.0313,2.64507,-9.33467,-16.0662,-6.64907,92.6531
2023-02-16 21:22:52:549,-1.00643,2.60887,-9.33062,-16.0635,-6.63632,92.6525
2023-02-16 21:22:52:559,-1.01074,2.63406,-9.35991,-16.0607,-6.63023,92.6486
2023-02-16 21:22:52:569,-1.02132,2.61861,-9.3779,-16.06,-6.62845,92.6521
2023-02-16 21:22:52:579,-0.958113,2.59563,-9.36684,-16.0574,-6.62743,92.6551
2023-02-16 21:22:52:589,-0.878909,2.58218,-9.34812,-16.0548,-6.62411,92.6586
2023-02-16 21:22:52:599,-0.863277,2.54045,-9.31342,-16.052,-6.62127,92.6714
2023-02-16 21:22:52:609,-0.848942,2.5212,-9.29383,-16.0517,-6.61593,92.6882
2023-02-16 21:22:52:619,-0.827751,2.50865,-9.32207,-16.0519,-6.61311,92.7131
2023-02-16 21:22:52:629,-0.852317,2.54472,-9.37304,-16.0604,-6.61345,92.7466
2023-02-16 21:22:52:639,-0.941765,2.58129,-9.3874,-16.0672,-6.62116,92.7973
2023-02-16 21:22:52:649,-1.0162,2.59606,-9.36957,-16.0743,-6.63291,92.8541
2023-02-16 21:22:52:659,-1.11233,2.60456,-9.35303,-16.0812,-6.64485,92.9169
2023-02-16 21:22:52:669,-1.20137,2.63784,-9.34796,-16.0918,-6.66536,92.9826
2023-02-16 21:22:52:679,-1.2666,2.6495,-9.36033,-16.1001,-6.68825,93.0475
2023-02-16 21:22:52:689,-1.32776,2.66895,-9.37026,-16.1044,-6.7113,93.1087
2023-02-16 21:22:52:699,-1.38206,2.69609,-9.39279,-16.108,-6.73964,93.163
2023-02-16 21:22:52:709,-1.40605,2.71252,-9.38183,-16.1073,-6.76793,93.2127
2023-02-16 21:22:52:719,-1.4321,2.69235,-9.37634,-16.1094,-6.7984,93.2547
2023-02-16 21:22:52:729,-1.43136,2.70311,-9.34345,-16.1034,-6.82747,93.2877
2023-02-16 21:22:52:739,-1.42634,2.70348,-9.31649,-16.0963,-6.86292,93.3102
2023-02-16 21:22:52:749,-1.45782,2.67546,-9.27828,-16.0925,-6.90178,93.3242
2023-02-16 21:22:52:759,-1.4585,2.66292,-9.27171,-16.0925,-6.93585,93.3279
2023-02-16 21:22:52:769,-1.43158,2.67444,-9.27708,-16.0931,-6.96814,93.3184
2023-02-16 21:22:52:779,-1.40166,2.68444,-9.29108,-16.0884,-6.9966,93.3041
2023-02-16 21:22:52:789,-1.35945,2.69671,-9.32599,-16.0876,-7.01916,93.2825
2023-02-16 21:22:52:799,-1.29016,2.69057,-9.34608,-16.0885,-7.04066,93.2558
2023-02-16 21:22:52:810,-1.2316,2.67826,-9.33332,-16.0848,-7.05639,93.2244
2023-02-16 21:22:52:819,-1.19233,2.67645,-9.29988,-16.0846,-7.07453,93.1931
2023-02-16 21:22:52:830,-1.16966,2.67639,-9.26863,-16.0806,-7.07893,93.1672
2023-02-16 21:22:52:840,-1.15737,2.67502,-9.23872,-16.081,-7.07998,93.1481
2023-02-16 21:22:52:850,-1.15302,2.67165,-9.23948,-16.0855,-7.07707,93.135
2023-02-16 21:22:52:860,-1.13821,2.70182,-9.26795,-16.0889,-7.0682,93.1251
2023-02-16 21:22:52:870,-1.13749,2.71786,-9.28792,-16.099,-7.05569,93.1201
2023-02-16 21:22:52:880,-1.1417,2.73058,-9.28055,-16.1059,-7.04248,93.1234
2023-02-16 21:22:52:890,-1.17631,2.73691,-9.25807,-16.1188,-7.02815,93.1296
2023-02-16 21:22:52:900,-1.20656,2.73649,-9.25897,-16.1338,-7.01509,93.1406
2023-02-16 21:22:52:910,-1.22228,2.75484,-9.27026,-16.1453,-7.0004,93.1499
2023-02-16 21:22:52:920,-1.23004,2.76945,-9.31903,-16.1608,-6.98188,93.16
2023-02-16 21:22:52:930,-1.23159,2.78275,-9.33052,-16.178,-6.96447,93.1623
2023-02-16 21:22:52:940,-1.23062,2.77362,-9.31734,-16.1908,-6.94171,93.1677
2023-02-16 21:22:52:950,-1.2255,2.75208,-9.30503,-16.2006,-6.92091,93.1647
2023-02-16 21:22:52:960,-1.2137,2.7619,-9.31121,-16.2134,-6.90316,93.1595
2023-02-16 21:22:52:969,-1.19718,2.76726,-9.28186,-16.2267,-6.88546,93.1481
2023-02-16 21:22:52:980,-1.17842,2.75046,-9.24838,-16.2373,-6.86797,93.1338
2023-02-16 21:22:52:990,-1.16466,2.76128,-9.2704,-16.2494,-6.84682,93.1135
2023-02-16 21:22:53:0,-1.1318,2.79252,-9.33696,-16.2657,-6.82583,93.0907
2023-02-16 21:22:53:10,-1.07974,2.80352,-9.38975,-16.2812,-6.80545,93.065
2023-02-16 21:22:53:20,-1.0342,2.78969,-9.3667,-16.2916,-6.78628,93.0359
2023-02-16 21:22:53:30,-1.03278,2.79862,-9.36221,-16.3,-6.77466,93.0053
2023-02-16 21:22:53:40,-1.07405,2.83085,-9.36917,-16.3088,-6.77124,92.9741
2023-02-16 21:22:53:50,-1.07719,2.83529,-9.33467,-16.3204,-6.76195,92.9463
2023-02-16 21:22:53:60,-1.04767,2.82865,-9.27277,-16.3275,-6.75597,92.9195
2023-02-16 21:22:53:70,-1.03509,2.81427,-9.23615,-16.3411,-6.74308,92.8916
2023-02-16 21:22:53:80,-1.0082,2.84528,-9.26126,-16.3561,-6.73347,92.8639
2023-02-16 21:22:53:89,-0.986976,2.86801,-9.29763,-16.374,-6.72363,92.8399
2023-02-16 21:22:53:100,-1.01746,2.89372,-9.30937,-16.3965,-6.71464,92.8211
2023-02-16 21:22:53:109,-1.05159,2.90658,-9.31363,-16.4164,-6.71237,92.8041
2023-02-16 21:22:53:119,-1.08084,2.93037,-9.34476,-16.437,-6.70965,92.7924
2023-02-16 21:22:53:129,-1.10065,2.94026,-9.35061,-16.4547,-6.71319,92.7806
2023-02-16 21:22:53:139,-1.14511,2.92565,-9.35024,-16.4678,-6.71836,92.77
2023-02-16 21:22:53:150,-1.15617,2.92585,-9.34445,-16.4737,-6.72695,92.7581
2023-02-16 21:22:53:159,-1.1764,2.94177,-9.34837,-16.4783,-6.7412,92.744
2023-02-16 21:22:53:169,-1.23628,2.99487,-9.35191,-16.4872,-6.76418,92.7334
2023-02-16 21:22:53:179,-1.33431,3.04443,-9.37426,-16.4991,-6.79121,92.7214
2023-02-16 21:22:53:189,-1.40036,3.07196,-9.40844,-16.5079,-6.81452,92.7071
2023-02-16 21:22:53:199,-1.40469,3.07051,-9.41886,-16.5089,-6.83302,92.6873
2023-02-16 21:22:53:209,-1.39768,3.06279,-9.4129,-16.5009,-6.8462,92.6624
2023-02-16 21:22:53:219,-1.38302,3.03595,-9.41129,-16.484,-6.84959,92.6321
2023-02-16 21:22:53:229,-1.35755,2.98474,-9.39028,-16.4549,-6.84307,92.599
2023-02-16 21:22:53:239,-1.27237,2.88663,-9.33078,-16.4155,-6.83128,92.5576
2023-02-16 21:22:53:249,-1.20569,2.81094,-9.26373,-16.3695,-6.81472,92.5101
2023-02-16 21:22:53:259,-1.18722,2.76833,-9.22646,-16.3199,-6.7944,92.46
2023-02-16 21:22:53:269,-1.16058,2.73803,-9.23884,-16.2748,-6.77825,92.407
2023-02-16 21:22:53:279,-1.1382,2.7082,-9.27252,-16.2341,-6.75924,92.3509
2023-02-16 21:22:53:289,-1.12712,2.70493,-9.32196,-16.1964,-6.74293,92.2962
2023-02-16 21:22:53:299,-1.11164,2.70892,-9.35745,-16.1584,-6.72791,92.2406
2023-02-16 21:22:53:309,-1.09735,2.6997,-9.34684,-16.1188,-6.7127,92.1864
2023-02-16 21:22:53:319,-1.08969,2.66657,-9.3392,-16.0791,-6.69945,92.1299
2023-02-16 21:22:53:329,-1.06361,2.63022,-9.32379,-16.0348,-6.68219,92.0729
2023-02-16 21:22:53:339,-1.05926,2.55999,-9.29427,-15.9877,-6.66662,92.0167
2023-02-16 21:22:53:349,-1.05639,2.50739,-9.22303,-15.9387,-6.65331,91.9611
2023-02-16 21:22:53:359,-1.03302,2.43416,-9.1467,-15.895,-6.64054,91.901
2023-02-16 21:22:53:369,-1.01378,2.43531,-9.15437,-15.8587,-6.62988,91.8432
2023-02-16 21:22:53:379,-1.005,2.48078,-9.25557,-15.8347,-6.61986,91.7869
2023-02-16 21:22:53:389,-0.996741,2.51654,-9.32798,-15.8192,-6.61063,91.7311
2023-02-16 21:22:53:399,-0.986191,2.50706,-9.31125,-15.8061,-6.60543,91.678
2023-02-16 21:22:53:409,-0.981816,2.50612,-9.29765,-15.7949,-6.60073,91.6299
2023-02-16 21:22:53:419,-0.986589,2.52311,-9.32998,-15.7932,-6.5975,91.588
2023-02-16 21:22:53:429,-0.971848,2.53682,-9.37103,-15.7963,-6.59812,91.5509
2023-02-16 21:22:53:439,-0.968237,2.56417,-9.38095,-15.8017,-6.59844,91.5161
2023-02-16 21:22:53:449,-0.96655,2.55837,-9.33199,-15.8003,-6.6001,91.4853
2023-02-16 21:22:53:459,-0.992138,2.51571,-9.24857,-15.801,-6.60247,91.4586
2023-02-16 21:22:53:469,-0.988745,2.50998,-9.21872,-15.8099,-6.60361,91.4431
2023-02-16 21:22:53:479,-1.00826,2.49781,-9.23604,-15.8201,-6.60568,91.4264
2023-02-16 21:22:53:489,-1.0422,2.51136,-9.22495,-15.8417,-6.60966,91.4163
2023-02-16 21:22:53:499,-1.05186,2.51869,-9.2193,-15.8764,-6.61172,91.4148
2023-02-16 21:22:53:509,-1.04995,2.55398,-9.2582,-15.9159,-6.61085,91.4165
2023-02-16 21:22:53:519,-1.04999,2.61088,-9.30263,-15.961,-6.61017,91.4218
2023-02-16 21:22:53:529,-1.0772,2.67116,-9.36409,-16.0102,-6.61063,91.4324
2023-02-16 21:22:53:539,-1.09849,2.77156,-9.46241,-16.0623,-6.61755,91.4498
2023-02-16 21:22:53:549,-1.12545,2.79178,-9.4688,-16.1119,-6.62131,91.4703
2023-02-16 21:22:53:559,-1.16903,2.80744,-9.44294,-16.1572,-6.62145,91.4936
2023-02-16 21:22:53:569,-1.17962,2.81754,-9.44158,-16.196,-6.6186,91.5205
2023-02-16 21:22:53:579,-1.18703,2.91802,-9.52228,-16.2317,-6.61793,91.5474
2023-02-16 21:22:53:589,-1.21143,3.00513,-9.59607,-16.2591,-6.61673,91.5749
2023-02-16 21:22:53:599,-1.24979,2.98201,-9.52689,-16.2707,-6.6125,91.6016
2023-02-16 21:22:53:609,-1.27057,2.92014,-9.43961,-16.269,-6.60757,91.6267
2023-02-16 21:22:53:619,-1.26214,2.84215,-9.35555,-16.2587,-6.60456,91.6438
2023-02-16 21:22:53:629,-1.2901,2.79596,-9.29318,-16.2418,-6.59858,91.6571
2023-02-16 21:22:53:639,-1.29897,2.80924,-9.3175,-16.2284,-6.59495,91.6654
2023-02-16 21:22:53:649,-1.30093,2.80081,-9.36013,-16.214,-6.5886,91.6666
2023-02-16 21:22:53:659,-1.33083,2.76023,-9.32756,-16.1933,-6.58326,91.6615
2023-02-16 21:22:53:669,-1.32454,2.77874,-9.31993,-16.1742,-6.5789,91.6503
2023-02-16 21:22:53:679,-1.25734,2.78896,-9.36078,-16.1531,-6.57775,91.625
2023-02-16 21:22:53:689,-1.2047,2.76199,-9.38846,-16.1255,-6.57954,91.5914
2023-02-16 21:22:53:699,-1.12936,2.75771,-9.41722,-16.0964,-6.58134,91.5481
2023-02-16 21:22:53:709,-1.04028,2.71159,-9.38342,-16.061,-6.58337,91.5052
2023-02-16 21:22:53:720,-1.02809,2.66584,-9.31823,-16.022,-6.58022,91.4646
2023-02-16 21:22:53:730,-1.05404,2.65231,-9.30361,-15.9849,-6.57625,91.4267
2023-02-16 21:22:53:739,-1.04338,2.638,-9.33214,-15.9495,-6.57362,91.3936
2023-02-16 21:22:53:749,-1.06452,2.61658,-9.39284,-15.917,-6.56797,91.3649
2023-02-16 21:22:53:759,-1.0694,2.62482,-9.44777,-15.8875,-6.56542,91.3385
2023-02-16 21:22:53:769,-1.03867,2.61291,-9.43456,-15.8537,-6.56832,91.3114
2023-02-16 21:22:53:780,-1.01743,2.57957,-9.33162,-15.8217,-6.57069,91.2873
2023-02-16 21:22:53:790,-1.05817,2.53036,-9.20297,-15.7874,-6.57327,91.2682
2023-02-16 21:22:53:800,-1.10453,2.52162,-9.13776,-15.7661,-6.57644,91.2573
2023-02-16 21:22:53:810,-1.09881,2.56549,-9.19794,-15.7538,-6.57994,91.2436
2023-02-16 21:22:53:820,-1.04431,2.63619,-9.29552,-15.7518,-6.57934,91.2329
2023-02-16 21:22:53:830,-1.06838,2.64042,-9.32848,-15.7536,-6.57854,91.2253
2023-02-16 21:22:53:840,-1.09768,2.65184,-9.32101,-15.7539,-6.57527,91.2225
2023-02-16 21:22:53:850,-1.09205,2.68918,-9.34479,-15.7559,-6.57079,91.2249
2023-02-16 21:22:53:860,-1.11388,2.68294,-9.33195,-15.7523,-6.5617,91.2251
2023-02-16 21:22:53:870,-1.1114,2.66075,-9.28796,-15.7472,-6.55169,91.2256
2023-02-16 21:22:53:880,-1.08436,2.64159,-9.27922,-15.7409,-6.54254,91.226
2023-02-16 21:22:53:890,-1.06331,2.65633,-9.30215,-15.7373,-6.52762,91.2229
2023-02-16 21:22:53:900,-1.07154,2.66152,-9.34665,-15.7312,-6.51591,91.2214
2023-02-16 21:22:53:910,-1.06117,2.66852,-9.36343,-15.7289,-6.50372,91.2215
2023-02-16 21:22:53:920,-1.03732,2.67149,-9.36467,-15.7276,-6.48646,91.219
2023-02-16 21:22:53:930,-1.01958,2.66454,-9.34315,-15.7277,-6.47507,91.2165
2023-02-16 21:22:53:940,-1.00148,2.68752,-9.37746,-15.7299,-6.46156,91.2164
2023-02-16 21:22:53:950,-1.02159,2.72266,-9.43577,-15.7342,-6.44832,91.2119
2023-02-16 21:22:53:960,-1.04912,2.74367,-9.45369,-15.7383,-6.43855,91.2104
2023-02-16 21:22:53:970,-1.03504,2.72336,-9.43791,-15.734,-6.43135,91.2078
2023-02-16 21:22:53:980,-1.01481,2.7005,-9.40855,-15.7264,-6.42352,91.2003
2023-02-16 21:22:53:990,-1.02469,2.70312,-9.37145,-15.7171,-6.41476,91.1952
2023-02-16 21:22:54:0,-1.02536,2.69115,-9.35231,-15.7082,-6.4163,91.1904
2023-02-16 21:22:54:10,-1.02839,2.68175,-9.34541,-15.696,-6.4168,91.1805
2023-02-16 21:22:54:20,-1.0198,2.65979,-9.3441,-15.6836,-6.41711,91.1704
2023-02-16 21:22:54:30,-1.00936,2.65598,-9.36139,-15.6724,-6.42181,91.1593
2023-02-16 21:22:54:40,-1.01123,2.6533,-9.36558,-15.6564,-6.42942,91.1484
2023-02-16 21:22:54:50,-1.01303,2.65303,-9.35858,-15.6428,-6.43737,91.14
2023-02-16 21:22:54:60,-1.02414,2.64891,-9.34253,-15.6322,-6.44677,91.13
2023-02-16 21:22:54:70,-1.04296,2.61809,-9.31337,-15.6216,-6.46072,91.1212
2023-02-16 21:22:54:80,-1.05629,2.61546,-9.29115,-15.6158,-6.4809,91.1184
2023-02-16 21:22:54:90,-1.09857,2.62352,-9.30317,-15.6095,-6.50015,91.1136
2023-02-16 21:22:54:100,-1.12955,2.64472,-9.29767,-15.6098,-6.52332,91.1153
2023-02-16 21:22:54:110,-1.1454,2.66115,-9.3277,-15.6115,-6.54603,91.1125
2023-02-16 21:22:54:120,-1.1655,2.6721,-9.36179,-15.6128,-6.56167,91.1141
2023-02-16 21:22:54:130,-1.15666,2.67749,-9.38074,-15.6129,-6.57719,91.115
2023-02-16 21:22:54:140,-1.15018,2.67843,-9.37359,-15.6099,-6.5909,91.1109
2023-02-16 21:22:54:150,-1.13911,2.68268,-9.37389,-15.6068,-6.60416,91.1052
2023-02-16 21:22:54:160,-1.138,2.68041,-9.38801,-15.5982,-6.61829,91.0994
2023-02-16 21:22:54:170,-1.11975,2.67056,-9.38726,-15.5877,-6.62874,91.096
2023-02-16 21:22:54:180,-1.11437,2.66611,-9.38137,-15.5806,-6.63977,91.0949
2023-02-16 21:22:54:190,-1.12345,2.64765,-9.37428,-15.5696,-6.65052,91.0932
2023-02-16 21:22:54:200,-1.1449,2.64187,-9.37476,-15.5596,-6.66638,91.0951
2023-02-16 21:22:54:210,-1.17759,2.64656,-9.37736,-15.5469,-6.68076,91.0946
2023-02-16 21:22:54:220,-1.19408,2.66099,-9.37621,-15.5331,-6.69587,91.0929
2023-02-16 21:22:54:230,-1.20005,2.65362,-9.39534,-15.5184,-6.70698,91.0924
2023-02-16 21:22:54:240,-1.22117,2.64614,-9.39809,-15.4998,-6.716,91.0922
2023-02-16 21:22:54:250,-1.21684,2.62476,-9.37376,-15.4819,-6.72496,91.0903
2023-02-16 21:22:54:260,-1.19502,2.61142,-9.35898,-15.4562,-6.73281,91.0844
2023-02-16 21:22:54:269,-1.17293,2.58584,-9.33036,-15.4342,-6.73704,91.0771
2023-02-16 21:22:54:279,-1.16315,2.56614,-9.3078,-15.41,-6.74303,91.0647
2023-02-16 21:22:54:290,-1.15351,2.55345,-9.30978,-15.3867,-6.7467,91.0509
2023-02-16 21:22:54:300,-1.14468,2.54594,-9.30733,-15.3663,-6.75599,91.0411
2023-02-16 21:22:54:310,-1.16528,2.55407,-9.3134,-15.3497,-6.76344,91.028
2023-02-16 21:22:54:320,-1.19,2.54514,-9.34645,-15.3344,-6.77283,91.0143
2023-02-16 21:22:54:329,-1.19091,2.55398,-9.37465,-15.3184,-6.78532,91
2023-02-16 21:22:54:340,-1.17693,2.56195,-9.39179,-15.3044,-6.79967,90.981
2023-02-16 21:22:54:350,-1.19805,2.5556,-9.38196,-15.2886,-6.81158,90.9651
2023-02-16 21:22:54:360,-1.20308,2.55112,-9.38084,-15.2737,-6.82455,90.9464
2023-02-16 21:22:54:370,-1.18007,2.56453,-9.38983,-15.2581,-6.83703,90.9257
2023-02-16 21:22:54:380,-1.17354,2.54277,-9.36301,-15.2426,-6.84689,90.9041
2023-02-16 21:22:54:390,-1.17834,2.52182,-9.35539,-15.226,-6.85618,90.8828
2023-02-16 21:22:54:400,-1.1602,2.5272,-9.35552,-15.2087,-6.86345,90.8611
2023-02-16 21:22:54:410,-1.17363,2.51131,-9.33598,-15.1946,-6.86922,90.8381
2023-02-16 21:22:54:420,-1.17489,2.52384,-9.36476,-15.1825,-6.8735,90.8172
2023-02-16 21:22:54:430,-1.16729,2.51889,-9.34128,-15.169,-6.87449,90.7961
2023-02-16 21:22:54:440,-1.16652,2.48231,-9.31311,-15.1562,-6.87485,90.7785
2023-02-16 21:22:54:450,-1.16954,2.47162,-9.33737,-15.1408,-6.87045,90.7576
2023-02-16 21:22:54:460,-1.15702,2.49085,-9.39116,-15.1268,-6.86815,90.7399
2023-02-16 21:22:54:470,-1.12349,2.50505,-9.41398,-15.1195,-6.86872,90.7212
2023-02-16 21:22:54:480,-1.09145,2.48362,-9.41778,-15.1137,-6.86764,90.7021
2023-02-16 21:22:54:490,-1.1106,2.46566,-9.42171,-15.1092,-6.87231,90.6842
2023-02-16 21:22:54:500,-1.13359,2.47664,-9.41143,-15.1036,-6.88015,90.6695
2023-02-16 21:22:54:510,-1.15488,2.4898,-9.38676,-15.0982,-6.88996,90.6557
2023-02-16 21:22:54:520,-1.18768,2.50248,-9.36222,-15.0967,-6.89601,90.645
2023-02-16 21:22:54:529,-1.21542,2.52064,-9.35617,-15.0969,-6.90659,90.6356
2023-02-16 21:22:54:539,-1.2085,2.53565,-9.34374,-15.0985,-6.91272,90.6284
2023-02-16 21:22:54:550,-1.2015,2.53962,-9.33881,-15.0958,-6.91031,90.623
2023-02-16 21:22:54:559,-1.19165,2.5387,-9.33452,-15.0992,-6.90915,90.6159
2023-02-16 21:22:54:570,-1.20053,2.5385,-9.30732,-15.1053,-6.90558,90.6067
2023-02-16 21:22:54:580,-1.21039,2.52886,-9.29946,-15.1102,-6.89934,90.5999
2023-02-16 21:22:54:590,-1.23135,2.54315,-9.30556,-15.1186,-6.88988,90.5952
2023-02-16 21:22:54:600,-1.22904,2.5549,-9.32025,-15.1216,-6.88333,90.5851
2023-02-16 21:22:54:610,-1.23833,2.56945,-9.35675,-15.1235,-6.87263,90.5721
2023-02-16 21:22:54:620,-1.22027,2.58456,-9.38241,-15.1244,-6.86407,90.5541
2023-02-16 21:22:54:630,-1.19188,2.5761,-9.38965,-15.1289,-6.85943,90.5379
2023-02-16 21:22:54:640,-1.17129,2.58158,-9.41814,-15.1324,-6.855,90.5223
2023-02-16 21:22:54:650,-1.16821,2.57654,-9.41863,-15.1346,-6.85153,90.501
2023-02-16 21:22:54:660,-1.19096,2.5642,-9.3952,-15.1365,-6.84971,90.4784
2023-02-16 21:22:54:670,-1.1859,2.56807,-9.40331,-15.1371,-6.84918,90.4597
2023-02-16 21:22:54:680,-1.18733,2.59912,-9.45181,-15.1369,-6.8484,90.4356
2023-02-16 21:22:54:689,-1.21006,2.63221,-9.48461,-15.1358,-6.84822,90.4154
2023-02-16 21:22:54:700,-1.18688,2.61466,-9.46342,-15.1307,-6.84798,90.3977
2023-02-16 21:22:54:710,-1.16829,2.57315,-9.41049,-15.1217,-6.84683,90.3761
2023-02-16 21:22:54:720,-1.18994,2.54829,-9.3677,-15.1069,-6.84846,90.3539
2023-02-16 21:22:54:730,-1.2099,2.54449,-9.36195,-15.0931,-6.85236,90.3317
2023-02-16 21:22:54:740,-1.21276,2.53702,-9.35271,-15.0815,-6.85673,90.3153
2023-02-16 21:22:54:750,-1.21501,2.52475,-9.35271,-15.0669,-6.85903,90.2945
2023-02-16 21:22:54:760,-1.19791,2.51577,-9.35366,-15.0556,-6.85806,90.2707
2023-02-16 21:22:54:770,-1.19818,2.51357,-9.34779,-15.041,-6.85665,90.2479
2023-02-16 21:22:54:780,-1.2081,2.51265,-9.35167,-15.0312,-6.85504,90.2265
2023-02-16 21:22:54:790,-1.20133,2.51146,-9.36196,-15.016,-6.85257,90.2027
2023-02-16 21:22:54:800,-1.19776,2.50326,-9.354,-15.0007,-6.84645,90.1766
2023-02-16 21:22:54:810,-1.21089,2.49429,-9.33223,-14.9878,-6.84278,90.152
2023-02-16 21:22:54:820,-1.21095,2.48432,-9.32617,-14.9745,-6.83452,90.1238
2023-02-16 21:22:54:830,-1.19515,2.48854,-9.35079,-14.967,-6.82784,90.0943
2023-02-16 21:22:54:840,-1.17168,2.4812,-9.34783,-14.9596,-6.82137,90.0647
2023-02-16 21:22:54:850,-1.16201,2.49252,-9.3574,-14.9516,-6.81565,90.0348
2023-02-16 21:22:54:860,-1.15419,2.50777,-9.38662,-14.9505,-6.80887,90.0009
2023-02-16 21:22:54:870,-1.15647,2.53686,-9.3981,-14.9526,-6.80666,89.9638
2023-02-16 21:22:54:880,-1.12514,2.54094,-9.40989,-14.9529,-6.80297,89.9307
2023-02-16 21:22:54:890,-1.10477,2.54259,-9.39615,-14.9535,-6.80195,89.8961
2023-02-16 21:22:54:900,-1.13226,2.54268,-9.4039,-14.9515,-6.79949,89.8585
2023-02-16 21:22:54:910,-1.14405,2.56481,-9.42321,-14.9522,-6.79971,89.8245
2023-02-16 21:22:54:920,-1.10036,2.55627,-9.44131,-14.9493,-6.80223,89.7898
2023-02-16 21:22:54:930,-1.1303,2.53359,-9.39713,-14.9435,-6.80523,89.7579
2023-02-16 21:22:54:940,-1.142,2.52008,-9.3808,-14.9383,-6.8074,89.7279
2023-02-16 21:22:54:950,-1.11137,2.52387,-9.39006,-14.929,-6.80693,89.6959
2023-02-16 21:22:54:960,-1.1209,2.52068,-9.40772,-14.9211,-6.81108,89.6664
2023-02-16 21:22:54:970,-1.09283,2.52727,-9.44774,-14.9121,-6.81171,89.6383
2023-02-16 21:22:54:980,-1.03607,2.53188,-9.4572,-14.9012,-6.81102,89.6158
2023-02-16 21:22:54:990,-1.03226,2.51522,-9.42412,-14.8874,-6.80065,89.5989
2023-02-16 21:22:55:0,-1.0334,2.48836,-9.38275,-14.8714,-6.79146,89.589
2023-02-16 21:22:55:10,-1.0451,2.47517,-9.38751,-14.8543,-6.77943,89.5814
2023-02-16 21:22:55:20,-1.06132,2.47455,-9.39537,-14.8371,-6.76632,89.5834
2023-02-16 21:22:55:30,-1.0938,2.47011,-9.37505,-14.8228,-6.75505,89.5879
2023-02-16 21:22:55:40,-1.12144,2.45805,-9.34865,-14.812,-6.74523,89.5946
2023-02-16 21:22:55:50,-1.14527,2.46228,-9.34874,-14.801,-6.73621,89.6003
2023-02-16 21:22:55:60,-1.179,2.45926,-9.34456,-14.7906,-6.73278,89.6067
2023-02-16 21:22:55:70,-1.1834,2.46388,-9.33699,-14.7839,-6.72841,89.6051
2023-02-16 21:22:55:80,-1.20446,2.46928,-9.35311,-14.7804,-6.72997,89.606
2023-02-16 21:22:55:90,-1.20836,2.49037,-9.36226,-14.7784,-6.73212,89.6022
2023-02-16 21:22:55:100,-1.20619,2.48859,-9.35343,-14.7786,-6.73613,89.5974
2023-02-16 21:22:55:110,-1.19293,2.49819,-9.34737,-14.7794,-6.74072,89.5862
2023-02-16 21:22:55:120,-1.18276,2.49895,-9.3521,-14.784,-6.7383,89.5714
2023-02-16 21:22:55:130,-1.16485,2.49105,-9.33918,-14.7866,-6.73692,89.5598
2023-02-16 21:22:55:140,-1.16129,2.47929,-9.33608,-14.792,-6.73513,89.5426
2023-02-16 21:22:55:150,-1.16063,2.47469,-9.33907,-14.798,-6.72989,89.5259
2023-02-16 21:22:55:160,-1.15731,2.49125,-9.38674,-14.8042,-6.7243,89.509
2023-02-16 21:22:55:170,-1.17257,2.5121,-9.42127,-14.811,-6.72148,89.491
2023-02-16 21:22:55:180,-1.18269,2.50609,-9.34778,-14.8172,-6.71465,89.4733
2023-02-16 21:22:55:190,-1.16349,2.45422,-9.32785,-14.8174,-6.70277,89.4519
2023-02-16 21:22:55:200,-1.17154,2.49475,-9.4045,-14.8179,-6.69226,89.4312
2023-02-16 21:22:55:210,-1.17109,2.51331,-9.48185,-14.8245,-6.68697,89.405
2023-02-16 21:22:55:220,-1.10948,2.50624,-9.49821,-14.8275,-6.67929,89.3767
2023-02-16 21:22:55:230,-1.11248,2.49373,-9.45664,-14.8264,-6.6732,89.3444
2023-02-16 21:22:55:240,-1.16189,2.51192,-9.43398,-14.8267,-6.67455,89.3109
2023-02-16 21:22:55:250,-1.12738,2.51784,-9.39647,-14.8298,-6.67896,89.2763
2023-02-16 21:22:55:260,-1.12188,2.49169,-9.35817,-14.8321,-6.68394,89.2367
2023-02-16 21:22:55:270,-1.14921,2.52339,-9.35107,-14.8399,-6.69152,89.1992
2023-02-16 21:22:55:280,-1.11883,2.54612,-9.36781,-14.8538,-6.69423,89.1597
2023-02-16 21:22:55:290,-1.09502,2.53888,-9.35187,-14.8628,-6.69445,89.1192
2023-02-16 21:22:55:300,-1.0948,2.54725,-9.35833,-14.8741,-6.69464,89.0822
2023-02-16 21:22:55:310,-1.11134,2.57252,-9.36657,-14.8847,-6.69305,89.0479
2023-02-16 21:22:55:320,-1.09996,2.5778,-9.36727,-14.8888,-6.69161,89.0113
2023-02-16 21:22:55:330,-1.10825,2.57634,-9.3796,-14.8931,-6.68862,88.9768
2023-02-16 21:22:55:340,-1.11821,2.57819,-9.39857,-14.8936,-6.6864,88.9411
2023-02-16 21:22:55:350,-1.09619,2.56544,-9.41189,-14.8896,-6.68003,88.9036
2023-02-16 21:22:55:360,-1.07304,2.54559,-9.40862,-14.8822,-6.66958,88.8679
2023-02-16 21:22:55:370,-1.06716,2.5239,-9.4145,-14.8746,-6.66013,88.8367
2023-02-16 21:22:55:380,-1.05103,2.52362,-9.43171,-14.865,-6.64969,88.8036
2023-02-16 21:22:55:390,-1.03391,2.52008,-9.4128,-14.8612,-6.63835,88.775
2023-02-16 21:22:55:400,-1.03634,2.50684,-9.40459,-14.8538,-6.62667,88.7453
2023-02-16 21:22:55:410,-1.0472,2.53834,-9.4453,-14.8488,-6.61986,88.7232
2023-02-16 21:22:55:420,-1.04339,2.55483,-9.45946,-14.8459,-6.61098,88.7
2023-02-16 21:22:55:430,-1.03028,2.54113,-9.43892,-14.8438,-6.60137,88.6808
2023-02-16 21:22:55:440,-0.998205,2.52508,-9.43178,-14.8374,-6.59334,88.6623
2023-02-16 21:22:55:450,-1.01128,2.52325,-9.42863,-14.8286,-6.58293,88.6483
2023-02-16 21:22:55:460,-1.02844,2.51282,-9.4086,-14.8135,-6.58109,88.635
2023-02-16 21:22:55:470,-1.04985,2.4828,-9.37008,-14.7992,-6.57719,88.6246
2023-02-16 21:22:55:480,-1.05389,2.46383,-9.33497,-14.7869,-6.57778,88.62
2023-02-16 21:22:55:490,-1.05394,2.46676,-9.3495,-14.7783,-6.57694,88.6125
2023-02-16 21:22:55:500,-1.0522,2.49301,-9.40898,-14.7697,-6.5731,88.6068
2023-02-16 21:22:55:510,-1.06134,2.51262,-9.45386,-14.762,-6.5718,88.6
2023-02-16 21:22:55:520,-1.06398,2.50781,-9.41185,-14.7522,-6.5695,88.5991
2023-02-16 21:22:55:530,-1.06768,2.49515,-9.38928,-14.7392,-6.56769,88.5968
2023-02-16 21:22:55:540,-1.08577,2.50225,-9.38238,-14.7273,-6.56958,88.5969
2023-02-16 21:22:55:550,-1.09749,2.49613,-9.37469,-14.7146,-6.56973,88.5995
2023-02-16 21:22:55:560,-1.09045,2.4711,-9.37877,-14.7002,-6.56964,88.6033
2023-02-16 21:22:55:570,-1.08821,2.45964,-9.37833,-14.6885,-6.57027,88.6077
2023-02-16 21:22:55:580,-1.09003,2.46233,-9.38328,-14.6757,-6.56846,88.6118
2023-02-16 21:22:55:590,-1.09271,2.45213,-9.38433,-14.6634,-6.56726,88.6165
2023-02-16 21:22:55:600,-1.08008,2.45149,-9.40629,-14.6522,-6.56967,88.6196
2023-02-16 21:22:55:610,-1.07424,2.44492,-9.41655,-14.6409,-6.5733,88.6265
2023-02-16 21:22:55:620,-1.08558,2.4408,-9.39799,-14.6344,-6.57401,88.6332
2023-02-16 21:22:55:630,-1.09017,2.42274,-9.37001,-14.6245,-6.57735,88.6408
2023-02-16 21:22:55:640,-1.11046,2.4219,-9.3633,-14.6186,-6.58285,88.6486
2023-02-16 21:22:55:650,-1.12071,2.43839,-9.37643,-14.6173,-6.59125,88.6618
2023-02-16 21:22:55:660,-1.13529,2.46175,-9.40325,-14.6162,-6.59702,88.6711
2023-02-16 21:22:55:670,-1.15183,2.46782,-9.40587,-14.6145,-6.60215,88.6818
2023-02-16 21:22:55:680,-1.15701,2.45551,-9.39926,-14.6106,-6.60605,88.6906
2023-02-16 21:22:55:690,-1.15453,2.45818,-9.39735,-14.6076,-6.61074,88.7003
2023-02-16 21:22:55:700,-1.15012,2.45211,-9.39372,-14.6059,-6.61338,88.7093
2023-02-16 21:22:55:710,-1.13506,2.43374,-9.38566,-14.5983,-6.61645,88.7187
2023-02-16 21:22:55:720,-1.13579,2.42899,-9.37832,-14.5958,-6.61671,88.7247
2023-02-16 21:22:55:730,-1.14275,2.45032,-9.39857,-14.5941,-6.61714,88.7329
2023-02-16 21:22:55:740,-1.1451,2.45674,-9.40767,-14.5916,-6.6177,88.7379
2023-02-16 21:22:55:750,-1.14877,2.44807,-9.37764,-14.5914,-6.61918,88.7442
2023-02-16 21:22:55:760,-1.14319,2.45375,-9.37943,-14.5911,-6.62299,88.7517
2023-02-16 21:22:55:770,-1.13957,2.46377,-9.37027,-14.5908,-6.62217,88.7571
2023-02-16 21:22:55:780,-1.14196,2.45492,-9.36403,-14.5893,-6.62098,88.7643
2023-02-16 21:22:55:790,-1.14057,2.45817,-9.35806,-14.5942,-6.61479,88.7696
2023-02-16 21:22:55:800,-1.13403,2.46165,-9.36407,-14.592,-6.6121,88.7734
2023-02-16 21:22:55:810,-1.13571,2.45585,-9.38877,-14.5928,-6.60746,88.7791
2023-02-16 21:22:55:820,-1.14501,2.46507,-9.39854,-14.5957,-6.5986,88.7849
2023-02-16 21:22:55:830,-1.14699,2.47308,-9.4096,-14.5966,-6.59061,88.7876
2023-02-16 21:22:55:840,-1.12169,2.45701,-9.40532,-14.5984,-6.58005,88.7923
2023-02-16 21:22:55:850,-1.10547,2.45823,-9.4085,-14.5989,-6.56767,88.7948
2023-02-16 21:22:55:860,-1.10465,2.46179,-9.41512,-14.5987,-6.55601,88.7985
2023-02-16 21:22:55:870,-1.09977,2.42814,-9.40177,-14.5996,-6.5429,88.7977
2023-02-16 21:22:55:880,-1.07853,2.42363,-9.3954,-14.5989,-6.53583,88.8011
2023-02-16 21:22:55:890,-1.05558,2.43964,-9.43118,-14.6006,-6.52899,88.8028
2023-02-16 21:22:55:900,-1.05731,2.46974,-9.4994,-14.6021,-6.51911,88.8013
2023-02-16 21:22:55:910,-1.04186,2.46724,-9.50061,-14.6021,-6.51072,88.8002
2023-02-16 21:22:55:920,-1.03479,2.44935,-9.46188,-14.5958,-6.50918,88.799
2023-02-16 21:22:55:930,-1.05026,2.44044,-9.43044,-14.5905,-6.51079,88.7982
2023-02-16 21:22:55:940,-1.08965,2.43812,-9.39649,-14.5872,-6.51861,88.7997
2023-02-16 21:22:55:950,-1.12324,2.44258,-9.36776,-14.585,-6.52573,88.8014
2023-02-16 21:22:55:960,-1.14555,2.44772,-9.34548,-14.5837,-6.53249,88.8059
2023-02-16 21:22:55:970,-1.14284,2.4552,-9.36291,-14.5869,-6.53225,88.8114
2023-02-16 21:22:55:980,-1.12044,2.46458,-9.41513,-14.5939,-6.53349,88.8148
2023-02-16 21:22:55:990,-1.1445,2.49134,-9.40649,-14.6006,-6.53209,88.8179
2023-02-16 21:22:56:0,-1.15684,2.49446,-9.40735,-14.6023,-6.52799,88.824
2023-02-16 21:22:56:10,-1.16271,2.49984,-9.42493,-14.6046,-6.52425,88.8287
2023-02-16 21:22:56:20,-1.16673,2.50922,-9.39418,-14.6051,-6.52039,88.8299
2023-02-16 21:22:56:30,-1.16431,2.48462,-9.37104,-14.6009,-6.51419,88.8296
2023-02-16 21:22:56:40,-1.14969,2.46784,-9.3655,-14.5967,-6.50984,88.8268
2023-02-16 21:22:56:50,-1.12356,2.44735,-9.37321,-14.5902,-6.50422,88.8201
2023-02-16 21:22:56:60,-1.10079,2.4567,-9.40856,-14.5873,-6.50053,88.8163
2023-02-16 21:22:56:70,-1.09093,2.47685,-9.40673,-14.5851,-6.49322,88.8085
2023-02-16 21:22:56:80,-1.10237,2.47716,-9.38681,-14.5824,-6.48551,88.8002
2023-02-16 21:22:56:90,-1.09934,2.46335,-9.39035,-14.5809,-6.47745,88.795
2023-02-16 21:22:56:100,-1.10613,2.47594,-9.44017,-14.5845,-6.4718,88.7929
2023-02-16 21:22:56:110,-1.12889,2.50875,-9.47727,-14.5891,-6.46207,88.7873
2023-02-16 21:22:56:120,-1.10863,2.51399,-9.47467,-14.5874,-6.45226,88.7812
2023-02-16 21:22:56:130,-1.04695,2.47401,-9.44419,-14.5811,-6.43994,88.7731
2023-02-16 21:22:56:140,-1.02966,2.45621,-9.41441,-14.5762,-6.429,88.7655
2023-02-16 21:22:56:150,-1.03291,2.44956,-9.41353,-14.5695,-6.42122,88.7596
2023-02-16 21:22:56:160,-1.04874,2.44917,-9.4016,-14.5631,-6.41611,88.7536
2023-02-16 21:22:56:170,-1.05836,2.44993,-9.37537,-14.5555,-6.41126,88.7498
2023-02-16 21:22:56:180,-1.06131,2.41463,-9.3677,-14.55,-6.4094,88.7436
2023-02-16 21:22:56:190,-1.03692,2.41156,-9.36778,-14.5474,-6.40665,88.7376
2023-02-16 21:22:56:200,-1.03119,2.41512,-9.38447,-14.5474,-6.40178,88.734
2023-02-16 21:22:56:210,-1.02793,2.41871,-9.38679,-14.5493,-6.39643,88.7281
2023-02-16 21:22:56:220,-1.03477,2.41904,-9.38592,-14.5539,-6.39311,88.7257
2023-02-16 21:22:56:230,-1.03985,2.44304,-9.41267,-14.5553,-6.39153,88.7248
2023-02-16 21:22:56:240,-1.05874,2.46699,-9.43443,-14.5567,-6.39199,88.728
2023-02-16 21:22:56:250,-1.05944,2.46959,-9.45075,-14.5585,-6.39529,88.7251
2023-02-16 21:22:56:260,-1.06074,2.45498,-9.4423,-14.5575,-6.39517,88.7189
2023-02-16 21:22:56:270,-1.05598,2.44984,-9.42374,-14.5539,-6.39413,88.7159
2023-02-16 21:22:56:280,-1.0468,2.43509,-9.42303,-14.5519,-6.39373,88.7178
2023-02-16 21:22:56:290,-1.03422,2.41425,-9.4039,-14.5504,-6.39882,88.7188
2023-02-16 21:22:56:300,-1.03091,2.40467,-9.38806,-14.5503,-6.40274,88.7199
2023-02-16 21:22:56:310,-1.0386,2.39848,-9.40037,-14.5501,-6.40983,88.7218
2023-02-16 21:22:56:320,-1.03438,2.40133,-9.41431,-14.5511,-6.41734,88.7275
2023-02-16 21:22:56:330,-1.046,2.41557,-9.40793,-14.5526,-6.42463,88.733
2023-02-16 21:22:56:340,-1.05115,2.43499,-9.43564,-14.5546,-6.43076,88.7443
2023-02-16 21:22:56:350,-1.05453,2.44122,-9.42996,-14.5584,-6.43631,88.7535
2023-02-16 21:22:56:360,-1.08167,2.43488,-9.40774,-14.5588,-6.43879,88.7681
2023-02-16 21:22:56:371,-1.10443,2.42495,-9.39454,-14.5605,-6.44118,88.7832
2023-02-16 21:22:56:380,-1.10392,2.42556,-9.36728,-14.5643,-6.44332,88.7939
2023-02-16 21:22:56:390,-1.12148,2.42859,-9.36849,-14.5741,-6.44321,88.8097
2023-02-16 21:22:56:400,-1.124,2.44145,-9.39531,-14.5802,-6.44467,88.8209
2023-02-16 21:22:56:410,-1.10763,2.45222,-9.41332,-14.5842,-6.44735,88.8299
2023-02-16 21:22:56:420,-1.09384,2.46066,-9.4217,-14.5923,-6.44896,88.8335
2023-02-16 21:22:56:430,-1.08305,2.46116,-9.4197,-14.5996,-6.44961,88.8422
2023-02-16 21:22:56:440,-1.07331,2.46763,-9.41318,-14.6072,-6.45395,88.847
2023-02-16 21:22:56:450,-1.07402,2.46006,-9.39625,-14.6121,-6.45893,88.8504
2023-02-16 21:22:56:460,-1.06715,2.45148,-9.37656,-14.6158,-6.4631,88.8543
2023-02-16 21:22:56:470,-1.06455,2.43685,-9.34105,-14.619,-6.46463,88.8591
2023-02-16 21:22:56:480,-1.07076,2.44077,-9.35196,-14.6277,-6.46243,88.8647
2023-02-16 21:22:56:490,-1.08663,2.46606,-9.38754,-14.6385,-6.45805,88.8715
2023-02-16 21:22:56:500,-1.09114,2.47878,-9.40063,-14.6472,-6.45384,88.8774
2023-02-16 21:22:56:510,-1.09238,2.47383,-9.40936,-14.6537,-6.44523,88.8837
2023-02-16 21:22:56:520,-1.09178,2.4795,-9.41077,-14.6655,-6.4376,88.8925
2023-02-16 21:22:56:530,-1.11667,2.48216,-9.40338,-14.6759,-6.43366,88.898
2023-02-16 21:22:56:540,-1.10849,2.48892,-9.39955,-14.6908,-6.42692,88.9058
2023-02-16 21:22:56:550,-1.08905,2.49842,-9.40669,-14.7009,-6.41891,88.9078
2023-02-16 21:22:56:560,-1.0605,2.51318,-9.45893,-14.7111,-6.41001,88.9064
2023-02-16 21:22:56:570,-1.01872,2.53168,-9.52561,-14.7228,-6.40157,88.9044
2023-02-16 21:22:56:580,-0.978507,2.51718,-9.50533,-14.7276,-6.39703,88.8972
2023-02-16 21:22:56:590,-0.944052,2.49321,-9.4452,-14.7293,-6.39616,88.8929
2023-02-16 21:22:56:600,-0.95228,2.47915,-9.42751,-14.73,-6.40178,88.894
2023-02-16 21:22:56:610,-1.00069,2.49399,-9.42448,-14.7348,-6.41353,88.8996
2023-02-16 21:22:56:620,-1.04291,2.51384,-9.38486,-14.7405,-6.42943,88.9105
2023-02-16 21:22:56:630,-1.07562,2.52862,-9.36869,-14.7498,-6.44441,88.9252
2023-02-16 21:22:56:640,-1.10941,2.55472,-9.3821,-14.7588,-6.45502,88.9409
2023-02-16 21:22:56:650,-1.13151,2.55617,-9.40022,-14.7661,-6.46164,88.96
2023-02-16 21:22:56:660,-1.15302,2.55613,-9.3935,-14.7715,-6.46336,88.9789
2023-02-16 21:22:56:670,-1.17496,2.55809,-9.35676,-14.7764,-6.46506,88.9963
2023-02-16 21:22:56:680,-1.19248,2.5368,-9.35225,-14.777,-6.46707,89.0128
2023-02-16 21:22:56:690,-1.19171,2.52694,-9.33119,-14.7752,-6.46908,89.0276
2023-02-16 21:22:56:700,-1.17425,2.48235,-9.30266,-14.7688,-6.47171,89.0352
2023-02-16 21:22:56:710,-1.1426,2.47893,-9.31044,-14.7641,-6.47539,89.0376
2023-02-16 21:22:56:720,-1.13807,2.48176,-9.35993,-14.7637,-6.47989,89.0329
2023-02-16 21:22:56:730,-1.12589,2.47776,-9.39079,-14.7664,-6.48752,89.0302
2023-02-16 21:22:56:740,-1.1185,2.48469,-9.39683,-14.7707,-6.49404,89.0284
2023-02-16 21:22:56:750,-1.09853,2.48407,-9.38413,-14.7802,-6.49845,89.0256
2023-02-16 21:22:56:760,-1.10603,2.48631,-9.39583,-14.7894,-6.5021,89.0188
2023-02-16 21:22:56:770,-1.11299,2.50842,-9.43799,-14.802,-6.50505,89.0181
2023-02-16 21:22:56:780,-1.11095,2.55483,-9.48142,-14.8121,-6.50421,89.0199
2023-02-16 21:22:56:790,-1.09444,2.5714,-9.46439,-14.8198,-6.49736,89.0163
2023-02-16 21:22:56:800,-1.07328,2.5307,-9.411,-14.8199,-6.48925,89.0169
2023-02-16 21:22:56:810,-1.07601,2.51129,-9.36024,-14.8209,-6.48425,89.0179
2023-02-16 21:22:56:820,-1.09624,2.4951,-9.35759,-14.8186,-6.4765,89.0199
2023-02-16 21:22:56:830,-1.10067,2.51316,-9.35463,-14.823,-6.47421,89.0189
2023-02-16 21:22:56:840,-1.08978,2.52433,-9.35164,-14.8285,-6.47527,89.0178
2023-02-16 21:22:56:850,-1.08358,2.53748,-9.37328,-14.8352,-6.47078,89.015
2023-02-16 21:22:56:860,-1.06968,2.5448,-9.40146,-14.8426,-6.46761,89.0113
2023-02-16 21:22:56:870,-1.05425,2.53431,-9.40189,-14.8502,-6.46673,89.0071
2023-02-16 21:22:56:880,-1.04449,2.52119,-9.39781,-14.852,-6.46417,89.0036
2023-02-16 21:22:56:890,-1.03931,2.54568,-9.39378,-14.8564,-6.4623,89.0007
2023-02-16 21:22:56:900,-1.03505,2.55316,-9.42129,-14.8635,-6.46073,88.9996
2023-02-16 21:22:56:910,-1.0298,2.54723,-9.4118,-14.8674,-6.45995,88.9996
2023-02-16 21:22:56:920,-1.03393,2.56212,-9.41298,-14.8719,-6.46051,88.9997
2023-02-16 21:22:56:930,-1.03976,2.56804,-9.42496,-14.8724,-6.46574,89.0024
2023-02-16 21:22:56:940,-1.05912,2.56919,-9.40983,-14.8738,-6.472,89.0062
2023-02-16 21:22:56:950,-1.06997,2.54758,-9.3954,-14.8726,-6.47852,89.0135
2023-02-16 21:22:56:960,-1.09034,2.53505,-9.38653,-14.869,-6.48613,89.0219
2023-02-16 21:22:56:970,-1.12107,2.54325,-9.40215,-14.8665,-6.49835,89.0332
2023-02-16 21:22:56:980,-1.13934,2.55404,-9.40453,-14.864,-6.50954,89.0442
2023-02-16 21:22:56:991,-1.14597,2.56296,-9.40329,-14.8608,-6.51892,89.0499
2023-02-16 21:22:57:1,-1.15694,2.54823,-9.39815,-14.8558,-6.52362,89.0606
2023-02-16 21:22:57:11,-1.16579,2.53944,-9.40483,-14.8456,-6.5318,89.0665
2023-02-16 21:22:57:20,-1.1752,2.53257,-9.4219,-14.8374,-6.53917,89.0738
2023-02-16 21:22:57:30,-1.18787,2.51664,-9.38704,-14.8267,-6.5448,89.0786
2023-02-16 21:22:57:41,-1.18817,2.51031,-9.35559,-14.818,-6.55372,89.0868
2023-02-16 21:22:57:51,-1.17936,2.48616,-9.34867,-14.8072,-6.55617,89.0874
2023-02-16 21:22:57:60,-1.17465,2.4529,-9.34823,-14.7985,-6.55609,89.0906
2023-02-16 21:22:57:70,-1.17653,2.43375,-9.32554,-14.7896,-6.55616,89.0923
2023-02-16 21:22:57:80,-1.18408,2.43762,-9.32183,-14.7838,-6.55449,89.0935
2023-02-16 21:22:57:91,-1.17199,2.44629,-9.33224,-14.7791,-6.54871,89.0933
2023-02-16 21:22:57:101,-1.17555,2.46658,-9.35137,-14.7771,-6.54159,89.0912
2023-02-16 21:22:57:110,-1.19724,2.48965,-9.38275,-14.7796,-6.53409,89.0904
2023-02-16 21:22:57:120,-1.19019,2.4884,-9.40984,-14.7811,-6.52798,89.0852
2023-02-16 21:22:57:131,-1.17684,2.50002,-9.41109,-14.7833,-6.51541,89.0786
2023-02-16 21:22:57:141,-1.14388,2.49059,-9.3885,-14.7844,-6.49956,89.0652
2023-02-16 21:22:57:151,-1.09762,2.49315,-9.36165,-14.7844,-6.48057,89.0545
2023-02-16 21:22:57:161,-1.07162,2.476,-9.36272,-14.7842,-6.46188,89.0394
2023-02-16 21:22:57:170,-1.04235,2.45857,-9.38851,-14.7839,-6.44439,89.0256
2023-02-16 21:22:57:180,-1.02871,2.4837,-9.40525,-14.7871,-6.42489,89.0171
2023-02-16 21:22:57:191,-1.03559,2.46012,-9.37552,-14.791,-6.40608,89.0089
2023-02-16 21:22:57:201,-1.05077,2.45675,-9.35335,-14.7935,-6.38973,88.9974
2023-02-16 21:22:57:211,-1.03046,2.46048,-9.3897,-14.7984,-6.37105,88.9851
2023-02-16 21:22:57:220,-1.01287,2.48748,-9.44539,-14.8027,-6.35185,88.9735
2023-02-16 21:22:57:231,-1.00855,2.49849,-9.50482,-14.8086,-6.33428,88.9657
2023-02-16 21:22:57:240,-0.96261,2.52367,-9.54787,-14.8128,-6.31748,88.9582
2023-02-16 21:22:57:251,-0.93222,2.53923,-9.58032,-14.8126,-6.30629,88.9494
2023-02-16 21:22:57:261,-0.934669,2.51252,-9.48723,-14.8105,-6.30093,88.9412
2023-02-16 21:22:57:271,-0.953126,2.4296,-9.3769,-14.7971,-6.3037,88.9384
2023-02-16 21:22:57:281,-0.97821,2.473,-9.38156,-14.7922,-6.30196,88.9405
2023-02-16 21:22:57:290,-0.993642,2.49025,-9.40972,-14.7928,-6.30346,88.9461
2023-02-16 21:22:57:300,-1.01332,2.5077,-9.40142,-14.7966,-6.30411,88.9561
2023-02-16 21:22:57:311,-1.01848,2.51229,-9.39862,-14.8033,-6.30389,88.9653
2023-02-16 21:22:57:321,-1.03665,2.51793,-9.41534,-14.8096,-6.30606,88.9782
2023-02-16 21:22:57:330,-1.05972,2.54124,-9.40476,-14.8129,-6.30685,88.9909
2023-02-16 21:22:57:340,-1.07302,2.5296,-9.3863,-14.8085,-6.31221,89.0019
2023-02-16 21:22:57:351,-1.08046,2.52714,-9.37241,-14.8071,-6.31423,89.0109
2023-02-16 21:22:57:361,-1.09801,2.51034,-9.35591,-14.7996,-6.31542,89.0182
2023-02-16 21:22:57:371,-1.08452,2.49872,-9.34617,-14.789,-6.3171,89.0256
2023-02-16 21:22:57:381,-1.06225,2.4867,-9.36785,-14.7828,-6.32132,89.0262
2023-02-16 21:22:57:390,-1.04215,2.48522,-9.39354,-14.7782,-6.32672,89.0267
2023-02-16 21:22:57:401,-1.0349,2.4946,-9.41581,-14.7747,-6.33447,89.0271
2023-02-16 21:22:57:411,-1.03423,2.48341,-9.41122,-14.7745,-6.34372,89.0302
2023-02-16 21:22:57:420,-1.02453,2.47475,-9.39042,-14.7725,-6.35343,89.034
2023-02-16 21:22:57:430,-1.04968,2.48767,-9.40897,-14.7734,-6.36212,89.0361
2023-02-16 21:22:57:440,-1.08771,2.51458,-9.45043,-14.778,-6.37139,89.0382
2023-02-16 21:22:57:450,-1.09404,2.53937,-9.48026,-14.7774,-6.37242,89.04
2023-02-16 21:22:57:461,-1.06006,2.53022,-9.49372,-14.7737,-6.37496,89.0416
2023-02-16 21:22:57:471,-1.04231,2.5219,-9.461,-14.7683,-6.38086,89.0438
2023-02-16 21:22:57:480,-1.06018,2.50544,-9.42201,-14.7553,-6.38906,89.0437
2023-02-16 21:22:57:490,-1.07744,2.50395,-9.39651,-14.7465,-6.39666,89.0446
2023-02-16 21:22:57:501,-1.09211,2.47599,-9.38136,-14.738,-6.40717,89.0469
2023-02-16 21:22:57:511,-1.0986,2.44497,-9.38081,-14.7303,-6.416,89.0513
2023-02-16 21:22:57:521,-1.10314,2.43984,-9.39072,-14.7223,-6.42553,89.0552
2023-02-16 21:22:57:531,-1.09527,2.45734,-9.39942,-14.7173,-6.43178,89.0541
2023-02-16 21:22:57:541,-1.09045,2.45217,-9.38394,-14.7134,-6.43823,89.0567
2023-02-16 21:22:57:551,-1.0968,2.42936,-9.36923,-14.7035,-6.44294,89.0565
2023-02-16 21:22:57:561,-1.09935,2.42801,-9.35553,-14.6973,-6.44751,89.0559
2023-02-16 21:22:57:570,-1.10549,2.43645,-9.35307,-14.6958,-6.44959,89.0578
2023-02-16 21:22:57:580,-1.09927,2.43875,-9.35713,-14.6924,-6.45522,89.0574
2023-02-16 21:22:57:590,-1.07648,2.44024,-9.35202,-14.6915,-6.46083,89.0557
2023-02-16 21:22:57:600,-1.07743,2.4412,-9.36168,-14.6921,-6.4668,89.0578
2023-02-16 21:22:57:611,-1.0639,2.4339,-9.36438,-14.6949,-6.47187,89.0613
2023-02-16 21:22:57:621,-1.04354,2.42697,-9.35855,-14.701,-6.47312,89.0642
2023-02-16 21:22:57:631,-1.04862,2.43818,-9.36066,-14.7095,-6.47555,89.0707
2023-02-16 21:22:57:641,-1.05366,2.477,-9.39002,-14.7223,-6.47903,89.0764
2023-02-16 21:22:57:651,-1.06497,2.51105,-9.41183,-14.7384,-6.48188,89.0843
2023-02-16 21:22:57:661,-1.10201,2.52067,-9.4093,-14.7501,-6.48575,89.0989
2023-02-16 21:22:57:671,-1.10425,2.51439,-9.40259,-14.761,-6.49103,89.112
2023-02-16 21:22:57:681,-1.11377,2.52654,-9.41813,-14.771,-6.49876,89.1235
2023-02-16 21:22:57:690,-1.11948,2.53129,-9.42532,-14.7814,-6.50223,89.1338
2023-02-16 21:22:57:700,-1.13811,2.54309,-9.42194,-14.7893,-6.506,89.1444
2023-02-16 21:22:57:711,-1.15714,2.55286,-9.44256,-14.7971,-6.51067,89.1537
2023-02-16 21:22:57:721,-1.15858,2.55796,-9.43616,-14.8024,-6.51559,89.1646
2023-02-16 21:22:57:730,-1.14667,2.55168,-9.43033,-14.8072,-6.51869,89.172
2023-02-16 21:22:57:740,-1.13636,2.55621,-9.42535,-14.8103,-6.51968,89.1778
2023-02-16 21:22:57:751,-1.13656,2.56214,-9.42546,-14.8101,-6.5265,89.182
2023-02-16 21:22:57:761,-1.14621,2.56892,-9.44049,-14.8105,-6.53449,89.1862
2023-02-16 21:22:57:771,-1.14057,2.55764,-9.43773,-14.8083,-6.54041,89.1884
2023-02-16 21:22:57:781,-1.13549,2.54161,-9.41652,-14.8016,-6.5447,89.1911
2023-02-16 21:22:57:790,-1.12471,2.52162,-9.41102,-14.7937,-6.54517,89.1941
2023-02-16 21:22:57:800,-1.11775,2.49343,-9.3969,-14.7805,-6.54761,89.1959
2023-02-16 21:22:57:811,-1.10484,2.47363,-9.38598,-14.7683,-6.54705,89.1985
2023-02-16 21:22:57:821,-1.10681,2.45932,-9.3811,-14.756,-6.54619,89.2011
2023-02-16 21:22:57:831,-1.1138,2.45392,-9.37533,-14.7431,-6.54312,89.2052
2023-02-16 21:22:57:841,-1.10633,2.43609,-9.35843,-14.7316,-6.53941,89.2079
2023-02-16 21:22:57:851,-1.09414,2.43437,-9.34248,-14.7201,-6.53535,89.2143
2023-02-16 21:22:57:861,-1.10184,2.45174,-9.34646,-14.7157,-6.53376,89.2197
2023-02-16 21:22:57:871,-1.11354,2.45815,-9.33566,-14.7101,-6.52838,89.2209
2023-02-16 21:22:57:881,-1.10542,2.47058,-9.34579,-14.7087,-6.52201,89.2247
2023-02-16 21:22:57:890,-1.07953,2.48846,-9.41927,-14.7082,-6.51566,89.2256
2023-02-16 21:22:57:901,-1.07262,2.51826,-9.48434,-14.7066,-6.51109,89.2251
2023-02-16 21:22:57:911,-1.06215,2.52088,-9.48949,-14.709,-6.50838,89.2263
2023-02-16 21:22:57:920,-1.04896,2.50493,-9.44881,-14.7033,-6.51325,89.224
2023-02-16 21:22:57:930,-1.05379,2.4962,-9.42469,-14.6969,-6.52169,89.2242
2023-02-16 21:22:57:940,-1.08234,2.48693,-9.40957,-14.6946,-6.53752,89.225
2023-02-16 21:22:57:951,-1.10517,2.48881,-9.36292,-14.6888,-6.55329,89.226
2023-02-16 21:22:57:961,-1.11245,2.49264,-9.33293,-14.6882,-6.5649,89.2296
2023-02-16 21:22:57:971,-1.12119,2.50452,-9.35197,-14.6892,-6.57346,89.2371
2023-02-16 21:22:57:981,-1.13162,2.52766,-9.39515,-14.6954,-6.58655,89.246
2023-02-16 21:22:57:990,-1.14342,2.55857,-9.42009,-14.7046,-6.59733,89.2506
2023-02-16 21:22:58:0,-1.17374,2.57397,-9.41831,-14.7098,-6.60898,89.2597
2023-02-16 21:22:58:11,-1.20022,2.56273,-9.39834,-14.709,-6.61763,89.2688
2023-02-16 21:22:58:21,-1.21968,2.54378,-9.3694,-14.7044,-6.62562,89.277
2023-02-16 21:22:58:31,-1.21504,2.52312,-9.34589,-14.6993,-6.63118,89.2834
2023-02-16 21:22:58:40,-1.21475,2.48727,-9.35894,-14.6935,-6.63719,89.2843
2023-02-16 21:22:58:51,-1.20545,2.49643,-9.37742,-14.6837,-6.64373,89.2841
2023-02-16 21:22:58:61,-1.18904,2.49982,-9.38597,-14.6755,-6.64795,89.2832
2023-02-16 21:22:58:71,-1.18492,2.49,-9.37013,-14.6688,-6.65144,89.2761
2023-02-16 21:22:58:81,-1.18603,2.4593,-9.33889,-14.6623,-6.65227,89.2662
2023-02-16 21:22:58:90,-1.17353,2.46184,-9.34244,-14.6535,-6.651,89.2595
2023-02-16 21:22:58:100,-1.17359,2.50143,-9.41682,-14.6497,-6.64543,89.2535
2023-02-16 21:22:58:110,-1.16328,2.51208,-9.45918,-14.6468,-6.63707,89.2483
2023-02-16 21:22:58:121,-1.12931,2.50171,-9.47555,-14.6427,-6.62454,89.2421
2023-02-16 21:22:58:130,-1.09728,2.48844,-9.45147,-14.6344,-6.60793,89.2335
2023-02-16 21:22:58:140,-1.09855,2.48879,-9.42654,-14.6228,-6.59288,89.2273
2023-02-16 21:22:58:151,-1.10219,2.47676,-9.40729,-14.607,-6.5775,89.2182
2023-02-16 21:22:58:161,-1.10631,2.45723,-9.39351,-14.5945,-6.56278,89.2154
2023-02-16 21:22:58:170,-1.09782,2.4485,-9.3822,-14.5808,-6.54503,89.2055
2023-02-16 21:22:58:180,-1.08151,2.43614,-9.39464,-14.5686,-6.5294,89.1923
2023-02-16 21:22:58:191,-1.07072,2.43728,-9.39306,-14.557,-6.51158,89.1764
2023-02-16 21:22:58:201,-1.05527,2.43664,-9.40393,-14.5437,-6.49979,89.1615
2023-02-16 21:22:58:211,-1.05419,2.42368,-9.41021,-14.5334,-6.48863,89.1442
2023-02-16 21:22:58:221,-1.03994,2.43121,-9.41242,-14.5238,-6.48459,89.1289
2023-02-16 21:22:58:231,-1.00001,2.44739,-9.42672,-14.5115,-6.47959,89.1129
2023-02-16 21:22:58:241,-1.0006,2.44251,-9.42387,-14.4996,-6.47285,89.094
2023-02-16 21:22:58:250,-1.0005,2.42682,-9.4014,-14.4871,-6.47179,89.0789
2023-02-16 21:22:58:261,-0.996638,2.41691,-9.38719,-14.4776,-6.4726,89.0627
2023-02-16 21:22:58:271,-0.985765,2.39958,-9.38955,-14.4661,-6.47536,89.0493
2023-02-16 21:22:58:281,-0.988099,2.38434,-9.38012,-14.4597,-6.47684,89.0401
2023-02-16 21:22:58:291,-0.996414,2.39092,-9.36838,-14.457,-6.48203,89.0341
2023-02-16 21:22:58:301,-1.01764,2.39083,-9.38861,-14.4545,-6.49213,89.031
2023-02-16 21:22:58:310,-1.03601,2.40127,-9.4064,-14.4567,-6.50142,89.0294
2023-02-16 21:22:58:321,-1.06269,2.41475,-9.41342,-14.457,-6.50599,89.0337
2023-02-16 21:22:58:331,-1.10307,2.42126,-9.42001,-14.4585,-6.51389,89.0443
2023-02-16 21:22:58:341,-1.11346,2.43374,-9.42264,-14.462,-6.52408,89.0573
2023-02-16 21:22:58:351,-1.12722,2.43922,-9.41895,-14.4655,-6.53366,89.0684
2023-02-16 21:22:58:361,-1.13442,2.44474,-9.39837,-14.4657,-6.54198,89.0801
2023-02-16 21:22:58:371,-1.14659,2.44456,-9.39078,-14.468,-6.55013,89.0943
2023-02-16 21:22:58:380,-1.1425,2.43543,-9.39905,-14.4714,-6.55082,89.1062
2023-02-16 21:22:58:391,-1.14412,2.4163,-9.39545,-14.466,-6.55257,89.1168
2023-02-16 21:22:58:401,-1.13868,2.41313,-9.38024,-14.4604,-6.55334,89.1249
2023-02-16 21:22:58:411,-1.13985,2.41333,-9.37519,-14.4596,-6.55309,89.1326
2023-02-16 21:22:58:421,-1.13768,2.41091,-9.37715,-14.4593,-6.55365,89.1382
2023-02-16 21:22:58:431,-1.12959,2.41773,-9.38709,-14.4626,-6.55679,89.147
2023-02-16 21:22:58:441,-1.14005,2.4203,-9.39689,-14.464,-6.55638,89.1508
2023-02-16 21:22:58:451,-1.14939,2.42763,-9.40178,-14.4701,-6.55914,89.1564
2023-02-16 21:22:58:461,-1.16247,2.43708,-9.41274,-14.476,-6.56341,89.163
2023-02-16 21:22:58:471,-1.1635,2.44574,-9.41342,-14.4815,-6.5656,89.1654
2023-02-16 21:22:58:481,-1.16365,2.43712,-9.37677,-14.4864,-6.56336,89.1679
2023-02-16 21:22:58:490,-1.15168,2.41025,-9.37887,-14.4893,-6.56047,89.1687
2023-02-16 21:22:58:500,-1.14512,2.42053,-9.40877,-14.4904,-6.55689,89.1669
2023-02-16 21:22:58:510,-1.11859,2.42481,-9.39446,-14.4932,-6.55085,89.1657
2023-02-16 21:22:58:521,-1.10614,2.38585,-9.36518,-14.4949,-6.5428,89.1621
2023-02-16 21:22:58:530,-1.09642,2.38318,-9.34692,-14.5012,-6.53279,89.1608
2023-02-16 21:22:58:541,-1.07038,2.39045,-9.3422,-14.5092,-6.52474,89.1573
2023-02-16 21:22:58:551,-1.07498,2.40059,-9.3474,-14.5192,-6.51752,89.1579
2023-02-16 21:22:58:561,-1.08698,2.43621,-9.3847,-14.5336,-6.51051,89.1576
2023-02-16 21:22:58:571,-1.05711,2.4582,-9.47156,-14.5528,-6.50274,89.1607
2023-02-16 21:22:58:581,-1.03533,2.47536,-9.52473,-14.5687,-6.49441,89.163
2023-02-16 21:22:58:591,-1.01393,2.46835,-9.519,-14.5839,-6.49041,89.1595
2023-02-16 21:22:58:601,-0.995231,2.45212,-9.48405,-14.5936,-6.49289,89.1581
2023-02-16 21:22:58:610,-1.0202,2.45321,-9.45539,-14.6034,-6.50226,89.1597
2023-02-16 21:22:58:621,-1.06204,2.45521,-9.41139,-14.6142,-6.51506,89.1657
2023-02-16 21:22:58:631,-1.09973,2.45501,-9.37407,-14.6286,-6.52795,89.1763
2023-02-16 21:22:58:641,-1.11921,2.48652,-9.38279,-14.6464,-6.53711,89.1885
2023-02-16 21:22:58:651,-1.13264,2.50417,-9.39013,-14.6623,-6.54457,89.2035
2023-02-16 21:22:58:661,-1.14764,2.52487,-9.37741,-14.6792,-6.54896,89.2143
2023-02-16 21:22:58:671,-1.16812,2.51981,-9.36678,-14.6937,-6.55176,89.2288
2023-02-16 21:22:58:681,-1.19111,2.52175,-9.36379,-14.7035,-6.55196,89.2441
2023-02-16 21:22:58:691,-1.19493,2.51881,-9.33875,-14.7126,-6.54936,89.2582
2023-02-16 21:22:58:701,-1.1747,2.50161,-9.3357,-14.7193,-6.54766,89.2681
2023-02-16 21:22:58:711,-1.16267,2.50035,-9.3635,-14.7236,-6.54709,89.2741
2023-02-16 21:22:58:720,-1.15164,2.48729,-9.38457,-14.7314,-6.54789,89.2797
2023-02-16 21:22:58:730,-1.15231,2.47564,-9.40892,-14.7392,-6.54959,89.2804
2023-02-16 21:22:58:741,-1.12739,2.48506,-9.43594,-14.7477,-6.5473,89.2772
2023-02-16 21:22:58:750,-1.10246,2.49153,-9.41902,-14.756,-6.54752,89.2793
2023-02-16 21:22:58:761,-1.09904,2.47078,-9.377,-14.7664,-6.54542,89.2817
2023-02-16 21:22:58:771,-1.11589,2.47283,-9.36961,-14.7721,-6.53961,89.2849
2023-02-16 21:22:58:781,-1.12377,2.51242,-9.42321,-14.7829,-6.53339,89.2881
2023-02-16 21:22:58:791,-1.11785,2.53883,-9.46001,-14.7925,-6.52261,89.2904
2023-02-16 21:22:58:801,-1.08474,2.52745,-9.45194,-14.8011,-6.50907,89.296
2023-02-16 21:22:58:811,-1.07477,2.51108,-9.4229,-14.808,-6.49617,89.2996
2023-02-16 21:22:58:821,-1.09799,2.51878,-9.40119,-14.8096,-6.48561,89.3059
2023-02-16 21:22:58:831,-1.10969,2.49759,-9.39211,-14.8139,-6.47424,89.3121
2023-02-16 21:22:58:841,-1.10658,2.48387,-9.37358,-14.8185,-6.46615,89.3166
2023-02-16 21:22:58:851,-1.10077,2.49873,-9.38086,-14.824,-6.46002,89.3194
2023-02-16 21:22:58:861,-1.09184,2.50679,-9.40639,-14.8327,-6.45463,89.3182
2023-02-16 21:22:58:871,-1.08582,2.51042,-9.40395,-14.8397,-6.45109,89.3144
2023-02-16 21:22:58:881,-1.08374,2.49758,-9.39555,-14.8462,-6.44891,89.313
2023-02-16 21:22:58:891,-1.07223,2.51341,-9.38066,-14.8514,-6.44518,89.3073
2023-02-16 21:22:58:901,-1.06632,2.51193,-9.37641,-14.8603,-6.44361,89.3078
2023-02-16 21:22:58:911,-1.0318,2.51036,-9.37521,-14.8666,-6.44356,89.3044
2023-02-16 21:22:58:921,-1.02364,2.51322,-9.36773,-14.8705,-6.44346,89.3009
2023-02-16 21:22:58:931,-1.02591,2.51199,-9.36122,-14.874,-6.44454,89.3015
2023-02-16 21:22:58:941,-1.0352,2.50226,-9.37462,-14.8821,-6.44135,89.3031
2023-02-16 21:22:58:951,-1.02818,2.50543,-9.37927,-14.8933,-6.4398,89.3053
2023-02-16 21:22:58:961,-1.03153,2.50206,-9.38993,-14.9026,-6.43924,89.3137
2023-02-16 21:22:58:970,-1.05271,2.51944,-9.41203,-14.912,-6.4431,89.3211
2023-02-16 21:22:58:981,-1.07447,2.53931,-9.42311,-14.9258,-6.44618,89.3341
2023-02-16 21:22:58:991,-1.08906,2.53983,-9.41646,-14.9362,-6.44849,89.3467
2023-02-16 21:22:59:1,-1.09125,2.53812,-9.41992,-14.9481,-6.45232,89.3595
2023-02-16 21:22:59:11,-1.10131,2.5419,-9.42812,-14.9576,-6.45286,89.3755
2023-02-16 21:22:59:21,-1.09758,2.53936,-9.41508,-14.9674,-6.45665,89.3891
2023-02-16 21:22:59:31,-1.10176,2.54543,-9.38714,-14.9763,-6.45828,89.4051
2023-02-16 21:22:59:41,-1.09658,2.54998,-9.36822,-14.9805,-6.45894,89.4184
2023-02-16 21:22:59:51,-1.09737,2.54595,-9.3712,-14.9882,-6.46105,89.432
2023-02-16 21:22:59:61,-1.11901,2.54642,-9.38129,-14.9947,-6.46311,89.4475
2023-02-16 21:22:59:71,-1.11794,2.56475,-9.38512,-15.004,-6.46612,89.4625
2023-02-16 21:22:59:81,-1.11243,2.57955,-9.39962,-15.0114,-6.46912,89.4716
2023-02-16 21:22:59:91,-1.11798,2.59705,-9.40647,-15.0178,-6.47304,89.4817
2023-02-16 21:22:59:101,-1.12026,2.58719,-9.3965,-15.0189,-6.4741,89.4912
2023-02-16 21:22:59:111,-1.10771,2.57301,-9.38616,-15.02,-6.47335,89.4956
2023-02-16 21:22:59:121,-1.13146,2.56974,-9.3816,-15.022,-6.47648,89.5028
2023-02-16 21:22:59:131,-1.12721,2.58112,-9.37326,-15.0214,-6.47709,89.5116
2023-02-16 21:22:59:141,-1.11446,2.57874,-9.37996,-15.0229,-6.48197,89.516
2023-02-16 21:22:59:151,-1.11533,2.57488,-9.38154,-15.027,-6.48354,89.5215
2023-02-16 21:22:59:161,-1.12132,2.59308,-9.37167,-15.0277,-6.4853,89.5235
2023-02-16 21:22:59:171,-1.1346,2.58571,-9.37889,-15.0286,-6.4866,89.5276
2023-02-16 21:22:59:181,-1.14621,2.58164,-9.40796,-15.0331,-6.48694,89.5278
2023-02-16 21:22:59:191,-1.16909,2.58101,-9.41502,-15.0336,-6.48712,89.5273
2023-02-16 21:22:59:201,-1.16723,2.57708,-9.39465,-15.0291,-6.48646,89.5273
2023-02-16 21:22:59:211,-1.16643,2.57726,-9.3725,-15.0257,-6.48703,89.5241
2023-02-16 21:22:59:221,-1.16889,2.57157,-9.35103,-15.0226,-6.48675,89.5196
2023-02-16 21:22:59:231,-1.1387,2.52596,-9.34145,-15.0131,-6.4848,89.5154
2023-02-16 21:22:59:241,-1.09844,2.51576,-9.37729,-15.0044,-6.47905,89.5063
2023-02-16 21:22:59:251,-1.06849,2.54029,-9.46107,-14.9935,-6.47284,89.4916
2023-02-16 21:22:59:261,-1.0345,2.56033,-9.52685,-14.9832,-6.46875,89.476
2023-02-16 21:22:59:271,-0.998258,2.53912,-9.48225,-14.9698,-6.46677,89.4617
2023-02-16 21:22:59:281,-0.979738,2.48206,-9.41779,-14.9541,-6.46889,89.4488
2023-02-16 21:22:59:291,-0.992934,2.48022,-9.3873,-14.9405,-6.47664,89.4436
2023-02-16 21:22:59:301,-1.04092,2.49426,-9.37178,-14.9348,-6.48157,89.4388
2023-02-16 21:22:59:311,-1.08506,2.4941,-9.3597,-14.9288,-6.48681,89.4402
2023-02-16 21:22:59:321,-1.11146,2.51295,-9.33478,-14.9291,-6.49086,89.4493
2023-02-16 21:22:59:331,-1.13294,2.53133,-9.33083,-14.9284,-6.49395,89.4595
2023-02-16 21:22:59:341,-1.13631,2.54255,-9.34205,-14.9298,-6.49234,89.4696
2023-02-16 21:22:59:351,-1.13333,2.5469,-9.36036,-14.9321,-6.49246,89.479
2023-02-16 21:22:59:361,-1.13403,2.54274,-9.3484,-14.9307,-6.48878,89.4858
2023-02-16 21:22:59:371,-1.12515,2.51801,-9.34391,-14.9258,-6.48754,89.4891
2023-02-16 21:22:59:381,-1.13375,2.50494,-9.35406,-14.9225,-6.48735,89.4908
2023-02-16 21:22:59:391,-1.12316,2.49838,-9.36323,-14.9167,-6.49372,89.4911
2023-02-16 21:22:59:401,-1.11652,2.49278,-9.3618,-14.9136,-6.49877,89.4872
2023-02-16 21:22:59:411,-1.12994,2.48626,-9.37559,-14.9085,-6.50614,89.4813
2023-02-16 21:22:59:421,-1.12362,2.4983,-9.41541,-14.9055,-6.51447,89.4778
2023-02-16 21:22:59:431,-1.11376,2.5031,-9.4264,-14.9039,-6.52325,89.4693
2023-02-16 21:22:59:441,-1.12033,2.49193,-9.38879,-14.8989,-6.52998,89.4615
2023-02-16 21:22:59:451,-1.14659,2.49842,-9.36639,-14.897,-6.53689,89.4551
2023-02-16 21:22:59:461,-1.17215,2.53253,-9.41231,-14.8981,-6.53783,89.4517
2023-02-16 21:22:59:471,-1.15959,2.53996,-9.43674,-14.8988,-6.53575,89.448
2023-02-16 21:22:59:481,-1.10008,2.51635,-9.41469,-14.8972,-6.52985,89.4488
2023-02-16 21:22:59:491,-1.0781,2.50575,-9.37648,-14.8944,-6.52321,89.4468
2023-02-16 21:22:59:501,-1.10195,2.51538,-9.38471,-14.8963,-6.51833,89.4392
2023-02-16 21:22:59:511,-1.12195,2.51548,-9.39132,-14.8938,-6.51524,89.4329
2023-02-16 21:22:59:521,-1.12657,2.50375,-9.36322,-14.8867,-6.5143,89.4268
2023-02-16 21:22:59:531,-1.11804,2.50247,-9.35275,-14.8843,-6.51607,89.4238
2023-02-16 21:22:59:541,-1.11013,2.49539,-9.37617,-14.884,-6.51507,89.4156
2023-02-16 21:22:59:551,-1.09777,2.50279,-9.38551,-14.8813,-6.51408,89.4079
2023-02-16 21:22:59:561,-1.09203,2.50202,-9.38151,-14.8784,-6.51143,89.4008
2023-02-16 21:22:59:571,-1.09304,2.50117,-9.37735,-14.8762,-6.50639,89.3963
2023-02-16 21:22:59:581,-1.09255,2.5131,-9.4098,-14.8782,-6.5027,89.3923
2023-02-16 21:22:59:591,-1.09481,2.52306,-9.42354,-14.8783,-6.50103,89.3847
2023-02-16 21:22:59:601,-1.08492,2.53596,-9.41415,-14.8788,-6.49745,89.3809
2023-02-16 21:22:59:611,-1.08722,2.53245,-9.40153,-14.8757,-6.49567,89.3771
2023-02-16 21:22:59:621,-1.07529,2.53717,-9.39348,-14.8749,-6.49309,89.373
2023-02-16 21:22:59:631,-1.06915,2.54711,-9.39336,-14.8728,-6.49337,89.3708
2023-02-16 21:22:59:641,-1.07765,2.55013,-9.40733,-14.869,-6.49767,89.3686
2023-02-16 21:22:59:651,-1.09654,2.55559,-9.42461,-14.8697,-6.5042,89.3672
2023-02-16 21:22:59:661,-1.11454,2.55682,-9.43173,-14.8642,-6.50741,89.3669
2023-02-16 21:22:59:671,-1.11755,2.54904,-9.4319,-14.8553,-6.51536,89.3668
2023-02-16 21:22:59:681,-1.11688,2.54528,-9.40981,-14.8508,-6.5203,89.3696
2023-02-16 21:22:59:691,-1.13005,2.53319,-9.40628,-14.84,-6.52866,89.3732
2023-02-16 21:22:59:701,-1.15703,2.50959,-9.39834,-14.829,-6.5327,89.3759
2023-02-16 21:22:59:711,-1.14122,2.5099,-9.39185,-14.8188,-6.54085,89.3776
2023-02-16 21:22:59:721,-1.14587,2.50063,-9.38762,-14.8066,-6.54419,89.3782
2023-02-16 21:22:59:731,-1.16049,2.47732,-9.39344,-14.7899,-6.54754,89.3788
2023-02-16 21:22:59:741,-1.14987,2.47314,-9.3854,-14.7744,-6.55006,89.376
2023-02-16 21:22:59:751,-1.14893,2.47487,-9.38875,-14.761,-6.55344,89.3746
2023-02-16 21:22:59:761,-1.14049,2.47182,-9.38047,-14.7447,-6.55942,89.3732
2023-02-16 21:22:59:771,-1.13802,2.4577,-9.3616,-14.7323,-6.56251,89.3692
2023-02-16 21:22:59:781,-1.13385,2.44689,-9.33951,-14.7187,-6.56631,89.3662
2023-02-16 21:22:59:791,-1.12762,2.44506,-9.33664,-14.7043,-6.56799,89.3593
2023-02-16 21:22:59:801,-1.12874,2.44143,-9.33978,-14.6942,-6.57304,89.3531
2023-02-16 21:22:59:811,-1.1238,2.43229,-9.34116,-14.6855,-6.57801,89.3481
2023-02-16 21:22:59:821,-1.11401,2.42403,-9.35194,-14.6795,-6.57981,89.3453
2023-02-16 21:22:59:831,-1.11133,2.42591,-9.34645,-14.6749,-6.57935,89.3413
2023-02-16 21:22:59:841,-1.12825,2.43144,-9.34696,-14.6733,-6.57522,89.3367
2023-02-16 21:22:59:851,-1.14493,2.45203,-9.38803,-14.6702,-6.56973,89.3366
2023-02-16 21:22:59:861,-1.14542,2.44395,-9.40755,-14.6701,-6.56662,89.3334
2023-02-16 21:22:59:871,-1.13555,2.43419,-9.37481,-14.6676,-6.5643,89.3298
2023-02-16 21:22:59:881,-1.13237,2.4386,-9.36472,-14.6671,-6.55576,89.3272
2023-02-16 21:22:59:891,-1.11661,2.45118,-9.36625,-14.6693,-6.54962,89.3241
2023-02-16 21:22:59:901,-1.09894,2.43947,-9.35704,-14.6694,-6.54122,89.3194
2023-02-16 21:22:59:911,-1.10302,2.43747,-9.36632,-14.6732,-6.53341,89.3139
2023-02-16 21:22:59:921,-1.08796,2.45513,-9.44781,-14.6802,-6.52617,89.3048
2023-02-16 21:22:59:931,-1.03951,2.4919,-9.51107,-14.6826,-6.52021,89.2974
2023-02-16 21:22:59:941,-0.992726,2.47391,-9.49675,-14.6829,-6.5143,89.2899
2023-02-16 21:22:59:951,-0.972823,2.4476,-9.43718,-14.6813,-6.51614,89.2803
2023-02-16 21:22:59:961,-0.997639,2.45732,-9.43405,-14.6818,-6.52102,89.2755
2023-02-16 21:22:59:971,-1.0384,2.46207,-9.42837,-14.6829,-6.52935,89.2765
2023-02-16 21:22:59:981,-1.07115,2.45883,-9.4005,-14.687,-6.53515,89.2824
2023-02-16 21:22:59:991,-1.09638,2.48821,-9.39356,-14.693,-6.54143,89.2882
2023-02-16 21:23:00:1,-1.09293,2.51088,-9.386,-14.7012,-6.54925,89.2993
2023-02-16 21:23:00:11,-1.10654,2.52248,-9.38892,-14.7102,-6.55298,89.3128
2023-02-16 21:23:00:21,-1.13444,2.52949,-9.3825,-14.7149,-6.56029,89.3275
2023-02-16 21:23:00:31,-1.15092,2.51716,-9.34907,-14.7158,-6.56526,89.3422
2023-02-16 21:23:00:41,-1.1615,2.50486,-9.33146,-14.7158,-6.5657,89.3554
2023-02-16 21:23:00:51,-1.16673,2.48743,-9.33553,-14.716,-6.56838,89.3652
2023-02-16 21:23:00:61,-1.1621,2.47295,-9.35288,-14.7111,-6.57138,89.3693
2023-02-16 21:23:00:71,-1.17424,2.46261,-9.35083,-14.706,-6.57039,89.3745
2023-02-16 21:23:00:81,-1.15088,2.45814,-9.34967,-14.7027,-6.5741,89.3719
2023-02-16 21:23:00:91,-1.13367,2.46516,-9.37593,-14.702,-6.57595,89.3665
2023-02-16 21:23:00:101,-1.12331,2.47112,-9.39417,-14.7049,-6.57734,89.3598
2023-02-16 21:23:00:111,-1.11162,2.45712,-9.38043,-14.7072,-6.58176,89.3547
2023-02-16 21:23:00:121,-1.10911,2.46392,-9.37261,-14.7133,-6.58274,89.3474
2023-02-16 21:23:00:131,-1.10435,2.49441,-9.41136,-14.7244,-6.58113,89.344
2023-02-16 21:23:00:141,-1.10449,2.52288,-9.47124,-14.7389,-6.57271,89.3415
2023-02-16 21:23:00:151,-1.06822,2.53322,-9.47459,-14.7479,-6.56795,89.3374
2023-02-16 21:23:00:161,-1.04165,2.51472,-9.4208,-14.7555,-6.5634,89.3346
2023-02-16 21:23:00:171,-1.06052,2.51832,-9.39011,-14.7602,-6.56072,89.3323
2023-02-16 21:23:00:181,-1.10957,2.53,-9.40086,-14.7635,-6.55988,89.3354
2023-02-16 21:23:00:191,-1.1471,2.53339,-9.39505,-14.7651,-6.56229,89.3419
2023-02-16 21:23:00:201,-1.15463,2.50471,-9.38241,-14.7646,-6.55908,89.3493
2023-02-16 21:23:00:211,-1.1394,2.50861,-9.3864,-14.7667,-6.55544,89.351
2023-02-16 21:23:00:221,-1.1282,2.51993,-9.42716,-14.7655,-6.55028,89.3503
2023-02-16 21:23:00:231,-1.13206,2.52218,-9.42631,-14.7628,-6.54961,89.3521
2023-02-16 21:23:00:241,-1.14052,2.51523,-9.41199,-14.7638,-6.54671,89.3557
2023-02-16 21:23:00:251,-1.1279,2.50434,-9.39024,-14.7618,-6.5444,89.3558
2023-02-16 21:23:00:261,-1.11904,2.51258,-9.4031,-14.7585,-6.54239,89.3541
2023-02-16 21:23:00:271,-1.11349,2.53504,-9.41643,-14.7538,-6.54153,89.355
2023-02-16 21:23:00:281,-1.10187,2.52583,-9.40747,-14.7496,-6.54204,89.3563
2023-02-16 21:23:00:291,-1.09467,2.51732,-9.38778,-14.743,-6.53947,89.3546
2023-02-16 21:23:00:301,-1.07254,2.49742,-9.39197,-14.7347,-6.54112,89.3515
2023-02-16 21:23:00:311,-1.07013,2.49483,-9.40455,-14.7298,-6.54218,89.3521
2023-02-16 21:23:00:321,-1.10434,2.51502,-9.42515,-14.7285,-6.54186,89.3553
2023-02-16 21:23:00:331,-1.11188,2.51052,-9.41572,-14.7209,-6.54715,89.3565
2023-02-16 21:23:00:341,-1.10913,2.50054,-9.40019,-14.7117,-6.54894,89.3538
2023-02-16 21:23:00:351,-1.12091,2.49558,-9.40946,-14.7057,-6.55376,89.3557
2023-02-16 21:23:00:361,-1.12821,2.50002,-9.41428,-14.6979,-6.56139,89.3598
2023-02-16 21:23:00:371,-1.12695,2.49001,-9.40288,-14.6883,-6.56678,89.3627
2023-02-16 21:23:00:381,-1.11515,2.48386,-9.37976,-14.6741,-6.56851,89.3606
2023-02-16 21:23:00:391,-1.11508,2.47305,-9.36802,-14.661,-6.57297,89.3609
2023-02-16 21:23:00:401,-1.11871,2.47626,-9.37765,-14.6516,-6.57581,89.3609
2023-02-16 21:23:00:411,-1.12859,2.4707,-9.39116,-14.6399,-6.57495,89.3645
2023-02-16 21:23:00:421,-1.13611,2.48316,-9.37516,-14.6317,-6.57649,89.369
2023-02-16 21:23:00:431,-1.11454,2.47601,-9.37964,-14.6238,-6.58272,89.3708
2023-02-16 21:23:00:441,-1.11162,2.47722,-9.40914,-14.6131,-6.58755,89.3738
2023-02-16 21:23:00:451,-1.12599,2.47716,-9.41597,-14.606,-6.59133,89.3786
2023-02-16 21:23:00:461,-1.13772,2.4696,-9.37693,-14.5955,-6.59709,89.3821
2023-02-16 21:23:00:471,-1.14925,2.4578,-9.36791,-14.5829,-6.6012,89.3846
2023-02-16 21:23:00:481,-1.1457,2.45184,-9.38236,-14.5697,-6.60669,89.3859
2023-02-16 21:23:00:491,-1.14578,2.44515,-9.35506,-14.5579,-6.6092,89.3874
2023-02-16 21:23:00:501,-1.12292,2.44033,-9.3582,-14.5494,-6.60868,89.3905
2023-02-16 21:23:00:511,-1.12601,2.42214,-9.37698,-14.5431,-6.60883,89.3927
2023-02-16 21:23:00:521,-1.1269,2.42528,-9.40758,-14.5351,-6.6076,89.3941
2023-02-16 21:23:00:531,-1.13282,2.42441,-9.40484,-14.5325,-6.60797,89.3935
2023-02-16 21:23:00:541,-1.11736,2.40194,-9.37811,-14.526,-6.60225,89.3948
2023-02-16 21:23:00:551,-1.11448,2.43985,-9.39018,-14.5195,-6.59805,89.3948
2023-02-16 21:23:00:561,-1.11736,2.44462,-9.38449,-14.517,-6.59467,89.3939
2023-02-16 21:23:00:571,-1.09364,2.42987,-9.37614,-14.5143,-6.59072,89.3926
2023-02-16 21:23:00:581,-1.08712,2.43904,-9.43445,-14.5127,-6.58019,89.3891
2023-02-16 21:23:00:591,-1.06529,2.47634,-9.49532,-14.508,-6.57951,89.389
2023-02-16 21:23:00:601,-1.02876,2.47935,-9.51251,-14.5046,-6.5734,89.3851
2023-02-16 21:23:00:611,-0.989432,2.44085,-9.49066,-14.4943,-6.57081,89.3821
2023-02-16 21:23:00:621,-0.984077,2.40857,-9.43572,-14.4823,-6.57327,89.3776
2023-02-16 21:23:00:631,-1.03835,2.40447,-9.40373,-14.4701,-6.5777,89.3779
2023-02-16 21:23:00:641,-1.05521,2.38974,-9.35755,-14.4647,-6.58863,89.3827
2023-02-16 21:23:00:651,-1.05929,2.39122,-9.32116,-14.4626,-6.59932,89.3901
2023-02-16 21:23:00:661,-1.06987,2.4069,-9.34603,-14.4631,-6.60655,89.4036
2023-02-16 21:23:00:671,-1.08863,2.43662,-9.38925,-14.4662,-6.61118,89.4192
2023-02-16 21:23:00:681,-1.10353,2.46096,-9.40366,-14.4722,-6.6161,89.4394
2023-02-16 21:23:00:691,-1.12497,2.47564,-9.41073,-14.4789,-6.61803,89.4592
2023-02-16 21:23:00:701,-1.16035,2.47089,-9.40149,-14.4848,-6.61847,89.4788
2023-02-16 21:23:00:711,-1.17298,2.45378,-9.38415,-14.4867,-6.62169,89.4987
2023-02-16 21:23:00:721,-1.17407,2.44212,-9.37751,-14.487,-6.62248,89.513
2023-02-16 21:23:00:731,-1.18486,2.43751,-9.36285,-14.4832,-6.62404,89.5254
2023-02-16 21:23:00:741,-1.18388,2.42221,-9.33998,-14.4801,-6.62731,89.5365
2023-02-16 21:23:00:751,-1.1721,2.41524,-9.36173,-14.4781,-6.62857,89.5403
2023-02-16 21:23:00:761,-1.16833,2.42553,-9.39883,-14.478,-6.6333,89.5454
2023-02-16 21:23:00:771,-1.14318,2.43842,-9.4123,-14.4785,-6.63528,89.5437
2023-02-16 21:23:00:781,-1.11869,2.42485,-9.38684,-14.484,-6.64012,89.5418
2023-02-16 21:23:00:791,-1.1167,2.43395,-9.3702,-14.4919,-6.64268,89.5402
2023-02-16 21:23:00:801,-1.12168,2.44547,-9.41419,-14.5031,-6.6459,89.5436
2023-02-16 21:23:00:811,-1.11149,2.47552,-9.45745,-14.5163,-6.64686,89.5455
2023-02-16 21:23:00:821,-1.07199,2.46458,-9.46544,-14.5231,-6.64342,89.547
2023-02-16 21:23:00:831,-1.05365,2.44911,-9.43488,-14.5264,-6.63882,89.551
2023-02-16 21:23:00:841,-1.08167,2.44826,-9.42923,-14.5281,-6.63733,89.5576
2023-02-16 21:23:00:851,-1.12025,2.45141,-9.42332,-14.5295,-6.63964,89.5666
2023-02-16 21:23:00:861,-1.1413,2.45636,-9.39472,-14.5302,-6.63923,89.5774
2023-02-16 21:23:00:871,-1.14954,2.44915,-9.38283,-14.5323,-6.63945,89.5867
2023-02-16 21:23:00:881,-1.16447,2.44385,-9.3837,-14.5342,-6.63859,89.5971
2023-02-16 21:23:00:891,-1.16194,2.4513,-9.39464,-14.5365,-6.63674,89.6085
2023-02-16 21:23:00:901,-1.14574,2.46015,-9.39202,-14.5357,-6.63694,89.6184
2023-02-16 21:23:00:911,-1.1469,2.45737,-9.37819,-14.5378,-6.63635,89.626
2023-02-16 21:23:00:921,-1.14064,2.45227,-9.37385,-14.5409,-6.63473,89.6315
2023-02-16 21:23:00:931,-1.13322,2.45366,-9.38108,-14.5467,-6.63478,89.6358
2023-02-16 21:23:00:941,-1.12117,2.46067,-9.39885,-14.5468,-6.63509,89.6373
2023-02-16 21:23:00:951,-1.11207,2.46774,-9.39094,-14.5509,-6.63741,89.6373
2023-02-16 21:23:00:961,-1.10944,2.46216,-9.38714,-14.5527,-6.64072,89.6381
2023-02-16 21:23:00:971,-1.1105,2.46779,-9.3853,-14.5558,-6.646,89.6414
2023-02-16 21:23:00:981,-1.12026,2.47341,-9.38255,-14.5599,-6.64994,89.6425
2023-02-16 21:23:00:991,-1.13639,2.46642,-9.38422,-14.5635,-6.65108,89.6494
2023-02-16 21:23:01:1,-1.13717,2.45974,-9.38774,-14.5703,-6.6582,89.6529
2023-02-16 21:23:01:11,-1.15388,2.46604,-9.40099,-14.5746,-6.66699,89.6557
2023-02-16 21:23:01:21,-1.17511,2.47014,-9.40907,-14.5779,-6.67632,89.6571
2023-02-16 21:23:01:31,-1.18421,2.47046,-9.39819,-14.5798,-6.68269,89.661
2023-02-16 21:23:01:41,-1.19115,2.48019,-9.40465,-14.5831,-6.69482,89.6655
2023-02-16 21:23:01:51,-1.20201,2.48219,-9.42533,-14.5809,-6.69857,89.6653
2023-02-16 21:23:01:61,-1.19307,2.48762,-9.40767,-14.5778,-6.70472,89.6666
2023-02-16 21:23:01:71,-1.18525,2.45707,-9.39835,-14.5769,-6.70794,89.6646
2023-02-16 21:23:01:81,-1.17069,2.45854,-9.38642,-14.5775,-6.70944,89.6627
2023-02-16 21:23:01:91,-1.15805,2.45985,-9.39361,-14.5804,-6.71053,89.6632
2023-02-16 21:23:01:101,-1.14799,2.47092,-9.38233,-14.5827,-6.71331,89.6627
2023-02-16 21:23:01:111,-1.13454,2.46392,-9.37635,-14.5855,-6.71183,89.6635
2023-02-16 21:23:01:121,-1.14621,2.46157,-9.38928,-14.5855,-6.7062,89.6618
2023-02-16 21:23:01:131,-1.15075,2.45902,-9.39604,-14.5892,-6.69867,89.6625
2023-02-16 21:23:01:141,-1.15942,2.47194,-9.40608,-14.5924,-6.69454,89.6622
2023-02-16 21:23:01:151,-1.15682,2.47762,-9.40743,-14.5908,-6.68952,89.6612
2023-02-16 21:23:01:161,-1.15693,2.47395,-9.40481,-14.5908,-6.68225,89.6618
2023-02-16 21:23:01:171,-1.15857,2.47046,-9.3685,-14.5907,-6.67589,89.6607
2023-02-16 21:23:01:181,-1.15848,2.46023,-9.36489,-14.5878,-6.66971,89.6618
2023-02-16 21:23:01:191,-1.16427,2.47756,-9.39372,-14.586,-6.66537,89.6593
2023-02-16 21:23:01:201,-1.15131,2.49426,-9.43265,-14.586,-6.6556,89.6557
2023-02-16 21:23:01:211,-1.14187,2.47122,-9.42606,-14.582,-6.64391,89.6533
2023-02-16 21:23:01:221,-1.13335,2.45809,-9.40442,-14.5792,-6.63838,89.6477
2023-02-16 21:23:01:231,-1.11773,2.45515,-9.36082,-14.5778,-6.63283,89.6421
2023-02-16 21:23:01:241,-1.10351,2.43828,-9.34514,-14.578,-6.62711,89.6371
2023-02-16 21:23:01:251,-1.11608,2.44292,-9.36621,-14.5763,-6.62285,89.6297
2023-02-16 21:23:01:261,-1.12072,2.46753,-9.42894,-14.5818,-6.62154,89.6245
2023-02-16 21:23:01:271,-1.10631,2.48986,-9.48544,-14.5831,-6.61842,89.6181
2023-02-16 21:23:01:281,-1.05205,2.468,-9.47551,-14.5809,-6.61259,89.609
2023-02-16 21:23:01:291,-1.0468,2.4244,-9.42121,-14.5769,-6.60994,89.5998
2023-02-16 21:23:01:301,-1.062,2.41619,-9.3733,-14.5742,-6.61078,89.5958
2023-02-16 21:23:01:311,-1.08422,2.41174,-9.34659,-14.5745,-6.61678,89.5926
2023-02-16 21:23:01:321,-1.11031,2.43766,-9.34133,-14.5806,-6.62395,89.5897
2023-02-16 21:23:01:331,-1.12788,2.46166,-9.33656,-14.5891,-6.62767,89.5907
2023-02-16 21:23:01:341,-1.14978,2.45768,-9.34272,-14.6034,-6.62992,89.5928
2023-02-16 21:23:01:351,-1.16357,2.48788,-9.35474,-14.6195,-6.63337,89.597
2023-02-16 21:23:01:361,-1.18623,2.4895,-9.37293,-14.6333,-6.63326,89.5985
2023-02-16 21:23:01:371,-1.20407,2.49686,-9.38472,-14.6448,-6.62954,89.6002
2023-02-16 21:23:01:381,-1.21533,2.50628,-9.36647,-14.6517,-6.6254,89.5986
2023-02-16 21:23:01:391,-1.19813,2.49635,-9.36604,-14.6586,-6.62079,89.5949
2023-02-16 21:23:01:401,-1.17385,2.48102,-9.38073,-14.6646,-6.61606,89.5857
2023-02-16 21:23:01:411,-1.12563,2.47521,-9.38957,-14.6647,-6.60587,89.5772
2023-02-16 21:23:01:421,-1.06177,2.48844,-9.42252,-14.6648,-6.60076,89.567
2023-02-16 21:23:01:431,-1.02045,2.48601,-9.44915,-14.6685,-6.59297,89.5573
2023-02-16 21:23:01:441,-1.03059,2.48891,-9.42568,-14.6698,-6.58573,89.5491
2023-02-16 21:23:01:451,-1.07189,2.50749,-9.4264,-14.6756,-6.5771,89.5484
2023-02-16 21:23:01:461,-1.18734,2.54048,-9.42472,-14.6787,-6.56942,89.5516
2023-02-16 21:23:01:471,-1.25388,2.55551,-9.42694,-14.682,-6.56503,89.554
2023-02-16 21:23:01:481,-1.25598,2.55613,-9.4283,-14.682,-6.56082,89.5476
2023-02-16 21:23:01:491,-1.21235,2.54063,-9.42487,-14.6802,-6.55705,89.5343
2023-02-16 21:23:01:501,-1.14021,2.51751,-9.41267,-14.6768,-6.55328,89.5148
2023-02-16 21:23:01:511,-1.09732,2.50167,-9.39998,-14.6733,-6.55426,89.4904
2023-02-16 21:23:01:521,-1.08173,2.48175,-9.37472,-14.6665,-6.5574,89.4616
2023-02-16 21:23:01:531,-1.08856,2.48191,-9.37408,-14.6641,-6.56166,89.4346
2023-02-16 21:23:01:541,-1.09756,2.49209,-9.36413,-14.6589,-6.56312,89.4092
2023-02-16 21:23:01:551,-1.07083,2.48003,-9.37052,-14.6578,-6.56151,89.3891
2023-02-16 21:23:01:561,-1.03035,2.45392,-9.40011,-14.6559,-6.55515,89.3648
2023-02-16 21:23:01:571,-1.04719,2.46098,-9.38813,-14.6538,-6.54918,89.346
2023-02-16 21:23:01:581,-1.07188,2.4492,-9.39682,-14.6539,-6.53918,89.3335
2023-02-16 21:23:01:591,-1.05738,2.45905,-9.39734,-14.6557,-6.53197,89.3227
2023-02-16 21:23:01:601,-1.05746,2.44977,-9.41652,-14.6515,-6.52247,89.3144
2023-02-16 21:23:01:611,-1.07719,2.46008,-9.38846,-14.6522,-6.51575,89.3091
2023-02-16 21:23:01:621,-1.08917,2.44419,-9.36894,-14.6507,-6.50484,89.3019
2023-02-16 21:23:01:631,-1.08146,2.43987,-9.37411,-14.6506,-6.49965,89.2934
2023-02-16 21:23:01:641,-1.07718,2.44899,-9.38652,-14.6512,-6.49484,89.2859
2023-02-16 21:23:01:651,-1.07944,2.45334,-9.3943,-14.6544,-6.48497,89.2811
2023-02-16 21:23:01:661,-1.07262,2.44421,-9.38289,-14.6589,-6.47898,89.2754
2023-02-16 21:23:01:671,-1.06199,2.44818,-9.41019,-14.6649,-6.47346,89.2694
2023-02-16 21:23:01:681,-1.05339,2.47141,-9.42322,-14.6713,-6.46892,89.2615
2023-02-16 21:23:01:691,-1.05685,2.48101,-9.41602,-14.678,-6.4662,89.2565
2023-02-16 21:23:01:701,-1.0508,2.48837,-9.40727,-14.682,-6.46331,89.2499
2023-02-16 21:23:01:711,-1.04518,2.4869,-9.42104,-14.6857,-6.45934,89.2471
2023-02-16 21:23:01:721,-1.05821,2.4906,-9.44023,-14.6896,-6.46045,89.2449
2023-02-16 21:23:01:731,-1.07654,2.48343,-9.41274,-14.6909,-6.46044,89.2413
2023-02-16 21:23:01:741,-1.08714,2.48603,-9.39625,-14.6925,-6.46143,89.2394
2023-02-16 21:23:01:751,-1.09384,2.49535,-9.41457,-14.6938,-6.46086,89.2414
2023-02-16 21:23:01:761,-1.09209,2.49534,-9.41556,-14.6928,-6.45957,89.2405
2023-02-16 21:23:01:771,-1.09233,2.48849,-9.40002,-14.6917,-6.45734,89.241
2023-02-16 21:23:01:781,-1.08217,2.48748,-9.39704,-14.689,-6.45737,89.2412
2023-02-16 21:23:01:791,-1.05602,2.47813,-9.39272,-14.6882,-6.45869,89.241
2023-02-16 21:23:01:801,-1.04251,2.4616,-9.39634,-14.688,-6.46099,89.2421
2023-02-16 21:23:01:811,-1.04864,2.4623,-9.39848,-14.687,-6.46243,89.2425
2023-02-16 21:23:01:821,-1.06061,2.48417,-9.40033,-14.6881,-6.46422,89.2444
2023-02-16 21:23:01:831,-1.04936,2.49077,-9.4284,-14.688,-6.46455,89.2447
2023-02-16 21:23:01:841,-1.04882,2.49673,-9.41464,-14.6851,-6.4652,89.2526
2023-02-16 21:23:01:851,-1.06477,2.50162,-9.39364,-14.6836,-6.46404,89.2612
2023-02-16 21:23:01:861,-1.0811,2.50145,-9.39314,-14.681,-6.46504,89.2699
2023-02-16 21:23:01:871,-1.09127,2.50899,-9.41401,-14.679,-6.4604,89.2796
2023-02-16 21:23:01:881,-1.09786,2.51721,-9.43817,-14.6717,-6.45627,89.2884
2023-02-16 21:23:01:891,-1.08563,2.49447,-9.43558,-14.6678,-6.453,89.2974
2023-02-16 21:23:01:901,-1.08848,2.4888,-9.42262,-14.6606,-6.45376,89.305
2023-02-16 21:23:01:911,-1.08996,2.48772,-9.39574,-14.6536,-6.45078,89.3127
2023-02-16 21:23:01:921,-1.0633,2.45295,-9.35356,-14.6476,-6.44882,89.3218
2023-02-16 21:23:01:931,-1.04851,2.42163,-9.37068,-14.6369,-6.44874,89.3282
2023-02-16 21:23:01:941,-1.02884,2.43488,-9.44107,-14.6314,-6.44827,89.3316
2023-02-16 21:23:01:951,-1.01175,2.46741,-9.49668,-14.6261,-6.44346,89.3339
2023-02-16 21:23:01:961,-0.994601,2.45122,-9.49661,-14.6182,-6.44909,89.3367
2023-02-16 21:23:01:971,-0.988073,2.41711,-9.41422,-14.608,-6.45585,89.3428
2023-02-16 21:23:01:981,-1.00667,2.413,-9.37531,-14.6033,-6.46408,89.3526
2023-02-16 21:23:01:991,-1.0386,2.4304,-9.37207,-14.6011,-6.47401,89.3655
2023-02-16 21:23:02:1,-1.07281,2.45181,-9.37985,-14.6031,-6.48621,89.3786
2023-02-16 21:23:02:11,-1.09402,2.45546,-9.3734,-14.6093,-6.49844,89.3915
2023-02-16 21:23:02:21,-1.08858,2.46513,-9.35777,-14.6123,-6.50683,89.4055
2023-02-16 21:23:02:31,-1.09048,2.48685,-9.36857,-14.6186,-6.51558,89.421
2023-02-16 21:23:02:41,-1.10562,2.49795,-9.38364,-14.6255,-6.52465,89.4367
2023-02-16 21:23:02:51,-1.1295,2.48577,-9.36036,-14.6296,-6.53578,89.452
2023-02-16 21:23:02:61,-1.13464,2.46287,-9.34559,-14.6291,-6.54384,89.4626
2023-02-16 21:23:02:71,-1.12169,2.45386,-9.33075,-14.6254,-6.55702,89.4706
2023-02-16 21:23:02:81,-1.12398,2.45905,-9.35331,-14.6243,-6.5706,89.4791
2023-02-16 21:23:02:91,-1.14026,2.45602,-9.36157,-14.6236,-6.58102,89.4813
2023-02-16 21:23:02:101,-1.14382,2.46017,-9.38257,-14.6281,-6.59059,89.4821
2023-02-16 21:23:02:111,-1.13873,2.46754,-9.39523,-14.633,-6.59844,89.4845
2023-02-16 21:23:02:121,-1.12401,2.5031,-9.43128,-14.641,-6.60647,89.4893
2023-02-16 21:23:02:131,-1.10578,2.51213,-9.43679,-14.6515,-6.61501,89.4915
2023-02-16 21:23:02:141,-1.12199,2.52175,-9.42425,-14.6598,-6.61963,89.5011
2023-02-16 21:23:02:151,-1.14908,2.54571,-9.446,-14.6705,-6.62374,89.5116
2023-02-16 21:23:02:161,-1.17143,2.58281,-9.46738,-14.6812,-6.62552,89.5212
2023-02-16 21:23:02:171,-1.13894,2.5749,-9.47547,-14.6846,-6.62128,89.5256
2023-02-16 21:23:02:181,-1.09407,2.55283,-9.44109,-14.6787,-6.62046,89.5337
2023-02-16 21:23:02:191,-1.08551,2.52013,-9.41951,-14.6702,-6.62229,89.539
2023-02-16 21:23:02:201,-1.11462,2.50545,-9.3973,-14.6614,-6.6266,89.5425
2023-02-16 21:23:02:211,-1.14569,2.47694,-9.37119,-14.6531,-6.6322,89.5483
2023-02-16 21:23:02:221,-1.14401,2.47782,-9.36107,-14.6433,-6.64218,89.5486
2023-02-16 21:23:02:231,-1.13353,2.49075,-9.38981,-14.6331,-6.64987,89.5508
2023-02-16 21:23:02:241,-1.12018,2.47333,-9.39351,-14.6256,-6.6575,89.5507
2023-02-16 21:23:02:251,-1.09744,2.43742,-9.38391,-14.6158,-6.66464,89.5474
2023-02-16 21:23:02:261,-1.09464,2.43224,-9.37969,-14.6092,-6.67285,89.5511
2023-02-16 21:23:02:271,-1.09068,2.43742,-9.39348,-14.6055,-6.67702,89.5523
2023-02-16 21:23:02:281,-1.09481,2.44837,-9.39827,-14.5987,-6.68486,89.5562
2023-02-16 21:23:02:291,-1.09631,2.4342,-9.37481,-14.5941,-6.6914,89.5664
2023-02-16 21:23:02:301,-1.08916,2.43177,-9.36757,-14.5875,-6.69473,89.5712
2023-02-16 21:23:02:311,-1.10453,2.43616,-9.37523,-14.5861,-6.69714,89.5797
2023-02-16 21:23:02:321,-1.12178,2.43538,-9.38128,-14.5843,-6.70548,89.5951
2023-02-16 21:23:02:331,-1.12843,2.44405,-9.38059,-14.5824,-6.71084,89.6075
2023-02-16 21:23:02:341,-1.12421,2.44223,-9.37763,-14.5822,-6.71705,89.6195
2023-02-16 21:23:02:351,-1.14405,2.44602,-9.39415,-14.5808,-6.7219,89.6329
2023-02-16 21:23:02:361,-1.14797,2.44751,-9.38876,-14.5826,-6.72625,89.6465
2023-02-16 21:23:02:371,-1.15349,2.44341,-9.38877,-14.5828,-6.73644,89.6583
2023-02-16 21:23:02:381,-1.15519,2.44597,-9.3994,-14.5885,-6.74092,89.6695
2023-02-16 21:23:02:391,-1.16219,2.46252,-9.39559,-14.5939,-6.74869,89.6779
2023-02-16 21:23:02:401,-1.17458,2.46363,-9.40609,-14.5987,-6.75725,89.6919
2023-02-16 21:23:02:411,-1.16463,2.46071,-9.39109,-14.6019,-6.76358,89.7044
2023-02-16 21:23:02:421,-1.16541,2.46348,-9.38468,-14.607,-6.76859,89.7135
2023-02-16 21:23:02:431,-1.16138,2.47745,-9.39299,-14.6112,-6.77674,89.7263
2023-02-16 21:23:02:441,-1.16181,2.48186,-9.39269,-14.6182,-6.78393,89.7355
2023-02-16 21:23:02:451,-1.16808,2.47322,-9.3899,-14.6185,-6.79029,89.7436
2023-02-16 21:23:02:462,-1.17544,2.47205,-9.3856,-14.6237,-6.79345,89.7488
2023-02-16 21:23:02:471,-1.18059,2.47543,-9.38256,-14.6305,-6.80088,89.7576
2023-02-16 21:23:02:481,-1.18915,2.46999,-9.38155,-14.6349,-6.80692,89.7621
2023-02-16 21:23:02:491,-1.18819,2.46201,-9.37754,-14.6356,-6.81147,89.7681
2023-02-16 21:23:02:502,-1.18933,2.45706,-9.37361,-14.639,-6.81668,89.7728
2023-02-16 21:23:02:511,-1.18505,2.46467,-9.37491,-14.6447,-6.82334,89.7764
2023-02-16 21:23:02:521,-1.19077,2.4795,-9.37435,-14.6487,-6.83008,89.7766
2023-02-16 21:23:02:531,-1.20648,2.45744,-9.38593,-14.6543,-6.83402,89.7775
2023-02-16 21:23:02:541,-1.20126,2.45331,-9.40163,-14.6566,-6.83409,89.7772
2023-02-16 21:23:02:551,-1.17793,2.44019,-9.38923,-14.6584,-6.82931,89.775
2023-02-16 21:23:02:561,-1.15822,2.44867,-9.39362,-14.6599,-6.82453,89.7685
2023-02-16 21:23:02:571,-1.13646,2.45011,-9.37412,-14.6619,-6.82076,89.7632
2023-02-16 21:23:02:581,-1.11637,2.42517,-9.35441,-14.6635,-6.81719,89.7572
2023-02-16 21:23:02:591,-1.10085,2.41566,-9.3628,-14.6668,-6.80968,89.7494
2023-02-16 21:23:02:601,-1.09817,2.43139,-9.41127,-14.6694,-6.80247,89.7476
2023-02-16 21:23:02:611,-1.0841,2.4801,-9.46856,-14.6815,-6.79878,89.7457
2023-02-16 21:23:02:621,-1.05602,2.48197,-9.4777,-14.6897,-6.79464,89.7452
2023-02-16 21:23:02:631,-1.02501,2.44646,-9.44677,-14.6928,-6.79411,89.7466
2023-02-16 21:23:02:641,-1.04894,2.43094,-9.42161,-14.6973,-6.79974,89.7504
2023-02-16 21:23:02:651,-1.08955,2.44691,-9.38612,-14.7034,-6.81055,89.7588
2023-02-16 21:23:02:662,-1.12469,2.46118,-9.37325,-14.7114,-6.82288,89.7719
2023-02-16 21:23:02:671,-1.16554,2.48376,-9.3744,-14.7233,-6.83251,89.7854
2023-02-16 21:23:02:681,-1.19154,2.50899,-9.3663,-14.7378,-6.83996,89.8017
2023-02-16 21:23:02:691,-1.2131,2.53091,-9.39208,-14.7531,-6.84771,89.8192
2023-02-16 21:23:02:702,-1.21326,2.55163,-9.39705,-14.7685,-6.85573,89.8359
2023-02-16 21:23:02:711,-1.24516,2.54689,-9.38654,-14.7803,-6.85868,89.8537
2023-02-16 21:23:02:721,-1.26839,2.53941,-9.34706,-14.7863,-6.86312,89.8673
2023-02-16 21:23:02:731,-1.26349,2.53416,-9.33094,-14.7932,-6.8648,89.8767
2023-02-16 21:23:02:742,-1.25902,2.52841,-9.33932,-14.7965,-6.86854,89.8821
2023-02-16 21:23:02:751,-1.25862,2.51613,-9.34998,-14.7976,-6.86974,89.8809
2023-02-16 21:23:02:761,-1.24278,2.50136,-9.35356,-14.8032,-6.87224,89.8761
2023-02-16 21:23:02:771,-1.20676,2.50176,-9.37714,-14.8091,-6.88055,89.8673
2023-02-16 21:23:02:781,-1.18363,2.53087,-9.39887,-14.8131,-6.88017,89.8551
2023-02-16 21:23:02:792,-1.15495,2.51995,-9.40212,-14.8184,-6.87868,89.8431
2023-02-16 21:23:02:801,-1.12053,2.50892,-9.3896,-14.8218,-6.87891,89.8325
2023-02-16 21:23:02:811,-1.12059,2.51909,-9.41205,-14.8285,-6.87898,89.8241
2023-02-16 21:23:02:821,-1.11641,2.53423,-9.45478,-14.8386,-6.8768,89.8219
2023-02-16 21:23:02:831,-1.11913,2.55377,-9.45744,-14.8495,-6.87143,89.816
2023-02-16 21:23:02:842,-1.08781,2.54503,-9.42794,-14.8542,-6.86442,89.8139
2023-02-16 21:23:02:851,-1.0774,2.52129,-9.42023,-14.8531,-6.85829,89.8147
2023-02-16 21:23:02:862,-1.10926,2.52449,-9.40903,-14.851,-6.85574,89.8175
2023-02-16 21:23:02:872,-1.14885,2.52881,-9.39752,-14.8497,-6.8542,89.8203
2023-02-16 21:23:02:881,-1.18102,2.50357,-9.37312,-14.8438,-6.8558,89.8231
2023-02-16 21:23:02:891,-1.17983,2.50533,-9.37427,-14.8411,-6.85227,89.8248
2023-02-16 21:23:02:901,-1.17705,2.51972,-9.37917,-14.8378,-6.85313,89.8284
2023-02-16 21:23:02:912,-1.17183,2.51754,-9.38083,-14.8309,-6.85235,89.8311
2023-02-16 21:23:02:922,-1.16154,2.48656,-9.38598,-14.827,-6.85315,89.8308
2023-02-16 21:23:02:932,-1.16714,2.487,-9.36036,-14.8217,-6.85225,89.8313
2023-02-16 21:23:02:942,-1.15385,2.48381,-9.34815,-14.8197,-6.85246,89.8276
2023-02-16 21:23:02:952,-1.14438,2.4946,-9.35366,-14.8154,-6.85462,89.8266
2023-02-16 21:23:02:962,-1.13498,2.48031,-9.36666,-14.816,-6.85533,89.8218
2023-02-16 21:23:02:972,-1.12383,2.48399,-9.36769,-14.8123,-6.85526,89.8185
2023-02-16 21:23:02:982,-1.11712,2.48596,-9.37223,-14.8138,-6.85554,89.8124
2023-02-16 21:23:02:992,-1.10639,2.48644,-9.37933,-14.8158,-6.8554,89.8121
2023-02-16 21:23:03:1,-1.10274,2.47808,-9.39273,-14.8188,-6.86023,89.8085
2023-02-16 21:23:03:11,-1.08983,2.48126,-9.39557,-14.8208,-6.86413,89.8058
2023-02-16 21:23:03:22,-1.08957,2.49919,-9.42114,-14.8263,-6.87053,89.8035
2023-02-16 21:23:03:31,-1.09988,2.51053,-9.43652,-14.8354,-6.87334,89.8037
2023-02-16 21:23:03:42,-1.11311,2.52179,-9.42061,-14.8413,-6.87474,89.8086
2023-02-16 21:23:03:51,-1.12502,2.5304,-9.41493,-14.8449,-6.88073,89.8134
2023-02-16 21:23:03:61,-1.13747,2.53406,-9.40816,-14.8466,-6.88665,89.8223
2023-02-16 21:23:03:71,-1.15459,2.51995,-9.39696,-14.8474,-6.89463,89.8293
2023-02-16 21:23:03:82,-1.16363,2.51071,-9.38878,-14.847,-6.90293,89.8431
2023-02-16 21:23:03:92,-1.15993,2.51411,-9.38429,-14.844,-6.90752,89.8512
2023-02-16 21:23:03:102,-1.16694,2.49586,-9.3808,-14.839,-6.90771,89.8602
2023-02-16 21:23:03:112,-1.18168,2.48857,-9.37826,-14.8334,-6.90622,89.8706
2023-02-16 21:23:03:121,-1.18876,2.48115,-9.35185,-14.8288,-6.90794,89.8791
2023-02-16 21:23:03:132,-1.20078,2.48329,-9.35555,-14.8254,-6.91344,89.8873
2023-02-16 21:23:03:142,-1.19469,2.49553,-9.36922,-14.8258,-6.92161,89.8946
2023-02-16 21:23:03:151,-1.17462,2.48961,-9.37898,-14.8236,-6.93232,89.8983
2023-02-16 21:23:03:162,-1.14917,2.49175,-9.38413,-14.8189,-6.9416,89.9
2023-02-16 21:23:03:171,-1.15623,2.49773,-9.38782,-14.8206,-6.95069,89.8992
2023-02-16 21:23:03:181,-1.17537,2.48515,-9.36524,-14.8199,-6.95545,89.9015
2023-02-16 21:23:03:191,-1.17765,2.48174,-9.36016,-14.8184,-6.96392,89.9061
2023-02-16 21:23:03:201,-1.18877,2.48791,-9.38045,-14.8148,-6.97113,89.913
2023-02-16 21:23:03:211,-1.19909,2.50224,-9.39307,-14.815,-6.97735,89.917
2023-02-16 21:23:03:221,-1.20158,2.48273,-9.36625,-14.8156,-6.97937,89.9217
2023-02-16 21:23:03:231,-1.21134,2.47609,-9.3537,-14.8169,-6.97829,89.9291
2023-02-16 21:23:03:241,-1.2284,2.50003,-9.35567,-14.8205,-6.97833,89.9338
2023-02-16 21:23:03:251,-1.21638,2.51233,-9.34133,-14.8252,-6.97954,89.9399
2023-02-16 21:23:03:262,-1.19424,2.49947,-9.34791,-14.8268,-6.97524,89.9394
2023-02-16 21:23:03:272,-1.17137,2.52787,-9.40826,-14.8321,-6.97376,89.9382
2023-02-16 21:23:03:282,-1.1614,2.55631,-9.49438,-14.8372,-6.97354,89.9357
2023-02-16 21:23:03:291,-1.11828,2.55867,-9.51244,-14.8386,-6.97077,89.9326
2023-02-16 21:23:03:301,-1.06379,2.52408,-9.46999,-14.8319,-6.97244,89.9263
2023-02-16 21:23:03:311,-1.08606,2.49577,-9.42734,-14.8239,-6.9792,89.919
2023-02-16 21:23:03:321,-1.12495,2.49209,-9.39356,-14.8169,-6.99064,89.923
2023-02-16 21:23:03:332,-1.1713,2.48737,-9.36854,-14.8104,-7.00435,89.9248
2023-02-16 21:23:03:342,-1.22296,2.49048,-9.35746,-14.8068,-7.0176,89.9336
2023-02-16 21:23:03:351,-1.24555,2.51541,-9.35687,-14.8072,-7.02327,89.9425
2023-02-16 21:23:03:361,-1.25205,2.52469,-9.36918,-14.8059,-7.03055,89.953
2023-02-16 21:23:03:372,-1.25558,2.50785,-9.35916,-14.8048,-7.02802,89.961
2023-02-16 21:23:03:382,-1.26388,2.50412,-9.34298,-14.804,-7.02635,89.9674
2023-02-16 21:23:03:392,-1.24872,2.5019,-9.34053,-14.7984,-7.02502,89.972
2023-02-16 21:23:03:402,-1.24043,2.49119,-9.32701,-14.7906,-7.02146,89.9725
2023-02-16 21:23:03:412,-1.23189,2.47509,-9.31477,-14.7828,-7.0228,89.9711
2023-02-16 21:23:03:421,-1.2136,2.46787,-9.32726,-14.7762,-7.01864,89.9663
2023-02-16 21:23:03:432,-1.19165,2.45714,-9.33693,-14.7722,-7.01387,89.9592
2023-02-16 21:23:03:442,-1.16319,2.4544,-9.3407,-14.7665,-7.00588,89.9551
2023-02-16 21:23:03:452,-1.13274,2.44461,-9.35355,-14.7665,-6.99606,89.9483
2023-02-16 21:23:03:461,-1.08076,2.45102,-9.36743,-14.7689,-6.98718,89.9429
2023-02-16 21:23:03:472,-1.04869,2.45191,-9.36802,-14.775,-6.9748,89.9425
2023-02-16 21:23:03:482,-1.05209,2.46584,-9.37122,-14.7822,-6.96602,89.9418
