Timestamp,Acceleration_x,Acceleration_y,Acceleration_z,roll,pitch,yaw
2023-02-15 07:04:57:917,-1.24695,-0.127498,-9.70345,1.02235,-8.05419,97.915
2023-02-15 07:04:57:926,-1.26203,-0.149324,-9.68467,1.03508,-8.0518,97.8896
2023-02-15 07:04:57:936,-1.29761,-0.169849,-9.67251,1.05019,-8.05293,97.866
2023-02-15 07:04:57:946,-1.35195,-0.15726,-9.65854,1.06894,-8.05481,97.8455
2023-02-15 07:04:57:956,-1.36586,-0.149902,-9.63928,1.0824,-8.05655,97.8263
2023-02-15 07:04:57:966,-1.36997,-0.162753,-9.65224,1.09681,-8.05753,97.8036
2023-02-15 07:04:57:976,-1.3702,-0.168641,-9.67739,1.11366,-8.05935,97.7854
2023-02-15 07:04:57:986,-1.37639,-0.162674,-9.69327,1.12928,-8.05708,97.7649
2023-02-15 07:04:57:996,-1.36488,-0.157506,-9.69925,1.14505,-8.05475,97.7419
2023-02-15 07:04:58:6,-1.3532,-0.169259,-9.70661,1.16797,-8.05225,97.719
2023-02-15 07:04:58:16,-1.35008,-0.184927,-9.72158,1.18861,-8.04817,97.6974
2023-02-15 07:04:58:26,-1.32312,-0.204835,-9.71584,1.2108,-8.04069,97.6734
2023-02-15 07:04:58:36,-1.29702,-0.216787,-9.69755,1.23476,-8.03434,97.6502
2023-02-15 07:04:58:46,-1.28546,-0.217198,-9.66812,1.2571,-8.02946,97.6289
2023-02-15 07:04:58:56,-1.28476,-0.236568,-9.6333,1.27552,-8.02472,97.6102
2023-02-15 07:04:58:66,-1.29734,-0.226939,-9.65221,1.28987,-8.01779,97.5939
2023-02-15 07:04:58:76,-1.29494,-0.199614,-9.70569,1.3035,-8.01036,97.5775
2023-02-15 07:04:58:86,-1.2485,-0.181442,-9.7638,1.32136,-8.00175,97.5626
2023-02-15 07:04:58:96,-1.20321,-0.197869,-9.76525,1.34893,-7.99271,97.5488
2023-02-15 07:04:58:106,-1.20235,-0.234826,-9.73399,1.37792,-7.98666,97.5338
2023-02-15 07:04:58:116,-1.24312,-0.247406,-9.71046,1.41038,-7.98702,97.5217
2023-02-15 07:04:58:126,-1.29343,-0.258994,-9.67172,1.44173,-7.99555,97.5131
2023-02-15 07:04:58:136,-1.33526,-0.278133,-9.64579,1.47233,-8.00534,97.5063
2023-02-15 07:04:58:146,-1.35598,-0.265527,-9.65221,1.50029,-8.01023,97.4987
2023-02-15 07:04:58:156,-1.33975,-0.266186,-9.67632,1.52246,-8.01368,97.4912
2023-02-15 07:04:58:166,-1.31972,-0.287561,-9.68373,1.54563,-8.01112,97.4845
2023-02-15 07:04:58:176,-1.29512,-0.29128,-9.68916,1.57381,-8.00674,97.4771
2023-02-15 07:04:58:186,-1.2841,-0.287238,-9.68532,1.59583,-8.00595,97.4694
2023-02-15 07:04:58:196,-1.28699,-0.286259,-9.67279,1.61905,-8.00729,97.4635
2023-02-15 07:04:58:206,-1.3108,-0.28989,-9.66417,1.64265,-8.00984,97.4541
2023-02-15 07:04:58:216,-1.32844,-0.295814,-9.65161,1.66881,-8.00982,97.4459
2023-02-15 07:04:58:226,-1.33285,-0.317738,-9.6461,1.69618,-8.00778,97.4369
2023-02-15 07:04:58:236,-1.3173,-0.332958,-9.64522,1.72173,-8.00637,97.4235
2023-02-15 07:04:58:246,-1.27827,-0.358887,-9.63089,1.74684,-8.00897,97.4115
2023-02-15 07:04:58:256,-1.28042,-0.375957,-9.61974,1.7703,-8.00862,97.3998
2023-02-15 07:04:58:266,-1.27734,-0.416023,-9.6177,1.79363,-8.01225,97.3907
2023-02-15 07:04:58:276,-1.28483,-0.441762,-9.59688,1.81204,-8.01615,97.3851
2023-02-15 07:04:58:286,-1.28679,-0.45334,-9.60143,1.82488,-8.02456,97.3738
2023-02-15 07:04:58:296,-1.30375,-0.442447,-9.62241,1.83241,-8.03343,97.3664
2023-02-15 07:04:58:306,-1.33633,-0.433046,-9.63786,1.83405,-8.04244,97.3604
2023-02-15 07:04:58:316,-1.33636,-0.437669,-9.62399,1.8373,-8.05084,97.3558
2023-02-15 07:04:58:326,-1.30449,-0.446109,-9.61835,1.83773,-8.05498,97.3515
2023-02-15 07:04:58:336,-1.29253,-0.452232,-9.5812,1.83603,-8.05915,97.3499
2023-02-15 07:04:58:346,-1.30969,-0.443631,-9.55655,1.82996,-8.0629,97.3493
2023-02-15 07:04:58:356,-1.29643,-0.434997,-9.55007,1.82145,-8.06457,97.3493
2023-02-15 07:04:58:366,-1.30692,-0.420124,-9.56513,1.80372,-8.06487,97.3539
2023-02-15 07:04:58:376,-1.33977,-0.391641,-9.62231,1.78453,-8.06768,97.3595
2023-02-15 07:04:58:386,-1.36618,-0.354745,-9.64965,1.7605,-8.07234,97.368
2023-02-15 07:04:58:396,-1.36591,-0.331955,-9.64693,1.73406,-8.0759,97.3742
2023-02-15 07:04:58:406,-1.34186,-0.329606,-9.64524,1.70347,-8.0778,97.3818
2023-02-15 07:04:58:416,-1.33558,-0.321125,-9.64779,1.68052,-8.07549,97.3855
2023-02-15 07:04:58:426,-1.31323,-0.299754,-9.66395,1.65146,-8.07369,97.3895
2023-02-15 07:04:58:436,-1.30124,-0.284434,-9.68379,1.62582,-8.07497,97.3893
2023-02-15 07:04:58:446,-1.3002,-0.284522,-9.69517,1.60063,-8.07636,97.3919
2023-02-15 07:04:58:456,-1.28918,-0.26564,-9.7112,1.57739,-8.0797,97.3949
2023-02-15 07:04:58:466,-1.3282,-0.252274,-9.70145,1.55216,-8.08191,97.3963
2023-02-15 07:04:58:476,-1.34708,-0.240735,-9.70139,1.52596,-8.08567,97.4013
2023-02-15 07:04:58:486,-1.32744,-0.21708,-9.73304,1.5002,-8.08758,97.4068
2023-02-15 07:04:58:496,-1.32591,-0.184662,-9.76025,1.47603,-8.08707,97.4105
2023-02-15 07:04:58:506,-1.32834,-0.157667,-9.77301,1.458,-8.08832,97.4196
2023-02-15 07:04:58:516,-1.31236,-0.157276,-9.77562,1.44305,-8.09428,97.4267
2023-02-15 07:04:58:526,-1.31767,-0.16317,-9.78056,1.43178,-8.09864,97.4343
2023-02-15 07:04:58:536,-1.34951,-0.189306,-9.76834,1.42747,-8.10724,97.4421
2023-02-15 07:04:58:546,-1.38414,-0.195731,-9.73719,1.43053,-8.11827,97.446
2023-02-15 07:04:58:556,-1.40789,-0.202851,-9.70232,1.43452,-8.12947,97.4485
2023-02-15 07:04:58:566,-1.40474,-0.220737,-9.70405,1.44081,-8.13962,97.4501
2023-02-15 07:04:58:576,-1.40623,-0.219975,-9.69828,1.44399,-8.14995,97.4518
2023-02-15 07:04:58:586,-1.40209,-0.216216,-9.68933,1.45566,-8.15791,97.4526
2023-02-15 07:04:58:596,-1.40511,-0.229907,-9.69743,1.46949,-8.16635,97.4523
2023-02-15 07:04:58:606,-1.42436,-0.231801,-9.7025,1.48233,-8.17734,97.4493
2023-02-15 07:04:58:616,-1.44233,-0.245233,-9.70711,1.49629,-8.18594,97.4442
2023-02-15 07:04:58:626,-1.41518,-0.261227,-9.70374,1.51777,-8.1939,97.4357
2023-02-15 07:04:58:636,-1.35216,-0.270529,-9.71774,1.53686,-8.20282,97.4264
2023-02-15 07:04:58:646,-1.32017,-0.300373,-9.70153,1.55697,-8.20804,97.4139
2023-02-15 07:04:58:656,-1.33457,-0.322227,-9.67603,1.57801,-8.21974,97.4023
2023-02-15 07:04:58:666,-1.36764,-0.30885,-9.65498,1.59551,-8.23169,97.3984
2023-02-15 07:04:58:676,-1.37463,-0.305279,-9.61799,1.61521,-8.24099,97.3933
2023-02-15 07:04:58:686,-1.36772,-0.309162,-9.61221,1.63117,-8.24919,97.3951
2023-02-15 07:04:58:696,-1.36923,-0.309226,-9.6203,1.64172,-8.25846,97.399
2023-02-15 07:04:58:706,-1.38202,-0.291491,-9.62781,1.64999,-8.26641,97.4047
2023-02-15 07:04:58:716,-1.4069,-0.291288,-9.62082,1.65875,-8.27943,97.4103
2023-02-15 07:04:58:726,-1.47868,-0.296826,-9.60754,1.6707,-8.28955,97.414
2023-02-15 07:04:58:736,-1.5443,-0.287341,-9.62127,1.67912,-8.29592,97.422
2023-02-15 07:04:58:746,-1.63062,-0.253126,-9.64919,1.68707,-8.3023,97.4221
2023-02-15 07:04:58:756,-1.68852,-0.241942,-9.67202,1.69761,-8.30761,97.4144
2023-02-15 07:04:58:766,-1.65032,-0.24853,-9.65509,1.71208,-8.31272,97.3919
2023-02-15 07:04:58:776,-1.55076,-0.274457,-9.64463,1.72958,-8.31636,97.3562
2023-02-15 07:04:58:786,-1.47871,-0.292283,-9.65228,1.74331,-8.31953,97.3101
2023-02-15 07:04:58:796,-1.48514,-0.28034,-9.65227,1.75873,-8.32714,97.2635
2023-02-15 07:04:58:806,-1.47367,-0.278191,-9.65451,1.77099,-8.33047,97.2158
2023-02-15 07:04:58:816,-1.44806,-0.276056,-9.67021,1.78223,-8.32952,97.1697
2023-02-15 07:04:58:826,-1.41999,-0.25596,-9.67539,1.79636,-8.32363,97.1194
2023-02-15 07:04:58:836,-1.39259,-0.252668,-9.68681,1.80614,-8.31633,97.0711
2023-02-15 07:04:58:846,-1.36487,-0.234366,-9.69563,1.81873,-8.30605,97.0278
2023-02-15 07:04:58:856,-1.35941,-0.236965,-9.70031,1.83204,-8.2957,96.9871
2023-02-15 07:04:58:866,-1.37942,-0.243317,-9.69146,1.84741,-8.28868,96.9455
2023-02-15 07:04:58:876,-1.40008,-0.244535,-9.68191,1.86483,-8.28058,96.9037
2023-02-15 07:04:58:886,-1.35557,-0.25061,-9.68226,1.88278,-8.26991,96.8639
2023-02-15 07:04:58:896,-1.30409,-0.281391,-9.67404,1.90302,-8.25744,96.8183
2023-02-15 07:04:58:906,-1.2988,-0.311888,-9.64724,1.92345,-8.24815,96.7784
2023-02-15 07:04:58:916,-1.2929,-0.308401,-9.66306,1.94112,-8.23786,96.7421
2023-02-15 07:04:58:926,-1.30509,-0.300463,-9.6831,1.95493,-8.23482,96.7044
2023-02-15 07:04:58:936,-1.31141,-0.295755,-9.67527,1.97014,-8.22939,96.6723
2023-02-15 07:04:58:946,-1.3009,-0.300711,-9.69475,1.98398,-8.22508,96.6427
2023-02-15 07:04:58:956,-1.29617,-0.305504,-9.73406,1.99413,-8.21935,96.6156
2023-02-15 07:04:58:966,-1.28862,-0.302929,-9.73317,2.01137,-8.21265,96.5904
2023-02-15 07:04:58:976,-1.29074,-0.31392,-9.72384,2.02921,-8.20747,96.5656
2023-02-15 07:04:58:986,-1.30029,-0.334109,-9.72673,2.04633,-8.20317,96.5412
2023-02-15 07:04:58:996,-1.2796,-0.342217,-9.71946,2.06733,-8.20001,96.5158
2023-02-15 07:04:59:6,-1.24321,-0.356921,-9.69444,2.08802,-8.19948,96.4938
2023-02-15 07:04:59:17,-1.22127,-0.383624,-9.66573,2.11648,-8.19539,96.4725
2023-02-15 07:04:59:26,-1.22387,-0.440685,-9.65227,2.14482,-8.19492,96.4532
2023-02-15 07:04:59:36,-1.22104,-0.480829,-9.62937,2.16717,-8.19656,96.4393
2023-02-15 07:04:59:46,-1.23905,-0.505986,-9.60553,2.19242,-8.20187,96.4258
2023-02-15 07:04:59:56,-1.25325,-0.526834,-9.57386,2.21068,-8.20594,96.4146
2023-02-15 07:04:59:66,-1.2329,-0.527817,-9.56733,2.22462,-8.20813,96.4059
2023-02-15 07:04:59:76,-1.22846,-0.519904,-9.60192,2.23033,-8.21549,96.4025
2023-02-15 07:04:59:86,-1.2611,-0.49022,-9.61804,2.22775,-8.22529,96.4048
2023-02-15 07:04:59:96,-1.29371,-0.447128,-9.64201,2.22138,-8.23894,96.4138
2023-02-15 07:04:59:106,-1.3585,-0.401552,-9.66421,2.20728,-8.25684,96.4223
2023-02-15 07:04:59:116,-1.44446,-0.392275,-9.64177,2.19909,-8.28088,96.4319
2023-02-15 07:04:59:126,-1.52158,-0.392359,-9.57539,2.18524,-8.3058,96.4455
2023-02-15 07:04:59:136,-1.57683,-0.378314,-9.50801,2.16976,-8.33741,96.4509
2023-02-15 07:04:59:146,-1.60551,-0.364319,-9.46989,2.14823,-8.37172,96.4518
2023-02-15 07:04:59:156,-1.61717,-0.353845,-9.5039,2.12055,-8.4012,96.4473
2023-02-15 07:04:59:166,-1.5961,-0.322236,-9.5537,2.08701,-8.42652,96.4394
2023-02-15 07:04:59:176,-1.56848,-0.297705,-9.61758,2.0487,-8.44528,96.4233
2023-02-15 07:04:59:186,-1.54246,-0.266529,-9.66167,2.00917,-8.46178,96.4034
2023-02-15 07:04:59:196,-1.48037,-0.265858,-9.68229,1.97359,-8.4739,96.3774
2023-02-15 07:04:59:206,-1.4384,-0.248679,-9.70229,1.94206,-8.48067,96.3498
2023-02-15 07:04:59:216,-1.40521,-0.231046,-9.74622,1.91567,-8.4878,96.3191
2023-02-15 07:04:59:226,-1.3566,-0.275112,-9.73555,1.89553,-8.49499,96.2918
2023-02-15 07:04:59:236,-1.31089,-0.361754,-9.65225,1.88308,-8.49933,96.2669
2023-02-15 07:04:59:246,-1.32398,-0.432863,-9.56832,1.86923,-8.50706,96.2444
2023-02-15 07:04:59:256,-1.39591,-0.451533,-9.52203,1.84879,-8.51762,96.2282
2023-02-15 07:04:59:266,-1.40439,-0.464653,-9.55913,1.81015,-8.53006,96.2135
2023-02-15 07:04:59:276,-1.35905,-0.4366,-9.60364,1.76619,-8.53495,96.2005
2023-02-15 07:04:59:286,-1.34469,-0.414649,-9.67906,1.71489,-8.53899,96.1915
2023-02-15 07:04:59:296,-1.35944,-0.393413,-9.75164,1.66628,-8.54946,96.1823
2023-02-15 07:04:59:306,-1.41992,-0.401451,-9.81322,1.62267,-8.56394,96.1759
2023-02-15 07:04:59:316,-1.46894,-0.410891,-9.83863,1.59037,-8.58468,96.1674
2023-02-15 07:04:59:326,-1.48211,-0.442505,-9.7851,1.56816,-8.60378,96.1569
2023-02-15 07:04:59:336,-1.44074,-0.523168,-9.68533,1.5609,-8.61678,96.146
2023-02-15 07:04:59:346,-1.34837,-0.632999,-9.58697,1.56361,-8.62424,96.1315
2023-02-15 07:04:59:356,-1.2937,-0.738453,-9.44954,1.5628,-8.62672,96.1179
2023-02-15 07:04:59:366,-1.29789,-0.797534,-9.30328,1.54874,-8.62419,96.1107
2023-02-15 07:04:59:376,-1.20398,-0.820235,-9.22777,1.51582,-8.61589,96.1122
2023-02-15 07:04:59:386,-1.11083,-0.778822,-9.27911,1.46089,-8.60633,96.1231
2023-02-15 07:04:59:396,-1.18157,-0.678827,-9.3757,1.37889,-8.6024,96.1465
2023-02-15 07:04:59:406,-1.3371,-0.592571,-9.45031,1.27916,-8.60498,96.1821
2023-02-15 07:04:59:416,-1.47788,-0.529419,-9.45508,1.17045,-8.61513,96.2254
2023-02-15 07:04:59:426,-1.61551,-0.49362,-9.33875,1.05267,-8.62232,96.2764
2023-02-15 07:04:59:436,-1.69556,-0.475876,-9.19573,0.929118,-8.61915,96.3258
2023-02-15 07:04:59:446,-1.64221,-0.464282,-9.1823,0.790635,-8.59753,96.3713
2023-02-15 07:04:59:456,-1.48352,-0.345412,-9.4527,0.631584,-8.56479,96.4089
2023-02-15 07:04:59:466,-1.39831,-0.123817,-9.81934,0.459542,-8.5285,96.4394
2023-02-15 07:04:59:476,-1.3088,0.0645365,-10.1204,0.293201,-8.49569,96.462
2023-02-15 07:04:59:486,-1.2239,0.199326,-10.3399,0.147373,-8.46761,96.4866
2023-02-15 07:04:59:496,-1.21092,0.266398,-10.3332,0.032817,-8.44932,96.51
2023-02-15 07:04:59:506,-1.22822,0.234185,-10.1864,-0.0462935,-8.44469,96.538
2023-02-15 07:04:59:516,-1.24214,0.202474,-9.98346,-0.10325,-8.44586,96.5698
2023-02-15 07:04:59:526,-1.33351,0.172917,-9.76859,-0.147882,-8.45688,96.6035
2023-02-15 07:04:59:536,-1.4433,0.176626,-9.65579,-0.190024,-8.47562,96.6438
2023-02-15 07:04:59:546,-1.47516,0.230072,-9.66758,-0.23617,-8.49378,96.6816
2023-02-15 07:04:59:556,-1.41999,0.276284,-9.7704,-0.275451,-8.50872,96.715
2023-02-15 07:04:59:566,-1.36986,0.316465,-9.8643,-0.308675,-8.52316,96.7423
2023-02-15 07:04:59:576,-1.40933,0.281748,-9.91338,-0.325793,-8.54328,96.774
2023-02-15 07:04:59:586,-1.49559,0.271988,-9.91673,-0.328015,-8.57192,96.8043
2023-02-15 07:04:59:596,-1.53565,0.242868,-9.85449,-0.312797,-8.60672,96.836
2023-02-15 07:04:59:606,-1.53171,0.188033,-9.80337,-0.279899,-8.64143,96.8615
2023-02-15 07:04:59:616,-1.55429,0.131142,-9.69467,-0.237013,-8.67556,96.8854
2023-02-15 07:04:59:626,-1.64977,-0.00229721,-9.41438,-0.179928,-8.70923,96.9072
2023-02-15 07:04:59:636,-1.74332,-0.130511,-9.16296,-0.1317,-8.74027,96.9254
2023-02-15 07:04:59:646,-1.7884,-0.141026,-9.0898,-0.109985,-8.76694,96.9375
2023-02-15 07:04:59:656,-1.82481,-0.0425847,-9.23364,-0.120649,-8.79351,96.9419
2023-02-15 07:04:59:666,-1.86589,0.116379,-9.42458,-0.163888,-8.81705,96.9295
2023-02-15 07:04:59:676,-1.90469,0.261891,-9.55643,-0.222862,-8.83733,96.9074
2023-02-15 07:04:59:686,-1.8417,0.341026,-9.6315,-0.288414,-8.8472,96.8683
2023-02-15 07:04:59:696,-1.69797,0.374952,-9.7002,-0.35134,-8.84769,96.8081
2023-02-15 07:04:59:706,-1.53241,0.41788,-9.73485,-0.412522,-8.83768,96.7354
2023-02-15 07:04:59:716,-1.38613,0.452529,-9.76252,-0.471892,-8.81946,96.6592
2023-02-15 07:04:59:726,-1.27589,0.431176,-9.76258,-0.522124,-8.79787,96.5828
2023-02-15 07:04:59:736,-1.25225,0.39842,-9.76941,-0.563554,-8.77911,96.5101
2023-02-15 07:04:59:746,-1.28536,0.392296,-9.77097,-0.596474,-8.76367,96.4483
2023-02-15 07:04:59:756,-1.3013,0.364456,-9.74251,-0.622817,-8.74538,96.3942
2023-02-15 07:04:59:766,-1.24668,0.304828,-9.64969,-0.641026,-8.71963,96.351
2023-02-15 07:04:59:776,-1.18007,0.230557,-9.53403,-0.657813,-8.68936,96.3173
2023-02-15 07:04:59:786,-1.18246,0.182684,-9.47274,-0.683013,-8.65918,96.2966
2023-02-15 07:04:59:796,-1.19074,0.17848,-9.4874,-0.727768,-8.63095,96.287
2023-02-15 07:04:59:806,-1.1907,0.199224,-9.55163,-0.790486,-8.60593,96.2856
2023-02-15 07:04:59:816,-0.898026,0.0612227,-9.59318,-0.864301,-8.58943,96.2988
2023-02-15 07:04:59:826,-1.15548,0.110715,-9.40936,-0.976014,-8.65639,96.3158
2023-02-15 07:04:59:836,-1.63585,0.751908,-10.2418,-1.12105,-8.69234,96.3517
2023-02-15 07:04:59:846,-1.44071,0.74593,-10.3212,-1.21224,-8.71136,96.3918
2023-02-15 07:04:59:856,-1.45942,0.572021,-9.97076,-1.26717,-8.74167,96.415
2023-02-15 07:04:59:866,-1.63515,0.603976,-9.9652,-1.29367,-8.7573,96.4515
2023-02-15 07:04:59:876,-1.79615,0.560525,-9.95591,-1.29376,-8.76677,96.4888
2023-02-15 07:04:59:886,-1.67912,0.365429,-9.79181,-1.26561,-8.78046,96.5103
2023-02-15 07:04:59:896,-1.66505,0.231727,-9.65462,-1.22919,-8.80502,96.523
2023-02-15 07:04:59:906,-1.76654,0.184287,-9.61558,-1.197,-8.8386,96.5281
2023-02-15 07:04:59:916,-1.77005,0.161719,-9.63126,-1.1705,-8.88179,96.5188
2023-02-15 07:04:59:926,-1.68329,0.130583,-9.62909,-1.14527,-8.92502,96.4937
2023-02-15 07:04:59:936,-1.633,0.112878,-9.65079,-1.12663,-8.96493,96.4587
2023-02-15 07:04:59:946,-1.5727,0.107845,-9.73522,-1.10887,-9.0009,96.418
2023-02-15 07:04:59:956,-1.55164,0.12283,-9.77878,-1.08827,-9.03244,96.3771
2023-02-15 07:04:59:966,-1.6168,0.141097,-9.79774,-1.06039,-9.06764,96.3385
2023-02-15 07:04:59:976,-1.68051,0.157602,-9.77371,-1.02619,-9.09562,96.3027
2023-02-15 07:04:59:986,-1.74625,0.136443,-9.68648,-0.979681,-9.11958,96.2665
2023-02-15 07:04:59:996,-1.78579,0.0878435,-9.6041,-0.924983,-9.12625,96.2298
2023-02-15 07:05:00:6,-1.72079,0.0178955,-9.53966,-0.859205,-9.11446,96.1882
2023-02-15 07:05:00:16,-1.606,-0.0585606,-9.46017,-0.797117,-9.08996,96.1456
2023-02-15 07:05:00:26,-1.51136,-0.12564,-9.42121,-0.7397,-9.06709,96.1
2023-02-15 07:05:00:36,-1.42263,-0.124957,-9.46248,-0.698435,-9.04176,96.0552
2023-02-15 07:05:00:46,-1.34342,-0.0945629,-9.53778,-0.668384,-9.02403,96.0112
2023-02-15 07:05:00:56,-1.33671,-0.0522594,-9.56266,-0.650152,-9.0153,95.977
2023-02-15 07:05:00:66,-1.4062,-0.00283855,-9.55398,-0.640793,-9.00619,95.9571
2023-02-15 07:05:00:76,-1.45802,0.032292,-9.55914,-0.637407,-9.00197,95.9481
2023-02-15 07:05:00:86,-1.50002,0.0566059,-9.58463,-0.633662,-8.99071,95.9459
2023-02-15 07:05:00:96,-1.56109,0.0946096,-9.62282,-0.632976,-8.97731,95.9527
2023-02-15 07:05:00:106,-1.59827,0.0966512,-9.65669,-0.627904,-8.9591,95.9616
2023-02-15 07:05:00:116,-1.60414,0.0869835,-9.63093,-0.622358,-8.93921,95.9708
2023-02-15 07:05:00:126,-1.58431,0.0745506,-9.59188,-0.611903,-8.91802,95.9769
2023-02-15 07:05:00:136,-1.54298,0.0620627,-9.58178,-0.604816,-8.89728,95.9768
2023-02-15 07:05:00:146,-1.49043,0.0657277,-9.60831,-0.600256,-8.88264,95.9706
2023-02-15 07:05:00:156,-1.47114,0.0950608,-9.6619,-0.598607,-8.87123,95.9572
2023-02-15 07:05:00:166,-1.49167,0.115257,-9.72412,-0.601925,-8.86682,95.9399
2023-02-15 07:05:00:176,-1.50733,0.132268,-9.78312,-0.601763,-8.8669,95.9187
2023-02-15 07:05:00:186,-1.52917,0.138976,-9.81693,-0.597167,-8.86729,95.8934
2023-02-15 07:05:00:196,-1.51822,0.126574,-9.82501,-0.58281,-8.86829,95.8615
2023-02-15 07:05:00:206,-1.4705,0.114925,-9.80939,-0.560681,-8.87292,95.8217
2023-02-15 07:05:00:216,-1.43873,0.0812403,-9.76143,-0.532937,-8.87912,95.7818
2023-02-15 07:05:00:226,-1.39274,0.0360278,-9.68093,-0.498418,-8.8906,95.738
2023-02-15 07:05:00:236,-1.33287,-0.0110861,-9.62897,-0.463581,-8.90751,95.6918
2023-02-15 07:05:00:246,-1.31173,-0.0321318,-9.58363,-0.431863,-8.92521,95.6562
2023-02-15 07:05:00:256,-1.38057,-0.00778704,-9.58361,-0.407456,-8.94524,95.6266
2023-02-15 07:05:00:266,-1.4516,0.0378861,-9.64445,-0.388581,-8.96135,95.6056
2023-02-15 07:05:00:276,-1.47977,0.043884,-9.67567,-0.367834,-8.97214,95.5974
2023-02-15 07:05:00:286,-1.4965,0.0448421,-9.68565,-0.342434,-8.97906,95.5974
2023-02-15 07:05:00:296,-1.54093,0.0578516,-9.69069,-0.31956,-8.98251,95.5988
2023-02-15 07:05:00:306,-1.59308,0.100065,-9.71357,-0.301116,-8.98487,95.607
2023-02-15 07:05:00:316,-1.62867,0.110738,-9.69937,-0.279906,-8.99004,95.6168
2023-02-15 07:05:00:326,-1.62967,0.091841,-9.67549,-0.255756,-8.99427,95.6211
2023-02-15 07:05:00:336,-1.63064,0.0792618,-9.64384,-0.225759,-9.00137,95.6211
2023-02-15 07:05:00:346,-1.62843,0.0866129,-9.63189,-0.200087,-9.00876,95.6146
2023-02-15 07:05:00:356,-1.58721,0.0538399,-9.62258,-0.16704,-9.01017,95.5995
2023-02-15 07:05:00:366,-1.52456,-0.00146985,-9.60396,-0.130017,-9.01394,95.5808
2023-02-15 07:05:00:376,-1.50851,-0.0370837,-9.64883,-0.0969694,-9.01659,95.5593
2023-02-15 07:05:00:386,-1.46157,-0.0354119,-9.67401,-0.0672314,-9.02228,95.5379
2023-02-15 07:05:00:396,-1.42955,-0.0604661,-9.65012,-0.0356332,-9.03548,95.5122
2023-02-15 07:05:00:406,-1.4112,-0.0924593,-9.62069,-0.00694955,-9.05062,95.4827
2023-02-15 07:05:00:416,-1.42092,-0.0845514,-9.63443,0.0170052,-9.07066,95.4592
2023-02-15 07:05:00:426,-1.47893,-0.0508967,-9.65388,0.0394226,-9.09289,95.4396
2023-02-15 07:05:00:436,-1.53757,-0.030222,-9.6825,0.0637291,-9.11012,95.4206
2023-02-15 07:05:00:446,-1.50533,-0.0465939,-9.68632,0.089444,-9.11762,95.4037
2023-02-15 07:05:00:456,-1.4635,-0.0957526,-9.60804,0.117675,-9.12875,95.3875
2023-02-15 07:05:00:466,-1.51958,-0.0585996,-9.6005,0.141242,-9.14326,95.3726
2023-02-15 07:05:00:476,-1.54095,-0.0410055,-9.62568,0.159014,-9.15782,95.3584
2023-02-15 07:05:00:486,-1.52782,-0.0701014,-9.60458,0.180844,-9.17467,95.3426
2023-02-15 07:05:00:496,-1.52413,-0.094118,-9.55912,0.20205,-9.19322,95.3216
2023-02-15 07:05:00:506,-1.53017,-0.100675,-9.57745,0.221168,-9.20505,95.3056
2023-02-15 07:05:00:516,-1.52375,-0.103933,-9.60485,0.239477,-9.21539,95.2923
2023-02-15 07:05:00:526,-1.52529,-0.104191,-9.61742,0.255884,-9.22479,95.2842
2023-02-15 07:05:00:536,-1.54541,-0.117045,-9.64076,0.271451,-9.2326,95.2777
2023-02-15 07:05:00:546,-1.54802,-0.132403,-9.63603,0.283775,-9.23872,95.2761
2023-02-15 07:05:00:556,-1.60408,-0.101692,-9.63178,0.292528,-9.24954,95.2746
2023-02-15 07:05:00:566,-1.63371,-0.101415,-9.63618,0.303561,-9.25383,95.2737
2023-02-15 07:05:00:576,-1.6258,-0.129283,-9.59084,0.319834,-9.25872,95.269
2023-02-15 07:05:00:586,-1.62631,-0.125669,-9.57965,0.32964,-9.26614,95.2615
2023-02-15 07:05:00:596,-1.59907,-0.113504,-9.57351,0.33649,-9.27062,95.2537
2023-02-15 07:05:00:606,-1.60283,-0.122121,-9.56814,0.341099,-9.27623,95.24
2023-02-15 07:05:00:616,-1.60571,-0.109191,-9.57557,0.340392,-9.28496,95.2281
2023-02-15 07:05:00:626,-1.60619,-0.0734912,-9.63441,0.335313,-9.29172,95.2169
2023-02-15 07:05:00:636,-1.59268,-0.0180787,-9.69506,0.327894,-9.29448,95.2022
2023-02-15 07:05:00:646,-1.54733,-0.00865093,-9.72252,0.322633,-9.2981,95.1851
2023-02-15 07:05:00:656,-1.52553,-0.0271119,-9.72679,0.325013,-9.3019,95.1663
2023-02-15 07:05:00:666,-1.583,-0.039758,-9.69992,0.330218,-9.30545,95.1482
2023-02-15 07:05:00:676,-1.7453,-0.0231868,-9.67323,0.337736,-9.31509,95.1262
2023-02-15 07:05:00:686,-1.89549,0.0114842,-9.67021,0.3462,-9.3254,95.1006
2023-02-15 07:05:00:696,-1.92264,0.0291789,-9.64024,0.360419,-9.33303,95.0641
2023-02-15 07:05:00:706,-1.84315,0.0112816,-9.58538,0.377171,-9.33484,95.0077
2023-02-15 07:05:00:716,-1.73204,-0.0238079,-9.58863,0.397368,-9.33504,94.9371
2023-02-15 07:05:00:726,-1.65914,-0.0324656,-9.60315,0.415148,-9.33689,94.8512
2023-02-15 07:05:00:736,-1.59983,-0.0380529,-9.62379,0.433351,-9.33886,94.7578
2023-02-15 07:05:00:746,-1.52194,-0.0450979,-9.6584,0.449363,-9.34613,94.6605
2023-02-15 07:05:00:756,-1.45792,-0.0779852,-9.65363,0.46871,-9.35431,94.5602
2023-02-15 07:05:00:766,-1.40296,-0.100342,-9.63454,0.48949,-9.36059,94.4602
2023-02-15 07:05:00:776,-1.37887,-0.120213,-9.64516,0.504458,-9.36832,94.3675
2023-02-15 07:05:00:786,-1.39461,-0.110688,-9.65648,0.521759,-9.37727,94.2834
2023-02-15 07:05:00:796,-1.41586,-0.1028,-9.65095,0.535953,-9.38303,94.2111
2023-02-15 07:05:00:806,-1.41088,-0.120378,-9.63371,0.552531,-9.38874,94.1403
2023-02-15 07:05:00:816,-1.41672,-0.125346,-9.63313,0.568396,-9.38676,94.0829
2023-02-15 07:05:00:826,-1.40529,-0.13574,-9.61964,0.585188,-9.38763,94.0347
2023-02-15 07:05:00:836,-1.42135,-0.147171,-9.59353,0.599509,-9.38753,93.9967
2023-02-15 07:05:00:846,-1.4104,-0.152227,-9.58461,0.609773,-9.38773,93.9711
2023-02-15 07:05:00:856,-1.39149,-0.152291,-9.58359,0.611904,-9.38632,93.9545
2023-02-15 07:05:00:866,-1.40148,-0.158592,-9.57907,0.612057,-9.38018,93.9512
2023-02-15 07:05:00:876,-1.41361,-0.148022,-9.5794,0.605539,-9.38004,93.9595
2023-02-15 07:05:00:886,-1.42367,-0.14336,-9.58768,0.59501,-9.37629,93.9733
2023-02-15 07:05:00:896,-1.44589,-0.154931,-9.59023,0.579854,-9.37266,94.0002
2023-02-15 07:05:00:906,-1.47945,-0.155675,-9.54979,0.565508,-9.36678,94.0341
2023-02-15 07:05:00:916,-1.51063,-0.152761,-9.56465,0.544254,-9.35962,94.0784
2023-02-15 07:05:00:926,-1.54057,-0.117553,-9.59268,0.515745,-9.35044,94.1246
2023-02-15 07:05:00:936,-1.57947,-0.0797082,-9.58954,0.488028,-9.34287,94.1751
2023-02-15 07:05:00:946,-1.59719,-0.0638553,-9.60201,0.455324,-9.33521,94.224
2023-02-15 07:05:00:956,-1.57515,-0.0517474,-9.61326,0.42441,-9.33011,94.2719
2023-02-15 07:05:00:966,-1.57307,-0.0307904,-9.62954,0.385243,-9.32813,94.3217
2023-02-15 07:05:00:976,-1.59188,-0.028701,-9.6589,0.347788,-9.32945,94.3679
2023-02-15 07:05:00:986,-1.60389,-0.0139021,-9.67312,0.312033,-9.33523,94.4097
2023-02-15 07:05:00:996,-1.61703,0.00106958,-9.67469,0.277435,-9.34116,94.4481
2023-02-15 07:05:01:6,-1.62738,0.0207646,-9.69854,0.244901,-9.35064,94.4818
2023-02-15 07:05:01:16,-1.66032,0.0773024,-9.7768,0.217316,-9.35018,94.5093
2023-02-15 07:05:01:26,-1.62084,0.0635448,-9.80132,0.195336,-9.34244,94.5316
2023-02-15 07:05:01:36,-1.61615,0.0157674,-9.72876,0.185524,-9.34554,94.5464
2023-02-15 07:05:01:46,-1.67502,0.0492867,-9.76565,0.177922,-9.34758,94.5561
2023-02-15 07:05:01:56,-1.63644,0.0297481,-9.77537,0.175406,-9.34769,94.5567
2023-02-15 07:05:01:66,-1.58463,-0.0210914,-9.71755,0.184852,-9.34987,94.55
2023-02-15 07:05:01:76,-1.55379,-0.0573996,-9.65585,0.195324,-9.3579,94.5383
2023-02-15 07:05:01:86,-1.52386,-0.0546187,-9.64059,0.200042,-9.37049,94.5196
2023-02-15 07:05:01:96,-1.52848,-0.041594,-9.66658,0.203802,-9.38793,94.5031
2023-02-15 07:05:01:106,-1.55076,-0.0362325,-9.6766,0.207229,-9.40685,94.4917
2023-02-15 07:05:01:116,-1.53294,-0.0429443,-9.65387,0.214849,-9.41969,94.4818
2023-02-15 07:05:01:126,-1.50263,-0.072187,-9.59146,0.22775,-9.43107,94.4756
2023-02-15 07:05:01:136,-1.52951,-0.0897986,-9.55546,0.240024,-9.43926,94.4792
2023-02-15 07:05:01:146,-1.52643,-0.128656,-9.54174,0.250258,-9.44436,94.4875
2023-02-15 07:05:01:156,-1.49043,-0.185282,-9.5265,0.25991,-9.44338,94.4971
2023-02-15 07:05:01:166,-1.46332,-0.224547,-9.50491,0.259886,-9.44454,94.5139
2023-02-15 07:05:01:176,-1.4725,-0.229796,-9.47858,0.251011,-9.44234,94.5385
2023-02-15 07:05:01:186,-1.51296,-0.203121,-9.48916,0.235541,-9.43966,94.5659
2023-02-15 07:05:01:196,-1.54308,-0.144146,-9.55375,0.210267,-9.43578,94.6004
2023-02-15 07:05:01:206,-1.60356,-0.064256,-9.60668,0.180759,-9.43058,94.6376
2023-02-15 07:05:01:216,-1.65911,-0.0359511,-9.62377,0.152599,-9.42251,94.6802
2023-02-15 07:05:01:226,-1.62103,-0.0373429,-9.61946,0.127048,-9.41056,94.7179
2023-02-15 07:05:01:236,-1.59449,-0.0452352,-9.6356,0.102295,-9.39253,94.7507
2023-02-15 07:05:01:246,-1.56255,-0.0426549,-9.66695,0.0742833,-9.37637,94.7845
2023-02-15 07:05:01:256,-1.52517,-0.0531444,-9.6776,0.052595,-9.36134,94.8138
2023-02-15 07:05:01:266,-1.49888,-0.0698353,-9.66041,0.028449,-9.35234,94.8437
2023-02-15 07:05:01:276,-1.51987,-0.0191869,-9.6719,0.000566431,-9.3479,94.872
2023-02-15 07:05:01:286,-1.54447,0.0459837,-9.70289,-0.0304114,-9.34418,94.9063
2023-02-15 07:05:01:296,-1.55058,0.0587246,-9.69266,-0.0578662,-9.34166,94.9409
2023-02-15 07:05:01:306,-1.57395,0.107957,-9.72188,-0.0895149,-9.3398,94.9774
2023-02-15 07:05:01:316,-1.61874,0.159887,-9.7418,-0.116395,-9.34227,95.0142
2023-02-15 07:05:01:326,-1.62592,0.166564,-9.73933,-0.138115,-9.3408,95.0528
2023-02-15 07:05:01:336,-1.61364,0.14285,-9.69648,-0.1529,-9.33716,95.0908
2023-02-15 07:05:01:346,-1.63992,0.131397,-9.68292,-0.16196,-9.33603,95.1244
2023-02-15 07:05:01:356,-1.66762,0.119325,-9.6971,-0.168653,-9.33138,95.1548
2023-02-15 07:05:01:366,-1.64931,0.106239,-9.6689,-0.170418,-9.32338,95.1809
2023-02-15 07:05:01:376,-1.63574,0.083656,-9.6354,-0.169708,-9.3171,95.2032
2023-02-15 07:05:01:386,-1.61903,0.05493,-9.6183,-0.167934,-9.30855,95.222
2023-02-15 07:05:01:396,-1.60416,0.0417065,-9.59794,-0.164452,-9.30261,95.2424
2023-02-15 07:05:01:406,-1.61796,0.024627,-9.59769,-0.16644,-9.29534,95.2621
2023-02-15 07:05:01:416,-1.62062,0.0284907,-9.60572,-0.170027,-9.29148,95.2767
2023-02-15 07:05:01:426,-1.6381,0.0708679,-9.65062,-0.177948,-9.28194,95.292
2023-02-15 07:05:01:436,-1.6693,0.0972934,-9.70432,-0.188213,-9.27154,95.3017
2023-02-15 07:05:01:446,-1.66815,0.0948891,-9.71519,-0.189804,-9.26012,95.3086
2023-02-15 07:05:01:456,-1.61817,0.0831828,-9.67686,-0.190214,-9.25058,95.3096
2023-02-15 07:05:01:466,-1.59474,0.0543516,-9.6428,-0.188163,-9.24279,95.3053
2023-02-15 07:05:01:476,-1.60423,0.0491075,-9.64672,-0.183703,-9.2419,95.293
2023-02-15 07:05:01:486,-1.59993,0.0310026,-9.63434,-0.180408,-9.23848,95.2794
2023-02-15 07:05:01:496,-1.56481,0.00864029,-9.62575,-0.175354,-9.23642,95.2622
2023-02-15 07:05:01:506,-1.49402,0.00416914,-9.62728,-0.174659,-9.23072,95.2395
2023-02-15 07:05:01:516,-1.43603,-0.0174115,-9.61187,-0.172552,-9.22521,95.2181
2023-02-15 07:05:01:526,-1.50705,0.0121518,-9.63117,-0.174392,-9.22767,95.2023
2023-02-15 07:05:01:536,-1.56588,0.0455435,-9.67421,-0.179628,-9.22723,95.19
2023-02-15 07:05:01:546,-1.57012,0.0301526,-9.6736,-0.183085,-9.22425,95.181
2023-02-15 07:05:01:556,-1.58115,0.0267713,-9.64377,-0.180553,-9.2242,95.171
2023-02-15 07:05:01:566,-1.61139,0.0432049,-9.66302,-0.182859,-9.22794,95.1612
2023-02-15 07:05:01:576,-1.65421,0.110887,-9.7198,-0.186968,-9.22757,95.1494
2023-02-15 07:05:01:586,-1.62555,0.0889147,-9.71269,-0.182811,-9.22484,95.1328
2023-02-15 07:05:01:596,-1.58458,0.014943,-9.61811,-0.169547,-9.22094,95.1142
2023-02-15 07:05:01:606,-1.54807,-0.0364911,-9.57432,-0.159479,-9.22596,95.0921
2023-02-15 07:05:01:616,-1.51417,-0.0181306,-9.58622,-0.162254,-9.23222,95.0671
2023-02-15 07:05:01:626,-1.49744,-0.00724287,-9.59943,-0.163295,-9.23966,95.0391
2023-02-15 07:05:01:636,-1.49425,-0.007265,-9.60247,-0.173236,-9.25517,95.0155
2023-02-15 07:05:01:646,-1.50574,0.0222377,-9.66393,-0.180997,-9.26865,94.9949
2023-02-15 07:05:01:656,-1.52334,0.0227132,-9.69491,-0.187273,-9.2773,94.9764
2023-02-15 07:05:01:666,-1.52918,0.0206506,-9.6916,-0.187308,-9.28382,94.9604
2023-02-15 07:05:01:676,-1.53037,0.00203784,-9.68322,-0.186207,-9.28912,94.9486
2023-02-15 07:05:01:686,-1.52102,-0.00148516,-9.67283,-0.183124,-9.29018,94.9393
2023-02-15 07:05:01:696,-1.53548,0.00537915,-9.67547,-0.178298,-9.29501,94.9355
2023-02-15 07:05:01:706,-1.54205,-0.00354285,-9.6674,-0.170947,-9.29543,94.9295
2023-02-15 07:05:01:716,-1.53135,-0.0119935,-9.6098,-0.163772,-9.29895,94.9258
2023-02-15 07:05:01:726,-1.5142,-0.0318702,-9.56857,-0.158507,-9.29901,94.9282
2023-02-15 07:05:01:736,-1.51458,-0.017008,-9.56498,-0.162619,-9.2992,94.9391
2023-02-15 07:05:01:746,-1.53936,-0.00306313,-9.56382,-0.171026,-9.29891,94.9554
2023-02-15 07:05:01:756,-1.53091,0.0125844,-9.57275,-0.181042,-9.2963,94.9744
2023-02-15 07:05:01:766,-1.52221,0.0135512,-9.60368,-0.198015,-9.28623,94.9992
2023-02-15 07:05:01:776,-1.5482,0.0259581,-9.61541,-0.211817,-9.27862,95.0254
2023-02-15 07:05:01:786,-1.56661,0.0408631,-9.64589,-0.228755,-9.27273,95.0553
2023-02-15 07:05:01:796,-1.57425,0.0744218,-9.66001,-0.24843,-9.26995,95.0868
2023-02-15 07:05:01:806,-1.58432,0.0899736,-9.64992,-0.266845,-9.26671,95.1153
2023-02-15 07:05:01:816,-1.62303,0.11437,-9.65403,-0.281844,-9.26532,95.1432
2023-02-15 07:05:01:826,-1.60164,0.111383,-9.6686,-0.296075,-9.25964,95.1649
2023-02-15 07:05:01:836,-1.56379,0.0751138,-9.59252,-0.306473,-9.25621,95.1867
2023-02-15 07:05:01:846,-1.59431,0.0732938,-9.55648,-0.32247,-9.25247,95.2107
2023-02-15 07:05:01:856,-1.60032,0.0551654,-9.55746,-0.342847,-9.25053,95.235
2023-02-15 07:05:01:866,-1.5649,0.0291462,-9.56493,-0.364502,-9.24926,95.2559
2023-02-15 07:05:01:876,-1.56218,0.0386497,-9.58018,-0.386664,-9.244,95.2754
2023-02-15 07:05:01:886,-1.5833,0.0536596,-9.6388,-0.41178,-9.23804,95.297
2023-02-15 07:05:01:896,-1.61511,0.112613,-9.72609,-0.444292,-9.22731,95.3209
2023-02-15 07:05:01:906,-1.61042,0.126915,-9.72239,-0.471043,-9.21535,95.3421
2023-02-15 07:05:01:916,-1.60182,0.0707175,-9.65029,-0.487971,-9.20509,95.3586
2023-02-15 07:05:01:926,-1.5835,0.0283007,-9.60084,-0.505725,-9.19608,95.3741
2023-02-15 07:05:01:936,-1.58838,-0.0102155,-9.55288,-0.524263,-9.18521,95.3915
2023-02-15 07:05:01:946,-1.55143,-0.0511274,-9.50672,-0.550825,-9.17753,95.4017
2023-02-15 07:05:01:956,-1.50012,-0.0480345,-9.50394,-0.58433,-9.17322,95.4131
2023-02-15 07:05:01:966,-1.49297,-0.0170912,-9.56666,-0.624061,-9.16775,95.4251
2023-02-15 07:05:01:976,-1.53927,0.0508638,-9.67113,-0.669503,-9.16453,95.4405
2023-02-15 07:05:01:986,-1.60899,0.133826,-9.74103,-0.719422,-9.16552,95.4604
2023-02-15 07:05:01:996,-1.59782,0.14674,-9.75192,-0.762784,-9.16229,95.4754
2023-02-15 07:05:02:6,-1.56435,0.150627,-9.74806,-0.797519,-9.16049,95.4909
2023-02-15 07:05:02:16,-1.52448,0.142825,-9.70243,-0.82381,-9.15778,95.5034
2023-02-15 07:05:02:26,-1.48413,0.103876,-9.64016,-0.848992,-9.15371,95.5135
2023-02-15 07:05:02:36,-1.44107,0.0526598,-9.53834,-0.875445,-9.14696,95.523
2023-02-15 07:05:02:46,-1.42211,0.00629522,-9.47038,-0.903661,-9.14149,95.5333
2023-02-15 07:05:02:56,-1.45072,0.0144471,-9.50307,-0.946566,-9.13768,95.5511
2023-02-15 07:05:02:66,-1.45369,0.0277427,-9.54571,-0.996797,-9.13273,95.5705
2023-02-15 07:05:02:76,-1.49282,0.0805551,-9.62851,-1.05173,-9.13211,95.5903
2023-02-15 07:05:02:86,-1.52635,0.199475,-9.77898,-1.11284,-9.12969,95.6142
2023-02-15 07:05:02:96,-1.55642,0.278491,-9.86388,-1.16865,-9.13644,95.636
2023-02-15 07:05:02:106,-1.59362,0.29951,-9.82869,-1.21512,-9.14337,95.6534
2023-02-15 07:05:02:116,-1.60017,0.264978,-9.73204,-1.24579,-9.15316,95.6682
2023-02-15 07:05:02:126,-1.57191,0.238024,-9.66337,-1.27762,-9.16179,95.6809
2023-02-15 07:05:02:136,-1.55061,0.209649,-9.62247,-1.30875,-9.16764,95.6915
2023-02-15 07:05:02:146,-1.53698,0.199867,-9.58223,-1.34404,-9.17923,95.7015
2023-02-15 07:05:02:156,-1.54569,0.240412,-9.58461,-1.3868,-9.18998,95.7171
2023-02-15 07:05:02:166,-1.54493,0.268195,-9.6208,-1.43287,-9.19875,95.7296
2023-02-15 07:05:02:176,-1.52742,0.257842,-9.62288,-1.4733,-9.20144,95.7404
2023-02-15 07:05:02:186,-1.53515,0.233496,-9.57812,-1.5143,-9.20112,95.757
2023-02-15 07:05:02:196,-1.52231,0.210811,-9.54681,-1.55775,-9.19625,95.777
2023-02-15 07:05:02:206,-1.48843,0.163917,-9.50683,-1.60149,-9.19499,95.7982
2023-02-15 07:05:02:216,-1.45319,0.111606,-9.47252,-1.65268,-9.19049,95.8189
2023-02-15 07:05:02:226,-1.43372,0.0784984,-9.39051,-1.70681,-9.18452,95.8447
2023-02-15 07:05:02:236,-1.38683,0.0371716,-9.30509,-1.77498,-9.17902,95.8722
2023-02-15 07:05:02:246,-1.3726,0.0428774,-9.34552,-1.8662,-9.18079,95.9055
2023-02-15 07:05:02:256,-1.43587,0.178795,-9.56606,-1.97801,-9.18627,95.9481
2023-02-15 07:05:02:266,-1.53166,0.368127,-9.84364,-2.09734,-9.18931,95.9974
2023-02-15 07:05:02:276,-1.60726,0.50992,-10.0291,-2.20715,-9.19014,96.0529
2023-02-15 07:05:02:286,-1.67615,0.598485,-10.0592,-2.3015,-9.19086,96.1045
2023-02-15 07:05:02:296,-1.73389,0.626078,-9.99159,-2.36905,-9.18726,96.1541
2023-02-15 07:05:02:306,-1.74013,0.641011,-9.8852,-2.42192,-9.18362,96.1981
2023-02-15 07:05:02:316,-1.76352,0.63007,-9.81665,-2.45705,-9.17619,96.2311
2023-02-15 07:05:02:326,-1.77799,0.643549,-9.80407,-2.4792,-9.16738,96.2555
2023-02-15 07:05:02:336,-1.77773,0.667678,-9.82432,-2.49664,-9.16333,96.2673
2023-02-15 07:05:02:346,-1.71433,0.693536,-9.84337,-2.50838,-9.15742,96.2695
2023-02-15 07:05:02:356,-1.64493,0.668629,-9.84381,-2.50817,-9.15068,96.2615
2023-02-15 07:05:02:366,-1.62605,0.652168,-9.8281,-2.49799,-9.14782,96.2453
2023-02-15 07:05:02:376,-1.6361,0.659434,-9.81002,-2.48111,-9.15093,96.223
2023-02-15 07:05:02:386,-1.64561,0.627751,-9.80691,-2.45088,-9.15936,96.1937
2023-02-15 07:05:02:396,-1.64104,0.594286,-9.77078,-2.41089,-9.16231,96.1614
2023-02-15 07:05:02:406,-1.60457,0.549971,-9.7388,-2.36551,-9.16409,96.126
2023-02-15 07:05:02:416,-1.54445,0.516576,-9.71743,-2.31548,-9.16385,96.085
2023-02-15 07:05:02:426,-1.4892,0.482887,-9.70225,-2.2617,-9.16253,96.0407
2023-02-15 07:05:02:436,-1.46436,0.450467,-9.67679,-2.20647,-9.16262,95.9996
2023-02-15 07:05:02:446,-1.4698,0.413223,-9.66104,-2.14864,-9.16242,95.9564
2023-02-15 07:05:02:456,-1.45574,0.385071,-9.63208,-2.08924,-9.16415,95.9207
2023-02-15 07:05:02:466,-1.45909,0.370907,-9.61809,-2.02988,-9.1642,95.8835
2023-02-15 07:05:02:476,-1.46469,0.350608,-9.61987,-1.97273,-9.16183,95.8528
2023-02-15 07:05:02:486,-1.46133,0.318565,-9.61715,-1.9144,-9.16168,95.8256
2023-02-15 07:05:02:496,-1.47136,0.302213,-9.62695,-1.85583,-9.16442,95.7976
2023-02-15 07:05:02:506,-1.49263,0.288444,-9.63364,-1.79907,-9.16552,95.7745
2023-02-15 07:05:02:516,-1.50925,0.279257,-9.64827,-1.74195,-9.17033,95.7506
2023-02-15 07:05:02:526,-1.51515,0.261718,-9.65624,-1.68492,-9.17596,95.7308
2023-02-15 07:05:02:536,-1.52102,0.243652,-9.64984,-1.62715,-9.18531,95.7084
2023-02-15 07:05:02:546,-1.52399,0.216871,-9.62849,-1.57126,-9.18905,95.6904
2023-02-15 07:05:02:556,-1.52488,0.199218,-9.59942,-1.51835,-9.19211,95.6778
2023-02-15 07:05:02:566,-1.53764,0.177226,-9.58148,-1.46835,-9.19715,95.6681
2023-02-15 07:05:02:576,-1.54228,0.166119,-9.57667,-1.4197,-9.20048,95.6577
2023-02-15 07:05:02:586,-1.55514,0.168629,-9.57331,-1.37133,-9.20085,95.6469
2023-02-15 07:05:02:596,-1.56531,0.159311,-9.57486,-1.33302,-9.19964,95.6393
2023-02-15 07:05:02:606,-1.57255,0.156232,-9.58864,-1.29384,-9.1986,95.6335
2023-02-15 07:05:02:616,-1.55676,0.148355,-9.59258,-1.25433,-9.19476,95.6276
2023-02-15 07:05:02:626,-1.54222,0.126979,-9.56828,-1.21776,-9.1903,95.6238
2023-02-15 07:05:02:636,-1.52873,0.113417,-9.56113,-1.18512,-9.18766,95.6209
2023-02-15 07:05:02:646,-1.50402,0.131417,-9.5881,-1.15557,-9.18301,95.6192
2023-02-15 07:05:02:656,-1.49624,0.128005,-9.59368,-1.13063,-9.18003,95.6213
2023-02-15 07:05:02:666,-1.52283,0.112954,-9.5801,-1.10956,-9.17687,95.6282
2023-02-15 07:05:02:676,-1.55151,0.123608,-9.58934,-1.09225,-9.17617,95.6384
2023-02-15 07:05:02:686,-1.55463,0.137489,-9.61884,-1.07757,-9.1698,95.6496
2023-02-15 07:05:02:696,-1.58005,0.157648,-9.61292,-1.06408,-9.16251,95.6607
2023-02-15 07:05:02:706,-1.61616,0.165543,-9.59464,-1.05207,-9.15429,95.6713
2023-02-15 07:05:02:716,-1.60807,0.164301,-9.60016,-1.04141,-9.14468,95.6829
2023-02-15 07:05:02:726,-1.59032,0.165772,-9.62413,-1.02872,-9.13701,95.6897
2023-02-15 07:05:02:736,-1.5779,0.171455,-9.63714,-1.02252,-9.12778,95.6936
2023-02-15 07:05:02:746,-1.57474,0.163475,-9.66319,-1.01279,-9.12108,95.6954
2023-02-15 07:05:02:756,-1.56358,0.177419,-9.67449,-1.0032,-9.11261,95.6995
2023-02-15 07:05:02:766,-1.53763,0.170627,-9.67343,-0.995079,-9.10321,95.6991
2023-02-15 07:05:02:776,-1.52674,0.161947,-9.65581,-0.985071,-9.10013,95.6959
2023-02-15 07:05:02:786,-1.51218,0.161005,-9.6545,-0.970363,-9.09569,95.6904
2023-02-15 07:05:02:796,-1.52957,0.168563,-9.63967,-0.956078,-9.08963,95.6859
2023-02-15 07:05:02:806,-1.54897,0.169432,-9.63062,-0.939624,-9.09004,95.6796
2023-02-15 07:05:02:816,-1.54136,0.166251,-9.63791,-0.924293,-9.08613,95.672
2023-02-15 07:05:02:826,-1.53262,0.1738,-9.6571,-0.915042,-9.08313,95.6651
2023-02-15 07:05:02:836,-1.53865,0.177903,-9.6862,-0.903193,-9.08284,95.658
2023-02-15 07:05:02:846,-1.55085,0.17171,-9.69781,-0.888813,-9.0825,95.6488
2023-02-15 07:05:02:856,-1.54062,0.163028,-9.67069,-0.871593,-9.08336,95.6376
2023-02-15 07:05:02:866,-1.5401,0.158629,-9.66986,-0.851214,-9.08435,95.6205
2023-02-15 07:05:02:876,-1.54552,0.148435,-9.6708,-0.834172,-9.0865,95.6023
2023-02-15 07:05:02:886,-1.53381,0.13655,-9.65325,-0.81156,-9.08738,95.5839
2023-02-15 07:05:02:896,-1.51977,0.109648,-9.65952,-0.788189,-9.08833,95.565
2023-02-15 07:05:02:906,-1.51911,0.0940247,-9.64857,-0.763578,-9.08894,95.5445
2023-02-15 07:05:02:916,-1.51778,0.0809208,-9.66353,-0.740746,-9.08864,95.5281
2023-02-15 07:05:02:926,-1.50498,0.0873002,-9.66848,-0.716453,-9.08649,95.5105
2023-02-15 07:05:02:936,-1.50988,0.0702213,-9.64806,-0.689193,-9.08537,95.4913
2023-02-15 07:05:02:946,-1.49924,0.0457242,-9.63409,-0.659621,-9.08267,95.4755
2023-02-15 07:05:02:956,-1.49625,0.0295133,-9.66699,-0.636731,-9.08089,95.458
2023-02-15 07:05:02:966,-1.46913,0.0399275,-9.71099,-0.612902,-9.07968,95.4332
2023-02-15 07:05:02:976,-1.41109,0.0301595,-9.72306,-0.583387,-9.08029,95.4149
2023-02-15 07:05:02:986,-1.39432,0.0114103,-9.7018,-0.553595,-9.08477,95.3957
2023-02-15 07:05:02:996,-1.42361,-0.00295122,-9.66028,-0.526004,-9.09323,95.3818
2023-02-15 07:05:03:6,-1.45058,0.00179433,-9.60524,-0.504028,-9.10513,95.3737
2023-02-15 07:05:03:16,-1.47792,0.0137479,-9.57174,-0.489934,-9.11626,95.3699
2023-02-15 07:05:03:26,-1.51602,0.0372966,-9.57195,-0.481264,-9.12398,95.3733
2023-02-15 07:05:03:36,-1.55725,0.0753926,-9.56782,-0.475559,-9.12771,95.3833
2023-02-15 07:05:03:46,-1.56929,0.088961,-9.58504,-0.472044,-9.12638,95.3957
2023-02-15 07:05:03:56,-1.5546,0.082227,-9.62745,-0.46941,-9.12688,95.4096
2023-02-15 07:05:03:66,-1.56505,0.0996818,-9.63424,-0.462881,-9.12537,95.4219
2023-02-15 07:05:03:76,-1.5956,0.101952,-9.61954,-0.454532,-9.12797,95.4373
2023-02-15 07:05:03:86,-1.59124,0.0892904,-9.62918,-0.449737,-9.1305,95.4522
2023-02-15 07:05:03:96,-1.58764,0.0776634,-9.62948,-0.446302,-9.13212,95.4653
2023-02-15 07:05:03:106,-1.58363,0.0797499,-9.62962,-0.441494,-9.13238,95.4746
2023-02-15 07:05:03:116,-1.59358,0.0887124,-9.64181,-0.435376,-9.13512,95.4826
2023-02-15 07:05:03:126,-1.60169,0.0913763,-9.65886,-0.428788,-9.13531,95.4878
2023-02-15 07:05:03:136,-1.61222,0.0786363,-9.66802,-0.417607,-9.13313,95.4918
2023-02-15 07:05:03:146,-1.60638,0.0670793,-9.64912,-0.405481,-9.13016,95.4913
2023-02-15 07:05:03:156,-1.61673,0.0480619,-9.63,-0.397107,-9.12415,95.4885
2023-02-15 07:05:03:166,-1.59934,0.024456,-9.62568,-0.388897,-9.12628,95.479
2023-02-15 07:05:03:176,-1.59168,0.0187531,-9.60674,-0.384566,-9.12577,95.4665
2023-02-15 07:05:03:186,-1.57352,0.0109376,-9.56096,-0.382848,-9.12821,95.4469
2023-02-15 07:05:03:196,-1.55172,0.00685138,-9.56213,-0.384922,-9.1334,95.4236
2023-02-15 07:05:03:206,-1.52443,0.0433181,-9.6061,-0.396339,-9.13656,95.395
2023-02-15 07:05:03:216,-1.47011,0.0701415,-9.66549,-0.408719,-9.13991,95.3652
2023-02-15 07:05:03:226,-1.41943,0.0822586,-9.6978,-0.42209,-9.14164,95.3356
2023-02-15 07:05:03:236,-1.41653,0.0833234,-9.68543,-0.42927,-9.14624,95.3077
2023-02-15 07:05:03:246,-1.431,0.0834908,-9.67269,-0.438769,-9.15212,95.2898
2023-02-15 07:05:03:256,-1.46817,0.0777459,-9.6463,-0.449126,-9.15817,95.2822
2023-02-15 07:05:03:266,-1.5349,0.07735,-9.61112,-0.456901,-9.16324,95.2753
2023-02-15 07:05:03:276,-1.58975,0.0802319,-9.59798,-0.46933,-9.17082,95.2766
2023-02-15 07:05:03:286,-1.6051,0.10025,-9.61074,-0.483674,-9.16932,95.2792
2023-02-15 07:05:03:296,-1.6139,0.127697,-9.64723,-0.498081,-9.16725,95.2803
2023-02-15 07:05:03:306,-1.61136,0.140797,-9.67491,-0.509027,-9.16342,95.275
2023-02-15 07:05:03:316,-1.59216,0.136099,-9.70277,-0.518971,-9.16061,95.2648
2023-02-15 07:05:03:326,-1.60369,0.142179,-9.73465,-0.524556,-9.15922,95.2536
2023-02-15 07:05:03:336,-1.60153,0.1249,-9.75074,-0.519828,-9.1618,95.2343
2023-02-15 07:05:03:346,-1.55753,0.0907265,-9.72465,-0.510557,-9.16399,95.2124
2023-02-15 07:05:03:356,-1.50719,0.0434101,-9.67827,-0.493798,-9.16545,95.1883
2023-02-15 07:05:03:366,-1.45203,0.00713654,-9.64441,-0.4782,-9.16848,95.1633
2023-02-15 07:05:03:376,-1.37762,-0.0138531,-9.61612,-0.461582,-9.1701,95.145
2023-02-15 07:05:03:386,-1.31065,-0.0315224,-9.60325,-0.453444,-9.16849,95.1337
2023-02-15 07:05:03:396,-1.29312,-0.0388524,-9.59845,-0.446735,-9.16728,95.1338
2023-02-15 07:05:03:406,-1.31495,-0.0382066,-9.60236,-0.44764,-9.16427,95.1508
2023-02-15 07:05:03:416,-1.41092,-0.0132013,-9.61799,-0.451053,-9.16332,95.1884
2023-02-15 07:05:03:426,-1.53756,0.000665887,-9.61131,-0.461731,-9.16321,95.2389
2023-02-15 07:05:03:436,-1.66689,0.0194899,-9.60615,-0.468912,-9.15676,95.2974
2023-02-15 07:05:03:446,-1.77702,0.0345741,-9.61855,-0.478399,-9.14825,95.3596
2023-02-15 07:05:03:456,-1.83536,0.0429874,-9.6158,-0.490486,-9.13792,95.4215
2023-02-15 07:05:03:466,-1.84299,0.0476029,-9.59927,-0.497346,-9.12085,95.4726
2023-02-15 07:05:03:476,-1.81897,0.042188,-9.59624,-0.506332,-9.10018,95.5086
2023-02-15 07:05:03:486,-1.79311,0.0393299,-9.59374,-0.514065,-9.08063,95.5265
2023-02-15 07:05:03:496,-1.76049,0.0531814,-9.60852,-0.525166,-9.05817,95.5252
2023-02-15 07:05:03:506,-1.72726,0.0775617,-9.62976,-0.54151,-9.03416,95.5121
2023-02-15 07:05:03:516,-1.68724,0.102563,-9.62341,-0.556434,-9.01039,95.4794
2023-02-15 07:05:03:526,-1.66796,0.109011,-9.58898,-0.569569,-8.98067,95.4308
2023-02-15 07:05:03:536,-1.60977,0.116903,-9.59831,-0.584447,-8.94905,95.3632
2023-02-15 07:05:03:546,-1.50125,0.128797,-9.66273,-0.601833,-8.91307,95.2796
2023-02-15 07:05:03:556,-1.41769,0.14017,-9.74084,-0.616693,-8.88071,95.1787
2023-02-15 07:05:03:566,-1.3309,0.139567,-9.77266,-0.628258,-8.85778,95.0629
2023-02-15 07:05:03:576,-1.24259,0.13112,-9.79123,-0.637614,-8.84088,94.9359
2023-02-15 07:05:03:586,-1.15837,0.115347,-9.81403,-0.643072,-8.83192,94.8081
2023-02-15 07:05:03:596,-1.10458,0.0873632,-9.82881,-0.64546,-8.83689,94.6788
2023-02-15 07:05:03:606,-1.0933,0.0671338,-9.82184,-0.646171,-8.85863,94.553
2023-02-15 07:05:03:616,-1.10001,0.0483977,-9.79815,-0.644129,-8.88983,94.4398
2023-02-15 07:05:03:626,-1.13709,0.0435403,-9.7815,-0.634896,-8.93407,94.3387
2023-02-15 07:05:03:636,-1.1487,0.0314234,-9.76111,-0.624482,-8.98531,94.2508
2023-02-15 07:05:03:646,-1.20476,0.0352124,-9.69327,-0.61637,-9.04885,94.1845
2023-02-15 07:05:03:656,-1.33275,0.0287708,-9.6376,-0.610329,-9.11628,94.1457
2023-02-15 07:05:03:666,-1.46091,0.0372613,-9.57966,-0.601959,-9.18244,94.1239
2023-02-15 07:05:03:676,-1.54915,0.0453776,-9.55168,-0.595017,-9.24077,94.1267
2023-02-15 07:05:03:686,-1.62635,0.0596363,-9.52822,-0.592397,-9.29222,94.1487
2023-02-15 07:05:03:696,-1.6974,0.0534555,-9.504,-0.588692,-9.32135,94.1837
2023-02-15 07:05:03:706,-1.73809,0.072645,-9.49798,-0.586417,-9.33949,94.2347
2023-02-15 07:05:03:716,-1.80823,0.0985874,-9.48813,-0.589129,-9.34163,94.2958
2023-02-15 07:05:03:726,-1.84947,0.111011,-9.50708,-0.594041,-9.32994,94.3613
2023-02-15 07:05:03:736,-1.77919,0.111952,-9.57526,-0.605284,-9.30341,94.4204
2023-02-15 07:05:03:746,-1.71192,0.129067,-9.61038,-0.614716,-9.26727,94.4736
2023-02-15 07:05:03:756,-1.67035,0.137453,-9.64838,-0.625806,-9.23166,94.5191
2023-02-15 07:05:03:766,-1.6023,0.175448,-9.72597,-0.63863,-9.19777,94.5576
2023-02-15 07:05:03:776,-1.53218,0.195374,-9.77615,-0.649293,-9.1673,94.5848
2023-02-15 07:05:03:786,-1.47631,0.182633,-9.75768,-0.657492,-9.1464,94.6018
2023-02-15 07:05:03:796,-1.43702,0.186346,-9.70519,-0.660435,-9.13959,94.6151
2023-02-15 07:05:03:806,-1.41609,0.18025,-9.67471,-0.665602,-9.13854,94.6287
2023-02-15 07:05:03:816,-1.4164,0.185607,-9.64648,-0.670427,-9.14861,94.6427
2023-02-15 07:05:03:826,-1.43577,0.1728,-9.61172,-0.675562,-9.16524,94.6619
2023-02-15 07:05:03:836,-1.46442,0.15123,-9.6002,-0.681362,-9.19016,94.6871
2023-02-15 07:05:03:846,-1.50495,0.156518,-9.62837,-0.689729,-9.21386,94.715
2023-02-15 07:05:03:856,-1.53383,0.175453,-9.67718,-0.698704,-9.23786,94.7506
2023-02-15 07:05:03:866,-1.54266,0.176972,-9.71825,-0.705673,-9.25942,94.7897
2023-02-15 07:05:03:876,-1.60022,0.153842,-9.70033,-0.707463,-9.28838,94.8366
2023-02-15 07:05:03:886,-1.66393,0.158719,-9.67721,-0.708853,-9.32212,94.8801
2023-02-15 07:05:03:896,-1.72788,0.17476,-9.65243,-0.711592,-9.35233,94.9249
2023-02-15 07:05:03:906,-1.76909,0.163512,-9.60066,-0.711205,-9.38543,94.9648
2023-02-15 07:05:03:916,-1.75087,0.148254,-9.56416,-0.71084,-9.41355,95.0012
2023-02-15 07:05:03:926,-1.72339,0.152678,-9.54281,-0.716086,-9.44129,95.0368
2023-02-15 07:05:03:936,-1.74317,0.168725,-9.56102,-0.721418,-9.46495,95.0635
2023-02-15 07:05:03:946,-1.75017,0.176615,-9.57657,-0.729566,-9.48418,95.0906
2023-02-15 07:05:03:956,-1.75851,0.20866,-9.60051,-0.736829,-9.50357,95.1128
2023-02-15 07:05:03:966,-1.76629,0.211091,-9.6174,-0.746587,-9.51427,95.1318
2023-02-15 07:05:03:976,-1.74688,0.212814,-9.61315,-0.751985,-9.52107,95.1476
2023-02-15 07:05:03:986,-1.73588,0.216846,-9.60022,-0.754798,-9.52676,95.1613
2023-02-15 07:05:03:996,-1.70693,0.201826,-9.62576,-0.757542,-9.5284,95.1737
2023-02-15 07:05:04:6,-1.6748,0.194136,-9.64773,-0.759832,-9.52782,95.1809
2023-02-15 07:05:04:16,-1.6743,0.180115,-9.64693,-0.759463,-9.52521,95.184
2023-02-15 07:05:04:26,-1.6639,0.17417,-9.64855,-0.757623,-9.52145,95.1843
2023-02-15 07:05:04:36,-1.63795,0.170748,-9.67818,-0.753356,-9.51584,95.1832
2023-02-15 07:05:04:46,-1.60317,0.166039,-9.68769,-0.749867,-9.51429,95.173
2023-02-15 07:05:04:56,-1.59551,0.159368,-9.71128,-0.747748,-9.51353,95.1614
2023-02-15 07:05:04:66,-1.61152,0.170721,-9.7244,-0.743615,-9.51654,95.1496
2023-02-15 07:05:04:76,-1.63599,0.159983,-9.67085,-0.737429,-9.51571,95.1361
2023-02-15 07:05:04:86,-1.68465,0.154801,-9.65416,-0.732904,-9.51695,95.1237
2023-02-15 07:05:04:96,-1.70106,0.17399,-9.64906,-0.727246,-9.51661,95.107
2023-02-15 07:05:04:106,-1.64292,0.174493,-9.66021,-0.720985,-9.50879,95.0868
2023-02-15 07:05:04:116,-1.54927,0.149395,-9.6661,-0.704142,-9.49774,95.0643
2023-02-15 07:05:04:126,-1.52908,0.133837,-9.62606,-0.68879,-9.49033,95.0405
2023-02-15 07:05:04:136,-1.55013,0.12983,-9.61454,-0.678804,-9.4842,95.0198
2023-02-15 07:05:04:146,-1.59273,0.12153,-9.62834,-0.662311,-9.47936,94.9981
2023-02-15 07:05:04:156,-1.62777,0.134198,-9.63688,-0.64971,-9.47571,94.9766
2023-02-15 07:05:04:166,-1.68035,0.152281,-9.66929,-0.640638,-9.47327,94.9533
2023-02-15 07:05:04:176,-1.69738,0.160741,-9.6931,-0.62856,-9.4682,94.9265
2023-02-15 07:05:04:186,-1.70689,0.172995,-9.66312,-0.617855,-9.46395,94.8971
2023-02-15 07:05:04:196,-1.75396,0.170134,-9.66829,-0.60005,-9.45837,94.8583
2023-02-15 07:05:04:206,-1.81993,0.206364,-9.71631,-0.583078,-9.45398,94.8098
2023-02-15 07:05:04:216,-1.85966,0.229508,-9.71837,-0.561442,-9.45356,94.7456
2023-02-15 07:05:04:226,-1.88907,0.225498,-9.68493,-0.533328,-9.45653,94.6685
2023-02-15 07:05:04:236,-1.86667,0.192568,-9.63176,-0.499298,-9.46018,94.5701
2023-02-15 07:05:04:246,-1.77637,0.142511,-9.5788,-0.464179,-9.46549,94.4543
2023-02-15 07:05:04:256,-1.70286,0.100221,-9.5374,-0.426757,-9.47232,94.3203
2023-02-15 07:05:04:266,-1.6444,0.0728918,-9.53942,-0.390097,-9.48247,94.175
2023-02-15 07:05:04:276,-1.5607,0.0665098,-9.58156,-0.35821,-9.4936,94.0201
2023-02-15 07:05:04:286,-1.48294,0.072868,-9.64449,-0.330942,-9.50962,93.8593
2023-02-15 07:05:04:296,-1.43434,0.0874858,-9.70619,-0.308166,-9.53064,93.7001
2023-02-15 07:05:04:306,-1.41104,0.0937557,-9.73616,-0.283753,-9.5534,93.5485
2023-02-15 07:05:04:316,-1.3979,0.0909707,-9.72411,-0.254945,-9.57456,93.402
2023-02-15 07:05:04:326,-1.37036,0.0730356,-9.69176,-0.222482,-9.58789,93.2684
2023-02-15 07:05:04:336,-1.35762,0.0518805,-9.64975,-0.192978,-9.5983,93.1536
2023-02-15 07:05:04:346,-1.34092,0.0286306,-9.62976,-0.160729,-9.60448,93.0528
2023-02-15 07:05:04:356,-1.33291,0.00538606,-9.6092,-0.127759,-9.60281,92.9714
2023-02-15 07:05:04:366,-1.31458,-0.0122098,-9.60468,-0.0968035,-9.59362,92.908
2023-02-15 07:05:04:376,-1.309,-0.0309691,-9.6156,-0.0672255,-9.58227,92.8625
2023-02-15 07:05:04:386,-1.32742,-0.0251883,-9.63418,-0.0418708,-9.57079,92.8338
2023-02-15 07:05:04:396,-1.37788,-0.00741306,-9.66523,-0.0232011,-9.55606,92.8222
2023-02-15 07:05:04:406,-1.46404,0.0275301,-9.68228,-0.00472988,-9.53975,92.8264
2023-02-15 07:05:04:416,-1.55471,0.0442355,-9.68361,0.0128739,-9.52189,92.8405
2023-02-15 07:05:04:426,-1.60015,0.0526599,-9.67531,0.031363,-9.50468,92.8644
2023-02-15 07:05:04:436,-1.62273,0.0529112,-9.66219,0.0565812,-9.48884,92.886
2023-02-15 07:05:04:446,-1.63651,0.028687,-9.65283,0.0819169,-9.47277,92.9072
2023-02-15 07:05:04:456,-1.63968,0.0138059,-9.63804,0.106811,-9.45675,92.9251
2023-02-15 07:05:04:466,-1.646,0.00519804,-9.65189,0.134072,-9.44684,92.9411
2023-02-15 07:05:04:476,-1.66451,0.0242785,-9.68183,0.161679,-9.43609,92.949
2023-02-15 07:05:04:486,-1.67115,0.036415,-9.68774,0.189234,-9.43039,92.9575
2023-02-15 07:05:04:497,-1.66491,0.025093,-9.69067,0.219968,-9.42279,92.9625
2023-02-15 07:05:04:506,-1.64596,-0.0122753,-9.68264,0.251325,-9.4164,92.9631
2023-02-15 07:05:04:516,-1.64697,-0.0126387,-9.65674,0.286479,-9.41153,92.9616
2023-02-15 07:05:04:526,-1.63972,-0.0281055,-9.6569,0.322647,-9.40685,92.9575
2023-02-15 07:05:04:536,-1.62692,-0.0466436,-9.6597,0.361809,-9.39557,92.9546
2023-02-15 07:05:04:546,-1.6309,-0.0404766,-9.67049,0.39749,-9.38778,92.948
2023-02-15 07:05:04:556,-1.64775,-0.0269041,-9.6772,0.43681,-9.3817,92.9402
2023-02-15 07:05:04:566,-1.65675,-0.0324571,-9.65857,0.47788,-9.37499,92.9308
2023-02-15 07:05:04:576,-1.652,-0.0634916,-9.63923,0.522749,-9.36515,92.9171
2023-02-15 07:05:04:586,-1.633,-0.103387,-9.61601,0.568988,-9.35754,92.9017
2023-02-15 07:05:04:597,-1.61995,-0.118763,-9.59392,0.614918,-9.34642,92.8881
2023-02-15 07:05:04:606,-1.58168,-0.137545,-9.57807,0.660791,-9.33612,92.8743
2023-02-15 07:05:04:616,-1.55631,-0.147338,-9.58121,0.704606,-9.32221,92.8582
2023-02-15 07:05:04:626,-1.56669,-0.155845,-9.61271,0.742629,-9.30618,92.843
2023-02-15 07:05:04:636,-1.55227,-0.153474,-9.62829,0.775833,-9.29427,92.8284
2023-02-15 07:05:04:646,-1.52088,-0.163762,-9.63376,0.810998,-9.2815,92.814
2023-02-15 07:05:04:656,-1.50863,-0.165191,-9.62187,0.842737,-9.26918,92.8002
2023-02-15 07:05:04:666,-1.52027,-0.171222,-9.62358,0.876189,-9.25646,92.7862
2023-02-15 07:05:04:676,-1.52419,-0.1891,-9.61299,0.907387,-9.24218,92.7746
2023-02-15 07:05:04:686,-1.49695,-0.22106,-9.60102,0.939312,-9.22864,92.7625
2023-02-15 07:05:04:696,-1.47715,-0.234587,-9.5885,0.971533,-9.21377,92.7534
2023-02-15 07:05:04:706,-1.45479,-0.258698,-9.60784,1.00234,-9.2003,92.7447
2023-02-15 07:05:04:716,-1.39527,-0.267484,-9.6382,1.02769,-9.18825,92.7352
2023-02-15 07:05:04:726,-1.36887,-0.274624,-9.62992,1.05193,-9.17807,92.7288
2023-02-15 07:05:04:736,-1.41068,-0.288003,-9.60588,1.06947,-9.1743,92.7254
2023-02-15 07:05:04:746,-1.46435,-0.287664,-9.6106,1.08352,-9.1736,92.7265
2023-02-15 07:05:04:756,-1.4943,-0.267785,-9.63011,1.09384,-9.1739,92.7297
2023-02-15 07:05:04:766,-1.52628,-0.244632,-9.65018,1.10332,-9.17745,92.7353
2023-02-15 07:05:04:777,-1.54051,-0.227029,-9.62321,1.11324,-9.18148,92.7434
2023-02-15 07:05:04:786,-1.54417,-0.237628,-9.60429,1.12258,-9.18084,92.7545
2023-02-15 07:05:04:797,-1.55658,-0.242263,-9.61193,1.13057,-9.18255,92.767
2023-02-15 07:05:04:806,-1.58722,-0.232181,-9.58154,1.13785,-9.18154,92.7764
2023-02-15 07:05:04:816,-1.61757,-0.232207,-9.55225,1.14429,-9.1819,92.7856
2023-02-15 07:05:04:826,-1.61152,-0.228735,-9.58041,1.14716,-9.18226,92.7979
2023-02-15 07:05:04:837,-1.5879,-0.245293,-9.59738,1.14831,-9.17798,92.8075
2023-02-15 07:05:04:846,-1.58262,-0.24864,-9.60594,1.15254,-9.17338,92.8131
2023-02-15 07:05:04:856,-1.56641,-0.235444,-9.61096,1.15018,-9.16848,92.8184
2023-02-15 07:05:04:866,-1.53963,-0.234147,-9.6312,1.14577,-9.16101,92.8222
2023-02-15 07:05:04:876,-1.53049,-0.219748,-9.65645,1.14176,-9.15227,92.8256
2023-02-15 07:05:04:886,-1.53496,-0.213586,-9.65757,1.13721,-9.14569,92.829
2023-02-15 07:05:04:896,-1.52212,-0.219422,-9.65606,1.13866,-9.13912,92.8331
2023-02-15 07:05:04:906,-1.52091,-0.206184,-9.66523,1.13719,-9.13007,92.8363
2023-02-15 07:05:04:916,-1.52947,-0.192517,-9.68078,1.13171,-9.12374,92.839
2023-02-15 07:05:04:926,-1.52795,-0.189773,-9.65776,1.12927,-9.11694,92.8415
2023-02-15 07:05:04:936,-1.56663,-0.210583,-9.63015,1.12734,-9.11588,92.8442
2023-02-15 07:05:04:946,-1.60116,-0.204093,-9.63932,1.12094,-9.11704,92.8492
2023-02-15 07:05:04:956,-1.60631,-0.17691,-9.6489,1.11383,-9.11277,92.8528
2023-02-15 07:05:04:966,-1.52991,-0.175461,-9.68322,1.10687,-9.10383,92.8494
2023-02-15 07:05:04:976,-1.45972,-0.21044,-9.64936,1.10558,-9.09355,92.8452
2023-02-15 07:05:04:986,-1.46828,-0.219832,-9.62967,1.1037,-9.08507,92.8439
2023-02-15 07:05:04:997,-1.48628,-0.199744,-9.64354,1.09916,-9.08182,92.842
2023-02-15 07:05:05:6,-1.51816,-0.178734,-9.65102,1.09398,-9.08221,92.8374
2023-02-15 07:05:05:17,-1.53709,-0.182077,-9.65706,1.0885,-9.08117,92.8364
2023-02-15 07:05:05:26,-1.53281,-0.163428,-9.6615,1.08237,-9.07626,92.8367
2023-02-15 07:05:05:37,-1.49077,-0.148683,-9.67491,1.0769,-9.07029,92.837
2023-02-15 07:05:05:46,-1.4755,-0.165062,-9.6896,1.072,-9.06548,92.8401
2023-02-15 07:05:05:56,-1.47471,-0.189128,-9.70182,1.07368,-9.06033,92.8443
2023-02-15 07:05:05:66,-1.45215,-0.182703,-9.71175,1.07305,-9.06035,92.85
2023-02-15 07:05:05:76,-1.45638,-0.173886,-9.7115,1.07791,-9.06088,92.8597
2023-02-15 07:05:05:86,-1.45775,-0.174288,-9.70159,1.08351,-9.06484,92.8679
2023-02-15 07:05:05:96,-1.45912,-0.198318,-9.67816,1.09289,-9.0655,92.8774
2023-02-15 07:05:05:106,-1.4778,-0.201037,-9.64906,1.10415,-9.07031,92.8883
2023-02-15 07:05:05:116,-1.51603,-0.215125,-9.63358,1.11638,-9.07921,92.9037
2023-02-15 07:05:05:126,-1.54008,-0.23361,-9.63835,1.12694,-9.08827,92.9191
2023-02-15 07:05:05:136,-1.5611,-0.228075,-9.62664,1.13386,-9.09999,92.9338
2023-02-15 07:05:05:146,-1.59477,-0.239521,-9.64268,1.14365,-9.11256,92.948
2023-02-15 07:05:05:156,-1.61134,-0.234135,-9.65041,1.1493,-9.12583,92.9591
2023-02-15 07:05:05:166,-1.61462,-0.223616,-9.62706,1.15577,-9.13929,92.9752
2023-02-15 07:05:05:177,-1.59087,-0.249163,-9.63537,1.16473,-9.15437,92.9867
2023-02-15 07:05:05:186,-1.5833,-0.242126,-9.61764,1.17022,-9.1698,93.0009
2023-02-15 07:05:05:196,-1.5872,-0.230057,-9.61173,1.17565,-9.1806,93.0099
2023-02-15 07:05:05:206,-1.59834,-0.237854,-9.61344,1.17951,-9.19258,93.0187
2023-02-15 07:05:05:216,-1.60391,-0.23252,-9.57697,1.18179,-9.20467,93.0303
2023-02-15 07:05:05:226,-1.6275,-0.237962,-9.56379,1.18218,-9.21014,93.0459
2023-02-15 07:05:05:236,-1.63778,-0.23238,-9.55706,1.1787,-9.21191,93.0591
2023-02-15 07:05:05:246,-1.6383,-0.220563,-9.5524,1.1732,-9.21263,93.0712
2023-02-15 07:05:05:256,-1.63567,-0.212767,-9.57098,1.16259,-9.20783,93.0832
2023-02-15 07:05:05:266,-1.6353,-0.193867,-9.6252,1.14804,-9.20183,93.0944
2023-02-15 07:05:05:276,-1.62911,-0.179425,-9.63452,1.13503,-9.19786,93.1025
2023-02-15 07:05:05:286,-1.61619,-0.173318,-9.6333,1.12254,-9.19246,93.1098
2023-02-15 07:05:05:296,-1.58719,-0.174796,-9.64998,1.11398,-9.18335,93.1108
2023-02-15 07:05:05:306,-1.58412,-0.156144,-9.6437,1.10455,-9.174,93.11
2023-02-15 07:05:05:316,-1.57126,-0.166799,-9.64329,1.09701,-9.16802,93.1073
2023-02-15 07:05:05:326,-1.53486,-0.165203,-9.63589,1.08825,-9.16162,93.1045
2023-02-15 07:05:05:336,-1.51852,-0.160094,-9.62919,1.07901,-9.15249,93.0976
2023-02-15 07:05:05:346,-1.50323,-0.164764,-9.64288,1.06526,-9.1432,93.0928
2023-02-15 07:05:05:356,-1.48691,-0.155908,-9.67028,1.05786,-9.13296,93.0895
2023-02-15 07:05:05:367,-1.45904,-0.152474,-9.69436,1.04847,-9.12737,93.0875
2023-02-15 07:05:05:376,-1.48247,-0.13799,-9.7067,1.04089,-9.1191,93.0891
2023-02-15 07:05:05:386,-1.49987,-0.151004,-9.68843,1.03695,-9.11412,93.0913
2023-02-15 07:05:05:396,-1.50324,-0.171729,-9.66273,1.03404,-9.10653,93.098
2023-02-15 07:05:05:406,-1.50146,-0.188973,-9.65308,1.02912,-9.09969,93.1008
2023-02-15 07:05:05:416,-1.52892,-0.172724,-9.65507,1.02159,-9.09155,93.1072
2023-02-15 07:05:05:426,-1.56219,-0.150603,-9.64339,1.01596,-9.08397,93.1147
2023-02-15 07:05:05:436,-1.55078,-0.156977,-9.6494,1.01036,-9.07575,93.1212
2023-02-15 07:05:05:446,-1.51647,-0.161965,-9.64892,0.999601,-9.06699,93.1241
2023-02-15 07:05:05:456,-1.49776,-0.160449,-9.661,0.994245,-9.06016,93.1247
2023-02-15 07:05:05:466,-1.48085,-0.161626,-9.65874,0.989491,-9.04954,93.1252
2023-02-15 07:05:05:476,-1.4629,-0.156044,-9.66382,0.98592,-9.04448,93.1243
2023-02-15 07:05:05:486,-1.45917,-0.153361,-9.67962,0.979478,-9.03741,93.1259
2023-02-15 07:05:05:496,-1.46891,-0.159096,-9.67414,0.980405,-9.03105,93.1251
2023-02-15 07:05:05:506,-1.47378,-0.165831,-9.66399,0.981882,-9.02324,93.1273
2023-02-15 07:05:05:516,-1.45745,-0.177034,-9.65161,0.981122,-9.01897,93.1282
2023-02-15 07:05:05:526,-1.4658,-0.191935,-9.62929,0.981809,-9.01667,93.1292
2023-02-15 07:05:05:537,-1.48528,-0.195584,-9.60262,0.984022,-9.01394,93.1359
2023-02-15 07:05:05:546,-1.50727,-0.202079,-9.60121,0.983702,-9.01311,93.1405
2023-02-15 07:05:05:556,-1.54214,-0.199965,-9.60589,0.982819,-9.0164,93.1454
2023-02-15 07:05:05:566,-1.57544,-0.187738,-9.65008,0.978065,-9.01614,93.1528
2023-02-15 07:05:05:576,-1.54565,-0.161018,-9.71107,0.973189,-9.01937,93.1529
2023-02-15 07:05:05:586,-1.5093,-0.16811,-9.73851,0.971023,-9.01678,93.1475
2023-02-15 07:05:05:596,-1.48034,-0.18792,-9.70017,0.968767,-9.02346,93.1415
2023-02-15 07:05:05:606,-1.5028,-0.193496,-9.65292,0.969772,-9.02897,93.1362
2023-02-15 07:05:05:616,-1.52118,-0.190965,-9.64584,0.970228,-9.04371,93.1312
2023-02-15 07:05:05:626,-1.54761,-0.18222,-9.6228,0.965866,-9.05917,93.1259
2023-02-15 07:05:05:636,-1.57723,-0.176846,-9.6101,0.962936,-9.07356,93.1235
2023-02-15 07:05:05:646,-1.57015,-0.157391,-9.58284,0.954278,-9.08411,93.1256
2023-02-15 07:05:05:656,-1.58117,-0.140861,-9.60116,0.943084,-9.09161,93.1264
2023-02-15 07:05:05:666,-1.60077,-0.10867,-9.61524,0.929254,-9.09404,93.1285
2023-02-15 07:05:05:676,-1.61187,-0.0901955,-9.60985,0.916138,-9.09514,93.1312
2023-02-15 07:05:05:686,-1.61497,-0.0995973,-9.61237,0.904376,-9.09603,93.1343
2023-02-15 07:05:05:696,-1.60538,-0.090229,-9.62485,0.893541,-9.09531,93.1336
2023-02-15 07:05:05:706,-1.5732,-0.103681,-9.63494,0.884408,-9.09158,93.1296
2023-02-15 07:05:05:716,-1.54303,-0.108662,-9.63815,0.878677,-9.08491,93.1242
2023-02-15 07:05:05:726,-1.52789,-0.125737,-9.63896,0.874423,-9.07898,93.1191
2023-02-15 07:05:05:736,-1.54006,-0.122789,-9.65061,0.866436,-9.07911,93.1126
2023-02-15 07:05:05:746,-1.53885,-0.11472,-9.66487,0.858999,-9.07553,93.1074
2023-02-15 07:05:05:756,-1.51633,-0.0972952,-9.68345,0.852989,-9.0723,93.1035
2023-02-15 07:05:05:766,-1.52165,-0.0906929,-9.67921,0.84277,-9.0664,93.1
2023-02-15 07:05:05:777,-1.52153,-0.0991198,-9.68039,0.832748,-9.06161,93.0994
2023-02-15 07:05:05:786,-1.53019,-0.0824365,-9.6747,0.823684,-9.05643,93.1002
2023-02-15 07:05:05:797,-1.53254,-0.0707429,-9.65557,0.816285,-9.05244,93.0992
2023-02-15 07:05:05:806,-1.54813,-0.0735611,-9.66676,0.807249,-9.04846,93.102
2023-02-15 07:05:05:816,-1.57158,-0.0683125,-9.6913,0.803147,-9.04156,93.1035
2023-02-15 07:05:05:826,-1.57007,-0.0474422,-9.70904,0.800231,-9.03553,93.1009
2023-02-15 07:05:05:836,-1.50486,-0.0521839,-9.71424,0.799559,-9.02836,93.0972
2023-02-15 07:05:05:846,-1.45062,-0.0849567,-9.68381,0.805096,-9.02423,93.0905
2023-02-15 07:05:05:856,-1.46547,-0.105976,-9.66456,0.810876,-9.02363,93.084
2023-02-15 07:05:05:866,-1.51219,-0.108722,-9.65367,0.817986,-9.02825,93.0789
2023-02-15 07:05:05:876,-1.55235,-0.104005,-9.65319,0.828331,-9.03587,93.0739
2023-02-15 07:05:05:886,-1.54363,-0.110584,-9.66493,0.838265,-9.04155,93.0687
2023-02-15 07:05:05:897,-1.52503,-0.115,-9.67696,0.849338,-9.04672,93.0643
2023-02-15 07:05:05:906,-1.51805,-0.110414,-9.68557,0.858247,-9.04928,93.0654
2023-02-15 07:05:05:916,-1.51364,-0.114456,-9.68007,0.866083,-9.04806,93.0673
2023-02-15 07:05:05:926,-1.52591,-0.126372,-9.68581,0.87562,-9.04996,93.0672
2023-02-15 07:05:05:936,-1.55564,-0.106586,-9.6757,0.885623,-9.04937,93.0696
2023-02-15 07:05:05:946,-1.56655,-0.110601,-9.68636,0.895985,-9.04834,93.0699
2023-02-15 07:05:05:956,-1.56984,-0.118653,-9.6699,0.906146,-9.04923,93.0704
2023-02-15 07:05:05:967,-1.56095,-0.121907,-9.64538,0.920979,-9.04923,93.0694
2023-02-15 07:05:05:976,-1.55769,-0.154671,-9.61149,0.938332,-9.04844,93.064
2023-02-15 07:05:05:986,-1.53485,-0.181698,-9.61378,0.95394,-9.04691,93.059
2023-02-15 07:05:05:996,-1.49756,-0.185256,-9.62032,0.974023,-9.04739,93.053
2023-02-15 07:05:06:6,-1.49719,-0.19828,-9.62497,0.992291,-9.0468,93.0451
2023-02-15 07:05:06:16,-1.48775,-0.213319,-9.60032,1.00697,-9.04964,93.0407
2023-02-15 07:05:06:26,-1.4736,-0.237774,-9.62233,1.01873,-9.05245,93.0384
2023-02-15 07:05:06:36,-1.48338,-0.234592,-9.62525,1.03087,-9.05617,93.0343
2023-02-15 07:05:06:46,-1.5129,-0.215247,-9.61002,1.04064,-9.05587,93.0413
2023-02-15 07:05:06:57,-1.52969,-0.219507,-9.59993,1.04618,-9.05572,93.0488
2023-02-15 07:05:06:66,-1.53595,-0.220056,-9.57705,1.0494,-9.05206,93.0589
2023-02-15 07:05:06:76,-1.5445,-0.21517,-9.59834,1.04993,-9.04574,93.0682
2023-02-15 07:05:06:86,-1.55758,-0.199493,-9.61248,1.0486,-9.04474,93.0761
2023-02-15 07:05:06:96,-1.56172,-0.201642,-9.61015,1.04669,-9.04066,93.0847
2023-02-15 07:05:06:106,-1.55082,-0.199248,-9.60192,1.04557,-9.03568,93.0938
2023-02-15 07:05:06:116,-1.535,-0.186439,-9.60474,1.04035,-9.03177,93.1014
2023-02-15 07:05:06:126,-1.53453,-0.194436,-9.61348,1.03217,-9.03262,93.1037
2023-02-15 07:05:06:137,-1.53818,-0.191979,-9.62721,1.02666,-9.03377,93.1034
2023-02-15 07:05:06:146,-1.52963,-0.194444,-9.62518,1.01798,-9.03011,93.0989
2023-02-15 07:05:06:156,-1.50534,-0.189751,-9.621,1.01003,-9.02322,93.0943
2023-02-15 07:05:06:166,-1.49027,-0.171654,-9.63497,0.999112,-9.02121,93.0887
2023-02-15 07:05:06:177,-1.48911,-0.167838,-9.65967,0.988191,-9.01506,93.0818
2023-02-15 07:05:06:186,-1.49014,-0.158313,-9.69315,0.976002,-9.00992,93.0747
2023-02-15 07:05:06:197,-1.5029,-0.1328,-9.68981,0.961393,-9.00574,93.0729
2023-02-15 07:05:06:207,-1.49999,-0.120839,-9.69835,0.949516,-9.00157,93.0705
2023-02-15 07:05:06:216,-1.48901,-0.116606,-9.70067,0.941117,-8.99392,93.0678
2023-02-15 07:05:06:226,-1.47783,-0.116025,-9.68878,0.938347,-8.98781,93.0614
2023-02-15 07:05:06:237,-1.48142,-0.122363,-9.67849,0.93374,-8.98156,93.0539
2023-02-15 07:05:06:246,-1.45082,-0.136839,-9.67573,0.931995,-8.97566,93.044
2023-02-15 07:05:06:256,-1.42323,-0.1415,-9.67868,0.931171,-8.97379,93.0408
2023-02-15 07:05:06:266,-1.41695,-0.136489,-9.67438,0.929759,-8.97062,93.0355
2023-02-15 07:05:06:276,-1.41579,-0.137983,-9.67016,0.929697,-8.9688,93.0289
2023-02-15 07:05:06:286,-1.43371,-0.116205,-9.69402,0.928235,-8.9678,93.0263
2023-02-15 07:05:06:297,-1.4589,-0.117936,-9.70853,0.927684,-8.96893,93.0279
2023-02-15 07:05:06:306,-1.46984,-0.109053,-9.68979,0.929552,-8.97052,93.0298
2023-02-15 07:05:06:317,-1.47094,-0.127656,-9.66923,0.933278,-8.97242,93.0329
2023-02-15 07:05:06:326,-1.47186,-0.158034,-9.66851,0.937687,-8.9754,93.037
2023-02-15 07:05:06:337,-1.46844,-0.155962,-9.65955,0.944629,-8.97832,93.0429
2023-02-15 07:05:06:346,-1.46086,-0.157618,-9.63599,0.95145,-8.98523,93.0461
2023-02-15 07:05:06:357,-1.46372,-0.169199,-9.61976,0.959093,-8.98808,93.0522
2023-02-15 07:05:06:366,-1.48034,-0.174416,-9.60942,0.963038,-8.98912,93.0602
2023-02-15 07:05:06:377,-1.48366,-0.164523,-9.62558,0.961971,-8.99365,93.0689
2023-02-15 07:05:06:386,-1.50748,-0.151013,-9.66005,0.96257,-9.00231,93.078
2023-02-15 07:05:06:397,-1.54211,-0.142939,-9.68173,0.962127,-9.00853,93.0887
2023-02-15 07:05:06:407,-1.55454,-0.149511,-9.68108,0.966831,-9.01596,93.1005
2023-02-15 07:05:06:416,-1.53781,-0.159342,-9.65775,0.974026,-9.02075,93.1111
2023-02-15 07:05:06:426,-1.55236,-0.167887,-9.64173,0.980913,-9.02735,93.122
2023-02-15 07:05:06:436,-1.56545,-0.178436,-9.63723,0.989602,-9.03306,93.1257
2023-02-15 07:05:06:446,-1.55952,-0.178045,-9.6179,0.995826,-9.03772,93.129
2023-02-15 07:05:06:456,-1.5185,-0.213278,-9.6145,1.00205,-9.04056,93.1325
2023-02-15 07:05:06:466,-1.50364,-0.215831,-9.61935,1.00928,-9.04478,93.1351
2023-02-15 07:05:06:477,-1.50512,-0.220397,-9.6604,1.01523,-9.05131,93.139
2023-02-15 07:05:06:486,-1.4786,-0.199684,-9.68902,1.01772,-9.05426,93.1426
2023-02-15 07:05:06:497,-1.46426,-0.211103,-9.67394,1.02427,-9.06173,93.1447
2023-02-15 07:05:06:506,-1.47864,-0.232534,-9.64544,1.02737,-9.06647,93.1496
2023-02-15 07:05:06:517,-1.53589,-0.224237,-9.62622,1.03153,-9.08119,93.1589
2023-02-15 07:05:06:526,-1.59743,-0.203783,-9.62138,1.03021,-9.0927,93.1693
2023-02-15 07:05:06:537,-1.6228,-0.173501,-9.62329,1.02794,-9.10229,93.1813
2023-02-15 07:05:06:546,-1.61901,-0.160152,-9.62852,1.02195,-9.10947,93.1954
2023-02-15 07:05:06:557,-1.60307,-0.131823,-9.62533,1.01677,-9.11452,93.2059
2023-02-15 07:05:06:566,-1.61127,-0.124234,-9.639,1.01487,-9.11752,93.2121
2023-02-15 07:05:06:576,-1.60743,-0.115542,-9.63486,1.01063,-9.12325,93.2204
2023-02-15 07:05:06:586,-1.60635,-0.123895,-9.62656,1.01404,-9.12559,93.2279
2023-02-15 07:05:06:597,-1.59088,-0.15468,-9.62705,1.01822,-9.12876,93.229
2023-02-15 07:05:06:606,-1.57847,-0.156487,-9.59252,1.02359,-9.13202,93.2238
2023-02-15 07:05:06:617,-1.5632,-0.170767,-9.59447,1.02565,-9.13582,93.2206
2023-02-15 07:05:06:626,-1.55204,-0.17241,-9.61016,1.02563,-9.13974,93.2183
2023-02-15 07:05:06:637,-1.55027,-0.175814,-9.64636,1.0232,-9.14447,93.2148
2023-02-15 07:05:06:646,-1.55392,-0.150123,-9.67226,1.0198,-9.14444,93.2165
2023-02-15 07:05:06:657,-1.56958,-0.134622,-9.68833,1.01722,-9.14652,93.2199
2023-02-15 07:05:06:666,-1.56686,-0.119626,-9.68827,1.01271,-9.14416,93.2227
2023-02-15 07:05:06:677,-1.54987,-0.115493,-9.69357,1.01218,-9.13878,93.2235
2023-02-15 07:05:06:686,-1.5276,-0.123392,-9.70067,1.01072,-9.1342,93.2235
2023-02-15 07:05:06:697,-1.5317,-0.134438,-9.67712,1.01071,-9.12958,93.2233
2023-02-15 07:05:06:706,-1.54419,-0.136801,-9.65036,1.00945,-9.13137,93.2248
2023-02-15 07:05:06:716,-1.56973,-0.125963,-9.65729,1.00992,-9.13164,93.2244
2023-02-15 07:05:06:726,-1.59107,-0.123266,-9.67054,1.00763,-9.13104,93.2255
2023-02-15 07:05:06:737,-1.55719,-0.128481,-9.6828,1.0106,-9.13021,93.2221
2023-02-15 07:05:06:746,-1.49076,-0.155706,-9.65187,1.02541,-9.12585,93.2162
2023-02-15 07:05:06:757,-1.47578,-0.18173,-9.62788,1.03529,-9.12543,93.2094
2023-02-15 07:05:06:766,-1.48652,-0.185965,-9.61491,1.0457,-9.12903,93.2031
2023-02-15 07:05:06:777,-1.52106,-0.201091,-9.60994,1.05413,-9.13022,93.2014
2023-02-15 07:05:06:786,-1.54015,-0.207351,-9.60914,1.06106,-9.13211,93.1993
2023-02-15 07:05:06:796,-1.54212,-0.198925,-9.6499,1.06677,-9.13362,93.1979
2023-02-15 07:05:06:806,-1.53795,-0.183882,-9.67348,1.06922,-9.13294,93.1983
2023-02-15 07:05:06:816,-1.54827,-0.172284,-9.65593,1.07191,-9.12976,93.2003
2023-02-15 07:05:06:826,-1.54859,-0.196968,-9.65458,1.07417,-9.1294,93.2049
2023-02-15 07:05:06:837,-1.55119,-0.198926,-9.6483,1.07476,-9.12795,93.2078
2023-02-15 07:05:06:847,-1.5518,-0.185983,-9.63349,1.07887,-9.1289,93.2095
2023-02-15 07:05:06:857,-1.54495,-0.196284,-9.61801,1.08206,-9.12565,93.2093
2023-02-15 07:05:06:866,-1.54296,-0.206062,-9.6179,1.08127,-9.12779,93.2073
2023-02-15 07:05:06:876,-1.55158,-0.175187,-9.64726,1.08119,-9.12943,93.2061
2023-02-15 07:05:06:886,-1.55304,-0.169828,-9.66975,1.07963,-9.1314,93.2
2023-02-15 07:05:06:897,-1.52855,-0.170519,-9.67731,1.07964,-9.13112,93.1951
2023-02-15 07:05:06:906,-1.52233,-0.180558,-9.66977,1.08414,-9.13282,93.1909
2023-02-15 07:05:06:917,-1.52743,-0.189631,-9.67098,1.09201,-9.13427,93.1863
2023-02-15 07:05:06:926,-1.53921,-0.190318,-9.66623,1.09652,-9.13789,93.1846
2023-02-15 07:05:06:936,-1.55331,-0.200274,-9.64622,1.10175,-9.13779,93.183
2023-02-15 07:05:06:946,-1.55088,-0.20678,-9.63794,1.10956,-9.14065,93.1841
2023-02-15 07:05:06:956,-1.56697,-0.203958,-9.63478,1.11347,-9.14186,93.1841
2023-02-15 07:05:06:966,-1.57099,-0.197273,-9.65142,1.11734,-9.14195,93.1834
2023-02-15 07:05:06:976,-1.58796,-0.18881,-9.64462,1.11929,-9.14521,93.1799
2023-02-15 07:05:06:986,-1.59967,-0.185707,-9.63632,1.12155,-9.14715,93.1748
2023-02-15 07:05:06:997,-1.58992,-0.187371,-9.62432,1.12647,-9.14489,93.1714
2023-02-15 07:05:07:6,-1.59068,-0.192907,-9.61422,1.13204,-9.14674,93.1652
2023-02-15 07:05:07:17,-1.58088,-0.197177,-9.60756,1.13388,-9.14394,93.1573
2023-02-15 07:05:07:26,-1.57554,-0.193116,-9.61113,1.13551,-9.14425,93.1481
2023-02-15 07:05:07:36,-1.57535,-0.183499,-9.6426,1.13672,-9.14457,93.1366
2023-02-15 07:05:07:46,-1.56106,-0.174649,-9.66039,1.13342,-9.14219,93.1249
2023-02-15 07:05:07:56,-1.52204,-0.181633,-9.64299,1.13587,-9.13788,93.1124
2023-02-15 07:05:07:66,-1.48955,-0.196547,-9.6448,1.13963,-9.13768,93.0985
2023-02-15 07:05:07:76,-1.48405,-0.197241,-9.66262,1.14308,-9.13854,93.0864
2023-02-15 07:05:07:86,-1.48441,-0.189459,-9.66153,1.14412,-9.14119,93.0773
2023-02-15 07:05:07:96,-1.50236,-0.177298,-9.65336,1.14588,-9.14709,93.0665
2023-02-15 07:05:07:106,-1.50238,-0.188202,-9.65356,1.14806,-9.14747,93.0578
2023-02-15 07:05:07:116,-1.46898,-0.201886,-9.67307,1.15166,-9.14968,93.0438
2023-02-15 07:05:07:126,-1.43608,-0.207997,-9.65666,1.15608,-9.15332,93.032
2023-02-15 07:05:07:137,-1.42573,-0.224783,-9.64062,1.15839,-9.15847,93.0201
2023-02-15 07:05:07:146,-1.42821,-0.218444,-9.64444,1.15961,-9.16619,93.0116
2023-02-15 07:05:07:156,-1.45539,-0.197003,-9.66924,1.15903,-9.1769,93.0007
2023-02-15 07:05:07:166,-1.47555,-0.175134,-9.68058,1.15976,-9.18787,92.995
2023-02-15 07:05:07:176,-1.49104,-0.177611,-9.68901,1.16276,-9.20072,92.9892
2023-02-15 07:05:07:186,-1.49455,-0.182095,-9.66727,1.16196,-9.21231,92.9857
2023-02-15 07:05:07:197,-1.51115,-0.186001,-9.64298,1.16385,-9.22591,92.9853
2023-02-15 07:05:07:206,-1.5379,-0.179197,-9.64306,1.16566,-9.23913,92.9877
2023-02-15 07:05:07:216,-1.55862,-0.174417,-9.65601,1.17188,-9.25255,92.9899
2023-02-15 07:05:07:226,-1.58399,-0.179965,-9.64614,1.17499,-9.26408,92.9939
2023-02-15 07:05:07:236,-1.5952,-0.186862,-9.64567,1.1801,-9.27573,93.0014
2023-02-15 07:05:07:246,-1.61288,-0.193056,-9.62679,1.18766,-9.28441,93.0062
2023-02-15 07:05:07:256,-1.61927,-0.203263,-9.61969,1.19549,-9.29601,93.0128
2023-02-15 07:05:07:266,-1.60922,-0.217052,-9.6302,1.20347,-9.3051,93.0167
2023-02-15 07:05:07:277,-1.59851,-0.230032,-9.62968,1.20834,-9.31343,93.0171
2023-02-15 07:05:07:287,-1.61407,-0.209983,-9.61785,1.21347,-9.3195,93.0183
2023-02-15 07:05:07:296,-1.62654,-0.191771,-9.63599,1.21651,-9.327,93.0164
2023-02-15 07:05:07:306,-1.63723,-0.187653,-9.65253,1.21726,-9.33731,93.01
2023-02-15 07:05:07:316,-1.6443,-0.197973,-9.649,1.22,-9.34364,93.006
2023-02-15 07:05:07:326,-1.67041,-0.195383,-9.65458,1.22535,-9.34919,93.0009
2023-02-15 07:05:07:336,-1.67208,-0.179316,-9.66098,1.23156,-9.34943,92.9905
2023-02-15 07:05:07:347,-1.65469,-0.182742,-9.63858,1.23919,-9.35302,92.982
2023-02-15 07:05:07:357,-1.61439,-0.207871,-9.60413,1.24891,-9.35167,92.9721
2023-02-15 07:05:07:366,-1.5862,-0.22968,-9.59523,1.25978,-9.34941,92.9598
2023-02-15 07:05:07:377,-1.56163,-0.207854,-9.60502,1.26657,-9.34602,92.9439
2023-02-15 07:05:07:386,-1.54957,-0.203266,-9.6343,1.27197,-9.34502,92.9256
2023-02-15 07:05:07:397,-1.55777,-0.209653,-9.65065,1.27814,-9.34567,92.9061
2023-02-15 07:05:07:407,-1.53739,-0.209861,-9.68958,1.28598,-9.34591,92.89
2023-02-15 07:05:07:417,-1.50926,-0.189241,-9.74054,1.29354,-9.34435,92.8689
2023-02-15 07:05:07:426,-1.47948,-0.190349,-9.75066,1.30006,-9.34611,92.8524
2023-02-15 07:05:07:436,-1.48085,-0.236471,-9.69149,1.31467,-9.35065,92.8336
2023-02-15 07:05:07:446,-1.53858,-0.260888,-9.62203,1.33131,-9.36346,92.8241
2023-02-15 07:05:07:456,-1.56961,-0.264173,-9.58882,1.3445,-9.37284,92.8133
2023-02-15 07:05:07:466,-1.55206,-0.256158,-9.56908,1.35314,-9.38252,92.8046
2023-02-15 07:05:07:476,-1.5332,-0.235852,-9.55696,1.35727,-9.3887,92.7986
2023-02-15 07:05:07:486,-1.5338,-0.220413,-9.58203,1.3553,-9.3952,92.7974
2023-02-15 07:05:07:497,-1.55504,-0.199552,-9.6203,1.34973,-9.40128,92.7972
2023-02-15 07:05:07:506,-1.58033,-0.173636,-9.64671,1.34488,-9.40894,92.7975
2023-02-15 07:05:07:517,-1.61611,-0.168321,-9.66259,1.34313,-9.4191,92.8009
2023-02-15 07:05:07:526,-1.63547,-0.176127,-9.64441,1.34467,-9.42636,92.8064
2023-02-15 07:05:07:537,-1.64091,-0.19673,-9.61317,1.3485,-9.42668,92.8126
2023-02-15 07:05:07:546,-1.63503,-0.222775,-9.59127,1.35232,-9.4244,92.8162
2023-02-15 07:05:07:557,-1.64245,-0.245551,-9.60211,1.3558,-9.42508,92.8194
2023-02-15 07:05:07:566,-1.65888,-0.258069,-9.61316,1.36195,-9.42439,92.8226
2023-02-15 07:05:07:576,-1.64903,-0.263129,-9.64603,1.35996,-9.42278,92.8215
2023-02-15 07:05:07:586,-1.63185,-0.24324,-9.67731,1.35905,-9.41924,92.8225
2023-02-15 07:05:07:597,-1.6176,-0.231115,-9.67564,1.36045,-9.41503,92.8201
2023-02-15 07:05:07:607,-1.61842,-0.23663,-9.68348,1.36287,-9.41043,92.8167
2023-02-15 07:05:07:617,-1.62062,-0.228025,-9.69008,1.36337,-9.40739,92.816
2023-02-15 07:05:07:626,-1.60751,-0.218889,-9.66056,1.36424,-9.40358,92.8133
2023-02-15 07:05:07:637,-1.58173,-0.242537,-9.62037,1.36779,-9.39706,92.8102
2023-02-15 07:05:07:646,-1.59566,-0.249252,-9.62717,1.37166,-9.39205,92.8098
2023-02-15 07:05:07:657,-1.61674,-0.236862,-9.6413,1.37306,-9.38463,92.8089
2023-02-15 07:05:07:666,-1.58988,-0.229116,-9.65687,1.37784,-9.37935,92.7988
2023-02-15 07:05:07:677,-1.51613,-0.256817,-9.64598,1.38238,-9.37086,92.7896
2023-02-15 07:05:07:686,-1.51494,-0.281347,-9.6048,1.39023,-9.36412,92.7826
2023-02-15 07:05:07:697,-1.58076,-0.274066,-9.60286,1.39491,-9.36358,92.7787
2023-02-15 07:05:07:707,-1.60402,-0.276682,-9.62874,1.39961,-9.36328,92.7739
2023-02-15 07:05:07:717,-1.60938,-0.279162,-9.61682,1.40544,-9.35968,92.7686
2023-02-15 07:05:07:726,-1.61869,-0.269377,-9.62658,1.40841,-9.3535,92.7635
2023-02-15 07:05:07:736,-1.60914,-0.249885,-9.64626,1.40658,-9.34739,92.7577
2023-02-15 07:05:07:746,-1.60644,-0.238065,-9.65236,1.40434,-9.34233,92.7503
2023-02-15 07:05:07:757,-1.5862,-0.232106,-9.65008,1.40102,-9.33294,92.743
2023-02-15 07:05:07:766,-1.56647,-0.229338,-9.6559,1.40368,-9.32733,92.7334
2023-02-15 07:05:07:777,-1.54516,-0.23756,-9.65252,1.40343,-9.32013,92.7246
2023-02-15 07:05:07:787,-1.52197,-0.245487,-9.63235,1.40699,-9.31327,92.7124
2023-02-15 07:05:07:796,-1.50569,-0.253429,-9.613,1.40725,-9.30926,92.7039
2023-02-15 07:05:07:807,-1.51496,-0.266768,-9.61656,1.409,-9.30124,92.6953
2023-02-15 07:05:07:816,-1.54061,-0.261707,-9.64457,1.40644,-9.29593,92.6872
2023-02-15 07:05:07:826,-1.54447,-0.260697,-9.64364,1.40384,-9.29503,92.6809
2023-02-15 07:05:07:836,-1.54545,-0.265952,-9.63924,1.40408,-9.29184,92.6762
2023-02-15 07:05:07:846,-1.54438,-0.26908,-9.64954,1.40587,-9.29257,92.671
2023-02-15 07:05:07:857,-1.54325,-0.27142,-9.66179,1.40691,-9.2952,92.6686
2023-02-15 07:05:07:866,-1.54527,-0.264801,-9.65621,1.40814,-9.2955,92.6664
2023-02-15 07:05:07:877,-1.56471,-0.274311,-9.65109,1.40752,-9.29548,92.6683
2023-02-15 07:05:07:886,-1.57177,-0.266069,-9.64254,1.40507,-9.29616,92.6695
2023-02-15 07:05:07:897,-1.57399,-0.245694,-9.62995,1.40095,-9.29476,92.6743
2023-02-15 07:05:07:906,-1.59057,-0.252239,-9.61531,1.39854,-9.29351,92.6761
2023-02-15 07:05:07:917,-1.61532,-0.246994,-9.60923,1.39726,-9.28978,92.6777
2023-02-15 07:05:07:926,-1.63629,-0.230845,-9.60398,1.39396,-9.2877,92.6824
2023-02-15 07:05:07:937,-1.63686,-0.221744,-9.61879,1.38615,-9.28412,92.6869
2023-02-15 07:05:07:946,-1.62483,-0.217087,-9.62892,1.37865,-9.27853,92.684
2023-02-15 07:05:07:956,-1.61292,-0.220235,-9.64299,1.37262,-9.27285,92.6808
2023-02-15 07:05:07:966,-1.58483,-0.211653,-9.64406,1.36553,-9.26548,92.6775
2023-02-15 07:05:07:976,-1.57675,-0.212097,-9.6607,1.36438,-9.25799,92.6715
2023-02-15 07:05:07:986,-1.56052,-0.200012,-9.67448,1.35929,-9.25267,92.6635
2023-02-15 07:05:07:997,-1.5474,-0.190155,-9.66533,1.35722,-9.24669,92.6547
2023-02-15 07:05:08:6,-1.54667,-0.189822,-9.66363,1.35353,-9.24084,92.6465
2023-02-15 07:05:08:17,-1.56812,-0.183919,-9.66628,1.35283,-9.23325,92.6376
2023-02-15 07:05:08:27,-1.57501,-0.183341,-9.68464,1.35061,-9.22508,92.6291
2023-02-15 07:05:08:37,-1.55269,-0.183614,-9.68965,1.35285,-9.21743,92.6218
2023-02-15 07:05:08:46,-1.55988,-0.190746,-9.67842,1.35447,-9.2069,92.6123
2023-02-15 07:05:08:57,-1.5544,-0.186935,-9.67379,1.35568,-9.1987,92.6029
2023-02-15 07:05:08:67,-1.53203,-0.199087,-9.65984,1.35891,-9.19114,92.5935
2023-02-15 07:05:08:76,-1.50987,-0.206693,-9.63942,1.36529,-9.18271,92.581
2023-02-15 07:05:08:86,-1.486,-0.21929,-9.65268,1.37281,-9.17487,92.5712
2023-02-15 07:05:08:97,-1.49459,-0.223635,-9.65394,1.37976,-9.16797,92.5617
2023-02-15 07:05:08:106,-1.49432,-0.228848,-9.66472,1.38594,-9.16421,92.5543
2023-02-15 07:05:08:117,-1.49052,-0.244309,-9.65308,1.39393,-9.15942,92.5457
2023-02-15 07:05:08:126,-1.49357,-0.244705,-9.63121,1.39984,-9.15439,92.5378
2023-02-15 07:05:08:137,-1.50947,-0.247988,-9.63021,1.40653,-9.15094,92.532
2023-02-15 07:05:08:146,-1.53836,-0.249558,-9.6342,1.4113,-9.15006,92.5261
2023-02-15 07:05:08:157,-1.5289,-0.257815,-9.63458,1.415,-9.15009,92.5205
2023-02-15 07:05:08:167,-1.52649,-0.257247,-9.6347,1.42087,-9.15173,92.5153
2023-02-15 07:05:08:177,-1.53124,-0.246124,-9.63702,1.42137,-9.14882,92.5108
2023-02-15 07:05:08:187,-1.52208,-0.234987,-9.62849,1.42376,-9.14564,92.5085
2023-02-15 07:05:08:197,-1.52665,-0.240865,-9.64181,1.42252,-9.14263,92.5036
2023-02-15 07:05:08:206,-1.52588,-0.234136,-9.65249,1.4217,-9.13847,92.5012
2023-02-15 07:05:08:217,-1.52938,-0.221199,-9.66923,1.41868,-9.13548,92.4974
2023-02-15 07:05:08:226,-1.54399,-0.211416,-9.67831,1.41663,-9.13141,92.4969
2023-02-15 07:05:08:237,-1.53651,-0.209716,-9.67701,1.41513,-9.12527,92.4987
2023-02-15 07:05:08:247,-1.53234,-0.214797,-9.67094,1.41474,-9.11933,92.5009
2023-02-15 07:05:08:257,-1.52059,-0.237863,-9.65788,1.41815,-9.11254,92.4999
2023-02-15 07:05:08:266,-1.52367,-0.23675,-9.6486,1.42427,-9.10786,92.498
2023-02-15 07:05:08:277,-1.51302,-0.254698,-9.63751,1.43115,-9.10284,92.4975
2023-02-15 07:05:08:287,-1.51962,-0.270261,-9.62819,1.43619,-9.09629,92.4929
2023-02-15 07:05:08:297,-1.52203,-0.260683,-9.66433,1.43661,-9.09372,92.4897
2023-02-15 07:05:08:307,-1.50335,-0.250018,-9.7071,1.43801,-9.08962,92.4861
2023-02-15 07:05:08:316,-1.4634,-0.243502,-9.72686,1.43947,-9.08575,92.4824
2023-02-15 07:05:08:326,-1.44224,-0.267998,-9.70302,1.44403,-9.08274,92.4793
2023-02-15 07:05:08:336,-1.46058,-0.295332,-9.66009,1.4521,-9.08509,92.4777
2023-02-15 07:05:08:346,-1.49238,-0.285448,-9.63456,1.45659,-9.08818,92.4792
2023-02-15 07:05:08:357,-1.51259,-0.271283,-9.62582,1.45865,-9.09579,92.4815
2023-02-15 07:05:08:367,-1.53318,-0.256271,-9.60182,1.45833,-9.1,92.4823
2023-02-15 07:05:08:377,-1.51205,-0.263621,-9.59973,1.45609,-9.10167,92.4846
2023-02-15 07:05:08:387,-1.4892,-0.250053,-9.59841,1.45606,-9.10241,92.4896
2023-02-15 07:05:08:397,-1.47092,-0.234624,-9.61549,1.45201,-9.10598,92.4969
2023-02-15 07:05:08:407,-1.48556,-0.219643,-9.64665,1.44392,-9.10988,92.505
2023-02-15 07:05:08:417,-1.51748,-0.209485,-9.64823,1.43556,-9.11534,92.518
2023-02-15 07:05:08:427,-1.54077,-0.211552,-9.63419,1.42872,-9.11671,92.53
2023-02-15 07:05:08:437,-1.5352,-0.22709,-9.62223,1.42595,-9.12511,92.5425
2023-02-15 07:05:08:446,-1.53207,-0.243478,-9.62648,1.42161,-9.12664,92.5533
2023-02-15 07:05:08:457,-1.53857,-0.241287,-9.62286,1.42094,-9.13063,92.5625
2023-02-15 07:05:08:467,-1.52253,-0.236565,-9.61453,1.41732,-9.13604,92.5721
2023-02-15 07:05:08:476,-1.52867,-0.252968,-9.63102,1.41164,-9.1388,92.5776
2023-02-15 07:05:08:487,-1.50091,-0.245364,-9.64425,1.40146,-9.14671,92.5837
2023-02-15 07:05:08:497,-1.48043,-0.231849,-9.67034,1.39261,-9.1513,92.5922
2023-02-15 07:05:08:507,-1.50277,-0.215475,-9.68675,1.37921,-9.15205,92.6008
2023-02-15 07:05:08:517,-1.52613,-0.196641,-9.68638,1.36676,-9.15855,92.61
2023-02-15 07:05:08:527,-1.52716,-0.183638,-9.67354,1.35657,-9.16095,92.6212
2023-02-15 07:05:08:537,-1.55107,-0.17923,-9.66227,1.34595,-9.16337,92.6345
2023-02-15 07:05:08:547,-1.59094,-0.15882,-9.67453,1.33605,-9.16802,92.6476
2023-02-15 07:05:08:557,-1.61449,-0.14518,-9.6819,1.32773,-9.17427,92.6597
2023-02-15 07:05:08:567,-1.58679,-0.150707,-9.69352,1.32387,-9.17223,92.6698
2023-02-15 07:05:08:577,-1.52946,-0.170044,-9.66797,1.32689,-9.172,92.6766
2023-02-15 07:05:08:586,-1.53437,-0.180546,-9.63662,1.33208,-9.17322,92.6811
2023-02-15 07:05:08:596,-1.58548,-0.177548,-9.64999,1.33663,-9.17738,92.6841
2023-02-15 07:05:08:606,-1.61408,-0.191172,-9.65814,1.34152,-9.18477,92.6876
2023-02-15 07:05:08:617,-1.61219,-0.18814,-9.64957,1.34743,-9.19243,92.6864
2023-02-15 07:05:08:627,-1.58709,-0.18369,-9.65626,1.3528,-9.19877,92.6865
2023-02-15 07:05:08:637,-1.56626,-0.196443,-9.69976,1.35841,-9.20313,92.6841
2023-02-15 07:05:08:647,-1.56983,-0.189543,-9.71964,1.3655,-9.20764,92.6838
2023-02-15 07:05:08:657,-1.57297,-0.172288,-9.71694,1.37545,-9.20779,92.6818
2023-02-15 07:05:08:667,-1.58322,-0.175966,-9.71502,1.38508,-9.20454,92.6799
2023-02-15 07:05:08:677,-1.58223,-0.193583,-9.69165,1.39871,-9.20382,92.6774
2023-02-15 07:05:08:686,-1.56605,-0.200085,-9.67328,1.41444,-9.19949,92.6779
2023-02-15 07:05:08:697,-1.56645,-0.217107,-9.6555,1.42932,-9.19734,92.6737
2023-02-15 07:05:08:706,-1.54668,-0.249778,-9.64151,1.45063,-9.1946,92.6685
2023-02-15 07:05:08:717,-1.54043,-0.269471,-9.62799,1.47218,-9.19262,92.6628
2023-02-15 07:05:08:727,-1.53106,-0.281609,-9.62243,1.49502,-9.1926,92.6559
2023-02-15 07:05:08:737,-1.52176,-0.31261,-9.63,1.51737,-9.19744,92.6489
2023-02-15 07:05:08:747,-1.51594,-0.327832,-9.61854,1.53702,-9.19958,92.6415
2023-02-15 07:05:08:757,-1.53737,-0.346664,-9.60573,1.55574,-9.20641,92.6374
2023-02-15 07:05:08:767,-1.56569,-0.339427,-9.60125,1.5725,-9.21617,92.6349
2023-02-15 07:05:08:777,-1.57129,-0.356659,-9.61092,1.58754,-9.2215,92.6278
2023-02-15 07:05:08:787,-1.57106,-0.354731,-9.60039,1.59637,-9.22571,92.6236
2023-02-15 07:05:08:796,-1.57554,-0.345673,-9.58959,1.60664,-9.22606,92.6225
2023-02-15 07:05:08:806,-1.57552,-0.341204,-9.58207,1.61673,-9.22689,92.6244
2023-02-15 07:05:08:817,-1.57389,-0.334092,-9.59559,1.62291,-9.22954,92.6242
2023-02-15 07:05:08:827,-1.57809,-0.318066,-9.59612,1.6248,-9.23164,92.6252
2023-02-15 07:05:08:837,-1.58857,-0.318022,-9.61045,1.62143,-9.23313,92.6269
2023-02-15 07:05:08:847,-1.58817,-0.305559,-9.61036,1.62295,-9.23574,92.6261
2023-02-15 07:05:08:857,-1.58253,-0.295057,-9.61094,1.62198,-9.23761,92.6214
2023-02-15 07:05:08:867,-1.57752,-0.289464,-9.62416,1.62217,-9.23988,92.6175
2023-02-15 07:05:08:877,-1.59626,-0.264641,-9.64779,1.61522,-9.24308,92.6129
2023-02-15 07:05:08:887,-1.58962,-0.250245,-9.67324,1.61152,-9.24128,92.6078
2023-02-15 07:05:08:897,-1.5953,-0.245137,-9.66535,1.60696,-9.24334,92.6023
2023-02-15 07:05:08:907,-1.58638,-0.252396,-9.66126,1.60662,-9.24322,92.5972
2023-02-15 07:05:08:917,-1.56166,-0.254207,-9.64779,1.60758,-9.24129,92.5887
2023-02-15 07:05:08:927,-1.55291,-0.261949,-9.64419,1.60511,-9.23704,92.5788
2023-02-15 07:05:08:937,-1.53349,-0.257791,-9.63605,1.60213,-9.23261,92.5688
2023-02-15 07:05:08:947,-1.53231,-0.242173,-9.6484,1.59955,-9.2289,92.5608
2023-02-15 07:05:08:957,-1.53651,-0.247441,-9.67633,1.5968,-9.22845,92.5537
2023-02-15 07:05:08:967,-1.5376,-0.235478,-9.68426,1.59581,-9.22617,92.5482
2023-02-15 07:05:08:977,-1.54711,-0.232027,-9.68336,1.59652,-9.22339,92.5403
2023-02-15 07:05:08:987,-1.54908,-0.238427,-9.68176,1.59779,-9.21977,92.5315
2023-02-15 07:05:08:996,-1.56128,-0.246648,-9.68646,1.60274,-9.21625,92.5235
2023-02-15 07:05:09:6,-1.54439,-0.255427,-9.68262,1.61171,-9.21474,92.5125
2023-02-15 07:05:09:17,-1.54463,-0.259623,-9.67537,1.62184,-9.21379,92.5011
2023-02-15 07:05:09:27,-1.54316,-0.26234,-9.66418,1.62944,-9.21539,92.4926
2023-02-15 07:05:09:37,-1.54504,-0.283421,-9.6634,1.64267,-9.21735,92.4846
2023-02-15 07:05:09:47,-1.55042,-0.289936,-9.63515,1.65707,-9.21734,92.4725
2023-02-15 07:05:09:56,-1.54759,-0.295564,-9.61649,1.67047,-9.21646,92.462
2023-02-15 07:05:09:66,-1.54135,-0.298809,-9.60095,1.68459,-9.21424,92.4489
2023-02-15 07:05:09:77,-1.54349,-0.325646,-9.59844,1.69635,-9.21366,92.4378
2023-02-15 07:05:09:87,-1.54873,-0.331956,-9.60501,1.70347,-9.21339,92.4256
2023-02-15 07:05:09:96,-1.56328,-0.304371,-9.61368,1.71116,-9.21382,92.4145
2023-02-15 07:05:09:106,-1.55481,-0.297721,-9.62533,1.71747,-9.21573,92.4025
2023-02-15 07:05:09:117,-1.53995,-0.30469,-9.6459,1.71977,-9.21536,92.3908
2023-02-15 07:05:09:126,-1.57093,-0.295205,-9.6513,1.72217,-9.21265,92.3822
2023-02-15 07:05:09:137,-1.59599,-0.282269,-9.65671,1.72449,-9.20996,92.3685
2023-02-15 07:05:09:146,-1.60329,-0.277336,-9.66104,1.72685,-9.20581,92.3576
2023-02-15 07:05:09:157,-1.61361,-0.266542,-9.64353,1.73198,-9.20164,92.3448
2023-02-15 07:05:09:167,-1.61297,-0.278156,-9.62141,1.73632,-9.19803,92.3259
2023-02-15 07:05:09:177,-1.58169,-0.304039,-9.6117,1.74278,-9.19285,92.3015
2023-02-15 07:05:09:186,-1.63802,-0.316355,-9.60529,1.74996,-9.18782,92.2759
2023-02-15 07:05:09:197,-1.77247,-0.287916,-9.62056,1.75294,-9.18768,92.2493
2023-02-15 07:05:09:206,-2.02072,-0.215013,-9.66476,1.75274,-9.19329,92.2151
2023-02-15 07:05:09:217,-2.25401,-0.153048,-9.68341,1.76264,-9.20321,92.1543
2023-02-15 07:05:09:227,-2.24305,-0.149405,-9.70011,1.78117,-9.2107,92.0592
2023-02-15 07:05:09:237,-2.10606,-0.175613,-9.68623,1.80496,-9.21278,91.9236
2023-02-15 07:05:09:246,-1.96582,-0.22428,-9.64346,1.83534,-9.22052,91.7578
2023-02-15 07:05:09:257,-1.91542,-0.272349,-9.61055,1.86816,-9.23326,91.5643
2023-02-15 07:05:09:267,-1.91241,-0.262749,-9.63465,1.89753,-9.24626,91.3507
2023-02-15 07:05:09:277,-1.98411,-0.226776,-9.67475,1.92727,-9.26357,91.1196
2023-02-15 07:05:09:287,-2.18449,-0.179649,-9.71639,1.95713,-9.2829,90.8736
2023-02-15 07:05:09:297,-2.42477,-0.0895458,-9.74494,1.99431,-9.30246,90.6062
2023-02-15 07:05:09:306,-2.665,0.00265114,-9.76212,2.03963,-9.31902,90.3068
2023-02-15 07:05:09:317,-2.8617,0.0356726,-9.73168,2.10249,-9.32525,89.9541
2023-02-15 07:05:09:327,-2.92649,0.0185264,-9.66436,2.18401,-9.33032,89.5411
2023-02-15 07:05:09:337,-2.83359,-0.00504667,-9.62861,2.2826,-9.33573,89.0559
2023-02-15 07:05:09:347,-2.67223,-0.0413361,-9.6241,2.38909,-9.34282,88.4996
2023-02-15 07:05:09:357,-2.67534,-0.0523723,-9.64114,2.50505,-9.3594,87.8773
2023-02-15 07:05:09:367,-2.75969,-0.0136003,-9.66067,2.62641,-9.38426,87.1968
2023-02-15 07:05:09:376,-2.84424,-0.0115523,-9.65038,2.75671,-9.41656,86.4474
2023-02-15 07:05:09:387,-2.94999,0.0342479,-9.64131,2.89768,-9.44622,85.6365
2023-02-15 07:05:09:397,-2.90962,0.0758667,-9.68374,3.04585,-9.4713,84.7492
2023-02-15 07:05:09:407,-2.71933,0.032694,-9.72049,3.20731,-9.48306,83.792
2023-02-15 07:05:09:417,-2.45863,-0.0276647,-9.72404,3.38597,-9.48461,82.7721
2023-02-15 07:05:09:427,-2.27694,-0.0676059,-9.747,3.57055,-9.47929,81.699
2023-02-15 07:05:09:437,-2.21958,-0.0476719,-9.82634,3.76054,-9.47516,80.5825
2023-02-15 07:05:09:447,-2.20537,-0.000202231,-9.88816,3.96142,-9.47125,79.4329
2023-02-15 07:05:09:457,-2.09179,0.00229246,-9.8831,4.17822,-9.46603,78.2492
2023-02-15 07:05:09:467,-1.90595,-0.073058,-9.80927,4.41333,-9.45024,77.0301
2023-02-15 07:05:09:477,-1.62627,-0.190721,-9.71867,4.66798,-9.42549,75.7842
2023-02-15 07:05:09:487,-1.36646,-0.315335,-9.62385,4.93005,-9.39239,74.5277
2023-02-15 07:05:09:497,-1.21832,-0.444188,-9.62394,5.19188,-9.34918,73.2763
2023-02-15 07:05:09:506,-1.09783,-0.510153,-9.69134,5.44942,-9.30361,72.0352
2023-02-15 07:05:09:516,-1.12503,-0.530879,-9.7984,5.70285,-9.26298,70.8152
2023-02-15 07:05:09:527,-1.06674,-0.547654,-9.89209,5.95931,-9.22675,69.6066
2023-02-15 07:05:09:537,-0.860972,-0.668111,-9.83655,6.2286,-9.18833,68.4092
2023-02-15 07:05:09:547,-0.66065,-0.886823,-9.64227,6.51081,-9.15903,67.2341
2023-02-15 07:05:09:557,-0.54088,-1.06948,-9.46673,6.78619,-9.12452,66.096
2023-02-15 07:05:09:567,-0.584953,-1.16339,-9.4477,7.04141,-9.0926,65.0095
2023-02-15 07:05:09:577,-0.71884,-1.10549,-9.60315,7.27469,-9.05554,63.9752
2023-02-15 07:05:09:586,-0.86247,-1.02768,-9.75421,7.49675,-9.02041,62.9813
2023-02-15 07:05:09:597,-0.940418,-1.01847,-9.79289,7.72014,-8.97918,62.0276
2023-02-15 07:05:09:607,-0.94433,-1.12294,-9.66977,7.95888,-8.92704,61.107
2023-02-15 07:05:09:617,-0.846093,-1.28839,-9.46497,8.20204,-8.86308,60.22
2023-02-15 07:05:09:627,-0.745545,-1.46267,-9.29439,8.4441,-8.78788,59.3684
2023-02-15 07:05:09:637,-0.719726,-1.55605,-9.23064,8.66508,-8.70753,58.5584
2023-02-15 07:05:09:647,-0.732711,-1.60905,-9.31398,8.86318,-8.62599,57.7855
2023-02-15 07:05:09:657,-0.796342,-1.58413,-9.43689,9.04477,-8.54607,57.0533
2023-02-15 07:05:09:667,-0.904695,-1.58742,-9.43088,9.21315,-8.46744,56.3508
2023-02-15 07:05:09:677,-0.99713,-1.6466,-9.38514,9.37823,-8.38787,55.6821
2023-02-15 07:05:09:687,-0.979951,-1.66504,-9.43855,9.52914,-8.30182,55.0426
2023-02-15 07:05:09:697,-0.926235,-1.69278,-9.44132,9.66836,-8.21451,54.4233
2023-02-15 07:05:09:707,-0.973254,-1.74881,-9.38569,9.80601,-8.12924,53.8276
2023-02-15 07:05:09:717,-0.98343,-1.77507,-9.37035,9.93294,-8.04457,53.2531
2023-02-15 07:05:09:727,-0.945726,-1.80299,-9.39625,10.0522,-7.9571,52.6947
2023-02-15 07:05:09:737,-0.971655,-1.83141,-9.34845,10.1581,-7.87325,52.1524
2023-02-15 07:05:09:747,-1.03481,-1.8583,-9.28597,10.2547,-7.7939,51.6271
2023-02-15 07:05:09:757,-1.06662,-1.84046,-9.31997,10.3352,-7.72228,51.1154
2023-02-15 07:05:09:767,-1.02696,-1.81183,-9.41541,10.399,-7.6478,50.6151
2023-02-15 07:05:09:777,-0.943928,-1.82985,-9.45919,10.4614,-7.57229,50.1243
2023-02-15 07:05:09:787,-0.903045,-1.86522,-9.44223,10.5149,-7.50299,49.6456
2023-02-15 07:05:09:797,-0.852124,-1.8851,-9.42481,10.5643,-7.43366,49.1745
2023-02-15 07:05:09:807,-0.857652,-1.90749,-9.37514,10.6082,-7.3791,48.7201
2023-02-15 07:05:09:817,-0.918101,-1.89636,-9.38309,10.6405,-7.32766,48.2842
2023-02-15 07:05:09:827,-0.957484,-1.84709,-9.44728,10.6629,-7.28185,47.8654
2023-02-15 07:05:09:837,-1.03454,-1.80003,-9.48469,10.6727,-7.23714,47.4581
2023-02-15 07:05:09:847,-1.02316,-1.78425,-9.49788,10.6834,-7.1931,47.0571
2023-02-15 07:05:09:857,-0.883484,-1.81271,-9.50495,10.6927,-7.14565,46.6622
2023-02-15 07:05:09:867,-0.760137,-1.82,-9.53688,10.6972,-7.09561,46.2831
2023-02-15 07:05:09:877,-0.652509,-1.8002,-9.61616,10.7012,-7.05199,45.9175
2023-02-15 07:05:09:887,-0.620937,-1.78692,-9.63229,10.7006,-7.0208,45.5685
2023-02-15 07:05:09:897,-0.710183,-1.79844,-9.56087,10.7004,-7.00294,45.2419
2023-02-15 07:05:09:907,-0.843228,-1.81202,-9.47597,10.7,-6.99378,44.9391
2023-02-15 07:05:09:917,-0.880135,-1.82347,-9.44047,10.6925,-6.97793,44.6523
2023-02-15 07:05:09:927,-0.814686,-1.84776,-9.46489,10.6811,-6.95588,44.3817
2023-02-15 07:05:09:937,-0.788909,-1.83255,-9.48934,10.6642,-6.93227,44.1316
2023-02-15 07:05:09:947,-0.864985,-1.78516,-9.53594,10.6423,-6.91628,43.9
2023-02-15 07:05:09:957,-0.897683,-1.72491,-9.62111,10.6188,-6.90371,43.6805
2023-02-15 07:05:09:967,-0.921835,-1.68608,-9.65823,10.5977,-6.89436,43.4712
2023-02-15 07:05:09:977,-0.984039,-1.64742,-9.67246,10.5778,-6.88455,43.2745
2023-02-15 07:05:09:987,-1.0458,-1.62808,-9.68774,10.5653,-6.87472,43.0889
2023-02-15 07:05:09:997,-1.03796,-1.64999,-9.68032,10.5606,-6.86035,42.9076
2023-02-15 07:05:10:7,-0.981055,-1.68355,-9.64853,10.5617,-6.84318,42.7288
2023-02-15 07:05:10:16,-0.936555,-1.72188,-9.60092,10.5688,-6.82645,42.5583
2023-02-15 07:05:10:27,-0.892013,-1.74163,-9.57548,10.5783,-6.81322,42.3939
2023-02-15 07:05:10:37,-0.83694,-1.74833,-9.59501,10.582,-6.8029,42.2405
2023-02-15 07:05:10:47,-0.848681,-1.73585,-9.63935,10.5886,-6.79576,42.0988
2023-02-15 07:05:10:57,-0.964952,-1.70786,-9.60045,10.5907,-6.79584,41.9685
2023-02-15 07:05:10:67,-1.0649,-1.69819,-9.57795,10.5976,-6.79953,41.8427
2023-02-15 07:05:10:77,-1.04775,-1.68502,-9.57584,10.6082,-6.79645,41.7241
2023-02-15 07:05:10:87,-1.01967,-1.70904,-9.59387,10.6194,-6.79815,41.6037
2023-02-15 07:05:10:97,-1.01848,-1.73018,-9.58112,10.6342,-6.79922,41.4848
2023-02-15 07:05:10:107,-1.03601,-1.73235,-9.54919,10.6505,-6.80268,41.3717
2023-02-15 07:05:10:117,-0.998071,-1.77389,-9.53298,10.6665,-6.80732,41.2631
2023-02-15 07:05:10:127,-0.960802,-1.79401,-9.52418,10.6819,-6.80935,41.1599
2023-02-15 07:05:10:137,-1.04953,-1.76504,-9.53565,10.6904,-6.81655,41.0642
2023-02-15 07:05:10:147,-1.16646,-1.73934,-9.54479,10.6996,-6.82573,40.9712
2023-02-15 07:05:10:156,-1.19794,-1.74261,-9.51913,10.7129,-6.8285,40.8813
2023-02-15 07:05:10:167,-1.17368,-1.77286,-9.49302,10.7297,-6.82571,40.7877
2023-02-15 07:05:10:177,-1.14304,-1.81317,-9.46237,10.7447,-6.81904,40.6949
2023-02-15 07:05:10:187,-1.19523,-1.82224,-9.49116,10.7586,-6.81567,40.6039
2023-02-15 07:05:10:197,-1.20578,-1.78769,-9.58423,10.7655,-6.81115,40.5063
2023-02-15 07:05:10:207,-1.09981,-1.80193,-9.62317,10.7742,-6.80328,40.4039
2023-02-15 07:05:10:217,-1.05938,-1.82516,-9.60263,10.7885,-6.80083,40.2994
2023-02-15 07:05:10:227,-1.13346,-1.80558,-9.57534,10.8016,-6.80001,40.1946
2023-02-15 07:05:10:237,-1.17722,-1.7839,-9.55714,10.8161,-6.80444,40.0865
2023-02-15 07:05:10:247,-1.17737,-1.80511,-9.54209,10.832,-6.80211,39.9812
2023-02-15 07:05:10:257,-1.19712,-1.78393,-9.5183,10.8485,-6.80155,39.8736
2023-02-15 07:05:10:267,-1.22304,-1.76944,-9.52054,10.8639,-6.79871,39.7635
2023-02-15 07:05:10:277,-1.13449,-1.8174,-9.51757,10.8819,-6.79468,39.6519
2023-02-15 07:05:10:287,-1.00708,-1.88071,-9.47947,10.898,-6.7961,39.5425
2023-02-15 07:05:10:297,-1.08359,-1.84995,-9.47809,10.9118,-6.80845,39.438
2023-02-15 07:05:10:307,-1.14778,-1.79669,-9.54342,10.9198,-6.81855,39.3373
2023-02-15 07:05:10:317,-1.14965,-1.81316,-9.54827,10.934,-6.8236,39.236
2023-02-15 07:05:10:327,-1.11646,-1.87108,-9.48226,10.9546,-6.81849,39.136
2023-02-15 07:05:10:337,-1.07775,-1.91538,-9.43976,10.9713,-6.81677,39.0412
2023-02-15 07:05:10:347,-1.10528,-1.89363,-9.44501,10.98,-6.8153,38.9503
2023-02-15 07:05:10:357,-1.11499,-1.87095,-9.44527,10.9834,-6.81124,38.8642
2023-02-15 07:05:10:367,-1.07523,-1.89842,-9.45464,10.9884,-6.80021,38.7828
2023-02-15 07:05:10:377,-1.02794,-1.91316,-9.46609,10.9888,-6.78984,38.7077
2023-02-15 07:05:10:387,-0.964981,-1.91372,-9.46959,10.986,-6.77616,38.6424
2023-02-15 07:05:10:397,-0.932656,-1.91009,-9.47854,10.9727,-6.76477,38.5857
2023-02-15 07:05:10:407,-0.94145,-1.8861,-9.5276,10.9572,-6.74967,38.5397
2023-02-15 07:05:10:417,-1.00201,-1.83645,-9.55123,10.9336,-6.73741,38.5043
2023-02-15 07:05:10:427,-1.04954,-1.80387,-9.53419,10.912,-6.73077,38.4734
2023-02-15 07:05:10:437,-1.09386,-1.79767,-9.52889,10.8933,-6.72217,38.4487
2023-02-15 07:05:10:447,-1.14862,-1.77823,-9.52062,10.8726,-6.71347,38.4294
2023-02-15 07:05:10:457,-1.08869,-1.76676,-9.56521,10.8474,-6.70172,38.4112
2023-02-15 07:05:10:467,-0.965032,-1.76959,-9.60593,10.8256,-6.68655,38.3929
2023-02-15 07:05:10:477,-0.94829,-1.78426,-9.60644,10.8052,-6.67538,38.3806
2023-02-15 07:05:10:487,-1.00116,-1.80035,-9.56952,10.7897,-6.66856,38.3734
2023-02-15 07:05:10:497,-1.00334,-1.81673,-9.5622,10.7758,-6.66254,38.3698
2023-02-15 07:05:10:507,-0.95772,-1.82066,-9.5853,10.7634,-6.65885,38.372
2023-02-15 07:05:10:517,-0.97591,-1.80228,-9.58244,10.748,-6.6555,38.3799
2023-02-15 07:05:10:527,-1.04479,-1.78579,-9.54991,10.7346,-6.65632,38.3989
2023-02-15 07:05:10:537,-1.08072,-1.77136,-9.55797,10.7206,-6.65874,38.4224
2023-02-15 07:05:10:547,-1.03422,-1.76606,-9.56083,10.7099,-6.65943,38.4507
2023-02-15 07:05:10:557,-1.02171,-1.75917,-9.55053,10.6973,-6.65762,38.4807
2023-02-15 07:05:10:567,-0.991501,-1.7592,-9.5769,10.6844,-6.65474,38.5151
2023-02-15 07:05:10:577,-0.940821,-1.76571,-9.60287,10.6683,-6.65445,38.5555
2023-02-15 07:05:10:587,-0.948206,-1.75004,-9.59793,10.6535,-6.65607,38.6046
2023-02-15 07:05:10:597,-1.0245,-1.74083,-9.55335,10.6428,-6.65824,38.6554
2023-02-15 07:05:10:606,-1.04301,-1.75666,-9.5461,10.6349,-6.66134,38.7143
2023-02-15 07:05:10:616,-0.94664,-1.77823,-9.56257,10.6272,-6.65796,38.7767
2023-02-15 07:05:10:627,-0.859289,-1.80939,-9.56487,10.6216,-6.65394,38.842
2023-02-15 07:05:10:637,-0.818771,-1.84414,-9.53022,10.618,-6.65182,38.9185
2023-02-15 07:05:10:647,-0.739739,-1.88317,-9.51307,10.6101,-6.65773,39.0002
2023-02-15 07:05:10:657,-0.701685,-1.88122,-9.52111,10.595,-6.66974,39.0969
2023-02-15 07:05:10:667,-0.702746,-1.86253,-9.5509,10.5755,-6.68518,39.212
2023-02-15 07:05:10:677,-0.721425,-1.84296,-9.57004,10.5546,-6.70802,39.3397
2023-02-15 07:05:10:687,-0.782729,-1.83573,-9.54362,10.5335,-6.73495,39.4849
2023-02-15 07:05:10:697,-0.867889,-1.8159,-9.51435,10.5102,-6.76609,39.6482
2023-02-15 07:05:10:707,-0.948112,-1.79103,-9.4875,10.4856,-6.80162,39.8233
2023-02-15 07:05:10:717,-1.05045,-1.78126,-9.46117,10.4609,-6.83945,40.0084
2023-02-15 07:05:10:727,-1.09692,-1.76391,-9.43431,10.4261,-6.8795,40.2024
2023-02-15 07:05:10:737,-1.0306,-1.77457,-9.44769,10.3915,-6.91105,40.4044
2023-02-15 07:05:10:747,-0.984678,-1.76263,-9.50269,10.3457,-6.94613,40.6137
2023-02-15 07:05:10:757,-1.00273,-1.70367,-9.60132,10.2993,-6.98111,40.8378
2023-02-15 07:05:10:767,-0.943187,-1.68291,-9.67761,10.2507,-7.01447,41.068
2023-02-15 07:05:10:777,-0.807691,-1.7236,-9.63904,10.2065,-7.04895,41.3065
2023-02-15 07:05:10:787,-0.617046,-1.76596,-9.572,10.1661,-7.08323,41.5619
2023-02-15 07:05:10:797,-0.340646,-1.80903,-9.559,10.1202,-7.11448,41.8416
2023-02-15 07:05:10:807,-0.0135823,-1.85837,-9.53985,10.066,-7.15014,42.1647
2023-02-15 07:05:10:817,0.341024,-1.93087,-9.49197,10.0077,-7.18246,42.5386
2023-02-15 07:05:10:827,0.699645,-1.99248,-9.40329,9.9359,-7.21762,42.9916
2023-02-15 07:05:10:837,0.999375,-2.04814,-9.27848,9.84321,-7.25328,43.5407
2023-02-15 07:05:10:847,1.23747,-2.0653,-9.15849,9.72246,-7.28975,44.2053
2023-02-15 07:05:10:857,1.38399,-2.0112,-9.14746,9.565,-7.32748,45.0025
2023-02-15 07:05:10:867,1.38766,-1.86202,-9.24386,9.36919,-7.36862,45.9413
2023-02-15 07:05:10:877,1.19858,-1.63354,-9.38855,9.13661,-7.40736,47.0264
2023-02-15 07:05:10:887,0.865528,-1.3779,-9.53293,8.87628,-7.44193,48.254
2023-02-15 07:05:10:897,0.56835,-1.17018,-9.61936,8.60305,-7.46394,49.6077
2023-02-15 07:05:10:907,0.419865,-0.998945,-9.6948,8.32062,-7.46572,51.0643
2023-02-15 07:05:10:917,0.374222,-0.840014,-9.71865,8.03393,-7.44366,52.6228
2023-02-15 07:05:10:927,0.364926,-0.717902,-9.65433,7.75206,-7.4044,54.2694
2023-02-15 07:05:10:937,0.208029,-0.631654,-9.52312,7.45924,-7.35721,56.0046
2023-02-15 07:05:10:947,-0.047206,-0.494239,-9.47708,7.15427,-7.30252,57.8201
2023-02-15 07:05:10:957,-0.297673,-0.290251,-9.63415,6.82693,-7.23686,59.7011
2023-02-15 07:05:10:967,-0.576905,-0.0453054,-9.86304,6.48492,-7.16653,61.6312
2023-02-15 07:05:10:977,-0.853998,0.155,-10.0799,6.14476,-7.08772,63.5949
2023-02-15 07:05:10:987,-1.02983,0.356632,-10.338,5.82019,-7.00189,65.5787
2023-02-15 07:05:10:997,-1.23872,0.578378,-10.5034,5.51697,-6.91862,67.5644
2023-02-15 07:05:11:7,-1.50637,0.657108,-10.4565,5.2567,-6.84193,69.5345
2023-02-15 07:05:11:17,-1.76235,0.619705,-10.1887,5.03759,-6.77457,71.4786
2023-02-15 07:05:11:27,-1.93152,0.49753,-9.87874,4.85188,-6.70903,73.3864
2023-02-15 07:05:11:37,-1.95042,0.365896,-9.63896,4.6804,-6.64292,75.2488
2023-02-15 07:05:11:46,-2.05455,0.302945,-9.60331,4.50619,-6.58061,77.0662
2023-02-15 07:05:11:56,-2.32642,0.410219,-9.71106,4.32405,-6.52948,78.8327
2023-02-15 07:05:11:67,-2.58905,0.500382,-9.79302,4.13946,-6.48595,80.5359
2023-02-15 07:05:11:77,-2.7657,0.48826,-9.80629,3.96899,-6.44485,82.1556
2023-02-15 07:05:11:87,-2.85795,0.438851,-9.79379,3.81436,-6.40851,83.6846
2023-02-15 07:05:11:97,-2.85421,0.360244,-9.75765,3.67398,-6.36742,85.119
2023-02-15 07:05:11:106,-2.81793,0.265834,-9.68338,3.54585,-6.32564,86.4541
2023-02-15 07:05:11:116,-2.71477,0.17165,-9.61402,3.42447,-6.28622,87.687
2023-02-15 07:05:11:127,-2.52385,0.0722797,-9.56861,3.30532,-6.24859,88.8301
2023-02-15 07:05:11:137,-2.38709,0.00647516,-9.5331,3.18887,-6.2191,89.8864
2023-02-15 07:05:11:147,-2.3389,-0.0245493,-9.55617,3.06394,-6.20253,90.8615
2023-02-15 07:05:11:157,-2.39227,-0.0198763,-9.59143,2.92931,-6.19458,91.7618
2023-02-15 07:05:11:167,-2.46773,-0.0104456,-9.67403,2.79028,-6.19817,92.5887
2023-02-15 07:05:11:177,-2.49827,0.0582467,-9.78793,2.65362,-6.20861,93.3368
2023-02-15 07:05:11:187,-2.48199,0.0774688,-9.82219,2.52945,-6.22644,94.0116
2023-02-15 07:05:11:197,-2.40505,0.0364245,-9.78448,2.41841,-6.24838,94.6034
2023-02-15 07:05:11:207,-2.22458,-0.0267255,-9.74052,2.32123,-6.27252,95.1207
2023-02-15 07:05:11:217,-1.98193,-0.0655838,-9.73028,2.23177,-6.29848,95.5668
2023-02-15 07:05:11:227,-1.73524,-0.0997443,-9.736,2.14709,-6.33052,95.957
2023-02-15 07:05:11:237,-1.57159,-0.153496,-9.73977,2.06747,-6.38279,96.2996
2023-02-15 07:05:11:247,-1.50605,-0.183639,-9.71254,1.98862,-6.44067,96.6074
2023-02-15 07:05:11:257,-1.55197,-0.194682,-9.64489,1.91416,-6.50445,96.8924
2023-02-15 07:05:11:267,-1.64668,-0.178042,-9.59254,1.83749,-6.57118,97.1527
2023-02-15 07:05:11:277,-1.70959,-0.183574,-9.60931,1.75725,-6.63496,97.3895
2023-02-15 07:05:11:287,-1.74007,-0.171101,-9.6433,1.67593,-6.69182,97.6003
2023-02-15 07:05:11:297,-1.75676,-0.141472,-9.66746,1.59688,-6.74427,97.787
2023-02-15 07:05:11:307,-1.69978,-0.120222,-9.75281,1.51774,-6.79653,97.9428
2023-02-15 07:05:11:317,-1.58778,-0.0996105,-9.87208,1.44351,-6.84147,98.0669
2023-02-15 07:05:11:327,-1.51855,-0.0678305,-9.91281,1.37608,-6.89301,98.164
2023-02-15 07:05:11:337,-1.43897,-0.0715272,-9.86704,1.32166,-6.94746,98.2398
2023-02-15 07:05:11:347,-1.40586,-0.123038,-9.74994,1.28124,-7.00412,98.2986
2023-02-15 07:05:11:357,-1.45157,-0.174032,-9.66585,1.24368,-7.06852,98.3468
2023-02-15 07:05:11:367,-1.51651,-0.169398,-9.61204,1.20826,-7.13591,98.3865
2023-02-15 07:05:11:377,-1.50743,-0.152396,-9.63235,1.16925,-7.20117,98.4146
2023-02-15 07:05:11:387,-1.46381,-0.15405,-9.66217,1.13197,-7.25638,98.4304
2023-02-15 07:05:11:397,-1.4546,-0.177318,-9.66541,1.09387,-7.30911,98.4328
2023-02-15 07:05:11:407,-1.4198,-0.183558,-9.69666,1.05492,-7.36494,98.4283
2023-02-15 07:05:11:417,-1.35418,-0.170583,-9.76404,1.01606,-7.42005,98.4141
2023-02-15 07:05:11:427,-1.31557,-0.145723,-9.79645,0.981219,-7.47583,98.3968
2023-02-15 07:05:11:437,-1.32877,-0.147674,-9.78852,0.950019,-7.53229,98.3789
2023-02-15 07:05:11:447,-1.3258,-0.168139,-9.72977,0.925598,-7.58394,98.3656
2023-02-15 07:05:11:457,-1.29557,-0.184898,-9.68025,0.905643,-7.62875,98.3584
2023-02-15 07:05:11:467,-1.27372,-0.200142,-9.64169,0.884546,-7.66734,98.3518
2023-02-15 07:05:11:477,-1.23575,-0.219145,-9.6131,0.86871,-7.70449,98.3536
2023-02-15 07:05:11:487,-1.24866,-0.209979,-9.58801,0.845004,-7.73775,98.3627
2023-02-15 07:05:11:497,-1.30507,-0.188978,-9.5855,0.818979,-7.76257,98.3758
2023-02-15 07:05:11:507,-1.27917,-0.18768,-9.58496,0.789636,-7.78137,98.3949
2023-02-15 07:05:11:517,-1.23405,-0.194929,-9.6125,0.757768,-7.79681,98.413
2023-02-15 07:05:11:527,-1.17791,-0.174285,-9.67236,0.719333,-7.81367,98.4332
2023-02-15 07:05:11:537,-1.12638,-0.15477,-9.71268,0.679442,-7.83435,98.4531
2023-02-15 07:05:11:547,-1.12844,-0.149014,-9.7148,0.644454,-7.85935,98.4793
2023-02-15 07:05:11:556,-1.1159,-0.151847,-9.71857,0.604635,-7.89119,98.511
2023-02-15 07:05:11:566,-1.01701,-0.136566,-9.74304,0.560024,-7.92426,98.5453
2023-02-15 07:05:11:576,-0.973662,-0.136719,-9.75495,0.521614,-7.96436,98.5894
2023-02-15 07:05:11:587,-1.01104,-0.132573,-9.69362,0.482861,-8.01411,98.6446
2023-02-15 07:05:11:597,-1.0665,-0.115676,-9.65158,0.439489,-8.07221,98.7127
2023-02-15 07:05:11:607,-1.10007,-0.0966167,-9.66219,0.394648,-8.13983,98.7904
2023-02-15 07:05:11:617,-1.13143,-0.0765464,-9.69824,0.345874,-8.21192,98.8803
2023-02-15 07:05:11:627,-1.19585,-0.0626208,-9.69788,0.294533,-8.29081,98.9791
2023-02-15 07:05:11:637,-1.17719,-0.0580033,-9.69291,0.247737,-8.36747,99.0892
2023-02-15 07:05:11:647,-0.944712,-0.0357377,-9.77116,0.200129,-8.44409,99.2038
2023-02-15 07:05:11:657,-0.78832,-0.0329204,-9.85121,0.156688,-8.52266,99.3355
2023-02-15 07:05:11:667,-0.915807,-0.0221596,-9.81008,0.117247,-8.61156,99.4971
2023-02-15 07:05:11:677,-1.12995,-0.00725702,-9.7266,0.0798459,-8.70465,99.6897
2023-02-15 07:05:11:687,-1.25913,-0.0240875,-9.66698,0.0466459,-8.79833,99.9042
2023-02-15 07:05:11:697,-1.33363,-0.0316971,-9.59962,0.0137294,-8.88517,100.137
2023-02-15 07:05:11:707,-1.35996,-0.0488957,-9.5728,-0.0231605,-8.96113,100.387
2023-02-15 07:05:11:717,-1.31187,-0.0480158,-9.6069,-0.0597113,-9.02961,100.648
2023-02-15 07:05:11:727,-1.33657,-0.0111112,-9.65382,-0.101367,-9.09688,100.921
2023-02-15 07:05:11:737,-1.42455,0.0404664,-9.69675,-0.145784,-9.16592,101.206
2023-02-15 07:05:11:747,-1.24478,0.0961701,-9.81179,-0.190266,-9.22889,101.5
2023-02-15 07:05:11:757,-1.02664,0.13554,-9.88543,-0.231966,-9.29215,101.801
2023-02-15 07:05:11:767,-1.1292,0.134549,-9.82195,-0.266,-9.36219,102.129
2023-02-15 07:05:11:777,-1.34959,0.122786,-9.71368,-0.291759,-9.44408,102.48
2023-02-15 07:05:11:787,-1.57313,0.13502,-9.64235,-0.316548,-9.53119,102.845
2023-02-15 07:05:11:797,-1.81641,0.176804,-9.63629,-0.344847,-9.6147,103.219
2023-02-15 07:05:11:807,-2.05736,0.236628,-9.66175,-0.369795,-9.70019,103.59
2023-02-15 07:05:11:817,-2.17455,0.278902,-9.70391,-0.387408,-9.78232,103.936
2023-02-15 07:05:11:827,-2.09067,0.306922,-9.7348,-0.397521,-9.86143,104.256
2023-02-15 07:05:11:837,-1.86461,0.300036,-9.79864,-0.396304,-9.94984,104.542
2023-02-15 07:05:11:847,-1.81853,0.327205,-9.85363,-0.391492,-10.0604,104.8
2023-02-15 07:05:11:857,-2.03096,0.366722,-9.79026,-0.375762,-10.204,105.036
2023-02-15 07:05:11:867,-2.22309,0.334113,-9.67357,-0.348409,-10.3732,105.244
2023-02-15 07:05:11:877,-2.32845,0.269577,-9.59513,-0.309229,-10.5591,105.414
2023-02-15 07:05:11:887,-2.37456,0.242026,-9.57852,-0.267052,-10.7544,105.55
2023-02-15 07:05:11:897,-2.29239,0.255328,-9.62587,-0.219385,-10.9539,105.649
2023-02-15 07:05:11:907,-2.09027,0.240635,-9.67011,-0.163391,-11.1619,105.706
2023-02-15 07:05:11:917,-1.90709,0.215181,-9.69676,-0.101335,-11.3854,105.729
2023-02-15 07:05:11:927,-1.84567,0.205144,-9.73216,-0.0341578,-11.6353,105.729
2023-02-15 07:05:11:937,-2.02363,0.185681,-9.68891,0.0475898,-11.9135,105.716
2023-02-15 07:05:11:947,-2.35514,0.151173,-9.55102,0.143196,-12.2129,105.692
2023-02-15 07:05:11:957,-2.58234,0.128974,-9.52574,0.243917,-12.5135,105.653
2023-02-15 07:05:11:967,-2.61827,0.16224,-9.64873,0.35437,-12.799,105.589
2023-02-15 07:05:11:977,-2.61903,0.212441,-9.70887,0.476641,-13.0824,105.496
2023-02-15 07:05:11:987,-2.52965,0.152088,-9.67038,0.625653,-13.3684,105.372
2023-02-15 07:05:11:997,-2.33937,0.0264383,-9.56022,0.796098,-13.658,105.218
2023-02-15 07:05:12:7,-2.2576,-0.0921461,-9.40141,0.980234,-13.9547,105.045
2023-02-15 07:05:12:17,-2.2965,-0.193073,-9.26366,1.17043,-14.2663,104.858
2023-02-15 07:05:12:27,-2.37688,-0.255917,-9.2682,1.35392,-14.5899,104.662
2023-02-15 07:05:12:37,-2.54915,-0.218517,-9.39798,1.52409,-14.9191,104.462
2023-02-15 07:05:12:47,-2.70936,-0.136597,-9.52511,1.69876,-15.2481,104.251
2023-02-15 07:05:12:57,-2.81882,-0.12643,-9.5616,1.88129,-15.5759,104.022
2023-02-15 07:05:12:67,-2.87513,-0.189248,-9.45097,2.08272,-15.8912,103.773
2023-02-15 07:05:12:76,-2.8024,-0.302235,-9.30345,2.29935,-16.2031,103.505
2023-02-15 07:05:12:87,-2.68749,-0.404688,-9.18524,2.51546,-16.5048,103.227
2023-02-15 07:05:12:97,-2.71293,-0.477458,-9.11847,2.72476,-16.8049,102.95
2023-02-15 07:05:12:107,-2.83433,-0.481077,-9.09242,2.91926,-17.1095,102.675
2023-02-15 07:05:12:117,-2.91233,-0.472574,-9.13881,3.10606,-17.4068,102.401
2023-02-15 07:05:12:127,-2.9601,-0.43506,-9.27119,3.28369,-17.6973,102.13
2023-02-15 07:05:12:137,-3.09907,-0.36901,-9.38889,3.46329,-17.9777,101.861
2023-02-15 07:05:12:147,-3.20232,-0.346938,-9.41048,3.65216,-18.2432,101.593
2023-02-15 07:05:12:157,-3.2335,-0.419671,-9.33862,3.8622,-18.499,101.318
2023-02-15 07:05:12:167,-3.27184,-0.508986,-9.21303,4.08808,-18.7407,101.04
2023-02-15 07:05:12:177,-3.2545,-0.58973,-9.11201,4.32546,-18.9739,100.757
2023-02-15 07:05:12:187,-3.25751,-0.667341,-9.07174,4.56488,-19.1918,100.471
2023-02-15 07:05:12:197,-3.30979,-0.705512,-9.04933,4.80878,-19.4055,100.185
2023-02-15 07:05:12:207,-3.20739,-0.717967,-9.07964,5.05502,-19.611,99.8947
2023-02-15 07:05:12:217,-2.94684,-0.780054,-9.17107,5.30571,-19.81,99.6014
2023-02-15 07:05:12:227,-2.92138,-0.880981,-9.14056,5.56265,-20.0111,99.3128
2023-02-15 07:05:12:237,-3.18583,-0.944299,-9.02013,5.81846,-20.2208,99.0493
2023-02-15 07:05:12:247,-3.44834,-0.965925,-8.97216,6.0706,-20.4276,98.8009
2023-02-15 07:05:12:257,-3.56834,-0.945258,-9.01951,6.31651,-20.6206,98.5641
2023-02-15 07:05:12:267,-3.57561,-0.956438,-9.03358,6.56731,-20.7922,98.3248
2023-02-15 07:05:12:277,-3.5888,-1.04764,-8.9567,6.82922,-20.9526,98.0894
2023-02-15 07:05:12:287,-3.60916,-1.1412,-8.873,7.09836,-21.0968,97.8631
2023-02-15 07:05:12:297,-3.56753,-1.1538,-8.85609,7.36031,-21.2308,97.6381
2023-02-15 07:05:12:307,-3.53846,-1.15716,-8.87674,7.62002,-21.3492,97.422
2023-02-15 07:05:12:317,-3.60579,-1.13808,-8.89399,7.88204,-21.4598,97.2135
2023-02-15 07:05:12:327,-3.67846,-1.11152,-8.9294,8.14616,-21.5623,97.0166
2023-02-15 07:05:12:337,-3.78616,-1.13384,-8.92703,8.42006,-21.6513,96.8251
2023-02-15 07:05:12:347,-3.8817,-1.17275,-8.92543,8.69934,-21.7268,96.639
2023-02-15 07:05:12:357,-3.80824,-1.23596,-8.95428,8.98796,-21.783,96.4568
2023-02-15 07:05:12:367,-3.68717,-1.32766,-8.90793,9.28916,-21.8203,96.2721
2023-02-15 07:05:12:377,-3.64407,-1.4198,-8.79934,9.59682,-21.848,96.093
2023-02-15 07:05:12:387,-3.6096,-1.44425,-8.76021,9.90437,-21.8645,95.9251
2023-02-15 07:05:12:396,-3.58116,-1.43783,-8.78131,10.2087,-21.8786,95.7693
2023-02-15 07:05:12:407,-3.6478,-1.45768,-8.80414,10.5139,-21.8885,95.6279
2023-02-15 07:05:12:416,-3.82653,-1.4781,-8.79145,10.8272,-21.8942,95.5032
2023-02-15 07:05:12:427,-3.9402,-1.4826,-8.78619,11.1465,-21.8824,95.3903
2023-02-15 07:05:12:437,-3.93375,-1.51649,-8.80402,11.4754,-21.8526,95.2897
2023-02-15 07:05:12:447,-3.86847,-1.63005,-8.76096,11.8185,-21.8062,95.1898
2023-02-15 07:05:12:457,-3.80559,-1.75368,-8.70312,12.1689,-21.7445,95.0947
2023-02-15 07:05:12:467,-3.74568,-1.82343,-8.68668,12.5232,-21.6724,95.0038
2023-02-15 07:05:12:477,-3.76769,-1.89821,-8.69298,12.8769,-21.5953,94.9213
2023-02-15 07:05:12:487,-3.89139,-1.93141,-8.69818,13.2305,-21.5119,94.8425
2023-02-15 07:05:12:497,-4.02366,-1.95694,-8.71541,13.5802,-21.4233,94.7728
2023-02-15 07:05:12:507,-4.06788,-2.02335,-8.73742,13.9357,-21.3206,94.7051
2023-02-15 07:05:12:517,-3.99437,-2.10392,-8.77317,14.2878,-21.198,94.6374
2023-02-15 07:05:12:527,-3.90836,-2.17036,-8.84677,14.6389,-21.06,94.5695
2023-02-15 07:05:12:537,-3.90486,-2.17528,-8.94483,14.9834,-20.9113,94.5046
2023-02-15 07:05:12:547,-3.93612,-2.20564,-9.04312,15.3293,-20.7485,94.447
2023-02-15 07:05:12:557,-3.83922,-2.25301,-9.1295,15.6814,-20.5733,94.387
2023-02-15 07:05:12:567,-3.67209,-2.32492,-9.18015,16.0414,-20.3878,94.3259
2023-02-15 07:05:12:577,-3.53388,-2.40977,-9.19204,16.4041,-20.1934,94.2749
2023-02-15 07:05:12:586,-3.50385,-2.51017,-9.20767,16.7673,-19.9987,94.2324
2023-02-15 07:05:12:597,-3.59752,-2.5572,-9.16784,17.1324,-19.807,94.1981
2023-02-15 07:05:12:607,-3.76197,-2.59862,-9.14416,17.4974,-19.6187,94.1729
2023-02-15 07:05:12:617,-3.81923,-2.61907,-9.1937,17.8603,-19.4196,94.1522
2023-02-15 07:05:12:627,-3.72815,-2.66588,-9.22809,18.2304,-19.2064,94.1277
2023-02-15 07:05:12:637,-3.54584,-2.74069,-9.24066,18.6102,-18.9835,94.0988
2023-02-15 07:05:12:647,-3.40536,-2.81783,-9.18841,19.0016,-18.7517,94.0613
2023-02-15 07:05:12:657,-3.39269,-2.90033,-9.06631,19.3996,-18.5222,94.0213
2023-02-15 07:05:12:667,-3.35318,-2.96978,-8.94609,19.8067,-18.2964,93.9748
2023-02-15 07:05:12:677,-3.27849,-3.03904,-8.87738,20.2175,-18.0689,93.9256
2023-02-15 07:05:12:687,-3.21004,-3.10585,-8.83369,20.6292,-17.8406,93.8724
2023-02-15 07:05:12:697,-3.11227,-3.1877,-8.76637,21.0494,-17.6055,93.81
2023-02-15 07:05:12:707,-3.09966,-3.25802,-8.69644,21.4694,-17.3725,93.7494
2023-02-15 07:05:12:717,-3.11623,-3.29248,-8.67182,21.8925,-17.1331,93.6889
2023-02-15 07:05:12:727,-3.05037,-3.32551,-8.64606,22.319,-16.8852,93.6269
2023-02-15 07:05:12:737,-2.97065,-3.37151,-8.61605,22.7584,-16.6293,93.558
2023-02-15 07:05:12:746,-2.87279,-3.44231,-8.59205,23.2074,-16.3649,93.491
2023-02-15 07:05:12:757,-2.68601,-3.56191,-8.54884,23.6659,-16.0915,93.4226
2023-02-15 07:05:12:767,-2.41467,-3.74554,-8.47746,24.1407,-15.8104,93.3511
2023-02-15 07:05:12:777,-2.16582,-3.91745,-8.35981,24.6179,-15.5301,93.2827
2023-02-15 07:05:12:786,-2.12961,-4.06363,-8.25176,25.0902,-15.2599,93.2254
2023-02-15 07:05:12:796,-2.28449,-4.1419,-8.19448,25.5529,-15.0082,93.179
2023-02-15 07:05:12:806,-2.37687,-4.17128,-8.21431,26.0002,-14.7605,93.1422
2023-02-15 07:05:12:816,-2.33233,-4.1976,-8.27218,26.4398,-14.5151,93.1084
2023-02-15 07:05:12:826,-2.16437,-4.20143,-8.39273,26.8794,-14.2656,93.0695
2023-02-15 07:05:12:837,-1.92565,-4.25564,-8.49193,27.3267,-14.0148,93.0263
2023-02-15 07:05:12:847,-1.76545,-4.33544,-8.48468,27.7908,-13.7634,92.9845
2023-02-15 07:05:12:857,-1.70197,-4.46306,-8.39372,28.2633,-13.526,92.9466
2023-02-15 07:05:12:867,-1.70423,-4.62798,-8.26017,28.7424,-13.3105,92.9182
2023-02-15 07:05:12:877,-1.70297,-4.77252,-8.15599,29.2203,-13.1117,92.8939
2023-02-15 07:05:12:887,-1.61005,-4.87545,-8.08787,29.6936,-12.926,92.8728
2023-02-15 07:05:12:897,-1.48078,-4.94093,-8.04132,30.1607,-12.7514,92.8507
2023-02-15 07:05:12:907,-1.45275,-5.01377,-7.95523,30.6178,-12.5929,92.8365
2023-02-15 07:05:12:917,-1.54393,-5.10005,-7.84906,31.0657,-12.4508,92.8308
2023-02-15 07:05:12:927,-1.62318,-5.20951,-7.84745,31.4997,-12.3199,92.8328
2023-02-15 07:05:12:937,-1.67587,-5.29074,-7.91889,31.9153,-12.2009,92.8424
2023-02-15 07:05:12:947,-1.6817,-5.39447,-7.97949,32.321,-12.0875,92.8453
2023-02-15 07:05:12:957,-1.53634,-5.50764,-7.99423,32.7185,-11.983,92.8365
2023-02-15 07:05:12:967,-1.38362,-5.60543,-7.98056,33.1077,-11.8929,92.8116
2023-02-15 07:05:12:977,-1.33886,-5.69764,-7.93325,33.4909,-11.8256,92.7719
2023-02-15 07:05:12:987,-1.3307,-5.79913,-7.83925,33.8665,-11.7797,92.7206
2023-02-15 07:05:12:997,-1.32615,-5.90632,-7.71614,34.2301,-11.7521,92.664
2023-02-15 07:05:13:7,-1.34152,-6.00407,-7.58434,34.5766,-11.7454,92.5971
2023-02-15 07:05:13:17,-1.40987,-6.09681,-7.4641,34.8993,-11.7588,92.5229
2023-02-15 07:05:13:27,-1.44372,-6.17285,-7.37368,35.1972,-11.7894,92.4388
2023-02-15 07:05:13:37,-1.34706,-6.20579,-7.30595,35.4681,-11.8353,92.3386
2023-02-15 07:05:13:47,-1.17818,-6.24136,-7.23903,35.711,-11.8933,92.2252
2023-02-15 07:05:13:57,-1.10091,-6.30472,-7.1858,35.9287,-11.9692,92.0967
2023-02-15 07:05:13:67,-1.15339,-6.33254,-7.16173,36.1148,-12.0773,91.9599
2023-02-15 07:05:13:77,-1.20685,-6.31479,-7.17474,36.2703,-12.2166,91.8124
2023-02-15 07:05:13:87,-1.21981,-6.31207,-7.19621,36.3937,-12.3776,91.6615
2023-02-15 07:05:13:97,-1.25321,-6.32759,-7.16868,36.4946,-12.5616,91.508
2023-02-15 07:05:13:107,-1.28107,-6.32344,-7.17969,36.568,-12.7708,91.3542
2023-02-15 07:05:13:117,-1.27424,-6.29692,-7.21398,36.6196,-12.9998,91.1999
2023-02-15 07:05:13:127,-1.25515,-6.27963,-7.24924,36.647,-13.2529,91.049
2023-02-15 07:05:13:137,-1.28243,-6.25635,-7.24331,36.65,-13.5308,90.9008
2023-02-15 07:05:13:147,-1.32476,-6.26819,-7.28923,36.6332,-13.8382,90.7558
2023-02-15 07:05:13:157,-1.30161,-6.22142,-7.34904,36.5934,-14.1723,90.6106
2023-02-15 07:05:13:167,-1.27181,-6.16054,-7.33658,36.5334,-14.5349,90.4635
2023-02-15 07:05:13:177,-1.30451,-6.15548,-7.26185,36.4606,-14.9314,90.3154
2023-02-15 07:05:13:187,-1.42923,-6.09283,-7.24901,36.3669,-15.3614,90.1707
2023-02-15 07:05:13:197,-1.47905,-5.98127,-7.32283,36.2517,-15.8272,90.0228
2023-02-15 07:05:13:207,-1.4016,-5.94971,-7.36307,36.1224,-16.3174,89.8701
2023-02-15 07:05:13:217,-1.32687,-5.95328,-7.3209,35.9874,-16.8457,89.7047
2023-02-15 07:05:13:227,-1.24395,-5.9442,-7.3124,35.838,-17.42,89.5388
2023-02-15 07:05:13:237,-1.28437,-5.87288,-7.32475,35.6741,-18.0418,89.3685
2023-02-15 07:05:13:247,-1.49601,-5.75586,-7.29464,35.4977,-18.7238,89.2062
2023-02-15 07:05:13:257,-1.6988,-5.66287,-7.27473,35.3111,-19.4562,89.057
2023-02-15 07:05:13:267,-1.95463,-5.56298,-7.25391,35.1138,-20.2315,88.9162
2023-02-15 07:05:13:277,-2.35988,-5.4221,-7.21822,34.9059,-21.0479,88.7909
2023-02-15 07:05:13:287,-2.68433,-5.2996,-7.15832,34.694,-21.8927,88.6819
2023-02-15 07:05:13:297,-2.78164,-5.25294,-7.01812,34.4816,-22.7529,88.5826
2023-02-15 07:05:13:307,-2.89953,-5.27532,-6.80567,34.2649,-23.6277,88.4949
2023-02-15 07:05:13:317,-3.08006,-5.31604,-6.67089,34.0347,-24.5287,88.4217
2023-02-15 07:05:13:327,-3.20958,-5.28352,-6.60389,33.7791,-25.4525,88.3597
2023-02-15 07:05:13:337,-3.39217,-5.25811,-6.57436,33.4974,-26.4019,88.3205
2023-02-15 07:05:13:347,-3.66896,-5.2129,-6.68288,33.1839,-27.3766,88.3037
2023-02-15 07:05:13:357,-3.97394,-5.10596,-6.83273,32.8418,-28.3766,88.3096
2023-02-15 07:05:13:367,-4.24498,-5.04004,-6.8761,32.4823,-29.3838,88.3378
2023-02-15 07:05:13:377,-4.4212,-4.97351,-6.77468,32.1135,-30.3941,88.3898
2023-02-15 07:05:13:387,-4.45034,-4.89594,-6.54891,31.7297,-31.3944,88.4723
2023-02-15 07:05:13:397,-4.39025,-4.80679,-6.28403,31.3262,-32.3879,88.5892
2023-02-15 07:05:13:407,-4.37336,-4.71289,-5.93084,30.8917,-33.3854,88.7382
2023-02-15 07:05:13:417,-4.57788,-4.61896,-5.4768,30.4153,-34.4052,88.9241
2023-02-15 07:05:13:427,-5.04675,-4.55246,-5.02182,29.8893,-35.4537,89.1461
2023-02-15 07:05:13:437,-5.85124,-4.40927,-4.64327,29.2787,-36.5354,89.4145
2023-02-15 07:05:13:447,-6.88032,-4.12881,-4.42633,28.5762,-37.6345,89.7255
2023-02-15 07:05:13:457,-7.78937,-3.78161,-4.50041,27.7765,-38.7117,90.0806
2023-02-15 07:05:13:467,-8.60215,-3.41046,-4.69587,26.8941,-39.7366,90.4685
2023-02-15 07:05:13:477,-9.2695,-3.04417,-4.92798,25.9442,-40.6738,90.8873
2023-02-15 07:05:13:487,-9.62639,-2.73485,-5.18437,24.9575,-41.5074,91.3142
2023-02-15 07:05:13:497,-9.66622,-2.4903,-5.39563,23.9517,-42.228,91.7443
2023-02-15 07:05:13:507,-9.57244,-2.36853,-5.42237,22.9413,-42.8483,92.1745
2023-02-15 07:05:13:517,-9.52122,-2.27155,-5.37601,21.9202,-43.3799,92.6152
2023-02-15 07:05:13:527,-9.56275,-2.15624,-5.39092,20.869,-43.825,93.0815
2023-02-15 07:05:13:537,-9.77047,-1.90038,-5.51989,19.7812,-44.182,93.5818
