Timestamp,Acceleration_x,Acceleration_y,Acceleration_z,roll,pitch,yaw
2023-02-16 17:12:50:162,-1.53343,3.21965,-9.0889,-19.5926,-9.44625,15.1692
2023-02-16 17:12:50:171,-1.51301,3.21933,-9.10096,-19.585,-9.46011,15.0899
2023-02-16 17:12:50:181,-1.49712,3.2343,-9.12562,-19.577,-9.47257,15.0138
2023-02-16 17:12:50:191,-1.4919,3.26234,-9.16925,-19.569,-9.48384,14.942
2023-02-16 17:12:50:201,-1.50833,3.27538,-9.18277,-19.56,-9.48882,14.8746
2023-02-16 17:12:50:211,-1.52727,3.25469,-9.14075,-19.5444,-9.49144,14.8087
2023-02-16 17:12:50:221,-1.52514,3.21442,-9.08206,-19.5188,-9.49274,14.7481
2023-02-16 17:12:50:231,-1.51288,3.1857,-9.03457,-19.4955,-9.4911,14.6884
2023-02-16 17:12:50:241,-1.54964,3.16389,-9.02125,-19.4719,-9.48547,14.6365
2023-02-16 17:12:50:251,-1.59016,3.19825,-9.03383,-19.456,-9.47834,14.5877
2023-02-16 17:12:50:261,-1.56131,3.22862,-9.0893,-19.447,-9.46719,14.539
2023-02-16 17:12:50:271,-1.54793,3.26018,-9.14487,-19.4404,-9.45654,14.4887
2023-02-16 17:12:50:281,-1.54239,3.26685,-9.17467,-19.4302,-9.44187,14.4382
2023-02-16 17:12:50:291,-1.5182,3.26411,-9.16752,-19.4171,-9.42948,14.386
2023-02-16 17:12:50:301,-1.47215,3.25014,-9.16266,-19.4046,-9.41686,14.336
2023-02-16 17:12:50:311,-1.47434,3.24527,-9.17924,-19.3886,-9.4074,14.2878
2023-02-16 17:12:50:321,-1.51232,3.25021,-9.19226,-19.3728,-9.40019,14.2465
2023-02-16 17:12:50:331,-1.54876,3.24641,-9.14219,-19.3564,-9.39679,14.2044
2023-02-16 17:12:50:341,-1.55845,3.19541,-9.07018,-19.3353,-9.39712,14.1585
2023-02-16 17:12:50:351,-1.54083,3.17236,-9.04655,-19.3158,-9.39478,14.1165
2023-02-16 17:12:50:361,-1.51956,3.18419,-9.06265,-19.301,-9.39325,14.0757
2023-02-16 17:12:50:371,-1.5155,3.19188,-9.06273,-19.2883,-9.39032,14.0356
2023-02-16 17:12:50:381,-1.47162,3.16179,-9.03829,-19.2713,-9.38656,13.9937
2023-02-16 17:12:50:391,-1.43912,3.15067,-9.04766,-19.2569,-9.38352,13.9605
2023-02-16 17:12:50:401,-1.45554,3.162,-9.10451,-19.2483,-9.37824,13.9287
2023-02-16 17:12:50:411,-1.50957,3.19159,-9.15336,-19.2396,-9.38003,13.9014
2023-02-16 17:12:50:421,-1.56497,3.18874,-9.15464,-19.2308,-9.38083,13.8775
2023-02-16 17:12:50:431,-1.57186,3.15862,-9.13218,-19.2179,-9.38048,13.8524
2023-02-16 17:12:50:441,-1.5591,3.14086,-9.08539,-19.2047,-9.37706,13.8318
2023-02-16 17:12:50:451,-1.54381,3.13524,-9.06719,-19.1959,-9.3711,13.8152
2023-02-16 17:12:50:461,-1.52783,3.12926,-9.06424,-19.1897,-9.36172,13.7995
2023-02-16 17:12:50:471,-1.52007,3.15486,-9.08182,-19.1839,-9.35514,13.7822
2023-02-16 17:12:50:481,-1.52361,3.16154,-9.10892,-19.1805,-9.34678,13.7654
2023-02-16 17:12:50:491,-1.55953,3.17334,-9.11615,-19.1763,-9.33709,13.7513
2023-02-16 17:12:50:501,-1.5678,3.17319,-9.10349,-19.1687,-9.33232,13.735
2023-02-16 17:12:50:511,-1.55503,3.14995,-9.08207,-19.1642,-9.32248,13.7185
2023-02-16 17:12:50:521,-1.57084,3.14287,-9.08334,-19.1613,-9.31552,13.7004
2023-02-16 17:12:50:531,-1.57533,3.16475,-9.11667,-19.1619,-9.31056,13.6826
2023-02-16 17:12:50:541,-1.54393,3.15139,-9.13495,-19.1603,-9.30797,13.6602
2023-02-16 17:12:50:551,-1.51772,3.13317,-9.10835,-19.1609,-9.30695,13.6394
2023-02-16 17:12:50:561,-1.49406,3.13013,-9.09795,-19.1615,-9.30869,13.6194
2023-02-16 17:12:50:571,-1.50126,3.15517,-9.104,-19.1674,-9.31271,13.5999
2023-02-16 17:12:50:581,-1.5371,3.18058,-9.12324,-19.1792,-9.3224,13.5775
2023-02-16 17:12:50:590,-1.56414,3.19355,-9.14591,-19.1911,-9.33603,13.5575
2023-02-16 17:12:50:601,-1.57854,3.21144,-9.13246,-19.203,-9.35125,13.5369
2023-02-16 17:12:50:611,-1.59853,3.23383,-9.12911,-19.2144,-9.36921,13.5162
2023-02-16 17:12:50:620,-1.6251,3.23264,-9.13468,-19.2229,-9.3873,13.4912
2023-02-16 17:12:50:631,-1.62526,3.22425,-9.14226,-19.2279,-9.40746,13.4667
2023-02-16 17:12:50:641,-1.62635,3.24646,-9.16265,-19.2314,-9.42525,13.4396
2023-02-16 17:12:50:651,-1.64228,3.24629,-9.16305,-19.2302,-9.44057,13.4107
2023-02-16 17:12:50:661,-1.67543,3.25094,-9.15031,-19.2274,-9.45729,13.3835
2023-02-16 17:12:50:671,-1.65069,3.23722,-9.12153,-19.2222,-9.47479,13.3514
2023-02-16 17:12:50:681,-1.63108,3.21948,-9.0852,-19.2145,-9.48544,13.3193
2023-02-16 17:12:50:691,-1.634,3.22713,-9.06013,-19.2052,-9.49831,13.2868
2023-02-16 17:12:50:701,-1.63226,3.23695,-9.04397,-19.1982,-9.51003,13.2528
2023-02-16 17:12:50:711,-1.62251,3.22101,-9.05437,-19.1927,-9.52091,13.2198
2023-02-16 17:12:50:721,-1.61483,3.20368,-9.08668,-19.1892,-9.52908,13.1873
2023-02-16 17:12:50:730,-1.59337,3.19219,-9.143,-19.185,-9.53319,13.1548
2023-02-16 17:12:50:741,-1.51803,3.19049,-9.21228,-19.1821,-9.53643,13.123
2023-02-16 17:12:50:751,-1.44853,3.18688,-9.2581,-19.1748,-9.53951,13.0925
2023-02-16 17:12:50:760,-1.42134,3.1756,-9.24599,-19.1679,-9.54331,13.0739
2023-02-16 17:12:50:771,-1.43086,3.15994,-9.2067,-19.1597,-9.55056,13.0622
2023-02-16 17:12:50:781,-1.39597,3.16737,-9.19176,-19.1531,-9.55222,13.0572
2023-02-16 17:12:50:791,-1.35147,3.19283,-9.18902,-19.1463,-9.55258,13.0581
2023-02-16 17:12:50:801,-1.319,3.21265,-9.18703,-19.1388,-9.55332,13.0715
2023-02-16 17:12:50:811,-1.3417,3.23368,-9.17253,-19.1323,-9.55361,13.094
2023-02-16 17:12:50:821,-1.40308,3.24043,-9.14668,-19.1229,-9.55395,13.1274
2023-02-16 17:12:50:831,-1.48323,3.24149,-9.14009,-19.1155,-9.552,13.1704
2023-02-16 17:12:50:841,-1.52601,3.22639,-9.15093,-19.1049,-9.5469,13.2208
2023-02-16 17:12:50:851,-1.54569,3.19689,-9.11909,-19.0907,-9.53632,13.2791
2023-02-16 17:12:50:861,-1.53093,3.13751,-9.05345,-19.0712,-9.51866,13.3357
2023-02-16 17:12:50:871,-1.50806,3.10134,-9.05708,-19.0529,-9.49904,13.3945
2023-02-16 17:12:50:881,-1.5174,3.11018,-9.07423,-19.0391,-9.47736,13.4613
2023-02-16 17:12:50:891,-1.53359,3.1074,-9.09141,-19.0243,-9.45802,13.5336
2023-02-16 17:12:50:901,-1.53776,3.10281,-9.10377,-19.0128,-9.43469,13.6094
2023-02-16 17:12:50:911,-1.55487,3.11991,-9.14109,-19.0044,-9.4155,13.6852
2023-02-16 17:12:50:921,-1.60091,3.13142,-9.14749,-18.9984,-9.39745,13.7624
2023-02-16 17:12:50:931,-1.652,3.13937,-9.14304,-18.9908,-9.38191,13.8383
2023-02-16 17:12:50:941,-1.70258,3.14672,-9.13459,-18.9836,-9.36586,13.9087
2023-02-16 17:12:50:951,-1.71636,3.16539,-9.13373,-18.9767,-9.35104,13.9744
2023-02-16 17:12:50:961,-1.72141,3.16,-9.14656,-18.9719,-9.33797,14.0364
2023-02-16 17:12:50:971,-1.7365,3.15124,-9.12794,-18.9628,-9.32918,14.0937
2023-02-16 17:12:50:981,-1.74708,3.17378,-9.11568,-18.9566,-9.32223,14.1404
2023-02-16 17:12:50:991,-1.74253,3.171,-9.1231,-18.9456,-9.31563,14.1786
2023-02-16 17:12:51:1,-1.68635,3.15011,-9.11165,-18.9333,-9.31465,14.2107
2023-02-16 17:12:51:11,-1.64033,3.10241,-9.0722,-18.9139,-9.3144,14.2322
2023-02-16 17:12:51:21,-1.63151,3.05924,-9.02542,-18.895,-9.31971,14.2543
2023-02-16 17:12:51:31,-1.6514,3.03968,-9.02454,-18.8799,-9.33199,14.2734
2023-02-16 17:12:51:41,-1.64773,3.06401,-9.05059,-18.8701,-9.34672,14.2899
2023-02-16 17:12:51:51,-1.65791,3.09354,-9.09795,-18.8653,-9.36488,14.3009
2023-02-16 17:12:51:61,-1.68123,3.08844,-9.1342,-18.8628,-9.38465,14.3095
2023-02-16 17:12:51:71,-1.69823,3.10131,-9.13831,-18.8603,-9.40771,14.3182
2023-02-16 17:12:51:81,-1.65989,3.12107,-9.13621,-18.8592,-9.42481,14.3195
2023-02-16 17:12:51:91,-1.66085,3.13898,-9.15187,-18.8569,-9.43477,14.3178
2023-02-16 17:12:51:101,-1.68378,3.14695,-9.14615,-18.8561,-9.44443,14.3196
2023-02-16 17:12:51:111,-1.69145,3.14789,-9.13926,-18.8549,-9.45467,14.3177
2023-02-16 17:12:51:121,-1.67378,3.13078,-9.11322,-18.8464,-9.45995,14.3115
2023-02-16 17:12:51:131,-1.65442,3.09656,-9.08055,-18.8366,-9.46443,14.3047
2023-02-16 17:12:51:141,-1.62999,3.07276,-9.08174,-18.8259,-9.46881,14.2976
2023-02-16 17:12:51:151,-1.58775,3.07506,-9.08698,-18.8209,-9.46939,14.293
2023-02-16 17:12:51:161,-1.53339,3.08022,-9.10738,-18.8166,-9.46933,14.2819
2023-02-16 17:12:51:171,-1.50215,3.08761,-9.12779,-18.8121,-9.46833,14.2752
2023-02-16 17:12:51:181,-1.51184,3.10723,-9.16179,-18.8108,-9.47318,14.2722
2023-02-16 17:12:51:191,-1.56007,3.12176,-9.15568,-18.81,-9.48066,14.2753
2023-02-16 17:12:51:201,-1.59518,3.13413,-9.13022,-18.8108,-9.48677,14.2775
2023-02-16 17:12:51:211,-1.63249,3.14961,-9.14873,-18.8147,-9.49323,14.2832
2023-02-16 17:12:51:221,-1.67123,3.15735,-9.16054,-18.8161,-9.49827,14.2861
2023-02-16 17:12:51:231,-1.67825,3.16564,-9.14541,-18.8147,-9.50549,14.2875
2023-02-16 17:12:51:241,-1.67582,3.14535,-9.1162,-18.8119,-9.50956,14.2877
2023-02-16 17:12:51:251,-1.67413,3.14713,-9.103,-18.8078,-9.51549,14.2861
2023-02-16 17:12:51:261,-1.65836,3.17678,-9.13131,-18.8072,-9.51826,14.2809
2023-02-16 17:12:51:271,-1.65521,3.18211,-9.14709,-18.807,-9.5217,14.2743
2023-02-16 17:12:51:281,-1.65825,3.19251,-9.16992,-18.803,-9.52342,14.2668
2023-02-16 17:12:51:291,-1.65362,3.21118,-9.20269,-18.7966,-9.52646,14.258
2023-02-16 17:12:51:301,-1.61901,3.21726,-9.22758,-18.7895,-9.52621,14.2476
2023-02-16 17:12:51:311,-1.61851,3.20083,-9.21647,-18.7746,-9.5232,14.2368
2023-02-16 17:12:51:321,-1.62257,3.1804,-9.19449,-18.7577,-9.52243,14.2247
2023-02-16 17:12:51:331,-1.61593,3.16212,-9.19341,-18.7375,-9.52223,14.2125
2023-02-16 17:12:51:341,-1.62476,3.13804,-9.19751,-18.7145,-9.52291,14.2016
2023-02-16 17:12:51:351,-1.62623,3.13003,-9.17578,-18.6934,-9.52614,14.1907
2023-02-16 17:12:51:361,-1.6211,3.11237,-9.1488,-18.6713,-9.52696,14.1794
2023-02-16 17:12:51:371,-1.61296,3.10166,-9.1339,-18.6484,-9.52772,14.1664
2023-02-16 17:12:51:381,-1.61774,3.10106,-9.11794,-18.6291,-9.52772,14.1524
2023-02-16 17:12:51:391,-1.61824,3.08088,-9.10404,-18.6095,-9.52479,14.1376
2023-02-16 17:12:51:401,-1.62449,3.08469,-9.11892,-18.5936,-9.52302,14.1224
2023-02-16 17:12:51:411,-1.60323,3.10424,-9.13256,-18.576,-9.52414,14.1051
2023-02-16 17:12:51:421,-1.54656,3.09623,-9.16564,-18.5578,-9.52044,14.0861
2023-02-16 17:12:51:431,-1.51709,3.08312,-9.2046,-18.5351,-9.51834,14.0677
2023-02-16 17:12:51:441,-1.52628,3.0668,-9.21003,-18.5119,-9.52135,14.0557
2023-02-16 17:12:51:451,-1.55668,3.05147,-9.17838,-18.4893,-9.5215,14.0447
2023-02-16 17:12:51:461,-1.55994,3.03435,-9.14426,-18.4673,-9.52651,14.0388
2023-02-16 17:12:51:471,-1.56415,3.01947,-9.11833,-18.442,-9.53039,14.0309
2023-02-16 17:12:51:481,-1.57087,2.98346,-9.07872,-18.4196,-9.53178,14.0222
2023-02-16 17:12:51:491,-1.55584,2.95926,-9.06747,-18.4032,-9.5327,14.0195
2023-02-16 17:12:51:501,-1.55012,2.98096,-9.10132,-18.3892,-9.53432,14.0141
2023-02-16 17:12:51:511,-1.53615,3.0169,-9.14044,-18.3732,-9.5379,14.0084
2023-02-16 17:12:51:521,-1.54576,3.00024,-9.13855,-18.3609,-9.53921,14.0049
2023-02-16 17:12:51:531,-1.54336,2.9862,-9.11879,-18.3488,-9.54056,14.0028
2023-02-16 17:12:51:541,-1.55382,2.97611,-9.1278,-18.3381,-9.54478,14.0038
2023-02-16 17:12:51:551,-1.57763,2.9807,-9.13414,-18.3348,-9.54975,14.0055
2023-02-16 17:12:51:561,-1.63,2.99825,-9.12144,-18.3313,-9.55742,14.0068
2023-02-16 17:12:51:571,-1.67438,3.01511,-9.13753,-18.3289,-9.56446,14.0103
2023-02-16 17:12:51:581,-1.69242,3.02797,-9.14114,-18.3271,-9.57265,14.0093
2023-02-16 17:12:51:591,-1.70227,3.03576,-9.13953,-18.3227,-9.58393,14.0063
2023-02-16 17:12:51:601,-1.71755,3.038,-9.13834,-18.3175,-9.59328,14.0016
2023-02-16 17:12:51:611,-1.71843,3.02228,-9.11877,-18.3103,-9.60103,13.9884
2023-02-16 17:12:51:621,-1.71178,3.03372,-9.11175,-18.307,-9.6076,13.9724
2023-02-16 17:12:51:631,-1.71027,3.05499,-9.13971,-18.3049,-9.61229,13.9538
2023-02-16 17:12:51:641,-1.69529,3.0393,-9.12753,-18.2996,-9.61453,13.9317
2023-02-16 17:12:51:651,-1.70308,3.01148,-9.09623,-18.2939,-9.62039,13.9059
2023-02-16 17:12:51:661,-1.70079,3.01458,-9.12046,-18.2913,-9.62616,13.8752
2023-02-16 17:12:51:671,-1.67005,3.03847,-9.1747,-18.2921,-9.63144,13.8398
2023-02-16 17:12:51:681,-1.65231,3.04843,-9.22485,-18.2891,-9.63662,13.7992
2023-02-16 17:12:51:691,-1.6326,3.03779,-9.22281,-18.2824,-9.64382,13.7607
2023-02-16 17:12:51:701,-1.61488,3.01268,-9.16395,-18.2724,-9.64726,13.72
2023-02-16 17:12:51:711,-1.62433,2.98377,-9.12742,-18.2631,-9.65479,13.679
2023-02-16 17:12:51:721,-1.62626,2.98908,-9.15632,-18.2592,-9.66327,13.6403
2023-02-16 17:12:51:731,-1.63464,3.02599,-9.19359,-18.2632,-9.67326,13.6044
2023-02-16 17:12:51:741,-1.62615,3.03509,-9.16792,-18.2667,-9.68415,13.5674
2023-02-16 17:12:51:751,-1.59902,3.02668,-9.11605,-18.2671,-9.69897,13.523
2023-02-16 17:12:51:761,-1.59979,3.04243,-9.14218,-18.2761,-9.71512,13.4825
2023-02-16 17:12:51:771,-1.63092,3.09459,-9.1969,-18.2823,-9.72862,13.4407
2023-02-16 17:12:51:781,-1.6357,3.10028,-9.20727,-18.2898,-9.74575,13.3994
2023-02-16 17:12:51:791,-1.63855,3.08992,-9.17861,-18.2895,-9.76346,13.3635
2023-02-16 17:12:51:801,-1.65631,3.08422,-9.13726,-18.2847,-9.77855,13.3269
2023-02-16 17:12:51:811,-1.6655,3.07823,-9.11254,-18.2791,-9.79258,13.2894
2023-02-16 17:12:51:821,-1.66466,3.08568,-9.13417,-18.2747,-9.80161,13.2524
2023-02-16 17:12:51:831,-1.65958,3.07295,-9.15299,-18.2702,-9.80597,13.2183
2023-02-16 17:12:51:841,-1.64586,3.04905,-9.13435,-18.2613,-9.80627,13.1833
2023-02-16 17:12:51:851,-1.64697,3.03003,-9.10592,-18.2501,-9.80148,13.152
2023-02-16 17:12:51:861,-1.62222,3.00059,-9.10002,-18.2401,-9.79318,13.1198
2023-02-16 17:12:51:871,-1.61426,2.99105,-9.1192,-18.2293,-9.78267,13.0879
2023-02-16 17:12:51:881,-1.61066,3.00288,-9.15615,-18.2244,-9.77047,13.0604
2023-02-16 17:12:51:891,-1.60829,3.02525,-9.19719,-18.2202,-9.75852,13.0337
2023-02-16 17:12:51:901,-1.59839,3.05907,-9.21078,-18.2228,-9.74842,13.0061
2023-02-16 17:12:51:911,-1.60511,3.07959,-9.20034,-18.2232,-9.73879,12.9811
2023-02-16 17:12:51:921,-1.63643,3.0835,-9.17941,-18.2233,-9.73025,12.9558
2023-02-16 17:12:51:931,-1.64684,3.08572,-9.18305,-18.2235,-9.72256,12.9293
2023-02-16 17:12:51:941,-1.60086,3.09349,-9.21182,-18.2194,-9.71431,12.9044
2023-02-16 17:12:51:951,-1.54444,3.08064,-9.21804,-18.2111,-9.70117,12.8776
2023-02-16 17:12:51:961,-1.55512,3.03816,-9.17478,-18.198,-9.69205,12.8534
2023-02-16 17:12:51:971,-1.58546,3.00265,-9.13087,-18.1867,-9.68672,12.832
2023-02-16 17:12:51:981,-1.60597,2.96611,-9.09582,-18.1757,-9.68713,12.8146
2023-02-16 17:12:51:991,-1.64245,2.96589,-9.09122,-18.1693,-9.68134,12.8021
2023-02-16 17:12:52:1,-1.65743,3.00488,-9.15935,-18.1673,-9.67751,12.788
2023-02-16 17:12:52:11,-1.65512,3.02444,-9.20119,-18.1642,-9.67094,12.7679
2023-02-16 17:12:52:21,-1.61861,3.0013,-9.16915,-18.1567,-9.66165,12.7468
2023-02-16 17:12:52:31,-1.56788,2.99001,-9.15907,-18.1465,-9.65136,12.7242
2023-02-16 17:12:52:41,-1.56408,3.02308,-9.20627,-18.1409,-9.64155,12.7075
2023-02-16 17:12:52:51,-1.56883,3.05204,-9.2144,-18.1389,-9.63146,12.6919
2023-02-16 17:12:52:61,-1.56327,3.03744,-9.20465,-18.1353,-9.61909,12.6745
2023-02-16 17:12:52:71,-1.56659,3.03961,-9.19351,-18.1314,-9.61176,12.6654
2023-02-16 17:12:52:81,-1.58263,3.03336,-9.20353,-18.1256,-9.60614,12.6567
2023-02-16 17:12:52:91,-1.6009,3.03358,-9.18297,-18.1152,-9.59906,12.6489
2023-02-16 17:12:52:101,-1.61105,3.03566,-9.17305,-18.1061,-9.59505,12.6417
2023-02-16 17:12:52:111,-1.59476,3.02192,-9.15676,-18.0937,-9.58939,12.6294
2023-02-16 17:12:52:121,-1.57632,3.01526,-9.14905,-18.0839,-9.58415,12.6208
2023-02-16 17:12:52:131,-1.56928,2.99353,-9.15007,-18.0742,-9.58257,12.6076
2023-02-16 17:12:52:141,-1.55848,2.97558,-9.12931,-18.063,-9.58129,12.5999
2023-02-16 17:12:52:151,-1.56576,2.97319,-9.12679,-18.0561,-9.57694,12.5927
2023-02-16 17:12:52:161,-1.56863,3.00296,-9.17374,-18.0528,-9.57443,12.5889
2023-02-16 17:12:52:171,-1.59923,3.0163,-9.1898,-18.0481,-9.56929,12.5839
2023-02-16 17:12:52:181,-1.59834,3.01203,-9.18232,-18.0466,-9.56433,12.5824
2023-02-16 17:12:52:191,-1.5657,3.0242,-9.19636,-18.0394,-9.56149,12.5811
2023-02-16 17:12:52:201,-1.5406,3.01074,-9.20653,-18.0332,-9.5583,12.5776
2023-02-16 17:12:52:211,-1.52367,3.00378,-9.19653,-18.0217,-9.55319,12.5763
2023-02-16 17:12:52:221,-1.4889,3.00003,-9.19493,-18.0112,-9.54557,12.5758
2023-02-16 17:12:52:231,-1.45171,3.00846,-9.21734,-18.0002,-9.54037,12.5794
2023-02-16 17:12:52:241,-1.44112,3.00167,-9.22506,-17.9891,-9.53974,12.5853
2023-02-16 17:12:52:251,-1.45574,2.98424,-9.21678,-17.9737,-9.53915,12.5943
2023-02-16 17:12:52:261,-1.4489,2.94449,-9.19555,-17.9583,-9.53899,12.6061
2023-02-16 17:12:52:271,-1.42817,2.92834,-9.20104,-17.9424,-9.5401,12.6175
2023-02-16 17:12:52:281,-1.44424,2.92616,-9.23357,-17.929,-9.54706,12.6321
2023-02-16 17:12:52:291,-1.50751,2.9078,-9.32258,-17.9219,-9.55167,12.6548
2023-02-16 17:12:52:301,-1.56138,2.90113,-9.43561,-17.9149,-9.56078,12.6796
2023-02-16 17:12:52:311,-1.58632,2.91248,-9.45861,-17.911,-9.56817,12.6966
2023-02-16 17:12:52:321,-1.65411,2.86738,-9.45135,-17.9062,-9.57131,12.7153
2023-02-16 17:12:52:331,-1.73174,2.8955,-9.5729,-17.9004,-9.56515,12.7304
2023-02-16 17:12:52:341,-1.76184,2.95768,-9.72094,-17.8935,-9.55328,12.733
2023-02-16 17:12:52:351,-1.7991,2.98687,-9.8408,-17.8786,-9.53478,12.7235
2023-02-16 17:12:52:361,-1.80788,2.98026,-9.96997,-17.8494,-9.50367,12.7022
2023-02-16 17:12:52:371,-1.78473,2.97584,-10.0854,-17.8056,-9.4578,12.669
2023-02-16 17:12:52:381,-1.80641,2.97051,-10.1718,-17.7529,-9.4071,12.6269
2023-02-16 17:12:52:391,-1.89103,2.95346,-10.2985,-17.6905,-9.34544,12.5727
2023-02-16 17:12:52:401,-1.93701,2.87635,-10.4703,-17.6159,-9.27758,12.5079
2023-02-16 17:12:52:411,-1.9318,2.80958,-10.573,-17.5354,-9.20056,12.4353
2023-02-16 17:12:52:421,-1.94971,2.72872,-10.6604,-17.4562,-9.11394,12.3554
2023-02-16 17:12:52:431,-1.99502,2.72046,-10.835,-17.3861,-9.02646,12.2703
2023-02-16 17:12:52:441,-2.02891,2.79894,-10.9476,-17.3298,-8.93443,12.1801
2023-02-16 17:12:52:451,-2.07557,2.79535,-10.9313,-17.2695,-8.83949,12.0807
2023-02-16 17:12:52:461,-2.09292,2.75911,-10.8163,-17.2096,-8.74624,11.9791
2023-02-16 17:12:52:471,-2.00766,2.89488,-10.7336,-17.1629,-8.6454,11.8694
2023-02-16 17:12:52:481,-1.92288,3.2522,-10.7904,-17.1351,-8.53606,11.7476
2023-02-16 17:12:52:491,-1.96217,3.78692,-10.8112,-17.1217,-8.41856,11.6134
2023-02-16 17:12:52:501,-2.06561,4.23258,-10.5666,-17.0931,-8.29167,11.4612
2023-02-16 17:12:52:511,-2.14168,4.40482,-10.1866,-17.0253,-8.14872,11.2863
2023-02-16 17:12:52:521,-2.14325,4.45047,-9.74734,-16.9128,-7.98226,11.0872
2023-02-16 17:12:52:531,-1.94462,4.32776,-9.16471,-16.749,-7.78812,10.8614
2023-02-16 17:12:52:541,-1.66214,4.12504,-8.54691,-16.5516,-7.56548,10.6146
2023-02-16 17:12:52:551,-1.34773,4.01665,-8.08786,-16.3576,-7.32423,10.3567
2023-02-16 17:12:52:561,-1.07539,4.04209,-7.7903,-16.1871,-7.07943,10.087
2023-02-16 17:12:52:571,-0.926962,4.16951,-7.55566,-16.0527,-6.84894,9.80943
2023-02-16 17:12:52:581,-0.830647,4.31495,-7.42698,-15.9616,-6.63516,9.53313
2023-02-16 17:12:52:591,-0.71516,4.48646,-7.51248,-15.9136,-6.44607,9.25305
2023-02-16 17:12:52:601,-0.620034,4.60491,-7.67824,-15.8919,-6.27292,8.97518
2023-02-16 17:12:52:611,-0.547761,4.64424,-7.76937,-15.8814,-6.12546,8.70341
2023-02-16 17:12:52:621,-0.447356,4.52477,-7.84432,-15.8725,-5.99363,8.44843
2023-02-16 17:12:52:631,-0.334047,4.33227,-7.96706,-15.8615,-5.88147,8.21122
2023-02-16 17:12:52:641,-0.284655,4.26946,-8.12917,-15.8545,-5.78772,7.98995
2023-02-16 17:12:52:651,-0.192969,4.1598,-8.27679,-15.8452,-5.71212,7.78578
2023-02-16 17:12:52:661,-0.0691811,3.98025,-8.38496,-15.8276,-5.65463,7.60279
2023-02-16 17:12:52:671,-0.0722442,3.90561,-8.57056,-15.8034,-5.61678,7.44633
2023-02-16 17:12:52:681,-0.149856,3.87193,-8.76315,-15.773,-5.59989,7.31927
2023-02-16 17:12:52:691,-0.206145,3.75274,-8.80814,-15.7255,-5.6034,7.21656
2023-02-16 17:12:52:701,-0.256882,3.5923,-8.77767,-15.6562,-5.61978,7.14472
2023-02-16 17:12:52:711,-0.365872,3.45606,-8.77488,-15.5722,-5.64728,7.09864
2023-02-16 17:12:52:721,-0.468568,3.2763,-8.73987,-15.469,-5.68522,7.08239
2023-02-16 17:12:52:731,-0.491694,3.03669,-8.66433,-15.3529,-5.73282,7.08494
2023-02-16 17:12:52:741,-0.429994,2.85376,-8.68597,-15.2354,-5.78681,7.10728
2023-02-16 17:12:52:751,-0.339619,2.74551,-8.86978,-15.1172,-5.84549,7.15433
2023-02-16 17:12:52:761,-0.363203,2.62081,-8.96711,-14.9851,-5.91645,7.23431
2023-02-16 17:12:52:771,-0.533906,2.40615,-8.88017,-14.8321,-6.00735,7.34517
2023-02-16 17:12:52:781,-0.720962,2.18797,-8.82202,-14.6642,-6.10322,7.48416
2023-02-16 17:12:52:791,-0.902329,2.0288,-8.83621,-14.4886,-6.19704,7.64473
2023-02-16 17:12:52:801,-1.1437,1.90013,-8.93579,-14.3086,-6.28857,7.81944
2023-02-16 17:12:52:811,-1.33608,1.79372,-9.13501,-14.1172,-6.37113,7.99668
2023-02-16 17:12:52:821,-1.43745,1.66761,-9.35666,-13.8972,-6.43936,8.17022
2023-02-16 17:12:52:831,-1.44301,1.53393,-9.52587,-13.6508,-6.4826,8.3373
2023-02-16 17:12:52:841,-1.42714,1.34403,-9.61809,-13.3786,-6.5106,8.49712
2023-02-16 17:12:52:851,-1.39824,1.15582,-9.68773,-13.0842,-6.52044,8.65273
2023-02-16 17:12:52:861,-1.366,0.991636,-9.75144,-12.7783,-6.518,8.80448
2023-02-16 17:12:52:871,-1.34189,0.855429,-9.80481,-12.4668,-6.51289,8.9493
2023-02-16 17:12:52:881,-1.32629,0.750372,-9.85087,-12.1542,-6.49622,9.08699
2023-02-16 17:12:52:891,-1.2775,0.657823,-9.86812,-11.8437,-6.47143,9.21931
2023-02-16 17:12:52:901,-1.22562,0.567285,-9.8019,-11.5333,-6.44535,9.35047
2023-02-16 17:12:52:911,-1.19388,0.476246,-9.67541,-11.227,-6.41876,9.47227
2023-02-16 17:12:52:921,-1.16815,0.409574,-9.60125,-10.9233,-6.38349,9.58651
2023-02-16 17:12:52:931,-1.12109,0.383149,-9.58902,-10.6331,-6.34308,9.69474
2023-02-16 17:12:52:941,-1.04695,0.383086,-9.5807,-10.3513,-6.29991,9.79166
2023-02-16 17:12:52:951,-0.988588,0.336882,-9.54651,-10.0719,-6.25347,9.87851
2023-02-16 17:12:52:961,-0.969484,0.267609,-9.50148,-9.79692,-6.20527,9.96593
2023-02-16 17:12:52:971,-0.964324,0.216426,-9.45439,-9.53257,-6.15071,10.0477
2023-02-16 17:12:52:981,-0.916491,0.185644,-9.3739,-9.28001,-6.09334,10.1253
2023-02-16 17:12:52:991,-0.820247,0.17835,-9.27562,-9.04415,-6.03409,10.1952
2023-02-16 17:12:53:1,-0.754394,0.164594,-9.23476,-8.82215,-5.9754,10.2614
2023-02-16 17:12:53:11,-0.738334,0.206806,-9.31208,-8.62694,-5.92223,10.3279
2023-02-16 17:12:53:21,-0.766193,0.317551,-9.45145,-8.46083,-5.87899,10.3902
2023-02-16 17:12:53:31,-0.78218,0.424162,-9.55643,-8.31061,-5.84356,10.4475
2023-02-16 17:12:53:41,-0.811016,0.48661,-9.58623,-8.17415,-5.81921,10.498
2023-02-16 17:12:53:51,-0.833002,0.538211,-9.56751,-8.05733,-5.80674,10.5466
2023-02-16 17:12:53:61,-0.840387,0.596473,-9.54955,-7.96695,-5.81022,10.5866
2023-02-16 17:12:53:71,-0.897432,0.720658,-9.56654,-7.90467,-5.82089,10.6223
2023-02-16 17:12:53:81,-0.93757,0.812099,-9.61032,-7.86308,-5.83562,10.656
2023-02-16 17:12:53:91,-1.00125,0.879444,-9.638,-7.84743,-5.85482,10.6854
2023-02-16 17:12:53:101,-1.10783,1.04377,-9.68673,-7.86958,-5.88956,10.7071
2023-02-16 17:12:53:111,-1.18897,1.30193,-9.79341,-7.92442,-5.92428,10.7218
2023-02-16 17:12:53:120,-1.23207,1.53952,-9.93091,-8.00317,-5.95473,10.7218
2023-02-16 17:12:53:130,-1.27653,1.67607,-9.98697,-8.08825,-5.97846,10.7095
2023-02-16 17:12:53:141,-1.33519,1.76373,-9.92763,-8.17907,-5.98941,10.6863
2023-02-16 17:12:53:151,-1.34818,1.86498,-9.78152,-8.27268,-5.98766,10.651
2023-02-16 17:12:53:161,-1.23138,1.90705,-9.66746,-8.36533,-5.96454,10.5966
2023-02-16 17:12:53:171,-1.01646,1.91298,-9.67038,-8.46155,-5.92646,10.5293
2023-02-16 17:12:53:181,-0.842478,2.00339,-9.74472,-8.5616,-5.88835,10.4526
2023-02-16 17:12:53:191,-0.76149,2.09451,-9.71259,-8.66543,-5.85919,10.372
2023-02-16 17:12:53:201,-0.72239,2.12169,-9.60015,-8.75844,-5.83589,10.2928
2023-02-16 17:12:53:211,-0.619027,2.09542,-9.4995,-8.84281,-5.82398,10.2135
2023-02-16 17:12:53:221,-0.555498,2.10725,-9.41451,-8.92353,-5.8266,10.1379
2023-02-16 17:12:53:231,-0.595071,2.1297,-9.3294,-9.00233,-5.8457,10.0727
2023-02-16 17:12:53:241,-0.702771,2.14547,-9.29517,-9.07561,-5.87596,10.019
2023-02-16 17:12:53:251,-0.914918,2.17088,-9.30371,-9.13948,-5.91683,9.97914
2023-02-16 17:12:53:261,-1.10523,2.17335,-9.33615,-9.19559,-5.96632,9.9435
2023-02-16 17:12:53:271,-1.21558,2.13304,-9.33813,-9.24132,-6.01778,9.90976
2023-02-16 17:12:53:281,-1.30796,2.06588,-9.23732,-9.28197,-6.07447,9.87755
2023-02-16 17:12:53:291,-1.43016,2.01929,-9.13875,-9.33014,-6.13852,9.8437
2023-02-16 17:12:53:301,-1.55756,2.06596,-9.10942,-9.38677,-6.20797,9.7968
2023-02-16 17:12:53:311,-1.64366,2.10515,-9.12592,-9.44743,-6.27959,9.73647
2023-02-16 17:12:53:321,-1.71751,2.15124,-9.1438,-9.51451,-6.34349,9.65594
2023-02-16 17:12:53:331,-1.72933,2.20067,-9.18881,-9.58652,-6.40378,9.55446
2023-02-16 17:12:53:341,-1.6861,2.26354,-9.29427,-9.6667,-6.45079,9.43509
2023-02-16 17:12:53:351,-1.59577,2.3361,-9.45205,-9.75564,-6.48519,9.29593
2023-02-16 17:12:53:361,-1.4371,2.36989,-9.6226,-9.84744,-6.50357,9.13874
2023-02-16 17:12:53:371,-1.31615,2.37964,-9.74735,-9.93461,-6.50845,8.96948
2023-02-16 17:12:53:381,-1.21752,2.35482,-9.80076,-10.0134,-6.51632,8.79377
2023-02-16 17:12:53:391,-1.14671,2.28723,-9.73234,-10.0792,-6.53235,8.61551
2023-02-16 17:12:53:401,-1.18374,2.17337,-9.69145,-10.1299,-6.55512,8.43605
2023-02-16 17:12:53:411,-1.2439,2.11906,-9.83753,-10.173,-6.57825,8.26064
2023-02-16 17:12:53:421,-1.2322,2.08328,-10.0482,-10.2004,-6.59884,8.0848
2023-02-16 17:12:53:431,-1.18688,2.05272,-10.1567,-10.2101,-6.61896,7.90264
2023-02-16 17:12:53:441,-1.10778,2.02934,-10.1057,-10.1982,-6.63518,7.72065
2023-02-16 17:12:53:451,-1.03574,1.96464,-9.93355,-10.1658,-6.64301,7.53681
2023-02-16 17:12:53:461,-0.998138,1.87477,-9.69773,-10.1226,-6.64624,7.35923
2023-02-16 17:12:53:471,-0.926213,1.78801,-9.54896,-10.0674,-6.63917,7.19218
2023-02-16 17:12:53:481,-0.82038,1.70326,-9.55589,-10.0111,-6.62502,7.03103
2023-02-16 17:12:53:491,-0.791011,1.60579,-9.65934,-9.94903,-6.61207,6.88767
2023-02-16 17:12:53:501,-0.868139,1.48425,-9.7179,-9.8761,-6.60604,6.7624
2023-02-16 17:12:53:511,-0.936763,1.38693,-9.66175,-9.79582,-6.60358,6.64659
2023-02-16 17:12:53:521,-0.962398,1.3034,-9.57577,-9.7109,-6.60152,6.5358
2023-02-16 17:12:53:531,-0.991139,1.20143,-9.49071,-9.61898,-6.60023,6.43293
2023-02-16 17:12:53:541,-1.02235,1.07088,-9.31719,-9.52312,-6.60252,6.33713
2023-02-16 17:12:53:551,-1.07709,0.894598,-9.16681,-9.43879,-6.61049,6.25415
2023-02-16 17:12:53:561,-1.17584,0.796242,-9.12844,-9.37263,-6.61975,6.17832
2023-02-16 17:12:53:571,-1.24923,0.785669,-9.19629,-9.33089,-6.62825,6.10018
2023-02-16 17:12:53:581,-1.22974,0.772569,-9.33609,-9.31221,-6.64002,6.01551
2023-02-16 17:12:53:591,-1.24085,0.802119,-9.44301,-9.31025,-6.65366,5.92663
2023-02-16 17:12:53:601,-1.21741,0.832864,-9.51166,-9.32083,-6.66568,5.82982
2023-02-16 17:12:53:611,-1.20052,0.837443,-9.56299,-9.3303,-6.67471,5.7267
2023-02-16 17:12:53:621,-1.15341,0.809768,-9.57755,-9.33866,-6.68145,5.6172
2023-02-16 17:12:53:631,-1.0599,0.786803,-9.53604,-9.34217,-6.68256,5.49687
2023-02-16 17:12:53:641,-0.997666,0.794463,-9.41078,-9.35205,-6.67977,5.37538
2023-02-16 17:12:53:651,-0.92403,0.783705,-9.26102,-9.37253,-6.6723,5.25076
2023-02-16 17:12:53:661,-0.833357,0.793449,-9.30251,-9.40741,-6.67435,5.12552
2023-02-16 17:12:53:671,-0.812785,0.952104,-9.49968,-9.47075,-6.68609,5.00873
2023-02-16 17:12:53:681,-0.88984,1.08615,-9.67152,-9.54969,-6.70668,4.89835
2023-02-16 17:12:53:691,-0.940333,1.18812,-9.83448,-9.63153,-6.73417,4.7942
2023-02-16 17:12:53:701,-0.91611,1.28601,-10.0018,-9.71103,-6.75821,4.69476
2023-02-16 17:12:53:711,-0.932039,1.35467,-10.1299,-9.77996,-6.77719,4.60885
2023-02-16 17:12:53:721,-0.951592,1.42601,-10.2241,-9.83047,-6.78472,4.52991
2023-02-16 17:12:53:731,-0.863147,1.45126,-10.2401,-9.85343,-6.77943,4.46201
2023-02-16 17:12:53:741,-0.755901,1.37994,-10.1084,-9.85075,-6.77735,4.40685
2023-02-16 17:12:53:751,-0.67487,1.27393,-9.89741,-9.82828,-6.77782,4.37066
2023-02-16 17:12:53:761,-0.608306,1.23995,-9.74471,-9.80461,-6.7881,4.35941
2023-02-16 17:12:53:771,-0.575005,1.25242,-9.7107,-9.78536,-6.80179,4.37832
2023-02-16 17:12:53:781,-0.59999,1.30915,-9.68159,-9.77933,-6.83248,4.42948
2023-02-16 17:12:53:791,-0.718064,1.39594,-9.5968,-9.77878,-6.88083,4.50636
2023-02-16 17:12:53:801,-0.926137,1.451,-9.45256,-9.7765,-6.93888,4.61501
2023-02-16 17:12:53:811,-1.13424,1.44781,-9.28351,-9.7667,-7.00222,4.7496
2023-02-16 17:12:53:821,-1.31562,1.47096,-9.23368,-9.76272,-7.05005,4.90291
2023-02-16 17:12:53:831,-1.45214,1.52548,-9.2568,-9.75836,-7.07991,5.06909
2023-02-16 17:12:53:841,-1.54474,1.52967,-9.27867,-9.75712,-7.09619,5.23793
2023-02-16 17:12:53:851,-1.59717,1.56328,-9.32609,-9.7541,-7.0948,5.40808
2023-02-16 17:12:53:861,-1.57557,1.58527,-9.36619,-9.75413,-7.07371,5.57035
2023-02-16 17:12:53:871,-1.54855,1.60009,-9.4305,-9.75274,-7.0334,5.72896
2023-02-16 17:12:53:881,-1.53645,1.60293,-9.47885,-9.75081,-6.98473,5.88101
2023-02-16 17:12:53:891,-1.50871,1.59579,-9.57414,-9.74967,-6.93123,6.02284
2023-02-16 17:12:53:901,-1.45755,1.59965,-9.6582,-9.74551,-6.8746,6.15176
2023-02-16 17:12:53:911,-1.42739,1.59257,-9.67422,-9.73344,-6.82253,6.27399
2023-02-16 17:12:53:921,-1.43552,1.55295,-9.6332,-9.71293,-6.77875,6.37797
2023-02-16 17:12:53:931,-1.48305,1.52223,-9.5815,-9.68798,-6.73628,6.47068
2023-02-16 17:12:53:941,-1.55105,1.53252,-9.49019,-9.6637,-6.70827,6.54822
2023-02-16 17:12:53:951,-1.59808,1.54008,-9.38212,-9.64339,-6.68718,6.6089
2023-02-16 17:12:53:961,-1.62175,1.56064,-9.2923,-9.63322,-6.66745,6.65049
2023-02-16 17:12:53:971,-1.62732,1.58259,-9.2637,-9.63606,-6.6461,6.67097
2023-02-16 17:12:53:981,-1.58604,1.62871,-9.29927,-9.65625,-6.62487,6.67448
2023-02-16 17:12:53:991,-1.55011,1.66699,-9.37837,-9.68591,-6.6008,6.65976
2023-02-16 17:12:54:1,-1.49541,1.71167,-9.49278,-9.72263,-6.57453,6.62841
2023-02-16 17:12:54:11,-1.42001,1.74734,-9.62198,-9.76194,-6.55048,6.58412
2023-02-16 17:12:54:21,-1.30097,1.7542,-9.74726,-9.79283,-6.52159,6.52465
2023-02-16 17:12:54:31,-1.19356,1.73496,-9.83561,-9.8127,-6.49045,6.46142
2023-02-16 17:12:54:41,-1.11862,1.70149,-9.84572,-9.81875,-6.45883,6.39329
2023-02-16 17:12:54:51,-1.05473,1.6535,-9.75054,-9.81159,-6.42586,6.32713
2023-02-16 17:12:54:61,-0.997907,1.59249,-9.62999,-9.79651,-6.39087,6.25879
2023-02-16 17:12:54:71,-0.947747,1.51583,-9.51147,-9.77289,-6.35722,6.19647
2023-02-16 17:12:54:81,-0.914559,1.48794,-9.42946,-9.75209,-6.32337,6.14101
2023-02-16 17:12:54:91,-0.883435,1.49965,-9.4309,-9.74064,-6.29471,6.08729
2023-02-16 17:12:54:101,-0.838175,1.5143,-9.47625,-9.73969,-6.26426,6.03509
2023-02-16 17:12:54:111,-0.833098,1.53165,-9.51453,-9.74534,-6.23889,5.99025
2023-02-16 17:12:54:121,-0.820823,1.55227,-9.52361,-9.75192,-6.2182,5.94919
2023-02-16 17:12:54:131,-0.797368,1.56539,-9.53869,-9.75929,-6.20421,5.91344
2023-02-16 17:12:54:141,-0.789926,1.57439,-9.54709,-9.77036,-6.19407,5.88589
2023-02-16 17:12:54:151,-0.802616,1.5648,-9.56339,-9.78206,-6.18564,5.86104
2023-02-16 17:12:54:161,-0.807135,1.57333,-9.56955,-9.79983,-6.18414,5.84513
2023-02-16 17:12:54:171,-0.801153,1.60103,-9.56448,-9.81836,-6.1885,5.83162
2023-02-16 17:12:54:181,-0.828362,1.65124,-9.58968,-9.84482,-6.19981,5.82107
2023-02-16 17:12:54:191,-0.865905,1.70188,-9.64328,-9.86986,-6.21856,5.81504
2023-02-16 17:12:54:201,-0.897088,1.78366,-9.71315,-9.8967,-6.23826,5.81228
2023-02-16 17:12:54:211,-0.93117,1.81849,-9.7684,-9.91842,-6.25986,5.8116
2023-02-16 17:12:54:221,-0.966243,1.85105,-9.78597,-9.93763,-6.28465,5.81772
2023-02-16 17:12:54:231,-0.980965,1.85878,-9.79098,-9.94801,-6.30958,5.83016
2023-02-16 17:12:54:241,-1.00781,1.85412,-9.7703,-9.95045,-6.33199,5.84482
2023-02-16 17:12:54:251,-1.02594,1.8261,-9.74416,-9.94515,-6.35118,5.86208
2023-02-16 17:12:54:261,-1.04614,1.79898,-9.72499,-9.93278,-6.36916,5.87972
2023-02-16 17:12:54:271,-1.08542,1.77596,-9.69314,-9.91573,-6.39144,5.90165
2023-02-16 17:12:54:281,-1.10521,1.75239,-9.64956,-9.89463,-6.41526,5.91933
2023-02-16 17:12:54:291,-1.09953,1.71777,-9.64944,-9.87294,-6.44014,5.93609
2023-02-16 17:12:54:301,-1.0922,1.70986,-9.68705,-9.84974,-6.46123,5.94978
2023-02-16 17:12:54:311,-1.09341,1.69049,-9.69336,-9.82363,-6.4878,5.96299
2023-02-16 17:12:54:321,-1.09467,1.6404,-9.6336,-9.79253,-6.51598,5.97629
2023-02-16 17:12:54:331,-1.12962,1.60093,-9.5624,-9.76445,-6.54517,5.99119
2023-02-16 17:12:54:341,-1.19714,1.60764,-9.53016,-9.73729,-6.57911,6.00451
2023-02-16 17:12:54:351,-1.25033,1.59646,-9.52256,-9.70943,-6.60765,6.0194
2023-02-16 17:12:54:361,-1.298,1.58956,-9.47983,-9.68337,-6.63319,6.03027
2023-02-16 17:12:54:371,-1.29951,1.56887,-9.42907,-9.66127,-6.65052,6.03851
2023-02-16 17:12:54:381,-1.29005,1.54223,-9.40095,-9.64214,-6.66244,6.04199
2023-02-16 17:12:54:391,-1.24939,1.52721,-9.39692,-9.63124,-6.66887,6.04106
2023-02-16 17:12:54:401,-1.21964,1.52171,-9.39371,-9.62498,-6.67204,6.03449
2023-02-16 17:12:54:411,-1.18358,1.49747,-9.38845,-9.62801,-6.67031,6.02381
2023-02-16 17:12:54:421,-1.13545,1.48663,-9.39393,-9.63213,-6.67015,6.00975
2023-02-16 17:12:54:431,-1.11241,1.51029,-9.44533,-9.64795,-6.66809,5.99188
2023-02-16 17:12:54:441,-1.11224,1.55181,-9.51867,-9.67018,-6.66802,5.9742
2023-02-16 17:12:54:451,-1.10659,1.57755,-9.57022,-9.69802,-6.66948,5.95612
2023-02-16 17:12:54:461,-1.1216,1.60272,-9.62214,-9.72609,-6.67377,5.9326
2023-02-16 17:12:54:471,-1.12483,1.62699,-9.63513,-9.75277,-6.68121,5.90812
2023-02-16 17:12:54:481,-1.10705,1.60863,-9.59513,-9.77629,-6.69158,5.87906
2023-02-16 17:12:54:491,-1.09284,1.58733,-9.54096,-9.79528,-6.70212,5.8497
2023-02-16 17:12:54:501,-1.09736,1.56674,-9.5288,-9.81598,-6.71204,5.81936
2023-02-16 17:12:54:511,-1.126,1.60044,-9.52274,-9.84248,-6.72433,5.79508
2023-02-16 17:12:54:521,-1.09963,1.58184,-9.46295,-9.8702,-6.73738,5.76809
2023-02-16 17:12:54:531,-1.09805,1.54045,-9.41301,-9.90208,-6.74905,5.74832
2023-02-16 17:12:54:541,-1.14174,1.5797,-9.4371,-9.94174,-6.76377,5.73021
2023-02-16 17:12:54:551,-1.17688,1.65168,-9.54,-9.99167,-6.77514,5.71323
2023-02-16 17:12:54:561,-1.16389,1.72654,-9.6353,-10.0446,-6.78158,5.69274
2023-02-16 17:12:54:571,-1.1342,1.75276,-9.68883,-10.0959,-6.78804,5.67176
2023-02-16 17:12:54:581,-1.14232,1.76616,-9.68693,-10.1377,-6.79131,5.6485
2023-02-16 17:12:54:591,-1.14954,1.77104,-9.62529,-10.1742,-6.79664,5.63145
2023-02-16 17:12:54:601,-1.1278,1.74786,-9.55463,-10.2079,-6.79807,5.61071
2023-02-16 17:12:54:611,-1.11005,1.72891,-9.51917,-10.2421,-6.80004,5.59502
2023-02-16 17:12:54:621,-1.10214,1.74427,-9.5027,-10.2779,-6.79918,5.58728
2023-02-16 17:12:54:631,-1.10525,1.78437,-9.54182,-10.3186,-6.79939,5.58199
2023-02-16 17:12:54:641,-1.09398,1.8343,-9.60744,-10.3629,-6.79731,5.57589
2023-02-16 17:12:54:651,-1.1007,1.87393,-9.64474,-10.4061,-6.79576,5.57475
2023-02-16 17:12:54:661,-1.13041,1.90098,-9.63782,-10.445,-6.79408,5.57523
2023-02-16 17:12:54:671,-1.15355,1.92631,-9.66782,-10.483,-6.79366,5.57768
2023-02-16 17:12:54:681,-1.16113,1.96719,-9.68962,-10.5137,-6.79225,5.57523
2023-02-16 17:12:54:691,-1.16374,1.97715,-9.69792,-10.5398,-6.79306,5.57469
2023-02-16 17:12:54:701,-1.16716,1.96646,-9.68022,-10.5546,-6.7926,5.57193
2023-02-16 17:12:54:711,-1.15509,1.94197,-9.62366,-10.5623,-6.79016,5.57419
2023-02-16 17:12:54:721,-1.13059,1.91126,-9.56476,-10.5635,-6.78849,5.57482
2023-02-16 17:12:54:731,-1.12095,1.85753,-9.51451,-10.5616,-6.78746,5.57804
2023-02-16 17:12:54:741,-1.12673,1.83851,-9.50681,-10.5607,-6.78655,5.58805
2023-02-16 17:12:54:751,-1.14403,1.83688,-9.51993,-10.5677,-6.78715,5.59974
2023-02-16 17:12:54:761,-1.13862,1.85415,-9.54702,-10.5702,-6.78675,5.6109
2023-02-16 17:12:54:771,-1.14399,1.87303,-9.59332,-10.5773,-6.78657,5.62221
2023-02-16 17:12:54:781,-1.17711,1.88244,-9.62832,-10.5835,-6.78566,5.63744
2023-02-16 17:12:54:791,-1.1945,1.8762,-9.63493,-10.5865,-6.78428,5.64925
2023-02-16 17:12:54:801,-1.18385,1.8677,-9.61608,-10.5838,-6.78385,5.66557
2023-02-16 17:12:54:811,-1.20861,1.84351,-9.58056,-10.5759,-6.78475,5.68477
2023-02-16 17:12:54:821,-1.25669,1.81989,-9.54293,-10.5682,-6.78873,5.69734
2023-02-16 17:12:54:831,-1.2928,1.80189,-9.51479,-10.5641,-6.78895,5.70975
2023-02-16 17:12:54:841,-1.31209,1.77931,-9.51066,-10.5586,-6.79022,5.72332
2023-02-16 17:12:54:851,-1.3187,1.76277,-9.4817,-10.5564,-6.78785,5.72915
2023-02-16 17:12:54:861,-1.3253,1.74253,-9.45613,-10.551,-6.7873,5.73292
2023-02-16 17:12:54:871,-1.29184,1.72715,-9.43595,-10.5463,-6.77702,5.72806
2023-02-16 17:12:54:881,-1.24454,1.72201,-9.44989,-10.5438,-6.76801,5.72064
2023-02-16 17:12:54:891,-1.22971,1.73018,-9.49334,-10.5499,-6.75313,5.71159
2023-02-16 17:12:54:901,-1.2088,1.75582,-9.53824,-10.556,-6.74157,5.6989
2023-02-16 17:12:54:911,-1.17823,1.76528,-9.56084,-10.5612,-6.72873,5.68638
2023-02-16 17:12:54:921,-1.16931,1.7631,-9.55306,-10.569,-6.71335,5.67166
2023-02-16 17:12:54:931,-1.18527,1.76465,-9.56889,-10.5746,-6.70035,5.66031
2023-02-16 17:12:54:941,-1.18419,1.75661,-9.58136,-10.5836,-6.68734,5.64315
2023-02-16 17:12:54:951,-1.19914,1.75421,-9.5488,-10.5859,-6.67473,5.62676
2023-02-16 17:12:54:961,-1.2141,1.74165,-9.4839,-10.5915,-6.65687,5.60854
2023-02-16 17:12:54:971,-1.20334,1.71252,-9.45506,-10.5954,-6.63416,5.59225
2023-02-16 17:12:54:981,-1.18447,1.73468,-9.46323,-10.6027,-6.60994,5.57374
2023-02-16 17:12:54:991,-1.18296,1.74588,-9.48765,-10.6142,-6.58369,5.5547
2023-02-16 17:12:55:1,-1.1563,1.7607,-9.52624,-10.632,-6.55365,5.53472
2023-02-16 17:12:55:11,-1.12551,1.77144,-9.53963,-10.6491,-6.52079,5.51291
2023-02-16 17:12:55:21,-1.09515,1.77229,-9.55545,-10.666,-6.48614,5.48501
2023-02-16 17:12:55:31,-1.0494,1.8015,-9.56508,-10.6836,-6.45366,5.45767
2023-02-16 17:12:55:41,-1.0144,1.81272,-9.5875,-10.703,-6.42203,5.42932
2023-02-16 17:12:55:51,-1.00521,1.8429,-9.63539,-10.7197,-6.39233,5.39957
2023-02-16 17:12:55:61,-1.01936,1.84725,-9.66383,-10.733,-6.36771,5.36972
2023-02-16 17:12:55:71,-1.01627,1.85567,-9.67348,-10.7432,-6.34413,5.34138
2023-02-16 17:12:55:81,-0.982198,1.86848,-9.69768,-10.7476,-6.32104,5.31399
2023-02-16 17:12:55:91,-0.930988,1.86324,-9.69397,-10.7501,-6.29934,5.28147
2023-02-16 17:12:55:101,-0.928398,1.83221,-9.66398,-10.7467,-6.28011,5.25361
2023-02-16 17:12:55:111,-0.964436,1.82817,-9.62454,-10.7417,-6.27334,5.2283
2023-02-16 17:12:55:121,-0.966087,1.83064,-9.60586,-10.7396,-6.26898,5.20672
2023-02-16 17:12:55:131,-0.960278,1.84107,-9.58367,-10.739,-6.26131,5.18686
2023-02-16 17:12:55:141,-0.955258,1.84741,-9.57369,-10.7366,-6.25573,5.16871
2023-02-16 17:12:55:151,-0.933014,1.85755,-9.58046,-10.7312,-6.2568,5.15166
2023-02-16 17:12:55:161,-0.947556,1.87941,-9.58228,-10.7284,-6.26064,5.13829
2023-02-16 17:12:55:171,-0.946076,1.89148,-9.56678,-10.73,-6.26771,5.12639
2023-02-16 17:12:55:181,-0.959145,1.8778,-9.54068,-10.7279,-6.27472,5.11957
2023-02-16 17:12:55:191,-0.985052,1.87723,-9.53051,-10.7266,-6.28178,5.11939
2023-02-16 17:12:55:201,-0.988045,1.87503,-9.54588,-10.7212,-6.29156,5.1204
2023-02-16 17:12:55:211,-1.02997,1.86587,-9.55668,-10.7168,-6.29559,5.12548
2023-02-16 17:12:55:221,-1.09288,1.83831,-9.54931,-10.7073,-6.29852,5.12933
2023-02-16 17:12:55:231,-1.13936,1.82775,-9.53522,-10.6959,-6.29763,5.13558
2023-02-16 17:12:55:241,-1.16229,1.81451,-9.50327,-10.6815,-6.29877,5.1404
2023-02-16 17:12:55:251,-1.1688,1.77071,-9.47546,-10.6684,-6.29926,5.14027
2023-02-16 17:12:55:261,-1.12505,1.75493,-9.44533,-10.6617,-6.29994,5.14092
2023-02-16 17:12:55:271,-1.07822,1.72378,-9.40248,-10.6591,-6.30344,5.13872
2023-02-16 17:12:55:281,-1.04228,1.71403,-9.36831,-10.6653,-6.3056,5.1357
2023-02-16 17:12:55:291,-1.01687,1.73525,-9.39475,-10.6896,-6.31464,5.13283
2023-02-16 17:12:55:301,-1.04253,1.7703,-9.45284,-10.7263,-6.32481,5.13238
2023-02-16 17:12:55:311,-1.10887,1.79874,-9.50399,-10.7687,-6.3309,5.13579
2023-02-16 17:12:55:321,-1.13495,1.82828,-9.59079,-10.808,-6.32704,5.13492
2023-02-16 17:12:55:331,-1.03935,1.85616,-9.66058,-10.8416,-6.30949,5.13645
2023-02-16 17:12:55:341,-0.877716,1.80942,-9.63809,-10.8643,-6.27831,5.13719
2023-02-16 17:12:55:351,-0.738954,1.71148,-9.49839,-10.8792,-6.2426,5.14054
2023-02-16 17:12:55:361,-0.606162,1.64416,-9.37966,-10.8925,-6.21136,5.1564
2023-02-16 17:12:55:371,-0.51621,1.62931,-9.3552,-10.9229,-6.18831,5.18371
2023-02-16 17:12:55:381,-0.546159,1.67491,-9.40714,-10.9709,-6.17754,5.23011
2023-02-16 17:12:55:391,-0.65779,1.7442,-9.50234,-11.0321,-6.18547,5.29563
2023-02-16 17:12:55:401,-0.790244,1.84178,-9.63673,-11.1006,-6.20184,5.36687
2023-02-16 17:12:55:411,-0.925315,1.88651,-9.74495,-11.1609,-6.21999,5.44607
2023-02-16 17:12:55:421,-1.05563,1.87673,-9.76748,-11.2097,-6.23868,5.52605
2023-02-16 17:12:55:431,-1.15767,1.89267,-9.79482,-11.246,-6.25625,5.60296
2023-02-16 17:12:55:441,-1.23396,1.88252,-9.76524,-11.2654,-6.27151,5.67389
2023-02-16 17:12:55:451,-1.30325,1.85906,-9.72561,-11.2739,-6.28008,5.73575
2023-02-16 17:12:55:461,-1.37787,1.84551,-9.69011,-11.2829,-6.2824,5.78478
2023-02-16 17:12:55:471,-1.39447,1.8995,-9.76868,-11.294,-6.27767,5.81812
2023-02-16 17:12:55:481,-1.33837,2.02433,-9.83214,-11.2986,-6.26772,5.83102
2023-02-16 17:12:55:491,-1.22479,2.02501,-9.74203,-11.2908,-6.2463,5.82758
2023-02-16 17:12:55:501,-1.07768,1.98673,-9.59916,-11.277,-6.22056,5.81621
2023-02-16 17:12:55:511,-0.909054,2.0369,-9.53827,-11.2722,-6.19599,5.80312
2023-02-16 17:12:55:521,-0.837939,2.13343,-9.56384,-11.275,-6.18219,5.7963
2023-02-16 17:12:55:531,-0.894693,2.24061,-9.61225,-11.285,-6.18098,5.79766
2023-02-16 17:12:55:541,-1.05768,2.38849,-9.71127,-11.2963,-6.19249,5.81265
2023-02-16 17:12:55:551,-1.2246,2.44681,-9.68702,-11.2942,-6.21364,5.8311
2023-02-16 17:12:55:561,-1.33715,2.38612,-9.56608,-11.273,-6.23395,5.85139
2023-02-16 17:12:55:571,-1.36494,2.33221,-9.47608,-11.2352,-6.24551,5.87419
2023-02-16 17:12:55:581,-1.36975,2.28973,-9.43321,-11.1905,-6.24718,5.89884
2023-02-16 17:12:55:591,-1.37953,2.2313,-9.38006,-11.1415,-6.23853,5.92462
2023-02-16 17:12:55:601,-1.37448,2.14803,-9.37685,-11.093,-6.21803,5.94875
2023-02-16 17:12:55:611,-1.32167,2.11715,-9.49436,-11.0449,-6.18978,5.97313
2023-02-16 17:12:55:621,-1.25471,2.13054,-9.68512,-10.996,-6.15666,5.99153
2023-02-16 17:12:55:631,-1.22917,2.1129,-9.73796,-10.9327,-6.12131,6.00789
2023-02-16 17:12:55:641,-1.16762,1.9745,-9.60043,-10.8479,-6.08121,6.02218
2023-02-16 17:12:55:651,-1.09884,1.78666,-9.38644,-10.7424,-6.04355,6.03345
2023-02-16 17:12:55:661,-1.03433,1.6148,-9.19147,-10.6344,-6.01222,6.04316
2023-02-16 17:12:55:671,-0.995888,1.47257,-9.06057,-10.5376,-5.98613,6.05071
2023-02-16 17:12:55:681,-1.00918,1.33627,-8.99344,-10.4578,-5.96577,6.06029
2023-02-16 17:12:55:691,-1.01078,1.24141,-9.00611,-10.4023,-5.94295,6.07041
2023-02-16 17:12:55:701,-0.945876,1.18005,-9.17934,-10.3771,-5.91891,6.07689
2023-02-16 17:12:55:711,-0.876782,1.21491,-9.59869,-10.3866,-5.89864,6.07889
2023-02-16 17:12:55:721,-0.775184,1.44429,-10.0161,-10.4146,-5.89252,6.07539
2023-02-16 17:12:55:731,-0.532228,1.52387,-9.97263,-10.4382,-5.90089,6.06319
2023-02-16 17:12:55:741,-0.408634,1.30921,-9.67555,-10.4393,-5.91251,6.07298
2023-02-16 17:12:55:751,-0.568883,1.40633,-9.59832,-10.4512,-5.92032,6.11775
2023-02-16 17:12:55:761,-0.852477,1.54639,-9.50988,-10.4797,-5.92463,6.17986
2023-02-16 17:12:55:771,-1.06856,1.62618,-9.35124,-10.5134,-5.92622,6.24854
2023-02-16 17:12:55:781,-1.14066,1.78273,-9.27669,-10.5556,-5.91244,6.3141
2023-02-16 17:12:55:791,-1.1823,1.88588,-9.33958,-10.6086,-5.87801,6.37343
2023-02-16 17:12:55:801,-1.19176,2.05388,-9.48917,-10.6622,-5.82899,6.41803
2023-02-16 17:12:55:811,-1.09447,2.11559,-9.54991,-10.7087,-5.76821,6.44516
2023-02-16 17:12:55:821,-0.977677,2.1291,-9.61369,-10.7499,-5.69869,6.46449
2023-02-16 17:12:55:831,-0.944024,2.14534,-9.66086,-10.7746,-5.62938,6.47373
2023-02-16 17:12:55:841,-0.960313,2.10274,-9.71421,-10.7848,-5.57401,6.47456
2023-02-16 17:12:55:851,-0.976338,2.06274,-9.81667,-10.7922,-5.53443,6.4672
2023-02-16 17:12:55:861,-0.940096,2.07269,-9.90044,-10.7936,-5.51075,6.44729
2023-02-16 17:12:55:871,-0.82481,1.98743,-9.89115,-10.7817,-5.49675,6.41629
2023-02-16 17:12:55:881,-0.765394,1.88978,-9.8124,-10.7562,-5.48941,6.38266
2023-02-16 17:12:55:891,-0.837031,1.82569,-9.68893,-10.7267,-5.49622,6.35386
2023-02-16 17:12:55:901,-0.924032,1.77845,-9.59373,-10.6964,-5.51899,6.31814
2023-02-16 17:12:55:911,-0.974729,1.71655,-9.51888,-10.6705,-5.55409,6.27904
2023-02-16 17:12:55:921,-1.00799,1.67986,-9.55454,-10.6529,-5.60113,6.23377
2023-02-16 17:12:55:931,-1.02191,1.75316,-9.75701,-10.6504,-5.65598,6.18311
2023-02-16 17:12:55:941,-0.995456,1.83118,-9.93306,-10.6496,-5.71784,6.12405
2023-02-16 17:12:55:951,-0.956958,1.8269,-9.9078,-10.6262,-5.77599,6.05652
2023-02-16 17:12:55:961,-0.932513,1.77535,-9.76568,-10.5869,-5.82748,5.99501
2023-02-16 17:12:55:971,-0.863943,1.71685,-9.6007,-10.5371,-5.86995,5.9385
2023-02-16 17:12:55:981,-0.82797,1.64526,-9.4061,-10.4834,-5.90676,5.88587
2023-02-16 17:12:55:991,-0.843419,1.58368,-9.22985,-10.4332,-5.93979,5.84403
2023-02-16 17:12:56:1,-0.850292,1.56246,-9.16458,-10.4007,-5.97345,5.81105
2023-02-16 17:12:56:11,-0.83916,1.59038,-9.21401,-10.3892,-6.00808,5.78827
2023-02-16 17:12:56:21,-0.855428,1.65416,-9.30507,-10.3947,-6.03696,5.77397
2023-02-16 17:12:56:31,-0.911605,1.70111,-9.33619,-10.4081,-6.06106,5.76939
2023-02-16 17:12:56:41,-0.972971,1.71706,-9.34431,-10.4233,-6.0753,5.77278
2023-02-16 17:12:56:51,-1.03212,1.73499,-9.34395,-10.4508,-6.08376,5.78364
2023-02-16 17:12:56:61,-1.06999,1.77549,-9.32938,-10.4818,-6.07918,5.79495
2023-02-16 17:12:56:71,-1.08285,1.80744,-9.32357,-10.5244,-6.0694,5.80756
2023-02-16 17:12:56:81,-1.07538,1.8314,-9.31516,-10.5681,-6.05057,5.81676
2023-02-16 17:12:56:91,-1.06777,1.8512,-9.35714,-10.6228,-6.02564,5.82074
2023-02-16 17:12:56:101,-1.04462,1.88357,-9.45364,-10.6779,-5.99605,5.81914
2023-02-16 17:12:56:111,-1.01145,1.93779,-9.57688,-10.7417,-5.96364,5.80491
2023-02-16 17:12:56:121,-0.975548,1.94895,-9.61927,-10.802,-5.93494,5.78326
2023-02-16 17:12:56:131,-0.933135,1.94414,-9.65166,-10.8636,-5.91144,5.75765
2023-02-16 17:12:56:141,-0.915048,1.95455,-9.6338,-10.9201,-5.89021,5.72232
2023-02-16 17:12:56:151,-0.915894,1.9713,-9.61416,-10.9747,-5.87892,5.67839
2023-02-16 17:12:56:161,-0.91984,2.00241,-9.65404,-11.0314,-5.8725,5.62318
2023-02-16 17:12:56:171,-0.981768,2.03664,-9.71297,-11.0861,-5.87371,5.55906
2023-02-16 17:12:56:181,-1.02227,2.07106,-9.82147,-11.1368,-5.87883,5.48198
2023-02-16 17:12:56:191,-0.939604,2.09473,-9.96757,-11.177,-5.88609,5.3923
2023-02-16 17:12:56:201,-0.748767,2.03717,-10.0301,-11.1999,-5.899,5.29901
2023-02-16 17:12:56:211,-0.530972,1.9497,-9.93011,-11.2115,-5.92178,5.20774
2023-02-16 17:12:56:221,-0.428628,1.87687,-9.71235,-11.2154,-5.96997,5.13313
2023-02-16 17:12:56:231,-0.419125,1.83954,-9.52267,-11.2307,-6.04861,5.08594
2023-02-16 17:12:56:241,-0.45771,1.85048,-9.43475,-11.2608,-6.16103,5.07268
2023-02-16 17:12:56:251,-0.595353,1.93452,-9.42197,-11.3146,-6.30126,5.09451
2023-02-16 17:12:56:261,-0.825874,2.02905,-9.40819,-11.3774,-6.46525,5.15315
2023-02-16 17:12:56:271,-1.10884,2.0925,-9.3352,-11.4474,-6.63787,5.24574
2023-02-16 17:12:56:281,-1.41008,2.15109,-9.25768,-11.5192,-6.80629,5.36493
2023-02-16 17:12:56:291,-1.66569,2.21438,-9.29145,-11.586,-6.95047,5.50047
2023-02-16 17:12:56:301,-1.93521,2.2768,-9.39348,-11.6383,-7.05518,5.63955
2023-02-16 17:12:56:311,-2.15121,2.27318,-9.43512,-11.6642,-7.10727,5.76991
2023-02-16 17:12:56:321,-2.12905,2.19731,-9.43959,-11.66,-7.10245,5.87036
2023-02-16 17:12:56:331,-1.90417,2.10551,-9.46283,-11.6387,-7.05403,5.94188
2023-02-16 17:12:56:341,-1.65313,2.03295,-9.49883,-11.6093,-6.96864,5.98942
2023-02-16 17:12:56:351,-1.46761,1.99975,-9.53193,-11.571,-6.8688,6.01211
2023-02-16 17:12:56:361,-1.31759,1.98273,-9.56483,-11.5343,-6.76133,6.01173
2023-02-16 17:12:56:371,-1.12886,1.91704,-9.53797,-11.4967,-6.66716,5.99081
2023-02-16 17:12:56:381,-1.00474,1.8901,-9.50382,-11.4685,-6.5889,5.95451
2023-02-16 17:12:56:391,-0.957817,1.89812,-9.53625,-11.4477,-6.52981,5.9109
2023-02-16 17:12:56:401,-0.930517,1.92766,-9.60567,-11.4449,-6.49737,5.85455
2023-02-16 17:12:56:411,-0.838304,1.9512,-9.65682,-11.4499,-6.48687,5.78401
2023-02-16 17:12:56:421,-0.738547,1.95755,-9.68086,-11.4625,-6.49665,5.70919
2023-02-16 17:12:56:431,-0.720046,1.9629,-9.67516,-11.4727,-6.51826,5.63951
2023-02-16 17:12:56:441,-0.742852,1.9751,-9.65145,-11.4796,-6.55431,5.57627
2023-02-16 17:12:56:451,-0.770149,1.96512,-9.64356,-11.4867,-6.59748,5.52124
2023-02-16 17:12:56:461,-0.818013,1.95397,-9.63157,-11.4883,-6.65038,5.4778
2023-02-16 17:12:56:471,-0.879768,1.95685,-9.62802,-11.4884,-6.70425,5.4448
2023-02-16 17:12:56:481,-0.922628,1.95153,-9.62008,-11.4868,-6.75877,5.42271
2023-02-16 17:12:56:491,-0.963436,1.94779,-9.58303,-11.4765,-6.80628,5.41198
2023-02-16 17:12:56:501,-0.994984,1.91276,-9.52823,-11.4555,-6.85207,5.40991
2023-02-16 17:12:56:511,-0.996582,1.84722,-9.45095,-11.4339,-6.89033,5.42073
2023-02-16 17:12:56:521,-1.01245,1.80423,-9.38012,-11.4106,-6.92022,5.44226
2023-02-16 17:12:56:531,-1.09151,1.78525,-9.33124,-11.3882,-6.94994,5.47221
2023-02-16 17:12:56:541,-1.14772,1.76951,-9.33195,-11.3759,-6.97744,5.5124
2023-02-16 17:12:56:551,-1.21096,1.79534,-9.36746,-11.373,-7.00521,5.55875
2023-02-16 17:12:56:561,-1.30156,1.86598,-9.44469,-11.3823,-7.02953,5.60951
2023-02-16 17:12:56:571,-1.3869,1.94271,-9.48964,-11.3973,-7.053,5.65987
2023-02-16 17:12:56:581,-1.4566,1.95313,-9.46518,-11.4103,-7.07023,5.70498
2023-02-16 17:12:56:591,-1.46813,1.96374,-9.46106,-11.4229,-7.08118,5.74543
2023-02-16 17:12:56:601,-1.4238,1.98142,-9.50949,-11.4394,-7.08437,5.77663
2023-02-16 17:12:56:611,-1.37106,1.98834,-9.55033,-11.4558,-7.08215,5.80198
2023-02-16 17:12:56:621,-1.3118,1.97366,-9.56492,-11.4694,-7.07647,5.82243
2023-02-16 17:12:56:631,-1.23743,1.94367,-9.56076,-11.4753,-7.06687,5.83708
2023-02-16 17:12:56:641,-1.18977,1.93211,-9.57507,-11.4811,-7.06133,5.85232
2023-02-16 17:12:56:651,-1.17039,1.92074,-9.57473,-11.4918,-7.06226,5.86533
2023-02-16 17:12:56:661,-1.16867,1.92497,-9.5677,-11.5019,-7.07148,5.87948
2023-02-16 17:12:56:671,-1.18523,1.93191,-9.57057,-11.5137,-7.07822,5.8955
2023-02-16 17:12:56:681,-1.19782,1.93026,-9.55591,-11.5274,-7.08716,5.91268
2023-02-16 17:12:56:691,-1.20885,1.94202,-9.54805,-11.5394,-7.10034,5.92866
2023-02-16 17:12:56:701,-1.21865,1.96417,-9.54969,-11.5531,-7.10934,5.94862
2023-02-16 17:12:56:711,-1.22116,1.97037,-9.53575,-11.5654,-7.12029,5.96238
2023-02-16 17:12:56:721,-1.22602,1.97493,-9.53638,-11.5712,-7.13135,5.97727
2023-02-16 17:12:56:731,-1.22544,1.98463,-9.53627,-11.5781,-7.14282,5.99206
2023-02-16 17:12:56:741,-1.21536,1.98111,-9.53644,-11.5778,-7.15216,6.00723
2023-02-16 17:12:56:751,-1.1962,1.94123,-9.4905,-11.571,-7.1611,6.01934
2023-02-16 17:12:56:761,-1.20189,1.90997,-9.45921,-11.5644,-7.17117,6.03359
2023-02-16 17:12:56:771,-1.21354,1.91109,-9.44659,-11.5622,-7.18441,6.04743
2023-02-16 17:12:56:781,-1.24952,1.9339,-9.46086,-11.5632,-7.19937,6.06172
2023-02-16 17:12:56:791,-1.2859,1.96668,-9.5121,-11.5689,-7.21266,6.07548
2023-02-16 17:12:56:801,-1.32046,1.9857,-9.53773,-11.573,-7.22709,6.08724
2023-02-16 17:12:56:811,-1.33853,1.98742,-9.54371,-11.5777,-7.24103,6.10126
2023-02-16 17:12:56:821,-1.30784,1.99723,-9.55074,-11.5815,-7.25096,6.10852
2023-02-16 17:12:56:831,-1.25631,1.99723,-9.56515,-11.5814,-7.25944,6.11107
2023-02-16 17:12:56:841,-1.23326,2.00076,-9.55526,-11.5804,-7.26561,6.11414
2023-02-16 17:12:56:851,-1.23694,1.99482,-9.50285,-11.5759,-7.27226,6.11676
2023-02-16 17:12:56:861,-1.25884,1.98304,-9.44989,-11.5736,-7.28279,6.12837
2023-02-16 17:12:56:871,-1.25706,1.98031,-9.45079,-11.5728,-7.2884,6.13435
2023-02-16 17:12:56:881,-1.21988,1.98534,-9.47685,-11.5733,-7.28988,6.14112
2023-02-16 17:12:56:891,-1.19464,1.97856,-9.49493,-11.5743,-7.29934,6.15016
2023-02-16 17:12:56:901,-1.22919,1.97833,-9.49117,-11.576,-7.30958,6.15961
2023-02-16 17:12:56:911,-1.27317,1.98534,-9.50526,-11.581,-7.31779,6.17211
2023-02-16 17:12:56:921,-1.30511,1.97457,-9.5375,-11.5838,-7.3277,6.18618
2023-02-16 17:12:56:931,-1.31777,1.98259,-9.55713,-11.581,-7.33319,6.19848
2023-02-16 17:12:56:941,-1.32713,1.99877,-9.54779,-11.5801,-7.33745,6.2104
2023-02-16 17:12:56:951,-1.32689,1.99079,-9.53151,-11.5717,-7.34095,6.21754
2023-02-16 17:12:56:961,-1.30619,1.96802,-9.50288,-11.5614,-7.33615,6.22321
2023-02-16 17:12:56:971,-1.28513,1.95231,-9.4631,-11.549,-7.33451,6.22715
2023-02-16 17:12:56:981,-1.2484,1.9256,-9.42455,-11.5379,-7.33425,6.22647
2023-02-16 17:12:56:991,-1.25812,1.92295,-9.42419,-11.5294,-7.33366,6.22295
2023-02-16 17:12:57:1,-1.26646,1.92618,-9.43086,-11.5262,-7.33801,6.21887
2023-02-16 17:12:57:11,-1.28037,1.93668,-9.44237,-11.5279,-7.34358,6.2127
2023-02-16 17:12:57:21,-1.30518,1.92967,-9.47576,-11.5286,-7.34923,6.20701
2023-02-16 17:12:57:31,-1.31967,1.95562,-9.52013,-11.5296,-7.35246,6.19857
2023-02-16 17:12:57:41,-1.35763,1.98684,-9.5487,-11.5339,-7.35372,6.19039
2023-02-16 17:12:57:51,-1.38899,1.98166,-9.58517,-11.5346,-7.35269,6.18073
2023-02-16 17:12:57:61,-1.38179,1.98219,-9.57836,-11.5312,-7.35079,6.16543
2023-02-16 17:12:57:71,-1.37735,1.97834,-9.5374,-11.5292,-7.34406,6.15119
2023-02-16 17:12:57:81,-1.36323,1.95946,-9.50231,-11.5205,-7.33396,6.13435
2023-02-16 17:12:57:91,-1.34701,1.96743,-9.4888,-11.5146,-7.31775,6.11318
2023-02-16 17:12:57:101,-1.3237,1.97365,-9.49516,-11.5062,-7.30253,6.09293
2023-02-16 17:12:57:111,-1.29232,1.96123,-9.51612,-11.5001,-7.28666,6.06706
2023-02-16 17:12:57:121,-1.26001,1.96759,-9.52525,-11.4933,-7.27302,6.04309
2023-02-16 17:12:57:131,-1.21246,1.96713,-9.5234,-11.4841,-7.2648,6.01456
2023-02-16 17:12:57:141,-1.17858,1.96484,-9.51124,-11.4749,-7.25504,5.98768
2023-02-16 17:12:57:151,-1.19,1.95241,-9.52168,-11.4674,-7.25016,5.9619
2023-02-16 17:12:57:161,-1.19193,1.95718,-9.5169,-11.4602,-7.24779,5.93864
2023-02-16 17:12:57:171,-1.18763,1.95519,-9.51483,-11.4518,-7.24241,5.91491
2023-02-16 17:12:57:181,-1.17614,1.94697,-9.51125,-11.4428,-7.23667,5.89161
2023-02-16 17:12:57:191,-1.17908,1.9258,-9.49107,-11.4333,-7.22887,5.87193
2023-02-16 17:12:57:201,-1.18646,1.91129,-9.4893,-11.4256,-7.22351,5.85486
2023-02-16 17:12:57:211,-1.19491,1.91604,-9.50823,-11.4168,-7.22225,5.83934
2023-02-16 17:12:57:221,-1.18349,1.92717,-9.51075,-11.4124,-7.21716,5.82423
2023-02-16 17:12:57:231,-1.19578,1.88895,-9.48503,-11.4057,-7.21629,5.81142
2023-02-16 17:12:57:241,-1.21246,1.87254,-9.47138,-11.4028,-7.20949,5.80304
2023-02-16 17:12:57:251,-1.21072,1.86766,-9.49086,-11.4002,-7.20456,5.79329
2023-02-16 17:12:57:261,-1.20831,1.8734,-9.47451,-11.3994,-7.19977,5.786
2023-02-16 17:12:57:271,-1.19332,1.87674,-9.46804,-11.4008,-7.19613,5.78036
2023-02-16 17:12:57:281,-1.1805,1.87459,-9.48755,-11.4036,-7.1913,5.77393
2023-02-16 17:12:57:291,-1.16869,1.86886,-9.4827,-11.4088,-7.18541,5.77022
2023-02-16 17:12:57:301,-1.15889,1.85401,-9.47566,-11.414,-7.18173,5.76951
2023-02-16 17:12:57:311,-1.1651,1.86868,-9.46471,-11.4252,-7.17718,5.76874
2023-02-16 17:12:57:321,-1.16777,1.88028,-9.47846,-11.4361,-7.17895,5.77149
2023-02-16 17:12:57:331,-1.17962,1.89829,-9.52291,-11.4466,-7.17974,5.77791
2023-02-16 17:12:57:341,-1.20377,1.91478,-9.55617,-11.4595,-7.17819,5.7821
2023-02-16 17:12:57:351,-1.21582,1.92351,-9.55698,-11.4722,-7.17583,5.78789
2023-02-16 17:12:57:361,-1.22283,1.92325,-9.53727,-11.4821,-7.17831,5.7958
2023-02-16 17:12:57:371,-1.22877,1.9048,-9.49703,-11.4878,-7.17916,5.8036
2023-02-16 17:12:57:381,-1.23835,1.89437,-9.45199,-11.497,-7.17982,5.81196
2023-02-16 17:12:57:391,-1.24318,1.89371,-9.46397,-11.5112,-7.18301,5.82271
2023-02-16 17:12:57:401,-1.23575,1.90438,-9.48398,-11.5255,-7.18252,5.82641
2023-02-16 17:12:57:411,-1.22151,1.90616,-9.51457,-11.5414,-7.18318,5.8332
2023-02-16 17:12:57:421,-1.1913,1.9262,-9.56815,-11.5602,-7.18302,5.83826
2023-02-16 17:12:57:431,-1.14743,1.95199,-9.59479,-11.5811,-7.18931,5.84004
2023-02-16 17:12:57:441,-1.13764,1.93755,-9.55522,-11.5979,-7.19875,5.84586
2023-02-16 17:12:57:451,-1.16112,1.94547,-9.50412,-11.6156,-7.20919,5.85601
2023-02-16 17:12:57:461,-1.19918,1.97939,-9.50155,-11.6373,-7.22234,5.87081
2023-02-16 17:12:57:471,-1.21107,2.00473,-9.51023,-11.6572,-7.23185,5.88344
2023-02-16 17:12:57:481,-1.21251,2.02473,-9.51543,-11.6827,-7.23833,5.8959
2023-02-16 17:12:57:491,-1.21271,2.04696,-9.50126,-11.7047,-7.24781,5.90979
2023-02-16 17:12:57:501,-1.22359,2.05225,-9.50012,-11.7231,-7.25594,5.92358
2023-02-16 17:12:57:511,-1.24739,2.0583,-9.50582,-11.7427,-7.26517,5.93976
2023-02-16 17:12:57:521,-1.28795,2.04899,-9.50462,-11.7597,-7.27093,5.95543
2023-02-16 17:12:57:531,-1.32136,2.03095,-9.49176,-11.7769,-7.27661,5.97005
2023-02-16 17:12:57:541,-1.31585,2.02221,-9.47108,-11.7942,-7.2822,5.98286
2023-02-16 17:12:57:551,-1.29292,2.00232,-9.43283,-11.803,-7.28034,5.99659
2023-02-16 17:12:57:561,-1.28905,1.98605,-9.40195,-11.8153,-7.27965,6.00178
2023-02-16 17:12:57:571,-1.29332,1.9762,-9.39951,-11.8319,-7.27993,6.00727
2023-02-16 17:12:57:581,-1.28855,1.98064,-9.42627,-11.8526,-7.2766,6.01377
2023-02-16 17:12:57:591,-1.27451,2.02158,-9.46193,-11.8748,-7.27436,6.01626
2023-02-16 17:12:57:601,-1.25338,2.04989,-9.48372,-11.8993,-7.26989,6.01824
2023-02-16 17:12:57:611,-1.23436,2.07307,-9.51447,-11.9246,-7.26574,6.01703
2023-02-16 17:12:57:621,-1.23028,2.09045,-9.55712,-11.9548,-7.26489,6.01651
2023-02-16 17:12:57:631,-1.25854,2.11686,-9.57206,-11.9817,-7.26084,6.01771
2023-02-16 17:12:57:641,-1.29236,2.11019,-9.56144,-12.0031,-7.25946,6.01673
2023-02-16 17:12:57:651,-1.29879,2.08997,-9.53328,-12.0194,-7.2548,6.01729
2023-02-16 17:12:57:661,-1.27891,2.09587,-9.53888,-12.0358,-7.24474,6.01229
2023-02-16 17:12:57:671,-1.22088,2.07585,-9.53849,-12.046,-7.2337,6.00618
2023-02-16 17:12:57:681,-1.18206,2.04666,-9.51196,-12.0587,-7.22209,6.00523
2023-02-16 17:12:57:691,-1.19966,2.03417,-9.47763,-12.0665,-7.21176,6.00865
2023-02-16 17:12:57:701,-1.21004,2.0203,-9.45554,-12.0742,-7.19914,6.01352
2023-02-16 17:12:57:711,-1.21375,2.02642,-9.44109,-12.0854,-7.18816,6.01599
2023-02-16 17:12:57:721,-1.21415,2.03383,-9.45775,-12.1016,-7.17462,6.02195
2023-02-16 17:12:57:731,-1.17038,2.05918,-9.49933,-12.1181,-7.16101,6.03006
2023-02-16 17:12:57:741,-1.12844,2.09883,-9.54744,-12.1365,-7.14386,6.0337
2023-02-16 17:12:57:751,-1.10669,2.12153,-9.55776,-12.1533,-7.12876,6.04187
2023-02-16 17:12:57:761,-1.08093,2.12488,-9.54084,-12.1647,-7.11425,6.05484
2023-02-16 17:12:57:771,-1.09052,2.12027,-9.51369,-12.1718,-7.10055,6.06531
2023-02-16 17:12:57:781,-1.12606,2.10204,-9.51672,-12.177,-7.09065,6.08126
2023-02-16 17:12:57:791,-1.14789,2.08997,-9.52033,-12.1844,-7.08332,6.09881
2023-02-16 17:12:57:801,-1.15745,2.08597,-9.48823,-12.1884,-7.07576,6.11679
2023-02-16 17:12:57:811,-1.1725,2.07726,-9.46311,-12.1887,-7.06949,6.13369
2023-02-16 17:12:57:821,-1.19749,2.05678,-9.46616,-12.1939,-7.06757,6.15526
2023-02-16 17:12:57:831,-1.20616,2.04744,-9.47171,-12.1986,-7.06912,6.17482
2023-02-16 17:12:57:841,-1.21733,2.05872,-9.48333,-12.2042,-7.06923,6.19179
2023-02-16 17:12:57:851,-1.22174,2.07544,-9.48873,-12.2116,-7.0734,6.20775
2023-02-16 17:12:57:861,-1.23358,2.0696,-9.48573,-12.2202,-7.07909,6.22237
2023-02-16 17:12:57:871,-1.22146,2.06967,-9.47733,-12.2265,-7.08734,6.23577
2023-02-16 17:12:57:881,-1.21091,2.10227,-9.48208,-12.237,-7.09837,6.24457
2023-02-16 17:12:57:891,-1.20566,2.1077,-9.48467,-12.2498,-7.10436,6.25266
2023-02-16 17:12:57:901,-1.19398,2.10055,-9.47738,-12.2604,-7.11222,6.25898
2023-02-16 17:12:57:911,-1.19111,2.09019,-9.50031,-12.2694,-7.11929,6.26729
2023-02-16 17:12:57:921,-1.1852,2.09675,-9.52314,-12.2793,-7.1272,6.27578
2023-02-16 17:12:57:931,-1.19506,2.098,-9.51622,-12.2905,-7.1352,6.28509
2023-02-16 17:12:57:941,-1.21649,2.09385,-9.49301,-12.2976,-7.14406,6.29757
2023-02-16 17:12:57:951,-1.22698,2.10067,-9.48028,-12.3041,-7.14855,6.31026
2023-02-16 17:12:57:961,-1.23837,2.10449,-9.4723,-12.3124,-7.15445,6.32339
2023-02-16 17:12:57:971,-1.25303,2.08615,-9.48074,-12.3163,-7.15799,6.33345
2023-02-16 17:12:57:981,-1.26334,2.09033,-9.46799,-12.3225,-7.15832,6.34296
2023-02-16 17:12:57:991,-1.27171,2.0795,-9.46777,-12.3242,-7.16356,6.35066
2023-02-16 17:12:58:1,-1.24651,2.08236,-9.48379,-12.3265,-7.16484,6.35321
2023-02-16 17:12:58:11,-1.22183,2.07913,-9.4984,-12.3304,-7.16496,6.35533
2023-02-16 17:12:58:21,-1.19444,2.08427,-9.48816,-12.3336,-7.17078,6.35509
2023-02-16 17:12:58:31,-1.18249,2.08635,-9.4792,-12.336,-7.17786,6.35742
2023-02-16 17:12:58:41,-1.19096,2.10019,-9.48235,-12.3403,-7.18425,6.35954
2023-02-16 17:12:58:51,-1.18816,2.1013,-9.49391,-12.3433,-7.19118,6.36345
2023-02-16 17:12:58:61,-1.19559,2.11228,-9.48902,-12.3451,-7.19703,6.36661
2023-02-16 17:12:58:71,-1.20067,2.09055,-9.49874,-12.3455,-7.20006,6.37425
2023-02-16 17:12:58:81,-1.1995,2.08997,-9.49234,-12.3479,-7.20311,6.37918
2023-02-16 17:12:58:91,-1.21136,2.11155,-9.46782,-12.3462,-7.20722,6.38566
2023-02-16 17:12:58:101,-1.20495,2.09539,-9.45367,-12.3539,-7.21126,6.39225
2023-02-16 17:12:58:111,-1.21128,2.09704,-9.44777,-12.3567,-7.21093,6.39688
2023-02-16 17:12:58:121,-1.22695,2.10156,-9.46451,-12.3567,-7.21221,6.40582
2023-02-16 17:12:58:131,-1.23703,2.12039,-9.48519,-12.3592,-7.21751,6.41075
2023-02-16 17:12:58:141,-1.25028,2.12622,-9.51917,-12.3646,-7.21957,6.41544
2023-02-16 17:12:58:151,-1.26863,2.13328,-9.53711,-12.3658,-7.22059,6.4214
2023-02-16 17:12:58:161,-1.24363,2.11618,-9.5097,-12.3627,-7.22008,6.42563
2023-02-16 17:12:58:171,-1.21012,2.10529,-9.47997,-12.3573,-7.22069,6.42903
2023-02-16 17:12:58:181,-1.2003,2.08393,-9.4746,-12.3507,-7.21784,6.43127
2023-02-16 17:12:58:191,-1.21745,2.1002,-9.47385,-12.3446,-7.2172,6.43235
2023-02-16 17:12:58:201,-1.22529,2.09088,-9.48712,-12.3372,-7.216,6.43362
2023-02-16 17:12:58:211,-1.21757,2.07918,-9.49664,-12.3318,-7.21538,6.43402
2023-02-16 17:12:58:221,-1.17066,2.07462,-9.48825,-12.3257,-7.2126,6.43446
2023-02-16 17:12:58:231,-1.16573,2.05763,-9.4663,-12.3211,-7.21335,6.43405
2023-02-16 17:12:58:241,-1.20823,2.07533,-9.47699,-12.3226,-7.21557,6.43696
2023-02-16 17:12:58:251,-1.21101,2.1093,-9.53175,-12.3256,-7.22175,6.44025
2023-02-16 17:12:58:261,-1.22908,2.13988,-9.546,-12.327,-7.23131,6.43807
2023-02-16 17:12:58:271,-1.26245,2.12868,-9.52109,-12.3282,-7.24398,6.44116
2023-02-16 17:12:58:281,-1.26564,2.1337,-9.51378,-12.3262,-7.25284,6.44231
2023-02-16 17:12:58:291,-1.25976,2.16573,-9.52926,-12.3257,-7.26212,6.44086
2023-02-16 17:12:58:301,-1.26145,2.17139,-9.51369,-12.3213,-7.26777,6.43754
2023-02-16 17:12:58:311,-1.27034,2.15886,-9.47481,-12.3097,-7.27028,6.43381
2023-02-16 17:12:58:321,-1.2548,2.13454,-9.43817,-12.2953,-7.27239,6.42524
2023-02-16 17:12:58:331,-1.24636,2.12074,-9.43941,-12.2833,-7.27324,6.41978
2023-02-16 17:12:58:341,-1.24028,2.09561,-9.47538,-12.2732,-7.27415,6.41112
2023-02-16 17:12:58:351,-1.22246,2.07064,-9.48104,-12.2604,-7.27428,6.40233
2023-02-16 17:12:58:361,-1.22137,2.07247,-9.46215,-12.2482,-7.27527,6.39432
2023-02-16 17:12:58:371,-1.24926,2.06384,-9.47869,-12.2397,-7.27813,6.38658
2023-02-16 17:12:58:381,-1.26868,2.06154,-9.4737,-12.2295,-7.28208,6.37961
2023-02-16 17:12:58:391,-1.26023,2.05864,-9.47604,-12.2185,-7.28112,6.37176
2023-02-16 17:12:58:401,-1.25445,2.04953,-9.47281,-12.2094,-7.28252,6.35856
2023-02-16 17:12:58:411,-1.241,2.04947,-9.45989,-12.1984,-7.28474,6.34785
2023-02-16 17:12:58:421,-1.235,2.04178,-9.46015,-12.1885,-7.28487,6.33652
2023-02-16 17:12:58:431,-1.23619,2.04744,-9.45278,-12.1827,-7.28565,6.32674
2023-02-16 17:12:58:441,-1.25993,2.05153,-9.45084,-12.1748,-7.28428,6.3148
2023-02-16 17:12:58:451,-1.23712,2.05132,-9.50035,-12.1705,-7.27871,6.30149
2023-02-16 17:12:58:461,-1.16517,2.05994,-9.54148,-12.1676,-7.27119,6.28843
2023-02-16 17:12:58:471,-1.14884,2.03043,-9.52146,-12.161,-7.2642,6.27581
2023-02-16 17:12:58:481,-1.16401,1.999,-9.49071,-12.1513,-7.25753,6.26852
2023-02-16 17:12:58:491,-1.17452,1.97855,-9.47102,-12.1444,-7.25013,6.26066
2023-02-16 17:12:58:501,-1.19852,1.98827,-9.4347,-12.1393,-7.24412,6.25673
2023-02-16 17:12:58:511,-1.23266,1.97232,-9.4328,-12.1368,-7.23958,6.25235
2023-02-16 17:12:58:521,-1.22299,1.98558,-9.42932,-12.1385,-7.2347,6.25073
2023-02-16 17:12:58:531,-1.19815,2.01243,-9.45219,-12.1435,-7.22291,6.24907
2023-02-16 17:12:58:541,-1.19466,2.04924,-9.48212,-12.15,-7.21764,6.23952
2023-02-16 17:12:58:551,-1.17989,2.04519,-9.48858,-12.1551,-7.21277,6.22566
2023-02-16 17:12:58:561,-1.18405,2.02874,-9.47952,-12.1611,-7.21156,6.21708
2023-02-16 17:12:58:571,-1.19978,2.03507,-9.49059,-12.1687,-7.20783,6.21168
2023-02-16 17:12:58:581,-1.18848,2.04858,-9.51683,-12.1763,-7.21252,6.2043
2023-02-16 17:12:58:591,-1.19602,2.04899,-9.51432,-12.1799,-7.21591,6.19921
2023-02-16 17:12:58:601,-1.198,2.04798,-9.48873,-12.1821,-7.21816,6.19199
2023-02-16 17:12:58:611,-1.19935,2.04389,-9.47911,-12.1818,-7.22441,6.18665
2023-02-16 17:12:58:621,-1.203,2.02392,-9.48945,-12.185,-7.22896,6.17912
2023-02-16 17:12:58:631,-1.19977,2.02765,-9.49567,-12.1892,-7.2336,6.17477
2023-02-16 17:12:58:641,-1.207,2.0429,-9.49251,-12.1954,-7.23588,6.17203
2023-02-16 17:12:58:651,-1.23312,2.04735,-9.50662,-12.203,-7.24136,6.17433
2023-02-16 17:12:58:661,-1.25463,2.06633,-9.5086,-12.2109,-7.24366,6.17728
2023-02-16 17:12:58:671,-1.25156,2.05168,-9.4847,-12.2115,-7.24824,6.17735
2023-02-16 17:12:58:681,-1.2577,2.05117,-9.46767,-12.2166,-7.25201,6.17871
2023-02-16 17:12:58:691,-1.28078,2.05955,-9.4816,-12.2259,-7.25593,6.18287
2023-02-16 17:12:58:701,-1.31121,2.07902,-9.49144,-12.2352,-7.26019,6.18893
2023-02-16 17:12:58:711,-1.32347,2.0856,-9.49029,-12.244,-7.26055,6.19309
2023-02-16 17:12:58:721,-1.31197,2.06898,-9.49398,-12.2478,-7.26246,6.19401
2023-02-16 17:12:58:731,-1.3101,2.06199,-9.47529,-12.2532,-7.26453,6.19241
2023-02-16 17:12:58:741,-1.29149,2.03624,-9.43713,-12.2579,-7.26592,6.19261
2023-02-16 17:12:58:751,-1.27862,2.03036,-9.42044,-12.261,-7.26413,6.19262
2023-02-16 17:12:58:761,-1.2611,2.03688,-9.43786,-12.2702,-7.263,6.18937
2023-02-16 17:12:58:771,-1.28057,2.0546,-9.46858,-12.2817,-7.26065,6.18679
2023-02-16 17:12:58:781,-1.28368,2.04834,-9.4695,-12.2938,-7.26236,6.18173
2023-02-16 17:12:58:791,-1.27768,2.05735,-9.4446,-12.3034,-7.26656,6.17475
2023-02-16 17:12:58:801,-1.25598,2.06113,-9.46571,-12.313,-7.26937,6.16675
2023-02-16 17:12:58:811,-1.25413,2.05854,-9.46807,-12.325,-7.27502,6.15727
2023-02-16 17:12:58:821,-1.25294,2.07909,-9.4849,-12.336,-7.27707,6.14707
2023-02-16 17:12:58:831,-1.23813,2.09467,-9.50381,-12.3455,-7.27605,6.14057
2023-02-16 17:12:58:841,-1.22265,2.06907,-9.47665,-12.3561,-7.27345,6.13367
2023-02-16 17:12:58:851,-1.22001,2.04164,-9.45869,-12.3653,-7.27485,6.12926
2023-02-16 17:12:58:861,-1.22911,2.05744,-9.4456,-12.3805,-7.27685,6.12534
2023-02-16 17:12:58:871,-1.23287,2.06044,-9.45231,-12.3952,-7.27939,6.12262
2023-02-16 17:12:58:881,-1.22117,2.05202,-9.44257,-12.412,-7.27929,6.12282
2023-02-16 17:12:58:891,-1.21863,2.06796,-9.44471,-12.4272,-7.27918,6.12328
2023-02-16 17:12:58:901,-1.22496,2.10822,-9.49394,-12.4467,-7.27733,6.12268
2023-02-16 17:12:58:911,-1.23067,2.13604,-9.51529,-12.4655,-7.27906,6.1248
2023-02-16 17:12:58:921,-1.25817,2.13563,-9.50315,-12.4766,-7.27593,6.12541
2023-02-16 17:12:58:931,-1.25784,2.13805,-9.50081,-12.4893,-7.27367,6.12575
2023-02-16 17:12:58:941,-1.24528,2.14405,-9.49367,-12.4984,-7.26649,6.12526
2023-02-16 17:12:58:951,-1.25208,2.15515,-9.4672,-12.51,-7.26221,6.12536
2023-02-16 17:12:58:961,-1.23105,2.12914,-9.46283,-12.5177,-7.25493,6.1245
2023-02-16 17:12:58:971,-1.22442,2.14225,-9.46905,-12.5294,-7.25082,6.12285
2023-02-16 17:12:58:981,-1.23617,2.15351,-9.50445,-12.5431,-7.24582,6.11862
2023-02-16 17:12:58:991,-1.26137,2.15039,-9.53346,-12.5509,-7.24738,6.1127
2023-02-16 17:12:59:1,-1.27382,2.14767,-9.54306,-12.5588,-7.24834,6.10659
2023-02-16 17:12:59:11,-1.2409,2.16231,-9.53803,-12.5655,-7.24561,6.09819
2023-02-16 17:12:59:21,-1.225,2.13955,-9.50684,-12.5688,-7.24465,6.08961
2023-02-16 17:12:59:31,-1.23331,2.1151,-9.46476,-12.5716,-7.24421,6.08249
2023-02-16 17:12:59:41,-1.24317,2.12772,-9.44979,-12.5782,-7.25031,6.07496
2023-02-16 17:12:59:51,-1.25675,2.14548,-9.43221,-12.5834,-7.25367,6.06611
2023-02-16 17:12:59:61,-1.25153,2.16936,-9.42402,-12.5897,-7.25648,6.0553
2023-02-16 17:12:59:71,-1.20881,2.17018,-9.45482,-12.6003,-7.25457,6.04279
2023-02-16 17:12:59:81,-1.17044,2.17827,-9.45907,-12.6116,-7.25272,6.03237
2023-02-16 17:12:59:91,-1.16651,2.17833,-9.48111,-12.6229,-7.25034,6.02438
2023-02-16 17:12:59:101,-1.19188,2.17562,-9.47815,-12.6364,-7.25194,6.01971
2023-02-16 17:12:59:111,-1.23756,2.16117,-9.44644,-12.6479,-7.25151,6.01821
2023-02-16 17:12:59:121,-1.2587,2.15393,-9.4181,-12.653,-7.24981,6.01579
2023-02-16 17:12:59:131,-1.26895,2.14986,-9.41594,-12.6591,-7.24371,6.01244
2023-02-16 17:12:59:141,-1.26683,2.1494,-9.42246,-12.6656,-7.23824,6.00543
2023-02-16 17:12:59:151,-1.26576,2.15014,-9.45096,-12.673,-7.2296,5.9988
2023-02-16 17:12:59:161,-1.24642,2.1534,-9.46644,-12.6771,-7.21874,5.98746
2023-02-16 17:12:59:171,-1.23144,2.16232,-9.46509,-12.6828,-7.20591,5.97183
2023-02-16 17:12:59:181,-1.20056,2.16127,-9.45697,-12.6887,-7.1899,5.9568
2023-02-16 17:12:59:191,-1.17432,2.14863,-9.47503,-12.6928,-7.1776,5.9442
2023-02-16 17:12:59:201,-1.14956,2.15992,-9.50019,-12.6972,-7.16638,5.92886
2023-02-16 17:12:59:211,-1.13378,2.16397,-9.50629,-12.705,-7.16024,5.91729
2023-02-16 17:12:59:221,-1.16489,2.16962,-9.48847,-12.7112,-7.15395,5.90646
2023-02-16 17:12:59:231,-1.22191,2.15743,-9.45486,-12.7171,-7.14969,5.8949
2023-02-16 17:12:59:241,-1.22323,2.14618,-9.4573,-12.723,-7.1445,5.88315
2023-02-16 17:12:59:251,-1.16487,2.1631,-9.5123,-12.7308,-7.13548,5.8728
2023-02-16 17:12:59:261,-1.114,2.15589,-9.52545,-12.7378,-7.12645,5.86102
2023-02-16 17:12:59:271,-1.12929,2.1521,-9.50604,-12.7389,-7.12217,5.85273
2023-02-16 17:12:59:281,-1.15387,2.17051,-9.498,-12.7444,-7.11764,5.8475
2023-02-16 17:12:59:291,-1.17022,2.17541,-9.49607,-12.7461,-7.11042,5.84227
2023-02-16 17:12:59:301,-1.15966,2.1789,-9.5014,-12.7468,-7.10319,5.83935
2023-02-16 17:12:59:311,-1.16306,2.1863,-9.49782,-12.7453,-7.09739,5.83841
2023-02-16 17:12:59:321,-1.15855,2.17897,-9.48217,-12.7422,-7.09039,5.83726
2023-02-16 17:12:59:331,-1.15527,2.17049,-9.48053,-12.7423,-7.08556,5.8364
2023-02-16 17:12:59:341,-1.16645,2.16178,-9.4656,-12.7423,-7.08041,5.83652
2023-02-16 17:12:59:351,-1.18018,2.16028,-9.44151,-12.7396,-7.07487,5.8405
2023-02-16 17:12:59:361,-1.19196,2.15556,-9.41727,-12.7389,-7.07049,5.83951
2023-02-16 17:12:59:371,-1.1887,2.15665,-9.41171,-12.7413,-7.06659,5.84087
2023-02-16 17:12:59:381,-1.19126,2.17689,-9.4582,-12.7439,-7.06489,5.84059
2023-02-16 17:12:59:391,-1.20054,2.18966,-9.52781,-12.7494,-7.06309,5.84001
2023-02-16 17:12:59:401,-1.19803,2.1929,-9.54472,-12.7501,-7.06163,5.83725
2023-02-16 17:12:59:411,-1.18437,2.18427,-9.52145,-12.7489,-7.06527,5.83719
2023-02-16 17:12:59:421,-1.16818,2.14354,-9.48644,-12.7428,-7.06827,5.83654
2023-02-16 17:12:59:431,-1.16153,2.11601,-9.48095,-12.7369,-7.06997,5.83663
2023-02-16 17:12:59:441,-1.19112,2.10188,-9.51304,-12.7304,-7.07241,5.838
2023-02-16 17:12:59:451,-1.20997,2.07618,-9.50718,-12.7211,-7.0748,5.83979
2023-02-16 17:12:59:461,-1.20409,2.01918,-9.45592,-12.7074,-7.07548,5.84292
2023-02-16 17:12:59:471,-1.21306,2.01549,-9.49768,-12.6944,-7.07231,5.84749
2023-02-16 17:12:59:481,-1.30091,2.06193,-9.57167,-12.6839,-7.06879,5.85409
2023-02-16 17:12:59:491,-1.34378,2.07955,-9.48966,-12.6685,-7.06567,5.85963
2023-02-16 17:12:59:501,-1.24696,2.17385,-9.31593,-12.655,-7.06454,5.85513
2023-02-16 17:12:59:511,-1.2006,2.18908,-9.15426,-12.6416,-7.05636,5.84677
2023-02-16 17:12:59:521,-1.24218,2.12727,-9.10871,-12.6353,-7.04637,5.83658
2023-02-16 17:12:59:531,-1.27001,2.16069,-9.39905,-12.6531,-7.04301,5.82671
2023-02-16 17:12:59:541,-1.26229,2.34947,-9.91909,-12.6836,-7.03967,5.81212
2023-02-16 17:12:59:551,-1.30671,2.46054,-10.233,-12.6954,-7.04038,5.78935
2023-02-16 17:12:59:561,-1.35237,2.44922,-10.1184,-12.6665,-7.04968,5.7617
2023-02-16 17:12:59:571,-1.27906,2.27688,-9.62321,-12.593,-7.0595,5.72429
2023-02-16 17:12:59:581,-1.20476,1.97583,-9.08034,-12.5008,-7.06477,5.68511
2023-02-16 17:12:59:591,-1.14178,1.85845,-8.9508,-12.4323,-7.06585,5.65114
2023-02-16 17:12:59:601,-1.10732,1.97634,-9.19604,-12.402,-7.06886,5.61322
2023-02-16 17:12:59:611,-1.09325,2.09619,-9.42395,-12.3891,-7.08145,5.57527
2023-02-16 17:12:59:621,-1.06617,2.07881,-9.49686,-12.3756,-7.0925,5.5348
2023-02-16 17:12:59:631,-1.01194,2.05621,-9.45722,-12.3643,-7.11001,5.50072
2023-02-16 17:12:59:641,-1.00558,2.01187,-9.40674,-12.3534,-7.12281,5.47057
2023-02-16 17:12:59:651,-1.03325,1.99318,-9.32455,-12.345,-7.13841,5.44936
2023-02-16 17:12:59:661,-1.07141,1.97983,-9.2969,-12.3465,-7.15443,5.43674
2023-02-16 17:12:59:671,-1.07676,1.97087,-9.36644,-12.3562,-7.17236,5.42982
2023-02-16 17:12:59:681,-1.07571,2.0049,-9.41255,-12.3712,-7.18309,5.42753
2023-02-16 17:12:59:691,-1.10436,1.96859,-9.36963,-12.3869,-7.19266,5.43289
2023-02-16 17:12:59:701,-1.13127,1.94893,-9.36941,-12.4045,-7.19737,5.44157
2023-02-16 17:12:59:711,-1.16354,2.00508,-9.45611,-12.4288,-7.19819,5.45217
2023-02-16 17:12:59:721,-1.19783,2.02931,-9.48355,-12.4508,-7.20208,5.46601
2023-02-16 17:12:59:731,-1.22554,2.01994,-9.38769,-12.4699,-7.20537,5.47908
2023-02-16 17:12:59:741,-1.17975,2.00044,-9.24637,-12.4919,-7.20279,5.49167
2023-02-16 17:12:59:751,-1.14649,2.03993,-9.27427,-12.5295,-7.19621,5.5051
2023-02-16 17:12:59:761,-1.18865,2.14397,-9.4503,-12.5816,-7.19606,5.51622
2023-02-16 17:12:59:771,-1.22828,2.23433,-9.62288,-12.6378,-7.20037,5.52546
2023-02-16 17:12:59:781,-1.24946,2.24822,-9.70193,-12.6843,-7.21093,5.53109
2023-02-16 17:12:59:791,-1.24735,2.26726,-9.73857,-12.7206,-7.23017,5.53502
2023-02-16 17:12:59:801,-1.20172,2.25875,-9.73227,-12.7442,-7.24607,5.53251
2023-02-16 17:12:59:811,-1.18796,2.18002,-9.59917,-12.7561,-7.26833,5.52993
2023-02-16 17:12:59:821,-1.1918,2.09128,-9.43165,-12.757,-7.29528,5.52958
2023-02-16 17:12:59:831,-1.18756,2.07081,-9.36383,-12.7615,-7.3235,5.53162
2023-02-16 17:12:59:841,-1.21079,2.10446,-9.36571,-12.7816,-7.3488,5.53559
2023-02-16 17:12:59:851,-1.2294,2.12078,-9.37874,-12.8083,-7.37581,5.54252
2023-02-16 17:12:59:861,-1.23286,2.14046,-9.3737,-12.8353,-7.40084,5.55251
2023-02-16 17:12:59:871,-1.23854,2.13142,-9.26711,-12.864,-7.42102,5.56139
2023-02-16 17:12:59:881,-1.2554,2.06715,-9.06542,-12.8877,-7.43639,5.57604
2023-02-16 17:12:59:891,-1.28748,2.05066,-8.94626,-12.9345,-7.44963,5.5929
2023-02-16 17:12:59:901,-1.33804,2.12823,-9.04092,-13.0048,-7.45741,5.61345
2023-02-16 17:12:59:911,-1.34648,2.25738,-9.24852,-13.098,-7.46768,5.63258
2023-02-16 17:12:59:921,-1.35977,2.33666,-9.43544,-13.1942,-7.47976,5.64715
2023-02-16 17:12:59:931,-1.40498,2.27942,-9.63953,-13.2754,-7.48729,5.66775
2023-02-16 17:12:59:941,-1.4479,2.18778,-9.85515,-13.3356,-7.48623,5.69796
2023-02-16 17:12:59:951,-1.4847,2.1399,-9.96838,-13.3697,-7.48909,5.73732
2023-02-16 17:12:59:961,-1.53108,2.00325,-9.78534,-13.3793,-7.49069,5.78151
2023-02-16 17:12:59:971,-1.51768,1.81524,-9.4879,-13.3724,-7.48512,5.82483
2023-02-16 17:12:59:981,-1.46636,1.7,-9.25688,-13.3668,-7.46567,5.87111
2023-02-16 17:12:59:991,-1.41739,1.63112,-9.08539,-13.372,-7.43458,5.91836
2023-02-16 17:13:00:1,-1.37626,1.6104,-8.98963,-13.3964,-7.40072,5.96366
2023-02-16 17:13:00:11,-1.39157,1.64819,-9.0054,-13.4482,-7.37361,6.01033
2023-02-16 17:13:00:21,-1.43989,1.74587,-9.00823,-13.5297,-7.3475,6.0513
2023-02-16 17:13:00:31,-1.49996,1.79613,-8.9646,-13.6329,-7.32412,6.08725
2023-02-16 17:13:00:41,-1.52026,1.87765,-8.97583,-13.7535,-7.30413,6.11313
2023-02-16 17:13:00:51,-1.48916,1.9829,-9.02092,-13.8931,-7.28102,6.12894
2023-02-16 17:13:00:61,-1.45656,2.08474,-9.01909,-14.0502,-7.25447,6.13517
2023-02-16 17:13:00:71,-1.40175,2.1554,-8.9973,-14.2167,-7.22433,6.12945
2023-02-16 17:13:00:81,-1.34147,2.26494,-9.00757,-14.4016,-7.18918,6.11644
2023-02-16 17:13:00:91,-1.26659,2.44346,-9.09722,-14.603,-7.14719,6.09812
2023-02-16 17:13:00:101,-1.20633,2.62253,-9.26082,-14.8221,-7.09659,6.07386
2023-02-16 17:13:00:111,-1.13522,2.8385,-9.49257,-15.0479,-7.03584,6.04259
2023-02-16 17:13:00:121,-1.06639,3.06407,-9.69756,-15.2698,-6.96821,6.00412
2023-02-16 17:13:00:131,-0.97018,3.21872,-9.81621,-15.4768,-6.89037,5.96448
2023-02-16 17:13:00:141,-0.881937,3.32289,-9.90051,-15.6581,-6.80553,5.91486
2023-02-16 17:13:00:151,-0.816644,3.43143,-10.0082,-15.8185,-6.71849,5.86979
2023-02-16 17:13:00:161,-0.765199,3.52793,-10.1392,-15.9533,-6.63972,5.82371
2023-02-16 17:13:00:171,-0.673005,3.57243,-10.1854,-16.0565,-6.56463,5.7802
2023-02-16 17:13:00:181,-0.599318,3.53146,-10.1173,-16.1207,-6.49954,5.74111
2023-02-16 17:13:00:191,-0.585778,3.47119,-10.0225,-16.1483,-6.43703,5.70823
2023-02-16 17:13:00:201,-0.573704,3.44567,-9.94395,-16.1476,-6.3872,5.677
2023-02-16 17:13:00:211,-0.517343,3.30948,-9.79906,-16.1197,-6.35006,5.65469
2023-02-16 17:13:00:221,-0.497827,3.16536,-9.68436,-16.0711,-6.3181,5.64132
2023-02-16 17:13:00:231,-0.51542,3.09655,-9.68578,-16.0146,-6.29672,5.64514
2023-02-16 17:13:00:241,-0.583172,3.03599,-9.68638,-15.9475,-6.28686,5.66133
2023-02-16 17:13:00:251,-0.686554,2.93841,-9.60959,-15.8622,-6.29044,5.68731
2023-02-16 17:13:00:261,-0.740639,2.79604,-9.44964,-15.7605,-6.29849,5.7195
2023-02-16 17:13:00:271,-0.782072,2.65078,-9.30053,-15.6515,-6.3067,5.76321
2023-02-16 17:13:00:281,-0.870905,2.60104,-9.2285,-15.547,-6.32419,5.80987
2023-02-16 17:13:00:291,-0.914431,2.56772,-9.17075,-15.4539,-6.34307,5.85879
2023-02-16 17:13:00:301,-0.931019,2.48882,-9.09778,-15.3616,-6.37219,5.90229
2023-02-16 17:13:00:311,-0.896626,2.44985,-9.09105,-15.2764,-6.41015,5.94174
2023-02-16 17:13:00:321,-0.917312,2.39462,-9.13,-15.2021,-6.45136,5.98482
2023-02-16 17:13:00:331,-0.944414,2.34951,-9.15602,-15.1345,-6.49896,6.03233
2023-02-16 17:13:00:341,-1.02769,2.33845,-9.21353,-15.0772,-6.55569,6.08375
2023-02-16 17:13:00:351,-1.11244,2.35573,-9.30656,-15.0286,-6.6239,6.13159
2023-02-16 17:13:00:361,-1.12281,2.35895,-9.33527,-14.9816,-6.69151,6.17839
2023-02-16 17:13:00:371,-1.11772,2.32639,-9.29524,-14.9362,-6.75898,6.22539
2023-02-16 17:13:00:381,-1.14367,2.29189,-9.29755,-14.8907,-6.82824,6.27236
2023-02-16 17:13:00:391,-1.16375,2.32075,-9.39009,-14.8557,-6.89891,6.31805
2023-02-16 17:13:00:401,-1.18473,2.36675,-9.52474,-14.8207,-6.97333,6.36819
2023-02-16 17:13:00:411,-1.27685,2.46723,-9.63028,-14.7874,-7.04703,6.42189
2023-02-16 17:13:00:421,-1.41796,2.47572,-9.55118,-14.7408,-7.124,6.47746
2023-02-16 17:13:00:431,-1.51319,2.42389,-9.32236,-14.6823,-7.19746,6.52992
2023-02-16 17:13:00:441,-1.51409,2.31252,-9.12189,-14.6258,-7.26628,6.57701
2023-02-16 17:13:00:451,-1.53075,2.3147,-9.07854,-14.5806,-7.32588,6.62201
2023-02-16 17:13:00:461,-1.54904,2.37901,-9.15886,-14.555,-7.37936,6.66064
2023-02-16 17:13:00:471,-1.5244,2.42379,-9.2056,-14.5402,-7.43146,6.69466
2023-02-16 17:13:00:481,-1.5202,2.37295,-9.11408,-14.5312,-7.48137,6.72413
2023-02-16 17:13:00:491,-1.60533,2.33699,-9.06237,-14.5322,-7.52154,6.75651
2023-02-16 17:13:00:501,-1.67361,2.36476,-9.169,-14.5533,-7.56348,6.78732
2023-02-16 17:13:00:511,-1.69343,2.44769,-9.44304,-14.5928,-7.60495,6.80983
2023-02-16 17:13:00:521,-1.72772,2.53508,-9.63628,-14.6247,-7.64847,6.8221
2023-02-16 17:13:00:531,-1.728,2.52079,-9.55602,-14.6405,-7.69188,6.82642
2023-02-16 17:13:00:541,-1.66945,2.378,-9.27113,-14.6341,-7.72351,6.82619
2023-02-16 17:13:00:551,-1.60085,2.24123,-9.03734,-14.6233,-7.74363,6.82229
2023-02-16 17:13:00:561,-1.60207,2.2804,-9.08321,-14.6332,-7.76155,6.81662
2023-02-16 17:13:00:571,-1.57046,2.44296,-9.2841,-14.6627,-7.77511,6.8054
2023-02-16 17:13:00:581,-1.517,2.5072,-9.41905,-14.6942,-7.78327,6.78437
2023-02-16 17:13:00:591,-1.45296,2.52294,-9.47993,-14.7202,-7.78774,6.75944
2023-02-16 17:13:00:601,-1.39441,2.55121,-9.47719,-14.7381,-7.7907,6.73668
2023-02-16 17:13:00:611,-1.37794,2.55007,-9.48151,-14.7467,-7.79038,6.71825
2023-02-16 17:13:00:621,-1.41151,2.52757,-9.51691,-14.7513,-7.79072,6.7042
2023-02-16 17:13:00:631,-1.46895,2.55546,-9.49446,-14.7498,-7.78962,6.70055
2023-02-16 17:13:00:641,-1.46132,2.56715,-9.48624,-14.7452,-7.78239,6.69259
2023-02-16 17:13:00:651,-1.39233,2.58908,-9.55703,-14.739,-7.77258,6.69038
2023-02-16 17:13:00:661,-1.42702,2.64331,-9.61237,-14.7248,-7.76157,6.68398
2023-02-16 17:13:00:671,-1.48994,2.65497,-9.5625,-14.6986,-7.75348,6.67735
2023-02-16 17:13:00:681,-1.50291,2.57345,-9.3947,-14.6622,-7.73928,6.67122
2023-02-16 17:13:00:691,-1.45944,2.50232,-9.28555,-14.622,-7.72304,6.66408
2023-02-16 17:13:00:701,-1.43431,2.52125,-9.29646,-14.586,-7.70285,6.65062
2023-02-16 17:13:00:711,-1.43925,2.54781,-9.35538,-14.5528,-7.67905,6.63096
2023-02-16 17:13:00:721,-1.37654,2.52999,-9.37315,-14.511,-7.65346,6.60415
2023-02-16 17:13:00:731,-1.29909,2.48478,-9.32423,-14.4608,-7.62321,6.57317
2023-02-16 17:13:00:741,-1.24438,2.41345,-9.26195,-14.4093,-7.5917,6.54378
2023-02-16 17:13:00:751,-1.22532,2.3457,-9.25425,-14.3575,-7.56228,6.51541
2023-02-16 17:13:00:761,-1.23166,2.35119,-9.25965,-14.3159,-7.541,6.48517
2023-02-16 17:13:00:771,-1.24346,2.3875,-9.30103,-14.2807,-7.51796,6.45576
2023-02-16 17:13:00:781,-1.21719,2.40436,-9.34561,-14.2533,-7.50437,6.42285
2023-02-16 17:13:00:791,-1.21339,2.40921,-9.36115,-14.2278,-7.49108,6.38525
2023-02-16 17:13:00:801,-1.22237,2.4077,-9.36916,-14.2069,-7.47897,6.34948
2023-02-16 17:13:00:811,-1.24137,2.41791,-9.38476,-14.1889,-7.46236,6.31302
2023-02-16 17:13:00:821,-1.19188,2.42069,-9.42254,-14.1739,-7.44712,6.27379
2023-02-16 17:13:00:831,-1.13099,2.40853,-9.44315,-14.1521,-7.43092,6.22902
2023-02-16 17:13:00:841,-1.10088,2.38541,-9.45951,-14.1294,-7.41338,6.19247
2023-02-16 17:13:00:851,-1.07522,2.36783,-9.46351,-14.1083,-7.40195,6.15888
2023-02-16 17:13:00:861,-1.04399,2.34139,-9.45225,-14.0805,-7.39223,6.12753
2023-02-16 17:13:00:871,-1.01755,2.31178,-9.4368,-14.05,-7.37991,6.10008
2023-02-16 17:13:00:881,-1.01016,2.30275,-9.4029,-14.0233,-7.37045,6.08072
2023-02-16 17:13:00:891,-1.00812,2.27175,-9.36933,-13.9995,-7.36448,6.06606
2023-02-16 17:13:00:901,-1.01232,2.23558,-9.38071,-13.9789,-7.35929,6.05829
2023-02-16 17:13:00:911,-1.0271,2.26381,-9.39912,-13.9653,-7.35655,6.05478
2023-02-16 17:13:00:921,-1.0551,2.26596,-9.40891,-13.9536,-7.35068,6.05583
2023-02-16 17:13:00:931,-1.09031,2.27476,-9.40971,-13.9442,-7.34884,6.06167
2023-02-16 17:13:00:941,-1.12744,2.30993,-9.46364,-13.9375,-7.34393,6.07385
2023-02-16 17:13:00:951,-1.15001,2.34672,-9.50466,-13.9297,-7.33756,6.08112
2023-02-16 17:13:00:961,-1.14644,2.33699,-9.49839,-13.9166,-7.32944,6.09531
2023-02-16 17:13:00:971,-1.16268,2.29369,-9.44598,-13.8966,-7.32075,6.11137
2023-02-16 17:13:00:981,-1.17116,2.25801,-9.39426,-13.8722,-7.31055,6.12769
2023-02-16 17:13:00:991,-1.16059,2.26297,-9.41696,-13.8518,-7.30371,6.14719
2023-02-16 17:13:01:1,-1.16114,2.24025,-9.39104,-13.8333,-7.29704,6.16509
2023-02-16 17:13:01:11,-1.14678,2.23626,-9.35659,-13.8156,-7.28725,6.18179
2023-02-16 17:13:01:21,-1.17082,2.25006,-9.36525,-13.801,-7.28178,6.20149
2023-02-16 17:13:01:31,-1.20944,2.28664,-9.38046,-13.7902,-7.27758,6.22295
2023-02-16 17:13:01:41,-1.25762,2.30476,-9.40869,-13.785,-7.27783,6.24337
2023-02-16 17:13:01:51,-1.31548,2.29672,-9.40846,-13.7786,-7.2794,6.26114
2023-02-16 17:13:01:61,-1.3103,2.30602,-9.40815,-13.7731,-7.28595,6.27484
2023-02-16 17:13:01:71,-1.31202,2.28592,-9.39529,-13.7684,-7.28623,6.28705
2023-02-16 17:13:01:81,-1.32466,2.29211,-9.39178,-13.7641,-7.28796,6.29801
2023-02-16 17:13:01:91,-1.30849,2.31373,-9.42761,-13.7598,-7.28236,6.30043
2023-02-16 17:13:01:101,-1.318,2.32241,-9.42373,-13.7528,-7.28105,6.30206
2023-02-16 17:13:01:111,-1.31823,2.30332,-9.40481,-13.7481,-7.2831,6.29958
2023-02-16 17:13:01:121,-1.30402,2.31102,-9.37999,-13.7422,-7.28239,6.29427
2023-02-16 17:13:01:131,-1.29889,2.31045,-9.36052,-13.7372,-7.28346,6.28097
2023-02-16 17:13:01:141,-1.27682,2.30379,-9.35203,-13.7325,-7.28625,6.26345
2023-02-16 17:13:01:151,-1.25689,2.2916,-9.3538,-13.7307,-7.28663,6.24575
2023-02-16 17:13:01:161,-1.24499,2.30596,-9.37356,-13.7305,-7.29189,6.22556
2023-02-16 17:13:01:171,-1.22575,2.3218,-9.36929,-13.7332,-7.29842,6.20296
2023-02-16 17:13:01:181,-1.21003,2.30821,-9.3543,-13.7377,-7.30467,6.17913
2023-02-16 17:13:01:191,-1.20286,2.30314,-9.35703,-13.7455,-7.3111,6.15768
2023-02-16 17:13:01:201,-1.2167,2.33797,-9.39398,-13.7518,-7.31982,6.13423
2023-02-16 17:13:01:211,-1.2243,2.35767,-9.44838,-13.7634,-7.33111,6.11258
2023-02-16 17:13:01:221,-1.25576,2.37265,-9.42629,-13.7746,-7.34306,6.09229
2023-02-16 17:13:01:231,-1.30562,2.37563,-9.40079,-13.7806,-7.35183,6.06986
2023-02-16 17:13:01:241,-1.31542,2.39002,-9.36481,-13.7917,-7.35853,6.04767
2023-02-16 17:13:01:251,-1.30166,2.37745,-9.3631,-13.8016,-7.36138,6.02265
2023-02-16 17:13:01:261,-1.27269,2.37295,-9.39738,-13.8112,-7.35975,5.99742
2023-02-16 17:13:01:271,-1.24314,2.38241,-9.42891,-13.8223,-7.35364,5.97383
2023-02-16 17:13:01:281,-1.21474,2.36201,-9.45645,-13.8322,-7.34588,5.95058
2023-02-16 17:13:01:291,-1.21764,2.34739,-9.47063,-13.8408,-7.33792,5.93318
2023-02-16 17:13:01:301,-1.21504,2.34436,-9.4691,-13.8512,-7.33617,5.91678
2023-02-16 17:13:01:311,-1.23407,2.35236,-9.46878,-13.8586,-7.33806,5.90013
2023-02-16 17:13:01:321,-1.26142,2.38955,-9.47023,-13.8701,-7.33814,5.88751
2023-02-16 17:13:01:331,-1.30423,2.40119,-9.48542,-13.8782,-7.33763,5.87413
2023-02-16 17:13:01:341,-1.32885,2.3873,-9.45498,-13.8788,-7.33898,5.86238
2023-02-16 17:13:01:351,-1.3129,2.38333,-9.41041,-13.8744,-7.3344,5.84939
2023-02-16 17:13:01:361,-1.29001,2.3754,-9.41134,-13.8668,-7.32613,5.83551
2023-02-16 17:13:01:371,-1.27937,2.35792,-9.41201,-13.8576,-7.31615,5.82042
2023-02-16 17:13:01:381,-1.2691,2.33064,-9.41572,-13.8476,-7.30501,5.8024
2023-02-16 17:13:01:391,-1.23094,2.32359,-9.42793,-13.8344,-7.29596,5.78827
2023-02-16 17:13:01:401,-1.20215,2.31553,-9.43508,-13.8225,-7.28716,5.77206
2023-02-16 17:13:01:411,-1.18544,2.28978,-9.42743,-13.8123,-7.28507,5.75771
2023-02-16 17:13:01:421,-1.16452,2.28715,-9.41675,-13.8048,-7.28469,5.74111
2023-02-16 17:13:01:431,-1.15035,2.297,-9.42912,-13.7991,-7.28677,5.7297
2023-02-16 17:13:01:441,-1.17043,2.33113,-9.45051,-13.7891,-7.29285,5.72048
2023-02-16 17:13:01:451,-1.21233,2.36024,-9.46864,-13.782,-7.30215,5.71126
2023-02-16 17:13:01:461,-1.23986,2.38553,-9.48277,-13.775,-7.31023,5.70379
2023-02-16 17:13:01:471,-1.24259,2.37811,-9.45737,-13.7629,-7.31657,5.69602
2023-02-16 17:13:01:481,-1.2338,2.35178,-9.42074,-13.7449,-7.32665,5.69212
2023-02-16 17:13:01:491,-1.23183,2.32554,-9.38312,-13.7219,-7.3292,5.68721
2023-02-16 17:13:01:501,-1.24296,2.29679,-9.34668,-13.6953,-7.32642,5.68209
2023-02-16 17:13:01:511,-1.2495,2.28042,-9.29694,-13.6681,-7.32172,5.68263
2023-02-16 17:13:01:521,-1.26717,2.28503,-9.30099,-13.6474,-7.31705,5.67816
2023-02-16 17:13:01:531,-1.26765,2.30445,-9.37153,-13.6338,-7.31485,5.67591
2023-02-16 17:13:01:541,-1.28381,2.32669,-9.40694,-13.6179,-7.31385,5.67381
2023-02-16 17:13:01:551,-1.3194,2.33784,-9.41442,-13.6045,-7.30884,5.66634
2023-02-16 17:13:01:561,-1.33766,2.34186,-9.42179,-13.5822,-7.30711,5.65614
2023-02-16 17:13:01:571,-1.33055,2.33134,-9.40534,-13.5599,-7.30442,5.64166
2023-02-16 17:13:01:581,-1.31181,2.30941,-9.36964,-13.5311,-7.30085,5.62644
2023-02-16 17:13:01:591,-1.32364,2.26867,-9.35957,-13.5016,-7.30105,5.6078
2023-02-16 17:13:01:601,-1.32702,2.28526,-9.39118,-13.4739,-7.29927,5.58908
2023-02-16 17:13:01:611,-1.31315,2.29223,-9.42383,-13.4483,-7.29257,5.56162
2023-02-16 17:13:01:621,-1.24614,2.28226,-9.45191,-13.4246,-7.28093,5.53092
2023-02-16 17:13:01:631,-1.17543,2.28778,-9.48968,-13.3984,-7.273,5.50065
2023-02-16 17:13:01:641,-1.18448,2.28289,-9.52032,-13.3698,-7.26812,5.46778
2023-02-16 17:13:01:651,-1.20636,2.276,-9.52729,-13.3398,-7.26902,5.43835
2023-02-16 17:13:01:661,-1.22514,2.2725,-9.50256,-13.3043,-7.26952,5.4135
2023-02-16 17:13:01:671,-1.23951,2.25018,-9.50668,-13.2675,-7.27114,5.38598
2023-02-16 17:13:01:681,-1.2218,2.23029,-9.467,-13.2238,-7.2776,5.35565
2023-02-16 17:13:01:691,-1.22281,2.17873,-9.39693,-13.173,-7.27886,5.32721
2023-02-16 17:13:01:701,-1.20036,2.16778,-9.38218,-13.1208,-7.28062,5.30042
2023-02-16 17:13:01:711,-1.20494,2.18438,-9.43383,-13.0783,-7.2844,5.27526
2023-02-16 17:13:01:721,-1.21318,2.18434,-9.42717,-13.036,-7.28543,5.2506
2023-02-16 17:13:01:731,-1.21111,2.17626,-9.41514,-12.9886,-7.29046,5.22476
2023-02-16 17:13:01:741,-1.19758,2.17443,-9.40359,-12.9403,-7.28579,5.19986
2023-02-16 17:13:01:751,-1.18512,2.13112,-9.36471,-12.8906,-7.28544,5.17694
2023-02-16 17:13:01:761,-1.2024,2.11974,-9.38386,-12.8423,-7.28283,5.15809
2023-02-16 17:13:01:771,-1.21,2.1508,-9.46185,-12.7991,-7.28676,5.13431
2023-02-16 17:13:01:781,-1.21467,2.13796,-9.50499,-12.7597,-7.28601,5.11292
2023-02-16 17:13:01:791,-1.21217,2.11135,-9.48387,-12.7138,-7.2875,5.09351
2023-02-16 17:13:01:801,-1.19959,2.07821,-9.44163,-12.67,-7.28909,5.07486
2023-02-16 17:13:01:811,-1.19026,2.09885,-9.47897,-12.6328,-7.29074,5.05637
2023-02-16 17:13:01:821,-1.17991,2.12801,-9.51324,-12.6004,-7.28669,5.04047
2023-02-16 17:13:01:831,-1.18915,2.12867,-9.49999,-12.5675,-7.28718,5.02573
2023-02-16 17:13:01:841,-1.21351,2.12311,-9.4812,-12.5374,-7.28914,5.00983
2023-02-16 17:13:01:851,-1.21904,2.12845,-9.49464,-12.5068,-7.2844,4.99434
2023-02-16 17:13:01:861,-1.20593,2.10386,-9.49449,-12.4718,-7.27789,4.98306
2023-02-16 17:13:01:871,-1.22036,2.08082,-9.48595,-12.4369,-7.27041,4.97395
2023-02-16 17:13:01:881,-1.20314,2.08085,-9.48353,-12.4036,-7.26602,4.96436
2023-02-16 17:13:01:891,-1.17415,2.08629,-9.48605,-12.3693,-7.26008,4.95102
2023-02-16 17:13:01:901,-1.17094,2.08273,-9.50125,-12.3373,-7.24991,4.93657
2023-02-16 17:13:01:911,-1.18511,2.07681,-9.50853,-12.3054,-7.24848,4.91887
2023-02-16 17:13:01:921,-1.17976,2.09274,-9.54373,-12.2742,-7.24312,4.89979
2023-02-16 17:13:01:931,-1.19572,2.09883,-9.54375,-12.2397,-7.2385,4.8782
2023-02-16 17:13:01:941,-1.20393,2.08697,-9.52186,-12.2038,-7.23966,4.86024
2023-02-16 17:13:01:951,-1.2023,2.08312,-9.52129,-12.169,-7.2417,4.84147
2023-02-16 17:13:01:961,-1.17303,2.06699,-9.51494,-12.1277,-7.24044,4.81526
2023-02-16 17:13:01:971,-1.13995,2.02944,-9.51022,-12.0856,-7.23737,4.78891
2023-02-16 17:13:01:981,-1.12423,1.9903,-9.47254,-12.04,-7.23767,4.76198
2023-02-16 17:13:01:991,-1.13566,1.98859,-9.4759,-11.9978,-7.24278,4.73773
2023-02-16 17:13:02:1,-1.16407,1.96895,-9.48426,-11.9615,-7.24754,4.71801
2023-02-16 17:13:02:11,-1.17935,1.96748,-9.4953,-11.9233,-7.25227,4.69902
2023-02-16 17:13:02:21,-1.18571,1.97327,-9.53544,-11.8875,-7.25961,4.68051
2023-02-16 17:13:02:31,-1.18117,1.98775,-9.52899,-11.8534,-7.26327,4.6631
2023-02-16 17:13:02:41,-1.19814,1.96444,-9.49387,-11.819,-7.26838,4.64647
2023-02-16 17:13:02:51,-1.2083,1.95224,-9.44315,-11.786,-7.27147,4.62982
2023-02-16 17:13:02:61,-1.19925,1.93949,-9.40357,-11.7555,-7.27145,4.61541
2023-02-16 17:13:02:71,-1.21017,1.92345,-9.40354,-11.7311,-7.27068,4.60083
2023-02-16 17:13:02:81,-1.24595,1.93224,-9.41611,-11.712,-7.26675,4.58932
2023-02-16 17:13:02:91,-1.25962,1.96086,-9.43616,-11.6953,-7.26354,4.57898
2023-02-16 17:13:02:101,-1.2586,2.00212,-9.47022,-11.6863,-7.25519,4.56177
2023-02-16 17:13:02:111,-1.24118,1.99433,-9.52506,-11.6803,-7.24688,4.54836
2023-02-16 17:13:02:121,-1.23894,1.98955,-9.5417,-11.6722,-7.24006,4.535
2023-02-16 17:13:02:131,-1.27274,1.97436,-9.49193,-11.6583,-7.23448,4.5189
2023-02-16 17:13:02:141,-1.26609,1.92654,-9.41515,-11.6409,-7.23013,4.50017
2023-02-16 17:13:02:151,-1.22916,1.89392,-9.3855,-11.6272,-7.22248,4.48065
2023-02-16 17:13:02:161,-1.20527,1.8656,-9.38861,-11.6136,-7.21563,4.45991
2023-02-16 17:13:02:171,-1.20762,1.84226,-9.43172,-11.6055,-7.21083,4.44332
2023-02-16 17:13:02:181,-1.21438,1.86449,-9.49028,-11.6015,-7.20614,4.42565
2023-02-16 17:13:02:191,-1.21887,1.91925,-9.56193,-11.6034,-7.20372,4.40888
2023-02-16 17:13:02:201,-1.20541,1.94211,-9.58214,-11.6063,-7.20256,4.39276
2023-02-16 17:13:02:211,-1.2074,1.94375,-9.5461,-11.6063,-7.20216,4.37827
2023-02-16 17:13:02:221,-1.2463,1.93758,-9.51328,-11.6046,-7.20264,4.36297
2023-02-16 17:13:02:231,-1.27823,1.95346,-9.49972,-11.6049,-7.20234,4.34718
2023-02-16 17:13:02:241,-1.30042,1.95015,-9.49087,-11.6081,-7.20155,4.33338
2023-02-16 17:13:02:251,-1.30189,1.95167,-9.47057,-11.6119,-7.19872,4.3159
2023-02-16 17:13:02:261,-1.24701,1.94269,-9.46371,-11.6206,-7.19221,4.29866
2023-02-16 17:13:02:271,-1.2164,1.93385,-9.49913,-11.6313,-7.18699,4.2819
2023-02-16 17:13:02:281,-1.21852,1.97141,-9.53598,-11.6489,-7.18073,4.26385
2023-02-16 17:13:02:291,-1.21489,2.02513,-9.57589,-11.6649,-7.17333,4.24695
2023-02-16 17:13:02:301,-1.22263,2.04834,-9.58104,-11.682,-7.16653,4.23134
2023-02-16 17:13:02:311,-1.22063,2.03479,-9.5499,-11.6939,-7.15642,4.21282
2023-02-16 17:13:02:321,-1.20456,2.02187,-9.55196,-11.7022,-7.14136,4.19372
2023-02-16 17:13:02:331,-1.18939,2.02481,-9.60943,-11.7072,-7.12245,4.17789
2023-02-16 17:13:02:341,-1.18075,2.00735,-9.59734,-11.7087,-7.10915,4.16273
2023-02-16 17:13:02:351,-1.18253,2.00298,-9.58099,-11.7063,-7.09719,4.15001
2023-02-16 17:13:02:361,-1.19507,1.99056,-9.5898,-11.704,-7.08489,4.13397
2023-02-16 17:13:02:371,-1.15925,1.97721,-9.58735,-11.6979,-7.0757,4.11864
2023-02-16 17:13:02:381,-1.15789,1.95156,-9.56524,-11.6897,-7.06966,4.10849
2023-02-16 17:13:02:391,-1.20672,1.97332,-9.55876,-11.6812,-7.0695,4.09919
2023-02-16 17:13:02:401,-1.22063,1.98614,-9.559,-11.6746,-7.06796,4.08784
2023-02-16 17:13:02:411,-1.21498,1.95293,-9.54103,-11.6615,-7.06457,4.07055
2023-02-16 17:13:02:421,-1.18203,1.94616,-9.51619,-11.649,-7.0565,4.05761
2023-02-16 17:13:02:431,-1.14226,1.93429,-9.49869,-11.6377,-7.05303,4.04756
2023-02-16 17:13:02:441,-1.15805,1.95013,-9.52247,-11.6251,-7.04846,4.03898
2023-02-16 17:13:02:451,-1.16234,1.94557,-9.54122,-11.6139,-7.042,4.03077
2023-02-16 17:13:02:461,-1.18203,1.93164,-9.50711,-11.5997,-7.03823,4.02868
2023-02-16 17:13:02:471,-1.20567,1.9139,-9.48794,-11.5823,-7.03591,4.03053
2023-02-16 17:13:02:481,-1.21394,1.9096,-9.48946,-11.5685,-7.03024,4.03031
2023-02-16 17:13:02:491,-1.22385,1.91248,-9.47901,-11.5531,-7.02407,4.03604
2023-02-16 17:13:02:501,-1.24088,1.91499,-9.48558,-11.5358,-7.01887,4.03638
2023-02-16 17:13:02:511,-1.26157,1.9223,-9.4927,-11.5278,-7.01364,4.03813
2023-02-16 17:13:02:521,-1.27811,1.93531,-9.49926,-11.5147,-7.00848,4.03677
2023-02-16 17:13:02:531,-1.26441,1.91504,-9.45709,-11.4986,-7.00787,4.03131
2023-02-16 17:13:02:541,-1.26369,1.90463,-9.44504,-11.4846,-7.00502,4.02493
2023-02-16 17:13:02:551,-1.2657,1.89655,-9.48434,-11.4709,-7.00185,4.01595
2023-02-16 17:13:02:561,-1.25626,1.88589,-9.50483,-11.455,-6.99576,4.00172
2023-02-16 17:13:02:571,-1.24,1.88737,-9.50153,-11.4437,-6.99283,3.98723
2023-02-16 17:13:02:581,-1.19684,1.87993,-9.50169,-11.4301,-6.98671,3.97234
2023-02-16 17:13:02:591,-1.17228,1.85392,-9.48632,-11.4201,-6.98033,3.95866
2023-02-16 17:13:02:601,-1.17264,1.83848,-9.4722,-11.4099,-6.97194,3.94592
2023-02-16 17:13:02:611,-1.17384,1.84712,-9.47402,-11.4038,-6.96538,3.93532
2023-02-16 17:13:02:621,-1.18664,1.86638,-9.49183,-11.4033,-6.96055,3.92417
2023-02-16 17:13:02:631,-1.20488,1.87542,-9.4938,-11.4044,-6.95453,3.91463
2023-02-16 17:13:02:641,-1.21869,1.88576,-9.5032,-11.4083,-6.94868,3.90151
2023-02-16 17:13:02:651,-1.23058,1.89278,-9.50685,-11.4132,-6.94532,3.88998
2023-02-16 17:13:02:661,-1.22018,1.89466,-9.52368,-11.4218,-6.93567,3.8753
2023-02-16 17:13:02:671,-1.18529,1.90854,-9.51365,-11.4303,-6.92611,3.85425
2023-02-16 17:13:02:681,-1.18026,1.90262,-9.51335,-11.4402,-6.9178,3.83434
2023-02-16 17:13:02:691,-1.17302,1.91084,-9.53878,-11.4527,-6.90936,3.81282
2023-02-16 17:13:02:701,-1.16421,1.93418,-9.56764,-11.466,-6.90125,3.79282
2023-02-16 17:13:02:711,-1.14062,1.94228,-9.58002,-11.4806,-6.89132,3.77073
2023-02-16 17:13:02:721,-1.10963,1.93327,-9.59604,-11.4922,-6.88354,3.74733
2023-02-16 17:13:02:731,-1.09678,1.93528,-9.58474,-11.4992,-6.87849,3.72439
2023-02-16 17:13:02:741,-1.09362,1.91103,-9.56963,-11.5056,-6.87622,3.70251
2023-02-16 17:13:02:751,-1.11692,1.91558,-9.55115,-11.5123,-6.87167,3.68317
2023-02-16 17:13:02:761,-1.12191,1.92195,-9.5457,-11.5191,-6.87336,3.66436
2023-02-16 17:13:02:771,-1.12988,1.92096,-9.52735,-11.524,-6.87351,3.64686
2023-02-16 17:13:02:781,-1.15362,1.93419,-9.50615,-11.5291,-6.87389,3.62837
2023-02-16 17:13:02:791,-1.17003,1.93346,-9.49542,-11.5384,-6.88239,3.60778
2023-02-16 17:13:02:801,-1.19651,1.93159,-9.46657,-11.5425,-6.8903,3.5922
2023-02-16 17:13:02:811,-1.20898,1.91803,-9.44617,-11.5502,-6.89578,3.5687
2023-02-16 17:13:02:821,-1.19124,1.92066,-9.45943,-11.5605,-6.9003,3.54427
2023-02-16 17:13:02:831,-1.15703,1.93352,-9.51001,-11.5738,-6.90112,3.52172
2023-02-16 17:13:02:841,-1.1493,1.9406,-9.54761,-11.5923,-6.90078,3.49964
2023-02-16 17:13:02:851,-1.13884,1.92894,-9.51293,-11.6055,-6.90259,3.47518
2023-02-16 17:13:02:861,-1.12692,1.89556,-9.48473,-11.6208,-6.90519,3.45095
2023-02-16 17:13:02:871,-1.12523,1.90444,-9.48787,-11.6384,-6.90501,3.43295
2023-02-16 17:13:02:881,-1.12413,1.94371,-9.47956,-11.663,-6.91113,3.41286
2023-02-16 17:13:02:891,-1.11712,1.95098,-9.47236,-11.6907,-6.91721,3.39335
2023-02-16 17:13:02:901,-1.13762,1.95407,-9.46502,-11.7154,-6.9246,3.37515
2023-02-16 17:13:02:911,-1.15175,1.98142,-9.50479,-11.7464,-6.9313,3.35723
2023-02-16 17:13:02:921,-1.16707,2.02813,-9.59121,-11.7797,-6.93881,3.34155
2023-02-16 17:13:02:931,-1.15907,2.05969,-9.63617,-11.811,-6.94467,3.32282
2023-02-16 17:13:02:941,-1.1091,2.04151,-9.6052,-11.8328,-6.94677,3.30402
2023-02-16 17:13:02:951,-1.06903,2.00962,-9.57436,-11.849,-6.9489,3.29067
2023-02-16 17:13:02:961,-1.07207,1.99609,-9.55025,-11.8617,-6.95511,3.28241
2023-02-16 17:13:02:971,-1.1015,2.01239,-9.52518,-11.8804,-6.96567,3.28471
2023-02-16 17:13:02:981,-1.11197,2.02673,-9.52564,-11.9034,-6.97855,3.28834
2023-02-16 17:13:02:991,-1.13839,2.045,-9.53616,-11.9287,-6.98836,3.29601
2023-02-16 17:13:03:1,-1.18363,2.07597,-9.56109,-11.9546,-6.99812,3.30354
2023-02-16 17:13:03:11,-1.20292,2.08415,-9.54007,-11.9816,-7.00862,3.31625
2023-02-16 17:13:03:21,-1.22045,2.06521,-9.47884,-12.0076,-7.02183,3.33025
2023-02-16 17:13:03:31,-1.27322,2.12284,-9.50885,-12.0399,-7.03725,3.34377
2023-02-16 17:13:03:41,-1.27617,2.17244,-9.60435,-12.0681,-7.0426,3.35437
2023-02-16 17:13:03:51,-1.29047,2.14238,-9.55202,-12.0831,-7.03823,3.36317
2023-02-16 17:13:03:61,-1.27233,2.08406,-9.46355,-12.0917,-7.03383,3.37189
2023-02-16 17:13:03:71,-1.2276,2.09683,-9.48404,-12.1045,-7.03354,3.37943
2023-02-16 17:13:03:81,-1.20003,2.12285,-9.55222,-12.1193,-7.03064,3.38743
2023-02-16 17:13:03:91,-1.21457,2.12439,-9.56977,-12.1315,-7.02926,3.39632
2023-02-16 17:13:03:101,-1.23222,2.10162,-9.52808,-12.1363,-7.02748,3.40611
2023-02-16 17:13:03:111,-1.19869,2.08503,-9.47771,-12.138,-7.02916,3.4125
2023-02-16 17:13:03:121,-1.15663,2.05463,-9.46087,-12.1405,-7.03237,3.41807
2023-02-16 17:13:03:131,-1.17917,2.04347,-9.47332,-12.1466,-7.03844,3.42857
2023-02-16 17:13:03:141,-1.2255,2.05215,-9.47743,-12.1561,-7.04384,3.43902
2023-02-16 17:13:03:151,-1.24917,2.08106,-9.511,-12.1629,-7.05185,3.44844
2023-02-16 17:13:03:161,-1.22317,2.09456,-9.53943,-12.1714,-7.05573,3.46016
2023-02-16 17:13:03:171,-1.16794,2.08334,-9.54189,-12.1765,-7.06024,3.46859
2023-02-16 17:13:03:181,-1.14987,2.09026,-9.55097,-12.1775,-7.06644,3.47714
2023-02-16 17:13:03:191,-1.16606,2.09475,-9.53904,-12.1775,-7.06995,3.49085
2023-02-16 17:13:03:201,-1.1764,2.05599,-9.50125,-12.1737,-7.07503,3.50828
2023-02-16 17:13:03:211,-1.20056,2.02564,-9.45394,-12.1657,-7.07814,3.52551
2023-02-16 17:13:03:221,-1.20196,2.02141,-9.45251,-12.1626,-7.08191,3.54284
2023-02-16 17:13:03:231,-1.20516,2.02239,-9.45996,-12.1583,-7.08619,3.56367
2023-02-16 17:13:03:241,-1.2051,1.99116,-9.44527,-12.1564,-7.08827,3.58213
2023-02-16 17:13:03:251,-1.18783,1.98349,-9.44282,-12.1555,-7.08787,3.59939
2023-02-16 17:13:03:261,-1.14776,2.00423,-9.46769,-12.1645,-7.08992,3.61765
2023-02-16 17:13:03:271,-1.1387,2.00527,-9.46974,-12.1733,-7.08843,3.63464
2023-02-16 17:13:03:281,-1.15599,2.00334,-9.41752,-12.1837,-7.0891,3.65456
2023-02-16 17:13:03:291,-1.17544,1.9915,-9.38147,-12.1968,-7.09089,3.674
2023-02-16 17:13:03:301,-1.18479,2.00349,-9.38598,-12.2151,-7.08958,3.6935
2023-02-16 17:13:03:311,-1.17049,2.01533,-9.42173,-12.2375,-7.08798,3.7119
2023-02-16 17:13:03:321,-1.14377,2.01696,-9.45018,-12.2667,-7.08807,3.72996
2023-02-16 17:13:03:331,-1.12952,2.02947,-9.50322,-12.2976,-7.08594,3.74651
2023-02-16 17:13:03:341,-1.10528,2.06933,-9.56422,-12.3285,-7.08502,3.76778
2023-02-16 17:13:03:351,-1.12033,2.07028,-9.56407,-12.3583,-7.08469,3.78701
2023-02-16 17:13:03:361,-1.14778,2.0514,-9.50663,-12.3833,-7.08171,3.8092
2023-02-16 17:13:03:371,-1.16771,2.02883,-9.45762,-12.4059,-7.08502,3.83459
2023-02-16 17:13:03:381,-1.17728,2.02788,-9.42562,-12.4324,-7.0875,3.85736
2023-02-16 17:13:03:391,-1.20008,2.0566,-9.49467,-12.463,-7.09084,3.88176
2023-02-16 17:13:03:401,-1.2385,2.15861,-9.61255,-12.5017,-7.09661,3.91114
2023-02-16 17:13:03:411,-1.27928,2.17771,-9.57513,-12.5263,-7.10802,3.93275
2023-02-16 17:13:03:421,-1.30144,2.09044,-9.41433,-12.5432,-7.11135,3.95338
2023-02-16 17:13:03:431,-1.28167,2.08318,-9.40014,-12.5642,-7.11343,3.97146
2023-02-16 17:13:03:441,-1.26562,2.12983,-9.48584,-12.5907,-7.11139,3.98157
2023-02-16 17:13:03:451,-1.26214,2.16574,-9.49612,-12.6161,-7.11501,3.98911
2023-02-16 17:13:03:461,-1.23543,2.144,-9.44816,-12.6387,-7.12028,3.99454
2023-02-16 17:13:03:471,-1.22853,2.14472,-9.44881,-12.6601,-7.12107,4.00242
2023-02-16 17:13:03:481,-1.24924,2.17548,-9.47285,-12.684,-7.12753,4.00799
2023-02-16 17:13:03:491,-1.24992,2.20519,-9.51738,-12.7069,-7.12716,4.00904
2023-02-16 17:13:03:501,-1.24923,2.22135,-9.55269,-12.7274,-7.13083,4.00469
2023-02-16 17:13:03:511,-1.26198,2.23275,-9.53931,-12.7472,-7.13437,4.00099
2023-02-16 17:13:03:521,-1.23858,2.22947,-9.49863,-12.7612,-7.13959,3.9943
2023-02-16 17:13:03:531,-1.23023,2.21504,-9.47917,-12.7734,-7.14077,3.98529
2023-02-16 17:13:03:541,-1.21652,2.20774,-9.46978,-12.7842,-7.14312,3.97657
2023-02-16 17:13:03:551,-1.18852,2.20761,-9.44629,-12.7933,-7.14271,3.96708
2023-02-16 17:13:03:561,-1.17227,2.19005,-9.41707,-12.7986,-7.14265,3.95607
2023-02-16 17:13:03:571,-1.19853,2.16678,-9.39769,-12.8053,-7.14118,3.94577
2023-02-16 17:13:03:581,-1.22192,2.1641,-9.40092,-12.8161,-7.14193,3.94194
2023-02-16 17:13:03:591,-1.228,2.14768,-9.38909,-12.8267,-7.14177,3.93575
2023-02-16 17:13:03:601,-1.22626,2.13587,-9.38134,-12.8412,-7.14829,3.9331
2023-02-16 17:13:03:611,-1.21124,2.18117,-9.43358,-12.8619,-7.15026,3.92788
2023-02-16 17:13:03:621,-1.19988,2.21958,-9.4739,-12.8831,-7.14808,3.91835
2023-02-16 17:13:03:631,-1.19911,2.18922,-9.4611,-12.8934,-7.14681,3.9109
2023-02-16 17:13:03:641,-1.21306,2.18861,-9.45495,-12.9044,-7.14367,3.90467
2023-02-16 17:13:03:651,-1.22416,2.19659,-9.48125,-12.9189,-7.14233,3.89776
2023-02-16 17:13:03:661,-1.21631,2.20389,-9.50158,-12.9296,-7.13975,3.89089
2023-02-16 17:13:03:671,-1.17208,2.1984,-9.52936,-12.9392,-7.14095,3.88339
2023-02-16 17:13:03:681,-1.17205,2.15761,-9.53735,-12.9479,-7.1495,3.87744
2023-02-16 17:13:03:691,-1.26274,2.1735,-9.5308,-12.9597,-7.16654,3.87855
2023-02-16 17:13:03:701,-1.35199,2.22351,-9.53824,-12.9778,-7.18676,3.88324
2023-02-16 17:13:03:711,-1.39213,2.2468,-9.51944,-12.9944,-7.20284,3.88223
2023-02-16 17:13:03:721,-1.38276,2.26734,-9.49773,-13.0123,-7.21613,3.87641
2023-02-16 17:13:03:731,-1.35135,2.29312,-9.50289,-13.0349,-7.23088,3.86867
2023-02-16 17:13:03:741,-1.37023,2.33686,-9.51695,-13.0618,-7.24296,3.8557
2023-02-16 17:13:03:751,-1.35722,2.39353,-9.59163,-13.0873,-7.24775,3.83909
2023-02-16 17:13:03:761,-1.30783,2.40863,-9.61145,-13.1016,-7.24306,3.82098
2023-02-16 17:13:03:771,-1.25488,2.34797,-9.5277,-13.1026,-7.23333,3.79796
2023-02-16 17:13:03:781,-1.19134,2.27034,-9.46265,-13.097,-7.22486,3.77557
2023-02-16 17:13:03:791,-1.19229,2.26255,-9.43347,-13.0887,-7.2135,3.75534
2023-02-16 17:13:03:801,-1.20764,2.26334,-9.45376,-13.0788,-7.20294,3.73474
2023-02-16 17:13:03:811,-1.18852,2.22769,-9.43129,-13.0682,-7.19341,3.72061
2023-02-16 17:13:03:821,-1.19037,2.18147,-9.4054,-13.0567,-7.18266,3.70692
2023-02-16 17:13:03:831,-1.19541,2.17618,-9.4166,-13.0493,-7.17296,3.6905
2023-02-16 17:13:03:841,-1.19377,2.20123,-9.45757,-13.0411,-7.16101,3.67888
2023-02-16 17:13:03:851,-1.16157,2.18741,-9.45302,-13.0382,-7.1503,3.66101
2023-02-16 17:13:03:861,-1.13076,2.16557,-9.42823,-13.0289,-7.14435,3.64603
2023-02-16 17:13:03:871,-1.14414,2.20061,-9.4682,-13.0291,-7.14072,3.63263
2023-02-16 17:13:03:881,-1.18996,2.20028,-9.50821,-13.0245,-7.13902,3.62009
2023-02-16 17:13:03:891,-1.20142,2.17047,-9.49536,-13.0178,-7.1359,3.60518
2023-02-16 17:13:03:901,-1.15324,2.15597,-9.49661,-13.0112,-7.13204,3.5921
2023-02-16 17:13:03:911,-1.09861,2.14268,-9.5277,-13.0039,-7.13234,3.57576
2023-02-16 17:13:03:921,-1.10148,2.1411,-9.51444,-12.9922,-7.13367,3.56221
2023-02-16 17:13:03:931,-1.15743,2.10935,-9.44966,-12.9786,-7.13499,3.5575
2023-02-16 17:13:03:941,-1.1835,2.09419,-9.38771,-12.9629,-7.13955,3.55414
2023-02-16 17:13:03:951,-1.1777,2.10718,-9.4074,-12.9622,-7.13903,3.54787
2023-02-16 17:13:03:961,-1.16723,2.12259,-9.44808,-12.9689,-7.13957,3.54304
2023-02-16 17:13:03:971,-1.16017,2.1453,-9.49729,-12.9746,-7.14232,3.53815
2023-02-16 17:13:03:981,-1.13611,2.17436,-9.50369,-12.9822,-7.13992,3.53603
2023-02-16 17:13:03:991,-1.13275,2.17411,-9.49512,-12.9879,-7.13975,3.53263
2023-02-16 17:13:04:1,-1.13961,2.16215,-9.46537,-12.9895,-7.1406,3.52868
2023-02-16 17:13:04:11,-1.15257,2.17191,-9.42616,-12.9964,-7.14507,3.53187
2023-02-16 17:13:04:21,-1.19228,2.172,-9.42242,-13.0003,-7.15108,3.53107
2023-02-16 17:13:04:31,-1.20034,2.17496,-9.42267,-13.0029,-7.15732,3.53081
2023-02-16 17:13:04:41,-1.17717,2.16603,-9.42856,-13.0103,-7.16366,3.53199
2023-02-16 17:13:04:51,-1.19442,2.17486,-9.44741,-13.0164,-7.16865,3.53039
2023-02-16 17:13:04:61,-1.22304,2.19701,-9.47206,-13.0225,-7.17442,3.52833
2023-02-16 17:13:04:71,-1.20918,2.21745,-9.49365,-13.0278,-7.18069,3.52592
2023-02-16 17:13:04:81,-1.18293,2.20024,-9.47217,-13.0299,-7.18533,3.52051
2023-02-16 17:13:04:91,-1.18534,2.2075,-9.4665,-13.0372,-7.19256,3.51979
2023-02-16 17:13:04:101,-1.19567,2.20891,-9.48077,-13.0399,-7.19663,3.52022
2023-02-16 17:13:04:111,-1.20119,2.22095,-9.50909,-13.0432,-7.2012,3.52315
2023-02-16 17:13:04:121,-1.20897,2.23467,-9.5284,-13.0442,-7.21033,3.52578
2023-02-16 17:13:04:131,-1.24163,2.23014,-9.50019,-13.0452,-7.21652,3.52851
2023-02-16 17:13:04:141,-1.27458,2.21588,-9.47575,-13.0417,-7.22712,3.53646
2023-02-16 17:13:04:151,-1.28228,2.21647,-9.46172,-13.0383,-7.23041,3.54521
2023-02-16 17:13:04:161,-1.2711,2.21236,-9.46482,-13.0325,-7.23128,3.55395
2023-02-16 17:13:04:171,-1.26919,2.21242,-9.468,-13.0262,-7.22891,3.55683
2023-02-16 17:13:04:181,-1.27329,2.18969,-9.45331,-13.0206,-7.22874,3.55946
2023-02-16 17:13:04:191,-1.26076,2.17338,-9.44776,-13.0114,-7.22512,3.55939
2023-02-16 17:13:04:201,-1.25105,2.1574,-9.43156,-13.0041,-7.22355,3.55596
2023-02-16 17:13:04:211,-1.23929,2.14977,-9.40177,-12.998,-7.22363,3.55443
2023-02-16 17:13:04:221,-1.25177,2.14829,-9.40585,-12.995,-7.22673,3.5539
2023-02-16 17:13:04:231,-1.23225,2.14892,-9.41888,-12.9944,-7.23088,3.55132
2023-02-16 17:13:04:241,-1.20479,2.15655,-9.41872,-12.9927,-7.2364,3.54749
2023-02-16 17:13:04:251,-1.18996,2.16836,-9.4269,-12.996,-7.24188,3.54246
2023-02-16 17:13:04:261,-1.17127,2.17735,-9.43704,-12.9972,-7.24383,3.53811
2023-02-16 17:13:04:271,-1.1622,2.17733,-9.44963,-12.9998,-7.24887,3.53798
2023-02-16 17:13:04:281,-1.17994,2.16211,-9.45805,-13.0014,-7.25324,3.54139
2023-02-16 17:13:04:291,-1.20698,2.16652,-9.4573,-13.009,-7.25918,3.54602
2023-02-16 17:13:04:301,-1.22323,2.17128,-9.463,-13.0143,-7.26416,3.55146
2023-02-16 17:13:04:311,-1.24046,2.15875,-9.45432,-13.0167,-7.26593,3.55869
2023-02-16 17:13:04:321,-1.24736,2.15037,-9.43781,-13.0172,-7.26658,3.56768
2023-02-16 17:13:04:331,-1.23674,2.13254,-9.4315,-13.0184,-7.266,3.57507
2023-02-16 17:13:04:341,-1.22272,2.1409,-9.41983,-13.0235,-7.26683,3.58348
2023-02-16 17:13:04:351,-1.23507,2.14376,-9.41193,-13.0326,-7.27156,3.59105
2023-02-16 17:13:04:361,-1.23757,2.13375,-9.40017,-13.044,-7.27225,3.59523
2023-02-16 17:13:04:371,-1.22669,2.13748,-9.41621,-13.0571,-7.27108,3.60196
2023-02-16 17:13:04:381,-1.25609,2.15185,-9.44308,-13.0674,-7.27403,3.61015
2023-02-16 17:13:04:391,-1.25952,2.14172,-9.45769,-13.0833,-7.27529,3.61425
2023-02-16 17:13:04:401,-1.26379,2.16307,-9.47406,-13.1004,-7.27279,3.62068
2023-02-16 17:13:04:411,-1.25624,2.19606,-9.50141,-13.1163,-7.26888,3.62382
2023-02-16 17:13:04:421,-1.24745,2.20342,-9.50349,-13.1313,-7.26806,3.62789
2023-02-16 17:13:04:431,-1.27985,2.20907,-9.47583,-13.1434,-7.27165,3.63045
2023-02-16 17:13:04:441,-1.30411,2.22651,-9.47817,-13.1557,-7.27664,3.63317
2023-02-16 17:13:04:451,-1.31392,2.25586,-9.48731,-13.1738,-7.27879,3.63552
2023-02-16 17:13:04:461,-1.31892,2.28346,-9.47515,-13.1874,-7.2797,3.6304
2023-02-16 17:13:04:471,-1.31044,2.2944,-9.44932,-13.2008,-7.27538,3.62749
2023-02-16 17:13:04:481,-1.30964,2.29157,-9.44225,-13.2088,-7.2775,3.62066
2023-02-16 17:13:04:491,-1.29291,2.30448,-9.45288,-13.2136,-7.27652,3.60878
2023-02-16 17:13:04:501,-1.29217,2.31086,-9.45714,-13.2194,-7.27151,3.59481
2023-02-16 17:13:04:511,-1.29835,2.27733,-9.4285,-13.2222,-7.26695,3.58663
2023-02-16 17:13:04:521,-1.28547,2.24389,-9.38886,-13.2156,-7.261,3.56944
2023-02-16 17:13:04:531,-1.26329,2.21621,-9.36103,-13.2123,-7.25044,3.55501
2023-02-16 17:13:04:541,-1.24145,2.21732,-9.39673,-13.2123,-7.24191,3.54268
2023-02-16 17:13:04:551,-1.22637,2.23936,-9.42849,-13.2127,-7.23175,3.52631
2023-02-16 17:13:04:561,-1.21085,2.24024,-9.46095,-13.218,-7.21732,3.51246
2023-02-16 17:13:04:571,-1.18851,2.24595,-9.47981,-13.223,-7.20598,3.49843
2023-02-16 17:13:04:581,-1.17687,2.24788,-9.4603,-13.2247,-7.19243,3.48509
2023-02-16 17:13:04:591,-1.1935,2.25225,-9.47492,-13.2314,-7.18112,3.47275
2023-02-16 17:13:04:601,-1.16325,2.27019,-9.48847,-13.2364,-7.17112,3.46209
2023-02-16 17:13:04:611,-1.16861,2.279,-9.48837,-13.2443,-7.16679,3.45495
2023-02-16 17:13:04:621,-1.20709,2.28655,-9.46505,-13.2467,-7.15795,3.44454
2023-02-16 17:13:04:631,-1.22049,2.26287,-9.43719,-13.2504,-7.1521,3.43435
2023-02-16 17:13:04:641,-1.16799,2.24641,-9.45397,-13.2496,-7.14006,3.41837
2023-02-16 17:13:04:651,-1.07313,2.23896,-9.49891,-13.2496,-7.12673,3.4066
2023-02-16 17:13:04:661,-1.06931,2.22698,-9.49313,-13.2475,-7.119,3.39653
2023-02-16 17:13:04:671,-1.09484,2.21089,-9.46827,-13.2464,-7.11207,3.39077
2023-02-16 17:13:04:681,-1.08936,2.21093,-9.45428,-13.2393,-7.10734,3.38973
2023-02-16 17:13:04:691,-1.10989,2.20871,-9.4496,-13.2369,-7.10538,3.39223
2023-02-16 17:13:04:701,-1.15768,2.20441,-9.44267,-13.2363,-7.10581,3.39808
2023-02-16 17:13:04:711,-1.16633,2.1971,-9.4337,-13.2389,-7.10538,3.40548
2023-02-16 17:13:04:721,-1.17747,2.20157,-9.43628,-13.2404,-7.10458,3.41185
2023-02-16 17:13:04:731,-1.18537,2.23468,-9.46525,-13.2421,-7.10744,3.41558
2023-02-16 17:13:04:741,-1.19398,2.24193,-9.4708,-13.2464,-7.1089,3.41947
2023-02-16 17:13:04:751,-1.21171,2.23326,-9.47163,-13.246,-7.10884,3.42376
2023-02-16 17:13:04:761,-1.22622,2.23234,-9.46506,-13.2438,-7.11178,3.42741
2023-02-16 17:13:04:771,-1.22821,2.23083,-9.46422,-13.243,-7.11729,3.42672
2023-02-16 17:13:04:781,-1.22754,2.24052,-9.46452,-13.2389,-7.12082,3.42545
2023-02-16 17:13:04:791,-1.20626,2.2289,-9.45543,-13.236,-7.12437,3.42398
2023-02-16 17:13:04:801,-1.20242,2.20824,-9.43264,-13.2301,-7.12567,3.42327
2023-02-16 17:13:04:811,-1.19276,2.1818,-9.39893,-13.2293,-7.12943,3.42432
2023-02-16 17:13:04:821,-1.18409,2.18098,-9.41257,-13.2311,-7.1359,3.42337
2023-02-16 17:13:04:831,-1.19647,2.20203,-9.41653,-13.2328,-7.14133,3.42569
2023-02-16 17:13:04:841,-1.22111,2.17699,-9.40818,-13.2346,-7.14504,3.42951
2023-02-16 17:13:04:851,-1.22981,2.17544,-9.40078,-13.2392,-7.14827,3.43378
2023-02-16 17:13:04:861,-1.23231,2.19043,-9.42161,-13.246,-7.1522,3.43339
2023-02-16 17:13:04:871,-1.24904,2.23131,-9.45248,-13.2546,-7.1533,3.4389
2023-02-16 17:13:04:881,-1.24244,2.24294,-9.45277,-13.2666,-7.15336,3.44219
2023-02-16 17:13:04:891,-1.24214,2.23644,-9.46256,-13.277,-7.15044,3.44082
2023-02-16 17:13:04:901,-1.22754,2.23448,-9.46846,-13.2813,-7.14428,3.44223
2023-02-16 17:13:04:911,-1.19897,2.21727,-9.44717,-13.2844,-7.13382,3.44395
2023-02-16 17:13:04:921,-1.17823,2.19686,-9.43308,-13.2886,-7.12309,3.44787
2023-02-16 17:13:04:931,-1.15695,2.16465,-9.39994,-13.2963,-7.1159,3.45585
2023-02-16 17:13:04:941,-1.12527,2.13443,-9.37067,-13.303,-7.10864,3.46171
2023-02-16 17:13:04:951,-1.1116,2.10403,-9.33235,-13.3129,-7.10389,3.46928
2023-02-16 17:13:04:961,-1.11985,2.10505,-9.31401,-13.3281,-7.10335,3.47825
2023-02-16 17:13:04:971,-1.1432,2.11581,-9.31033,-13.3524,-7.10542,3.49119
2023-02-16 17:13:04:981,-1.16631,2.14077,-9.33642,-13.3815,-7.10582,3.50231
2023-02-16 17:13:04:991,-1.20092,2.20282,-9.39668,-13.4171,-7.10944,3.51415
2023-02-16 17:13:05:1,-1.21867,2.23623,-9.42977,-13.4575,-7.11171,3.5258
2023-02-16 17:13:05:11,-1.20373,2.24453,-9.42535,-13.4933,-7.1147,3.53708
2023-02-16 17:13:05:21,-1.17328,2.2495,-9.43762,-13.5323,-7.11505,3.54624
2023-02-16 17:13:05:31,-1.1769,2.28353,-9.46315,-13.5702,-7.11581,3.55882
2023-02-16 17:13:05:41,-1.19037,2.31098,-9.49935,-13.6094,-7.11637,3.57274
2023-02-16 17:13:05:51,-1.19569,2.32442,-9.53336,-13.6444,-7.11676,3.58376
2023-02-16 17:13:05:61,-1.18245,2.31771,-9.52227,-13.6726,-7.11761,3.59443
2023-02-16 17:13:05:71,-1.1916,2.33862,-9.51213,-13.6964,-7.11627,3.6077
2023-02-16 17:13:05:81,-1.20005,2.32354,-9.46035,-13.721,-7.12085,3.62203
2023-02-16 17:13:05:91,-1.19739,2.31308,-9.42422,-13.7422,-7.12481,3.63504
2023-02-16 17:13:05:101,-1.22287,2.35154,-9.46699,-13.7669,-7.13228,3.64925
2023-02-16 17:13:05:111,-1.2882,2.40205,-9.50414,-13.7933,-7.13746,3.66237
2023-02-16 17:13:05:121,-1.30807,2.4093,-9.51972,-13.8138,-7.14206,3.6725
2023-02-16 17:13:05:131,-1.26787,2.39897,-9.51968,-13.834,-7.14751,3.67825
2023-02-16 17:13:05:141,-1.22129,2.39368,-9.52257,-13.8488,-7.14906,3.68184
2023-02-16 17:13:05:151,-1.24343,2.391,-9.50585,-13.8588,-7.15459,3.68685
2023-02-16 17:13:05:161,-1.27807,2.3861,-9.48363,-13.869,-7.16232,3.69683
2023-02-16 17:13:05:171,-1.28644,2.40771,-9.47676,-13.8789,-7.17347,3.70009
2023-02-16 17:13:05:181,-1.28218,2.43409,-9.47774,-13.8883,-7.17995,3.70267
2023-02-16 17:13:05:191,-1.30096,2.45187,-9.47885,-13.8946,-7.19107,3.70463
2023-02-16 17:13:05:201,-1.29655,2.4667,-9.4793,-13.8976,-7.19197,3.70424
2023-02-16 17:13:05:211,-1.2906,2.45631,-9.45553,-13.8922,-7.19053,3.70299
2023-02-16 17:13:05:221,-1.28245,2.4203,-9.40536,-13.8861,-7.18868,3.69868
2023-02-16 17:13:05:231,-1.24235,2.37006,-9.34271,-13.872,-7.18231,3.69549
2023-02-16 17:13:05:241,-1.20713,2.3083,-9.29724,-13.8573,-7.17649,3.68902
2023-02-16 17:13:05:251,-1.17797,2.29325,-9.29406,-13.8452,-7.16963,3.68819
2023-02-16 17:13:05:261,-1.16466,2.28506,-9.3392,-13.8372,-7.16542,3.6825
2023-02-16 17:13:05:271,-1.18013,2.298,-9.36435,-13.8374,-7.16221,3.68162
2023-02-16 17:13:05:281,-1.18597,2.30794,-9.40645,-13.8398,-7.15853,3.68094
2023-02-16 17:13:05:291,-1.1757,2.32017,-9.43129,-13.8418,-7.15438,3.6799
2023-02-16 17:13:05:301,-1.16376,2.32787,-9.44208,-13.8459,-7.15085,3.67948
2023-02-16 17:13:05:311,-1.14742,2.3249,-9.44265,-13.8496,-7.1485,3.68162
2023-02-16 17:13:05:321,-1.12492,2.33103,-9.42944,-13.8546,-7.14723,3.68624
2023-02-16 17:13:05:331,-1.09382,2.3486,-9.44073,-13.8641,-7.14715,3.68947
2023-02-16 17:13:05:341,-1.15309,2.38642,-9.46132,-13.8761,-7.14802,3.69607
2023-02-16 17:13:05:351,-1.23573,2.41367,-9.49858,-13.8892,-7.15414,3.70393
2023-02-16 17:13:05:361,-1.24854,2.44508,-9.51995,-13.8987,-7.15757,3.71168
2023-02-16 17:13:05:371,-1.19586,2.44695,-9.55119,-13.9037,-7.15765,3.71831
2023-02-16 17:13:05:381,-1.1538,2.40842,-9.51856,-13.9002,-7.15411,3.72107
2023-02-16 17:13:05:391,-1.16385,2.34924,-9.42572,-13.8894,-7.15246,3.72872
2023-02-16 17:13:05:401,-1.18566,2.32327,-9.3834,-13.8814,-7.15669,3.73629
2023-02-16 17:13:05:411,-1.20566,2.32424,-9.41225,-13.8789,-7.15964,3.74702
2023-02-16 17:13:05:421,-1.24177,2.35171,-9.46509,-13.8759,-7.16187,3.75671
2023-02-16 17:13:05:431,-1.25313,2.33774,-9.44648,-13.8689,-7.16799,3.76671
2023-02-16 17:13:05:441,-1.19834,2.294,-9.38353,-13.8595,-7.17103,3.76854
2023-02-16 17:13:05:451,-1.18676,2.30892,-9.40312,-13.8549,-7.1705,3.77515
2023-02-16 17:13:05:461,-1.22464,2.37551,-9.4675,-13.8545,-7.17488,3.78239
2023-02-16 17:13:05:471,-1.25696,2.40527,-9.48362,-13.8541,-7.18182,3.78933
2023-02-16 17:13:05:481,-1.27901,2.39743,-9.47077,-13.8459,-7.19004,3.79277
2023-02-16 17:13:05:491,-1.28323,2.36885,-9.43374,-13.8381,-7.19173,3.79544
2023-02-16 17:13:05:501,-1.27977,2.32876,-9.42408,-13.8258,-7.19356,3.80104
2023-02-16 17:13:05:511,-1.24393,2.32043,-9.43618,-13.8114,-7.18786,3.8063
2023-02-16 17:13:05:521,-1.23654,2.30525,-9.44966,-13.7944,-7.1829,3.80967
2023-02-16 17:13:05:531,-1.25855,2.28728,-9.43951,-13.779,-7.17744,3.81367
2023-02-16 17:13:05:541,-1.23573,2.25041,-9.40824,-13.7619,-7.16999,3.81881
2023-02-16 17:13:05:551,-1.20727,2.23301,-9.36933,-13.7447,-7.16094,3.82168
2023-02-16 17:13:05:561,-1.18376,2.21782,-9.33525,-13.7298,-7.15463,3.82238
2023-02-16 17:13:05:571,-1.20589,2.20908,-9.3336,-13.7209,-7.14827,3.82556
2023-02-16 17:13:05:581,-1.24086,2.19536,-9.35329,-13.7161,-7.14545,3.82994
2023-02-16 17:13:05:591,-1.23038,2.17217,-9.34744,-13.7122,-7.1414,3.83218
2023-02-16 17:13:05:601,-1.24679,2.18176,-9.31819,-13.7155,-7.1356,3.83262
2023-02-16 17:13:05:611,-1.24342,2.21133,-9.18543,-13.7222,-7.13012,3.83103
2023-02-16 17:13:05:621,-1.15563,2.22192,-9.03496,-13.737,-7.11874,3.82507
2023-02-16 17:13:05:631,-1.07272,2.23009,-9.06192,-13.7688,-7.10293,3.81866
2023-02-16 17:13:05:641,-1.10169,2.33449,-9.33767,-13.8241,-7.08945,3.81632
2023-02-16 17:13:05:651,-1.14442,2.4999,-9.70465,-13.8877,-7.08166,3.81743
2023-02-16 17:13:05:661,-1.15583,2.59799,-9.90556,-13.9365,-7.07904,3.81551
2023-02-16 17:13:05:671,-1.14928,2.51826,-9.85864,-13.953,-7.07183,3.81131
2023-02-16 17:13:05:681,-1.14039,2.39529,-9.6506,-13.9431,-7.06191,3.81108
2023-02-16 17:13:05:691,-1.13747,2.3071,-9.39284,-13.9198,-7.05155,3.81625
2023-02-16 17:13:05:701,-1.13847,2.17697,-9.13571,-13.9002,-7.04737,3.8229
2023-02-16 17:13:05:711,-1.117,2.08491,-9.00619,-13.896,-7.04502,3.8348
2023-02-16 17:13:05:721,-1.0891,2.13373,-9.15215,-13.9217,-7.04935,3.84732
2023-02-16 17:13:05:731,-1.10325,2.28147,-9.44354,-13.9707,-7.04972,3.8599
2023-02-16 17:13:05:741,-1.16773,2.38352,-9.64822,-14.0198,-7.05313,3.87528
2023-02-16 17:13:05:751,-1.24696,2.45515,-9.74222,-14.0583,-7.05853,3.88795
2023-02-16 17:13:05:761,-1.2615,2.4475,-9.71322,-14.0835,-7.06733,3.89585
2023-02-16 17:13:05:771,-1.24752,2.35231,-9.5328,-14.086,-7.07564,3.9041
2023-02-16 17:13:05:781,-1.24114,2.2735,-9.37738,-14.0792,-7.08372,3.91408
2023-02-16 17:13:05:791,-1.24539,2.25562,-9.33553,-14.0791,-7.09437,3.92015
2023-02-16 17:13:05:801,-1.25271,2.2711,-9.35533,-14.0841,-7.10179,3.9244
2023-02-16 17:13:05:811,-1.24747,2.28812,-9.373,-14.0908,-7.10902,3.92824
2023-02-16 17:13:05:821,-1.21382,2.28312,-9.31677,-14.0947,-7.1129,3.93158
2023-02-16 17:13:05:831,-1.18801,2.27066,-9.23038,-14.1021,-7.1106,3.93567
2023-02-16 17:13:05:841,-1.1803,2.28396,-9.24254,-14.1194,-7.10915,3.93974
2023-02-16 17:13:05:851,-1.20262,2.36596,-9.39756,-14.1513,-7.11335,3.94396
2023-02-16 17:13:05:861,-1.24496,2.47416,-9.58465,-14.1919,-7.12058,3.94256
2023-02-16 17:13:05:871,-1.2593,2.53096,-9.67138,-14.2231,-7.12847,3.93876
2023-02-16 17:13:05:881,-1.20394,2.496,-9.62008,-14.2354,-7.13591,3.93218
2023-02-16 17:13:05:891,-1.13025,2.4051,-9.49756,-14.232,-7.14185,3.92784
2023-02-16 17:13:05:901,-1.12272,2.35703,-9.39026,-14.2284,-7.15001,3.92669
2023-02-16 17:13:05:911,-1.13797,2.34297,-9.34207,-14.2278,-7.15764,3.93091
2023-02-16 17:13:05:921,-1.16115,2.36947,-9.36729,-14.236,-7.1714,3.93821
2023-02-16 17:13:05:931,-1.17954,2.47535,-9.51346,-14.2556,-7.18393,3.94643
2023-02-16 17:13:05:941,-1.20604,2.58228,-9.66858,-14.276,-7.1949,3.9599
2023-02-16 17:13:05:951,-1.228,2.63016,-9.7069,-14.2841,-7.21013,3.97288
2023-02-16 17:13:05:961,-1.23345,2.64052,-9.68295,-14.2729,-7.22333,3.98384
2023-02-16 17:13:05:971,-1.22512,2.60133,-9.57823,-14.2433,-7.23292,3.99625
2023-02-16 17:13:05:981,-1.20472,2.51545,-9.44734,-14.2033,-7.23906,4.00585
2023-02-16 17:13:05:991,-1.1977,2.45212,-9.34435,-14.1601,-7.24116,4.01756
2023-02-16 17:13:06:1,-1.2056,2.39991,-9.32583,-14.12,-7.24293,4.03239
2023-02-16 17:13:06:11,-1.21657,2.38866,-9.32858,-14.0836,-7.24686,4.04826
2023-02-16 17:13:06:21,-1.24116,2.36519,-9.3347,-14.0474,-7.25418,4.06619
2023-02-16 17:13:06:31,-1.25729,2.36852,-9.35922,-14.0169,-7.25962,4.08003
2023-02-16 17:13:06:41,-1.27114,2.3706,-9.35876,-13.9904,-7.26728,4.09489
2023-02-16 17:13:06:51,-1.28952,2.35312,-9.35849,-13.967,-7.27402,4.10814
