Timestamp,Acceleration_x,Acceleration_y,Acceleration_z,roll,pitch,yaw
2023-02-16 21:43:01:348,-1.04955,0.568131,-9.70218,-3.3215,-6.10629,88.6681
2023-02-16 21:43:01:356,-1.06298,0.568051,-9.68012,-3.31735,-6.12082,88.6745
2023-02-16 21:43:01:366,-1.0616,0.564443,-9.67054,-3.3144,-6.13581,88.6788
2023-02-16 21:43:01:376,-1.05924,0.563509,-9.66757,-3.31286,-6.14486,88.683
2023-02-16 21:43:01:387,-1.05508,0.560328,-9.68431,-3.30938,-6.15224,88.6848
2023-02-16 21:43:01:397,-1.05304,0.563985,-9.69863,-3.30324,-6.16266,88.6862
2023-02-16 21:43:01:407,-1.05397,0.55288,-9.71439,-3.29887,-6.17193,88.6916
2023-02-16 21:43:01:417,-1.07373,0.555001,-9.71963,-3.29069,-6.17993,88.6986
2023-02-16 21:43:01:426,-1.07612,0.561876,-9.71128,-3.28114,-6.1884,88.7073
2023-02-16 21:43:01:436,-1.08318,0.560283,-9.69935,-3.26898,-6.19666,88.7143
2023-02-16 21:43:01:446,-1.0905,0.552781,-9.69478,-3.25605,-6.19844,88.7205
2023-02-16 21:43:01:456,-1.09803,0.534411,-9.68503,-3.24662,-6.20343,88.7296
2023-02-16 21:43:01:466,-1.10024,0.522915,-9.68933,-3.23869,-6.20614,88.7345
2023-02-16 21:43:01:476,-1.10563,0.520813,-9.69113,-3.23521,-6.20946,88.7449
2023-02-16 21:43:01:486,-1.09541,0.527441,-9.69476,-3.23073,-6.21543,88.7485
2023-02-16 21:43:01:497,-1.07823,0.51724,-9.7185,-3.23084,-6.21567,88.7509
2023-02-16 21:43:01:506,-1.07284,0.521679,-9.72556,-3.22756,-6.21628,88.7505
2023-02-16 21:43:01:517,-1.05979,0.536626,-9.7433,-3.23043,-6.21577,88.7498
2023-02-16 21:43:01:526,-1.03666,0.554096,-9.75492,-3.23193,-6.21846,88.7496
2023-02-16 21:43:01:537,-1.04532,0.550909,-9.7316,-3.23666,-6.22248,88.7497
2023-02-16 21:43:01:547,-1.04639,0.561286,-9.71638,-3.23637,-6.22862,88.7499
2023-02-16 21:43:01:557,-1.05581,0.562427,-9.6934,-3.23552,-6.23528,88.7492
2023-02-16 21:43:01:566,-1.05215,0.538755,-9.68601,-3.23478,-6.24304,88.7525
2023-02-16 21:43:01:576,-1.05568,0.531742,-9.68026,-3.22964,-6.24832,88.758
2023-02-16 21:43:01:587,-1.05727,0.53765,-9.67313,-3.22872,-6.25093,88.763
2023-02-16 21:43:01:596,-1.05954,0.531577,-9.68071,-3.22763,-6.2566,88.7698
2023-02-16 21:43:01:607,-1.06601,0.526703,-9.6777,-3.22607,-6.25684,88.7766
2023-02-16 21:43:01:617,-1.07348,0.530572,-9.67504,-3.22676,-6.25525,88.786
2023-02-16 21:43:01:627,-1.07424,0.534568,-9.68674,-3.22826,-6.25367,88.7947
2023-02-16 21:43:01:637,-1.10235,0.528373,-9.70865,-3.23055,-6.24704,88.8022
2023-02-16 21:43:01:647,-1.11347,0.533035,-9.70653,-3.23312,-6.24121,88.8137
2023-02-16 21:43:01:657,-1.10704,0.552392,-9.69184,-3.23698,-6.23566,88.826
2023-02-16 21:43:01:667,-1.12186,0.545187,-9.70066,-3.24293,-6.22746,88.837
2023-02-16 21:43:01:677,-1.14556,0.546958,-9.74952,-3.24726,-6.21526,88.8415
2023-02-16 21:43:01:686,-1.14858,0.561249,-9.77715,-3.25009,-6.20075,88.8422
2023-02-16 21:43:01:696,-1.07378,0.537971,-9.77497,-3.25479,-6.18222,88.8398
2023-02-16 21:43:01:706,-0.988641,0.533067,-9.76164,-3.25716,-6.16806,88.8325
2023-02-16 21:43:01:716,-0.959086,0.526196,-9.73951,-3.2572,-6.16094,88.8223
2023-02-16 21:43:01:726,-0.96831,0.521402,-9.67504,-3.25912,-6.15923,88.8115
2023-02-16 21:43:01:736,-0.986234,0.512797,-9.62547,-3.2632,-6.16402,88.8021
2023-02-16 21:43:01:746,-1.02097,0.534663,-9.59502,-3.27832,-6.16775,88.7941
2023-02-16 21:43:01:756,-1.05619,0.55296,-9.61057,-3.29223,-6.17142,88.7852
2023-02-16 21:43:01:766,-1.05191,0.564902,-9.64338,-3.31531,-6.16757,88.7763
2023-02-16 21:43:01:776,-1.03475,0.589284,-9.67322,-3.33747,-6.16254,88.7708
2023-02-16 21:43:01:786,-0.992928,0.613991,-9.69521,-3.36146,-6.15265,88.7621
2023-02-16 21:43:01:797,-0.971673,0.643609,-9.72252,-3.38606,-6.14447,88.7579
2023-02-16 21:43:01:806,-0.977127,0.659588,-9.73935,-3.40632,-6.133,88.7602
2023-02-16 21:43:01:817,-1.00533,0.680737,-9.75101,-3.42583,-6.12179,88.7633
2023-02-16 21:43:01:826,-1.03037,0.688681,-9.7477,-3.44272,-6.10814,88.7703
2023-02-16 21:43:01:836,-1.03927,0.680399,-9.74051,-3.4546,-6.09447,88.7772
2023-02-16 21:43:01:846,-1.03755,0.661638,-9.71997,-3.46124,-6.07977,88.7848
2023-02-16 21:43:01:856,-1.04479,0.651877,-9.71702,-3.46372,-6.06302,88.7898
2023-02-16 21:43:01:866,-1.03511,0.642304,-9.73208,-3.46876,-6.04836,88.7924
2023-02-16 21:43:01:876,-1.0268,0.632331,-9.73682,-3.47212,-6.037,88.7913
2023-02-16 21:43:01:886,-1.00308,0.629916,-9.73942,-3.47598,-6.02365,88.7879
2023-02-16 21:43:01:896,-1.00372,0.613599,-9.77552,-3.47989,-6.01009,88.7799
2023-02-16 21:43:01:906,-0.995755,0.618717,-9.79268,-3.48243,-6.00094,88.7694
2023-02-16 21:43:01:916,-0.999627,0.627994,-9.78584,-3.48512,-5.99264,88.7592
2023-02-16 21:43:01:926,-0.970519,0.630422,-9.78453,-3.48812,-5.98418,88.7439
2023-02-16 21:43:01:936,-0.942065,0.623794,-9.79283,-3.4924,-5.9787,88.7226
2023-02-16 21:43:01:946,-0.922067,0.624177,-9.79669,-3.49451,-5.97448,88.7047
2023-02-16 21:43:01:956,-0.895886,0.615297,-9.76453,-3.49311,-5.9762,88.6872
2023-02-16 21:43:01:966,-0.893047,0.617911,-9.73772,-3.49411,-5.97714,88.6705
2023-02-16 21:43:01:976,-0.917123,0.623034,-9.72622,-3.49413,-5.97965,88.6538
2023-02-16 21:43:01:986,-0.934512,0.619239,-9.71911,-3.49339,-5.98353,88.645
2023-02-16 21:43:01:997,-0.928467,0.62321,-9.71384,-3.49168,-5.98559,88.6392
2023-02-16 21:43:02:6,-0.932226,0.616851,-9.72675,-3.49119,-5.98679,88.6366
2023-02-16 21:43:02:17,-0.935915,0.61493,-9.71615,-3.48703,-5.98387,88.6385
2023-02-16 21:43:02:26,-0.935134,0.618872,-9.6937,-3.47943,-5.98131,88.6424
2023-02-16 21:43:02:36,-0.941813,0.601121,-9.6877,-3.47234,-5.97886,88.6487
2023-02-16 21:43:02:46,-0.946226,0.590719,-9.68403,-3.46842,-5.97376,88.6561
2023-02-16 21:43:02:57,-0.965089,0.576236,-9.68003,-3.46057,-5.96726,88.6646
2023-02-16 21:43:02:66,-0.975232,0.566777,-9.6793,-3.45096,-5.96502,88.6745
2023-02-16 21:43:02:76,-0.998858,0.55484,-9.69685,-3.44417,-5.96359,88.6843
2023-02-16 21:43:02:87,-1.00007,0.560325,-9.68234,-3.44138,-5.96615,88.6932
2023-02-16 21:43:02:96,-1.00592,0.569862,-9.6928,-3.44144,-5.96766,88.7022
2023-02-16 21:43:02:106,-1.01887,0.575811,-9.70032,-3.44221,-5.96949,88.7088
2023-02-16 21:43:02:116,-1.00391,0.58518,-9.72398,-3.44354,-5.97449,88.7094
2023-02-16 21:43:02:126,-1.00278,0.585166,-9.74639,-3.44364,-5.97959,88.7115
2023-02-16 21:43:02:136,-0.995409,0.58618,-9.76018,-3.44654,-5.98333,88.7107
2023-02-16 21:43:02:146,-0.992572,0.595569,-9.76002,-3.44631,-5.99253,88.7076
2023-02-16 21:43:02:156,-0.986036,0.585275,-9.75395,-3.44883,-6.00131,88.7035
2023-02-16 21:43:02:166,-0.983753,0.577969,-9.73421,-3.44684,-6.00943,88.7013
2023-02-16 21:43:02:176,-0.97071,0.588326,-9.71265,-3.44541,-6.01769,88.7026
2023-02-16 21:43:02:186,-0.972284,0.582558,-9.69062,-3.44388,-6.02572,88.7042
2023-02-16 21:43:02:196,-0.979507,0.578055,-9.68207,-3.44328,-6.03263,88.7044
2023-02-16 21:43:02:206,-0.986067,0.579786,-9.67544,-3.44585,-6.04368,88.7044
2023-02-16 21:43:02:217,-0.983508,0.575979,-9.68064,-3.45067,-6.05152,88.7086
2023-02-16 21:43:02:226,-1.00275,0.577081,-9.68288,-3.45047,-6.0574,88.7158
2023-02-16 21:43:02:236,-1.00886,0.590065,-9.69336,-3.45396,-6.06787,88.7264
2023-02-16 21:43:02:246,-1.02898,0.591127,-9.70484,-3.45789,-6.07379,88.7344
2023-02-16 21:43:02:256,-1.04728,0.592344,-9.74326,-3.46161,-6.07991,88.7463
2023-02-16 21:43:02:267,-1.07307,0.603895,-9.76171,-3.46393,-6.08362,88.7592
2023-02-16 21:43:02:277,-1.08842,0.605674,-9.74825,-3.46647,-6.0863,88.7688
2023-02-16 21:43:02:287,-1.07127,0.594495,-9.73344,-3.46575,-6.08521,88.7805
2023-02-16 21:43:02:297,-1.05898,0.586186,-9.69822,-3.46243,-6.08539,88.7928
2023-02-16 21:43:02:307,-1.0809,0.561619,-9.68106,-3.45757,-6.08443,88.8007
2023-02-16 21:43:02:317,-1.11101,0.566237,-9.7151,-3.45688,-6.08019,88.8075
2023-02-16 21:43:02:327,-1.0919,0.55774,-9.70585,-3.45012,-6.07352,88.8062
2023-02-16 21:43:02:337,-1.01021,0.546369,-9.69755,-3.44966,-6.06642,88.8049
2023-02-16 21:43:02:347,-0.953258,0.539393,-9.71239,-3.44891,-6.06096,88.7957
2023-02-16 21:43:02:357,-0.94733,0.540254,-9.69371,-3.44754,-6.0637,88.7866
2023-02-16 21:43:02:367,-0.968871,0.548989,-9.66245,-3.45551,-6.07248,88.7767
2023-02-16 21:43:02:377,-1.01576,0.573173,-9.66322,-3.46718,-6.08959,88.7698
2023-02-16 21:43:02:387,-1.05454,0.585648,-9.66482,-3.47868,-6.0996,88.7603
2023-02-16 21:43:02:397,-1.06623,0.590219,-9.65384,-3.49082,-6.1088,88.7555
2023-02-16 21:43:02:407,-1.04558,0.617957,-9.65575,-3.51194,-6.1137,88.7511
2023-02-16 21:43:02:416,-0.996986,0.625648,-9.6795,-3.53226,-6.11574,88.7429
2023-02-16 21:43:02:427,-0.95916,0.645208,-9.68178,-3.55413,-6.11382,88.7427
2023-02-16 21:43:02:436,-0.952483,0.665378,-9.68593,-3.57729,-6.10881,88.7471
2023-02-16 21:43:02:446,-0.992535,0.690047,-9.6875,-3.59814,-6.10431,88.7512
2023-02-16 21:43:02:457,-1.03861,0.692448,-9.70595,-3.61919,-6.10271,88.7599
2023-02-16 21:43:02:467,-1.0611,0.703095,-9.73708,-3.63577,-6.09917,88.7705
2023-02-16 21:43:02:476,-1.07399,0.718247,-9.7367,-3.64881,-6.09334,88.7808
2023-02-16 21:43:02:486,-1.07265,0.714743,-9.75488,-3.66238,-6.08594,88.7902
2023-02-16 21:43:02:497,-1.07391,0.709436,-9.7559,-3.67284,-6.07475,88.7968
2023-02-16 21:43:02:507,-1.07424,0.698217,-9.75608,-3.67898,-6.06541,88.7982
2023-02-16 21:43:02:516,-1.06349,0.685611,-9.76968,-3.68162,-6.05549,88.7988
2023-02-16 21:43:02:526,-1.05725,0.684761,-9.78638,-3.68246,-6.04865,88.7963
2023-02-16 21:43:02:536,-1.05524,0.676761,-9.79439,-3.68384,-6.0425,88.7912
2023-02-16 21:43:02:546,-1.03708,0.665384,-9.77367,-3.68075,-6.03548,88.7804
2023-02-16 21:43:02:556,-1.01873,0.665987,-9.76965,-3.67795,-6.0297,88.7651
2023-02-16 21:43:02:566,-0.981741,0.6505,-9.77344,-3.67287,-6.02355,88.7522
2023-02-16 21:43:02:576,-0.973581,0.650059,-9.76906,-3.66957,-6.02133,88.7303
2023-02-16 21:43:02:586,-0.952614,0.658367,-9.74319,-3.66635,-6.02099,88.712
2023-02-16 21:43:02:596,-0.950739,0.646628,-9.71723,-3.65927,-6.02448,88.6953
2023-02-16 21:43:02:606,-0.94688,0.640254,-9.71188,-3.65584,-6.02838,88.6795
2023-02-16 21:43:02:617,-0.946303,0.638585,-9.71034,-3.64913,-6.03072,88.665
2023-02-16 21:43:02:627,-0.946103,0.636527,-9.70669,-3.6425,-6.03535,88.6518
2023-02-16 21:43:02:636,-0.946107,0.625884,-9.69446,-3.6353,-6.03353,88.6479
2023-02-16 21:43:02:646,-0.944359,0.616085,-9.69572,-3.63,-6.03073,88.6408
2023-02-16 21:43:02:656,-0.948466,0.609233,-9.69102,-3.6221,-6.02206,88.6394
2023-02-16 21:43:02:666,-0.95208,0.598986,-9.69897,-3.61404,-6.01893,88.6427
2023-02-16 21:43:02:676,-0.962943,0.584776,-9.70024,-3.60435,-6.01487,88.6489
2023-02-16 21:43:02:686,-0.978291,0.587206,-9.69612,-3.59583,-6.00528,88.6563
2023-02-16 21:43:02:696,-0.982688,0.579322,-9.69969,-3.59192,-6.00116,88.6658
2023-02-16 21:43:02:706,-0.991901,0.560477,-9.68935,-3.58619,-6.00005,88.6748
2023-02-16 21:43:02:716,-0.987158,0.568473,-9.68222,-3.58536,-5.99848,88.6824
2023-02-16 21:43:02:727,-0.999575,0.574556,-9.69308,-3.58392,-5.99806,88.688
2023-02-16 21:43:02:737,-1.00664,0.583508,-9.70619,-3.58492,-6.00057,88.6907
2023-02-16 21:43:02:746,-1.00129,0.585575,-9.71981,-3.58894,-6.00355,88.6899
2023-02-16 21:43:02:756,-1.00919,0.590865,-9.7398,-3.59127,-6.01037,88.6913
2023-02-16 21:43:02:767,-1.00555,0.591942,-9.73562,-3.5964,-6.01657,88.687
2023-02-16 21:43:02:777,-0.985447,0.598236,-9.75267,-3.59805,-6.02432,88.6817
2023-02-16 21:43:02:786,-0.971432,0.588172,-9.7586,-3.59949,-6.03048,88.6783
2023-02-16 21:43:02:796,-0.971528,0.597849,-9.74161,-3.60232,-6.038,88.6719
2023-02-16 21:43:02:806,-0.972856,0.602901,-9.71022,-3.60218,-6.04641,88.6673
2023-02-16 21:43:02:816,-0.989894,0.599445,-9.68965,-3.60705,-6.05518,88.6665
2023-02-16 21:43:02:826,-1.00613,0.591621,-9.69456,-3.61134,-6.06372,88.6687
2023-02-16 21:43:02:836,-1.00171,0.597835,-9.68943,-3.6149,-6.06998,88.6696
2023-02-16 21:43:02:846,-1.01298,0.60154,-9.67628,-3.62081,-6.07823,88.6718
2023-02-16 21:43:02:856,-1.03482,0.597527,-9.67521,-3.62679,-6.08545,88.677
2023-02-16 21:43:02:866,-1.02875,0.605546,-9.69674,-3.63302,-6.09275,88.6814
2023-02-16 21:43:02:876,-1.03442,0.600659,-9.70631,-3.63939,-6.09609,88.689
2023-02-16 21:43:02:886,-1.04866,0.605411,-9.71301,-3.64801,-6.09925,88.6944
2023-02-16 21:43:02:896,-1.06368,0.61686,-9.72346,-3.65576,-6.10367,88.6998
2023-02-16 21:43:02:906,-1.07757,0.626151,-9.73488,-3.66113,-6.10663,88.7045
2023-02-16 21:43:02:917,-1.08551,0.622716,-9.7218,-3.66264,-6.1081,88.7073
2023-02-16 21:43:02:926,-1.06921,0.616065,-9.72153,-3.67076,-6.10726,88.7095
2023-02-16 21:43:02:936,-1.06157,0.6089,-9.69483,-3.67945,-6.10409,88.7109
2023-02-16 21:43:02:946,-1.08244,0.612659,-9.67417,-3.68262,-6.10181,88.7075
2023-02-16 21:43:02:957,-1.09179,0.630207,-9.70647,-3.68887,-6.09977,88.7043
2023-02-16 21:43:02:967,-1.04936,0.6251,-9.72668,-3.68944,-6.0895,88.6947
2023-02-16 21:43:02:977,-0.951042,0.607849,-9.69255,-3.69434,-6.07964,88.6825
2023-02-16 21:43:02:987,-0.89329,0.609335,-9.69073,-3.70332,-6.07329,88.6643
2023-02-16 21:43:02:997,-0.905684,0.605036,-9.69569,-3.71333,-6.07704,88.6445
2023-02-16 21:43:03:7,-0.929906,0.625534,-9.66657,-3.72635,-6.08831,88.6233
2023-02-16 21:43:03:17,-0.992736,0.655822,-9.6655,-3.74355,-6.10065,88.6045
2023-02-16 21:43:03:27,-1.03752,0.685919,-9.64773,-3.76505,-6.117,88.5879
2023-02-16 21:43:03:37,-1.05848,0.709821,-9.64528,-3.79126,-6.1304,88.5665
2023-02-16 21:43:03:47,-1.04593,0.739586,-9.67478,-3.82352,-6.14166,88.5466
2023-02-16 21:43:03:57,-0.993362,0.766265,-9.71093,-3.8559,-6.14805,88.522
2023-02-16 21:43:03:67,-0.9508,0.782909,-9.73807,-3.88458,-6.15267,88.4975
2023-02-16 21:43:03:77,-0.937919,0.800823,-9.74389,-3.91302,-6.16097,88.4748
2023-02-16 21:43:03:87,-0.946527,0.816067,-9.76344,-3.9377,-6.16753,88.4516
2023-02-16 21:43:03:97,-0.948384,0.813228,-9.76714,-3.959,-6.17524,88.4307
2023-02-16 21:43:03:107,-0.947003,0.805257,-9.76168,-3.97137,-6.18719,88.4113
2023-02-16 21:43:03:117,-0.945682,0.796097,-9.76416,-3.98501,-6.19832,88.3958
2023-02-16 21:43:03:127,-0.973057,0.776138,-9.75225,-3.99204,-6.2079,88.378
2023-02-16 21:43:03:137,-0.975548,0.769037,-9.74699,-3.99402,-6.22077,88.3623
2023-02-16 21:43:03:147,-0.970527,0.759633,-9.73994,-3.99303,-6.22975,88.3475
2023-02-16 21:43:03:157,-0.964512,0.746155,-9.74221,-3.98976,-6.23778,88.3345
2023-02-16 21:43:03:167,-0.969549,0.740031,-9.76599,-3.98729,-6.24757,88.3252
2023-02-16 21:43:03:177,-0.983151,0.724046,-9.76949,-3.98555,-6.25673,88.3157
2023-02-16 21:43:03:187,-0.982359,0.700237,-9.75883,-3.9809,-6.26853,88.3076
2023-02-16 21:43:03:197,-0.975704,0.686589,-9.76135,-3.97624,-6.28255,88.3042
2023-02-16 21:43:03:207,-0.979047,0.684847,-9.74824,-3.97367,-6.29539,88.3069
2023-02-16 21:43:03:217,-1.00886,0.70253,-9.74031,-3.96715,-6.30982,88.3094
2023-02-16 21:43:03:227,-1.03115,0.703893,-9.71826,-3.96193,-6.32399,88.3115
2023-02-16 21:43:03:237,-1.04885,0.697127,-9.68111,-3.95987,-6.33528,88.3136
2023-02-16 21:43:03:247,-1.08048,0.700806,-9.65921,-3.95757,-6.35367,88.3169
2023-02-16 21:43:03:257,-1.08361,0.705325,-9.66512,-3.95888,-6.37109,88.3188
2023-02-16 21:43:03:267,-1.07145,0.724171,-9.67979,-3.96161,-6.38501,88.3207
2023-02-16 21:43:03:277,-1.07453,0.71543,-9.66908,-3.96231,-6.39745,88.3206
2023-02-16 21:43:03:287,-1.079,0.720148,-9.67109,-3.95935,-6.4089,88.3219
2023-02-16 21:43:03:297,-1.08275,0.710478,-9.68691,-3.9572,-6.4159,88.3201
2023-02-16 21:43:03:307,-1.08193,0.709771,-9.69574,-3.9529,-6.42501,88.3192
2023-02-16 21:43:03:317,-1.08287,0.709548,-9.70385,-3.94279,-6.43372,88.3199
2023-02-16 21:43:03:326,-1.07834,0.692312,-9.70365,-3.93523,-6.44341,88.3182
2023-02-16 21:43:03:337,-1.07403,0.68696,-9.71203,-3.92676,-6.45432,88.3132
2023-02-16 21:43:03:347,-1.06286,0.683964,-9.70644,-3.91756,-6.46263,88.308
2023-02-16 21:43:03:357,-1.04646,0.669936,-9.71734,-3.90907,-6.47688,88.3062
2023-02-16 21:43:03:367,-1.04252,0.655731,-9.7199,-3.90133,-6.48981,88.3027
2023-02-16 21:43:03:377,-1.03203,0.646416,-9.72233,-3.89304,-6.50119,88.297
2023-02-16 21:43:03:387,-1.02424,0.644623,-9.72629,-3.88456,-6.51422,88.2958
2023-02-16 21:43:03:397,-1.02772,0.631224,-9.71775,-3.87474,-6.52925,88.3003
2023-02-16 21:43:03:407,-1.04365,0.625563,-9.7018,-3.86636,-6.54194,88.3026
2023-02-16 21:43:03:417,-1.05635,0.627178,-9.68911,-3.85873,-6.55371,88.3094
2023-02-16 21:43:03:427,-1.07017,0.628163,-9.68604,-3.85083,-6.56889,88.319
2023-02-16 21:43:03:437,-1.06318,0.617187,-9.6855,-3.84425,-6.58786,88.3284
2023-02-16 21:43:03:447,-1.06803,0.616273,-9.6783,-3.83723,-6.60388,88.3396
2023-02-16 21:43:03:457,-1.07588,0.624206,-9.67858,-3.83389,-6.61969,88.3511
2023-02-16 21:43:03:467,-1.10105,0.622673,-9.66768,-3.83243,-6.63928,88.3671
2023-02-16 21:43:03:477,-1.1381,0.631651,-9.6563,-3.8355,-6.6607,88.3828
2023-02-16 21:43:03:487,-1.1457,0.639099,-9.65618,-3.83663,-6.68502,88.3969
2023-02-16 21:43:03:497,-1.15718,0.642099,-9.65152,-3.84088,-6.70585,88.4107
2023-02-16 21:43:03:507,-1.17344,0.651684,-9.65514,-3.8471,-6.72614,88.4233
2023-02-16 21:43:03:517,-1.18466,0.655092,-9.68028,-3.85476,-6.74565,88.4343
2023-02-16 21:43:03:527,-1.1888,0.662387,-9.7219,-3.86246,-6.76092,88.448
2023-02-16 21:43:03:537,-1.19429,0.679291,-9.75399,-3.86803,-6.77632,88.4566
2023-02-16 21:43:03:547,-1.19282,0.67897,-9.77486,-3.87181,-6.78621,88.4632
2023-02-16 21:43:03:557,-1.18096,0.686763,-9.75197,-3.87437,-6.79755,88.4676
2023-02-16 21:43:03:567,-1.19128,0.667796,-9.72686,-3.87125,-6.80647,88.4749
2023-02-16 21:43:03:577,-1.22477,0.66089,-9.72631,-3.86666,-6.81694,88.4805
2023-02-16 21:43:03:587,-1.25548,0.656448,-9.74982,-3.86187,-6.82734,88.4847
2023-02-16 21:43:03:597,-1.22839,0.641757,-9.73283,-3.85036,-6.82937,88.4849
2023-02-16 21:43:03:607,-1.14623,0.613187,-9.69442,-3.84044,-6.8332,88.4823
2023-02-16 21:43:03:617,-1.12786,0.607665,-9.68426,-3.83095,-6.83819,88.4803
2023-02-16 21:43:03:627,-1.14259,0.609183,-9.66334,-3.8258,-6.8492,88.4805
2023-02-16 21:43:03:637,-1.16307,0.598653,-9.62437,-3.82597,-6.85995,88.4796
2023-02-16 21:43:03:647,-1.18545,0.600241,-9.60368,-3.82679,-6.87431,88.4799
2023-02-16 21:43:03:657,-1.22709,0.626939,-9.61126,-3.83451,-6.88625,88.4834
2023-02-16 21:43:03:667,-1.23913,0.651399,-9.63057,-3.84379,-6.89156,88.4805
2023-02-16 21:43:03:677,-1.20116,0.667546,-9.67065,-3.8563,-6.89376,88.4791
2023-02-16 21:43:03:687,-1.16928,0.692892,-9.69091,-3.87243,-6.89365,88.4789
2023-02-16 21:43:03:697,-1.14499,0.706366,-9.70179,-3.88846,-6.89313,88.482
2023-02-16 21:43:03:707,-1.14105,0.723711,-9.71993,-3.89983,-6.89462,88.4834
2023-02-16 21:43:03:717,-1.15415,0.738712,-9.71718,-3.90878,-6.89325,88.4854
2023-02-16 21:43:03:727,-1.16652,0.728657,-9.70102,-3.91596,-6.89379,88.4923
2023-02-16 21:43:03:737,-1.18412,0.721806,-9.69415,-3.92067,-6.89382,88.4993
2023-02-16 21:43:03:747,-1.19207,0.700117,-9.67869,-3.92158,-6.88911,88.5038
2023-02-16 21:43:03:757,-1.18598,0.690087,-9.67976,-3.92023,-6.88614,88.506
2023-02-16 21:43:03:767,-1.1645,0.687694,-9.6794,-3.92046,-6.88132,88.5077
2023-02-16 21:43:03:777,-1.14576,0.682863,-9.68315,-3.91746,-6.87196,88.5132
2023-02-16 21:43:03:787,-1.14311,0.671466,-9.71615,-3.91845,-6.8666,88.5158
2023-02-16 21:43:03:797,-1.15493,0.679916,-9.74164,-3.91874,-6.86118,88.5214
2023-02-16 21:43:03:807,-1.14207,0.669347,-9.74115,-3.91771,-6.85231,88.5274
2023-02-16 21:43:03:817,-1.13069,0.675444,-9.74178,-3.91747,-6.84427,88.5319
2023-02-16 21:43:03:827,-1.1197,0.68164,-9.73949,-3.91605,-6.83771,88.535
2023-02-16 21:43:03:837,-1.10889,0.68192,-9.73418,-3.91602,-6.83135,88.5391
2023-02-16 21:43:03:847,-1.125,0.682944,-9.7151,-3.9188,-6.83103,88.5433
2023-02-16 21:43:03:857,-1.12456,0.685159,-9.70814,-3.92033,-6.83395,88.5477
2023-02-16 21:43:03:867,-1.12703,0.687432,-9.70439,-3.9193,-6.83834,88.5536
2023-02-16 21:43:03:877,-1.13955,0.688603,-9.68722,-3.92118,-6.83973,88.5601
2023-02-16 21:43:03:887,-1.13267,0.690434,-9.67927,-3.92428,-6.84307,88.5656
2023-02-16 21:43:03:897,-1.11493,0.694101,-9.69318,-3.92699,-6.84497,88.576
2023-02-16 21:43:03:907,-1.11584,0.692948,-9.69771,-3.92436,-6.84796,88.5838
2023-02-16 21:43:03:917,-1.1335,0.692407,-9.70338,-3.92433,-6.85118,88.5949
2023-02-16 21:43:03:927,-1.12853,0.683201,-9.70233,-3.91803,-6.85367,88.6076
2023-02-16 21:43:03:937,-1.1411,0.690513,-9.70012,-3.91805,-6.85275,88.6229
2023-02-16 21:43:03:947,-1.14679,0.673364,-9.68926,-3.91666,-6.84906,88.6391
2023-02-16 21:43:03:957,-1.15096,0.66973,-9.69241,-3.91128,-6.84394,88.6561
2023-02-16 21:43:03:967,-1.15323,0.651646,-9.68726,-3.89958,-6.83982,88.6741
2023-02-16 21:43:03:977,-1.1444,0.628242,-9.68675,-3.88992,-6.83774,88.6922
2023-02-16 21:43:03:987,-1.12141,0.637029,-9.68161,-3.88519,-6.83289,88.7122
2023-02-16 21:43:03:997,-1.09851,0.624131,-9.66223,-3.88173,-6.82613,88.736
2023-02-16 21:43:04:7,-1.097,0.606771,-9.65713,-3.88168,-6.81503,88.7613
2023-02-16 21:43:04:17,-1.09382,0.605843,-9.65228,-3.87938,-6.80125,88.7837
2023-02-16 21:43:04:27,-1.08929,0.602715,-9.67423,-3.8821,-6.79517,88.8099
2023-02-16 21:43:04:37,-1.08852,0.623491,-9.68229,-3.88878,-6.78703,88.8347
2023-02-16 21:43:04:47,-1.10339,0.634214,-9.69436,-3.89588,-6.78233,88.8645
2023-02-16 21:43:04:57,-1.10824,0.643546,-9.70093,-3.90476,-6.77793,88.8963
2023-02-16 21:43:04:67,-1.10939,0.64997,-9.69876,-3.91508,-6.77206,88.9301
2023-02-16 21:43:04:77,-1.12101,0.657189,-9.70858,-3.92564,-6.76819,88.9625
2023-02-16 21:43:04:87,-1.11055,0.663161,-9.70344,-3.93337,-6.76769,88.9937
2023-02-16 21:43:04:97,-1.10204,0.661474,-9.6743,-3.9427,-6.76849,89.0272
2023-02-16 21:43:04:107,-1.1203,0.649122,-9.67292,-3.95048,-6.76416,89.0643
2023-02-16 21:43:04:117,-1.12674,0.6491,-9.67545,-3.95939,-6.76344,89.099
2023-02-16 21:43:04:127,-1.11818,0.667222,-9.66508,-3.97146,-6.75575,89.1359
2023-02-16 21:43:04:137,-1.1227,0.676977,-9.66938,-3.98521,-6.74704,89.1737
2023-02-16 21:43:04:147,-1.13513,0.69377,-9.69474,-3.99757,-6.73185,89.2168
2023-02-16 21:43:04:157,-1.14102,0.707133,-9.71828,-4.01148,-6.71875,89.2576
2023-02-16 21:43:04:167,-1.13552,0.719258,-9.72627,-4.02605,-6.70425,89.3021
2023-02-16 21:43:04:177,-1.12659,0.719834,-9.71428,-4.03859,-6.68534,89.3438
2023-02-16 21:43:04:187,-1.13966,0.705435,-9.69864,-4.0485,-6.66788,89.3852
2023-02-16 21:43:04:197,-1.16658,0.695432,-9.70513,-4.05479,-6.65307,89.4292
2023-02-16 21:43:04:207,-1.17609,0.696366,-9.75016,-4.06189,-6.63244,89.4683
2023-02-16 21:43:04:217,-1.12886,0.686003,-9.74565,-4.06731,-6.61026,89.5015
2023-02-16 21:43:04:227,-1.03816,0.67781,-9.72188,-4.07374,-6.58913,89.5334
2023-02-16 21:43:04:237,-1.004,0.684979,-9.71895,-4.07949,-6.57245,89.5602
2023-02-16 21:43:04:247,-1.03305,0.688899,-9.69748,-4.08912,-6.56569,89.5845
2023-02-16 21:43:04:257,-1.04424,0.686084,-9.66733,-4.10057,-6.56343,89.6124
2023-02-16 21:43:04:267,-1.08531,0.705065,-9.63672,-4.1136,-6.56514,89.6424
2023-02-16 21:43:04:277,-1.14588,0.716328,-9.62738,-4.12996,-6.56983,89.6701
2023-02-16 21:43:04:287,-1.14562,0.743901,-9.63418,-4.14828,-6.56756,89.6965
2023-02-16 21:43:04:297,-1.12653,0.767726,-9.66444,-4.17229,-6.56461,89.7176
2023-02-16 21:43:04:307,-1.09857,0.789724,-9.68367,-4.19545,-6.56457,89.7398
2023-02-16 21:43:04:317,-1.06795,0.816799,-9.71837,-4.21483,-6.55881,89.7572
2023-02-16 21:43:04:327,-1.0556,0.842082,-9.74673,-4.23709,-6.55465,89.7727
2023-02-16 21:43:04:337,-1.0578,0.856508,-9.75813,-4.25201,-6.54954,89.7896
2023-02-16 21:43:04:347,-1.08172,0.856617,-9.75237,-4.26546,-6.54228,89.8086
2023-02-16 21:43:04:357,-1.07886,0.85885,-9.72262,-4.2744,-6.53683,89.8265
2023-02-16 21:43:04:367,-1.07607,0.839084,-9.7081,-4.27781,-6.53198,89.8479
2023-02-16 21:43:04:377,-1.07944,0.813756,-9.71752,-4.28144,-6.52722,89.8676
2023-02-16 21:43:04:387,-1.06518,0.798863,-9.71621,-4.27899,-6.51785,89.888
2023-02-16 21:43:04:397,-1.04329,0.795254,-9.70669,-4.27672,-6.50674,89.9078
2023-02-16 21:43:04:407,-1.05704,0.783397,-9.71565,-4.27271,-6.49767,89.9268
2023-02-16 21:43:04:417,-1.06381,0.779905,-9.73188,-4.26828,-6.48956,89.9474
2023-02-16 21:43:04:427,-1.05129,0.766487,-9.75719,-4.2624,-6.48271,89.9621
2023-02-16 21:43:04:437,-1.05685,0.761378,-9.76384,-4.25711,-6.47857,89.9758
2023-02-16 21:43:04:447,-1.05011,0.765973,-9.75078,-4.25342,-6.46703,89.9911
2023-02-16 21:43:04:457,-1.02611,0.748115,-9.72895,-4.24703,-6.46653,90.0036
2023-02-16 21:43:04:467,-1.04246,0.734381,-9.73147,-4.24091,-6.46842,90.0119
2023-02-16 21:43:04:477,-1.05873,0.73071,-9.71805,-4.23568,-6.47193,90.0195
2023-02-16 21:43:04:487,-1.05226,0.738668,-9.69413,-4.22855,-6.47884,90.0265
2023-02-16 21:43:04:497,-1.06341,0.735875,-9.68167,-4.22392,-6.48517,90.0295
2023-02-16 21:43:04:507,-1.08916,0.733689,-9.66281,-4.2207,-6.49266,90.0339
2023-02-16 21:43:04:517,-1.10789,0.742309,-9.67694,-4.219,-6.49887,90.041
2023-02-16 21:43:04:527,-1.11227,0.750641,-9.70834,-4.21373,-6.50686,90.0416
2023-02-16 21:43:04:537,-1.1064,0.764279,-9.71756,-4.20871,-6.51336,90.0418
2023-02-16 21:43:04:547,-1.10365,0.763078,-9.72845,-4.19985,-6.51806,90.0429
2023-02-16 21:43:04:557,-1.10913,0.757743,-9.73292,-4.18878,-6.52049,90.0446
2023-02-16 21:43:04:567,-1.09629,0.752963,-9.72004,-4.17701,-6.51909,90.0474
2023-02-16 21:43:04:577,-1.1179,0.779495,-9.77083,-4.16108,-6.51854,90.0477
2023-02-16 21:43:04:587,-1.06596,0.740726,-9.71754,-4.14703,-6.51507,90.0489
2023-02-16 21:43:04:597,-1.07925,0.674907,-9.63397,-4.12776,-6.51091,90.0515
2023-02-16 21:43:04:607,-1.11222,0.686258,-9.6573,-4.11063,-6.50441,90.0535
2023-02-16 21:43:04:617,-1.06166,0.669156,-9.65335,-4.09446,-6.50397,90.0523
2023-02-16 21:43:04:627,-1.06923,0.661206,-9.63927,-4.07992,-6.50151,90.0488
2023-02-16 21:43:04:637,-1.08746,0.662664,-9.6465,-4.06976,-6.50427,90.0479
2023-02-16 21:43:04:647,-1.066,0.657255,-9.66309,-4.06234,-6.50332,90.0428
2023-02-16 21:43:04:657,-1.02704,0.652222,-9.66258,-4.05966,-6.50477,90.0387
2023-02-16 21:43:04:667,-1.03191,0.652253,-9.67893,-4.0584,-6.5083,90.0366
2023-02-16 21:43:04:677,-1.03434,0.658764,-9.68721,-4.0613,-6.51071,90.032
2023-02-16 21:43:04:687,-1.03021,0.661939,-9.68143,-4.06726,-6.51728,90.0334
2023-02-16 21:43:04:697,-1.04915,0.65568,-9.68063,-4.07161,-6.52682,90.0355
2023-02-16 21:43:04:707,-1.06612,0.66156,-9.66652,-4.07625,-6.53359,90.0399
2023-02-16 21:43:04:717,-1.07968,0.670949,-9.65434,-4.08231,-6.53797,90.0432
2023-02-16 21:43:04:727,-1.07521,0.677437,-9.66488,-4.09167,-6.54163,90.0489
2023-02-16 21:43:04:737,-1.08099,0.674699,-9.6662,-4.10227,-6.54477,90.0531
2023-02-16 21:43:04:747,-1.09259,0.67776,-9.65367,-4.11017,-6.55027,90.0615
2023-02-16 21:43:04:757,-1.11508,0.681881,-9.67943,-4.12012,-6.55264,90.0725
2023-02-16 21:43:04:767,-1.13133,0.69032,-9.71712,-4.1312,-6.55937,90.0798
2023-02-16 21:43:04:777,-1.13667,0.70877,-9.7157,-4.13697,-6.56162,90.0878
2023-02-16 21:43:04:787,-1.12261,0.709956,-9.73938,-4.14438,-6.564,90.0956
2023-02-16 21:43:04:797,-1.13757,0.72133,-9.72922,-4.15249,-6.56727,90.1042
2023-02-16 21:43:04:807,-1.15529,0.715964,-9.73801,-4.15708,-6.56807,90.1095
2023-02-16 21:43:04:817,-1.19765,0.72232,-9.76284,-4.15897,-6.56645,90.1122
2023-02-16 21:43:04:827,-1.17796,0.711276,-9.76218,-4.15369,-6.56855,90.1096
2023-02-16 21:43:04:837,-1.09099,0.681911,-9.71823,-4.14957,-6.56554,90.1055
2023-02-16 21:43:04:847,-1.04012,0.682869,-9.71153,-4.14672,-6.56501,90.0987
2023-02-16 21:43:04:857,-1.06047,0.707955,-9.71129,-4.14626,-6.57202,90.0889
2023-02-16 21:43:04:867,-1.08539,0.694319,-9.70066,-4.14555,-6.58461,90.0789
2023-02-16 21:43:04:877,-1.10858,0.687833,-9.67684,-4.14632,-6.60274,90.0701
2023-02-16 21:43:04:887,-1.15718,0.704589,-9.64307,-4.15024,-6.62067,90.0653
2023-02-16 21:43:04:897,-1.19068,0.70462,-9.62746,-4.15673,-6.63183,90.0616
2023-02-16 21:43:04:907,-1.18523,0.729617,-9.64022,-4.16919,-6.64185,90.0553
2023-02-16 21:43:04:917,-1.16597,0.755931,-9.66945,-4.18196,-6.64797,90.0459
2023-02-16 21:43:04:927,-1.1428,0.777905,-9.65998,-4.19415,-6.65258,90.0363
2023-02-16 21:43:04:937,-1.14485,0.793261,-9.66401,-4.21301,-6.65016,90.0299
2023-02-16 21:43:04:947,-1.17798,0.797134,-9.65938,-4.22851,-6.6489,90.0245
2023-02-16 21:43:04:957,-1.18093,0.78886,-9.62977,-4.24238,-6.64111,90.0251
2023-02-16 21:43:04:967,-1.2434,0.819322,-9.66693,-4.25556,-6.63612,90.0219
2023-02-16 21:43:04:977,-1.30626,0.823034,-9.7129,-4.26917,-6.62704,90.0129
2023-02-16 21:43:04:987,-1.35152,0.816744,-9.68311,-4.27726,-6.62098,89.999
2023-02-16 21:43:04:997,-1.43003,0.818866,-9.69455,-4.28463,-6.61869,89.9707
2023-02-16 21:43:05:7,-1.49605,0.814019,-9.68579,-4.28697,-6.62222,89.9244
2023-02-16 21:43:05:17,-1.52158,0.806629,-9.68622,-4.29065,-6.62904,89.8613
2023-02-16 21:43:05:27,-1.5039,0.796057,-9.67548,-4.29018,-6.63902,89.7783
2023-02-16 21:43:05:37,-1.46402,0.777182,-9.69243,-4.29256,-6.65036,89.6723
2023-02-16 21:43:05:47,-1.40008,0.770665,-9.69932,-4.28994,-6.65904,89.5496
2023-02-16 21:43:05:57,-1.34063,0.75869,-9.68527,-4.28836,-6.66853,89.4131
2023-02-16 21:43:05:67,-1.25731,0.740328,-9.68094,-4.28515,-6.67374,89.259
2023-02-16 21:43:05:77,-1.16982,0.728969,-9.69202,-4.2832,-6.67592,89.1025
2023-02-16 21:43:05:87,-1.09899,0.744471,-9.68269,-4.28378,-6.67775,88.9408
2023-02-16 21:43:05:97,-1.04376,0.74335,-9.67538,-4.28453,-6.67745,88.7805
2023-02-16 21:43:05:107,-1.003,0.731082,-9.67746,-4.28731,-6.67587,88.625
2023-02-16 21:43:05:117,-0.984877,0.738467,-9.66754,-4.29408,-6.66802,88.4783
2023-02-16 21:43:05:127,-0.954242,0.753795,-9.67719,-4.29699,-6.65665,88.3441
2023-02-16 21:43:05:137,-0.921661,0.75648,-9.68411,-4.30534,-6.64254,88.2182
2023-02-16 21:43:05:147,-0.888302,0.743158,-9.70906,-4.30889,-6.6216,88.1061
2023-02-16 21:43:05:157,-0.880939,0.736006,-9.73159,-4.3145,-6.59637,88.006
2023-02-16 21:43:05:167,-0.868965,0.737222,-9.72092,-4.31648,-6.56889,87.9175
2023-02-16 21:43:05:177,-0.84681,0.74002,-9.71265,-4.31791,-6.53677,87.8411
2023-02-16 21:43:05:187,-0.8531,0.731284,-9.70126,-4.31909,-6.50848,87.7781
2023-02-16 21:43:05:197,-0.834195,0.731049,-9.712,-4.31849,-6.47572,87.7277
2023-02-16 21:43:05:207,-0.840749,0.730218,-9.69521,-4.31793,-6.44313,87.6881
2023-02-16 21:43:05:217,-0.876355,0.728999,-9.70498,-4.32022,-6.41197,87.6598
2023-02-16 21:43:05:227,-0.878982,0.729186,-9.71217,-4.32739,-6.3797,87.642
2023-02-16 21:43:05:237,-0.902147,0.718283,-9.72121,-4.32907,-6.34889,87.63
2023-02-16 21:43:05:247,-0.927145,0.720625,-9.71699,-4.32773,-6.32231,87.6241
2023-02-16 21:43:05:257,-0.940368,0.727537,-9.70454,-4.33312,-6.3013,87.6209
2023-02-16 21:43:05:267,-0.95417,0.738507,-9.73562,-4.34059,-6.28091,87.6149
2023-02-16 21:43:05:277,-0.974321,0.736443,-9.74263,-4.34712,-6.26215,87.6156
2023-02-16 21:43:05:287,-0.984587,0.75043,-9.7374,-4.35399,-6.24666,87.6156
2023-02-16 21:43:05:297,-0.989644,0.745917,-9.72912,-4.36031,-6.23727,87.6116
2023-02-16 21:43:05:307,-0.971958,0.742005,-9.72272,-4.36628,-6.22583,87.6127
2023-02-16 21:43:05:317,-0.984379,0.751252,-9.70833,-4.3722,-6.21851,87.6143
2023-02-16 21:43:05:327,-1.00014,0.749322,-9.69825,-4.37368,-6.21674,87.6101
2023-02-16 21:43:05:337,-0.981354,0.752107,-9.70122,-4.37859,-6.21807,87.6038
2023-02-16 21:43:05:347,-0.987211,0.752045,-9.69921,-4.38338,-6.21994,87.5988
2023-02-16 21:43:05:357,-0.997478,0.758914,-9.71179,-4.38736,-6.22302,87.5909
2023-02-16 21:43:05:367,-1.00506,0.76034,-9.71399,-4.39274,-6.22596,87.5871
2023-02-16 21:43:05:377,-1.02373,0.772412,-9.7167,-4.39632,-6.23046,87.5817
2023-02-16 21:43:05:387,-1.05114,0.770432,-9.73296,-4.39776,-6.23578,87.5752
2023-02-16 21:43:05:397,-1.03844,0.770988,-9.72385,-4.39543,-6.24374,87.5634
2023-02-16 21:43:05:407,-1.00561,0.768775,-9.71184,-4.39491,-6.25101,87.5497
2023-02-16 21:43:05:417,-1.00703,0.762354,-9.69166,-4.39319,-6.25796,87.5351
2023-02-16 21:43:05:427,-1.01765,0.729034,-9.67727,-4.39118,-6.26778,87.5214
2023-02-16 21:43:05:437,-1.02089,0.719321,-9.69869,-4.39021,-6.27716,87.5097
2023-02-16 21:43:05:447,-1.00739,0.713247,-9.72802,-4.38781,-6.2807,87.4959
2023-02-16 21:43:05:458,-0.934952,0.701243,-9.71962,-4.38587,-6.27721,87.4797
2023-02-16 21:43:05:467,-0.865984,0.693414,-9.72039,-4.38439,-6.27554,87.4671
2023-02-16 21:43:05:478,-0.862827,0.705369,-9.70781,-4.38494,-6.27702,87.4559
2023-02-16 21:43:05:488,-0.888193,0.700497,-9.68407,-4.38606,-6.28569,87.4495
2023-02-16 21:43:05:498,-0.911952,0.714582,-9.66547,-4.39537,-6.29794,87.4504
2023-02-16 21:43:05:507,-0.977613,0.72493,-9.65997,-4.40258,-6.30895,87.4574
2023-02-16 21:43:05:517,-1.03379,0.731164,-9.64992,-4.41379,-6.31885,87.4675
2023-02-16 21:43:05:527,-1.0348,0.749114,-9.63953,-4.42966,-6.32532,87.4819
2023-02-16 21:43:05:538,-1.02741,0.768634,-9.64628,-4.44745,-6.32912,87.4999
2023-02-16 21:43:05:548,-1.041,0.786454,-9.65305,-4.46762,-6.33018,87.516
2023-02-16 21:43:05:558,-1.03124,0.802939,-9.64673,-4.48977,-6.32985,87.5397
2023-02-16 21:43:05:567,-1.04863,0.828313,-9.67152,-4.5131,-6.3264,87.5637
2023-02-16 21:43:05:578,-1.07131,0.8438,-9.66836,-4.53779,-6.3266,87.5889
2023-02-16 21:43:05:587,-1.1026,0.846909,-9.67884,-4.55925,-6.32404,87.6134
2023-02-16 21:43:05:598,-1.10747,0.858971,-9.68478,-4.5796,-6.3218,87.6349
2023-02-16 21:43:05:608,-1.09944,0.857581,-9.69848,-4.59801,-6.31527,87.6535
2023-02-16 21:43:05:617,-1.1084,0.870856,-9.69197,-4.6115,-6.30696,87.6703
2023-02-16 21:43:05:627,-1.11358,0.86606,-9.68978,-4.62572,-6.30019,87.6856
2023-02-16 21:43:05:637,-1.09288,0.865457,-9.70703,-4.64146,-6.29375,87.697
2023-02-16 21:43:05:647,-1.0755,0.860669,-9.72148,-4.65421,-6.29122,87.7041
2023-02-16 21:43:05:657,-1.07708,0.857383,-9.74175,-4.66854,-6.28362,87.7095
2023-02-16 21:43:05:667,-1.06227,0.856341,-9.75212,-4.68012,-6.27995,87.7141
2023-02-16 21:43:05:677,-1.03691,0.864279,-9.7646,-4.69396,-6.27706,87.7105
2023-02-16 21:43:05:687,-0.999266,0.866152,-9.76273,-4.70528,-6.2749,87.709
2023-02-16 21:43:05:697,-0.975006,0.868804,-9.75278,-4.71507,-6.2751,87.7026
2023-02-16 21:43:05:708,-0.96798,0.869319,-9.75951,-4.72365,-6.27926,87.6947
2023-02-16 21:43:05:718,-0.961286,0.880556,-9.73683,-4.72885,-6.28352,87.692
2023-02-16 21:43:05:727,-0.968022,0.881711,-9.73279,-4.73101,-6.28921,87.6867
2023-02-16 21:43:05:737,-0.989863,0.879478,-9.73003,-4.73321,-6.29657,87.6833
2023-02-16 21:43:05:748,-1.0132,0.881157,-9.71933,-4.73757,-6.30474,87.6804
2023-02-16 21:43:05:758,-1.00527,0.878135,-9.71575,-4.7351,-6.31181,87.6823
2023-02-16 21:43:05:768,-1.00446,0.878392,-9.71405,-4.73034,-6.32274,87.6882
2023-02-16 21:43:05:777,-1.01115,0.86014,-9.70975,-4.72661,-6.32597,87.6964
2023-02-16 21:43:05:787,-1.01995,0.853505,-9.68649,-4.71986,-6.33276,87.7096
2023-02-16 21:43:05:798,-1.02051,0.839232,-9.67709,-4.71087,-6.34225,87.7245
2023-02-16 21:43:05:808,-1.02635,0.823532,-9.66477,-4.70376,-6.34893,87.7394
2023-02-16 21:43:05:817,-1.0466,0.8291,-9.67855,-4.69517,-6.35569,87.7532
2023-02-16 21:43:05:827,-1.04873,0.816548,-9.68455,-4.68711,-6.36187,87.77
2023-02-16 21:43:05:837,-1.04736,0.799297,-9.68731,-4.68171,-6.36971,87.7866
2023-02-16 21:43:05:848,-1.03062,0.792046,-9.70255,-4.67167,-6.37614,87.8071
2023-02-16 21:43:05:858,-1.03145,0.79903,-9.71166,-4.66504,-6.3834,87.827
2023-02-16 21:43:05:868,-1.03185,0.79298,-9.70563,-4.65738,-6.39129,87.8481
2023-02-16 21:43:05:878,-1.02857,0.785788,-9.71374,-4.65053,-6.39649,87.8709
2023-02-16 21:43:05:887,-1.01,0.783611,-9.71684,-4.64263,-6.40022,87.8926
2023-02-16 21:43:05:897,-0.99844,0.788507,-9.71609,-4.63655,-6.40793,87.9163
2023-02-16 21:43:05:907,-0.983362,0.772909,-9.72331,-4.63211,-6.41501,87.9431
2023-02-16 21:43:05:918,-0.921558,0.784164,-9.74268,-4.62602,-6.42178,87.9742
2023-02-16 21:43:05:927,-0.869206,0.796202,-9.75498,-4.61668,-6.42838,88.0106
2023-02-16 21:43:05:937,-0.85975,0.779889,-9.74023,-4.60814,-6.4337,88.0592
2023-02-16 21:43:05:947,-0.85939,0.769765,-9.72151,-4.59807,-6.4387,88.1243
2023-02-16 21:43:05:957,-0.880865,0.775652,-9.69534,-4.5878,-6.43941,88.1982
2023-02-16 21:43:05:968,-0.903355,0.775193,-9.68058,-4.57646,-6.43998,88.2867
2023-02-16 21:43:05:978,-0.935253,0.768438,-9.67137,-4.56473,-6.43646,88.3844
2023-02-16 21:43:05:988,-0.955477,0.752958,-9.6559,-4.55846,-6.43218,88.4937
2023-02-16 21:43:05:998,-0.988065,0.753088,-9.65787,-4.552,-6.42508,88.6072
2023-02-16 21:43:06:7,-1.01733,0.753729,-9.67785,-4.54652,-6.41655,88.7292
2023-02-16 21:43:06:18,-1.03525,0.765421,-9.6774,-4.54021,-6.40831,88.8493
2023-02-16 21:43:06:28,-1.06693,0.778094,-9.67568,-4.53899,-6.40039,88.9724
2023-02-16 21:43:06:37,-1.11785,0.774191,-9.66961,-4.53733,-6.3995,89.0944
2023-02-16 21:43:06:48,-1.2028,0.776379,-9.70242,-4.53498,-6.39969,89.2161
2023-02-16 21:43:06:58,-1.2652,0.794578,-9.73026,-4.53488,-6.39918,89.3304
2023-02-16 21:43:06:68,-1.26696,0.796105,-9.71864,-4.53067,-6.39467,89.4326
2023-02-16 21:43:06:78,-1.20349,0.784463,-9.69343,-4.5284,-6.39364,89.5255
2023-02-16 21:43:06:88,-1.18854,0.786239,-9.69295,-4.5228,-6.39813,89.6103
2023-02-16 21:43:06:98,-1.20931,0.766843,-9.69118,-4.51807,-6.40881,89.6851
2023-02-16 21:43:06:107,-1.22638,0.749487,-9.66405,-4.51061,-6.4261,89.7491
2023-02-16 21:43:06:118,-1.24034,0.782669,-9.66456,-4.51014,-6.4425,89.8038
2023-02-16 21:43:06:127,-1.2779,0.797166,-9.69508,-4.51097,-6.46636,89.8509
2023-02-16 21:43:06:138,-1.28911,0.814863,-9.71786,-4.50775,-6.48706,89.8904
2023-02-16 21:43:06:148,-1.24726,0.843541,-9.72322,-4.50667,-6.50362,89.9218
2023-02-16 21:43:06:157,-1.18975,0.851639,-9.71575,-4.50435,-6.51447,89.9459
2023-02-16 21:43:06:167,-1.14334,0.843201,-9.71124,-4.49807,-6.51943,89.9646
2023-02-16 21:43:06:177,-1.14903,0.847109,-9.67224,-4.49144,-6.52368,89.9809
2023-02-16 21:43:06:187,-1.16422,0.82753,-9.62159,-4.48253,-6.53037,89.9999
2023-02-16 21:43:06:197,-1.16256,0.812022,-9.60554,-4.47459,-6.53587,90.0154
2023-02-16 21:43:06:207,-1.17863,0.796692,-9.62737,-4.46717,-6.53866,90.0297
2023-02-16 21:43:06:218,-1.18299,0.78577,-9.65072,-4.46193,-6.53938,90.0413
2023-02-16 21:43:06:228,-1.1695,0.782056,-9.64468,-4.45293,-6.53916,90.0449
2023-02-16 21:43:06:238,-1.13446,0.765733,-9.66298,-4.44247,-6.53629,90.0444
2023-02-16 21:43:06:247,-1.09868,0.752281,-9.64178,-4.43619,-6.53396,90.0413
2023-02-16 21:43:06:258,-1.0925,0.730249,-9.641,-4.43085,-6.52834,90.037
2023-02-16 21:43:06:267,-1.09347,0.749733,-9.70293,-4.4289,-6.52647,90.0352
2023-02-16 21:43:06:278,-1.07525,0.761296,-9.74189,-4.4295,-6.52294,90.0295
2023-02-16 21:43:06:288,-1.04877,0.763923,-9.73651,-4.42767,-6.51891,90.0239
2023-02-16 21:43:06:298,-1.03978,0.760519,-9.74112,-4.42337,-6.52021,90.0199
2023-02-16 21:43:06:308,-1.04451,0.756245,-9.75404,-4.42307,-6.52186,90.0137
2023-02-16 21:43:06:318,-1.02189,0.753227,-9.74232,-4.42338,-6.52944,90.0056
2023-02-16 21:43:06:328,-1.03202,0.759992,-9.73682,-4.42324,-6.53435,90.0018
2023-02-16 21:43:06:338,-1.04491,0.762555,-9.72655,-4.42155,-6.54173,89.9966
2023-02-16 21:43:06:348,-1.06448,0.761567,-9.69777,-4.41761,-6.55071,89.9955
2023-02-16 21:43:06:357,-1.08365,0.754434,-9.6861,-4.41682,-6.56063,89.9979
2023-02-16 21:43:06:367,-1.0894,0.75762,-9.67834,-4.41219,-6.57065,89.9999
2023-02-16 21:43:06:377,-1.09309,0.751018,-9.68144,-4.40951,-6.58114,90.0037
2023-02-16 21:43:06:387,-1.09136,0.761387,-9.66738,-4.4078,-6.59224,90.0129
2023-02-16 21:43:06:398,-1.10006,0.747912,-9.64775,-4.40089,-6.59942,90.0219
2023-02-16 21:43:06:408,-1.11492,0.73445,-9.64558,-4.39503,-6.60795,90.0334
2023-02-16 21:43:06:418,-1.11578,0.742538,-9.65665,-4.39259,-6.61702,90.0447
2023-02-16 21:43:06:428,-1.12751,0.738262,-9.67063,-4.38923,-6.62452,90.0572
2023-02-16 21:43:06:438,-1.13048,0.725841,-9.65852,-4.3856,-6.63146,90.0683
2023-02-16 21:43:06:448,-1.13462,0.732726,-9.68018,-4.38142,-6.63663,90.0795
2023-02-16 21:43:06:457,-1.1342,0.723226,-9.69628,-4.37962,-6.64158,90.0893
2023-02-16 21:43:06:468,-1.13729,0.732469,-9.69265,-4.37656,-6.64556,90.1004
2023-02-16 21:43:06:478,-1.13875,0.730114,-9.68613,-4.37707,-6.6512,90.1144
2023-02-16 21:43:06:488,-1.13553,0.724637,-9.68987,-4.37783,-6.65367,90.1264
2023-02-16 21:43:06:498,-1.1261,0.737408,-9.67664,-4.38141,-6.65559,90.1372
2023-02-16 21:43:06:508,-1.12365,0.724072,-9.66045,-4.38597,-6.65955,90.1463
2023-02-16 21:43:06:518,-1.13148,0.718234,-9.65799,-4.39071,-6.66257,90.155
2023-02-16 21:43:06:528,-1.15483,0.715688,-9.67494,-4.40062,-6.66698,90.1649
2023-02-16 21:43:06:538,-1.16663,0.725447,-9.68663,-4.40768,-6.66938,90.1773
2023-02-16 21:43:06:548,-1.16667,0.731229,-9.67522,-4.42024,-6.67507,90.188
2023-02-16 21:43:06:558,-1.16198,0.718272,-9.65134,-4.43411,-6.67895,90.2029
2023-02-16 21:43:06:568,-1.17087,0.729208,-9.62541,-4.44836,-6.68353,90.2151
2023-02-16 21:43:06:578,-1.18498,0.722567,-9.61233,-4.46224,-6.68637,90.2295
2023-02-16 21:43:06:588,-1.19534,0.746037,-9.63579,-4.48105,-6.68857,90.2376
2023-02-16 21:43:06:597,-1.20258,0.762321,-9.66526,-4.50162,-6.69749,90.2482
2023-02-16 21:43:06:608,-1.20186,0.774255,-9.66629,-4.52547,-6.69966,90.2549
2023-02-16 21:43:06:618,-1.20734,0.787061,-9.67913,-4.54762,-6.70113,90.2612
2023-02-16 21:43:06:627,-1.2189,0.800631,-9.68646,-4.56747,-6.70181,90.2663
2023-02-16 21:43:06:638,-1.20543,0.805294,-9.63355,-4.58836,-6.70022,90.2695
2023-02-16 21:43:06:648,-1.21028,0.777675,-9.6379,-4.61235,-6.6969,90.2737
2023-02-16 21:43:06:658,-1.24876,0.796957,-9.71405,-4.63486,-6.6918,90.2739
2023-02-16 21:43:06:668,-1.23814,0.808603,-9.74838,-4.65651,-6.67917,90.2699
2023-02-16 21:43:06:678,-1.16039,0.811769,-9.73714,-4.67834,-6.66346,90.265
2023-02-16 21:43:06:688,-1.09301,0.830166,-9.74678,-4.69741,-6.64676,90.2518
2023-02-16 21:43:06:698,-1.10108,0.824653,-9.74366,-4.71501,-6.63673,90.2403
2023-02-16 21:43:06:708,-1.11174,0.816963,-9.70132,-4.72793,-6.63086,90.2287
2023-02-16 21:43:06:717,-1.09345,0.833468,-9.67229,-4.74545,-6.62688,90.2223
2023-02-16 21:43:06:728,-1.14681,0.841804,-9.64833,-4.7626,-6.62591,90.2129
2023-02-16 21:43:06:737,-1.18566,0.840569,-9.65019,-4.78305,-6.62101,90.201
2023-02-16 21:43:06:747,-1.17971,0.865017,-9.67204,-4.80446,-6.61819,90.1866
2023-02-16 21:43:06:758,-1.16422,0.889033,-9.68718,-4.82549,-6.60774,90.1716
2023-02-16 21:43:06:768,-1.12523,0.90129,-9.702,-4.85243,-6.59782,90.1544
2023-02-16 21:43:06:778,-1.08312,0.900945,-9.7065,-4.87075,-6.58267,90.1336
2023-02-16 21:43:06:788,-1.08785,0.912908,-9.70465,-4.88924,-6.57016,90.1167
2023-02-16 21:43:06:798,-1.11295,0.928054,-9.70422,-4.90713,-6.55474,90.1009
2023-02-16 21:43:06:808,-1.106,0.923161,-9.71522,-4.92059,-6.54153,90.0853
2023-02-16 21:43:06:818,-1.09142,0.909081,-9.70118,-4.9304,-6.52321,90.0674
2023-02-16 21:43:06:828,-1.10411,0.901991,-9.69526,-4.93633,-6.50533,90.0502
2023-02-16 21:43:06:838,-1.07552,0.890109,-9.68794,-4.94149,-6.48705,90.0341
2023-02-16 21:43:06:848,-1.05211,0.882948,-9.68231,-4.94447,-6.46715,90.0115
2023-02-16 21:43:06:858,-1.03745,0.877978,-9.67351,-4.94939,-6.44908,89.994
2023-02-16 21:43:06:868,-1.04077,0.876895,-9.68816,-4.95435,-6.43238,89.9736
2023-02-16 21:43:06:878,-1.03745,0.875786,-9.71879,-4.95638,-6.41187,89.958
2023-02-16 21:43:06:888,-1.0212,0.867472,-9.73652,-4.96123,-6.39389,89.9433
2023-02-16 21:43:06:898,-1.00729,0.869575,-9.74602,-4.96451,-6.37809,89.9267
2023-02-16 21:43:06:908,-0.979054,0.86958,-9.7567,-4.96818,-6.36433,89.9097
2023-02-16 21:43:06:918,-0.970658,0.868322,-9.76432,-4.97275,-6.3519,89.8937
2023-02-16 21:43:06:928,-0.976245,0.861033,-9.74199,-4.97636,-6.34228,89.881
2023-02-16 21:43:06:937,-0.974926,0.863901,-9.71394,-4.97911,-6.33221,89.8695
2023-02-16 21:43:06:948,-0.98195,0.867029,-9.68199,-4.98604,-6.32439,89.8598
2023-02-16 21:43:06:958,-0.984253,0.880385,-9.65566,-4.98957,-6.31769,89.8518
2023-02-16 21:43:06:968,-0.978236,0.884646,-9.65411,-4.99341,-6.3106,89.8431
2023-02-16 21:43:06:978,-0.986221,0.893246,-9.67144,-4.99907,-6.30401,89.8425
2023-02-16 21:43:06:987,-1.00805,0.923135,-9.67209,-5.00585,-6.29429,89.8426
2023-02-16 21:43:06:998,-1.03014,0.934285,-9.68076,-5.01441,-6.28101,89.8456
2023-02-16 21:43:07:8,-1.03598,0.942404,-9.71361,-5.02087,-6.26559,89.8496
2023-02-16 21:43:07:18,-1.03471,0.922692,-9.72228,-5.02298,-6.25503,89.853
2023-02-16 21:43:07:28,-1.051,0.903364,-9.71195,-5.02134,-6.24032,89.8552
2023-02-16 21:43:07:38,-1.04945,0.894915,-9.71613,-5.02123,-6.2295,89.8552
2023-02-16 21:43:07:48,-1.04396,0.878802,-9.72625,-5.01544,-6.21814,89.8541
2023-02-16 21:43:07:58,-1.04437,0.871932,-9.72281,-5.00809,-6.2086,89.8522
2023-02-16 21:43:07:68,-1.0358,0.853437,-9.7314,-4.99834,-6.19795,89.8458
2023-02-16 21:43:07:78,-1.0225,0.853132,-9.7399,-4.98912,-6.1887,89.8363
2023-02-16 21:43:07:88,-1.01475,0.85986,-9.75122,-4.98152,-6.18637,89.8246
2023-02-16 21:43:07:98,-1.01741,0.859047,-9.75289,-4.97311,-6.18634,89.8075
2023-02-16 21:43:07:108,-0.989487,0.862703,-9.74824,-4.96725,-6.18617,89.7901
2023-02-16 21:43:07:118,-0.966289,0.852344,-9.75152,-4.95941,-6.19032,89.7729
2023-02-16 21:43:07:128,-0.967956,0.852767,-9.73812,-4.95074,-6.19654,89.7574
2023-02-16 21:43:07:138,-0.959179,0.843038,-9.71138,-4.93921,-6.2026,89.7412
2023-02-16 21:43:07:148,-0.96045,0.841446,-9.69975,-4.92875,-6.20932,89.7284
2023-02-16 21:43:07:158,-0.960313,0.829255,-9.67989,-4.91747,-6.21565,89.7181
2023-02-16 21:43:07:168,-0.988846,0.82304,-9.67274,-4.90618,-6.21848,89.7119
2023-02-16 21:43:07:178,-1.01201,0.827294,-9.70198,-4.89287,-6.22082,89.7096
2023-02-16 21:43:07:188,-1.01675,0.826006,-9.69219,-4.8786,-6.22405,89.7097
2023-02-16 21:43:07:198,-1.0177,0.818207,-9.69473,-4.86576,-6.22608,89.7083
2023-02-16 21:43:07:208,-1.03581,0.811163,-9.67154,-4.84816,-6.22554,89.7116
2023-02-16 21:43:07:218,-1.04631,0.794916,-9.65796,-4.83118,-6.22391,89.7184
2023-02-16 21:43:07:228,-1.05529,0.801296,-9.68167,-4.8147,-6.21796,89.7215
2023-02-16 21:43:07:237,-1.0427,0.795858,-9.68089,-4.80078,-6.21117,89.7241
2023-02-16 21:43:07:247,-1.00705,0.781145,-9.67819,-4.78242,-6.19939,89.7245
2023-02-16 21:43:07:258,-0.959164,0.78257,-9.68372,-4.77032,-6.19479,89.7206
2023-02-16 21:43:07:268,-0.935675,0.799269,-9.70272,-4.76123,-6.19614,89.7153
2023-02-16 21:43:07:278,-0.958808,0.806137,-9.70373,-4.75483,-6.20451,89.7095
2023-02-16 21:43:07:288,-0.981713,0.796063,-9.71009,-4.75112,-6.21892,89.7077
2023-02-16 21:43:07:298,-0.999178,0.809758,-9.69975,-4.74765,-6.23296,89.7101
2023-02-16 21:43:07:308,-1.02999,0.817644,-9.69509,-4.74477,-6.24728,89.712
2023-02-16 21:43:07:318,-1.03338,0.839005,-9.72081,-4.74388,-6.25781,89.7153
2023-02-16 21:43:07:328,-1.03874,0.862326,-9.74197,-4.74546,-6.26718,89.7248
2023-02-16 21:43:07:338,-1.02038,0.869623,-9.75429,-4.74623,-6.27745,89.735
2023-02-16 21:43:07:348,-1.00522,0.868869,-9.73853,-4.74375,-6.28327,89.7475
2023-02-16 21:43:07:358,-1.02616,0.887226,-9.73736,-4.74063,-6.29509,89.7685
2023-02-16 21:43:07:368,-1.04305,0.900833,-9.73839,-4.73827,-6.30176,89.7958
2023-02-16 21:43:07:378,-1.07149,0.904904,-9.72918,-4.73139,-6.3077,89.8214
2023-02-16 21:43:07:388,-1.09684,0.904074,-9.71106,-4.71963,-6.31985,89.8476
2023-02-16 21:43:07:398,-1.13889,0.90238,-9.71994,-4.7045,-6.32497,89.876
2023-02-16 21:43:07:408,-1.18466,0.892101,-9.74052,-4.68479,-6.33851,89.9041
2023-02-16 21:43:07:418,-1.22465,0.878408,-9.76673,-4.66051,-6.35001,89.9327
2023-02-16 21:43:07:428,-1.25207,0.851828,-9.80178,-4.63033,-6.36409,89.956
2023-02-16 21:43:07:438,-1.28079,0.812741,-9.85761,-4.59299,-6.37679,89.975
2023-02-16 21:43:07:448,-1.29067,0.770565,-9.84763,-4.54884,-6.38602,89.9903
2023-02-16 21:43:07:458,-1.30266,0.726682,-9.8201,-4.49796,-6.39093,89.9983
2023-02-16 21:43:07:468,-1.30535,0.696231,-9.80807,-4.44062,-6.39612,89.9997
2023-02-16 21:43:07:478,-1.28955,0.669162,-9.81532,-4.38004,-6.39345,90
2023-02-16 21:43:07:488,-1.26639,0.651735,-9.8408,-4.31183,-6.38899,89.9943
2023-02-16 21:43:07:498,-1.24891,0.608125,-9.84165,-4.23646,-6.38771,89.9829
2023-02-16 21:43:07:508,-1.2227,0.564915,-9.78051,-4.15598,-6.38268,89.9689
2023-02-16 21:43:07:518,-1.17246,0.503643,-9.69349,-4.07094,-6.37282,89.9504
2023-02-16 21:43:07:528,-1.13643,0.480793,-9.58175,-3.98794,-6.35528,89.9328
2023-02-16 21:43:07:538,-1.11597,0.467089,-9.48906,-3.90659,-6.33862,89.9169
2023-02-16 21:43:07:548,-1.0717,0.452322,-9.42111,-3.83426,-6.31306,89.8989
2023-02-16 21:43:07:558,-1.02571,0.462344,-9.38276,-3.7683,-6.28319,89.8771
2023-02-16 21:43:07:568,-1.00025,0.48683,-9.4312,-3.71208,-6.24837,89.852
2023-02-16 21:43:07:578,-0.973541,0.524877,-9.54091,-3.66722,-6.2106,89.8217
2023-02-16 21:43:07:588,-0.916945,0.576278,-9.69798,-3.62352,-6.17184,89.7853
2023-02-16 21:43:07:598,-0.851457,0.629521,-9.81433,-3.58473,-6.13835,89.7449
2023-02-16 21:43:07:608,-0.797655,0.647134,-9.81036,-3.54128,-6.10567,89.7042
2023-02-16 21:43:07:618,-0.796626,0.660191,-9.79136,-3.49381,-6.07647,89.6666
2023-02-16 21:43:07:628,-0.799073,0.657747,-9.7647,-3.44622,-6.04997,89.6318
2023-02-16 21:43:07:638,-0.798519,0.640723,-9.73695,-3.3971,-6.02937,89.6031
2023-02-16 21:43:07:648,-0.820054,0.625508,-9.6817,-3.35165,-6.00863,89.5788
2023-02-16 21:43:07:658,-0.850864,0.606799,-9.63195,-3.3112,-5.98764,89.5594
2023-02-16 21:43:07:668,-0.851569,0.629253,-9.63181,-3.27589,-5.96763,89.5448
2023-02-16 21:43:07:678,-0.81214,0.67389,-9.646,-3.24718,-5.94105,89.5366
2023-02-16 21:43:07:688,-0.820113,0.722737,-9.7046,-3.21807,-5.91436,89.536
2023-02-16 21:43:07:698,-0.839355,0.787621,-9.75171,-3.19203,-5.88384,89.5442
2023-02-16 21:43:07:708,-0.824374,0.827627,-9.84564,-3.15736,-5.85266,89.5523
2023-02-16 21:43:07:718,-0.804671,0.871241,-9.93006,-3.11665,-5.81811,89.5648
2023-02-16 21:43:07:728,-0.812648,0.90944,-9.98665,-3.06913,-5.79113,89.581
2023-02-16 21:43:07:737,-0.827484,0.9318,-10.0282,-3.0019,-5.76772,89.6005
2023-02-16 21:43:07:748,-0.825351,0.939992,-10.026,-2.92592,-5.75236,89.6235
2023-02-16 21:43:07:758,-0.826272,0.939898,-9.96532,-2.83902,-5.74195,89.6551
2023-02-16 21:43:07:768,-0.887102,0.887653,-9.82475,-2.74044,-5.73473,89.6944
2023-02-16 21:43:07:778,-1.01771,0.842715,-9.71936,-2.63343,-5.72357,89.7405
2023-02-16 21:43:07:788,-1.07446,0.794086,-9.67008,-2.52007,-5.70885,89.7919
2023-02-16 21:43:07:798,-1.06689,0.730637,-9.60207,-2.40676,-5.6865,89.8388
2023-02-16 21:43:07:808,-1.06354,0.68157,-9.59229,-2.2944,-5.65593,89.8886
2023-02-16 21:43:07:818,-1.06571,0.637422,-9.64074,-2.18509,-5.61678,89.9343
2023-02-16 21:43:07:828,-0.973147,0.615668,-9.67089,-2.0827,-5.5773,89.9764
2023-02-16 21:43:07:838,-0.869434,0.587827,-9.68944,-1.98574,-5.53244,90.0123
2023-02-16 21:43:07:848,-0.855639,0.584801,-9.71822,-1.89252,-5.48845,90.0441
2023-02-16 21:43:07:858,-0.855283,0.572246,-9.73569,-1.80827,-5.45137,90.0802
2023-02-16 21:43:07:868,-0.875398,0.556167,-9.7509,-1.73022,-5.41722,90.111
2023-02-16 21:43:07:878,-0.889887,0.541044,-9.78719,-1.65246,-5.38779,90.1368
2023-02-16 21:43:07:888,-0.871467,0.532582,-9.794,-1.57556,-5.36705,90.1567
2023-02-16 21:43:07:898,-0.844581,0.527235,-9.76171,-1.49658,-5.34695,90.1681
2023-02-16 21:43:07:908,-0.802724,0.537115,-9.78159,-1.41499,-5.32636,90.1739
2023-02-16 21:43:07:918,-0.746276,0.545108,-9.80933,-1.32887,-5.31449,90.1732
2023-02-16 21:43:07:928,-0.706205,0.523045,-9.79267,-1.23844,-5.30392,90.1686
2023-02-16 21:43:07:938,-0.703711,0.495054,-9.78355,-1.14553,-5.29438,90.163
2023-02-16 21:43:07:948,-0.699117,0.457634,-9.78138,-1.04715,-5.28863,90.1573
2023-02-16 21:43:07:958,-0.677707,0.411116,-9.78558,-0.944714,-5.29218,90.149
2023-02-16 21:43:07:968,-0.696419,0.359422,-9.78246,-0.838494,-5.30117,90.1444
2023-02-16 21:43:07:978,-0.722672,0.31751,-9.77872,-0.730968,-5.31342,90.1385
2023-02-16 21:43:07:988,-0.740394,0.261969,-9.77501,-0.623639,-5.33289,90.1369
2023-02-16 21:43:07:998,-0.764034,0.229693,-9.76933,-0.517703,-5.35415,90.1356
2023-02-16 21:43:08:8,-0.783847,0.181095,-9.7813,-0.409984,-5.38062,90.1402
2023-02-16 21:43:08:18,-0.813922,0.14018,-9.79287,-0.297567,-5.4153,90.1459
2023-02-16 21:43:08:28,-0.832037,0.0954241,-9.78985,-0.187878,-5.4509,90.1517
2023-02-16 21:43:08:38,-0.86826,0.0391379,-9.82006,-0.0747422,-5.49206,90.1609
2023-02-16 21:43:08:48,-0.91215,-0.0347474,-9.79253,0.0429278,-5.53152,90.1741
2023-02-16 21:43:08:58,-0.980853,-0.104222,-9.7224,0.162912,-5.57292,90.1859
2023-02-16 21:43:08:68,-1.00148,-0.140885,-9.71445,0.279045,-5.61784,90.1948
2023-02-16 21:43:08:78,-1.02248,-0.191632,-9.67146,0.39579,-5.65412,90.2039
2023-02-16 21:43:08:88,-1.06022,-0.235373,-9.63449,0.510308,-5.68701,90.2116
2023-02-16 21:43:08:98,-1.07825,-0.278304,-9.61785,0.623105,-5.71275,90.2174
2023-02-16 21:43:08:108,-1.02808,-0.339694,-9.61806,0.729947,-5.73412,90.2146
2023-02-16 21:43:08:118,-0.955932,-0.386279,-9.6125,0.832203,-5.75559,90.2034
2023-02-16 21:43:08:128,-0.90449,-0.415716,-9.57588,0.926321,-5.77632,90.1957
2023-02-16 21:43:08:138,-0.863173,-0.44185,-9.54696,1.01282,-5.79822,90.1856
2023-02-16 21:43:08:148,-0.845414,-0.441624,-9.58123,1.08806,-5.82435,90.1766
2023-02-16 21:43:08:158,-0.82701,-0.444221,-9.60698,1.14848,-5.8631,90.1697
2023-02-16 21:43:08:168,-0.844007,-0.445552,-9.6227,1.20121,-5.91085,90.1669
2023-02-16 21:43:08:178,-0.902558,-0.431226,-9.63279,1.24853,-5.97176,90.1713
2023-02-16 21:43:08:188,-0.959492,-0.423422,-9.64628,1.28372,-6.04575,90.1808
2023-02-16 21:43:08:198,-1.02926,-0.41326,-9.67604,1.31933,-6.12584,90.1981
2023-02-16 21:43:08:207,-1.11822,-0.410171,-9.69663,1.35459,-6.21095,90.2218
2023-02-16 21:43:08:217,-1.21982,-0.415882,-9.70349,1.38629,-6.29975,90.2506
2023-02-16 21:43:08:228,-1.29592,-0.430068,-9.72941,1.41713,-6.38974,90.2829
2023-02-16 21:43:08:238,-1.33735,-0.449949,-9.75802,1.46089,-6.47534,90.3114
2023-02-16 21:43:08:248,-1.35403,-0.466602,-9.7438,1.50827,-6.55419,90.3429
2023-02-16 21:43:08:258,-1.37379,-0.496421,-9.70075,1.55881,-6.63003,90.3759
2023-02-16 21:43:08:268,-1.39727,-0.533833,-9.65471,1.61386,-6.69546,90.4147
2023-02-16 21:43:08:278,-1.41777,-0.564959,-9.63543,1.671,-6.75714,90.454
2023-02-16 21:43:08:288,-1.42719,-0.583047,-9.64141,1.72419,-6.81035,90.4972
2023-02-16 21:43:08:298,-1.44108,-0.598446,-9.6515,1.77678,-6.8586,90.5461
2023-02-16 21:43:08:308,-1.47063,-0.590888,-9.60569,1.82904,-6.90237,90.5915
2023-02-16 21:43:08:318,-1.50172,-0.621015,-9.56042,1.88093,-6.93525,90.6401
2023-02-16 21:43:08:328,-1.5162,-0.597807,-9.56485,1.92854,-6.96148,90.686
2023-02-16 21:43:08:338,-1.49533,-0.588307,-9.55066,1.96924,-6.98788,90.7304
2023-02-16 21:43:08:348,-1.46552,-0.564522,-9.54477,2.00394,-7.01522,90.7731
2023-02-16 21:43:08:358,-1.40032,-0.534665,-9.52369,2.02969,-7.04727,90.8064
2023-02-16 21:43:08:368,-1.3574,-0.50579,-9.53467,2.04815,-7.09027,90.8389
2023-02-16 21:43:08:378,-1.33734,-0.485914,-9.56784,2.05885,-7.13792,90.8756
2023-02-16 21:43:08:388,-1.34362,-0.452306,-9.60667,2.05872,-7.19439,90.9135
2023-02-16 21:43:08:398,-1.38648,-0.430162,-9.66419,2.05903,-7.25367,90.9499
2023-02-16 21:43:08:408,-1.44992,-0.405024,-9.71665,2.04832,-7.30821,90.9874
2023-02-16 21:43:08:418,-1.4958,-0.37816,-9.765,2.0436,-7.35784,91.0259
2023-02-16 21:43:08:428,-1.5121,-0.352964,-9.75099,2.03813,-7.39712,91.0629
2023-02-16 21:43:08:438,-1.51445,-0.367577,-9.73247,2.03931,-7.42214,91.0929
2023-02-16 21:43:08:448,-1.50932,-0.37211,-9.70735,2.05104,-7.4379,91.1233
2023-02-16 21:43:08:458,-1.51081,-0.379466,-9.64303,2.0608,-7.44329,91.1531
2023-02-16 21:43:08:468,-1.49413,-0.40949,-9.58729,2.07526,-7.44028,91.1767
2023-02-16 21:43:08:478,-1.49109,-0.43378,-9.55579,2.08936,-7.42931,91.198
2023-02-16 21:43:08:488,-1.4808,-0.453304,-9.56205,2.10082,-7.40966,91.2116
2023-02-16 21:43:08:498,-1.46215,-0.455085,-9.58618,2.10804,-7.3792,91.2238
2023-02-16 21:43:08:508,-1.45072,-0.465572,-9.61562,2.11517,-7.3404,91.2274
2023-02-16 21:43:08:518,-1.43169,-0.449711,-9.62856,2.11582,-7.28812,91.2256
2023-02-16 21:43:08:528,-1.40556,-0.447383,-9.64004,2.11153,-7.23321,91.2171
2023-02-16 21:43:08:538,-1.35724,-0.449077,-9.66497,2.10598,-7.16515,91.1993
2023-02-16 21:43:08:548,-1.30075,-0.436599,-9.67227,2.09962,-7.09179,91.1738
2023-02-16 21:43:08:558,-1.22705,-0.439281,-9.67035,2.08913,-7.01437,91.1413
2023-02-16 21:43:08:568,-1.11663,-0.447223,-9.67772,2.07367,-6.93169,91.1003
2023-02-16 21:43:08:578,-1.02301,-0.437338,-9.69026,2.05907,-6.84927,91.0509
2023-02-16 21:43:08:588,-0.966643,-0.445795,-9.67791,2.0437,-6.7716,91.0009
2023-02-16 21:43:08:598,-0.897501,-0.455318,-9.68994,2.02816,-6.68913,90.9447
2023-02-16 21:43:08:608,-0.794243,-0.453185,-9.70004,2.0075,-6.61638,90.8827
2023-02-16 21:43:08:618,-0.655396,-0.475122,-9.70364,1.98805,-6.5426,90.8185
2023-02-16 21:43:08:628,-0.507388,-0.484297,-9.67592,1.9633,-6.48117,90.7548
2023-02-16 21:43:08:638,-0.346226,-0.506239,-9.62994,1.94097,-6.42994,90.6963
2023-02-16 21:43:08:648,-0.253542,-0.522086,-9.69388,1.91411,-6.39873,90.6461
2023-02-16 21:43:08:658,-0.296761,-0.505885,-9.7836,1.89046,-6.3947,90.6074
2023-02-16 21:43:08:668,-0.448704,-0.496872,-9.82239,1.87099,-6.41557,90.5879
2023-02-16 21:43:08:678,-0.602417,-0.504707,-9.84194,1.85459,-6.45071,90.5828
2023-02-16 21:43:08:688,-0.71095,-0.510359,-9.851,1.84368,-6.49235,90.5889
2023-02-16 21:43:08:698,-0.826607,-0.527342,-9.81181,1.83753,-6.53785,90.6053
2023-02-16 21:43:08:708,-0.927417,-0.548013,-9.75733,1.8329,-6.58522,90.6356
2023-02-16 21:43:08:718,-0.952666,-0.549134,-9.73497,1.82966,-6.62617,90.6705
2023-02-16 21:43:08:728,-0.957301,-0.521664,-9.69724,1.81877,-6.66429,90.712
2023-02-16 21:43:08:738,-0.987106,-0.490653,-9.66608,1.79857,-6.70395,90.7569
2023-02-16 21:43:08:748,-1.07208,-0.443116,-9.64133,1.77231,-6.74753,90.8046
2023-02-16 21:43:08:758,-1.13557,-0.370739,-9.62942,1.73662,-6.78632,90.8598
2023-02-16 21:43:08:768,-1.18986,-0.31913,-9.61864,1.69156,-6.82204,90.9155
2023-02-16 21:43:08:778,-1.24943,-0.248784,-9.62057,1.63646,-6.84986,90.9734
2023-02-16 21:43:08:788,-1.30669,-0.143375,-9.6709,1.57435,-6.87079,91.0301
2023-02-16 21:43:08:798,-1.31627,-0.0453105,-9.70976,1.50465,-6.88401,91.0867
2023-02-16 21:43:08:808,-1.29392,0.0155934,-9.72482,1.43877,-6.88591,91.1358
2023-02-16 21:43:08:818,-1.26335,0.052715,-9.73661,1.37511,-6.8783,91.1829
2023-02-16 21:43:08:828,-1.21874,0.083349,-9.75833,1.31519,-6.8673,91.221
2023-02-16 21:43:08:838,-1.18127,0.126118,-9.78735,1.254,-6.85498,91.2526
2023-02-16 21:43:08:848,-1.1571,0.144619,-9.81147,1.19867,-6.83472,91.2828
2023-02-16 21:43:08:858,-1.14056,0.163727,-9.79802,1.15031,-6.81783,91.3089
2023-02-16 21:43:08:868,-1.13188,0.167303,-9.75162,1.10722,-6.804,91.3318
2023-02-16 21:43:08:878,-1.12478,0.164262,-9.74081,1.0701,-6.79191,91.3489
2023-02-16 21:43:08:888,-1.14181,0.173542,-9.77282,1.03242,-6.78304,91.3591
2023-02-16 21:43:08:898,-1.14305,0.1438,-9.7931,0.99923,-6.77672,91.3661
2023-02-16 21:43:08:908,-1.11095,0.132931,-9.81181,0.969514,-6.77244,91.371
2023-02-16 21:43:08:918,-1.08087,0.128335,-9.83799,0.945344,-6.78268,91.3731
2023-02-16 21:43:08:928,-1.08096,0.124868,-9.81979,0.922821,-6.80244,91.3746
2023-02-16 21:43:08:938,-1.11818,0.131005,-9.81132,0.904883,-6.83248,91.3808
2023-02-16 21:43:08:948,-1.16098,0.127509,-9.80541,0.888559,-6.87022,91.3869
2023-02-16 21:43:08:958,-1.20952,0.123243,-9.81479,0.875067,-6.91587,91.3959
2023-02-16 21:43:08:968,-1.26856,0.113997,-9.82492,0.866398,-6.96058,91.4086
2023-02-16 21:43:08:978,-1.32285,0.111165,-9.81509,0.863419,-7.0033,91.4245
2023-02-16 21:43:08:988,-1.34396,0.110725,-9.77737,0.865925,-7.04366,91.4446
2023-02-16 21:43:08:998,-1.32442,0.0869517,-9.7329,0.874925,-7.07336,91.4635
2023-02-16 21:43:09:8,-1.29185,0.0631866,-9.68695,0.889575,-7.098,91.488
2023-02-16 21:43:09:18,-1.28624,0.0142167,-9.65438,0.906571,-7.11651,91.5104
2023-02-16 21:43:09:28,-1.30669,-0.0211993,-9.59888,0.926314,-7.12793,91.5366
2023-02-16 21:43:09:38,-1.3194,-0.0724181,-9.54509,0.945318,-7.13244,91.5667
2023-02-16 21:43:09:48,-1.31454,-0.111312,-9.54153,0.960275,-7.12544,91.5975
2023-02-16 21:43:09:58,-1.322,-0.134281,-9.54643,0.963863,-7.10759,91.6273
2023-02-16 21:43:09:68,-1.32747,-0.126143,-9.55128,0.961403,-7.07557,91.655
2023-02-16 21:43:09:78,-1.28534,-0.11573,-9.56484,0.952173,-7.03285,91.678
2023-02-16 21:43:09:88,-1.24101,-0.108466,-9.62352,0.936134,-6.97864,91.6944
2023-02-16 21:43:09:98,-1.16582,-0.110164,-9.69173,0.92177,-6.91294,91.7027
2023-02-16 21:43:09:108,-1.09987,-0.111775,-9.74825,0.910781,-6.84119,91.706
2023-02-16 21:43:09:118,-1.02654,-0.144621,-9.80112,0.900609,-6.76787,91.7096
2023-02-16 21:43:09:128,-0.972479,-0.160574,-9.8455,0.894528,-6.69702,91.7057
2023-02-16 21:43:09:138,-0.976603,-0.170366,-9.86741,0.890409,-6.63432,91.7007
2023-02-16 21:43:09:148,-1.00293,-0.187434,-9.87524,0.894538,-6.57548,91.695
2023-02-16 21:43:09:158,-1.04448,-0.218226,-9.8426,0.905731,-6.52713,91.6829
2023-02-16 21:43:09:168,-1.07979,-0.240895,-9.80706,0.918937,-6.48254,91.666
2023-02-16 21:43:09:178,-1.09228,-0.277377,-9.77566,0.934189,-6.44235,91.6486
2023-02-16 21:43:09:188,-1.08057,-0.320456,-9.72825,0.949066,-6.4047,91.6195
2023-02-16 21:43:09:198,-1.04729,-0.361509,-9.70007,0.96129,-6.36738,91.5848
2023-02-16 21:43:09:208,-1.04892,-0.371844,-9.67825,0.970887,-6.33516,91.545
2023-02-16 21:43:09:218,-1.07149,-0.40481,-9.64823,0.980096,-6.30378,91.5022
2023-02-16 21:43:09:228,-1.07169,-0.429272,-9.60801,0.985414,-6.27605,91.4581
2023-02-16 21:43:09:238,-1.06248,-0.43519,-9.57569,0.983499,-6.24975,91.4069
2023-02-16 21:43:09:248,-1.04101,-0.42492,-9.55487,0.974379,-6.22826,91.3533
2023-02-16 21:43:09:258,-1.00016,-0.387726,-9.55783,0.958516,-6.20801,91.2938
2023-02-16 21:43:09:268,-0.955965,-0.345738,-9.60437,0.930042,-6.18295,91.2347
2023-02-16 21:43:09:278,-0.9152,-0.322591,-9.64102,0.897719,-6.16415,91.1804
2023-02-16 21:43:09:288,-0.882027,-0.298268,-9.65926,0.861713,-6.14574,91.1231
2023-02-16 21:43:09:298,-0.861461,-0.282561,-9.67164,0.820956,-6.1305,91.0695
2023-02-16 21:43:09:308,-0.845012,-0.260972,-9.69018,0.780522,-6.11621,91.0265
2023-02-16 21:43:09:318,-0.849852,-0.222764,-9.70461,0.733309,-6.10773,90.9887
2023-02-16 21:43:09:328,-0.845421,-0.193642,-9.7337,0.684782,-6.10275,90.9563
2023-02-16 21:43:09:338,-0.86203,-0.145461,-9.77401,0.633504,-6.09884,90.9325
2023-02-16 21:43:09:348,-0.884498,-0.115677,-9.82944,0.584783,-6.09965,90.9156
2023-02-16 21:43:09:358,-0.890097,-0.0980838,-9.86599,0.535636,-6.10121,90.9025
2023-02-16 21:43:09:368,-0.9263,-0.0768939,-9.87125,0.493319,-6.10498,90.8928
2023-02-16 21:43:09:378,-0.948671,-0.0554659,-9.87687,0.456116,-6.11125,90.8913
2023-02-16 21:43:09:388,-0.963406,-0.0475147,-9.90533,0.424055,-6.11995,90.8933
2023-02-16 21:43:09:398,-0.980951,-0.0390633,-9.92061,0.396176,-6.13133,90.8953
2023-02-16 21:43:09:408,-0.987289,-0.0369511,-9.91682,0.377541,-6.14189,90.9009
2023-02-16 21:43:09:418,-1.00223,-0.0401458,-9.86268,0.367735,-6.15472,90.9084
2023-02-16 21:43:09:428,-1.03445,-0.0700322,-9.81731,0.364707,-6.16906,90.9162
2023-02-16 21:43:09:438,-1.09588,-0.0692494,-9.84736,0.369364,-6.1868,90.9287
2023-02-16 21:43:09:448,-1.11558,-0.0530496,-9.87677,0.379834,-6.20447,90.9378
2023-02-16 21:43:09:458,-1.09256,-0.0705312,-9.87839,0.390737,-6.21663,90.9462
2023-02-16 21:43:09:468,-1.07533,-0.0787293,-9.8407,0.409806,-6.22876,90.9524
2023-02-16 21:43:09:478,-1.07558,-0.0750137,-9.80615,0.433981,-6.24567,90.953
2023-02-16 21:43:09:488,-1.07101,-0.0906666,-9.77803,0.460976,-6.26428,90.956
2023-02-16 21:43:09:498,-1.05077,-0.0978318,-9.69997,0.488718,-6.28233,90.9548
2023-02-16 21:43:09:508,-1.08586,-0.0987301,-9.63809,0.514176,-6.30562,90.9583
2023-02-16 21:43:09:518,-1.12443,-0.0803154,-9.61822,0.529036,-6.32932,90.9631
2023-02-16 21:43:09:528,-1.13553,-0.0715146,-9.59908,0.541603,-6.35043,90.9652
2023-02-16 21:43:09:538,-1.12562,-0.0591517,-9.60825,0.549074,-6.37157,90.9661
2023-02-16 21:43:09:548,-1.11603,-0.0215556,-9.64003,0.553567,-6.3894,90.9696
2023-02-16 21:43:09:558,-1.12361,-0.00537154,-9.67217,0.557058,-6.409,90.9767
2023-02-16 21:43:09:568,-1.13787,0.00877788,-9.70764,0.56033,-6.42676,90.9837
2023-02-16 21:43:09:578,-1.15447,0.0106612,-9.72249,0.562332,-6.4402,90.9876
2023-02-16 21:43:09:588,-1.13389,0.00534597,-9.7058,0.569922,-6.4548,90.9942
2023-02-16 21:43:09:598,-1.13756,-0.0245476,-9.69392,0.581656,-6.46499,91.0028
2023-02-16 21:43:09:608,-1.14625,-0.0299524,-9.68772,0.596491,-6.47276,91.0093
2023-02-16 21:43:09:618,-1.1454,-0.0341906,-9.69639,0.608984,-6.47566,91.0151
2023-02-16 21:43:09:628,-1.14267,-0.0355625,-9.69779,0.620898,-6.47448,91.0205
2023-02-16 21:43:09:638,-1.15308,-0.0482688,-9.702,0.636574,-6.47365,91.0293
2023-02-16 21:43:09:648,-1.15659,-0.0607705,-9.74264,0.650415,-6.47423,91.035
2023-02-16 21:43:09:658,-1.16007,-0.0760369,-9.74724,0.66132,-6.4679,91.0436
2023-02-16 21:43:09:668,-1.16816,-0.0852034,-9.75003,0.674817,-6.45911,91.0535
2023-02-16 21:43:09:678,-1.14983,-0.104332,-9.75718,0.685134,-6.44365,91.0619
2023-02-16 21:43:09:688,-1.10514,-0.108442,-9.74221,0.691851,-6.42744,91.065
2023-02-16 21:43:09:698,-1.09201,-0.118256,-9.72606,0.703745,-6.41194,91.0695
2023-02-16 21:43:09:708,-1.08518,-0.119609,-9.69431,0.712809,-6.39402,91.0691
2023-02-16 21:43:09:718,-1.07334,-0.116992,-9.65736,0.7161,-6.37518,91.0652
2023-02-16 21:43:09:728,-1.07759,-0.128015,-9.62115,0.720605,-6.35918,91.0626
2023-02-16 21:43:09:738,-1.07191,-0.129332,-9.60473,0.724046,-6.34194,91.0583
2023-02-16 21:43:09:748,-1.06609,-0.116295,-9.57815,0.717617,-6.32278,91.0537
2023-02-16 21:43:09:758,-1.0511,-0.102394,-9.58552,0.710245,-6.30285,91.0446
2023-02-16 21:43:09:768,-1.0286,-0.0931403,-9.6129,0.702534,-6.28192,91.0332
2023-02-16 21:43:09:778,-0.999703,-0.0826318,-9.65514,0.686087,-6.26156,91.0251
2023-02-16 21:43:09:788,-0.968203,-0.0816011,-9.69005,0.671371,-6.24153,91.0086
2023-02-16 21:43:09:798,-0.957269,-0.0646779,-9.71029,0.652767,-6.22077,90.995
2023-02-16 21:43:09:808,-0.952459,-0.0613918,-9.73146,0.636308,-6.20513,90.9803
2023-02-16 21:43:09:818,-0.948033,-0.0609915,-9.7522,0.619998,-6.19353,90.9658
2023-02-16 21:43:09:828,-0.936674,-0.0512096,-9.76292,0.600733,-6.18775,90.9488
2023-02-16 21:43:09:838,-0.945805,-0.0551247,-9.75055,0.582225,-6.18284,90.9284
2023-02-16 21:43:09:848,-0.943113,-0.0450812,-9.73732,0.561828,-6.17833,90.9118
2023-02-16 21:43:09:858,-0.942678,-0.0496455,-9.75775,0.54457,-6.17974,90.8937
2023-02-16 21:43:09:868,-0.942976,-0.0435784,-9.77133,0.52113,-6.18406,90.8759
2023-02-16 21:43:09:878,-0.958313,-0.0262182,-9.77491,0.499074,-6.19303,90.8622
2023-02-16 21:43:09:888,-0.9694,-0.0165425,-9.78775,0.478183,-6.20066,90.8454
2023-02-16 21:43:09:898,-0.984209,-0.00663074,-9.79114,0.45266,-6.21311,90.837
2023-02-16 21:43:09:908,-1.00632,-0.0164028,-9.80944,0.429027,-6.22205,90.8278
2023-02-16 21:43:09:918,-1.01541,-0.00648677,-9.81199,0.412031,-6.22906,90.8207
2023-02-16 21:43:09:928,-1.00982,-0.00702326,-9.82941,0.402166,-6.23423,90.8153
2023-02-16 21:43:09:938,-1.02714,-0.00238115,-9.8295,0.393668,-6.23573,90.8082
2023-02-16 21:43:09:948,-1.02843,0.00262149,-9.82521,0.388987,-6.23932,90.8089
2023-02-16 21:43:09:958,-1.00718,-0.0184013,-9.80844,0.394303,-6.23591,90.8064
2023-02-16 21:43:09:968,-1.00282,-0.0197267,-9.77301,0.402865,-6.23926,90.8037
2023-02-16 21:43:09:978,-1.0172,-0.0376163,-9.72148,0.413073,-6.24112,90.8055
2023-02-16 21:43:09:988,-1.05983,-0.0574184,-9.75024,0.428106,-6.24112,90.8112
2023-02-16 21:43:09:998,-1.08303,-0.0549803,-9.79619,0.443936,-6.24172,90.8127
2023-02-16 21:43:10:8,-1.04197,-0.0733997,-9.80651,0.460825,-6.24219,90.8145
2023-02-16 21:43:10:18,-0.999194,-0.0795054,-9.77973,0.474251,-6.24455,90.8142
2023-02-16 21:43:10:28,-0.996328,-0.0868678,-9.75765,0.489173,-6.24894,90.813
2023-02-16 21:43:10:38,-0.994253,-0.084203,-9.72425,0.504314,-6.26194,90.809
2023-02-16 21:43:10:48,-1.0072,-0.105657,-9.68846,0.514665,-6.27893,90.804
2023-02-16 21:43:10:58,-1.03579,-0.112066,-9.65486,0.523774,-6.29874,90.7962
2023-02-16 21:43:10:68,-1.06605,-0.101252,-9.64883,0.528949,-6.31874,90.7942
2023-02-16 21:43:10:78,-1.05099,-0.0765458,-9.66882,0.526449,-6.34035,90.7896
2023-02-16 21:43:10:88,-1.04302,-0.046949,-9.70833,0.52222,-6.35909,90.7853
2023-02-16 21:43:10:98,-1.04339,-0.0231355,-9.73896,0.516128,-6.37972,90.7829
2023-02-16 21:43:10:108,-1.04314,-0.00207754,-9.77364,0.508475,-6.39566,90.785
2023-02-16 21:43:10:118,-1.06294,0.0232201,-9.79774,0.506603,-6.41475,90.7878
2023-02-16 21:43:10:128,-1.07003,0.0320705,-9.81426,0.508629,-6.42853,90.7936
2023-02-16 21:43:10:138,-1.08652,0.0222124,-9.82338,0.515687,-6.44079,90.8068
2023-02-16 21:43:10:148,-1.09972,0.00745658,-9.81245,0.530586,-6.44996,90.823
2023-02-16 21:43:10:158,-1.09584,-0.0131582,-9.79357,0.552666,-6.45783,90.8398
2023-02-16 21:43:10:168,-1.09534,-0.0370968,-9.77908,0.577583,-6.46248,90.8559
2023-02-16 21:43:10:178,-1.09588,-0.0618346,-9.75371,0.608425,-6.46666,90.8753
2023-02-16 21:43:10:188,-1.10115,-0.0907514,-9.72966,0.641936,-6.46838,90.8944
2023-02-16 21:43:10:198,-1.12504,-0.115513,-9.70599,0.673461,-6.46868,90.9177
2023-02-16 21:43:10:208,-1.14024,-0.129815,-9.73035,0.703702,-6.47274,90.9415
2023-02-16 21:43:10:218,-1.15807,-0.143269,-9.73788,0.733395,-6.47363,90.9643
2023-02-16 21:43:10:228,-1.1468,-0.154946,-9.72447,0.764664,-6.4744,90.9822
2023-02-16 21:43:10:238,-1.12421,-0.176087,-9.72241,0.79486,-6.47651,90.9948
2023-02-16 21:43:10:248,-1.09188,-0.187765,-9.73105,0.820436,-6.48007,91.0069
2023-02-16 21:43:10:258,-1.08945,-0.173855,-9.69519,0.846794,-6.48518,91.0147
2023-02-16 21:43:10:268,-1.10748,-0.179188,-9.64775,0.871675,-6.49812,91.0174
2023-02-16 21:43:10:278,-1.13374,-0.185839,-9.61465,0.888882,-6.51228,91.0176
2023-02-16 21:43:10:288,-1.15801,-0.168723,-9.59768,0.903957,-6.53042,91.0157
2023-02-16 21:43:10:298,-1.16488,-0.165776,-9.60006,0.916477,-6.54384,91.0173
2023-02-16 21:43:10:308,-1.16586,-0.159581,-9.60746,0.927588,-6.55535,91.0178
2023-02-16 21:43:10:318,-1.1801,-0.147417,-9.61971,0.927495,-6.56415,91.0187
2023-02-16 21:43:10:328,-1.18105,-0.137332,-9.64272,0.921059,-6.57517,91.02
2023-02-16 21:43:10:338,-1.18077,-0.134483,-9.6679,0.918294,-6.5812,91.0226
2023-02-16 21:43:10:348,-1.18235,-0.137357,-9.67679,0.91419,-6.58135,91.0213
2023-02-16 21:43:10:358,-1.17134,-0.129782,-9.68255,0.91047,-6.57871,91.0205
2023-02-16 21:43:10:368,-1.16886,-0.122371,-9.69924,0.904425,-6.5782,91.0207
2023-02-16 21:43:10:378,-1.15229,-0.132863,-9.70903,0.898721,-6.57482,91.0172
2023-02-16 21:43:10:388,-1.15057,-0.129124,-9.7231,0.892201,-6.56882,91.0164
2023-02-16 21:43:10:398,-1.14112,-0.121582,-9.73362,0.882535,-6.56084,91.0132
2023-02-16 21:43:10:408,-1.11774,-0.116069,-9.74242,0.876776,-6.55879,91.0028
2023-02-16 21:43:10:418,-1.09447,-0.116928,-9.76191,0.870492,-6.55587,90.9919
2023-02-16 21:43:10:428,-1.09502,-0.100146,-9.78934,0.86419,-6.55589,90.9818
2023-02-16 21:43:10:438,-1.07958,-0.101444,-9.80256,0.859463,-6.55936,90.9649
2023-02-16 21:43:10:448,-1.05668,-0.10615,-9.82137,0.858949,-6.56464,90.9531
2023-02-16 21:43:10:458,-1.06527,-0.108708,-9.80974,0.860044,-6.57002,90.9405
2023-02-16 21:43:10:468,-1.06806,-0.120521,-9.77183,0.865239,-6.57819,90.9316
2023-02-16 21:43:10:478,-1.06117,-0.140376,-9.73748,0.873541,-6.58637,90.9257
2023-02-16 21:43:10:488,-1.06123,-0.155743,-9.69276,0.882498,-6.59137,90.9228
2023-02-16 21:43:10:498,-1.07433,-0.178314,-9.65623,0.891438,-6.59026,90.9243
2023-02-16 21:43:10:508,-1.08405,-0.193629,-9.64558,0.901363,-6.59216,90.9282
2023-02-16 21:43:10:518,-1.10622,-0.188848,-9.63775,0.904471,-6.59123,90.9382
2023-02-16 21:43:10:528,-1.1172,-0.18833,-9.63204,0.907896,-6.58578,90.9516
2023-02-16 21:43:10:538,-1.12688,-0.165925,-9.62694,0.906711,-6.578,90.9686
2023-02-16 21:43:10:548,-1.14176,-0.169085,-9.64105,0.901227,-6.57043,90.9866
2023-02-16 21:43:10:558,-1.16418,-0.157902,-9.70669,0.893765,-6.56251,90.9992
2023-02-16 21:43:10:568,-1.15815,-0.145263,-9.7728,0.886789,-6.54969,91.0085
2023-02-16 21:43:10:578,-1.11812,-0.142365,-9.79449,0.883126,-6.53604,91.0106
2023-02-16 21:43:10:588,-1.06166,-0.137019,-9.8007,0.880427,-6.52878,91.0029
2023-02-16 21:43:10:598,-1.05599,-0.14271,-9.78013,0.882986,-6.52611,90.9934
2023-02-16 21:43:10:608,-1.08156,-0.158981,-9.72638,0.884971,-6.53525,90.9794
2023-02-16 21:43:10:618,-1.09781,-0.169299,-9.69182,0.883951,-6.54962,90.9635
2023-02-16 21:43:10:628,-1.11618,-0.161105,-9.67788,0.878851,-6.5593,90.9475
2023-02-16 21:43:10:638,-1.11639,-0.143806,-9.67017,0.867742,-6.56892,90.9328
2023-02-16 21:43:10:648,-1.09245,-0.129956,-9.68396,0.850265,-6.57606,90.9177
2023-02-16 21:43:10:658,-1.0789,-0.0983865,-9.72873,0.831686,-6.57659,90.9075
2023-02-16 21:43:10:668,-1.04937,-0.0647264,-9.7525,0.81062,-6.57722,90.8983
2023-02-16 21:43:10:678,-1.05033,-0.0461953,-9.79252,0.794587,-6.57515,90.8985
2023-02-16 21:43:10:688,-1.07017,-0.0331982,-9.81088,0.786074,-6.57119,90.9028
2023-02-16 21:43:10:698,-1.1118,-0.0253444,-9.79823,0.783803,-6.56397,90.9117
2023-02-16 21:43:10:708,-1.1356,-0.0480944,-9.78415,0.786821,-6.5552,90.9241
2023-02-16 21:43:10:718,-1.13268,-0.0686321,-9.76558,0.794688,-6.54078,90.9413
2023-02-16 21:43:10:728,-1.12779,-0.110581,-9.74773,0.810352,-6.52635,90.9569
2023-02-16 21:43:10:738,-1.12452,-0.144646,-9.71561,0.828183,-6.50749,90.9733
2023-02-16 21:43:10:748,-1.1229,-0.151276,-9.67713,0.843933,-6.48949,90.9865
2023-02-16 21:43:10:758,-1.12436,-0.175153,-9.66492,0.856773,-6.4724,90.998
2023-02-16 21:43:10:768,-1.11542,-0.183349,-9.64713,0.866191,-6.45747,91.003
2023-02-16 21:43:10:778,-1.13512,-0.18982,-9.66393,0.872774,-6.4454,91.0026
2023-02-16 21:43:10:788,-1.14746,-0.183742,-9.68567,0.873554,-6.43137,90.9982
2023-02-16 21:43:10:799,-1.13445,-0.176112,-9.72569,0.87405,-6.41994,90.9911
2023-02-16 21:43:10:808,-1.08784,-0.162097,-9.75108,0.871828,-6.41046,90.9746
2023-02-16 21:43:10:818,-1.05711,-0.145061,-9.74768,0.868208,-6.40434,90.9561
2023-02-16 21:43:10:828,-1.05261,-0.133859,-9.7511,0.861964,-6.39977,90.9347
2023-02-16 21:43:10:838,-1.04867,-0.133214,-9.72989,0.860116,-6.40172,90.912
2023-02-16 21:43:10:849,-1.04633,-0.132866,-9.70573,0.855349,-6.40159,90.8897
2023-02-16 21:43:10:858,-1.05648,-0.135147,-9.70975,0.848327,-6.3971,90.8655
2023-02-16 21:43:10:868,-1.03455,-0.127089,-9.69557,0.844318,-6.3948,90.8439
2023-02-16 21:43:10:878,-1.01206,-0.119291,-9.7042,0.835382,-6.38881,90.8256
2023-02-16 21:43:10:888,-0.996189,-0.104414,-9.72019,0.828173,-6.3816,90.8113
2023-02-16 21:43:10:898,-0.977411,-0.0841241,-9.73079,0.819822,-6.37466,90.8009
2023-02-16 21:43:10:909,-0.973572,-0.0906936,-9.77195,0.814501,-6.36804,90.7907
2023-02-16 21:43:10:918,-0.970426,-0.0806071,-9.78412,0.811393,-6.36348,90.7849
2023-02-16 21:43:10:929,-0.9745,-0.0904273,-9.77875,0.807499,-6.35795,90.7857
2023-02-16 21:43:10:939,-0.984983,-0.0865104,-9.78978,0.81024,-6.34723,90.7891
2023-02-16 21:43:10:949,-0.99268,-0.103338,-9.77801,0.816097,-6.33991,90.7958
2023-02-16 21:43:10:958,-1.0052,-0.109438,-9.74734,0.82306,-6.33647,90.8032
2023-02-16 21:43:10:968,-1.01533,-0.125484,-9.72718,0.830871,-6.337,90.8162
2023-02-16 21:43:10:979,-1.03054,-0.13462,-9.72633,0.838302,-6.33848,90.8233
2023-02-16 21:43:10:989,-1.03922,-0.134046,-9.72381,0.847032,-6.34245,90.832
2023-02-16 21:43:10:998,-1.05546,-0.130332,-9.70921,0.853288,-6.34604,90.8432
2023-02-16 21:43:11:8,-1.07904,-0.135524,-9.72623,0.855955,-6.35209,90.8498
2023-02-16 21:43:11:18,-1.08376,-0.119615,-9.73153,0.85809,-6.36107,90.8598
2023-02-16 21:43:11:28,-1.09522,-0.109976,-9.73876,0.860324,-6.37302,90.8623
2023-02-16 21:43:11:38,-1.11478,-0.100813,-9.73488,0.86364,-6.38792,90.8666
2023-02-16 21:43:11:48,-1.12814,-0.0979229,-9.74368,0.867531,-6.40254,90.872
2023-02-16 21:43:11:58,-1.13075,-0.10417,-9.74281,0.870471,-6.41549,90.8701
2023-02-16 21:43:11:68,-1.13887,-0.103435,-9.72025,0.877268,-6.42424,90.875
2023-02-16 21:43:11:78,-1.13093,-0.115147,-9.71118,0.882578,-6.43363,90.878
2023-02-16 21:43:11:88,-1.13203,-0.120753,-9.68956,0.890382,-6.44097,90.8804
2023-02-16 21:43:11:98,-1.14242,-0.134896,-9.69303,0.89579,-6.44236,90.8844
2023-02-16 21:43:11:109,-1.13572,-0.137529,-9.69194,0.907264,-6.44312,90.8885
2023-02-16 21:43:11:118,-1.12482,-0.143288,-9.68043,0.914878,-6.4426,90.8902
2023-02-16 21:43:11:128,-1.11331,-0.142713,-9.67958,0.922345,-6.43733,90.8953
2023-02-16 21:43:11:138,-1.11767,-0.15442,-9.66925,0.929859,-6.43335,90.8979
2023-02-16 21:43:11:148,-1.13522,-0.170676,-9.70728,0.936227,-6.42642,90.8985
2023-02-16 21:43:11:159,-1.15121,-0.165939,-9.75714,0.943929,-6.41945,90.8971
2023-02-16 21:43:11:169,-1.12647,-0.176588,-9.76692,0.952651,-6.40864,90.8914
2023-02-16 21:43:11:179,-1.05575,-0.188307,-9.76241,0.958391,-6.39702,90.8851
2023-02-16 21:43:11:188,-1.03386,-0.200461,-9.74934,0.964879,-6.38693,90.8731
2023-02-16 21:43:11:199,-1.05743,-0.209895,-9.70328,0.968909,-6.38513,90.8601
2023-02-16 21:43:11:209,-1.0397,-0.210394,-9.65468,0.970239,-6.38605,90.8476
2023-02-16 21:43:11:219,-1.0456,-0.198471,-9.62644,0.964745,-6.38949,90.8355
2023-02-16 21:43:11:229,-1.06801,-0.192708,-9.61617,0.955102,-6.38856,90.82
2023-02-16 21:43:11:238,-1.0597,-0.173007,-9.61903,0.94006,-6.38866,90.8064
2023-02-16 21:43:11:248,-1.03729,-0.146335,-9.65495,0.920701,-6.39013,90.7916
2023-02-16 21:43:11:258,-1.02749,-0.103611,-9.6973,0.897524,-6.38677,90.7815
2023-02-16 21:43:11:268,-1.01382,-0.0778173,-9.74229,0.869987,-6.3825,90.7729
2023-02-16 21:43:11:278,-1.0238,-0.0449166,-9.76905,0.84764,-6.38097,90.7668
2023-02-16 21:43:11:288,-1.04547,-0.0347361,-9.78828,0.833425,-6.37892,90.767
2023-02-16 21:43:11:298,-1.05147,-0.0287251,-9.78816,0.819422,-6.37346,90.7657
2023-02-16 21:43:11:308,-1.0616,-0.0589901,-9.80324,0.812032,-6.37095,90.7624
2023-02-16 21:43:11:318,-1.07003,-0.079222,-9.78577,0.813358,-6.36793,90.7558
2023-02-16 21:43:11:328,-1.07086,-0.10989,-9.77092,0.81577,-6.36811,90.7504
2023-02-16 21:43:11:338,-1.07518,-0.125998,-9.74896,0.822378,-6.36894,90.7443
2023-02-16 21:43:11:348,-1.07145,-0.136127,-9.73231,0.825173,-6.37087,90.7358
2023-02-16 21:43:11:358,-1.06019,-0.146757,-9.70811,0.830439,-6.37254,90.7241
2023-02-16 21:43:11:368,-1.0645,-0.16301,-9.70482,0.832706,-6.37793,90.7126
2023-02-16 21:43:11:378,-1.08273,-0.165583,-9.72539,0.831581,-6.38411,90.7016
2023-02-16 21:43:11:388,-1.09205,-0.148805,-9.73228,0.829414,-6.38911,90.6917
2023-02-16 21:43:11:398,-1.07279,-0.150144,-9.75105,0.824451,-6.39257,90.6782
2023-02-16 21:43:11:409,-1.03578,-0.140107,-9.75084,0.820438,-6.3944,90.6643
2023-02-16 21:43:11:418,-1.02862,-0.12615,-9.75058,0.814485,-6.39638,90.653
2023-02-16 21:43:11:428,-1.02481,-0.124786,-9.74511,0.810343,-6.40076,90.6424
2023-02-16 21:43:11:438,-1.02825,-0.105317,-9.72583,0.806808,-6.40642,90.6412
2023-02-16 21:43:11:448,-1.0554,-0.105694,-9.72132,0.803926,-6.41187,90.6408
2023-02-16 21:43:11:458,-1.08253,-0.100157,-9.70841,0.798654,-6.41635,90.6391
2023-02-16 21:43:11:468,-1.07724,-0.0914623,-9.70395,0.796123,-6.41946,90.6384
2023-02-16 21:43:11:478,-1.07209,-0.082427,-9.72824,0.794318,-6.41988,90.6397
2023-02-16 21:43:11:488,-1.06844,-0.0814307,-9.74475,0.792792,-6.41873,90.6431
2023-02-16 21:43:11:498,-1.05976,-0.08984,-9.76476,0.792198,-6.41467,90.6464
2023-02-16 21:43:11:508,-1.06548,-0.0886302,-9.7738,0.796054,-6.41325,90.6503
2023-02-16 21:43:11:518,-1.07537,-0.101789,-9.78491,0.800501,-6.41033,90.6548
2023-02-16 21:43:11:529,-1.07587,-0.113738,-9.78533,0.810839,-6.40838,90.6601
2023-02-16 21:43:11:538,-1.08973,-0.1249,-9.76639,0.821698,-6.40931,90.6637
2023-02-16 21:43:11:549,-1.11181,-0.13414,-9.73673,0.834101,-6.41049,90.6633
2023-02-16 21:43:11:559,-1.11436,-0.164035,-9.72503,0.846544,-6.41115,90.6661
2023-02-16 21:43:11:568,-1.1151,-0.168727,-9.70974,0.857014,-6.41461,90.6671
2023-02-16 21:43:11:579,-1.10299,-0.17473,-9.69888,0.867211,-6.41789,90.6685
2023-02-16 21:43:11:589,-1.10845,-0.177612,-9.69833,0.874371,-6.42204,90.6664
2023-02-16 21:43:11:598,-1.11016,-0.167637,-9.69365,0.876927,-6.42634,90.6637
2023-02-16 21:43:11:609,-1.0981,-0.16683,-9.71448,0.882494,-6.42934,90.6582
2023-02-16 21:43:11:618,-1.08168,-0.1636,-9.72286,0.887153,-6.43227,90.6506
2023-02-16 21:43:11:628,-1.06839,-0.156717,-9.71443,0.888153,-6.43287,90.6442
2023-02-16 21:43:11:638,-1.07181,-0.148989,-9.68992,0.895846,-6.4322,90.6405
2023-02-16 21:43:11:649,-1.06842,-0.156416,-9.69617,0.900478,-6.43031,90.6399
2023-02-16 21:43:11:659,-1.07176,-0.155716,-9.68867,0.904952,-6.42965,90.6379
2023-02-16 21:43:11:668,-1.07313,-0.159921,-9.68263,0.906328,-6.43014,90.6387
2023-02-16 21:43:11:678,-1.05942,-0.15963,-9.68772,0.907302,-6.42822,90.6423
2023-02-16 21:43:11:689,-1.06861,-0.156362,-9.71045,0.909151,-6.42362,90.6466
2023-02-16 21:43:11:698,-1.07469,-0.139315,-9.7138,0.906619,-6.41737,90.6519
2023-02-16 21:43:11:708,-1.07563,-0.129603,-9.72252,0.905853,-6.41126,90.6526
2023-02-16 21:43:11:718,-1.07765,-0.132291,-9.74862,0.90397,-6.40383,90.6579
2023-02-16 21:43:11:729,-1.09612,-0.119623,-9.76765,0.903359,-6.39544,90.6645
2023-02-16 21:43:11:738,-1.07595,-0.112766,-9.7739,0.90292,-6.38885,90.6689
2023-02-16 21:43:11:749,-1.06967,-0.110491,-9.74971,0.904878,-6.38292,90.673
2023-02-16 21:43:11:758,-1.08392,-0.132117,-9.71544,0.911117,-6.37467,90.6759
2023-02-16 21:43:11:769,-1.09121,-0.14206,-9.73123,0.919942,-6.37138,90.6752
2023-02-16 21:43:11:778,-1.11479,-0.153721,-9.77559,0.931636,-6.36693,90.6717
2023-02-16 21:43:11:789,-1.09108,-0.163162,-9.78472,0.941605,-6.36348,90.6662
2023-02-16 21:43:11:798,-1.03417,-0.180837,-9.76225,0.951179,-6.36231,90.6554
2023-02-16 21:43:11:809,-1.01244,-0.198954,-9.7318,0.961666,-6.36515,90.6417
2023-02-16 21:43:11:818,-1.03368,-0.201927,-9.70081,0.971385,-6.37281,90.6262
2023-02-16 21:43:11:828,-1.03406,-0.204722,-9.65777,0.975553,-6.38231,90.608
2023-02-16 21:43:11:838,-1.04675,-0.205107,-9.6552,0.974,-6.38891,90.5944
2023-02-16 21:43:11:848,-1.04405,-0.196546,-9.65755,0.968647,-6.39388,90.585
2023-02-16 21:43:11:859,-1.03017,-0.165597,-9.66839,0.954267,-6.39706,90.5759
2023-02-16 21:43:11:869,-1.01531,-0.129328,-9.70623,0.938774,-6.39662,90.5701
2023-02-16 21:43:11:878,-1.0073,-0.102832,-9.74281,0.92131,-6.39831,90.5653
2023-02-16 21:43:11:889,-1.01443,-0.0806249,-9.75298,0.904204,-6.39844,90.5676
2023-02-16 21:43:11:899,-1.03137,-0.06053,-9.77637,0.888514,-6.39583,90.5713
2023-02-16 21:43:11:909,-1.0474,-0.0489436,-9.77999,0.87757,-6.39247,90.5766
2023-02-16 21:43:11:919,-1.06772,-0.0523856,-9.75744,0.87228,-6.38949,90.5851
2023-02-16 21:43:11:928,-1.06907,-0.0719663,-9.7497,0.868307,-6.38761,90.5967
2023-02-16 21:43:11:939,-1.08026,-0.0919179,-9.76864,0.874963,-6.38265,90.609
2023-02-16 21:43:11:949,-1.07111,-0.104281,-9.78125,0.881721,-6.37728,90.6186
2023-02-16 21:43:11:959,-1.0656,-0.124568,-9.77163,0.890447,-6.36994,90.6291
2023-02-16 21:43:11:969,-1.05778,-0.146796,-9.76478,0.900072,-6.37343,90.6353
2023-02-16 21:43:11:979,-1.07135,-0.156302,-9.75947,0.90798,-6.37202,90.6372
2023-02-16 21:43:11:989,-1.06485,-0.172936,-9.75443,0.914335,-6.37696,90.6398
2023-02-16 21:43:11:999,-1.06463,-0.197547,-9.74433,0.916895,-6.3836,90.6421
2023-02-16 21:43:12:9,-1.07473,-0.19526,-9.74862,0.917685,-6.38887,90.6452
2023-02-16 21:43:12:19,-1.06612,-0.196704,-9.74878,0.913352,-6.39624,90.6406
2023-02-16 21:43:12:29,-1.06852,-0.208234,-9.74715,0.908428,-6.40333,90.6375
2023-02-16 21:43:12:39,-1.07661,-0.186743,-9.74605,0.901137,-6.41195,90.6357
2023-02-16 21:43:12:49,-1.07073,-0.17026,-9.71916,0.893272,-6.41833,90.6348
2023-02-16 21:43:12:59,-1.07191,-0.141982,-9.67011,0.886089,-6.42839,90.6326
2023-02-16 21:43:12:69,-1.10974,-0.132085,-9.62197,0.878585,-6.43463,90.6292
2023-02-16 21:43:12:78,-1.13084,-0.120889,-9.57262,0.86997,-6.44331,90.6273
2023-02-16 21:43:12:89,-1.13252,-0.124906,-9.5635,0.855851,-6.4511,90.6244
2023-02-16 21:43:12:99,-1.14635,-0.0857931,-9.58489,0.840153,-6.45389,90.6194
2023-02-16 21:43:12:109,-1.15144,-0.0876286,-9.56746,0.823366,-6.45738,90.615
2023-02-16 21:43:12:118,-1.14398,-0.11211,-9.62339,0.80439,-6.46185,90.6082
2023-02-16 21:43:12:129,-1.14091,-0.0612959,-9.67675,0.783387,-6.46243,90.6
2023-02-16 21:43:12:139,-1.12668,-0.0575269,-9.7295,0.767566,-6.46016,90.5874
2023-02-16 21:43:12:149,-1.12691,-0.0601426,-9.81851,0.750483,-6.45714,90.575
2023-02-16 21:43:12:159,-1.12232,-0.0405947,-9.79975,0.738955,-6.45094,90.5604
2023-02-16 21:43:12:169,-1.10051,-0.063833,-9.8307,0.728599,-6.44056,90.5442
2023-02-16 21:43:12:179,-1.08188,-0.0397234,-9.83451,0.720028,-6.42962,90.531
2023-02-16 21:43:12:189,-1.07027,-0.0646152,-9.8091,0.716537,-6.42147,90.5134
2023-02-16 21:43:12:198,-1.07212,-0.0524365,-9.81043,0.711182,-6.40992,90.4984
2023-02-16 21:43:12:208,-1.05385,-0.04321,-9.81019,0.707871,-6.4022,90.4845
2023-02-16 21:43:12:219,-1.03105,-0.0386394,-9.8012,0.703892,-6.39491,90.4703
2023-02-16 21:43:12:229,-1.0271,-0.0457889,-9.76201,0.701052,-6.38453,90.4585
2023-02-16 21:43:12:239,-1.02549,-0.0299098,-9.76129,0.696192,-6.37529,90.4469
2023-02-16 21:43:12:249,-1.018,-0.0144801,-9.75706,0.691692,-6.36482,90.4404
2023-02-16 21:43:12:258,-1.03252,0.00909183,-9.78713,0.690547,-6.3576,90.4341
2023-02-16 21:43:12:269,-1.04023,0.0170944,-9.78815,0.693149,-6.35063,90.4282
2023-02-16 21:43:12:279,-1.04843,0.0221753,-9.79458,0.70259,-6.34233,90.4232
2023-02-16 21:43:12:289,-1.03493,0.0162726,-9.81206,0.715276,-6.33595,90.4156
2023-02-16 21:43:12:299,-1.02116,0.0166109,-9.81042,0.736142,-6.32633,90.4131
2023-02-16 21:43:12:309,-1.01538,-0.021229,-9.80007,0.76273,-6.32054,90.4118
2023-02-16 21:43:12:319,-1.01833,-0.0519208,-9.75727,0.795747,-6.31088,90.4094
2023-02-16 21:43:12:329,-1.01615,-0.108141,-9.77024,0.829809,-6.30355,90.4068
2023-02-16 21:43:12:338,-1.0068,-0.120202,-9.74447,0.869422,-6.29976,90.4072
2023-02-16 21:43:12:349,-1.0049,-0.143712,-9.7262,0.906354,-6.29738,90.4109
2023-02-16 21:43:12:358,-0.995669,-0.167102,-9.70385,0.944844,-6.29472,90.4153
2023-02-16 21:43:12:369,-1.00437,-0.17851,-9.72684,0.979722,-6.28983,90.4214
2023-02-16 21:43:12:379,-1.01352,-0.201247,-9.74277,1.0178,-6.28788,90.4294
2023-02-16 21:43:12:389,-1.02944,-0.209733,-9.78225,1.0523,-6.29272,90.4395
2023-02-16 21:43:12:399,-1.03524,-0.212252,-9.76498,1.09138,-6.29405,90.4477
2023-02-16 21:43:12:409,-1.02171,-0.23867,-9.74023,1.12917,-6.28916,90.461
2023-02-16 21:43:12:419,-1.04263,-0.245037,-9.70233,1.16891,-6.28989,90.4747
2023-02-16 21:43:12:429,-1.04432,-0.250424,-9.65246,1.20737,-6.28674,90.4869
2023-02-16 21:43:12:439,-1.05462,-0.276409,-9.64255,1.24471,-6.28484,90.4984
2023-02-16 21:43:12:449,-1.07427,-0.279797,-9.67009,1.27874,-6.28163,90.5099
2023-02-16 21:43:12:459,-1.05567,-0.307777,-9.681,1.31029,-6.27908,90.5197
2023-02-16 21:43:12:469,-1.00256,-0.316598,-9.67428,1.34245,-6.27823,90.525
2023-02-16 21:43:12:479,-0.95817,-0.297564,-9.71379,1.36978,-6.27852,90.5275
2023-02-16 21:43:12:489,-0.974197,-0.304588,-9.67796,1.39526,-6.285,90.5311
2023-02-16 21:43:12:498,-1.04272,-0.330405,-9.6018,1.42218,-6.29465,90.5381
2023-02-16 21:43:12:508,-1.08905,-0.34511,-9.61399,1.44054,-6.30729,90.5516
2023-02-16 21:43:12:518,-1.09372,-0.347611,-9.5951,1.45506,-6.31853,90.5613
2023-02-16 21:43:12:529,-1.08596,-0.349097,-9.56977,1.46382,-6.32476,90.5727
2023-02-16 21:43:12:539,-1.0977,-0.342635,-9.55288,1.4581,-6.33176,90.5812
2023-02-16 21:43:12:549,-1.10307,-0.332535,-9.56286,1.44768,-6.33868,90.5897
2023-02-16 21:43:12:559,-1.10586,-0.294055,-9.60417,1.43388,-6.34384,90.5963
2023-02-16 21:43:12:569,-1.10188,-0.257,-9.6436,1.41156,-6.34739,90.6025
2023-02-16 21:43:12:578,-1.12909,-0.25117,-9.68619,1.38965,-6.35027,90.6053
2023-02-16 21:43:12:589,-1.13599,-0.236085,-9.71541,1.37068,-6.35324,90.6062
2023-02-16 21:43:12:599,-1.14676,-0.235755,-9.72431,1.35562,-6.35518,90.6083
2023-02-16 21:43:12:609,-1.1496,-0.234031,-9.74961,1.34209,-6.35431,90.6075
2023-02-16 21:43:12:619,-1.13831,-0.226169,-9.76015,1.32957,-6.35431,90.6047
2023-02-16 21:43:12:629,-1.13177,-0.230094,-9.75963,1.31716,-6.34927,90.6023
2023-02-16 21:43:12:639,-1.10825,-0.239896,-9.77411,1.31066,-6.34289,90.595
2023-02-16 21:43:12:649,-1.10047,-0.246277,-9.7602,1.3001,-6.33829,90.5859
2023-02-16 21:43:12:659,-1.06779,-0.237518,-9.74907,1.28874,-6.32798,90.5749
2023-02-16 21:43:12:669,-1.05791,-0.223338,-9.76133,1.27617,-6.31852,90.5622
2023-02-16 21:43:12:678,-1.07374,-0.212685,-9.7824,1.26469,-6.31053,90.5486
2023-02-16 21:43:12:688,-1.07149,-0.18187,-9.77885,1.25009,-6.2984,90.5368
2023-02-16 21:43:12:698,-1.03922,-0.15628,-9.7992,1.23555,-6.28838,90.5248
2023-02-16 21:43:12:709,-0.997909,-0.151855,-9.81004,1.22613,-6.27701,90.5071
2023-02-16 21:43:12:718,-0.984196,-0.15084,-9.81441,1.21577,-6.27163,90.4903
2023-02-16 21:43:12:729,-0.964346,-0.142694,-9.78811,1.21152,-6.26301,90.4773
2023-02-16 21:43:12:739,-0.953637,-0.151858,-9.76083,1.21142,-6.2573,90.4632
2023-02-16 21:43:12:749,-0.972125,-0.162009,-9.73551,1.21461,-6.25441,90.4507
2023-02-16 21:43:12:759,-0.981159,-0.154847,-9.72117,1.21827,-6.25358,90.4394
2023-02-16 21:43:12:769,-0.968099,-0.166678,-9.72782,1.21746,-6.2601,90.4294
2023-02-16 21:43:12:779,-0.963635,-0.157276,-9.72532,1.21975,-6.2624,90.4267
2023-02-16 21:43:12:789,-0.970475,-0.167367,-9.73356,1.22055,-6.26501,90.4278
2023-02-16 21:43:12:799,-0.968801,-0.16287,-9.74309,1.22326,-6.26489,90.4306
2023-02-16 21:43:12:809,-0.975598,-0.155175,-9.75353,1.22858,-6.26629,90.4383
2023-02-16 21:43:12:819,-0.986387,-0.164308,-9.76221,1.23721,-6.26577,90.4488
2023-02-16 21:43:12:829,-0.996073,-0.184768,-9.77402,1.24646,-6.27091,90.4615
2023-02-16 21:43:12:839,-1.02112,-0.180527,-9.76363,1.25826,-6.2765,90.4744
2023-02-16 21:43:12:849,-1.03468,-0.199453,-9.75317,1.26824,-6.28325,90.4916
2023-02-16 21:43:12:859,-1.05578,-0.218195,-9.72883,1.27991,-6.28989,90.5053
2023-02-16 21:43:12:869,-1.06724,-0.236285,-9.69357,1.29453,-6.29975,90.5194
2023-02-16 21:43:12:879,-1.07907,-0.247035,-9.68349,1.30538,-6.31151,90.5316
2023-02-16 21:43:12:889,-1.08561,-0.243828,-9.67232,1.31537,-6.3213,90.5429
2023-02-16 21:43:12:899,-1.08432,-0.248178,-9.66525,1.3186,-6.33489,90.5539
2023-02-16 21:43:12:909,-1.08266,-0.243607,-9.67552,1.32001,-6.34828,90.562
2023-02-16 21:43:12:919,-1.08782,-0.237253,-9.67249,1.32349,-6.36347,90.5695
2023-02-16 21:43:12:929,-1.09663,-0.241419,-9.68219,1.32138,-6.37888,90.5758
2023-02-16 21:43:12:939,-1.10435,-0.24094,-9.69202,1.31919,-6.39292,90.5825
2023-02-16 21:43:12:949,-1.10947,-0.23244,-9.68114,1.31338,-6.40649,90.5891
2023-02-16 21:43:12:959,-1.11029,-0.231577,-9.68373,1.31158,-6.41658,90.5986
2023-02-16 21:43:12:969,-1.11906,-0.239161,-9.68895,1.30932,-6.42588,90.6062
2023-02-16 21:43:12:979,-1.11813,-0.234274,-9.67909,1.30671,-6.43714,90.6156
2023-02-16 21:43:12:989,-1.13163,-0.238464,-9.68136,1.29773,-6.44499,90.6225
2023-02-16 21:43:12:999,-1.13065,-0.235862,-9.6662,1.28921,-6.45048,90.6329
2023-02-16 21:43:13:9,-1.12414,-0.227226,-9.66941,1.28108,-6.45067,90.6413
2023-02-16 21:43:13:19,-1.12313,-0.215801,-9.66452,1.26732,-6.45603,90.6504
2023-02-16 21:43:13:29,-1.12313,-0.220086,-9.66888,1.2534,-6.4563,90.6536
2023-02-16 21:43:13:39,-1.12427,-0.2268,-9.67687,1.2371,-6.45873,90.6583
2023-02-16 21:43:13:49,-1.12583,-0.216576,-9.66076,1.22111,-6.46156,90.6598
2023-02-16 21:43:13:59,-1.14015,-0.205863,-9.67413,1.20141,-6.46654,90.6584
2023-02-16 21:43:13:69,-1.13986,-0.194045,-9.69059,1.18304,-6.46652,90.6562
2023-02-16 21:43:13:79,-1.13715,-0.191973,-9.69249,1.1594,-6.46797,90.6503
2023-02-16 21:43:13:89,-1.1288,-0.183367,-9.7203,1.13268,-6.46555,90.6452
2023-02-16 21:43:13:99,-1.12127,-0.173316,-9.7481,1.10849,-6.46263,90.6369
2023-02-16 21:43:13:109,-1.11521,-0.161048,-9.77898,1.08168,-6.45681,90.6308
2023-02-16 21:43:13:119,-1.10519,-0.144855,-9.76918,1.05671,-6.45086,90.6228
2023-02-16 21:43:13:129,-1.09754,-0.139039,-9.78472,1.03321,-6.44223,90.6154
2023-02-16 21:43:13:139,-1.1068,-0.131877,-9.78076,1.01222,-6.43513,90.6085
2023-02-16 21:43:13:149,-1.11126,-0.130305,-9.80555,0.99794,-6.42765,90.6013
2023-02-16 21:43:13:159,-1.11614,-0.132722,-9.8481,0.986593,-6.41454,90.5947
2023-02-16 21:43:13:169,-1.08084,-0.150133,-9.83101,0.978594,-6.39783,90.5865
2023-02-16 21:43:13:179,-1.03256,-0.156594,-9.78847,0.977738,-6.38358,90.576
2023-02-16 21:43:13:189,-1.01299,-0.168003,-9.75128,0.979174,-6.37443,90.5633
2023-02-16 21:43:13:199,-1.0029,-0.194073,-9.70208,0.98049,-6.37119,90.552
2023-02-16 21:43:13:209,-1.0163,-0.203075,-9.65239,0.97763,-6.37354,90.5398
2023-02-16 21:43:13:219,-1.0336,-0.202345,-9.62998,0.968433,-6.37375,90.5246
2023-02-16 21:43:13:229,-1.03253,-0.186279,-9.63591,0.951081,-6.37731,90.5136
2023-02-16 21:43:13:239,-1.04419,-0.170478,-9.66517,0.930023,-6.38201,90.5043
2023-02-16 21:43:13:249,-1.03125,-0.137898,-9.69347,0.908286,-6.38355,90.4928
2023-02-16 21:43:13:259,-1.00567,-0.106996,-9.72132,0.882925,-6.38878,90.4881
2023-02-16 21:43:13:269,-0.997157,-0.0803155,-9.74435,0.85691,-6.38781,90.4857
2023-02-16 21:43:13:279,-1.00209,-0.054296,-9.7592,0.830284,-6.38693,90.4903
2023-02-16 21:43:13:289,-1.02131,-0.0366404,-9.76566,0.808324,-6.38899,90.4985
2023-02-16 21:43:13:299,-1.0462,-0.0231318,-9.76985,0.789312,-6.38938,90.5091
2023-02-16 21:43:13:309,-1.05978,-0.0266795,-9.77164,0.772085,-6.38776,90.5192
2023-02-16 21:43:13:319,-1.07307,-0.0250102,-9.76217,0.759711,-6.3836,90.5299
2023-02-16 21:43:13:329,-1.0768,-0.0334328,-9.76257,0.752369,-6.38104,90.5425
2023-02-16 21:43:13:339,-1.08886,-0.0431912,-9.75908,0.748213,-6.37457,90.5551
2023-02-16 21:43:13:349,-1.09608,-0.0409982,-9.76542,0.743333,-6.3679,90.5654
2023-02-16 21:43:13:359,-1.10832,-0.043287,-9.77032,0.742875,-6.36548,90.5747
2023-02-16 21:43:13:369,-1.10033,-0.0426848,-9.76521,0.741222,-6.36436,90.5874
2023-02-16 21:43:13:379,-1.10858,-0.0535638,-9.79257,0.741365,-6.36069,90.5933
2023-02-16 21:43:13:389,-1.12098,-0.0602662,-9.79842,0.748084,-6.36005,90.5952
2023-02-16 21:43:13:399,-1.11956,-0.0607747,-9.78107,0.754965,-6.36029,90.5923
2023-02-16 21:43:13:409,-1.09206,-0.0589117,-9.77016,0.76008,-6.36258,90.587
2023-02-16 21:43:13:419,-1.07139,-0.0610797,-9.77167,0.766233,-6.36225,90.5797
2023-02-16 21:43:13:429,-1.05667,-0.0595417,-9.78075,0.77414,-6.36966,90.5691
2023-02-16 21:43:13:439,-1.03967,-0.05756,-9.75392,0.782802,-6.3776,90.555
2023-02-16 21:43:13:449,-1.03238,-0.0568537,-9.73533,0.790958,-6.38193,90.5426
2023-02-16 21:43:13:459,-1.04282,-0.0667523,-9.72941,0.795929,-6.38849,90.5306
2023-02-16 21:43:13:469,-1.06372,-0.0781678,-9.72768,0.80393,-6.39617,90.5245
2023-02-16 21:43:13:479,-1.06577,-0.0749783,-9.71908,0.814623,-6.40046,90.515
2023-02-16 21:43:13:489,-1.0617,-0.0783945,-9.71522,0.823608,-6.40248,90.5095
2023-02-16 21:43:13:499,-1.05029,-0.0941354,-9.72978,0.834722,-6.40142,90.5066
2023-02-16 21:43:13:509,-1.04642,-0.103244,-9.73676,0.845517,-6.40018,90.5077
2023-02-16 21:43:13:519,-1.04873,-0.099187,-9.7301,0.858461,-6.39678,90.5127
2023-02-16 21:43:13:529,-1.06077,-0.118044,-9.72112,0.87773,-6.39415,90.518
2023-02-16 21:43:13:539,-1.07118,-0.133739,-9.72847,0.894574,-6.39139,90.526
2023-02-16 21:43:13:549,-1.08996,-0.155464,-9.72728,0.911565,-6.38701,90.5314
2023-02-16 21:43:13:559,-1.09596,-0.162704,-9.71987,0.928061,-6.38732,90.5372
2023-02-16 21:43:13:569,-1.09093,-0.157638,-9.69748,0.943223,-6.38708,90.5431
2023-02-16 21:43:13:579,-1.09392,-0.166447,-9.69619,0.956827,-6.38541,90.5435
2023-02-16 21:43:13:589,-1.11077,-0.180373,-9.70291,0.968177,-6.3871,90.5427
2023-02-16 21:43:13:599,-1.10324,-0.200725,-9.70175,0.975899,-6.38828,90.5374
2023-02-16 21:43:13:609,-1.09246,-0.202899,-9.70348,0.986707,-6.3912,90.5294
2023-02-16 21:43:13:619,-1.06959,-0.204235,-9.71174,0.996127,-6.38957,90.5191
2023-02-16 21:43:13:629,-1.07407,-0.209946,-9.71378,1.00507,-6.39425,90.506
2023-02-16 21:43:13:639,-1.0725,-0.199249,-9.69916,1.01322,-6.40469,90.4911
2023-02-16 21:43:13:649,-1.07177,-0.196982,-9.70672,1.01779,-6.41096,90.4798
2023-02-16 21:43:13:659,-1.07656,-0.199453,-9.71502,1.01792,-6.41588,90.4719
2023-02-16 21:43:13:669,-1.07353,-0.192543,-9.73392,1.02064,-6.42179,90.4609
2023-02-16 21:43:13:679,-1.08769,-0.191767,-9.74636,1.02327,-6.42902,90.4526
2023-02-16 21:43:13:689,-1.09594,-0.175825,-9.73758,1.0257,-6.43398,90.4473
2023-02-16 21:43:13:699,-1.07433,-0.170765,-9.73742,1.03179,-6.43871,90.4425
2023-02-16 21:43:13:709,-1.05248,-0.174086,-9.7223,1.03483,-6.44104,90.4386
2023-02-16 21:43:13:719,-1.05982,-0.183711,-9.7328,1.04064,-6.44375,90.4353
2023-02-16 21:43:13:729,-1.0743,-0.188232,-9.71526,1.044,-6.44385,90.4333
2023-02-16 21:43:13:739,-1.07894,-0.19708,-9.70868,1.04884,-6.44532,90.4314
2023-02-16 21:43:13:749,-1.08912,-0.202362,-9.69622,1.05496,-6.44913,90.428
2023-02-16 21:43:13:759,-1.10953,-0.196313,-9.70066,1.05942,-6.45436,90.4296
2023-02-16 21:43:13:769,-1.10455,-0.187196,-9.70408,1.06192,-6.45495,90.428
2023-02-16 21:43:13:779,-1.11631,-0.192221,-9.71059,1.0626,-6.45606,90.4269
2023-02-16 21:43:13:789,-1.12706,-0.187134,-9.73598,1.06628,-6.45915,90.4224
2023-02-16 21:43:13:799,-1.10665,-0.1815,-9.73452,1.06908,-6.45619,90.4181
2023-02-16 21:43:13:809,-1.09984,-0.192909,-9.75847,1.07281,-6.45194,90.4141
2023-02-16 21:43:13:819,-1.09102,-0.187202,-9.75714,1.07739,-6.44548,90.4054
2023-02-16 21:43:13:829,-1.10134,-0.214808,-9.71882,1.0889,-6.43914,90.4029
2023-02-16 21:43:13:839,-1.12017,-0.215487,-9.76416,1.09478,-6.43173,90.4022
2023-02-16 21:43:13:849,-1.10779,-0.226796,-9.78582,1.1033,-6.42616,90.3968
2023-02-16 21:43:13:859,-1.06271,-0.249215,-9.75419,1.11616,-6.41238,90.3872
2023-02-16 21:43:13:869,-1.01047,-0.264063,-9.71774,1.12981,-6.40686,90.3749
2023-02-16 21:43:13:879,-0.995074,-0.273854,-9.69935,1.13998,-6.40197,90.3643
2023-02-16 21:43:13:889,-1.00177,-0.287103,-9.64955,1.14439,-6.40487,90.3552
2023-02-16 21:43:13:899,-1.01251,-0.26947,-9.60846,1.13995,-6.41079,90.3455
2023-02-16 21:43:13:909,-1.03472,-0.253593,-9.59629,1.13133,-6.41684,90.3376
2023-02-16 21:43:13:919,-1.0555,-0.236215,-9.60761,1.11619,-6.42336,90.3318
2023-02-16 21:43:13:929,-1.05048,-0.209084,-9.64505,1.09555,-6.42666,90.3287
2023-02-16 21:43:13:939,-1.04133,-0.177814,-9.68701,1.07249,-6.42598,90.3285
2023-02-16 21:43:13:949,-1.03761,-0.147479,-9.71399,1.04929,-6.42415,90.3313
2023-02-16 21:43:13:959,-1.04965,-0.112042,-9.73409,1.02412,-6.4245,90.3374
2023-02-16 21:43:13:969,-1.05695,-0.0976011,-9.7426,1.00201,-6.42033,90.3474
2023-02-16 21:43:13:979,-1.09803,-0.102601,-9.74353,0.981008,-6.41529,90.3621
2023-02-16 21:43:13:989,-1.10487,-0.0997022,-9.74185,0.964638,-6.41258,90.3752
2023-02-16 21:43:13:999,-1.10461,-0.106458,-9.74441,0.950596,-6.40449,90.3863
2023-02-16 21:43:14:9,-1.10316,-0.107432,-9.73558,0.940827,-6.39771,90.4016
2023-02-16 21:43:14:19,-1.10606,-0.117027,-9.73217,0.934602,-6.39132,90.4107
2023-02-16 21:43:14:29,-1.10623,-0.127291,-9.7533,0.929781,-6.38448,90.4176
2023-02-16 21:43:14:39,-1.10346,-0.119346,-9.75264,0.921036,-6.3774,90.4216
2023-02-16 21:43:14:49,-1.08718,-0.117455,-9.75753,0.911209,-6.372,90.4221
2023-02-16 21:43:14:59,-1.09253,-0.11903,-9.76411,0.902709,-6.36785,90.4201
2023-02-16 21:43:14:69,-1.10179,-0.0979167,-9.78077,0.895422,-6.36588,90.4207
2023-02-16 21:43:14:79,-1.09054,-0.102283,-9.79628,0.888617,-6.36068,90.4162
2023-02-16 21:43:14:89,-1.07549,-0.101385,-9.78491,0.881661,-6.35381,90.4125
2023-02-16 21:43:14:99,-1.0546,-0.108396,-9.77009,0.878374,-6.34677,90.4036
2023-02-16 21:43:14:109,-1.00863,-0.109059,-9.76488,0.876443,-6.34288,90.3939
2023-02-16 21:43:14:119,-0.980792,-0.110963,-9.74301,0.876444,-6.34331,90.3818
2023-02-16 21:43:14:129,-0.97893,-0.126592,-9.73232,0.875671,-6.34058,90.3685
2023-02-16 21:43:14:139,-0.982937,-0.13174,-9.71383,0.874401,-6.34306,90.3558
2023-02-16 21:43:14:149,-1.00668,-0.129176,-9.69192,0.872135,-6.34817,90.3471
2023-02-16 21:43:14:159,-1.0222,-0.129494,-9.69086,0.869327,-6.3528,90.3379
2023-02-16 21:43:14:169,-1.02137,-0.124722,-9.70616,0.864347,-6.35541,90.3357
2023-02-16 21:43:14:179,-1.01808,-0.116264,-9.72174,0.857448,-6.35471,90.335
2023-02-16 21:43:14:189,-1.00805,-0.117569,-9.72532,0.851738,-6.34969,90.3343
2023-02-16 21:43:14:199,-1.02006,-0.113894,-9.7365,0.846692,-6.34948,90.3406
2023-02-16 21:43:14:209,-1.03994,-0.100851,-9.72832,0.841831,-6.34794,90.3458
2023-02-16 21:43:14:219,-1.04799,-0.107005,-9.74614,0.838751,-6.34771,90.3542
2023-02-16 21:43:14:229,-1.05193,-0.114096,-9.74014,0.836068,-6.35163,90.3634
2023-02-16 21:43:14:239,-1.06922,-0.118376,-9.72225,0.834063,-6.35739,90.373
2023-02-16 21:43:14:249,-1.08658,-0.119912,-9.73334,0.836619,-6.35998,90.3819
2023-02-16 21:43:14:259,-1.09776,-0.112416,-9.74803,0.836829,-6.36414,90.3916
2023-02-16 21:43:14:269,-1.0946,-0.111509,-9.75545,0.834405,-6.36828,90.3951
2023-02-16 21:43:14:279,-1.09589,-0.112154,-9.75616,0.831316,-6.37497,90.3982
2023-02-16 21:43:14:289,-1.10502,-0.111715,-9.75055,0.832583,-6.38596,90.4004
2023-02-16 21:43:14:299,-1.10106,-0.111135,-9.748,0.833521,-6.3935,90.4002
2023-02-16 21:43:14:309,-1.09809,-0.114848,-9.76173,0.832494,-6.39917,90.3982
2023-02-16 21:43:14:319,-1.08137,-0.102112,-9.7644,0.831854,-6.40681,90.3975
2023-02-16 21:43:14:329,-1.08177,-0.11002,-9.78164,0.834995,-6.41094,90.3947
2023-02-16 21:43:14:339,-1.08588,-0.111796,-9.77242,0.84395,-6.41515,90.3928
2023-02-16 21:43:14:349,-1.07701,-0.107969,-9.75492,0.857049,-6.41964,90.3933
2023-02-16 21:43:14:359,-1.07056,-0.122145,-9.73268,0.871572,-6.4218,90.3929
2023-02-16 21:43:14:369,-1.08698,-0.136919,-9.71417,0.885557,-6.4249,90.3921
2023-02-16 21:43:14:379,-1.10016,-0.15981,-9.68803,0.898859,-6.42362,90.3954
2023-02-16 21:43:14:389,-1.08289,-0.176355,-9.67206,0.908854,-6.42374,90.3992
2023-02-16 21:43:14:399,-1.08145,-0.158538,-9.66916,0.919855,-6.42444,90.4019
2023-02-16 21:43:14:409,-1.10461,-0.16321,-9.66102,0.926014,-6.42348,90.4022
2023-02-16 21:43:14:419,-1.11027,-0.164065,-9.66729,0.931608,-6.42357,90.4033
2023-02-16 21:43:14:429,-1.11974,-0.144372,-9.69082,0.930863,-6.42305,90.4048
2023-02-16 21:43:14:439,-1.10965,-0.137316,-9.70176,0.931263,-6.4247,90.4037
2023-02-16 21:43:14:449,-1.11268,-0.145449,-9.73756,0.92938,-6.4241,90.4019
2023-02-16 21:43:14:459,-1.12498,-0.125373,-9.75328,0.9298,-6.42261,90.3976
2023-02-16 21:43:14:469,-1.11195,-0.114882,-9.75509,0.931531,-6.41764,90.3921
2023-02-16 21:43:14:479,-1.09939,-0.117928,-9.7561,0.931848,-6.41277,90.3841
2023-02-16 21:43:14:489,-1.07445,-0.131765,-9.72213,0.931753,-6.40596,90.3771
2023-02-16 21:43:14:499,-1.08684,-0.160829,-9.73727,0.936102,-6.40381,90.3679
2023-02-16 21:43:14:509,-1.11055,-0.168979,-9.76319,0.939075,-6.39736,90.3553
2023-02-16 21:43:14:519,-1.08835,-0.183098,-9.77633,0.947202,-6.39337,90.341
2023-02-16 21:43:14:529,-1.03059,-0.21064,-9.76455,0.95227,-6.38866,90.3244
2023-02-16 21:43:14:539,-0.997932,-0.228108,-9.73412,0.958246,-6.37884,90.3049
2023-02-16 21:43:14:549,-0.99319,-0.223121,-9.75278,0.961473,-6.37843,90.288
2023-02-16 21:43:14:559,-0.987238,-0.219472,-9.71691,0.958365,-6.38337,90.2751
2023-02-16 21:43:14:569,-1.00633,-0.210678,-9.67747,0.953677,-6.38435,90.2662
2023-02-16 21:43:14:579,-1.04336,-0.188847,-9.63086,0.942436,-6.38712,90.2631
2023-02-16 21:43:14:589,-1.07771,-0.166191,-9.60221,0.924929,-6.38428,90.2632
2023-02-16 21:43:14:599,-1.09263,-0.110029,-9.63723,0.90034,-6.38333,90.2648
2023-02-16 21:43:14:609,-1.1018,-0.0514135,-9.69733,0.874713,-6.38529,90.2631
2023-02-16 21:43:14:619,-1.09109,0.0137621,-9.7497,0.844727,-6.38752,90.2642
2023-02-16 21:43:14:629,-1.11267,0.0642242,-9.76459,0.821177,-6.3855,90.2635
2023-02-16 21:43:14:639,-1.14086,0.0615851,-9.78286,0.804274,-6.38549,90.2608
2023-02-16 21:43:14:649,-1.15617,0.0429912,-9.78156,0.795981,-6.37918,90.2602
2023-02-16 21:43:14:659,-1.15587,0.0526522,-9.76603,0.792252,-6.37292,90.2592
2023-02-16 21:43:14:669,-1.13432,0.0138557,-9.76606,0.799601,-6.36615,90.2545
2023-02-16 21:43:14:679,-1.13653,-0.00850191,-9.7238,0.813823,-6.35312,90.2466
2023-02-16 21:43:14:689,-1.12941,-0.0584776,-9.73807,0.825978,-6.34178,90.2424
2023-02-16 21:43:14:699,-1.12672,-0.077574,-9.76081,0.841354,-6.32634,90.2312
2023-02-16 21:43:14:709,-1.12563,-0.0803383,-9.72477,0.859659,-6.30803,90.2219
2023-02-16 21:43:14:719,-1.1116,-0.124185,-9.74563,0.875534,-6.29126,90.2078
2023-02-16 21:43:14:729,-1.10671,-0.104757,-9.74237,0.890287,-6.27182,90.194
2023-02-16 21:43:14:739,-1.10282,-0.12428,-9.79961,0.904575,-6.25108,90.1735
2023-02-16 21:43:14:749,-1.06576,-0.115247,-9.79452,0.916787,-6.22965,90.1509
2023-02-16 21:43:14:759,-1.03403,-0.142051,-9.8,0.929334,-6.21,90.1253
2023-02-16 21:43:14:769,-1.00851,-0.135146,-9.78999,0.941079,-6.18788,90.0973
2023-02-16 21:43:14:779,-0.969211,-0.153308,-9.76637,0.953695,-6.16753,90.0686
2023-02-16 21:43:14:789,-0.949442,-0.134995,-9.7424,0.963272,-6.14709,90.0431
2023-02-16 21:43:14:799,-0.915822,-0.145523,-9.70626,0.975844,-6.13025,90.0185
2023-02-16 21:43:14:809,-0.89374,-0.142075,-9.67656,0.981532,-6.11537,89.9956
2023-02-16 21:43:14:819,-0.879472,-0.146395,-9.69713,0.991478,-6.10016,89.9768
2023-02-16 21:43:14:829,-0.88064,-0.138141,-9.71827,0.996411,-6.08663,89.9627
2023-02-16 21:43:14:839,-0.879545,-0.141489,-9.73636,1.00337,-6.07629,89.949
2023-02-16 21:43:14:849,-0.8789,-0.120925,-9.76203,1.01245,-6.07016,89.9406
2023-02-16 21:43:14:859,-0.878422,-0.132555,-9.78382,1.02263,-6.0665,89.9394
2023-02-16 21:43:14:869,-0.897205,-0.12761,-9.79614,1.03459,-6.06486,89.9366
2023-02-16 21:43:14:879,-0.928686,-0.1592,-9.79492,1.05081,-6.06899,89.9394
2023-02-16 21:43:14:889,-0.944702,-0.161631,-9.77681,1.07159,-6.07219,89.945
2023-02-16 21:43:14:899,-0.939152,-0.205275,-9.79101,1.08958,-6.0741,89.9494
2023-02-16 21:43:14:909,-0.950175,-0.217121,-9.73621,1.11206,-6.08496,89.9523
2023-02-16 21:43:14:919,-0.966443,-0.265068,-9.72566,1.13447,-6.09278,89.9616
2023-02-16 21:43:14:929,-0.964773,-0.281441,-9.67626,1.16031,-6.10734,89.9683
2023-02-16 21:43:14:939,-0.976027,-0.303046,-9.64981,1.17957,-6.12341,89.9784
2023-02-16 21:43:14:949,-1.00309,-0.30608,-9.63661,1.19222,-6.14069,89.986
2023-02-16 21:43:14:959,-1.01821,-0.309304,-9.63782,1.19862,-6.1572,89.9969
2023-02-16 21:43:14:969,-1.02634,-0.305619,-9.65821,1.20237,-6.17811,90.0045
2023-02-16 21:43:14:979,-1.05145,-0.268938,-9.66185,1.19945,-6.19824,90.0126
2023-02-16 21:43:14:989,-1.06306,-0.261323,-9.67151,1.194,-6.21801,90.0247
2023-02-16 21:43:14:999,-1.07096,-0.248186,-9.67247,1.19061,-6.23903,90.034
2023-02-16 21:43:15:9,-1.07705,-0.242934,-9.68728,1.18345,-6.25787,90.0441
2023-02-16 21:43:15:19,-1.09031,-0.221465,-9.68864,1.17503,-6.27562,90.053
2023-02-16 21:43:15:29,-1.09394,-0.220274,-9.6899,1.17132,-6.29645,90.0675
2023-02-16 21:43:15:39,-1.09869,-0.233179,-9.68979,1.16547,-6.3156,90.0814
2023-02-16 21:43:15:49,-1.10951,-0.236306,-9.69932,1.15551,-6.33509,90.0964
2023-02-16 21:43:15:59,-1.12219,-0.237177,-9.71768,1.1495,-6.35181,90.1096
2023-02-16 21:43:15:69,-1.15082,-0.22048,-9.71333,1.14212,-6.36204,90.1288
2023-02-16 21:43:15:79,-1.17083,-0.225808,-9.71716,1.13311,-6.37561,90.1486
2023-02-16 21:43:15:89,-1.1705,-0.229038,-9.74051,1.12818,-6.38234,90.1618
2023-02-16 21:43:15:99,-1.18824,-0.215701,-9.74616,1.12303,-6.38539,90.1756
2023-02-16 21:43:15:109,-1.17567,-0.223017,-9.74949,1.11708,-6.38433,90.1875
2023-02-16 21:43:15:119,-1.17164,-0.220494,-9.72423,1.113,-6.38014,90.1954
2023-02-16 21:43:15:129,-1.18532,-0.209924,-9.69428,1.10817,-6.37874,90.2012
2023-02-16 21:43:15:139,-1.17708,-0.213257,-9.66952,1.10716,-6.37033,90.2013
2023-02-16 21:43:15:149,-1.17535,-0.21871,-9.70116,1.10771,-6.36304,90.1972
2023-02-16 21:43:15:159,-1.16876,-0.225441,-9.74209,1.10876,-6.3554,90.1908
2023-02-16 21:43:15:169,-1.11973,-0.250655,-9.74523,1.10982,-6.34232,90.1768
2023-02-16 21:43:15:179,-1.03997,-0.252083,-9.73757,1.11441,-6.32732,90.1628
2023-02-16 21:43:15:189,-0.999361,-0.242718,-9.74202,1.11567,-6.31562,90.1418
2023-02-16 21:43:15:199,-0.994006,-0.240811,-9.72358,1.11135,-6.30865,90.122
2023-02-16 21:43:15:209,-0.995348,-0.231252,-9.70049,1.10473,-6.30521,90.1025
2023-02-16 21:43:15:219,-1.02752,-0.218674,-9.70005,1.08738,-6.30351,90.0832
2023-02-16 21:43:15:229,-1.0372,-0.192919,-9.72751,1.06866,-6.30132,90.0676
2023-02-16 21:43:15:239,-1.01048,-0.150449,-9.74237,1.04213,-6.29765,90.0522
2023-02-16 21:43:15:249,-1.00213,-0.11791,-9.76477,1.01237,-6.29123,90.0407
2023-02-16 21:43:15:259,-0.97985,-0.0728003,-9.78,0.985218,-6.28517,90.0326
2023-02-16 21:43:15:269,-0.95878,-0.0420598,-9.77633,0.955682,-6.2773,90.0277
2023-02-16 21:43:15:279,-0.974776,-0.0224584,-9.78039,0.934622,-6.27234,90.0283
2023-02-16 21:43:15:289,-1.00138,-0.0104379,-9.78983,0.915403,-6.26526,90.0325
2023-02-16 21:43:15:299,-1.00184,-0.0101668,-9.77604,0.905389,-6.25564,90.0396
2023-02-16 21:43:15:309,-1.00455,-0.0205452,-9.77003,0.902009,-6.25018,90.0489
2023-02-16 21:43:15:319,-1.0139,-0.032031,-9.77199,0.90086,-6.24195,90.0641
2023-02-16 21:43:15:329,-1.02326,-0.0542372,-9.76131,0.906454,-6.23602,90.0739
2023-02-16 21:43:15:339,-1.04549,-0.0642872,-9.76394,0.91262,-6.23251,90.0844
2023-02-16 21:43:15:349,-1.05848,-0.0992636,-9.7655,0.919857,-6.22987,90.0974
2023-02-16 21:43:15:359,-1.05576,-0.111462,-9.74672,0.932622,-6.22942,90.1063
2023-02-16 21:43:15:369,-1.06968,-0.12429,-9.72517,0.94433,-6.22998,90.1136
2023-02-16 21:43:15:379,-1.08904,-0.135317,-9.71947,0.952376,-6.23106,90.1205
2023-02-16 21:43:15:389,-1.09186,-0.137181,-9.72235,0.95931,-6.2339,90.1246
2023-02-16 21:43:15:399,-1.07286,-0.144811,-9.71447,0.961932,-6.23507,90.1231
2023-02-16 21:43:15:409,-1.06317,-0.144935,-9.72075,0.964272,-6.23449,90.118
2023-02-16 21:43:15:419,-1.05301,-0.143779,-9.72727,0.964946,-6.2392,90.1114
2023-02-16 21:43:15:429,-1.02914,-0.133209,-9.70972,0.963255,-6.24144,90.1056
2023-02-16 21:43:15:439,-1.04164,-0.132191,-9.69166,0.958233,-6.24243,90.0948
2023-02-16 21:43:15:449,-1.04068,-0.12307,-9.68344,0.953453,-6.24673,90.0879
2023-02-16 21:43:15:459,-1.03236,-0.104397,-9.68508,0.948282,-6.24978,90.0812
2023-02-16 21:43:15:469,-1.04221,-0.113246,-9.68793,0.94075,-6.25021,90.0758
2023-02-16 21:43:15:479,-1.03518,-0.119266,-9.69958,0.93005,-6.24803,90.0727
2023-02-16 21:43:15:489,-1.02523,-0.111048,-9.6951,0.921314,-6.24506,90.0696
2023-02-16 21:43:15:499,-1.01441,-0.115771,-9.70509,0.913908,-6.24275,90.0677
2023-02-16 21:43:15:509,-1.01471,-0.111708,-9.70876,0.909177,-6.23868,90.0691
2023-02-16 21:43:15:519,-0.994723,-0.108757,-9.72189,0.900624,-6.23362,90.0738
2023-02-16 21:43:15:529,-0.990012,-0.113393,-9.74147,0.892505,-6.22996,90.0804
2023-02-16 21:43:15:539,-0.989209,-0.102104,-9.74324,0.888054,-6.22508,90.0815
2023-02-16 21:43:15:549,-1.0136,-0.104005,-9.77016,0.882398,-6.22249,90.0847
2023-02-16 21:43:15:559,-1.0235,-0.108129,-9.77378,0.877775,-6.22511,90.0882
2023-02-16 21:43:15:569,-1.02826,-0.112417,-9.7685,0.872485,-6.22613,90.0915
2023-02-16 21:43:15:579,-1.03563,-0.124501,-9.77567,0.870791,-6.22995,90.0937
2023-02-16 21:43:15:589,-1.04744,-0.123128,-9.78384,0.871337,-6.2329,90.0952
2023-02-16 21:43:15:599,-1.04749,-0.109606,-9.76654,0.868962,-6.23957,90.0932
2023-02-16 21:43:15:609,-1.05032,-0.123254,-9.75816,0.869474,-6.2476,90.0894
2023-02-16 21:43:15:619,-1.04355,-0.132678,-9.75445,0.866887,-6.25385,90.085
2023-02-16 21:43:15:629,-1.04972,-0.131937,-9.76145,0.863616,-6.25755,90.0838
2023-02-16 21:43:15:639,-1.0514,-0.11699,-9.7469,0.862615,-6.26095,90.0828
2023-02-16 21:43:15:649,-1.04572,-0.120411,-9.75408,0.860747,-6.26589,90.0805
2023-02-16 21:43:15:659,-1.05205,-0.11925,-9.73836,0.861231,-6.26665,90.0797
2023-02-16 21:43:15:669,-1.05215,-0.124684,-9.72551,0.865361,-6.27141,90.0789
2023-02-16 21:43:15:679,-1.05969,-0.128362,-9.71356,0.87144,-6.27536,90.0812
2023-02-16 21:43:15:689,-1.06418,-0.147466,-9.70603,0.87405,-6.27973,90.0814
2023-02-16 21:43:15:699,-1.07079,-0.158223,-9.70737,0.875755,-6.28211,90.0816
2023-02-16 21:43:15:709,-1.05692,-0.1568,-9.7003,0.877526,-6.28229,90.0857
2023-02-16 21:43:15:719,-1.06543,-0.162909,-9.69167,0.879437,-6.28361,90.0922
2023-02-16 21:43:15:729,-1.06708,-0.164019,-9.70024,0.878193,-6.28528,90.0931
2023-02-16 21:43:15:739,-1.06774,-0.14573,-9.73035,0.874193,-6.28559,90.0962
2023-02-16 21:43:15:749,-1.06583,-0.147701,-9.76713,0.873378,-6.28077,90.1002
2023-02-16 21:43:15:759,-1.05438,-0.151058,-9.76634,0.872076,-6.27772,90.1036
2023-02-16 21:43:15:769,-1.04984,-0.141011,-9.75345,0.871378,-6.27192,90.1074
2023-02-16 21:43:15:779,-1.06298,-0.152904,-9.74579,0.876496,-6.26455,90.11
2023-02-16 21:43:15:789,-1.07757,-0.161576,-9.7572,0.878592,-6.26267,90.1115
2023-02-16 21:43:15:799,-1.09057,-0.165928,-9.80038,0.887416,-6.25777,90.11
2023-02-16 21:43:15:809,-1.05883,-0.187714,-9.79971,0.899856,-6.2502,90.1134
2023-02-16 21:43:15:819,-0.983942,-0.204035,-9.75812,0.910331,-6.24384,90.1099
2023-02-16 21:43:15:829,-0.954694,-0.220415,-9.72166,0.924858,-6.24337,90.1043
2023-02-16 21:43:15:839,-0.985826,-0.246711,-9.66829,0.934737,-6.25235,90.1009
2023-02-16 21:43:15:849,-0.996048,-0.256699,-9.62228,0.940861,-6.26433,90.0946
2023-02-16 21:43:15:859,-1.01599,-0.260008,-9.61362,0.936791,-6.2773,90.089
2023-02-16 21:43:15:869,-1.05663,-0.251751,-9.62167,0.930791,-6.29116,90.089
2023-02-16 21:43:15:879,-1.06492,-0.218932,-9.63782,0.915642,-6.30039,90.0889
2023-02-16 21:43:15:889,-1.04566,-0.192283,-9.66559,0.895958,-6.30512,90.0936
2023-02-16 21:43:15:899,-1.03237,-0.163784,-9.68227,0.874104,-6.30846,90.0993
2023-02-16 21:43:15:909,-1.02093,-0.139392,-9.68063,0.847604,-6.31338,90.1092
2023-02-16 21:43:15:919,-1.02001,-0.118156,-9.70218,0.819502,-6.31261,90.1214
2023-02-16 21:43:15:929,-1.0342,-0.105902,-9.70331,0.795722,-6.3122,90.1334
2023-02-16 21:43:15:939,-1.06025,-0.0892148,-9.68949,0.772563,-6.3135,90.1508
2023-02-16 21:43:15:949,-1.07616,-0.0833205,-9.69357,0.748855,-6.31333,90.1691
2023-02-16 21:43:15:959,-1.09499,-0.0866397,-9.7074,0.726897,-6.31218,90.1856
2023-02-16 21:43:15:969,-1.10747,-0.0784373,-9.73449,0.70616,-6.31074,90.1995
2023-02-16 21:43:15:979,-1.10723,-0.0772549,-9.77833,0.687542,-6.30629,90.2115
2023-02-16 21:43:15:990,-1.10289,-0.0641987,-9.79045,0.668038,-6.30329,90.2213
2023-02-16 21:43:15:999,-1.10894,-0.0705815,-9.78573,0.650816,-6.29991,90.2326
2023-02-16 21:43:16:9,-1.11925,-0.077872,-9.78453,0.636417,-6.29631,90.2378
2023-02-16 21:43:16:19,-1.11593,-0.0761612,-9.81249,0.624551,-6.29688,90.2396
2023-02-16 21:43:16:29,-1.09266,-0.0764558,-9.83124,0.614317,-6.29358,90.2347
2023-02-16 21:43:16:39,-1.04956,-0.0827265,-9.80455,0.606247,-6.28961,90.2293
2023-02-16 21:43:16:50,-1.03721,-0.0987085,-9.76783,0.59988,-6.28417,90.2214
2023-02-16 21:43:16:59,-1.0124,-0.107603,-9.71676,0.590899,-6.28187,90.2101
2023-02-16 21:43:16:69,-0.995381,-0.102612,-9.69448,0.584749,-6.28576,90.1908
2023-02-16 21:43:16:79,-1.0001,-0.0887763,-9.66788,0.57226,-6.29832,90.1746
2023-02-16 21:43:16:89,-1.00992,-0.0854725,-9.6544,0.555331,-6.31221,90.1581
2023-02-16 21:43:16:99,-1.02724,-0.0695448,-9.67784,0.538195,-6.32812,90.1405
2023-02-16 21:43:16:110,-1.02589,-0.045775,-9.68268,0.515687,-6.34476,90.1227
2023-02-16 21:43:16:119,-1.02179,-0.0223836,-9.70622,0.491204,-6.35756,90.106
2023-02-16 21:43:16:129,-1.02048,-0.0193774,-9.72207,0.469143,-6.36745,90.0883
2023-02-16 21:43:16:139,-1.01083,0.00400005,-9.73681,0.446515,-6.38011,90.0757
2023-02-16 21:43:16:149,-0.979618,0.0107146,-9.762,0.426872,-6.38727,90.0688
2023-02-16 21:43:16:160,-0.977198,0.0130538,-9.77065,0.411066,-6.39342,90.0686
2023-02-16 21:43:16:170,-0.989172,0.00677099,-9.77389,0.397068,-6.40283,90.0705
2023-02-16 21:43:16:179,-1.0006,-0.0041318,-9.77324,0.382791,-6.40908,90.0775
2023-02-16 21:43:16:189,-1.02467,0.00635904,-9.75713,0.368918,-6.41757,90.0908
2023-02-16 21:43:16:199,-1.03839,-0.00402343,-9.76193,0.358807,-6.42547,90.1041
2023-02-16 21:43:16:210,-1.08436,-0.00538604,-9.77995,0.349963,-6.43591,90.1253
2023-02-16 21:43:16:219,-1.1028,0.00177012,-9.78653,0.34361,-6.44758,90.1488
2023-02-16 21:43:16:229,-1.09623,-0.00245209,-9.77286,0.338276,-6.45197,90.1706
2023-02-16 21:43:16:239,-1.11896,0.0168477,-9.77426,0.333462,-6.45609,90.1936
2023-02-16 21:43:16:250,-1.13545,0.0243302,-9.80067,0.327999,-6.46406,90.2181
2023-02-16 21:43:16:260,-1.13981,0.011803,-9.80332,0.325647,-6.46748,90.2419
2023-02-16 21:43:16:269,-1.15856,0.0201025,-9.79692,0.328019,-6.47361,90.2622
2023-02-16 21:43:16:280,-1.1739,0.00890151,-9.79329,0.332566,-6.48213,90.2804
2023-02-16 21:43:16:289,-1.18533,0.000918662,-9.7571,0.34548,-6.48973,90.2975
2023-02-16 21:43:16:300,-1.19342,0.00305327,-9.7291,0.357515,-6.49781,90.3123
2023-02-16 21:43:16:309,-1.19025,-0.0172379,-9.73025,0.369321,-6.50636,90.318
2023-02-16 21:43:16:319,-1.19441,-0.038346,-9.71274,0.379427,-6.51562,90.3213
2023-02-16 21:43:16:329,-1.18008,-0.0567968,-9.69405,0.392228,-6.52403,90.3222
2023-02-16 21:43:16:340,-1.17963,-0.069336,-9.69854,0.407223,-6.52836,90.3151
2023-02-16 21:43:16:350,-1.1667,-0.0686183,-9.67879,0.421488,-6.53511,90.3077
2023-02-16 21:43:16:360,-1.14941,-0.0633515,-9.66268,0.43009,-6.53876,90.3017
2023-02-16 21:43:16:370,-1.14785,-0.0731652,-9.67742,0.438842,-6.54236,90.2947
2023-02-16 21:43:16:380,-1.13716,-0.0671985,-9.69428,0.446458,-6.54269,90.287
2023-02-16 21:43:16:390,-1.1148,-0.0636583,-9.71457,0.453667,-6.54321,90.2808
2023-02-16 21:43:16:400,-1.10456,-0.0609799,-9.74172,0.459739,-6.54069,90.2749
2023-02-16 21:43:16:410,-1.09115,-0.0551901,-9.75066,0.464993,-6.53311,90.2689
2023-02-16 21:43:16:419,-1.0919,-0.0616619,-9.74802,0.471989,-6.52484,90.2673
2023-02-16 21:43:16:430,-1.08596,-0.0694277,-9.75697,0.484237,-6.51018,90.2692
2023-02-16 21:43:16:439,-1.09278,-0.0907697,-9.71735,0.496451,-6.49954,90.2737
2023-02-16 21:43:16:449,-1.11171,-0.103159,-9.72196,0.509387,-6.48247,90.2781
2023-02-16 21:43:16:459,-1.13176,-0.101021,-9.76567,0.522097,-6.4643,90.2876
2023-02-16 21:43:16:469,-1.09868,-0.126471,-9.76199,0.533607,-6.44674,90.2924
2023-02-16 21:43:16:479,-1.0496,-0.146287,-9.75599,0.550342,-6.42881,90.2914
2023-02-16 21:43:16:489,-1.02891,-0.143739,-9.73869,0.564449,-6.41191,90.2907
2023-02-16 21:43:16:499,-1.02646,-0.15434,-9.71017,0.576265,-6.40063,90.2872
2023-02-16 21:43:16:510,-1.03498,-0.163597,-9.67303,0.587999,-6.39502,90.2823
2023-02-16 21:43:16:519,-1.07085,-0.165624,-9.65309,0.595924,-6.39072,90.2765
2023-02-16 21:43:16:529,-1.09371,-0.15363,-9.64561,0.598808,-6.3916,90.2696
2023-02-16 21:43:16:539,-1.09486,-0.133563,-9.63231,0.595614,-6.38924,90.265
2023-02-16 21:43:16:549,-1.08629,-0.115447,-9.63305,0.587555,-6.38371,90.258
2023-02-16 21:43:16:559,-1.06242,-0.109727,-9.65158,0.576908,-6.37634,90.249
2023-02-16 21:43:16:570,-1.04868,-0.086009,-9.65412,0.561641,-6.36916,90.2421
2023-02-16 21:43:16:579,-1.03666,-0.0542069,-9.67843,0.546208,-6.36009,90.2344
2023-02-16 21:43:16:589,-1.05721,-0.0330415,-9.68774,0.525427,-6.35011,90.2302
2023-02-16 21:43:16:599,-1.07552,-0.0191532,-9.71545,0.508465,-6.33815,90.2284
2023-02-16 21:43:16:609,-1.07858,-0.0124835,-9.72324,0.496044,-6.32825,90.2232
2023-02-16 21:43:16:619,-1.07737,-0.00917611,-9.73115,0.484781,-6.32117,90.2184
2023-02-16 21:43:16:629,-1.07198,-0.00998401,-9.75327,0.476065,-6.30857,90.2132
2023-02-16 21:43:16:639,-1.0724,-0.00574347,-9.77463,0.470672,-6.29782,90.2063
2023-02-16 21:43:16:650,-1.06016,-0.0087062,-9.78546,0.467208,-6.28279,90.198
2023-02-16 21:43:16:660,-1.04072,-0.0194575,-9.78764,0.462995,-6.26771,90.1869
2023-02-16 21:43:16:670,-1.0255,-0.0387864,-9.78956,0.462359,-6.25424,90.1761
2023-02-16 21:43:16:680,-1.01934,-0.0306892,-9.821,0.462314,-6.24133,90.1685
2023-02-16 21:43:16:690,-1.01548,-0.0292445,-9.83119,0.46409,-6.22865,90.1562
2023-02-16 21:43:16:700,-1.00237,-0.0285893,-9.83044,0.463239,-6.2143,90.1432
2023-02-16 21:43:16:710,-0.980581,-0.0270475,-9.82913,0.471335,-6.20361,90.1263
2023-02-16 21:43:16:719,-0.962039,-0.0430502,-9.81545,0.477939,-6.19479,90.1093
2023-02-16 21:43:16:730,-0.940423,-0.0427249,-9.785,0.486667,-6.18313,90.0947
2023-02-16 21:43:16:740,-0.929137,-0.0496928,-9.76463,0.497514,-6.17844,90.0799
2023-02-16 21:43:16:749,-0.934753,-0.0594334,-9.73798,0.506692,-6.17685,90.0677
2023-02-16 21:43:16:760,-0.959548,-0.0528429,-9.71414,0.515392,-6.17461,90.0599
2023-02-16 21:43:16:770,-0.967517,-0.0709186,-9.70821,0.528128,-6.17384,90.0511
2023-02-16 21:43:16:780,-0.971667,-0.0869572,-9.71847,0.540022,-6.17099,90.0484
2023-02-16 21:43:16:790,-0.967368,-0.0860248,-9.71234,0.552096,-6.16762,90.0431
2023-02-16 21:43:16:799,-0.96918,-0.0904281,-9.71126,0.562575,-6.16556,90.046
2023-02-16 21:43:16:810,-0.974435,-0.100381,-9.7333,0.575145,-6.16113,90.0502
2023-02-16 21:43:16:820,-0.973414,-0.105893,-9.7414,0.58412,-6.15905,90.0505
2023-02-16 21:43:16:830,-0.981782,-0.114786,-9.75012,0.598947,-6.15377,90.0519
2023-02-16 21:43:16:840,-0.979635,-0.116098,-9.74372,0.615108,-6.15424,90.0554
2023-02-16 21:43:16:849,-0.982976,-0.12283,-9.73335,0.629581,-6.15155,90.0598
2023-02-16 21:43:16:859,-0.991721,-0.138138,-9.73213,0.63851,-6.1526,90.0637
2023-02-16 21:43:16:870,-0.998049,-0.15674,-9.73302,0.650081,-6.15786,90.0676
2023-02-16 21:43:16:880,-0.996615,-0.151675,-9.73108,0.661355,-6.1601,90.068
2023-02-16 21:43:16:889,-1.00787,-0.154988,-9.74393,0.669377,-6.16485,90.0699
2023-02-16 21:43:16:900,-1.01189,-0.145475,-9.74727,0.681359,-6.17,90.0681
