Timestamp,Acceleration_x,Acceleration_y,Acceleration_z,roll,pitch,yaw
2023-02-16 22:49:29:572,-0.613222,0.313448,-9.62714,-2.15403,-3.85174,-43.1297
2023-02-16 22:49:29:581,-0.610776,0.304284,-9.63029,-2.09269,-3.84403,-43.1587
2023-02-16 22:49:29:591,-0.604791,0.294958,-9.64475,-2.04528,-3.83422,-43.1831
2023-02-16 22:49:29:601,-0.615584,0.288141,-9.67512,-1.99913,-3.82666,-43.2054
2023-02-16 22:49:29:611,-0.618519,0.275182,-9.70213,-1.95323,-3.8172,-43.2273
2023-02-16 22:49:29:621,-0.637792,0.258167,-9.72408,-1.90801,-3.80677,-43.2476
2023-02-16 22:49:29:631,-0.637373,0.253501,-9.74678,-1.86391,-3.79686,-43.2687
2023-02-16 22:49:29:641,-0.632478,0.245028,-9.74444,-1.81742,-3.78922,-43.2884
2023-02-16 22:49:29:651,-0.620442,0.219511,-9.73787,-1.77275,-3.77935,-43.3048
2023-02-16 22:49:29:661,-0.588842,0.184512,-9.7243,-1.7254,-3.76997,-43.322
2023-02-16 22:49:29:671,-0.588195,0.1704,-9.71483,-1.68108,-3.76015,-43.3361
2023-02-16 22:49:29:681,-0.596594,0.143014,-9.72036,-1.63841,-3.74942,-43.3514
2023-02-16 22:49:29:691,-0.579314,0.144864,-9.7311,-1.60012,-3.73811,-43.3672
2023-02-16 22:49:29:701,-0.539892,0.146491,-9.76106,-1.56167,-3.72894,-43.382
2023-02-16 22:49:29:711,-0.522658,0.145068,-9.75896,-1.52656,-3.7185,-43.3919
2023-02-16 22:49:29:721,-0.536298,0.144447,-9.7559,-1.49309,-3.7119,-43.396
2023-02-16 22:49:29:731,-0.564432,0.165908,-9.76845,-1.46619,-3.71069,-43.3964
2023-02-16 22:49:29:741,-0.590862,0.157038,-9.78282,-1.44115,-3.70502,-43.3959
2023-02-16 22:49:29:751,-0.629194,0.148512,-9.7849,-1.41231,-3.70417,-43.3971
2023-02-16 22:49:29:761,-0.641852,0.146211,-9.78045,-1.38239,-3.70147,-43.3995
2023-02-16 22:49:29:771,-0.623638,0.140783,-9.769,-1.34944,-3.68953,-43.4037
2023-02-16 22:49:29:781,-0.602529,0.123103,-9.72402,-1.31578,-3.67642,-43.4049
2023-02-16 22:49:29:791,-0.565027,0.110094,-9.67727,-1.2862,-3.65761,-43.4047
2023-02-16 22:49:29:801,-0.544421,0.117229,-9.66826,-1.25592,-3.6389,-43.4051
2023-02-16 22:49:29:811,-0.516426,0.131089,-9.7217,-1.23418,-3.62261,-43.4021
2023-02-16 22:49:29:821,-0.512056,0.136588,-9.76764,-1.21472,-3.60815,-43.3962
2023-02-16 22:49:29:831,-0.533429,0.14733,-9.76706,-1.19625,-3.59778,-43.3891
2023-02-16 22:49:29:841,-0.554138,0.161389,-9.78242,-1.18,-3.58785,-43.3866
2023-02-16 22:49:29:851,-0.579723,0.182835,-9.77641,-1.16076,-3.58426,-43.3845
2023-02-16 22:49:29:861,-0.628795,0.185882,-9.75262,-1.14212,-3.5801,-43.3835
2023-02-16 22:49:29:871,-0.640442,0.177203,-9.7032,-1.11951,-3.57361,-43.3827
2023-02-16 22:49:29:881,-0.637674,0.176854,-9.65502,-1.10148,-3.56803,-43.3871
2023-02-16 22:49:29:891,-0.628389,0.172615,-9.6327,-1.08388,-3.56204,-43.387
2023-02-16 22:49:29:901,-0.612763,0.168953,-9.61027,-1.0768,-3.55467,-43.3894
2023-02-16 22:49:29:911,-0.599747,0.161847,-9.6176,-1.07618,-3.5483,-43.3911
2023-02-16 22:49:29:921,-0.574396,0.177985,-9.6569,-1.08251,-3.54029,-43.3875
2023-02-16 22:49:29:931,-0.581084,0.209175,-9.69797,-1.09157,-3.53613,-43.3847
2023-02-16 22:49:29:941,-0.585668,0.255764,-9.76811,-1.10906,-3.53469,-43.3864
2023-02-16 22:49:29:951,-0.579134,0.301746,-9.82498,-1.12392,-3.53367,-43.3875
2023-02-16 22:49:29:961,-0.592576,0.334568,-9.83076,-1.13387,-3.53199,-43.3905
2023-02-16 22:49:29:971,-0.623462,0.341164,-9.8265,-1.14,-3.52968,-43.3967
2023-02-16 22:49:29:981,-0.645411,0.341805,-9.8141,-1.14439,-3.53145,-43.4038
2023-02-16 22:49:29:991,-0.65694,0.324121,-9.78832,-1.14388,-3.53183,-43.4118
2023-02-16 22:49:30:1,-0.639408,0.305826,-9.77146,-1.13965,-3.53071,-43.4226
2023-02-16 22:49:30:11,-0.597683,0.283498,-9.748,-1.14213,-3.52969,-43.4317
2023-02-16 22:49:30:21,-0.577085,0.250203,-9.71031,-1.14399,-3.53093,-43.4395
2023-02-16 22:49:30:31,-0.571222,0.264325,-9.69949,-1.14798,-3.53636,-43.4438
2023-02-16 22:49:30:41,-0.567616,0.296973,-9.72752,-1.16047,-3.54468,-43.4487
2023-02-16 22:49:30:51,-0.600129,0.305462,-9.78923,-1.16879,-3.5546,-43.4549
2023-02-16 22:49:30:61,-0.63595,0.325067,-9.85421,-1.17338,-3.56028,-43.4625
2023-02-16 22:49:30:71,-0.615723,0.335178,-9.906,-1.17425,-3.56936,-43.4696
2023-02-16 22:49:30:81,-0.608626,0.327532,-9.92016,-1.16981,-3.57751,-43.4746
2023-02-16 22:49:30:91,-0.642953,0.279621,-9.88262,-1.15206,-3.58534,-43.4776
2023-02-16 22:49:30:101,-0.693622,0.256934,-9.89034,-1.13488,-3.5941,-43.4813
2023-02-16 22:49:30:111,-0.692985,0.249652,-9.90864,-1.10512,-3.59642,-43.4914
2023-02-16 22:49:30:121,-0.632471,0.203919,-9.86586,-1.07261,-3.59487,-43.5007
2023-02-16 22:49:30:131,-0.530672,0.158771,-9.83114,-1.03301,-3.59528,-43.51
2023-02-16 22:49:30:141,-0.487804,0.123555,-9.7953,-0.998731,-3.60238,-43.5171
2023-02-16 22:49:30:151,-0.518831,0.105278,-9.73101,-0.968668,-3.61783,-43.5183
2023-02-16 22:49:30:161,-0.532676,0.089453,-9.67252,-0.941472,-3.63737,-43.5209
2023-02-16 22:49:30:171,-0.574567,0.0708321,-9.62102,-0.919145,-3.66067,-43.5152
2023-02-16 22:49:30:181,-0.647082,0.0747133,-9.59187,-0.904284,-3.68514,-43.5115
2023-02-16 22:49:30:191,-0.68375,0.0861606,-9.59164,-0.902761,-3.71063,-43.508
2023-02-16 22:49:30:201,-0.68059,0.103137,-9.58461,-0.907236,-3.73037,-43.4985
2023-02-16 22:49:30:211,-0.694007,0.130401,-9.60319,-0.921055,-3.74868,-43.4853
2023-02-16 22:49:30:221,-0.7202,0.146855,-9.63043,-0.941179,-3.76002,-43.4686
2023-02-16 22:49:30:231,-0.759721,0.181073,-9.68124,-0.963683,-3.77374,-43.4476
2023-02-16 22:49:30:241,-0.811653,0.210089,-9.73108,-0.986817,-3.78686,-43.4281
2023-02-16 22:49:30:251,-0.859835,0.228767,-9.7706,-1.00266,-3.79581,-43.4092
2023-02-16 22:49:30:261,-0.887814,0.229719,-9.8014,-1.01763,-3.80371,-43.3969
2023-02-16 22:49:30:271,-0.925878,0.218128,-9.81457,-1.02516,-3.80828,-43.39
2023-02-16 22:49:30:281,-0.951901,0.190002,-9.81165,-1.02605,-3.81066,-43.3903
2023-02-16 22:49:30:291,-0.965785,0.162533,-9.78629,-1.02154,-3.80729,-43.3986
2023-02-16 22:49:30:301,-0.938009,0.142986,-9.74493,-1.01553,-3.79923,-43.4106
2023-02-16 22:49:30:311,-0.898615,0.124044,-9.72933,-1.00915,-3.791,-43.4294
2023-02-16 22:49:30:321,-0.869765,0.115567,-9.70703,-1.00446,-3.77989,-43.4576
2023-02-16 22:49:30:331,-0.821134,0.0987893,-9.68173,-1.00219,-3.76384,-43.4893
2023-02-16 22:49:30:341,-0.772209,0.0945712,-9.66996,-1.00728,-3.74482,-43.5259
2023-02-16 22:49:30:351,-0.710827,0.117444,-9.67031,-1.01868,-3.72623,-43.564
2023-02-16 22:49:30:361,-0.66275,0.130103,-9.69562,-1.03395,-3.70632,-43.6084
2023-02-16 22:49:30:371,-0.617829,0.137419,-9.70587,-1.05222,-3.68156,-43.6473
2023-02-16 22:49:30:381,-0.567244,0.158569,-9.73151,-1.07291,-3.652,-43.6818
2023-02-16 22:49:30:391,-0.505299,0.180621,-9.74444,-1.09509,-3.6237,-43.7097
2023-02-16 22:49:30:401,-0.452896,0.197551,-9.75586,-1.11782,-3.58957,-43.7333
2023-02-16 22:49:30:411,-0.406879,0.223485,-9.74348,-1.14268,-3.55501,-43.7488
2023-02-16 22:49:30:421,-0.35442,0.232228,-9.7336,-1.16693,-3.51972,-43.7559
2023-02-16 22:49:30:431,-0.334556,0.252812,-9.7373,-1.19257,-3.48681,-43.754
2023-02-16 22:49:30:441,-0.342287,0.265459,-9.74994,-1.2203,-3.45685,-43.7462
2023-02-16 22:49:30:451,-0.346961,0.280125,-9.76052,-1.25315,-3.42839,-43.7269
2023-02-16 22:49:30:461,-0.350004,0.281979,-9.80121,-1.28305,-3.40495,-43.7022
2023-02-16 22:49:30:471,-0.37654,0.310599,-9.81991,-1.31071,-3.38118,-43.6715
2023-02-16 22:49:30:481,-0.414988,0.325085,-9.83111,-1.33472,-3.36373,-43.6386
2023-02-16 22:49:30:491,-0.443904,0.327207,-9.85629,-1.35407,-3.35119,-43.6049
2023-02-16 22:49:30:501,-0.480374,0.313906,-9.8733,-1.3676,-3.34233,-43.5761
2023-02-16 22:49:30:511,-0.518148,0.287796,-9.858,-1.37767,-3.33919,-43.5486
2023-02-16 22:49:30:521,-0.562219,0.282628,-9.82895,-1.38499,-3.33819,-43.525
2023-02-16 22:49:30:531,-0.584427,0.253647,-9.81153,-1.38914,-3.34271,-43.507
2023-02-16 22:49:30:541,-0.606266,0.243128,-9.78203,-1.39332,-3.3475,-43.4913
2023-02-16 22:49:30:551,-0.632177,0.244727,-9.74996,-1.39938,-3.35583,-43.4842
2023-02-16 22:49:30:561,-0.650754,0.244577,-9.70642,-1.4083,-3.3629,-43.4822
2023-02-16 22:49:30:571,-0.649672,0.239773,-9.70569,-1.42098,-3.376,-43.4858
2023-02-16 22:49:30:581,-0.641077,0.239113,-9.70764,-1.43764,-3.38324,-43.4946
2023-02-16 22:49:30:591,-0.639562,0.263865,-9.72157,-1.45369,-3.39394,-43.5077
2023-02-16 22:49:30:601,-0.62058,0.284348,-9.74793,-1.4742,-3.39915,-43.5259
2023-02-16 22:49:30:611,-0.606601,0.296934,-9.76006,-1.49534,-3.40157,-43.542
2023-02-16 22:49:30:621,-0.589549,0.311379,-9.7591,-1.51237,-3.40426,-43.5576
2023-02-16 22:49:30:631,-0.574447,0.306281,-9.76556,-1.5294,-3.40662,-43.5733
2023-02-16 22:49:30:641,-0.580656,0.30715,-9.76712,-1.54799,-3.40789,-43.5883
2023-02-16 22:49:30:651,-0.590639,0.313753,-9.76307,-1.56883,-3.41019,-43.6026
2023-02-16 22:49:30:661,-0.578908,0.308345,-9.7475,-1.58821,-3.40947,-43.6181
2023-02-16 22:49:30:671,-0.556389,0.297634,-9.73438,-1.60569,-3.40867,-43.6319
2023-02-16 22:49:30:681,-0.526175,0.289879,-9.72338,-1.62303,-3.40359,-43.6425
2023-02-16 22:49:30:691,-0.501228,0.26942,-9.72678,-1.63934,-3.40287,-43.6504
2023-02-16 22:49:30:701,-0.488626,0.2701,-9.76343,-1.65815,-3.39966,-43.6481
2023-02-16 22:49:30:711,-0.476231,0.273025,-9.76982,-1.67637,-3.39294,-43.6428
2023-02-16 22:49:30:721,-0.479391,0.292922,-9.76738,-1.69542,-3.39044,-43.6337
2023-02-16 22:49:30:731,-0.482655,0.31015,-9.74803,-1.71558,-3.39116,-43.6235
2023-02-16 22:49:30:741,-0.541042,0.280431,-9.75117,-1.73236,-3.39637,-43.6074
2023-02-16 22:49:30:751,-0.598229,0.311286,-9.79123,-1.75384,-3.40014,-43.592
2023-02-16 22:49:30:761,-0.596148,0.311227,-9.82501,-1.77386,-3.40335,-43.5826
2023-02-16 22:49:30:771,-0.551784,0.283389,-9.82038,-1.78502,-3.39741,-43.5697
2023-02-16 22:49:30:781,-0.492672,0.278591,-9.78096,-1.79795,-3.39921,-43.5529
2023-02-16 22:49:30:791,-0.506942,0.277443,-9.73195,-1.81274,-3.40665,-43.5385
2023-02-16 22:49:30:801,-0.542035,0.293628,-9.68907,-1.83339,-3.41982,-43.5226
2023-02-16 22:49:30:811,-0.568966,0.303718,-9.66806,-1.85784,-3.43249,-43.5089
2023-02-16 22:49:30:821,-0.620576,0.336879,-9.66923,-1.88959,-3.44563,-43.4922
2023-02-16 22:49:30:831,-0.642482,0.380879,-9.67962,-1.92694,-3.45802,-43.4785
2023-02-16 22:49:30:841,-0.630989,0.390979,-9.69107,-1.96844,-3.47303,-43.4661
2023-02-16 22:49:30:851,-0.615299,0.400256,-9.7157,-2.0101,-3.48188,-43.452
2023-02-16 22:49:30:861,-0.613245,0.430957,-9.72692,-2.05219,-3.48917,-43.436
2023-02-16 22:49:30:871,-0.632387,0.445291,-9.74806,-2.09226,-3.49603,-43.4182
2023-02-16 22:49:30:881,-0.635318,0.452748,-9.76876,-2.13041,-3.49993,-43.4042
2023-02-16 22:49:30:891,-0.619597,0.453931,-9.76251,-2.16553,-3.50294,-43.3873
2023-02-16 22:49:30:901,-0.627125,0.454915,-9.7794,-2.20129,-3.50669,-43.3679
2023-02-16 22:49:30:911,-0.625735,0.464705,-9.77816,-2.23086,-3.50974,-43.3483
2023-02-16 22:49:30:921,-0.626199,0.449468,-9.78888,-2.25981,-3.50835,-43.3266
2023-02-16 22:49:30:931,-0.619786,0.449445,-9.7922,-2.2884,-3.50706,-43.3068
2023-02-16 22:49:30:941,-0.625513,0.451275,-9.80423,-2.31543,-3.50557,-43.2877
2023-02-16 22:49:30:951,-0.627368,0.465542,-9.8253,-2.33807,-3.50414,-43.2701
2023-02-16 22:49:30:961,-0.649309,0.476026,-9.8472,-2.35735,-3.49984,-43.2562
2023-02-16 22:49:30:971,-0.677582,0.478477,-9.83962,-2.37579,-3.49551,-43.2479
2023-02-16 22:49:30:981,-0.68973,0.47588,-9.84305,-2.3889,-3.49063,-43.2399
2023-02-16 22:49:30:991,-0.666551,0.474377,-9.83103,-2.40107,-3.48726,-43.2387
2023-02-16 22:49:31:1,-0.645681,0.477092,-9.83346,-2.41157,-3.48576,-43.2381
2023-02-16 22:49:31:11,-0.650601,0.480876,-9.82133,-2.42137,-3.48289,-43.2396
2023-02-16 22:49:31:21,-0.641948,0.487792,-9.79864,-2.42704,-3.48478,-43.2458
2023-02-16 22:49:31:31,-0.643605,0.47839,-9.79095,-2.42922,-3.48416,-43.2513
2023-02-16 22:49:31:41,-0.662363,0.484347,-9.74494,-2.42795,-3.48446,-43.2607
2023-02-16 22:49:31:51,-0.661987,0.488037,-9.73433,-2.42716,-3.48459,-43.2793
2023-02-16 22:49:31:61,-0.649884,0.484523,-9.76414,-2.42529,-3.48617,-43.2987
2023-02-16 22:49:31:71,-0.60799,0.474525,-9.77402,-2.42143,-3.48193,-43.318
2023-02-16 22:49:31:81,-0.580409,0.455243,-9.78095,-2.41697,-3.4767,-43.3358
2023-02-16 22:49:31:91,-0.570657,0.449704,-9.78224,-2.40971,-3.47213,-43.3503
2023-02-16 22:49:31:101,-0.556974,0.445416,-9.77327,-2.40021,-3.46633,-43.3627
2023-02-16 22:49:31:111,-0.551628,0.42706,-9.77326,-2.39228,-3.46283,-43.3743
2023-02-16 22:49:31:121,-0.557886,0.417876,-9.77843,-2.38412,-3.46079,-43.3821
2023-02-16 22:49:31:131,-0.565629,0.432293,-9.75918,-2.37297,-3.46137,-43.3886
2023-02-16 22:49:31:141,-0.561471,0.426144,-9.75636,-2.36505,-3.46315,-43.3938
2023-02-16 22:49:31:151,-0.56469,0.42347,-9.78123,-2.35235,-3.46918,-43.3988
2023-02-16 22:49:31:161,-0.574375,0.423334,-9.80783,-2.34182,-3.46986,-43.4055
2023-02-16 22:49:31:171,-0.580021,0.409519,-9.81054,-2.33027,-3.47399,-43.4116
2023-02-16 22:49:31:181,-0.573799,0.398507,-9.79407,-2.31604,-3.47615,-43.4118
2023-02-16 22:49:31:191,-0.57741,0.377618,-9.7786,-2.3034,-3.48078,-43.4117
2023-02-16 22:49:31:201,-0.584007,0.362641,-9.73601,-2.28951,-3.48382,-43.4078
2023-02-16 22:49:31:211,-0.588832,0.337569,-9.69169,-2.27792,-3.48595,-43.4046
2023-02-16 22:49:31:221,-0.602474,0.339623,-9.66347,-2.26676,-3.48524,-43.4003
2023-02-16 22:49:31:231,-0.60591,0.345694,-9.64488,-2.26163,-3.48096,-43.3968
2023-02-16 22:49:31:241,-0.605442,0.344218,-9.65949,-2.25951,-3.47948,-43.3902
2023-02-16 22:49:31:251,-0.611539,0.369559,-9.66855,-2.26221,-3.47336,-43.3828
2023-02-16 22:49:31:261,-0.591276,0.389162,-9.69573,-2.26726,-3.46456,-43.3786
2023-02-16 22:49:31:271,-0.583007,0.400104,-9.722,-2.27616,-3.45795,-43.3743
2023-02-16 22:49:31:281,-0.582874,0.419278,-9.74157,-2.28472,-3.4477,-43.3671
2023-02-16 22:49:31:291,-0.575238,0.442651,-9.76644,-2.29371,-3.44323,-43.3611
2023-02-16 22:49:31:301,-0.577046,0.444304,-9.77122,-2.30189,-3.43976,-43.3547
2023-02-16 22:49:31:311,-0.597077,0.447518,-9.76884,-2.31063,-3.43798,-43.3527
2023-02-16 22:49:31:321,-0.595414,0.451697,-9.75703,-2.31409,-3.43484,-43.3489
2023-02-16 22:49:31:331,-0.602113,0.447316,-9.74241,-2.3184,-3.43239,-43.3483
2023-02-16 22:49:31:341,-0.600351,0.45352,-9.73848,-2.32213,-3.4285,-43.3502
2023-02-16 22:49:31:351,-0.590928,0.448378,-9.74058,-2.3305,-3.42539,-43.3509
2023-02-16 22:49:31:361,-0.596988,0.460763,-9.75576,-2.33427,-3.4182,-43.3565
2023-02-16 22:49:31:371,-0.583617,0.46934,-9.77842,-2.33998,-3.41422,-43.3634
2023-02-16 22:49:31:381,-0.540941,0.468022,-9.78486,-2.34635,-3.40816,-43.3666
2023-02-16 22:49:31:391,-0.517043,0.487242,-9.79982,-2.34951,-3.39958,-43.3712
2023-02-16 22:49:31:401,-0.533922,0.471267,-9.80045,-2.35003,-3.389,-43.3734
2023-02-16 22:49:31:411,-0.557661,0.470668,-9.83518,-2.34922,-3.37982,-43.3731
2023-02-16 22:49:31:421,-0.533381,0.499135,-9.85717,-2.3432,-3.37003,-43.3755
2023-02-16 22:49:31:431,-0.487035,0.486833,-9.87496,-2.33258,-3.36043,-43.3773
2023-02-16 22:49:31:441,-0.411328,0.465353,-9.85786,-2.31733,-3.34914,-43.3743
2023-02-16 22:49:31:451,-0.406017,0.436975,-9.82605,-2.29698,-3.34882,-43.3698
2023-02-16 22:49:31:461,-0.454443,0.442046,-9.7897,-2.27817,-3.35249,-43.3648
2023-02-16 22:49:31:471,-0.495205,0.442064,-9.7547,-2.26033,-3.35525,-43.3592
2023-02-16 22:49:31:481,-0.524965,0.430929,-9.70962,-2.24067,-3.36064,-43.3524
2023-02-16 22:49:31:491,-0.547937,0.420221,-9.69341,-2.22677,-3.36503,-43.3434
2023-02-16 22:49:31:501,-0.536093,0.430665,-9.68118,-2.21427,-3.36642,-43.3352
2023-02-16 22:49:31:511,-0.519216,0.418232,-9.69346,-2.2062,-3.37017,-43.3256
2023-02-16 22:49:31:521,-0.524682,0.419034,-9.71329,-2.20424,-3.37221,-43.3118
2023-02-16 22:49:31:531,-0.547594,0.449851,-9.71913,-2.20422,-3.37278,-43.2934
2023-02-16 22:49:31:542,-0.578536,0.467921,-9.74349,-2.20846,-3.3808,-43.2782
2023-02-16 22:49:31:551,-0.593391,0.47278,-9.74726,-2.20756,-3.38757,-43.2655
2023-02-16 22:49:31:561,-0.608275,0.468402,-9.75251,-2.20769,-3.39197,-43.2533
2023-02-16 22:49:31:571,-0.616072,0.466874,-9.75283,-2.20505,-3.39687,-43.2403
2023-02-16 22:49:31:581,-0.615119,0.46444,-9.76752,-2.20112,-3.40113,-43.2315
2023-02-16 22:49:31:591,-0.621139,0.468805,-9.77251,-2.19482,-3.40313,-43.2246
2023-02-16 22:49:31:601,-0.62866,0.459475,-9.76492,-2.18501,-3.40614,-43.2225
2023-02-16 22:49:31:611,-0.615041,0.454507,-9.76544,-2.1771,-3.40864,-43.2206
2023-02-16 22:49:31:621,-0.621734,0.447707,-9.78417,-2.1694,-3.41043,-43.2205
2023-02-16 22:49:31:631,-0.624623,0.447947,-9.80515,-2.15875,-3.40967,-43.226
2023-02-16 22:49:31:641,-0.634482,0.424656,-9.80964,-2.14693,-3.40965,-43.2323
2023-02-16 22:49:31:651,-0.616269,0.419222,-9.80867,-2.13147,-3.4123,-43.2396
2023-02-16 22:49:31:661,-0.600457,0.42443,-9.82014,-2.11309,-3.416,-43.2475
2023-02-16 22:49:31:671,-0.59808,0.426087,-9.82351,-2.09676,-3.42207,-43.2616
2023-02-16 22:49:31:681,-0.606562,0.420241,-9.822,-2.07639,-3.42818,-43.2738
2023-02-16 22:49:31:691,-0.588753,0.407867,-9.80622,-2.05623,-3.43304,-43.2831
2023-02-16 22:49:31:701,-0.591095,0.398428,-9.7827,-2.03157,-3.43703,-43.2935
2023-02-16 22:49:31:711,-0.59367,0.386741,-9.75948,-2.01005,-3.43756,-43.3031
2023-02-16 22:49:31:721,-0.588469,0.370838,-9.74363,-1.98529,-3.43775,-43.3106
2023-02-16 22:49:31:731,-0.553895,0.353567,-9.73871,-1.9605,-3.43493,-43.3138
2023-02-16 22:49:31:741,-0.530896,0.355429,-9.74838,-1.93735,-3.4307,-43.3127
2023-02-16 22:49:31:751,-0.526295,0.369893,-9.75515,-1.91336,-3.4256,-43.3118
2023-02-16 22:49:31:761,-0.514781,0.362395,-9.76075,-1.88777,-3.42042,-43.3064
2023-02-16 22:49:31:771,-0.522968,0.36128,-9.78054,-1.8654,-3.41962,-43.2978
2023-02-16 22:49:31:781,-0.539879,0.358247,-9.81939,-1.8389,-3.42135,-43.2892
2023-02-16 22:49:31:791,-0.544518,0.336805,-9.834,-1.80812,-3.42344,-43.2778
2023-02-16 22:49:31:801,-0.561071,0.332134,-9.83575,-1.77651,-3.42635,-43.2628
2023-02-16 22:49:31:811,-0.579247,0.320597,-9.81286,-1.74119,-3.4345,-43.2494
2023-02-16 22:49:31:821,-0.596552,0.296066,-9.79138,-1.70627,-3.44423,-43.2373
2023-02-16 22:49:31:831,-0.61919,0.269641,-9.7751,-1.66633,-3.4556,-43.2231
2023-02-16 22:49:31:841,-0.612206,0.246569,-9.75225,-1.62645,-3.46804,-43.2085
2023-02-16 22:49:31:851,-0.632677,0.231365,-9.71633,-1.58722,-3.48288,-43.1983
2023-02-16 22:49:31:861,-0.648576,0.230599,-9.70148,-1.55051,-3.49781,-43.1889
2023-02-16 22:49:31:871,-0.659464,0.224676,-9.69898,-1.5167,-3.51167,-43.1833
2023-02-16 22:49:31:882,-0.672883,0.218711,-9.71268,-1.48812,-3.52368,-43.1757
2023-02-16 22:49:31:891,-0.675019,0.242778,-9.72139,-1.46042,-3.53634,-43.1723
2023-02-16 22:49:31:901,-0.697959,0.23533,-9.71859,-1.43399,-3.55255,-43.1685
2023-02-16 22:49:31:911,-0.701397,0.229865,-9.7204,-1.40769,-3.55917,-43.1658
2023-02-16 22:49:31:921,-0.712608,0.220628,-9.72243,-1.38333,-3.56623,-43.1648
2023-02-16 22:49:31:931,-0.713535,0.216551,-9.71988,-1.35656,-3.57159,-43.1631
2023-02-16 22:49:31:941,-0.693095,0.208022,-9.71478,-1.33273,-3.57099,-43.164
2023-02-16 22:49:31:951,-0.681236,0.177249,-9.71369,-1.30885,-3.57002,-43.1664
2023-02-16 22:49:31:961,-0.680145,0.162459,-9.69829,-1.28701,-3.56546,-43.1679
2023-02-16 22:49:31:971,-0.667162,0.149837,-9.68262,-1.27094,-3.55964,-43.1673
2023-02-16 22:49:31:981,-0.650431,0.142286,-9.6554,-1.26134,-3.55103,-43.1699
2023-02-16 22:49:31:992,-0.636654,0.13699,-9.64611,-1.25287,-3.54066,-43.173
2023-02-16 22:49:32:1,-0.601945,0.129873,-9.64627,-1.24952,-3.5327,-43.1754
2023-02-16 22:49:32:11,-0.595579,0.150687,-9.67047,-1.24894,-3.5263,-43.1755
2023-02-16 22:49:32:21,-0.586643,0.158749,-9.7072,-1.24918,-3.51945,-43.1785
2023-02-16 22:49:32:31,-0.577571,0.170267,-9.72106,-1.25535,-3.51338,-43.1751
2023-02-16 22:49:32:41,-0.58901,0.178467,-9.72789,-1.26672,-3.50929,-43.1795
2023-02-16 22:49:32:51,-0.591161,0.191072,-9.7354,-1.27767,-3.5052,-43.1801
2023-02-16 22:49:32:61,-0.59974,0.200696,-9.74542,-1.29152,-3.49999,-43.1828
2023-02-16 22:49:32:71,-0.610028,0.20818,-9.77197,-1.30086,-3.49579,-43.1815
2023-02-16 22:49:32:81,-0.610238,0.224337,-9.78682,-1.31384,-3.49481,-43.1829
2023-02-16 22:49:32:91,-0.606393,0.239483,-9.80868,-1.32557,-3.49109,-43.1846
2023-02-16 22:49:32:101,-0.60837,0.245893,-9.80943,-1.33488,-3.48745,-43.1862
2023-02-16 22:49:32:111,-0.626609,0.234366,-9.8168,-1.34106,-3.48717,-43.1904
2023-02-16 22:49:32:121,-0.644826,0.225349,-9.84092,-1.34507,-3.48006,-43.1961
2023-02-16 22:49:32:131,-0.632936,0.226142,-9.84226,-1.34815,-3.47396,-43.2039
2023-02-16 22:49:32:141,-0.564429,0.204384,-9.83037,-1.34563,-3.46904,-43.2104
2023-02-16 22:49:32:151,-0.528624,0.189023,-9.7973,-1.34348,-3.46515,-43.216
2023-02-16 22:49:32:161,-0.547726,0.183747,-9.76292,-1.33988,-3.47152,-43.2181
2023-02-16 22:49:32:171,-0.595932,0.17839,-9.71686,-1.33648,-3.47518,-43.2249
2023-02-16 22:49:32:181,-0.62756,0.168759,-9.68483,-1.3377,-3.48381,-43.2349
2023-02-16 22:49:32:191,-0.671632,0.169557,-9.67269,-1.33716,-3.4897,-43.2464
2023-02-16 22:49:32:201,-0.686126,0.17227,-9.66362,-1.34524,-3.49056,-43.2596
2023-02-16 22:49:32:211,-0.63817,0.171659,-9.68336,-1.35949,-3.48693,-43.2725
2023-02-16 22:49:32:221,-0.589207,0.195119,-9.69949,-1.3756,-3.48212,-43.2865
2023-02-16 22:49:32:231,-0.568323,0.217047,-9.72732,-1.39379,-3.47634,-43.297
2023-02-16 22:49:32:241,-0.581096,0.246645,-9.75517,-1.41541,-3.47346,-43.302
2023-02-16 22:49:32:251,-0.589483,0.272663,-9.7906,-1.43875,-3.46778,-43.3105
2023-02-16 22:49:32:261,-0.592738,0.288023,-9.80509,-1.45696,-3.46248,-43.3141
2023-02-16 22:49:32:271,-0.615512,0.295248,-9.8122,-1.46996,-3.45802,-43.3198
2023-02-16 22:49:32:281,-0.613887,0.301009,-9.79382,-1.48074,-3.45616,-43.3337
2023-02-16 22:49:32:291,-0.598745,0.292004,-9.76617,-1.49034,-3.45001,-43.3461
2023-02-16 22:49:32:301,-0.589316,0.266883,-9.72906,-1.49823,-3.44142,-43.3569
2023-02-16 22:49:32:311,-0.567851,0.278585,-9.72115,-1.50665,-3.43742,-43.371
2023-02-16 22:49:32:321,-0.553512,0.27958,-9.71724,-1.52018,-3.43421,-43.3862
2023-02-16 22:49:32:331,-0.545628,0.273861,-9.73182,-1.53649,-3.4307,-43.3978
2023-02-16 22:49:32:341,-0.547839,0.307605,-9.75274,-1.55523,-3.42745,-43.4093
2023-02-16 22:49:32:351,-0.560574,0.327328,-9.7734,-1.57603,-3.42684,-43.4229
2023-02-16 22:49:32:361,-0.55798,0.330798,-9.82166,-1.59479,-3.42323,-43.4354
2023-02-16 22:49:32:371,-0.540054,0.345227,-9.85438,-1.61305,-3.42229,-43.448
2023-02-16 22:49:32:381,-0.535687,0.358001,-9.84052,-1.6248,-3.41995,-43.464
2023-02-16 22:49:32:391,-0.547659,0.339297,-9.81175,-1.63641,-3.41762,-43.4753
2023-02-16 22:49:32:401,-0.545184,0.34399,-9.75426,-1.64542,-3.41712,-43.4845
2023-02-16 22:49:32:411,-0.546385,0.342567,-9.71106,-1.65417,-3.41136,-43.4917
2023-02-16 22:49:32:421,-0.543767,0.343747,-9.69356,-1.66648,-3.40314,-43.4896
2023-02-16 22:49:32:431,-0.534358,0.391332,-9.71832,-1.68502,-3.39246,-43.4899
2023-02-16 22:49:32:441,-0.51841,0.407555,-9.75712,-1.7044,-3.3811,-43.4878
2023-02-16 22:49:32:451,-0.530486,0.415755,-9.79543,-1.72592,-3.36903,-43.4768
2023-02-16 22:49:32:461,-0.540564,0.42753,-9.82176,-1.74204,-3.35478,-43.4668
2023-02-16 22:49:32:471,-0.564677,0.441092,-9.84034,-1.75428,-3.33603,-43.4538
2023-02-16 22:49:32:481,-0.586166,0.433714,-9.84917,-1.76115,-3.3161,-43.4447
2023-02-16 22:49:32:491,-0.566681,0.417221,-9.82673,-1.75874,-3.29715,-43.4345
2023-02-16 22:49:32:501,-0.535172,0.363338,-9.8095,-1.75066,-3.27522,-43.4225
2023-02-16 22:49:32:511,-0.489315,0.309978,-9.76565,-1.73925,-3.25449,-43.4084
2023-02-16 22:49:32:521,-0.453807,0.286339,-9.71444,-1.73131,-3.23416,-43.3921
2023-02-16 22:49:32:531,-0.453547,0.277745,-9.68632,-1.72762,-3.21938,-43.3699
2023-02-16 22:49:32:541,-0.451102,0.277032,-9.70566,-1.7305,-3.20586,-43.3452
2023-02-16 22:49:32:551,-0.445453,0.291159,-9.73436,-1.73989,-3.19237,-43.3223
2023-02-16 22:49:32:561,-0.452059,0.321943,-9.78646,-1.75054,-3.1827,-43.2986
2023-02-16 22:49:32:571,-0.470937,0.339129,-9.81297,-1.76021,-3.17143,-43.2741
2023-02-16 22:49:32:581,-0.484101,0.351895,-9.81972,-1.76572,-3.16116,-43.2514
2023-02-16 22:49:32:591,-0.501411,0.355965,-9.84147,-1.77162,-3.15286,-43.2311
2023-02-16 22:49:32:601,-0.516521,0.350322,-9.8451,-1.77359,-3.14641,-43.2088
2023-02-16 22:49:32:611,-0.537377,0.345224,-9.80817,-1.77399,-3.13981,-43.1924
2023-02-16 22:49:32:621,-0.542055,0.328433,-9.8022,-1.77038,-3.13598,-43.1752
2023-02-16 22:49:32:631,-0.556008,0.316537,-9.78463,-1.76382,-3.13399,-43.1654
2023-02-16 22:49:32:641,-0.577563,0.306938,-9.77096,-1.75751,-3.13335,-43.1576
2023-02-16 22:49:32:651,-0.597811,0.305897,-9.7696,-1.75013,-3.13038,-43.1573
2023-02-16 22:49:32:661,-0.617404,0.316147,-9.79023,-1.74445,-3.13261,-43.1617
2023-02-16 22:49:32:671,-0.632722,0.321744,-9.81153,-1.7356,-3.13557,-43.1757
2023-02-16 22:49:32:681,-0.635393,0.316163,-9.80773,-1.72305,-3.13885,-43.1959
2023-02-16 22:49:32:691,-0.616494,0.310934,-9.79013,-1.70907,-3.14163,-43.2226
2023-02-16 22:49:32:701,-0.6016,0.284265,-9.76751,-1.68899,-3.14648,-43.2542
2023-02-16 22:49:32:711,-0.563959,0.241132,-9.74926,-1.67023,-3.14665,-43.2892
2023-02-16 22:49:32:721,-0.527041,0.20881,-9.72148,-1.65316,-3.14811,-43.3254
2023-02-16 22:49:32:731,-0.508022,0.190894,-9.67647,-1.63183,-3.15136,-43.364
2023-02-16 22:49:32:741,-0.497144,0.172611,-9.64558,-1.61964,-3.1562,-43.3996
2023-02-16 22:49:32:751,-0.462967,0.179002,-9.61935,-1.61265,-3.15816,-43.4313
2023-02-16 22:49:32:761,-0.40679,0.175605,-9.6269,-1.61493,-3.15906,-43.4591
2023-02-16 22:49:32:771,-0.370254,0.206936,-9.65227,-1.62278,-3.15722,-43.478
2023-02-16 22:49:32:781,-0.34087,0.237119,-9.70036,-1.63547,-3.15415,-43.4908
2023-02-16 22:49:32:791,-0.29727,0.271833,-9.72355,-1.6528,-3.15145,-43.4886
2023-02-16 22:49:32:801,-0.281353,0.303636,-9.76364,-1.67487,-3.14652,-43.4756
2023-02-16 22:49:32:811,-0.326659,0.321338,-9.77416,-1.6947,-3.14455,-43.453
2023-02-16 22:49:32:821,-0.394476,0.34982,-9.82895,-1.71563,-3.14832,-43.4253
2023-02-16 22:49:32:831,-0.437125,0.381867,-9.87119,-1.73446,-3.15061,-43.3944
2023-02-16 22:49:32:841,-0.438766,0.385292,-9.88378,-1.74601,-3.16119,-43.363
2023-02-16 22:49:32:851,-0.433928,0.379988,-9.87503,-1.75472,-3.17342,-43.3262
2023-02-16 22:49:32:861,-0.492909,0.368821,-9.8445,-1.76041,-3.19699,-43.2867
2023-02-16 22:49:32:871,-0.597511,0.359392,-9.78224,-1.76126,-3.22849,-43.2522
2023-02-16 22:49:32:882,-0.689391,0.330771,-9.71451,-1.76441,-3.26461,-43.2229
2023-02-16 22:49:32:891,-0.765658,0.325573,-9.67774,-1.77279,-3.29957,-43.2002
2023-02-16 22:49:32:901,-0.823844,0.32213,-9.65318,-1.78163,-3.33383,-43.1875
2023-02-16 22:49:32:911,-0.81737,0.306133,-9.63863,-1.79689,-3.3624,-43.1778
2023-02-16 22:49:32:921,-0.777975,0.295329,-9.62747,-1.8141,-3.38713,-43.1717
2023-02-16 22:49:32:931,-0.740492,0.30198,-9.61036,-1.83745,-3.40953,-43.1629
2023-02-16 22:49:32:941,-0.754645,0.30803,-9.58412,-1.87004,-3.42991,-43.1545
2023-02-16 22:49:32:951,-0.713691,0.310667,-9.54568,-1.90489,-3.44909,-43.1462
2023-02-16 22:49:32:961,-0.627047,0.26361,-9.53945,-1.94496,-3.46312,-43.1318
2023-02-16 22:49:32:971,-0.583256,0.236563,-9.56729,-1.99161,-3.47861,-43.1055
2023-02-16 22:49:32:981,-0.618375,0.232447,-9.57866,-2.04448,-3.49294,-43.0783
2023-02-16 22:49:32:991,-0.634479,0.233062,-9.59181,-2.10825,-3.50607,-43.0443
2023-02-16 22:49:33:1,-0.628046,0.214434,-9.57482,-2.17838,-3.51015,-43.009
2023-02-16 22:49:33:11,-0.651802,0.203593,-9.5552,-2.2577,-3.5136,-42.9734
2023-02-16 22:49:33:21,-0.627746,0.183294,-9.54894,-2.33882,-3.50983,-42.9387
2023-02-16 22:49:33:31,-0.589652,0.185293,-9.5513,-2.42891,-3.50977,-42.9004
2023-02-16 22:49:33:41,-0.553779,0.183608,-9.57447,-2.5315,-3.50176,-42.8625
2023-02-16 22:49:33:51,-0.527772,0.224537,-9.60083,-2.64592,-3.49754,-42.8199
2023-02-16 22:49:33:61,-0.521218,0.30903,-9.64426,-2.77055,-3.49382,-42.7806
2023-02-16 22:49:33:71,-0.526107,0.393796,-9.72344,-2.90102,-3.49496,-42.7392
2023-02-16 22:49:33:81,-0.531088,0.454673,-9.78155,-3.03126,-3.50266,-42.6988
2023-02-16 22:49:33:91,-0.552754,0.522557,-9.79295,-3.16544,-3.50926,-42.6639
2023-02-16 22:49:33:101,-0.55429,0.58748,-9.80446,-3.29729,-3.52192,-42.63
2023-02-16 22:49:33:111,-0.565748,0.643581,-9.81671,-3.42758,-3.53072,-42.6
2023-02-16 22:49:33:121,-0.58923,0.693258,-9.82905,-3.55119,-3.54504,-42.5686
2023-02-16 22:49:33:131,-0.6024,0.736522,-9.82224,-3.6728,-3.55735,-42.5411
2023-02-16 22:49:33:141,-0.581818,0.789923,-9.82215,-3.78868,-3.5727,-42.5173
2023-02-16 22:49:33:151,-0.574688,0.837073,-9.85208,-3.90291,-3.58372,-42.4934
2023-02-16 22:49:33:161,-0.574819,0.876541,-9.88003,-4.00871,-3.59661,-42.4699
2023-02-16 22:49:33:171,-0.573077,0.898204,-9.90938,-4.10678,-3.60755,-42.4468
2023-02-16 22:49:33:181,-0.577274,0.918352,-9.91577,-4.19333,-3.61996,-42.4222
2023-02-16 22:49:33:191,-0.572085,0.929043,-9.91247,-4.27224,-3.63613,-42.3971
2023-02-16 22:49:33:201,-0.557185,0.900438,-9.90087,-4.33966,-3.65038,-42.3672
2023-02-16 22:49:33:211,-0.555895,0.879887,-9.8736,-4.39955,-3.6674,-42.3354
2023-02-16 22:49:33:221,-0.579056,0.873839,-9.83559,-4.45733,-3.68492,-42.3071
2023-02-16 22:49:33:231,-0.594657,0.859253,-9.81352,-4.50906,-3.70256,-42.2735
2023-02-16 22:49:33:241,-0.61142,0.846551,-9.79681,-4.55851,-3.72204,-42.2389
2023-02-16 22:49:33:251,-0.634435,0.84814,-9.79657,-4.6061,-3.74241,-42.2047
2023-02-16 22:49:33:261,-0.666644,0.852115,-9.78855,-4.65282,-3.76365,-42.1704
2023-02-16 22:49:33:271,-0.665269,0.825431,-9.77674,-4.69724,-3.78328,-42.1326
2023-02-16 22:49:33:281,-0.668545,0.821029,-9.75542,-4.73898,-3.80124,-42.0987
2023-02-16 22:49:33:291,-0.667085,0.812664,-9.72805,-4.77975,-3.8156,-42.0641
2023-02-16 22:49:33:301,-0.667885,0.811876,-9.69516,-4.82315,-3.8325,-42.0314
2023-02-16 22:49:33:311,-0.672022,0.817009,-9.67397,-4.86934,-3.8513,-41.996
2023-02-16 22:49:33:322,-0.691503,0.831819,-9.68569,-4.91484,-3.86944,-41.9635
2023-02-16 22:49:33:331,-0.729534,0.873739,-9.74653,-4.96294,-3.88649,-41.9357
2023-02-16 22:49:33:341,-0.755737,0.894216,-9.78199,-5.00869,-3.90421,-41.9073
2023-02-16 22:49:33:351,-0.778695,0.908854,-9.77443,-5.05054,-3.92088,-41.886
2023-02-16 22:49:33:362,-0.779611,0.915773,-9.75084,-5.0897,-3.93304,-41.8717
2023-02-16 22:49:33:371,-0.76342,0.914362,-9.74832,-5.11979,-3.93895,-41.8611
2023-02-16 22:49:33:381,-0.737492,0.896817,-9.72741,-5.1511,-3.93979,-41.8505
2023-02-16 22:49:33:391,-0.708059,0.883849,-9.70517,-5.18323,-3.94381,-41.8416
2023-02-16 22:49:33:401,-0.690591,0.879445,-9.68528,-5.2169,-3.94594,-41.8348
2023-02-16 22:49:33:411,-0.678425,0.878845,-9.66034,-5.2477,-3.9488,-41.8291
2023-02-16 22:49:33:421,-0.668538,0.861098,-9.633,-5.28036,-3.95394,-41.8238
2023-02-16 22:49:33:431,-0.661707,0.871029,-9.62492,-5.31772,-3.96316,-41.82
2023-02-16 22:49:33:441,-0.664589,0.895241,-9.6246,-5.36133,-3.97257,-41.8181
2023-02-16 22:49:33:451,-0.655331,0.918304,-9.67011,-5.40705,-3.97672,-41.813
2023-02-16 22:49:33:461,-0.674432,0.957128,-9.70735,-5.45591,-3.98138,-41.8131
2023-02-16 22:49:33:471,-0.695863,0.986179,-9.75443,-5.50412,-3.98833,-41.8143
2023-02-16 22:49:33:481,-0.679102,1.03161,-9.79882,-5.55021,-3.99346,-41.8144
2023-02-16 22:49:33:491,-0.692196,1.04364,-9.83015,-5.59281,-3.99022,-41.8127
2023-02-16 22:49:33:501,-0.724202,1.04167,-9.86372,-5.62993,-3.99059,-41.817
2023-02-16 22:49:33:511,-0.724349,1.07707,-9.92047,-5.65789,-3.98874,-41.8264
2023-02-16 22:49:33:521,-0.70495,1.10138,-9.94059,-5.67678,-3.98132,-41.8305
2023-02-16 22:49:33:531,-0.663103,1.09392,-9.91105,-5.68357,-3.97242,-41.8394
2023-02-16 22:49:33:541,-0.635003,1.0961,-9.84951,-5.68856,-3.97179,-41.8479
2023-02-16 22:49:33:551,-0.662984,1.13401,-9.83885,-5.68487,-3.9714,-41.8586
2023-02-16 22:49:33:561,-0.696352,1.15773,-9.82808,-5.67938,-3.97169,-41.871
2023-02-16 22:49:33:571,-0.726625,1.1786,-9.76018,-5.66363,-3.97275,-41.8842
2023-02-16 22:49:33:581,-0.745493,1.17323,-9.73894,-5.64857,-3.97197,-41.9049
2023-02-16 22:49:33:591,-0.759264,1.19143,-9.7582,-5.62964,-3.96959,-41.9276
2023-02-16 22:49:33:601,-0.732355,1.22811,-9.7861,-5.60619,-3.96344,-41.9542
2023-02-16 22:49:33:611,-0.697277,1.22086,-9.81321,-5.5791,-3.95985,-41.9819
2023-02-16 22:49:33:621,-0.701524,1.23909,-9.83955,-5.54618,-3.9549,-42.0116
2023-02-16 22:49:33:631,-0.699185,1.24901,-9.8733,-5.50407,-3.94966,-42.0422
2023-02-16 22:49:33:641,-0.708458,1.25446,-9.87234,-5.45233,-3.9463,-42.0734
2023-02-16 22:49:33:651,-0.716739,1.23647,-9.86535,-5.39201,-3.94624,-42.104
2023-02-16 22:49:33:662,-0.717173,1.21208,-9.86815,-5.3211,-3.94552,-42.1407
2023-02-16 22:49:33:671,-0.709695,1.18159,-9.87302,-5.24233,-3.94749,-42.1786
2023-02-16 22:49:33:681,-0.714564,1.15572,-9.87908,-5.15579,-3.95192,-42.2177
2023-02-16 22:49:33:691,-0.720494,1.13477,-9.87138,-5.06253,-3.95747,-42.2595
2023-02-16 22:49:33:701,-0.71264,1.0765,-9.87043,-4.96055,-3.96505,-42.3001
2023-02-16 22:49:33:711,-0.699866,1.01906,-9.87645,-4.84873,-3.97328,-42.3395
2023-02-16 22:49:33:721,-0.708257,0.971182,-9.87766,-4.73215,-3.98354,-42.3787
2023-02-16 22:49:33:731,-0.728997,0.927071,-9.84768,-4.61185,-3.99556,-42.4222
2023-02-16 22:49:33:741,-0.716042,0.883045,-9.82918,-4.49134,-4.00938,-42.4641
2023-02-16 22:49:33:751,-0.702923,0.835144,-9.81486,-4.36248,-4.02108,-42.5054
2023-02-16 22:49:33:761,-0.713885,0.786641,-9.79324,-4.22995,-4.03163,-42.5481
2023-02-16 22:49:33:771,-0.72915,0.762055,-9.77892,-4.09972,-4.04365,-42.587
2023-02-16 22:49:33:781,-0.733695,0.748786,-9.784,-3.96246,-4.05439,-42.6293
2023-02-16 22:49:33:791,-0.734343,0.721919,-9.76422,-3.82213,-4.05904,-42.6709
2023-02-16 22:49:33:801,-0.737869,0.672102,-9.70639,-3.67786,-4.06735,-42.7106
2023-02-16 22:49:33:811,-0.732661,0.6262,-9.6714,-3.53706,-4.07232,-42.7457
2023-02-16 22:49:33:821,-0.710104,0.588532,-9.65432,-3.39691,-4.07228,-42.7807
2023-02-16 22:49:33:831,-0.693267,0.532437,-9.63203,-3.25883,-4.07344,-42.8146
2023-02-16 22:49:33:842,-0.692917,0.481801,-9.6171,-3.12409,-4.07737,-42.8397
2023-02-16 22:49:33:851,-0.709592,0.45643,-9.63132,-2.99373,-4.07744,-42.8666
2023-02-16 22:49:33:861,-0.709539,0.431552,-9.65553,-2.86634,-4.07752,-42.8914
2023-02-16 22:49:33:871,-0.707728,0.40956,-9.66883,-2.74237,-4.07713,-42.9157
2023-02-16 22:49:33:881,-0.707782,0.392403,-9.66899,-2.61904,-4.07081,-42.9381
2023-02-16 22:49:33:891,-0.701175,0.365875,-9.67874,-2.50246,-4.06359,-42.9569
2023-02-16 22:49:33:901,-0.698238,0.337306,-9.67263,-2.3863,-4.05779,-42.9773
2023-02-16 22:49:33:911,-0.68251,0.303406,-9.66191,-2.27393,-4.04619,-42.995
2023-02-16 22:49:33:922,-0.682509,0.261546,-9.64198,-2.16934,-4.03477,-43.0043
2023-02-16 22:49:33:931,-0.672815,0.225459,-9.62323,-2.06666,-4.02875,-43.0141
2023-02-16 22:49:33:941,-0.668359,0.189042,-9.60557,-1.96642,-4.02287,-43.0244
2023-02-16 22:49:33:951,-0.675261,0.1639,-9.5811,-1.87669,-4.01413,-43.0299
2023-02-16 22:49:33:961,-0.67744,0.144287,-9.56597,-1.79604,-4.00643,-43.0314
2023-02-16 22:49:33:971,-0.681058,0.134201,-9.56401,-1.72475,-3.99839,-43.0337
2023-02-16 22:49:33:981,-0.689029,0.144186,-9.57834,-1.66173,-3.9931,-43.0338
2023-02-16 22:49:33:991,-0.685715,0.171771,-9.64019,-1.61191,-3.9821,-43.0386
2023-02-16 22:49:34:1,-0.696055,0.203959,-9.69641,-1.56259,-3.9743,-43.0414
2023-02-16 22:49:34:11,-0.708366,0.210637,-9.71295,-1.51361,-3.96211,-43.0424
2023-02-16 22:49:34:21,-0.711526,0.20787,-9.71818,-1.46735,-3.94946,-43.0463
2023-02-16 22:49:34:31,-0.70705,0.203245,-9.72607,-1.42257,-3.93183,-43.053
2023-02-16 22:49:34:41,-0.684936,0.188646,-9.71755,-1.37668,-3.91409,-43.0568
2023-02-16 22:49:34:51,-0.663915,0.177959,-9.71211,-1.33648,-3.89359,-43.0606
2023-02-16 22:49:34:61,-0.647447,0.175849,-9.71617,-1.29497,-3.87403,-43.0624
2023-02-16 22:49:34:71,-0.644953,0.158743,-9.71968,-1.25416,-3.85254,-43.064
2023-02-16 22:49:34:81,-0.649914,0.163209,-9.72266,-1.21391,-3.83522,-43.0652
2023-02-16 22:49:34:91,-0.661986,0.170373,-9.73952,-1.18024,-3.81629,-43.0706
2023-02-16 22:49:34:102,-0.658806,0.175969,-9.77286,-1.14886,-3.80178,-43.0768
2023-02-16 22:49:34:111,-0.656793,0.188709,-9.7947,-1.11778,-3.78675,-43.0827
2023-02-16 22:49:34:121,-0.671392,0.187363,-9.79056,-1.08465,-3.77395,-43.0877
2023-02-16 22:49:34:131,-0.668819,0.18559,-9.7819,-1.05121,-3.7565,-43.0975
2023-02-16 22:49:34:141,-0.672288,0.171373,-9.79534,-1.01461,-3.73554,-43.1091
2023-02-16 22:49:34:151,-0.647937,0.15517,-9.76719,-0.974043,-3.71179,-43.1215
2023-02-16 22:49:34:161,-0.61466,0.136972,-9.76371,-0.931354,-3.68898,-43.1328
2023-02-16 22:49:34:171,-0.610884,0.104154,-9.72653,-0.889055,-3.66458,-43.1422
2023-02-16 22:49:34:181,-0.624998,0.0874148,-9.71323,-0.850678,-3.64017,-43.1522
2023-02-16 22:49:34:191,-0.622502,0.0844256,-9.73783,-0.813925,-3.6137,-43.1627
2023-02-16 22:49:34:201,-0.614718,0.0993269,-9.75999,-0.78323,-3.58631,-43.1754
2023-02-16 22:49:34:211,-0.573818,0.0932474,-9.79155,-0.748766,-3.55973,-43.1895
2023-02-16 22:49:34:221,-0.537439,0.0870737,-9.78288,-0.716033,-3.53704,-43.2016
2023-02-16 22:49:34:231,-0.520673,0.0736535,-9.77772,-0.680228,-3.5164,-43.2177
2023-02-16 22:49:34:241,-0.533308,0.0639867,-9.74175,-0.647312,-3.50811,-43.2359
2023-02-16 22:49:34:251,-0.565599,0.0412821,-9.71103,-0.615863,-3.49936,-43.2472
2023-02-16 22:49:34:261,-0.603641,0.0377312,-9.6706,-0.583979,-3.49402,-43.2625
2023-02-16 22:49:34:271,-0.608301,0.036534,-9.63874,-0.560763,-3.48718,-43.2817
2023-02-16 22:49:34:281,-0.58076,0.0152095,-9.62974,-0.537246,-3.47565,-43.2956
2023-02-16 22:49:34:291,-0.544446,0.0170483,-9.62185,-0.52224,-3.4653,-43.3065
2023-02-16 22:49:34:301,-0.533213,0.0305733,-9.62601,-0.514907,-3.45418,-43.3133
2023-02-16 22:49:34:311,-0.542765,0.0521231,-9.64818,-0.5139,-3.44141,-43.3186
2023-02-16 22:49:34:321,-0.54194,0.0723774,-9.68294,-0.520139,-3.42831,-43.3234
2023-02-16 22:49:34:331,-0.526632,0.0871543,-9.71126,-0.530131,-3.41618,-43.3277
2023-02-16 22:49:34:341,-0.539984,0.107626,-9.75902,-0.541019,-3.40503,-43.3278
2023-02-16 22:49:34:351,-0.547253,0.124438,-9.78224,-0.54608,-3.39367,-43.3271
2023-02-16 22:49:34:361,-0.544171,0.127604,-9.78732,-0.5503,-3.38169,-43.3285
2023-02-16 22:49:34:371,-0.540595,0.118051,-9.78975,-0.551434,-3.36814,-43.3287
2023-02-16 22:49:34:381,-0.537158,0.120123,-9.7807,-0.553564,-3.35705,-43.3301
2023-02-16 22:49:34:391,-0.539514,0.106239,-9.75131,-0.553722,-3.34912,-43.3278
2023-02-16 22:49:34:401,-0.545153,0.0987234,-9.75941,-0.555073,-3.33969,-43.3279
2023-02-16 22:49:34:411,-0.565323,0.107595,-9.77118,-0.558189,-3.33197,-43.3276
2023-02-16 22:49:34:421,-0.56676,0.105596,-9.7709,-0.562197,-3.32284,-43.3302
2023-02-16 22:49:34:431,-0.544343,0.122598,-9.77131,-0.565304,-3.31645,-43.3335
2023-02-16 22:49:34:441,-0.529685,0.115122,-9.78514,-0.573245,-3.30961,-43.3361
2023-02-16 22:49:34:451,-0.520631,0.105403,-9.78746,-0.579483,-3.31081,-43.3393
2023-02-16 22:49:34:462,-0.516568,0.117145,-9.79397,-0.587202,-3.30919,-43.3461
2023-02-16 22:49:34:471,-0.526355,0.137329,-9.79542,-0.595525,-3.30584,-43.351
2023-02-16 22:49:34:481,-0.532591,0.157131,-9.78443,-0.599454,-3.3044,-43.3558
2023-02-16 22:49:34:491,-0.524708,0.149638,-9.79039,-0.606107,-3.3044,-43.3601
2023-02-16 22:49:34:501,-0.514863,0.141318,-9.79289,-0.610599,-3.30515,-43.3614
2023-02-16 22:49:34:511,-0.509341,0.13791,-9.78816,-0.614913,-3.30215,-43.363
2023-02-16 22:49:34:521,-0.511967,0.145115,-9.78931,-0.618294,-3.30299,-43.3569
2023-02-16 22:49:34:531,-0.511585,0.165995,-9.78503,-0.620535,-3.303,-43.3529
2023-02-16 22:49:34:541,-0.535258,0.166998,-9.78893,-0.61941,-3.3016,-43.3455
2023-02-16 22:49:34:551,-0.532585,0.157586,-9.79362,-0.61678,-3.3026,-43.3359
2023-02-16 22:49:34:561,-0.539647,0.147832,-9.79959,-0.614683,-3.30493,-43.3231
2023-02-16 22:49:34:571,-0.544139,0.140585,-9.79366,-0.605983,-3.30614,-43.3107
2023-02-16 22:49:34:581,-0.562718,0.122085,-9.78915,-0.597933,-3.30526,-43.3007
2023-02-16 22:49:34:591,-0.573535,0.115106,-9.78958,-0.591398,-3.30426,-43.2888
2023-02-16 22:49:34:601,-0.578847,0.120346,-9.78597,-0.580608,-3.30707,-43.2752
2023-02-16 22:49:34:611,-0.585825,0.100519,-9.7776,-0.568135,-3.31285,-43.2657
2023-02-16 22:49:34:621,-0.595182,0.0967743,-9.77408,-0.556363,-3.32212,-43.2591
2023-02-16 22:49:34:631,-0.595758,0.0920064,-9.77949,-0.545909,-3.32749,-43.2536
2023-02-16 22:49:34:641,-0.595257,0.0827456,-9.77433,-0.538748,-3.33616,-43.2486
2023-02-16 22:49:34:651,-0.613471,0.0852085,-9.75492,-0.527732,-3.34427,-43.2445
2023-02-16 22:49:34:661,-0.630774,0.0683304,-9.7497,-0.522139,-3.35002,-43.2421
2023-02-16 22:49:34:671,-0.640474,0.0711971,-9.72049,-0.516293,-3.34875,-43.2412
2023-02-16 22:49:34:681,-0.625665,0.0709749,-9.7191,-0.510999,-3.34942,-43.2415
2023-02-16 22:49:34:691,-0.61193,0.0721736,-9.71007,-0.50835,-3.34976,-43.2436
2023-02-16 22:49:34:701,-0.596738,0.065966,-9.70517,-0.505651,-3.34764,-43.2473
2023-02-16 22:49:34:711,-0.596355,0.0718239,-9.72517,-0.503601,-3.3445,-43.2497
2023-02-16 22:49:34:721,-0.580501,0.0703962,-9.71332,-0.505049,-3.33835,-43.2524
2023-02-16 22:49:34:731,-0.562789,0.0702649,-9.70035,-0.507735,-3.33211,-43.2531
2023-02-16 22:49:34:741,-0.556679,0.0736515,-9.70863,-0.512725,-3.32696,-43.2556
2023-02-16 22:49:34:751,-0.547671,0.0867926,-9.73127,-0.518345,-3.32115,-43.2594
2023-02-16 22:49:34:761,-0.557906,0.102416,-9.75251,-0.527434,-3.31961,-43.2588
2023-02-16 22:49:34:771,-0.548377,0.10422,-9.76762,-0.538361,-3.31701,-43.2621
2023-02-16 22:49:34:781,-0.557282,0.098757,-9.75923,-0.544186,-3.31914,-43.2578
2023-02-16 22:49:34:791,-0.548434,0.107242,-9.75108,-0.551806,-3.31672,-43.2538
2023-02-16 22:49:34:801,-0.56995,0.120751,-9.73421,-0.557711,-3.31254,-43.2529
2023-02-16 22:49:34:811,-0.585747,0.121597,-9.72715,-0.566384,-3.30732,-43.2512
2023-02-16 22:49:34:821,-0.583038,0.115515,-9.7472,-0.578782,-3.30458,-43.2474
2023-02-16 22:49:34:831,-0.566627,0.12221,-9.76306,-0.593603,-3.29714,-43.2461
2023-02-16 22:49:34:841,-0.536075,0.132693,-9.7778,-0.608434,-3.28856,-43.2386
2023-02-16 22:49:34:851,-0.539471,0.159375,-9.77874,-0.62114,-3.27979,-43.2323
2023-02-16 22:49:34:861,-0.573222,0.161722,-9.78433,-0.635029,-3.27272,-43.2263
2023-02-16 22:49:34:871,-0.601736,0.167448,-9.8403,-0.646005,-3.26351,-43.2281
2023-02-16 22:49:34:881,-0.588662,0.201697,-9.85991,-0.653801,-3.24936,-43.2296
2023-02-16 22:49:34:891,-0.533549,0.186015,-9.85968,-0.657772,-3.23506,-43.2341
2023-02-16 22:49:34:901,-0.475444,0.165109,-9.83908,-0.657104,-3.22634,-43.238
2023-02-16 22:49:34:911,-0.476078,0.145616,-9.78915,-0.65228,-3.22263,-43.2412
2023-02-16 22:49:34:921,-0.509297,0.154405,-9.75021,-0.650232,-3.22213,-43.2401
2023-02-16 22:49:34:931,-0.544559,0.163393,-9.7365,-0.646178,-3.22591,-43.2451
2023-02-16 22:49:34:942,-0.570495,0.14753,-9.73314,-0.648992,-3.23067,-43.2503
2023-02-16 22:49:34:951,-0.589738,0.15525,-9.72868,-0.650964,-3.23273,-43.2599
2023-02-16 22:49:34:961,-0.577551,0.169722,-9.74462,-0.654287,-3.22857,-43.2699
2023-02-16 22:49:34:971,-0.528313,0.178244,-9.74494,-0.661413,-3.22507,-43.2763
2023-02-16 22:49:34:981,-0.511569,0.173496,-9.75856,-0.670771,-3.22072,-43.2801
2023-02-16 22:49:34:991,-0.51404,0.184493,-9.76743,-0.679326,-3.21899,-43.2806
2023-02-16 22:49:35:1,-0.528972,0.198624,-9.77376,-0.690054,-3.21127,-43.2774
2023-02-16 22:49:35:11,-0.539785,0.211003,-9.76868,-0.698566,-3.2061,-43.2754
2023-02-16 22:49:35:21,-0.539828,0.214992,-9.78136,-0.702708,-3.19789,-43.2674
2023-02-16 22:49:35:31,-0.549474,0.227169,-9.78189,-0.705306,-3.18683,-43.2595
2023-02-16 22:49:35:41,-0.559551,0.224631,-9.79841,-0.70373,-3.17842,-43.2538
2023-02-16 22:49:35:51,-0.55691,0.209133,-9.81264,-0.696498,-3.17039,-43.25
2023-02-16 22:49:35:61,-0.541741,0.211851,-9.80462,-0.692677,-3.15974,-43.2461
2023-02-16 22:49:35:71,-0.539098,0.203207,-9.80249,-0.681598,-3.15353,-43.2437
2023-02-16 22:49:35:81,-0.546391,0.178297,-9.8195,-0.667685,-3.14812,-43.245
2023-02-16 22:49:35:91,-0.544051,0.163789,-9.81993,-0.650276,-3.14674,-43.2501
2023-02-16 22:49:35:101,-0.544804,0.146817,-9.80596,-0.636542,-3.14117,-43.2559
2023-02-16 22:49:35:111,-0.541824,0.144972,-9.79576,-0.620299,-3.13816,-43.266
2023-02-16 22:49:35:121,-0.52595,0.130319,-9.81557,-0.604671,-3.13559,-43.2763
2023-02-16 22:49:35:131,-0.508284,0.103849,-9.79777,-0.582651,-3.136,-43.2904
2023-02-16 22:49:35:141,-0.510507,0.0897602,-9.78388,-0.565843,-3.13496,-43.2985
2023-02-16 22:49:35:151,-0.497936,0.0819682,-9.78689,-0.546828,-3.13648,-43.3077
2023-02-16 22:49:35:161,-0.502078,0.0640234,-9.77458,-0.526613,-3.13954,-43.3104
2023-02-16 22:49:35:171,-0.496405,0.0653663,-9.7568,-0.506014,-3.13656,-43.312
2023-02-16 22:49:35:181,-0.492092,0.0447649,-9.75682,-0.48442,-3.13031,-43.3148
2023-02-16 22:49:35:191,-0.481359,0.0427077,-9.75376,-0.463473,-3.12244,-43.3125
2023-02-16 22:49:35:201,-0.476954,0.0264134,-9.73627,-0.442307,-3.11099,-43.3064
2023-02-16 22:49:35:211,-0.471228,0.0256324,-9.71312,-0.423581,-3.10115,-43.2952
2023-02-16 22:49:35:221,-0.483304,0.0160206,-9.70101,-0.405489,-3.09114,-43.2798
2023-02-16 22:49:35:231,-0.492149,0.0213367,-9.71766,-0.389368,-3.08504,-43.2618
2023-02-16 22:49:35:241,-0.481347,0.0278124,-9.73128,-0.376123,-3.07921,-43.2474
2023-02-16 22:49:35:251,-0.4927,0.0314931,-9.75212,-0.365511,-3.07551,-43.2336
2023-02-16 22:49:35:261,-0.522973,0.0352431,-9.75263,-0.355022,-3.07279,-43.2228
2023-02-16 22:49:35:271,-0.532223,0.031834,-9.778,-0.343858,-3.07622,-43.213
2023-02-16 22:49:35:281,-0.54176,0.0526664,-9.8,-0.33738,-3.07829,-43.2075
2023-02-16 22:49:35:291,-0.536123,0.0580752,-9.80552,-0.331679,-3.08393,-43.2069
2023-02-16 22:49:35:301,-0.549154,0.04969,-9.79025,-0.322316,-3.08947,-43.2048
2023-02-16 22:49:35:311,-0.557557,0.0426285,-9.78023,-0.315789,-3.09547,-43.2052
2023-02-16 22:49:35:321,-0.550719,0.0401543,-9.74831,-0.305314,-3.10265,-43.2068
2023-02-16 22:49:35:331,-0.556471,0.041007,-9.73129,-0.295862,-3.11054,-43.2092
2023-02-16 22:49:35:341,-0.560673,0.0474317,-9.73972,-0.288985,-3.12038,-43.2119
2023-02-16 22:49:35:351,-0.58208,0.0555523,-9.74595,-0.28367,-3.1257,-43.2159
2023-02-16 22:49:35:361,-0.582253,0.0656994,-9.76102,-0.281278,-3.12819,-43.2195
2023-02-16 22:49:35:371,-0.580864,0.0609528,-9.78381,-0.277075,-3.13281,-43.2235
2023-02-16 22:49:35:381,-0.575764,0.0628305,-9.80003,-0.270548,-3.13356,-43.2267
2023-02-16 22:49:35:391,-0.571846,0.0738692,-9.79363,-0.260832,-3.13171,-43.2302
2023-02-16 22:49:35:401,-0.573475,0.0745835,-9.77349,-0.251485,-3.12876,-43.2342
2023-02-16 22:49:35:411,-0.561626,0.0449396,-9.7509,-0.24195,-3.1241,-43.2321
2023-02-16 22:49:35:421,-0.558116,0.0155501,-9.74713,-0.233547,-3.11867,-43.2303
2023-02-16 22:49:35:431,-0.561172,0.0284656,-9.72485,-0.224207,-3.10948,-43.2277
2023-02-16 22:49:35:441,-0.555043,0.0374422,-9.71555,-0.216463,-3.10103,-43.2299
2023-02-16 22:49:35:451,-0.540399,0.0287313,-9.74389,-0.211962,-3.08971,-43.2295
2023-02-16 22:49:35:461,-0.523728,0.0389132,-9.75484,-0.209264,-3.08043,-43.2307
2023-02-16 22:49:35:471,-0.512825,0.0543724,-9.7573,-0.20693,-3.07345,-43.2349
2023-02-16 22:49:35:481,-0.523233,0.056353,-9.75996,-0.205109,-3.0689,-43.2387
2023-02-16 22:49:35:491,-0.514274,0.0645349,-9.76001,-0.20147,-3.06292,-43.2475
2023-02-16 22:49:35:501,-0.516105,0.0649636,-9.7561,-0.198501,-3.05784,-43.2543
2023-02-16 22:49:35:511,-0.520028,0.0474748,-9.74681,-0.194285,-3.05519,-43.2584
2023-02-16 22:49:35:521,-0.51153,0.0327674,-9.74178,-0.194763,-3.05098,-43.2647
2023-02-16 22:49:35:531,-0.482884,0.0402175,-9.74404,-0.195614,-3.04536,-43.271
2023-02-16 22:49:35:541,-0.478231,0.0393226,-9.75674,-0.196689,-3.04155,-43.2708
2023-02-16 22:49:35:551,-0.482568,0.0566591,-9.77431,-0.19676,-3.03626,-43.2704
2023-02-16 22:49:35:562,-0.464983,0.0642945,-9.79386,-0.200172,-3.03009,-43.2721
2023-02-16 22:49:35:571,-0.448635,0.0740016,-9.80422,-0.200393,-3.02525,-43.269
2023-02-16 22:49:35:581,-0.457381,0.0795843,-9.79677,-0.203819,-3.02198,-43.2649
2023-02-16 22:49:35:591,-0.496674,0.0545919,-9.80265,-0.201998,-3.01723,-43.2576
2023-02-16 22:49:35:601,-0.517369,0.0572886,-9.83597,-0.202517,-3.01115,-43.2515
2023-02-16 22:49:35:611,-0.491665,0.0604012,-9.8498,-0.197391,-3.00304,-43.2437
2023-02-16 22:49:35:622,-0.414039,0.0402892,-9.83209,-0.184741,-2.99333,-43.2378
2023-02-16 22:49:35:631,-0.391014,-0.00176929,-9.79852,-0.176517,-2.99255,-43.2275
2023-02-16 22:49:35:641,-0.412747,-0.0271948,-9.75702,-0.167229,-2.99513,-43.2172
2023-02-16 22:49:35:651,-0.450428,-0.0173967,-9.73192,-0.161243,-3.00305,-43.2057
2023-02-16 22:49:35:661,-0.508638,-0.0160122,-9.6948,-0.159667,-3.0121,-43.1969
2023-02-16 22:49:35:671,-0.567422,0.000355771,-9.65904,-0.161539,-3.02642,-43.1938
2023-02-16 22:49:35:681,-0.587007,0.0250715,-9.66489,-0.169845,-3.03548,-43.1907
2023-02-16 22:49:35:691,-0.538666,0.0384037,-9.68576,-0.180225,-3.03556,-43.1923
2023-02-16 22:49:35:701,-0.487357,0.0511642,-9.68659,-0.195649,-3.03397,-43.1926
2023-02-16 22:49:35:711,-0.489071,0.0737131,-9.71485,-0.213726,-3.0365,-43.1848
2023-02-16 22:49:35:721,-0.504985,0.0942009,-9.73913,-0.232386,-3.03514,-43.1784
2023-02-16 22:49:35:731,-0.511272,0.100546,-9.76856,-0.249018,-3.03405,-43.165
2023-02-16 22:49:35:741,-0.537413,0.118271,-9.77601,-0.266404,-3.03115,-43.1534
2023-02-16 22:49:35:751,-0.552642,0.134125,-9.78794,-0.280161,-3.03081,-43.1428
2023-02-16 22:49:35:761,-0.553028,0.132356,-9.81,-0.290354,-3.03186,-43.1349
2023-02-16 22:49:35:771,-0.561291,0.139147,-9.82309,-0.29961,-3.03187,-43.1283
2023-02-16 22:49:35:781,-0.564727,0.122795,-9.82233,-0.306091,-3.02762,-43.1228
2023-02-16 22:49:35:791,-0.566915,0.121718,-9.81564,-0.306404,-3.0262,-43.1201
2023-02-16 22:49:35:801,-0.558608,0.100221,-9.80783,-0.307966,-3.02181,-43.1173
2023-02-16 22:49:35:811,-0.548037,0.0965401,-9.81791,-0.309595,-3.01721,-43.117
2023-02-16 22:49:35:821,-0.546767,0.0895013,-9.82551,-0.309983,-3.01374,-43.1197
2023-02-16 22:49:35:831,-0.534353,0.092683,-9.83028,-0.309582,-3.01342,-43.124
2023-02-16 22:49:35:841,-0.505913,0.100321,-9.82834,-0.30756,-3.00656,-43.1296
2023-02-16 22:49:35:851,-0.489092,0.0975223,-9.81821,-0.307395,-3.00497,-43.1351
2023-02-16 22:49:35:861,-0.483723,0.090465,-9.80418,-0.304308,-3.00366,-43.141
2023-02-16 22:49:35:871,-0.482568,0.10219,-9.79084,-0.30039,-3.00635,-43.1474
2023-02-16 22:49:35:881,-0.479001,0.0890858,-9.76541,-0.297291,-3.00646,-43.1524
2023-02-16 22:49:35:891,-0.471041,0.0765119,-9.75359,-0.292782,-3.00407,-43.1567
2023-02-16 22:49:35:901,-0.45531,0.0940648,-9.7656,-0.287592,-3.00276,-43.1614
2023-02-16 22:49:35:911,-0.445215,0.101927,-9.78579,-0.28535,-2.99837,-43.1654
2023-02-16 22:49:35:921,-0.432228,0.118905,-9.79973,-0.282517,-2.99644,-43.1657
2023-02-16 22:49:35:931,-0.439069,0.113248,-9.80434,-0.276728,-2.99429,-43.1626
2023-02-16 22:49:35:941,-0.443151,0.107137,-9.80702,-0.268658,-2.99373,-43.1544
2023-02-16 22:49:35:951,-0.448154,0.0946037,-9.82013,-0.256386,-2.99657,-43.1476
2023-02-16 22:49:35:961,-0.456553,0.0739091,-9.82116,-0.244085,-3.00167,-43.1386
2023-02-16 22:49:35:971,-0.474408,0.0604352,-9.79973,-0.228343,-3.00478,-43.1272
2023-02-16 22:49:35:981,-0.490684,0.0450881,-9.78308,-0.21131,-3.00701,-43.1166
2023-02-16 22:49:35:991,-0.497855,0.024583,-9.76943,-0.192709,-3.00907,-43.1078
2023-02-16 22:49:36:1,-0.500974,0.0054797,-9.77271,-0.175813,-3.0125,-43.0948
2023-02-16 22:49:36:11,-0.511125,-0.00582721,-9.75153,-0.162459,-3.01806,-43.0831
2023-02-16 22:49:36:21,-0.524328,-0.0156061,-9.7403,-0.151136,-3.02202,-43.0691
2023-02-16 22:49:36:31,-0.533895,-0.00689589,-9.75356,-0.138043,-3.02797,-43.0567
2023-02-16 22:49:36:41,-0.55243,0.00749605,-9.75749,-0.130179,-3.03731,-43.0481
2023-02-16 22:49:36:51,-0.5628,0.013069,-9.74151,-0.121019,-3.0447,-43.0424
2023-02-16 22:49:36:61,-0.570532,0.014343,-9.74216,-0.112629,-3.05121,-43.0387
2023-02-16 22:49:36:71,-0.578821,0.00586076,-9.74999,-0.106603,-3.05792,-43.0312
2023-02-16 22:49:36:81,-0.577401,0.00494864,-9.75382,-0.0990533,-3.06109,-43.0308
2023-02-16 22:49:36:91,-0.580004,0.00515706,-9.74738,-0.0914768,-3.06387,-43.0279
2023-02-16 22:49:36:101,-0.558698,0.00670435,-9.73503,-0.0831339,-3.0615,-43.0275
2023-02-16 22:49:36:111,-0.543699,-0.00245279,-9.73854,-0.0785836,-3.05804,-43.0265
2023-02-16 22:49:36:121,-0.534767,-0.0142954,-9.73607,-0.0727057,-3.05701,-43.0255
2023-02-16 22:49:36:131,-0.524614,-0.00329378,-9.72389,-0.0689123,-3.05529,-43.0191
2023-02-16 22:49:36:141,-0.538872,0.0156286,-9.72294,-0.0692858,-3.05337,-43.0187
2023-02-16 22:49:36:151,-0.543847,0.0158695,-9.7431,-0.068645,-3.05397,-43.0181
2023-02-16 22:49:36:161,-0.53084,0.0270621,-9.75798,-0.0661746,-3.05464,-43.0205
2023-02-16 22:49:36:171,-0.534429,0.0291018,-9.76371,-0.0653443,-3.05306,-43.0197
2023-02-16 22:49:36:181,-0.533436,0.0406594,-9.78294,-0.0668627,-3.04731,-43.0211
2023-02-16 22:49:36:191,-0.525893,0.0358137,-9.77764,-0.0658672,-3.04665,-43.0211
2023-02-16 22:49:36:201,-0.521291,0.0340599,-9.76599,-0.06662,-3.04377,-43.0227
2023-02-16 22:49:36:211,-0.534176,0.046947,-9.76803,-0.0683312,-3.04029,-43.0215
2023-02-16 22:49:36:221,-0.546833,0.0475413,-9.79427,-0.0706867,-3.03776,-43.0233
2023-02-16 22:49:36:231,-0.540473,0.0752842,-9.8353,-0.0711713,-3.03029,-43.0258
2023-02-16 22:49:36:241,-0.525963,0.0784562,-9.86144,-0.0709318,-3.02724,-43.0325
2023-02-16 22:49:36:251,-0.492939,0.0705374,-9.85046,-0.0613751,-3.02432,-43.0409
2023-02-16 22:49:36:262,-0.495326,0.043782,-9.85802,-0.045417,-3.02333,-43.049
2023-02-16 22:49:36:271,-0.523156,0.0164206,-9.84898,-0.0302923,-3.02176,-43.0563
2023-02-16 22:49:36:281,-0.535173,0.00677223,-9.87251,-0.0137385,-3.01944,-43.0598
2023-02-16 22:49:36:291,-0.509931,-0.00362272,-9.86055,0.00712236,-3.0175,-43.0703
2023-02-16 22:49:36:301,-0.447109,-0.047377,-9.83046,0.0327208,-3.01654,-43.0752
2023-02-16 22:49:36:311,-0.412421,-0.0972371,-9.74894,0.05834,-3.02028,-43.077
2023-02-16 22:49:36:321,-0.432702,-0.120311,-9.69383,0.0800736,-3.03105,-43.0751
2023-02-16 22:49:36:331,-0.483113,-0.121841,-9.67138,0.0963415,-3.04049,-43.0698
2023-02-16 22:49:36:341,-0.519676,-0.122932,-9.62392,0.112087,-3.04884,-43.064
2023-02-16 22:49:36:351,-0.549603,-0.109471,-9.60249,0.120442,-3.05067,-43.0569
2023-02-16 22:49:36:361,-0.557616,-0.0902586,-9.62629,0.11965,-3.04613,-43.0524
2023-02-16 22:49:36:371,-0.518964,-0.0687429,-9.65561,0.113045,-3.03865,-43.0426
2023-02-16 22:49:36:381,-0.486946,-0.0583142,-9.65681,0.10248,-3.02973,-43.0275
2023-02-16 22:49:36:391,-0.487399,-0.0507906,-9.66853,0.0891364,-3.02094,-43.0082
2023-02-16 22:49:36:401,-0.513622,-0.00992636,-9.71115,0.0684655,-3.00966,-42.9821
2023-02-16 22:49:36:411,-0.543105,0.0225171,-9.73397,0.0447726,-3.00013,-42.9619
2023-02-16 22:49:36:421,-0.55417,0.0293989,-9.73454,0.0238577,-2.98854,-42.94
2023-02-16 22:49:36:431,-0.569051,0.0385055,-9.74847,0.000477484,-2.97756,-42.9229
2023-02-16 22:49:36:441,-0.576789,0.0425063,-9.76943,-0.0242194,-2.96804,-42.9116
2023-02-16 22:49:36:451,-0.581105,0.0572878,-9.79665,-0.0465082,-2.95845,-42.9032
2023-02-16 22:49:36:461,-0.580269,0.0508606,-9.79865,-0.0688248,-2.95004,-42.9021
2023-02-16 22:49:36:471,-0.577999,0.0636291,-9.79565,-0.08832,-2.94206,-42.9055
2023-02-16 22:49:36:481,-0.583187,0.0786662,-9.81045,-0.104536,-2.93827,-42.9175
2023-02-16 22:49:36:491,-0.571534,0.0947042,-9.82071,-0.117483,-2.9346,-42.9348
2023-02-16 22:49:36:501,-0.572442,0.0909733,-9.82686,-0.12902,-2.93857,-42.9575
2023-02-16 22:49:36:511,-0.560401,0.0685162,-9.84918,-0.135407,-2.94144,-42.9845
2023-02-16 22:49:36:521,-0.533667,0.0578291,-9.8641,-0.142399,-2.94901,-43.0145
2023-02-16 22:49:36:531,-0.510277,0.0265329,-9.84868,-0.145226,-2.95424,-43.0461
2023-02-16 22:49:36:541,-0.521826,-0.00472479,-9.80507,-0.147491,-2.96154,-43.0768
2023-02-16 22:49:36:551,-0.517721,-0.00680697,-9.77393,-0.147458,-2.97586,-43.1104
2023-02-16 22:49:36:561,-0.536932,0.00555219,-9.7613,-0.149995,-2.98985,-43.1479
2023-02-16 22:49:36:571,-0.53789,0.0139392,-9.76523,-0.153696,-3.00487,-43.1853
2023-02-16 22:49:36:581,-0.546629,0.033393,-9.78876,-0.156353,-3.01674,-43.2268
2023-02-16 22:49:36:591,-0.533623,0.037231,-9.82163,-0.155582,-3.02858,-43.2669
2023-02-16 22:49:36:601,-0.534768,0.0511601,-9.84506,-0.152749,-3.0408,-43.3068
2023-02-16 22:49:36:611,-0.557065,0.0574924,-9.87529,-0.14921,-3.05738,-43.3486
2023-02-16 22:49:36:621,-0.592708,0.0683642,-9.86694,-0.142312,-3.07624,-43.3968
2023-02-16 22:49:36:631,-0.598745,0.053423,-9.87006,-0.128128,-3.09513,-43.4465
2023-02-16 22:49:36:641,-0.579279,0.0354573,-9.84119,-0.111602,-3.11082,-43.4978
2023-02-16 22:49:36:651,-0.542012,0.00397874,-9.80888,-0.0923869,-3.12605,-43.5465
2023-02-16 22:49:36:661,-0.50253,-0.0256137,-9.80183,-0.0691434,-3.13739,-43.5906
2023-02-16 22:49:36:671,-0.488185,-0.0339613,-9.77297,-0.0461679,-3.15093,-43.6269
2023-02-16 22:49:36:681,-0.456167,-0.0348956,-9.76081,-0.0249216,-3.16323,-43.6617
2023-02-16 22:49:36:691,-0.431397,-0.0599543,-9.71646,-0.000169844,-3.17723,-43.6902
2023-02-16 22:49:36:701,-0.449232,-0.0654244,-9.70724,0.0187496,-3.18906,-43.7047
2023-02-16 22:49:36:711,-0.475115,-0.0434781,-9.69791,0.0337828,-3.19913,-43.7148
2023-02-16 22:49:36:721,-0.489442,-0.0217954,-9.70265,0.0429095,-3.20516,-43.7189
2023-02-16 22:49:36:731,-0.494289,0.0146316,-9.7299,0.0513847,-3.21102,-43.7197
2023-02-16 22:49:36:741,-0.503958,0.0464701,-9.74887,0.0583642,-3.21387,-43.7157
2023-02-16 22:49:36:751,-0.505495,0.0458103,-9.75087,0.0633333,-3.21348,-43.7028
2023-02-16 22:49:36:761,-0.511006,0.0606892,-9.75454,0.0691222,-3.20688,-43.6842
2023-02-16 22:49:36:771,-0.527871,0.0600549,-9.76329,0.0742512,-3.19383,-43.6576
2023-02-16 22:49:36:781,-0.518134,0.0553088,-9.75558,0.0817361,-3.17937,-43.6297
2023-02-16 22:49:36:791,-0.520501,0.053754,-9.73907,0.0847921,-3.16052,-43.601
2023-02-16 22:49:36:801,-0.523144,0.0594043,-9.73355,0.0882895,-3.14326,-43.5672
2023-02-16 22:49:36:811,-0.532801,0.0555305,-9.71582,0.0937724,-3.11963,-43.5318
2023-02-16 22:49:36:821,-0.545517,0.0645596,-9.70835,0.094732,-3.0976,-43.5005
2023-02-16 22:49:36:831,-0.548433,0.0902582,-9.7229,0.0925697,-3.07496,-43.472
2023-02-16 22:49:36:841,-0.554509,0.105618,-9.74806,0.0927444,-3.05314,-43.4514
2023-02-16 22:49:36:851,-0.55164,0.117595,-9.7643,0.0912139,-3.03229,-43.4405
2023-02-16 22:49:36:862,-0.552567,0.112472,-9.77425,0.0917809,-3.01469,-43.4328
2023-02-16 22:49:36:871,-0.526448,0.096488,-9.7798,0.0925105,-2.99894,-43.4311
2023-02-16 22:49:36:881,-0.514985,0.066481,-9.77676,0.100226,-2.98219,-43.435
2023-02-16 22:49:36:891,-0.5067,0.0571413,-9.74102,0.103845,-2.96821,-43.4426
2023-02-16 22:49:36:901,-0.469358,0.0211419,-9.70227,0.108217,-2.95347,-43.455
2023-02-16 22:49:36:911,-0.430917,-0.0104702,-9.70787,0.1117,-2.93146,-43.4633
2023-02-16 22:49:36:922,-0.38689,-0.000350498,-9.73872,0.116252,-2.91125,-43.4698
2023-02-16 22:49:36:932,-0.348621,-0.00374044,-9.74373,0.113426,-2.89402,-43.4723
2023-02-16 22:49:36:941,-0.293689,-0.0028336,-9.76443,0.11281,-2.87605,-43.4682
2023-02-16 22:49:36:951,-0.231311,0.00333575,-9.84116,0.112942,-2.86052,-43.4526
2023-02-16 22:49:36:961,-0.216815,-0.00459211,-9.93395,0.121447,-2.8445,-43.4245
2023-02-16 22:49:36:971,-0.2851,-0.0239212,-9.98264,0.135131,-2.82759,-43.3814
2023-02-16 22:49:36:982,-0.317046,-0.0385571,-9.9764,0.158636,-2.81025,-43.3372
2023-02-16 22:49:36:991,-0.27672,-0.0959074,-9.89975,0.190018,-2.79515,-43.2782
2023-02-16 22:49:37:1,-0.309141,-0.142037,-9.81916,0.223849,-2.78006,-43.2052
2023-02-16 22:49:37:11,-0.376144,-0.137126,-9.75072,0.253228,-2.76721,-43.1278
2023-02-16 22:49:37:22,-0.433074,-0.146785,-9.66941,0.269212,-2.75451,-43.044
2023-02-16 22:49:37:31,-0.489845,-0.128707,-9.61981,0.281274,-2.73465,-42.9634
2023-02-16 22:49:37:41,-0.563221,-0.0855937,-9.60773,0.280569,-2.71653,-42.8855
2023-02-16 22:49:37:51,-0.596721,-0.0422641,-9.62156,0.268731,-2.7017,-42.8172
2023-02-16 22:49:37:61,-0.599711,0.0304673,-9.67043,0.251287,-2.68256,-42.7537
2023-02-16 22:49:37:71,-0.603615,0.0726677,-9.72863,0.228889,-2.65967,-42.6988
2023-02-16 22:49:37:81,-0.62393,0.105756,-9.75122,0.207048,-2.63869,-42.6548
2023-02-16 22:49:37:91,-0.64811,0.126982,-9.77242,0.189474,-2.61946,-42.6228
2023-02-16 22:49:37:101,-0.664592,0.132006,-9.7343,0.171351,-2.5964,-42.6041
2023-02-16 22:49:37:111,-0.641087,0.13228,-9.70987,0.160143,-2.57069,-42.5983
2023-02-16 22:49:37:121,-0.567849,0.117767,-9.71503,0.148338,-2.54241,-42.6066
2023-02-16 22:49:37:131,-0.485698,0.111457,-9.72656,0.13487,-2.51511,-42.6202
2023-02-16 22:49:37:141,-0.460307,0.126825,-9.7829,0.12288,-2.49197,-42.6453
2023-02-16 22:49:37:151,-0.451998,0.142165,-9.83208,0.114815,-2.47417,-42.6789
2023-02-16 22:49:37:161,-0.465996,0.141158,-9.8885,0.112656,-2.45436,-42.7209
2023-02-16 22:49:37:171,-0.444589,0.115263,-9.9204,0.115559,-2.43466,-42.7762
2023-02-16 22:49:37:182,-0.402871,0.0872702,-9.92467,0.129528,-2.41266,-42.8401
2023-02-16 22:49:37:191,-0.352845,0.0448706,-9.89544,0.149629,-2.38747,-42.9159
2023-02-16 22:49:37:201,-0.269657,-0.000549155,-9.85413,0.164722,-2.35911,-42.9988
2023-02-16 22:49:37:211,-0.162059,-0.0259867,-9.8216,0.181859,-2.33458,-43.079
2023-02-16 22:49:37:221,-0.055055,-0.0358608,-9.81439,0.193075,-2.31181,-43.1569
2023-02-16 22:49:37:231,0.0334565,-0.0486141,-9.83095,0.20017,-2.30031,-43.2283
2023-02-16 22:49:37:241,0.0993786,-0.0384596,-9.84824,0.197793,-2.3004,-43.2925
2023-02-16 22:49:37:251,0.100431,-0.00255754,-9.86052,0.191528,-2.32043,-43.3405
2023-02-16 22:49:37:261,0.0480313,0.0419066,-9.86142,0.181881,-2.35323,-43.3802
2023-02-16 22:49:37:271,-0.041149,0.0767362,-9.85174,0.17617,-2.39118,-43.4071
2023-02-16 22:49:37:281,-0.127288,0.115105,-9.82985,0.172222,-2.44289,-43.4271
2023-02-16 22:49:37:291,-0.176481,0.128516,-9.80344,0.172936,-2.49735,-43.4343
2023-02-16 22:49:37:301,-0.240118,0.113308,-9.79701,0.185411,-2.55466,-43.4309
2023-02-16 22:49:37:311,-0.32489,0.0869668,-9.79795,0.204058,-2.61148,-43.4156
2023-02-16 22:49:37:321,-0.371693,0.0515415,-9.79427,0.224994,-2.66715,-43.3906
2023-02-16 22:49:37:331,-0.415676,0.0190308,-9.77653,0.256492,-2.72284,-43.3509
2023-02-16 22:49:37:341,-0.503622,-0.00904703,-9.79406,0.292011,-2.77938,-43.3038
2023-02-16 22:49:37:351,-0.62018,-0.0109094,-9.8313,0.328658,-2.83199,-43.2503
2023-02-16 22:49:37:361,-0.711538,-0.028848,-9.82352,0.365697,-2.88514,-43.1983
2023-02-16 22:49:37:371,-0.795967,-0.0580683,-9.81348,0.405589,-2.93459,-43.147
2023-02-16 22:49:37:381,-0.884557,-0.0725885,-9.83026,0.447992,-2.98006,-43.1003
2023-02-16 22:49:37:391,-0.954512,-0.0940603,-9.81408,0.492191,-3.02045,-43.0638
2023-02-16 22:49:37:401,-0.999245,-0.124748,-9.81987,0.540411,-3.06124,-43.0382
2023-02-16 22:49:37:411,-1.01277,-0.121464,-9.82933,0.590007,-3.09272,-43.0217
2023-02-16 22:49:37:421,-1.00178,-0.145441,-9.79978,0.640932,-3.12234,-43.0161
2023-02-16 22:49:37:431,-0.985012,-0.17701,-9.78827,0.694633,-3.14316,-43.0216
2023-02-16 22:49:37:441,-0.977227,-0.182271,-9.8057,0.7445,-3.15698,-43.0377
2023-02-16 22:49:37:451,-0.944944,-0.190276,-9.77491,0.797835,-3.1695,-43.0629
2023-02-16 22:49:37:461,-0.913806,-0.2055,-9.76509,0.852454,-3.17575,-43.0961
2023-02-16 22:49:37:471,-0.827542,-0.205987,-9.78133,0.910506,-3.1745,-43.1394
2023-02-16 22:49:37:482,-0.752286,-0.224361,-9.7563,0.971523,-3.16579,-43.187
2023-02-16 22:49:37:491,-0.691283,-0.243719,-9.7234,1.03307,-3.15416,-43.2392
2023-02-16 22:49:37:501,-0.632536,-0.273424,-9.72159,1.09331,-3.13592,-43.2866
2023-02-16 22:49:37:511,-0.582125,-0.302369,-9.70436,1.15646,-3.1146,-43.3314
2023-02-16 22:49:37:521,-0.548819,-0.319435,-9.67419,1.2155,-3.08895,-43.3727
2023-02-16 22:49:37:531,-0.500124,-0.32864,-9.64405,1.27376,-3.06403,-43.4105
2023-02-16 22:49:37:541,-0.4344,-0.342864,-9.61075,1.32815,-3.03609,-43.4473
2023-02-16 22:49:37:551,-0.38185,-0.369105,-9.61701,1.37767,-3.00694,-43.4768
2023-02-16 22:49:37:561,-0.322896,-0.365301,-9.65749,1.41739,-2.98419,-43.4965
2023-02-16 22:49:37:571,-0.290667,-0.351046,-9.68197,1.4525,-2.96375,-43.5115
2023-02-16 22:49:37:581,-0.279865,-0.337388,-9.69984,1.48395,-2.95233,-43.5175
2023-02-16 22:49:37:591,-0.284681,-0.321653,-9.70701,1.5103,-2.94529,-43.5189
2023-02-16 22:49:37:601,-0.332409,-0.307257,-9.67786,1.53415,-2.94375,-43.5105
2023-02-16 22:49:37:611,-0.406913,-0.290231,-9.71086,1.55224,-2.94748,-43.497
2023-02-16 22:49:37:621,-0.494125,-0.274106,-9.76667,1.56875,-2.95377,-43.4835
2023-02-16 22:49:37:631,-0.528147,-0.249039,-9.77846,1.58622,-2.95271,-43.4712
2023-02-16 22:49:37:641,-0.508686,-0.276704,-9.77016,1.60622,-2.95058,-43.4587
2023-02-16 22:49:37:651,-0.472792,-0.304488,-9.7574,1.62507,-2.95304,-43.4454
2023-02-16 22:49:37:661,-0.502088,-0.307181,-9.73047,1.63882,-2.95662,-43.4308
2023-02-16 22:49:37:671,-0.531386,-0.305658,-9.6771,1.65032,-2.96357,-43.4163
2023-02-16 22:49:37:681,-0.553752,-0.306368,-9.61226,1.65431,-2.97005,-43.4006
2023-02-16 22:49:37:691,-0.598722,-0.295235,-9.54911,1.64949,-2.9791,-43.3841
2023-02-16 22:49:37:701,-0.651316,-0.267902,-9.53653,1.63047,-2.98644,-43.3698
2023-02-16 22:49:37:711,-0.649807,-0.22656,-9.57059,1.60203,-2.98571,-43.3576
2023-02-16 22:49:37:721,-0.615665,-0.190288,-9.59954,1.56656,-2.98012,-43.3468
2023-02-16 22:49:37:731,-0.591373,-0.159893,-9.6824,1.5261,-2.96983,-43.3408
2023-02-16 22:49:37:741,-0.569373,-0.123583,-9.77728,1.47882,-2.9623,-43.3371
2023-02-16 22:49:37:751,-0.54588,-0.092127,-9.83717,1.43464,-2.9533,-43.3363
2023-02-16 22:49:37:761,-0.538305,-0.0648564,-9.86709,1.39808,-2.94623,-43.3434
2023-02-16 22:49:37:771,-0.545082,-0.04101,-9.8931,1.36717,-2.94583,-43.351
2023-02-16 22:49:37:781,-0.565421,-0.0282847,-9.9259,1.34367,-2.9454,-43.3625
2023-02-16 22:49:37:791,-0.59027,-0.0209473,-9.92933,1.32916,-2.94715,-43.3818
2023-02-16 22:49:37:801,-0.611768,-0.0403401,-9.90588,1.32451,-2.95101,-43.4064
2023-02-16 22:49:37:811,-0.632907,-0.0724252,-9.88667,1.32883,-2.95084,-43.4373
2023-02-16 22:49:37:821,-0.635914,-0.11456,-9.85056,1.34337,-2.95105,-43.4766
2023-02-16 22:49:37:831,-0.627302,-0.146335,-9.8651,1.3614,-2.94409,-43.5207
2023-02-16 22:49:37:841,-0.607773,-0.186364,-9.87987,1.38405,-2.93757,-43.5686
2023-02-16 22:49:37:851,-0.547252,-0.227768,-9.88768,1.40827,-2.92448,-43.6206
2023-02-16 22:49:37:861,-0.462582,-0.254349,-9.8364,1.43796,-2.90887,-43.6708
2023-02-16 22:49:37:871,-0.424946,-0.290196,-9.75749,1.4638,-2.89522,-43.719
2023-02-16 22:49:37:881,-0.381069,-0.302786,-9.72915,1.4846,-2.88384,-43.7644
2023-02-16 22:49:37:891,-0.348596,-0.287619,-9.70806,1.50135,-2.87642,-43.8048
2023-02-16 22:49:37:901,-0.351264,-0.30045,-9.68826,1.51471,-2.87015,-43.8362
2023-02-16 22:49:37:911,-0.390892,-0.284233,-9.69312,1.52088,-2.86602,-43.866
2023-02-16 22:49:37:921,-0.448237,-0.252301,-9.67661,1.52493,-2.86196,-43.891
2023-02-16 22:49:37:931,-0.487677,-0.229122,-9.68329,1.52612,-2.84548,-43.9179
2023-02-16 22:49:37:941,-0.468577,-0.184569,-9.72835,1.52141,-2.8258,-43.9415
2023-02-16 22:49:37:951,-0.391397,-0.18321,-9.78524,1.519,-2.80137,-43.9626
2023-02-16 22:49:37:961,-0.333637,-0.191574,-9.80228,1.52223,-2.77393,-43.974
2023-02-16 22:49:37:971,-0.290286,-0.186877,-9.80909,1.52515,-2.74823,-43.9788
2023-02-16 22:49:37:981,-0.241365,-0.185539,-9.81503,1.52607,-2.72632,-43.9787
2023-02-16 22:49:37:991,-0.244928,-0.167172,-9.81363,1.52643,-2.71184,-43.9687
2023-02-16 22:49:38:1,-0.24857,-0.167279,-9.81684,1.53186,-2.70101,-43.9508
2023-02-16 22:49:38:11,-0.254277,-0.154292,-9.8373,1.53404,-2.69732,-43.9283
2023-02-16 22:49:38:22,-0.306018,-0.161766,-9.8368,1.54073,-2.70176,-43.8969
2023-02-16 22:49:38:31,-0.395936,-0.178013,-9.8073,1.55049,-2.70828,-43.864
2023-02-16 22:49:38:41,-0.475203,-0.183983,-9.80749,1.56849,-2.71517,-43.8273
2023-02-16 22:49:38:51,-0.501824,-0.201987,-9.81183,1.58822,-2.71993,-43.7889
2023-02-16 22:49:38:61,-0.542059,-0.224684,-9.78995,1.61077,-2.71981,-43.7522
2023-02-16 22:49:38:71,-0.556146,-0.268346,-9.80606,1.63609,-2.71506,-43.719
2023-02-16 22:49:38:81,-0.548361,-0.285702,-9.7912,1.66152,-2.70696,-43.6864
2023-02-16 22:49:38:91,-0.529968,-0.295224,-9.7692,1.68685,-2.6996,-43.6576
2023-02-16 22:49:38:101,-0.534586,-0.294694,-9.75202,1.71173,-2.69284,-43.6302
2023-02-16 22:49:38:111,-0.54076,-0.325237,-9.72024,1.73772,-2.68637,-43.6112
2023-02-16 22:49:38:121,-0.522898,-0.32691,-9.70979,1.75975,-2.68369,-43.5975
2023-02-16 22:49:38:131,-0.503706,-0.333459,-9.68674,1.78361,-2.67907,-43.5958
2023-02-16 22:49:38:141,-0.48059,-0.338577,-9.68655,1.79976,-2.68254,-43.5962
2023-02-16 22:49:38:151,-0.450154,-0.339338,-9.7035,1.80853,-2.68696,-43.6015
2023-02-16 22:49:38:161,-0.422026,-0.324047,-9.74924,1.81943,-2.69247,-43.612
2023-02-16 22:49:38:171,-0.407479,-0.3001,-9.79504,1.82868,-2.70105,-43.626
2023-02-16 22:49:38:181,-0.385548,-0.293848,-9.82719,1.84259,-2.71703,-43.6408
2023-02-16 22:49:38:191,-0.380779,-0.285201,-9.84944,1.85128,-2.73305,-43.6532
2023-02-16 22:49:38:201,-0.393355,-0.284733,-9.81993,1.86574,-2.74807,-43.6618
2023-02-16 22:49:38:211,-0.408035,-0.284444,-9.79203,1.88524,-2.76794,-43.6667
2023-02-16 22:49:38:221,-0.45283,-0.308747,-9.79054,1.90558,-2.78053,-43.6721
2023-02-16 22:49:38:231,-0.480216,-0.329556,-9.83609,1.93422,-2.78923,-43.6737
2023-02-16 22:49:38:241,-0.474884,-0.341694,-9.87633,1.96552,-2.79421,-43.6732
2023-02-16 22:49:38:251,-0.418933,-0.362344,-9.87533,1.99562,-2.79628,-43.6722
2023-02-16 22:49:38:261,-0.357081,-0.401908,-9.84282,2.0232,-2.80038,-43.665
2023-02-16 22:49:38:271,-0.365897,-0.416223,-9.80671,2.05925,-2.81222,-43.6516
2023-02-16 22:49:38:281,-0.423184,-0.414648,-9.776,2.08864,-2.83089,-43.6366
2023-02-16 22:49:38:291,-0.486446,-0.418098,-9.76234,2.11571,-2.85085,-43.6223
2023-02-16 22:49:38:301,-0.528651,-0.412762,-9.7332,2.14199,-2.86461,-43.6055
2023-02-16 22:49:38:311,-0.550177,-0.386044,-9.74,2.16722,-2.87868,-43.5966
2023-02-16 22:49:38:321,-0.552905,-0.369252,-9.72489,2.19126,-2.8874,-43.587
2023-02-16 22:49:38:331,-0.538895,-0.376092,-9.71858,2.21796,-2.89024,-43.5772
2023-02-16 22:49:38:341,-0.524293,-0.378384,-9.72538,2.24613,-2.89334,-43.5642
2023-02-16 22:49:38:351,-0.51367,-0.384832,-9.74096,2.27395,-2.89598,-43.5483
2023-02-16 22:49:38:361,-0.49276,-0.386837,-9.73175,2.30227,-2.89771,-43.5294
2023-02-16 22:49:38:371,-0.484384,-0.415297,-9.72164,2.33173,-2.90151,-43.5072
2023-02-16 22:49:38:381,-0.503109,-0.419964,-9.71241,2.35993,-2.90842,-43.4833
2023-02-16 22:49:38:392,-0.538912,-0.434986,-9.70417,2.38672,-2.91639,-43.4627
2023-02-16 22:49:38:402,-0.568022,-0.439034,-9.69687,2.41288,-2.92728,-43.443
2023-02-16 22:49:38:412,-0.565506,-0.451751,-9.70389,2.43418,-2.93591,-43.4232
2023-02-16 22:49:38:422,-0.55572,-0.460087,-9.71442,2.45916,-2.9412,-43.4029
2023-02-16 22:49:38:431,-0.561738,-0.454604,-9.75155,2.47859,-2.94948,-43.3859
2023-02-16 22:49:38:442,-0.558759,-0.470267,-9.78657,2.49741,-2.95488,-43.3643
2023-02-16 22:49:38:452,-0.587711,-0.480772,-9.785,2.51404,-2.95774,-43.3433
2023-02-16 22:49:38:462,-0.617444,-0.487448,-9.78643,2.53182,-2.95733,-43.3252
2023-02-16 22:49:38:472,-0.617786,-0.489409,-9.79105,2.54944,-2.95054,-43.3084
2023-02-16 22:49:38:481,-0.60568,-0.469102,-9.75775,2.56123,-2.93549,-43.291
2023-02-16 22:49:38:491,-0.587175,-0.478911,-9.72065,2.56533,-2.91976,-43.2718
2023-02-16 22:49:38:502,-0.551198,-0.440397,-9.72885,2.5686,-2.90369,-43.2521
2023-02-16 22:49:38:511,-0.501698,-0.416706,-9.74734,2.57134,-2.88189,-43.2308
2023-02-16 22:49:38:521,-0.48083,-0.404862,-9.71004,2.57493,-2.86081,-43.2037
2023-02-16 22:49:38:531,-0.501477,-0.417179,-9.67381,2.57869,-2.83877,-43.1763
2023-02-16 22:49:38:542,-0.504913,-0.423843,-9.65451,2.58568,-2.81665,-43.1466
2023-02-16 22:49:38:551,-0.490422,-0.42681,-9.66543,2.59142,-2.79912,-43.1132
2023-02-16 22:49:38:562,-0.504899,-0.440122,-9.65483,2.5986,-2.78261,-43.0788
2023-02-16 22:49:38:571,-0.492012,-0.462923,-9.63919,2.60428,-2.76665,-43.0479
2023-02-16 22:49:38:581,-0.466651,-0.480834,-9.63928,2.60618,-2.75186,-43.016
2023-02-16 22:49:38:591,-0.4734,-0.487301,-9.67698,2.60693,-2.74064,-42.9861
2023-02-16 22:49:38:601,-0.476097,-0.476479,-9.71815,2.6021,-2.73411,-42.9628
2023-02-16 22:49:38:611,-0.469791,-0.468946,-9.73992,2.59466,-2.73159,-42.939
2023-02-16 22:49:38:622,-0.45525,-0.447683,-9.79025,2.5825,-2.73338,-42.9208
2023-02-16 22:49:38:631,-0.470141,-0.42835,-9.80837,2.57042,-2.73803,-42.9053
2023-02-16 22:49:38:641,-0.485529,-0.433145,-9.8262,2.55896,-2.74664,-42.8914
2023-02-16 22:49:38:651,-0.491824,-0.423251,-9.8317,2.54929,-2.75758,-42.8817
2023-02-16 22:49:38:662,-0.474362,-0.431223,-9.83761,2.53886,-2.7674,-42.8718
2023-02-16 22:49:38:671,-0.478621,-0.441858,-9.80285,2.53116,-2.7777,-42.8651
2023-02-16 22:49:38:682,-0.455136,-0.444417,-9.78215,2.52205,-2.78485,-42.8579
2023-02-16 22:49:38:691,-0.434668,-0.435897,-9.78054,2.50937,-2.79291,-42.8493
2023-02-16 22:49:38:701,-0.434363,-0.429705,-9.79916,2.49979,-2.79597,-42.8391
2023-02-16 22:49:38:711,-0.44718,-0.418533,-9.79462,2.4923,-2.80399,-42.8236
2023-02-16 22:49:38:721,-0.46469,-0.417058,-9.78933,2.48697,-2.80819,-42.81
2023-02-16 22:49:38:731,-0.474373,-0.439684,-9.78067,2.48171,-2.81215,-42.7951
2023-02-16 22:49:38:741,-0.477416,-0.448209,-9.75317,2.48019,-2.80865,-42.7749
2023-02-16 22:49:38:751,-0.498471,-0.449067,-9.7075,2.48464,-2.80518,-42.7515
2023-02-16 22:49:38:762,-0.485066,-0.455192,-9.66086,2.48594,-2.79771,-42.729
2023-02-16 22:49:38:771,-0.478396,-0.470528,-9.65387,2.4835,-2.78953,-42.7063
2023-02-16 22:49:38:781,-0.521007,-0.420206,-9.68558,2.48048,-2.78037,-42.6822
2023-02-16 22:49:38:791,-0.564303,-0.400321,-9.67216,2.48304,-2.76794,-42.6673
2023-02-16 22:49:38:801,-0.560645,-0.411253,-9.68643,2.48203,-2.75548,-42.6532
2023-02-16 22:49:38:811,-0.586299,-0.404115,-9.75737,2.47744,-2.74136,-42.647
2023-02-16 22:49:38:821,-0.639775,-0.434178,-9.8366,2.47093,-2.72901,-42.6477
2023-02-16 22:49:38:831,-0.636917,-0.406616,-10.0044,2.45885,-2.72035,-42.6542
2023-02-16 22:49:38:841,-0.601427,-0.320904,-10.1918,2.44182,-2.71469,-42.6733
2023-02-16 22:49:38:851,-0.585983,-0.312106,-10.1951,2.43192,-2.71007,-42.6989
2023-02-16 22:49:38:862,-0.56397,-0.304998,-10.1382,2.43303,-2.70781,-42.7264
2023-02-16 22:49:38:871,-0.560789,-0.321218,-10.0691,2.44389,-2.70632,-42.7556
2023-02-16 22:49:38:881,-0.547644,-0.349034,-9.95566,2.46506,-2.70295,-42.7888
2023-02-16 22:49:38:891,-0.525347,-0.347342,-9.82094,2.49304,-2.69541,-42.8233
2023-02-16 22:49:38:901,-0.497405,-0.382325,-9.68147,2.528,-2.68583,-42.8541
2023-02-16 22:49:38:911,-0.467307,-0.429486,-9.52053,2.56467,-2.67394,-42.8799
2023-02-16 22:49:38:921,-0.441694,-0.463389,-9.40214,2.60207,-2.65956,-42.8987
2023-02-16 22:49:38:931,-0.420995,-0.490102,-9.33334,2.63101,-2.64349,-42.9121
2023-02-16 22:49:38:941,-0.427203,-0.480187,-9.30525,2.65211,-2.6235,-42.9235
2023-02-16 22:49:38:951,-0.433861,-0.471809,-9.36154,2.65967,-2.60435,-42.932
2023-02-16 22:49:38:962,-0.437621,-0.444629,-9.43347,2.65957,-2.58481,-42.9471
2023-02-16 22:49:38:971,-0.425275,-0.434945,-9.52957,2.65334,-2.56257,-42.9566
2023-02-16 22:49:38:982,-0.41649,-0.397465,-9.64915,2.64086,-2.53741,-42.9699
2023-02-16 22:49:38:991,-0.415911,-0.382023,-9.77689,2.62473,-2.5135,-42.9826
2023-02-16 22:49:39:2,-0.419415,-0.3642,-9.86686,2.60711,-2.48817,-42.9988
2023-02-16 22:49:39:12,-0.412436,-0.358189,-9.91899,2.59215,-2.4622,-43.0155
2023-02-16 22:49:39:21,-0.401243,-0.366424,-9.98951,2.57596,-2.43719,-43.0351
2023-02-16 22:49:39:31,-0.380541,-0.33897,-10.0171,2.55957,-2.41129,-43.0601
2023-02-16 22:49:39:41,-0.364998,-0.345722,-10.0097,2.54528,-2.38446,-43.0889
2023-02-16 22:49:39:51,-0.313004,-0.336281,-9.97402,2.53925,-2.35745,-43.1145
2023-02-16 22:49:39:61,-0.247706,-0.329726,-9.96963,2.53502,-2.33515,-43.1389
2023-02-16 22:49:39:72,-0.201521,-0.30159,-9.92099,2.52909,-2.31514,-43.1657
2023-02-16 22:49:39:82,-0.17037,-0.311536,-9.88174,2.53091,-2.29826,-43.1859
2023-02-16 22:49:39:91,-0.164078,-0.305048,-9.85222,2.5378,-2.28832,-43.1995
2023-02-16 22:49:39:101,-0.151528,-0.327943,-9.8274,2.54912,-2.28328,-43.2116
2023-02-16 22:49:39:111,-0.152973,-0.310799,-9.74631,2.56284,-2.28157,-43.2174
2023-02-16 22:49:39:122,-0.150359,-0.329962,-9.74673,2.58143,-2.27724,-43.2163
2023-02-16 22:49:39:131,-0.152845,-0.335195,-9.7393,2.60171,-2.27369,-43.2077
2023-02-16 22:49:39:141,-0.144114,-0.372011,-9.74196,2.62844,-2.27318,-43.191
2023-02-16 22:49:39:151,-0.190917,-0.397101,-9.69744,2.65615,-2.27267,-43.1653
2023-02-16 22:49:39:162,-0.24305,-0.440847,-9.68101,2.68844,-2.2806,-43.1344
2023-02-16 22:49:39:172,-0.303861,-0.439263,-9.65913,2.71754,-2.28658,-43.1014
2023-02-16 22:49:39:182,-0.395804,-0.476501,-9.63834,2.74251,-2.28875,-43.0693
2023-02-16 22:49:39:191,-0.513664,-0.449721,-9.63091,2.76342,-2.28776,-43.0417
2023-02-16 22:49:39:201,-0.552953,-0.451415,-9.68187,2.78239,-2.28411,-43.0212
2023-02-16 22:49:39:211,-0.532556,-0.43508,-9.71674,2.7938,-2.26999,-43.0064
2023-02-16 22:49:39:222,-0.515016,-0.432258,-9.7567,2.80369,-2.25292,-42.9979
2023-02-16 22:49:39:232,-0.452919,-0.421804,-9.73565,2.81057,-2.23546,-42.994
2023-02-16 22:49:39:241,-0.34333,-0.462206,-9.73098,2.81652,-2.21509,-42.9906
2023-02-16 22:49:39:251,-0.24083,-0.46131,-9.71453,2.81239,-2.19395,-42.9836
2023-02-16 22:49:39:261,-0.245435,-0.440679,-9.79794,2.80258,-2.17572,-42.9739
2023-02-16 22:49:39:271,-0.380436,-0.359256,-9.86695,2.79084,-2.17804,-42.9785
2023-02-16 22:49:39:281,-0.441743,-0.346552,-9.85834,2.78912,-2.19167,-43.0027
2023-02-16 22:49:39:292,-0.402123,-0.348979,-9.84284,2.79286,-2.21256,-43.0379
2023-02-16 22:49:39:302,-0.338733,-0.389131,-9.8863,2.80655,-2.23729,-43.0718
2023-02-16 22:49:39:312,-0.321481,-0.372724,-9.93226,2.82626,-2.26077,-43.1061
2023-02-16 22:49:39:321,-0.324747,-0.39761,-9.89493,2.85313,-2.28351,-43.1353
2023-02-16 22:49:39:331,-0.338076,-0.468917,-9.74381,2.89145,-2.29504,-43.1533
2023-02-16 22:49:39:342,-0.352716,-0.532289,-9.62331,2.93296,-2.29136,-43.1608
2023-02-16 22:49:39:351,-0.309398,-0.552357,-9.56701,2.96178,-2.28024,-43.1547
2023-02-16 22:49:39:361,-0.258849,-0.575694,-9.57115,2.98657,-2.265,-43.1396
2023-02-16 22:49:39:371,-0.241337,-0.562651,-9.59607,3.00658,-2.25177,-43.1141
2023-02-16 22:49:39:381,-0.248694,-0.558979,-9.59755,3.02443,-2.24668,-43.0857
2023-02-16 22:49:39:391,-0.297053,-0.529196,-9.65166,3.03613,-2.25355,-43.0584
2023-02-16 22:49:39:402,-0.377406,-0.498715,-9.76905,3.0449,-2.27,-43.034
2023-02-16 22:49:39:411,-0.468728,-0.461893,-9.86397,3.05467,-2.297,-43.0147
2023-02-16 22:49:39:421,-0.524587,-0.449552,-9.90314,3.07309,-2.33307,-43.0054
2023-02-16 22:49:39:432,-0.544141,-0.507162,-9.87716,3.10034,-2.36545,-43.001
2023-02-16 22:49:39:442,-0.549603,-0.560052,-9.83285,3.12758,-2.39772,-42.9971
2023-02-16 22:49:39:451,-0.570416,-0.59793,-9.76394,3.15629,-2.4339,-42.995
2023-02-16 22:49:39:462,-0.578403,-0.623675,-9.71301,3.17787,-2.46411,-42.9981
2023-02-16 22:49:39:472,-0.5519,-0.640542,-9.67733,3.19195,-2.4906,-43.0012
2023-02-16 22:49:39:482,-0.511757,-0.637618,-9.69513,3.19435,-2.5116,-43.0016
2023-02-16 22:49:39:492,-0.473509,-0.645064,-9.71676,3.19318,-2.53313,-42.9984
2023-02-16 22:49:39:501,-0.456506,-0.613245,-9.72951,3.18181,-2.55122,-42.9909
2023-02-16 22:49:39:511,-0.471482,-0.578598,-9.75786,3.16516,-2.57097,-42.9786
2023-02-16 22:49:39:521,-0.52017,-0.550162,-9.74759,3.14705,-2.58674,-42.9691
2023-02-16 22:49:39:531,-0.55169,-0.514345,-9.73803,3.12936,-2.59725,-42.9614
2023-02-16 22:49:39:541,-0.54896,-0.513945,-9.71752,3.1176,-2.60556,-42.9539
2023-02-16 22:49:39:551,-0.558045,-0.520544,-9.69987,3.1025,-2.6133,-42.9471
2023-02-16 22:49:39:561,-0.591351,-0.516443,-9.67552,3.0896,-2.62128,-42.9401
2023-02-16 22:49:39:571,-0.584271,-0.523692,-9.65964,3.07476,-2.62007,-42.9424
2023-02-16 22:49:39:581,-0.558886,-0.51808,-9.68136,3.05974,-2.61411,-42.9441
2023-02-16 22:49:39:591,-0.53615,-0.502295,-9.7255,3.04127,-2.6118,-42.9468
2023-02-16 22:49:39:601,-0.518695,-0.486986,-9.76772,3.02263,-2.61225,-42.9543
2023-02-16 22:49:39:611,-0.500762,-0.473524,-9.80039,3.00838,-2.61327,-42.9657
2023-02-16 22:49:39:621,-0.492531,-0.470117,-9.82671,2.99529,-2.61356,-42.978
2023-02-16 22:49:39:631,-0.479944,-0.469669,-9.84243,2.98394,-2.61271,-42.988
2023-02-16 22:49:39:641,-0.449937,-0.494095,-9.84033,2.97355,-2.61436,-43.0013
2023-02-16 22:49:39:651,-0.409115,-0.519918,-9.83372,2.9708,-2.61703,-43.0073
2023-02-16 22:49:39:661,-0.386279,-0.542578,-9.82103,2.96496,-2.62296,-43.0147
2023-02-16 22:49:39:671,-0.370996,-0.565632,-9.78593,2.95982,-2.63045,-43.0179
2023-02-16 22:49:39:682,-0.379956,-0.574057,-9.75545,2.95452,-2.64093,-43.018
2023-02-16 22:49:39:691,-0.402398,-0.582924,-9.71937,2.95055,-2.64961,-43.0158
2023-02-16 22:49:39:702,-0.429713,-0.594757,-9.68202,2.94368,-2.66117,-43.0089
2023-02-16 22:49:39:711,-0.416384,-0.584839,-9.66565,2.93184,-2.6713,-43.002
2023-02-16 22:49:39:722,-0.41358,-0.571853,-9.6552,2.91539,-2.67805,-42.9947
2023-02-16 22:49:39:731,-0.408292,-0.567907,-9.63247,2.89711,-2.68649,-42.9841
2023-02-16 22:49:39:741,-0.391575,-0.558229,-9.62596,2.87229,-2.69193,-42.9685
2023-02-16 22:49:39:751,-0.37814,-0.549116,-9.64075,2.84343,-2.69839,-42.9487
2023-02-16 22:49:39:761,-0.383372,-0.535814,-9.65147,2.81228,-2.70326,-42.9249
2023-02-16 22:49:39:771,-0.394082,-0.53092,-9.67095,2.77926,-2.71415,-42.8974
2023-02-16 22:49:39:781,-0.408154,-0.510513,-9.68575,2.74056,-2.72252,-42.8665
2023-02-16 22:49:39:791,-0.427701,-0.479724,-9.70446,2.70041,-2.73042,-42.8327
2023-02-16 22:49:39:801,-0.458808,-0.464889,-9.7335,2.6538,-2.73711,-42.7967
2023-02-16 22:49:39:811,-0.482327,-0.440581,-9.76089,2.60455,-2.74412,-42.7603
2023-02-16 22:49:39:821,-0.500309,-0.418059,-9.79166,2.55564,-2.75423,-42.726
2023-02-16 22:49:39:831,-0.514804,-0.378247,-9.82587,2.50464,-2.76263,-42.6924
2023-02-16 22:49:39:841,-0.532678,-0.340215,-9.85192,2.45548,-2.76985,-42.6604
2023-02-16 22:49:39:851,-0.565067,-0.318996,-9.87426,2.40763,-2.77541,-42.6299
2023-02-16 22:49:39:861,-0.583753,-0.290551,-9.87534,2.36431,-2.78516,-42.6037
2023-02-16 22:49:39:871,-0.584366,-0.279315,-9.88383,2.32591,-2.79473,-42.5817
2023-02-16 22:49:39:881,-0.603557,-0.273884,-9.88576,2.29243,-2.80449,-42.567
2023-02-16 22:49:39:891,-0.634618,-0.272212,-9.86459,2.26636,-2.81514,-42.5536
2023-02-16 22:49:39:901,-0.652154,-0.259618,-9.82114,2.24173,-2.82138,-42.5458
2023-02-16 22:49:39:911,-0.66398,-0.26147,-9.79024,2.22283,-2.82534,-42.5479
2023-02-16 22:49:39:921,-0.669244,-0.262386,-9.76332,2.20879,-2.82641,-42.5554
2023-02-16 22:49:39:931,-0.677178,-0.26276,-9.75959,2.19547,-2.82181,-42.5699
2023-02-16 22:49:39:942,-0.649165,-0.256446,-9.79513,2.18251,-2.81336,-42.5884
2023-02-16 22:49:39:951,-0.620662,-0.247867,-9.82745,2.16861,-2.79676,-42.6119
2023-02-16 22:49:39:962,-0.581477,-0.264541,-9.8397,2.15991,-2.78253,-42.6335
2023-02-16 22:49:39:971,-0.540841,-0.274825,-9.84527,2.15672,-2.76746,-42.6564
2023-02-16 22:49:39:981,-0.525774,-0.288515,-9.85356,2.16402,-2.74718,-42.6845
2023-02-16 22:49:39:991,-0.520505,-0.287105,-9.87926,2.17051,-2.7289,-42.7111
2023-02-16 22:49:40:1,-0.465968,-0.293049,-9.89408,2.18417,-2.70413,-42.7435
2023-02-16 22:49:40:11,-0.396403,-0.311735,-9.87808,2.20352,-2.67438,-42.7685
2023-02-16 22:49:40:22,-0.322198,-0.325855,-9.87318,2.22578,-2.65062,-42.7938
2023-02-16 22:49:40:32,-0.310062,-0.30616,-9.85701,2.25013,-2.62849,-42.816
2023-02-16 22:49:40:42,-0.326453,-0.339617,-9.80717,2.27659,-2.61099,-42.8361
2023-02-16 22:49:40:52,-0.292999,-0.380494,-9.79757,2.30613,-2.59495,-42.8447
2023-02-16 22:49:40:62,-0.275273,-0.367068,-9.81479,2.33483,-2.58191,-42.8478
2023-02-16 22:49:40:72,-0.318063,-0.376927,-9.80131,2.36223,-2.57016,-42.8515
2023-02-16 22:49:40:82,-0.338899,-0.392178,-9.76116,2.38416,-2.56374,-42.8533
2023-02-16 22:49:40:92,-0.315211,-0.406054,-9.72247,2.4074,-2.56369,-42.8472
2023-02-16 22:49:40:101,-0.305329,-0.429201,-9.68886,2.42659,-2.56157,-42.8358
2023-02-16 22:49:40:112,-0.333909,-0.441173,-9.65961,2.44321,-2.56192,-42.8189
2023-02-16 22:49:40:122,-0.35166,-0.443646,-9.63653,2.45811,-2.56777,-42.7954
2023-02-16 22:49:40:131,-0.373117,-0.445329,-9.62453,2.47167,-2.57206,-42.7663
2023-02-16 22:49:40:142,-0.408508,-0.441554,-9.62141,2.47471,-2.57596,-42.7377
2023-02-16 22:49:40:152,-0.4587,-0.416253,-9.63368,2.47102,-2.58023,-42.7095
2023-02-16 22:49:40:161,-0.481024,-0.405433,-9.66378,2.4647,-2.58066,-42.6819
2023-02-16 22:49:40:171,-0.477387,-0.389068,-9.72468,2.45827,-2.57876,-42.6583
2023-02-16 22:49:40:182,-0.493071,-0.379481,-9.74866,2.45098,-2.57587,-42.6373
2023-02-16 22:49:40:192,-0.51105,-0.380514,-9.76706,2.44572,-2.57385,-42.6171
2023-02-16 22:49:40:201,-0.519615,-0.402094,-9.76832,2.44024,-2.57402,-42.6034
2023-02-16 22:49:40:211,-0.545223,-0.404638,-9.75384,2.43726,-2.57736,-42.5935
2023-02-16 22:49:40:222,-0.567575,-0.422711,-9.75708,2.43388,-2.57448,-42.5888
2023-02-16 22:49:40:232,-0.553874,-0.42437,-9.76526,2.42935,-2.57311,-42.5879
2023-02-16 22:49:40:242,-0.539772,-0.419007,-9.74628,2.42073,-2.56885,-42.5928
2023-02-16 22:49:40:251,-0.495521,-0.406073,-9.77643,2.4153,-2.56255,-42.6026
2023-02-16 22:49:40:262,-0.458798,-0.378361,-9.81282,2.4075,-2.55628,-42.6094
2023-02-16 22:49:40:271,-0.433107,-0.353552,-9.8305,2.40036,-2.55364,-42.619
2023-02-16 22:49:40:282,-0.419582,-0.339175,-9.83883,2.39827,-2.54895,-42.6317
2023-02-16 22:49:40:291,-0.406584,-0.336039,-9.82831,2.39579,-2.54433,-42.6465
2023-02-16 22:49:40:301,-0.388548,-0.350768,-9.80538,2.39358,-2.5383,-42.658
2023-02-16 22:49:40:311,-0.378727,-0.36503,-9.78415,2.39992,-2.52906,-42.6704
2023-02-16 22:49:40:322,-0.363397,-0.379805,-9.76769,2.40676,-2.52312,-42.6795
2023-02-16 22:49:40:331,-0.340938,-0.39243,-9.74261,2.41624,-2.51351,-42.6826
2023-02-16 22:49:40:342,-0.30524,-0.423561,-9.73748,2.41866,-2.50719,-42.682
2023-02-16 22:49:40:351,-0.261853,-0.430922,-9.72783,2.42656,-2.50011,-42.6759
2023-02-16 22:49:40:361,-0.244919,-0.430536,-9.73053,2.42766,-2.49206,-42.6624
2023-02-16 22:49:40:371,-0.239483,-0.418962,-9.76854,2.42424,-2.48825,-42.6444
2023-02-16 22:49:40:381,-0.247814,-0.405482,-9.8186,2.41964,-2.48848,-42.6145
2023-02-16 22:49:40:391,-0.264072,-0.378575,-9.85224,2.41905,-2.49285,-42.5848
2023-02-16 22:49:40:401,-0.296675,-0.364668,-9.87672,2.41967,-2.49873,-42.5505
2023-02-16 22:49:40:411,-0.320094,-0.368167,-9.87167,2.42398,-2.50488,-42.5112
2023-02-16 22:49:40:422,-0.35128,-0.374373,-9.87416,2.43121,-2.51372,-42.4672
2023-02-16 22:49:40:431,-0.368897,-0.383886,-9.84901,2.44233,-2.52207,-42.4219
2023-02-16 22:49:40:441,-0.393215,-0.395854,-9.81956,2.45905,-2.53252,-42.3771
2023-02-16 22:49:40:451,-0.431299,-0.418737,-9.80128,2.47872,-2.54258,-42.3301
2023-02-16 22:49:40:461,-0.44368,-0.435913,-9.77176,2.49936,-2.55223,-42.2851
2023-02-16 22:49:40:471,-0.463491,-0.461745,-9.74221,2.51449,-2.56398,-42.2411
2023-02-16 22:49:40:481,-0.486594,-0.463456,-9.71315,2.53211,-2.57924,-42.2015
2023-02-16 22:49:40:492,-0.504565,-0.461889,-9.71655,2.54771,-2.59787,-42.1654
2023-02-16 22:49:40:501,-0.504355,-0.465071,-9.72407,2.56024,-2.61683,-42.1341
2023-02-16 22:49:40:512,-0.508119,-0.47804,-9.72137,2.5726,-2.63253,-42.1069
2023-02-16 22:49:40:522,-0.516961,-0.478764,-9.72087,2.57805,-2.65053,-42.0837
2023-02-16 22:49:40:532,-0.513776,-0.48339,-9.71853,2.58694,-2.66776,-42.058
2023-02-16 22:49:40:542,-0.525514,-0.491622,-9.71447,2.59302,-2.68684,-42.0414
2023-02-16 22:49:40:552,-0.534769,-0.497196,-9.71921,2.59935,-2.70189,-42.0245
2023-02-16 22:49:40:562,-0.548553,-0.50555,-9.7204,2.60625,-2.71805,-42.0071
2023-02-16 22:49:40:572,-0.555227,-0.482564,-9.72288,2.60991,-2.72806,-41.9904
2023-02-16 22:49:40:582,-0.548071,-0.480057,-9.72046,2.61184,-2.73492,-41.9794
2023-02-16 22:49:40:592,-0.526229,-0.474039,-9.74174,2.61228,-2.74225,-41.9672
2023-02-16 22:49:40:601,-0.522022,-0.469172,-9.73459,2.61567,-2.74334,-41.9559
2023-02-16 22:49:40:612,-0.533268,-0.483685,-9.73431,2.62,-2.74419,-41.9467
2023-02-16 22:49:40:622,-0.524188,-0.473375,-9.77008,2.62261,-2.74594,-41.9402
2023-02-16 22:49:40:632,-0.497811,-0.478299,-9.79655,2.62334,-2.74232,-41.9343
2023-02-16 22:49:40:642,-0.435046,-0.478479,-9.79249,2.62429,-2.73992,-41.9307
2023-02-16 22:49:40:651,-0.354094,-0.470009,-9.79038,2.62443,-2.73954,-41.9243
2023-02-16 22:49:40:662,-0.337867,-0.470834,-9.79411,2.62564,-2.74906,-41.9128
2023-02-16 22:49:40:671,-0.374336,-0.461099,-9.73608,2.62304,-2.76203,-41.9057
2023-02-16 22:49:40:682,-0.422476,-0.452523,-9.7232,2.61472,-2.78132,-41.8943
2023-02-16 22:49:40:691,-0.446543,-0.439173,-9.73698,2.59852,-2.7991,-41.8801
2023-02-16 22:49:40:701,-0.469157,-0.420792,-9.73335,2.58163,-2.81797,-41.8644
2023-02-16 22:49:40:711,-0.458683,-0.389958,-9.73751,2.56424,-2.8341,-41.848
2023-02-16 22:49:40:722,-0.450612,-0.356708,-9.77185,2.54562,-2.84813,-41.8286
2023-02-16 22:49:40:731,-0.495416,-0.317209,-9.79308,2.5253,-2.85964,-41.8037
2023-02-16 22:49:40:742,-0.522398,-0.301863,-9.80806,2.50719,-2.87315,-41.7816
2023-02-16 22:49:40:751,-0.528112,-0.291225,-9.81097,2.4956,-2.88159,-41.7576
2023-02-16 22:49:40:761,-0.546767,-0.287765,-9.8392,2.48663,-2.88754,-41.7331
2023-02-16 22:49:40:771,-0.569959,-0.291353,-9.83536,2.48622,-2.89294,-41.7108
2023-02-16 22:49:40:781,-0.578447,-0.31278,-9.8273,2.49144,-2.9,-41.6898
2023-02-16 22:49:40:791,-0.594041,-0.338265,-9.81508,2.50115,-2.90555,-41.67
2023-02-16 22:49:40:802,-0.58716,-0.371604,-9.79315,2.51511,-2.91005,-41.6503
2023-02-16 22:49:40:812,-0.582839,-0.40033,-9.77585,2.52564,-2.91381,-41.6336
2023-02-16 22:49:40:821,-0.575581,-0.418052,-9.75611,2.53667,-2.91816,-41.6189
2023-02-16 22:49:40:831,-0.588844,-0.436998,-9.72756,2.55128,-2.92155,-41.6083
2023-02-16 22:49:40:842,-0.605012,-0.436848,-9.72787,2.56127,-2.92357,-41.5983
2023-02-16 22:49:40:851,-0.606757,-0.426739,-9.73757,2.57032,-2.92143,-41.5945
2023-02-16 22:49:40:861,-0.572684,-0.441288,-9.76512,2.57689,-2.92173,-41.5957
2023-02-16 22:49:40:871,-0.533306,-0.422912,-9.77527,2.58237,-2.91693,-41.5977
2023-02-16 22:49:40:881,-0.492087,-0.420448,-9.80096,2.58918,-2.90811,-41.5973
2023-02-16 22:49:40:891,-0.458155,-0.415273,-9.80791,2.60068,-2.90014,-41.5973
2023-02-16 22:49:40:901,-0.468549,-0.410453,-9.79581,2.60947,-2.89624,-41.5956
2023-02-16 22:49:40:911,-0.484822,-0.408391,-9.78706,2.61791,-2.89389,-41.5963
2023-02-16 22:49:40:921,-0.478548,-0.423059,-9.76651,2.62915,-2.88678,-41.5975
2023-02-16 22:49:40:931,-0.479271,-0.432973,-9.76313,2.63882,-2.87677,-41.5991
2023-02-16 22:49:40:941,-0.462082,-0.446143,-9.7772,2.64641,-2.86701,-41.5948
2023-02-16 22:49:40:951,-0.433027,-0.455536,-9.74946,2.65956,-2.85658,-41.5898
2023-02-16 22:49:40:961,-0.409488,-0.449938,-9.73772,2.6726,-2.84638,-41.5826
2023-02-16 22:49:40:971,-0.401134,-0.429231,-9.76593,2.6832,-2.83796,-41.5766
2023-02-16 22:49:40:981,-0.394332,-0.440883,-9.78007,2.68996,-2.82864,-41.5692
2023-02-16 22:49:40:991,-0.399131,-0.456344,-9.77806,2.70627,-2.82395,-41.5559
2023-02-16 22:49:41:1,-0.387813,-0.45087,-9.76588,2.72098,-2.82267,-41.5419
2023-02-16 22:49:41:11,-0.391601,-0.46928,-9.77241,2.73742,-2.824,-41.5298
2023-02-16 22:49:41:21,-0.404139,-0.498879,-9.7632,2.75374,-2.83301,-41.5136
2023-02-16 22:49:41:31,-0.414691,-0.50454,-9.75844,2.77018,-2.843,-41.4961
2023-02-16 22:49:41:41,-0.422545,-0.51396,-9.75271,2.78589,-2.85142,-41.4782
2023-02-16 22:49:41:51,-0.43524,-0.539597,-9.75001,2.7986,-2.85937,-41.4588
2023-02-16 22:49:41:61,-0.425981,-0.531669,-9.73131,2.80599,-2.86989,-41.4322
2023-02-16 22:49:41:71,-0.447431,-0.537548,-9.73342,2.81382,-2.88217,-41.4074
2023-02-16 22:49:41:81,-0.462441,-0.525345,-9.74054,2.82133,-2.888,-41.3823
2023-02-16 22:49:41:91,-0.449714,-0.532508,-9.75517,2.82799,-2.89538,-41.3532
2023-02-16 22:49:41:102,-0.454764,-0.53804,-9.71338,2.8346,-2.90237,-41.3201
2023-02-16 22:49:41:111,-0.473015,-0.547788,-9.67727,2.84081,-2.91032,-41.2855
2023-02-16 22:49:41:121,-0.504753,-0.548896,-9.6736,2.84218,-2.9178,-41.2496
2023-02-16 22:49:41:131,-0.528487,-0.542303,-9.67972,2.83814,-2.92546,-41.2171
2023-02-16 22:49:41:141,-0.547007,-0.533697,-9.66471,2.83628,-2.93108,-41.1912
2023-02-16 22:49:41:151,-0.558436,-0.516454,-9.68425,2.8252,-2.93661,-41.1616
2023-02-16 22:49:41:161,-0.566247,-0.483242,-9.72247,2.81321,-2.94002,-41.1401
2023-02-16 22:49:41:171,-0.564369,-0.461046,-9.74444,2.80284,-2.9452,-41.1214
2023-02-16 22:49:41:181,-0.563249,-0.459761,-9.76531,2.78811,-2.94492,-41.1007
2023-02-16 22:49:41:191,-0.560071,-0.454806,-9.76739,2.77111,-2.94584,-41.0848
2023-02-16 22:49:41:201,-0.568321,-0.435574,-9.76814,2.75473,-2.94175,-41.0739
2023-02-16 22:49:41:211,-0.565869,-0.435541,-9.78456,2.73749,-2.93515,-41.0655
2023-02-16 22:49:41:221,-0.54013,-0.401338,-9.83142,2.72366,-2.9286,-41.0615
2023-02-16 22:49:41:231,-0.518679,-0.398465,-9.85479,2.70939,-2.92179,-41.0588
2023-02-16 22:49:41:241,-0.489471,-0.382706,-9.85046,2.69926,-2.914,-41.0591
2023-02-16 22:49:41:251,-0.492038,-0.392053,-9.84593,2.69325,-2.91002,-41.059
2023-02-16 22:49:41:261,-0.494138,-0.412334,-9.89766,2.68899,-2.90251,-41.0591
2023-02-16 22:49:41:271,-0.489494,-0.39529,-9.98504,2.68733,-2.89526,-41.0623
2023-02-16 22:49:41:281,-0.466723,-0.409897,-10.04,2.69399,-2.89334,-41.0688
2023-02-16 22:49:41:291,-0.42618,-0.446656,-10.0267,2.70886,-2.89263,-41.0732
2023-02-16 22:49:41:302,-0.414487,-0.47699,-9.93858,2.73602,-2.89424,-41.0748
2023-02-16 22:49:41:312,-0.439565,-0.505638,-9.79563,2.76827,-2.90152,-41.0753
2023-02-16 22:49:41:321,-0.516552,-0.542968,-9.63233,2.7986,-2.9136,-41.0728
2023-02-16 22:49:41:331,-0.593757,-0.569496,-9.52313,2.81994,-2.92724,-41.0746
2023-02-16 22:49:41:341,-0.628309,-0.552684,-9.49332,2.82962,-2.93753,-41.0819
2023-02-16 22:49:41:351,-0.628615,-0.46685,-9.52759,2.82484,-2.94433,-41.0972
2023-02-16 22:49:41:361,-0.585428,-0.385219,-9.6006,2.80408,-2.94914,-41.1207
2023-02-16 22:49:41:371,-0.535352,-0.32092,-9.73746,2.77678,-2.95452,-41.1442
2023-02-16 22:49:41:381,-0.523819,-0.243788,-9.8201,2.75472,-2.95918,-41.1726
2023-02-16 22:49:41:391,-0.513224,-0.21934,-9.77976,2.74017,-2.96935,-41.2046
2023-02-16 22:49:41:401,-0.485704,-0.259947,-9.72457,2.72534,-2.97749,-41.2338
2023-02-16 22:49:41:411,-0.476946,-0.248082,-9.69364,2.71582,-2.98973,-41.2594
2023-02-16 22:49:41:421,-0.469652,-0.2494,-9.69866,2.70525,-2.9966,-41.2831
2023-02-16 22:49:41:431,-0.478052,-0.284045,-9.71049,2.70516,-3.00797,-41.2989
2023-02-16 22:49:41:441,-0.496139,-0.292432,-9.68421,2.69901,-3.02524,-41.3121
2023-02-16 22:49:41:451,-0.503908,-0.320501,-9.73674,2.69275,-3.0441,-41.3195
2023-02-16 22:49:41:461,-0.525529,-0.281079,-9.81122,2.68287,-3.05472,-41.3225
2023-02-16 22:49:41:471,-0.542217,-0.275988,-9.86674,2.67937,-3.06395,-41.3224
2023-02-16 22:49:41:481,-0.575025,-0.254212,-9.85839,2.67891,-3.07197,-41.3181
2023-02-16 22:49:41:491,-0.561996,-0.289559,-9.90988,2.68596,-3.07704,-41.3086
2023-02-16 22:49:41:501,-0.57325,-0.296587,-9.9159,2.69856,-3.07617,-41.2942
2023-02-16 22:49:41:511,-0.600647,-0.344969,-9.90929,2.71761,-3.07086,-41.2769
2023-02-16 22:49:41:521,-0.608324,-0.373217,-9.86069,2.74255,-3.06536,-41.2581
2023-02-16 22:49:41:531,-0.597878,-0.419111,-9.82477,2.77084,-3.05852,-41.2383
2023-02-16 22:49:41:541,-0.58792,-0.446522,-9.7728,2.79845,-3.04905,-41.2169
2023-02-16 22:49:41:551,-0.584694,-0.475219,-9.75184,2.82851,-3.03123,-41.1955
2023-02-16 22:49:41:561,-0.584354,-0.488103,-9.728,2.86099,-3.01609,-41.1744
2023-02-16 22:49:41:571,-0.577609,-0.508673,-9.70353,2.88619,-3.00096,-41.1539
2023-02-16 22:49:41:581,-0.565126,-0.502762,-9.70702,2.91073,-2.98457,-41.1376
2023-02-16 22:49:41:591,-0.539563,-0.490833,-9.73129,2.92772,-2.96553,-41.1257
2023-02-16 22:49:41:601,-0.51638,-0.504769,-9.75118,2.94815,-2.95039,-41.1139
2023-02-16 22:49:41:611,-0.478849,-0.495203,-9.80218,2.96896,-2.93748,-41.1059
2023-02-16 22:49:41:621,-0.444669,-0.473979,-9.80654,2.98699,-2.9276,-41.0978
2023-02-16 22:49:41:631,-0.445157,-0.507933,-9.78113,3.01794,-2.9185,-41.0949
2023-02-16 22:49:41:641,-0.458536,-0.548847,-9.73176,3.05198,-2.91223,-41.0868
2023-02-16 22:49:41:651,-0.463682,-0.593118,-9.69232,3.08562,-2.90592,-41.0797
2023-02-16 22:49:41:661,-0.462737,-0.630321,-9.67226,3.12131,-2.90182,-41.068
2023-02-16 22:49:41:671,-0.454741,-0.673995,-9.66011,3.15446,-2.89919,-41.0562
2023-02-16 22:49:41:681,-0.460354,-0.681893,-9.66487,3.1817,-2.89616,-41.0459
2023-02-16 22:49:41:691,-0.44823,-0.6987,-9.69284,3.20494,-2.89265,-41.0312
2023-02-16 22:49:41:702,-0.458453,-0.687108,-9.70699,3.22159,-2.89333,-41.0208
2023-02-16 22:49:41:711,-0.463865,-0.695848,-9.72758,3.23698,-2.88959,-41.0068
2023-02-16 22:49:41:722,-0.486245,-0.689509,-9.71512,3.25368,-2.88955,-40.996
2023-02-16 22:49:41:731,-0.483585,-0.689736,-9.70339,3.26747,-2.88876,-40.9837
2023-02-16 22:49:41:741,-0.473375,-0.681823,-9.68608,3.27591,-2.88343,-40.967
2023-02-16 22:49:41:752,-0.456622,-0.697437,-9.68456,3.28211,-2.87234,-40.9485
2023-02-16 22:49:41:761,-0.453564,-0.684286,-9.68433,3.2877,-2.86555,-40.9305
2023-02-16 22:49:41:771,-0.449395,-0.688727,-9.67875,3.28682,-2.85804,-40.9186
2023-02-16 22:49:41:781,-0.440857,-0.685569,-9.67488,3.28456,-2.85249,-40.9071
2023-02-16 22:49:41:791,-0.431586,-0.663041,-9.69611,3.27546,-2.84709,-40.8915
2023-02-16 22:49:41:801,-0.434828,-0.643713,-9.70527,3.26436,-2.84193,-40.8811
2023-02-16 22:49:41:811,-0.417401,-0.618163,-9.70923,3.25273,-2.83716,-40.8739
2023-02-16 22:49:41:821,-0.3924,-0.593426,-9.77738,3.24148,-2.83557,-40.8651
2023-02-16 22:49:41:831,-0.399213,-0.569292,-9.8081,3.22862,-2.83772,-40.8597
2023-02-16 22:49:41:841,-0.410412,-0.554079,-9.81983,3.22207,-2.8425,-40.8543
2023-02-16 22:49:41:851,-0.412895,-0.542291,-9.80915,3.2213,-2.84915,-40.8506
2023-02-16 22:49:41:861,-0.399429,-0.560637,-9.79808,3.22591,-2.85447,-40.8431
2023-02-16 22:49:41:871,-0.407722,-0.562338,-9.77883,3.2327,-2.86227,-40.8348
2023-02-16 22:49:41:881,-0.425715,-0.574412,-9.76349,3.23862,-2.87372,-40.8255
2023-02-16 22:49:41:891,-0.451162,-0.606318,-9.77248,3.24809,-2.88704,-40.8162
2023-02-16 22:49:41:901,-0.493615,-0.607209,-9.76066,3.25734,-2.90047,-40.8103
2023-02-16 22:49:41:911,-0.485686,-0.62725,-9.75051,3.26839,-2.91387,-40.8025
2023-02-16 22:49:41:921,-0.45698,-0.657072,-9.72096,3.27885,-2.92599,-40.7948
2023-02-16 22:49:41:931,-0.471826,-0.665835,-9.70282,3.28116,-2.94408,-40.7831
2023-02-16 22:49:41:941,-0.492185,-0.651079,-9.66989,3.27889,-2.96016,-40.7765
2023-02-16 22:49:41:951,-0.501709,-0.643935,-9.66828,3.27249,-2.98262,-40.7692
2023-02-16 22:49:41:961,-0.519866,-0.615055,-9.69567,3.25663,-3.00253,-40.762
2023-02-16 22:49:41:971,-0.538935,-0.593687,-9.69964,3.23164,-3.0206,-40.752
2023-02-16 22:49:41:981,-0.54124,-0.562531,-9.69182,3.20723,-3.03948,-40.7443
2023-02-16 22:49:41:991,-0.535017,-0.523551,-9.73163,3.17298,-3.05207,-40.7363
2023-02-16 22:49:42:2,-0.544092,-0.467893,-9.7702,3.13694,-3.06538,-40.732
2023-02-16 22:49:42:11,-0.547483,-0.44341,-9.81728,3.10354,-3.08059,-40.7269
2023-02-16 22:49:42:22,-0.560616,-0.421022,-9.845,3.07103,-3.08946,-40.7224
2023-02-16 22:49:42:31,-0.578641,-0.390871,-9.86363,3.04045,-3.10086,-40.7199
2023-02-16 22:49:42:41,-0.594302,-0.387644,-9.89132,3.01867,-3.1094,-40.7187
2023-02-16 22:49:42:51,-0.599493,-0.389056,-9.88704,3.0029,-3.1119,-40.7184
2023-02-16 22:49:42:61,-0.612509,-0.399444,-9.86112,2.99743,-3.11102,-40.7209
2023-02-16 22:49:42:71,-0.59319,-0.427472,-9.8172,2.99866,-3.10814,-40.7247
2023-02-16 22:49:42:82,-0.552148,-0.452428,-9.78114,3.00411,-3.10765,-40.7282
2023-02-16 22:49:42:92,-0.545255,-0.491386,-9.7187,3.01546,-3.10339,-40.7307
2023-02-16 22:49:42:102,-0.547664,-0.521764,-9.64515,3.02448,-3.10692,-40.7363
2023-02-16 22:49:42:111,-0.571891,-0.542339,-9.59894,3.0255,-3.10795,-40.7388
2023-02-16 22:49:42:122,-0.596962,-0.553306,-9.60569,3.02285,-3.11258,-40.7438
2023-02-16 22:49:42:132,-0.623227,-0.547081,-9.63864,3.01259,-3.11757,-40.7564
2023-02-16 22:49:42:142,-0.608987,-0.526918,-9.66542,2.99544,-3.11838,-40.7751
2023-02-16 22:49:42:151,-0.592623,-0.509071,-9.72193,2.97353,-3.11929,-40.7989
2023-02-16 22:49:42:161,-0.576153,-0.482718,-9.75672,2.94954,-3.12144,-40.8231
2023-02-16 22:49:42:171,-0.573406,-0.47132,-9.7452,2.9277,-3.12409,-40.8525
2023-02-16 22:49:42:181,-0.546575,-0.477791,-9.73303,2.90274,-3.1266,-40.8792
2023-02-16 22:49:42:191,-0.549374,-0.484627,-9.73613,2.87558,-3.12743,-40.9027
2023-02-16 22:49:42:201,-0.550364,-0.470218,-9.71761,2.84821,-3.13102,-40.924
2023-02-16 22:49:42:211,-0.53032,-0.445565,-9.69319,2.8141,-3.13441,-40.9481
2023-02-16 22:49:42:221,-0.504406,-0.424416,-9.70672,2.77775,-3.13065,-40.9685
2023-02-16 22:49:42:231,-0.511624,-0.398508,-9.72552,2.73842,-3.12853,-40.9856
2023-02-16 22:49:42:241,-0.508608,-0.377907,-9.75682,2.69624,-3.12646,-41.0002
2023-02-16 22:49:42:251,-0.505925,-0.363287,-9.79506,2.65133,-3.12406,-41.0139
2023-02-16 22:49:42:261,-0.507213,-0.341774,-9.84303,2.60802,-3.11921,-41.0202
2023-02-16 22:49:42:271,-0.517526,-0.342284,-9.85672,2.57366,-3.11936,-41.0269
2023-02-16 22:49:42:282,-0.525568,-0.34447,-9.84859,2.54178,-3.11855,-41.0296
2023-02-16 22:49:42:291,-0.53877,-0.344241,-9.84927,2.51477,-3.11203,-41.0315
2023-02-16 22:49:42:302,-0.544481,-0.348604,-9.8427,2.49276,-3.10984,-41.0301
2023-02-16 22:49:42:312,-0.536945,-0.360872,-9.82283,2.47524,-3.10501,-41.0299
2023-02-16 22:49:42:322,-0.549393,-0.344839,-9.796,2.45812,-3.10366,-41.0323
2023-02-16 22:49:42:331,-0.555878,-0.355139,-9.80089,2.44312,-3.10031,-41.0361
2023-02-16 22:49:42:341,-0.56643,-0.372825,-9.80637,2.43066,-3.09708,-41.0391
2023-02-16 22:49:42:351,-0.562563,-0.376759,-9.77596,2.42363,-3.09358,-41.0412
2023-02-16 22:49:42:361,-0.577643,-0.380598,-9.77407,2.41421,-3.09104,-41.0443
2023-02-16 22:49:42:371,-0.590418,-0.356799,-9.78526,2.40157,-3.08796,-41.0506
2023-02-16 22:49:42:381,-0.600769,-0.330174,-9.81434,2.39307,-3.08539,-41.0574
2023-02-16 22:49:42:391,-0.601897,-0.314694,-9.84443,2.38407,-3.0834,-41.0697
2023-02-16 22:49:42:401,-0.601946,-0.31219,-9.8528,2.37825,-3.08257,-41.08
2023-02-16 22:49:42:411,-0.599583,-0.321922,-9.84621,2.37666,-3.07714,-41.0911
2023-02-16 22:49:42:422,-0.602772,-0.336806,-9.82199,2.38399,-3.06975,-41.1044
2023-02-16 22:49:42:431,-0.612181,-0.35124,-9.79099,2.39451,-3.05821,-41.1181
2023-02-16 22:49:42:442,-0.596205,-0.373831,-9.75866,2.40312,-3.04898,-41.1361
2023-02-16 22:49:42:451,-0.586552,-0.395434,-9.73308,2.41336,-3.03369,-41.151
2023-02-16 22:49:42:461,-0.574688,-0.406923,-9.72642,2.4217,-3.01955,-41.1626
2023-02-16 22:49:42:471,-0.563132,-0.403557,-9.72736,2.42554,-3.0029,-41.1777
2023-02-16 22:49:42:482,-0.536534,-0.408734,-9.72396,2.43292,-2.9868,-41.1966
2023-02-16 22:49:42:492,-0.509523,-0.413485,-9.71797,2.43439,-2.96948,-41.2123
2023-02-16 22:49:42:502,-0.495966,-0.412305,-9.72161,2.43502,-2.9517,-41.2271
2023-02-16 22:49:42:512,-0.466838,-0.407279,-9.72697,2.43235,-2.93611,-41.2396
2023-02-16 22:49:42:521,-0.446697,-0.405939,-9.72069,2.43001,-2.92084,-41.2503
2023-02-16 22:49:42:531,-0.43728,-0.404402,-9.72957,2.42372,-2.90889,-41.2575
2023-02-16 22:49:42:541,-0.444957,-0.409614,-9.73977,2.41576,-2.89617,-41.2643
2023-02-16 22:49:42:552,-0.448222,-0.415311,-9.75033,2.40708,-2.88649,-41.2751
2023-02-16 22:49:42:561,-0.434378,-0.394309,-9.74157,2.3972,-2.87691,-41.2792
2023-02-16 22:49:42:571,-0.432517,-0.381315,-9.74028,2.38687,-2.86956,-41.2824
2023-02-16 22:49:42:582,-0.44746,-0.385429,-9.76364,2.37441,-2.85971,-41.2797
2023-02-16 22:49:42:591,-0.455717,-0.364045,-9.79694,2.3607,-2.84833,-41.2773
2023-02-16 22:49:42:601,-0.450438,-0.356648,-9.78404,2.34856,-2.8361,-41.276
2023-02-16 22:49:42:612,-0.457092,-0.347589,-9.79433,2.34051,-2.8235,-41.274
2023-02-16 22:49:42:621,-0.4624,-0.344288,-9.79177,2.33317,-2.81267,-41.2706
2023-02-16 22:49:42:632,-0.461404,-0.364594,-9.81595,2.32718,-2.80101,-41.2678
2023-02-16 22:49:42:642,-0.460702,-0.36729,-9.85352,2.32266,-2.78708,-41.2639
2023-02-16 22:49:42:652,-0.442035,-0.360345,-9.85853,2.32309,-2.77377,-41.2618
2023-02-16 22:49:42:662,-0.390389,-0.381277,-9.84208,2.32523,-2.76421,-41.2613
2023-02-16 22:49:42:672,-0.355565,-0.390355,-9.80504,2.32832,-2.75799,-41.2569
2023-02-16 22:49:42:681,-0.381505,-0.403787,-9.76794,2.33363,-2.75858,-41.2544
2023-02-16 22:49:42:691,-0.415905,-0.415785,-9.73157,2.33981,-2.76398,-41.2555
2023-02-16 22:49:42:702,-0.436349,-0.418288,-9.70181,2.34528,-2.77344,-41.2561
2023-02-16 22:49:42:711,-0.452764,-0.410627,-9.66394,2.34696,-2.77681,-41.2549
2023-02-16 22:49:42:721,-0.484862,-0.391047,-9.65956,2.34086,-2.78143,-41.2562
2023-02-16 22:49:42:731,-0.4695,-0.370642,-9.69634,2.32457,-2.78571,-41.2548
2023-02-16 22:49:42:742,-0.439701,-0.339198,-9.71629,2.30635,-2.78532,-41.2525
2023-02-16 22:49:42:752,-0.450967,-0.313165,-9.73943,2.28202,-2.79035,-41.2504
2023-02-16 22:49:42:762,-0.466689,-0.272567,-9.78606,2.26137,-2.79165,-41.2467
2023-02-16 22:49:42:771,-0.494074,-0.232873,-9.83532,2.24291,-2.79164,-41.2436
2023-02-16 22:49:42:781,-0.521544,-0.207208,-9.86307,2.22997,-2.78969,-41.2432
2023-02-16 22:49:42:791,-0.514728,-0.194408,-9.88788,2.22197,-2.78409,-41.245
2023-02-16 22:49:42:802,-0.472183,-0.212225,-9.8927,2.22025,-2.77852,-41.2436
2023-02-16 22:49:42:811,-0.447934,-0.236458,-9.89689,2.22679,-2.77093,-41.2411
2023-02-16 22:49:42:821,-0.432672,-0.262528,-9.89943,2.24185,-2.76328,-41.2376
2023-02-16 22:49:42:831,-0.420402,-0.285373,-9.86885,2.26332,-2.75988,-41.2301
2023-02-16 22:49:42:841,-0.434653,-0.332818,-9.8347,2.28521,-2.7582,-41.2225
2023-02-16 22:49:42:851,-0.443734,-0.356431,-9.79886,2.31144,-2.75842,-41.2168
2023-02-16 22:49:42:862,-0.460178,-0.37129,-9.7392,2.33833,-2.76492,-41.2106
2023-02-16 22:49:42:872,-0.488852,-0.395536,-9.72158,2.35992,-2.77275,-41.2078
2023-02-16 22:49:42:882,-0.504572,-0.407527,-9.73686,2.38269,-2.78052,-41.2061
2023-02-16 22:49:42:891,-0.493234,-0.407543,-9.7601,2.39814,-2.78598,-41.2021
2023-02-16 22:49:42:901,-0.482983,-0.399936,-9.80294,2.41376,-2.78899,-41.1969
2023-02-16 22:49:42:911,-0.476914,-0.398045,-9.81811,2.43171,-2.79336,-41.1939
2023-02-16 22:49:42:921,-0.46583,-0.397648,-9.80873,2.44917,-2.7984,-41.1876
2023-02-16 22:49:42:931,-0.448361,-0.386405,-9.80759,2.46962,-2.80116,-41.1827
2023-02-16 22:49:42:941,-0.44744,-0.391455,-9.79686,2.48813,-2.80587,-41.1711
2023-02-16 22:49:42:951,-0.472582,-0.395366,-9.76233,2.51204,-2.81047,-41.1606
2023-02-16 22:49:42:961,-0.487613,-0.416332,-9.75679,2.53449,-2.81453,-41.1496
2023-02-16 22:49:42:971,-0.485131,-0.430221,-9.75918,2.56267,-2.81525,-41.1368
2023-02-16 22:49:42:981,-0.468797,-0.442449,-9.72448,2.5901,-2.81502,-41.1237
2023-02-16 22:49:42:991,-0.465863,-0.462733,-9.70404,2.61962,-2.81131,-41.1072
2023-02-16 22:49:43:1,-0.450291,-0.472406,-9.71722,2.64604,-2.80428,-41.0883
2023-02-16 22:49:43:11,-0.428357,-0.484199,-9.71927,2.67049,-2.79608,-41.0674
2023-02-16 22:49:43:22,-0.410174,-0.494113,-9.73767,2.69153,-2.78879,-41.0416
2023-02-16 22:49:43:31,-0.381752,-0.490453,-9.7737,2.71385,-2.78329,-41.0122
2023-02-16 22:49:43:42,-0.358529,-0.483611,-9.7924,2.73592,-2.77332,-40.9784
2023-02-16 22:49:43:52,-0.341637,-0.476419,-9.77574,2.75924,-2.76708,-40.9357
2023-02-16 22:49:43:61,-0.349426,-0.483508,-9.77959,2.77847,-2.75784,-40.8893
2023-02-16 22:49:43:71,-0.360305,-0.476605,-9.78827,2.8004,-2.74858,-40.8349
2023-02-16 22:49:43:82,-0.356762,-0.474981,-9.79596,2.82271,-2.73647,-40.7745
2023-02-16 22:49:43:92,-0.339496,-0.488229,-9.79956,2.84526,-2.72939,-40.71
2023-02-16 22:49:43:102,-0.353582,-0.491231,-9.78236,2.8657,-2.72222,-40.6404
2023-02-16 22:49:43:112,-0.390417,-0.482845,-9.77405,2.88443,-2.72373,-40.5691
2023-02-16 22:49:43:122,-0.435771,-0.472935,-9.77599,2.90385,-2.72545,-40.5006
2023-02-16 22:49:43:132,-0.457593,-0.479518,-9.78587,2.92779,-2.73007,-40.4361
2023-02-16 22:49:43:142,-0.482744,-0.491609,-9.79293,2.95026,-2.74022,-40.3698
2023-02-16 22:49:43:151,-0.505677,-0.496947,-9.78747,2.97461,-2.75464,-40.3093
2023-02-16 22:49:43:161,-0.522916,-0.505137,-9.79837,3.00097,-2.76549,-40.2534
2023-02-16 22:49:43:171,-0.538604,-0.514431,-9.79662,3.03017,-2.78011,-40.1999
2023-02-16 22:49:43:181,-0.555919,-0.537361,-9.77522,3.06323,-2.79766,-40.1515
2023-02-16 22:49:43:191,-0.553941,-0.552788,-9.75893,3.09758,-2.81553,-40.1061
2023-02-16 22:49:43:201,-0.584704,-0.564299,-9.7532,3.12541,-2.83275,-40.0654
2023-02-16 22:49:43:211,-0.582391,-0.556568,-9.74864,3.15554,-2.84774,-40.0315
2023-02-16 22:49:43:222,-0.582561,-0.55698,-9.75033,3.1847,-2.86592,-39.9984
2023-02-16 22:49:43:232,-0.577956,-0.548237,-9.73956,3.21108,-2.8847,-39.9749
2023-02-16 22:49:43:242,-0.571643,-0.559493,-9.74426,3.23855,-2.89993,-39.9541
2023-02-16 22:49:43:251,-0.575375,-0.553949,-9.71122,3.26709,-2.91446,-39.9333
2023-02-16 22:49:43:262,-0.592791,-0.566423,-9.7165,3.29169,-2.92976,-39.9149
2023-02-16 22:49:43:272,-0.567096,-0.570729,-9.71471,3.31724,-2.94416,-39.9025
2023-02-16 22:49:43:281,-0.544837,-0.558396,-9.70722,3.34153,-2.95729,-39.8921
2023-02-16 22:49:43:291,-0.534392,-0.573247,-9.71058,3.36427,-2.96958,-39.8794
2023-02-16 22:49:43:302,-0.52865,-0.585307,-9.69476,3.38382,-2.98311,-39.8656
2023-02-16 22:49:43:312,-0.525572,-0.597863,-9.69066,3.40508,-2.9927,-39.8567
2023-02-16 22:49:43:322,-0.527657,-0.604797,-9.68518,3.42025,-3.00132,-39.8406
2023-02-16 22:49:43:331,-0.528667,-0.614756,-9.66693,3.43451,-3.00924,-39.8219
2023-02-16 22:49:43:342,-0.521117,-0.604926,-9.68159,3.44346,-3.01232,-39.8014
2023-02-16 22:49:43:352,-0.512538,-0.591318,-9.69547,3.44805,-3.01359,-39.782
2023-02-16 22:49:43:362,-0.478631,-0.604332,-9.71101,3.44938,-3.01303,-39.7589
2023-02-16 22:49:43:372,-0.431109,-0.594259,-9.74865,3.44964,-3.01084,-39.7317
2023-02-16 22:49:43:381,-0.399614,-0.592264,-9.75126,3.45126,-3.00866,-39.7016
2023-02-16 22:49:43:391,-0.391311,-0.60732,-9.73974,3.4557,-3.01192,-39.6667
2023-02-16 22:49:43:402,-0.428344,-0.605208,-9.7754,3.45184,-3.01806,-39.6327
2023-02-16 22:49:43:411,-0.475154,-0.602411,-9.77371,3.45213,-3.0261,-39.6015
2023-02-16 22:49:43:422,-0.46867,-0.620407,-9.74796,3.45262,-3.03658,-39.5707
2023-02-16 22:49:43:431,-0.437972,-0.646482,-9.75213,3.45281,-3.05234,-39.5396
2023-02-16 22:49:43:441,-0.458882,-0.649617,-9.72073,3.45107,-3.0719,-39.5048
2023-02-16 22:49:43:451,-0.493934,-0.633378,-9.67216,3.44089,-3.08765,-39.4738
2023-02-16 22:49:43:461,-0.521888,-0.610199,-9.64853,3.42233,-3.10269,-39.4441
2023-02-16 22:49:43:471,-0.56753,-0.568555,-9.66148,3.39355,-3.11919,-39.4184
2023-02-16 22:49:43:482,-0.631583,-0.506363,-9.71275,3.36346,-3.13471,-39.3976
2023-02-16 22:49:43:491,-0.649857,-0.463889,-9.75481,3.33074,-3.14706,-39.3809
2023-02-16 22:49:43:502,-0.623788,-0.434769,-9.80595,3.29995,-3.15805,-39.3653
2023-02-16 22:49:43:512,-0.633951,-0.39641,-9.83152,3.27595,-3.16691,-39.3547
2023-02-16 22:49:43:522,-0.653743,-0.396017,-9.81054,3.25859,-3.17169,-39.3476
2023-02-16 22:49:43:531,-0.641236,-0.41742,-9.77989,3.24978,-3.17398,-39.3401
2023-02-16 22:49:43:541,-0.654346,-0.439276,-9.76503,3.2485,-3.17423,-39.3368
2023-02-16 22:49:43:552,-0.649197,-0.481047,-9.7346,3.25161,-3.17515,-39.3366
2023-02-16 22:49:43:562,-0.622706,-0.499228,-9.72359,3.25611,-3.16973,-39.339
2023-02-16 22:49:43:572,-0.586569,-0.517268,-9.74643,3.25888,-3.16202,-39.3395
2023-02-16 22:49:43:581,-0.533827,-0.520835,-9.79582,3.25738,-3.15139,-39.3383
2023-02-16 22:49:43:591,-0.506412,-0.517465,-9.82802,3.25417,-3.14426,-39.3404
2023-02-16 22:49:43:602,-0.492179,-0.515367,-9.83759,3.2499,-3.13815,-39.3436
2023-02-16 22:49:43:612,-0.480933,-0.530947,-9.84169,3.24686,-3.1307,-39.3481
2023-02-16 22:49:43:622,-0.466878,-0.515543,-9.82049,3.24436,-3.1259,-39.3494
2023-02-16 22:49:43:631,-0.472132,-0.507106,-9.82811,3.24331,-3.12419,-39.3536
2023-02-16 22:49:43:641,-0.465266,-0.480546,-9.85622,3.23766,-3.12371,-39.3601
2023-02-16 22:49:43:652,-0.454923,-0.474993,-9.82285,3.23747,-3.12374,-39.3644
2023-02-16 22:49:43:662,-0.428105,-0.495667,-9.80265,3.24066,-3.12014,-39.3667
2023-02-16 22:49:43:672,-0.395244,-0.487464,-9.81164,3.24426,-3.11939,-39.3635
2023-02-16 22:49:43:682,-0.375305,-0.471042,-9.8086,3.25208,-3.12279,-39.3573
2023-02-16 22:49:43:691,-0.36731,-0.463667,-9.81998,3.26012,-3.12893,-39.3494
2023-02-16 22:49:43:702,-0.36454,-0.455504,-9.86331,3.2652,-3.13763,-39.3338
2023-02-16 22:49:43:711,-0.312917,-0.435757,-9.92457,3.27205,-3.1499,-39.3151
2023-02-16 22:49:43:722,-0.219641,-0.403141,-9.93212,3.28626,-3.16174,-39.2858
2023-02-16 22:49:43:731,-0.173908,-0.423732,-9.93265,3.30999,-3.17852,-39.2411
2023-02-16 22:49:43:741,-0.101221,-0.412556,-10.0464,3.33795,-3.21005,-39.1835
2023-02-16 22:49:43:752,-0.0199286,-0.407333,-10.1324,3.37663,-3.25333,-39.1034
2023-02-16 22:49:43:762,-0.124924,-0.400866,-10.1508,3.431,-3.31368,-39.006
2023-02-16 22:49:43:772,-0.379467,-0.357489,-10.1562,3.49836,-3.38628,-38.8961
2023-02-16 22:49:43:781,-0.648816,-0.371463,-10.0921,3.58389,-3.46105,-38.7852
2023-02-16 22:49:43:791,-0.841658,-0.43689,-9.958,3.68228,-3.52904,-38.6723
2023-02-16 22:49:43:801,-0.944463,-0.46692,-9.85444,3.79098,-3.58379,-38.5593
2023-02-16 22:49:43:811,-0.973731,-0.472831,-9.7262,3.90527,-3.62542,-38.4487
2023-02-16 22:49:43:821,-0.957654,-0.538051,-9.61875,4.02382,-3.65406,-38.3335
2023-02-16 22:49:43:831,-0.936982,-0.594242,-9.57746,4.14147,-3.67387,-38.2185
2023-02-16 22:49:43:841,-0.924951,-0.620473,-9.53874,4.26306,-3.69116,-38.1017
2023-02-16 22:49:43:851,-0.932754,-0.711071,-9.51808,4.38873,-3.69964,-37.9854
2023-02-16 22:49:43:862,-0.96423,-0.783122,-9.45157,4.5086,-3.70881,-37.8768
2023-02-16 22:49:43:871,-0.980267,-0.844999,-9.36603,4.61934,-3.71437,-37.776
2023-02-16 22:49:43:882,-0.959661,-0.92637,-9.36673,4.72253,-3.71336,-37.6849
2023-02-16 22:49:43:892,-0.925052,-0.95917,-9.38048,4.81132,-3.70723,-37.6058
2023-02-16 22:49:43:902,-0.844268,-1.0043,-9.447,4.88569,-3.69826,-37.5372
2023-02-16 22:49:43:911,-0.766314,-1.01442,-9.45312,4.94678,-3.68577,-37.4753
2023-02-16 22:49:43:922,-0.687343,-1.04013,-9.46494,4.99308,-3.66804,-37.4166
2023-02-16 22:49:43:932,-0.634885,-1.0351,-9.4905,5.02201,-3.64667,-37.3619
2023-02-16 22:49:43:941,-0.591913,-1.03347,-9.56327,5.03433,-3.62476,-37.3132
2023-02-16 22:49:43:951,-0.568188,-0.980403,-9.61686,5.03407,-3.60616,-37.2653
2023-02-16 22:49:43:961,-0.543705,-0.961744,-9.66184,5.02547,-3.58996,-37.2232
2023-02-16 22:49:43:971,-0.534817,-0.933069,-9.66573,5.00983,-3.57153,-37.1873
2023-02-16 22:49:43:981,-0.529372,-0.911224,-9.68221,4.98692,-3.55236,-37.1546
2023-02-16 22:49:43:991,-0.546259,-0.875741,-9.68505,4.95751,-3.54101,-37.1292
2023-02-16 22:49:44:1,-0.536754,-0.863309,-9.70599,4.92434,-3.53981,-37.11
2023-02-16 22:49:44:11,-0.543526,-0.824209,-9.71846,4.88808,-3.5354,-37.0946
2023-02-16 22:49:44:21,-0.548539,-0.782651,-9.73046,4.85094,-3.53302,-37.0815
2023-02-16 22:49:44:31,-0.550076,-0.773626,-9.72418,4.81711,-3.53476,-37.0733
2023-02-16 22:49:44:41,-0.534163,-0.738214,-9.72833,4.78393,-3.54067,-37.0687
2023-02-16 22:49:44:51,-0.55002,-0.735266,-9.77136,4.756,-3.54903,-37.0648
2023-02-16 22:49:44:61,-0.584775,-0.724648,-9.77455,4.7341,-3.55753,-37.0632
2023-02-16 22:49:44:72,-0.62066,-0.764624,-9.79994,4.71857,-3.56806,-37.0581
2023-02-16 22:49:44:82,-0.64409,-0.771521,-9.80964,4.7083,-3.58009,-37.0544
2023-02-16 22:49:44:91,-0.647366,-0.807709,-9.77169,4.70681,-3.58962,-37.049
2023-02-16 22:49:44:101,-0.633681,-0.836226,-9.71764,4.70515,-3.59641,-37.0416
2023-02-16 22:49:44:111,-0.620072,-0.857478,-9.67799,4.70446,-3.60379,-37.0311
2023-02-16 22:49:44:121,-0.623292,-0.898274,-9.60422,4.70133,-3.61122,-37.0203
2023-02-16 22:49:44:132,-0.663708,-0.913228,-9.54513,4.68857,-3.6172,-37.0069
2023-02-16 22:49:44:141,-0.691108,-0.899905,-9.54166,4.66291,-3.62053,-36.9939
2023-02-16 22:49:44:151,-0.690288,-0.869405,-9.56844,4.62594,-3.62269,-36.981
2023-02-16 22:49:44:162,-0.679364,-0.834755,-9.62888,4.57971,-3.62392,-36.9738
2023-02-16 22:49:44:171,-0.687242,-0.777986,-9.6897,4.52819,-3.62058,-36.9697
2023-02-16 22:49:44:182,-0.68104,-0.741304,-9.75617,4.47584,-3.61714,-36.9677
2023-02-16 22:49:44:191,-0.665727,-0.692065,-9.797,4.42322,-3.61722,-36.9733
2023-02-16 22:49:44:201,-0.669667,-0.677649,-9.83996,4.37543,-3.61213,-36.9813
2023-02-16 22:49:44:211,-0.647354,-0.653736,-9.86928,4.33815,-3.60621,-36.9923
2023-02-16 22:49:44:222,-0.612832,-0.657183,-9.88147,4.30526,-3.59419,-37.0027
2023-02-16 22:49:44:231,-0.591525,-0.66122,-9.90716,4.28289,-3.57559,-37.0157
2023-02-16 22:49:44:241,-0.575879,-0.671476,-9.85549,4.27542,-3.55824,-37.0285
2023-02-16 22:49:44:251,-0.543628,-0.712,-9.76935,4.26989,-3.54256,-37.0399
2023-02-16 22:49:44:262,-0.479114,-0.747274,-9.72099,4.26481,-3.52574,-37.0498
2023-02-16 22:49:44:271,-0.424295,-0.789054,-9.6945,4.26312,-3.51192,-37.0544
2023-02-16 22:49:44:282,-0.425025,-0.78739,-9.73865,4.25035,-3.5064,-37.051
2023-02-16 22:49:44:291,-0.495838,-0.75724,-9.80591,4.23669,-3.50628,-37.0492
2023-02-16 22:49:44:302,-0.564779,-0.744533,-9.80736,4.22846,-3.50558,-37.0531
2023-02-16 22:49:44:311,-0.563227,-0.740157,-9.82217,4.22281,-3.50227,-37.0599
2023-02-16 22:49:44:321,-0.524,-0.747659,-9.79901,4.22733,-3.49974,-37.0656
2023-02-16 22:49:44:331,-0.506894,-0.769664,-9.72263,4.23411,-3.49888,-37.064
2023-02-16 22:49:44:341,-0.515014,-0.803925,-9.66378,4.24204,-3.49996,-37.0614
2023-02-16 22:49:44:351,-0.513219,-0.821717,-9.64235,4.24333,-3.50067,-37.0577
2023-02-16 22:49:44:362,-0.526879,-0.824557,-9.60917,4.24052,-3.50906,-37.0493
2023-02-16 22:49:44:371,-0.548699,-0.830782,-9.5632,4.22726,-3.5227,-37.0413
2023-02-16 22:49:44:382,-0.567148,-0.815268,-9.59807,4.2037,-3.53281,-37.0282
2023-02-16 22:49:44:391,-0.596121,-0.764838,-9.6683,4.17185,-3.54362,-37.0198
2023-02-16 22:49:44:402,-0.625664,-0.744162,-9.70923,4.13264,-3.55858,-37.0146
2023-02-16 22:49:44:411,-0.62022,-0.726215,-9.76262,4.09211,-3.57654,-37.0071
2023-02-16 22:49:44:422,-0.638665,-0.695532,-9.79561,4.04995,-3.59281,-36.999
2023-02-16 22:49:44:431,-0.663754,-0.674643,-9.78815,4.01375,-3.60671,-36.9965
2023-02-16 22:49:44:441,-0.658065,-0.671871,-9.78238,3.97545,-3.61782,-36.9903
2023-02-16 22:49:44:451,-0.634371,-0.669552,-9.78458,3.94345,-3.62764,-36.9901
2023-02-16 22:49:44:461,-0.62548,-0.63701,-9.81682,3.91078,-3.6371,-36.9849
2023-02-16 22:49:44:471,-0.622416,-0.603368,-9.84202,3.88377,-3.64394,-36.9783
2023-02-16 22:49:44:481,-0.62155,-0.595644,-9.82794,3.85975,-3.65304,-36.9737
2023-02-16 22:49:44:491,-0.615895,-0.593682,-9.84425,3.83689,-3.6615,-36.9676
2023-02-16 22:49:44:501,-0.605087,-0.563235,-9.84702,3.818,-3.67176,-36.9615
2023-02-16 22:49:44:511,-0.611512,-0.565325,-9.84711,3.80429,-3.68369,-36.9546
2023-02-16 22:49:44:521,-0.628835,-0.565694,-9.85252,3.797,-3.69252,-36.9458
2023-02-16 22:49:44:531,-0.611057,-0.562061,-9.87091,3.79687,-3.70626,-36.9332
2023-02-16 22:49:44:541,-0.608656,-0.575937,-9.84067,3.80051,-3.71657,-36.9139
2023-02-16 22:49:44:551,-0.630755,-0.598332,-9.79115,3.80989,-3.72914,-36.8965
2023-02-16 22:49:44:561,-0.657861,-0.627196,-9.73854,3.82473,-3.73768,-36.8781
2023-02-16 22:49:44:571,-0.665001,-0.642822,-9.70625,3.83688,-3.74778,-36.8572
2023-02-16 22:49:44:581,-0.661802,-0.648789,-9.66965,3.84962,-3.75989,-36.8393
2023-02-16 22:49:44:591,-0.68139,-0.659154,-9.64034,3.8603,-3.77147,-36.8168
2023-02-16 22:49:44:601,-0.700612,-0.665532,-9.62444,3.86566,-3.78161,-36.7951
2023-02-16 22:49:44:611,-0.713366,-0.648,-9.62659,3.86391,-3.79118,-36.7746
2023-02-16 22:49:44:621,-0.717727,-0.635034,-9.63959,3.85634,-3.7994,-36.7587
2023-02-16 22:49:44:631,-0.723606,-0.614726,-9.65668,3.84402,-3.80759,-36.7443
2023-02-16 22:49:44:641,-0.737762,-0.581106,-9.69354,3.82713,-3.81552,-36.7366
2023-02-16 22:49:44:651,-0.725974,-0.576713,-9.71714,3.80723,-3.82333,-36.7309
2023-02-16 22:49:44:661,-0.715192,-0.577272,-9.72797,3.78919,-3.82818,-36.7285
2023-02-16 22:49:44:671,-0.71543,-0.568469,-9.72987,3.76867,-3.83573,-36.7247
2023-02-16 22:49:44:681,-0.706324,-0.56224,-9.73333,3.74937,-3.8377,-36.7247
2023-02-16 22:49:44:691,-0.719611,-0.560822,-9.74602,3.7265,-3.84184,-36.7238
2023-02-16 22:49:44:701,-0.714476,-0.548022,-9.77,3.70056,-3.84567,-36.7257
2023-02-16 22:49:44:711,-0.70452,-0.53399,-9.77053,3.67608,-3.84875,-36.7275
2023-02-16 22:49:44:722,-0.706963,-0.509822,-9.7759,3.64793,-3.85114,-36.7285
2023-02-16 22:49:44:731,-0.701798,-0.472553,-9.81875,3.62423,-3.8465,-36.7298
2023-02-16 22:49:44:741,-0.69783,-0.467031,-9.81021,3.60453,-3.83864,-36.7313
2023-02-16 22:49:44:751,-0.665277,-0.482042,-9.8039,3.58923,-3.83069,-36.7338
2023-02-16 22:49:44:761,-0.659027,-0.489241,-9.80206,3.57896,-3.82512,-36.7338
2023-02-16 22:49:44:771,-0.669612,-0.521158,-9.78175,3.57289,-3.81983,-36.7346
2023-02-16 22:49:44:781,-0.668298,-0.516642,-9.81984,3.57014,-3.81132,-36.7356
2023-02-16 22:49:44:791,-0.652962,-0.524912,-9.87433,3.56937,-3.80408,-36.7386
2023-02-16 22:49:44:801,-0.622438,-0.558727,-9.84315,3.57727,-3.79376,-36.7414
2023-02-16 22:49:44:811,-0.568325,-0.577742,-9.79582,3.58345,-3.78552,-36.748
