Timestamp,Acceleration_x,Acceleration_y,Acceleration_z,roll,pitch,yaw
2023-02-16 05:39:53:408,-0.988157,1.69216,-9.58889,-9.72921,-5.8837,94.1703
2023-02-16 05:39:53:416,-1.04254,1.71367,-9.57171,-9.73093,-5.89073,94.1799
2023-02-16 05:39:53:426,-1.04548,1.7079,-9.56118,-9.73168,-5.89386,94.1845
2023-02-16 05:39:53:436,-1.04657,1.68026,-9.57849,-9.7283,-5.89492,94.1911
2023-02-16 05:39:53:446,-1.05321,1.6732,-9.57002,-9.72494,-5.89922,94.1922
2023-02-16 05:39:53:456,-1.05996,1.65328,-9.55247,-9.71924,-5.90304,94.1952
2023-02-16 05:39:53:467,-1.05974,1.63438,-9.55093,-9.71657,-5.90642,94.1922
2023-02-16 05:39:53:476,-1.04454,1.61825,-9.55295,-9.71656,-5.90703,94.1909
2023-02-16 05:39:53:486,-1.03784,1.62158,-9.57917,-9.72075,-5.9073,94.1883
2023-02-16 05:39:53:496,-1.00661,1.63709,-9.60701,-9.72884,-5.90311,94.1853
2023-02-16 05:39:53:506,-0.983584,1.66607,-9.63385,-9.73668,-5.89837,94.1842
2023-02-16 05:39:53:516,-0.998314,1.69686,-9.65373,-9.7441,-5.89231,94.1865
2023-02-16 05:39:53:526,-1.00166,1.71045,-9.62739,-9.75134,-5.88752,94.1894
2023-02-16 05:39:53:536,-0.986976,1.70069,-9.59527,-9.76115,-5.88597,94.1914
2023-02-16 05:39:53:547,-1.02377,1.70556,-9.57389,-9.76669,-5.88419,94.1922
2023-02-16 05:39:53:556,-1.04623,1.69714,-9.56397,-9.77005,-5.88068,94.1919
2023-02-16 05:39:53:566,-1.04621,1.69902,-9.55877,-9.77604,-5.87318,94.1917
2023-02-16 05:39:53:576,-0.982338,1.67526,-9.56549,-9.7799,-5.8662,94.1886
2023-02-16 05:39:53:586,-0.953891,1.66065,-9.55954,-9.7833,-5.86402,94.1835
2023-02-16 05:39:53:596,-0.975688,1.6616,-9.56988,-9.78741,-5.86918,94.1829
2023-02-16 05:39:53:607,-0.969214,1.67737,-9.58358,-9.79376,-5.87145,94.1807
2023-02-16 05:39:53:616,-0.973673,1.68595,-9.61498,-9.79809,-5.87574,94.1821
2023-02-16 05:39:53:627,-0.977011,1.69735,-9.64284,-9.80154,-5.874,94.1818
2023-02-16 05:39:53:636,-0.972478,1.70415,-9.64478,-9.80845,-5.87502,94.1859
2023-02-16 05:39:53:647,-0.961026,1.70927,-9.6468,-9.80888,-5.87193,94.1939
2023-02-16 05:39:53:657,-0.969242,1.71153,-9.63545,-9.81219,-5.86274,94.2018
2023-02-16 05:39:53:667,-0.970967,1.7023,-9.61517,-9.81169,-5.8557,94.2126
2023-02-16 05:39:53:676,-0.971622,1.69471,-9.60165,-9.81286,-5.85058,94.2215
2023-02-16 05:39:53:687,-0.994368,1.71207,-9.58471,-9.8119,-5.84791,94.2318
2023-02-16 05:39:53:697,-1.0032,1.72338,-9.56235,-9.81354,-5.84972,94.2412
2023-02-16 05:39:53:706,-1.00099,1.70518,-9.58396,-9.8122,-5.85173,94.25
2023-02-16 05:39:53:716,-1.00214,1.69677,-9.59282,-9.8097,-5.85581,94.2557
2023-02-16 05:39:53:727,-0.979307,1.68999,-9.57906,-9.80442,-5.86007,94.2609
2023-02-16 05:39:53:737,-0.950401,1.67367,-9.56614,-9.80079,-5.86924,94.2678
2023-02-16 05:39:53:747,-0.930956,1.66462,-9.56605,-9.7991,-5.87938,94.2743
2023-02-16 05:39:53:756,-0.905245,1.6567,-9.56515,-9.79724,-5.88865,94.2827
2023-02-16 05:39:53:766,-0.899943,1.64241,-9.56765,-9.79941,-5.89901,94.2945
2023-02-16 05:39:53:776,-0.890521,1.64824,-9.58246,-9.80625,-5.911,94.3129
2023-02-16 05:39:53:786,-0.902309,1.65607,-9.62547,-9.81024,-5.9295,94.3356
2023-02-16 05:39:53:796,-0.941948,1.67769,-9.62714,-9.81937,-5.95202,94.3651
2023-02-16 05:39:53:806,-0.993893,1.6763,-9.62748,-9.82906,-5.9761,94.3983
2023-02-16 05:39:53:816,-1.04276,1.69663,-9.62845,-9.8332,-6.00466,94.4351
2023-02-16 05:39:53:826,-1.09952,1.71158,-9.59011,-9.833,-6.03501,94.472
2023-02-16 05:39:53:836,-1.16502,1.6895,-9.56943,-9.83479,-6.06819,94.5096
2023-02-16 05:39:53:846,-1.1955,1.6841,-9.53987,-9.83633,-6.1026,94.5472
2023-02-16 05:39:53:856,-1.25415,1.69149,-9.50408,-9.8363,-6.13261,94.5787
2023-02-16 05:39:53:867,-1.27342,1.66415,-9.4923,-9.83639,-6.16523,94.6046
2023-02-16 05:39:53:876,-1.26812,1.66197,-9.49412,-9.83872,-6.19171,94.6241
2023-02-16 05:39:53:887,-1.25805,1.65094,-9.5005,-9.84142,-6.21558,94.639
2023-02-16 05:39:53:897,-1.26099,1.64128,-9.52688,-9.84525,-6.24041,94.6509
2023-02-16 05:39:53:906,-1.25404,1.64485,-9.56325,-9.85376,-6.26414,94.6576
2023-02-16 05:39:53:916,-1.25683,1.65123,-9.59823,-9.85815,-6.285,94.6585
2023-02-16 05:39:53:927,-1.25075,1.66127,-9.61676,-9.86328,-6.30142,94.655
2023-02-16 05:39:53:937,-1.24734,1.66454,-9.61982,-9.86712,-6.31744,94.6461
2023-02-16 05:39:53:947,-1.22814,1.64807,-9.61458,-9.87043,-6.32392,94.634
2023-02-16 05:39:53:956,-1.18189,1.63922,-9.60074,-9.86917,-6.32549,94.6194
2023-02-16 05:39:53:967,-1.13124,1.65368,-9.59038,-9.87452,-6.31744,94.6041
2023-02-16 05:39:53:976,-1.10683,1.6463,-9.5807,-9.87677,-6.30516,94.5911
2023-02-16 05:39:53:987,-1.09936,1.66196,-9.57866,-9.87883,-6.29045,94.5761
2023-02-16 05:39:53:996,-1.04489,1.67426,-9.56622,-9.88023,-6.27263,94.5625
2023-02-16 05:39:54:7,-1.00101,1.67198,-9.59418,-9.87868,-6.24855,94.5529
2023-02-16 05:39:54:16,-0.974322,1.68252,-9.63193,-9.87732,-6.22647,94.5448
2023-02-16 05:39:54:27,-0.938077,1.67114,-9.64475,-9.87054,-6.19534,94.5413
2023-02-16 05:39:54:37,-0.91495,1.66079,-9.63715,-9.85937,-6.16424,94.543
2023-02-16 05:39:54:47,-0.890235,1.65154,-9.64092,-9.84828,-6.1346,94.5516
2023-02-16 05:39:54:57,-0.87342,1.65009,-9.6639,-9.83285,-6.10351,94.5607
2023-02-16 05:39:54:67,-0.891318,1.65383,-9.65553,-9.81602,-6.07066,94.5722
2023-02-16 05:39:54:76,-0.928597,1.65943,-9.64471,-9.79817,-6.03974,94.5843
2023-02-16 05:39:54:86,-0.970546,1.67202,-9.66324,-9.77861,-6.00599,94.5952
2023-02-16 05:39:54:97,-0.975329,1.6519,-9.66293,-9.75676,-5.97664,94.6035
2023-02-16 05:39:54:106,-0.925921,1.64274,-9.66802,-9.73015,-5.94453,94.6056
2023-02-16 05:39:54:117,-0.887248,1.61419,-9.66114,-9.69979,-5.91193,94.6055
2023-02-16 05:39:54:127,-0.874446,1.57904,-9.65599,-9.66662,-5.88567,94.6034
2023-02-16 05:39:54:136,-0.865721,1.56167,-9.64284,-9.63652,-5.86378,94.5938
2023-02-16 05:39:54:147,-0.820927,1.56991,-9.65828,-9.60762,-5.84248,94.5822
2023-02-16 05:39:54:156,-0.81618,1.56547,-9.67284,-9.57324,-5.8243,94.5661
2023-02-16 05:39:54:166,-0.838995,1.54977,-9.6278,-9.54469,-5.80635,94.5538
2023-02-16 05:39:54:176,-0.833784,1.54615,-9.57841,-9.51691,-5.78826,94.5407
2023-02-16 05:39:54:186,-0.823475,1.54305,-9.51318,-9.49611,-5.77045,94.5324
2023-02-16 05:39:54:197,-0.843797,1.54011,-9.43609,-9.48148,-5.75473,94.5305
2023-02-16 05:39:54:206,-0.825744,1.53598,-9.39033,-9.47769,-5.73484,94.5264
2023-02-16 05:39:54:216,-0.795944,1.53637,-9.3736,-9.4824,-5.71798,94.5243
2023-02-16 05:39:54:227,-0.815181,1.56651,-9.38271,-9.49969,-5.70373,94.5278
2023-02-16 05:39:54:237,-0.847674,1.60874,-9.44508,-9.52204,-5.69299,94.5281
2023-02-16 05:39:54:247,-0.879887,1.6552,-9.52086,-9.54822,-5.68663,94.5252
2023-02-16 05:39:54:257,-0.899259,1.69341,-9.58659,-9.5781,-5.68448,94.5232
2023-02-16 05:39:54:267,-0.927307,1.70534,-9.61735,-9.60449,-5.69213,94.5226
2023-02-16 05:39:54:276,-0.972156,1.72883,-9.62626,-9.62388,-5.7023,94.5152
2023-02-16 05:39:54:287,-1.01161,1.74426,-9.61765,-9.64109,-5.71917,94.5037
2023-02-16 05:39:54:296,-1.04483,1.72635,-9.60017,-9.65425,-5.7373,94.4896
2023-02-16 05:39:54:307,-1.06542,1.70383,-9.58783,-9.66494,-5.75964,94.4685
2023-02-16 05:39:54:316,-1.07764,1.69028,-9.57611,-9.67578,-5.78229,94.4401
2023-02-16 05:39:54:327,-1.06737,1.6767,-9.5811,-9.68786,-5.80952,94.4072
2023-02-16 05:39:54:336,-1.03098,1.66739,-9.58395,-9.70225,-5.8345,94.3734
2023-02-16 05:39:54:346,-0.994009,1.66061,-9.58211,-9.72064,-5.86041,94.3367
2023-02-16 05:39:54:356,-0.967654,1.67971,-9.59124,-9.74121,-5.88897,94.3027
2023-02-16 05:39:54:366,-0.93557,1.67851,-9.60374,-9.7647,-5.92177,94.2718
2023-02-16 05:39:54:376,-0.911114,1.69168,-9.59157,-9.79301,-5.95889,94.2461
2023-02-16 05:39:54:386,-0.917315,1.70103,-9.58489,-9.82698,-5.99544,94.2302
2023-02-16 05:39:54:396,-0.941678,1.72676,-9.58461,-9.86168,-6.03102,94.2297
2023-02-16 05:39:54:407,-0.942365,1.74882,-9.58244,-9.89556,-6.06719,94.2402
2023-02-16 05:39:54:416,-0.964546,1.77052,-9.60561,-9.92842,-6.09739,94.26
2023-02-16 05:39:54:426,-1.02905,1.79453,-9.59678,-9.95668,-6.12935,94.2933
2023-02-16 05:39:54:436,-1.11662,1.82791,-9.6091,-9.98486,-6.16178,94.3378
2023-02-16 05:39:54:447,-1.19044,1.86433,-9.6314,-10.0068,-6.18998,94.3862
2023-02-16 05:39:54:456,-1.24887,1.87347,-9.63903,-10.0235,-6.21468,94.4366
2023-02-16 05:39:54:466,-1.3009,1.87497,-9.64945,-10.0314,-6.23575,94.4861
2023-02-16 05:39:54:476,-1.35532,1.87345,-9.65634,-10.0376,-6.25438,94.5343
2023-02-16 05:39:54:487,-1.41028,1.84428,-9.64158,-10.0369,-6.27259,94.5798
2023-02-16 05:39:54:496,-1.44894,1.82009,-9.62604,-10.0299,-6.2854,94.6188
2023-02-16 05:39:54:506,-1.44803,1.81182,-9.59672,-10.0144,-6.29156,94.6463
2023-02-16 05:39:54:516,-1.42458,1.78479,-9.56931,-9.99749,-6.28726,94.6599
2023-02-16 05:39:54:526,-1.36608,1.74194,-9.54633,-9.97854,-6.27734,94.6644
2023-02-16 05:39:54:536,-1.31725,1.72165,-9.51956,-9.95793,-6.26101,94.6605
2023-02-16 05:39:54:546,-1.24898,1.68773,-9.50329,-9.94381,-6.23766,94.6435
2023-02-16 05:39:54:556,-1.17988,1.67374,-9.49145,-9.92782,-6.21063,94.6228
2023-02-16 05:39:54:567,-1.12069,1.66552,-9.52132,-9.91509,-6.18348,94.5951
2023-02-16 05:39:54:576,-1.05708,1.67375,-9.55863,-9.90608,-6.15707,94.563
2023-02-16 05:39:54:586,-1.00075,1.67379,-9.57691,-9.89595,-6.13047,94.5294
2023-02-16 05:39:54:596,-0.946848,1.65607,-9.61203,-9.88817,-6.10184,94.4957
2023-02-16 05:39:54:606,-0.916801,1.65501,-9.61681,-9.87756,-6.07181,94.4645
2023-02-16 05:39:54:616,-0.880053,1.65422,-9.59706,-9.86643,-6.04642,94.4369
2023-02-16 05:39:54:626,-0.841928,1.63787,-9.57741,-9.85868,-6.0218,94.4159
2023-02-16 05:39:54:636,-0.827952,1.63447,-9.57161,-9.85422,-6.00094,94.3957
2023-02-16 05:39:54:647,-0.818598,1.63966,-9.57564,-9.85266,-5.98499,94.3851
2023-02-16 05:39:54:656,-0.829855,1.64055,-9.57398,-9.85282,-5.97251,94.3796
2023-02-16 05:39:54:666,-0.856234,1.64329,-9.54945,-9.85604,-5.96355,94.3789
2023-02-16 05:39:54:676,-0.899303,1.65509,-9.54541,-9.86308,-5.96239,94.3872
2023-02-16 05:39:54:686,-0.933355,1.66601,-9.56159,-9.87119,-5.95912,94.3936
2023-02-16 05:39:54:696,-0.960445,1.66793,-9.59118,-9.87766,-5.96007,94.3988
2023-02-16 05:39:54:706,-0.967684,1.67518,-9.60688,-9.88481,-5.96317,94.407
2023-02-16 05:39:54:716,-0.999691,1.69816,-9.6091,-9.89233,-5.96867,94.4154
2023-02-16 05:39:54:726,-1.02478,1.71259,-9.60721,-9.89704,-5.97196,94.421
2023-02-16 05:39:54:736,-1.04317,1.7077,-9.61705,-9.90125,-5.97287,94.4273
2023-02-16 05:39:54:746,-1.04146,1.7074,-9.604,-9.90421,-5.97638,94.4314
2023-02-16 05:39:54:756,-1.04291,1.69458,-9.59394,-9.90709,-5.97771,94.4327
2023-02-16 05:39:54:766,-1.02625,1.69169,-9.57325,-9.90758,-5.97948,94.433
2023-02-16 05:39:54:777,-1.01228,1.68853,-9.56818,-9.90922,-5.98315,94.4313
2023-02-16 05:39:54:787,-1.0182,1.70179,-9.57524,-9.91435,-5.98451,94.4307
2023-02-16 05:39:54:797,-1.00995,1.69263,-9.60856,-9.91707,-5.98453,94.4326
2023-02-16 05:39:54:807,-1.0108,1.69645,-9.63316,-9.92299,-5.98659,94.4339
2023-02-16 05:39:54:816,-1.02921,1.70387,-9.62627,-9.92115,-5.98747,94.4347
2023-02-16 05:39:54:827,-1.02087,1.7111,-9.62437,-9.91761,-5.98448,94.4342
2023-02-16 05:39:54:837,-1.01604,1.72394,-9.6231,-9.91575,-5.98223,94.4336
2023-02-16 05:39:54:847,-1.02444,1.73447,-9.61852,-9.91116,-5.97831,94.4344
2023-02-16 05:39:54:857,-1.01204,1.72289,-9.59359,-9.90145,-5.97247,94.4332
2023-02-16 05:39:54:867,-0.989303,1.70377,-9.55909,-9.8952,-5.96607,94.4324
2023-02-16 05:39:54:877,-0.977369,1.70107,-9.54572,-9.88862,-5.95721,94.4341
2023-02-16 05:39:54:887,-0.972963,1.69831,-9.56036,-9.88282,-5.95189,94.4357
2023-02-16 05:39:54:897,-0.952516,1.69397,-9.5724,-9.88152,-5.94889,94.441
2023-02-16 05:39:54:907,-0.937401,1.69268,-9.58553,-9.87851,-5.94408,94.4432
2023-02-16 05:39:54:916,-0.964592,1.69969,-9.56914,-9.87857,-5.94277,94.4498
2023-02-16 05:39:54:927,-0.99306,1.7221,-9.58283,-9.88077,-5.94259,94.4542
2023-02-16 05:39:54:937,-1.021,1.72704,-9.60521,-9.88203,-5.94543,94.4613
2023-02-16 05:39:54:947,-1.05409,1.74039,-9.61995,-9.87958,-5.94964,94.4678
2023-02-16 05:39:54:957,-1.09571,1.75582,-9.62308,-9.87964,-5.95377,94.4739
2023-02-16 05:39:54:966,-1.151,1.77799,-9.65426,-9.87426,-5.96485,94.4754
2023-02-16 05:39:54:976,-1.1823,1.80225,-9.67825,-9.86911,-5.97897,94.47
2023-02-16 05:39:54:986,-1.16364,1.80436,-9.68624,-9.86039,-5.99218,94.4613
2023-02-16 05:39:54:996,-1.12298,1.77813,-9.6699,-9.84897,-6.00503,94.4517
2023-02-16 05:39:55:6,-1.15779,1.77529,-9.66075,-9.83361,-6.0192,94.4361
2023-02-16 05:39:55:16,-1.19339,1.77215,-9.7033,-9.81177,-6.03546,94.4176
2023-02-16 05:39:55:26,-1.17633,1.74636,-9.71187,-9.7814,-6.04574,94.3982
2023-02-16 05:39:55:36,-1.13241,1.70284,-9.66008,-9.74542,-6.04104,94.3745
2023-02-16 05:39:55:46,-1.10916,1.64746,-9.58627,-9.70812,-6.03462,94.3525
2023-02-16 05:39:55:57,-1.06112,1.57913,-9.52021,-9.67039,-6.02177,94.3314
2023-02-16 05:39:55:66,-0.98795,1.52866,-9.47843,-9.63341,-6.00141,94.3081
2023-02-16 05:39:55:76,-0.954308,1.51233,-9.45582,-9.59784,-5.97782,94.2845
2023-02-16 05:39:55:86,-0.963075,1.5141,-9.4443,-9.56948,-5.94837,94.2641
2023-02-16 05:39:55:96,-0.958568,1.50351,-9.4968,-9.54311,-5.92203,94.2386
2023-02-16 05:39:55:106,-0.929094,1.48055,-9.5766,-9.51265,-5.89325,94.2042
2023-02-16 05:39:55:116,-0.892111,1.46235,-9.67056,-9.48196,-5.86652,94.1655
2023-02-16 05:39:55:126,-0.808995,1.4207,-9.72339,-9.44296,-5.83764,94.1199
2023-02-16 05:39:55:137,-0.691703,1.36795,-9.69814,-9.40488,-5.81429,94.074
2023-02-16 05:39:55:146,-0.605187,1.32819,-9.59286,-9.37459,-5.79305,94.0338
2023-02-16 05:39:55:156,-0.53134,1.26859,-9.47757,-9.35617,-5.77539,94.0071
2023-02-16 05:39:55:166,-0.467386,1.23826,-9.40261,-9.35106,-5.76169,93.9889
2023-02-16 05:39:55:176,-0.44849,1.25157,-9.39273,-9.36624,-5.75402,93.9902
2023-02-16 05:39:55:186,-0.498843,1.30551,-9.413,-9.39554,-5.74855,94.0067
2023-02-16 05:39:55:196,-0.579187,1.3937,-9.47988,-9.4403,-5.75113,94.0376
2023-02-16 05:39:55:206,-0.679188,1.50032,-9.55754,-9.49177,-5.76227,94.0844
2023-02-16 05:39:55:216,-0.782369,1.59973,-9.62513,-9.54494,-5.7819,94.1411
2023-02-16 05:39:55:226,-0.891488,1.6575,-9.64206,-9.60106,-5.81013,94.2053
2023-02-16 05:39:55:236,-0.981595,1.71843,-9.63818,-9.65048,-5.84391,94.2739
2023-02-16 05:39:55:246,-1.05228,1.75867,-9.62368,-9.70349,-5.8819,94.3428
2023-02-16 05:39:55:256,-1.14195,1.77494,-9.61001,-9.75158,-5.9265,94.4067
2023-02-16 05:39:55:266,-1.23872,1.79948,-9.61196,-9.79748,-5.97161,94.4738
2023-02-16 05:39:55:276,-1.30486,1.82064,-9.60935,-9.83858,-6.01059,94.5367
2023-02-16 05:39:55:286,-1.36023,1.84092,-9.59629,-9.87359,-6.04776,94.5918
2023-02-16 05:39:55:296,-1.40616,1.85162,-9.5996,-9.90894,-6.07941,94.6415
2023-02-16 05:39:55:306,-1.39934,1.87217,-9.58549,-9.93958,-6.10086,94.6816
2023-02-16 05:39:55:316,-1.37833,1.88504,-9.57182,-9.96572,-6.1167,94.7067
2023-02-16 05:39:55:327,-1.36073,1.87325,-9.57242,-9.99111,-6.12818,94.726
2023-02-16 05:39:55:336,-1.31267,1.87001,-9.57998,-10.0143,-6.13475,94.7381
2023-02-16 05:39:55:346,-1.23912,1.86773,-9.59932,-10.0315,-6.1385,94.744
2023-02-16 05:39:55:356,-1.18092,1.85282,-9.58175,-10.0443,-6.14283,94.7403
2023-02-16 05:39:55:367,-1.13044,1.83829,-9.56605,-10.0566,-6.14366,94.7343
2023-02-16 05:39:55:376,-1.06932,1.81557,-9.57461,-10.0678,-6.14629,94.7245
2023-02-16 05:39:55:386,-0.997238,1.78656,-9.58634,-10.0754,-6.14583,94.714
2023-02-16 05:39:55:397,-0.931962,1.77568,-9.58826,-10.0802,-6.15123,94.7075
2023-02-16 05:39:55:407,-0.923359,1.76317,-9.58885,-10.0861,-6.15837,94.7084
2023-02-16 05:39:55:416,-0.936468,1.77026,-9.60458,-10.0896,-6.16775,94.7125
2023-02-16 05:39:55:426,-0.938634,1.7751,-9.61042,-10.0907,-6.17342,94.7231
2023-02-16 05:39:55:436,-0.922523,1.75512,-9.62445,-10.0921,-6.18124,94.7368
2023-02-16 05:39:55:447,-0.919026,1.72662,-9.59853,-10.0916,-6.18893,94.7597
2023-02-16 05:39:55:456,-0.938333,1.70629,-9.55075,-10.0926,-6.19817,94.7925
2023-02-16 05:39:55:466,-0.945237,1.69744,-9.53449,-10.101,-6.21251,94.8286
2023-02-16 05:39:55:476,-0.956414,1.68687,-9.52158,-10.1102,-6.22691,94.875
2023-02-16 05:39:55:486,-1.00158,1.69172,-9.52405,-10.1214,-6.24489,94.927
2023-02-16 05:39:55:496,-1.07585,1.70656,-9.53881,-10.1383,-6.26531,94.9806
2023-02-16 05:39:55:506,-1.13035,1.71875,-9.55599,-10.1542,-6.28193,95.0348
2023-02-16 05:39:55:516,-1.2075,1.75296,-9.59496,-10.1701,-6.29789,95.0874
2023-02-16 05:39:55:526,-1.23655,1.74162,-9.65075,-10.181,-6.3086,95.1347
2023-02-16 05:39:55:536,-1.21739,1.75372,-9.67228,-10.1874,-6.31449,95.176
2023-02-16 05:39:55:546,-1.17708,1.73192,-9.64402,-10.1922,-6.31824,95.2154
2023-02-16 05:39:55:556,-1.12064,1.70885,-9.62306,-10.1944,-6.3213,95.2464
2023-02-16 05:39:55:566,-1.08322,1.68219,-9.63136,-10.1936,-6.33308,95.2722
2023-02-16 05:39:55:576,-1.07334,1.70337,-9.68107,-10.1883,-6.34405,95.2921
2023-02-16 05:39:55:586,-1.09106,1.71898,-9.71505,-10.1832,-6.35942,95.3073
2023-02-16 05:39:55:596,-1.11296,1.71517,-9.68762,-10.1712,-6.37867,95.3149
2023-02-16 05:39:55:607,-1.07883,1.69651,-9.63464,-10.161,-6.40061,95.312
2023-02-16 05:39:55:616,-1.06741,1.72551,-9.57615,-10.1527,-6.42632,95.3044
2023-02-16 05:39:55:627,-1.10572,1.74236,-9.52218,-10.1448,-6.46137,95.2937
2023-02-16 05:39:55:636,-1.1196,1.74755,-9.48108,-10.1394,-6.49396,95.2801
2023-02-16 05:39:55:647,-1.14266,1.79533,-9.49188,-10.1399,-6.52948,95.2673
2023-02-16 05:39:55:657,-1.17648,1.80856,-9.551,-10.1405,-6.56463,95.2545
2023-02-16 05:39:55:667,-1.2131,1.83205,-9.58969,-10.1388,-6.59884,95.243
2023-02-16 05:39:55:676,-1.23569,1.83053,-9.56802,-10.1282,-6.61781,95.2322
2023-02-16 05:39:55:687,-1.24327,1.81138,-9.56485,-10.1162,-6.63012,95.2198
2023-02-16 05:39:55:697,-1.23725,1.81806,-9.59407,-10.1037,-6.63904,95.205
2023-02-16 05:39:55:707,-1.19844,1.81393,-9.59121,-10.0836,-6.64262,95.1868
2023-02-16 05:39:55:716,-1.19424,1.7829,-9.57146,-10.064,-6.64625,95.1693
2023-02-16 05:39:55:727,-1.22451,1.78109,-9.55483,-10.0447,-6.64943,95.157
2023-02-16 05:39:55:737,-1.25329,1.76673,-9.55453,-10.0227,-6.65236,95.1366
2023-02-16 05:39:55:747,-1.25543,1.76393,-9.57413,-10.0012,-6.6512,95.1145
2023-02-16 05:39:55:756,-1.25327,1.76376,-9.5546,-9.97857,-6.6428,95.0913
2023-02-16 05:39:55:766,-1.25174,1.74651,-9.54666,-9.95934,-6.63462,95.0633
2023-02-16 05:39:55:777,-1.20848,1.73077,-9.55125,-9.93756,-6.62529,95.0319
2023-02-16 05:39:55:787,-1.16059,1.71083,-9.54118,-9.91795,-6.61477,94.9993
2023-02-16 05:39:55:797,-1.1247,1.69111,-9.53277,-9.89587,-6.59637,94.9663
2023-02-16 05:39:55:806,-1.07399,1.67737,-9.56098,-9.87896,-6.57866,94.9375
2023-02-16 05:39:55:816,-1.04265,1.66,-9.58038,-9.8576,-6.56036,94.9116
2023-02-16 05:39:55:827,-1.04249,1.67473,-9.58873,-9.83996,-6.54472,94.8897
2023-02-16 05:39:55:836,-1.01499,1.67341,-9.63537,-9.82258,-6.52906,94.8706
2023-02-16 05:39:55:847,-0.987507,1.65251,-9.63417,-9.80377,-6.51679,94.8581
2023-02-16 05:39:55:857,-1.03463,1.63283,-9.6055,-9.78485,-6.50926,94.8516
2023-02-16 05:39:55:866,-1.11355,1.62625,-9.59183,-9.7634,-6.50435,94.8466
2023-02-16 05:39:55:877,-1.14632,1.62361,-9.5991,-9.74608,-6.50077,94.8467
2023-02-16 05:39:55:887,-1.17073,1.62607,-9.56973,-9.7243,-6.49463,94.8482
2023-02-16 05:39:55:897,-1.18707,1.60783,-9.53221,-9.70636,-6.48256,94.8451
2023-02-16 05:39:55:907,-1.18507,1.57882,-9.50165,-9.69051,-6.4698,94.8365
2023-02-16 05:39:55:916,-1.14459,1.58129,-9.47457,-9.67488,-6.45592,94.8279
2023-02-16 05:39:55:927,-1.1121,1.57759,-9.48869,-9.66553,-6.44279,94.8156
2023-02-16 05:39:55:936,-1.09817,1.56742,-9.52847,-9.65685,-6.43261,94.7998
2023-02-16 05:39:55:947,-1.0812,1.55847,-9.53631,-9.64843,-6.41817,94.7791
2023-02-16 05:39:55:956,-1.0652,1.55177,-9.52103,-9.64596,-6.40464,94.7629
2023-02-16 05:39:55:967,-1.04676,1.54947,-9.52973,-9.64701,-6.38733,94.7479
2023-02-16 05:39:55:977,-1.05146,1.54742,-9.536,-9.65263,-6.37213,94.7347
2023-02-16 05:39:55:986,-1.03561,1.56088,-9.54768,-9.66038,-6.35826,94.7202
2023-02-16 05:39:55:996,-1.02484,1.56894,-9.57413,-9.6689,-6.34604,94.7081
2023-02-16 05:39:56:7,-1.02698,1.58018,-9.58147,-9.67993,-6.33121,94.6944
2023-02-16 05:39:56:17,-1.01197,1.59,-9.57809,-9.69207,-6.32189,94.6823
2023-02-16 05:39:56:27,-1.00116,1.57978,-9.59325,-9.70911,-6.31483,94.6745
2023-02-16 05:39:56:37,-0.99879,1.59596,-9.58476,-9.72808,-6.3097,94.6643
2023-02-16 05:39:56:47,-0.986651,1.6139,-9.54765,-9.74902,-6.30667,94.6572
2023-02-16 05:39:56:57,-1.01014,1.61589,-9.54749,-9.77312,-6.30321,94.649
2023-02-16 05:39:56:67,-1.01551,1.66979,-9.58553,-9.79526,-6.29949,94.6419
2023-02-16 05:39:56:77,-1.00884,1.69913,-9.62819,-9.8174,-6.29303,94.636
2023-02-16 05:39:56:87,-0.979359,1.72103,-9.65879,-9.83402,-6.28307,94.6342
2023-02-16 05:39:56:97,-0.949285,1.73016,-9.65128,-9.84618,-6.2775,94.6334
2023-02-16 05:39:56:107,-0.973161,1.7196,-9.6156,-9.85876,-6.28001,94.6347
2023-02-16 05:39:56:116,-1.00702,1.7105,-9.57818,-9.87342,-6.28207,94.6392
2023-02-16 05:39:56:127,-1.02216,1.72547,-9.57949,-9.88704,-6.28477,94.6542
2023-02-16 05:39:56:137,-1.06846,1.75435,-9.58507,-9.90319,-6.29244,94.6671
2023-02-16 05:39:56:147,-1.09995,1.75672,-9.58743,-9.9196,-6.29934,94.6843
2023-02-16 05:39:56:157,-1.11035,1.76709,-9.60369,-9.93512,-6.30129,94.7015
2023-02-16 05:39:56:167,-1.13186,1.79129,-9.6212,-9.94866,-6.29809,94.7171
2023-02-16 05:39:56:176,-1.15339,1.80129,-9.63249,-9.95865,-6.29681,94.7331
2023-02-16 05:39:56:187,-1.17669,1.80905,-9.6327,-9.96442,-6.29528,94.7437
2023-02-16 05:39:56:197,-1.21945,1.80325,-9.61291,-9.96602,-6.29607,94.7507
2023-02-16 05:39:56:207,-1.23012,1.80555,-9.5952,-9.96514,-6.29786,94.7513
2023-02-16 05:39:56:216,-1.21271,1.78148,-9.58795,-9.96163,-6.3009,94.742
2023-02-16 05:39:56:227,-1.18184,1.76325,-9.57358,-9.95676,-6.3014,94.7265
2023-02-16 05:39:56:236,-1.1526,1.75597,-9.55177,-9.95216,-6.30729,94.7089
2023-02-16 05:39:56:247,-1.12087,1.73393,-9.53341,-9.94661,-6.30923,94.6873
2023-02-16 05:39:56:257,-1.08903,1.70747,-9.52444,-9.94513,-6.31369,94.6662
2023-02-16 05:39:56:266,-1.04013,1.68908,-9.55261,-9.94538,-6.31468,94.6484
2023-02-16 05:39:56:277,-1.02464,1.6789,-9.56408,-9.94383,-6.31798,94.6316
2023-02-16 05:39:56:287,-1.01914,1.66989,-9.54697,-9.94952,-6.31777,94.6187
2023-02-16 05:39:56:297,-1.04189,1.66232,-9.52909,-9.95566,-6.31786,94.6132
2023-02-16 05:39:56:306,-1.05454,1.65762,-9.54662,-9.96023,-6.30985,94.6082
2023-02-16 05:39:56:316,-1.07261,1.6944,-9.56658,-9.96707,-6.29821,94.6061
2023-02-16 05:39:56:326,-1.10056,1.72031,-9.60595,-9.97652,-6.28718,94.6049
2023-02-16 05:39:56:337,-1.11414,1.74557,-9.6043,-9.98721,-6.27963,94.6034
2023-02-16 05:39:56:347,-1.09461,1.74444,-9.58429,-9.99672,-6.2714,94.6032
2023-02-16 05:39:56:356,-1.09495,1.73814,-9.57103,-10.0057,-6.26305,94.5979
2023-02-16 05:39:56:366,-1.08574,1.73487,-9.56867,-10.0149,-6.25677,94.5946
2023-02-16 05:39:56:377,-1.09525,1.72582,-9.54581,-10.024,-6.25051,94.5868
2023-02-16 05:39:56:387,-1.11152,1.72686,-9.51529,-10.0313,-6.24575,94.5795
2023-02-16 05:39:56:397,-1.11774,1.72094,-9.51236,-10.04,-6.23878,94.5686
2023-02-16 05:39:56:407,-1.13347,1.72248,-9.52916,-10.048,-6.23431,94.558
2023-02-16 05:39:56:416,-1.14187,1.73035,-9.53804,-10.0583,-6.22952,94.541
2023-02-16 05:39:56:426,-1.1408,1.73108,-9.57815,-10.0698,-6.22306,94.5253
2023-02-16 05:39:56:436,-1.13102,1.74895,-9.60065,-10.0813,-6.21695,94.5051
2023-02-16 05:39:56:446,-1.11426,1.75029,-9.60531,-10.0897,-6.21438,94.4812
2023-02-16 05:39:56:456,-1.10156,1.73931,-9.60498,-10.0996,-6.20998,94.4521
2023-02-16 05:39:56:466,-1.10185,1.74314,-9.60848,-10.1069,-6.20768,94.4239
2023-02-16 05:39:56:476,-1.0868,1.73332,-9.59389,-10.1122,-6.20399,94.3936
2023-02-16 05:39:56:486,-1.02911,1.72143,-9.59947,-10.1171,-6.20183,94.3593
2023-02-16 05:39:56:496,-0.985052,1.70184,-9.575,-10.1226,-6.19731,94.33
2023-02-16 05:39:56:506,-0.98959,1.68228,-9.5639,-10.1291,-6.19007,94.3012
2023-02-16 05:39:56:516,-0.99586,1.69163,-9.57686,-10.1392,-6.18439,94.2761
2023-02-16 05:39:56:526,-0.977892,1.71368,-9.59867,-10.1461,-6.17569,94.2514
2023-02-16 05:39:56:536,-0.969916,1.71096,-9.59817,-10.1512,-6.16413,94.233
2023-02-16 05:39:56:546,-0.987495,1.72422,-9.58312,-10.1587,-6.15252,94.215
2023-02-16 05:39:56:556,-0.993933,1.72487,-9.58273,-10.1641,-6.1387,94.2058
2023-02-16 05:39:56:566,-0.992314,1.71737,-9.57646,-10.1719,-6.12782,94.1981
2023-02-16 05:39:56:576,-0.997161,1.71647,-9.58014,-10.1777,-6.11594,94.1934
2023-02-16 05:39:56:586,-1.00656,1.71721,-9.57558,-10.1819,-6.10597,94.189
2023-02-16 05:39:56:596,-1.02736,1.72837,-9.58297,-10.1871,-6.09762,94.1837
2023-02-16 05:39:56:606,-1.03883,1.73582,-9.56259,-10.1913,-6.09112,94.1785
2023-02-16 05:39:56:616,-1.02467,1.72889,-9.56782,-10.1956,-6.08491,94.174
2023-02-16 05:39:56:626,-1.01396,1.71268,-9.59082,-10.2013,-6.07475,94.1704
2023-02-16 05:39:56:636,-0.994841,1.72872,-9.61318,-10.2068,-6.06524,94.1681
2023-02-16 05:39:56:646,-0.969391,1.73351,-9.63708,-10.2103,-6.0584,94.1654
2023-02-16 05:39:56:656,-0.970921,1.73392,-9.62554,-10.214,-6.06006,94.1614
2023-02-16 05:39:56:666,-1.00642,1.73702,-9.61586,-10.2206,-6.06156,94.1613
2023-02-16 05:39:56:676,-1.03017,1.76468,-9.60552,-10.2272,-6.06661,94.159
2023-02-16 05:39:56:686,-1.0437,1.79651,-9.59321,-10.2297,-6.06902,94.1549
2023-02-16 05:39:56:696,-1.06699,1.80534,-9.59138,-10.231,-6.07188,94.1536
2023-02-16 05:39:56:706,-1.07584,1.8125,-9.59766,-10.2332,-6.07122,94.1506
2023-02-16 05:39:56:716,-1.0754,1.82997,-9.59864,-10.2305,-6.07003,94.1446
2023-02-16 05:39:56:726,-1.06859,1.81066,-9.59667,-10.2267,-6.06949,94.1382
2023-02-16 05:39:56:736,-1.07168,1.7974,-9.56987,-10.2183,-6.06663,94.1315
2023-02-16 05:39:56:746,-1.07595,1.7845,-9.54793,-10.2088,-6.066,94.1242
2023-02-16 05:39:56:756,-1.04957,1.76047,-9.53583,-10.1997,-6.0642,94.1132
2023-02-16 05:39:56:766,-1.04649,1.74591,-9.51225,-10.1946,-6.06307,94.1041
2023-02-16 05:39:56:776,-1.05952,1.73461,-9.5106,-10.1912,-6.06261,94.0961
2023-02-16 05:39:56:786,-1.07922,1.71548,-9.52645,-10.1899,-6.05893,94.0874
2023-02-16 05:39:56:796,-1.09488,1.72508,-9.56991,-10.1872,-6.05475,94.0731
2023-02-16 05:39:56:806,-1.09363,1.73866,-9.6074,-10.189,-6.04803,94.0588
2023-02-16 05:39:56:816,-1.08982,1.76086,-9.62882,-10.1878,-6.03927,94.042
2023-02-16 05:39:56:826,-1.08657,1.74783,-9.62457,-10.1841,-6.03266,94.0265
2023-02-16 05:39:56:836,-1.0678,1.74803,-9.6087,-10.1793,-6.0224,94.0083
2023-02-16 05:39:56:846,-1.03919,1.74109,-9.5959,-10.1759,-6.01024,93.9915
2023-02-16 05:39:56:856,-1.0203,1.71836,-9.55085,-10.1717,-5.99784,93.9715
2023-02-16 05:39:56:866,-1.02451,1.70769,-9.5411,-10.1688,-5.98806,93.9493
2023-02-16 05:39:56:876,-1.0082,1.70025,-9.55105,-10.1658,-5.97809,93.9284
2023-02-16 05:39:56:886,-0.961264,1.70129,-9.54327,-10.167,-5.96098,93.9064
2023-02-16 05:39:56:896,-0.913466,1.68335,-9.55431,-10.1659,-5.94651,93.8834
2023-02-16 05:39:56:906,-0.909272,1.69368,-9.56609,-10.1636,-5.93476,93.8654
2023-02-16 05:39:56:916,-0.917029,1.69985,-9.56604,-10.1627,-5.92549,93.8527
2023-02-16 05:39:56:926,-0.940963,1.70552,-9.5784,-10.1613,-5.9173,93.8418
2023-02-16 05:39:56:936,-0.967092,1.70172,-9.5807,-10.1598,-5.9131,93.834
2023-02-16 05:39:56:946,-0.968792,1.71276,-9.59486,-10.1597,-5.90853,93.8223
2023-02-16 05:39:56:956,-0.952849,1.71455,-9.61192,-10.1578,-5.8982,93.818
2023-02-16 05:39:56:966,-0.957432,1.70616,-9.60785,-10.1619,-5.8934,93.8147
2023-02-16 05:39:56:976,-0.960652,1.70293,-9.60107,-10.1654,-5.88953,93.8078
2023-02-16 05:39:56:986,-0.955604,1.71938,-9.58894,-10.1725,-5.88645,93.8062
2023-02-16 05:39:56:996,-0.934551,1.72632,-9.57443,-10.1813,-5.88531,93.8001
2023-02-16 05:39:57:6,-0.934885,1.71742,-9.58388,-10.1839,-5.88424,93.7973
2023-02-16 05:39:57:16,-0.945497,1.71484,-9.57442,-10.1893,-5.88703,93.7937
2023-02-16 05:39:57:26,-0.933587,1.72535,-9.56462,-10.1968,-5.88892,93.7927
2023-02-16 05:39:57:36,-0.919903,1.72294,-9.58739,-10.2023,-5.89334,93.7887
2023-02-16 05:39:57:46,-0.926756,1.72435,-9.62101,-10.2061,-5.90239,93.7898
2023-02-16 05:39:57:56,-0.930953,1.73651,-9.63547,-10.2061,-5.91097,93.7936
2023-02-16 05:39:57:66,-0.951111,1.72379,-9.62034,-10.1993,-5.91963,93.7994
2023-02-16 05:39:57:76,-0.969234,1.6944,-9.59363,-10.1938,-5.93278,93.812
2023-02-16 05:39:57:86,-0.982842,1.7052,-9.56497,-10.1901,-5.93843,93.8226
2023-02-16 05:39:57:96,-0.986999,1.70862,-9.54799,-10.1911,-5.94126,93.8373
2023-02-16 05:39:57:106,-0.997682,1.71121,-9.55398,-10.1917,-5.94863,93.854
2023-02-16 05:39:57:116,-1.00743,1.71206,-9.57798,-10.1955,-5.95315,93.8707
2023-02-16 05:39:57:126,-1.04421,1.72686,-9.59098,-10.2,-5.95924,93.8899
2023-02-16 05:39:57:136,-1.08484,1.74611,-9.58692,-10.2027,-5.9643,93.9061
2023-02-16 05:39:57:146,-1.10223,1.75568,-9.59279,-10.2073,-5.96812,93.9236
2023-02-16 05:39:57:156,-1.09728,1.76606,-9.58819,-10.2058,-5.97441,93.9339
2023-02-16 05:39:57:166,-1.10096,1.77295,-9.57918,-10.206,-5.98107,93.9411
2023-02-16 05:39:57:177,-1.09176,1.76031,-9.57523,-10.2066,-5.98681,93.944
2023-02-16 05:39:57:186,-1.06925,1.75447,-9.57089,-10.2032,-5.98988,93.9427
2023-02-16 05:39:57:196,-1.04088,1.73592,-9.54531,-10.2006,-5.9937,93.9377
2023-02-16 05:39:57:206,-1.0444,1.71545,-9.52724,-10.2005,-5.99511,93.933
2023-02-16 05:39:57:216,-1.011,1.70751,-9.5088,-10.204,-5.99612,93.9271
2023-02-16 05:39:57:227,-0.981009,1.69897,-9.51686,-10.2071,-5.99423,93.9238
2023-02-16 05:39:57:237,-0.975461,1.70332,-9.51361,-10.2154,-5.99556,93.922
2023-02-16 05:39:57:247,-0.972871,1.70632,-9.52031,-10.229,-5.99967,93.9203
2023-02-16 05:39:57:256,-0.996113,1.73243,-9.57393,-10.243,-6.00089,93.919
2023-02-16 05:39:57:266,-1.00346,1.75624,-9.62485,-10.2561,-6.00021,93.9202
2023-02-16 05:39:57:276,-1.00824,1.76822,-9.63079,-10.2689,-5.99959,93.9257
2023-02-16 05:39:57:286,-1.00879,1.7734,-9.63414,-10.2763,-5.99744,93.9283
2023-02-16 05:39:57:296,-0.992283,1.7703,-9.60175,-10.2849,-6.00004,93.9305
2023-02-16 05:39:57:307,-0.988534,1.74841,-9.58082,-10.2934,-6.00524,93.9326
2023-02-16 05:39:57:316,-0.994997,1.7471,-9.55332,-10.3016,-6.01152,93.9363
2023-02-16 05:39:57:327,-0.988839,1.75136,-9.54277,-10.3102,-6.01571,93.9388
2023-02-16 05:39:57:336,-0.99892,1.7764,-9.5479,-10.3199,-6.02067,93.9442
2023-02-16 05:39:57:347,-1.02105,1.80598,-9.55773,-10.3324,-6.02716,93.9457
2023-02-16 05:39:57:357,-1.03776,1.80485,-9.58854,-10.3419,-6.02617,93.9539
2023-02-16 05:39:57:366,-1.05289,1.80433,-9.62368,-10.3508,-6.02665,93.9579
2023-02-16 05:39:57:377,-1.05347,1.81772,-9.61393,-10.355,-6.02517,93.9635
2023-02-16 05:39:57:387,-1.05079,1.79846,-9.6154,-10.3569,-6.0234,93.9697
2023-02-16 05:39:57:397,-1.0427,1.78391,-9.61128,-10.3585,-6.02441,93.976
2023-02-16 05:39:57:407,-1.0471,1.76354,-9.58061,-10.3603,-6.02558,93.9767
2023-02-16 05:39:57:417,-1.04789,1.7513,-9.54613,-10.3631,-6.02837,93.9751
2023-02-16 05:39:57:426,-1.04583,1.74902,-9.53031,-10.3627,-6.03034,93.9748
2023-02-16 05:39:57:436,-1.07988,1.74414,-9.52693,-10.3681,-6.03481,93.973
2023-02-16 05:39:57:447,-1.05643,1.75661,-9.56417,-10.3749,-6.03458,93.9693
2023-02-16 05:39:57:457,-1.01176,1.77777,-9.61887,-10.3801,-6.03323,93.9577
2023-02-16 05:39:57:466,-0.980475,1.78745,-9.64392,-10.3834,-6.02865,93.9472
2023-02-16 05:39:57:476,-0.973839,1.78452,-9.6296,-10.3836,-6.03312,93.938
2023-02-16 05:39:57:487,-0.984455,1.79824,-9.59662,-10.3867,-6.04217,93.9318
2023-02-16 05:39:57:497,-1.00301,1.7893,-9.61099,-10.3888,-6.05226,93.9296
2023-02-16 05:39:57:507,-0.998729,1.80117,-9.59981,-10.3903,-6.06005,93.9307
2023-02-16 05:39:57:516,-0.998853,1.80777,-9.56616,-10.389,-6.06729,93.9316
2023-02-16 05:39:57:527,-1.0059,1.80248,-9.5344,-10.3888,-6.07464,93.9295
2023-02-16 05:39:57:536,-1.01143,1.80976,-9.53601,-10.39,-6.08073,93.9348
2023-02-16 05:39:57:546,-1.01884,1.80392,-9.54369,-10.3896,-6.08853,93.9382
2023-02-16 05:39:57:556,-1.04154,1.80802,-9.53139,-10.3918,-6.099,93.9439
2023-02-16 05:39:57:566,-1.07387,1.80624,-9.52163,-10.3898,-6.10573,93.9507
2023-02-16 05:39:57:576,-1.11712,1.81946,-9.53975,-10.3873,-6.11435,93.9589
2023-02-16 05:39:57:586,-1.10938,1.81648,-9.56237,-10.3839,-6.1167,93.9661
2023-02-16 05:39:57:596,-1.1061,1.79807,-9.58065,-10.384,-6.11472,93.9719
2023-02-16 05:39:57:606,-1.11181,1.78848,-9.5553,-10.378,-6.11269,93.9736
2023-02-16 05:39:57:616,-1.10956,1.77566,-9.54464,-10.3749,-6.10802,93.978
2023-02-16 05:39:57:626,-1.07509,1.77023,-9.54229,-10.3716,-6.10107,93.977
2023-02-16 05:39:57:636,-1.05895,1.76489,-9.55047,-10.3699,-6.09941,93.9757
2023-02-16 05:39:57:647,-1.06091,1.77332,-9.54829,-10.3724,-6.0969,93.9721
2023-02-16 05:39:57:656,-1.06023,1.76691,-9.5589,-10.377,-6.09551,93.966
2023-02-16 05:39:57:667,-1.06469,1.79098,-9.58738,-10.3827,-6.09535,93.9577
2023-02-16 05:39:57:677,-1.05469,1.82425,-9.59845,-10.3869,-6.09672,93.9457
2023-02-16 05:39:57:687,-1.06152,1.82537,-9.61908,-10.3865,-6.09539,93.9338
2023-02-16 05:39:57:697,-1.05561,1.82154,-9.60662,-10.3825,-6.09817,93.9193
2023-02-16 05:39:57:707,-1.01413,1.79897,-9.57326,-10.382,-6.09561,93.9058
2023-02-16 05:39:57:716,-0.966779,1.7926,-9.54937,-10.3768,-6.0984,93.8926
2023-02-16 05:39:57:727,-0.946191,1.77357,-9.55493,-10.3717,-6.10158,93.8845
2023-02-16 05:39:57:737,-0.977811,1.76594,-9.57404,-10.3706,-6.10756,93.8799
2023-02-16 05:39:57:747,-1.00206,1.77123,-9.56359,-10.3671,-6.11243,93.8784
2023-02-16 05:39:57:757,-1.04044,1.77151,-9.55515,-10.3652,-6.11648,93.8816
2023-02-16 05:39:57:767,-1.0682,1.76899,-9.56905,-10.3631,-6.12016,93.8864
2023-02-16 05:39:57:777,-1.07278,1.76689,-9.58093,-10.36,-6.12099,93.8867
2023-02-16 05:39:57:787,-1.10277,1.77123,-9.58746,-10.3575,-6.11897,93.8901
2023-02-16 05:39:57:797,-1.10868,1.77661,-9.57663,-10.3557,-6.11604,93.8911
2023-02-16 05:39:57:807,-1.09208,1.76897,-9.56921,-10.3547,-6.1154,93.8868
2023-02-16 05:39:57:816,-1.08392,1.75669,-9.56234,-10.3555,-6.11129,93.8836
2023-02-16 05:39:57:826,-1.06632,1.74733,-9.5611,-10.356,-6.11013,93.8742
2023-02-16 05:39:57:836,-1.04865,1.75352,-9.55961,-10.3548,-6.11255,93.865
2023-02-16 05:39:57:846,-1.0117,1.74882,-9.55851,-10.3537,-6.11301,93.8584
2023-02-16 05:39:57:856,-1.00793,1.74856,-9.54986,-10.3543,-6.11562,93.8515
2023-02-16 05:39:57:866,-0.999864,1.74887,-9.56772,-10.3527,-6.11772,93.8454
2023-02-16 05:39:57:876,-0.983933,1.74121,-9.57392,-10.3577,-6.12023,93.8428
2023-02-16 05:39:57:886,-0.996068,1.74113,-9.58361,-10.362,-6.12605,93.8427
2023-02-16 05:39:57:897,-1.00096,1.74831,-9.59763,-10.3601,-6.12814,93.8473
2023-02-16 05:39:57:907,-1.02612,1.75775,-9.59879,-10.3576,-6.12846,93.8538
2023-02-16 05:39:57:917,-1.05173,1.74691,-9.57932,-10.3576,-6.12808,93.8612
2023-02-16 05:39:57:927,-1.07229,1.74266,-9.54613,-10.3585,-6.13143,93.8659
2023-02-16 05:39:57:937,-1.06875,1.74357,-9.5224,-10.3627,-6.13476,93.8701
2023-02-16 05:39:57:947,-1.06583,1.75756,-9.52939,-10.3669,-6.13523,93.8724
2023-02-16 05:39:57:956,-1.06891,1.77872,-9.54894,-10.3714,-6.13802,93.8737
2023-02-16 05:39:57:966,-1.05001,1.77002,-9.57677,-10.3758,-6.14128,93.8687
2023-02-16 05:39:57:977,-1.0424,1.7729,-9.58929,-10.3797,-6.1494,93.8646
2023-02-16 05:39:57:987,-1.03642,1.77485,-9.59545,-10.3829,-6.15815,93.8633
2023-02-16 05:39:57:997,-1.0351,1.77521,-9.60155,-10.3811,-6.16369,93.8562
2023-02-16 05:39:58:7,-1.01328,1.76862,-9.60393,-10.3791,-6.17176,93.8521
2023-02-16 05:39:58:17,-1.00682,1.76496,-9.57063,-10.3766,-6.17784,93.8504
2023-02-16 05:39:58:27,-1.02807,1.78195,-9.55823,-10.3758,-6.18354,93.85
2023-02-16 05:39:58:36,-1.03952,1.78498,-9.58199,-10.3759,-6.18801,93.8558
2023-02-16 05:39:58:47,-1.04562,1.78127,-9.58386,-10.3754,-6.18906,93.8627
2023-02-16 05:39:58:56,-1.06777,1.78817,-9.57092,-10.3739,-6.19416,93.8674
2023-02-16 05:39:58:66,-1.08708,1.78114,-9.57791,-10.3712,-6.19913,93.8715
2023-02-16 05:39:58:76,-1.0962,1.78134,-9.60394,-10.3661,-6.20196,93.8739
2023-02-16 05:39:58:87,-1.10653,1.81918,-9.66449,-10.359,-6.20363,93.8743
2023-02-16 05:39:58:97,-1.12611,1.87693,-9.7519,-10.3416,-6.20187,93.8758
2023-02-16 05:39:58:106,-1.1165,1.89118,-9.75596,-10.3147,-6.19443,93.8769
2023-02-16 05:39:58:116,-1.07565,1.84524,-9.66567,-10.2805,-6.18492,93.8797
2023-02-16 05:39:58:127,-1.06032,1.7984,-9.57672,-10.241,-6.17649,93.8834
2023-02-16 05:39:58:137,-1.06784,1.76433,-9.52357,-10.2033,-6.17084,93.8877
2023-02-16 05:39:58:147,-1.05412,1.73269,-9.50066,-10.1706,-6.16408,93.8907
2023-02-16 05:39:58:156,-1.05168,1.70585,-9.49788,-10.1408,-6.15408,93.8914
2023-02-16 05:39:58:167,-1.05795,1.69077,-9.48791,-10.1132,-6.14331,93.893
2023-02-16 05:39:58:177,-1.05095,1.68311,-9.50507,-10.0952,-6.13317,93.8929
2023-02-16 05:39:58:186,-1.03927,1.67513,-9.53104,-10.0759,-6.12043,93.8906
2023-02-16 05:39:58:197,-1.02677,1.67098,-9.54064,-10.0562,-6.10869,93.887
2023-02-16 05:39:58:206,-1.01118,1.67596,-9.56072,-10.0382,-6.09785,93.884
2023-02-16 05:39:58:216,-1.01276,1.66484,-9.57804,-10.0186,-6.08795,93.8778
2023-02-16 05:39:58:226,-1.02776,1.66948,-9.56817,-10.0025,-6.08008,93.8736
2023-02-16 05:39:58:236,-1.02823,1.65441,-9.53628,-9.98553,-6.07414,93.8671
2023-02-16 05:39:58:247,-1.03287,1.64292,-9.49786,-9.97618,-6.06867,93.8614
2023-02-16 05:39:58:257,-1.03668,1.63523,-9.4869,-9.97143,-6.06594,93.8526
2023-02-16 05:39:58:266,-1.02522,1.6402,-9.48794,-9.97037,-6.06216,93.8419
2023-02-16 05:39:58:276,-1.02075,1.62926,-9.49126,-9.97342,-6.05808,93.8331
2023-02-16 05:39:58:287,-1.02294,1.63868,-9.50817,-9.9811,-6.05392,93.8241
2023-02-16 05:39:58:297,-1.02249,1.64596,-9.56152,-9.99379,-6.05014,93.8154
2023-02-16 05:39:58:307,-1.0117,1.6604,-9.63313,-10.0103,-6.04309,93.8059
2023-02-16 05:39:58:316,-0.996171,1.68114,-9.63713,-10.0223,-6.03704,93.7976
2023-02-16 05:39:58:326,-1.00605,1.68632,-9.60921,-10.0328,-6.03424,93.7887
2023-02-16 05:39:58:337,-1.0455,1.71056,-9.59432,-10.0465,-6.03772,93.7837
2023-02-16 05:39:58:347,-1.07101,1.7211,-9.57674,-10.0641,-6.03756,93.7791
2023-02-16 05:39:58:357,-1.07319,1.71618,-9.55884,-10.079,-6.03722,93.7739
2023-02-16 05:39:58:366,-1.05405,1.71749,-9.52585,-10.0981,-6.03593,93.7642
2023-02-16 05:39:58:376,-1.0313,1.70926,-9.51346,-10.1163,-6.03187,93.7539
2023-02-16 05:39:58:387,-1.01634,1.70935,-9.51265,-10.1401,-6.03016,93.7442
2023-02-16 05:39:58:396,-1.00348,1.74403,-9.53901,-10.1665,-6.02714,93.7344
2023-02-16 05:39:58:407,-1.00315,1.77081,-9.58045,-10.191,-6.02382,93.7247
2023-02-16 05:39:58:417,-1.021,1.77926,-9.60514,-10.2129,-6.02154,93.7179
2023-02-16 05:39:58:427,-1.05477,1.80023,-9.60798,-10.2375,-6.02127,93.7125
2023-02-16 05:39:58:437,-1.07861,1.82697,-9.60154,-10.2565,-6.01995,93.7031
2023-02-16 05:39:58:447,-1.08699,1.81347,-9.60455,-10.2745,-6.01544,93.6924
2023-02-16 05:39:58:457,-1.03776,1.80149,-9.61214,-10.2897,-6.01368,93.6823
2023-02-16 05:39:58:467,-1.01401,1.79167,-9.61802,-10.3041,-6.01269,93.6691
2023-02-16 05:39:58:476,-1.02543,1.78861,-9.59857,-10.3139,-6.01001,93.66
2023-02-16 05:39:58:487,-1.02781,1.77679,-9.59297,-10.3246,-6.01043,93.6475
2023-02-16 05:39:58:497,-1.00921,1.76673,-9.59911,-10.3386,-6.00798,93.6326
2023-02-16 05:39:58:507,-0.99772,1.7747,-9.62736,-10.3512,-6.0056,93.6212
2023-02-16 05:39:58:516,-0.978607,1.78622,-9.62039,-10.3647,-6.00383,93.6114
2023-02-16 05:39:58:527,-0.956639,1.79908,-9.58652,-10.3748,-5.99797,93.6058
2023-02-16 05:39:58:537,-0.955997,1.79359,-9.58082,-10.3849,-5.9956,93.5997
2023-02-16 05:39:58:547,-0.972444,1.77814,-9.58754,-10.3964,-5.99193,93.5947
2023-02-16 05:39:58:556,-0.942857,1.77,-9.57496,-10.4063,-5.98882,93.5921
2023-02-16 05:39:58:566,-0.914672,1.7753,-9.57634,-10.4126,-5.98899,93.5895
2023-02-16 05:39:58:577,-0.91397,1.75663,-9.57365,-10.4193,-5.98907,93.5886
2023-02-16 05:39:58:587,-0.959613,1.74174,-9.56921,-10.4223,-5.99265,93.5885
2023-02-16 05:39:58:596,-0.993457,1.75667,-9.5549,-10.4288,-5.9973,93.5889
2023-02-16 05:39:58:607,-1.03105,1.7659,-9.56193,-10.432,-6.0059,93.5958
2023-02-16 05:39:58:617,-1.06805,1.76892,-9.59224,-10.4396,-6.01123,93.6027
2023-02-16 05:39:58:627,-1.06475,1.78294,-9.61507,-10.4446,-6.0198,93.6081
2023-02-16 05:39:58:637,-1.05674,1.79445,-9.61002,-10.4497,-6.02463,93.6117
2023-02-16 05:39:58:647,-1.05645,1.78725,-9.59862,-10.4561,-6.02933,93.6115
2023-02-16 05:39:58:657,-1.06828,1.78547,-9.5683,-10.4622,-6.03215,93.6109
2023-02-16 05:39:58:667,-1.06761,1.78195,-9.55636,-10.4682,-6.03688,93.6085
2023-02-16 05:39:58:677,-1.0589,1.78101,-9.55434,-10.4751,-6.0423,93.6076
2023-02-16 05:39:58:687,-1.06111,1.79315,-9.5603,-10.4876,-6.04824,93.6058
2023-02-16 05:39:58:697,-1.07232,1.804,-9.57736,-10.4925,-6.05373,93.6013
2023-02-16 05:39:58:707,-1.08288,1.82106,-9.60859,-10.4957,-6.05966,93.5969
2023-02-16 05:39:58:716,-1.08326,1.82519,-9.60406,-10.4951,-6.06226,93.5892
2023-02-16 05:39:58:727,-1.07241,1.80972,-9.56278,-10.492,-6.06677,93.5831
2023-02-16 05:39:58:737,-1.09082,1.80957,-9.55001,-10.4904,-6.07074,93.5758
2023-02-16 05:39:58:747,-1.11032,1.79903,-9.55422,-10.486,-6.07599,93.5677
2023-02-16 05:39:58:756,-1.11156,1.77165,-9.54823,-10.4818,-6.07658,93.5589
2023-02-16 05:39:58:766,-1.07533,1.75856,-9.53263,-10.481,-6.07614,93.5491
2023-02-16 05:39:58:777,-1.06741,1.75474,-9.53066,-10.4823,-6.07411,93.5351
2023-02-16 05:39:58:787,-1.07382,1.75362,-9.52897,-10.4867,-6.06872,93.5221
2023-02-16 05:39:58:797,-1.08124,1.77233,-9.50464,-10.492,-6.06524,93.5092
2023-02-16 05:39:58:807,-1.05381,1.74547,-9.52638,-10.5001,-6.05374,93.4945
2023-02-16 05:39:58:817,-1.03846,1.76088,-9.52531,-10.5122,-6.05002,93.4817
2023-02-16 05:39:58:827,-1.04593,1.77549,-9.52206,-10.5274,-6.04314,93.4639
2023-02-16 05:39:58:836,-1.03074,1.79322,-9.52118,-10.5421,-6.03396,93.4446
2023-02-16 05:39:58:847,-1.00886,1.81889,-9.54247,-10.558,-6.02467,93.4282
2023-02-16 05:39:58:857,-1.00502,1.82474,-9.58369,-10.5737,-6.02145,93.4099
2023-02-16 05:39:58:867,-1.00218,1.8292,-9.61953,-10.5869,-6.01688,93.3924
2023-02-16 05:39:58:877,-0.986385,1.83084,-9.62513,-10.5935,-6.01357,93.3728
2023-02-16 05:39:58:887,-0.959595,1.84651,-9.61138,-10.6003,-6.01001,93.3514
2023-02-16 05:39:58:897,-0.982917,1.83805,-9.57408,-10.6029,-6.009,93.3356
2023-02-16 05:39:58:907,-0.989699,1.83819,-9.56695,-10.6109,-6.00937,93.3216
2023-02-16 05:39:58:917,-0.979851,1.8288,-9.55848,-10.6173,-6.01267,93.3093
2023-02-16 05:39:58:927,-0.983194,1.82374,-9.55851,-10.623,-6.01548,93.2995
2023-02-16 05:39:58:937,-0.994634,1.82128,-9.59619,-10.6277,-6.01927,93.287
2023-02-16 05:39:58:947,-0.993526,1.83877,-9.62689,-10.6333,-6.02087,93.278
2023-02-16 05:39:58:956,-0.998869,1.83428,-9.62552,-10.6376,-6.02099,93.2704
2023-02-16 05:39:58:967,-1.01987,1.83171,-9.58406,-10.6372,-6.01556,93.2647
2023-02-16 05:39:58:976,-1.03834,1.83399,-9.55701,-10.6368,-6.00933,93.2592
2023-02-16 05:39:58:986,-1.02461,1.82107,-9.53843,-10.6346,-6.00333,93.2552
2023-02-16 05:39:58:997,-1.00652,1.81221,-9.54604,-10.6368,-6.00036,93.2518
2023-02-16 05:39:59:7,-0.996131,1.80407,-9.54131,-10.6416,-5.99553,93.2477
2023-02-16 05:39:59:17,-0.993002,1.80076,-9.53378,-10.6452,-5.99289,93.2427
2023-02-16 05:39:59:27,-0.993457,1.81223,-9.56427,-10.6491,-5.99363,93.2406
2023-02-16 05:39:59:36,-0.981193,1.81332,-9.57982,-10.6499,-5.99281,93.2356
2023-02-16 05:39:59:47,-0.988222,1.81337,-9.5614,-10.6479,-5.99365,93.2367
2023-02-16 05:39:59:56,-1.02235,1.80737,-9.53797,-10.6474,-5.99492,93.2401
2023-02-16 05:39:59:67,-1.03446,1.82338,-9.5406,-10.6501,-5.99614,93.2394
2023-02-16 05:39:59:76,-1.01281,1.8417,-9.5673,-10.6533,-5.99387,93.2415
2023-02-16 05:39:59:87,-1.01539,1.84378,-9.56768,-10.6531,-5.99261,93.2437
2023-02-16 05:39:59:97,-1.04317,1.84124,-9.55245,-10.6515,-5.9928,93.2471
2023-02-16 05:39:59:107,-1.06086,1.82689,-9.55211,-10.6515,-5.98847,93.2518
2023-02-16 05:39:59:116,-1.07491,1.8474,-9.54192,-10.655,-5.98663,93.2535
2023-02-16 05:39:59:127,-1.0793,1.8455,-9.52872,-10.6586,-5.97904,93.2563
2023-02-16 05:39:59:136,-1.066,1.83118,-9.53569,-10.6608,-5.97221,93.2569
2023-02-16 05:39:59:147,-1.05935,1.82156,-9.53668,-10.6641,-5.96208,93.2548
2023-02-16 05:39:59:157,-1.05679,1.83041,-9.53107,-10.6694,-5.95587,93.2494
2023-02-16 05:39:59:167,-1.04678,1.83553,-9.53347,-10.6738,-5.94763,93.239
2023-02-16 05:39:59:176,-1.01449,1.82219,-9.54965,-10.6764,-5.93799,93.2267
2023-02-16 05:39:59:187,-0.995676,1.83461,-9.5728,-10.679,-5.92842,93.2129
2023-02-16 05:39:59:197,-0.974958,1.83941,-9.60712,-10.6837,-5.91818,93.2041
2023-02-16 05:39:59:207,-0.93217,1.84418,-9.63551,-10.6837,-5.90622,93.1905
2023-02-16 05:39:59:217,-0.913646,1.82856,-9.62378,-10.684,-5.8975,93.182
2023-02-16 05:39:59:227,-0.944875,1.82834,-9.59358,-10.6887,-5.89696,93.1766
2023-02-16 05:39:59:236,-0.99188,1.84715,-9.58293,-10.6926,-5.90014,93.169
2023-02-16 05:39:59:247,-1.02208,1.85299,-9.58354,-10.7008,-5.90364,93.1645
2023-02-16 05:39:59:257,-1.02257,1.85703,-9.56902,-10.7054,-5.90216,93.159
2023-02-16 05:39:59:267,-1.01063,1.86538,-9.55799,-10.709,-5.90282,93.1534
2023-02-16 05:39:59:276,-1.00191,1.86583,-9.55232,-10.7146,-5.90326,93.147
2023-02-16 05:39:59:287,-0.999222,1.86039,-9.53057,-10.7213,-5.90162,93.1411
2023-02-16 05:39:59:296,-0.989472,1.87446,-9.51549,-10.727,-5.8993,93.1383
2023-02-16 05:39:59:307,-0.985381,1.87266,-9.52981,-10.7265,-5.89822,93.1345
2023-02-16 05:39:59:316,-0.980804,1.87087,-9.56515,-10.7262,-5.89602,93.1334
2023-02-16 05:39:59:327,-0.98464,1.86855,-9.57491,-10.7234,-5.89279,93.1292
2023-02-16 05:39:59:336,-1.00538,1.85863,-9.58179,-10.7178,-5.88959,93.1304
2023-02-16 05:39:59:346,-1.01815,1.84,-9.58424,-10.7105,-5.88358,93.1306
2023-02-16 05:39:59:356,-1.04096,1.84592,-9.57503,-10.7033,-5.87535,93.133
2023-02-16 05:39:59:367,-1.04746,1.81986,-9.58489,-10.6955,-5.86343,93.134
2023-02-16 05:39:59:376,-1.04598,1.81295,-9.58625,-10.6897,-5.85378,93.1356
2023-02-16 05:39:59:386,-1.03684,1.81688,-9.58644,-10.6871,-5.8452,93.1325
2023-02-16 05:39:59:397,-1.0278,1.81183,-9.59836,-10.6819,-5.83527,93.1306
2023-02-16 05:39:59:406,-1.02304,1.83613,-9.58652,-10.6815,-5.82439,93.1261
2023-02-16 05:39:59:416,-1.00473,1.84784,-9.55675,-10.6828,-5.81651,93.1194
2023-02-16 05:39:59:426,-0.984378,1.83132,-9.5374,-10.6819,-5.81046,93.1098
2023-02-16 05:39:59:436,-0.993473,1.83638,-9.54585,-10.6804,-5.80357,93.0981
2023-02-16 05:39:59:447,-0.986369,1.82875,-9.55919,-10.6767,-5.79701,93.087
2023-02-16 05:39:59:456,-0.962817,1.83656,-9.56556,-10.6737,-5.78416,93.0749
2023-02-16 05:39:59:466,-0.915629,1.85131,-9.58958,-10.665,-5.77442,93.0656
2023-02-16 05:39:59:476,-0.929352,1.83601,-9.5974,-10.6593,-5.76451,93.06
2023-02-16 05:39:59:487,-0.963694,1.82743,-9.60552,-10.6482,-5.76074,93.0513
2023-02-16 05:39:59:496,-0.972223,1.82888,-9.60422,-10.638,-5.75636,93.0448
2023-02-16 05:39:59:506,-1.00031,1.82128,-9.56989,-10.6269,-5.75073,93.0377
2023-02-16 05:39:59:516,-1.02064,1.81662,-9.57038,-10.6163,-5.74337,93.0304
2023-02-16 05:39:59:527,-1.00203,1.81422,-9.58063,-10.6101,-5.73807,93.0245
2023-02-16 05:39:59:537,-0.997315,1.82299,-9.58762,-10.6051,-5.72821,93.0165
2023-02-16 05:39:59:546,-1.00095,1.82846,-9.59572,-10.5975,-5.7222,93.0113
2023-02-16 05:39:59:556,-0.993586,1.82955,-9.59922,-10.5935,-5.71463,93.0015
2023-02-16 05:39:59:566,-0.992761,1.83914,-9.59935,-10.587,-5.70855,92.99
2023-02-16 05:39:59:576,-1.00068,1.84692,-9.60883,-10.5773,-5.70075,92.9765
2023-02-16 05:39:59:586,-0.980396,1.84024,-9.62305,-10.561,-5.69624,92.9602
2023-02-16 05:39:59:596,-0.95526,1.8499,-9.60972,-10.5443,-5.68559,92.9439
2023-02-16 05:39:59:606,-0.942009,1.82456,-9.60066,-10.5212,-5.67815,92.9275
2023-02-16 05:39:59:616,-0.947554,1.81045,-9.57959,-10.4969,-5.67585,92.9158
2023-02-16 05:39:59:626,-0.941494,1.78903,-9.57216,-10.4708,-5.67531,92.9044
2023-02-16 05:39:59:636,-0.939294,1.76736,-9.56436,-10.4492,-5.67091,92.8945
2023-02-16 05:39:59:646,-0.940604,1.76332,-9.55751,-10.4263,-5.66633,92.8908
2023-02-16 05:39:59:656,-0.962798,1.74758,-9.57051,-10.4066,-5.65823,92.8861
2023-02-16 05:39:59:666,-0.971256,1.74513,-9.59614,-10.3864,-5.65195,92.8819
2023-02-16 05:39:59:677,-0.965112,1.74444,-9.60342,-10.368,-5.64147,92.8777
2023-02-16 05:39:59:687,-0.968682,1.74313,-9.57595,-10.3495,-5.62799,92.8765
2023-02-16 05:39:59:696,-0.985016,1.73529,-9.57225,-10.3361,-5.61345,92.8744
2023-02-16 05:39:59:706,-0.968394,1.73874,-9.57244,-10.3188,-5.59664,92.8731
2023-02-16 05:39:59:716,-0.947117,1.7459,-9.55037,-10.3012,-5.57786,92.8747
2023-02-16 05:39:59:727,-0.940195,1.73801,-9.53345,-10.2837,-5.56054,92.8745
2023-02-16 05:39:59:736,-0.937079,1.72525,-9.51516,-10.2699,-5.5394,92.8786
2023-02-16 05:39:59:746,-0.941905,1.71235,-9.51472,-10.2561,-5.51843,92.8861
2023-02-16 05:39:59:756,-0.93931,1.70768,-9.52722,-10.2416,-5.49648,92.8912
2023-02-16 05:39:59:766,-0.949232,1.70828,-9.5418,-10.2322,-5.47324,92.8968
2023-02-16 05:39:59:776,-0.983426,1.72028,-9.55457,-10.2253,-5.44944,92.9
2023-02-16 05:39:59:786,-0.986935,1.72151,-9.56039,-10.2127,-5.42322,92.9009
2023-02-16 05:39:59:797,-1.01115,1.72463,-9.56981,-10.2087,-5.39636,92.9002
2023-02-16 05:39:59:807,-1.04065,1.75836,-9.58258,-10.1996,-5.36359,92.899
2023-02-16 05:39:59:817,-1.04467,1.77019,-9.61684,-10.1953,-5.33228,92.8953
2023-02-16 05:39:59:827,-1.03135,1.78839,-9.62787,-10.188,-5.29946,92.884
2023-02-16 05:39:59:836,-1.02194,1.79897,-9.63921,-10.1758,-5.26667,92.871
2023-02-16 05:39:59:847,-1.01517,1.79238,-9.60971,-10.1626,-5.23124,92.8549
2023-02-16 05:39:59:857,-0.989148,1.7797,-9.59287,-10.1476,-5.19067,92.8315
2023-02-16 05:39:59:867,-0.959129,1.76385,-9.58199,-10.1308,-5.15,92.8044
2023-02-16 05:39:59:877,-0.92376,1.75319,-9.57224,-10.1127,-5.1046,92.7739
2023-02-16 05:39:59:887,-0.895807,1.73558,-9.5593,-10.1002,-5.0658,92.7451
2023-02-16 05:39:59:897,-0.870157,1.71413,-9.57828,-10.0875,-5.02536,92.7114
2023-02-16 05:39:59:907,-0.825682,1.70643,-9.59673,-10.0733,-4.98457,92.6749
2023-02-16 05:39:59:916,-0.805781,1.70882,-9.61068,-10.0642,-4.95169,92.6388
2023-02-16 05:39:59:927,-0.786762,1.70361,-9.62174,-10.0476,-4.91935,92.6018
2023-02-16 05:39:59:937,-0.763928,1.70201,-9.60167,-10.0303,-4.88608,92.5656
2023-02-16 05:39:59:947,-0.772644,1.69626,-9.57794,-10.0134,-4.85209,92.5263
2023-02-16 05:39:59:956,-0.778443,1.68843,-9.56307,-9.99953,-4.82126,92.4929
2023-02-16 05:39:59:967,-0.767017,1.67093,-9.57771,-9.98367,-4.79137,92.4593
2023-02-16 05:39:59:977,-0.743218,1.67826,-9.59447,-9.97032,-4.76342,92.4237
2023-02-16 05:39:59:987,-0.703269,1.66907,-9.59387,-9.96027,-4.73659,92.3894
2023-02-16 05:39:59:996,-0.691868,1.67236,-9.59417,-9.95587,-4.71093,92.3589
2023-02-16 05:40:00:7,-0.697129,1.66909,-9.60099,-9.94995,-4.68759,92.3305
2023-02-16 05:40:00:17,-0.696893,1.67643,-9.59592,-9.94613,-4.67177,92.3036
2023-02-16 05:40:00:27,-0.708942,1.68701,-9.60681,-9.93986,-4.65747,92.2763
2023-02-16 05:40:00:37,-0.716777,1.67913,-9.63955,-9.93355,-4.647,92.2465
2023-02-16 05:40:00:47,-0.682651,1.6865,-9.64132,-9.92622,-4.63785,92.2179
2023-02-16 05:40:00:56,-0.68053,1.69629,-9.6612,-9.92028,-4.62924,92.19
2023-02-16 05:40:00:66,-0.669819,1.69017,-9.67612,-9.91152,-4.62343,92.1632
2023-02-16 05:40:00:77,-0.634699,1.67533,-9.65897,-9.90934,-4.62202,92.137
2023-02-16 05:40:00:87,-0.662015,1.68446,-9.64762,-9.90325,-4.63091,92.115
2023-02-16 05:40:00:96,-0.705071,1.68491,-9.62947,-9.89374,-4.64532,92.0989
2023-02-16 05:40:00:107,-0.705294,1.67768,-9.62107,-9.89094,-4.65851,92.0857
2023-02-16 05:40:00:116,-0.725732,1.6863,-9.59372,-9.88882,-4.67023,92.0778
2023-02-16 05:40:00:127,-0.747364,1.69703,-9.57325,-9.88817,-4.67971,92.0721
2023-02-16 05:40:00:137,-0.74203,1.69085,-9.57474,-9.88534,-4.69107,92.0684
2023-02-16 05:40:00:147,-0.730663,1.67846,-9.58137,-9.88259,-4.70487,92.0657
2023-02-16 05:40:00:156,-0.744456,1.68859,-9.545,-9.88334,-4.7171,92.0681
2023-02-16 05:40:00:167,-0.782466,1.68417,-9.54466,-9.88792,-4.72972,92.0718
2023-02-16 05:40:00:177,-0.806913,1.68954,-9.57325,-9.89006,-4.74204,92.0774
2023-02-16 05:40:00:186,-0.825312,1.70721,-9.59944,-9.89223,-4.75567,92.0848
2023-02-16 05:40:00:196,-0.841133,1.71376,-9.62293,-9.89458,-4.76626,92.0935
2023-02-16 05:40:00:207,-0.860389,1.7129,-9.62889,-9.89308,-4.7782,92.1046
2023-02-16 05:40:00:217,-0.861585,1.70292,-9.61405,-9.8928,-4.78855,92.1135
2023-02-16 05:40:00:227,-0.872908,1.68535,-9.60378,-9.89087,-4.79982,92.1228
2023-02-16 05:40:00:236,-0.889783,1.69262,-9.59553,-9.88968,-4.80802,92.1299
2023-02-16 05:40:00:246,-0.904217,1.69766,-9.58534,-9.88989,-4.81102,92.1337
2023-02-16 05:40:00:256,-0.90249,1.68679,-9.61241,-9.89206,-4.81416,92.1341
2023-02-16 05:40:00:266,-0.893316,1.69601,-9.60273,-9.89514,-4.8176,92.135
2023-02-16 05:40:00:277,-0.899842,1.71288,-9.56842,-9.89934,-4.82394,92.1343
2023-02-16 05:40:00:286,-0.900985,1.70979,-9.56238,-9.90477,-4.8269,92.1309
2023-02-16 05:40:00:297,-0.916316,1.72393,-9.57934,-9.91085,-4.82861,92.1254
2023-02-16 05:40:00:307,-0.909458,1.72265,-9.58866,-9.91457,-4.82339,92.1186
2023-02-16 05:40:00:316,-0.849103,1.74232,-9.59937,-9.91925,-4.8156,92.1096
2023-02-16 05:40:00:327,-0.797707,1.72764,-9.62336,-9.92025,-4.81056,92.0997
2023-02-16 05:40:00:336,-0.795447,1.70611,-9.6292,-9.91811,-4.81029,92.09
2023-02-16 05:40:00:347,-0.799258,1.69091,-9.62454,-9.91561,-4.81496,92.0822
2023-02-16 05:40:00:356,-0.833689,1.68501,-9.60906,-9.91303,-4.81554,92.0745
2023-02-16 05:40:00:367,-0.842969,1.69248,-9.59586,-9.91008,-4.81544,92.0685
2023-02-16 05:40:00:377,-0.842605,1.69582,-9.62039,-9.9057,-4.815,92.0657
2023-02-16 05:40:00:386,-0.836119,1.71144,-9.64301,-9.90038,-4.81172,92.0633
2023-02-16 05:40:00:397,-0.83915,1.72744,-9.62618,-9.89895,-4.80415,92.0595
2023-02-16 05:40:00:407,-0.830849,1.72173,-9.62884,-9.89802,-4.7993,92.0549
2023-02-16 05:40:00:417,-0.832917,1.71659,-9.62985,-9.89247,-4.79326,92.046
2023-02-16 05:40:00:427,-0.837141,1.70703,-9.63307,-9.88667,-4.79038,92.0383
2023-02-16 05:40:00:436,-0.823016,1.70475,-9.62778,-9.88334,-4.78798,92.0293
2023-02-16 05:40:00:447,-0.812261,1.69175,-9.60916,-9.8739,-4.78616,92.022
2023-02-16 05:40:00:457,-0.807113,1.68151,-9.59577,-9.86656,-4.78632,92.0131
2023-02-16 05:40:00:467,-0.79077,1.6705,-9.5807,-9.85788,-4.78657,92.0031
2023-02-16 05:40:00:476,-0.773222,1.65672,-9.57985,-9.85041,-4.78915,91.9976
2023-02-16 05:40:00:487,-0.767123,1.64194,-9.58324,-9.84325,-4.78863,91.9897
2023-02-16 05:40:00:497,-0.801969,1.63779,-9.57929,-9.83966,-4.79152,91.9864
2023-02-16 05:40:00:507,-0.817636,1.64425,-9.59344,-9.83397,-4.7935,91.9841
2023-02-16 05:40:00:517,-0.82532,1.6451,-9.58655,-9.83477,-4.79743,91.986
2023-02-16 05:40:00:527,-0.849847,1.65526,-9.57823,-9.83609,-4.8022,91.9875
2023-02-16 05:40:00:537,-0.845395,1.66093,-9.59104,-9.83868,-4.80522,91.9886
2023-02-16 05:40:00:547,-0.868401,1.67325,-9.60352,-9.84123,-4.80367,91.9887
2023-02-16 05:40:00:556,-0.858373,1.67896,-9.62322,-9.84294,-4.80374,91.9894
2023-02-16 05:40:00:566,-0.844345,1.68683,-9.59037,-9.84806,-4.80345,91.9939
2023-02-16 05:40:00:576,-0.861427,1.68454,-9.56453,-9.85148,-4.79891,91.9966
2023-02-16 05:40:00:586,-0.865416,1.6786,-9.56462,-9.8544,-4.79724,91.9944
2023-02-16 05:40:00:597,-0.849104,1.69868,-9.57118,-9.8636,-4.79533,91.9914
2023-02-16 05:40:00:607,-0.849702,1.70009,-9.57443,-9.86874,-4.79097,91.9926
2023-02-16 05:40:00:616,-0.847203,1.7088,-9.57831,-9.87757,-4.78457,91.9949
2023-02-16 05:40:00:627,-0.83433,1.69017,-9.5932,-9.88527,-4.78356,91.9941
2023-02-16 05:40:00:636,-0.836132,1.70232,-9.60882,-9.8881,-4.77947,91.9898
2023-02-16 05:40:00:646,-0.824477,1.72474,-9.61336,-9.89599,-4.77383,91.9896
2023-02-16 05:40:00:657,-0.807091,1.73863,-9.62131,-9.90541,-4.76805,91.9893
2023-02-16 05:40:00:667,-0.79265,1.73118,-9.63263,-9.90977,-4.76638,91.9876
2023-02-16 05:40:00:677,-0.816113,1.72973,-9.64212,-9.91334,-4.76334,91.9889
2023-02-16 05:40:00:687,-0.818252,1.73144,-9.65858,-9.91418,-4.75775,91.9888
2023-02-16 05:40:00:697,-0.829022,1.73421,-9.63259,-9.91537,-4.75281,91.9879
2023-02-16 05:40:00:707,-0.813061,1.72555,-9.60212,-9.91644,-4.74764,91.9889
2023-02-16 05:40:00:716,-0.805393,1.72405,-9.60016,-9.91718,-4.74461,91.9883
2023-02-16 05:40:00:727,-0.789796,1.72041,-9.61508,-9.91597,-4.73901,91.989
2023-02-16 05:40:00:737,-0.778636,1.71829,-9.61932,-9.91445,-4.73677,91.9861
2023-02-16 05:40:00:747,-0.764242,1.70709,-9.61827,-9.91119,-4.7366,91.9845
2023-02-16 05:40:00:756,-0.768224,1.69527,-9.61225,-9.91016,-4.73639,91.9835
2023-02-16 05:40:00:767,-0.742906,1.69019,-9.60729,-9.90623,-4.73641,91.9808
2023-02-16 05:40:00:777,-0.70489,1.68259,-9.61845,-9.90662,-4.73746,91.9827
2023-02-16 05:40:00:787,-0.699892,1.6784,-9.62035,-9.90374,-4.74097,91.9849
2023-02-16 05:40:00:796,-0.714121,1.68002,-9.6069,-9.89996,-4.74872,91.9893
2023-02-16 05:40:00:807,-0.733238,1.67238,-9.58807,-9.89609,-4.75459,91.9965
2023-02-16 05:40:00:817,-0.749555,1.67667,-9.58209,-9.89682,-4.76081,92.0071
2023-02-16 05:40:00:827,-0.749237,1.67973,-9.58113,-9.89602,-4.76747,92.0189
2023-02-16 05:40:00:836,-0.763392,1.6752,-9.58485,-9.89702,-4.7734,92.0335
2023-02-16 05:40:00:847,-0.776425,1.68052,-9.59156,-9.89971,-4.78271,92.0475
2023-02-16 05:40:00:857,-0.813789,1.68376,-9.59427,-9.90556,-4.79585,92.0636
2023-02-16 05:40:00:866,-0.830022,1.69618,-9.60471,-9.91279,-4.80737,92.0785
2023-02-16 05:40:00:877,-0.82981,1.70898,-9.6189,-9.91418,-4.8197,92.0928
2023-02-16 05:40:00:887,-0.826328,1.69714,-9.61555,-9.91728,-4.82867,92.1072
2023-02-16 05:40:00:897,-0.834142,1.68712,-9.61517,-9.91997,-4.83638,92.1173
2023-02-16 05:40:00:907,-0.833835,1.6868,-9.58377,-9.92186,-4.84403,92.1317
2023-02-16 05:40:00:916,-0.830574,1.67216,-9.5899,-9.92304,-4.85404,92.1437
2023-02-16 05:40:00:927,-0.83927,1.67163,-9.58079,-9.92874,-4.8601,92.1518
2023-02-16 05:40:00:937,-0.829041,1.6893,-9.59757,-9.93576,-4.87137,92.1599
2023-02-16 05:40:00:947,-0.810915,1.69837,-9.63985,-9.9417,-4.88164,92.1662
2023-02-16 05:40:00:957,-0.788821,1.70399,-9.66056,-9.94556,-4.89054,92.1726
2023-02-16 05:40:00:966,-0.760754,1.6798,-9.65952,-9.94717,-4.90303,92.1795
2023-02-16 05:40:00:976,-0.775398,1.66553,-9.61726,-9.94596,-4.92087,92.1863
2023-02-16 05:40:00:986,-0.807709,1.67337,-9.59659,-9.9498,-4.94209,92.198
2023-02-16 05:40:00:996,-0.811538,1.67389,-9.58113,-9.95825,-4.96468,92.2118
2023-02-16 05:40:01:7,-0.836427,1.6799,-9.5486,-9.96829,-4.98452,92.2298
2023-02-16 05:40:01:16,-0.856534,1.68135,-9.53622,-9.98013,-5.00276,92.2475
2023-02-16 05:40:01:27,-0.868236,1.68808,-9.53638,-9.99417,-5.01948,92.2613
2023-02-16 05:40:01:36,-0.871686,1.7298,-9.5536,-10.0124,-5.03429,92.2781
2023-02-16 05:40:01:46,-0.872204,1.74467,-9.56787,-10.0286,-5.04972,92.2943
2023-02-16 05:40:01:57,-0.883283,1.75163,-9.57031,-10.0435,-5.06441,92.3084
2023-02-16 05:40:01:67,-0.912416,1.74893,-9.5648,-10.061,-5.07824,92.3246
2023-02-16 05:40:01:77,-0.926148,1.74604,-9.56342,-10.0744,-5.09439,92.3402
2023-02-16 05:40:01:87,-0.955056,1.76139,-9.57747,-10.0877,-5.10572,92.355
2023-02-16 05:40:01:97,-0.954886,1.77472,-9.57641,-10.1029,-5.1153,92.3652
2023-02-16 05:40:01:107,-0.949408,1.77859,-9.6152,-10.1193,-5.12272,92.3787
2023-02-16 05:40:01:116,-0.96552,1.80243,-9.61994,-10.1324,-5.12746,92.3897
2023-02-16 05:40:01:127,-0.951111,1.79801,-9.60091,-10.1469,-5.12799,92.3972
2023-02-16 05:40:01:137,-0.942148,1.79742,-9.5963,-10.1601,-5.13261,92.4023
2023-02-16 05:40:01:147,-0.943516,1.78209,-9.59799,-10.1729,-5.13239,92.4044
2023-02-16 05:40:01:156,-0.923894,1.79113,-9.59167,-10.1874,-5.13164,92.4052
2023-02-16 05:40:01:167,-0.913261,1.80123,-9.60213,-10.2003,-5.1328,92.4037
2023-02-16 05:40:01:177,-0.903564,1.79467,-9.59003,-10.2114,-5.13226,92.3985
2023-02-16 05:40:01:186,-0.914885,1.79389,-9.56645,-10.2236,-5.13087,92.3967
2023-02-16 05:40:01:197,-0.91833,1.80139,-9.59153,-10.2303,-5.13099,92.39
2023-02-16 05:40:01:207,-0.90348,1.80636,-9.62385,-10.2395,-5.12457,92.3799
2023-02-16 05:40:01:217,-0.877036,1.82385,-9.6441,-10.2425,-5.11991,92.3736
2023-02-16 05:40:01:227,-0.851108,1.82251,-9.66336,-10.2407,-5.11663,92.3646
2023-02-16 05:40:01:236,-0.860817,1.81172,-9.65849,-10.2339,-5.11608,92.3566
2023-02-16 05:40:01:246,-0.872707,1.79867,-9.62406,-10.2244,-5.11735,92.3523
2023-02-16 05:40:01:257,-0.911913,1.7771,-9.59189,-10.2134,-5.11556,92.346
2023-02-16 05:40:01:267,-0.919426,1.76403,-9.58638,-10.2016,-5.11028,92.3463
2023-02-16 05:40:01:277,-0.923971,1.77424,-9.59347,-10.1905,-5.10027,92.3444
2023-02-16 05:40:01:287,-0.942612,1.7936,-9.60757,-10.1796,-5.0843,92.3364
2023-02-16 05:40:01:297,-0.932962,1.79536,-9.63966,-10.169,-5.06477,92.3325
2023-02-16 05:40:01:307,-0.922498,1.80321,-9.63137,-10.154,-5.04255,92.327
2023-02-16 05:40:01:316,-0.920496,1.78973,-9.61144,-10.1404,-5.02201,92.323
2023-02-16 05:40:01:327,-0.896009,1.78389,-9.60096,-10.1248,-4.99881,92.3145
2023-02-16 05:40:01:337,-0.855048,1.76651,-9.6017,-10.1078,-4.97757,92.306
2023-02-16 05:40:01:347,-0.826389,1.73889,-9.59861,-10.0917,-4.95774,92.293
2023-02-16 05:40:01:357,-0.814693,1.71561,-9.58125,-10.0768,-4.94269,92.2825
2023-02-16 05:40:01:367,-0.797367,1.69122,-9.56435,-10.0631,-4.92785,92.272
2023-02-16 05:40:01:377,-0.770032,1.66299,-9.56749,-10.0446,-4.91495,92.2599
2023-02-16 05:40:01:386,-0.762511,1.65851,-9.57655,-10.0313,-4.90355,92.2501
2023-02-16 05:40:01:396,-0.759204,1.64819,-9.5944,-10.0172,-4.89469,92.2397
2023-02-16 05:40:01:407,-0.756481,1.64899,-9.59646,-10.0062,-4.89111,92.2333
2023-02-16 05:40:01:417,-0.758986,1.6531,-9.58233,-9.99793,-4.88987,92.2309
2023-02-16 05:40:01:427,-0.780652,1.64354,-9.57353,-9.99167,-4.88478,92.2313
2023-02-16 05:40:01:436,-0.795316,1.64473,-9.56446,-9.99006,-4.88379,92.2345
2023-02-16 05:40:01:447,-0.809068,1.6515,-9.55883,-9.99346,-4.88007,92.2368
2023-02-16 05:40:01:457,-0.818445,1.66088,-9.54685,-9.99749,-4.87888,92.2402
2023-02-16 05:40:01:466,-0.825767,1.66427,-9.54387,-10.0041,-4.87621,92.2448
2023-02-16 05:40:01:477,-0.827657,1.67729,-9.56039,-10.0131,-4.87432,92.2483
2023-02-16 05:40:01:487,-0.822501,1.69439,-9.57798,-10.0252,-4.86881,92.2513
2023-02-16 05:40:01:497,-0.821511,1.68941,-9.60012,-10.0337,-4.86359,92.2539
2023-02-16 05:40:01:507,-0.826472,1.69918,-9.62179,-10.0449,-4.8622,92.256
2023-02-16 05:40:01:516,-0.828872,1.72179,-9.61116,-10.0538,-4.86532,92.2607
2023-02-16 05:40:01:527,-0.829174,1.71673,-9.60261,-10.0625,-4.86686,92.26
2023-02-16 05:40:01:536,-0.829136,1.71588,-9.59814,-10.0717,-4.86659,92.2582
2023-02-16 05:40:01:546,-0.81692,1.71773,-9.5978,-10.0813,-4.86781,92.2609
2023-02-16 05:40:01:556,-0.818496,1.73382,-9.59072,-10.0932,-4.86957,92.2647
2023-02-16 05:40:01:566,-0.809055,1.72417,-9.60457,-10.0997,-4.86877,92.2663
2023-02-16 05:40:01:577,-0.825026,1.73928,-9.62054,-10.1104,-4.8704,92.267
2023-02-16 05:40:01:586,-0.831047,1.75429,-9.62818,-10.1199,-4.86983,92.269
2023-02-16 05:40:01:597,-0.822459,1.74508,-9.62806,-10.1259,-4.86853,92.2691
2023-02-16 05:40:01:606,-0.829261,1.74156,-9.61523,-10.1317,-4.86923,92.2662
2023-02-16 05:40:01:616,-0.826593,1.75062,-9.60492,-10.1372,-4.86989,92.2687
2023-02-16 05:40:01:627,-0.815137,1.753,-9.59839,-10.1445,-4.87327,92.2667
2023-02-16 05:40:01:636,-0.802355,1.74865,-9.61344,-10.1486,-4.87885,92.2664
2023-02-16 05:40:01:647,-0.784004,1.75334,-9.61844,-10.1505,-4.88463,92.2655
2023-02-16 05:40:01:656,-0.775862,1.75087,-9.61811,-10.1498,-4.89021,92.268
2023-02-16 05:40:01:666,-0.792441,1.7381,-9.62007,-10.1512,-4.89353,92.2693
2023-02-16 05:40:01:677,-0.806974,1.74223,-9.61255,-10.151,-4.89375,92.2771
2023-02-16 05:40:01:687,-0.816685,1.74184,-9.61074,-10.1514,-4.89933,92.2842
2023-02-16 05:40:01:696,-0.830214,1.73424,-9.60877,-10.1483,-4.90227,92.2942
2023-02-16 05:40:01:706,-0.835746,1.74612,-9.59604,-10.1475,-4.90192,92.3023
2023-02-16 05:40:01:716,-0.851669,1.74862,-9.59312,-10.1439,-4.90525,92.3128
2023-02-16 05:40:01:727,-0.866165,1.74425,-9.57762,-10.1436,-4.91,92.3189
2023-02-16 05:40:01:736,-0.863993,1.73109,-9.5895,-10.1418,-4.91167,92.3239
2023-02-16 05:40:01:746,-0.851351,1.73143,-9.60805,-10.1408,-4.91414,92.3294
2023-02-16 05:40:01:756,-0.832897,1.72986,-9.59404,-10.1388,-4.91631,92.331
2023-02-16 05:40:01:766,-0.837245,1.73325,-9.56974,-10.138,-4.91721,92.334
2023-02-16 05:40:01:776,-0.849795,1.72927,-9.58534,-10.1381,-4.91734,92.3379
2023-02-16 05:40:01:786,-0.846022,1.73306,-9.61518,-10.1337,-4.9177,92.3395
2023-02-16 05:40:01:796,-0.844632,1.72212,-9.59948,-10.1306,-4.91492,92.3405
2023-02-16 05:40:01:806,-0.853179,1.73048,-9.58433,-10.1283,-4.91214,92.3394
2023-02-16 05:40:01:816,-0.835242,1.72106,-9.58196,-10.1214,-4.91137,92.3435
2023-02-16 05:40:01:826,-0.83027,1.70386,-9.57665,-10.1202,-4.91221,92.3441
2023-02-16 05:40:01:837,-0.822607,1.70801,-9.55897,-10.1207,-4.91206,92.3442
2023-02-16 05:40:01:847,-0.805798,1.70673,-9.55947,-10.1211,-4.91268,92.348
2023-02-16 05:40:01:856,-0.803787,1.72084,-9.5805,-10.1227,-4.91393,92.3475
2023-02-16 05:40:01:866,-0.809589,1.72847,-9.61968,-10.126,-4.9137,92.3467
2023-02-16 05:40:01:877,-0.78925,1.74676,-9.67111,-10.1305,-4.91018,92.3469
2023-02-16 05:40:01:887,-0.754459,1.75723,-9.6772,-10.1317,-4.91251,92.3469
2023-02-16 05:40:01:896,-0.787054,1.74881,-9.65523,-10.1282,-4.92211,92.3491
2023-02-16 05:40:01:906,-0.830325,1.7442,-9.6154,-10.1269,-4.93595,92.3546
2023-02-16 05:40:01:916,-0.845048,1.75421,-9.58519,-10.1292,-4.94864,92.3583
2023-02-16 05:40:01:927,-0.861935,1.75929,-9.57011,-10.1299,-4.95938,92.3628
2023-02-16 05:40:01:936,-0.881546,1.74898,-9.5657,-10.1298,-4.96658,92.3662
2023-02-16 05:40:01:946,-0.866645,1.76227,-9.57373,-10.1352,-4.97146,92.3688
2023-02-16 05:40:01:957,-0.856299,1.77241,-9.58993,-10.1388,-4.97803,92.3724
2023-02-16 05:40:01:967,-0.859318,1.7876,-9.59411,-10.1393,-4.98464,92.3776
2023-02-16 05:40:01:976,-0.854151,1.79158,-9.59946,-10.1368,-4.99088,92.3809
2023-02-16 05:40:01:987,-0.868678,1.78169,-9.58116,-10.1325,-4.99606,92.3844
2023-02-16 05:40:01:997,-0.874346,1.78359,-9.56333,-10.1273,-5.00134,92.3897
2023-02-16 05:40:02:6,-0.878406,1.77508,-9.57542,-10.1255,-5.00495,92.3905
2023-02-16 05:40:02:16,-0.873159,1.76435,-9.61576,-10.1225,-5.00426,92.3937
2023-02-16 05:40:02:26,-0.881516,1.77281,-9.63,-10.1153,-5.00527,92.3934
2023-02-16 05:40:02:36,-0.885998,1.77904,-9.63185,-10.1049,-4.99519,92.3946
2023-02-16 05:40:02:47,-0.881263,1.77654,-9.62458,-10.0913,-4.98172,92.3927
2023-02-16 05:40:02:56,-0.874632,1.76077,-9.6219,-10.0716,-4.96341,92.3931
2023-02-16 05:40:02:66,-0.858137,1.75119,-9.60798,-10.0546,-4.94196,92.3898
2023-02-16 05:40:02:76,-0.859627,1.74233,-9.63235,-10.0304,-4.91714,92.3847
2023-02-16 05:40:02:86,-0.881429,1.77473,-9.68212,-10.004,-4.8869,92.3769
2023-02-16 05:40:02:96,-0.922234,1.8409,-9.72787,-9.9702,-4.84871,92.3625
2023-02-16 05:40:02:106,-0.918812,1.81554,-9.71074,-9.92533,-4.80061,92.3464
2023-02-16 05:40:02:116,-0.909977,1.77401,-9.65949,-9.87103,-4.74891,92.3217
2023-02-16 05:40:02:127,-0.868317,1.76452,-9.63537,-9.81662,-4.68237,92.2927
2023-02-16 05:40:02:137,-0.779642,1.73058,-9.58158,-9.7633,-4.61406,92.2635
2023-02-16 05:40:02:147,-0.72454,1.6786,-9.53678,-9.71289,-4.55872,92.2297
2023-02-16 05:40:02:157,-0.707405,1.65423,-9.57936,-9.66796,-4.5139,92.2019
2023-02-16 05:40:02:166,-0.697779,1.66357,-9.57488,-9.63211,-4.48156,92.1797
2023-02-16 05:40:02:176,-0.682862,1.64128,-9.53378,-9.60039,-4.45229,92.1542
2023-02-16 05:40:02:186,-0.665726,1.61782,-9.52021,-9.57277,-4.43288,92.134
2023-02-16 05:40:02:196,-0.662541,1.62109,-9.54314,-9.55755,-4.42641,92.12
2023-02-16 05:40:02:206,-0.654428,1.64367,-9.56922,-9.54397,-4.42453,92.107
2023-02-16 05:40:02:216,-0.678908,1.66846,-9.58581,-9.53504,-4.4299,92.0972
2023-02-16 05:40:02:227,-0.709587,1.69541,-9.65543,-9.52905,-4.43784,92.0905
2023-02-16 05:40:02:236,-0.736991,1.72548,-9.7039,-9.52027,-4.4466,92.0873
2023-02-16 05:40:02:246,-0.740315,1.73876,-9.71789,-9.50243,-4.45348,92.0865
2023-02-16 05:40:02:256,-0.749842,1.74025,-9.72145,-9.47798,-4.46214,92.0843
2023-02-16 05:40:02:266,-0.752008,1.68914,-9.65414,-9.44946,-4.47285,92.0854
2023-02-16 05:40:02:277,-0.769957,1.67581,-9.63513,-9.42245,-4.48194,92.0845
2023-02-16 05:40:02:287,-0.733353,1.64935,-9.6336,-9.38962,-4.49155,92.078
2023-02-16 05:40:02:297,-0.701694,1.59498,-9.58612,-9.36052,-4.50176,92.073
2023-02-16 05:40:02:307,-0.716478,1.56845,-9.55151,-9.3345,-4.51684,92.073
2023-02-16 05:40:02:317,-0.749364,1.55747,-9.58162,-9.31334,-4.54018,92.0758
2023-02-16 05:40:02:327,-0.79327,1.56398,-9.6075,-9.29345,-4.56827,92.0798
2023-02-16 05:40:02:337,-0.791026,1.55905,-9.60254,-9.27704,-4.59616,92.0835
2023-02-16 05:40:02:347,-0.787442,1.54168,-9.59901,-9.26097,-4.62364,92.0926
2023-02-16 05:40:02:357,-0.810281,1.53281,-9.56301,-9.24565,-4.65337,92.1002
2023-02-16 05:40:02:367,-0.837528,1.54397,-9.57016,-9.23673,-4.67678,92.1083
2023-02-16 05:40:02:377,-0.853531,1.54784,-9.57692,-9.22675,-4.69428,92.1178
2023-02-16 05:40:02:387,-0.856257,1.5309,-9.56852,-9.21869,-4.70482,92.1264
2023-02-16 05:40:02:397,-0.836554,1.51429,-9.56143,-9.21363,-4.71415,92.1343
2023-02-16 05:40:02:407,-0.841632,1.54702,-9.58986,-9.21039,-4.71704,92.1402
2023-02-16 05:40:02:416,-0.832153,1.57942,-9.65131,-9.20547,-4.7107,92.1478
2023-02-16 05:40:02:427,-0.795298,1.52679,-9.60582,-9.19971,-4.70958,92.1506
2023-02-16 05:40:02:436,-0.791119,1.53091,-9.60313,-9.19483,-4.71022,92.1584
2023-02-16 05:40:02:447,-0.803556,1.55957,-9.618,-9.19297,-4.71628,92.1659
2023-02-16 05:40:02:457,-0.830397,1.56458,-9.61085,-9.19394,-4.724,92.1739
2023-02-16 05:40:02:467,-0.825775,1.54373,-9.59082,-9.19259,-4.73491,92.1792
2023-02-16 05:40:02:477,-0.837421,1.55833,-9.6204,-9.19383,-4.74777,92.1819
2023-02-16 05:40:02:487,-0.85894,1.57052,-9.67063,-9.19392,-4.75857,92.1843
2023-02-16 05:40:02:496,-0.839623,1.564,-9.66398,-9.19233,-4.7687,92.1839
2023-02-16 05:40:02:507,-0.815223,1.57744,-9.65919,-9.19314,-4.7765,92.1888
2023-02-16 05:40:02:517,-0.817987,1.59161,-9.65129,-9.19011,-4.77821,92.1931
2023-02-16 05:40:02:527,-0.83545,1.57588,-9.62205,-9.18489,-4.77663,92.1954
2023-02-16 05:40:02:536,-0.846632,1.60378,-9.63091,-9.18457,-4.77305,92.2024
2023-02-16 05:40:02:546,-0.848919,1.60608,-9.62336,-9.18237,-4.77248,92.2043
2023-02-16 05:40:02:557,-0.830938,1.61541,-9.63114,-9.18216,-4.76698,92.2088
2023-02-16 05:40:02:567,-0.825738,1.60296,-9.64461,-9.17496,-4.76903,92.208
2023-02-16 05:40:02:577,-0.829514,1.60812,-9.65132,-9.17103,-4.76798,92.2073
2023-02-16 05:40:02:587,-0.806954,1.59768,-9.65435,-9.16261,-4.76608,92.2019
2023-02-16 05:40:02:596,-0.767751,1.57652,-9.64621,-9.15259,-4.7629,92.1989
2023-02-16 05:40:02:607,-0.789153,1.57368,-9.62771,-9.14295,-4.76311,92.1971
2023-02-16 05:40:02:616,-0.804737,1.56282,-9.61175,-9.13327,-4.76252,92.1975
2023-02-16 05:40:02:627,-0.78264,1.55093,-9.63667,-9.12358,-4.75966,92.1956
2023-02-16 05:40:02:637,-0.770756,1.54044,-9.63674,-9.11542,-4.75975,92.1958
2023-02-16 05:40:02:646,-0.779234,1.53411,-9.63508,-9.1068,-4.76143,92.1979
2023-02-16 05:40:02:657,-0.781904,1.53983,-9.62162,-9.10019,-4.76017,92.1997
2023-02-16 05:40:02:667,-0.79737,1.54965,-9.59512,-9.09356,-4.76428,92.2055
2023-02-16 05:40:02:677,-0.801461,1.55023,-9.58186,-9.08781,-4.7637,92.2092
2023-02-16 05:40:02:687,-0.811181,1.53661,-9.56935,-9.08549,-4.76415,92.2137
2023-02-16 05:40:02:697,-0.816952,1.53889,-9.56525,-9.08604,-4.76355,92.2173
2023-02-16 05:40:02:707,-0.820395,1.54598,-9.60071,-9.08889,-4.76562,92.2235
2023-02-16 05:40:02:716,-0.81651,1.57721,-9.62663,-9.09251,-4.76678,92.2303
2023-02-16 05:40:02:726,-0.81961,1.55699,-9.63859,-9.09594,-4.76773,92.2346
2023-02-16 05:40:02:736,-0.823163,1.54722,-9.63786,-9.1001,-4.77014,92.2372
2023-02-16 05:40:02:746,-0.815057,1.55084,-9.62578,-9.1047,-4.77276,92.2402
2023-02-16 05:40:02:756,-0.828032,1.5693,-9.61341,-9.10685,-4.77568,92.2439
2023-02-16 05:40:02:767,-0.834609,1.55334,-9.6023,-9.10754,-4.78392,92.2461
2023-02-16 05:40:02:777,-0.82712,1.54707,-9.59529,-9.11286,-4.78157,92.2449
2023-02-16 05:40:02:787,-0.804506,1.54756,-9.62661,-9.11382,-4.78053,92.2409
2023-02-16 05:40:02:796,-0.788559,1.57152,-9.66926,-9.11556,-4.77732,92.2362
2023-02-16 05:40:02:806,-0.758151,1.58235,-9.70218,-9.11927,-4.77725,92.2319
2023-02-16 05:40:02:817,-0.73519,1.55094,-9.67986,-9.11812,-4.78339,92.2295
2023-02-16 05:40:02:827,-0.754275,1.5385,-9.63894,-9.1237,-4.79273,92.2316
2023-02-16 05:40:02:836,-0.777405,1.54079,-9.61136,-9.12774,-4.80519,92.2313
2023-02-16 05:40:02:846,-0.792855,1.53394,-9.57383,-9.13962,-4.81533,92.2362
2023-02-16 05:40:02:857,-0.781779,1.54353,-9.54738,-9.15099,-4.82642,92.2429
2023-02-16 05:40:02:867,-0.771939,1.55493,-9.56596,-9.16791,-4.83759,92.2465
2023-02-16 05:40:02:877,-0.775262,1.56152,-9.56368,-9.18598,-4.84874,92.2531
2023-02-16 05:40:02:887,-0.803731,1.58531,-9.56594,-9.20213,-4.86271,92.2649
2023-02-16 05:40:02:897,-0.823096,1.61482,-9.59299,-9.22092,-4.87847,92.2809
2023-02-16 05:40:02:907,-0.835152,1.6354,-9.60652,-9.23789,-4.88975,92.2941
2023-02-16 05:40:02:917,-0.844037,1.6335,-9.60269,-9.25318,-4.90093,92.3117
2023-02-16 05:40:02:927,-0.858246,1.60005,-9.58428,-9.26458,-4.90911,92.3284
2023-02-16 05:40:02:937,-0.881212,1.58587,-9.58048,-9.28015,-4.92383,92.3471
2023-02-16 05:40:02:947,-0.882915,1.59441,-9.58561,-9.29688,-4.93586,92.3621
2023-02-16 05:40:02:956,-0.902134,1.60174,-9.60136,-9.31637,-4.95012,92.3787
2023-02-16 05:40:02:967,-0.897972,1.61419,-9.61453,-9.34135,-4.966,92.3922
2023-02-16 05:40:02:977,-0.905918,1.63266,-9.61944,-9.36698,-4.98009,92.4042
2023-02-16 05:40:02:987,-0.912526,1.65072,-9.62725,-9.39489,-4.99701,92.4152
2023-02-16 05:40:02:996,-0.921927,1.65548,-9.64438,-9.42129,-5.01234,92.4204
2023-02-16 05:40:03:7,-0.91331,1.68436,-9.68374,-9.44729,-5.02606,92.4242
2023-02-16 05:40:03:17,-0.914364,1.71734,-9.70053,-9.4697,-5.03632,92.4299
2023-02-16 05:40:03:27,-0.889856,1.71169,-9.67544,-9.48528,-5.04156,92.4292
2023-02-16 05:40:03:36,-0.870955,1.69613,-9.6663,-9.49294,-5.04564,92.4298
2023-02-16 05:40:03:46,-0.873448,1.68791,-9.65203,-9.49964,-5.04996,92.4299
2023-02-16 05:40:03:57,-0.825476,1.68088,-9.61979,-9.50231,-5.04964,92.4277
2023-02-16 05:40:03:67,-0.778245,1.65632,-9.6161,-9.50293,-5.04891,92.4267
2023-02-16 05:40:03:77,-0.766028,1.63639,-9.61215,-9.50499,-5.05276,92.4277
2023-02-16 05:40:03:87,-0.810364,1.6249,-9.5924,-9.5054,-5.0632,92.4309
2023-02-16 05:40:03:97,-0.86516,1.62583,-9.58364,-9.50647,-5.0719,92.4359
2023-02-16 05:40:03:107,-0.882259,1.64102,-9.58767,-9.51068,-5.08143,92.4408
2023-02-16 05:40:03:117,-0.890505,1.64571,-9.62332,-9.52031,-5.08491,92.4456
2023-02-16 05:40:03:127,-0.884312,1.65564,-9.64689,-9.52674,-5.08852,92.4484
2023-02-16 05:40:03:137,-0.861823,1.67568,-9.65688,-9.53273,-5.09316,92.4474
2023-02-16 05:40:03:147,-0.867561,1.66993,-9.66523,-9.53566,-5.09632,92.4504
2023-02-16 05:40:03:157,-0.870362,1.66954,-9.66325,-9.53167,-5.10083,92.4508
2023-02-16 05:40:03:167,-0.849345,1.64651,-9.64712,-9.52977,-5.10735,92.452
2023-02-16 05:40:03:177,-0.819269,1.62363,-9.60099,-9.5262,-5.11192,92.45
2023-02-16 05:40:03:187,-0.825689,1.61881,-9.58085,-9.51829,-5.11949,92.449
2023-02-16 05:40:03:197,-0.834423,1.60334,-9.57946,-9.51198,-5.13099,92.4509
2023-02-16 05:40:03:207,-0.835864,1.59657,-9.58371,-9.50527,-5.13961,92.4552
2023-02-16 05:40:03:216,-0.834199,1.58146,-9.58934,-9.49743,-5.14928,92.4629
2023-02-16 05:40:03:227,-0.842961,1.5659,-9.59046,-9.4958,-5.15633,92.4744
2023-02-16 05:40:03:237,-0.862348,1.56815,-9.57818,-9.49672,-5.16308,92.4858
2023-02-16 05:40:03:246,-0.88268,1.56621,-9.59946,-9.49735,-5.1738,92.4973
2023-02-16 05:40:03:256,-0.919665,1.57926,-9.63088,-9.50112,-5.17724,92.5066
2023-02-16 05:40:03:266,-0.939425,1.58444,-9.63354,-9.50488,-5.18077,92.5191
2023-02-16 05:40:03:276,-0.941715,1.58514,-9.60592,-9.50982,-5.18272,92.5321
2023-02-16 05:40:03:286,-0.938207,1.5911,-9.5607,-9.5148,-5.18077,92.5422
2023-02-16 05:40:03:296,-0.931644,1.58389,-9.56001,-9.52416,-5.18031,92.5532
2023-02-16 05:40:03:307,-0.93002,1.59173,-9.57346,-9.53489,-5.17916,92.5604
2023-02-16 05:40:03:317,-0.907418,1.6144,-9.58631,-9.54658,-5.18047,92.5678
2023-02-16 05:40:03:327,-0.906606,1.63337,-9.57001,-9.55796,-5.1764,92.5752
2023-02-16 05:40:03:337,-0.913363,1.64104,-9.57355,-9.574,-5.17654,92.5806
2023-02-16 05:40:03:347,-0.913034,1.65467,-9.59424,-9.59207,-5.1739,92.5853
2023-02-16 05:40:03:357,-0.921224,1.65492,-9.603,-9.60124,-5.17209,92.5927
2023-02-16 05:40:03:367,-0.924467,1.66068,-9.62385,-9.61471,-5.17058,92.5979
2023-02-16 05:40:03:377,-0.918166,1.6704,-9.62259,-9.62681,-5.16497,92.6019
2023-02-16 05:40:03:387,-0.930345,1.66437,-9.62422,-9.63921,-5.16031,92.6057
2023-02-16 05:40:03:397,-0.931541,1.65284,-9.61067,-9.6478,-5.15542,92.6061
2023-02-16 05:40:03:407,-0.93562,1.66005,-9.61204,-9.65947,-5.15079,92.606
2023-02-16 05:40:03:417,-0.915231,1.66977,-9.6201,-9.66877,-5.14676,92.6014
2023-02-16 05:40:03:427,-0.907765,1.6847,-9.62009,-9.68117,-5.13883,92.5999
2023-02-16 05:40:03:437,-0.88907,1.68933,-9.64377,-9.69039,-5.13234,92.5959
2023-02-16 05:40:03:447,-0.861225,1.69266,-9.63928,-9.69707,-5.12055,92.5959
2023-02-16 05:40:03:457,-0.84521,1.68228,-9.63501,-9.70503,-5.11028,92.5944
2023-02-16 05:40:03:467,-0.832169,1.66777,-9.62477,-9.70911,-5.0983,92.596
2023-02-16 05:40:03:477,-0.814578,1.67324,-9.62336,-9.71213,-5.08545,92.5969
2023-02-16 05:40:03:487,-0.823291,1.67967,-9.62111,-9.7113,-5.07559,92.5979
2023-02-16 05:40:03:497,-0.824472,1.67994,-9.61736,-9.71501,-5.06736,92.6033
2023-02-16 05:40:03:507,-0.83533,1.67526,-9.60976,-9.71631,-5.05773,92.6092
2023-02-16 05:40:03:517,-0.847216,1.67543,-9.61881,-9.7177,-5.05158,92.6138
2023-02-16 05:40:03:527,-0.860353,1.68822,-9.62312,-9.71596,-5.04805,92.616
2023-02-16 05:40:03:536,-0.845959,1.68782,-9.62327,-9.7141,-5.04793,92.6198
2023-02-16 05:40:03:547,-0.850649,1.6799,-9.6011,-9.71434,-5.04647,92.6221
2023-02-16 05:40:03:556,-0.852432,1.67319,-9.59675,-9.71186,-5.04463,92.6258
2023-02-16 05:40:03:567,-0.854734,1.64982,-9.59125,-9.71277,-5.04112,92.6276
2023-02-16 05:40:03:577,-0.85582,1.6568,-9.60101,-9.7108,-5.03722,92.6313
2023-02-16 05:40:03:587,-0.860064,1.68127,-9.59987,-9.71316,-5.03127,92.6353
2023-02-16 05:40:03:597,-0.852897,1.68079,-9.61001,-9.71527,-5.02269,92.636
2023-02-16 05:40:03:607,-0.85755,1.66901,-9.61834,-9.71661,-5.01393,92.6433
2023-02-16 05:40:03:616,-0.877315,1.67314,-9.61239,-9.71951,-5.00866,92.6462
2023-02-16 05:40:03:627,-0.869032,1.67848,-9.59652,-9.7192,-5.0012,92.6474
2023-02-16 05:40:03:636,-0.858564,1.65598,-9.59286,-9.71629,-4.99831,92.6478
2023-02-16 05:40:03:647,-0.868034,1.66358,-9.60539,-9.71785,-4.9905,92.6472
2023-02-16 05:40:03:657,-0.862708,1.66891,-9.62011,-9.72107,-4.9845,92.6496
2023-02-16 05:40:03:667,-0.839599,1.67668,-9.6535,-9.7202,-4.97665,92.6481
2023-02-16 05:40:03:677,-0.787232,1.67888,-9.66176,-9.71825,-4.97251,92.6466
2023-02-16 05:40:03:687,-0.780339,1.66508,-9.63327,-9.71653,-4.97015,92.6446
2023-02-16 05:40:03:696,-0.801381,1.65438,-9.61612,-9.71806,-4.97278,92.6474
2023-02-16 05:40:03:707,-0.832082,1.66552,-9.60319,-9.72141,-4.97901,92.6517
2023-02-16 05:40:03:717,-0.859527,1.688,-9.60837,-9.72194,-4.98017,92.6592
2023-02-16 05:40:03:727,-0.875552,1.69597,-9.59413,-9.72097,-4.97567,92.6643
2023-02-16 05:40:03:737,-0.879028,1.69749,-9.57332,-9.72324,-4.97055,92.6691
2023-02-16 05:40:03:747,-0.871794,1.69661,-9.56308,-9.72688,-4.96364,92.6746
2023-02-16 05:40:03:757,-0.875938,1.68259,-9.57076,-9.72524,-4.95681,92.6802
2023-02-16 05:40:03:766,-0.876086,1.68858,-9.57428,-9.72693,-4.95127,92.6872
2023-02-16 05:40:03:776,-0.873205,1.67921,-9.58392,-9.72926,-4.94015,92.6923
2023-02-16 05:40:03:787,-0.863293,1.67818,-9.58264,-9.72951,-4.92853,92.6997
2023-02-16 05:40:03:796,-0.869243,1.6852,-9.58732,-9.73085,-4.91705,92.706
2023-02-16 05:40:03:806,-0.867537,1.69417,-9.59908,-9.72972,-4.90367,92.7141
2023-02-16 05:40:03:816,-0.865149,1.6851,-9.61017,-9.72908,-4.88978,92.7242
2023-02-16 05:40:03:827,-0.866607,1.68105,-9.62604,-9.72783,-4.87016,92.729
2023-02-16 05:40:03:836,-0.843807,1.68966,-9.61358,-9.72654,-4.84464,92.7365
2023-02-16 05:40:03:846,-0.834982,1.6981,-9.63157,-9.72358,-4.81734,92.7449
2023-02-16 05:40:03:857,-0.826132,1.70011,-9.64027,-9.72062,-4.79271,92.7556
2023-02-16 05:40:03:867,-0.837304,1.70328,-9.62508,-9.71919,-4.76243,92.7708
2023-02-16 05:40:03:877,-0.851572,1.69453,-9.62586,-9.72026,-4.73249,92.7821
2023-02-16 05:40:03:887,-0.858962,1.69397,-9.59308,-9.71927,-4.69929,92.793
2023-02-16 05:40:03:897,-0.864383,1.67669,-9.55658,-9.71528,-4.66617,92.8025
2023-02-16 05:40:03:907,-0.887585,1.68955,-9.57344,-9.71687,-4.6343,92.8087
2023-02-16 05:40:03:917,-0.877418,1.69595,-9.5851,-9.71745,-4.59518,92.8207
2023-02-16 05:40:03:927,-0.845604,1.70487,-9.61551,-9.71464,-4.54793,92.8252
2023-02-16 05:40:03:937,-0.809978,1.71142,-9.62175,-9.7126,-4.50563,92.832
2023-02-16 05:40:03:947,-0.796247,1.70011,-9.62257,-9.70817,-4.46184,92.8395
2023-02-16 05:40:03:956,-0.808783,1.68584,-9.61157,-9.70122,-4.41772,92.8451
2023-02-16 05:40:03:967,-0.79342,1.68625,-9.62155,-9.69019,-4.37544,92.8529
2023-02-16 05:40:03:977,-0.785077,1.69275,-9.64148,-9.67931,-4.32726,92.8646
2023-02-16 05:40:03:987,-0.768357,1.68964,-9.66728,-9.66792,-4.27501,92.8794
2023-02-16 05:40:03:997,-0.756584,1.69507,-9.65869,-9.65477,-4.21812,92.8981
2023-02-16 05:40:04:7,-0.767712,1.69529,-9.62976,-9.63806,-4.14981,92.9212
2023-02-16 05:40:04:16,-0.778883,1.68603,-9.62513,-9.61816,-4.07362,92.9472
2023-02-16 05:40:04:27,-0.780453,1.68559,-9.61977,-9.60196,-3.99799,92.979
2023-02-16 05:40:04:36,-0.789062,1.69412,-9.62466,-9.58293,-3.91576,93.0081
2023-02-16 05:40:04:47,-0.779431,1.68603,-9.65614,-9.56202,-3.82842,93.0401
2023-02-16 05:40:04:56,-0.777466,1.68034,-9.66684,-9.53402,-3.73211,93.0696
2023-02-16 05:40:04:67,-0.788822,1.69625,-9.69163,-9.49868,-3.62135,93.1029
2023-02-16 05:40:04:76,-0.771824,1.69007,-9.68236,-9.45766,-3.50519,93.1349
2023-02-16 05:40:04:87,-0.736186,1.63848,-9.64888,-9.41406,-3.37715,93.1721
2023-02-16 05:40:04:97,-0.719603,1.61061,-9.62579,-9.36699,-3.25162,93.2071
2023-02-16 05:40:04:106,-0.722466,1.61122,-9.58891,-9.31728,-3.12055,93.242
2023-02-16 05:40:04:117,-0.722925,1.60011,-9.5839,-9.27382,-2.98422,93.2803
2023-02-16 05:40:04:127,-0.71917,1.58308,-9.56828,-9.23196,-2.84249,93.3166
2023-02-16 05:40:04:136,-0.718454,1.58007,-9.58376,-9.19163,-2.69682,93.3543
2023-02-16 05:40:04:146,-0.716728,1.5697,-9.60913,-9.15686,-2.55005,93.3885
2023-02-16 05:40:04:156,-0.689444,1.55836,-9.60481,-9.12403,-2.40207,93.4155
2023-02-16 05:40:04:167,-0.666563,1.55654,-9.61202,-9.08825,-2.24606,93.4382
2023-02-16 05:40:04:176,-0.646997,1.55602,-9.59835,-9.05563,-2.09022,93.453
2023-02-16 05:40:04:186,-0.601266,1.54827,-9.57664,-9.02401,-1.93,93.4611
2023-02-16 05:40:04:196,-0.523202,1.53303,-9.58257,-8.99444,-1.7665,93.455
2023-02-16 05:40:04:207,-0.449078,1.5144,-9.58113,-8.96697,-1.60478,93.4414
2023-02-16 05:40:04:216,-0.371325,1.51166,-9.59694,-8.94037,-1.44562,93.4177
2023-02-16 05:40:04:226,-0.325157,1.49336,-9.61324,-8.91722,-1.29356,93.3921
2023-02-16 05:40:04:236,-0.275156,1.49891,-9.62256,-8.89542,-1.1463,93.3532
2023-02-16 05:40:04:246,-0.238168,1.48988,-9.64261,-8.87443,-1.00335,93.3092
2023-02-16 05:40:04:256,-0.205134,1.46526,-9.64446,-8.85961,-0.866514,93.2553
2023-02-16 05:40:04:266,-0.175492,1.45644,-9.65714,-8.84606,-0.735383,93.1905
2023-02-16 05:40:04:277,-0.12824,1.45288,-9.66484,-8.8349,-0.608637,93.1172
2023-02-16 05:40:04:287,-0.0725294,1.44683,-9.66247,-8.82493,-0.489331,93.0376
2023-02-16 05:40:04:296,0.00418723,1.45056,-9.65022,-8.81649,-0.375358,92.9538
2023-02-16 05:40:04:306,0.0754048,1.43764,-9.65593,-8.80575,-0.264115,92.8659
2023-02-16 05:40:04:316,0.145028,1.40635,-9.65366,-8.80228,-0.157763,92.7742
2023-02-16 05:40:04:326,0.196583,1.39032,-9.6559,-8.79773,-0.0574221,92.6845
2023-02-16 05:40:04:336,0.241085,1.38036,-9.64998,-8.80108,0.0417822,92.6006
2023-02-16 05:40:04:346,0.257887,1.40045,-9.63395,-8.80647,0.140226,92.5229
2023-02-16 05:40:04:356,0.261781,1.41033,-9.64272,-8.81406,0.233844,92.4547
2023-02-16 05:40:04:366,0.237064,1.42304,-9.63579,-8.82016,0.328716,92.3923
2023-02-16 05:40:04:376,0.170933,1.44414,-9.6094,-8.82417,0.424811,92.3419
2023-02-16 05:40:04:387,0.0891956,1.44764,-9.59834,-8.83162,0.527633,92.2999
2023-02-16 05:40:04:396,0.0250343,1.45691,-9.58782,-8.84331,0.635357,92.2632
2023-02-16 05:40:04:407,-0.0390717,1.47722,-9.58027,-8.85816,0.750484,92.2274
2023-02-16 05:40:04:416,-0.0807659,1.47605,-9.57447,-8.8739,0.872318,92.1941
2023-02-16 05:40:04:426,-0.132405,1.48886,-9.54276,-8.8912,1.01129,92.1612
2023-02-16 05:40:04:436,-0.18258,1.49659,-9.54462,-8.90999,1.16992,92.1319
2023-02-16 05:40:04:446,-0.191754,1.52205,-9.59018,-8.92691,1.34553,92.0978
2023-02-16 05:40:04:456,-0.175967,1.5345,-9.59764,-8.94268,1.5364,92.0699
2023-02-16 05:40:04:466,-0.139288,1.55146,-9.58382,-8.95964,1.74885,92.0415
2023-02-16 05:40:04:477,-0.116231,1.53848,-9.56476,-8.97085,1.98475,92.0083
2023-02-16 05:40:04:486,-0.0663236,1.52652,-9.54785,-8.97927,2.24049,91.9756
2023-02-16 05:40:04:496,-0.0121842,1.53867,-9.53542,-8.98786,2.51379,91.9483
2023-02-16 05:40:04:506,0.045656,1.52654,-9.48945,-8.99697,2.80675,91.9193
2023-02-16 05:40:04:516,0.132118,1.51038,-9.4807,-9.00803,3.11536,91.8964
2023-02-16 05:40:04:527,0.232374,1.5044,-9.51329,-9.01362,3.44589,91.8759
2023-02-16 05:40:04:536,0.295803,1.50481,-9.50559,-9.01802,3.79773,91.8663
2023-02-16 05:40:04:546,0.324293,1.48679,-9.4416,-9.02019,4.17178,91.8632
2023-02-16 05:40:04:556,0.370258,1.46719,-9.38704,-9.02688,4.56499,91.8702
2023-02-16 05:40:04:567,0.357237,1.47625,-9.35627,-9.03789,4.98245,91.8868
2023-02-16 05:40:04:576,0.345201,1.51177,-9.35494,-9.05025,5.4325,91.9069
2023-02-16 05:40:04:586,0.40237,1.53146,-9.35166,-9.05933,5.91742,91.9385
2023-02-16 05:40:04:596,0.474076,1.55519,-9.32518,-9.06571,6.43879,91.9802
2023-02-16 05:40:04:607,0.468206,1.54416,-9.2577,-9.06778,6.99928,92.0312
2023-02-16 05:40:04:616,0.428508,1.51922,-9.14265,-9.06381,7.59969,92.0913
2023-02-16 05:40:04:626,0.474408,1.49982,-9.04158,-9.0609,8.24329,92.1527
2023-02-16 05:40:04:637,0.561146,1.50958,-9.02841,-9.05184,8.93309,92.225
2023-02-16 05:40:04:647,0.619797,1.5093,-9.02635,-9.0365,9.67989,92.3143
2023-02-16 05:40:04:657,0.710816,1.47618,-8.97024,-9.01356,10.4742,92.4041
2023-02-16 05:40:04:666,0.915713,1.43238,-8.92411,-8.98835,11.3106,92.4987
2023-02-16 05:40:04:676,1.14233,1.41842,-8.90782,-8.95879,12.1854,92.5959
2023-02-16 05:40:04:687,1.22457,1.42812,-8.83893,-8.91764,13.0984,92.7001
2023-02-16 05:40:04:697,1.12438,1.43163,-8.72266,-8.86612,14.0535,92.8064
2023-02-16 05:40:04:707,1.08645,1.46016,-8.63946,-8.81221,15.0609,92.9007
2023-02-16 05:40:04:717,1.2336,1.43689,-8.59763,-8.76212,16.1089,92.969
2023-02-16 05:40:04:727,1.57749,1.44661,-8.64688,-8.71867,17.1913,93.0057
2023-02-16 05:40:04:737,2.06159,1.43026,-8.70508,-8.67818,18.297,93.0094
2023-02-16 05:40:04:747,2.54508,1.39301,-8.69792,-8.63195,19.4168,92.9885
2023-02-16 05:40:04:757,2.94418,1.34864,-8.61186,-8.57913,20.5402,92.9568
2023-02-16 05:40:04:767,3.27638,1.30215,-8.51649,-8.51813,21.6677,92.9173
2023-02-16 05:40:04:776,3.47614,1.27129,-8.3919,-8.44772,22.8014,92.8751
2023-02-16 05:40:04:787,3.60644,1.19529,-8.17139,-8.36534,23.9504,92.8396
2023-02-16 05:40:04:797,3.8122,1.14709,-7.99937,-8.28512,25.1146,92.7965
2023-02-16 05:40:04:807,4.09027,1.11071,-7.97174,-8.20653,26.2862,92.7435
2023-02-16 05:40:04:817,4.41991,1.11941,-8.07902,-8.13159,27.4556,92.6832
2023-02-16 05:40:04:826,4.63472,1.14698,-8.11248,-8.04622,28.6212,92.6228
2023-02-16 05:40:04:836,4.8132,1.06999,-8.02282,-7.95422,29.7872,92.5575
2023-02-16 05:40:04:846,5.09267,0.960675,-7.92033,-7.85765,30.9477,92.4832
2023-02-16 05:40:04:857,5.36826,0.888538,-7.77878,-7.76874,32.0924,92.3939
2023-02-16 05:40:04:867,5.56832,0.809373,-7.57734,-7.6953,33.2043,92.2867
2023-02-16 05:40:04:877,5.75289,0.787086,-7.42325,-7.64642,34.2879,92.1625
2023-02-16 05:40:04:887,5.96299,0.814553,-7.39694,-7.63088,35.3442,92.0127
2023-02-16 05:40:04:897,6.30974,0.864867,-7.50484,-7.64847,36.3638,91.8331
2023-02-16 05:40:04:907,6.88669,0.92889,-7.70685,-7.69198,37.3358,91.6228
2023-02-16 05:40:04:917,7.53875,1.00801,-7.92166,-7.73096,38.2484,91.4102
2023-02-16 05:40:04:927,7.98232,1.02911,-7.91283,-7.7426,39.1005,91.217
2023-02-16 05:40:04:937,8.10815,0.976681,-7.57944,-7.72214,39.8899,91.0462
2023-02-16 05:40:04:947,7.91773,0.879296,-7.12069,-7.70411,40.6202,90.8871
2023-02-16 05:40:04:957,7.71746,0.819201,-6.89772,-7.71668,41.3032,90.7267
2023-02-16 05:40:04:967,7.80238,0.847093,-7.00701,-7.78034,41.922,90.5389
2023-02-16 05:40:04:977,8.01533,0.949019,-7.2533,-7.87703,42.4774,90.3324
2023-02-16 05:40:04:987,8.18183,1.02261,-7.42997,-7.97185,42.9758,90.125
2023-02-16 05:40:04:997,8.29376,1.08014,-7.43905,-8.0515,43.4271,89.9243
2023-02-16 05:40:05:7,8.29897,1.09576,-7.30763,-8.10878,43.8296,89.7359
2023-02-16 05:40:05:17,8.1388,1.12134,-7.03843,-8.15111,44.1895,89.5596
2023-02-16 05:40:05:27,7.87475,1.07884,-6.73567,-8.19201,44.5212,89.3902
2023-02-16 05:40:05:37,7.786,1.06516,-6.65377,-8.25433,44.8268,89.2115
2023-02-16 05:40:05:47,7.88315,1.08027,-6.69648,-8.33244,45.1001,89.0233
2023-02-16 05:40:05:57,8.04071,1.07756,-6.76458,-8.42299,45.339,88.831
2023-02-16 05:40:05:67,8.04073,1.11754,-6.7165,-8.50947,45.543,88.6493
2023-02-16 05:40:05:77,7.73227,1.11957,-6.5306,-8.6005,45.7194,88.4658
2023-02-16 05:40:05:87,7.42213,1.13953,-6.46124,-8.72122,45.8765,88.2652
2023-02-16 05:40:05:97,7.38246,1.20179,-6.58612,-8.88067,46.014,88.0309
2023-02-16 05:40:05:107,7.7393,1.26578,-6.86391,-9.06328,46.1243,87.7664
2023-02-16 05:40:05:116,8.13301,1.31959,-7.14382,-9.23303,46.1951,87.5051
2023-02-16 05:40:05:127,8.35384,1.34914,-7.23303,-9.36414,46.2337,87.2622
2023-02-16 05:40:05:137,8.35519,1.35552,-6.99999,-9.43713,46.2493,87.0548
2023-02-16 05:40:05:147,7.98757,1.28805,-6.55035,-9.47509,46.2506,86.8768
2023-02-16 05:40:05:157,7.38261,1.26037,-6.20782,-9.5356,46.2479,86.6954
2023-02-16 05:40:05:167,7.02702,1.27005,-6.1803,-9.65771,46.2359,86.4704
2023-02-16 05:40:05:177,7.4556,1.29258,-6.50424,-9.84843,46.2008,86.1854
2023-02-16 05:40:05:187,8.24364,1.36038,-7.04876,-10.0515,46.1152,85.8896
2023-02-16 05:40:05:196,8.56238,1.46209,-7.41123,-10.2052,45.9747,85.6355
2023-02-16 05:40:05:207,8.37349,1.46076,-7.38693,-10.2985,45.7957,85.4245
2023-02-16 05:40:05:217,8.03402,1.35667,-7.14329,-10.3506,45.5967,85.2351
2023-02-16 05:40:05:227,7.76657,1.22781,-6.85151,-10.3976,45.3777,85.0467
2023-02-16 05:40:05:237,7.51682,1.14276,-6.60752,-10.4609,45.1387,84.8481
2023-02-16 05:40:05:247,7.20468,1.07036,-6.38388,-10.5588,44.882,84.6231
2023-02-16 05:40:05:257,7.08152,0.976516,-6.25909,-10.7134,44.6043,84.3621
2023-02-16 05:40:05:267,7.31822,0.938821,-6.35665,-10.931,44.2937,84.0652
2023-02-16 05:40:05:277,7.60766,1.0619,-6.67185,-11.187,43.9363,83.7606
2023-02-16 05:40:05:287,7.73157,1.23111,-6.98199,-11.4614,43.5339,83.4591
2023-02-16 05:40:05:297,7.77564,1.40366,-7.21996,-11.7353,43.0845,83.1638
2023-02-16 05:40:05:307,7.75618,1.52912,-7.37557,-11.9912,42.5919,82.8821
2023-02-16 05:40:05:317,7.5831,1.60165,-7.37907,-12.2388,42.0532,82.6088
2023-02-16 05:40:05:327,7.25891,1.62979,-7.29817,-12.4819,41.4725,82.3351
2023-02-16 05:40:05:337,6.94583,1.64921,-7.26691,-12.7363,40.8485,82.0497
2023-02-16 05:40:05:346,6.85241,1.70238,-7.31523,-13.0073,40.184,81.7478
2023-02-16 05:40:05:357,7.07585,1.7619,-7.42765,-13.2984,39.4797,81.4199
2023-02-16 05:40:05:367,7.38188,1.8586,-7.59843,-13.5922,38.7209,81.0904
2023-02-16 05:40:05:377,7.39279,2.03104,-7.83858,-13.8753,37.8985,80.7737
2023-02-16 05:40:05:387,7.14737,2.24416,-8.06814,-14.1398,37.0126,80.4742
2023-02-16 05:40:05:397,6.82127,2.37741,-8.21385,-14.3813,36.0689,80.1765
2023-02-16 05:40:05:407,6.50602,2.38184,-8.18371,-14.5917,35.0732,79.8819
2023-02-16 05:40:05:416,6.52071,2.32105,-8.04138,-14.7872,34.0419,79.5739
2023-02-16 05:40:05:427,7.07104,2.22486,-8.03008,-14.9695,32.9638,79.2671
2023-02-16 05:40:05:436,7.73396,2.23613,-8.26924,-15.137,31.8229,78.9974
2023-02-16 05:40:05:447,7.80927,2.3893,-8.49624,-15.2559,30.6082,78.8025
2023-02-16 05:40:05:457,7.23572,2.51689,-8.48896,-15.3143,29.3339,78.6897
2023-02-16 05:40:05:467,6.47036,2.48992,-8.2829,-15.3194,28.0255,78.6458
2023-02-16 05:40:05:477,5.81217,2.4174,-8.0761,-15.2959,26.6932,78.646
2023-02-16 05:40:05:487,5.47529,2.40192,-7.97463,-15.2548,25.3578,78.6772
2023-02-16 05:40:05:496,5.57973,2.39056,-7.95627,-15.1946,24.0305,78.7414
2023-02-16 05:40:05:507,5.78552,2.33648,-7.9734,-15.1078,22.7006,78.8597
2023-02-16 05:40:05:517,5.51223,2.29983,-7.94951,-15.0003,21.3436,79.052
2023-02-16 05:40:05:527,4.66829,2.29416,-7.87802,-14.8813,19.9624,79.3067
2023-02-16 05:40:05:537,3.67728,2.30723,-7.84106,-14.7586,18.5671,79.6074
2023-02-16 05:40:05:547,2.95892,2.27549,-7.81019,-14.6451,17.1735,79.9172
2023-02-16 05:40:05:557,2.62015,2.19079,-7.78537,-14.5392,15.7943,80.2277
2023-02-16 05:40:05:567,2.37224,2.12456,-7.85533,-14.4462,14.4241,80.5431
2023-02-16 05:40:05:577,1.98757,2.13754,-8.05103,-14.3619,13.0653,80.8688
2023-02-16 05:40:05:587,1.50435,2.14386,-8.22157,-14.2794,11.7207,81.1984
2023-02-16 05:40:05:596,1.10378,2.06754,-8.27049,-14.1923,10.4005,81.5275
2023-02-16 05:40:05:607,0.910837,1.9722,-8.25258,-14.1113,9.11695,81.8507
2023-02-16 05:40:05:617,0.893307,1.86105,-8.19276,-14.0394,7.87065,82.1787
2023-02-16 05:40:05:627,0.728069,1.77088,-8.07744,-13.9838,6.64905,82.5172
2023-02-16 05:40:05:636,0.257297,1.76433,-7.93307,-13.954,5.45092,82.8675
2023-02-16 05:40:05:647,-0.412668,1.82298,-7.81706,-13.9529,4.28687,83.2306
2023-02-16 05:40:05:657,-1.09634,1.91018,-7.80193,-13.9882,3.17363,83.5964
2023-02-16 05:40:05:666,-1.60336,2.06694,-7.98701,-14.0608,2.12261,83.9416
2023-02-16 05:40:05:677,-1.86454,2.2793,-8.29342,-14.1561,1.14522,84.2609
2023-02-16 05:40:05:687,-1.97323,2.42748,-8.61036,-14.2619,0.245576,84.5578
2023-02-16 05:40:05:696,-2.01166,2.50406,-8.90529,-14.3599,-0.584511,84.8332
2023-02-16 05:40:05:707,-2.0483,2.54637,-9.08293,-14.4447,-1.35392,85.0927
2023-02-16 05:40:05:716,-2.11427,2.5209,-9.08553,-14.5127,-2.06413,85.3372
2023-02-16 05:40:05:727,-2.23265,2.48376,-9.05099,-14.5765,-2.71741,85.5662
2023-02-16 05:40:05:737,-2.29639,2.50762,-9.10272,-14.6361,-3.31133,85.7779
2023-02-16 05:40:05:747,-2.30378,2.55762,-9.16822,-14.6836,-3.84395,85.9807
2023-02-16 05:40:05:756,-2.2833,2.57767,-9.19872,-14.724,-4.3133,86.1743
2023-02-16 05:40:05:767,-2.29735,2.58244,-9.2042,-14.756,-4.73041,86.3605
2023-02-16 05:40:05:777,-2.26204,2.57987,-9.2156,-14.7838,-5.09198,86.5456
2023-02-16 05:40:05:787,-2.20397,2.57245,-9.24538,-14.8039,-5.40007,86.7189
2023-02-16 05:40:05:797,-2.13999,2.57615,-9.26936,-14.8192,-5.66183,86.8888
2023-02-16 05:40:05:807,-2.10143,2.56594,-9.27426,-14.8294,-5.87876,87.0566
2023-02-16 05:40:05:817,-2.07704,2.5542,-9.27997,-14.8321,-6.05127,87.2238
2023-02-16 05:40:05:827,-2.0439,2.53471,-9.2316,-14.8245,-6.18781,87.3885
2023-02-16 05:40:05:836,-2.03212,2.51469,-9.19819,-14.8169,-6.28116,87.5538
2023-02-16 05:40:05:847,-2.07034,2.5282,-9.20127,-14.8084,-6.32704,87.7192
2023-02-16 05:40:05:857,-2.1254,2.51959,-9.17119,-14.7973,-6.32797,87.8804
2023-02-16 05:40:05:866,-2.15164,2.51102,-9.16893,-14.7863,-6.2861,88.0351
2023-02-16 05:40:05:877,-2.11142,2.50222,-9.24113,-14.7752,-6.20803,88.1757
2023-02-16 05:40:05:886,-2.00452,2.52547,-9.32985,-14.7626,-6.08626,88.3063
2023-02-16 05:40:05:897,-1.92841,2.5126,-9.36028,-14.7402,-5.93398,88.4251
2023-02-16 05:40:05:907,-1.87158,2.46776,-9.31536,-14.7158,-5.75565,88.5291
2023-02-16 05:40:05:917,-1.79312,2.45624,-9.28536,-14.6888,-5.55727,88.6151
2023-02-16 05:40:05:927,-1.69747,2.44035,-9.25178,-14.6625,-5.33374,88.691
2023-02-16 05:40:05:937,-1.64158,2.42633,-9.22203,-14.6403,-5.09404,88.7591
2023-02-16 05:40:05:947,-1.63885,2.41296,-9.17865,-14.6183,-4.83379,88.8156
2023-02-16 05:40:05:956,-1.57728,2.43271,-9.19977,-14.6041,-4.54914,88.8561
2023-02-16 05:40:05:967,-1.44261,2.44981,-9.2355,-14.5869,-4.24018,88.8827
2023-02-16 05:40:05:977,-1.32857,2.44015,-9.25685,-14.5708,-3.90571,88.9016
2023-02-16 05:40:05:987,-1.26551,2.43351,-9.22834,-14.5525,-3.54921,88.9127
2023-02-16 05:40:05:996,-1.21401,2.43408,-9.15779,-14.5356,-3.1705,88.9229
2023-02-16 05:40:06:7,-1.16364,2.4305,-9.11504,-14.5222,-2.76762,88.9256
2023-02-16 05:40:06:16,-1.1113,2.44261,-9.13934,-14.5135,-2.33147,88.9213
2023-02-16 05:40:06:27,-1.06231,2.48254,-9.19272,-14.5068,-1.86938,88.9131
2023-02-16 05:40:06:36,-0.982737,2.47429,-9.21648,-14.4971,-1.37832,88.8965
2023-02-16 05:40:06:47,-0.845987,2.44364,-9.20655,-14.4879,-0.859373,88.8725
2023-02-16 05:40:06:57,-0.665977,2.42711,-9.21947,-14.478,-0.311337,88.843
2023-02-16 05:40:06:67,-0.459998,2.44321,-9.30455,-14.4699,0.258289,88.812
2023-02-16 05:40:06:77,-0.309951,2.46108,-9.31539,-14.4508,0.854684,88.7888
2023-02-16 05:40:06:87,-0.231819,2.4407,-9.21733,-14.4222,1.47501,88.7722
2023-02-16 05:40:06:97,-0.145164,2.42035,-9.09834,-14.395,2.12332,88.7592
2023-02-16 05:40:06:107,-0.0058147,2.42541,-9.04228,-14.3673,2.79425,88.7507
2023-02-16 05:40:06:116,0.0485372,2.40929,-9.02556,-14.3394,3.49716,88.7553
2023-02-16 05:40:06:127,0.0223611,2.39159,-8.96896,-14.3073,4.23867,88.764
2023-02-16 05:40:06:137,0.106199,2.37173,-8.98118,-14.275,5.02197,88.7728
2023-02-16 05:40:06:147,0.344064,2.38732,-9.09427,-14.2388,5.84037,88.7753
2023-02-16 05:40:06:156,0.613552,2.39334,-9.19158,-14.1906,6.67944,88.7842
2023-02-16 05:40:06:167,0.82001,2.37407,-9.208,-14.1301,7.53574,88.7971
2023-02-16 05:40:06:177,0.939087,2.35168,-9.15572,-14.0507,8.41365,88.8194
2023-02-16 05:40:06:187,0.988962,2.33312,-9.06014,-13.9586,9.32423,88.8462
2023-02-16 05:40:06:196,0.948475,2.30235,-8.83841,-13.8493,10.2633,88.877
2023-02-16 05:40:06:206,0.85214,2.24104,-8.58072,-13.7337,11.2363,88.9057
2023-02-16 05:40:06:217,0.942128,2.18728,-8.54089,-13.6189,12.2594,88.9166
2023-02-16 05:40:06:227,1.22997,2.22509,-8.6849,-13.4977,13.3411,88.9221
2023-02-16 05:40:06:236,1.52144,2.22139,-8.75463,-13.3526,14.4763,88.9331
2023-02-16 05:40:06:247,1.71896,2.15184,-8.6075,-13.1794,15.6513,88.9473
2023-02-16 05:40:06:257,1.87207,2.04252,-8.36288,-12.994,16.8677,88.9553
2023-02-16 05:40:06:266,2.14427,1.95643,-8.1796,-12.8093,18.1231,88.9562
2023-02-16 05:40:06:277,2.44676,1.91514,-8.10512,-12.6184,19.4067,88.9582
2023-02-16 05:40:06:287,2.53024,1.91667,-8.00594,-12.4138,20.7249,88.9687
2023-02-16 05:40:06:297,2.51804,1.86794,-7.84674,-12.2015,22.0905,88.9813
2023-02-16 05:40:06:307,2.73047,1.80301,-7.74524,-11.9859,23.4982,88.9774
2023-02-16 05:40:06:316,3.09923,1.74156,-7.68904,-11.7814,24.9241,88.9477
2023-02-16 05:40:06:327,3.46583,1.66765,-7.58562,-11.5849,26.3594,88.8952
2023-02-16 05:40:06:337,3.85991,1.63321,-7.55165,-11.3993,27.7978,88.8183
2023-02-16 05:40:06:347,4.30061,1.60705,-7.58029,-11.2146,29.2471,88.7166
2023-02-16 05:40:06:356,4.73283,1.56748,-7.54817,-11.0221,30.7052,88.6041
2023-02-16 05:40:06:367,5.15624,1.45842,-7.49287,-10.8269,32.1636,88.4773
2023-02-16 05:40:06:377,5.64122,1.37927,-7.46191,-10.6357,33.5991,88.3276
2023-02-16 05:40:06:387,6.07668,1.31047,-7.36393,-10.4572,34.9881,88.1568
2023-02-16 05:40:06:396,6.40828,1.20992,-7.22007,-10.3141,36.3165,87.9458
2023-02-16 05:40:06:406,6.75564,1.20718,-7.19049,-10.2166,37.5836,87.6872
2023-02-16 05:40:06:416,7.15251,1.27543,-7.30331,-10.1672,38.7788,87.378
2023-02-16 05:40:06:427,7.64365,1.34572,-7.4888,-10.1531,39.893,87.0169
2023-02-16 05:40:06:437,8.23858,1.39514,-7.61122,-10.1611,40.9128,86.6149
2023-02-16 05:40:06:447,8.76754,1.35853,-7.5556,-10.1639,41.8363,86.1946
2023-02-16 05:40:06:457,9.14083,1.26209,-7.32845,-10.1681,42.6609,85.7646
2023-02-16 05:40:06:467,9.34475,1.14689,-7.04854,-10.1793,43.3748,85.3336
2023-02-16 05:40:06:477,9.38719,1.05316,-6.83613,-10.2124,43.9826,84.9134
2023-02-16 05:40:06:487,9.31233,1.02456,-6.72564,-10.2749,44.4928,84.4939
2023-02-16 05:40:06:497,9.25276,1.00076,-6.70988,-10.3518,44.9226,84.0889
2023-02-16 05:40:06:507,9.32105,1.03635,-6.77748,-10.4312,45.2842,83.7076
2023-02-16 05:40:06:516,9.52265,1.07815,-6.88814,-10.4824,45.5875,83.3774
2023-02-16 05:40:06:527,9.61386,1.10053,-6.9013,-10.4825,45.8309,83.1159
2023-02-16 05:40:06:537,9.33045,1.09318,-6.67586,-10.4232,46.0307,82.93
2023-02-16 05:40:06:547,8.58941,1.06055,-6.26047,-10.3384,46.197,82.7943
2023-02-16 05:40:06:557,7.97198,1.00701,-5.96452,-10.2884,46.3403,82.6554
2023-02-16 05:40:06:567,8.03236,1.01705,-6.09051,-10.2843,46.4638,82.5069
2023-02-16 05:40:06:577,8.36851,1.1395,-6.54067,-10.2902,46.5611,82.3782
2023-02-16 05:40:06:587,8.51399,1.28588,-6.92209,-10.2589,46.6251,82.2914
2023-02-16 05:40:06:596,8.34928,1.30662,-6.92567,-10.1653,46.6691,82.2511
2023-02-16 05:40:06:606,7.89576,1.21052,-6.55541,-10.0224,46.7038,82.2487
2023-02-16 05:40:06:616,7.37623,1.07782,-6.10402,-9.89113,46.7285,82.2425
2023-02-16 05:40:06:627,7.07214,0.963886,-5.89153,-9.82112,46.746,82.1972
2023-02-16 05:40:06:636,7.24261,0.940593,-6.08237,-9.82009,46.75,82.1179
2023-02-16 05:40:06:647,7.68882,1.07028,-6.59783,-9.85202,46.7252,82.0251
2023-02-16 05:40:06:656,7.81799,1.25467,-6.98852,-9.85566,46.6753,81.9529
2023-02-16 05:40:06:667,7.48225,1.28655,-6.91085,-9.81817,46.6145,81.9034
2023-02-16 05:40:06:677,6.98248,1.18851,-6.46697,-9.78214,46.5507,81.8415
2023-02-16 05:40:06:686,6.59331,1.10107,-6.12136,-9.78664,46.4864,81.749
2023-02-16 05:40:06:696,6.49107,1.09163,-6.14257,-9.87141,46.426,81.5969
2023-02-16 05:40:06:706,6.86645,1.20688,-6.57865,-10.0063,46.3555,81.41
2023-02-16 05:40:06:716,7.35707,1.33073,-7.05322,-10.132,46.2715,81.2203
2023-02-16 05:40:06:727,7.55876,1.35547,-7.24422,-10.2054,46.1808,81.0607
2023-02-16 05:40:06:736,7.51671,1.28937,-7.10175,-10.2229,46.0938,80.9339
2023-02-16 05:40:06:746,7.34368,1.24434,-6.72631,-10.2103,46.0131,80.8263
2023-02-16 05:40:06:757,6.92308,1.18921,-6.28527,-10.2003,45.9369,80.7328
2023-02-16 05:40:06:766,6.46106,1.17661,-6.1261,-10.2353,45.8715,80.6167
2023-02-16 05:40:06:777,6.47386,1.22889,-6.34303,-10.3289,45.812,80.4597
2023-02-16 05:40:06:787,7.00738,1.2948,-6.75406,-10.4566,45.745,80.2798
2023-02-16 05:40:06:796,7.45828,1.36376,-7.13113,-10.5623,45.6572,80.1152
2023-02-16 05:40:06:807,7.60127,1.41712,-7.32954,-10.6266,45.5509,79.9769
2023-02-16 05:40:06:816,7.54701,1.39006,-7.23835,-10.639,45.4364,79.8729
2023-02-16 05:40:06:826,7.43149,1.3078,-7.0159,-10.6114,45.3265,79.7994
2023-02-16 05:40:06:837,7.34134,1.26485,-6.86387,-10.5744,45.2181,79.7402
2023-02-16 05:40:06:846,7.23801,1.2385,-6.72997,-10.5356,45.103,79.6878
2023-02-16 05:40:06:856,7.18708,1.17654,-6.63206,-10.5067,44.9837,79.6414
2023-02-16 05:40:06:866,7.2713,1.13325,-6.67842,-10.4955,44.8522,79.5888
2023-02-16 05:40:06:877,7.4363,1.13685,-6.81244,-10.5016,44.7015,79.5363
2023-02-16 05:40:06:887,7.58637,1.16112,-6.97953,-10.5082,44.5272,79.496
2023-02-16 05:40:06:897,7.72757,1.20957,-7.10712,-10.5047,44.3285,79.4741
2023-02-16 05:40:06:906,7.77399,1.22886,-7.16573,-10.495,44.1029,79.46
2023-02-16 05:40:06:917,7.65122,1.26444,-7.13987,-10.479,43.8498,79.4549
2023-02-16 05:40:06:927,7.38499,1.28026,-7.01893,-10.4708,43.5674,79.4493
2023-02-16 05:40:06:936,7.08232,1.30663,-6.86649,-10.4951,43.254,79.4212
2023-02-16 05:40:06:946,6.98929,1.32061,-6.77558,-10.563,42.9165,79.354
2023-02-16 05:40:06:956,7.23333,1.36161,-6.84749,-10.6872,42.5475,79.2372
2023-02-16 05:40:06:966,7.64798,1.42443,-7.05129,-10.8592,42.1214,79.0921
2023-02-16 05:40:06:976,7.92732,1.54899,-7.38148,-11.0518,41.6284,78.9352
2023-02-16 05:40:06:987,7.93227,1.73418,-7.7015,-11.2475,41.0604,78.7826
2023-02-16 05:40:06:996,7.7744,1.86504,-7.92751,-11.4254,40.4294,78.6432
2023-02-16 05:40:07:7,7.58136,1.96483,-8.04326,-11.5736,39.7408,78.5096
2023-02-16 05:40:07:16,7.38655,2.03498,-8.10497,-11.6871,39.0081,78.3828
2023-02-16 05:40:07:26,7.35987,2.04901,-8.13487,-11.7638,38.2337,78.2598
2023-02-16 05:40:07:37,7.50997,1.97706,-8.12706,-11.8043,37.4196,78.1504
2023-02-16 05:40:07:47,7.48669,1.91186,-8.0451,-11.8126,36.5593,78.0625
2023-02-16 05:40:07:56,7.25678,1.84474,-7.90986,-11.79,35.6529,78.0052
2023-02-16 05:40:07:67,6.98613,1.80326,-7.82607,-11.7586,34.7079,77.9711
2023-02-16 05:40:07:77,6.68613,1.7711,-7.81053,-11.7127,33.7282,77.9642
2023-02-16 05:40:07:86,6.27366,1.75831,-7.79334,-11.6549,32.721,77.9802
2023-02-16 05:40:07:96,5.9369,1.77473,-7.8571,-11.5954,31.6999,78.0091
2023-02-16 05:40:07:106,5.85228,1.81471,-8.03326,-11.5376,30.6576,78.0438
2023-02-16 05:40:07:116,5.84189,1.82422,-8.15875,-11.4715,29.5835,78.0862
2023-02-16 05:40:07:127,5.62249,1.80405,-8.19491,-11.3919,28.468,78.1487
2023-02-16 05:40:07:136,5.08958,1.79317,-8.17193,-11.3046,27.3191,78.2254
2023-02-16 05:40:07:146,4.42815,1.78323,-8.13398,-11.2104,26.1527,78.3109
2023-02-16 05:40:07:157,3.93973,1.72496,-8.09329,-11.1201,24.9795,78.3813
2023-02-16 05:40:07:167,3.86516,1.68853,-8.10393,-11.0434,23.8149,78.4309
2023-02-16 05:40:07:176,4.21361,1.6963,-8.279,-10.9802,22.6574,78.4703
2023-02-16 05:40:07:187,4.33037,1.7747,-8.54478,-10.9186,21.4768,78.5196
2023-02-16 05:40:07:197,3.84285,1.8682,-8.68025,-10.8431,20.2552,78.5849
2023-02-16 05:40:07:207,3.14158,1.85321,-8.63967,-10.752,19.0053,78.6585
2023-02-16 05:40:07:216,2.50234,1.75201,-8.47269,-10.6536,17.7464,78.7271
2023-02-16 05:40:07:227,2.01168,1.63517,-8.27245,-10.5608,16.4985,78.7711
2023-02-16 05:40:07:236,1.81942,1.51458,-8.14908,-10.4784,15.2759,78.7921
2023-02-16 05:40:07:247,1.84361,1.41498,-8.25807,-10.413,14.0862,78.79
2023-02-16 05:40:07:257,1.8749,1.39321,-8.45225,-10.365,12.9118,78.7851
2023-02-16 05:40:07:267,1.81905,1.36863,-8.62019,-10.3194,11.7541,78.7827
2023-02-16 05:40:07:277,1.62454,1.34167,-8.71436,-10.276,10.6022,78.7944
2023-02-16 05:40:07:287,1.26224,1.33871,-8.74498,-10.2348,9.46075,78.8134
2023-02-16 05:40:07:297,0.812901,1.31731,-8.75057,-10.1916,8.34195,78.8452
2023-02-16 05:40:07:307,0.488829,1.28737,-8.74663,-10.153,7.25377,78.8778
2023-02-16 05:40:07:317,0.455036,1.25492,-8.72144,-10.1233,6.20623,78.9068
2023-02-16 05:40:07:327,0.629262,1.21204,-8.68961,-10.1075,5.19744,78.9386
2023-02-16 05:40:07:337,0.659433,1.21156,-8.72133,-10.0996,4.21412,78.9867
2023-02-16 05:40:07:347,0.402839,1.28214,-8.77476,-10.0972,3.25452,79.0593
2023-02-16 05:40:07:357,-0.10998,1.35644,-8.78999,-10.0918,2.32458,79.1584
2023-02-16 05:40:07:367,-0.72502,1.45076,-8.85247,-10.0907,1.44135,79.2772
2023-02-16 05:40:07:377,-1.07525,1.51908,-8.95499,-10.0933,0.610644,79.3914
2023-02-16 05:40:07:387,-1.08665,1.55269,-9.01023,-10.0941,-0.164542,79.4992
2023-02-16 05:40:07:396,-0.920889,1.51887,-9.01753,-10.0979,-0.888324,79.6084
2023-02-16 05:40:07:407,-0.838391,1.52137,-9.04121,-10.1055,-1.57498,79.7262
2023-02-16 05:40:07:417,-1.0254,1.56812,-9.09111,-10.1168,-2.22864,79.8591
2023-02-16 05:40:07:427,-1.447,1.61915,-9.12359,-10.1347,-2.84944,80.005
2023-02-16 05:40:07:436,-1.83881,1.69828,-9.18311,-10.1531,-3.41505,80.1477
2023-02-16 05:40:07:447,-2.03363,1.74783,-9.26444,-10.1688,-3.92429,80.2795
2023-02-16 05:40:07:456,-2.0946,1.7684,-9.36884,-10.1879,-4.38407,80.3952
2023-02-16 05:40:07:466,-2.12736,1.81907,-9.46054,-10.198,-4.80186,80.4923
2023-02-16 05:40:07:477,-2.13103,1.80606,-9.39073,-10.2064,-5.19731,80.5689
2023-02-16 05:40:07:486,-2.10469,1.7534,-9.29814,-10.2148,-5.5653,80.6276
2023-02-16 05:40:07:497,-2.11008,1.71945,-9.22828,-10.228,-5.90223,80.669
2023-02-16 05:40:07:507,-2.13322,1.71479,-9.2186,-10.2458,-6.21071,80.6931
2023-02-16 05:40:07:517,-2.1886,1.69624,-9.2297,-10.2692,-6.48772,80.6965
2023-02-16 05:40:07:527,-2.18879,1.69499,-9.25703,-10.2965,-6.73615,80.6758
2023-02-16 05:40:07:537,-2.09672,1.70683,-9.35893,-10.3255,-6.95682,80.6327
2023-02-16 05:40:07:547,-2.02706,1.74521,-9.47899,-10.3524,-7.15567,80.5703
2023-02-16 05:40:07:557,-1.97772,1.76808,-9.53091,-10.3741,-7.33092,80.4955
2023-02-16 05:40:07:567,-1.92564,1.77621,-9.55,-10.3917,-7.48245,80.4068
2023-02-16 05:40:07:577,-1.81503,1.76877,-9.57604,-10.4009,-7.61856,80.307
2023-02-16 05:40:07:587,-1.68131,1.75427,-9.58231,-10.4068,-7.73814,80.2011
2023-02-16 05:40:07:596,-1.55381,1.73226,-9.54271,-10.4091,-7.84506,80.0958
2023-02-16 05:40:07:607,-1.47379,1.68447,-9.48632,-10.4116,-7.94078,79.9968
2023-02-16 05:40:07:617,-1.40616,1.64636,-9.43246,-10.4193,-8.02393,79.8999
2023-02-16 05:40:07:627,-1.40375,1.65791,-9.40025,-10.4316,-8.09504,79.8167
2023-02-16 05:40:07:637,-1.48656,1.67202,-9.4053,-10.4511,-8.15102,79.7486
2023-02-16 05:40:07:647,-1.54322,1.69954,-9.43114,-10.4712,-8.18724,79.6912
2023-02-16 05:40:07:657,-1.55185,1.75313,-9.49901,-10.4923,-8.2062,79.6442
2023-02-16 05:40:07:667,-1.56237,1.77942,-9.54001,-10.5085,-8.20543,79.5991
2023-02-16 05:40:07:677,-1.53637,1.77816,-9.53865,-10.5217,-8.18985,79.5643
2023-02-16 05:40:07:687,-1.46104,1.76356,-9.5224,-10.5314,-8.15886,79.5344
2023-02-16 05:40:07:697,-1.41087,1.73818,-9.46932,-10.5431,-8.11761,79.5129
2023-02-16 05:40:07:707,-1.39183,1.71342,-9.43863,-10.5578,-8.06331,79.5018
2023-02-16 05:40:07:717,-1.35491,1.72079,-9.40976,-10.5796,-7.99909,79.4996
2023-02-16 05:40:07:727,-1.35067,1.72854,-9.42891,-10.607,-7.92219,79.506
2023-02-16 05:40:07:736,-1.44196,1.78141,-9.46059,-10.6365,-7.83274,79.5161
2023-02-16 05:40:07:747,-1.54804,1.87048,-9.53727,-10.6692,-7.73719,79.5294
2023-02-16 05:40:07:757,-1.6108,1.95437,-9.61235,-10.6947,-7.62838,79.5325
2023-02-16 05:40:07:767,-1.5914,1.97811,-9.6117,-10.7129,-7.50896,79.5277
2023-02-16 05:40:07:777,-1.50531,1.9507,-9.56409,-10.7241,-7.39081,79.5116
2023-02-16 05:40:07:787,-1.38695,1.93531,-9.5284,-10.7321,-7.27336,79.4819
2023-02-16 05:40:07:797,-1.23155,1.91427,-9.52172,-10.7386,-7.15997,79.4421
2023-02-16 05:40:07:807,-1.1184,1.89535,-9.51752,-10.7468,-7.04862,79.3981
2023-02-16 05:40:07:817,-1.05425,1.88323,-9.54386,-10.758,-6.94432,79.3551
2023-02-16 05:40:07:827,-1.01372,1.89194,-9.61307,-10.7701,-6.84738,79.3127
2023-02-16 05:40:07:836,-0.993266,1.90994,-9.64908,-10.7769,-6.75021,79.2744
2023-02-16 05:40:07:847,-0.98289,1.9259,-9.66907,-10.7816,-6.65976,79.2393
2023-02-16 05:40:07:857,-1.02174,1.93621,-9.67132,-10.7761,-6.57567,79.2041
2023-02-16 05:40:07:867,-1.10531,1.92739,-9.64719,-10.7655,-6.49232,79.1721
2023-02-16 05:40:07:877,-1.11834,1.90448,-9.6122,-10.7481,-6.40947,79.1331
2023-02-16 05:40:07:887,-1.06066,1.87027,-9.5723,-10.7313,-6.32965,79.0942
2023-02-16 05:40:07:897,-0.994368,1.83748,-9.55383,-10.7171,-6.25565,79.0534
2023-02-16 05:40:07:907,-0.915817,1.80765,-9.53916,-10.7021,-6.18821,79.0155
2023-02-16 05:40:07:917,-0.79829,1.78788,-9.52057,-10.69,-6.13178,78.98
2023-02-16 05:40:07:927,-0.701348,1.78512,-9.55192,-10.6858,-6.08188,78.9507
2023-02-16 05:40:07:937,-0.682563,1.79766,-9.57977,-10.6859,-6.04388,78.934
2023-02-16 05:40:07:947,-0.746791,1.8096,-9.59734,-10.6834,-6.00821,78.9261
2023-02-16 05:40:07:957,-0.781064,1.81658,-9.61495,-10.6817,-5.97075,78.9309
2023-02-16 05:40:07:967,-0.813609,1.81491,-9.61242,-10.6749,-5.93101,78.9401
2023-02-16 05:40:07:976,-0.836932,1.80207,-9.5906,-10.6668,-5.89231,78.9558
2023-02-16 05:40:07:986,-0.84864,1.79147,-9.57289,-10.6585,-5.85147,78.9776
2023-02-16 05:40:07:996,-0.833048,1.74872,-9.5446,-10.6497,-5.81007,79.0019
2023-02-16 05:40:08:6,-0.829743,1.74719,-9.55542,-10.6446,-5.7716,79.0356
2023-02-16 05:40:08:16,-0.83909,1.74289,-9.55092,-10.6459,-5.73719,79.0745
2023-02-16 05:40:08:26,-0.858981,1.71996,-9.5196,-10.6467,-5.70956,79.1234
2023-02-16 05:40:08:36,-0.890018,1.71875,-9.49743,-10.6526,-5.68458,79.1747
2023-02-16 05:40:08:47,-0.942525,1.73924,-9.48896,-10.666,-5.65631,79.2287
2023-02-16 05:40:08:57,-0.9725,1.75296,-9.49561,-10.6814,-5.62377,79.2894
2023-02-16 05:40:08:67,-0.968575,1.78105,-9.52898,-10.7005,-5.58692,79.3524
2023-02-16 05:40:08:77,-0.967853,1.80209,-9.53353,-10.7191,-5.54145,79.4168
2023-02-16 05:40:08:87,-0.958868,1.81531,-9.54627,-10.736,-5.49231,79.4811
2023-02-16 05:40:08:97,-0.93122,1.8327,-9.56824,-10.756,-5.43623,79.5497
2023-02-16 05:40:08:107,-0.899549,1.85528,-9.59505,-10.7758,-5.37501,79.625
2023-02-16 05:40:08:117,-0.904621,1.88012,-9.59593,-10.7889,-5.30555,79.703
2023-02-16 05:40:08:127,-0.865861,1.88192,-9.5733,-10.7989,-5.22739,79.7925
2023-02-16 05:40:08:137,-0.821743,1.85441,-9.53645,-10.8059,-5.1455,79.8859
2023-02-16 05:40:08:147,-0.779594,1.85662,-9.5115,-10.8159,-5.05643,79.9859
2023-02-16 05:40:08:157,-0.735982,1.83811,-9.4923,-10.8278,-4.96119,80.0973
2023-02-16 05:40:08:167,-0.699576,1.84657,-9.51001,-10.8434,-4.85948,80.2167
2023-02-16 05:40:08:177,-0.727177,1.87846,-9.58366,-10.8593,-4.74765,80.3495
2023-02-16 05:40:08:186,-0.730243,1.90253,-9.67415,-10.8726,-4.62898,80.4898
2023-02-16 05:40:08:196,-0.70036,1.93088,-9.70975,-10.8792,-4.50303,80.6346
2023-02-16 05:40:08:207,-0.734546,1.98022,-9.74502,-10.8795,-4.37332,80.7901
2023-02-16 05:40:08:217,-0.773866,2.01916,-9.76566,-10.8749,-4.23865,80.9499
2023-02-16 05:40:08:227,-0.75508,2.0236,-9.72304,-10.8626,-4.09537,81.112
2023-02-16 05:40:08:237,-0.742006,2.01577,-9.65756,-10.8442,-3.94859,81.2809
2023-02-16 05:40:08:246,-0.737063,2.00678,-9.61707,-10.817,-3.79364,81.4549
2023-02-16 05:40:08:257,-0.725796,1.97448,-9.55526,-10.7849,-3.63148,81.6309
2023-02-16 05:40:08:266,-0.706729,1.9495,-9.52125,-10.7579,-3.46115,81.8093
2023-02-16 05:40:08:277,-0.714989,1.93435,-9.53083,-10.727,-3.28663,81.9919
2023-02-16 05:40:08:287,-0.739347,1.94322,-9.53273,-10.6973,-3.10155,82.1745
2023-02-16 05:40:08:297,-0.773861,1.94175,-9.52359,-10.6595,-2.90838,82.3568
2023-02-16 05:40:08:307,-0.812445,1.91272,-9.52353,-10.6172,-2.70858,82.5322
2023-02-16 05:40:08:316,-0.795648,1.89287,-9.52084,-10.5778,-2.49554,82.7021
2023-02-16 05:40:08:327,-0.762497,1.87627,-9.52184,-10.5373,-2.27693,82.8679
2023-02-16 05:40:08:337,-0.7709,1.86953,-9.54371,-10.5003,-2.05167,83.0249
2023-02-16 05:40:08:347,-0.747809,1.86026,-9.56192,-10.4608,-1.82048,83.17
2023-02-16 05:40:08:357,-0.696794,1.84416,-9.57228,-10.4172,-1.58224,83.3076
2023-02-16 05:40:08:367,-0.653654,1.82106,-9.56604,-10.3731,-1.329,83.4373
2023-02-16 05:40:08:376,-0.62948,1.80546,-9.57311,-10.3263,-1.07063,83.5609
2023-02-16 05:40:08:387,-0.590221,1.78663,-9.55403,-10.2794,-0.800547,83.679
2023-02-16 05:40:08:397,-0.542712,1.76413,-9.5221,-10.2286,-0.514308,83.7998
2023-02-16 05:40:08:407,-0.514863,1.74216,-9.48333,-10.1815,-0.212232,83.9154
2023-02-16 05:40:08:417,-0.50279,1.69793,-9.40927,-10.137,0.110471,84.0306
2023-02-16 05:40:08:427,-0.485401,1.65934,-9.34182,-10.0953,0.452221,84.1467
2023-02-16 05:40:08:437,-0.473236,1.63202,-9.32947,-10.0561,0.815757,84.2613
2023-02-16 05:40:08:447,-0.474809,1.61125,-9.29811,-10.0223,1.20384,84.3756
2023-02-16 05:40:08:457,-0.413515,1.57388,-9.25117,-9.99468,1.61709,84.48
2023-02-16 05:40:08:467,-0.323384,1.55374,-9.22879,-9.97103,2.05375,84.5829
2023-02-16 05:40:08:477,-0.260119,1.55413,-9.2435,-9.95494,2.51516,84.6892
2023-02-16 05:40:08:487,-0.151899,1.5533,-9.31613,-9.9426,3.00212,84.791
2023-02-16 05:40:08:496,0.0745937,1.56626,-9.43542,-9.93016,3.5165,84.8955
2023-02-16 05:40:08:506,0.274332,1.56241,-9.49981,-9.91508,4.05029,85.0136
2023-02-16 05:40:08:516,0.320482,1.55163,-9.44472,-9.89106,4.60788,85.1466
2023-02-16 05:40:08:527,0.276859,1.51387,-9.32754,-9.86063,5.19044,85.2902
2023-02-16 05:40:08:536,0.242823,1.48413,-9.22315,-9.83144,5.80883,85.4449
2023-02-16 05:40:08:547,0.242685,1.47611,-9.1396,-9.7994,6.46704,85.6075
2023-02-16 05:40:08:557,0.200593,1.47385,-9.05726,-9.77355,7.16355,85.7737
2023-02-16 05:40:08:567,0.241509,1.44054,-9.01207,-9.75179,7.90548,85.931
2023-02-16 05:40:08:577,0.429484,1.44652,-9.0161,-9.73285,8.68193,86.0774
2023-02-16 05:40:08:587,0.649716,1.45849,-9.03566,-9.71272,9.48398,86.2173
2023-02-16 05:40:08:597,0.885489,1.46161,-9.0719,-9.69327,10.3141,86.3548
2023-02-16 05:40:08:607,1.10567,1.47037,-9.11214,-9.66551,11.1773,86.4944
2023-02-16 05:40:08:617,1.17409,1.4484,-9.00284,-9.61894,12.0831,86.6445
2023-02-16 05:40:08:627,1.2252,1.37577,-8.81895,-9.56114,13.0377,86.7977
2023-02-16 05:40:08:636,1.37734,1.32127,-8.66022,-9.49593,14.0406,86.9481
2023-02-16 05:40:08:646,1.51853,1.28579,-8.50902,-9.42935,15.0838,87.0906
2023-02-16 05:40:08:657,1.65263,1.2368,-8.37245,-9.3696,16.1681,87.2221
2023-02-16 05:40:08:667,1.87993,1.22291,-8.30537,-9.32641,17.2883,87.3391
2023-02-16 05:40:08:677,2.19639,1.23504,-8.31027,-9.2925,18.4389,87.4448
2023-02-16 05:40:08:687,2.51086,1.24616,-8.28942,-9.26641,19.6137,87.537
2023-02-16 05:40:08:696,2.69727,1.26021,-8.20476,-9.23734,20.8136,87.6333
2023-02-16 05:40:08:707,2.70944,1.24766,-8.03521,-9.20486,22.0357,87.7229
2023-02-16 05:40:08:716,2.66113,1.24236,-7.78487,-9.1791,23.293,87.8023
2023-02-16 05:40:08:727,2.7715,1.21894,-7.63731,-9.16804,24.5863,87.8549
2023-02-16 05:40:08:737,3.08807,1.24753,-7.71063,-9.17521,25.9027,87.8737
2023-02-16 05:40:08:747,3.423,1.30912,-7.86311,-9.19202,27.2359,87.868
2023-02-16 05:40:08:757,3.83603,1.35043,-7.96591,-9.20773,28.5769,87.83
2023-02-16 05:40:08:767,4.1628,1.33869,-7.84574,-9.22104,29.9108,87.7579
2023-02-16 05:40:08:777,4.37625,1.28201,-7.58806,-9.24204,31.2376,87.6484
2023-02-16 05:40:08:787,4.56286,1.31014,-7.29879,-9.28961,32.5556,87.486
2023-02-16 05:40:08:797,4.68019,1.38543,-7.00588,-9.37714,33.8649,87.26
2023-02-16 05:40:08:807,4.79243,1.45162,-6.75684,-9.51584,35.1688,86.9543
2023-02-16 05:40:08:816,5.11068,1.48836,-6.79257,-9.72446,36.4671,86.5595
2023-02-16 05:40:08:827,5.83857,1.60712,-7.17246,-10.0005,37.7467,86.0715
2023-02-16 05:40:08:836,6.83016,1.70482,-7.58445,-10.2993,38.9791,85.5215
2023-02-16 05:40:08:847,7.74704,1.755,-7.78263,-10.5957,40.1493,84.929
2023-02-16 05:40:08:857,8.31448,1.77713,-7.61848,-10.8574,41.2481,84.3301
2023-02-16 05:40:08:867,8.51031,1.68448,-7.12889,-11.1104,42.2661,83.716
2023-02-16 05:40:08:877,8.58005,1.60389,-6.69129,-11.387,43.2121,83.0818
2023-02-16 05:40:08:887,8.66687,1.58954,-6.47909,-11.7135,44.0707,82.4147
2023-02-16 05:40:08:897,8.93687,1.6161,-6.54339,-12.112,44.8387,81.6974
2023-02-16 05:40:08:907,9.47506,1.71007,-6.84221,-12.5624,45.5038,80.9487
2023-02-16 05:40:08:917,10.0579,1.78374,-7.04076,-13.0155,46.0525,80.1993
2023-02-16 05:40:08:927,10.4771,1.77824,-6.99787,-13.441,46.4918,79.4789
2023-02-16 05:40:08:937,10.6175,1.79866,-6.83314,-13.8191,46.8371,78.8193
2023-02-16 05:40:08:947,10.4738,1.82014,-6.67139,-14.1408,47.1035,78.2361
2023-02-16 05:40:08:957,10.2148,1.86146,-6.63156,-14.4166,47.3055,77.7254
2023-02-16 05:40:08:967,9.98428,1.90631,-6.58198,-14.6526,47.4494,77.2687
2023-02-16 05:40:08:977,10.0565,1.8364,-6.55642,-14.8401,47.5361,76.8769
2023-02-16 05:40:08:987,10.3127,1.81667,-6.64372,-14.976,47.5626,76.5541
2023-02-16 05:40:08:997,10.4659,1.84127,-6.758,-15.0303,47.5316,76.3337
2023-02-16 05:40:09:7,10.3765,1.84827,-6.80159,-14.9889,47.4511,76.2235
2023-02-16 05:40:09:17,10.0421,1.8534,-6.67922,-14.8604,47.3343,76.2118
2023-02-16 05:40:09:27,9.54711,1.79111,-6.42329,-14.6798,47.1766,76.2642
2023-02-16 05:40:09:36,9.05062,1.69677,-6.16516,-14.4827,46.9805,76.3546
2023-02-16 05:40:09:46,8.8049,1.61351,-6.06171,-14.3065,46.7378,76.4485
2023-02-16 05:40:09:56,8.99708,1.60614,-6.24847,-14.1653,46.438,76.5389
2023-02-16 05:40:09:66,9.39093,1.65972,-6.57716,-14.0271,46.0714,76.6449
2023-02-16 05:40:09:76,9.52629,1.72258,-6.85352,-13.8691,45.6309,76.7915
2023-02-16 05:40:09:87,9.2201,1.77677,-6.96065,-13.6845,45.1235,76.9812
2023-02-16 05:40:09:97,8.77453,1.80865,-7.01095,-13.4947,44.5383,77.1814
2023-02-16 05:40:09:107,8.51865,1.80673,-7.02791,-13.3239,43.8827,77.3659
2023-02-16 05:40:09:116,8.57254,1.78144,-7.0048,-13.1859,43.1482,77.5204
2023-02-16 05:40:09:127,8.84921,1.81152,-7.12202,-13.0745,42.3259,77.6593
2023-02-16 05:40:09:137,8.87031,1.94351,-7.34683,-12.9672,41.4108,77.8055
2023-02-16 05:40:09:147,8.34915,2.0632,-7.46218,-12.8506,40.4128,77.9641
2023-02-16 05:40:09:157,7.64749,2.1165,-7.52696,-12.7313,39.3451,78.1178
2023-02-16 05:40:09:167,7.29798,2.13027,-7.67555,-12.6311,38.2099,78.2314
2023-02-16 05:40:09:177,7.48378,2.1269,-7.85261,-12.5468,36.9986,78.3139
2023-02-16 05:40:09:187,7.76073,2.10044,-7.99162,-12.4555,35.6996,78.3844
2023-02-16 05:40:09:197,7.60577,2.16224,-8.08812,-12.3475,34.3162,78.4694
2023-02-16 05:40:09:207,6.9031,2.20351,-8.07093,-12.2009,32.8675,78.5825
2023-02-16 05:40:09:216,6.00125,2.15944,-7.92292,-12.044,31.3644,78.6942
2023-02-16 05:40:09:226,5.26155,2.09244,-7.81553,-11.8911,29.8123,78.7829
2023-02-16 05:40:09:236,4.84738,2.02964,-7.74444,-11.76,28.2204,78.83
2023-02-16 05:40:09:246,4.72004,1.92738,-7.66906,-11.6448,26.5943,78.8438
2023-02-16 05:40:09:257,4.42567,1.83573,-7.57172,-11.5386,24.9285,78.8458
2023-02-16 05:40:09:266,3.75805,1.74919,-7.42464,-11.4428,23.2367,78.8379
2023-02-16 05:40:09:277,3.02404,1.69851,-7.39441,-11.3797,21.5256,78.8038
2023-02-16 05:40:09:287,2.52537,1.69982,-7.52727,-11.3532,19.7946,78.7255
2023-02-16 05:40:09:296,2.26519,1.65233,-7.61051,-11.3554,18.0449,78.599
2023-02-16 05:40:09:307,2.0921,1.54453,-7.61603,-11.3753,16.289,78.4361
