Timestamp,Acceleration_x,Acceleration_y,Acceleration_z,roll,pitch,yaw
2023-02-15 04:53:49:825,-1.54537,15.9468,-54.7686,-16.2717,-2.54942,97.5228
2023-02-15 04:53:49:833,-1.47793,15.8956,-54.7833,-16.2528,-2.53829,97.513
2023-02-15 04:53:49:843,-1.43665,15.8234,-54.7909,-16.2367,-2.52244,97.5084
2023-02-15 04:53:49:854,-1.3901,15.7771,-54.7712,-16.22,-2.50674,97.5109
2023-02-15 04:53:49:864,-1.41183,15.7771,-54.6543,-16.2076,-2.49366,97.5184
2023-02-15 04:53:49:874,-1.57252,15.8263,-54.5309,-16.1958,-2.48398,97.5327
2023-02-15 04:53:49:884,-1.7498,15.7789,-54.6399,-16.1852,-2.48209,97.5491
2023-02-15 04:53:49:894,-2.02325,15.8116,-54.705,-16.1767,-2.48888,97.5665
2023-02-15 04:53:49:904,-2.46487,15.8471,-54.8126,-16.168,-2.50017,97.5883
2023-02-15 04:53:49:914,-2.95408,15.9604,-54.9338,-16.1583,-2.51772,97.6078
2023-02-15 04:53:49:923,-3.23066,15.9935,-55.1109,-16.1478,-2.53834,97.6236
2023-02-15 04:53:49:933,-3.34941,16.0238,-55.1905,-16.1341,-2.55882,97.6318
2023-02-15 04:53:49:943,-3.41337,15.8951,-55.1028,-16.1151,-2.57859,97.635
2023-02-15 04:53:49:953,-3.28293,15.7925,-54.9784,-16.0924,-2.59664,97.6304
2023-02-15 04:53:49:963,-3.08178,15.7237,-54.8539,-16.0739,-2.61107,97.6226
2023-02-15 04:53:49:974,-2.97604,15.644,-54.8693,-16.0537,-2.62392,97.6084
2023-02-15 04:53:49:984,-2.90713,15.5976,-54.8741,-16.0335,-2.63507,97.5896
2023-02-15 04:53:49:993,-2.83877,15.595,-54.7822,-16.0119,-2.6477,97.5695
2023-02-15 04:53:50:3,-2.82552,15.5067,-54.7189,-15.9905,-2.65655,97.5483
2023-02-15 04:53:50:14,-3.05976,15.4739,-54.7612,-15.9683,-2.66556,97.524
2023-02-15 04:53:50:24,-3.37113,15.6124,-54.7828,-15.9475,-2.67307,97.4977
2023-02-15 04:53:50:33,-3.70156,15.619,-54.6309,-15.9274,-2.68218,97.4653
2023-02-15 04:53:50:43,-3.73324,15.4803,-54.4467,-15.9086,-2.69039,97.4221
2023-02-15 04:53:50:53,-4.02872,15.4338,-54.1957,-15.8929,-2.70111,97.3714
2023-02-15 04:53:50:63,-4.4823,15.5,-53.9845,-15.8807,-2.7127,97.3091
2023-02-15 04:53:50:73,-4.96845,15.5871,-53.9656,-15.8771,-2.7247,97.2339
2023-02-15 04:53:50:83,-5.2118,15.6956,-54.1605,-15.8809,-2.74135,97.1411
2023-02-15 04:53:50:94,-5.61787,15.838,-54.333,-15.8884,-2.75563,97.0275
2023-02-15 04:53:50:103,-6.12538,16.028,-54.5782,-15.8985,-2.77165,96.8931
2023-02-15 04:53:50:114,-6.38399,16.0085,-54.6556,-15.9055,-2.78715,96.7321
2023-02-15 04:53:50:124,-6.32545,16.0612,-54.7054,-15.9104,-2.80218,96.5428
2023-02-15 04:53:50:134,-5.7966,16.0768,-54.7124,-15.9161,-2.81345,96.325
2023-02-15 04:53:50:144,-5.01988,15.9784,-54.7475,-15.9266,-2.82433,96.081
2023-02-15 04:53:50:154,-4.14628,15.8938,-54.8293,-15.9293,-2.8344,95.8181
2023-02-15 04:53:50:164,-3.08309,15.8145,-55.0226,-15.9335,-2.84463,95.5429
2023-02-15 04:53:50:174,-2.03002,15.7892,-55.2646,-15.9368,-2.85101,95.2637
2023-02-15 04:53:50:184,-1.38767,15.8004,-55.3145,-15.9389,-2.85823,94.9859
2023-02-15 04:53:50:194,-1.21034,15.7081,-55.1978,-15.9387,-2.86552,94.7196
2023-02-15 04:53:50:204,-1.19622,15.6158,-54.9507,-15.9339,-2.86925,94.4646
2023-02-15 04:53:50:214,-1.10037,15.5559,-54.8185,-15.9299,-2.87178,94.2203
2023-02-15 04:53:50:224,-1.11994,15.6721,-54.6979,-15.9274,-2.86882,93.9887
2023-02-15 04:53:50:233,-1.11046,15.6888,-54.5411,-15.9279,-2.86712,93.7705
2023-02-15 04:53:50:244,-0.96995,15.6704,-54.5719,-15.9277,-2.86123,93.566
2023-02-15 04:53:50:254,-0.677913,15.8138,-54.7673,-15.9323,-2.85444,93.3717
2023-02-15 04:53:50:264,-0.339416,15.8648,-54.9879,-15.9357,-2.8428,93.1945
2023-02-15 04:53:50:274,-0.119636,15.879,-55.3969,-15.9376,-2.83004,93.0328
2023-02-15 04:53:50:284,-0.060045,15.9764,-55.6528,-15.939,-2.81415,92.8891
2023-02-15 04:53:50:294,-0.0290704,16.025,-55.5542,-15.9324,-2.79982,92.768
2023-02-15 04:53:50:304,0.0870732,15.935,-55.5052,-15.9273,-2.78064,92.6609
2023-02-15 04:53:50:313,0.143135,15.7724,-55.4978,-15.9156,-2.7587,92.5754
2023-02-15 04:53:50:324,-0.0545151,15.7194,-55.4367,-15.8975,-2.74098,92.5095
2023-02-15 04:53:50:334,-0.227316,15.6695,-55.4484,-15.8794,-2.72381,92.4625
2023-02-15 04:53:50:344,-0.58781,15.4744,-55.6562,-15.8556,-2.70764,92.431
2023-02-15 04:53:50:354,-1.07172,15.4066,-55.8471,-15.8289,-2.69485,92.4163
2023-02-15 04:53:50:364,-1.58265,15.3731,-55.974,-15.7995,-2.68066,92.4108
2023-02-15 04:53:50:374,-1.81147,15.1953,-55.9119,-15.7603,-2.66966,92.4114
2023-02-15 04:53:50:384,-1.98969,15.0298,-55.6709,-15.7203,-2.6635,92.4212
2023-02-15 04:53:50:394,-2.30049,14.9147,-55.38,-15.679,-2.66711,92.428
2023-02-15 04:53:50:404,-2.68275,14.8043,-55.1511,-15.6401,-2.67713,92.4382
2023-02-15 04:53:50:414,-2.94303,14.7144,-55.0654,-15.6009,-2.69157,92.4431
2023-02-15 04:53:50:424,-3.04445,14.6504,-54.906,-15.5646,-2.70596,92.4414
2023-02-15 04:53:50:434,-3.03517,14.5927,-54.9143,-15.5256,-2.72114,92.4348
2023-02-15 04:53:50:444,-2.93269,14.6083,-54.9036,-15.4878,-2.73772,92.4235
2023-02-15 04:53:50:454,-2.66258,14.4756,-54.9874,-15.4533,-2.75598,92.4083
2023-02-15 04:53:50:464,-2.55304,14.3686,-54.8916,-15.416,-2.77806,92.3901
2023-02-15 04:53:50:474,-2.55157,14.2786,-54.8271,-15.3756,-2.79511,92.3693
2023-02-15 04:53:50:484,-2.4688,14.2683,-54.7677,-15.3396,-2.813,92.3512
2023-02-15 04:53:50:494,-2.49102,14.2055,-54.8388,-15.307,-2.82837,92.3331
2023-02-15 04:53:50:504,-2.47638,14.1051,-54.791,-15.2721,-2.84259,92.3161
2023-02-15 04:53:50:514,-2.41857,14.064,-54.7648,-15.2392,-2.84958,92.3
2023-02-15 04:53:50:524,-2.37713,14.0481,-54.8311,-15.212,-2.85448,92.2834
2023-02-15 04:53:50:534,-2.23448,14.0846,-54.8471,-15.1903,-2.85563,92.2683
2023-02-15 04:53:50:544,-2.17458,14.0655,-54.6445,-15.173,-2.85383,92.2594
2023-02-15 04:53:50:554,-2.2198,14.1254,-54.538,-15.1629,-2.85209,92.2504
2023-02-15 04:53:50:564,-2.1431,14.2825,-54.5254,-15.161,-2.85106,92.242
2023-02-15 04:53:50:574,-2.11029,14.3494,-54.5489,-15.1641,-2.85312,92.2393
2023-02-15 04:53:50:584,-1.99966,14.4326,-54.5253,-15.1731,-2.85417,92.2412
2023-02-15 04:53:50:594,-1.89149,14.4818,-54.4156,-15.1871,-2.85166,92.2476
2023-02-15 04:53:50:604,-1.85604,14.5815,-54.4939,-15.2025,-2.85201,92.2559
2023-02-15 04:53:50:614,-1.9495,14.7876,-54.7549,-15.2264,-2.85131,92.2688
2023-02-15 04:53:50:624,-2.26216,14.985,-54.9704,-15.2496,-2.85072,92.286
2023-02-15 04:53:50:634,-2.35384,15.1811,-55.0577,-15.2726,-2.84467,92.311
2023-02-15 04:53:50:644,-2.29959,15.2893,-55.1941,-15.2927,-2.83833,92.336
2023-02-15 04:53:50:654,-2.25448,15.3289,-55.291,-15.3157,-2.83674,92.3645
2023-02-15 04:53:50:664,-2.19234,15.2988,-55.0562,-15.3343,-2.84372,92.3908
2023-02-15 04:53:50:675,-2.1967,15.2558,-54.9136,-15.3551,-2.84801,92.4159
2023-02-15 04:53:50:683,-2.24144,15.2982,-54.7643,-15.3788,-2.8553,92.4435
2023-02-15 04:53:50:693,-1.98668,15.3803,-54.8348,-15.408,-2.86191,92.4755
2023-02-15 04:53:50:703,-2.07551,15.6113,-55.0813,-15.441,-2.86936,92.51
2023-02-15 04:53:50:713,-2.57355,15.8067,-55.1801,-15.4717,-2.87979,92.548
2023-02-15 04:53:50:723,-3.08633,15.9199,-55.1786,-15.5013,-2.89007,92.5885
2023-02-15 04:53:50:733,-3.41132,15.9542,-55.0354,-15.5272,-2.90415,92.6241
2023-02-15 04:53:50:744,-3.45176,15.8015,-54.7737,-15.5529,-2.92892,92.6539
2023-02-15 04:53:50:754,-3.34894,15.6972,-54.5028,-15.5813,-2.95881,92.6779
2023-02-15 04:53:50:763,-3.08177,15.7493,-54.4542,-15.6061,-2.99551,92.6911
2023-02-15 04:53:50:773,-2.76578,15.8206,-54.5864,-15.6308,-3.03299,92.6974
2023-02-15 04:53:50:784,-2.49708,15.8572,-54.7189,-15.656,-3.06637,92.7053
2023-02-15 04:53:50:794,-2.03559,15.8901,-54.9161,-15.6806,-3.09858,92.7122
2023-02-15 04:53:50:804,-1.57985,15.9035,-55.2089,-15.707,-3.12402,92.7302
2023-02-15 04:53:50:814,-1.23759,15.9657,-55.4254,-15.7306,-3.14333,92.7572
2023-02-15 04:53:50:823,-1.00563,16.0348,-55.5354,-15.7575,-3.16398,92.8009
2023-02-15 04:53:50:834,-0.876057,16.1072,-55.6363,-15.782,-3.18153,92.8604
2023-02-15 04:53:50:844,-1.09864,16.2456,-55.6033,-15.8005,-3.19512,92.9379
2023-02-15 04:53:50:854,-1.46937,16.3297,-55.561,-15.8153,-3.20763,93.0364
2023-02-15 04:53:50:864,-2.00043,16.3142,-55.4652,-15.8219,-3.21858,93.1495
2023-02-15 04:53:50:874,-2.37479,16.2598,-55.2679,-15.8222,-3.23009,93.2756
2023-02-15 04:53:50:884,-2.70192,16.2114,-54.9682,-15.8184,-3.24126,93.4093
2023-02-15 04:53:50:894,-2.92863,16.0543,-54.788,-15.8108,-3.2549,93.5495
2023-02-15 04:53:50:904,-3.11837,15.961,-54.8396,-15.8032,-3.26479,93.6921
2023-02-15 04:53:50:914,-3.12501,15.9646,-54.9084,-15.7947,-3.27611,93.8361
2023-02-15 04:53:50:924,-3.22855,15.881,-54.9264,-15.7844,-3.29322,93.9803
2023-02-15 04:53:50:934,-3.50069,15.8541,-54.9993,-15.7699,-3.31087,94.1233
2023-02-15 04:53:50:944,-3.71019,15.9343,-55.1556,-15.7584,-3.32536,94.2678
2023-02-15 04:53:50:954,-3.92024,15.8755,-55.1232,-15.7439,-3.34372,94.4128
2023-02-15 04:53:50:964,-4.05042,15.8226,-55.1557,-15.7251,-3.35608,94.5497
2023-02-15 04:53:50:974,-4.05378,15.7632,-55.0856,-15.7024,-3.36614,94.6851
2023-02-15 04:53:50:984,-4.09693,15.6742,-54.9594,-15.6789,-3.37362,94.8169
2023-02-15 04:53:50:993,-4.01764,15.5694,-54.8164,-15.656,-3.37968,94.9404
2023-02-15 04:53:51:3,-3.9263,15.4578,-54.7035,-15.6293,-3.38846,95.0581
2023-02-15 04:53:51:14,-3.99994,15.3443,-54.6452,-15.606,-3.39868,95.1711
2023-02-15 04:53:51:23,-4.42675,15.4537,-54.6612,-15.5854,-3.40343,95.2762
2023-02-15 04:53:51:33,-4.63864,15.4642,-54.6246,-15.5677,-3.41416,95.376
2023-02-15 04:53:51:43,-4.70385,15.4092,-54.5245,-15.5512,-3.4305,95.4614
2023-02-15 04:53:51:54,-4.81574,15.3798,-54.6128,-15.5378,-3.44902,95.5378
2023-02-15 04:53:51:64,-4.82532,15.4618,-54.6249,-15.5209,-3.46909,95.5979
2023-02-15 04:53:51:73,-4.81311,15.4594,-54.6303,-15.5109,-3.49567,95.6471
2023-02-15 04:53:51:83,-4.78087,15.3803,-54.6663,-15.4976,-3.52383,95.6867
2023-02-15 04:53:51:93,-4.6779,15.4276,-54.6899,-15.4896,-3.55786,95.7197
2023-02-15 04:53:51:104,-4.48296,15.4303,-54.7721,-15.4837,-3.59415,95.7435
2023-02-15 04:53:51:114,-4.24314,15.3959,-54.9282,-15.4815,-3.62758,95.758
2023-02-15 04:53:51:124,-4.11997,15.4572,-55.1371,-15.4722,-3.66254,95.7682
2023-02-15 04:53:51:134,-4.09678,15.503,-55.2045,-15.4655,-3.69288,95.7743
2023-02-15 04:53:51:144,-4.25971,15.4409,-55.2257,-15.4522,-3.72298,95.7844
2023-02-15 04:53:51:154,-4.18051,15.3191,-55.1097,-15.4391,-3.74891,95.791
2023-02-15 04:53:51:164,-4.05112,15.2797,-54.9386,-15.4234,-3.7731,95.8008
2023-02-15 04:53:51:174,-4.05726,15.2249,-54.9886,-15.4025,-3.79577,95.8101
2023-02-15 04:53:51:184,-4.04992,15.1596,-55.0049,-15.3814,-3.81267,95.8185
2023-02-15 04:53:51:194,-4.10183,15.0518,-55.1272,-15.3593,-3.82673,95.8292
2023-02-15 04:53:51:204,-4.05493,15.0521,-55.2686,-15.3349,-3.83527,95.839
2023-02-15 04:53:51:214,-4.04472,14.9557,-55.4984,-15.3052,-3.84191,95.8492
2023-02-15 04:53:51:224,-3.98237,14.9183,-55.4893,-15.2762,-3.84322,95.8581
2023-02-15 04:53:51:234,-3.90269,14.8082,-55.4251,-15.2454,-3.84202,95.8703
2023-02-15 04:53:51:244,-3.96306,14.6208,-55.3566,-15.2118,-3.83708,95.8801
2023-02-15 04:53:51:254,-3.98672,14.4367,-55.0864,-15.1767,-3.83084,95.8897
2023-02-15 04:53:51:263,-3.8642,14.2948,-54.724,-15.1453,-3.8242,95.8983
2023-02-15 04:53:51:274,-3.55268,14.0982,-54.4074,-15.1198,-3.81132,95.9066
2023-02-15 04:53:51:287,-3.34543,14.0671,-54.2533,-15.0974,-3.79483,95.9168
2023-02-15 04:53:51:293,-3.18368,14.1039,-54.2267,-15.0801,-3.77781,95.9255
2023-02-15 04:53:51:303,-3.08488,14.1341,-54.3883,-15.069,-3.75962,95.935
2023-02-15 04:53:51:313,-3.18321,14.2656,-54.4757,-15.0641,-3.74305,95.9499
2023-02-15 04:53:51:324,-3.24619,14.3198,-54.5498,-15.0626,-3.72198,95.965
2023-02-15 04:53:51:334,-3.21233,14.3627,-54.7051,-15.0629,-3.70585,95.984
2023-02-15 04:53:51:344,-3.14183,14.3362,-54.8589,-15.0669,-3.68863,96.0047
2023-02-15 04:53:51:354,-3.23236,14.4072,-54.8355,-15.0772,-3.67137,96.0276
2023-02-15 04:53:51:364,-3.28312,14.4656,-55.0351,-15.0863,-3.65629,96.0561
2023-02-15 04:53:51:374,-3.20386,14.6634,-55.2179,-15.1029,-3.64029,96.0812
2023-02-15 04:53:51:384,-3.25622,14.831,-55.4223,-15.1159,-3.62501,96.1034
2023-02-15 04:53:51:394,-3.42231,14.8186,-55.3816,-15.1256,-3.61137,96.1306
2023-02-15 04:53:51:404,-3.5775,14.9889,-55.2983,-15.1363,-3.59932,96.1568
2023-02-15 04:53:51:414,-3.60127,15.0164,-55.2479,-15.1492,-3.58924,96.1802
2023-02-15 04:53:51:424,-3.74881,15.066,-55.1275,-15.1585,-3.57954,96.1975
2023-02-15 04:53:51:434,-3.79474,15.1422,-54.8475,-15.1707,-3.573,96.2119
2023-02-15 04:53:51:444,-3.85801,15.0736,-54.6899,-15.1818,-3.57063,96.2209
2023-02-15 04:53:51:454,-3.94029,15.1791,-54.8571,-15.1935,-3.56689,96.2232
2023-02-15 04:53:51:464,-3.71377,15.281,-54.9747,-15.2061,-3.56463,96.2201
2023-02-15 04:53:51:474,-3.45104,15.2347,-55.0295,-15.2162,-3.55665,96.2132
2023-02-15 04:53:51:484,-3.11374,15.2604,-55.1199,-15.2241,-3.54914,96.2048
2023-02-15 04:53:51:494,-2.94896,15.271,-55.274,-15.2316,-3.54673,96.1923
2023-02-15 04:53:51:504,-2.98848,15.2356,-55.3048,-15.2384,-3.54698,96.1811
2023-02-15 04:53:51:514,-3.1418,15.2478,-55.2975,-15.2433,-3.55115,96.1746
2023-02-15 04:53:51:524,-3.33357,15.2794,-55.2648,-15.2453,-3.55367,96.169
2023-02-15 04:53:51:534,-3.43786,15.262,-55.2608,-15.2487,-3.55539,96.1664
2023-02-15 04:53:51:544,-3.47539,15.3073,-55.3432,-15.247,-3.55515,96.162
2023-02-15 04:53:51:554,-3.48453,15.3533,-55.3334,-15.2465,-3.5496,96.1571
2023-02-15 04:53:51:564,-3.54962,15.37,-55.2834,-15.243,-3.54929,96.1528
2023-02-15 04:53:51:574,-3.53084,15.3635,-55.2224,-15.235,-3.55114,96.1446
2023-02-15 04:53:51:583,-3.4031,15.2804,-55.2537,-15.226,-3.55109,96.1334
2023-02-15 04:53:51:594,-3.36837,15.1723,-55.1638,-15.2138,-3.54979,96.1241
2023-02-15 04:53:51:603,-3.33463,15.0359,-55.1644,-15.2031,-3.54523,96.1158
2023-02-15 04:53:51:613,-3.19235,15.0047,-55.0941,-15.1904,-3.54381,96.1055
2023-02-15 04:53:51:623,-3.14637,14.9169,-55.0524,-15.1754,-3.53984,96.096
2023-02-15 04:53:51:634,-3.08537,14.8781,-54.9727,-15.1567,-3.53712,96.0912
2023-02-15 04:53:51:643,-3.09942,14.8202,-55.014,-15.1398,-3.53472,96.087
2023-02-15 04:53:51:653,-3.14329,14.7092,-55.0647,-15.125,-3.53343,96.0805
2023-02-15 04:53:51:663,-3.1641,14.7373,-55.1206,-15.1104,-3.53092,96.0726
2023-02-15 04:53:51:673,-3.26788,14.7741,-55.1975,-15.0952,-3.53213,96.0703
2023-02-15 04:53:51:683,-3.27132,14.766,-55.1618,-15.0831,-3.53411,96.0685
2023-02-15 04:53:51:693,-3.33408,14.7535,-55.0753,-15.0691,-3.54019,96.0735
2023-02-15 04:53:51:703,-3.39813,14.69,-55.0785,-15.0568,-3.54165,96.0746
2023-02-15 04:53:51:713,-3.38058,14.6651,-55.0807,-15.0415,-3.54496,96.0762
2023-02-15 04:53:51:723,-3.32792,14.6444,-55.0336,-15.0299,-3.55138,96.0783
2023-02-15 04:53:51:734,-3.37849,14.6767,-54.9744,-15.0148,-3.55939,96.0856
2023-02-15 04:53:51:743,-3.47931,14.5992,-54.9403,-15.0047,-3.5657,96.0882
2023-02-15 04:53:51:753,-3.50507,14.5299,-54.859,-14.9969,-3.57039,96.0953
2023-02-15 04:53:51:763,-3.49369,14.5479,-54.8924,-14.9895,-3.57341,96.101
2023-02-15 04:53:51:773,-3.51353,14.4776,-54.8999,-14.9825,-3.57419,96.1077
2023-02-15 04:53:51:783,-3.48333,14.5353,-54.8877,-14.9806,-3.57411,96.1092
2023-02-15 04:53:51:794,-3.40892,14.5325,-55.0086,-14.9775,-3.57304,96.1164
2023-02-15 04:53:51:803,-3.34669,14.578,-55.1394,-14.9748,-3.56957,96.119
2023-02-15 04:53:51:814,-3.40056,14.6531,-55.2384,-14.9691,-3.56955,96.1255
2023-02-15 04:53:51:823,-3.52947,14.6836,-55.2225,-14.9645,-3.5695,96.131
2023-02-15 04:53:51:833,-3.61697,14.6652,-55.11,-14.9592,-3.57238,96.1391
2023-02-15 04:53:51:843,-3.62256,14.6536,-54.921,-14.9596,-3.57287,96.1426
2023-02-15 04:53:51:853,-3.46872,14.6193,-54.8755,-14.955,-3.57,96.1426
2023-02-15 04:53:51:863,-3.24461,14.4938,-54.817,-14.9548,-3.56836,96.139
2023-02-15 04:53:51:874,-3.06245,14.5237,-54.958,-14.9625,-3.56575,96.1376
2023-02-15 04:53:51:883,-2.86865,14.5611,-55.047,-14.9659,-3.56675,96.1346
2023-02-15 04:53:51:893,-2.80541,14.5184,-55.048,-14.9745,-3.56974,96.1352
2023-02-15 04:53:51:904,-2.93732,14.5064,-55.028,-14.9815,-3.57227,96.1371
2023-02-15 04:53:51:913,-2.97177,14.6137,-54.9608,-14.9904,-3.57661,96.1397
2023-02-15 04:53:51:924,-3.03035,14.7017,-54.9165,-15.0039,-3.58041,96.1456
2023-02-15 04:53:51:934,-3.2368,14.7525,-55.0043,-15.0133,-3.58652,96.1563
2023-02-15 04:53:51:944,-3.47831,14.861,-55.1438,-15.026,-3.59397,96.17
2023-02-15 04:53:51:954,-3.80543,15.069,-55.2026,-15.0394,-3.60059,96.1794
2023-02-15 04:53:51:964,-4.2457,15.2119,-55.2979,-15.0493,-3.61005,96.1887
2023-02-15 04:53:51:974,-4.61015,15.267,-55.2498,-15.0571,-3.61861,96.1945
2023-02-15 04:53:51:984,-4.9488,15.2351,-55.1626,-15.0593,-3.63273,96.1875
2023-02-15 04:53:51:994,-4.91176,15.1558,-55.1151,-15.0622,-3.64497,96.175
2023-02-15 04:53:52:3,-4.60854,14.9809,-55.0182,-15.0617,-3.65841,96.1502
2023-02-15 04:53:52:13,-4.43628,14.9671,-55.0066,-15.0626,-3.67333,96.1107
2023-02-15 04:53:52:24,-4.38155,14.9927,-55.1568,-15.0638,-3.6886,96.0657
2023-02-15 04:53:52:34,-4.513,15.0588,-55.2023,-15.0662,-3.70226,96.016
2023-02-15 04:53:52:44,-4.93202,14.9944,-55.2574,-15.0653,-3.71553,95.9565
2023-02-15 04:53:52:54,-5.26254,15.0104,-55.1102,-15.0639,-3.734,95.887
2023-02-15 04:53:52:64,-5.52654,14.9578,-54.8686,-15.0608,-3.7542,95.8015
2023-02-15 04:53:52:74,-5.67991,14.8404,-54.5864,-15.0638,-3.7764,95.7028
2023-02-15 04:53:52:84,-5.76876,14.7637,-54.2648,-15.0667,-3.79622,95.5929
2023-02-15 04:53:52:94,-5.49403,14.7545,-54.1324,-15.0732,-3.8178,95.4672
2023-02-15 04:53:52:104,-5.07791,14.7754,-54.1777,-15.0869,-3.8318,95.324
2023-02-15 04:53:52:114,-4.61091,14.8425,-54.497,-15.102,-3.84541,95.1706
2023-02-15 04:53:52:124,-4.17167,14.9458,-54.8072,-15.1167,-3.85871,95.0052
2023-02-15 04:53:52:134,-3.7186,14.9382,-54.9034,-15.1342,-3.8698,94.8324
2023-02-15 04:53:52:144,-3.2542,14.8381,-55.0809,-15.1535,-3.88291,94.661
2023-02-15 04:53:52:154,-2.97596,14.8814,-55.2516,-15.1745,-3.89334,94.495
2023-02-15 04:53:52:164,-2.76109,14.8499,-55.3429,-15.1915,-3.9041,94.3317
2023-02-15 04:53:52:174,-2.66076,14.8605,-55.3743,-15.2085,-3.90843,94.178
2023-02-15 04:53:52:184,-2.70226,15.0428,-55.4303,-15.2217,-3.90768,94.0327
2023-02-15 04:53:52:194,-2.79434,15.2291,-55.5798,-15.2349,-3.90438,93.8974
2023-02-15 04:53:52:204,-2.79091,15.2684,-55.5971,-15.2433,-3.89495,93.7707
2023-02-15 04:53:52:214,-2.67905,15.2354,-55.497,-15.2463,-3.88241,93.6538
2023-02-15 04:53:52:224,-2.43699,15.2548,-55.438,-15.2491,-3.86606,93.5455
2023-02-15 04:53:52:234,-2.08766,15.1818,-55.3088,-15.2498,-3.8524,93.4509
2023-02-15 04:53:52:244,-1.84575,15.1874,-55.2725,-15.2467,-3.83362,93.366
2023-02-15 04:53:52:254,-1.68139,15.1043,-55.1196,-15.2462,-3.81576,93.2952
2023-02-15 04:53:52:264,-1.63748,15.1083,-55.0873,-15.2438,-3.79557,93.2402
2023-02-15 04:53:52:274,-1.67619,15.1566,-55.2604,-15.2413,-3.76991,93.1988
2023-02-15 04:53:52:284,-1.63044,15.145,-55.2537,-15.2371,-3.74509,93.1706
2023-02-15 04:53:52:294,-1.75921,15.0205,-55.2835,-15.229,-3.71107,93.1562
2023-02-15 04:53:52:304,-1.7983,15.0392,-55.3458,-15.2174,-3.67681,93.1567
2023-02-15 04:53:52:314,-1.97827,14.9671,-55.2563,-15.2055,-3.64653,93.168
2023-02-15 04:53:52:324,-2.3345,14.8942,-55.0984,-15.1909,-3.62493,93.1894
2023-02-15 04:53:52:334,-2.61463,14.8927,-55.0898,-15.1782,-3.6055,93.2192
2023-02-15 04:53:52:344,-2.68924,15.0027,-55.2286,-15.1678,-3.59631,93.2515
2023-02-15 04:53:52:354,-2.67405,14.932,-55.3371,-15.1598,-3.58725,93.2869
2023-02-15 04:53:52:364,-2.58913,14.9205,-55.3089,-15.1481,-3.58088,93.329
2023-02-15 04:53:52:374,-2.458,14.8856,-55.4079,-15.1363,-3.57433,93.3699
2023-02-15 04:53:52:384,-2.3612,14.8533,-55.506,-15.1248,-3.57267,93.4144
2023-02-15 04:53:52:394,-2.26427,14.8949,-55.4029,-15.112,-3.57047,93.4675
2023-02-15 04:53:52:404,-2.42171,14.886,-55.268,-15.098,-3.57114,93.5278
2023-02-15 04:53:52:414,-2.52306,14.7881,-55.1952,-15.0789,-3.57638,93.5899
2023-02-15 04:53:52:424,-2.43029,14.629,-55.0564,-15.0587,-3.57992,93.6567
2023-02-15 04:53:52:434,-2.55186,14.5117,-54.9326,-15.041,-3.58541,93.732
2023-02-15 04:53:52:444,-2.71598,14.4951,-54.9493,-15.0219,-3.592,93.811
2023-02-15 04:53:52:454,-2.88132,14.4703,-54.8768,-15.0109,-3.60264,93.8965
2023-02-15 04:53:52:464,-3.07956,14.4671,-54.8528,-14.9984,-3.61165,93.9872
2023-02-15 04:53:52:474,-3.30346,14.5867,-54.8288,-14.9898,-3.62342,94.0779
2023-02-15 04:53:52:484,-3.35612,14.5707,-54.7788,-14.9818,-3.63563,94.1677
2023-02-15 04:53:52:494,-3.38931,14.6765,-54.8497,-14.9818,-3.65309,94.256
2023-02-15 04:53:52:504,-3.64728,14.6209,-54.878,-14.9803,-3.67099,94.3444
2023-02-15 04:53:52:514,-3.82816,14.6356,-54.7794,-14.983,-3.6918,94.4314
2023-02-15 04:53:52:524,-3.92577,14.7391,-54.7922,-14.9854,-3.71603,94.5132
2023-02-15 04:53:52:534,-4.12902,14.8251,-54.8655,-14.9928,-3.74338,94.5943
2023-02-15 04:53:52:544,-4.31372,14.8968,-54.8554,-14.9974,-3.77283,94.6697
2023-02-15 04:53:52:554,-4.45158,14.9901,-54.8497,-15.0045,-3.79977,94.7349
2023-02-15 04:53:52:564,-4.51029,15.0175,-54.9432,-15.0138,-3.83056,94.796
2023-02-15 04:53:52:574,-4.49925,15.0017,-54.9237,-15.0182,-3.85626,94.8522
2023-02-15 04:53:52:584,-4.44717,14.9779,-54.965,-15.0202,-3.88435,94.9053
2023-02-15 04:53:52:594,-4.44318,14.8594,-54.9659,-15.0251,-3.90856,94.9488
2023-02-15 04:53:52:604,-4.49573,14.8406,-54.9714,-15.0291,-3.9285,94.9927
2023-02-15 04:53:52:614,-4.43063,14.7554,-55.0101,-15.0378,-3.94895,95.0277
2023-02-15 04:53:52:624,-4.51761,14.8143,-54.9639,-15.0476,-3.96735,95.062
2023-02-15 04:53:52:634,-4.77504,14.8853,-54.9317,-15.0566,-3.98417,95.092
2023-02-15 04:53:52:644,-4.89671,14.9867,-54.9575,-15.0631,-4.00144,95.1137
2023-02-15 04:53:52:654,-4.88174,15.013,-55.0731,-15.0715,-4.02181,95.1293
2023-02-15 04:53:52:664,-4.8273,14.9465,-55.0776,-15.0759,-4.03641,95.1361
2023-02-15 04:53:52:674,-4.72712,14.8814,-55.0655,-15.0822,-4.05207,95.1387
2023-02-15 04:53:52:684,-4.52625,14.883,-55.0548,-15.0875,-4.06343,95.1297
2023-02-15 04:53:52:694,-4.32154,14.7796,-54.9924,-15.0934,-4.07491,95.1199
2023-02-15 04:53:52:704,-4.09286,14.7223,-54.8905,-15.1004,-4.08675,95.1054
2023-02-15 04:53:52:714,-3.90333,14.7427,-54.8698,-15.1021,-4.09704,95.0894
2023-02-15 04:53:52:724,-3.72039,14.7687,-54.9079,-15.1072,-4.11002,95.0713
2023-02-15 04:53:52:734,-3.65512,14.7937,-55.0259,-15.116,-4.11816,95.0572
2023-02-15 04:53:52:744,-3.68493,14.858,-55.1298,-15.1248,-4.12212,95.045
2023-02-15 04:53:52:754,-3.8009,14.9463,-55.2833,-15.1328,-4.12761,95.0359
2023-02-15 04:53:52:764,-3.96965,15.0052,-55.289,-15.1361,-4.12937,95.0285
2023-02-15 04:53:52:774,-3.96311,14.9741,-55.1304,-15.1379,-4.13106,95.0237
2023-02-15 04:53:52:784,-3.8773,14.964,-54.9794,-15.1406,-4.13352,95.0197
2023-02-15 04:53:52:794,-3.86202,14.9058,-54.9366,-15.1433,-4.1302,95.0166
2023-02-15 04:53:52:804,-3.71935,14.8,-54.928,-15.1472,-4.13032,95.0124
2023-02-15 04:53:52:814,-3.62352,14.7552,-54.9127,-15.1523,-4.12844,95.0096
2023-02-15 04:53:52:824,-3.52672,14.8041,-55.0757,-15.1536,-4.12453,95.0108
2023-02-15 04:53:52:834,-3.48172,14.8868,-55.3471,-15.1572,-4.12519,95.0102
2023-02-15 04:53:52:844,-3.39868,14.9905,-55.4097,-15.1587,-4.12437,95.0145
2023-02-15 04:53:52:854,-3.32114,14.8989,-55.493,-15.1639,-4.12648,95.0216
2023-02-15 04:53:52:864,-3.41005,14.9663,-55.4402,-15.1654,-4.13521,95.0295
2023-02-15 04:53:52:874,-3.55433,14.998,-55.2121,-15.1627,-4.15162,95.0411
2023-02-15 04:53:52:883,-3.85965,14.961,-55.0688,-15.1626,-4.16938,95.0549
2023-02-15 04:53:52:894,-3.94159,14.9963,-54.9267,-15.1631,-4.1877,95.0713
2023-02-15 04:53:52:904,-3.9069,15.0166,-54.7321,-15.1655,-4.20908,95.0865
2023-02-15 04:53:52:914,-3.85467,15.0392,-54.7138,-15.1713,-4.22442,95.1066
2023-02-15 04:53:52:924,-3.92339,15.0745,-54.7531,-15.1811,-4.24413,95.1269
2023-02-15 04:53:52:934,-4.04001,15.0046,-54.7478,-15.1865,-4.26302,95.1466
2023-02-15 04:53:52:944,-4.23269,14.9999,-54.7415,-15.1921,-4.28746,95.1638
2023-02-15 04:53:52:954,-4.38821,14.8948,-54.7498,-15.1958,-4.31012,95.1872
2023-02-15 04:53:52:964,-4.45381,14.9408,-54.6767,-15.2045,-4.33453,95.2093
2023-02-15 04:53:52:974,-4.58682,14.9578,-54.5933,-15.2114,-4.3526,95.2323
2023-02-15 04:53:52:983,-4.63408,14.9443,-54.7607,-15.2217,-4.37371,95.2538
2023-02-15 04:53:52:994,-4.59556,15.015,-54.8345,-15.232,-4.39121,95.2752
2023-02-15 04:53:53:3,-4.53782,15.022,-54.9054,-15.2434,-4.40441,95.2971
2023-02-15 04:53:53:13,-4.44296,14.9789,-55.0215,-15.2526,-4.41692,95.3217
2023-02-15 04:53:53:23,-4.49977,15.0691,-54.9369,-15.2653,-4.4261,95.3492
2023-02-15 04:53:53:33,-4.52248,15.1303,-54.8406,-15.2813,-4.43482,95.3739
2023-02-15 04:53:53:43,-4.47634,15.0045,-54.8097,-15.2985,-4.43863,95.4029
2023-02-15 04:53:53:53,-4.46258,15.0155,-54.7197,-15.3165,-4.43778,95.4303
2023-02-15 04:53:53:63,-4.43392,15.0903,-54.5282,-15.3391,-4.44093,95.4563
2023-02-15 04:53:53:73,-4.46934,15.0971,-54.6105,-15.3619,-4.44229,95.4841
2023-02-15 04:53:53:83,-4.47359,15.1867,-54.7908,-15.3849,-4.4401,95.5117
2023-02-15 04:53:53:93,-4.47029,15.1683,-54.6801,-15.4102,-4.43791,95.5415
2023-02-15 04:53:53:103,-4.38801,15.1816,-54.6069,-15.4337,-4.43253,95.5729
2023-02-15 04:53:53:113,-4.3295,15.254,-54.7043,-15.4584,-4.42917,95.603
2023-02-15 04:53:53:123,-4.28036,15.2962,-54.7002,-15.4805,-4.42959,95.6328
2023-02-15 04:53:53:133,-4.37572,15.4222,-54.5817,-15.5111,-4.43007,95.6643
2023-02-15 04:53:53:143,-4.5193,15.5404,-54.5614,-15.542,-4.43537,95.6976
2023-02-15 04:53:53:153,-4.37499,15.6352,-54.737,-15.5763,-4.43586,95.7311
2023-02-15 04:53:53:163,-4.23336,15.7616,-54.9441,-15.6073,-4.43439,95.7666
2023-02-15 04:53:53:173,-4.32118,15.8537,-55.0357,-15.6385,-4.43531,95.8002
2023-02-15 04:53:53:183,-4.39954,15.8444,-55.022,-15.6658,-4.43902,95.8349
2023-02-15 04:53:53:193,-4.36344,15.85,-54.9702,-15.6898,-4.44013,95.8729
2023-02-15 04:53:53:203,-4.44208,15.8697,-54.9021,-15.7122,-4.44276,95.9092
2023-02-15 04:53:53:213,-4.57746,15.8527,-54.7877,-15.7355,-4.44958,95.9485
2023-02-15 04:53:53:223,-4.64358,15.8627,-54.8165,-15.7565,-4.45611,95.9826
2023-02-15 04:53:53:233,-4.62266,15.8776,-54.9634,-15.772,-4.46303,96.0113
2023-02-15 04:53:53:243,-4.71649,15.8928,-54.9871,-15.7844,-4.47125,96.0393
2023-02-15 04:53:53:254,-4.76478,15.8854,-54.9738,-15.7946,-4.48291,96.0655
2023-02-15 04:53:53:264,-4.71429,15.8814,-54.9525,-15.8029,-4.49065,96.0895
2023-02-15 04:53:53:274,-4.74109,15.8361,-54.9259,-15.8093,-4.49613,96.1101
2023-02-15 04:53:53:284,-4.68973,15.7711,-54.9052,-15.8166,-4.50379,96.1297
2023-02-15 04:53:53:294,-4.66268,15.7238,-54.8493,-15.8218,-4.5093,96.1458
2023-02-15 04:53:53:304,-4.60975,15.7792,-54.9554,-15.8273,-4.50875,96.1615
2023-02-15 04:53:53:314,-4.36101,15.7509,-55.0471,-15.8292,-4.50374,96.1753
2023-02-15 04:53:53:324,-4.40636,15.7955,-55.2262,-15.8298,-4.49591,96.1913
2023-02-15 04:53:53:334,-4.20518,15.7818,-55.2467,-15.8274,-4.48904,96.2091
2023-02-15 04:53:53:344,-3.99282,15.7087,-55.1452,-15.8236,-4.47659,96.2279
2023-02-15 04:53:53:354,-4.05238,15.5749,-55.0399,-15.8155,-4.45933,96.2501
2023-02-15 04:53:53:364,-3.88612,15.5205,-55.114,-15.8076,-4.44009,96.274
2023-02-15 04:53:53:374,-3.75951,15.4292,-55.0522,-15.7929,-4.42005,96.3005
2023-02-15 04:53:53:384,-4.03262,15.3349,-54.9241,-15.7774,-4.39875,96.3319
2023-02-15 04:53:53:394,-3.99367,15.1745,-54.9412,-15.7632,-4.375,96.3634
2023-02-15 04:53:53:404,-3.81153,15.0857,-54.9987,-15.7407,-4.352,96.3962
2023-02-15 04:53:53:414,-3.85188,14.8844,-54.9617,-15.7215,-4.32703,96.4306
2023-02-15 04:53:53:424,-3.78979,14.8034,-54.8371,-15.7047,-4.30177,96.4652
2023-02-15 04:53:53:434,-3.71796,14.8128,-54.7193,-15.6935,-4.27992,96.5029
2023-02-15 04:53:53:444,-3.5986,14.7718,-54.5651,-15.6863,-4.25586,96.5385
2023-02-15 04:53:53:454,-3.50633,14.6834,-54.4347,-15.6829,-4.23402,96.576
2023-02-15 04:53:53:463,-3.33691,14.6501,-54.3836,-15.6877,-4.2159,96.6135
2023-02-15 04:53:53:473,-3.20115,14.7274,-54.3356,-15.6978,-4.19912,96.6521
2023-02-15 04:53:53:483,-3.43533,14.7467,-54.2564,-15.7124,-4.18815,96.692
2023-02-15 04:53:53:493,-3.43219,14.8243,-54.2739,-15.727,-4.17996,96.7354
2023-02-15 04:53:53:503,-3.36288,14.8896,-54.2569,-15.7542,-4.17513,96.782
2023-02-15 04:53:53:513,-3.47329,14.8954,-54.2416,-15.7876,-4.17085,96.8291
2023-02-15 04:53:53:523,-3.4745,14.8819,-54.2235,-15.8271,-4.16954,96.881
2023-02-15 04:53:53:533,-3.55947,14.929,-54.4833,-15.8675,-4.1724,96.9389
2023-02-15 04:53:53:543,-3.99316,15.1385,-54.7147,-15.9125,-4.18167,96.9939
2023-02-15 04:53:53:553,-4.40953,15.354,-54.8172,-15.9582,-4.1956,97.0504
2023-02-15 04:53:53:563,-4.68412,15.3962,-55.0376,-16.0012,-4.20759,97.1018
2023-02-15 04:53:53:573,-5.00197,15.5286,-55.3021,-16.0426,-4.21108,97.1486
2023-02-15 04:53:53:583,-5.20238,15.4944,-55.3458,-16.077,-4.20951,97.1873
2023-02-15 04:53:53:593,-5.13022,15.4555,-55.4123,-16.1041,-4.19877,97.2118
2023-02-15 04:53:53:603,-4.84417,15.524,-55.6543,-16.1264,-4.1845,97.2255
2023-02-15 04:53:53:613,-4.63857,15.6566,-56.1644,-16.1445,-4.17071,97.2251
2023-02-15 04:53:53:623,-4.70247,15.9219,-56.6424,-16.1544,-4.1632,97.2127
2023-02-15 04:53:53:633,-4.82486,15.9937,-57.0481,-16.1575,-4.1615,97.1837
2023-02-15 04:53:53:643,-4.70503,15.9384,-57.105,-16.1498,-4.16789,97.1381
2023-02-15 04:53:53:653,-4.49752,15.8522,-56.5189,-16.1298,-4.1744,97.0795
2023-02-15 04:53:53:663,-4.1147,15.6081,-55.4996,-16.1037,-4.18515,97.0082
2023-02-15 04:53:53:673,-3.94496,15.2954,-54.3573,-16.0703,-4.19135,96.9279
2023-02-15 04:53:53:683,-4.02089,15.1447,-53.4865,-16.038,-4.19336,96.8407
2023-02-15 04:53:53:693,-3.98526,15.0608,-53.1244,-16.011,-4.19745,96.7475
2023-02-15 04:53:53:703,-3.87752,15.0345,-53.0775,-15.9928,-4.20605,96.6462
2023-02-15 04:53:53:713,-4.03701,15.1296,-53.1341,-15.9825,-4.22301,96.5365
2023-02-15 04:53:53:723,-4.54979,15.2483,-53.3837,-15.9825,-4.25048,96.4219
2023-02-15 04:53:53:733,-4.91239,15.3913,-53.784,-15.9921,-4.29256,96.2954
2023-02-15 04:53:53:743,-4.95261,15.5943,-54.0304,-16.0065,-4.34033,96.16
2023-02-15 04:53:53:753,-4.91443,15.7018,-54.2482,-16.0245,-4.39785,96.0189
2023-02-15 04:53:53:763,-4.68612,15.8148,-54.5036,-16.0517,-4.45528,95.8724
2023-02-15 04:53:53:773,-4.39984,15.8157,-54.5759,-16.0764,-4.50955,95.7243
2023-02-15 04:53:53:783,-4.07795,15.7671,-54.5155,-16.1059,-4.55804,95.583
2023-02-15 04:53:53:793,-3.55704,15.7885,-54.4513,-16.1399,-4.59741,95.4496
2023-02-15 04:53:53:803,-3.18002,15.8574,-54.4679,-16.1762,-4.6281,95.3293
2023-02-15 04:53:53:813,-2.95704,15.9501,-54.3089,-16.2178,-4.64776,95.2237
2023-02-15 04:53:53:823,-2.67589,16.0054,-54.0887,-16.2644,-4.65767,95.1361
2023-02-15 04:53:53:833,-2.40255,16.1246,-53.9692,-16.3113,-4.65974,95.0699
2023-02-15 04:53:53:843,-2.30466,16.2148,-53.8815,-16.3656,-4.65911,95.0227
2023-02-15 04:53:53:853,-2.1864,16.2094,-54.0426,-16.4212,-4.65597,94.9983
2023-02-15 04:53:53:863,-2.35753,16.4658,-54.3994,-16.4819,-4.64685,94.9957
2023-02-15 04:53:53:873,-2.72292,16.7287,-54.627,-16.5429,-4.62698,95.0156
2023-02-15 04:53:53:883,-2.95289,16.8794,-54.7644,-16.5993,-4.60121,95.054
2023-02-15 04:53:53:893,-3.20814,17.1556,-55.0938,-16.652,-4.57829,95.11
2023-02-15 04:53:53:903,-3.5718,17.3019,-55.2512,-16.7014,-4.5535,95.176
2023-02-15 04:53:53:913,-4.01073,17.3293,-55.1271,-16.7463,-4.53398,95.2519
2023-02-15 04:53:53:923,-4.4018,17.3926,-55.0503,-16.7873,-4.51721,95.3307
2023-02-15 04:53:53:933,-4.57087,17.453,-55.1656,-16.8287,-4.50651,95.4093
2023-02-15 04:53:53:943,-4.58183,17.4727,-55.2305,-16.8649,-4.49865,95.4887
2023-02-15 04:53:53:953,-4.44062,17.5067,-55.3779,-16.8904,-4.48572,95.5644
2023-02-15 04:53:53:963,-4.17488,17.4922,-55.5737,-16.913,-4.46964,95.6365
2023-02-15 04:53:53:973,-3.73197,17.5193,-55.5528,-16.932,-4.4541,95.7061
2023-02-15 04:53:53:983,-3.59572,17.4085,-55.3421,-16.9432,-4.44447,95.7791
2023-02-15 04:53:53:993,-3.68241,17.2702,-54.9723,-16.9447,-4.43743,95.8536
2023-02-15 04:53:54:3,-3.67853,17.0427,-54.6974,-16.9442,-4.43184,95.9339
2023-02-15 04:53:54:13,-3.73734,16.946,-54.5331,-16.9446,-4.43084,96.0143
2023-02-15 04:53:54:23,-3.72579,16.8455,-54.322,-16.939,-4.42708,96.0963
2023-02-15 04:53:54:33,-3.78928,16.769,-54.3874,-16.9357,-4.42306,96.1822
2023-02-15 04:53:54:43,-3.98364,16.6786,-54.4884,-16.9324,-4.41968,96.2677
2023-02-15 04:53:54:53,-4.14338,16.6626,-54.4866,-16.926,-4.41916,96.3527
2023-02-15 04:53:54:63,-4.17949,16.6207,-54.4419,-16.9188,-4.42201,96.4422
2023-02-15 04:53:54:73,-4.28954,16.5716,-54.4841,-16.9118,-4.42893,96.5288
2023-02-15 04:53:54:84,-4.47198,16.4907,-54.4918,-16.908,-4.43818,96.6158
2023-02-15 04:53:54:94,-4.67663,16.532,-54.4709,-16.908,-4.44489,96.6989
2023-02-15 04:53:54:104,-4.77925,16.5446,-54.4096,-16.9086,-4.45617,96.782
2023-02-15 04:53:54:114,-4.89392,16.5701,-54.3132,-16.91,-4.46796,96.8612
2023-02-15 04:53:54:124,-4.87432,16.6054,-54.1798,-16.9123,-4.47808,96.9321
2023-02-15 04:53:54:134,-5.065,16.6707,-54.0899,-16.9187,-4.49049,97.0047
2023-02-15 04:53:54:144,-5.15811,16.7485,-54.0286,-16.9268,-4.50305,97.0739
2023-02-15 04:53:54:154,-5.2569,16.8158,-54.1048,-16.9353,-4.51198,97.1316
2023-02-15 04:53:54:164,-5.35163,16.9197,-54.3031,-16.9438,-4.52064,97.1849
2023-02-15 04:53:54:174,-5.35085,16.9539,-54.4229,-16.9484,-4.5314,97.2338
2023-02-15 04:53:54:184,-5.50719,16.9073,-54.562,-16.9539,-4.54677,97.2788
2023-02-15 04:53:54:194,-5.70514,16.9618,-54.7666,-16.9566,-4.55849,97.315
2023-02-15 04:53:54:204,-5.73244,17.0269,-54.7818,-16.958,-4.57487,97.3381
2023-02-15 04:53:54:214,-6.16639,17.0776,-54.8591,-16.9576,-4.59358,97.3542
2023-02-15 04:53:54:224,-6.69824,17.1151,-54.8936,-16.9522,-4.60852,97.359
2023-02-15 04:53:54:234,-6.65093,16.9769,-54.5864,-16.9419,-4.62145,97.3491
2023-02-15 04:53:54:244,-6.3354,16.7083,-54.2349,-16.9296,-4.63411,97.3222
2023-02-15 04:53:54:254,-6.17982,16.5967,-53.8915,-16.9145,-4.64449,97.2818
2023-02-15 04:53:54:264,-5.76035,16.4852,-53.7875,-16.9003,-4.65521,97.2271
2023-02-15 04:53:54:274,-5.01019,16.4711,-53.7811,-16.8951,-4.66643,97.1586
2023-02-15 04:53:54:284,-4.67615,16.4643,-53.9525,-16.8938,-4.6769,97.0869
2023-02-15 04:53:54:294,-4.37198,16.4958,-54.1893,-16.8957,-4.68933,97.0138
2023-02-15 04:53:54:304,-4.184,16.6226,-54.4846,-16.8984,-4.6969,96.9363
2023-02-15 04:53:54:314,-4.12077,16.6931,-54.646,-16.9046,-4.70112,96.864
2023-02-15 04:53:54:324,-4.00018,16.6003,-54.7597,-16.907,-4.70011,96.8001
2023-02-15 04:53:54:334,-3.84907,16.6176,-54.7875,-16.9053,-4.69558,96.7379
2023-02-15 04:53:54:344,-3.69911,16.5011,-54.704,-16.9034,-4.68535,96.6843
2023-02-15 04:53:54:354,-3.51448,16.4865,-54.6067,-16.8986,-4.67871,96.6344
2023-02-15 04:53:54:364,-3.24801,16.345,-54.4949,-16.8909,-4.66986,96.5941
2023-02-15 04:53:54:374,-3.1708,16.339,-54.4838,-16.886,-4.66295,96.5655
2023-02-15 04:53:54:384,-3.10629,16.3644,-54.7726,-16.8862,-4.65531,96.5418
2023-02-15 04:53:54:394,-2.9374,16.4027,-54.9815,-16.8848,-4.64564,96.5285
2023-02-15 04:53:54:404,-3.02261,16.3978,-55.0028,-16.8826,-4.63678,96.5275
2023-02-15 04:53:54:414,-3.13367,16.3987,-54.8854,-16.8794,-4.63328,96.5372
2023-02-15 04:53:54:424,-3.29942,16.3256,-54.6546,-16.8727,-4.63167,96.5546
2023-02-15 04:53:54:434,-3.50367,16.2986,-54.3808,-16.8717,-4.63807,96.58
2023-02-15 04:53:54:444,-3.62612,16.2787,-54.0392,-16.8706,-4.64311,96.6166
2023-02-15 04:53:54:454,-3.72527,16.2344,-53.8757,-16.8751,-4.6506,96.6556
2023-02-15 04:53:54:464,-3.81259,16.2902,-53.811,-16.8848,-4.65485,96.6977
2023-02-15 04:53:54:474,-3.77184,16.4074,-53.9249,-16.8997,-4.6625,96.7478
2023-02-15 04:53:54:484,-3.78268,16.4951,-54.1122,-16.9162,-4.66963,96.8003
2023-02-15 04:53:54:494,-3.84761,16.7039,-54.2597,-16.9372,-4.67945,96.8557
2023-02-15 04:53:54:504,-3.87734,16.7598,-54.3593,-16.9618,-4.69449,96.9188
2023-02-15 04:53:54:514,-3.85933,16.8519,-54.3874,-16.9856,-4.70875,96.9871
2023-02-15 04:53:54:524,-3.87877,17.0122,-54.3994,-17.0086,-4.72176,97.0623
2023-02-15 04:53:54:534,-3.86952,17.1256,-54.4547,-17.0333,-4.73296,97.1417
2023-02-15 04:53:54:544,-3.6904,17.1747,-54.5431,-17.0547,-4.73676,97.2354
2023-02-15 04:53:54:554,-3.61097,17.2119,-54.5835,-17.0765,-4.74293,97.3311
2023-02-15 04:53:54:564,-3.63117,17.2049,-54.5187,-17.0963,-4.74328,97.4382
2023-02-15 04:53:54:574,-3.90815,17.1769,-54.5456,-17.116,-4.7384,97.5537
2023-02-15 04:53:54:584,-4.06753,17.2112,-54.6395,-17.1294,-4.73935,97.677
2023-02-15 04:53:54:594,-4.14367,17.2283,-54.5557,-17.145,-4.73691,97.8103
2023-02-15 04:53:54:604,-4.48953,17.3274,-54.5725,-17.1617,-4.73281,97.9451
2023-02-15 04:53:54:614,-4.989,17.32,-54.4003,-17.1756,-4.73215,98.0786
2023-02-15 04:53:54:624,-5.21805,17.2204,-54.3618,-17.186,-4.72849,98.2117
2023-02-15 04:53:54:634,-5.54829,17.2574,-54.4136,-17.1912,-4.72585,98.3366
2023-02-15 04:53:54:644,-5.66586,17.272,-54.338,-17.1965,-4.71942,98.4625
2023-02-15 04:53:54:654,-5.49927,17.1952,-54.4551,-17.2016,-4.71482,98.5801
2023-02-15 04:53:54:664,-5.45092,17.2112,-54.5131,-17.2013,-4.71015,98.6864
2023-02-15 04:53:54:674,-5.41941,17.1584,-54.4306,-17.2018,-4.71318,98.7843
2023-02-15 04:53:54:684,-5.46045,17.0815,-54.2547,-17.2031,-4.71547,98.8738
2023-02-15 04:53:54:694,-5.44151,17.0471,-54.2708,-17.2059,-4.717,98.9539
2023-02-15 04:53:54:704,-5.25899,17.0595,-54.4379,-17.2066,-4.72031,99.0316
2023-02-15 04:53:54:714,-5.22227,17.0685,-54.4274,-17.2084,-4.72167,99.1009
2023-02-15 04:53:54:724,-5.1729,17.0662,-54.3625,-17.209,-4.72819,99.1608
2023-02-15 04:53:54:734,-5.1518,17.077,-54.3623,-17.2101,-4.73267,99.2139
2023-02-15 04:53:54:744,-5.1489,17.0951,-54.2067,-17.2152,-4.73847,99.2626
2023-02-15 04:53:54:754,-5.14364,17.0292,-54.0637,-17.2204,-4.74123,99.3098
2023-02-15 04:53:54:764,-5.10067,17.0679,-53.9414,-17.2302,-4.748,99.3521
2023-02-15 04:53:54:774,-4.87861,17.0742,-53.8554,-17.2378,-4.75152,99.3937
2023-02-15 04:53:54:784,-4.62111,17.0897,-53.9929,-17.2484,-4.75264,99.4318
2023-02-15 04:53:54:794,-4.59932,17.1044,-54.1498,-17.2616,-4.75864,99.4705
2023-02-15 04:53:54:804,-4.61437,17.1506,-54.1783,-17.2722,-4.76202,99.5108
2023-02-15 04:53:54:814,-4.55929,17.0337,-54.1384,-17.2843,-4.76691,99.5502
2023-02-15 04:53:54:824,-4.36573,16.9417,-54.1144,-17.2982,-4.76579,99.5903
2023-02-15 04:53:54:834,-4.19595,16.8885,-54.0917,-17.3127,-4.76255,99.629
2023-02-15 04:53:54:844,-4.13635,16.7943,-54.0392,-17.325,-4.7523,99.6742
2023-02-15 04:53:54:854,-3.89691,16.8082,-53.9506,-17.3425,-4.73945,99.7235
2023-02-15 04:53:54:864,-3.81561,16.9185,-54.0559,-17.3653,-4.72773,99.7801
2023-02-15 04:53:54:874,-3.97814,16.993,-54.2292,-17.392,-4.71584,99.8416
2023-02-15 04:53:54:884,-4.08396,17.2126,-54.5561,-17.4187,-4.70496,99.9076
2023-02-15 04:53:54:894,-4.29946,17.391,-54.7488,-17.4409,-4.69638,99.9794
2023-02-15 04:53:54:904,-4.69518,17.4693,-54.9103,-17.4574,-4.68284,100.053
2023-02-15 04:53:54:914,-4.85126,17.5046,-54.8765,-17.4713,-4.66743,100.13
2023-02-15 04:53:54:924,-4.82357,17.5201,-54.9343,-17.4799,-4.64687,100.207
2023-02-15 04:53:54:933,-4.91805,17.5282,-54.9167,-17.484,-4.63094,100.283
2023-02-15 04:53:54:943,-5.10988,17.5219,-54.9237,-17.4838,-4.61763,100.355
2023-02-15 04:53:54:954,-5.35153,17.5406,-55.0309,-17.4783,-4.61251,100.423
2023-02-15 04:53:54:964,-5.61402,17.5056,-54.9445,-17.4642,-4.60636,100.484
2023-02-15 04:53:54:974,-5.74598,17.4888,-54.8064,-17.4447,-4.59984,100.534
2023-02-15 04:53:54:984,-5.77682,17.4088,-54.7221,-17.4226,-4.58981,100.574
2023-02-15 04:53:54:994,-5.73877,17.2268,-54.5579,-17.3963,-4.587,100.601
2023-02-15 04:53:55:4,-5.59754,17.0748,-54.3494,-17.365,-4.5801,100.615
2023-02-15 04:53:55:14,-5.2561,16.9335,-54.3309,-17.3369,-4.58054,100.617
2023-02-15 04:53:55:24,-4.96343,16.8721,-54.1633,-17.3138,-4.57823,100.609
2023-02-15 04:53:55:34,-4.76605,16.9259,-54.1941,-17.2863,-4.58107,100.595
2023-02-15 04:53:55:44,-4.5934,16.9792,-54.3352,-17.2621,-4.58576,100.579
2023-02-15 04:53:55:54,-4.43553,16.9169,-54.531,-17.2352,-4.58688,100.558
2023-02-15 04:53:55:64,-4.27941,16.9428,-54.6348,-17.211,-4.58955,100.537
2023-02-15 04:53:55:74,-4.23643,17.0275,-54.6689,-17.1848,-4.59315,100.516
2023-02-15 04:53:55:84,-4.3918,16.9691,-54.8729,-17.1518,-4.59672,100.494
2023-02-15 04:53:55:94,-4.60438,17.0321,-54.9536,-17.1172,-4.59743,100.474
2023-02-15 04:53:55:104,-4.83524,17.0328,-54.8814,-17.0774,-4.59613,100.46
2023-02-15 04:53:55:114,-5.0795,16.9145,-54.9501,-17.0313,-4.59404,100.442
2023-02-15 04:53:55:124,-5.13484,16.8746,-54.963,-16.9803,-4.59265,100.418
2023-02-15 04:53:55:134,-5.00447,16.7772,-54.776,-16.9278,-4.58971,100.389
2023-02-15 04:53:55:144,-4.90018,16.5626,-54.6546,-16.8719,-4.5887,100.357
2023-02-15 04:53:55:154,-4.84331,16.3372,-54.59,-16.8168,-4.58458,100.324
2023-02-15 04:53:55:164,-4.76341,16.2537,-54.6008,-16.7594,-4.58128,100.283
2023-02-15 04:53:55:174,-4.3858,16.2218,-54.7508,-16.7008,-4.57752,100.238
2023-02-15 04:53:55:184,-4.28686,16.2256,-54.8643,-16.6423,-4.56894,100.192
2023-02-15 04:53:55:194,-4.18983,16.1423,-54.8463,-16.5833,-4.56456,100.143
2023-02-15 04:53:55:204,-4.19694,15.955,-54.8852,-16.5205,-4.56219,100.096
2023-02-15 04:53:55:214,-4.34028,15.8645,-54.7618,-16.46,-4.56131,100.045
2023-02-15 04:53:55:224,-4.32238,15.8189,-54.5378,-16.3992,-4.56338,99.9946
2023-02-15 04:53:55:234,-4.19461,15.7623,-54.2878,-16.3406,-4.56685,99.9475
2023-02-15 04:53:55:244,-4.02036,15.5435,-54.112,-16.2881,-4.56811,99.9
2023-02-15 04:53:55:254,-3.88437,15.4409,-54.0565,-16.2399,-4.56945,99.8529
2023-02-15 04:53:55:264,-3.77673,15.4488,-54.1829,-16.196,-4.57242,99.8058
2023-02-15 04:53:55:274,-3.78139,15.5219,-54.373,-16.1524,-4.57704,99.7636
2023-02-15 04:53:55:284,-3.85029,15.5527,-54.5067,-16.1144,-4.58331,99.7229
2023-02-15 04:53:55:294,-4.0797,15.5384,-54.6409,-16.0764,-4.58857,99.6915
2023-02-15 04:53:55:304,-4.18952,15.5405,-54.6089,-16.0372,-4.59169,99.6585
2023-02-15 04:53:55:314,-4.2859,15.5885,-54.6964,-16.0016,-4.59857,99.6276
2023-02-15 04:53:55:324,-4.26655,15.6677,-54.8764,-15.9678,-4.60506,99.5968
2023-02-15 04:53:55:334,-4.06969,15.5987,-54.9606,-15.9313,-4.60775,99.5686
2023-02-15 04:53:55:344,-4.10696,15.5217,-54.9755,-15.8943,-4.60811,99.5457
2023-02-15 04:53:55:354,-4.17686,15.5096,-54.9002,-15.8592,-4.60705,99.5253
2023-02-15 04:53:55:364,-4.16718,15.4514,-54.7871,-15.8241,-4.60425,99.5114
2023-02-15 04:53:55:374,-4.25711,15.4113,-54.7086,-15.791,-4.59799,99.4979
2023-02-15 04:53:55:384,-4.51321,15.4226,-54.7412,-15.7575,-4.59277,99.4849
2023-02-15 04:53:55:394,-4.57989,15.4821,-54.8029,-15.7258,-4.58943,99.4723
2023-02-15 04:53:55:404,-4.71448,15.4824,-54.8143,-15.6935,-4.58252,99.4623
2023-02-15 04:53:55:414,-4.97954,15.5828,-55.0308,-15.6615,-4.57325,99.4472
2023-02-15 04:53:55:424,-5.08179,15.7588,-55.1711,-15.6221,-4.56338,99.43
2023-02-15 04:53:55:434,-4.92377,15.5421,-55.0274,-15.5817,-4.54838,99.41
2023-02-15 04:53:55:444,-5.00952,15.5385,-54.9932,-15.5346,-4.53002,99.3823
2023-02-15 04:53:55:454,-5.24636,15.6827,-55.4272,-15.4866,-4.51262,99.3487
2023-02-15 04:53:55:464,-5.30279,15.849,-55.8579,-15.4338,-4.50315,99.3066
2023-02-15 04:53:55:474,-5.38698,15.7621,-55.8703,-15.3719,-4.49456,99.2533
2023-02-15 04:53:55:484,-5.35666,15.8092,-55.6706,-15.3028,-4.49119,99.189
2023-02-15 04:53:55:494,-5.07892,15.7083,-55.5211,-15.2302,-4.48836,99.1171
2023-02-15 04:53:55:504,-4.97208,15.5287,-55.4725,-15.1534,-4.48723,99.0356
2023-02-15 04:53:55:514,-5.15036,15.5121,-55.3681,-15.0728,-4.48821,98.9465
2023-02-15 04:53:55:524,-5.3274,15.3515,-55.2178,-14.9898,-4.48792,98.8512
2023-02-15 04:53:55:534,-5.09381,15.1285,-54.9714,-14.9036,-4.49197,98.7414
2023-02-15 04:53:55:544,-4.99563,14.9068,-54.9149,-14.8136,-4.4948,98.6175
2023-02-15 04:53:55:554,-4.86306,14.6876,-54.8474,-14.7246,-4.50077,98.4868
2023-02-15 04:53:55:564,-4.65413,14.4662,-54.6999,-14.6384,-4.50623,98.3502
2023-02-15 04:53:55:574,-4.47845,14.1459,-54.6702,-14.5533,-4.51652,98.2063
2023-02-15 04:53:55:584,-4.44135,14.0256,-54.651,-14.469,-4.52685,98.0556
2023-02-15 04:53:55:594,-4.79137,14.0426,-54.8543,-14.3863,-4.53668,97.9014
2023-02-15 04:53:55:604,-5.14328,14.1321,-55.2535,-14.3066,-4.54588,97.7407
2023-02-15 04:53:55:614,-5.05287,14.1742,-55.4601,-14.2293,-4.55305,97.5753
2023-02-15 04:53:55:624,-4.82088,14.0211,-55.5685,-14.1467,-4.55923,97.3994
2023-02-15 04:53:55:634,-4.69887,13.8739,-55.3384,-14.0613,-4.5664,97.2202
2023-02-15 04:53:55:644,-4.44527,13.5951,-55.0412,-13.9783,-4.57061,97.0298
2023-02-15 04:53:55:654,-4.07611,13.327,-54.815,-13.8981,-4.57465,96.8421
2023-02-15 04:53:55:664,-3.80251,13.0932,-54.6373,-13.8212,-4.57815,96.6553
2023-02-15 04:53:55:674,-3.72331,12.9671,-54.5241,-13.7471,-4.58035,96.4696
2023-02-15 04:53:55:684,-3.63579,12.8922,-54.519,-13.6825,-4.5805,96.2839
2023-02-15 04:53:55:694,-3.71256,12.942,-54.7481,-13.6247,-4.57659,96.1041
2023-02-15 04:53:55:704,-4.13599,13.1381,-54.9961,-13.5682,-4.56963,95.9303
2023-02-15 04:53:55:714,-4.28321,13.2681,-55.2135,-13.5183,-4.56048,95.7587
2023-02-15 04:53:55:724,-4.20288,13.1694,-55.2471,-13.4705,-4.54908,95.5872
2023-02-15 04:53:55:734,-4.09239,13.0181,-55.1867,-13.4219,-4.53555,95.4138
2023-02-15 04:53:55:744,-3.79843,12.9156,-55.0056,-13.3728,-4.52317,95.2446
2023-02-15 04:53:55:754,-3.3403,12.8489,-55.1088,-13.3272,-4.51083,95.0747
2023-02-15 04:53:55:764,-3.30673,13.0348,-55.3098,-13.2843,-4.49595,94.9111
2023-02-15 04:53:55:774,-4.22219,13.438,-55.7275,-13.2459,-4.48607,94.7589
2023-02-15 04:53:55:784,-5.1291,13.7456,-56.0835,-13.203,-4.47578,94.6071
2023-02-15 04:53:55:794,-5.35758,13.9177,-56.1275,-13.1569,-4.46437,94.4479
2023-02-15 04:53:55:804,-5.19207,13.8843,-55.8363,-13.1011,-4.44961,94.2792
2023-02-15 04:53:55:814,-4.99259,13.6446,-55.5738,-13.043,-4.43888,94.103
2023-02-15 04:53:55:824,-4.64829,13.4378,-55.5451,-12.9824,-4.43106,93.9184
2023-02-15 04:53:55:834,-4.10422,13.3569,-55.677,-12.9221,-4.42795,93.732
2023-02-15 04:53:55:844,-3.73048,13.2226,-55.7353,-12.8606,-4.42533,93.5396
2023-02-15 04:53:55:854,-3.71362,13.0532,-55.6316,-12.7973,-4.42482,93.3525
2023-02-15 04:53:55:864,-4.23114,13.0071,-55.6317,-12.7321,-4.42342,93.1727
2023-02-15 04:53:55:874,-4.71818,12.9423,-55.735,-12.6636,-4.42086,92.9919
2023-02-15 04:53:55:884,-4.51241,12.8347,-55.8481,-12.5932,-4.4185,92.8111
2023-02-15 04:53:55:894,-4.21833,12.6652,-55.7753,-12.5179,-4.41418,92.6289
2023-02-15 04:53:55:904,-3.97809,12.3394,-55.6111,-12.4421,-4.4089,92.4449
2023-02-15 04:53:55:914,-3.65681,12.0728,-55.3767,-12.3671,-4.40281,92.2622
2023-02-15 04:53:55:924,-3.31438,11.8048,-55.137,-12.2969,-4.39628,92.083
2023-02-15 04:53:55:934,-3.05469,11.5433,-55.0231,-12.2275,-4.39263,91.9097
2023-02-15 04:53:55:944,-2.74946,11.2855,-54.978,-12.1682,-4.38916,91.7445
2023-02-15 04:53:55:954,-2.37373,11.1857,-55.1859,-12.1134,-4.38318,91.587
2023-02-15 04:53:55:964,-2.05418,11.2072,-55.4532,-12.0659,-4.37539,91.4465
2023-02-15 04:53:55:974,-1.94901,11.2093,-55.6655,-12.0216,-4.36549,91.3219
2023-02-15 04:53:55:984,-1.8612,11.1672,-55.8469,-11.9808,-4.34982,91.2187
2023-02-15 04:53:55:994,-2.02655,11.115,-55.8672,-11.9409,-4.3353,91.1288
2023-02-15 04:53:56:4,-2.41884,11.1604,-55.9108,-11.9057,-4.3161,91.0614
2023-02-15 04:53:56:14,-2.69867,11.2234,-55.7991,-11.8742,-4.29733,91.0135
2023-02-15 04:53:56:24,-2.90718,11.2124,-55.515,-11.8445,-4.27658,90.9774
2023-02-15 04:53:56:34,-2.96502,11.2163,-55.253,-11.8224,-4.25472,90.949
2023-02-15 04:53:56:44,-3.03066,11.1179,-55.1213,-11.8025,-4.23456,90.9325
2023-02-15 04:53:56:54,-2.93533,11.1065,-55.1456,-11.7854,-4.21627,90.9223
2023-02-15 04:53:56:64,-2.97503,11.12,-55.1006,-11.7732,-4.19894,90.9211
2023-02-15 04:53:56:74,-3.1657,11.0324,-55.1389,-11.7648,-4.18641,90.9295
2023-02-15 04:53:56:84,-3.34692,11.0754,-55.385,-11.7591,-4.17453,90.9463
2023-02-15 04:53:56:94,-3.63346,11.2538,-55.5783,-11.7622,-4.16366,90.9646
2023-02-15 04:53:56:104,-3.70775,11.3198,-55.5836,-11.7672,-4.15345,90.9905
2023-02-15 04:53:56:114,-3.87011,11.4955,-55.7081,-11.7736,-4.14021,91.0163
2023-02-15 04:53:56:124,-3.95595,11.551,-55.8925,-11.7841,-4.12846,91.0449
2023-02-15 04:53:56:134,-3.97174,11.5049,-55.9658,-11.7964,-4.11923,91.0743
2023-02-15 04:53:56:144,-3.90016,11.5325,-55.8675,-11.8065,-4.10836,91.1035
2023-02-15 04:53:56:154,-3.77703,11.4528,-55.7517,-11.8178,-4.09755,91.1319
2023-02-15 04:53:56:164,-3.65695,11.3219,-55.7708,-11.8295,-4.08826,91.1608
2023-02-15 04:53:56:174,-3.48038,11.3289,-55.7329,-11.8403,-4.07899,91.1919
2023-02-15 04:53:56:184,-3.48093,11.3642,-55.5902,-11.8565,-4.06635,91.2231
2023-02-15 04:53:56:194,-3.76271,11.4474,-55.5986,-11.8725,-4.05597,91.2603
2023-02-15 04:53:56:204,-4.18048,11.7332,-55.7731,-11.8891,-4.04632,91.297
2023-02-15 04:53:56:214,-4.50776,11.964,-56.0897,-11.9078,-4.0334,91.3342
2023-02-15 04:53:56:224,-4.50549,11.9295,-56.0649,-11.9185,-4.01684,91.3713
2023-02-15 04:53:56:234,-4.25161,11.948,-55.9276,-11.9251,-4.0007,91.3956
2023-02-15 04:53:56:244,-4.06365,11.8509,-55.8969,-11.9309,-3.98781,91.414
2023-02-15 04:53:56:254,-3.99875,11.8751,-55.6823,-11.9366,-3.98347,91.4284
2023-02-15 04:53:56:264,-3.85613,11.7946,-55.6663,-11.9443,-3.97999,91.4389
2023-02-15 04:53:56:274,-3.63592,11.7797,-55.7899,-11.9528,-3.97453,91.4454
2023-02-15 04:53:56:284,-3.58699,11.8231,-55.8813,-11.9602,-3.97134,91.4552
2023-02-15 04:53:56:294,-3.50093,11.8174,-56.0758,-11.9728,-3.96851,91.4631
2023-02-15 04:53:56:304,-3.44038,11.9654,-56.0937,-11.9796,-3.95755,91.4727
2023-02-15 04:53:56:314,-3.40464,11.9197,-56.0009,-11.9857,-3.94823,91.4819
2023-02-15 04:53:56:324,-3.35249,11.9589,-55.9119,-11.9885,-3.93625,91.495
2023-02-15 04:53:56:334,-3.28039,11.9686,-55.8178,-11.9916,-3.92311,91.5096
2023-02-15 04:53:56:344,-3.23157,11.9261,-55.7337,-11.9922,-3.91316,91.5304
2023-02-15 04:53:56:354,-3.21482,11.7901,-55.6838,-11.9935,-3.90527,91.551
2023-02-15 04:53:56:364,-3.21878,11.7173,-55.6478,-11.9929,-3.89758,91.578
2023-02-15 04:53:56:374,-3.13069,11.7165,-55.6881,-11.993,-3.88864,91.6048
2023-02-15 04:53:56:384,-3.16343,11.6889,-55.6226,-11.995,-3.88311,91.6354
2023-02-15 04:53:56:394,-3.35231,11.7082,-55.7176,-12.0007,-3.87684,91.6718
2023-02-15 04:53:56:404,-3.15649,11.682,-55.9671,-12.0038,-3.87172,91.706
2023-02-15 04:53:56:414,-3.12169,11.6849,-55.9609,-12.0074,-3.86936,91.7413
2023-02-15 04:53:56:424,-3.20298,11.7524,-55.8308,-12.013,-3.87021,91.7792
2023-02-15 04:53:56:434,-3.218,11.7902,-55.7953,-12.0169,-3.86861,91.8236
2023-02-15 04:53:56:444,-3.18977,11.6902,-55.6893,-12.025,-3.86625,91.8735
2023-02-15 04:53:56:454,-3.29659,11.6864,-55.5762,-12.0349,-3.86797,91.9221
2023-02-15 04:53:56:464,-3.56107,11.7977,-55.4411,-12.0459,-3.86939,91.975
2023-02-15 04:53:56:474,-3.8444,11.8686,-55.4166,-12.0565,-3.87019,92.0234
2023-02-15 04:53:56:484,-3.93549,11.9252,-55.4824,-12.0691,-3.87118,92.0724
2023-02-15 04:53:56:494,-4.10476,12.0218,-55.5266,-12.0828,-3.8711,92.1186
2023-02-15 04:53:56:504,-4.33048,12.0669,-55.6176,-12.0976,-3.87452,92.1627
2023-02-15 04:53:56:514,-4.3001,12.1407,-55.7711,-12.11,-3.88329,92.2008
2023-02-15 04:53:56:524,-4.24018,12.1372,-55.8078,-12.12,-3.88887,92.2307
2023-02-15 04:53:56:534,-4.27425,12.1011,-55.7432,-12.1315,-3.89593,92.2561
2023-02-15 04:53:56:544,-4.27313,12.1041,-55.6701,-12.1474,-3.90019,92.2801
2023-02-15 04:53:56:554,-4.08942,12.1559,-55.6429,-12.1594,-3.90589,92.2962
2023-02-15 04:53:56:564,-4.12759,12.1506,-55.7203,-12.1733,-3.91194,92.3097
2023-02-15 04:53:56:574,-4.22348,12.1619,-55.7113,-12.1867,-3.91702,92.3191
2023-02-15 04:53:56:584,-4.18537,12.1912,-55.6829,-12.197,-3.9221,92.3251
2023-02-15 04:53:56:594,-4.06026,12.1955,-55.8028,-12.2113,-3.92632,92.3288
2023-02-15 04:53:56:604,-4.06478,12.2555,-55.8576,-12.2228,-3.93194,92.3266
2023-02-15 04:53:56:613,-3.99124,12.1973,-55.8799,-12.234,-3.94321,92.3237
2023-02-15 04:53:56:624,-3.83498,12.1409,-55.9079,-12.2435,-3.94681,92.3178
2023-02-15 04:53:56:633,-3.66868,12.2426,-55.9049,-12.2511,-3.95125,92.3137
2023-02-15 04:53:56:644,-3.68944,12.2044,-55.8826,-12.2564,-3.95707,92.3109
2023-02-15 04:53:56:654,-3.76016,12.2159,-55.8378,-12.2594,-3.96235,92.3094
2023-02-15 04:53:56:664,-3.7134,12.1011,-55.8415,-12.2612,-3.96795,92.3087
2023-02-15 04:53:56:674,-3.59566,12.0103,-55.8309,-12.2616,-3.96899,92.3053
2023-02-15 04:53:56:684,-3.63059,12.0235,-55.6451,-12.2622,-3.97007,92.3062
2023-02-15 04:53:56:694,-3.82833,12.0203,-55.5543,-12.2628,-3.9711,92.3047
2023-02-15 04:53:56:704,-3.90797,11.9923,-55.5946,-12.2645,-3.96946,92.3046
2023-02-15 04:53:56:714,-3.84162,11.964,-55.6782,-12.2667,-3.97338,92.3023
2023-02-15 04:53:56:724,-3.74659,12.0815,-55.8302,-12.2698,-3.97179,92.3009
2023-02-15 04:53:56:734,-3.56729,12.1052,-56.0443,-12.2701,-3.97098,92.298
2023-02-15 04:53:56:744,-3.38943,12.0917,-56.0427,-12.2695,-3.97207,92.2964
2023-02-15 04:53:56:754,-3.45566,12.0748,-55.9209,-12.2673,-3.976,92.2959
2023-02-15 04:53:56:764,-3.60728,12.0284,-55.791,-12.2664,-3.98577,92.2969
2023-02-15 04:53:56:774,-3.64793,12,-55.5276,-12.2685,-3.99269,92.2973
2023-02-15 04:53:56:784,-3.71515,12.0849,-55.4543,-12.2693,-4.00296,92.2997
2023-02-15 04:53:56:794,-3.8762,12.0426,-55.4576,-12.274,-4.01183,92.3091
2023-02-15 04:53:56:804,-4.01043,12.0508,-55.4135,-12.2771,-4.02036,92.3169
2023-02-15 04:53:56:814,-4.06796,12.1511,-55.4179,-12.2825,-4.02734,92.3288
2023-02-15 04:53:56:824,-4.18843,12.1831,-55.3997,-12.2877,-4.03137,92.3325
2023-02-15 04:53:56:834,-4.25852,12.1848,-55.4061,-12.2951,-4.03684,92.3362
2023-02-15 04:53:56:844,-4.25293,12.1174,-55.3398,-12.3021,-4.04107,92.3405
2023-02-15 04:53:56:854,-4.19312,12.1435,-55.239,-12.314,-4.04574,92.3494
2023-02-15 04:53:56:864,-4.2392,12.1562,-55.3582,-12.3279,-4.05081,92.355
2023-02-15 04:53:56:874,-4.38689,12.1621,-55.4226,-12.3416,-4.05222,92.3558
2023-02-15 04:53:56:884,-4.53618,12.2859,-55.4089,-12.359,-4.05026,92.3568
2023-02-15 04:53:56:894,-4.55708,12.3626,-55.4356,-12.3791,-4.04742,92.3565
2023-02-15 04:53:56:904,-4.47311,12.3935,-55.5002,-12.3996,-4.04274,92.3549
2023-02-15 04:53:56:914,-4.37693,12.399,-55.6502,-12.4196,-4.03292,92.3469
2023-02-15 04:53:56:924,-4.30031,12.4909,-55.7037,-12.4381,-4.02361,92.3327
2023-02-15 04:53:56:934,-4.26554,12.5437,-55.7945,-12.4606,-4.01492,92.3207
2023-02-15 04:53:56:944,-4.13297,12.5933,-55.6936,-12.4819,-4.00709,92.3033
2023-02-15 04:53:56:954,-3.91205,12.4797,-55.5412,-12.4986,-3.99909,92.2847
2023-02-15 04:53:56:964,-3.93297,12.4365,-55.5455,-12.5178,-3.99052,92.2662
2023-02-15 04:53:56:974,-3.90016,12.5208,-55.5528,-12.5362,-3.98293,92.2474
2023-02-15 04:53:56:984,-3.6446,12.5486,-55.5618,-12.5535,-3.96714,92.2257
2023-02-15 04:53:56:994,-3.2644,12.5787,-55.6286,-12.5731,-3.94807,92.2078
2023-02-15 04:53:57:4,-3.0751,12.5629,-55.7965,-12.5884,-3.93027,92.1923
2023-02-15 04:53:57:14,-3.02835,12.6026,-55.9334,-12.6063,-3.91733,92.1828
2023-02-15 04:53:57:24,-3.02358,12.6711,-55.9305,-12.6208,-3.91019,92.1754
2023-02-15 04:53:57:34,-3.12773,12.7939,-55.9846,-12.6343,-3.90615,92.1714
2023-02-15 04:53:57:44,-3.27872,12.8566,-55.9999,-12.6464,-3.90395,92.1714
2023-02-15 04:53:57:54,-3.34255,12.9104,-56.0698,-12.6553,-3.89854,92.1711
2023-02-15 04:53:57:64,-3.41076,12.9778,-56.0784,-12.6587,-3.8954,92.1753
2023-02-15 04:53:57:74,-3.41752,12.895,-56.1088,-12.6624,-3.88943,92.1816
2023-02-15 04:53:57:84,-3.29506,12.8529,-55.9234,-12.6617,-3.88479,92.1886
2023-02-15 04:53:57:94,-3.27695,12.7348,-55.802,-12.6615,-3.88138,92.1991
2023-02-15 04:53:57:104,-3.32764,12.703,-55.6177,-12.6564,-3.87945,92.2101
2023-02-15 04:53:57:114,-3.25921,12.6862,-55.4754,-12.6513,-3.87996,92.221
2023-02-15 04:53:57:124,-3.29592,12.5731,-55.5049,-12.646,-3.88523,92.2368
2023-02-15 04:53:57:134,-3.23834,12.527,-55.65,-12.6412,-3.8888,92.252
2023-02-15 04:53:57:144,-3.2629,12.5282,-55.662,-12.6397,-3.89031,92.2698
2023-02-15 04:53:57:154,-3.38598,12.549,-55.694,-12.6341,-3.89315,92.2917
2023-02-15 04:53:57:164,-3.46375,12.5526,-55.6481,-12.6293,-3.89989,92.3119
2023-02-15 04:53:57:174,-3.5619,12.5234,-55.6592,-12.6259,-3.90146,92.3337
2023-02-15 04:53:57:184,-3.72345,12.4911,-55.4671,-12.6196,-3.90671,92.3566
2023-02-15 04:53:57:194,-3.82922,12.4227,-55.5206,-12.6168,-3.90924,92.3842
2023-02-15 04:53:57:204,-3.98828,12.4301,-55.5261,-12.6129,-3.9141,92.4087
2023-02-15 04:53:57:214,-3.93456,12.35,-55.4528,-12.6092,-3.91903,92.4324
2023-02-15 04:53:57:224,-3.78653,12.3519,-55.403,-12.6074,-3.92343,92.4523
2023-02-15 04:53:57:234,-3.82773,12.3294,-55.3968,-12.6088,-3.92386,92.4711
2023-02-15 04:53:57:244,-3.8364,12.3778,-55.5094,-12.6128,-3.92556,92.4863
2023-02-15 04:53:57:254,-3.89797,12.5414,-55.6197,-12.6184,-3.92607,92.5066
2023-02-15 04:53:57:264,-4.15958,12.6306,-55.6995,-12.622,-3.93057,92.5242
2023-02-15 04:53:57:274,-4.34621,12.64,-55.7507,-12.6222,-3.93817,92.5368
2023-02-15 04:53:57:284,-4.40736,12.6023,-55.6527,-12.6205,-3.94149,92.5478
2023-02-15 04:53:57:294,-4.36874,12.534,-55.5758,-12.6187,-3.94159,92.5528
2023-02-15 04:53:57:304,-4.28159,12.4861,-55.5983,-12.6157,-3.94511,92.5542
2023-02-15 04:53:57:314,-4.00917,12.485,-55.51,-12.6125,-3.94436,92.5519
2023-02-15 04:53:57:324,-3.6816,12.4566,-55.5603,-12.6118,-3.94049,92.547
2023-02-15 04:53:57:334,-3.52249,12.4366,-55.551,-12.6125,-3.93577,92.539
2023-02-15 04:53:57:344,-3.40146,12.4402,-55.5223,-12.6134,-3.92673,92.536
2023-02-15 04:53:57:353,-3.2051,12.4952,-55.63,-12.6162,-3.91717,92.5295
2023-02-15 04:53:57:364,-3.15019,12.5352,-55.7351,-12.6176,-3.91168,92.5306
2023-02-15 04:53:57:374,-3.21153,12.6259,-55.7573,-12.618,-3.90515,92.5342
2023-02-15 04:53:57:384,-3.42038,12.598,-55.7222,-12.6171,-3.89948,92.5435
2023-02-15 04:53:57:394,-3.50378,12.4521,-55.6774,-12.6156,-3.8967,92.5532
2023-02-15 04:53:57:404,-3.62054,12.4316,-55.5879,-12.6124,-3.8975,92.564
2023-02-15 04:53:57:414,-3.73194,12.4263,-55.7181,-12.609,-3.89466,92.5738
2023-02-15 04:53:57:424,-3.70862,12.578,-55.8648,-12.6081,-3.89423,92.5852
2023-02-15 04:53:57:434,-3.51497,12.5356,-55.7864,-12.6022,-3.89164,92.5937
2023-02-15 04:53:57:444,-3.54327,12.4544,-55.7402,-12.5934,-3.88979,92.6027
2023-02-15 04:53:57:454,-3.52962,12.502,-55.7619,-12.587,-3.8902,92.6091
2023-02-15 04:53:57:464,-3.56596,12.434,-55.7706,-12.5772,-3.89272,92.6181
2023-02-15 04:53:57:474,-3.6807,12.4076,-55.6075,-12.5675,-3.89833,92.6253
2023-02-15 04:53:57:484,-3.73282,12.3226,-55.6032,-12.559,-3.90595,92.6346
2023-02-15 04:53:57:494,-3.64905,12.3496,-55.6984,-12.5512,-3.91201,92.6383
2023-02-15 04:53:57:504,-3.48377,12.4328,-55.9173,-12.5454,-3.91709,92.6403
2023-02-15 04:53:57:514,-3.38604,12.4157,-56.0706,-12.5353,-3.91908,92.6423
2023-02-15 04:53:57:524,-3.4256,12.3449,-56.0109,-12.5256,-3.92858,92.6439
2023-02-15 04:53:57:534,-3.5245,12.2948,-55.8782,-12.5128,-3.93738,92.6487
2023-02-15 04:53:57:544,-3.61437,12.2764,-55.713,-12.5011,-3.95058,92.6569
2023-02-15 04:53:57:554,-3.76812,12.1826,-55.4708,-12.4898,-3.96113,92.6691
2023-02-15 04:53:57:564,-3.88246,12.2368,-55.2441,-12.4847,-3.97082,92.6818
2023-02-15 04:53:57:574,-3.81341,12.274,-55.2269,-12.4797,-3.97873,92.6952
2023-02-15 04:53:57:584,-3.8571,12.2264,-55.3197,-12.4783,-3.98506,92.7048
2023-02-15 04:53:57:594,-3.98007,12.2576,-55.395,-12.4731,-3.99645,92.7166
2023-02-15 04:53:57:604,-4.10875,12.3389,-55.3661,-12.471,-4.00615,92.7294
2023-02-15 04:53:57:614,-4.18507,12.3392,-55.2599,-12.4713,-4.019,92.7409
2023-02-15 04:53:57:624,-4.25182,12.2463,-55.2659,-12.4729,-4.0259,92.7484
2023-02-15 04:53:57:634,-4.30413,12.2395,-55.289,-12.4757,-4.03059,92.7549
2023-02-15 04:53:57:644,-4.3449,12.2406,-55.3323,-12.483,-4.03209,92.7631
2023-02-15 04:53:57:654,-4.43562,12.2079,-55.4915,-12.488,-4.02604,92.7699
2023-02-15 04:53:57:664,-4.35728,12.2257,-55.6281,-12.4917,-4.0137,92.7743
2023-02-15 04:53:57:674,-4.22509,12.3243,-55.6656,-12.4993,-3.99715,92.7827
2023-02-15 04:53:57:684,-4.12184,12.2978,-55.6456,-12.5062,-3.97777,92.7921
2023-02-15 04:53:57:694,-4.05164,12.3008,-55.4998,-12.5128,-3.95179,92.8022
2023-02-15 04:53:57:704,-4.04466,12.3485,-55.4019,-12.5195,-3.91775,92.8132
2023-02-15 04:53:57:714,-3.67723,12.4417,-55.4888,-12.529,-3.88408,92.825
2023-02-15 04:53:57:724,-3.58475,12.5072,-55.4535,-12.5433,-3.84807,92.8354
2023-02-15 04:53:57:734,-3.76663,12.5025,-55.4473,-12.5546,-3.81307,92.8471
2023-02-15 04:53:57:744,-3.72487,12.7018,-55.7368,-12.5689,-3.78133,92.8594
2023-02-15 04:53:57:754,-3.52469,12.8134,-55.8547,-12.5805,-3.75133,92.8651
2023-02-15 04:53:57:764,-3.24149,12.8311,-55.8891,-12.5895,-3.72332,92.8696
2023-02-15 04:53:57:774,-3.02674,12.808,-55.8618,-12.5968,-3.69639,92.8648
2023-02-15 04:53:57:784,-3.00912,12.8309,-55.8744,-12.5983,-3.67601,92.8579
2023-02-15 04:53:57:794,-3.00043,12.859,-55.7546,-12.6001,-3.66278,92.8501
2023-02-15 04:53:57:804,-2.97331,12.8466,-55.7866,-12.6,-3.6554,92.8382
2023-02-15 04:53:57:814,-2.90213,12.8316,-55.9666,-12.601,-3.65669,92.8236
2023-02-15 04:53:57:824,-2.7228,12.9527,-56.2296,-12.6031,-3.65671,92.8063
2023-02-15 04:53:57:834,-2.5365,12.9349,-56.4174,-12.6028,-3.65927,92.7911
2023-02-15 04:53:57:844,-2.38793,12.8359,-56.3805,-12.5961,-3.66391,92.7793
2023-02-15 04:53:57:854,-2.36029,12.7377,-56.2869,-12.5871,-3.67585,92.7705
2023-02-15 04:53:57:864,-2.34025,12.6796,-56.1659,-12.5731,-3.69048,92.7659
2023-02-15 04:53:57:874,-2.45363,12.5759,-55.9421,-12.5551,-3.70491,92.7664
2023-02-15 04:53:57:884,-2.57807,12.4318,-55.6539,-12.5363,-3.72229,92.7734
2023-02-15 04:53:57:894,-2.72149,12.303,-55.5731,-12.5171,-3.74208,92.7855
2023-02-15 04:53:57:904,-2.95625,12.1712,-55.5073,-12.4999,-3.76344,92.8015
2023-02-15 04:53:57:914,-3.1137,12.1481,-55.5227,-12.4815,-3.79233,92.8211
2023-02-15 04:53:57:924,-3.26098,12.1234,-55.5561,-12.4637,-3.82142,92.8418
2023-02-15 04:53:57:934,-3.50717,11.9985,-55.5714,-12.445,-3.85129,92.8636
2023-02-15 04:53:57:944,-3.68875,11.9734,-55.5343,-12.4313,-3.88152,92.8922
2023-02-15 04:53:57:954,-3.8289,11.9587,-55.4891,-12.4184,-3.91344,92.9169
2023-02-15 04:53:57:964,-3.94821,12.0149,-55.4193,-12.4075,-3.94523,92.9407
2023-02-15 04:53:57:974,-3.96152,11.9789,-55.41,-12.3999,-3.97272,92.9683
2023-02-15 04:53:57:984,-4.04187,12.028,-55.4222,-12.3916,-3.99877,92.993
2023-02-15 04:53:57:994,-4.16902,12.1523,-55.3422,-12.3914,-4.02518,93.0175
2023-02-15 04:53:58:4,-4.27418,12.1255,-55.4051,-12.3891,-4.05388,93.0426
2023-02-15 04:53:58:14,-4.34624,12.1197,-55.4911,-12.387,-4.07861,93.0663
2023-02-15 04:53:58:24,-4.48709,12.1924,-55.5275,-12.3873,-4.0982,93.0857
2023-02-15 04:53:58:34,-4.63578,12.2451,-55.4318,-12.3903,-4.11609,93.1041
2023-02-15 04:53:58:44,-4.74695,12.2421,-55.4012,-12.3947,-4.13629,93.1211
2023-02-15 04:53:58:54,-4.69521,12.3232,-55.5198,-12.4,-4.15386,93.1281
2023-02-15 04:53:58:64,-4.60968,12.4155,-55.6436,-12.4065,-4.17271,93.1329
2023-02-15 04:53:58:74,-4.49305,12.3735,-55.7428,-12.4131,-4.18644,93.136
2023-02-15 04:53:58:84,-4.34356,12.4367,-55.8852,-12.4197,-4.19744,93.136
2023-02-15 04:53:58:94,-4.24068,12.4838,-55.9202,-12.4213,-4.20487,93.1356
2023-02-15 04:53:58:104,-4.222,12.4417,-55.978,-12.4213,-4.21384,93.1316
2023-02-15 04:53:58:114,-4.3319,12.398,-55.8011,-12.4198,-4.21652,93.1314
2023-02-15 04:53:58:124,-4.31255,12.3114,-55.6097,-12.4172,-4.22048,93.1284
2023-02-15 04:53:58:134,-4.28071,12.2647,-55.4114,-12.4129,-4.22332,93.126
2023-02-15 04:53:58:144,-4.28016,12.1049,-55.4035,-12.4101,-4.22788,93.12
2023-02-15 04:53:58:154,-4.26804,12.0883,-55.3732,-12.4093,-4.23199,93.1166
2023-02-15 04:53:58:164,-4.17148,12.1423,-55.3702,-12.4097,-4.23563,93.1081
2023-02-15 04:53:58:174,-4.13968,12.102,-55.4268,-12.4131,-4.2358,93.1013
2023-02-15 04:53:58:184,-4.11394,12.1032,-55.567,-12.4187,-4.23922,93.0941
2023-02-15 04:53:58:194,-4.02745,12.0712,-55.5981,-12.4239,-4.24253,93.083
2023-02-15 04:53:58:204,-4.04429,12.0971,-55.6925,-12.4297,-4.24707,93.0726
2023-02-15 04:53:58:214,-3.96281,12.1902,-55.7289,-12.4352,-4.25208,93.0635
2023-02-15 04:53:58:224,-3.78871,12.1437,-55.6826,-12.4449,-4.2557,93.0536
2023-02-15 04:53:58:234,-3.56694,12.1295,-55.7195,-12.448,-4.25946,93.0462
2023-02-15 04:53:58:244,-3.48974,12.123,-55.6505,-12.4507,-4.26565,93.0375
2023-02-15 04:53:58:254,-3.58421,12.05,-55.5733,-12.4579,-4.27534,93.0384
2023-02-15 04:53:58:264,-3.75572,12.0741,-55.4724,-12.4634,-4.28437,93.0417
2023-02-15 04:53:58:274,-3.95636,12.1529,-55.4527,-12.4707,-4.29322,93.0464
2023-02-15 04:53:58:284,-4.06605,12.2381,-55.7144,-12.4808,-4.29825,93.0517
2023-02-15 04:53:58:294,-4.0165,12.3145,-55.9492,-12.4914,-4.30257,93.0627
2023-02-15 04:53:58:304,-3.9878,12.3711,-56.0294,-12.5008,-4.30323,93.0755
2023-02-15 04:53:58:314,-4.02199,12.3599,-56.02,-12.5105,-4.31107,93.0864
2023-02-15 04:53:58:324,-4.05505,12.4905,-55.8637,-12.5185,-4.32008,93.0978
2023-02-15 04:53:58:334,-4.14219,12.5536,-55.7,-12.5251,-4.33169,93.1147
2023-02-15 04:53:58:344,-4.23246,12.5984,-55.5963,-12.5318,-4.34464,93.1287
2023-02-15 04:53:58:354,-4.25282,12.5058,-55.5045,-12.5418,-4.36012,93.1445
2023-02-15 04:53:58:364,-4.27395,12.5158,-55.3648,-12.5469,-4.37237,93.1596
2023-02-15 04:53:58:374,-4.34767,12.605,-55.2724,-12.5526,-4.38615,93.1758
2023-02-15 04:53:58:384,-4.46781,12.5906,-55.3765,-12.5588,-4.39603,93.1898
2023-02-15 04:53:58:394,-4.5623,12.5297,-55.4264,-12.5641,-4.40836,93.2058
2023-02-15 04:53:58:404,-4.58675,12.508,-55.4432,-12.5693,-4.41756,93.2209
2023-02-15 04:53:58:414,-4.53399,12.5506,-55.5232,-12.5728,-4.42682,93.2348
2023-02-15 04:53:58:424,-4.46739,12.5842,-55.7755,-12.582,-4.43175,93.2499
2023-02-15 04:53:58:434,-4.4212,12.5975,-55.943,-12.5891,-4.43865,93.2649
2023-02-15 04:53:58:444,-4.47392,12.5724,-55.9704,-12.5916,-4.44145,93.2776
2023-02-15 04:53:58:454,-4.53559,12.6304,-55.8021,-12.5965,-4.44291,93.2901
2023-02-15 04:53:58:464,-4.45319,12.5759,-55.7699,-12.5964,-4.44467,93.303
2023-02-15 04:53:58:474,-4.54251,12.5693,-55.7082,-12.5983,-4.44491,93.3152
2023-02-15 04:53:58:484,-4.66786,12.5874,-55.6007,-12.6004,-4.44373,93.3235
2023-02-15 04:53:58:494,-4.65707,12.4676,-55.4488,-12.6015,-4.44459,93.3374
2023-02-15 04:53:58:504,-4.52082,12.5539,-55.2647,-12.6025,-4.44348,93.3456
2023-02-15 04:53:58:514,-4.46832,12.4793,-55.1583,-12.606,-4.44326,93.3536
2023-02-15 04:53:58:524,-4.56531,12.4343,-55.2126,-12.6077,-4.43976,93.3593
2023-02-15 04:53:58:534,-4.51851,12.6119,-55.4114,-12.6146,-4.43297,93.3609
2023-02-15 04:53:58:544,-4.29996,12.6306,-55.6053,-12.6164,-4.42389,93.36
2023-02-15 04:53:58:554,-4.14797,12.6222,-55.7241,-12.6201,-4.41481,93.3576
2023-02-15 04:53:58:564,-3.97574,12.6389,-55.8849,-12.6217,-4.40906,93.3544
2023-02-15 04:53:58:574,-3.93913,12.6067,-55.9857,-12.622,-4.40639,93.3524
2023-02-15 04:53:58:584,-4.09805,12.5463,-55.9083,-12.6171,-4.40916,93.3533
2023-02-15 04:53:58:594,-4.22695,12.6707,-55.8123,-12.6149,-4.40841,93.3548
2023-02-15 04:53:58:604,-4.19565,12.6692,-55.776,-12.6124,-4.40912,93.3573
2023-02-15 04:53:58:614,-4.12068,12.6765,-55.7427,-12.6103,-4.40591,93.3614
2023-02-15 04:53:58:624,-4.16638,12.6216,-55.7993,-12.6059,-4.40247,93.3612
2023-02-15 04:53:58:634,-4.14993,12.6344,-55.7929,-12.6059,-4.39954,93.3668
2023-02-15 04:53:58:644,-4.17221,12.6404,-55.6765,-12.6015,-4.39809,93.3704
2023-02-15 04:53:58:654,-4.11641,12.5738,-55.5633,-12.5924,-4.3979,93.3711
2023-02-15 04:53:58:664,-4.09657,12.474,-55.3851,-12.5812,-4.39837,93.3733
2023-02-15 04:53:58:674,-4.09557,12.3844,-55.3249,-12.5744,-4.39928,93.3753
2023-02-15 04:53:58:684,-4.01281,12.3067,-55.3842,-12.5637,-4.39869,93.3764
2023-02-15 04:53:58:694,-3.92343,12.2879,-55.4007,-12.5566,-4.40016,93.3747
2023-02-15 04:53:58:704,-3.95355,12.1821,-55.4943,-12.5486,-4.40027,93.3771
2023-02-15 04:53:58:714,-3.94805,12.2159,-55.6103,-12.5421,-4.40034,93.3814
2023-02-15 04:53:58:724,-4.02825,12.2255,-55.6361,-12.5404,-4.40218,93.3894
2023-02-15 04:53:58:734,-4.12177,12.2712,-55.6576,-12.5388,-4.40038,93.3977
2023-02-15 04:53:58:744,-4.25774,12.256,-55.7429,-12.5371,-4.40372,93.4068
2023-02-15 04:53:58:754,-4.26729,12.2526,-55.5749,-12.5379,-4.40219,93.4147
2023-02-15 04:53:58:764,-4.35427,12.3691,-55.4716,-12.5403,-4.3984,93.4275
2023-02-15 04:53:58:774,-4.49465,12.4839,-55.4759,-12.5417,-4.39785,93.4375
2023-02-15 04:53:58:784,-4.49685,12.4519,-55.5473,-12.542,-4.39864,93.4477
2023-02-15 04:53:58:794,-4.47148,12.433,-55.6286,-12.5436,-4.39807,93.4556
2023-02-15 04:53:58:804,-4.45885,12.532,-55.5571,-12.5434,-4.39816,93.4597
2023-02-15 04:53:58:814,-4.47925,12.5936,-55.5288,-12.5433,-4.39969,93.4614
2023-02-15 04:53:58:824,-4.49829,12.5184,-55.6198,-12.5414,-4.40292,93.4629
2023-02-15 04:53:58:834,-4.4669,12.4995,-55.5863,-12.5397,-4.39984,93.4599
2023-02-15 04:53:58:844,-4.48133,12.4911,-55.6374,-12.5372,-4.39904,93.4558
2023-02-15 04:53:58:854,-4.44706,12.4976,-55.7078,-12.5364,-4.39585,93.4519
2023-02-15 04:53:58:864,-4.32007,12.4505,-55.7436,-12.5358,-4.39169,93.4478
2023-02-15 04:53:58:874,-4.35529,12.4284,-55.7559,-12.5339,-4.38402,93.4444
2023-02-15 04:53:58:884,-4.17147,12.4341,-55.6914,-12.5281,-4.38145,93.4388
2023-02-15 04:53:58:894,-4.12705,12.4943,-55.6096,-12.5221,-4.3749,93.4337
2023-02-15 04:53:58:904,-4.11787,12.4059,-55.5229,-12.5168,-4.36875,93.4271
2023-02-15 04:53:58:914,-4.15948,12.2854,-55.5276,-12.5107,-4.36138,93.4203
2023-02-15 04:53:58:924,-4.22817,12.3235,-55.4996,-12.506,-4.35844,93.4141
2023-02-15 04:53:58:933,-4.21424,12.3927,-55.4649,-12.5017,-4.3545,93.406
2023-02-15 04:53:58:944,-4.20732,12.3543,-55.5156,-12.4987,-4.35413,93.3984
2023-02-15 04:53:58:954,-4.16724,12.353,-55.5668,-12.497,-4.35755,93.3913
2023-02-15 04:53:58:964,-4.07588,12.4093,-55.6321,-12.499,-4.35121,93.3834
2023-02-15 04:53:58:974,-3.91118,12.3572,-55.6549,-12.4954,-4.34623,93.3759
2023-02-15 04:53:58:984,-3.82988,12.3005,-55.7745,-12.488,-4.33955,93.3689
2023-02-15 04:53:58:994,-3.84064,12.3147,-55.8172,-12.4843,-4.33665,93.3679
2023-02-15 04:53:59:4,-3.9522,12.3179,-55.7662,-12.479,-4.3296,93.368
2023-02-15 04:53:59:14,-4.06587,12.2778,-55.6562,-12.4744,-4.31921,93.3724
2023-02-15 04:53:59:24,-4.06741,12.222,-55.598,-12.463,-4.31332,93.3769
2023-02-15 04:53:59:34,-4.14486,12.259,-55.4807,-12.4544,-4.30543,93.3837
2023-02-15 04:53:59:44,-4.37384,12.2618,-55.4137,-12.4472,-4.30042,93.3906
2023-02-15 04:53:59:54,-4.46596,12.183,-55.4708,-12.4406,-4.29557,93.3929
2023-02-15 04:53:59:64,-4.34934,12.3146,-55.68,-12.4378,-4.29025,93.3931
2023-02-15 04:53:59:73,-4.13708,12.384,-55.982,-12.4351,-4.28788,93.3911
2023-02-15 04:53:59:84,-3.98123,12.2716,-55.9849,-12.427,-4.28245,93.3889
2023-02-15 04:53:59:94,-3.78217,12.0894,-55.8584,-12.4197,-4.27957,93.3854
2023-02-15 04:53:59:104,-3.74775,12.1164,-55.8912,-12.4147,-4.28075,93.3813
2023-02-15 04:53:59:114,-3.69771,12.1152,-55.673,-12.4053,-4.28213,93.3818
2023-02-15 04:53:59:124,-3.83245,12.1051,-55.4575,-12.3993,-4.28167,93.3835
2023-02-15 04:53:59:134,-3.98285,12.1906,-55.2452,-12.3948,-4.2825,93.3875
2023-02-15 04:53:59:144,-4.00177,12.2136,-55.2437,-12.3945,-4.28049,93.3931
2023-02-15 04:53:59:154,-3.97847,12.2676,-55.2888,-12.3939,-4.27888,93.4005
2023-02-15 04:53:59:164,-3.92,12.2446,-55.4198,-12.398,-4.27966,93.4107
2023-02-15 04:53:59:174,-4.01308,12.2083,-55.3774,-12.4007,-4.28337,93.4203
2023-02-15 04:53:59:184,-4.23361,12.2858,-55.3797,-12.4068,-4.28708,93.4301
2023-02-15 04:53:59:194,-4.28094,12.3373,-55.4399,-12.4139,-4.28998,93.4374
2023-02-15 04:53:59:204,-4.25009,12.397,-55.5416,-12.4205,-4.29274,93.4435
2023-02-15 04:53:59:214,-4.22759,12.5426,-55.6849,-12.4307,-4.29534,93.4529
2023-02-15 04:53:59:224,-4.30284,12.4326,-55.7827,-12.4398,-4.29463,93.4582
2023-02-15 04:53:59:234,-4.30989,12.4429,-55.9014,-12.444,-4.29511,93.4641
2023-02-15 04:53:59:244,-4.2392,12.5833,-55.8207,-12.4464,-4.28991,93.4689
2023-02-15 04:53:59:254,-4.16806,12.5292,-55.7248,-12.4513,-4.28515,93.4718
2023-02-15 04:53:59:264,-4.09731,12.5323,-55.6915,-12.4572,-4.27948,93.476
2023-02-15 04:53:59:274,-4.01692,12.5654,-55.5975,-12.4603,-4.27296,93.4805
2023-02-15 04:53:59:284,-4.11628,12.5582,-55.5594,-12.4643,-4.26571,93.4815
2023-02-15 04:53:59:294,-4.18645,12.5675,-55.629,-12.4683,-4.26202,93.4842
2023-02-15 04:53:59:304,-4.33548,12.598,-55.668,-12.4731,-4.25857,93.489
2023-02-15 04:53:59:314,-4.50747,12.6702,-55.7211,-12.4732,-4.25674,93.4925
2023-02-15 04:53:59:324,-4.49283,12.6934,-55.8163,-12.4708,-4.24975,93.4933
2023-02-15 04:53:59:334,-4.19723,12.6532,-55.8101,-12.4674,-4.24073,93.489
2023-02-15 04:53:59:344,-3.94055,12.5666,-55.7616,-12.4614,-4.23291,93.4818
2023-02-15 04:53:59:354,-3.7376,12.4504,-55.8234,-12.452,-4.22509,93.4716
2023-02-15 04:53:59:364,-3.73257,12.3653,-55.7286,-12.4422,-4.22217,93.466
2023-02-15 04:53:59:374,-3.82583,12.2865,-55.6185,-12.4319,-4.22273,93.4566
2023-02-15 04:53:59:384,-3.83147,12.3581,-55.6881,-12.4219,-4.22358,93.4491
2023-02-15 04:53:59:394,-3.76207,12.3786,-55.8916,-12.4142,-4.22513,93.4471
2023-02-15 04:53:59:404,-3.75064,12.4127,-55.9052,-12.4038,-4.2241,93.4451
2023-02-15 04:53:59:414,-3.74598,12.299,-55.8771,-12.3925,-4.22171,93.4425
2023-02-15 04:53:59:424,-3.72547,12.2729,-55.8003,-12.3819,-4.21969,93.4414
2023-02-15 04:53:59:434,-3.84267,12.2567,-55.7008,-12.369,-4.21984,93.4452
2023-02-15 04:53:59:444,-3.86581,12.1459,-55.5457,-12.359,-4.22382,93.4445
2023-02-15 04:53:59:454,-4.10092,12.0312,-55.4535,-12.342,-4.23137,93.4469
2023-02-15 04:53:59:464,-4.30653,12.0084,-55.3625,-12.3263,-4.23846,93.447
2023-02-15 04:53:59:474,-4.36871,11.9828,-55.275,-12.3135,-4.24658,93.4457
2023-02-15 04:53:59:484,-4.25482,11.9037,-55.3284,-12.3028,-4.25313,93.4445
2023-02-15 04:53:59:494,-4.15268,11.8473,-55.2964,-12.2932,-4.25729,93.4389
2023-02-15 04:53:59:504,-4.11195,11.8381,-55.3932,-12.2898,-4.26683,93.4291
2023-02-15 04:53:59:514,-4.03245,11.8495,-55.5668,-12.288,-4.27425,93.4191
2023-02-15 04:53:59:524,-3.83743,11.9012,-55.672,-12.2902,-4.27973,93.4088
2023-02-15 04:53:59:534,-3.75089,11.9513,-55.6248,-12.2876,-4.28695,93.4018
2023-02-15 04:53:59:544,-3.63682,11.9332,-55.6026,-12.2916,-4.29472,93.3969
2023-02-15 04:53:59:554,-3.6526,11.8858,-55.6753,-12.294,-4.30018,93.3933
2023-02-15 04:53:59:564,-3.82324,11.9797,-55.5264,-12.2961,-4.3048,93.3958
2023-02-15 04:53:59:574,-4.01972,12.0396,-55.4649,-12.3009,-4.30761,93.4044
2023-02-15 04:53:59:584,-4.14873,12.0771,-55.4566,-12.3033,-4.31514,93.417
2023-02-15 04:53:59:594,-4.35646,12.1092,-55.4802,-12.3115,-4.31829,93.4301
2023-02-15 04:53:59:604,-4.49086,12.1955,-55.4593,-12.3193,-4.32299,93.4423
2023-02-15 04:53:59:614,-4.57057,12.1716,-55.5746,-12.3304,-4.32736,93.4519
2023-02-15 04:53:59:624,-4.5436,12.3005,-55.6339,-12.3388,-4.33248,93.4596
2023-02-15 04:53:59:634,-4.47066,12.3897,-55.6816,-12.3476,-4.33482,93.4614
2023-02-15 04:53:59:644,-4.35784,12.4232,-55.785,-12.3536,-4.33877,93.4623
2023-02-15 04:53:59:654,-4.22897,12.4322,-55.8998,-12.3591,-4.34248,93.4618
2023-02-15 04:53:59:664,-4.11982,12.4059,-55.9155,-12.3632,-4.34472,93.4591
2023-02-15 04:53:59:674,-4.03098,12.3875,-55.81,-12.3625,-4.34386,93.4616
2023-02-15 04:53:59:684,-4.02943,12.3466,-55.8288,-12.3656,-4.34478,93.4658
2023-02-15 04:53:59:694,-3.99915,12.2964,-55.845,-12.3608,-4.34341,93.4695
2023-02-15 04:53:59:704,-4.02316,12.2964,-55.8433,-12.3563,-4.3421,93.4746
2023-02-15 04:53:59:714,-4.02047,12.2967,-55.7395,-12.3524,-4.34028,93.4818
2023-02-15 04:53:59:724,-4.00455,12.2316,-55.6748,-12.3495,-4.34017,93.4927
2023-02-15 04:53:59:734,-4.11441,12.1879,-55.6193,-12.3452,-4.34042,93.5026
2023-02-15 04:53:59:744,-4.09447,12.1542,-55.5581,-12.3386,-4.34661,93.5111
2023-02-15 04:53:59:754,-4.11138,12.0919,-55.5439,-12.3364,-4.35109,93.5217
2023-02-15 04:53:59:764,-4.23537,12.0594,-55.5567,-12.3372,-4.35463,93.5332
2023-02-15 04:53:59:774,-4.18922,12.0704,-55.5354,-12.3371,-4.35596,93.5423
2023-02-15 04:53:59:784,-4.05953,12.0557,-55.6268,-12.3349,-4.36096,93.5513
2023-02-15 04:53:59:794,-4.13467,12.152,-55.7219,-12.3315,-4.3685,93.5575
2023-02-15 04:53:59:804,-4.22236,12.1224,-55.7127,-12.3293,-4.37498,93.5694
2023-02-15 04:53:59:814,-4.1913,12.089,-55.6081,-12.3273,-4.38192,93.5812
2023-02-15 04:53:59:824,-4.22034,12.1443,-55.5463,-12.3268,-4.38596,93.5939
2023-02-15 04:53:59:834,-4.40654,12.1645,-55.5976,-12.3225,-4.39204,93.6047
2023-02-15 04:53:59:844,-4.51591,12.0307,-55.5522,-12.3225,-4.40225,93.6137
2023-02-15 04:53:59:854,-4.54271,12.0604,-55.5293,-12.3178,-4.40893,93.6212
2023-02-15 04:53:59:864,-4.47496,12.1576,-55.6989,-12.3209,-4.41259,93.627
2023-02-15 04:53:59:874,-4.31464,12.2071,-55.9167,-12.3227,-4.41329,93.6354
2023-02-15 04:53:59:884,-4.07709,12.1591,-56.0101,-12.3231,-4.41566,93.6403
2023-02-15 04:53:59:894,-3.97581,12.1448,-55.992,-12.321,-4.42181,93.6464
2023-02-15 04:53:59:904,-4.1075,12.1188,-55.7647,-12.3183,-4.43212,93.651
2023-02-15 04:53:59:914,-4.22973,12.101,-55.5185,-12.3167,-4.44348,93.6612
2023-02-15 04:53:59:924,-4.3175,12.0022,-55.3226,-12.3165,-4.45408,93.67
2023-02-15 04:53:59:934,-4.38826,12.0759,-55.2316,-12.3173,-4.45902,93.6796
2023-02-15 04:53:59:944,-4.36683,12.1329,-55.2591,-12.3222,-4.46625,93.6913
2023-02-15 04:53:59:954,-4.25824,12.2164,-55.3176,-12.3295,-4.46651,93.7047
2023-02-15 04:53:59:964,-4.27923,12.2471,-55.4034,-12.3378,-4.46978,93.7233
2023-02-15 04:53:59:974,-4.23922,12.2581,-55.4466,-12.3487,-4.47307,93.7375
2023-02-15 04:53:59:984,-4.35671,12.2627,-55.5042,-12.3591,-4.47025,93.7544
2023-02-15 04:53:59:994,-4.51134,12.4391,-55.5348,-12.3663,-4.47048,93.7696
2023-02-15 04:54:00:4,-4.49216,12.4065,-55.6378,-12.374,-4.46899,93.7887
2023-02-15 04:54:00:14,-4.32558,12.417,-55.7411,-12.3787,-4.46549,93.8056
2023-02-15 04:54:00:24,-4.24208,12.4517,-55.7991,-12.3873,-4.46367,93.8229
2023-02-15 04:54:00:34,-4.37791,12.5177,-55.864,-12.3919,-4.4605,93.843
2023-02-15 04:54:00:44,-4.28186,12.4844,-55.8757,-12.3948,-4.45858,93.8645
2023-02-15 04:54:00:54,-4.19241,12.453,-55.7579,-12.3981,-4.45347,93.8861
2023-02-15 04:54:00:64,-4.51056,12.4248,-55.5689,-12.399,-4.44469,93.9082
2023-02-15 04:54:00:74,-4.6359,12.366,-55.5854,-12.4001,-4.4359,93.9275
2023-02-15 04:54:00:84,-4.32539,12.3536,-55.5734,-12.3991,-4.42752,93.9427
2023-02-15 04:54:00:94,-4.37645,12.3255,-55.3843,-12.404,-4.41968,93.9572
2023-02-15 04:54:00:104,-4.81413,12.2986,-55.3905,-12.4098,-4.42078,93.971
2023-02-15 04:54:00:114,-4.90761,12.4056,-55.5438,-12.4186,-4.41496,93.9821
2023-02-15 04:54:00:124,-4.74815,12.4778,-55.6716,-12.4231,-4.4103,93.9833
2023-02-15 04:54:00:134,-4.514,12.4171,-55.5935,-12.4244,-4.40158,93.9833
2023-02-15 04:54:00:144,-4.18869,12.3997,-55.5589,-12.4263,-4.39483,93.9772
2023-02-15 04:54:00:154,-3.89491,12.3488,-55.6144,-12.4262,-4.39231,93.9673
2023-02-15 04:54:00:164,-3.82581,12.3366,-55.625,-12.4256,-4.39321,93.9594
2023-02-15 04:54:00:174,-3.86808,12.395,-55.6362,-12.4264,-4.39907,93.9506
2023-02-15 04:54:00:184,-3.8044,12.3646,-55.7629,-12.4266,-4.40175,93.949
2023-02-15 04:54:00:194,-3.7507,12.3406,-55.8996,-12.4267,-4.4046,93.9486
2023-02-15 04:54:00:204,-3.7519,12.3078,-56.0227,-12.4268,-4.4033,93.9505
2023-02-15 04:54:00:214,-3.86886,12.3923,-55.933,-12.4256,-4.40517,93.9591
2023-02-15 04:54:00:224,-4.06326,12.3019,-55.9111,-12.4204,-4.40605,93.9662
2023-02-15 04:54:00:234,-4.28847,12.284,-55.7307,-12.4185,-4.40673,93.9761
2023-02-15 04:54:00:244,-4.35297,12.2208,-55.5409,-12.4141,-4.4072,93.9848
2023-02-15 04:54:00:254,-4.35036,12.1815,-55.3462,-12.4098,-4.40815,93.9966
2023-02-15 04:54:00:264,-4.33975,12.2101,-55.2876,-12.4036,-4.40869,94.0054
2023-02-15 04:54:00:274,-4.36031,12.1583,-55.3774,-12.3992,-4.41224,94.0112
2023-02-15 04:54:00:284,-4.2985,12.0721,-55.4297,-12.3961,-4.41394,94.0153
2023-02-15 04:54:00:294,-4.09642,12.0547,-55.4588,-12.3931,-4.41768,94.0185
2023-02-15 04:54:00:304,-4.03879,12.0869,-55.5293,-12.3948,-4.42119,94.0237
2023-02-15 04:54:00:314,-4.07381,12.106,-55.6073,-12.3983,-4.42781,94.0304
2023-02-15 04:54:00:324,-4.0373,12.1422,-55.5955,-12.4014,-4.43821,94.0406
2023-02-15 04:54:00:334,-4.09524,12.1854,-55.6379,-12.4051,-4.4439,94.0499
2023-02-15 04:54:00:344,-4.27708,12.1963,-55.6725,-12.4121,-4.44809,94.0608
2023-02-15 04:54:00:354,-4.4238,12.2633,-55.5523,-12.4181,-4.45183,94.0738
2023-02-15 04:54:00:364,-4.51796,12.2707,-55.5665,-12.4229,-4.45525,94.085
2023-02-15 04:54:00:374,-4.60986,12.3492,-55.5883,-12.4304,-4.45839,94.0979
2023-02-15 04:54:00:384,-4.62122,12.392,-55.5608,-12.4391,-4.46179,94.1119
2023-02-15 04:54:00:394,-4.62808,12.3795,-55.545,-12.4433,-4.46416,94.1193
2023-02-15 04:54:00:404,-4.61355,12.4342,-55.4411,-12.4473,-4.46738,94.1245
2023-02-15 04:54:00:414,-4.50991,12.4358,-55.5456,-12.4527,-4.46866,94.1306
2023-02-15 04:54:00:424,-4.3863,12.4381,-55.5507,-12.4589,-4.47157,94.1347
2023-02-15 04:54:00:434,-4.33719,12.471,-55.558,-12.4609,-4.47245,94.1348
2023-02-15 04:54:00:444,-4.31289,12.4849,-55.5683,-12.4669,-4.47218,94.1372
2023-02-15 04:54:00:454,-4.13943,12.4311,-55.6832,-12.4711,-4.47156,94.1394
2023-02-15 04:54:00:464,-4.00629,12.3954,-55.7053,-12.4763,-4.46801,94.139
2023-02-15 04:54:00:474,-4.07044,12.4395,-55.6987,-12.4827,-4.46715,94.1388
2023-02-15 04:54:00:484,-4.02132,12.4473,-55.7268,-12.4857,-4.46466,94.1434
2023-02-15 04:54:00:494,-4.10803,12.4099,-55.6498,-12.4892,-4.46549,94.1489
2023-02-15 04:54:00:504,-4.15316,12.3476,-55.6424,-12.4916,-4.46424,94.1542
2023-02-15 04:54:00:514,-4.16845,12.3911,-55.828,-12.4895,-4.46368,94.1625
2023-02-15 04:54:00:524,-4.18381,12.3818,-55.8182,-12.4853,-4.46229,94.1696
2023-02-15 04:54:00:534,-4.2078,12.3493,-55.6536,-12.4819,-4.46614,94.1761
2023-02-15 04:54:00:544,-4.15518,12.3247,-55.5469,-12.4807,-4.46961,94.1856
2023-02-15 04:54:00:554,-3.94276,12.2576,-55.6879,-12.4739,-4.47375,94.1958
2023-02-15 04:54:00:564,-3.89155,12.2283,-55.6579,-12.4716,-4.47817,94.2081
2023-02-15 04:54:00:574,-4.08148,12.1972,-55.5462,-12.4696,-4.48218,94.2217
2023-02-15 04:54:00:584,-4.03942,12.1724,-55.4758,-12.4687,-4.48673,94.2368
2023-02-15 04:54:00:594,-4.12633,12.1329,-55.4353,-12.4672,-4.48987,94.2543
2023-02-15 04:54:00:604,-4.37485,12.2589,-55.5534,-12.4722,-4.49374,94.2719
2023-02-15 04:54:00:614,-4.43905,12.3165,-55.731,-12.472,-4.49692,94.2904
2023-02-15 04:54:00:624,-4.52146,12.355,-55.717,-12.4728,-4.50008,94.3092
2023-02-15 04:54:00:634,-4.67003,12.3319,-55.6101,-12.4719,-4.50736,94.3262
2023-02-15 04:54:00:644,-4.86079,12.2453,-55.5322,-12.4695,-4.51727,94.3432
2023-02-15 04:54:00:654,-4.87195,12.2581,-55.4424,-12.4699,-4.53044,94.3527
2023-02-15 04:54:00:664,-4.83682,12.2576,-55.3949,-12.4695,-4.53908,94.3574
2023-02-15 04:54:00:674,-4.81376,12.1642,-55.4098,-12.4689,-4.54409,94.3627
2023-02-15 04:54:00:684,-4.70589,12.137,-55.5342,-12.4702,-4.5516,94.3675
2023-02-15 04:54:00:694,-4.4547,12.2522,-55.7414,-12.4714,-4.55239,94.367
2023-02-15 04:54:00:704,-4.19033,12.2566,-55.8519,-12.4743,-4.55195,94.3663
2023-02-15 04:54:00:714,-4.10908,12.2646,-55.8576,-12.4764,-4.5527,94.3668
2023-02-15 04:54:00:724,-4.11556,12.2911,-55.8837,-12.4773,-4.56004,94.3661
2023-02-15 04:54:00:734,-4.22807,12.3004,-55.8294,-12.4817,-4.56579,94.3697
2023-02-15 04:54:00:744,-4.43194,12.3567,-55.6292,-12.4836,-4.57497,94.3778
2023-02-15 04:54:00:754,-4.51516,12.4785,-55.3922,-12.4878,-4.57944,94.3859
2023-02-15 04:54:00:764,-4.3726,12.4305,-55.3646,-12.4917,-4.57874,94.3943
2023-02-15 04:54:00:774,-4.26461,12.4096,-55.3983,-12.4941,-4.57996,94.4006
2023-02-15 04:54:00:784,-4.23119,12.4776,-55.4051,-12.4978,-4.58157,94.41
2023-02-15 04:54:00:794,-4.3257,12.4309,-55.4376,-12.4981,-4.58245,94.4159
2023-02-15 04:54:00:804,-4.44497,12.431,-55.4183,-12.4996,-4.58678,94.4276
2023-02-15 04:54:00:814,-4.48027,12.3347,-55.3102,-12.5013,-4.59375,94.4388
2023-02-15 04:54:00:824,-4.64904,12.298,-55.2713,-12.5045,-4.59883,94.4482
2023-02-15 04:54:00:834,-4.90723,12.3845,-55.3981,-12.5076,-4.60471,94.4565
2023-02-15 04:54:00:844,-5.10798,12.5967,-55.5338,-12.5157,-4.61472,94.4649
2023-02-15 04:54:00:854,-5.36372,12.6894,-55.7712,-12.526,-4.61986,94.4672
2023-02-15 04:54:00:864,-5.45737,12.784,-55.8898,-12.5311,-4.62143,94.4662
2023-02-15 04:54:00:874,-5.20465,12.7745,-55.8055,-12.5328,-4.62151,94.4564
2023-02-15 04:54:00:884,-4.90365,12.6938,-55.6758,-12.5349,-4.61841,94.443
2023-02-15 04:54:00:894,-4.73707,12.5465,-55.5231,-12.5347,-4.61579,94.4245
2023-02-15 04:54:00:904,-4.50673,12.5003,-55.3806,-12.5397,-4.61261,94.4037
2023-02-15 04:54:00:914,-4.37245,12.5253,-55.1952,-12.5469,-4.61401,94.3776
2023-02-15 04:54:00:924,-4.50361,12.4569,-54.9922,-12.5556,-4.61989,94.3548
2023-02-15 04:54:00:934,-4.60352,12.5405,-55.1481,-12.5687,-4.62365,94.3316
2023-02-15 04:54:00:944,-4.49311,12.6668,-55.4332,-12.5795,-4.62537,94.3083
2023-02-15 04:54:00:954,-4.25117,12.8114,-55.5987,-12.5892,-4.61826,94.2831
2023-02-15 04:54:00:964,-3.9549,12.861,-55.8758,-12.5985,-4.60976,94.258
2023-02-15 04:54:00:974,-3.94466,12.8754,-56.1284,-12.6024,-4.60331,94.2382
2023-02-15 04:54:00:984,-4.08419,12.8835,-56.0473,-12.6027,-4.6002,94.2194
2023-02-15 04:54:00:994,-4.25411,12.8743,-55.9468,-12.6016,-4.60611,94.2071
2023-02-15 04:54:01:4,-4.4019,12.8038,-55.9615,-12.5975,-4.60961,94.1927
2023-02-15 04:54:01:14,-4.28368,12.7659,-55.8999,-12.5895,-4.61281,94.1811
2023-02-15 04:54:01:24,-4.17022,12.7779,-55.8755,-12.5811,-4.61619,94.1686
2023-02-15 04:54:01:34,-4.18372,12.7644,-55.7358,-12.5705,-4.62068,94.1569
2023-02-15 04:54:01:44,-4.2258,12.6967,-55.7013,-12.5587,-4.6227,94.148
2023-02-15 04:54:01:54,-4.24664,12.5772,-55.6915,-12.5451,-4.62684,94.1403
2023-02-15 04:54:01:64,-4.24642,12.4299,-55.5983,-12.5308,-4.63343,94.1373
2023-02-15 04:54:01:74,-4.28856,12.3438,-55.4522,-12.5183,-4.63921,94.1349
2023-02-15 04:54:01:84,-4.35321,12.3034,-55.3911,-12.5009,-4.64781,94.1352
2023-02-15 04:54:01:94,-4.38361,12.1781,-55.4124,-12.4886,-4.65362,94.1352
2023-02-15 04:54:01:104,-4.527,12.0975,-55.3464,-12.4728,-4.65989,94.1376
2023-02-15 04:54:01:114,-4.54183,12.0604,-55.3494,-12.4615,-4.66916,94.1416
2023-02-15 04:54:01:124,-4.58183,12.0939,-55.3881,-12.4523,-4.67891,94.1466
2023-02-15 04:54:01:134,-4.64585,12.0772,-55.4752,-12.4439,-4.69024,94.1519
2023-02-15 04:54:01:144,-4.73719,12.1336,-55.5072,-12.4371,-4.69826,94.1579
2023-02-15 04:54:01:154,-4.7929,12.2051,-55.4164,-12.4333,-4.70213,94.1669
2023-02-15 04:54:01:164,-4.78111,12.2038,-55.3429,-12.4285,-4.70014,94.1752
2023-02-15 04:54:01:174,-4.79135,12.1798,-55.4148,-12.4256,-4.69981,94.182
2023-02-15 04:54:01:184,-4.66519,12.2865,-55.4997,-12.4224,-4.69526,94.1928
2023-02-15 04:54:01:194,-4.60758,12.2976,-55.5844,-12.4215,-4.68514,94.2023
2023-02-15 04:54:01:204,-4.65212,12.293,-55.5678,-12.4223,-4.6751,94.2117
2023-02-15 04:54:01:214,-4.68619,12.3564,-55.674,-12.4215,-4.66471,94.2198
2023-02-15 04:54:01:224,-4.69118,12.4877,-55.7927,-12.4162,-4.65523,94.2285
2023-02-15 04:54:01:234,-4.80651,12.4196,-55.8054,-12.4101,-4.64612,94.2356
2023-02-15 04:54:01:244,-4.83236,12.3715,-55.7195,-12.4012,-4.64269,94.2409
2023-02-15 04:54:01:254,-4.86056,12.3286,-55.6863,-12.3924,-4.63299,94.2423
2023-02-15 04:54:01:264,-4.83304,12.2846,-55.6223,-12.3819,-4.62548,94.2426
2023-02-15 04:54:01:274,-4.70233,12.2879,-55.5596,-12.3742,-4.6153,94.2381
2023-02-15 04:54:01:284,-4.51251,12.2968,-55.6361,-12.3601,-4.60354,94.2334
2023-02-15 04:54:01:294,-4.23512,12.286,-55.7804,-12.3487,-4.58948,94.2256
2023-02-15 04:54:01:304,-4.09697,12.3463,-55.8048,-12.337,-4.57606,94.217
2023-02-15 04:54:01:314,-3.88364,12.2221,-55.9298,-12.3204,-4.56196,94.2096
2023-02-15 04:54:01:324,-3.58939,12.1533,-55.943,-12.307,-4.5454,94.2048
2023-02-15 04:54:01:334,-3.46838,12.0833,-55.9131,-12.2875,-4.53235,94.2
2023-02-15 04:54:01:344,-3.59154,11.9526,-55.8285,-12.2673,-4.52131,94.2016
2023-02-15 04:54:01:354,-3.78256,11.8123,-55.7722,-12.2467,-4.51486,94.2066
2023-02-15 04:54:01:364,-3.98755,11.7534,-55.627,-12.2258,-4.5141,94.2137
2023-02-15 04:54:01:374,-4.34214,11.7401,-55.4501,-12.2084,-4.51395,94.2232
2023-02-15 04:54:01:384,-4.61728,11.7668,-55.4957,-12.1924,-4.51683,94.2379
2023-02-15 04:54:01:394,-4.79486,11.8286,-55.4258,-12.1806,-4.52294,94.2459
2023-02-15 04:54:01:404,-4.89892,11.913,-55.3042,-12.1694,-4.52995,94.2473
2023-02-15 04:54:01:414,-4.87932,11.9868,-55.394,-12.155,-4.53435,94.2465
2023-02-15 04:54:01:424,-4.64412,12.054,-55.4542,-12.15,-4.53811,94.2389
2023-02-15 04:54:01:434,-4.47188,12.008,-55.4059,-12.1429,-4.5422,94.2269
2023-02-15 04:54:01:444,-4.26884,11.9655,-55.3314,-12.1334,-4.5506,94.2099
2023-02-15 04:54:01:454,-4.19267,11.9604,-55.402,-12.1289,-4.55527,94.1927
2023-02-15 04:54:01:464,-4.16862,11.9303,-55.4167,-12.1251,-4.56227,94.1822
2023-02-15 04:54:01:474,-4.26167,11.9255,-55.5377,-12.1237,-4.56642,94.1711
2023-02-15 04:54:01:484,-4.33384,11.9039,-55.7793,-12.1222,-4.57163,94.1637
2023-02-15 04:54:01:494,-4.53348,11.9813,-55.8782,-12.1219,-4.57653,94.1583
2023-02-15 04:54:01:504,-4.80366,12.0026,-55.839,-12.1173,-4.5823,94.1561
2023-02-15 04:54:01:514,-5.16336,12.0954,-55.8177,-12.1183,-4.58319,94.1502
2023-02-15 04:54:01:524,-5.06361,12.1643,-55.9448,-12.1199,-4.58086,94.14
2023-02-15 04:54:01:534,-4.56864,12.1889,-56.071,-12.1154,-4.57916,94.1283
2023-02-15 04:54:01:544,-4.13048,12.0735,-55.9925,-12.1101,-4.57968,94.1111
2023-02-15 04:54:01:554,-4.04517,11.8964,-55.7951,-12.1031,-4.588,94.0939
2023-02-15 04:54:01:564,-4.22598,11.8252,-55.6922,-12.0909,-4.59974,94.0772
2023-02-15 04:54:01:574,-4.486,11.7577,-55.56,-12.0816,-4.61529,94.0662
2023-02-15 04:54:01:584,-4.79281,11.8423,-55.3893,-12.0741,-4.62636,94.0584
2023-02-15 04:54:01:594,-4.84404,11.8579,-55.3062,-12.0643,-4.63201,94.0538
2023-02-15 04:54:01:604,-4.77305,11.8135,-55.4766,-12.057,-4.62742,94.0514
2023-02-15 04:54:01:614,-4.89373,11.7287,-55.5874,-12.0488,-4.61777,94.0516
2023-02-15 04:54:01:624,-4.86884,11.7018,-55.4917,-12.0402,-4.60754,94.0506
2023-02-15 04:54:01:634,-4.9147,11.7021,-55.4556,-12.037,-4.59774,94.0476
2023-02-15 04:54:01:644,-5.19262,11.7566,-55.3533,-12.0355,-4.59221,94.0444
2023-02-15 04:54:01:654,-5.42588,11.7448,-55.1686,-12.0399,-4.58703,94.0355
2023-02-15 04:54:01:664,-5.51959,11.8281,-55.058,-12.0481,-4.58159,94.0183
2023-02-15 04:54:01:674,-5.25481,11.9477,-55.0158,-12.0674,-4.57625,93.9947
2023-02-15 04:54:01:684,-4.83846,12.1716,-55.1124,-12.0863,-4.56636,93.9635
2023-02-15 04:54:01:694,-4.47782,12.2551,-55.3671,-12.1081,-4.55358,93.9287
2023-02-15 04:54:01:704,-4.05313,12.3598,-55.9082,-12.133,-4.53317,93.8947
2023-02-15 04:54:01:714,-3.55514,12.5707,-56.3652,-12.1547,-4.51233,93.8591
2023-02-15 04:54:01:724,-3.35409,12.6743,-56.5595,-12.1661,-4.48882,93.8321
2023-02-15 04:54:01:734,-3.40635,12.5771,-56.4636,-12.1707,-4.46622,93.8144
2023-02-15 04:54:01:744,-3.73461,12.2739,-55.8285,-12.1662,-4.45119,93.8029
2023-02-15 04:54:01:754,-4.4067,12.052,-55.2045,-12.162,-4.4387,93.7977
2023-02-15 04:54:01:764,-5.12827,12.019,-54.8837,-12.1644,-4.43466,93.7958
2023-02-15 04:54:01:774,-5.48753,12.076,-54.773,-12.1691,-4.42091,93.7842
2023-02-15 04:54:01:784,-5.27612,12.1731,-54.7771,-12.18,-4.40116,93.7682
2023-02-15 04:54:01:794,-4.68349,12.2105,-55.2352,-12.1981,-4.37858,93.7434
2023-02-15 04:54:01:804,-4.2199,12.3972,-55.7904,-12.2163,-4.35972,93.7101
2023-02-15 04:54:01:814,-3.73718,12.5504,-56.0724,-12.2324,-4.33911,93.6726
2023-02-15 04:54:01:824,-3.44819,12.6385,-56.0915,-12.2483,-4.32106,93.6344
2023-02-15 04:54:01:834,-3.43668,12.6694,-56.0956,-12.2617,-4.30964,93.6008
2023-02-15 04:54:01:844,-3.60969,12.5717,-56.1767,-12.2707,-4.29953,93.5749
2023-02-15 04:54:01:854,-3.79962,12.5675,-55.9835,-12.2768,-4.28608,93.5515
2023-02-15 04:54:01:864,-4.00295,12.4767,-55.8946,-12.2813,-4.2746,93.5303
2023-02-15 04:54:01:874,-4.19039,12.4495,-55.8246,-12.2876,-4.26214,93.5056
2023-02-15 04:54:01:884,-4.26706,12.4009,-55.6799,-12.2924,-4.25166,93.4809
2023-02-15 04:54:01:894,-4.06349,12.2718,-55.4726,-12.2972,-4.23346,93.4552
2023-02-15 04:54:01:904,-3.85435,12.2425,-55.4499,-12.3012,-4.21522,93.4246
2023-02-15 04:54:01:914,-3.58372,12.2207,-55.6244,-12.3054,-4.19782,93.3904
2023-02-15 04:54:01:924,-3.18597,12.1768,-55.9225,-12.306,-4.1836,93.3545
2023-02-15 04:54:01:934,-2.83827,12.2204,-56.1797,-12.3066,-4.17197,93.3228
2023-02-15 04:54:01:944,-2.66981,12.2248,-56.3556,-12.3033,-4.16374,93.2942
2023-02-15 04:54:01:954,-2.34847,12.1869,-56.4888,-12.2963,-4.1557,93.2689
2023-02-15 04:54:01:964,-2.24068,12.0464,-56.5319,-12.2846,-4.1457,93.2578
2023-02-15 04:54:01:974,-2.4346,11.9944,-56.4044,-12.2648,-4.14353,93.2608
2023-02-15 04:54:01:984,-2.70636,11.8604,-56.2533,-12.2447,-4.14382,93.2726
2023-02-15 04:54:01:994,-2.96157,11.6903,-56.0633,-12.2209,-4.15064,93.2925
2023-02-15 04:54:02:4,-3.41237,11.6087,-55.8542,-12.1979,-4.16162,93.319
2023-02-15 04:54:02:14,-3.87777,11.6209,-55.6994,-12.1767,-4.17596,93.3521
2023-02-15 04:54:02:24,-4.14154,11.6346,-55.4994,-12.1586,-4.19254,93.3849
2023-02-15 04:54:02:34,-4.324,11.6114,-55.4527,-12.1461,-4.21038,93.4197
2023-02-15 04:54:02:44,-4.32474,11.6125,-55.4926,-12.1337,-4.22792,93.4533
2023-02-15 04:54:02:54,-4.27236,11.7509,-55.5352,-12.1252,-4.24516,93.4843
2023-02-15 04:54:02:64,-4.31228,11.8726,-55.4959,-12.1181,-4.26035,93.5071
2023-02-15 04:54:02:74,-4.34569,11.8428,-55.5239,-12.1145,-4.27609,93.5309
2023-02-15 04:54:02:84,-4.41155,11.9508,-55.6277,-12.1116,-4.28806,93.5517
2023-02-15 04:54:02:94,-4.43008,12.0157,-55.6577,-12.1046,-4.29986,93.5695
2023-02-15 04:54:02:104,-4.37167,11.9498,-55.638,-12.1005,-4.30789,93.5893
2023-02-15 04:54:02:114,-4.39849,11.97,-55.6872,-12.0939,-4.31701,93.603
2023-02-15 04:54:02:124,-4.42964,12.0057,-55.6738,-12.0879,-4.33041,93.6168
2023-02-15 04:54:02:134,-4.42423,11.9461,-55.6251,-12.0821,-4.33959,93.6249
2023-02-15 04:54:02:144,-4.31819,11.8936,-55.5093,-12.0762,-4.34701,93.6307
2023-02-15 04:54:02:154,-4.29912,11.9227,-55.3863,-12.0751,-4.35567,93.6381
2023-02-15 04:54:02:164,-4.42004,12.0244,-55.4386,-12.0738,-4.36892,93.6427
2023-02-15 04:54:02:174,-4.5372,12.1535,-55.5923,-12.0757,-4.38182,93.6462
2023-02-15 04:54:02:184,-4.49837,12.2306,-55.7482,-12.0781,-4.39232,93.6463
2023-02-15 04:54:02:194,-4.32848,12.2269,-55.9227,-12.0767,-4.40146,93.6425
2023-02-15 04:54:02:204,-3.98299,12.2061,-56.0249,-12.0741,-4.40714,93.6387
2023-02-15 04:54:02:214,-3.69483,12.1506,-55.9569,-12.0693,-4.41482,93.636
2023-02-15 04:54:02:224,-3.6507,12.1709,-55.8204,-12.0599,-4.42349,93.6311
2023-02-15 04:54:02:234,-3.66748,12.0183,-55.669,-12.0519,-4.43541,93.6302
2023-02-15 04:54:02:244,-3.77574,11.8983,-55.663,-12.0425,-4.45257,93.6358
2023-02-15 04:54:02:254,-3.87372,11.8948,-55.6207,-12.0329,-4.46934,93.6445
2023-02-15 04:54:02:264,-4.1691,11.8536,-55.5386,-12.0261,-4.48415,93.6625
2023-02-15 04:54:02:274,-4.65283,11.8648,-55.5782,-12.0181,-4.49767,93.6811
2023-02-15 04:54:02:284,-5.02371,11.968,-55.6674,-12.0128,-4.50997,93.7031
2023-02-15 04:54:02:294,-5.18549,12.0373,-55.7354,-12.003,-4.51148,93.7242
2023-02-15 04:54:02:304,-4.99141,12.0079,-55.9099,-11.9939,-4.5109,93.7438
2023-02-15 04:54:02:314,-4.60172,11.8891,-55.9599,-11.9821,-4.5079,93.7576
2023-02-15 04:54:02:324,-4.23821,11.794,-55.8536,-11.9657,-4.50648,93.7724
2023-02-15 04:54:02:334,-3.94144,11.7838,-55.7907,-11.9517,-4.50395,93.7875
2023-02-15 04:54:02:344,-3.81333,11.866,-56.0743,-11.9341,-4.50205,93.8075
2023-02-15 04:54:02:354,-3.94221,11.9371,-56.3367,-11.9129,-4.50815,93.8338
2023-02-15 04:54:02:364,-4.11931,11.889,-56.3545,-11.8932,-4.51072,93.8661
2023-02-15 04:54:02:374,-4.42911,11.8334,-56.1996,-11.8738,-4.51284,93.9033
2023-02-15 04:54:02:384,-4.8059,11.844,-56.0154,-11.8516,-4.51775,93.9441
2023-02-15 04:54:02:394,-5.09451,11.7719,-55.8109,-11.8313,-4.52261,93.9862
2023-02-15 04:54:02:404,-5.31483,11.7254,-55.5673,-11.8114,-4.52652,94.023
2023-02-15 04:54:02:414,-5.27077,11.7178,-55.3362,-11.7961,-4.53219,94.0522
2023-02-15 04:54:02:424,-5.07029,11.7167,-55.3724,-11.7793,-4.53353,94.0733
2023-02-15 04:54:02:434,-4.73861,11.7255,-55.4096,-11.7682,-4.53628,94.0848
2023-02-15 04:54:02:444,-4.52404,11.6012,-55.425,-11.752,-4.53912,94.0865
2023-02-15 04:54:02:454,-4.4478,11.6055,-55.4775,-11.7403,-4.54357,94.0809
2023-02-15 04:54:02:464,-4.33874,11.5215,-55.6832,-11.723,-4.5452,94.0753
2023-02-15 04:54:02:474,-4.27369,11.5914,-55.7327,-11.7067,-4.54494,94.0635
2023-02-15 04:54:02:484,-4.15133,11.5595,-55.8087,-11.6917,-4.54814,94.0501
2023-02-15 04:54:02:494,-4.04761,11.3363,-55.7707,-11.6721,-4.55391,94.0336
2023-02-15 04:54:02:504,-4.03411,11.2649,-55.7193,-11.6563,-4.55993,94.0167
2023-02-15 04:54:02:514,-3.92496,11.3415,-55.6482,-11.6416,-4.56962,93.9985
2023-02-15 04:54:02:524,-3.84232,11.2061,-55.525,-11.6327,-4.581,93.9779
2023-02-15 04:54:02:534,-3.81172,11.1728,-55.2875,-11.6263,-4.59054,93.9579
2023-02-15 04:54:02:544,-3.79098,11.1851,-55.274,-11.6281,-4.60371,93.9392
2023-02-15 04:54:02:554,-3.81736,11.2185,-55.439,-11.6357,-4.6219,93.9261
2023-02-15 04:54:02:564,-3.98804,11.5118,-55.4482,-11.6448,-4.63693,93.9157
2023-02-15 04:54:02:574,-4.25552,11.5989,-55.4956,-11.6577,-4.65112,93.9044
2023-02-15 04:54:02:584,-4.43662,11.7869,-55.6617,-11.6687,-4.66689,93.8995
2023-02-15 04:54:02:594,-4.48437,11.7884,-55.8901,-11.6808,-4.67849,93.8924
2023-02-15 04:54:02:604,-4.36339,11.782,-55.9378,-11.6894,-4.68605,93.8869
2023-02-15 04:54:02:614,-4.29744,11.7312,-55.8386,-11.6937,-4.69141,93.8837
2023-02-15 04:54:02:624,-4.57401,11.7074,-55.8066,-11.6974,-4.70436,93.8861
2023-02-15 04:54:02:634,-5.01481,11.6038,-55.6658,-11.6992,-4.72085,93.8877
2023-02-15 04:54:02:644,-5.4637,11.5411,-55.4354,-11.7011,-4.73914,93.8945
2023-02-15 04:54:02:654,-5.73048,11.614,-55.331,-11.7057,-4.75608,93.8958
2023-02-15 04:54:02:664,-5.75124,11.7228,-55.4471,-11.7147,-4.76651,93.8896
2023-02-15 04:54:02:674,-5.66037,11.8181,-55.794,-11.727,-4.77349,93.8764
2023-02-15 04:54:02:684,-5.59617,11.9729,-56.1423,-11.7356,-4.7844,93.8553
2023-02-15 04:54:02:694,-5.45764,12.0591,-56.2869,-11.7434,-4.7924,93.8326
2023-02-15 04:54:02:704,-5.28431,12.1617,-56.3543,-11.7498,-4.79674,93.8028
2023-02-15 04:54:02:714,-4.98957,12.0793,-56.2449,-11.7488,-4.80018,93.771
2023-02-15 04:54:02:724,-4.8466,11.947,-55.9022,-11.7438,-4.80215,93.7388
2023-02-15 04:54:02:734,-4.73263,11.8196,-55.6632,-11.7384,-4.79814,93.7092
2023-02-15 04:54:02:744,-4.46377,11.621,-55.5312,-11.7307,-4.79317,93.6799
2023-02-15 04:54:02:754,-4.31729,11.4685,-55.5006,-11.7224,-4.78717,93.6484
2023-02-15 04:54:02:764,-4.20705,11.498,-55.509,-11.7157,-4.77871,93.6234
2023-02-15 04:54:02:774,-4.13324,11.4711,-55.6629,-11.712,-4.7707,93.6015
2023-02-15 04:54:02:784,-4.09402,11.5481,-55.7657,-11.709,-4.76615,93.5846
2023-02-15 04:54:02:794,-4.17562,11.6186,-55.8621,-11.7055,-4.76103,93.5739
2023-02-15 04:54:02:804,-4.39513,11.6458,-56.0236,-11.7057,-4.7606,93.566
2023-02-15 04:54:02:814,-4.73865,11.692,-56.1502,-11.7026,-4.76306,93.5608
2023-02-15 04:54:02:824,-4.92387,11.7344,-56.1689,-11.6932,-4.76839,93.5565
2023-02-15 04:54:02:834,-4.97169,11.5799,-56.0875,-11.6841,-4.77079,93.5509
2023-02-15 04:54:02:844,-4.9323,11.495,-55.7938,-11.6711,-4.77318,93.5448
2023-02-15 04:54:02:854,-4.80573,11.3095,-55.5526,-11.6586,-4.77498,93.5359
2023-02-15 04:54:02:864,-4.59484,11.1486,-55.3358,-11.6442,-4.77535,93.5281
2023-02-15 04:54:02:874,-4.23104,11.0628,-55.3035,-11.6353,-4.77539,93.5218
2023-02-15 04:54:02:884,-3.86187,11.0285,-55.3281,-11.6286,-4.77538,93.5191
2023-02-15 04:54:02:894,-3.7603,11.1017,-55.3917,-11.6277,-4.7762,93.526
2023-02-15 04:54:02:904,-4.03317,11.1872,-55.5288,-11.6269,-4.78076,93.5384
2023-02-15 04:54:02:914,-4.40611,11.193,-55.5994,-11.632,-4.78639,93.5663
2023-02-15 04:54:02:924,-4.82434,11.2344,-55.6531,-11.636,-4.79224,93.5999
2023-02-15 04:54:02:934,-5.21198,11.4166,-55.7132,-11.6407,-4.79545,93.6418
2023-02-15 04:54:02:944,-5.43184,11.543,-55.7699,-11.6464,-4.79563,93.6787
2023-02-15 04:54:02:954,-5.56372,11.5531,-55.8545,-11.6552,-4.79147,93.7151
2023-02-15 04:54:02:964,-5.50071,11.6135,-55.9352,-11.6617,-4.78618,93.7516
2023-02-15 04:54:02:974,-5.38971,11.6555,-55.9565,-11.6674,-4.77871,93.7797
2023-02-15 04:54:02:984,-5.22513,11.6439,-55.7726,-11.6688,-4.7707,93.8049
2023-02-15 04:54:02:994,-5.02852,11.5582,-55.7785,-11.6723,-4.76066,93.8294
2023-02-15 04:54:03:4,-4.7704,11.6253,-55.7194,-11.6787,-4.75058,93.8496
2023-02-15 04:54:03:14,-4.63483,11.7056,-55.8223,-11.6871,-4.7376,93.8654
2023-02-15 04:54:03:24,-4.54532,11.7242,-55.9153,-11.6947,-4.72682,93.8814
2023-02-15 04:54:03:34,-4.36767,11.7223,-55.865,-11.6974,-4.71709,93.9022
2023-02-15 04:54:03:44,-4.4028,11.7234,-55.7778,-11.6995,-4.70898,93.9257
2023-02-15 04:54:03:54,-4.58172,11.8028,-55.8081,-11.7014,-4.7023,93.9494
2023-02-15 04:54:03:64,-4.64857,11.7998,-56.0143,-11.7003,-4.69725,93.9777
2023-02-15 04:54:03:74,-4.76187,11.8039,-56.1393,-11.6959,-4.68899,94.0018
2023-02-15 04:54:03:84,-4.8284,11.6806,-56.0825,-11.688,-4.67843,94.0229
2023-02-15 04:54:03:94,-4.79221,11.6731,-55.9623,-11.6783,-4.66992,94.0446
2023-02-15 04:54:03:104,-4.72332,11.6361,-55.8347,-11.6694,-4.65998,94.0632
2023-02-15 04:54:03:114,-4.7715,11.5869,-55.7144,-11.6612,-4.65034,94.0794
2023-02-15 04:54:03:124,-4.76974,11.5363,-55.6445,-11.6536,-4.6441,94.0946
2023-02-15 04:54:03:134,-4.66225,11.5188,-55.7442,-11.6458,-4.63465,94.1066
2023-02-15 04:54:03:144,-4.39304,11.5548,-56.0034,-11.6348,-4.62309,94.1188
2023-02-15 04:54:03:154,-4.10349,11.5633,-56.0747,-11.6261,-4.61077,94.1308
2023-02-15 04:54:03:164,-4.06567,11.4999,-55.9752,-11.6121,-4.59591,94.146
2023-02-15 04:54:03:174,-4.26608,11.4328,-55.7835,-11.6003,-4.58842,94.1596
2023-02-15 04:54:03:184,-4.57558,11.4511,-55.5929,-11.5947,-4.58193,94.1768
2023-02-15 04:54:03:194,-4.89816,11.5944,-55.343,-11.5912,-4.57962,94.1919
2023-02-15 04:54:03:204,-5.05296,11.6726,-55.1582,-11.5911,-4.57713,94.2068
2023-02-15 04:54:03:214,-5.02562,11.7558,-55.0797,-11.5927,-4.5728,94.2139
2023-02-15 04:54:03:224,-5.02398,11.8026,-55.1392,-11.5981,-4.5661,94.2158
2023-02-15 04:54:03:234,-5.04881,11.8834,-55.2476,-11.6044,-4.55947,94.2163
2023-02-15 04:54:03:244,-4.95757,11.8636,-55.3258,-11.6126,-4.54942,94.2096
2023-02-15 04:54:03:254,-4.8013,11.8873,-55.411,-11.6188,-4.53674,94.2013
2023-02-15 04:54:03:264,-4.54189,11.8851,-55.6267,-11.6292,-4.5236,94.1884
2023-02-15 04:54:03:274,-4.22741,11.8351,-55.7512,-11.6322,-4.50711,94.1746
2023-02-15 04:54:03:284,-4.11154,11.7721,-55.7773,-11.6343,-4.48735,94.1621
2023-02-15 04:54:03:294,-4.00835,11.7912,-55.861,-11.6405,-4.47084,94.1498
2023-02-15 04:54:03:304,-3.94943,11.8568,-56.104,-11.6426,-4.45588,94.139
2023-02-15 04:54:03:314,-4.09068,11.8438,-56.2073,-11.6432,-4.43609,94.1301
2023-02-15 04:54:03:324,-4.181,11.8328,-56.3458,-11.6418,-4.41668,94.1239
2023-02-15 04:54:03:334,-4.24031,11.7785,-56.3412,-11.639,-4.40186,94.1203
2023-02-15 04:54:03:344,-4.12108,11.7265,-56.1552,-11.632,-4.38808,94.1158
2023-02-15 04:54:03:354,-4.01914,11.7115,-55.9279,-11.6282,-4.37764,94.1115
2023-02-15 04:54:03:364,-4.01536,11.6121,-55.6238,-11.62,-4.36709,94.1089
2023-02-15 04:54:03:374,-4.08768,11.5848,-55.6277,-11.6118,-4.35762,94.1023
2023-02-15 04:54:03:384,-4.03533,11.66,-55.7363,-11.6056,-4.35102,94.0984
2023-02-15 04:54:03:394,-3.88604,11.6202,-55.7395,-11.601,-4.34366,94.0942
2023-02-15 04:54:03:404,-3.74519,11.5969,-55.8557,-11.5947,-4.33547,94.0873
2023-02-15 04:54:03:414,-3.94976,11.701,-55.8977,-11.5879,-4.33593,94.0836
2023-02-15 04:54:03:424,-4.2288,11.7124,-55.9182,-11.5798,-4.33972,94.0805
2023-02-15 04:54:03:434,-4.52694,11.7622,-55.9395,-11.5702,-4.34889,94.0783
2023-02-15 04:54:03:444,-4.75344,11.7381,-56.0077,-11.5578,-4.35569,94.0739
2023-02-15 04:54:03:454,-4.82931,11.7356,-56.0311,-11.5454,-4.36049,94.0686
2023-02-15 04:54:03:464,-4.76188,11.6453,-56.0124,-11.5318,-4.36111,94.0559
2023-02-15 04:54:03:474,-4.59238,11.516,-55.838,-11.5159,-4.35895,94.036
2023-02-15 04:54:03:484,-4.30234,11.4023,-55.8176,-11.5018,-4.35805,94.0118
2023-02-15 04:54:03:494,-4.14386,11.3893,-55.7609,-11.4878,-4.35988,93.9822
2023-02-15 04:54:03:504,-3.96632,11.2467,-55.7174,-11.4707,-4.36068,93.9505
2023-02-15 04:54:03:514,-3.8629,11.1138,-55.584,-11.4516,-4.37101,93.916
2023-02-15 04:54:03:524,-3.73203,11.1319,-55.5465,-11.4413,-4.37824,93.8828
2023-02-15 04:54:03:534,-3.51589,11.2058,-55.6986,-11.4283,-4.38515,93.8495
2023-02-15 04:54:03:544,-3.39324,11.1643,-55.7424,-11.4187,-4.3903,93.8154
2023-02-15 04:54:03:554,-3.38687,11.1145,-55.8186,-11.4082,-4.39275,93.7869
2023-02-15 04:54:03:564,-3.44253,11.0841,-55.8677,-11.3961,-4.3974,93.7628
2023-02-15 04:54:03:574,-3.49238,11.1543,-55.8727,-11.3856,-4.39929,93.7437
2023-02-15 04:54:03:584,-3.51514,11.0877,-55.7569,-11.373,-4.40384,93.7288
2023-02-15 04:54:03:594,-3.56304,11.0576,-55.7088,-11.3649,-4.40633,93.7202
2023-02-15 04:54:03:604,-3.62574,11.0758,-55.722,-11.3615,-4.40737,93.7154
2023-02-15 04:54:03:614,-3.68277,11.0455,-55.6352,-11.3604,-4.40438,93.7174
2023-02-15 04:54:03:624,-3.73452,11.0591,-55.6252,-11.3547,-4.39977,93.7222
2023-02-15 04:54:03:634,-3.55533,11.1031,-55.7768,-11.3571,-4.39729,93.733
2023-02-15 04:54:03:644,-3.52217,11.2151,-55.773,-11.3594,-4.39386,93.7479
2023-02-15 04:54:03:654,-3.57552,11.2361,-55.7863,-11.3665,-4.39001,93.7719
2023-02-15 04:54:03:664,-3.78048,11.2964,-55.7921,-11.3756,-4.38676,93.8002
2023-02-15 04:54:03:674,-4.11811,11.3812,-55.8482,-11.3795,-4.3808,93.8349
2023-02-15 04:54:03:684,-4.43814,11.4566,-56.0147,-11.3883,-4.37802,93.8724
2023-02-15 04:54:03:694,-4.70255,11.5488,-55.9616,-11.3942,-4.37452,93.9106
2023-02-15 04:54:03:704,-4.92778,11.6261,-55.8311,-11.3981,-4.37375,93.9434
2023-02-15 04:54:03:714,-5.05977,11.5682,-55.7929,-11.4016,-4.37396,93.9701
2023-02-15 04:54:03:724,-5.29846,11.5965,-55.8109,-11.4038,-4.37264,93.9891
2023-02-15 04:54:03:734,-5.26022,11.6915,-55.836,-11.404,-4.3764,94.0012
2023-02-15 04:54:03:744,-5.15426,11.6473,-55.8521,-11.4039,-4.37993,94.0035
2023-02-15 04:54:03:754,-5.00861,11.5709,-55.9301,-11.4035,-4.38373,93.9997
2023-02-15 04:54:03:764,-4.7724,11.6569,-56.1598,-11.4034,-4.38524,93.9893
2023-02-15 04:54:03:774,-4.52131,11.672,-56.2104,-11.4041,-4.39118,93.9754
2023-02-15 04:54:03:784,-4.32314,11.596,-56.0541,-11.3968,-4.39068,93.9603
2023-02-15 04:54:03:794,-4.2114,11.5525,-55.9881,-11.3911,-4.39232,93.9427
2023-02-15 04:54:03:804,-4.19778,11.3974,-55.9903,-11.3796,-4.38982,93.9293
2023-02-15 04:54:03:814,-4.16623,11.3348,-55.7849,-11.3656,-4.38365,93.914
2023-02-15 04:54:03:824,-4.12044,11.1893,-55.6224,-11.3517,-4.37585,93.8972
2023-02-15 04:54:03:834,-4.01294,11.1358,-55.572,-11.3367,-4.36879,93.8802
2023-02-15 04:54:03:844,-4.0313,11.0967,-55.6057,-11.3285,-4.36706,93.8635
2023-02-15 04:54:03:854,-4.03595,11.0605,-55.4974,-11.3215,-4.36331,93.8457
2023-02-15 04:54:03:864,-3.88894,11.0193,-55.4958,-11.3136,-4.36566,93.8265
2023-02-15 04:54:03:874,-3.85268,11.0741,-55.7569,-11.3151,-4.36684,93.8061
2023-02-15 04:54:03:884,-3.66023,11.2429,-56.0459,-11.3175,-4.36739,93.7901
2023-02-15 04:54:03:894,-3.53336,11.2363,-56.191,-11.3188,-4.37011,93.7782
2023-02-15 04:54:03:904,-3.49847,11.3156,-56.1154,-11.321,-4.37659,93.7678
2023-02-15 04:54:03:914,-3.67622,11.3211,-56.1757,-11.3239,-4.39352,93.7606
2023-02-15 04:54:03:924,-3.91258,11.2892,-56.0478,-11.3217,-4.41535,93.7586
2023-02-15 04:54:03:934,-4.1569,11.2818,-55.7748,-11.3212,-4.4389,93.7568
2023-02-15 04:54:03:944,-4.37165,11.3897,-55.6013,-11.318,-4.46077,93.7546
2023-02-15 04:54:03:954,-4.43333,11.4539,-55.4898,-11.3187,-4.47927,93.7536
2023-02-15 04:54:03:964,-4.34914,11.5119,-55.5014,-11.3239,-4.49911,93.7567
2023-02-15 04:54:03:974,-4.41534,11.6378,-55.7044,-11.3269,-4.51752,93.7569
2023-02-15 04:54:03:984,-4.6079,11.6497,-55.8562,-11.3315,-4.53877,93.7594
2023-02-15 04:54:03:994,-4.73378,11.6563,-55.9588,-11.3316,-4.55676,93.7615
2023-02-15 04:54:04:4,-4.76221,11.6816,-56.0269,-11.3258,-4.57006,93.763
2023-02-15 04:54:04:14,-4.76448,11.6255,-56.1287,-11.3197,-4.58097,93.7669
2023-02-15 04:54:04:24,-4.84791,11.6149,-56.1538,-11.3097,-4.58373,93.7721
2023-02-15 04:54:04:34,-4.89524,11.4991,-56.101,-11.2984,-4.58831,93.7757
2023-02-15 04:54:04:44,-4.89344,11.4283,-56.0438,-11.2807,-4.59022,93.7787
2023-02-15 04:54:04:54,-4.96469,11.3615,-56.0702,-11.2624,-4.58829,93.7795
2023-02-15 04:54:04:64,-4.97802,11.2146,-56.0285,-11.2434,-4.58769,93.7848
2023-02-15 04:54:04:74,-4.94142,11.1037,-56.0013,-11.2194,-4.58407,93.7838
2023-02-15 04:54:04:84,-4.73625,11.0794,-56.065,-11.198,-4.57917,93.7821
2023-02-15 04:54:04:94,-4.66442,10.9804,-55.8446,-11.1745,-4.57361,93.7739
2023-02-15 04:54:04:104,-4.77788,10.801,-55.6969,-11.1515,-4.56989,93.769
2023-02-15 04:54:04:114,-4.85182,10.8055,-55.8423,-11.1263,-4.56442,93.7631
2023-02-15 04:54:04:124,-4.80103,10.8606,-55.9854,-11.1017,-4.55821,93.753
2023-02-15 04:54:04:134,-4.74485,10.7383,-55.9275,-11.0818,-4.55004,93.7398
2023-02-15 04:54:04:144,-4.69972,10.6445,-55.8188,-11.0575,-4.54345,93.7271
2023-02-15 04:54:04:154,-4.62936,10.6245,-55.9196,-11.0344,-4.53779,93.7099
2023-02-15 04:54:04:164,-4.64332,10.5695,-55.886,-11.0077,-4.53661,93.6893
2023-02-15 04:54:04:174,-4.70249,10.5423,-55.6375,-10.9857,-4.53398,93.6632
2023-02-15 04:54:04:184,-4.5045,10.4472,-55.5229,-10.9661,-4.52971,93.6382
2023-02-15 04:54:04:194,-4.22863,10.3906,-55.5914,-10.9485,-4.52305,93.6083
2023-02-15 04:54:04:204,-3.93182,10.361,-55.7338,-10.936,-4.51375,93.5811
2023-02-15 04:54:04:214,-3.72376,10.325,-55.7966,-10.9251,-4.50165,93.5542
2023-02-15 04:54:04:224,-3.7232,10.4326,-55.7563,-10.9196,-4.49256,93.5259
2023-02-15 04:54:04:234,-3.76379,10.5833,-55.9108,-10.9164,-4.48698,93.5084
2023-02-15 04:54:04:244,-3.89055,10.6023,-55.9941,-10.91,-4.48131,93.4951
2023-02-15 04:54:04:254,-4.11411,10.6666,-55.9636,-10.9023,-4.47367,93.4839
2023-02-15 04:54:04:264,-4.06401,10.641,-55.9535,-10.8986,-4.46905,93.4796
2023-02-15 04:54:04:274,-4.06995,10.7259,-56.0526,-10.8971,-4.4657,93.4764
2023-02-15 04:54:04:284,-4.10718,10.8236,-55.9133,-10.8966,-4.46191,93.4744
2023-02-15 04:54:04:294,-4.09899,10.7451,-55.8859,-10.8917,-4.45671,93.47
2023-02-15 04:54:04:304,-4.1619,10.7276,-55.8908,-10.889,-4.45619,93.4673
2023-02-15 04:54:04:314,-4.15361,10.7053,-55.868,-10.8861,-4.4576,93.4641
2023-02-15 04:54:04:324,-4.21013,10.6793,-55.7752,-10.8832,-4.45482,93.4615
2023-02-15 04:54:04:334,-4.2439,10.6642,-55.8398,-10.8823,-4.45526,93.4583
2023-02-15 04:54:04:344,-4.21349,10.7107,-55.9514,-10.8805,-4.45743,93.4584
2023-02-15 04:54:04:354,-4.20861,10.768,-56.0034,-10.8798,-4.45754,93.4586
2023-02-15 04:54:04:364,-4.1835,10.8242,-55.9433,-10.8809,-4.46173,93.4633
2023-02-15 04:54:04:374,-4.09224,10.7809,-55.9117,-10.883,-4.4642,93.4676
2023-02-15 04:54:04:384,-4.05944,10.8544,-55.93,-10.8835,-4.46753,93.4743
2023-02-15 04:54:04:394,-4.16569,10.8449,-55.9991,-10.8843,-4.47056,93.4817
2023-02-15 04:54:04:404,-4.33252,10.8993,-55.9345,-10.883,-4.47289,93.4894
2023-02-15 04:54:04:414,-4.44154,10.9804,-55.9214,-10.8846,-4.47545,93.497
2023-02-15 04:54:04:424,-4.50705,11.0858,-55.9816,-10.8849,-4.47817,93.5057
2023-02-15 04:54:04:434,-4.53972,11.1968,-56.1122,-10.8835,-4.4819,93.513
2023-02-15 04:54:04:444,-4.56611,11.1793,-56.1328,-10.8855,-4.48343,93.5172
2023-02-15 04:54:04:454,-4.62197,11.1689,-56.1321,-10.8816,-4.48784,93.5218
2023-02-15 04:54:04:464,-4.56349,11.1229,-56.1477,-10.8763,-4.4918,93.5255
2023-02-15 04:54:04:474,-4.48741,11.0045,-56.0696,-10.8677,-4.49635,93.525
2023-02-15 04:54:04:484,-4.35549,10.928,-56.0298,-10.8554,-4.50437,93.5223
2023-02-15 04:54:04:494,-4.3314,10.8305,-55.9086,-10.8437,-4.51234,93.5234
2023-02-15 04:54:04:504,-4.25077,10.8294,-55.8178,-10.8331,-4.51835,93.5194
2023-02-15 04:54:04:514,-4.29496,10.7916,-55.8485,-10.8249,-4.52231,93.5186
2023-02-15 04:54:04:524,-4.32002,10.883,-55.9123,-10.8158,-4.52573,93.519
2023-02-15 04:54:04:534,-4.6036,10.8922,-55.9748,-10.805,-4.52758,93.521
2023-02-15 04:54:04:544,-4.69082,10.792,-56.0284,-10.7921,-4.53293,93.5233
2023-02-15 04:54:04:554,-4.63277,10.7388,-56.0473,-10.7774,-4.53789,93.5234
2023-02-15 04:54:04:564,-4.73623,10.6638,-55.9803,-10.7611,-4.54,93.5246
2023-02-15 04:54:04:574,-4.77379,10.6323,-56.004,-10.7485,-4.54178,93.5204
2023-02-15 04:54:04:584,-4.53796,10.5841,-55.9417,-10.7324,-4.54481,93.5145
2023-02-15 04:54:04:594,-4.61004,10.4467,-55.8264,-10.7168,-4.54457,93.5086
2023-02-15 04:54:04:604,-4.64193,10.3185,-55.9184,-10.7,-4.54706,93.4984
2023-02-15 04:54:04:614,-4.49712,10.3227,-55.9228,-10.6875,-4.54927,93.4895
2023-02-15 04:54:04:624,-4.29149,10.3834,-55.911,-10.6744,-4.54425,93.4806
2023-02-15 04:54:04:634,-4.08334,10.3884,-55.9945,-10.6616,-4.54023,93.4687
2023-02-15 04:54:04:644,-3.98058,10.3207,-56.2106,-10.6471,-4.53834,93.4614
2023-02-15 04:54:04:654,-4.18069,10.2525,-56.1147,-10.6347,-4.54618,93.4538
2023-02-15 04:54:04:664,-4.43536,10.2984,-55.9144,-10.6246,-4.55189,93.4498
2023-02-15 04:54:04:674,-4.46719,10.2434,-55.7563,-10.6153,-4.55892,93.4447
2023-02-15 04:54:04:684,-4.48283,10.2801,-55.6704,-10.6102,-4.56028,93.4457
2023-02-15 04:54:04:694,-4.47711,10.3114,-55.5705,-10.6044,-4.56229,93.444
2023-02-15 04:54:04:704,-4.29599,10.2539,-55.6134,-10.6013,-4.56682,93.4461
2023-02-15 04:54:04:714,-4.33674,10.1989,-55.5738,-10.6034,-4.5672,93.4493
2023-02-15 04:54:04:724,-4.42148,10.1318,-55.5844,-10.6065,-4.57208,93.4517
2023-02-15 04:54:04:734,-4.44056,10.1782,-55.5768,-10.6091,-4.57714,93.4564
2023-02-15 04:54:04:744,-4.38683,10.1651,-55.6395,-10.6143,-4.58033,93.4631
2023-02-15 04:54:04:754,-4.46553,10.1465,-55.7406,-10.6246,-4.57872,93.4708
2023-02-15 04:54:04:764,-4.65272,10.235,-55.8601,-10.635,-4.57697,93.4803
2023-02-15 04:54:04:774,-4.77746,10.3437,-55.9158,-10.6458,-4.57743,93.4867
2023-02-15 04:54:04:784,-4.6449,10.3673,-55.9662,-10.6621,-4.57641,93.493
2023-02-15 04:54:04:794,-4.5559,10.3797,-55.9401,-10.6738,-4.57123,93.4944
2023-02-15 04:54:04:804,-4.49997,10.392,-55.8687,-10.6858,-4.5659,93.4965
2023-02-15 04:54:04:814,-4.41934,10.3413,-55.8807,-10.7014,-4.56012,93.4973
2023-02-15 04:54:04:824,-4.29172,10.4232,-55.8487,-10.7204,-4.55392,93.4974
2023-02-15 04:54:04:834,-4.31725,10.5618,-55.6878,-10.745,-4.54772,93.4928
2023-02-15 04:54:04:844,-4.38237,10.6785,-55.6165,-10.7672,-4.5393,93.4944
2023-02-15 04:54:04:854,-4.4227,10.8258,-55.7307,-10.7925,-4.52961,93.4916
2023-02-15 04:54:04:864,-4.45118,10.988,-56.0202,-10.8207,-4.51784,93.4841
2023-02-15 04:54:04:874,-4.21033,11.0481,-56.1435,-10.8437,-4.5046,93.4758
2023-02-15 04:54:04:884,-4.08989,11.1303,-56.2558,-10.8662,-4.49306,93.4688
2023-02-15 04:54:04:894,-4.06266,11.281,-56.3968,-10.8826,-4.48652,93.4609
2023-02-15 04:54:04:904,-4.03766,11.2566,-56.4059,-10.8977,-4.48075,93.4517
2023-02-15 04:54:04:914,-4.05804,11.2206,-56.3296,-10.9078,-4.47747,93.4362
2023-02-15 04:54:04:924,-4.02684,11.2246,-56.1739,-10.9165,-4.47565,93.4247
2023-02-15 04:54:04:934,-3.95027,11.2005,-56.2666,-10.9196,-4.47357,93.4138
2023-02-15 04:54:04:944,-3.88555,11.2338,-56.331,-10.9209,-4.46757,93.4038
2023-02-15 04:54:04:954,-3.84866,11.1855,-56.2794,-10.9183,-4.46593,93.3935
2023-02-15 04:54:04:964,-3.74951,11.0675,-56.3244,-10.9098,-4.46762,93.3839
2023-02-15 04:54:04:974,-3.81806,11.1025,-56.2793,-10.9038,-4.47131,93.378
2023-02-15 04:54:04:984,-3.85021,11.0127,-56.1865,-10.8933,-4.47195,93.3736
2023-02-15 04:54:04:994,-3.83841,10.8558,-55.9956,-10.8852,-4.474,93.3686
2023-02-15 04:54:05:4,-3.83868,10.8325,-55.9845,-10.8749,-4.47635,93.3641
2023-02-15 04:54:05:14,-3.87488,10.8173,-55.9974,-10.8617,-4.48632,93.3598
2023-02-15 04:54:05:24,-3.91606,10.7223,-55.9224,-10.8492,-4.49707,93.357
2023-02-15 04:54:05:34,-4.02931,10.5955,-55.8295,-10.8352,-4.513,93.3578
2023-02-15 04:54:05:44,-4.07399,10.4927,-55.727,-10.8228,-4.52753,93.3606
2023-02-15 04:54:05:54,-4.1772,10.4934,-55.6296,-10.8138,-4.54105,93.3664
2023-02-15 04:54:05:64,-4.30047,10.5428,-55.7234,-10.8081,-4.5546,93.3746
2023-02-15 04:54:05:74,-4.41016,10.5364,-55.8082,-10.8008,-4.56757,93.3854
2023-02-15 04:54:05:84,-4.57966,10.5847,-55.8645,-10.7989,-4.58163,93.3966
2023-02-15 04:54:05:94,-4.77781,10.6698,-55.8823,-10.7963,-4.59294,93.4124
2023-02-15 04:54:05:104,-4.94568,10.6446,-55.9668,-10.7965,-4.60314,93.4264
2023-02-15 04:54:05:114,-4.99525,10.6596,-55.9132,-10.7997,-4.61107,93.4423
2023-02-15 04:54:05:124,-4.98886,10.6834,-55.856,-10.8005,-4.61751,93.4531
2023-02-15 04:54:05:134,-4.90213,10.6889,-55.8209,-10.7995,-4.62333,93.4615
2023-02-15 04:54:05:144,-4.70668,10.6846,-55.7873,-10.8011,-4.62305,93.468
2023-02-15 04:54:05:154,-4.52083,10.6745,-55.6487,-10.8028,-4.62236,93.4703
2023-02-15 04:54:05:164,-4.40726,10.7158,-55.5823,-10.8076,-4.62288,93.472
2023-02-15 04:54:05:174,-4.18092,10.725,-55.7446,-10.8121,-4.62333,93.4738
2023-02-15 04:54:05:184,-4.10005,10.7952,-55.9427,-10.8193,-4.62517,93.475
2023-02-15 04:54:05:194,-4.04753,10.8809,-56.0201,-10.8284,-4.62847,93.4767
2023-02-15 04:54:05:204,-3.9871,10.9726,-56.1018,-10.8338,-4.62861,93.4843
2023-02-15 04:54:05:214,-3.92167,11.1156,-56.1578,-10.8358,-4.63089,93.4907
2023-02-15 04:54:05:224,-3.98648,11.0911,-56.1722,-10.8406,-4.63352,93.4998
2023-02-15 04:54:05:234,-4.07437,11.0468,-56.135,-10.8422,-4.63541,93.512
2023-02-15 04:54:05:244,-4.2209,11.0304,-56.1272,-10.8428,-4.64124,93.5262
2023-02-15 04:54:05:253,-4.33535,11.0783,-56.1082,-10.8406,-4.65482,93.5415
2023-02-15 04:54:05:264,-4.4649,10.9993,-56.0182,-10.837,-4.66971,93.5596
2023-02-15 04:54:05:274,-4.69807,10.9082,-56.0239,-10.8289,-4.68235,93.575
2023-02-15 04:54:05:284,-4.87654,10.915,-55.9869,-10.8255,-4.69039,93.5956
2023-02-15 04:54:05:294,-4.99312,10.8616,-55.9015,-10.8163,-4.69996,93.613
2023-02-15 04:54:05:304,-4.98896,10.8036,-55.8941,-10.8081,-4.70807,93.6292
2023-02-15 04:54:05:314,-4.92566,10.7157,-55.8056,-10.8002,-4.7126,93.6398
2023-02-15 04:54:05:324,-4.97337,10.632,-55.7781,-10.7878,-4.71537,93.6482
2023-02-15 04:54:05:334,-4.92593,10.6937,-55.861,-10.7776,-4.72381,93.6547
2023-02-15 04:54:05:344,-4.81553,10.7615,-56.0708,-10.7692,-4.72712,93.6625
2023-02-15 04:54:05:354,-4.63334,10.6802,-56.1752,-10.7586,-4.72609,93.6625
2023-02-15 04:54:05:364,-4.38712,10.6692,-56.2721,-10.7452,-4.72531,93.661
2023-02-15 04:54:05:374,-4.20405,10.5779,-56.266,-10.7326,-4.72928,93.664
2023-02-15 04:54:05:384,-4.30786,10.4885,-56.1302,-10.716,-4.74118,93.6686
2023-02-15 04:54:05:394,-4.51939,10.4665,-55.8162,-10.7028,-4.75313,93.6753
2023-02-15 04:54:05:404,-4.71588,10.4519,-55.6318,-10.6929,-4.7702,93.6812
2023-02-15 04:54:05:414,-4.69304,10.454,-55.5965,-10.6858,-4.77951,93.6875
2023-02-15 04:54:05:424,-4.55699,10.4377,-55.5883,-10.6819,-4.78602,93.6949
2023-02-15 04:54:05:434,-4.60592,10.483,-55.6175,-10.6795,-4.79464,93.7013
2023-02-15 04:54:05:444,-4.71584,10.5901,-55.7649,-10.6762,-4.80276,93.7086
2023-02-15 04:54:05:454,-4.81625,10.6661,-55.7989,-10.6731,-4.81042,93.7183
2023-02-15 04:54:05:464,-4.94577,10.6366,-55.7898,-10.6713,-4.81915,93.7279
2023-02-15 04:54:05:474,-4.91889,10.5315,-55.8062,-10.6629,-4.82673,93.7351
2023-02-15 04:54:05:484,-4.93989,10.4855,-55.7559,-10.6558,-4.83562,93.7402
2023-02-15 04:54:05:494,-5.01865,10.5106,-55.8335,-10.6512,-4.84069,93.7477
2023-02-15 04:54:05:504,-5.05247,10.4262,-55.8963,-10.6479,-4.84534,93.7533
2023-02-15 04:54:05:514,-4.95449,10.3835,-55.8487,-10.6433,-4.85224,93.7598
2023-02-15 04:54:05:524,-4.96183,10.4266,-55.9115,-10.6444,-4.8553,93.766
2023-02-15 04:54:05:534,-4.98818,10.527,-56.0834,-10.6447,-4.85618,93.7717
2023-02-15 04:54:05:544,-4.9564,10.6103,-55.9774,-10.6462,-4.85648,93.7734
2023-02-15 04:54:05:554,-5.00451,10.5833,-55.8283,-10.6491,-4.85325,93.7794
2023-02-15 04:54:05:564,-5.19834,10.5582,-55.7327,-10.6446,-4.85214,93.7824
2023-02-15 04:54:05:574,-5.28848,10.571,-55.8329,-10.6448,-4.84937,93.7836
2023-02-15 04:54:05:584,-5.24287,10.5818,-55.887,-10.6439,-4.8437,93.7805
2023-02-15 04:54:05:594,-4.98778,10.609,-55.9591,-10.6423,-4.83529,93.7737
2023-02-15 04:54:05:604,-4.67963,10.6721,-55.9488,-10.6405,-4.82848,93.7654
2023-02-15 04:54:05:614,-4.64047,10.6255,-56.0364,-10.6375,-4.82558,93.7549
2023-02-15 04:54:05:624,-4.67842,10.6321,-56.1413,-10.6354,-4.8239,93.7468
2023-02-15 04:54:05:634,-4.63898,10.5585,-56.1466,-10.6296,-4.82367,93.7397
2023-02-15 04:54:05:644,-4.54418,10.5678,-56.1647,-10.6265,-4.8216,93.7308
2023-02-15 04:54:05:654,-4.47453,10.5693,-56.2167,-10.6205,-4.81781,93.7244
2023-02-15 04:54:05:664,-4.33033,10.5461,-56.2603,-10.6129,-4.8112,93.719
2023-02-15 04:54:05:674,-4.38974,10.5422,-56.1585,-10.6076,-4.80504,93.7163
2023-02-15 04:54:05:684,-4.52847,10.4954,-56.0084,-10.597,-4.80292,93.7158
2023-02-15 04:54:05:694,-4.73972,10.558,-55.9676,-10.5924,-4.79798,93.7203
2023-02-15 04:54:05:704,-4.78371,10.5615,-55.9368,-10.5858,-4.79464,93.7236
2023-02-15 04:54:05:714,-4.78358,10.4881,-55.8533,-10.5751,-4.79429,93.7232
2023-02-15 04:54:05:724,-4.76016,10.4418,-55.7803,-10.5689,-4.79568,93.7238
2023-02-15 04:54:05:734,-4.63619,10.3723,-55.9241,-10.5595,-4.79429,93.7245
2023-02-15 04:54:05:744,-4.46373,10.4005,-56.0446,-10.5535,-4.79657,93.7211
2023-02-15 04:54:05:754,-4.39427,10.4278,-56.1005,-10.5464,-4.79942,93.7202
