Timestamp,Acceleration_x,Acceleration_y,Acceleration_z,roll,pitch,yaw
2023-02-15 07:12:17:676,-0.434807,2.11033,-9.53405,-12.3253,-2.71534,94.4635
2023-02-15 07:12:17:686,-0.474788,2.09732,-9.52449,-12.3135,-2.72614,94.4978
2023-02-15 07:12:17:696,-0.494182,2.09075,-9.53213,-12.301,-2.73934,94.53
2023-02-15 07:12:17:707,-0.51244,2.10252,-9.55447,-12.2892,-2.7478,94.554
2023-02-15 07:12:17:716,-0.499988,2.11526,-9.55638,-12.278,-2.75175,94.5747
2023-02-15 07:12:17:727,-0.498485,2.09627,-9.56539,-12.2659,-2.75553,94.5924
2023-02-15 07:12:17:736,-0.489505,2.0897,-9.57519,-12.2524,-2.7619,94.6073
2023-02-15 07:12:17:747,-0.465279,2.08982,-9.56181,-12.2372,-2.76409,94.6198
2023-02-15 07:12:17:756,-0.432681,2.071,-9.53973,-12.2197,-2.76516,94.6262
2023-02-15 07:12:17:766,-0.415631,2.05803,-9.53928,-12.1989,-2.76864,94.6327
2023-02-15 07:12:17:776,-0.399632,2.0469,-9.52754,-12.1784,-2.7752,94.6324
2023-02-15 07:12:17:786,-0.388779,2.01745,-9.52109,-12.157,-2.78297,94.6345
2023-02-15 07:12:17:796,-0.388741,1.99669,-9.51044,-12.1351,-2.79413,94.638
2023-02-15 07:12:17:806,-0.388788,1.98915,-9.5014,-12.1172,-2.80889,94.6435
2023-02-15 07:12:17:816,-0.385752,1.98049,-9.5125,-12.0989,-2.82168,94.6496
2023-02-15 07:12:17:826,-0.390437,1.97392,-9.52078,-12.0844,-2.84057,94.6583
2023-02-15 07:12:17:836,-0.425641,1.97247,-9.54012,-12.0705,-2.86151,94.6664
2023-02-15 07:12:17:846,-0.472871,1.98284,-9.55575,-12.0597,-2.87783,94.6805
2023-02-15 07:12:17:856,-0.479564,1.97748,-9.56305,-12.0485,-2.8946,94.6924
2023-02-15 07:12:17:866,-0.47437,1.98189,-9.55273,-12.0395,-2.91281,94.7059
2023-02-15 07:12:17:876,-0.467419,1.98299,-9.53576,-12.0299,-2.92894,94.719
2023-02-15 07:12:17:887,-0.482075,1.98296,-9.52798,-12.0234,-2.94806,94.7314
2023-02-15 07:12:17:896,-0.458006,1.98953,-9.53062,-12.0171,-2.96471,94.7435
2023-02-15 07:12:17:907,-0.434613,1.98841,-9.52129,-12.0164,-2.98182,94.7587
2023-02-15 07:12:17:916,-0.432014,1.98423,-9.52251,-12.013,-2.99674,94.7761
2023-02-15 07:12:17:926,-0.42945,1.9844,-9.51214,-12.0153,-3.01258,94.8001
2023-02-15 07:12:17:937,-0.438153,1.98655,-9.51199,-12.0168,-3.02862,94.8235
2023-02-15 07:12:17:947,-0.466769,1.98267,-9.51426,-12.0203,-3.04097,94.8527
2023-02-15 07:12:17:957,-0.484489,1.98079,-9.50814,-12.0282,-3.05352,94.8831
2023-02-15 07:12:17:966,-0.469264,1.97631,-9.49741,-12.0357,-3.06718,94.9129
2023-02-15 07:12:17:977,-0.456348,1.98467,-9.50529,-12.0435,-3.07983,94.9378
2023-02-15 07:12:17:987,-0.475065,1.99896,-9.53406,-12.057,-3.09175,94.9666
2023-02-15 07:12:17:997,-0.495186,2.00296,-9.54329,-12.0686,-3.10176,94.9937
2023-02-15 07:12:18:7,-0.510368,2.01369,-9.55446,-12.0819,-3.11233,95.0201
2023-02-15 07:12:18:16,-0.5319,2.04467,-9.56859,-12.0975,-3.12512,95.0499
2023-02-15 07:12:18:26,-0.535942,2.06449,-9.58752,-12.1131,-3.13767,95.0787
2023-02-15 07:12:18:36,-0.541727,2.07781,-9.58622,-12.1249,-3.14955,95.1015
2023-02-15 07:12:18:46,-0.563494,2.07517,-9.58379,-12.1349,-3.16202,95.1219
2023-02-15 07:12:18:56,-0.593214,2.07488,-9.54711,-12.1435,-3.17593,95.139
2023-02-15 07:12:18:66,-0.602713,2.05997,-9.49402,-12.1499,-3.18836,95.1549
2023-02-15 07:12:18:76,-0.605779,2.03495,-9.49516,-12.1547,-3.19954,95.1707
2023-02-15 07:12:18:86,-0.604268,2.0363,-9.51807,-12.1646,-3.20946,95.1813
2023-02-15 07:12:18:96,-0.59165,2.04056,-9.53787,-12.1728,-3.21633,95.1877
2023-02-15 07:12:18:106,-0.586821,2.03421,-9.51962,-12.1818,-3.22552,95.1927
2023-02-15 07:12:18:116,-0.589807,2.0451,-9.50114,-12.1926,-3.23311,95.1965
2023-02-15 07:12:18:126,-0.590319,2.04643,-9.50431,-12.2043,-3.23773,95.195
2023-02-15 07:12:18:136,-0.566705,2.05705,-9.52165,-12.2175,-3.24026,95.1938
2023-02-15 07:12:18:146,-0.54344,2.0578,-9.55144,-12.2325,-3.24154,95.1923
2023-02-15 07:12:18:156,-0.51687,2.06541,-9.5731,-12.244,-3.23965,95.1902
2023-02-15 07:12:18:166,-0.487845,2.04404,-9.58173,-12.2545,-3.23698,95.1877
2023-02-15 07:12:18:177,-0.471444,2.03307,-9.55872,-12.2627,-3.23821,95.1832
2023-02-15 07:12:18:186,-0.478921,2.04624,-9.53631,-12.2723,-3.24163,95.1804
2023-02-15 07:12:18:196,-0.48063,2.04895,-9.52673,-12.283,-3.24821,95.179
2023-02-15 07:12:18:206,-0.510709,2.04629,-9.50628,-12.2972,-3.25465,95.184
2023-02-15 07:12:18:216,-0.537681,2.02753,-9.49357,-12.3086,-3.25779,95.1877
2023-02-15 07:12:18:226,-0.532602,2.04426,-9.49874,-12.3206,-3.25647,95.1879
2023-02-15 07:12:18:236,-0.485603,2.06389,-9.54444,-12.3346,-3.25386,95.19
2023-02-15 07:12:18:247,-0.431597,2.06974,-9.57799,-12.3504,-3.25411,95.1968
2023-02-15 07:12:18:256,-0.415179,2.07242,-9.58491,-12.3665,-3.26207,95.2007
2023-02-15 07:12:18:267,-0.441377,2.08227,-9.59645,-12.3868,-3.27379,95.2104
2023-02-15 07:12:18:276,-0.499591,2.10252,-9.56567,-12.4057,-3.29014,95.2229
2023-02-15 07:12:18:286,-0.546966,2.10082,-9.53417,-12.4251,-3.30481,95.2357
2023-02-15 07:12:18:296,-0.588236,2.1096,-9.49548,-12.4469,-3.31649,95.2503
2023-02-15 07:12:18:306,-0.602627,2.11533,-9.47896,-12.4668,-3.3237,95.2665
2023-02-15 07:12:18:316,-0.573408,2.1436,-9.48428,-12.4887,-3.3321,95.2805
2023-02-15 07:12:18:326,-0.54874,2.16778,-9.50073,-12.5086,-3.33957,95.2934
2023-02-15 07:12:18:336,-0.556398,2.16082,-9.49696,-12.5265,-3.3493,95.3071
2023-02-15 07:12:18:346,-0.56306,2.14583,-9.48642,-12.5431,-3.35856,95.316
2023-02-15 07:12:18:357,-0.584342,2.15191,-9.47739,-12.5613,-3.36918,95.327
2023-02-15 07:12:18:367,-0.611377,2.15753,-9.48452,-12.5816,-3.38011,95.338
2023-02-15 07:12:18:377,-0.628907,2.18003,-9.49743,-12.6015,-3.38901,95.3465
2023-02-15 07:12:18:387,-0.642576,2.19905,-9.53561,-12.6194,-3.39438,95.3545
2023-02-15 07:12:18:397,-0.665329,2.22662,-9.55588,-12.6375,-3.39577,95.3592
2023-02-15 07:12:18:406,-0.657339,2.22303,-9.54386,-12.6529,-3.39406,95.3649
2023-02-15 07:12:18:417,-0.655451,2.21081,-9.53846,-12.664,-3.38783,95.364
2023-02-15 07:12:18:427,-0.646446,2.21952,-9.55239,-12.6744,-3.38462,95.357
2023-02-15 07:12:18:436,-0.636095,2.22143,-9.5556,-12.6808,-3.38097,95.3472
2023-02-15 07:12:18:447,-0.655161,2.21433,-9.53962,-12.6877,-3.38227,95.3325
2023-02-15 07:12:18:456,-0.645669,2.22781,-9.51779,-12.6933,-3.38285,95.3167
2023-02-15 07:12:18:466,-0.61303,2.22467,-9.48971,-12.6967,-3.38019,95.297
2023-02-15 07:12:18:476,-0.603438,2.20035,-9.47345,-12.7015,-3.37341,95.2745
2023-02-15 07:12:18:487,-0.605456,2.2122,-9.48665,-12.7052,-3.36535,95.252
2023-02-15 07:12:18:497,-0.578025,2.21961,-9.51334,-12.7069,-3.35434,95.2287
2023-02-15 07:12:18:507,-0.524902,2.1983,-9.52588,-12.7051,-3.33956,95.2027
2023-02-15 07:12:18:517,-0.486737,2.19674,-9.54243,-12.7038,-3.33257,95.1776
2023-02-15 07:12:18:527,-0.499214,2.20841,-9.56694,-12.6987,-3.32825,95.1567
2023-02-15 07:12:18:537,-0.52933,2.20577,-9.57456,-12.6915,-3.32699,95.1391
2023-02-15 07:12:18:547,-0.560283,2.19997,-9.55652,-12.6779,-3.32611,95.1202
2023-02-15 07:12:18:557,-0.568177,2.19005,-9.52189,-12.6717,-3.32292,95.1039
2023-02-15 07:12:18:567,-0.543396,2.18337,-9.51571,-12.6628,-3.31408,95.0873
2023-02-15 07:12:18:577,-0.501443,2.18756,-9.52737,-12.6522,-3.30033,95.0722
2023-02-15 07:12:18:587,-0.454261,2.18505,-9.54375,-12.6415,-3.287,95.0575
2023-02-15 07:12:18:597,-0.421838,2.18087,-9.53572,-12.6285,-3.2743,95.0411
2023-02-15 07:12:18:607,-0.416523,2.18628,-9.54156,-12.6204,-3.26641,95.0288
2023-02-15 07:12:18:617,-0.438823,2.18384,-9.53458,-12.6087,-3.26399,95.0218
2023-02-15 07:12:18:627,-0.481229,2.16589,-9.52058,-12.5928,-3.26683,95.0135
2023-02-15 07:12:18:637,-0.523744,2.16655,-9.51454,-12.5765,-3.26944,95.0045
2023-02-15 07:12:18:647,-0.543464,2.15475,-9.50566,-12.5598,-3.27597,94.9968
2023-02-15 07:12:18:657,-0.539566,2.13826,-9.50351,-12.5435,-3.2752,94.9867
2023-02-15 07:12:18:667,-0.532209,2.14072,-9.5174,-12.5267,-3.27989,94.9734
2023-02-15 07:12:18:677,-0.549246,2.13296,-9.54405,-12.5105,-3.28465,94.9603
2023-02-15 07:12:18:687,-0.556368,2.11969,-9.52914,-12.4944,-3.29106,94.9467
2023-02-15 07:12:18:697,-0.578033,2.09046,-9.51366,-12.4775,-3.29851,94.929
2023-02-15 07:12:18:707,-0.588147,2.09418,-9.49784,-12.465,-3.30226,94.9083
2023-02-15 07:12:18:717,-0.57693,2.10529,-9.4933,-12.4522,-3.30068,94.8872
2023-02-15 07:12:18:727,-0.562244,2.10881,-9.50556,-12.4386,-3.30189,94.8621
2023-02-15 07:12:18:737,-0.553111,2.12248,-9.51068,-12.4265,-3.30004,94.8359
2023-02-15 07:12:18:747,-0.525311,2.1165,-9.51889,-12.4177,-3.30074,94.8093
2023-02-15 07:12:18:757,-0.508303,2.12226,-9.53136,-12.4097,-3.30588,94.7817
2023-02-15 07:12:18:767,-0.519464,2.13705,-9.52668,-12.3979,-3.30545,94.7565
2023-02-15 07:12:18:777,-0.529536,2.11646,-9.52445,-12.3826,-3.31015,94.7334
2023-02-15 07:12:18:787,-0.508303,2.0846,-9.50804,-12.3684,-3.31444,94.7099
2023-02-15 07:12:18:797,-0.517237,2.08032,-9.50135,-12.3591,-3.31866,94.6903
2023-02-15 07:12:18:807,-0.532981,2.07902,-9.5222,-12.3454,-3.32068,94.6701
2023-02-15 07:12:18:817,-0.517178,2.07907,-9.53924,-12.3316,-3.32084,94.6501
2023-02-15 07:12:18:827,-0.50695,2.0699,-9.52242,-12.3213,-3.31903,94.6358
2023-02-15 07:12:18:837,-0.529141,2.06813,-9.48988,-12.3115,-3.31887,94.6191
2023-02-15 07:12:18:847,-0.540889,2.06893,-9.49098,-12.3074,-3.31429,94.6091
2023-02-15 07:12:18:857,-0.543917,2.07823,-9.50017,-12.3028,-3.30971,94.5949
2023-02-15 07:12:18:867,-0.550888,2.07986,-9.51755,-12.2995,-3.30822,94.5811
2023-02-15 07:12:18:877,-0.558665,2.10181,-9.52853,-12.2967,-3.30848,94.5676
2023-02-15 07:12:18:887,-0.577017,2.11156,-9.51143,-12.2945,-3.31143,94.5502
2023-02-15 07:12:18:897,-0.577889,2.0994,-9.48653,-12.2941,-3.31428,94.5279
2023-02-15 07:12:18:907,-0.572972,2.08693,-9.45251,-12.2941,-3.31782,94.5063
2023-02-15 07:12:18:917,-0.558355,2.09425,-9.47088,-12.3007,-3.31936,94.4839
2023-02-15 07:12:18:926,-0.541723,2.10649,-9.50593,-12.307,-3.31683,94.4587
2023-02-15 07:12:18:936,-0.496852,2.10584,-9.53001,-12.3147,-3.3118,94.4361
2023-02-15 07:12:18:946,-0.453448,2.10775,-9.56546,-12.3158,-3.30623,94.4119
2023-02-15 07:12:18:956,-0.442001,2.10633,-9.58399,-12.3159,-3.30412,94.3886
2023-02-15 07:12:18:966,-0.440681,2.09999,-9.5739,-12.3146,-3.30603,94.3731
2023-02-15 07:12:18:976,-0.446982,2.08408,-9.55859,-12.3124,-3.31187,94.3575
2023-02-15 07:12:18:986,-0.466808,2.06774,-9.54491,-12.3045,-3.31823,94.3452
2023-02-15 07:12:18:996,-0.483657,2.036,-9.52257,-12.3029,-3.32642,94.3326
2023-02-15 07:12:19:6,-0.502636,2.01317,-9.50935,-12.2999,-3.33037,94.3214
2023-02-15 07:12:19:16,-0.477771,2.01036,-9.52064,-12.3015,-3.3255,94.3102
2023-02-15 07:12:19:26,-0.431787,2.01228,-9.54361,-12.2995,-3.3191,94.304
2023-02-15 07:12:19:36,-0.394649,2.01163,-9.55795,-12.2996,-3.31081,94.2957
2023-02-15 07:12:19:46,-0.370723,2.00377,-9.56006,-12.2961,-3.30596,94.2917
2023-02-15 07:12:19:56,-0.374017,1.99819,-9.58597,-12.2931,-3.30666,94.2894
2023-02-15 07:12:19:66,-0.395998,1.97669,-9.59683,-12.2877,-3.30939,94.2896
2023-02-15 07:12:19:76,-0.445341,1.94518,-9.56353,-12.283,-3.32178,94.2881
2023-02-15 07:12:19:86,-0.485634,1.92469,-9.5359,-12.2839,-3.33816,94.2898
2023-02-15 07:12:19:96,-0.504946,1.9233,-9.52806,-12.2868,-3.35436,94.2907
2023-02-15 07:12:19:106,-0.525407,1.9352,-9.52173,-12.2828,-3.36678,94.2879
2023-02-15 07:12:19:116,-0.509637,1.93691,-9.53027,-12.2856,-3.37504,94.2831
2023-02-15 07:12:19:126,-0.463819,1.96454,-9.59906,-12.2897,-3.38806,94.2755
2023-02-15 07:12:19:136,-0.439812,1.98748,-9.63976,-12.29,-3.40433,94.2702
2023-02-15 07:12:19:146,-0.446414,1.9841,-9.63172,-12.2895,-3.42193,94.2689
2023-02-15 07:12:19:156,-0.471321,1.98089,-9.5877,-12.2891,-3.44158,94.2689
2023-02-15 07:12:19:166,-0.497418,1.98248,-9.53598,-12.2925,-3.4651,94.2718
2023-02-15 07:12:19:176,-0.519933,1.97872,-9.48363,-12.3006,-3.48452,94.2755
2023-02-15 07:12:19:186,-0.534988,1.98556,-9.44747,-12.3124,-3.50734,94.284
2023-02-15 07:12:19:196,-0.549333,2.01714,-9.45779,-12.3308,-3.53076,94.2944
2023-02-15 07:12:19:206,-0.563231,2.07644,-9.48131,-12.3531,-3.55582,94.3015
2023-02-15 07:12:19:216,-0.568569,2.10399,-9.4956,-12.3709,-3.5793,94.3083
2023-02-15 07:12:19:226,-0.591955,2.1336,-9.51181,-12.3922,-3.60746,94.3181
2023-02-15 07:12:19:236,-0.617994,2.1366,-9.48445,-12.405,-3.63939,94.3262
2023-02-15 07:12:19:246,-0.672062,2.07285,-9.40963,-12.4164,-3.66977,94.3369
2023-02-15 07:12:19:256,-0.734439,2.04078,-9.35477,-12.4351,-3.70507,94.3423
2023-02-15 07:12:19:266,-0.783298,2.0513,-9.34051,-12.4617,-3.73382,94.3482
2023-02-15 07:12:19:276,-0.798942,2.06238,-9.34755,-12.4999,-3.75241,94.3516
2023-02-15 07:12:19:286,-0.787152,2.07508,-9.36389,-12.5493,-3.75959,94.3485
2023-02-15 07:12:19:296,-0.731162,2.1373,-9.40804,-12.6039,-3.75949,94.3376
2023-02-15 07:12:19:306,-0.654174,2.22501,-9.4949,-12.6602,-3.75385,94.3253
2023-02-15 07:12:19:316,-0.604455,2.30857,-9.61912,-12.7122,-3.75032,94.3157
2023-02-15 07:12:19:326,-0.566656,2.36662,-9.71314,-12.7519,-3.74947,94.3039
2023-02-15 07:12:19:336,-0.536819,2.37906,-9.70305,-12.7803,-3.75671,94.2948
2023-02-15 07:12:19:346,-0.565741,2.32636,-9.60078,-12.8062,-3.77167,94.2923
2023-02-15 07:12:19:356,-0.680173,2.2725,-9.48993,-12.8288,-3.78852,94.2954
2023-02-15 07:12:19:366,-0.784806,2.24198,-9.41742,-12.8504,-3.79924,94.2981
2023-02-15 07:12:19:376,-0.820396,2.23148,-9.34411,-12.8767,-3.80438,94.295
2023-02-15 07:12:19:386,-0.804608,2.21572,-9.28796,-12.9126,-3.80141,94.2894
2023-02-15 07:12:19:396,-0.775635,2.258,-9.35876,-12.9508,-3.79345,94.282
2023-02-15 07:12:19:406,-0.714644,2.34237,-9.5029,-12.9853,-3.78627,94.2742
2023-02-15 07:12:19:416,-0.686411,2.38202,-9.62277,-13.0098,-3.78325,94.2673
2023-02-15 07:12:19:426,-0.683595,2.39999,-9.68352,-13.024,-3.78989,94.2598
2023-02-15 07:12:19:436,-0.683381,2.37666,-9.664,-13.0255,-3.80874,94.2526
2023-02-15 07:12:19:446,-0.750503,2.31563,-9.55725,-13.0258,-3.83377,94.2516
2023-02-15 07:12:19:456,-0.856671,2.26038,-9.43998,-13.0263,-3.85946,94.2511
2023-02-15 07:12:19:466,-0.908026,2.22671,-9.35389,-13.0348,-3.8731,94.2496
2023-02-15 07:12:19:476,-0.918955,2.2169,-9.31664,-13.0475,-3.87739,94.2444
2023-02-15 07:12:19:486,-0.887851,2.24074,-9.36562,-13.0695,-3.87423,94.2348
2023-02-15 07:12:19:496,-0.824909,2.29628,-9.46491,-13.0939,-3.86984,94.225
2023-02-15 07:12:19:506,-0.7523,2.33053,-9.58133,-13.1163,-3.86048,94.2137
2023-02-15 07:12:19:516,-0.70912,2.36245,-9.65409,-13.1256,-3.85675,94.1953
2023-02-15 07:12:19:526,-0.729671,2.35732,-9.64224,-13.1314,-3.85832,94.1831
2023-02-15 07:12:19:536,-0.773372,2.30237,-9.53934,-13.1372,-3.86066,94.1663
2023-02-15 07:12:19:546,-0.791012,2.25318,-9.43153,-13.1412,-3.85825,94.1501
2023-02-15 07:12:19:556,-0.756965,2.24799,-9.39956,-13.1498,-3.84577,94.1309
2023-02-15 07:12:19:566,-0.716918,2.25899,-9.3903,-13.1627,-3.82597,94.1123
2023-02-15 07:12:19:576,-0.637699,2.26875,-9.42696,-13.1752,-3.79546,94.0875
2023-02-15 07:12:19:586,-0.560733,2.29127,-9.49516,-13.188,-3.76017,94.0647
2023-02-15 07:12:19:597,-0.497824,2.32306,-9.56512,-13.1996,-3.72325,94.0437
2023-02-15 07:12:19:606,-0.481418,2.33716,-9.60886,-13.2041,-3.69329,94.0266
2023-02-15 07:12:19:616,-0.50482,2.33491,-9.58751,-13.2044,-3.66413,94.011
2023-02-15 07:12:19:626,-0.516367,2.30487,-9.53229,-13.2014,-3.64185,93.9968
2023-02-15 07:12:19:636,-0.54631,2.28695,-9.4741,-13.199,-3.62014,93.9793
2023-02-15 07:12:19:646,-0.553571,2.28169,-9.44828,-13.195,-3.60049,93.9593
2023-02-15 07:12:19:656,-0.525324,2.28238,-9.44516,-13.1904,-3.58239,93.9337
2023-02-15 07:12:19:667,-0.497851,2.27112,-9.48184,-13.1872,-3.56407,93.9056
2023-02-15 07:12:19:677,-0.468066,2.2758,-9.55099,-13.1831,-3.54559,93.8764
2023-02-15 07:12:19:687,-0.430752,2.28419,-9.59914,-13.1751,-3.52913,93.8476
2023-02-15 07:12:19:696,-0.416501,2.27806,-9.62499,-13.1631,-3.51569,93.824
2023-02-15 07:12:19:707,-0.402691,2.26604,-9.60527,-13.1463,-3.50293,93.804
2023-02-15 07:12:19:717,-0.421038,2.24042,-9.58417,-13.1249,-3.49169,93.7889
2023-02-15 07:12:19:727,-0.44868,2.21777,-9.54536,-13.1016,-3.47897,93.7755
2023-02-15 07:12:19:737,-0.449704,2.22215,-9.54878,-13.0797,-3.46688,93.7694
2023-02-15 07:12:19:747,-0.453468,2.22692,-9.5542,-13.0558,-3.45197,93.767
2023-02-15 07:12:19:757,-0.4443,2.22224,-9.55865,-13.0268,-3.43778,93.7679
2023-02-15 07:12:19:767,-0.42063,2.22116,-9.55516,-12.9987,-3.42268,93.7704
2023-02-15 07:12:19:777,-0.422565,2.22364,-9.57658,-12.9658,-3.41468,93.7744
2023-02-15 07:12:19:787,-0.436839,2.21011,-9.61435,-12.9281,-3.41299,93.78
2023-02-15 07:12:19:796,-0.462961,2.1906,-9.60594,-12.8842,-3.41743,93.7863
2023-02-15 07:12:19:806,-0.527485,2.16482,-9.5661,-12.8347,-3.42612,93.797
2023-02-15 07:12:19:816,-0.582845,2.13754,-9.5257,-12.7869,-3.43824,93.8092
2023-02-15 07:12:19:827,-0.6091,2.11693,-9.5043,-12.7371,-3.44565,93.817
2023-02-15 07:12:19:837,-0.63904,2.09133,-9.47408,-12.6911,-3.45181,93.8262
2023-02-15 07:12:19:846,-0.654015,2.0576,-9.44989,-12.6498,-3.45567,93.8287
2023-02-15 07:12:19:856,-0.66734,2.05561,-9.42685,-12.6094,-3.45776,93.8293
2023-02-15 07:12:19:866,-0.641179,2.04757,-9.43017,-12.5757,-3.454,93.8226
2023-02-15 07:12:19:876,-0.600416,2.04402,-9.43601,-12.5464,-3.45124,93.8133
2023-02-15 07:12:19:887,-0.576839,2.03396,-9.44263,-12.5204,-3.44676,93.8002
2023-02-15 07:12:19:897,-0.556445,2.04419,-9.43802,-12.4987,-3.44046,93.7849
2023-02-15 07:12:19:907,-0.515004,2.03163,-9.44642,-12.4773,-3.43142,93.7661
2023-02-15 07:12:19:917,-0.483214,2.03732,-9.41732,-12.4652,-3.4247,93.7475
2023-02-15 07:12:19:927,-0.463395,2.01236,-9.41189,-12.4542,-3.41626,93.7304
2023-02-15 07:12:19:937,-0.445729,2.0079,-9.41911,-12.4497,-3.41036,93.716
2023-02-15 07:12:19:947,-0.437876,2.02845,-9.44892,-12.4464,-3.40356,93.7036
2023-02-15 07:12:19:957,-0.439556,2.04409,-9.47836,-12.4493,-3.39827,93.6943
2023-02-15 07:12:19:967,-0.455943,2.04716,-9.47389,-12.4514,-3.3949,93.6889
2023-02-15 07:12:19:977,-0.468669,2.04593,-9.46621,-12.459,-3.38985,93.688
2023-02-15 07:12:19:987,-0.480411,2.0656,-9.49305,-12.4717,-3.38675,93.6875
2023-02-15 07:12:19:997,-0.501008,2.09898,-9.52028,-12.4849,-3.38426,93.6857
2023-02-15 07:12:20:7,-0.523982,2.13681,-9.53881,-12.497,-3.38043,93.6817
2023-02-15 07:12:20:17,-0.53678,2.15632,-9.54656,-12.5081,-3.37734,93.6809
2023-02-15 07:12:20:27,-0.542567,2.16189,-9.54052,-12.5158,-3.37506,93.6812
2023-02-15 07:12:20:36,-0.540311,2.16036,-9.53105,-12.5242,-3.37848,93.6796
2023-02-15 07:12:20:47,-0.56021,2.1647,-9.49808,-12.5328,-3.38053,93.6756
2023-02-15 07:12:20:56,-0.573262,2.14847,-9.48203,-12.5392,-3.38315,93.6695
2023-02-15 07:12:20:66,-0.593765,2.14788,-9.49331,-12.5492,-3.38402,93.6632
2023-02-15 07:12:20:76,-0.592697,2.18975,-9.55375,-12.5588,-3.38566,93.6532
2023-02-15 07:12:20:86,-0.569936,2.22144,-9.6245,-12.5611,-3.38291,93.6393
2023-02-15 07:12:20:96,-0.535559,2.22019,-9.64313,-12.5615,-3.37972,93.626
2023-02-15 07:12:20:106,-0.49898,2.19769,-9.62124,-12.561,-3.374,93.6119
2023-02-15 07:12:20:116,-0.482266,2.19568,-9.59162,-12.56,-3.37515,93.5991
2023-02-15 07:12:20:126,-0.482096,2.20069,-9.58605,-12.549,-3.3767,93.5848
2023-02-15 07:12:20:136,-0.479605,2.1826,-9.57283,-12.5349,-3.37612,93.5716
2023-02-15 07:12:20:147,-0.463902,2.16634,-9.5506,-12.521,-3.37545,93.563
2023-02-15 07:12:20:157,-0.446991,2.17018,-9.52255,-12.5053,-3.37805,93.5605
2023-02-15 07:12:20:167,-0.465641,2.16025,-9.52945,-12.4917,-3.37893,93.5633
2023-02-15 07:12:20:177,-0.471831,2.1626,-9.52712,-12.4742,-3.37698,93.5674
2023-02-15 07:12:20:187,-0.480356,2.14582,-9.51891,-12.4539,-3.37591,93.5714
2023-02-15 07:12:20:197,-0.506647,2.15484,-9.52201,-12.435,-3.37829,93.5822
2023-02-15 07:12:20:207,-0.533862,2.15552,-9.53626,-12.4119,-3.38042,93.5926
2023-02-15 07:12:20:217,-0.559679,2.12817,-9.52628,-12.3851,-3.38455,93.6011
2023-02-15 07:12:20:227,-0.592088,2.10968,-9.5092,-12.3571,-3.39261,93.6092
2023-02-15 07:12:20:237,-0.604238,2.10766,-9.51118,-12.3306,-3.39941,93.6137
2023-02-15 07:12:20:247,-0.625348,2.08881,-9.52166,-12.3056,-3.40875,93.6185
2023-02-15 07:12:20:257,-0.629669,2.07222,-9.51074,-12.2805,-3.42037,93.6185
2023-02-15 07:12:20:267,-0.605324,2.07906,-9.50746,-12.2584,-3.43125,93.617
2023-02-15 07:12:20:277,-0.612789,2.07181,-9.51237,-12.2374,-3.43777,93.6163
2023-02-15 07:12:20:287,-0.616632,2.05642,-9.51226,-12.2215,-3.4458,93.6148
2023-02-15 07:12:20:297,-0.609769,2.05645,-9.50819,-12.2032,-3.45143,93.6088
2023-02-15 07:12:20:307,-0.603845,2.0566,-9.48934,-12.1883,-3.45424,93.6035
2023-02-15 07:12:20:317,-0.601136,2.06061,-9.479,-12.1774,-3.45731,93.598
2023-02-15 07:12:20:327,-0.597323,2.04719,-9.44213,-12.1632,-3.4649,93.5909
2023-02-15 07:12:20:337,-0.613982,2.03146,-9.4125,-12.1544,-3.47305,93.5848
2023-02-15 07:12:20:347,-0.634369,2.05043,-9.44655,-12.1487,-3.47524,93.5743
2023-02-15 07:12:20:357,-0.611296,2.06589,-9.50019,-12.1477,-3.4762,93.5615
2023-02-15 07:12:20:367,-0.5408,2.05362,-9.52659,-12.1434,-3.47331,93.5466
2023-02-15 07:12:20:377,-0.498144,2.06988,-9.5414,-12.1381,-3.47315,93.5312
2023-02-15 07:12:20:387,-0.484007,2.09187,-9.56908,-12.1329,-3.47776,93.518
2023-02-15 07:12:20:397,-0.492748,2.07818,-9.57745,-12.1257,-3.47783,93.5065
2023-02-15 07:12:20:407,-0.541755,2.07022,-9.5657,-12.1186,-3.48339,93.5025
2023-02-15 07:12:20:417,-0.559983,2.0696,-9.56226,-12.1094,-3.48404,93.4987
2023-02-15 07:12:20:427,-0.561897,2.07615,-9.56584,-12.0976,-3.48251,93.496
2023-02-15 07:12:20:437,-0.583353,2.07478,-9.57527,-12.084,-3.48365,93.5022
2023-02-15 07:12:20:447,-0.600441,2.0653,-9.56668,-12.0688,-3.4822,93.5033
2023-02-15 07:12:20:457,-0.619306,2.06146,-9.54366,-12.0571,-3.48085,93.5084
2023-02-15 07:12:20:467,-0.619449,2.05287,-9.51513,-12.0443,-3.47999,93.5041
2023-02-15 07:12:20:477,-0.61532,2.05185,-9.5017,-12.0301,-3.47825,93.4952
2023-02-15 07:12:20:487,-0.616174,2.04179,-9.50594,-12.0206,-3.48402,93.481
2023-02-15 07:12:20:497,-0.607942,2.05231,-9.51582,-12.0049,-3.48761,93.4695
2023-02-15 07:12:20:507,-0.578758,2.03736,-9.55241,-11.989,-3.48878,93.4525
2023-02-15 07:12:20:517,-0.551268,2.03477,-9.57824,-11.9712,-3.4931,93.4344
2023-02-15 07:12:20:527,-0.542912,2.03178,-9.58132,-11.9511,-3.49427,93.4221
2023-02-15 07:12:20:537,-0.53226,2.02747,-9.56931,-11.9334,-3.49165,93.4101
2023-02-15 07:12:20:547,-0.535232,2.01045,-9.57269,-11.9083,-3.49127,93.4023
2023-02-15 07:12:20:557,-0.54511,1.99942,-9.55767,-11.8858,-3.49073,93.3958
2023-02-15 07:12:20:567,-0.55389,1.9782,-9.53402,-11.8641,-3.48568,93.3913
2023-02-15 07:12:20:577,-0.577343,1.95587,-9.52645,-11.8417,-3.48565,93.3898
2023-02-15 07:12:20:587,-0.595735,1.95282,-9.51536,-11.8261,-3.48279,93.3875
2023-02-15 07:12:20:597,-0.591001,1.95104,-9.50761,-11.8105,-3.48533,93.3831
2023-02-15 07:12:20:607,-0.564245,1.94183,-9.50793,-11.7962,-3.4867,93.3757
2023-02-15 07:12:20:617,-0.550948,1.95477,-9.51519,-11.7853,-3.49586,93.3668
2023-02-15 07:12:20:627,-0.557159,1.96773,-9.53889,-11.7737,-3.50558,93.3591
2023-02-15 07:12:20:637,-0.573573,1.97183,-9.53606,-11.764,-3.51351,93.3505
2023-02-15 07:12:20:647,-0.57835,1.97035,-9.53065,-11.7585,-3.5219,93.3436
2023-02-15 07:12:20:657,-0.578165,1.95891,-9.5383,-11.7564,-3.53011,93.3367
2023-02-15 07:12:20:667,-0.59103,1.96746,-9.54121,-11.7478,-3.5355,93.3318
2023-02-15 07:12:20:677,-0.593171,1.97781,-9.53905,-11.7415,-3.54002,93.3227
2023-02-15 07:12:20:687,-0.590828,1.97823,-9.54833,-11.7347,-3.55063,93.3162
2023-02-15 07:12:20:697,-0.597126,1.96303,-9.55379,-11.7294,-3.55363,93.3103
2023-02-15 07:12:20:707,-0.593425,1.96602,-9.54012,-11.7265,-3.55848,93.3023
2023-02-15 07:12:20:717,-0.573849,1.97582,-9.53811,-11.7232,-3.56179,93.2944
2023-02-15 07:12:20:727,-0.557661,1.98303,-9.54042,-11.719,-3.56375,93.2865
2023-02-15 07:12:20:737,-0.535246,1.97495,-9.53923,-11.7156,-3.57031,93.2826
2023-02-15 07:12:20:747,-0.537241,1.97189,-9.5504,-11.7093,-3.57302,93.2835
2023-02-15 07:12:20:757,-0.550306,1.97589,-9.56262,-11.7042,-3.5796,93.2835
2023-02-15 07:12:20:767,-0.539916,1.9746,-9.5839,-11.6957,-3.58265,93.2843
2023-02-15 07:12:20:777,-0.528376,1.96449,-9.58681,-11.6879,-3.5889,93.2879
2023-02-15 07:12:20:787,-0.551957,1.94068,-9.55431,-11.6749,-3.59494,93.2913
2023-02-15 07:12:20:797,-0.577127,1.91277,-9.52347,-11.6633,-3.60602,93.2984
2023-02-15 07:12:20:807,-0.596965,1.90649,-9.52461,-11.6551,-3.61962,93.303
2023-02-15 07:12:20:817,-0.625072,1.91809,-9.52771,-11.6528,-3.62877,93.3082
2023-02-15 07:12:20:827,-0.634951,1.91373,-9.51873,-11.6529,-3.63756,93.3134
2023-02-15 07:12:20:837,-0.648819,1.92111,-9.53859,-11.6577,-3.64473,93.3169
2023-02-15 07:12:20:847,-0.648044,1.94115,-9.57019,-11.6595,-3.65355,93.3193
2023-02-15 07:12:20:856,-0.648363,1.95802,-9.5762,-11.6593,-3.6614,93.3216
2023-02-15 07:12:20:867,-0.67014,1.95601,-9.55413,-11.6601,-3.66569,93.3252
2023-02-15 07:12:20:877,-0.672924,1.9492,-9.54489,-11.6608,-3.67088,93.3299
2023-02-15 07:12:20:887,-0.672172,1.94858,-9.55212,-11.664,-3.67292,93.3305
2023-02-15 07:12:20:897,-0.661132,1.9541,-9.52264,-11.6655,-3.67554,93.332
2023-02-15 07:12:20:907,-0.656406,1.9295,-9.48004,-11.6685,-3.674,93.3284
2023-02-15 07:12:20:917,-0.643258,1.92979,-9.46435,-11.6749,-3.66566,93.3288
2023-02-15 07:12:20:927,-0.598868,1.93955,-9.50017,-11.6834,-3.65694,93.3276
2023-02-15 07:12:20:937,-0.550842,1.93117,-9.52855,-11.6991,-3.65001,93.3282
2023-02-15 07:12:20:947,-0.541832,1.93682,-9.55585,-11.7142,-3.64555,93.3333
2023-02-15 07:12:20:957,-0.554068,1.97914,-9.60885,-11.7254,-3.64181,93.338
2023-02-15 07:12:20:967,-0.547697,2.01188,-9.64536,-11.7325,-3.63606,93.3426
2023-02-15 07:12:20:977,-0.540174,1.99928,-9.62752,-11.7309,-3.63422,93.3495
2023-02-15 07:12:20:987,-0.564483,1.9737,-9.56465,-11.7353,-3.63411,93.3543
2023-02-15 07:12:20:997,-0.559541,1.94391,-9.50864,-11.7364,-3.63891,93.3608
2023-02-15 07:12:21:7,-0.579591,1.918,-9.47835,-11.7443,-3.64321,93.3703
2023-02-15 07:12:21:17,-0.601062,1.91445,-9.46983,-11.7523,-3.65084,93.376
2023-02-15 07:12:21:27,-0.607786,1.93456,-9.49177,-11.7652,-3.65607,93.383
2023-02-15 07:12:21:37,-0.583104,1.95879,-9.58329,-11.778,-3.66293,93.3899
2023-02-15 07:12:21:47,-0.542542,1.98511,-9.64512,-11.7874,-3.66823,93.3957
2023-02-15 07:12:21:57,-0.520102,2.00393,-9.64975,-11.7991,-3.67823,93.4029
2023-02-15 07:12:21:67,-0.546655,1.99818,-9.62412,-11.8049,-3.69295,93.416
2023-02-15 07:12:21:77,-0.595708,1.97529,-9.55427,-11.8102,-3.7072,93.4334
2023-02-15 07:12:21:87,-0.669765,1.94748,-9.47682,-11.8204,-3.72261,93.4478
2023-02-15 07:12:21:97,-0.742488,1.95913,-9.43701,-11.8341,-3.73632,93.4632
2023-02-15 07:12:21:107,-0.772223,1.99488,-9.45782,-11.8543,-3.74762,93.4771
2023-02-15 07:12:21:117,-0.739986,2.03158,-9.47254,-11.8746,-3.7576,93.4903
2023-02-15 07:12:21:127,-0.716487,2.04184,-9.48404,-11.8949,-3.76283,93.5009
2023-02-15 07:12:21:137,-0.733554,2.02657,-9.47753,-11.9178,-3.76439,93.5096
2023-02-15 07:12:21:147,-0.756071,2.03682,-9.46761,-11.9411,-3.76447,93.5171
2023-02-15 07:12:21:157,-0.75586,2.04847,-9.48536,-11.9646,-3.7603,93.5234
2023-02-15 07:12:21:167,-0.718938,2.05428,-9.51345,-11.9905,-3.75141,93.5292
2023-02-15 07:12:21:177,-0.676717,2.08317,-9.54342,-12.0173,-3.74294,93.5286
2023-02-15 07:12:21:187,-0.664677,2.10378,-9.58439,-12.0382,-3.72757,93.5278
2023-02-15 07:12:21:197,-0.645189,2.10962,-9.58762,-12.0531,-3.70839,93.5249
2023-02-15 07:12:21:207,-0.593761,2.1038,-9.55477,-12.0673,-3.68364,93.5212
2023-02-15 07:12:21:217,-0.543988,2.06865,-9.54245,-12.0794,-3.65827,93.5195
2023-02-15 07:12:21:227,-0.508388,2.05967,-9.55382,-12.0916,-3.63381,93.5218
2023-02-15 07:12:21:237,-0.495878,2.05908,-9.55898,-12.1082,-3.60964,93.5234
2023-02-15 07:12:21:247,-0.494585,2.059,-9.55883,-12.1248,-3.59262,93.5295
2023-02-15 07:12:21:257,-0.5099,2.07806,-9.59139,-12.1424,-3.57881,93.5356
2023-02-15 07:12:21:267,-0.531601,2.10243,-9.57895,-12.1565,-3.56478,93.5457
2023-02-15 07:12:21:277,-0.548507,2.10743,-9.53319,-12.1723,-3.55599,93.5554
2023-02-15 07:12:21:287,-0.581457,2.10617,-9.49818,-12.186,-3.55143,93.5646
2023-02-15 07:12:21:297,-0.628804,2.09368,-9.46176,-12.2031,-3.5472,93.5715
2023-02-15 07:12:21:307,-0.639687,2.11737,-9.46696,-12.2184,-3.54107,93.5754
2023-02-15 07:12:21:317,-0.603315,2.10877,-9.4819,-12.2326,-3.53313,93.5762
2023-02-15 07:12:21:327,-0.551502,2.10645,-9.50418,-12.244,-3.52101,93.5801
2023-02-15 07:12:21:337,-0.519133,2.12455,-9.57059,-12.2574,-3.51226,93.5817
2023-02-15 07:12:21:347,-0.523745,2.15967,-9.6324,-12.2627,-3.50668,93.5895
2023-02-15 07:12:21:357,-0.55977,2.15974,-9.62107,-12.2643,-3.50063,93.5965
2023-02-15 07:12:21:367,-0.618622,2.13959,-9.56898,-12.265,-3.49411,93.6068
2023-02-15 07:12:21:377,-0.655317,2.1253,-9.52876,-12.2674,-3.48231,93.6164
2023-02-15 07:12:21:387,-0.636108,2.12707,-9.51825,-12.2693,-3.46705,93.6234
2023-02-15 07:12:21:397,-0.61566,2.12492,-9.52844,-12.2693,-3.44742,93.6262
2023-02-15 07:12:21:407,-0.616919,2.10923,-9.50513,-12.2729,-3.42892,93.6276
2023-02-15 07:12:21:417,-0.621448,2.11665,-9.53555,-12.2788,-3.41186,93.6236
2023-02-15 07:12:21:427,-0.583013,2.14333,-9.59138,-12.2818,-3.39662,93.6177
2023-02-15 07:12:21:437,-0.547976,2.15155,-9.58782,-12.2744,-3.38009,93.6098
2023-02-15 07:12:21:447,-0.511136,2.13013,-9.55108,-12.2699,-3.36231,93.597
2023-02-15 07:12:21:457,-0.473124,2.09874,-9.5161,-12.2637,-3.34935,93.5858
2023-02-15 07:12:21:467,-0.431655,2.06582,-9.50443,-12.2607,-3.33894,93.5769
2023-02-15 07:12:21:477,-0.38776,2.04855,-9.52152,-12.2541,-3.32594,93.5684
2023-02-15 07:12:21:487,-0.361542,2.0334,-9.52326,-12.246,-3.31412,93.5649
2023-02-15 07:12:21:497,-0.36379,2.02961,-9.51552,-12.237,-3.30654,93.5687
2023-02-15 07:12:21:507,-0.389557,2.02488,-9.52455,-12.2347,-3.30193,93.5809
2023-02-15 07:12:21:517,-0.420114,2.0281,-9.52052,-12.2303,-3.30269,93.5992
2023-02-15 07:12:21:527,-0.468117,2.02261,-9.50222,-12.2265,-3.3017,93.6237
2023-02-15 07:12:21:537,-0.523857,2.00622,-9.48265,-12.2271,-3.30353,93.6514
2023-02-15 07:12:21:547,-0.576843,2.0059,-9.46967,-12.2325,-3.30535,93.6765
2023-02-15 07:12:21:557,-0.629498,1.96768,-9.44394,-12.2469,-3.30537,93.7031
2023-02-15 07:12:21:567,-0.668372,1.93238,-9.42315,-12.2631,-3.30469,93.7276
2023-02-15 07:12:21:577,-0.676621,1.92563,-9.424,-12.2893,-3.30545,93.7457
2023-02-15 07:12:21:587,-0.636539,1.93899,-9.44129,-12.3212,-3.30442,93.7606
2023-02-15 07:12:21:597,-0.597632,1.93856,-9.46749,-12.3566,-3.29972,93.7724
2023-02-15 07:12:21:607,-0.599638,1.93576,-9.43613,-12.3961,-3.29718,93.7841
2023-02-15 07:12:21:617,-0.607487,1.92758,-9.38366,-12.4453,-3.29228,93.7947
2023-02-15 07:12:21:627,-0.597878,1.93288,-9.36309,-12.5003,-3.28606,93.8024
2023-02-15 07:12:21:637,-0.590925,1.97396,-9.41085,-12.5655,-3.28087,93.8074
2023-02-15 07:12:21:647,-0.577277,2.04184,-9.49826,-12.6332,-3.27518,93.81
2023-02-15 07:12:21:657,-0.581644,2.10374,-9.54762,-12.6997,-3.26812,93.8142
2023-02-15 07:12:21:667,-0.587267,2.14432,-9.54606,-12.7678,-3.25813,93.8183
2023-02-15 07:12:21:677,-0.587483,2.18646,-9.53961,-12.8287,-3.24716,93.8204
2023-02-15 07:12:21:687,-0.570076,2.22022,-9.54963,-12.8879,-3.23182,93.8206
2023-02-15 07:12:21:697,-0.561548,2.24572,-9.55001,-12.9475,-3.21879,93.8199
2023-02-15 07:12:21:707,-0.535292,2.25803,-9.53475,-13.0012,-3.20566,93.8176
2023-02-15 07:12:21:717,-0.537506,2.27525,-9.53677,-13.0555,-3.19174,93.8145
2023-02-15 07:12:21:727,-0.53184,2.32465,-9.56645,-13.109,-3.17727,93.8149
2023-02-15 07:12:21:737,-0.532524,2.36331,-9.60503,-13.1558,-3.16245,93.8152
2023-02-15 07:12:21:747,-0.548177,2.36914,-9.59588,-13.1955,-3.14538,93.8151
2023-02-15 07:12:21:757,-0.557049,2.3561,-9.56627,-13.2287,-3.12768,93.8181
2023-02-15 07:12:21:767,-0.535493,2.33514,-9.54024,-13.2576,-3.10572,93.8176
2023-02-15 07:12:21:777,-0.541563,2.311,-9.51075,-13.2833,-3.08122,93.8185
2023-02-15 07:12:21:787,-0.534618,2.29135,-9.50188,-13.3077,-3.05833,93.8198
2023-02-15 07:12:21:797,-0.50691,2.28228,-9.52541,-13.332,-3.03433,93.817
2023-02-15 07:12:21:807,-0.474028,2.2842,-9.55879,-13.3553,-3.00764,93.8129
2023-02-15 07:12:21:817,-0.437763,2.26661,-9.57548,-13.3733,-2.98418,93.8098
2023-02-15 07:12:21:827,-0.412901,2.24794,-9.54521,-13.3893,-2.96186,93.8081
2023-02-15 07:12:21:837,-0.420544,2.21167,-9.46671,-13.4051,-2.93968,93.8104
2023-02-15 07:12:21:847,-0.431318,2.18192,-9.415,-13.4228,-2.92455,93.8107
2023-02-15 07:12:21:857,-0.448826,2.1712,-9.42109,-13.446,-2.90764,93.8131
2023-02-15 07:12:21:867,-0.455766,2.20109,-9.44227,-13.474,-2.8876,93.8162
2023-02-15 07:12:21:877,-0.450346,2.24523,-9.48832,-13.504,-2.86762,93.8199
2023-02-15 07:12:21:886,-0.441307,2.26051,-9.52542,-13.5349,-2.84272,93.8245
2023-02-15 07:12:21:897,-0.442143,2.27491,-9.52946,-13.5613,-2.81997,93.8265
2023-02-15 07:12:21:907,-0.4196,2.28117,-9.49865,-13.5864,-2.80495,93.8292
2023-02-15 07:12:21:917,-0.405268,2.29379,-9.47434,-13.6109,-2.78666,93.8327
2023-02-15 07:12:21:927,-0.402031,2.29186,-9.48444,-13.637,-2.77165,93.8364
2023-02-15 07:12:21:937,-0.414439,2.2941,-9.4857,-13.6626,-2.75877,93.8406
2023-02-15 07:12:21:947,-0.422731,2.31005,-9.48464,-13.6894,-2.74405,93.8448
2023-02-15 07:12:21:957,-0.42187,2.33366,-9.5001,-13.7146,-2.73297,93.8471
2023-02-15 07:12:21:967,-0.402113,2.35623,-9.49612,-13.7388,-2.72109,93.8472
2023-02-15 07:12:21:977,-0.383185,2.37242,-9.47813,-13.7623,-2.70692,93.8491
2023-02-15 07:12:21:987,-0.389952,2.3811,-9.50546,-13.7815,-2.69617,93.8543
2023-02-15 07:12:21:997,-0.394391,2.41785,-9.5422,-13.7992,-2.68644,93.8561
2023-02-15 07:12:22:7,-0.390805,2.43837,-9.5731,-13.814,-2.67999,93.8614
2023-02-15 07:12:22:17,-0.380638,2.44986,-9.59193,-13.8259,-2.67692,93.8646
2023-02-15 07:12:22:27,-0.394168,2.44661,-9.58641,-13.8303,-2.67536,93.872
2023-02-15 07:12:22:37,-0.434759,2.43308,-9.5615,-13.8319,-2.67465,93.8781
2023-02-15 07:12:22:47,-0.482687,2.40848,-9.50406,-13.8319,-2.67457,93.8866
2023-02-15 07:12:22:57,-0.503043,2.36938,-9.43929,-13.836,-2.67189,93.8925
2023-02-15 07:12:22:67,-0.505805,2.36661,-9.41345,-13.8404,-2.67301,93.8951
2023-02-15 07:12:22:77,-0.470496,2.38735,-9.43916,-13.8456,-2.66928,93.8948
2023-02-15 07:12:22:87,-0.423927,2.39688,-9.453,-13.8542,-2.66143,93.8952
2023-02-15 07:12:22:97,-0.405036,2.39902,-9.46375,-13.8635,-2.65477,93.8962
2023-02-15 07:12:22:107,-0.411864,2.40443,-9.47899,-13.8674,-2.6453,93.8988
2023-02-15 07:12:22:117,-0.420998,2.39759,-9.48105,-13.8702,-2.63721,93.8992
2023-02-15 07:12:22:127,-0.424706,2.38121,-9.47363,-13.8702,-2.63149,93.9014
2023-02-15 07:12:22:137,-0.4357,2.36091,-9.44396,-13.8703,-2.62678,93.9022
2023-02-15 07:12:22:147,-0.431572,2.34853,-9.43907,-13.8746,-2.62042,93.9101
2023-02-15 07:12:22:157,-0.422918,2.33816,-9.45282,-13.8764,-2.61105,93.9137
2023-02-15 07:12:22:167,-0.422801,2.33909,-9.45794,-13.878,-2.60309,93.9154
2023-02-15 07:12:22:177,-0.427906,2.35783,-9.45952,-13.8848,-2.59672,93.9175
2023-02-15 07:12:22:187,-0.428828,2.35618,-9.45431,-13.8942,-2.58933,93.9206
2023-02-15 07:12:22:197,-0.401474,2.35306,-9.45661,-13.902,-2.58296,93.9214
2023-02-15 07:12:22:207,-0.399726,2.34457,-9.45553,-13.9126,-2.57815,93.9194
2023-02-15 07:12:22:217,-0.404946,2.34506,-9.45369,-13.9259,-2.57547,93.9196
2023-02-15 07:12:22:227,-0.394,2.35386,-9.47788,-13.9444,-2.56984,93.9159
2023-02-15 07:12:22:237,-0.386515,2.37757,-9.4896,-13.959,-2.56562,93.9136
2023-02-15 07:12:22:247,-0.356299,2.36741,-9.45854,-13.9729,-2.56181,93.9089
2023-02-15 07:12:22:257,-0.378227,2.35576,-9.42035,-13.9898,-2.55892,93.9059
2023-02-15 07:12:22:267,-0.392787,2.37534,-9.43684,-14.0046,-2.55643,93.9018
2023-02-15 07:12:22:277,-0.357611,2.37804,-9.44202,-14.0182,-2.55257,93.901
2023-02-15 07:12:22:287,-0.32238,2.36322,-9.42129,-14.0338,-2.55028,93.8965
2023-02-15 07:12:22:297,-0.334478,2.36963,-9.44229,-14.0536,-2.55161,93.8986
2023-02-15 07:12:22:307,-0.371919,2.3986,-9.46713,-14.0727,-2.55786,93.8988
2023-02-15 07:12:22:317,-0.387969,2.40701,-9.48802,-14.0895,-2.56053,93.9045
2023-02-15 07:12:22:327,-0.401413,2.41659,-9.50359,-14.1074,-2.56163,93.9048
2023-02-15 07:12:22:337,-0.419074,2.43598,-9.49321,-14.1256,-2.56428,93.9087
2023-02-15 07:12:22:347,-0.429927,2.45946,-9.4945,-14.1397,-2.56387,93.9112
2023-02-15 07:12:22:357,-0.415633,2.46194,-9.49547,-14.1537,-2.56117,93.9122
2023-02-15 07:12:22:367,-0.404802,2.43103,-9.4702,-14.1667,-2.55757,93.9104
2023-02-15 07:12:22:377,-0.412838,2.42517,-9.44119,-14.1786,-2.5547,93.9132
2023-02-15 07:12:22:387,-0.40951,2.42197,-9.43991,-14.1932,-2.55165,93.9162
2023-02-15 07:12:22:397,-0.42405,2.42778,-9.4436,-14.2052,-2.55365,93.9154
2023-02-15 07:12:22:406,-0.448536,2.42701,-9.43904,-14.221,-2.5553,93.9155
2023-02-15 07:12:22:417,-0.454277,2.42448,-9.42331,-14.2341,-2.55514,93.9115
2023-02-15 07:12:22:427,-0.462919,2.41839,-9.41166,-14.2528,-2.55759,93.9104
2023-02-15 07:12:22:437,-0.432356,2.39514,-9.40862,-14.2675,-2.5595,93.9056
2023-02-15 07:12:22:447,-0.412885,2.3699,-9.41878,-14.2881,-2.55717,93.9017
2023-02-15 07:12:22:457,-0.409558,2.37597,-9.43167,-14.3089,-2.55707,93.901
2023-02-15 07:12:22:467,-0.399227,2.36972,-9.43167,-14.3301,-2.55304,93.9015
2023-02-15 07:12:22:477,-0.386229,2.35011,-9.39811,-14.3548,-2.55135,93.9025
2023-02-15 07:12:22:487,-0.38852,2.33129,-9.36407,-14.3852,-2.55205,93.9034
2023-02-15 07:12:22:497,-0.400052,2.32424,-9.3631,-14.4226,-2.54849,93.9051
2023-02-15 07:12:22:507,-0.39698,2.32488,-9.3831,-14.463,-2.54631,93.9134
2023-02-15 07:12:22:517,-0.390132,2.32975,-9.38726,-14.5053,-2.5406,93.9164
2023-02-15 07:12:22:527,-0.395358,2.34135,-9.41014,-14.5525,-2.53481,93.9276
2023-02-15 07:12:22:537,-0.428447,2.39735,-9.45464,-14.6031,-2.53167,93.9378
2023-02-15 07:12:22:547,-0.461055,2.44304,-9.46418,-14.6528,-2.52181,93.9449
2023-02-15 07:12:22:557,-0.475649,2.46616,-9.43866,-14.7011,-2.51069,93.9564
2023-02-15 07:12:22:567,-0.491978,2.48939,-9.42977,-14.7491,-2.50327,93.9635
2023-02-15 07:12:22:577,-0.481125,2.50512,-9.42866,-14.7978,-2.4911,93.9644
2023-02-15 07:12:22:587,-0.470781,2.51847,-9.44369,-14.8485,-2.47802,93.9694
2023-02-15 07:12:22:597,-0.464936,2.56072,-9.4653,-14.8966,-2.46992,93.9678
2023-02-15 07:12:22:607,-0.451125,2.57489,-9.46836,-14.9407,-2.45949,93.9656
2023-02-15 07:12:22:617,-0.443692,2.56834,-9.43577,-14.985,-2.4497,93.9631
2023-02-15 07:12:22:627,-0.424696,2.57095,-9.40986,-15.0321,-2.43937,93.9593
2023-02-15 07:12:22:637,-0.405765,2.5663,-9.43105,-15.0757,-2.42904,93.9503
2023-02-15 07:12:22:647,-0.397933,2.57681,-9.45172,-15.1202,-2.41815,93.9396
2023-02-15 07:12:22:657,-0.385542,2.59755,-9.46534,-15.1616,-2.40876,93.9262
2023-02-15 07:12:22:667,-0.366946,2.61023,-9.48548,-15.2006,-2.4028,93.9161
2023-02-15 07:12:22:677,-0.362488,2.62592,-9.48886,-15.2328,-2.38941,93.9052
2023-02-15 07:12:22:687,-0.351072,2.62697,-9.4889,-15.264,-2.38251,93.8953
2023-02-15 07:12:22:697,-0.339142,2.60621,-9.44777,-15.2923,-2.37912,93.8869
2023-02-15 07:12:22:707,-0.328915,2.59566,-9.40141,-15.3185,-2.37092,93.88
2023-02-15 07:12:22:717,-0.333088,2.5693,-9.38873,-15.3468,-2.36406,93.8764
2023-02-15 07:12:22:727,-0.332363,2.57012,-9.37665,-15.3755,-2.35621,93.871
2023-02-15 07:12:22:737,-0.337361,2.56115,-9.37566,-15.4079,-2.34899,93.8687
2023-02-15 07:12:22:747,-0.329446,2.5669,-9.39931,-15.4442,-2.34396,93.8674
2023-02-15 07:12:22:757,-0.310668,2.57138,-9.42339,-15.4793,-2.33559,93.8682
2023-02-15 07:12:22:767,-0.306605,2.58385,-9.42811,-15.5139,-2.328,93.8693
2023-02-15 07:12:22:777,-0.319457,2.60201,-9.42231,-15.5475,-2.32106,93.8732
2023-02-15 07:12:22:787,-0.326052,2.60118,-9.44456,-15.5822,-2.31501,93.8756
2023-02-15 07:12:22:797,-0.336734,2.60532,-9.43895,-15.6133,-2.30853,93.8794
2023-02-15 07:12:22:807,-0.346732,2.61038,-9.4163,-15.6469,-2.30055,93.8852
2023-02-15 07:12:22:817,-0.344041,2.62664,-9.40821,-15.6768,-2.29573,93.8904
2023-02-15 07:12:22:827,-0.34501,2.64075,-9.40763,-15.7103,-2.29069,93.8956
2023-02-15 07:12:22:837,-0.346394,2.66663,-9.40985,-15.7391,-2.28709,93.9019
2023-02-15 07:12:22:847,-0.351193,2.67616,-9.4096,-15.7676,-2.2862,93.9097
2023-02-15 07:12:22:857,-0.346484,2.68775,-9.40403,-15.7982,-2.28315,93.9189
2023-02-15 07:12:22:867,-0.354915,2.7126,-9.41446,-15.8274,-2.27953,93.9269
2023-02-15 07:12:22:877,-0.362573,2.74105,-9.44747,-15.8508,-2.27898,93.9345
2023-02-15 07:12:22:887,-0.360144,2.74849,-9.44916,-15.8718,-2.28018,93.9427
2023-02-15 07:12:22:897,-0.350543,2.74917,-9.43368,-15.8907,-2.27875,93.9493
2023-02-15 07:12:22:907,-0.367386,2.73552,-9.40552,-15.9064,-2.28205,93.9569
2023-02-15 07:12:22:917,-0.38259,2.72035,-9.37615,-15.9233,-2.28217,93.9652
2023-02-15 07:12:22:927,-0.410225,2.70529,-9.36191,-15.9414,-2.27967,93.9689
2023-02-15 07:12:22:937,-0.400847,2.69323,-9.38767,-15.9568,-2.27847,93.9776
2023-02-15 07:12:22:946,-0.397295,2.69374,-9.37457,-15.9721,-2.27878,93.9802
2023-02-15 07:12:22:957,-0.393387,2.66709,-9.336,-15.9893,-2.27451,93.9835
2023-02-15 07:12:22:967,-0.392697,2.63029,-9.31692,-16.0111,-2.26871,93.9866
2023-02-15 07:12:22:977,-0.376316,2.61614,-9.33284,-16.0348,-2.26243,93.9917
2023-02-15 07:12:22:987,-0.362376,2.62827,-9.35196,-16.0581,-2.25485,93.9965
2023-02-15 07:12:22:997,-0.36529,2.63639,-9.35813,-16.0824,-2.2469,94.0016
2023-02-15 07:12:23:7,-0.354982,2.62568,-9.35494,-16.1096,-2.23635,94.0052
2023-02-15 07:12:23:17,-0.341319,2.62939,-9.36378,-16.1394,-2.22511,94.0081
2023-02-15 07:12:23:27,-0.325908,2.61242,-9.34982,-16.1709,-2.2127,94.0143
2023-02-15 07:12:23:37,-0.294132,2.59818,-9.33832,-16.2095,-2.19877,94.0175
2023-02-15 07:12:23:47,-0.283166,2.58748,-9.32239,-16.2509,-2.19351,94.0247
2023-02-15 07:12:23:57,-0.28775,2.57589,-9.28763,-16.2956,-2.19346,94.0303
2023-02-15 07:12:23:67,-0.302351,2.55383,-9.24621,-16.349,-2.18757,94.0424
2023-02-15 07:12:23:77,-0.331623,2.54852,-9.2066,-16.4141,-2.18137,94.0575
2023-02-15 07:12:23:87,-0.370036,2.53346,-9.13917,-16.4872,-2.17214,94.0735
2023-02-15 07:12:23:97,-0.383896,2.49548,-9.06425,-16.5726,-2.15492,94.0902
2023-02-15 07:12:23:107,-0.355647,2.46004,-8.99385,-16.6758,-2.13688,94.1094
2023-02-15 07:12:23:117,-0.314728,2.45538,-8.94579,-16.796,-2.11297,94.1289
2023-02-15 07:12:23:127,-0.26078,2.41499,-8.90595,-16.9381,-2.0923,94.151
2023-02-15 07:12:23:137,-0.237517,2.37414,-8.8607,-17.1048,-2.06636,94.1784
2023-02-15 07:12:23:147,-0.231891,2.33594,-8.7519,-17.2965,-2.03868,94.2136
2023-02-15 07:12:23:157,-0.207047,2.2872,-8.61866,-17.5227,-1.99956,94.2513
2023-02-15 07:12:23:167,-0.177045,2.25951,-8.52112,-17.7859,-1.96003,94.299
2023-02-15 07:12:23:177,-0.150932,2.26945,-8.45035,-18.0892,-1.90818,94.356
2023-02-15 07:12:23:187,-0.16069,2.29446,-8.41012,-18.4405,-1.85595,94.4197
2023-02-15 07:12:23:197,-0.201731,2.35503,-8.39133,-18.8298,-1.79612,94.4957
2023-02-15 07:12:23:207,-0.227153,2.41067,-8.38915,-19.2615,-1.72831,94.5765
2023-02-15 07:12:23:217,-0.21655,2.49312,-8.37572,-19.7313,-1.64656,94.6607
2023-02-15 07:12:23:227,-0.192972,2.558,-8.36339,-20.2428,-1.55389,94.7466
2023-02-15 07:12:23:237,-0.188587,2.65318,-8.30921,-20.7935,-1.45457,94.8359
2023-02-15 07:12:23:247,-0.179253,2.78785,-8.25967,-21.3886,-1.34655,94.9248
2023-02-15 07:12:23:257,-0.156163,2.98817,-8.26432,-22.0162,-1.23115,95.0068
2023-02-15 07:12:23:267,-0.113748,3.33443,-8.37071,-22.6808,-1.11752,95.0933
2023-02-15 07:12:23:277,-0.0930266,3.80248,-8.67884,-23.3611,-1.00587,95.1743
2023-02-15 07:12:23:287,-0.0618815,4.22268,-8.97766,-24.035,-0.89782,95.254
2023-02-15 07:12:23:297,-0.0175157,4.46721,-9.10239,-24.6889,-0.794166,95.3333
2023-02-15 07:12:23:307,-0.0111789,4.63908,-9.1775,-25.3204,-0.689861,95.4129
2023-02-15 07:12:23:317,-0.0466998,4.84047,-9.2989,-25.9247,-0.588491,95.4929
2023-02-15 07:12:23:327,-0.0321738,4.98547,-9.37713,-26.4911,-0.498319,95.5706
2023-02-15 07:12:23:337,-0.0201383,5.07338,-9.36089,-27.0232,-0.41429,95.6456
2023-02-15 07:12:23:347,-0.0390326,5.11206,-9.27227,-27.525,-0.337949,95.7187
2023-02-15 07:12:23:357,-0.04674,5.13665,-9.16169,-27.9977,-0.265173,95.7896
2023-02-15 07:12:23:367,-0.0613693,5.17387,-9.09615,-28.4426,-0.199833,95.8573
2023-02-15 07:12:23:377,-0.0735364,5.30183,-9.15558,-28.8573,-0.138046,95.9194
2023-02-15 07:12:23:387,-0.0368319,5.42608,-9.22111,-29.2378,-0.0818386,95.9752
2023-02-15 07:12:23:397,-0.0028292,5.51183,-9.23797,-29.5797,-0.0322991,96.029
2023-02-15 07:12:23:407,0.00204198,5.57805,-9.19729,-29.8791,0.0137636,96.0804
2023-02-15 07:12:23:417,-0.0114188,5.57975,-9.07972,-30.1459,0.0598974,96.1318
2023-02-15 07:12:23:427,-0.0512173,5.52843,-8.9345,-30.3815,0.102082,96.1769
2023-02-15 07:12:23:437,-0.0635657,5.47705,-8.80872,-30.5886,0.139855,96.2178
2023-02-15 07:12:23:447,-0.0765479,5.46188,-8.71673,-30.7779,0.176619,96.2546
2023-02-15 07:12:23:457,-0.067024,5.44799,-8.66879,-30.9495,0.204604,96.2825
2023-02-15 07:12:23:467,-0.0483461,5.46271,-8.64317,-31.1075,0.229268,96.3064
2023-02-15 07:12:23:477,-0.0307326,5.45862,-8.60259,-31.2445,0.245505,96.3245
2023-02-15 07:12:23:487,-0.0291447,5.46581,-8.54446,-31.3726,0.257454,96.3369
2023-02-15 07:12:23:497,-0.0182034,5.4617,-8.52564,-31.4895,0.267403,96.344
2023-02-15 07:12:23:507,0.00385491,5.44705,-8.546,-31.5975,0.274378,96.3487
2023-02-15 07:12:23:517,0.0553252,5.46005,-8.54661,-31.6894,0.281294,96.3448
2023-02-15 07:12:23:527,0.0942721,5.49446,-8.54727,-31.7723,0.286627,96.3456
2023-02-15 07:12:23:537,0.117724,5.53411,-8.56272,-31.8386,0.290938,96.3458
2023-02-15 07:12:23:547,0.14387,5.58244,-8.58653,-31.8898,0.289268,96.3459
2023-02-15 07:12:23:557,0.14518,5.60497,-8.58666,-31.9232,0.288018,96.3468
2023-02-15 07:12:23:567,0.135354,5.60433,-8.54476,-31.9401,0.282162,96.3515
2023-02-15 07:12:23:577,0.117057,5.56646,-8.50598,-31.938,0.279772,96.354
2023-02-15 07:12:23:587,0.0991203,5.55895,-8.50155,-31.9229,0.2728,96.3607
2023-02-15 07:12:23:597,0.101816,5.61616,-8.56792,-31.8939,0.266495,96.3644
2023-02-15 07:12:23:607,0.10605,5.68579,-8.65499,-31.8477,0.257155,96.3709
2023-02-15 07:12:23:617,0.102688,5.73434,-8.74302,-31.7806,0.239779,96.376
2023-02-15 07:12:23:627,0.100086,5.78084,-8.78396,-31.684,0.222781,96.3807
2023-02-15 07:12:23:637,0.0976596,5.78978,-8.80005,-31.5583,0.205349,96.3882
2023-02-15 07:12:23:647,0.0850086,5.72796,-8.76812,-31.4069,0.189114,96.3986
2023-02-15 07:12:23:657,0.0659326,5.64497,-8.67669,-31.2348,0.169053,96.4098
2023-02-15 07:12:23:667,0.0421387,5.57981,-8.62027,-31.0439,0.143851,96.4196
2023-02-15 07:12:23:677,0.0357177,5.51369,-8.5978,-30.8369,0.119112,96.428
2023-02-15 07:12:23:687,0.0357434,5.43045,-8.58862,-30.6152,0.0872282,96.4364
2023-02-15 07:12:23:697,0.049428,5.38118,-8.60685,-30.3808,0.0505192,96.4426
2023-02-15 07:12:23:707,0.0485001,5.32384,-8.63951,-30.1307,0.00983506,96.4507
2023-02-15 07:12:23:717,0.0538909,5.27648,-8.65799,-29.8695,-0.0321635,96.4548
2023-02-15 07:12:23:727,0.0393708,5.24263,-8.67016,-29.5912,-0.0767081,96.4594
2023-02-15 07:12:23:737,0.0109837,5.18043,-8.65731,-29.2999,-0.123305,96.4636
2023-02-15 07:12:23:747,-0.00768991,5.0883,-8.60552,-28.9964,-0.170572,96.4654
2023-02-15 07:12:23:757,-0.0135223,4.97147,-8.55747,-28.6882,-0.213072,96.4666
2023-02-15 07:12:23:767,-0.0382891,4.87306,-8.50843,-28.3767,-0.260734,96.4667
2023-02-15 07:12:23:777,-0.0518493,4.7692,-8.47173,-28.0636,-0.307155,96.4642
2023-02-15 07:12:23:787,-0.0553038,4.62682,-8.44955,-27.7536,-0.357039,96.4541
2023-02-15 07:12:23:797,-0.0573457,4.51558,-8.45052,-27.4484,-0.408834,96.448
2023-02-15 07:12:23:807,-0.0763792,4.43209,-8.47324,-27.1527,-0.463692,96.4364
2023-02-15 07:12:23:817,-0.109129,4.36082,-8.49235,-26.8634,-0.519271,96.426
2023-02-15 07:12:23:827,-0.110398,4.29047,-8.54912,-26.577,-0.577346,96.4105
2023-02-15 07:12:23:837,-0.117785,4.23851,-8.59178,-26.3032,-0.636601,96.3939
2023-02-15 07:12:23:847,-0.12142,4.18217,-8.60965,-26.0322,-0.696523,96.3701
2023-02-15 07:12:23:857,-0.149322,4.12278,-8.64785,-25.765,-0.758192,96.3458
2023-02-15 07:12:23:867,-0.166282,4.07195,-8.65691,-25.511,-0.819441,96.323
2023-02-15 07:12:23:877,-0.165394,4.00548,-8.65796,-25.2636,-0.884279,96.2948
2023-02-15 07:12:23:887,-0.173919,3.96407,-8.70401,-25.0222,-0.951245,96.2644
2023-02-15 07:12:23:897,-0.171091,3.96165,-8.7485,-24.7918,-1.02032,96.2344
2023-02-15 07:12:23:907,-0.179285,3.92076,-8.75933,-24.5615,-1.08854,96.1988
2023-02-15 07:12:23:917,-0.192515,3.88376,-8.73133,-24.3418,-1.15697,96.1628
2023-02-15 07:12:23:927,-0.193769,3.84105,-8.74068,-24.1297,-1.22414,96.1272
2023-02-15 07:12:23:937,-0.170959,3.81713,-8.76604,-23.9301,-1.28882,96.0898
2023-02-15 07:12:23:946,-0.166195,3.77471,-8.77715,-23.7368,-1.35313,96.0556
2023-02-15 07:12:23:957,-0.195387,3.72654,-8.76314,-23.5475,-1.41543,96.0264
2023-02-15 07:12:23:967,-0.223889,3.70206,-8.77619,-23.3674,-1.46935,95.9986
2023-02-15 07:12:23:977,-0.221781,3.68825,-8.81932,-23.1924,-1.51923,95.9742
2023-02-15 07:12:23:987,-0.215959,3.65528,-8.85419,-23.0231,-1.56474,95.9533
2023-02-15 07:12:23:997,-0.238444,3.63037,-8.87095,-22.8621,-1.61091,95.9326
2023-02-15 07:12:24:7,-0.275432,3.61067,-8.87542,-22.7114,-1.65242,95.9142
2023-02-15 07:12:24:17,-0.293722,3.59538,-8.89293,-22.5655,-1.69221,95.8984
2023-02-15 07:12:24:27,-0.261768,3.58524,-8.94101,-22.4254,-1.73214,95.8802
2023-02-15 07:12:24:37,-0.249985,3.57518,-8.97768,-22.2886,-1.76824,95.8635
2023-02-15 07:12:24:47,-0.266819,3.56982,-8.99647,-22.1525,-1.80334,95.8518
2023-02-15 07:12:24:57,-0.265649,3.5617,-9.01998,-22.0259,-1.84045,95.8401
2023-02-15 07:12:24:67,-0.262992,3.55789,-9.05537,-21.8979,-1.87248,95.8313
2023-02-15 07:12:24:77,-0.257549,3.54446,-9.08166,-21.773,-1.90459,95.82
2023-02-15 07:12:24:87,-0.273349,3.52466,-9.09122,-21.6483,-1.94107,95.8124
2023-02-15 07:12:24:97,-0.3194,3.50654,-9.0693,-21.5274,-1.97833,95.8015
2023-02-15 07:12:24:107,-0.349861,3.47372,-9.02889,-21.406,-2.01778,95.7879
2023-02-15 07:12:24:117,-0.362288,3.43546,-8.97987,-21.2965,-2.05602,95.781
2023-02-15 07:12:24:127,-0.352972,3.40521,-8.96261,-21.1928,-2.0935,95.7711
2023-02-15 07:12:24:137,-0.331769,3.40144,-8.97019,-21.0947,-2.13045,95.7582
2023-02-15 07:12:24:147,-0.309404,3.4062,-8.99843,-21.0016,-2.16899,95.747
2023-02-15 07:12:24:157,-0.302817,3.40376,-9.02382,-20.9126,-2.20659,95.7375
2023-02-15 07:12:24:167,-0.319913,3.39739,-9.05728,-20.8293,-2.24786,95.7297
2023-02-15 07:12:24:177,-0.329816,3.40488,-9.07368,-20.7456,-2.28829,95.7237
2023-02-15 07:12:24:187,-0.346586,3.40417,-9.09128,-20.6637,-2.32779,95.7176
2023-02-15 07:12:24:197,-0.378244,3.39845,-9.12428,-20.5789,-2.36566,95.7108
2023-02-15 07:12:24:207,-0.417082,3.40811,-9.13756,-20.4999,-2.40218,95.7007
2023-02-15 07:12:24:217,-0.443334,3.39419,-9.12277,-20.418,-2.44336,95.6931
2023-02-15 07:12:24:227,-0.453096,3.36512,-9.09704,-20.341,-2.48071,95.6856
2023-02-15 07:12:24:237,-0.446272,3.34261,-9.09562,-20.2691,-2.51321,95.6778
2023-02-15 07:12:24:247,-0.424433,3.33337,-9.10846,-20.1981,-2.54341,95.6661
2023-02-15 07:12:24:257,-0.424279,3.31555,-9.11292,-20.1332,-2.56938,95.6525
2023-02-15 07:12:24:267,-0.44908,3.30252,-9.10651,-20.0715,-2.59207,95.6433
2023-02-15 07:12:24:277,-0.450647,3.2861,-9.11436,-20.0128,-2.61453,95.6321
2023-02-15 07:12:24:287,-0.445077,3.2899,-9.13034,-19.9596,-2.63089,95.6192
2023-02-15 07:12:24:297,-0.440691,3.2764,-9.13633,-19.9081,-2.64704,95.6055
2023-02-15 07:12:24:307,-0.444667,3.2641,-9.14011,-19.8557,-2.6624,95.5887
2023-02-15 07:12:24:317,-0.469142,3.28583,-9.15856,-19.808,-2.67798,95.575
2023-02-15 07:12:24:327,-0.477857,3.29894,-9.19465,-19.7554,-2.68749,95.5614
2023-02-15 07:12:24:337,-0.441774,3.28931,-9.20739,-19.6981,-2.69818,95.5445
2023-02-15 07:12:24:347,-0.402512,3.28989,-9.21641,-19.6387,-2.70841,95.5251
2023-02-15 07:12:24:357,-0.399076,3.28198,-9.2147,-19.5802,-2.71978,95.5088
2023-02-15 07:12:24:367,-0.427701,3.25552,-9.19235,-19.5241,-2.73678,95.4897
2023-02-15 07:12:24:377,-0.439697,3.24905,-9.18855,-19.4672,-2.75133,95.469
2023-02-15 07:12:24:387,-0.437365,3.24073,-9.19632,-19.413,-2.76737,95.448
2023-02-15 07:12:24:397,-0.45603,3.23403,-9.18067,-19.3559,-2.7822,95.4281
2023-02-15 07:12:24:407,-0.466552,3.21428,-9.17348,-19.3031,-2.79709,95.408
2023-02-15 07:12:24:417,-0.462712,3.20128,-9.16477,-19.2549,-2.8108,95.3864
2023-02-15 07:12:24:427,-0.440538,3.20464,-9.18807,-19.2101,-2.82029,95.3639
2023-02-15 07:12:24:437,-0.428313,3.19787,-9.20407,-19.1624,-2.82844,95.3461
2023-02-15 07:12:24:447,-0.42411,3.1874,-9.21039,-19.1179,-2.838,95.3251
2023-02-15 07:12:24:457,-0.419694,3.18578,-9.21237,-19.0746,-2.84733,95.3044
2023-02-15 07:12:24:467,-0.422111,3.16513,-9.19845,-19.0313,-2.86047,95.2864
2023-02-15 07:12:24:477,-0.431951,3.15683,-9.18743,-18.9841,-2.87069,95.2695
2023-02-15 07:12:24:487,-0.442823,3.14834,-9.19666,-18.9385,-2.87558,95.2505
2023-02-15 07:12:24:497,-0.445537,3.15916,-9.21697,-18.8961,-2.88343,95.2329
2023-02-15 07:12:24:507,-0.431798,3.16229,-9.23783,-18.8516,-2.89597,95.2189
2023-02-15 07:12:24:517,-0.422236,3.15735,-9.24391,-18.803,-2.90753,95.2041
2023-02-15 07:12:24:527,-0.431485,3.14307,-9.24487,-18.7571,-2.92042,95.193
2023-02-15 07:12:24:537,-0.444948,3.1382,-9.24186,-18.7125,-2.93611,95.178
2023-02-15 07:12:24:547,-0.45628,3.11781,-9.21462,-18.6692,-2.94805,95.167
2023-02-15 07:12:24:557,-0.468878,3.1117,-9.21552,-18.6253,-2.96087,95.156
2023-02-15 07:12:24:567,-0.491083,3.12192,-9.22986,-18.5877,-2.97598,95.1455
2023-02-15 07:12:24:577,-0.521094,3.12931,-9.23656,-18.5482,-2.99153,95.1323
2023-02-15 07:12:24:587,-0.541518,3.13374,-9.25334,-18.5083,-3.00814,95.1178
2023-02-15 07:12:24:597,-0.570134,3.15229,-9.26847,-18.4672,-3.02711,95.1022
2023-02-15 07:12:24:607,-0.6125,3.15455,-9.26406,-18.4257,-3.04799,95.0839
2023-02-15 07:12:24:617,-0.672737,3.14992,-9.27834,-18.3795,-3.06882,95.0624
2023-02-15 07:12:24:627,-0.730047,3.15268,-9.28182,-18.328,-3.08836,95.0326
2023-02-15 07:12:24:637,-0.755351,3.13819,-9.2577,-18.2805,-3.10616,94.9919
2023-02-15 07:12:24:647,-0.768694,3.13698,-9.24676,-18.2325,-3.12367,94.9417
2023-02-15 07:12:24:657,-0.775388,3.11882,-9.24189,-18.179,-3.1407,94.8799
2023-02-15 07:12:24:667,-0.808755,3.11348,-9.26725,-18.1301,-3.1553,94.8076
2023-02-15 07:12:24:677,-0.858108,3.14267,-9.31476,-18.0755,-3.17112,94.7143
2023-02-15 07:12:24:687,-0.89217,3.14946,-9.32564,-18.0186,-3.19171,94.6089
2023-02-15 07:12:24:697,-0.935451,3.13919,-9.31394,-17.9538,-3.21258,94.4886
2023-02-15 07:12:24:707,-0.97107,3.1442,-9.28673,-17.8895,-3.23805,94.347
2023-02-15 07:12:24:717,-1.11364,3.17586,-9.30983,-17.8211,-3.26535,94.1879
2023-02-15 07:12:24:727,-1.357,3.25818,-9.38115,-17.7449,-3.29023,93.9938
2023-02-15 07:12:24:737,-1.56791,3.34371,-9.4435,-17.6538,-3.32219,93.7595
2023-02-15 07:12:24:747,-1.67699,3.38363,-9.4682,-17.5512,-3.35506,93.4764
2023-02-15 07:12:24:757,-1.74645,3.41146,-9.494,-17.4322,-3.39414,93.1334
2023-02-15 07:12:24:767,-1.90503,3.47367,-9.53631,-17.2932,-3.44349,92.7308
2023-02-15 07:12:24:777,-2.12728,3.51235,-9.52892,-17.1328,-3.50293,92.2587
2023-02-15 07:12:24:787,-2.33539,3.53388,-9.4388,-16.9582,-3.57228,91.7146
2023-02-15 07:12:24:797,-2.59814,3.5393,-9.32433,-16.7657,-3.64808,91.0807
2023-02-15 07:12:24:807,-2.8263,3.55417,-9.27625,-16.5595,-3.72078,90.3438
2023-02-15 07:12:24:817,-2.81305,3.60486,-9.34563,-16.3391,-3.79464,89.5017
2023-02-15 07:12:24:827,-2.57194,3.62301,-9.37567,-16.1015,-3.86661,88.5588
2023-02-15 07:12:24:837,-2.2945,3.50433,-9.25119,-15.8513,-3.93547,87.5284
2023-02-15 07:12:24:847,-1.86442,3.29035,-9.07955,-15.5959,-3.99843,86.4208
2023-02-15 07:12:24:857,-1.18451,3.06204,-9.00336,-15.3493,-4.04804,85.2651
2023-02-15 07:12:24:867,-0.322608,2.85003,-9.04725,-15.1109,-4.09022,84.0873
2023-02-15 07:12:24:877,0.541088,2.62463,-9.12199,-14.8836,-4.12368,82.9348
2023-02-15 07:12:24:887,1.21178,2.37718,-9.14593,-14.6719,-4.14903,81.8438
2023-02-15 07:12:24:897,1.68022,2.13504,-9.11494,-14.4837,-4.15588,80.8479
2023-02-15 07:12:24:907,2.05477,1.93473,-9.10015,-14.3194,-4.14258,79.9701
2023-02-15 07:12:24:917,2.33347,1.78821,-9.09161,-14.1825,-4.11012,79.2278
2023-02-15 07:12:24:927,2.46252,1.6699,-9.065,-14.0764,-4.05294,78.633
2023-02-15 07:12:24:937,2.46167,1.59122,-9.03977,-14.0031,-3.97546,78.1854
2023-02-15 07:12:24:947,2.39178,1.57988,-9.03841,-13.9615,-3.88638,77.8844
2023-02-15 07:12:24:957,2.28483,1.60478,-9.06916,-13.9532,-3.78515,77.7246
2023-02-15 07:12:24:967,2.15472,1.64392,-9.14152,-13.9715,-3.67721,77.692
2023-02-15 07:12:24:977,1.97749,1.71765,-9.21739,-14.0169,-3.57064,77.7781
2023-02-15 07:12:24:987,1.71959,1.83297,-9.3229,-14.0802,-3.46581,77.9761
2023-02-15 07:12:24:997,1.49936,2.00097,-9.51192,-14.1568,-3.36837,78.2678
2023-02-15 07:12:25:7,1.32308,2.18379,-9.70399,-14.2396,-3.27744,78.6484
2023-02-15 07:12:25:17,1.11089,2.34351,-9.82416,-14.3134,-3.19891,79.0957
2023-02-15 07:12:25:27,0.885223,2.43949,-9.84947,-14.3786,-3.13414,79.6069
2023-02-15 07:12:25:37,0.651183,2.48912,-9.7735,-14.4345,-3.08277,80.1678
2023-02-15 07:12:25:47,0.4637,2.51256,-9.67737,-14.4829,-3.04609,80.7695
2023-02-15 07:12:25:57,0.337017,2.54011,-9.60038,-14.5303,-3.0241,81.3966
2023-02-15 07:12:25:67,0.212505,2.55131,-9.49323,-14.5763,-3.02358,82.0499
2023-02-15 07:12:25:77,0.0731522,2.52769,-9.37787,-14.6221,-3.03795,82.7257
2023-02-15 07:12:25:87,-0.105715,2.5287,-9.28836,-14.6753,-3.06165,83.4162
2023-02-15 07:12:25:97,-0.286441,2.5259,-9.22486,-14.7375,-3.089,84.1151
2023-02-15 07:12:25:107,-0.44478,2.532,-9.19467,-14.806,-3.11922,84.8199
2023-02-15 07:12:25:117,-0.588658,2.58984,-9.24346,-14.8821,-3.15398,85.5216
2023-02-15 07:12:25:127,-0.706964,2.6718,-9.33711,-14.9612,-3.18953,86.215
2023-02-15 07:12:25:137,-0.794399,2.73642,-9.39365,-15.0404,-3.23009,86.8956
2023-02-15 07:12:25:147,-0.890291,2.77765,-9.41647,-15.1175,-3.2773,87.5664
2023-02-15 07:12:25:157,-0.969962,2.81094,-9.47173,-15.1907,-3.33074,88.2182
2023-02-15 07:12:25:167,-1.04033,2.83109,-9.47523,-15.2575,-3.38721,88.8481
2023-02-15 07:12:25:177,-1.15327,2.80145,-9.39267,-15.3203,-3.4455,89.4585
2023-02-15 07:12:25:187,-1.26755,2.79466,-9.33211,-15.3842,-3.50002,90.0419
2023-02-15 07:12:25:197,-1.35587,2.80396,-9.32548,-15.4474,-3.54625,90.5961
2023-02-15 07:12:25:207,-1.40113,2.81437,-9.34535,-15.5077,-3.58717,91.1172
2023-02-15 07:12:25:217,-1.37198,2.83908,-9.36526,-15.5704,-3.62325,91.6115
2023-02-15 07:12:25:227,-1.34685,2.86301,-9.38284,-15.6281,-3.66009,92.0737
2023-02-15 07:12:25:237,-1.33906,2.85928,-9.4092,-15.6771,-3.69991,92.5038
2023-02-15 07:12:25:247,-1.34927,2.85702,-9.41111,-15.7224,-3.74422,92.9038
2023-02-15 07:12:25:257,-1.35912,2.86377,-9.37777,-15.7594,-3.78465,93.2684
2023-02-15 07:12:25:267,-1.30951,2.83305,-9.35029,-15.7915,-3.81668,93.6008
2023-02-15 07:12:25:277,-1.25655,2.80963,-9.36574,-15.82,-3.85448,93.9071
2023-02-15 07:12:25:287,-1.22371,2.81467,-9.38981,-15.8433,-3.89701,94.1834
2023-02-15 07:12:25:297,-1.19587,2.79977,-9.37996,-15.8605,-3.93946,94.4341
2023-02-15 07:12:25:307,-1.19884,2.77325,-9.34579,-15.8783,-3.97545,94.6646
2023-02-15 07:12:25:317,-1.18566,2.7738,-9.34747,-15.8955,-4.0132,94.8681
2023-02-15 07:12:25:327,-1.13371,2.82098,-9.41878,-15.9118,-4.04764,95.053
2023-02-15 07:12:25:337,-1.06994,2.84494,-9.46501,-15.9202,-4.08086,95.2164
2023-02-15 07:12:25:347,-1.06314,2.85855,-9.4473,-15.9267,-4.11183,95.3626
2023-02-15 07:12:25:357,-1.07598,2.86206,-9.41796,-15.9257,-4.14002,95.4934
2023-02-15 07:12:25:367,-1.06998,2.86873,-9.40653,-15.9216,-4.16721,95.6065
2023-02-15 07:12:25:377,-1.05244,2.84374,-9.38281,-15.9104,-4.19809,95.7057
2023-02-15 07:12:25:387,-1.04058,2.82233,-9.3524,-15.901,-4.22852,95.7864
2023-02-15 07:12:25:397,-1.02086,2.81696,-9.34348,-15.8873,-4.26035,95.8528
2023-02-15 07:12:25:407,-0.988291,2.80018,-9.34796,-15.8684,-4.29411,95.9054
2023-02-15 07:12:25:417,-0.937802,2.78462,-9.35255,-15.8518,-4.32914,95.9461
2023-02-15 07:12:25:427,-0.908646,2.7566,-9.35904,-15.8287,-4.36792,95.9753
2023-02-15 07:12:25:437,-0.912022,2.72991,-9.34856,-15.8049,-4.40398,95.9964
2023-02-15 07:12:25:447,-0.912567,2.71177,-9.35099,-15.7818,-4.44174,96.0099
2023-02-15 07:12:25:457,-0.888184,2.70195,-9.36831,-15.7537,-4.48374,96.0132
2023-02-15 07:12:25:467,-0.86919,2.69211,-9.37503,-15.7284,-4.5245,96.0111
2023-02-15 07:12:25:477,-0.84735,2.65781,-9.36551,-15.7011,-4.5664,96.0037
2023-02-15 07:12:25:487,-0.83498,2.65546,-9.36953,-15.676,-4.60379,95.9962
2023-02-15 07:12:25:497,-0.855942,2.68145,-9.38729,-15.6497,-4.64053,95.9878
2023-02-15 07:12:25:507,-0.89286,2.69223,-9.41147,-15.6199,-4.67523,95.9778
2023-02-15 07:12:25:517,-0.905871,2.68055,-9.39756,-15.5901,-4.70556,95.9657
2023-02-15 07:12:25:527,-0.90676,2.65457,-9.38662,-15.558,-4.73689,95.9469
2023-02-15 07:12:25:537,-0.906698,2.65302,-9.36925,-15.5251,-4.76561,95.9265
2023-02-15 07:12:25:547,-0.90535,2.62437,-9.36264,-15.4904,-4.797,95.9051
2023-02-15 07:12:25:557,-0.915365,2.58658,-9.34546,-15.4573,-4.83124,95.8806
2023-02-15 07:12:25:567,-0.927095,2.59514,-9.35812,-15.4224,-4.86264,95.8535
2023-02-15 07:12:25:577,-0.919137,2.59932,-9.36699,-15.3854,-4.89095,95.8252
2023-02-15 07:12:25:587,-0.910676,2.5999,-9.38615,-15.3506,-4.91649,95.7958
2023-02-15 07:12:25:597,-0.912519,2.60215,-9.41577,-15.3158,-4.94363,95.762
2023-02-15 07:12:25:607,-0.926992,2.61109,-9.44106,-15.279,-4.96707,95.7295
2023-02-15 07:12:25:617,-0.956422,2.59609,-9.43005,-15.2386,-4.9916,95.6959
2023-02-15 07:12:25:627,-0.949491,2.58482,-9.38389,-15.2,-5.01011,95.6579
2023-02-15 07:12:25:637,-0.952118,2.56219,-9.377,-15.1604,-5.02629,95.6168
2023-02-15 07:12:25:647,-0.931593,2.56407,-9.39517,-15.1224,-5.03634,95.5739
2023-02-15 07:12:25:657,-0.914568,2.56291,-9.41109,-15.0804,-5.04547,95.529
2023-02-15 07:12:25:667,-0.888639,2.53448,-9.39798,-15.0402,-5.05138,95.4847
2023-02-15 07:12:25:677,-0.874063,2.5266,-9.39119,-15.0009,-5.05271,95.4399
2023-02-15 07:12:25:687,-0.851878,2.52652,-9.3928,-14.9636,-5.05598,95.3967
2023-02-15 07:12:25:697,-0.828459,2.52847,-9.40053,-14.9237,-5.05471,95.3525
2023-02-15 07:12:25:707,-0.801654,2.51633,-9.39677,-14.8825,-5.05462,95.311
2023-02-15 07:12:25:717,-0.806471,2.49916,-9.39858,-14.8398,-5.05087,95.2714
2023-02-15 07:12:25:727,-0.819687,2.50388,-9.40902,-14.799,-5.04906,95.2357
2023-02-15 07:12:25:737,-0.835204,2.49637,-9.4145,-14.757,-5.0439,95.2028
2023-02-15 07:12:25:747,-0.839791,2.47902,-9.4185,-14.7196,-5.03871,95.1685
2023-02-15 07:12:25:757,-0.857243,2.47482,-9.4114,-14.6774,-5.03205,95.1375
2023-02-15 07:12:25:767,-0.863958,2.47164,-9.39793,-14.6373,-5.02316,95.107
2023-02-15 07:12:25:777,-0.868194,2.477,-9.37851,-14.6021,-5.01472,95.074
2023-02-15 07:12:25:787,-0.881891,2.46866,-9.38855,-14.5623,-5.00063,95.041
2023-02-15 07:12:25:797,-0.885133,2.44958,-9.39824,-14.5226,-4.98387,95.0026
2023-02-15 07:12:25:807,-0.891752,2.45504,-9.40681,-14.4875,-4.97098,94.9648
2023-02-15 07:12:25:817,-0.909309,2.46606,-9.40099,-14.4525,-4.95956,94.9252
2023-02-15 07:12:25:827,-0.939676,2.46117,-9.39992,-14.4144,-4.94377,94.8799
2023-02-15 07:12:25:837,-0.927595,2.45771,-9.41212,-14.3768,-4.93138,94.8293
2023-02-15 07:12:25:847,-0.903842,2.44935,-9.42678,-14.3369,-4.91743,94.777
2023-02-15 07:12:25:857,-0.892172,2.44081,-9.42222,-14.2957,-4.90364,94.7201
2023-02-15 07:12:25:867,-0.875617,2.42791,-9.4018,-14.2586,-4.88668,94.6593
2023-02-15 07:12:25:877,-0.867531,2.42448,-9.4099,-14.2184,-4.87079,94.596
2023-02-15 07:12:25:887,-0.884427,2.43696,-9.4438,-14.1794,-4.85684,94.5328
2023-02-15 07:12:25:897,-0.888574,2.43933,-9.45854,-14.139,-4.83674,94.4606
2023-02-15 07:12:25:907,-0.866218,2.42585,-9.47136,-14.0953,-4.82222,94.3854
2023-02-15 07:12:25:917,-0.824386,2.40629,-9.50562,-14.0497,-4.80491,94.3082
2023-02-15 07:12:25:927,-0.808867,2.40482,-9.51892,-14.0055,-4.79261,94.227
2023-02-15 07:12:25:937,-0.813384,2.37466,-9.46906,-13.9641,-4.78376,94.1432
2023-02-15 07:12:25:947,-0.811373,2.35314,-9.41111,-13.9275,-4.77611,94.0557
2023-02-15 07:12:25:957,-0.801599,2.35313,-9.37249,-13.8941,-4.76991,93.9695
2023-02-15 07:12:25:967,-0.758917,2.35184,-9.35492,-13.8632,-4.76137,93.8782
2023-02-15 07:12:25:977,-0.736101,2.3624,-9.33865,-13.8347,-4.75436,93.7901
2023-02-15 07:12:25:987,-0.742606,2.3766,-9.35756,-13.8122,-4.74357,93.7043
2023-02-15 07:12:25:997,-0.738254,2.39732,-9.39432,-13.788,-4.73173,93.6157
2023-02-15 07:12:26:6,-0.71202,2.39782,-9.44605,-13.7613,-4.71644,93.5296
2023-02-15 07:12:26:17,-0.689216,2.39244,-9.48862,-13.7316,-4.70032,93.4454
2023-02-15 07:12:26:27,-0.656681,2.37805,-9.49587,-13.6981,-4.68232,93.3645
2023-02-15 07:12:26:37,-0.632017,2.35892,-9.50455,-13.666,-4.66646,93.2857
2023-02-15 07:12:26:47,-0.614106,2.34857,-9.51686,-13.6317,-4.64949,93.2146
2023-02-15 07:12:26:57,-0.580376,2.32626,-9.52083,-13.5938,-4.63243,93.1445
2023-02-15 07:12:26:67,-0.548503,2.29816,-9.5078,-13.5576,-4.61432,93.0853
2023-02-15 07:12:26:77,-0.570102,2.29205,-9.50867,-13.5182,-4.59237,93.0306
2023-02-15 07:12:26:87,-0.610824,2.28207,-9.52046,-13.4819,-4.5698,92.9888
2023-02-15 07:12:26:97,-0.642588,2.27697,-9.5468,-13.442,-4.5499,92.9509
2023-02-15 07:12:26:107,-0.657288,2.27941,-9.54171,-13.4015,-4.52644,92.9127
2023-02-15 07:12:26:117,-0.663666,2.26003,-9.52815,-13.3562,-4.50574,92.8778
2023-02-15 07:12:26:127,-0.650125,2.22725,-9.49745,-13.3147,-4.48653,92.84
2023-02-15 07:12:26:137,-0.626542,2.18074,-9.45843,-13.2717,-4.47176,92.8081
2023-02-15 07:12:26:147,-0.65809,2.16683,-9.46152,-13.2286,-4.45801,92.7728
2023-02-15 07:12:26:157,-0.660018,2.16497,-9.48437,-13.1902,-4.44526,92.7402
2023-02-15 07:12:26:167,-0.624028,2.14357,-9.46468,-13.1499,-4.42988,92.7055
2023-02-15 07:12:26:177,-0.575647,2.11838,-9.44728,-13.1106,-4.41862,92.6671
2023-02-15 07:12:26:187,-0.556532,2.10383,-9.46338,-13.0732,-4.41715,92.6329
2023-02-15 07:12:26:197,-0.583202,2.09176,-9.45785,-13.038,-4.41715,92.6051
2023-02-15 07:12:26:207,-0.617438,2.07877,-9.45524,-13.0087,-4.4218,92.5794
2023-02-15 07:12:26:217,-0.635603,2.07185,-9.45888,-12.9837,-4.42746,92.5556
2023-02-15 07:12:26:227,-0.638805,2.0771,-9.45279,-12.9628,-4.43595,92.532
2023-02-15 07:12:26:237,-0.645442,2.06845,-9.43207,-12.952,-4.44498,92.5081
2023-02-15 07:12:26:247,-0.658912,2.07759,-9.44122,-12.9437,-4.45627,92.488
2023-02-15 07:12:26:257,-0.666504,2.10763,-9.46394,-12.9388,-4.46895,92.4699
2023-02-15 07:12:26:267,-0.695806,2.14356,-9.48077,-12.9413,-4.48343,92.4545
2023-02-15 07:12:26:277,-0.764566,2.16218,-9.47431,-12.9402,-4.49771,92.4387
2023-02-15 07:12:26:287,-0.836974,2.17922,-9.47445,-12.9415,-4.51425,92.4234
2023-02-15 07:12:26:297,-0.889131,2.19126,-9.4807,-12.9437,-4.53489,92.402
2023-02-15 07:12:26:307,-0.908908,2.19434,-9.46566,-12.9414,-4.55,92.3704
2023-02-15 07:12:26:317,-0.894667,2.1912,-9.4567,-12.9424,-4.56332,92.3344
2023-02-15 07:12:26:327,-0.911906,2.20633,-9.46967,-12.943,-4.5809,92.2948
2023-02-15 07:12:26:337,-0.926099,2.21926,-9.47519,-12.9431,-4.59554,92.2485
2023-02-15 07:12:26:347,-0.889508,2.21371,-9.47951,-12.9413,-4.61024,92.1976
2023-02-15 07:12:26:357,-0.851708,2.21614,-9.48974,-12.9411,-4.62742,92.1387
2023-02-15 07:12:26:367,-0.844217,2.21914,-9.48488,-12.9415,-4.63987,92.076
2023-02-15 07:12:26:377,-0.823609,2.21281,-9.47678,-12.9393,-4.65146,92.0117
2023-02-15 07:12:26:387,-0.780479,2.20736,-9.47883,-12.9386,-4.66247,91.9464
2023-02-15 07:12:26:397,-0.753891,2.21694,-9.48614,-12.9389,-4.6737,91.88
2023-02-15 07:12:26:407,-0.756157,2.23071,-9.49811,-12.9416,-4.67925,91.8169
2023-02-15 07:12:26:417,-0.763588,2.2455,-9.53366,-12.942,-4.68062,91.7557
2023-02-15 07:12:26:427,-0.774022,2.25809,-9.55374,-12.9393,-4.68001,91.7003
2023-02-15 07:12:26:437,-0.813888,2.27222,-9.54909,-12.9304,-4.68175,91.642
2023-02-15 07:12:26:447,-0.80743,2.25967,-9.52353,-12.9201,-4.68081,91.5862
2023-02-15 07:12:26:457,-0.758686,2.23518,-9.52164,-12.9063,-4.68209,91.5269
2023-02-15 07:12:26:467,-0.708099,2.21955,-9.51284,-12.8919,-4.68335,91.47
2023-02-15 07:12:26:477,-0.694057,2.1909,-9.49766,-12.8708,-4.68798,91.4104
2023-02-15 07:12:26:487,-0.721547,2.17485,-9.47612,-12.8569,-4.69132,91.3564
2023-02-15 07:12:26:497,-0.733334,2.17537,-9.48151,-12.8423,-4.69685,91.3009
2023-02-15 07:12:26:507,-0.70311,2.1556,-9.48969,-12.8293,-4.70031,91.2502
2023-02-15 07:12:26:517,-0.678565,2.15057,-9.48221,-12.8135,-4.70261,91.2012
2023-02-15 07:12:26:527,-0.691104,2.168,-9.49875,-12.8019,-4.7049,91.1534
2023-02-15 07:12:26:537,-0.789095,2.20438,-9.52648,-12.7923,-4.7114,91.108
2023-02-15 07:12:26:547,-0.905147,2.23539,-9.53223,-12.7794,-4.71883,91.059
2023-02-15 07:12:26:557,-1.00033,2.25208,-9.53507,-12.7622,-4.73098,91.0014
2023-02-15 07:12:26:567,-1.0564,2.24061,-9.52331,-12.739,-4.73912,90.9316
2023-02-15 07:12:26:577,-1.03792,2.20898,-9.48666,-12.7095,-4.74942,90.8474
2023-02-15 07:12:26:587,-0.924129,2.17699,-9.47259,-12.6873,-4.76005,90.7533
2023-02-15 07:12:26:597,-0.803438,2.15989,-9.49332,-12.6633,-4.77269,90.6489
2023-02-15 07:12:26:606,-0.751189,2.1569,-9.50042,-12.6427,-4.78759,90.5457
2023-02-15 07:12:26:616,-0.785878,2.16097,-9.51031,-12.6216,-4.80593,90.4437
2023-02-15 07:12:26:627,-0.90895,2.17833,-9.51966,-12.6009,-4.82145,90.3411
2023-02-15 07:12:26:637,-0.987836,2.18903,-9.53074,-12.5707,-4.8293,90.2344
2023-02-15 07:12:26:647,-0.940848,2.16462,-9.52794,-12.5418,-4.83582,90.1186
2023-02-15 07:12:26:657,-0.919918,2.14369,-9.48837,-12.513,-4.8425,89.9993
2023-02-15 07:12:26:667,-0.92059,2.12084,-9.45668,-12.4806,-4.85258,89.8704
2023-02-15 07:12:26:677,-0.918089,2.09399,-9.44569,-12.4539,-4.85941,89.7372
2023-02-15 07:12:26:687,-0.974812,2.11539,-9.48433,-12.4279,-4.86913,89.5966
2023-02-15 07:12:26:697,-1.3549,2.2571,-9.5921,-12.3965,-4.88117,89.4499
2023-02-15 07:12:26:707,-1.98429,2.45325,-9.69292,-12.3545,-4.89605,89.2711
2023-02-15 07:12:26:717,-2.40772,2.49183,-9.62539,-12.2923,-4.90225,89.0388
2023-02-15 07:12:26:727,-2.48847,2.42386,-9.4735,-12.2137,-4.9042,88.7327
2023-02-15 07:12:26:737,-2.38218,2.366,-9.38456,-12.129,-4.89379,88.3465
2023-02-15 07:12:26:747,-2.3207,2.35949,-9.40943,-12.0424,-4.88558,87.8892
2023-02-15 07:12:26:757,-2.50769,2.42701,-9.46,-11.9503,-4.87856,87.3612
2023-02-15 07:12:26:767,-2.89418,2.54531,-9.46152,-11.8491,-4.87238,86.7496
2023-02-15 07:12:26:777,-3.35626,2.67932,-9.44958,-11.7349,-4.86645,86.0346
2023-02-15 07:12:26:787,-3.55235,2.72433,-9.43454,-11.6069,-4.85397,85.1888
2023-02-15 07:12:26:797,-3.18806,2.69283,-9.43469,-11.4649,-4.83082,84.2165
2023-02-15 07:12:26:807,-2.50014,2.62157,-9.48216,-11.3129,-4.79988,83.135
2023-02-15 07:12:26:817,-2.07975,2.63212,-9.55218,-11.15,-4.76859,81.9765
2023-02-15 07:12:26:827,-2.08273,2.65459,-9.60996,-10.9744,-4.73799,80.7611
2023-02-15 07:12:26:837,-2.00055,2.66349,-9.62604,-10.784,-4.69017,79.4865
2023-02-15 07:12:26:847,-1.58495,2.58182,-9.61527,-10.583,-4.63068,78.1587
2023-02-15 07:12:26:857,-1.08142,2.44054,-9.56471,-10.3706,-4.55751,76.7952
2023-02-15 07:12:26:867,-0.606983,2.26338,-9.47528,-10.1589,-4.46796,75.4293
2023-02-15 07:12:26:877,-0.243927,2.11861,-9.41106,-9.95168,-4.36955,74.075
2023-02-15 07:12:26:887,-0.0145729,2.023,-9.42028,-9.75991,-4.26675,72.7501
2023-02-15 07:12:26:897,0.204433,1.94766,-9.44036,-9.57342,-4.1606,71.4551
2023-02-15 07:12:26:907,0.398781,1.87686,-9.46329,-9.3931,-4.05366,70.2016
2023-02-15 07:12:26:917,0.578434,1.76945,-9.49181,-9.21796,-3.94232,69
2023-02-15 07:12:26:927,0.799426,1.65473,-9.4834,-9.05207,-3.82918,67.8584
2023-02-15 07:12:26:937,1.01073,1.54272,-9.4667,-8.896,-3.71574,66.786
2023-02-15 07:12:26:947,1.1439,1.44022,-9.45824,-8.75326,-3.60571,65.7878
2023-02-15 07:12:26:957,1.21582,1.35635,-9.50499,-8.62591,-3.50096,64.8696
2023-02-15 07:12:26:967,1.23178,1.31611,-9.55649,-8.51176,-3.40138,64.0321
2023-02-15 07:12:26:977,1.18247,1.34372,-9.64368,-8.40525,-3.30826,63.2735
2023-02-15 07:12:26:987,1.09865,1.34422,-9.66699,-8.30685,-3.21915,62.5935
2023-02-15 07:12:26:997,0.981652,1.32887,-9.66553,-8.20809,-3.13155,61.9861
2023-02-15 07:12:27:7,0.852107,1.32505,-9.65467,-8.11332,-3.04887,61.4435
2023-02-15 07:12:27:17,0.749473,1.28381,-9.59187,-8.02765,-2.97123,60.9568
2023-02-15 07:12:27:27,0.720562,1.24261,-9.56637,-7.94856,-2.89659,60.5313
2023-02-15 07:12:27:36,0.71666,1.19579,-9.57851,-7.87859,-2.82831,60.1577
2023-02-15 07:12:27:47,0.661476,1.19362,-9.63684,-7.82215,-2.76869,59.8366
2023-02-15 07:12:27:57,0.570516,1.2344,-9.65655,-7.76581,-2.7221,59.5578
2023-02-15 07:12:27:67,0.414328,1.22564,-9.61934,-7.71744,-2.6849,59.3209
2023-02-15 07:12:27:77,0.227647,1.23869,-9.63157,-7.67288,-2.65485,59.1166
2023-02-15 07:12:27:87,0.115139,1.26946,-9.63672,-7.62815,-2.62149,58.9383
2023-02-15 07:12:27:97,0.00297648,1.2793,-9.61272,-7.58839,-2.5907,58.7831
2023-02-15 07:12:27:107,-0.158862,1.30268,-9.62802,-7.54831,-2.56364,58.6398
2023-02-15 07:12:27:117,-0.290548,1.34258,-9.70671,-7.5109,-2.53907,58.5018
2023-02-15 07:12:27:127,-0.397179,1.36681,-9.7394,-7.4677,-2.51985,58.3648
2023-02-15 07:12:27:137,-0.49683,1.3562,-9.74812,-7.41681,-2.51117,58.22
2023-02-15 07:12:27:147,-0.586588,1.35647,-9.74817,-7.36804,-2.507,58.0673
2023-02-15 07:12:27:157,-0.584422,1.32123,-9.7347,-7.31505,-2.50824,57.9044
2023-02-15 07:12:27:167,-0.566582,1.27849,-9.69547,-7.26307,-2.5098,57.7276
2023-02-15 07:12:27:177,-0.61227,1.26532,-9.67512,-7.21162,-2.51325,57.5433
2023-02-15 07:12:27:187,-0.68992,1.27492,-9.69336,-7.1608,-2.51907,57.3451
2023-02-15 07:12:27:197,-0.770573,1.27942,-9.69871,-7.10855,-2.52668,57.1342
2023-02-15 07:12:27:207,-0.834879,1.26976,-9.67978,-7.05373,-2.53284,56.901
2023-02-15 07:12:27:217,-0.834532,1.22664,-9.63696,-6.9979,-2.53703,56.6463
2023-02-15 07:12:27:227,-0.743155,1.17613,-9.59002,-6.9446,-2.53835,56.3726
2023-02-15 07:12:27:237,-0.612365,1.11596,-9.55156,-6.89747,-2.53618,56.0852
2023-02-15 07:12:27:247,-0.508185,1.06989,-9.55437,-6.85597,-2.53357,55.7875
2023-02-15 07:12:27:257,-0.453946,1.08726,-9.61199,-6.82096,-2.53693,55.4799
2023-02-15 07:12:27:267,-0.401438,1.09984,-9.6475,-6.79149,-2.53692,55.169
2023-02-15 07:12:27:277,-0.342931,1.10014,-9.62222,-6.76522,-2.53524,54.8588
2023-02-15 07:12:27:287,-0.329879,1.0909,-9.59439,-6.74176,-2.53329,54.5518
2023-02-15 07:12:27:297,-0.306224,1.0898,-9.58279,-6.72418,-2.52679,54.2477
2023-02-15 07:12:27:307,-0.255808,1.08021,-9.59211,-6.71291,-2.51651,53.9509
2023-02-15 07:12:27:317,-0.170965,1.08522,-9.60097,-6.70221,-2.50682,53.6602
2023-02-15 07:12:27:327,-0.144418,1.0884,-9.60784,-6.69577,-2.49514,53.3803
2023-02-15 07:12:27:337,-0.139218,1.10102,-9.64504,-6.69621,-2.48452,53.1104
2023-02-15 07:12:27:347,-0.125473,1.11965,-9.65186,-6.69824,-2.47158,52.8533
2023-02-15 07:12:27:357,-0.119203,1.10925,-9.62834,-6.70671,-2.46177,52.6096
2023-02-15 07:12:27:367,-0.131502,1.12998,-9.63237,-6.71527,-2.44551,52.3753
2023-02-15 07:12:27:377,-0.148165,1.18649,-9.6742,-6.72573,-2.4314,52.1511
2023-02-15 07:12:27:387,-0.155328,1.22196,-9.69921,-6.73938,-2.4157,51.9361
2023-02-15 07:12:27:397,-0.218124,1.24117,-9.67983,-6.75189,-2.40138,51.7302
2023-02-15 07:12:27:407,-0.297125,1.26257,-9.66531,-6.75898,-2.38869,51.53
2023-02-15 07:12:27:417,-0.318541,1.27196,-9.70384,-6.76702,-2.37663,51.3318
2023-02-15 07:12:27:427,-0.270629,1.27485,-9.7369,-6.77382,-2.36458,51.1362
2023-02-15 07:12:27:437,-0.203023,1.26299,-9.73041,-6.77875,-2.35531,50.9503
2023-02-15 07:12:27:447,-0.160687,1.24797,-9.71641,-6.78615,-2.34771,50.7715
2023-02-15 07:12:27:457,-0.150674,1.24672,-9.71196,-6.79111,-2.34311,50.6
2023-02-15 07:12:27:467,-0.210462,1.24457,-9.69631,-6.79352,-2.34187,50.4378
2023-02-15 07:12:27:477,-0.30872,1.27376,-9.67929,-6.8015,-2.33757,50.2809
2023-02-15 07:12:27:487,-0.380675,1.28908,-9.68462,-6.80391,-2.32748,50.1313
2023-02-15 07:12:27:497,-0.375246,1.2971,-9.71507,-6.80383,-2.31352,49.9868
2023-02-15 07:12:27:507,-0.338492,1.26817,-9.69648,-6.80204,-2.29516,49.8443
2023-02-15 07:12:27:517,-0.280198,1.22905,-9.67717,-6.80269,-2.27604,49.705
2023-02-15 07:12:27:527,-0.200045,1.21631,-9.68151,-6.80016,-2.26073,49.5694
2023-02-15 07:12:27:537,-0.106128,1.20903,-9.6909,-6.80206,-2.24405,49.4397
2023-02-15 07:12:27:547,-0.0663995,1.19791,-9.67963,-6.80547,-2.22713,49.3252
2023-02-15 07:12:27:557,-0.0876907,1.19389,-9.67915,-6.81014,-2.21013,49.2229
2023-02-15 07:12:27:567,-0.113439,1.20628,-9.70313,-6.81783,-2.19644,49.1293
2023-02-15 07:12:27:577,-0.129758,1.21619,-9.73768,-6.81956,-2.18614,49.044
2023-02-15 07:12:27:587,-0.111776,1.21004,-9.73662,-6.81757,-2.16968,48.9702
2023-02-15 07:12:27:597,-0.0918129,1.18555,-9.71114,-6.81398,-2.1553,48.9014
2023-02-15 07:12:27:607,-0.0507493,1.16013,-9.69318,-6.81148,-2.14039,48.8449
2023-02-15 07:12:27:617,-0.0658508,1.13057,-9.65822,-6.80972,-2.12605,48.7988
2023-02-15 07:12:27:627,-0.135975,1.12385,-9.65243,-6.81112,-2.11224,48.7577
2023-02-15 07:12:27:637,-0.13486,1.15593,-9.68141,-6.81541,-2.10083,48.7212
2023-02-15 07:12:27:647,-0.104434,1.17032,-9.72034,-6.81768,-2.08991,48.6932
2023-02-15 07:12:27:657,-0.100804,1.1538,-9.70082,-6.82246,-2.08213,48.6705
2023-02-15 07:12:27:667,-0.0940685,1.16267,-9.69501,-6.82943,-2.07678,48.6564
2023-02-15 07:12:27:677,-0.0655607,1.17479,-9.7353,-6.8379,-2.06821,48.6503
2023-02-15 07:12:27:687,-0.0531032,1.19657,-9.75055,-6.84349,-2.06943,48.6508
2023-02-15 07:12:27:697,-0.0705812,1.2117,-9.75232,-6.84,-2.07162,48.6579
2023-02-15 07:12:27:707,-0.0487675,1.20817,-9.76381,-6.83486,-2.07558,48.6718
2023-02-15 07:12:27:717,-0.0302005,1.22107,-9.76577,-6.82918,-2.07831,48.6941
2023-02-15 07:12:27:727,-0.0645661,1.20529,-9.77167,-6.81727,-2.08476,48.7269
2023-02-15 07:12:27:737,-0.103336,1.19941,-9.73219,-6.80444,-2.09328,48.7702
2023-02-15 07:12:27:747,-0.150966,1.19002,-9.70998,-6.7879,-2.10713,48.8181
2023-02-15 07:12:27:757,-0.238752,1.20236,-9.7161,-6.7709,-2.12324,48.8674
2023-02-15 07:12:27:767,-0.339962,1.2202,-9.70507,-6.75321,-2.14037,48.9173
2023-02-15 07:12:27:777,-0.477652,1.21087,-9.70115,-6.73632,-2.16305,48.9684
2023-02-15 07:12:27:787,-0.576957,1.22407,-9.71958,-6.71331,-2.18885,49.0066
2023-02-15 07:12:27:797,-0.599336,1.23258,-9.74755,-6.69018,-2.21126,49.0347
2023-02-15 07:12:27:807,-0.554546,1.23241,-9.77188,-6.66622,-2.23108,49.0501
2023-02-15 07:12:27:817,-0.465262,1.18906,-9.7743,-6.63746,-2.25408,49.0514
2023-02-15 07:12:27:827,-0.349087,1.13729,-9.75788,-6.61043,-2.27781,49.0497
2023-02-15 07:12:27:837,-0.275194,1.09987,-9.74864,-6.58157,-2.30731,49.0438
2023-02-15 07:12:27:847,-0.290336,1.08139,-9.71236,-6.55428,-2.33791,49.0479
2023-02-15 07:12:27:857,-0.382665,1.06686,-9.63722,-6.52852,-2.37341,49.0573
2023-02-15 07:12:27:867,-0.449839,1.07206,-9.61367,-6.50958,-2.40622,49.0686
2023-02-15 07:12:27:877,-0.453864,1.08118,-9.61619,-6.48711,-2.43326,49.0767
2023-02-15 07:12:27:887,-0.473212,1.06959,-9.6104,-6.47175,-2.45867,49.0838
2023-02-15 07:12:27:897,-0.524197,1.06732,-9.58974,-6.46182,-2.4812,49.0924
2023-02-15 07:12:27:907,-0.536728,1.07032,-9.58532,-6.45378,-2.49985,49.1022
2023-02-15 07:12:27:917,-0.492662,1.07605,-9.60309,-6.44476,-2.51714,49.107
2023-02-15 07:12:27:927,-0.445344,1.0698,-9.63756,-6.43992,-2.53086,49.113
2023-02-15 07:12:27:937,-0.422599,1.08106,-9.67519,-6.43843,-2.5372,49.1227
2023-02-15 07:12:27:947,-0.429595,1.10234,-9.71142,-6.43462,-2.54476,49.1356
2023-02-15 07:12:27:957,-0.487714,1.11421,-9.7185,-6.43127,-2.55251,49.1526
2023-02-15 07:12:27:967,-0.559501,1.10405,-9.67899,-6.42638,-2.55579,49.1659
2023-02-15 07:12:27:977,-0.581309,1.09509,-9.65543,-6.42498,-2.55955,49.1778
2023-02-15 07:12:27:987,-0.577157,1.10303,-9.67506,-6.4278,-2.56317,49.1851
2023-02-15 07:12:27:997,-0.540767,1.10703,-9.68837,-6.42887,-2.56716,49.1878
2023-02-15 07:12:28:7,-0.521431,1.13193,-9.69487,-6.43226,-2.57371,49.1864
2023-02-15 07:12:28:17,-0.522502,1.14142,-9.70171,-6.43415,-2.58506,49.1788
2023-02-15 07:12:28:27,-0.562674,1.15241,-9.69778,-6.43785,-2.59529,49.1702
2023-02-15 07:12:28:37,-0.595896,1.17797,-9.68734,-6.44029,-2.60321,49.1523
2023-02-15 07:12:28:47,-0.590098,1.16734,-9.68467,-6.44151,-2.60978,49.1329
2023-02-15 07:12:28:57,-0.587066,1.15699,-9.67458,-6.44376,-2.61449,49.1097
2023-02-15 07:12:28:67,-0.57093,1.15946,-9.69822,-6.44495,-2.61885,49.0795
2023-02-15 07:12:28:77,-0.509891,1.15271,-9.67285,-6.44592,-2.62219,49.0455
2023-02-15 07:12:28:87,-0.444802,1.12534,-9.67063,-6.44598,-2.62519,49.0117
2023-02-15 07:12:28:97,-0.423365,1.12957,-9.69352,-6.44698,-2.6313,48.9859
2023-02-15 07:12:28:107,-0.490264,1.14206,-9.7135,-6.44612,-2.63819,48.9554
2023-02-15 07:12:28:117,-0.582503,1.14695,-9.71898,-6.44343,-2.64337,48.9251
2023-02-15 07:12:28:127,-0.60552,1.15136,-9.71778,-6.43871,-2.64788,48.893
2023-02-15 07:12:28:137,-0.595294,1.16427,-9.73775,-6.43899,-2.65202,48.8537
2023-02-15 07:12:28:147,-0.584101,1.15977,-9.73956,-6.4346,-2.65375,48.8117
2023-02-15 07:12:28:157,-0.582585,1.15768,-9.71075,-6.43135,-2.65723,48.768
2023-02-15 07:12:28:167,-0.565167,1.14902,-9.70009,-6.42528,-2.66012,48.7148
2023-02-15 07:12:28:177,-0.506402,1.13869,-9.70252,-6.42522,-2.66051,48.6646
2023-02-15 07:12:28:187,-0.468136,1.12853,-9.6907,-6.42176,-2.65732,48.6124
2023-02-15 07:12:28:197,-0.446536,1.13367,-9.69176,-6.42063,-2.65613,48.5595
2023-02-15 07:12:28:207,-0.431901,1.12746,-9.6974,-6.4183,-2.65851,48.5093
2023-02-15 07:12:28:217,-0.416562,1.12656,-9.70145,-6.41674,-2.65803,48.4574
2023-02-15 07:12:28:227,-0.428053,1.10551,-9.69514,-6.41183,-2.65215,48.4133
2023-02-15 07:12:28:237,-0.429741,1.09325,-9.68378,-6.40449,-2.64138,48.3715
2023-02-15 07:12:28:247,-0.371098,1.07264,-9.67828,-6.39983,-2.62673,48.3339
2023-02-15 07:12:28:257,-0.322319,1.04809,-9.68329,-6.39357,-2.61394,48.3001
2023-02-15 07:12:28:267,-0.321377,1.03161,-9.69994,-6.39146,-2.60066,48.2755
2023-02-15 07:12:28:277,-0.369144,1.04297,-9.68903,-6.38976,-2.59124,48.2567
2023-02-15 07:12:28:287,-0.398986,1.04788,-9.68509,-6.38671,-2.58124,48.2416
2023-02-15 07:12:28:297,-0.419542,1.04621,-9.69282,-6.38822,-2.57121,48.2309
2023-02-15 07:12:28:307,-0.41818,1.06871,-9.69619,-6.39096,-2.55919,48.2226
2023-02-15 07:12:28:317,-0.381044,1.05008,-9.68244,-6.39597,-2.54384,48.2163
2023-02-15 07:12:28:327,-0.348348,1.05086,-9.67663,-6.40237,-2.53028,48.2105
2023-02-15 07:12:28:337,-0.362976,1.07698,-9.71864,-6.41001,-2.51656,48.2044
2023-02-15 07:12:28:347,-0.378712,1.08135,-9.7439,-6.41549,-2.50552,48.2024
2023-02-15 07:12:28:357,-0.370818,1.085,-9.73889,-6.41853,-2.49448,48.203
2023-02-15 07:12:28:367,-0.326665,1.07639,-9.72494,-6.42077,-2.48115,48.204
2023-02-15 07:12:28:377,-0.305706,1.06265,-9.73052,-6.42032,-2.46954,48.2059
2023-02-15 07:12:28:387,-0.279169,1.06218,-9.72001,-6.41922,-2.46245,48.2127
2023-02-15 07:12:28:397,-0.288156,1.05236,-9.69292,-6.41881,-2.45619,48.2173
2023-02-15 07:12:28:407,-0.331323,1.02931,-9.65461,-6.41861,-2.44795,48.2221
2023-02-15 07:12:28:417,-0.2932,1.00021,-9.63474,-6.42211,-2.44147,48.2302
2023-02-15 07:12:28:427,-0.239111,0.976481,-9.62813,-6.43208,-2.44003,48.2418
2023-02-15 07:12:28:437,-0.21733,0.973884,-9.64327,-6.44556,-2.43961,48.2599
2023-02-15 07:12:28:447,-0.196324,0.976667,-9.62719,-6.46367,-2.44281,48.2839
2023-02-15 07:12:28:457,-0.116326,0.944487,-9.61512,-6.49016,-2.44626,48.3171
2023-02-15 07:12:28:467,-0.0399724,0.951483,-9.63811,-6.52366,-2.45015,48.3625
2023-02-15 07:12:28:477,0.0800427,0.954766,-9.64441,-6.55902,-2.45646,48.4223
2023-02-15 07:12:28:487,0.232036,0.930776,-9.64522,-6.59977,-2.46302,48.5007
2023-02-15 07:12:28:497,0.344535,0.968067,-9.69261,-6.64574,-2.47191,48.608
2023-02-15 07:12:28:507,0.250642,1.07638,-9.74817,-6.69226,-2.49095,48.7424
2023-02-15 07:12:28:517,-0.0787647,1.15413,-9.73222,-6.73829,-2.51017,48.9029
2023-02-15 07:12:28:527,-0.313277,1.18745,-9.67994,-6.7809,-2.52139,49.0747
2023-02-15 07:12:28:537,-0.308385,1.17793,-9.65715,-6.82385,-2.52505,49.2493
2023-02-15 07:12:28:547,-0.178762,1.15562,-9.64686,-6.87164,-2.53034,49.4299
2023-02-15 07:12:28:557,-0.00335968,1.13044,-9.62657,-6.9252,-2.54395,49.6193
2023-02-15 07:12:28:567,0.397929,1.06371,-9.61314,-6.98364,-2.5539,49.8305
2023-02-15 07:12:28:577,0.8621,1.01657,-9.62829,-7.0534,-2.57323,50.0883
2023-02-15 07:12:28:587,1.17952,0.998206,-9.63743,-7.13795,-2.60016,50.4079
2023-02-15 07:12:28:597,1.45052,0.917722,-9.569,-7.2344,-2.62832,50.8134
2023-02-15 07:12:28:607,1.73796,0.806731,-9.42414,-7.34929,-2.64649,51.3219
2023-02-15 07:12:28:617,2.02856,0.753366,-9.30273,-7.49047,-2.65423,51.9492
2023-02-15 07:12:28:627,2.25431,0.785742,-9.25494,-7.65815,-2.65743,52.6983
2023-02-15 07:12:28:637,2.33775,0.850043,-9.2291,-7.85647,-2.66052,53.5798
2023-02-15 07:12:28:647,2.31206,0.953036,-9.17847,-8.08702,-2.66075,54.5921
2023-02-15 07:12:28:657,2.25493,1.09602,-9.17007,-8.34749,-2.65158,55.7337
2023-02-15 07:12:28:667,2.15907,1.35894,-9.24116,-8.63289,-2.62905,56.9954
2023-02-15 07:12:28:677,2.00859,1.6369,-9.3667,-8.93588,-2.60008,58.3765
2023-02-15 07:12:28:687,1.80882,1.90331,-9.46796,-9.24881,-2.55806,59.8613
2023-02-15 07:12:28:697,1.63005,2.09139,-9.45804,-9.56248,-2.50104,61.4424
2023-02-15 07:12:28:707,1.51742,2.22374,-9.35998,-9.88482,-2.43428,63.114
2023-02-15 07:12:28:717,1.34186,2.3761,-9.28311,-10.2099,-2.36097,64.8646
2023-02-15 07:12:28:727,1.04151,2.58194,-9.3323,-10.5389,-2.28139,66.6843
2023-02-15 07:12:28:737,0.678389,2.86179,-9.55279,-10.8719,-2.20173,68.55
2023-02-15 07:12:28:747,0.340621,3.1602,-9.82109,-11.191,-2.13128,70.4471
2023-02-15 07:12:28:757,0.00395736,3.34177,-9.90711,-11.4905,-2.08048,72.355
2023-02-15 07:12:28:767,-0.31413,3.40975,-9.84823,-11.7673,-2.05293,74.2585
2023-02-15 07:12:28:777,-0.497738,3.43472,-9.77112,-12.0212,-2.03878,76.1434
2023-02-15 07:12:28:787,-0.668389,3.43408,-9.6261,-12.2612,-2.03923,78.0089
2023-02-15 07:12:28:797,-0.990555,3.44564,-9.49213,-12.4816,-2.0486,79.8441
2023-02-15 07:12:28:807,-1.43839,3.49635,-9.47131,-12.69,-2.05617,81.6348
2023-02-15 07:12:28:817,-1.87668,3.54609,-9.55521,-12.878,-2.06099,83.3637
2023-02-15 07:12:28:827,-2.17757,3.58538,-9.58855,-13.0443,-2.06518,85.0096
2023-02-15 07:12:28:837,-2.3279,3.51925,-9.53714,-13.189,-2.06503,86.5636
2023-02-15 07:12:28:847,-2.37702,3.40072,-9.43694,-13.3154,-2.06829,88.0161
2023-02-15 07:12:28:856,-2.34257,3.29761,-9.35741,-13.4307,-2.07896,89.3694
2023-02-15 07:12:28:866,-2.34392,3.22877,-9.30284,-13.5398,-2.09833,90.6253
2023-02-15 07:12:28:876,-2.33511,3.13541,-9.25523,-13.6464,-2.12301,91.7849
2023-02-15 07:12:28:886,-2.25484,3.06367,-9.22803,-13.7564,-2.1499,92.8513
2023-02-15 07:12:28:896,-2.19655,2.99039,-9.2165,-13.8612,-2.18173,93.826
2023-02-15 07:12:28:906,-2.19041,2.9496,-9.20452,-13.974,-2.21688,94.7183
2023-02-15 07:12:28:916,-2.10909,2.90348,-9.24272,-14.0877,-2.24618,95.5187
2023-02-15 07:12:28:927,-1.95586,2.89304,-9.32656,-14.2015,-2.27957,96.2331
2023-02-15 07:12:28:937,-1.79678,2.91901,-9.4706,-14.3094,-2.31843,96.8673
2023-02-15 07:12:28:947,-1.62723,2.95366,-9.59185,-14.409,-2.36082,97.4312
2023-02-15 07:12:28:957,-1.47891,2.97105,-9.66352,-14.4932,-2.40748,97.9367
2023-02-15 07:12:28:967,-1.42469,2.96213,-9.64886,-14.5629,-2.46408,98.3905
2023-02-15 07:12:28:977,-1.42079,2.90274,-9.54245,-14.6205,-2.5244,98.7939
2023-02-15 07:12:28:987,-1.37708,2.81927,-9.43349,-14.6688,-2.59106,99.1458
2023-02-15 07:12:28:997,-1.2813,2.77979,-9.4033,-14.7129,-2.65724,99.454
2023-02-15 07:12:29:7,-1.10075,2.74282,-9.42463,-14.753,-2.71917,99.723
2023-02-15 07:12:29:17,-0.900558,2.72296,-9.47385,-14.7885,-2.78043,99.9637
2023-02-15 07:12:29:27,-0.77931,2.72424,-9.53282,-14.8135,-2.84064,100.183
2023-02-15 07:12:29:37,-0.756931,2.70886,-9.54288,-14.8293,-2.90204,100.392
2023-02-15 07:12:29:47,-0.753557,2.69355,-9.51217,-14.8391,-2.9554,100.585
2023-02-15 07:12:29:57,-0.824047,2.66309,-9.46599,-14.8391,-3.00604,100.772
2023-02-15 07:12:29:67,-0.928592,2.62743,-9.38584,-14.8403,-3.05097,100.947
2023-02-15 07:12:29:77,-0.975625,2.57777,-9.31514,-14.8438,-3.09335,101.102
2023-02-15 07:12:29:87,-0.912972,2.54569,-9.30987,-14.8554,-3.13491,101.241
2023-02-15 07:12:29:97,-0.818457,2.54927,-9.35956,-14.8675,-3.17831,101.36
2023-02-15 07:12:29:107,-0.77221,2.54517,-9.36343,-14.8826,-3.21707,101.464
2023-02-15 07:12:29:117,-0.78346,2.52519,-9.32459,-14.8992,-3.25846,101.556
2023-02-15 07:12:29:127,-0.805986,2.52188,-9.2952,-14.9194,-3.29929,101.64
2023-02-15 07:12:29:137,-0.829024,2.53928,-9.26282,-14.9465,-3.33243,101.712
2023-02-15 07:12:29:147,-0.86672,2.543,-9.25645,-14.9731,-3.36804,101.767
2023-02-15 07:12:29:157,-0.914676,2.54818,-9.28811,-15.0066,-3.40647,101.808
2023-02-15 07:12:29:167,-0.923324,2.58346,-9.32951,-15.0467,-3.44475,101.829
2023-02-15 07:12:29:177,-0.86196,2.60322,-9.37878,-15.0844,-3.483,101.832
2023-02-15 07:12:29:187,-0.772888,2.61933,-9.42613,-15.1229,-3.52307,101.822
2023-02-15 07:12:29:197,-0.718609,2.63023,-9.44014,-15.1639,-3.56771,101.798
2023-02-15 07:12:29:207,-0.715368,2.65413,-9.45986,-15.1998,-3.61079,101.773
2023-02-15 07:12:29:217,-0.703634,2.65211,-9.45258,-15.2318,-3.65258,101.74
2023-02-15 07:12:29:227,-0.692148,2.63533,-9.41334,-15.2638,-3.69,101.7
2023-02-15 07:12:29:237,-0.718508,2.66389,-9.41962,-15.2907,-3.72668,101.659
2023-02-15 07:12:29:247,-0.745281,2.65937,-9.42162,-15.316,-3.76113,101.612
2023-02-15 07:12:29:257,-0.764289,2.64249,-9.39577,-15.3406,-3.7964,101.561
2023-02-15 07:12:29:267,-0.754647,2.64377,-9.39596,-15.3667,-3.83621,101.508
2023-02-15 07:12:29:277,-0.704564,2.65877,-9.41959,-15.3918,-3.87056,101.45
2023-02-15 07:12:29:287,-0.670949,2.65884,-9.45347,-15.4145,-3.90601,101.388
2023-02-15 07:12:29:297,-0.653993,2.64997,-9.46236,-15.4305,-3.93774,101.326
2023-02-15 07:12:29:307,-0.632816,2.64372,-9.42027,-15.4458,-3.97157,101.269
2023-02-15 07:12:29:317,-0.624265,2.61208,-9.37621,-15.4581,-3.99812,101.215
2023-02-15 07:12:29:327,-0.655575,2.60649,-9.36157,-15.474,-4.02313,101.167
2023-02-15 07:12:29:337,-0.673569,2.60223,-9.35114,-15.4893,-4.04303,101.12
2023-02-15 07:12:29:347,-0.749133,2.59643,-9.32946,-15.5082,-4.05928,101.075
2023-02-15 07:12:29:357,-0.80174,2.61416,-9.31496,-15.5318,-4.07332,101.027
2023-02-15 07:12:29:367,-0.796384,2.62824,-9.33992,-15.5553,-4.08442,100.976
2023-02-15 07:12:29:377,-0.801536,2.66216,-9.38906,-15.5801,-4.09759,100.917
2023-02-15 07:12:29:387,-0.766457,2.68268,-9.41298,-15.6023,-4.11731,100.854
2023-02-15 07:12:29:397,-0.750052,2.69752,-9.43433,-15.6212,-4.13559,100.788
2023-02-15 07:12:29:407,-0.774848,2.68474,-9.43725,-15.6372,-4.15847,100.719
2023-02-15 07:12:29:417,-0.817853,2.68491,-9.40085,-15.651,-4.17746,100.641
2023-02-15 07:12:29:427,-0.828869,2.69589,-9.39122,-15.6631,-4.20289,100.56
2023-02-15 07:12:29:437,-0.873954,2.71856,-9.4329,-15.6749,-4.2312,100.473
2023-02-15 07:12:29:447,-1.02493,2.7672,-9.42694,-15.6819,-4.25856,100.375
2023-02-15 07:12:29:457,-1.26686,2.80946,-9.40093,-15.6872,-4.28566,100.263
2023-02-15 07:12:29:467,-1.45753,2.82265,-9.36501,-15.6842,-4.30818,100.127
2023-02-15 07:12:29:477,-1.52512,2.81863,-9.36176,-15.6762,-4.32984,99.9571
2023-02-15 07:12:29:487,-1.61151,2.84721,-9.38179,-15.6661,-4.35219,99.7519
2023-02-15 07:12:29:497,-1.73797,2.87158,-9.37613,-15.6506,-4.38091,99.4975
2023-02-15 07:12:29:507,-1.83411,2.87032,-9.34728,-15.6292,-4.42231,99.1983
2023-02-15 07:12:29:517,-2.02928,2.91075,-9.34196,-15.6082,-4.46945,98.8446
2023-02-15 07:12:29:527,-2.43541,3.03113,-9.33402,-15.5791,-4.52393,98.4296
2023-02-15 07:12:29:537,-2.92922,3.14155,-9.30289,-15.536,-4.58433,97.9294
2023-02-15 07:12:29:547,-3.30001,3.20053,-9.24421,-15.4853,-4.65176,97.3226
2023-02-15 07:12:29:557,-3.52587,3.29237,-9.23542,-15.4251,-4.72978,96.5965
2023-02-15 07:12:29:567,-3.68974,3.41165,-9.24787,-15.3552,-4.82214,95.7319
2023-02-15 07:12:29:577,-3.83318,3.55876,-9.27064,-15.2755,-4.93567,94.7229
2023-02-15 07:12:29:587,-4.00896,3.74892,-9.334,-15.1775,-5.06587,93.5673
2023-02-15 07:12:29:597,-4.24427,3.97098,-9.42665,-15.0549,-5.21818,92.2533
2023-02-15 07:12:29:607,-4.49014,4.20915,-9.47625,-14.8971,-5.38723,90.7693
2023-02-15 07:12:29:617,-4.52073,4.38811,-9.47124,-14.7004,-5.56972,89.1035
2023-02-15 07:12:29:627,-4.19666,4.46165,-9.40422,-14.4709,-5.75551,87.2573
2023-02-15 07:12:29:637,-3.58281,4.42296,-9.25964,-14.2122,-5.93514,85.2509
2023-02-15 07:12:29:647,-2.93915,4.34215,-9.12059,-13.9315,-6.10461,83.1217
2023-02-15 07:12:29:657,-2.45906,4.3073,-9.09345,-13.6347,-6.25736,80.8974
2023-02-15 07:12:29:667,-2.19572,4.35772,-9.1811,-13.3138,-6.38614,78.5993
2023-02-15 07:12:29:677,-1.96619,4.42377,-9.27885,-12.9686,-6.47315,76.2432
2023-02-15 07:12:29:687,-1.61408,4.37113,-9.31432,-12.5948,-6.51004,73.8503
2023-02-15 07:12:29:697,-1.13512,4.23897,-9.32701,-12.1983,-6.49477,71.4397
2023-02-15 07:12:29:707,-0.576583,4.06478,-9.32555,-11.7863,-6.4352,69.0335
2023-02-15 07:12:29:717,-0.0678768,3.76848,-9.28189,-11.3629,-6.33623,66.6601
2023-02-15 07:12:29:727,0.340822,3.51853,-9.31339,-10.9382,-6.2093,64.3372
2023-02-15 07:12:29:737,0.756743,3.30436,-9.38238,-10.5191,-6.06241,62.0768
2023-02-15 07:12:29:747,1.08195,3.05219,-9.40537,-10.1028,-5.90362,59.9034
2023-02-15 07:12:29:757,1.2699,2.80129,-9.4124,-9.69497,-5.73727,57.8317
2023-02-15 07:12:29:767,1.39958,2.55137,-9.41307,-9.29139,-5.54824,55.8712
2023-02-15 07:12:29:777,1.5938,2.27112,-9.38901,-8.89893,-5.33236,54.0328
2023-02-15 07:12:29:787,1.8499,1.94909,-9.29917,-8.52522,-5.08846,52.3306
2023-02-15 07:12:29:797,2.07773,1.62942,-9.22349,-8.17084,-4.81847,50.7766
2023-02-15 07:12:29:807,2.30367,1.35696,-9.18974,-7.84303,-4.52582,49.3736
2023-02-15 07:12:29:817,2.51659,1.08409,-9.19862,-7.54709,-4.22091,48.1301
2023-02-15 07:12:29:827,2.64476,0.89307,-9.2227,-7.2796,-3.9203,47.0409
2023-02-15 07:12:29:837,2.56554,0.732669,-9.19526,-7.04607,-3.63314,46.1095
2023-02-15 07:12:29:847,2.29683,0.686568,-9.21146,-6.84433,-3.35007,45.3179
2023-02-15 07:12:29:857,2.06556,0.695987,-9.28603,-6.67145,-3.07636,44.6523
2023-02-15 07:12:29:867,1.81886,0.715592,-9.34978,-6.52618,-2.81421,44.0927
2023-02-15 07:12:29:877,1.49889,0.772583,-9.40403,-6.40313,-2.57027,43.6187
2023-02-15 07:12:29:887,1.21457,0.826317,-9.47924,-6.29919,-2.34832,43.2177
2023-02-15 07:12:29:897,1.01749,0.849647,-9.54036,-6.21009,-2.1444,42.8741
2023-02-15 07:12:29:907,0.843489,0.859612,-9.53689,-6.13562,-1.96508,42.5713
2023-02-15 07:12:29:917,0.656819,0.879343,-9.53026,-6.0774,-1.80022,42.2991
2023-02-15 07:12:29:927,0.49544,0.924883,-9.56307,-6.03498,-1.65327,42.0533
2023-02-15 07:12:29:937,0.385812,1.00086,-9.65247,-6.00225,-1.52242,41.8225
2023-02-15 07:12:29:947,0.300479,1.06679,-9.70597,-5.97389,-1.41052,41.6027
2023-02-15 07:12:29:957,0.197854,1.07673,-9.74107,-5.9473,-1.31629,41.3893
2023-02-15 07:12:29:967,0.100038,1.10015,-9.74512,-5.92423,-1.23461,41.1793
2023-02-15 07:12:29:977,0.102891,1.08656,-9.71846,-5.9078,-1.16264,40.9657
2023-02-15 07:12:29:987,0.182932,1.05992,-9.70609,-5.89157,-1.09869,40.757
2023-02-15 07:12:29:997,0.260879,1.03389,-9.71789,-5.88072,-1.04515,40.5492
2023-02-15 07:12:30:7,0.262997,1.00562,-9.68312,-5.86748,-0.999547,40.3545
2023-02-15 07:12:30:17,0.186595,0.971721,-9.64538,-5.85502,-0.954531,40.17
2023-02-15 07:12:30:27,0.107267,0.957546,-9.63945,-5.85063,-0.913908,39.9895
2023-02-15 07:12:30:37,0.0400157,0.96242,-9.637,-5.84942,-0.877363,39.8113
2023-02-15 07:12:30:47,0.070242,0.967346,-9.6457,-5.8527,-0.840973,39.631
2023-02-15 07:12:30:57,0.120557,0.968457,-9.66034,-5.86592,-0.808297,39.4583
2023-02-15 07:12:30:67,0.103197,0.968144,-9.64766,-5.87996,-0.781917,39.2881
2023-02-15 07:12:30:77,0.0659625,0.988687,-9.66296,-5.89785,-0.763529,39.1186
2023-02-15 07:12:30:87,0.0708747,1.03677,-9.69767,-5.92118,-0.74614,38.9532
2023-02-15 07:12:30:97,0.131141,1.02715,-9.69151,-5.94162,-0.732418,38.7904
2023-02-15 07:12:30:107,0.177182,1.0085,-9.64767,-5.96517,-0.717907,38.6336
2023-02-15 07:12:30:117,0.142685,1.02585,-9.6318,-5.99837,-0.704249,38.4863
2023-02-15 07:12:30:127,0.0647982,1.05974,-9.62955,-6.03407,-0.689546,38.3472
2023-02-15 07:12:30:137,0.0272753,1.08281,-9.6705,-6.06915,-0.672865,38.2116
2023-02-15 07:12:30:147,-1.10528e-05,1.13431,-9.71738,-6.10312,-0.658288,38.0805
2023-02-15 07:12:30:157,-0.0449132,1.16716,-9.74735,-6.13756,-0.642084,37.9477
2023-02-15 07:12:30:167,-0.061672,1.17961,-9.79601,-6.17003,-0.627463,37.814
2023-02-15 07:12:30:177,-0.0114127,1.17792,-9.83094,-6.19635,-0.609976,37.677
2023-02-15 07:12:30:187,0.0822297,1.18218,-9.8243,-6.21529,-0.59665,37.5422
2023-02-15 07:12:30:197,0.123993,1.15771,-9.79817,-6.22821,-0.587252,37.4118
2023-02-15 07:12:30:207,0.131142,1.1261,-9.74987,-6.23956,-0.580831,37.2865
2023-02-15 07:12:30:217,0.12849,1.12803,-9.75902,-6.25306,-0.576785,37.1618
2023-02-15 07:12:30:227,0.142861,1.11663,-9.7613,-6.26228,-0.576387,37.0429
2023-02-15 07:12:30:237,0.16889,1.07783,-9.72145,-6.27038,-0.57929,36.9234
2023-02-15 07:12:30:247,0.147049,1.04117,-9.68176,-6.27723,-0.585161,36.8061
2023-02-15 07:12:30:257,0.103861,1.03386,-9.6657,-6.28622,-0.594911,36.6956
2023-02-15 07:12:30:267,0.0898238,1.01414,-9.64433,-6.2985,-0.606617,36.5846
2023-02-15 07:12:30:277,0.0581779,1.00369,-9.62569,-6.31559,-0.619518,36.4784
2023-02-15 07:12:30:287,0.0146622,1.0239,-9.63093,-6.33588,-0.637717,36.3717
2023-02-15 07:12:30:297,-0.0318416,1.06289,-9.67681,-6.35938,-0.658252,36.2602
2023-02-15 07:12:30:307,-0.110276,1.08882,-9.66866,-6.38367,-0.682822,36.1435
2023-02-15 07:12:30:317,-0.1845,1.0997,-9.6569,-6.41078,-0.707437,36.0229
2023-02-15 07:12:30:327,-0.223707,1.1332,-9.65642,-6.43781,-0.728805,35.8944
2023-02-15 07:12:30:337,-0.239945,1.15037,-9.69562,-6.4631,-0.744874,35.7602
2023-02-15 07:12:30:347,-0.180992,1.16797,-9.71426,-6.48944,-0.75716,35.6196
2023-02-15 07:12:30:357,-0.117177,1.15294,-9.72231,-6.51283,-0.761677,35.4773
2023-02-15 07:12:30:367,-0.0618921,1.15114,-9.74098,-6.53623,-0.770448,35.3307
2023-02-15 07:12:30:377,-0.0220157,1.15419,-9.7733,-6.55731,-0.778056,35.1853
2023-02-15 07:12:30:387,0.0248033,1.15969,-9.8002,-6.57968,-0.789738,35.0404
2023-02-15 07:12:30:397,0.026332,1.18406,-9.80172,-6.59666,-0.802843,34.9005
2023-02-15 07:12:30:407,-0.00734699,1.21013,-9.76578,-6.61223,-0.814198,34.7636
2023-02-15 07:12:30:417,-0.0418461,1.19376,-9.7242,-6.62411,-0.821363,34.6266
2023-02-15 07:12:30:427,-0.0578716,1.1852,-9.69071,-6.63626,-0.825985,34.4914
2023-02-15 07:12:30:437,-0.0492395,1.18201,-9.6679,-6.64685,-0.83397,34.3582
2023-02-15 07:12:30:447,-0.0496982,1.17615,-9.6686,-6.65798,-0.840331,34.224
2023-02-15 07:12:30:457,-0.0428514,1.16816,-9.68575,-6.66909,-0.843254,34.0891
2023-02-15 07:12:30:467,0.011227,1.13071,-9.69108,-6.67658,-0.849856,33.9593
2023-02-15 07:12:30:477,0.0836489,1.1127,-9.71236,-6.68495,-0.859379,33.8357
2023-02-15 07:12:30:487,0.139619,1.10069,-9.724,-6.69513,-0.871642,33.7169
2023-02-15 07:12:30:497,0.150022,1.10023,-9.75308,-6.70716,-0.889017,33.6043
2023-02-15 07:12:30:507,0.119086,1.10418,-9.77899,-6.71627,-0.904526,33.5015
2023-02-15 07:12:30:517,0.083878,1.11944,-9.75249,-6.72314,-0.926033,33.4051
2023-02-15 07:12:30:527,0.0496168,1.11452,-9.71242,-6.72995,-0.946534,33.315
2023-02-15 07:12:30:537,-0.0112631,1.10264,-9.71132,-6.73968,-0.966543,33.2288
2023-02-15 07:12:30:547,-0.0248478,1.09739,-9.72518,-6.74912,-0.990863,33.1434
2023-02-15 07:12:30:557,0.00125803,1.09762,-9.69697,-6.76009,-1.01807,33.06
2023-02-15 07:12:30:567,-0.0396062,1.06302,-9.65011,-6.77074,-1.04992,32.9794
2023-02-15 07:12:30:577,-0.0994337,1.04977,-9.63839,-6.78837,-1.08468,32.9003
2023-02-15 07:12:30:587,-0.133782,1.07628,-9.67152,-6.80708,-1.11918,32.8193
2023-02-15 07:12:30:597,-0.18083,1.10365,-9.68009,-6.82648,-1.15381,32.7383
2023-02-15 07:12:30:607,-0.237983,1.10689,-9.67328,-6.84928,-1.18786,32.6569
2023-02-15 07:12:30:617,-0.296771,1.11221,-9.63569,-6.87169,-1.22596,32.5719
2023-02-15 07:12:30:627,-0.326818,1.13126,-9.65795,-6.89569,-1.26104,32.483
2023-02-15 07:12:30:637,-0.303357,1.15905,-9.69324,-6.92319,-1.29416,32.3861
2023-02-15 07:12:30:647,-0.293681,1.16546,-9.69475,-6.95085,-1.32737,32.2842
2023-02-15 07:12:30:657,-0.299974,1.17318,-9.69156,-6.97824,-1.36416,32.1746
2023-02-15 07:12:30:667,-0.323707,1.20262,-9.67823,-7.00541,-1.40167,32.0584
2023-02-15 07:12:30:677,-0.357912,1.20251,-9.66814,-7.03036,-1.44509,31.9404
2023-02-15 07:12:30:687,-0.44676,1.2188,-9.67175,-7.05229,-1.48756,31.8168
2023-02-15 07:12:30:697,-0.559748,1.23409,-9.66895,-7.07134,-1.52208,31.6808
2023-02-15 07:12:30:707,-0.523018,1.22859,-9.69804,-7.09342,-1.54673,31.535
2023-02-15 07:12:30:717,-0.334695,1.24199,-9.76913,-7.11513,-1.5682,31.3821
2023-02-15 07:12:30:727,-0.198358,1.23825,-9.81452,-7.1318,-1.59378,31.2186
2023-02-15 07:12:30:737,-0.164615,1.22466,-9.84264,-7.15027,-1.63205,31.0559
2023-02-15 07:12:30:747,-0.181101,1.19846,-9.78805,-7.16215,-1.67806,30.8921
2023-02-15 07:12:30:757,-0.197897,1.16365,-9.71741,-7.17602,-1.73911,30.7284
2023-02-15 07:12:30:767,-0.197998,1.15123,-9.6749,-7.18998,-1.80392,30.5706
2023-02-15 07:12:30:777,-0.162342,1.14346,-9.64545,-7.20998,-1.87191,30.4163
2023-02-15 07:12:30:787,-0.15697,1.13248,-9.62402,-7.2315,-1.94398,30.2735
2023-02-15 07:12:30:797,-0.205949,1.13844,-9.5966,-7.25588,-2.01999,30.135
2023-02-15 07:12:30:807,-0.274606,1.15362,-9.56869,-7.28171,-2.09909,30.0028
2023-02-15 07:12:30:817,-0.335161,1.1636,-9.56,-7.31024,-2.18159,29.878
2023-02-15 07:12:30:827,-0.420579,1.18946,-9.54917,-7.34584,-2.26569,29.7536
2023-02-15 07:12:30:837,-0.474064,1.22025,-9.55599,-7.38893,-2.34905,29.6307
2023-02-15 07:12:30:847,-0.506995,1.23923,-9.56686,-7.43636,-2.42642,29.5117
2023-02-15 07:12:30:857,-0.530417,1.25993,-9.57361,-7.48849,-2.4993,29.3951
2023-02-15 07:12:30:867,-0.530767,1.2828,-9.61228,-7.54051,-2.56885,29.2753
2023-02-15 07:12:30:877,-0.488836,1.30009,-9.64916,-7.59571,-2.63801,29.1618
2023-02-15 07:12:30:887,-0.459015,1.31847,-9.67992,-7.65106,-2.70416,29.0518
2023-02-15 07:12:30:897,-0.423011,1.3133,-9.67654,-7.70888,-2.76317,28.9529
2023-02-15 07:12:30:907,-0.402073,1.32365,-9.68639,-7.76661,-2.82534,28.8635
2023-02-15 07:12:30:917,-0.406657,1.36946,-9.72373,-7.82606,-2.88042,28.7827
2023-02-15 07:12:30:927,-0.407732,1.4034,-9.72073,-7.88727,-2.92737,28.7159
2023-02-15 07:12:30:937,-0.404291,1.4577,-9.73215,-7.94771,-2.96715,28.6608
2023-02-15 07:12:30:947,-0.430363,1.48833,-9.74107,-8.00505,-3.0086,28.6103
2023-02-15 07:12:30:957,-0.5056,1.52078,-9.71805,-8.05937,-3.04666,28.5718
2023-02-15 07:12:30:967,-0.55719,1.53993,-9.69618,-8.10736,-3.08202,28.539
2023-02-15 07:12:30:977,-0.541611,1.52993,-9.66368,-8.15793,-3.11321,28.5104
2023-02-15 07:12:30:987,-0.475853,1.53218,-9.68767,-8.20541,-3.14658,28.4903
2023-02-15 07:12:30:997,-0.489512,1.55879,-9.71793,-8.24694,-3.18205,28.4778
2023-02-15 07:12:31:7,-0.583788,1.58568,-9.70865,-8.28978,-3.21832,28.4742
2023-02-15 07:12:31:17,-0.665619,1.5703,-9.68207,-8.3287,-3.24323,28.4771
2023-02-15 07:12:31:27,-0.664259,1.57795,-9.67652,-8.37061,-3.255,28.4828
2023-02-15 07:12:31:37,-0.604374,1.60117,-9.70461,-8.41118,-3.26241,28.4901
2023-02-15 07:12:31:47,-0.548938,1.62138,-9.70708,-8.44353,-3.2645,28.5031
2023-02-15 07:12:31:57,-0.552994,1.63104,-9.69158,-8.47729,-3.26254,28.5214
2023-02-15 07:12:31:67,-0.55409,1.65859,-9.66468,-8.50902,-3.25927,28.5424
2023-02-15 07:12:31:77,-0.573467,1.68504,-9.66388,-8.53949,-3.25114,28.5606
2023-02-15 07:12:31:87,-0.596159,1.68396,-9.67711,-8.56674,-3.24755,28.5808
2023-02-15 07:12:31:97,-0.578811,1.65637,-9.66003,-8.58764,-3.24285,28.5974
2023-02-15 07:12:31:107,-0.54304,1.63798,-9.64448,-8.60194,-3.23401,28.6112
2023-02-15 07:12:31:117,-0.515546,1.62434,-9.66881,-8.61312,-3.22725,28.6245
2023-02-15 07:12:31:127,-0.467945,1.60013,-9.68127,-8.61836,-3.22214,28.6334
2023-02-15 07:12:31:137,-0.391232,1.56239,-9.68229,-8.62305,-3.21744,28.6474
2023-02-15 07:12:31:147,-0.324398,1.51774,-9.67652,-8.62728,-3.21604,28.6646
2023-02-15 07:12:31:157,-0.339424,1.47516,-9.6552,-8.62716,-3.22136,28.6891
2023-02-15 07:12:31:167,-0.353375,1.45875,-9.62056,-8.63132,-3.22832,28.721
2023-02-15 07:12:31:177,-0.36776,1.45723,-9.59769,-8.63716,-3.23859,28.7521
2023-02-15 07:12:31:187,-0.420659,1.45667,-9.59502,-8.64554,-3.24925,28.7885
2023-02-15 07:12:31:197,-0.452788,1.47291,-9.608,-8.64979,-3.26397,28.8322
2023-02-15 07:12:31:207,-0.453144,1.48085,-9.62799,-8.6619,-3.2752,28.8775
2023-02-15 07:12:31:217,-0.463381,1.5101,-9.63924,-8.67731,-3.28755,28.9249
2023-02-15 07:12:31:227,-0.507913,1.51873,-9.65083,-8.69171,-3.30223,28.9735
2023-02-15 07:12:31:237,-0.551699,1.54675,-9.65359,-8.70476,-3.32212,29.0237
2023-02-15 07:12:31:247,-0.598942,1.55322,-9.67431,-8.71739,-3.33867,29.0733
2023-02-15 07:12:31:257,-0.658594,1.56042,-9.65271,-8.72517,-3.35251,29.119
2023-02-15 07:12:31:267,-0.682557,1.55067,-9.61662,-8.73504,-3.36775,29.1623
2023-02-15 07:12:31:277,-0.654904,1.52588,-9.58505,-8.74391,-3.38599,29.2038
2023-02-15 07:12:31:287,-0.642054,1.50174,-9.59742,-8.75506,-3.40137,29.2438
2023-02-15 07:12:31:297,-0.656202,1.52351,-9.58927,-8.77008,-3.41667,29.2777
2023-02-15 07:12:31:307,-0.684555,1.52395,-9.59433,-8.78741,-3.42739,29.3103
2023-02-15 07:12:31:317,-0.68553,1.54886,-9.60711,-8.80606,-3.43579,29.3425
2023-02-15 07:12:31:327,-0.651669,1.57515,-9.65086,-8.82704,-3.43644,29.3774
2023-02-15 07:12:31:337,-0.619591,1.602,-9.69564,-8.84305,-3.43219,29.4052
2023-02-15 07:12:31:347,-0.595602,1.61219,-9.71622,-8.85933,-3.43317,29.432
2023-02-15 07:12:31:357,-0.584732,1.60229,-9.68058,-8.87124,-3.43162,29.4598
2023-02-15 07:12:31:367,-0.583035,1.58892,-9.64693,-8.87955,-3.43433,29.4864
2023-02-15 07:12:31:377,-0.576981,1.58702,-9.63392,-8.88724,-3.43985,29.5089
2023-02-15 07:12:31:387,-0.573693,1.5645,-9.62247,-8.89214,-3.44673,29.5322
2023-02-15 07:12:31:397,-0.588418,1.56079,-9.61451,-8.90069,-3.45836,29.5543
2023-02-15 07:12:31:407,-0.602896,1.56981,-9.62877,-8.90799,-3.47056,29.5738
2023-02-15 07:12:31:417,-0.606898,1.57118,-9.66948,-8.91558,-3.4792,29.5904
2023-02-15 07:12:31:427,-0.584868,1.57932,-9.69678,-8.91946,-3.48721,29.6012
2023-02-15 07:12:31:437,-0.588251,1.57423,-9.70102,-8.91716,-3.49275,29.6142
2023-02-15 07:12:31:447,-0.56603,1.56006,-9.7097,-8.91488,-3.49299,29.6261
2023-02-15 07:12:31:457,-0.525494,1.53677,-9.69767,-8.90852,-3.49319,29.6428
2023-02-15 07:12:31:467,-0.51851,1.50765,-9.66845,-8.90176,-3.49953,29.6581
2023-02-15 07:12:31:477,-0.571331,1.50459,-9.65726,-8.89095,-3.50692,29.6729
2023-02-15 07:12:31:487,-0.648617,1.51134,-9.63985,-8.88259,-3.51813,29.6847
2023-02-15 07:12:31:497,-0.661351,1.49913,-9.62205,-8.87356,-3.52724,29.6934
2023-02-15 07:12:31:507,-0.637256,1.48484,-9.60535,-8.86459,-3.53781,29.7
2023-02-15 07:12:31:517,-0.639237,1.47875,-9.59531,-8.85413,-3.54764,29.7041
2023-02-15 07:12:31:527,-0.644356,1.46788,-9.60088,-8.84323,-3.55592,29.7048
2023-02-15 07:12:31:537,-0.62314,1.45568,-9.61387,-8.83248,-3.56273,29.7058
2023-02-15 07:12:31:547,-0.590079,1.44094,-9.61381,-8.82472,-3.5713,29.7074
2023-02-15 07:12:31:557,-0.566825,1.4145,-9.61287,-8.81499,-3.57384,29.7079
2023-02-15 07:12:31:567,-0.550306,1.41995,-9.60487,-8.81059,-3.58,29.7129
2023-02-15 07:12:31:577,-0.53186,1.41676,-9.59206,-8.80876,-3.58173,29.7186
2023-02-15 07:12:31:587,-0.538342,1.40823,-9.60672,-8.81196,-3.58685,29.7273
2023-02-15 07:12:31:597,-0.567303,1.4337,-9.61807,-8.81737,-3.59492,29.7378
2023-02-15 07:12:31:607,-0.604715,1.44609,-9.62091,-8.82233,-3.60098,29.7491
2023-02-15 07:12:31:617,-0.650904,1.46209,-9.65427,-8.82691,-3.60544,29.7604
2023-02-15 07:12:31:627,-0.631423,1.49994,-9.67495,-8.8329,-3.60684,29.7683
2023-02-15 07:12:31:637,-0.556176,1.5034,-9.69824,-8.83915,-3.6063,29.7755
2023-02-15 07:12:31:647,-0.501826,1.50838,-9.74086,-8.8439,-3.60239,29.7878
2023-02-15 07:12:31:657,-0.487386,1.51658,-9.74925,-8.84338,-3.60256,29.8018
2023-02-15 07:12:31:667,-0.515556,1.5139,-9.71015,-8.83784,-3.61057,29.8202
2023-02-15 07:12:31:677,-0.552476,1.50786,-9.6397,-8.82943,-3.61829,29.8368
2023-02-15 07:12:31:687,-0.597625,1.48717,-9.60617,-8.82334,-3.62199,29.8539
2023-02-15 07:12:31:697,-0.587274,1.48256,-9.60212,-8.82112,-3.62096,29.8711
2023-02-15 07:12:31:707,-0.56005,1.49294,-9.60944,-8.81681,-3.62298,29.8891
2023-02-15 07:12:31:717,-0.582387,1.51263,-9.60151,-8.81599,-3.62846,29.9091
2023-02-15 07:12:31:727,-0.622241,1.51645,-9.59251,-8.81849,-3.63569,29.9298
2023-02-15 07:12:31:737,-0.636197,1.5327,-9.59497,-8.81982,-3.64105,29.9496
2023-02-15 07:12:31:747,-0.625194,1.5392,-9.62498,-8.81845,-3.64681,29.9678
2023-02-15 07:12:31:757,-0.599635,1.54822,-9.64201,-8.81669,-3.65063,29.9822
2023-02-15 07:12:31:767,-0.579312,1.55305,-9.65166,-8.81783,-3.65894,29.9937
2023-02-15 07:12:31:777,-0.574217,1.54211,-9.66797,-8.81402,-3.669,30.0098
2023-02-15 07:12:31:787,-0.551686,1.53181,-9.64266,-8.81065,-3.67493,30.0277
2023-02-15 07:12:31:797,-0.555626,1.54036,-9.63545,-8.81068,-3.68208,30.0484
2023-02-15 07:12:31:807,-0.572734,1.54859,-9.65819,-8.80663,-3.68961,30.0656
2023-02-15 07:12:31:817,-0.589384,1.55778,-9.6614,-8.80346,-3.69728,30.0894
2023-02-15 07:12:31:827,-0.622332,1.56095,-9.64419,-8.79962,-3.70566,30.1136
2023-02-15 07:12:31:837,-0.618969,1.56657,-9.66283,-8.79739,-3.71295,30.1397
2023-02-15 07:12:31:847,-0.632443,1.57298,-9.66322,-8.79402,-3.72237,30.1675
2023-02-15 07:12:31:857,-0.624861,1.56156,-9.63759,-8.79088,-3.72915,30.1953
2023-02-15 07:12:31:867,-0.636239,1.54538,-9.63496,-8.78996,-3.73816,30.2221
2023-02-15 07:12:31:877,-0.664211,1.57089,-9.6322,-8.78883,-3.74464,30.2477
2023-02-15 07:12:31:887,-0.657245,1.58361,-9.62519,-8.78394,-3.74697,30.2702
2023-02-15 07:12:31:897,-0.608526,1.55851,-9.62849,-8.77709,-3.75237,30.2922
2023-02-15 07:12:31:907,-0.583804,1.55128,-9.66296,-8.77153,-3.75562,30.3156
2023-02-15 07:12:31:917,-0.611504,1.58898,-9.68989,-8.75969,-3.76165,30.3352
2023-02-15 07:12:31:927,-0.665043,1.59665,-9.68012,-8.74466,-3.76896,30.3597
2023-02-15 07:12:31:937,-0.695852,1.55034,-9.64336,-8.72833,-3.7715,30.3832
2023-02-15 07:12:31:947,-0.680055,1.52336,-9.62903,-8.71211,-3.772,30.4063
2023-02-15 07:12:31:957,-0.647145,1.51624,-9.65474,-8.69687,-3.77315,30.426
2023-02-15 07:12:31:967,-0.631328,1.51646,-9.64788,-8.67845,-3.77701,30.4465
2023-02-15 07:12:31:977,-0.647702,1.50294,-9.6327,-8.66113,-3.78326,30.4664
2023-02-15 07:12:31:987,-0.638473,1.51736,-9.63433,-8.65247,-3.78391,30.4911
2023-02-15 07:12:31:997,-0.607942,1.52646,-9.65199,-8.63924,-3.7836,30.5153
2023-02-15 07:12:32:7,-0.602522,1.52561,-9.64872,-8.62207,-3.78494,30.5414
2023-02-15 07:12:32:17,-0.622584,1.53662,-9.64402,-8.60741,-3.78797,30.5658
2023-02-15 07:12:32:27,-0.652731,1.52556,-9.64121,-8.59009,-3.78759,30.5928
2023-02-15 07:12:32:37,-0.653901,1.51303,-9.63537,-8.56917,-3.78917,30.6188
2023-02-15 07:12:32:47,-0.65294,1.50091,-9.63549,-8.54957,-3.78706,30.6454
2023-02-15 07:12:32:57,-0.623357,1.48035,-9.63269,-8.53062,-3.78809,30.6709
2023-02-15 07:12:32:67,-0.593489,1.46328,-9.64338,-8.50941,-3.78672,30.6962
2023-02-15 07:12:32:77,-0.578936,1.46174,-9.65627,-8.4885,-3.79153,30.7241
2023-02-15 07:12:32:87,-0.589763,1.45911,-9.65436,-8.46837,-3.79335,30.7554
2023-02-15 07:12:32:97,-0.588899,1.45222,-9.66318,-8.45003,-3.80151,30.7885
2023-02-15 07:12:32:107,-0.622783,1.43945,-9.65481,-8.42934,-3.81426,30.8209
2023-02-15 07:12:32:117,-0.671351,1.42081,-9.61534,-8.41051,-3.82402,30.8538
2023-02-15 07:12:32:127,-0.663714,1.40767,-9.60431,-8.39752,-3.82889,30.8883
2023-02-15 07:12:32:137,-0.606915,1.3969,-9.61183,-8.38493,-3.83591,30.9169
2023-02-15 07:12:32:147,-0.602753,1.39099,-9.60835,-8.3747,-3.84819,30.9472
2023-02-15 07:12:32:157,-0.625235,1.39725,-9.58672,-8.36504,-3.85861,30.9793
2023-02-15 07:12:32:167,-0.638997,1.39812,-9.58748,-8.35473,-3.86879,31.0113
2023-02-15 07:12:32:177,-0.660162,1.41187,-9.6215,-8.34687,-3.8788,31.0425
2023-02-15 07:12:32:187,-0.66617,1.40906,-9.64251,-8.33581,-3.88892,31.0717
2023-02-15 07:12:32:197,-0.662842,1.40304,-9.64366,-8.3206,-3.8969,31.1022
2023-02-15 07:12:32:207,-0.667643,1.39217,-9.64948,-8.30814,-3.90155,31.1322
2023-02-15 07:12:32:217,-0.639388,1.38415,-9.64113,-8.29905,-3.91283,31.1625
2023-02-15 07:12:32:227,-0.604869,1.38176,-9.64131,-8.29306,-3.92351,31.1926
2023-02-15 07:12:32:237,-0.631586,1.381,-9.63381,-8.28794,-3.93654,31.2217
2023-02-15 07:12:32:247,-0.668464,1.37595,-9.63258,-8.28012,-3.95239,31.2475
2023-02-15 07:12:32:257,-0.678576,1.35604,-9.62491,-8.27474,-3.96939,31.2717
2023-02-15 07:12:32:267,-0.659605,1.35444,-9.60466,-8.27221,-3.98198,31.2922
2023-02-15 07:12:32:277,-0.640732,1.35353,-9.62035,-8.27262,-3.99427,31.3137
2023-02-15 07:12:32:287,-0.626275,1.34125,-9.63358,-8.27435,-4.00494,31.3394
2023-02-15 07:12:32:297,-0.630677,1.34054,-9.60976,-8.27895,-4.01896,31.3684
2023-02-15 07:12:32:307,-0.644002,1.33241,-9.6023,-8.28476,-4.02853,31.3996
2023-02-15 07:12:32:317,-0.640376,1.34355,-9.61367,-8.29356,-4.0372,31.4307
2023-02-15 07:12:32:327,-0.685859,1.37115,-9.62843,-8.30129,-4.04894,31.4615
2023-02-15 07:12:32:337,-0.714449,1.41013,-9.66639,-8.30863,-4.06079,31.491
2023-02-15 07:12:32:347,-0.746335,1.42653,-9.68975,-8.30995,-4.07006,31.5179
2023-02-15 07:12:32:357,-0.770521,1.43018,-9.67271,-8.31368,-4.07828,31.5397
2023-02-15 07:12:32:367,-0.756261,1.41867,-9.66835,-8.31223,-4.08807,31.5615
2023-02-15 07:12:32:377,-0.712491,1.41339,-9.6704,-8.3118,-4.09983,31.5782
2023-02-15 07:12:32:387,-0.690666,1.40415,-9.66328,-8.31325,-4.1122,31.5898
2023-02-15 07:12:32:397,-0.692416,1.40037,-9.66478,-8.3165,-4.12334,31.5995
2023-02-15 07:12:32:407,-0.709127,1.42595,-9.66238,-8.3165,-4.13919,31.611
2023-02-15 07:12:32:417,-0.710227,1.42793,-9.65645,-8.31403,-4.15354,31.6192
2023-02-15 07:12:32:427,-0.739942,1.42683,-9.6404,-8.31194,-4.16904,31.628
2023-02-15 07:12:32:437,-0.752663,1.42197,-9.64657,-8.3068,-4.17838,31.6358
2023-02-15 07:12:32:447,-0.720657,1.41819,-9.65004,-8.30064,-4.1855,31.639
2023-02-15 07:12:32:457,-0.715224,1.41888,-9.64386,-8.29405,-4.1977,31.6464
2023-02-15 07:12:32:467,-0.72725,1.4123,-9.64419,-8.28885,-4.21012,31.6535
2023-02-15 07:12:32:477,-0.717912,1.41949,-9.6371,-8.28356,-4.22089,31.6573
2023-02-15 07:12:32:487,-0.710539,1.39899,-9.62465,-8.27931,-4.23293,31.6649
2023-02-15 07:12:32:497,-0.734333,1.40602,-9.60651,-8.27724,-4.24599,31.6718
2023-02-15 07:12:32:507,-0.762159,1.41576,-9.63069,-8.26983,-4.25475,31.6782
2023-02-15 07:12:32:517,-0.732717,1.39585,-9.62481,-8.26535,-4.25997,31.6867
2023-02-15 07:12:32:527,-0.70978,1.39403,-9.61401,-8.26365,-4.26854,31.6935
2023-02-15 07:12:32:537,-0.726021,1.39298,-9.62414,-8.26132,-4.27664,31.7037
2023-02-15 07:12:32:547,-0.739289,1.41217,-9.61906,-8.25983,-4.28659,31.7128
2023-02-15 07:12:32:557,-0.763516,1.39803,-9.61111,-8.25813,-4.2942,31.7175
2023-02-15 07:12:32:567,-0.754165,1.37466,-9.60638,-8.25941,-4.29828,31.7262
2023-02-15 07:12:32:577,-0.776434,1.38055,-9.6113,-8.26109,-4.30396,31.7309
2023-02-15 07:12:32:587,-0.805349,1.40363,-9.64155,-8.265,-4.31089,31.7326
2023-02-15 07:12:32:597,-0.772949,1.41362,-9.67853,-8.26637,-4.31299,31.7317
2023-02-15 07:12:32:607,-0.746634,1.41807,-9.7057,-8.26588,-4.32099,31.729
2023-02-15 07:12:32:617,-0.786319,1.41754,-9.72086,-8.2593,-4.33191,31.7205
2023-02-15 07:12:32:627,-0.853171,1.41735,-9.66822,-8.25391,-4.34752,31.7138
2023-02-15 07:12:32:637,-0.865928,1.39433,-9.60743,-8.2499,-4.36284,31.7016
2023-02-15 07:12:32:647,-0.860444,1.38727,-9.56736,-8.25089,-4.37333,31.6844
2023-02-15 07:12:32:657,-0.845186,1.38031,-9.57608,-8.25608,-4.38456,31.6651
2023-02-15 07:12:32:667,-0.833146,1.3964,-9.6107,-8.26288,-4.39335,31.6409
2023-02-15 07:12:32:677,-0.843782,1.40275,-9.61874,-8.26777,-4.40381,31.6158
2023-02-15 07:12:32:687,-0.868416,1.41184,-9.60278,-8.27314,-4.4139,31.5884
2023-02-15 07:12:32:697,-0.888074,1.41842,-9.59036,-8.2783,-4.41976,31.5639
2023-02-15 07:12:32:707,-0.886854,1.42352,-9.58423,-8.2826,-4.42026,31.5343
2023-02-15 07:12:32:717,-0.87046,1.42986,-9.61438,-8.29038,-4.41922,31.5024
2023-02-15 07:12:32:727,-0.852964,1.4196,-9.61621,-8.29157,-4.41653,31.4662
2023-02-15 07:12:32:737,-0.841217,1.42145,-9.62584,-8.29846,-4.41411,31.4289
2023-02-15 07:12:32:747,-0.84221,1.43102,-9.63229,-8.30416,-4.41224,31.3858
2023-02-15 07:12:32:757,-0.830457,1.43451,-9.62796,-8.31252,-4.41122,31.3354
2023-02-15 07:12:32:767,-0.802124,1.44236,-9.64056,-8.31906,-4.41156,31.2842
2023-02-15 07:12:32:777,-0.760069,1.43236,-9.66059,-8.33147,-4.41415,31.2316
2023-02-15 07:12:32:787,-0.750156,1.44989,-9.6538,-8.34187,-4.41597,31.1762
2023-02-15 07:12:32:797,-0.736754,1.45479,-9.64317,-8.35402,-4.4168,31.1222
2023-02-15 07:12:32:807,-0.69047,1.43598,-9.64298,-8.36483,-4.41612,31.0698
2023-02-15 07:12:32:817,-0.652078,1.46475,-9.63599,-8.38076,-4.41692,31.0215
2023-02-15 07:12:32:827,-0.664831,1.45543,-9.61706,-8.39297,-4.41716,30.9785
2023-02-15 07:12:32:837,-0.694993,1.44025,-9.59808,-8.40679,-4.41525,30.9367
2023-02-15 07:12:32:847,-0.671675,1.4547,-9.59734,-8.42129,-4.41291,30.8978
2023-02-15 07:12:32:857,-0.611154,1.45211,-9.59407,-8.43438,-4.41003,30.8618
2023-02-15 07:12:32:867,-0.580984,1.47051,-9.62093,-8.4543,-4.40676,30.8313
2023-02-15 07:12:32:877,-0.616221,1.49289,-9.66945,-8.46657,-4.40638,30.8028
2023-02-15 07:12:32:887,-0.656516,1.49271,-9.66992,-8.48042,-4.4071,30.7781
2023-02-15 07:12:32:897,-0.666193,1.4839,-9.64754,-8.49435,-4.41101,30.756
2023-02-15 07:12:32:907,-0.628236,1.48093,-9.63948,-8.50727,-4.41251,30.7337
2023-02-15 07:12:32:917,-0.609144,1.48088,-9.66824,-8.52175,-4.41638,30.7141
2023-02-15 07:12:32:927,-0.62491,1.49256,-9.6696,-8.53906,-4.42088,30.6963
2023-02-15 07:12:32:937,-0.667937,1.49255,-9.65811,-8.55161,-4.42808,30.6817
2023-02-15 07:12:32:947,-0.693909,1.48844,-9.63924,-8.56505,-4.43429,30.6693
2023-02-15 07:12:32:957,-0.681172,1.48984,-9.62347,-8.58202,-4.44147,30.6547
2023-02-15 07:12:32:967,-0.656575,1.47654,-9.61457,-8.59514,-4.45059,30.6442
2023-02-15 07:12:32:977,-0.627882,1.45968,-9.60927,-8.61389,-4.46155,30.6308
2023-02-15 07:12:32:987,-0.612023,1.45495,-9.58933,-8.63115,-4.47262,30.6235
2023-02-15 07:12:32:997,-0.635472,1.45949,-9.59179,-8.64803,-4.48972,30.6148
2023-02-15 07:12:33:7,-0.65821,1.46418,-9.6065,-8.66968,-4.50573,30.6137
2023-02-15 07:12:33:17,-0.649072,1.47631,-9.63402,-8.69148,-4.51951,30.6113
2023-02-15 07:12:33:27,-0.641535,1.48727,-9.65988,-8.70879,-4.53399,30.6091
2023-02-15 07:12:33:37,-0.635538,1.46786,-9.6708,-8.72508,-4.54745,30.6127
2023-02-15 07:12:33:47,-0.612158,1.45027,-9.65554,-8.74139,-4.56133,30.6182
2023-02-15 07:12:33:57,-0.592009,1.42339,-9.61828,-8.76012,-4.58319,30.6295
2023-02-15 07:12:33:67,-0.607867,1.42645,-9.60596,-8.7829,-4.61286,30.6431
2023-02-15 07:12:33:77,-0.668918,1.44206,-9.5946,-8.80619,-4.64196,30.654
2023-02-15 07:12:33:87,-0.739486,1.45959,-9.58373,-8.83123,-4.67257,30.6703
2023-02-15 07:12:33:97,-0.76216,1.46516,-9.57858,-8.85803,-4.70175,30.6849
2023-02-15 07:12:33:107,-0.787525,1.47793,-9.60394,-8.88617,-4.73167,30.6991
2023-02-15 07:12:33:117,-0.804278,1.50742,-9.62574,-8.91715,-4.76133,30.712
2023-02-15 07:12:33:127,-0.832571,1.51888,-9.61447,-8.94546,-4.79326,30.7185
2023-02-15 07:12:33:137,-0.847578,1.5139,-9.61388,-8.97689,-4.82123,30.7268
2023-02-15 07:12:33:147,-0.858842,1.53286,-9.6094,-9.00802,-4.8515,30.7339
2023-02-15 07:12:33:157,-0.905822,1.51831,-9.59033,-9.03878,-4.88158,30.7397
2023-02-15 07:12:33:167,-0.927902,1.52149,-9.58208,-9.06873,-4.90872,30.7406
2023-02-15 07:12:33:177,-0.933529,1.53802,-9.58989,-9.09791,-4.93687,30.735
2023-02-15 07:12:33:187,-0.908087,1.55201,-9.60703,-9.12955,-4.96113,30.7283
2023-02-15 07:12:33:197,-0.908907,1.56273,-9.61073,-9.1615,-4.98433,30.7211
2023-02-15 07:12:33:207,-0.922561,1.56452,-9.6063,-9.19238,-5.00487,30.7127
2023-02-15 07:12:33:217,-0.913686,1.58189,-9.60997,-9.2242,-5.02601,30.7038
2023-02-15 07:12:33:227,-0.912593,1.59145,-9.62893,-9.25201,-5.04461,30.6921
2023-02-15 07:12:33:237,-0.917464,1.60536,-9.6335,-9.28143,-5.05894,30.6766
2023-02-15 07:12:33:247,-0.912545,1.61095,-9.61604,-9.30821,-5.07119,30.6614
2023-02-15 07:12:33:257,-0.915815,1.62081,-9.61525,-9.33618,-5.08476,30.6429
2023-02-15 07:12:33:267,-0.879499,1.61402,-9.61454,-9.36334,-5.09604,30.6243
2023-02-15 07:12:33:277,-0.845819,1.61062,-9.6208,-9.38753,-5.10635,30.6063
2023-02-15 07:12:33:287,-0.862094,1.61413,-9.62129,-9.41071,-5.11945,30.59
2023-02-15 07:12:33:297,-0.867632,1.62931,-9.62845,-9.43645,-5.12919,30.5696
2023-02-15 07:12:33:307,-0.852263,1.64109,-9.63947,-9.45717,-5.13822,30.5512
2023-02-15 07:12:33:317,-0.842715,1.6291,-9.6098,-9.47532,-5.14518,30.5324
2023-02-15 07:12:33:327,-0.851389,1.61402,-9.61009,-9.4911,-5.15757,30.515
2023-02-15 07:12:33:337,-0.855996,1.61586,-9.58904,-9.51129,-5.17279,30.5
2023-02-15 07:12:33:347,-0.863997,1.62156,-9.57892,-9.52759,-5.18356,30.4855
2023-02-15 07:12:33:357,-0.867492,1.62207,-9.61548,-9.54616,-5.19362,30.472
2023-02-15 07:12:33:367,-0.854358,1.63033,-9.60519,-9.56298,-5.20024,30.4609
2023-02-15 07:12:33:377,-0.834255,1.62203,-9.60219,-9.58222,-5.20837,30.4515
2023-02-15 07:12:33:387,-0.829401,1.61721,-9.59207,-9.59977,-5.21588,30.4472
2023-02-15 07:12:33:397,-0.830936,1.62471,-9.59713,-9.61962,-5.22507,30.4436
2023-02-15 07:12:33:407,-0.824226,1.61394,-9.59098,-9.64071,-5.23656,30.4388
