Timestamp,Acceleration_x,Acceleration_y,Acceleration_z,roll,pitch,yaw
2023-02-16 21:25:00:902,-0.950806,2.92747,-9.31818,-17.0045,-6.71323,98.3496
2023-02-16 21:25:00:910,-1.00393,2.94202,-9.2794,-17.0221,-6.72456,98.3548
2023-02-16 21:25:00:920,-1.07552,2.95304,-9.25947,-17.0402,-6.73391,98.3691
2023-02-16 21:25:00:930,-1.1262,2.92989,-9.1612,-17.0563,-6.74471,98.3881
2023-02-16 21:25:00:941,-1.12034,2.85225,-9.05253,-17.0762,-6.75191,98.4114
2023-02-16 21:25:00:951,-1.13981,2.84424,-9.07078,-17.1078,-6.75826,98.4373
2023-02-16 21:25:00:960,-1.20872,2.8833,-9.17763,-17.1477,-6.77162,98.4664
2023-02-16 21:25:00:971,-1.26839,2.91043,-9.26447,-17.1832,-6.79195,98.4961
2023-02-16 21:25:00:980,-1.28234,2.92714,-9.3424,-17.2202,-6.81251,98.5244
2023-02-16 21:25:00:990,-1.27831,2.97726,-9.48561,-17.2508,-6.83329,98.5511
2023-02-16 21:25:01:0,-1.29326,3.00289,-9.5277,-17.2694,-6.85742,98.5803
2023-02-16 21:25:01:10,-1.32919,2.93549,-9.45094,-17.2739,-6.87792,98.6049
2023-02-16 21:25:01:20,-1.36988,2.87253,-9.31751,-17.2723,-6.90368,98.6311
2023-02-16 21:25:01:30,-1.34832,2.81533,-9.17876,-17.2744,-6.9257,98.6561
2023-02-16 21:25:01:41,-1.31102,2.78077,-9.10025,-17.2808,-6.94595,98.6776
2023-02-16 21:25:01:50,-1.31786,2.80458,-9.05793,-17.2946,-6.96137,98.6987
2023-02-16 21:25:01:60,-1.31738,2.79094,-9.04943,-17.3188,-6.97496,98.7212
2023-02-16 21:25:01:70,-1.28817,2.88947,-9.21644,-17.348,-6.98369,98.74
2023-02-16 21:25:01:80,-1.26485,2.9979,-9.38758,-17.3767,-6.98895,98.7564
2023-02-16 21:25:01:90,-1.2657,3.02912,-9.4873,-17.3917,-6.99325,98.7714
2023-02-16 21:25:01:101,-1.23991,3.06948,-9.57802,-17.3934,-6.9974,98.7858
2023-02-16 21:25:01:110,-1.19627,3.07543,-9.58783,-17.3837,-7.00074,98.8078
2023-02-16 21:25:01:121,-1.18124,2.98481,-9.43642,-17.3577,-7.00138,98.8274
2023-02-16 21:25:01:131,-1.17327,2.84743,-9.26669,-17.3261,-7.00455,98.8473
2023-02-16 21:25:01:141,-1.15855,2.78337,-9.14543,-17.2979,-7.00964,98.8713
2023-02-16 21:25:01:150,-1.15892,2.73469,-9.09486,-17.2771,-7.01361,98.8932
2023-02-16 21:25:01:161,-1.18584,2.75307,-9.16383,-17.266,-7.00971,98.9202
2023-02-16 21:25:01:171,-1.18943,2.76503,-9.18235,-17.2577,-7.00273,98.9471
2023-02-16 21:25:01:181,-1.19188,2.76066,-9.11446,-17.254,-6.99468,98.9713
2023-02-16 21:25:01:191,-1.18435,2.79426,-9.13459,-17.2592,-6.98042,98.993
2023-02-16 21:25:01:201,-1.18046,2.90016,-9.26988,-17.2717,-6.97214,99.0145
2023-02-16 21:25:01:211,-1.17256,2.95933,-9.40498,-17.2817,-6.96863,99.035
2023-02-16 21:25:01:221,-1.19776,3.01057,-9.48507,-17.2848,-6.96891,99.0512
2023-02-16 21:25:01:231,-1.25353,3.00778,-9.45851,-17.2773,-6.97146,99.0647
2023-02-16 21:25:01:240,-1.25653,2.94796,-9.31567,-17.2645,-6.96612,99.0751
2023-02-16 21:25:01:250,-1.22183,2.89449,-9.20222,-17.2511,-6.95407,99.0778
2023-02-16 21:25:01:260,-1.14604,2.84822,-9.09508,-17.2408,-6.93536,99.0754
2023-02-16 21:25:01:270,-1.08799,2.81324,-9.03984,-17.2416,-6.91105,99.0759
2023-02-16 21:25:01:280,-1.05024,2.83021,-9.07652,-17.2539,-6.88475,99.08
2023-02-16 21:25:01:290,-1.03769,2.87392,-9.11558,-17.2773,-6.85834,99.0867
2023-02-16 21:25:01:300,-1.04171,2.89108,-9.16716,-17.304,-6.83038,99.0924
2023-02-16 21:25:01:310,-1.047,2.91293,-9.22321,-17.3281,-6.80032,99.1023
2023-02-16 21:25:01:321,-1.02985,2.90456,-9.2266,-17.3519,-6.76423,99.1106
2023-02-16 21:25:01:330,-0.987815,2.89253,-9.23057,-17.3731,-6.72354,99.1181
2023-02-16 21:25:01:340,-0.955021,2.90252,-9.25751,-17.3945,-6.68438,99.1253
2023-02-16 21:25:01:351,-0.94863,2.9095,-9.24633,-17.4138,-6.64063,99.1389
2023-02-16 21:25:01:361,-0.965106,2.90896,-9.22244,-17.4389,-6.60284,99.1519
2023-02-16 21:25:01:371,-0.956964,2.92431,-9.19672,-17.4709,-6.57499,99.1669
2023-02-16 21:25:01:381,-0.942731,2.94239,-9.18121,-17.5085,-6.54235,99.1843
2023-02-16 21:25:01:391,-0.966588,2.98227,-9.19772,-17.5572,-6.51666,99.2026
2023-02-16 21:25:01:400,-0.985326,3.00734,-9.22021,-17.6053,-6.49294,99.2274
2023-02-16 21:25:01:410,-0.987484,3.06379,-9.29035,-17.6586,-6.46931,99.2496
2023-02-16 21:25:01:420,-0.987223,3.0987,-9.35748,-17.7087,-6.45095,99.2758
2023-02-16 21:25:01:430,-0.968208,3.09933,-9.32928,-17.7542,-6.43187,99.3035
2023-02-16 21:25:01:440,-0.963602,3.07792,-9.2901,-17.7933,-6.42075,99.333
2023-02-16 21:25:01:450,-0.985682,3.07392,-9.26607,-17.8341,-6.41267,99.3649
2023-02-16 21:25:01:460,-1.02429,3.07671,-9.28703,-17.8731,-6.40493,99.3999
2023-02-16 21:25:01:471,-1.05843,3.08036,-9.30982,-17.9096,-6.3932,99.4352
2023-02-16 21:25:01:480,-1.09,3.07725,-9.29616,-17.945,-6.3816,99.4706
2023-02-16 21:25:01:490,-1.14764,3.04264,-9.26804,-17.9734,-6.37446,99.5079
2023-02-16 21:25:01:500,-1.22787,3.03611,-9.26952,-18.0027,-6.36605,99.5433
2023-02-16 21:25:01:510,-1.28169,3.06268,-9.30278,-18.0306,-6.35826,99.5719
2023-02-16 21:25:01:521,-1.32819,3.06748,-9.30142,-18.0521,-6.35106,99.5945
2023-02-16 21:25:01:530,-1.38298,3.06542,-9.31561,-18.0667,-6.33718,99.6045
2023-02-16 21:25:01:541,-1.39588,3.06797,-9.32863,-18.0754,-6.32325,99.6026
2023-02-16 21:25:01:550,-1.35601,3.05209,-9.27915,-18.0799,-6.30456,99.5865
2023-02-16 21:25:01:560,-1.3015,3.01864,-9.20228,-18.0822,-6.28272,99.5553
2023-02-16 21:25:01:570,-1.23148,3.01632,-9.17508,-18.0852,-6.26173,99.5144
2023-02-16 21:25:01:581,-1.1456,3.01295,-9.16979,-18.0857,-6.24045,99.4649
2023-02-16 21:25:01:590,-1.06466,3.02164,-9.16898,-18.0914,-6.21611,99.4112
2023-02-16 21:25:01:601,-1.01107,3.02282,-9.18602,-18.0976,-6.19292,99.3561
2023-02-16 21:25:01:610,-1.003,3.04931,-9.19191,-18.111,-6.17264,99.2978
2023-02-16 21:25:01:621,-0.995329,3.06909,-9.23746,-18.1245,-6.15304,99.2353
2023-02-16 21:25:01:630,-0.972067,3.12765,-9.30576,-18.1368,-6.13666,99.1734
2023-02-16 21:25:01:640,-0.967728,3.13919,-9.30709,-18.149,-6.12331,99.1136
2023-02-16 21:25:01:650,-0.960431,3.12458,-9.28964,-18.1586,-6.11135,99.054
2023-02-16 21:25:01:660,-0.950821,3.16328,-9.31769,-18.1631,-6.10274,98.9895
2023-02-16 21:25:01:670,-0.939545,3.19886,-9.38329,-18.1605,-6.09832,98.9281
2023-02-16 21:25:01:680,-0.93034,3.20421,-9.39591,-18.1488,-6.09606,98.8658
2023-02-16 21:25:01:691,-0.93584,3.18331,-9.36304,-18.134,-6.09477,98.8044
2023-02-16 21:25:01:700,-0.922217,3.1577,-9.33667,-18.1097,-6.09983,98.7423
2023-02-16 21:25:01:710,-0.895443,3.1261,-9.28802,-18.0849,-6.10552,98.6886
2023-02-16 21:25:01:721,-0.903406,3.0957,-9.24825,-18.0613,-6.11173,98.6343
2023-02-16 21:25:01:730,-0.917764,3.0791,-9.25768,-18.0337,-6.1221,98.5829
2023-02-16 21:25:01:741,-0.946591,3.06093,-9.25332,-18.0076,-6.13626,98.5395
2023-02-16 21:25:01:750,-0.966619,3.03196,-9.24573,-17.98,-6.14883,98.4941
2023-02-16 21:25:01:761,-0.972273,3.0032,-9.26234,-17.9537,-6.16181,98.4536
2023-02-16 21:25:01:770,-0.969064,3.00028,-9.28726,-17.9282,-6.17658,98.4205
2023-02-16 21:25:01:781,-0.956404,2.977,-9.31325,-17.897,-6.18893,98.3899
2023-02-16 21:25:01:791,-0.946669,2.95765,-9.30798,-17.865,-6.2006,98.3647
2023-02-16 21:25:01:801,-0.958775,2.93357,-9.27892,-17.836,-6.208,98.3434
2023-02-16 21:25:01:810,-0.962342,2.92282,-9.25911,-17.8072,-6.22201,98.3272
2023-02-16 21:25:01:821,-0.987592,2.92241,-9.24797,-17.7802,-6.23322,98.3146
2023-02-16 21:25:01:831,-1.01426,2.89857,-9.2199,-17.7521,-6.24287,98.3101
2023-02-16 21:25:01:841,-1.03476,2.86865,-9.17904,-17.7247,-6.25029,98.3054
2023-02-16 21:25:01:851,-1.0653,2.85043,-9.18033,-17.7011,-6.25602,98.3012
2023-02-16 21:25:01:861,-1.08957,2.85066,-9.24314,-17.6817,-6.26407,98.2991
2023-02-16 21:25:01:871,-1.09445,2.8947,-9.30117,-17.6649,-6.27191,98.2977
2023-02-16 21:25:01:880,-1.09278,2.89557,-9.324,-17.6468,-6.28074,98.2908
2023-02-16 21:25:01:891,-1.06123,2.85422,-9.31195,-17.624,-6.29169,98.281
2023-02-16 21:25:01:901,-1.05781,2.84902,-9.29053,-17.6047,-6.30543,98.2721
2023-02-16 21:25:01:910,-1.07733,2.87269,-9.28736,-17.5864,-6.32179,98.2595
2023-02-16 21:25:01:920,-1.10296,2.90126,-9.28261,-17.5709,-6.33711,98.2487
2023-02-16 21:25:01:930,-1.09539,2.89572,-9.26295,-17.5558,-6.35345,98.2388
2023-02-16 21:25:01:941,-1.05975,2.88753,-9.22432,-17.5446,-6.36409,98.2216
2023-02-16 21:25:01:951,-1.04491,2.88951,-9.2386,-17.5377,-6.37926,98.2098
2023-02-16 21:25:01:960,-1.06728,2.93755,-9.28706,-17.529,-6.39061,98.2002
2023-02-16 21:25:01:970,-1.08132,2.9308,-9.26757,-17.5213,-6.4021,98.1892
2023-02-16 21:25:01:980,-1.06524,2.90799,-9.2328,-17.5145,-6.40771,98.1793
2023-02-16 21:25:01:991,-1.05642,2.91298,-9.21068,-17.5049,-6.41063,98.1686
2023-02-16 21:25:02:1,-1.0763,2.91549,-9.23192,-17.4971,-6.41095,98.16
2023-02-16 21:25:02:11,-1.07347,2.93777,-9.2432,-17.4897,-6.4047,98.155
2023-02-16 21:25:02:21,-1.04305,2.94167,-9.23835,-17.4794,-6.39687,98.1466
2023-02-16 21:25:02:31,-1.02076,2.91861,-9.25567,-17.4744,-6.38691,98.1399
2023-02-16 21:25:02:41,-1.02344,2.94344,-9.25959,-17.472,-6.37933,98.1383
2023-02-16 21:25:02:51,-1.00368,2.95802,-9.26238,-17.4691,-6.37476,98.1366
2023-02-16 21:25:02:61,-1.01177,2.94967,-9.25324,-17.4675,-6.37231,98.1351
2023-02-16 21:25:02:71,-1.02593,2.95296,-9.27267,-17.4717,-6.37964,98.1346
2023-02-16 21:25:02:81,-1.06067,2.97445,-9.3108,-17.4775,-6.38579,98.1382
2023-02-16 21:25:02:91,-1.11244,3.01323,-9.34082,-17.4774,-6.39456,98.1406
2023-02-16 21:25:02:101,-1.13338,3.02747,-9.36542,-17.4735,-6.40483,98.1435
2023-02-16 21:25:02:110,-1.16449,3.01496,-9.36357,-17.4658,-6.41847,98.1469
2023-02-16 21:25:02:121,-1.20224,3.01025,-9.35974,-17.4475,-6.43272,98.1438
2023-02-16 21:25:02:130,-1.23241,2.96951,-9.30777,-17.424,-6.44325,98.132
2023-02-16 21:25:02:141,-1.22233,2.92882,-9.24145,-17.3974,-6.45033,98.1143
2023-02-16 21:25:02:151,-1.18859,2.8992,-9.22762,-17.3743,-6.45012,98.0885
2023-02-16 21:25:02:161,-1.12772,2.8963,-9.24292,-17.3472,-6.44641,98.0566
2023-02-16 21:25:02:171,-1.07861,2.89461,-9.23718,-17.3216,-6.44419,98.02
2023-02-16 21:25:02:180,-1.02119,2.88447,-9.20217,-17.3039,-6.44251,97.9848
2023-02-16 21:25:02:191,-0.981832,2.86178,-9.18503,-17.2912,-6.4378,97.9482
2023-02-16 21:25:02:201,-0.948871,2.85807,-9.16863,-17.2841,-6.43018,97.9122
2023-02-16 21:25:02:210,-0.896458,2.84468,-9.16197,-17.2815,-6.42379,97.8763
2023-02-16 21:25:02:221,-0.858817,2.83671,-9.16792,-17.2849,-6.41832,97.8475
2023-02-16 21:25:02:231,-0.859694,2.85204,-9.16524,-17.2995,-6.41193,97.8203
2023-02-16 21:25:02:240,-0.856518,2.8871,-9.17397,-17.3236,-6.41173,97.8013
2023-02-16 21:25:02:250,-0.903237,2.9236,-9.21854,-17.3511,-6.41916,97.7887
2023-02-16 21:25:02:260,-1.00268,2.98376,-9.29206,-17.3862,-6.43103,97.7839
2023-02-16 21:25:02:270,-1.1015,3.04058,-9.37174,-17.4174,-6.44984,97.78
2023-02-16 21:25:02:280,-1.16811,3.08884,-9.40002,-17.4398,-6.46843,97.7769
2023-02-16 21:25:02:290,-1.21469,3.08615,-9.38191,-17.4531,-6.47984,97.7692
2023-02-16 21:25:02:300,-1.21975,3.06552,-9.35375,-17.457,-6.49413,97.7583
2023-02-16 21:25:02:310,-1.19187,3.04357,-9.32171,-17.4591,-6.50555,97.7375
2023-02-16 21:25:02:320,-1.17102,3.01482,-9.27821,-17.4593,-6.52115,97.7114
2023-02-16 21:25:02:330,-1.15894,2.98267,-9.25885,-17.4586,-6.53507,97.6829
2023-02-16 21:25:02:340,-1.16969,2.98594,-9.29658,-17.461,-6.54969,97.6586
2023-02-16 21:25:02:350,-1.16245,3.01778,-9.34666,-17.4547,-6.56947,97.6301
2023-02-16 21:25:02:360,-1.16879,3.0248,-9.38161,-17.4483,-6.58446,97.6019
2023-02-16 21:25:02:371,-1.19048,3.00305,-9.36398,-17.4361,-6.59689,97.5719
2023-02-16 21:25:02:380,-1.21369,2.97461,-9.34949,-17.4193,-6.6114,97.5413
2023-02-16 21:25:02:390,-1.23569,2.96493,-9.37583,-17.3968,-6.62361,97.5086
2023-02-16 21:25:02:401,-1.26215,2.93355,-9.36842,-17.3676,-6.63704,97.4701
2023-02-16 21:25:02:410,-1.29587,2.88851,-9.3021,-17.334,-6.65055,97.4271
2023-02-16 21:25:02:421,-1.30677,2.84792,-9.27468,-17.3021,-6.6669,97.3794
2023-02-16 21:25:02:430,-1.29887,2.83551,-9.26203,-17.2702,-6.68599,97.3194
2023-02-16 21:25:02:441,-1.27142,2.7958,-9.21562,-17.2416,-6.69769,97.2549
2023-02-16 21:25:02:451,-1.21106,2.7786,-9.20261,-17.2149,-6.71175,97.1844
2023-02-16 21:25:02:460,-1.13527,2.75745,-9.2162,-17.1892,-6.72235,97.1078
2023-02-16 21:25:02:471,-1.07074,2.76823,-9.23689,-17.1676,-6.73339,97.029
2023-02-16 21:25:02:481,-1.02225,2.78033,-9.24963,-17.1495,-6.74188,96.9568
2023-02-16 21:25:02:490,-1.02075,2.80611,-9.26471,-17.1356,-6.75192,96.8908
2023-02-16 21:25:02:501,-1.13055,2.85474,-9.325,-17.119,-6.76417,96.8288
2023-02-16 21:25:02:511,-1.32272,2.92188,-9.40221,-17.102,-6.78194,96.7644
2023-02-16 21:25:02:520,-1.41831,2.97251,-9.44254,-17.0748,-6.80072,96.6844
2023-02-16 21:25:02:531,-1.43946,2.92115,-9.36513,-17.0378,-6.83033,96.5899
2023-02-16 21:25:02:540,-1.42907,2.86008,-9.2509,-16.9992,-6.86396,96.4785
2023-02-16 21:25:02:550,-1.33305,2.85357,-9.25706,-16.9617,-6.90537,96.3459
2023-02-16 21:25:02:561,-1.22487,2.8565,-9.32021,-16.9262,-6.95222,96.2063
2023-02-16 21:25:02:570,-1.17075,2.83831,-9.27013,-16.8906,-7.00394,96.0585
2023-02-16 21:25:02:580,-1.09964,2.76337,-9.16815,-16.8552,-7.05388,95.911
2023-02-16 21:25:02:590,-1.00907,2.73256,-9.12609,-16.8275,-7.10616,95.7657
2023-02-16 21:25:02:600,-0.964197,2.72731,-9.12191,-16.8112,-7.15387,95.6289
2023-02-16 21:25:02:610,-0.943449,2.74361,-9.14095,-16.8013,-7.19873,95.5039
2023-02-16 21:25:02:620,-0.952615,2.78037,-9.20799,-16.8,-7.2383,95.395
2023-02-16 21:25:02:631,-0.970774,2.8235,-9.27887,-16.8038,-7.26458,95.3028
2023-02-16 21:25:02:641,-1.00018,2.83554,-9.27489,-16.8039,-7.28053,95.2241
2023-02-16 21:25:02:651,-0.988161,2.81421,-9.2659,-16.8026,-7.28677,95.1609
2023-02-16 21:25:02:661,-0.981967,2.82252,-9.28045,-16.8072,-7.28786,95.1105
2023-02-16 21:25:02:671,-1.01185,2.81286,-9.27327,-16.8089,-7.2851,95.0774
2023-02-16 21:25:02:681,-1.04115,2.81801,-9.3053,-16.815,-7.284,95.0597
2023-02-16 21:25:02:691,-1.0842,2.85813,-9.35015,-16.8226,-7.28053,95.0493
2023-02-16 21:25:02:701,-1.10681,2.8577,-9.34204,-16.8249,-7.27411,95.0472
2023-02-16 21:25:02:711,-1.10507,2.84833,-9.32051,-16.8291,-7.26709,95.0552
2023-02-16 21:25:02:721,-1.12694,2.86438,-9.30575,-16.8335,-7.26161,95.0685
2023-02-16 21:25:02:731,-1.14503,2.85094,-9.24024,-16.8412,-7.25983,95.0887
2023-02-16 21:25:02:741,-1.16822,2.81931,-9.1823,-16.8496,-7.26107,95.1137
2023-02-16 21:25:02:751,-1.23355,2.82643,-9.19082,-16.8621,-7.25539,95.1436
2023-02-16 21:25:02:761,-1.27862,2.86249,-9.25116,-16.8754,-7.24842,95.1767
2023-02-16 21:25:02:771,-1.25477,2.87707,-9.27639,-16.8891,-7.23365,95.2081
2023-02-16 21:25:02:781,-1.19489,2.85334,-9.25897,-16.8997,-7.21861,95.2417
2023-02-16 21:25:02:791,-1.16934,2.88356,-9.30216,-16.9141,-7.20437,95.2765
2023-02-16 21:25:02:801,-1.19538,2.91549,-9.31763,-16.9277,-7.19628,95.3145
2023-02-16 21:25:02:811,-1.23254,2.91954,-9.26921,-16.9396,-7.18804,95.3565
2023-02-16 21:25:02:821,-1.25517,2.88813,-9.20308,-16.9462,-7.18045,95.3956
2023-02-16 21:25:02:831,-1.29356,2.90245,-9.21574,-16.9544,-7.1705,95.4336
2023-02-16 21:25:02:841,-1.34622,2.92091,-9.26227,-16.9634,-7.158,95.4692
2023-02-16 21:25:02:851,-1.3594,2.91469,-9.2677,-16.9648,-7.1398,95.4956
2023-02-16 21:25:02:861,-1.33788,2.86459,-9.22564,-16.9649,-7.12032,95.5173
2023-02-16 21:25:02:871,-1.31099,2.83318,-9.1834,-16.9661,-7.0974,95.5317
2023-02-16 21:25:02:881,-1.25687,2.8373,-9.20297,-16.9716,-7.07355,95.5381
2023-02-16 21:25:02:891,-1.17104,2.85525,-9.25152,-16.9815,-7.04728,95.5405
2023-02-16 21:25:02:901,-1.0991,2.86137,-9.25173,-16.9904,-7.0273,95.5383
2023-02-16 21:25:02:911,-1.06796,2.86058,-9.2725,-17.0001,-7.01178,95.5397
2023-02-16 21:25:02:921,-1.07209,2.89345,-9.31402,-17.0158,-6.99991,95.5427
2023-02-16 21:25:02:931,-1.10742,2.91156,-9.33467,-17.0274,-6.99234,95.5506
2023-02-16 21:25:02:941,-1.12038,2.91226,-9.34671,-17.0364,-6.98688,95.5567
2023-02-16 21:25:02:951,-1.15192,2.92698,-9.34776,-17.046,-6.98174,95.5659
2023-02-16 21:25:02:961,-1.17151,2.92637,-9.35364,-17.0511,-6.97773,95.5788
2023-02-16 21:25:02:971,-1.19336,2.92485,-9.35162,-17.056,-6.97523,95.5905
2023-02-16 21:25:02:981,-1.21989,2.94446,-9.34405,-17.0535,-6.96831,95.6049
2023-02-16 21:25:02:991,-1.25285,2.93204,-9.32108,-17.0564,-6.95893,95.621
2023-02-16 21:25:03:1,-1.2807,2.93162,-9.31121,-17.0561,-6.95167,95.6372
2023-02-16 21:25:03:11,-1.35388,2.94642,-9.34275,-17.0506,-6.94739,95.6487
2023-02-16 21:25:03:21,-1.43686,2.96488,-9.33418,-17.0447,-6.94191,95.6611
2023-02-16 21:25:03:31,-1.48549,2.93464,-9.31315,-17.0235,-6.9314,95.6621
2023-02-16 21:25:03:41,-1.49577,2.91398,-9.36099,-16.999,-6.91744,95.6518
2023-02-16 21:25:03:51,-1.43166,2.90632,-9.42192,-16.9602,-6.88744,95.6246
2023-02-16 21:25:03:61,-1.31487,2.84188,-9.35439,-16.9147,-6.84657,95.5896
2023-02-16 21:25:03:71,-1.17178,2.74697,-9.25778,-16.8731,-6.80332,95.5486
2023-02-16 21:25:03:81,-1.02548,2.70576,-9.19434,-16.8391,-6.76069,95.5048
2023-02-16 21:25:03:91,-0.972261,2.70723,-9.13079,-16.8187,-6.71791,95.4679
2023-02-16 21:25:03:101,-1.00013,2.70598,-9.11483,-16.808,-6.68467,95.4361
2023-02-16 21:25:03:111,-1.01401,2.74256,-9.1332,-16.809,-6.65342,95.4116
2023-02-16 21:25:03:121,-1.0561,2.76902,-9.19215,-16.8124,-6.63134,95.391
2023-02-16 21:25:03:131,-1.12548,2.81416,-9.28043,-16.8178,-6.61454,95.3739
2023-02-16 21:25:03:141,-1.15854,2.83016,-9.32383,-16.8229,-6.60262,95.3603
2023-02-16 21:25:03:151,-1.1801,2.82773,-9.32651,-16.8278,-6.59717,95.3473
2023-02-16 21:25:03:161,-1.20805,2.83049,-9.33013,-16.8284,-6.59367,95.3315
2023-02-16 21:25:03:171,-1.22595,2.81747,-9.29222,-16.8294,-6.59148,95.3182
2023-02-16 21:25:03:181,-1.24579,2.79355,-9.2432,-16.8293,-6.59203,95.3048
2023-02-16 21:25:03:191,-1.25748,2.78038,-9.21363,-16.8304,-6.58714,95.2905
2023-02-16 21:25:03:201,-1.23973,2.7836,-9.21392,-16.8358,-6.57388,95.2796
2023-02-16 21:25:03:211,-1.24467,2.80847,-9.26326,-16.8391,-6.55843,95.2643
2023-02-16 21:25:03:221,-1.26236,2.82345,-9.29464,-16.842,-6.54017,95.2539
2023-02-16 21:25:03:231,-1.27706,2.81908,-9.3395,-16.8428,-6.51875,95.2381
2023-02-16 21:25:03:240,-1.2767,2.85111,-9.41749,-16.8386,-6.49744,95.2196
2023-02-16 21:25:03:251,-1.28531,2.86513,-9.44905,-16.8284,-6.47275,95.1954
2023-02-16 21:25:03:261,-1.26662,2.83712,-9.39213,-16.8125,-6.44912,95.1619
2023-02-16 21:25:03:271,-1.23315,2.80564,-9.32828,-16.791,-6.41689,95.1233
2023-02-16 21:25:03:281,-1.19207,2.77404,-9.2603,-16.7723,-6.37782,95.0794
2023-02-16 21:25:03:291,-1.12703,2.71187,-9.19655,-16.7543,-6.329,95.0296
2023-02-16 21:25:03:301,-1.03797,2.68744,-9.136,-16.742,-6.27194,94.9788
2023-02-16 21:25:03:311,-0.94731,2.68757,-9.1561,-16.7395,-6.2108,94.9244
2023-02-16 21:25:03:321,-0.871036,2.7156,-9.22652,-16.7438,-6.15011,94.8689
2023-02-16 21:25:03:331,-0.817197,2.74474,-9.29645,-16.7547,-6.09104,94.8191
2023-02-16 21:25:03:341,-0.78205,2.75775,-9.31742,-16.7672,-6.03291,94.7747
2023-02-16 21:25:03:351,-0.749224,2.78923,-9.33317,-16.7806,-5.97524,94.734
2023-02-16 21:25:03:361,-0.75313,2.80802,-9.33452,-16.7915,-5.92116,94.7021
2023-02-16 21:25:03:370,-0.748699,2.80682,-9.32378,-16.8022,-5.87584,94.6753
2023-02-16 21:25:03:380,-0.773883,2.81054,-9.26666,-16.8155,-5.83431,94.6502
2023-02-16 21:25:03:390,-0.792065,2.80884,-9.24641,-16.8339,-5.79305,94.6307
2023-02-16 21:25:03:401,-0.801589,2.82661,-9.28081,-16.8595,-5.76292,94.6125
2023-02-16 21:25:03:411,-0.810426,2.85637,-9.30896,-16.8897,-5.73365,94.5923
2023-02-16 21:25:03:421,-0.810467,2.87972,-9.31645,-16.921,-5.71016,94.5755
2023-02-16 21:25:03:431,-0.828628,2.91296,-9.351,-16.9532,-5.69521,94.5624
2023-02-16 21:25:03:441,-0.870811,2.95878,-9.41442,-16.9868,-5.6806,94.5526
2023-02-16 21:25:03:451,-0.935828,3.00977,-9.4523,-17.0127,-5.66661,94.5401
2023-02-16 21:25:03:461,-0.945275,3.01474,-9.44208,-17.031,-5.65376,94.5287
2023-02-16 21:25:03:471,-0.911863,2.99528,-9.39949,-17.0425,-5.64199,94.5187
2023-02-16 21:25:03:481,-0.911679,2.98515,-9.38304,-17.0523,-5.63121,94.502
2023-02-16 21:25:03:491,-0.915847,2.97411,-9.37864,-17.0594,-5.6209,94.4855
2023-02-16 21:25:03:501,-0.927907,2.96671,-9.33027,-17.0585,-5.61026,94.4669
2023-02-16 21:25:03:511,-0.962946,2.95666,-9.2909,-17.0583,-5.5984,94.4483
2023-02-16 21:25:03:521,-0.960016,2.96168,-9.31498,-17.0634,-5.58919,94.4263
2023-02-16 21:25:03:531,-0.903879,2.94717,-9.33878,-17.0613,-5.57701,94.4005
2023-02-16 21:25:03:541,-0.876429,2.92238,-9.30146,-17.0584,-5.5636,94.376
2023-02-16 21:25:03:551,-0.845112,2.89437,-9.25497,-17.057,-5.55273,94.3533
2023-02-16 21:25:03:561,-0.822253,2.90634,-9.25332,-17.0564,-5.54257,94.3297
2023-02-16 21:25:03:571,-0.815084,2.90884,-9.28246,-17.0607,-5.53556,94.306
2023-02-16 21:25:03:581,-0.82657,2.92181,-9.32502,-17.0625,-5.52942,94.2855
2023-02-16 21:25:03:591,-0.835999,2.93953,-9.34522,-17.0616,-5.52871,94.2679
2023-02-16 21:25:03:601,-0.831768,2.94603,-9.35519,-17.0571,-5.53172,94.2487
2023-02-16 21:25:03:611,-0.840139,2.94813,-9.35358,-17.0504,-5.53751,94.2301
2023-02-16 21:25:03:621,-0.846165,2.92328,-9.34179,-17.0374,-5.54988,94.208
2023-02-16 21:25:03:631,-0.837567,2.90005,-9.31887,-17.0301,-5.55954,94.1882
2023-02-16 21:25:03:641,-0.831341,2.89048,-9.33268,-17.0177,-5.57387,94.1716
2023-02-16 21:25:03:651,-0.82571,2.87603,-9.3997,-17.0055,-5.58837,94.1496
2023-02-16 21:25:03:661,-0.826919,2.84455,-9.42681,-16.9887,-5.60335,94.1298
2023-02-16 21:25:03:671,-0.802239,2.81945,-9.43838,-16.9728,-5.6196,94.1104
2023-02-16 21:25:03:681,-0.780255,2.79797,-9.39817,-16.9571,-5.63269,94.0963
2023-02-16 21:25:03:691,-0.783947,2.76993,-9.33306,-16.9397,-5.64806,94.085
2023-02-16 21:25:03:701,-0.798472,2.78945,-9.30111,-16.9272,-5.66467,94.0817
2023-02-16 21:25:03:711,-0.810197,2.7993,-9.29149,-16.9178,-5.68316,94.0837
2023-02-16 21:25:03:721,-0.815665,2.78963,-9.2883,-16.9052,-5.70343,94.0874
2023-02-16 21:25:03:731,-0.833665,2.78325,-9.30252,-16.896,-5.72437,94.0942
2023-02-16 21:25:03:741,-0.870196,2.79783,-9.30287,-16.8857,-5.75253,94.1039
2023-02-16 21:25:03:751,-0.905103,2.79871,-9.29132,-16.8814,-5.78008,94.1178
2023-02-16 21:25:03:761,-0.952041,2.80236,-9.26268,-16.875,-5.81498,94.1353
2023-02-16 21:25:03:771,-1.01691,2.81698,-9.2232,-16.8692,-5.85088,94.1534
2023-02-16 21:25:03:781,-1.11451,2.83757,-9.19916,-16.8646,-5.89067,94.1696
2023-02-16 21:25:03:791,-1.20413,2.85863,-9.19589,-16.8632,-5.93333,94.1818
2023-02-16 21:25:03:801,-1.26275,2.86716,-9.23023,-16.8648,-5.97495,94.1839
2023-02-16 21:25:03:811,-1.32805,2.88447,-9.25957,-16.866,-6.01505,94.1737
2023-02-16 21:25:03:821,-1.37541,2.89524,-9.30394,-16.8645,-6.05473,94.1519
2023-02-16 21:25:03:831,-1.38665,2.9242,-9.33164,-16.8599,-6.09615,94.1135
2023-02-16 21:25:03:841,-1.35396,2.91467,-9.3118,-16.8529,-6.13403,94.0569
2023-02-16 21:25:03:851,-1.32294,2.88943,-9.27086,-16.8449,-6.16705,93.9931
2023-02-16 21:25:03:861,-1.30177,2.90277,-9.25759,-16.8401,-6.19708,93.9173
2023-02-16 21:25:03:871,-1.2586,2.89794,-9.24194,-16.8312,-6.22409,93.8304
2023-02-16 21:25:03:881,-1.21386,2.87347,-9.19465,-16.8212,-6.24579,93.7406
2023-02-16 21:25:03:891,-1.16841,2.84374,-9.20625,-16.8143,-6.26411,93.6456
2023-02-16 21:25:03:901,-1.10645,2.85909,-9.26696,-16.8102,-6.27537,93.5457
2023-02-16 21:25:03:911,-1.06035,2.86217,-9.30681,-16.8047,-6.28347,93.4443
2023-02-16 21:25:03:921,-1.0161,2.8522,-9.32272,-16.8008,-6.28623,93.3451
2023-02-16 21:25:03:931,-0.969124,2.87762,-9.35605,-16.792,-6.29213,93.2498
2023-02-16 21:25:03:941,-0.961603,2.91685,-9.42564,-16.7815,-6.29976,93.1574
2023-02-16 21:25:03:951,-0.965421,2.93302,-9.43898,-16.7639,-6.30105,93.0694
2023-02-16 21:25:03:961,-0.959779,2.92239,-9.40352,-16.7439,-6.29814,92.9865
2023-02-16 21:25:03:971,-0.942011,2.89202,-9.33141,-16.7173,-6.28954,92.9133
2023-02-16 21:25:03:981,-0.91206,2.85683,-9.30111,-16.6868,-6.27524,92.8464
2023-02-16 21:25:03:991,-0.876413,2.84267,-9.27836,-16.6556,-6.26043,92.7873
2023-02-16 21:25:04:1,-0.83766,2.8171,-9.27994,-16.6272,-6.24592,92.738
2023-02-16 21:25:04:11,-0.838061,2.8008,-9.29316,-16.5981,-6.23447,92.698
2023-02-16 21:25:04:21,-0.848854,2.78866,-9.31782,-16.5677,-6.22218,92.6662
2023-02-16 21:25:04:31,-0.881339,2.76083,-9.31791,-16.5374,-6.21404,92.6412
2023-02-16 21:25:04:41,-0.929153,2.73831,-9.2768,-16.5066,-6.20543,92.6253
2023-02-16 21:25:04:51,-0.975202,2.73245,-9.2442,-16.4726,-6.20034,92.6139
2023-02-16 21:25:04:61,-1.04813,2.73567,-9.25962,-16.4472,-6.19838,92.6082
2023-02-16 21:25:04:71,-1.07629,2.73959,-9.25812,-16.4237,-6.19462,92.6025
2023-02-16 21:25:04:81,-1.09537,2.72926,-9.23652,-16.4041,-6.19463,92.5977
2023-02-16 21:25:04:91,-1.09562,2.70764,-9.20094,-16.3929,-6.18993,92.5916
2023-02-16 21:25:04:101,-1.12604,2.71502,-9.19896,-16.3844,-6.1858,92.5859
2023-02-16 21:25:04:111,-1.15472,2.74319,-9.24579,-16.3829,-6.17891,92.5752
2023-02-16 21:25:04:121,-1.14704,2.75409,-9.26621,-16.387,-6.16676,92.5586
2023-02-16 21:25:04:131,-1.12117,2.7744,-9.29596,-16.3934,-6.15408,92.5357
2023-02-16 21:25:04:141,-1.08208,2.78612,-9.29635,-16.4035,-6.14744,92.5128
2023-02-16 21:25:04:151,-1.08209,2.80208,-9.29538,-16.4186,-6.1389,92.4878
2023-02-16 21:25:04:161,-1.09318,2.80288,-9.30508,-16.4337,-6.13088,92.4603
2023-02-16 21:25:04:171,-1.11134,2.80339,-9.30076,-16.4512,-6.1226,92.4317
2023-02-16 21:25:04:181,-1.10154,2.79788,-9.30806,-16.468,-6.10899,92.4
2023-02-16 21:25:04:191,-1.08091,2.77721,-9.2977,-16.4878,-6.09406,92.3648
2023-02-16 21:25:04:201,-1.05358,2.7777,-9.27737,-16.5122,-6.07393,92.3261
2023-02-16 21:25:04:211,-1.04463,2.75974,-9.26731,-16.5359,-6.05772,92.2885
2023-02-16 21:25:04:221,-1.0193,2.76312,-9.299,-16.5635,-6.04375,92.2484
2023-02-16 21:25:04:231,-0.985011,2.77128,-9.3433,-16.587,-6.03285,92.2012
2023-02-16 21:25:04:241,-0.998417,2.76921,-9.35192,-16.6103,-6.02693,92.1589
2023-02-16 21:25:04:251,-0.997553,2.77444,-9.33889,-16.6317,-6.02573,92.1115
2023-02-16 21:25:04:261,-0.991172,2.74423,-9.31697,-16.6524,-6.025,92.0621
2023-02-16 21:25:04:271,-0.966663,2.74906,-9.29437,-16.6698,-6.02436,92.0149
2023-02-16 21:25:04:281,-0.961169,2.74039,-9.27619,-16.6919,-6.02982,91.9667
2023-02-16 21:25:04:291,-0.963268,2.73514,-9.28151,-16.7189,-6.03211,91.9198
2023-02-16 21:25:04:301,-0.977749,2.75408,-9.28778,-16.7437,-6.04,91.8767
2023-02-16 21:25:04:311,-1.00265,2.77271,-9.34508,-16.7722,-6.04457,91.8356
2023-02-16 21:25:04:321,-1.00743,2.8199,-9.42033,-16.7967,-6.0505,91.7988
2023-02-16 21:25:04:331,-1.02341,2.84733,-9.45918,-16.817,-6.05554,91.7653
2023-02-16 21:25:04:341,-1.03454,2.83924,-9.44741,-16.83,-6.05393,91.7284
2023-02-16 21:25:04:351,-1.01779,2.8221,-9.39418,-16.8357,-6.04875,91.6979
2023-02-16 21:25:04:361,-1.00638,2.80632,-9.34196,-16.8439,-6.04458,91.6661
2023-02-16 21:25:04:371,-1.00077,2.77043,-9.27707,-16.8549,-6.03727,91.6399
2023-02-16 21:25:04:381,-0.998964,2.75135,-9.25541,-16.8665,-6.02578,91.6133
2023-02-16 21:25:04:391,-0.991719,2.76442,-9.27682,-16.8798,-6.01711,91.5897
2023-02-16 21:25:04:401,-0.973733,2.80496,-9.33312,-16.8983,-6.00526,91.5692
2023-02-16 21:25:04:411,-0.989664,2.84154,-9.40269,-16.9166,-5.99075,91.5531
2023-02-16 21:25:04:421,-0.990843,2.87479,-9.4362,-16.923,-5.96753,91.541
2023-02-16 21:25:04:431,-0.97027,2.86268,-9.41582,-16.9232,-5.94276,91.5327
2023-02-16 21:25:04:441,-0.957731,2.84721,-9.36425,-16.9204,-5.91438,91.5262
2023-02-16 21:25:04:451,-0.948672,2.8402,-9.2968,-16.9144,-5.88208,91.5262
2023-02-16 21:25:04:461,-0.948872,2.82382,-9.239,-16.9062,-5.8537,91.5319
2023-02-16 21:25:04:471,-0.945196,2.8018,-9.1844,-16.9038,-5.82487,91.5332
2023-02-16 21:25:04:481,-0.957572,2.76606,-9.19188,-16.9095,-5.79548,91.5381
2023-02-16 21:25:04:491,-0.960279,2.79599,-9.2502,-16.9213,-5.76618,91.5431
2023-02-16 21:25:04:501,-0.950655,2.84467,-9.29996,-16.9314,-5.74194,91.55
2023-02-16 21:25:04:511,-0.945099,2.86604,-9.33641,-16.9505,-5.71818,91.5554
2023-02-16 21:25:04:521,-0.937284,2.88025,-9.34467,-16.9676,-5.69474,91.5553
2023-02-16 21:25:04:531,-0.939804,2.88654,-9.29858,-16.9842,-5.67524,91.5568
2023-02-16 21:25:04:541,-0.928301,2.89534,-9.28032,-17.0033,-5.65795,91.5565
2023-02-16 21:25:04:551,-0.913271,2.92438,-9.28939,-17.0213,-5.64235,91.5553
2023-02-16 21:25:04:561,-0.901018,2.94463,-9.34537,-17.0415,-5.62961,91.5541
2023-02-16 21:25:04:571,-0.874135,2.96886,-9.38741,-17.0562,-5.62367,91.5532
2023-02-16 21:25:04:581,-0.849678,2.97919,-9.39932,-17.0715,-5.61799,91.553
2023-02-16 21:25:04:591,-0.828008,2.95495,-9.40422,-17.0807,-5.62177,91.5554
2023-02-16 21:25:04:601,-0.829855,2.9523,-9.38462,-17.0875,-5.62475,91.5585
2023-02-16 21:25:04:611,-0.849023,2.95655,-9.35239,-17.0927,-5.63409,91.5649
2023-02-16 21:25:04:621,-0.866013,2.93976,-9.3251,-17.0982,-5.64616,91.5724
2023-02-16 21:25:04:631,-0.877533,2.934,-9.3213,-17.1007,-5.66032,91.5823
2023-02-16 21:25:04:641,-0.862693,2.9439,-9.32897,-17.103,-5.67075,91.5945
2023-02-16 21:25:04:651,-0.852907,2.95064,-9.3382,-17.1044,-5.68522,91.6112
2023-02-16 21:25:04:661,-0.857954,2.96349,-9.33569,-17.1029,-5.70042,91.6283
2023-02-16 21:25:04:671,-0.877505,2.95114,-9.3248,-17.0929,-5.71804,91.65
2023-02-16 21:25:04:681,-0.893838,2.93418,-9.31854,-17.0827,-5.73685,91.673
2023-02-16 21:25:04:690,-0.88929,2.91077,-9.29923,-17.0689,-5.75492,91.6951
2023-02-16 21:25:04:701,-0.909126,2.89749,-9.28419,-17.0516,-5.77765,91.7182
2023-02-16 21:25:04:711,-0.922765,2.88567,-9.25713,-17.0371,-5.79891,91.7428
2023-02-16 21:25:04:721,-0.936257,2.85825,-9.25538,-17.0243,-5.81879,91.7712
2023-02-16 21:25:04:731,-0.952913,2.85282,-9.2719,-17.0123,-5.8338,91.7982
2023-02-16 21:25:04:741,-0.960584,2.85617,-9.28433,-17.0027,-5.85159,91.8214
2023-02-16 21:25:04:751,-0.957632,2.85106,-9.28191,-16.9937,-5.86505,91.8432
2023-02-16 21:25:04:761,-0.955641,2.85024,-9.26301,-16.985,-5.87867,91.8678
2023-02-16 21:25:04:771,-0.979162,2.84166,-9.24155,-16.9849,-5.89303,91.8888
2023-02-16 21:25:04:781,-0.993909,2.84613,-9.2643,-16.9876,-5.90538,91.9109
2023-02-16 21:25:04:791,-0.984252,2.88581,-9.31719,-16.9953,-5.91675,91.9318
2023-02-16 21:25:04:801,-0.962455,2.90807,-9.3745,-17.0042,-5.93212,91.9524
2023-02-16 21:25:04:811,-0.960671,2.90621,-9.38595,-17.0078,-5.95166,91.9716
2023-02-16 21:25:04:821,-0.979251,2.91478,-9.35593,-17.0071,-5.97347,91.9924
2023-02-16 21:25:04:831,-1.00582,2.89426,-9.31157,-17.0049,-5.99599,92.008
2023-02-16 21:25:04:841,-1.04058,2.87876,-9.27185,-17.0033,-6.01651,92.023
2023-02-16 21:25:04:851,-1.05428,2.87728,-9.26626,-17.002,-6.03119,92.0401
2023-02-16 21:25:04:861,-1.0592,2.88435,-9.27355,-17.0022,-6.04476,92.0549
2023-02-16 21:25:04:871,-1.07558,2.88808,-9.27778,-17.0006,-6.05963,92.0656
2023-02-16 21:25:04:881,-1.10713,2.88853,-9.26942,-16.9967,-6.0747,92.0736
2023-02-16 21:25:04:891,-1.12143,2.88313,-9.27192,-16.9912,-6.0921,92.0775
2023-02-16 21:25:04:901,-1.1277,2.89555,-9.28336,-16.989,-6.10896,92.0741
2023-02-16 21:25:04:911,-1.13405,2.8942,-9.25991,-16.9843,-6.12612,92.0682
2023-02-16 21:25:04:921,-1.13945,2.8874,-9.24732,-16.9814,-6.14278,92.0551
2023-02-16 21:25:04:931,-1.14139,2.88563,-9.24892,-16.9761,-6.16045,92.0381
2023-02-16 21:25:04:941,-1.15907,2.90031,-9.26723,-16.9724,-6.17302,92.017
2023-02-16 21:25:04:951,-1.22586,2.90142,-9.31645,-16.9671,-6.1842,91.9847
2023-02-16 21:25:04:961,-1.26772,2.92098,-9.31522,-16.9593,-6.19278,91.9488
2023-02-16 21:25:04:971,-1.25964,2.90932,-9.30957,-16.95,-6.20572,91.9051
2023-02-16 21:25:04:981,-1.25524,2.92866,-9.30622,-16.9394,-6.21605,91.8507
2023-02-16 21:25:04:991,-1.25988,2.92667,-9.29447,-16.9265,-6.23071,91.783
2023-02-16 21:25:05:1,-1.23686,2.89776,-9.27128,-16.9135,-6.24328,91.7075
2023-02-16 21:25:05:11,-1.2131,2.8703,-9.24769,-16.8967,-6.26155,91.6265
2023-02-16 21:25:05:21,-1.19593,2.85035,-9.2149,-16.8817,-6.27815,91.539
2023-02-16 21:25:05:31,-1.17318,2.82671,-9.22549,-16.8717,-6.2854,91.4439
2023-02-16 21:25:05:41,-1.14702,2.80237,-9.24316,-16.863,-6.28928,91.3492
2023-02-16 21:25:05:51,-1.10071,2.80995,-9.26146,-16.8554,-6.29113,91.2529
2023-02-16 21:25:05:61,-1.05122,2.82078,-9.33531,-16.8474,-6.29182,91.1554
2023-02-16 21:25:05:71,-1.01574,2.822,-9.35585,-16.8386,-6.29396,91.0605
2023-02-16 21:25:05:81,-0.99173,2.81053,-9.3265,-16.8248,-6.29635,90.9721
2023-02-16 21:25:05:91,-0.967939,2.7969,-9.31848,-16.814,-6.29351,90.8859
2023-02-16 21:25:05:101,-0.976366,2.81505,-9.33268,-16.8027,-6.29226,90.8057
2023-02-16 21:25:05:111,-0.958771,2.80867,-9.33064,-16.7909,-6.28815,90.7344
2023-02-16 21:25:05:121,-0.944295,2.79884,-9.32757,-16.7752,-6.27998,90.6669
2023-02-16 21:25:05:131,-0.936169,2.7832,-9.30721,-16.7574,-6.2675,90.605
2023-02-16 21:25:05:141,-0.908683,2.75352,-9.28073,-16.7397,-6.25491,90.5542
2023-02-16 21:25:05:151,-0.884943,2.72612,-9.27987,-16.724,-6.23702,90.5141
2023-02-16 21:25:05:161,-0.86366,2.7323,-9.28986,-16.7151,-6.21668,90.4806
2023-02-16 21:25:05:171,-0.876878,2.77202,-9.34787,-16.707,-6.19801,90.4604
2023-02-16 21:25:05:181,-0.903191,2.80456,-9.38817,-16.6992,-6.1836,90.4451
2023-02-16 21:25:05:191,-0.936034,2.82202,-9.38824,-16.6888,-6.16637,90.4368
2023-02-16 21:25:05:201,-0.927094,2.83091,-9.40047,-16.6766,-6.14994,90.4339
2023-02-16 21:25:05:211,-0.876255,2.84038,-9.41306,-16.6612,-6.13954,90.435
2023-02-16 21:25:05:220,-0.875012,2.83057,-9.40613,-16.6409,-6.13645,90.4449
2023-02-16 21:25:05:230,-0.914564,2.83243,-9.39103,-16.6186,-6.12888,90.4588
2023-02-16 21:25:05:241,-0.92986,2.79241,-9.36056,-16.5941,-6.12485,90.4769
2023-02-16 21:25:05:251,-0.917245,2.74741,-9.32371,-16.5696,-6.12445,90.4959
2023-02-16 21:25:05:261,-0.963455,2.73355,-9.29815,-16.548,-6.13101,90.5162
2023-02-16 21:25:05:271,-1.00962,2.73603,-9.29663,-16.5299,-6.14172,90.5384
2023-02-16 21:25:05:281,-1.05629,2.72953,-9.31583,-16.5157,-6.15684,90.5628
2023-02-16 21:25:05:291,-1.11295,2.72924,-9.29828,-16.5032,-6.1738,90.5844
2023-02-16 21:25:05:301,-1.13322,2.724,-9.27069,-16.4951,-6.1899,90.6041
2023-02-16 21:25:05:311,-1.15686,2.73545,-9.26093,-16.4891,-6.20468,90.6203
2023-02-16 21:25:05:321,-1.19512,2.74362,-9.2385,-16.4849,-6.21487,90.6339
2023-02-16 21:25:05:331,-1.21547,2.73022,-9.20705,-16.4844,-6.22206,90.6438
2023-02-16 21:25:05:341,-1.21019,2.72915,-9.21165,-16.4833,-6.22445,90.6443
2023-02-16 21:25:05:351,-1.2135,2.71333,-9.2043,-16.484,-6.22411,90.6432
2023-02-16 21:25:05:361,-1.18651,2.69259,-9.18233,-16.492,-6.21869,90.6347
2023-02-16 21:25:05:371,-1.15534,2.68409,-9.19479,-16.503,-6.21162,90.6254
2023-02-16 21:25:05:381,-1.11391,2.71167,-9.25809,-16.5163,-6.20248,90.6157
2023-02-16 21:25:05:391,-1.10124,2.77017,-9.34503,-16.5323,-6.19149,90.5988
2023-02-16 21:25:05:401,-1.09544,2.82869,-9.4039,-16.5425,-6.18579,90.5786
2023-02-16 21:25:05:411,-1.07701,2.84913,-9.38467,-16.5472,-6.17585,90.5602
2023-02-16 21:25:05:421,-1.0419,2.8209,-9.31518,-16.5483,-6.1637,90.5403
2023-02-16 21:25:05:431,-1.03727,2.79329,-9.27784,-16.5521,-6.14536,90.5182
2023-02-16 21:25:05:441,-1.03164,2.78104,-9.28741,-16.5577,-6.12402,90.4993
2023-02-16 21:25:05:451,-1.04304,2.79362,-9.29758,-16.5663,-6.09796,90.4836
2023-02-16 21:25:05:461,-1.005,2.79961,-9.30256,-16.576,-6.07346,90.4656
2023-02-16 21:25:05:471,-0.972309,2.77998,-9.30287,-16.59,-6.05197,90.4549
2023-02-16 21:25:05:481,-0.974665,2.7893,-9.3309,-16.6057,-6.03008,90.4461
2023-02-16 21:25:05:491,-1.02579,2.82277,-9.34336,-16.6207,-6.00708,90.438
2023-02-16 21:25:05:501,-1.08116,2.80603,-9.31851,-16.6347,-5.98573,90.4319
2023-02-16 21:25:05:511,-1.0817,2.79421,-9.28095,-16.6485,-5.95952,90.4229
2023-02-16 21:25:05:521,-1.07169,2.80152,-9.25894,-16.6648,-5.93324,90.4113
2023-02-16 21:25:05:531,-1.04889,2.8039,-9.27314,-16.6807,-5.90025,90.3975
2023-02-16 21:25:05:541,-1.00583,2.80967,-9.28636,-16.6959,-5.87048,90.3791
2023-02-16 21:25:05:551,-0.957742,2.80131,-9.27246,-16.7153,-5.8388,90.3593
2023-02-16 21:25:05:561,-0.936127,2.81211,-9.27696,-16.734,-5.81016,90.3394
2023-02-16 21:25:05:571,-0.938287,2.84395,-9.32596,-16.757,-5.78156,90.3173
2023-02-16 21:25:05:581,-0.914553,2.86655,-9.33857,-16.7793,-5.75124,90.2966
2023-02-16 21:25:05:591,-0.906319,2.8786,-9.35714,-16.799,-5.7225,90.2773
2023-02-16 21:25:05:601,-0.908673,2.8993,-9.37515,-16.8132,-5.69688,90.2586
2023-02-16 21:25:05:611,-0.898426,2.89209,-9.37587,-16.8251,-5.66945,90.2407
2023-02-16 21:25:05:621,-0.89381,2.87123,-9.34636,-16.8373,-5.64288,90.2219
2023-02-16 21:25:05:631,-0.885659,2.85255,-9.33685,-16.8442,-5.62154,90.2075
2023-02-16 21:25:05:641,-0.880688,2.84205,-9.32589,-16.8546,-5.60539,90.1893
2023-02-16 21:25:05:651,-0.887943,2.84664,-9.3127,-16.8636,-5.59233,90.1784
2023-02-16 21:25:05:661,-0.895291,2.84782,-9.31506,-16.8743,-5.58089,90.1627
2023-02-16 21:25:05:671,-0.919856,2.84583,-9.33264,-16.8856,-5.57153,90.148
2023-02-16 21:25:05:681,-0.932692,2.86278,-9.34761,-16.8949,-5.5649,90.135
2023-02-16 21:25:05:691,-0.945099,2.88373,-9.36504,-16.9021,-5.55663,90.1252
2023-02-16 21:25:05:701,-0.947391,2.88595,-9.35829,-16.9095,-5.55222,90.1124
2023-02-16 21:25:05:711,-0.941255,2.87308,-9.33313,-16.9163,-5.54689,90.102
2023-02-16 21:25:05:721,-0.939788,2.87069,-9.29962,-16.9186,-5.54128,90.0876
2023-02-16 21:25:05:731,-0.939283,2.85386,-9.28882,-16.924,-5.53052,90.0772
2023-02-16 21:25:05:741,-0.928281,2.84542,-9.27632,-16.9289,-5.51821,90.0674
2023-02-16 21:25:05:751,-0.929747,2.83854,-9.29572,-16.9372,-5.50796,90.0567
2023-02-16 21:25:05:761,-0.930126,2.8563,-9.32064,-16.9446,-5.49752,90.0463
2023-02-16 21:25:05:771,-0.918711,2.85759,-9.29885,-16.9516,-5.48503,90.0352
2023-02-16 21:25:05:781,-0.908302,2.83982,-9.27622,-16.959,-5.47168,90.0221
2023-02-16 21:25:05:791,-0.896192,2.84826,-9.27306,-16.9687,-5.45983,90.0126
2023-02-16 21:25:05:801,-0.89333,2.84313,-9.28296,-16.9789,-5.44527,90.0045
2023-02-16 21:25:05:811,-0.894435,2.85059,-9.29492,-16.9941,-5.43181,89.997
2023-02-16 21:25:05:821,-0.899777,2.8585,-9.31754,-17.0066,-5.4182,89.9905
2023-02-16 21:25:05:831,-0.906115,2.87569,-9.35498,-17.0145,-5.40087,89.9793
2023-02-16 21:25:05:841,-0.903606,2.89054,-9.36263,-17.0225,-5.38693,89.9743
2023-02-16 21:25:05:851,-0.888437,2.87527,-9.3468,-17.0298,-5.36806,89.9604
2023-02-16 21:25:05:861,-0.888689,2.85778,-9.31896,-17.036,-5.35273,89.956
2023-02-16 21:25:05:871,-0.886426,2.87223,-9.30518,-17.0418,-5.33516,89.9468
2023-02-16 21:25:05:881,-0.901918,2.86976,-9.30306,-17.0501,-5.31759,89.9348
2023-02-16 21:25:05:891,-0.878778,2.85217,-9.28828,-17.0604,-5.30194,89.9206
2023-02-16 21:25:05:901,-0.880032,2.84776,-9.26641,-17.0728,-5.29195,89.9051
2023-02-16 21:25:05:911,-0.909381,2.84436,-9.27947,-17.0874,-5.28665,89.8883
2023-02-16 21:25:05:921,-0.885511,2.84385,-9.32542,-17.1,-5.28373,89.8654
2023-02-16 21:25:05:931,-0.830037,2.88214,-9.3946,-17.1107,-5.28107,89.8412
2023-02-16 21:25:05:941,-0.831093,2.90349,-9.433,-17.1185,-5.28831,89.8155
2023-02-16 21:25:05:951,-0.861571,2.90398,-9.39892,-17.1246,-5.29585,89.7911
2023-02-16 21:25:05:961,-0.834453,2.89734,-9.35795,-17.13,-5.30686,89.766
2023-02-16 21:25:05:971,-0.820241,2.8846,-9.29562,-17.1332,-5.31871,89.744
2023-02-16 21:25:05:981,-0.850087,2.86911,-9.2441,-17.1411,-5.32921,89.7254
2023-02-16 21:25:05:991,-0.831214,2.87589,-9.21983,-17.1541,-5.3353,89.7078
2023-02-16 21:25:06:1,-0.790231,2.87852,-9.22229,-17.1677,-5.33775,89.6955
2023-02-16 21:25:06:11,-0.802775,2.91223,-9.2591,-17.1845,-5.33966,89.6885
2023-02-16 21:25:06:21,-0.849709,2.93512,-9.32276,-17.2017,-5.33712,89.6887
2023-02-16 21:25:06:31,-0.860927,2.94847,-9.33877,-17.2132,-5.33474,89.6882
2023-02-16 21:25:06:41,-0.848189,2.94544,-9.33678,-17.2221,-5.32764,89.6928
2023-02-16 21:25:06:51,-0.844043,2.96372,-9.31622,-17.2258,-5.32148,89.6968
2023-02-16 21:25:06:61,-0.834215,2.93988,-9.30087,-17.2261,-5.31466,89.7029
2023-02-16 21:25:06:71,-0.843478,2.93624,-9.27292,-17.2299,-5.30749,89.7107
2023-02-16 21:25:06:81,-0.842177,2.92992,-9.27695,-17.2343,-5.29798,89.7225
2023-02-16 21:25:06:91,-0.836521,2.94447,-9.28239,-17.2394,-5.29081,89.7356
2023-02-16 21:25:06:101,-0.830961,2.94012,-9.29525,-17.2468,-5.28497,89.7498
2023-02-16 21:25:06:111,-0.866263,2.95172,-9.30663,-17.2543,-5.28061,89.7656
2023-02-16 21:25:06:121,-0.888452,2.98421,-9.33327,-17.2635,-5.27104,89.7808
2023-02-16 21:25:06:131,-0.903677,3.00611,-9.38329,-17.2684,-5.26302,89.7948
2023-02-16 21:25:06:141,-0.903726,3.02437,-9.39628,-17.268,-5.2552,89.806
2023-02-16 21:25:06:151,-0.867554,2.99758,-9.38963,-17.2629,-5.24741,89.8168
2023-02-16 21:25:06:161,-0.851638,2.98339,-9.35848,-17.2577,-5.23885,89.8304
2023-02-16 21:25:06:171,-0.867235,2.96123,-9.32185,-17.246,-5.23806,89.8425
2023-02-16 21:25:06:181,-0.890264,2.93708,-9.29138,-17.2349,-5.23189,89.8515
2023-02-16 21:25:06:191,-0.870325,2.90314,-9.2553,-17.2241,-5.22871,89.8613
2023-02-16 21:25:06:201,-0.841375,2.89218,-9.25367,-17.2143,-5.22452,89.8679
2023-02-16 21:25:06:211,-0.820804,2.90749,-9.27588,-17.2079,-5.21737,89.8728
2023-02-16 21:25:06:221,-0.810844,2.92376,-9.30861,-17.2016,-5.20775,89.8817
2023-02-16 21:25:06:231,-0.783393,2.9141,-9.34569,-17.1921,-5.20253,89.8934
2023-02-16 21:25:06:241,-0.750392,2.91115,-9.35536,-17.184,-5.1997,89.9066
2023-02-16 21:25:06:251,-0.768011,2.90953,-9.33544,-17.175,-5.19118,89.9233
2023-02-16 21:25:06:261,-0.773255,2.91621,-9.31091,-17.162,-5.19131,89.9457
2023-02-16 21:25:06:271,-0.764089,2.90066,-9.29129,-17.1498,-5.19033,89.9702
2023-02-16 21:25:06:281,-0.784626,2.89038,-9.2924,-17.1366,-5.18779,90.0001
2023-02-16 21:25:06:291,-0.773763,2.90247,-9.32634,-17.1239,-5.18668,90.0305
2023-02-16 21:25:06:301,-0.778435,2.90962,-9.3751,-17.1123,-5.18809,90.0676
2023-02-16 21:25:06:311,-0.780306,2.94016,-9.39609,-17.0927,-5.19166,90.1074
2023-02-16 21:25:06:321,-0.755111,2.96244,-9.42966,-17.0781,-5.20014,90.1471
2023-02-16 21:25:06:331,-0.751786,2.95142,-9.42388,-17.0524,-5.21208,90.1904
2023-02-16 21:25:06:341,-0.772458,2.92804,-9.37851,-17.0264,-5.23003,90.2333
2023-02-16 21:25:06:351,-0.789603,2.90463,-9.3459,-16.9977,-5.2524,90.2847
2023-02-16 21:25:06:361,-0.796205,2.891,-9.31436,-16.9684,-5.27421,90.3357
2023-02-16 21:25:06:371,-0.814199,2.87118,-9.2954,-16.9382,-5.29819,90.3907
2023-02-16 21:25:06:381,-0.834092,2.86074,-9.28582,-16.9119,-5.32564,90.4486
2023-02-16 21:25:06:391,-0.852495,2.8559,-9.30995,-16.8863,-5.35319,90.5052
2023-02-16 21:25:06:401,-0.871299,2.84268,-9.30725,-16.8583,-5.37739,90.5623
2023-02-16 21:25:06:411,-0.878444,2.83786,-9.29863,-16.8349,-5.40371,90.6208
2023-02-16 21:25:06:421,-0.900735,2.83428,-9.31453,-16.8144,-5.43215,90.6785
2023-02-16 21:25:06:431,-0.91222,2.82202,-9.31159,-16.7892,-5.46106,90.7351
2023-02-16 21:25:06:441,-0.911917,2.81557,-9.2976,-16.7652,-5.48732,90.7879
2023-02-16 21:25:06:451,-0.924071,2.8061,-9.30766,-16.7421,-5.517,90.8429
2023-02-16 21:25:06:461,-0.947031,2.8159,-9.28262,-16.7228,-5.55027,90.8953
2023-02-16 21:25:06:471,-0.947141,2.81015,-9.28065,-16.701,-5.58264,90.9434
2023-02-16 21:25:06:481,-0.95191,2.78762,-9.28057,-16.6843,-5.61766,90.9898
2023-02-16 21:25:06:491,-0.966174,2.77023,-9.27782,-16.6682,-5.65467,91.0375
2023-02-16 21:25:06:501,-0.994149,2.76541,-9.25778,-16.6545,-5.69029,91.084
2023-02-16 21:25:06:511,-1.02966,2.76382,-9.25294,-16.642,-5.72898,91.13
2023-02-16 21:25:06:521,-1.05783,2.76129,-9.2476,-16.635,-5.7613,91.1755
2023-02-16 21:25:06:531,-1.08074,2.75613,-9.22924,-16.6363,-5.79515,91.2187
2023-02-16 21:25:06:541,-1.09272,2.74565,-9.21583,-16.6427,-5.82484,91.2593
2023-02-16 21:25:06:551,-1.10894,2.75228,-9.22835,-16.6492,-5.85055,91.2981
2023-02-16 21:25:06:561,-1.12012,2.77145,-9.26656,-16.6597,-5.87681,91.335
2023-02-16 21:25:06:571,-1.11925,2.79522,-9.30353,-16.6712,-5.89486,91.3654
2023-02-16 21:25:06:581,-1.11774,2.79439,-9.32871,-16.6784,-5.91132,91.3922
2023-02-16 21:25:06:591,-1.112,2.80563,-9.33653,-16.6902,-5.92459,91.4133
2023-02-16 21:25:06:601,-1.0991,2.82899,-9.32306,-16.6949,-5.93699,91.4351
2023-02-16 21:25:06:611,-1.07876,2.8214,-9.33135,-16.6969,-5.94694,91.4546
2023-02-16 21:25:06:621,-1.05661,2.81466,-9.34275,-16.6993,-5.95749,91.4675
2023-02-16 21:25:06:631,-1.05042,2.84595,-9.38217,-16.6999,-5.96386,91.4783
2023-02-16 21:25:06:641,-1.02382,2.8539,-9.42283,-16.6967,-5.96911,91.4863
2023-02-16 21:25:06:651,-0.985476,2.82785,-9.41522,-16.6892,-5.97816,91.4985
2023-02-16 21:25:06:661,-0.954659,2.80103,-9.37028,-16.6802,-5.98986,91.5114
2023-02-16 21:25:06:671,-0.941361,2.78882,-9.33328,-16.6731,-6.00361,91.5272
2023-02-16 21:25:06:681,-0.952491,2.78137,-9.31112,-16.6656,-6.01525,91.5478
2023-02-16 21:25:06:691,-0.964776,2.76188,-9.28079,-16.6662,-6.02459,91.572
2023-02-16 21:25:06:701,-0.94689,2.78338,-9.26923,-16.6661,-6.03586,91.5972
2023-02-16 21:25:06:711,-0.966726,2.81396,-9.2941,-16.6685,-6.0464,91.6258
2023-02-16 21:25:06:721,-0.995765,2.83588,-9.30892,-16.6735,-6.05769,91.659
2023-02-16 21:25:06:731,-1.02274,2.85383,-9.29794,-16.6744,-6.06947,91.6911
2023-02-16 21:25:06:741,-1.05374,2.85169,-9.29265,-16.6751,-6.08298,91.72
2023-02-16 21:25:06:751,-1.08539,2.84099,-9.28683,-16.6695,-6.0959,91.75
2023-02-16 21:25:06:761,-1.09826,2.83986,-9.2651,-16.67,-6.10756,91.7778
2023-02-16 21:25:06:771,-1.0957,2.83081,-9.26492,-16.6664,-6.12356,91.8015
2023-02-16 21:25:06:781,-1.0879,2.83461,-9.26112,-16.6633,-6.13653,91.8207
2023-02-16 21:25:06:791,-1.08387,2.82752,-9.26543,-16.6606,-6.14996,91.8362
2023-02-16 21:25:06:801,-1.08406,2.83078,-9.28939,-16.6607,-6.16632,91.8521
2023-02-16 21:25:06:811,-1.06957,2.82724,-9.31151,-16.6608,-6.18168,91.8651
2023-02-16 21:25:06:821,-1.07041,2.81503,-9.30617,-16.6618,-6.19834,91.8771
2023-02-16 21:25:06:831,-1.07806,2.80961,-9.28991,-16.666,-6.21581,91.8911
2023-02-16 21:25:06:841,-1.09067,2.82835,-9.32315,-16.6712,-6.23209,91.9035
2023-02-16 21:25:06:851,-1.08532,2.84846,-9.35593,-16.6752,-6.24403,91.9139
2023-02-16 21:25:06:861,-1.05586,2.85213,-9.3819,-16.6777,-6.2536,91.9217
2023-02-16 21:25:06:871,-1.01835,2.83823,-9.35691,-16.6765,-6.26245,91.928
2023-02-16 21:25:06:881,-1.01296,2.84073,-9.34398,-16.6742,-6.2718,91.9389
2023-02-16 21:25:06:891,-1.02536,2.83384,-9.35243,-16.6701,-6.28291,91.9564
2023-02-16 21:25:06:901,-1.05567,2.82055,-9.32834,-16.6648,-6.29039,91.9731
2023-02-16 21:25:06:911,-1.06311,2.81551,-9.28466,-16.6584,-6.30015,91.9908
2023-02-16 21:25:06:921,-1.06891,2.80752,-9.29194,-16.6555,-6.30873,92.0072
2023-02-16 21:25:06:931,-1.0809,2.81162,-9.29979,-16.6526,-6.31535,92.0274
2023-02-16 21:25:06:941,-1.09449,2.79532,-9.29178,-16.6456,-6.32167,92.0456
2023-02-16 21:25:06:951,-1.08585,2.78382,-9.28662,-16.6428,-6.32502,92.0616
2023-02-16 21:25:06:961,-1.08685,2.78395,-9.28994,-16.6354,-6.33104,92.0795
2023-02-16 21:25:06:971,-1.08799,2.77748,-9.298,-16.6296,-6.33977,92.0959
2023-02-16 21:25:06:981,-1.07623,2.7712,-9.30199,-16.6267,-6.34745,92.1091
2023-02-16 21:25:06:991,-1.07611,2.77754,-9.31152,-16.6225,-6.35287,92.1213
2023-02-16 21:25:07:1,-1.07533,2.78743,-9.30712,-16.6183,-6.35752,92.1359
2023-02-16 21:25:07:11,-1.07911,2.78066,-9.30201,-16.6165,-6.3611,92.1465
2023-02-16 21:25:07:21,-1.08618,2.77815,-9.31474,-16.615,-6.36972,92.1584
2023-02-16 21:25:07:31,-1.09168,2.7745,-9.32043,-16.6117,-6.37538,92.1681
2023-02-16 21:25:07:41,-1.09169,2.77231,-9.32383,-16.613,-6.38186,92.1822
2023-02-16 21:25:07:51,-1.1062,2.78009,-9.31171,-16.6144,-6.38773,92.1927
2023-02-16 21:25:07:61,-1.0932,2.78185,-9.30284,-16.6154,-6.39799,92.2016
2023-02-16 21:25:07:71,-1.08902,2.78418,-9.3128,-16.6149,-6.40089,92.2085
2023-02-16 21:25:07:81,-1.07481,2.79174,-9.34148,-16.612,-6.40725,92.214
2023-02-16 21:25:07:91,-1.07319,2.79127,-9.32932,-16.6128,-6.41163,92.2255
2023-02-16 21:25:07:101,-1.07287,2.77549,-9.3117,-16.6131,-6.4166,92.237
2023-02-16 21:25:07:111,-1.06285,2.78305,-9.29875,-16.6164,-6.41821,92.2469
2023-02-16 21:25:07:121,-1.075,2.78636,-9.29556,-16.6163,-6.42004,92.2573
2023-02-16 21:25:07:131,-1.09327,2.78044,-9.2925,-16.6177,-6.41802,92.2683
2023-02-16 21:25:07:141,-1.1054,2.78933,-9.2933,-16.6189,-6.42138,92.2769
2023-02-16 21:25:07:151,-1.11582,2.79026,-9.27681,-16.6187,-6.42355,92.289
2023-02-16 21:25:07:161,-1.10092,2.78311,-9.26832,-16.6198,-6.42242,92.2945
2023-02-16 21:25:07:171,-1.1131,2.77927,-9.2987,-16.6207,-6.42135,92.2998
2023-02-16 21:25:07:181,-1.11264,2.79377,-9.32036,-16.6227,-6.4179,92.3074
2023-02-16 21:25:07:191,-1.09354,2.80317,-9.31809,-16.6303,-6.4166,92.3137
2023-02-16 21:25:07:201,-1.07366,2.79949,-9.30902,-16.6377,-6.41264,92.3162
2023-02-16 21:25:07:211,-1.07943,2.82096,-9.30972,-16.6459,-6.40854,92.3204
2023-02-16 21:25:07:221,-1.0822,2.83109,-9.30658,-16.6526,-6.40686,92.3205
2023-02-16 21:25:07:231,-1.06038,2.82338,-9.29793,-16.6581,-6.40578,92.3193
2023-02-16 21:25:07:241,-1.04164,2.83252,-9.29045,-16.6655,-6.40265,92.3184
2023-02-16 21:25:07:251,-1.04115,2.83655,-9.30695,-16.6742,-6.40493,92.3196
2023-02-16 21:25:07:261,-1.03612,2.83902,-9.29955,-16.683,-6.40886,92.3222
2023-02-16 21:25:07:271,-1.02208,2.82835,-9.29145,-16.693,-6.41121,92.326
2023-02-16 21:25:07:281,-1.04081,2.84681,-9.29711,-16.7038,-6.41701,92.3306
2023-02-16 21:25:07:291,-1.05461,2.8583,-9.30392,-16.7121,-6.42351,92.3377
2023-02-16 21:25:07:301,-1.06491,2.84715,-9.29321,-16.7193,-6.42654,92.3421
2023-02-16 21:25:07:311,-1.10258,2.84389,-9.27746,-16.7262,-6.43125,92.3479
2023-02-16 21:25:07:321,-1.1308,2.86558,-9.30113,-16.7333,-6.4336,92.3523
2023-02-16 21:25:07:331,-1.11735,2.88931,-9.32306,-16.7369,-6.43657,92.355
2023-02-16 21:25:07:341,-1.12427,2.87994,-9.3313,-16.7429,-6.43788,92.3582
2023-02-16 21:25:07:351,-1.12623,2.87433,-9.35113,-16.7454,-6.44256,92.3573
2023-02-16 21:25:07:361,-1.11908,2.8894,-9.39422,-16.748,-6.44259,92.3552
2023-02-16 21:25:07:371,-1.09691,2.9084,-9.41532,-16.7433,-6.44396,92.3506
2023-02-16 21:25:07:381,-1.07322,2.89452,-9.38734,-16.7338,-6.44958,92.3431
2023-02-16 21:25:07:391,-1.04308,2.8563,-9.34575,-16.7275,-6.45963,92.3361
2023-02-16 21:25:07:402,-1.03518,2.85513,-9.29989,-16.7214,-6.47189,92.3313
2023-02-16 21:25:07:411,-1.06132,2.85931,-9.28689,-16.7193,-6.48625,92.3269
2023-02-16 21:25:07:421,-1.06011,2.87384,-9.2843,-16.7249,-6.50361,92.3239
2023-02-16 21:25:07:431,-1.05048,2.89569,-9.29011,-16.7292,-6.52192,92.3205
2023-02-16 21:25:07:441,-1.07837,2.91832,-9.30146,-16.7305,-6.53754,92.325
2023-02-16 21:25:07:451,-1.1181,2.93668,-9.32981,-16.7309,-6.55264,92.3297
2023-02-16 21:25:07:461,-1.16426,2.95327,-9.34832,-16.7282,-6.5703,92.3338
2023-02-16 21:25:07:471,-1.19238,2.94499,-9.31837,-16.7205,-6.58437,92.338
2023-02-16 21:25:07:481,-1.16934,2.92781,-9.27154,-16.7112,-6.59725,92.337
2023-02-16 21:25:07:491,-1.15718,2.89694,-9.24221,-16.7015,-6.61225,92.336
2023-02-16 21:25:07:501,-1.15427,2.87929,-9.23298,-16.6926,-6.63118,92.3336
2023-02-16 21:25:07:511,-1.1524,2.88833,-9.26713,-16.6891,-6.65357,92.3247
2023-02-16 21:25:07:521,-1.14455,2.89563,-9.29745,-16.6883,-6.68366,92.3176
2023-02-16 21:25:07:531,-1.15918,2.92385,-9.33874,-16.6876,-6.71679,92.31
2023-02-16 21:25:07:541,-1.18353,2.97433,-9.40229,-16.6834,-6.75347,92.3022
2023-02-16 21:25:07:551,-1.19579,2.97637,-9.42846,-16.6752,-6.79266,92.2989
2023-02-16 21:25:07:561,-1.22209,2.95055,-9.41759,-16.6574,-6.82714,92.2933
2023-02-16 21:25:07:571,-1.23265,2.91721,-9.39467,-16.6348,-6.85221,92.2858
2023-02-16 21:25:07:581,-1.19621,2.91466,-9.3633,-16.6062,-6.86882,92.2794
2023-02-16 21:25:07:591,-1.11414,2.87006,-9.32952,-16.574,-6.8798,92.2773
2023-02-16 21:25:07:601,-1.05107,2.82793,-9.30838,-16.5402,-6.88635,92.2781
2023-02-16 21:25:07:611,-1.01711,2.81304,-9.27563,-16.507,-6.89479,92.2861
2023-02-16 21:25:07:621,-0.970305,2.78111,-9.27019,-16.4768,-6.90208,92.3066
2023-02-16 21:25:07:631,-0.958602,2.77624,-9.2901,-16.4478,-6.90818,92.3402
2023-02-16 21:25:07:641,-0.993041,2.78433,-9.33977,-16.412,-6.91586,92.3813
2023-02-16 21:25:07:651,-1.05068,2.77723,-9.35326,-16.3744,-6.91524,92.432
2023-02-16 21:25:07:661,-1.14617,2.76006,-9.33895,-16.33,-6.90716,92.4873
2023-02-16 21:25:07:671,-1.21167,2.73074,-9.30062,-16.2844,-6.89204,92.5407
2023-02-16 21:25:07:681,-1.2251,2.6959,-9.26524,-16.2413,-6.87266,92.5907
2023-02-16 21:25:07:691,-1.24525,2.6624,-9.19012,-16.1988,-6.85131,92.6358
2023-02-16 21:25:07:701,-1.26474,2.62875,-9.13383,-16.1652,-6.83262,92.6741
2023-02-16 21:25:07:711,-1.21873,2.59263,-9.13219,-16.1393,-6.81377,92.7031
2023-02-16 21:25:07:722,-1.15314,2.59827,-9.16382,-16.1228,-6.80011,92.7276
2023-02-16 21:25:07:731,-1.12492,2.61777,-9.20438,-16.1157,-6.79234,92.7386
2023-02-16 21:25:07:741,-1.09006,2.63514,-9.25004,-16.1157,-6.79185,92.7453
2023-02-16 21:25:07:751,-1.04085,2.6381,-9.32693,-16.1209,-6.79081,92.7507
2023-02-16 21:25:07:761,-0.995955,2.66353,-9.3901,-16.126,-6.79901,92.7564
2023-02-16 21:25:07:771,-0.976681,2.68157,-9.40183,-16.1323,-6.80894,92.7616
2023-02-16 21:25:07:781,-0.95862,2.68925,-9.38851,-16.1384,-6.81995,92.7719
2023-02-16 21:25:07:791,-0.960696,2.67534,-9.34275,-16.1437,-6.83374,92.7924
2023-02-16 21:25:07:801,-0.979726,2.67245,-9.33125,-16.148,-6.84741,92.8189
2023-02-16 21:25:07:811,-0.999109,2.68254,-9.3221,-16.1577,-6.85883,92.8552
2023-02-16 21:25:07:821,-1.02005,2.69,-9.31867,-16.1644,-6.86453,92.8937
2023-02-16 21:25:07:831,-1.04176,2.71984,-9.3052,-16.1703,-6.86437,92.9368
2023-02-16 21:25:07:841,-1.04931,2.74002,-9.30823,-16.1717,-6.86023,92.9801
2023-02-16 21:25:07:851,-1.0647,2.75112,-9.31324,-16.1747,-6.85385,93.0269
2023-02-16 21:25:07:861,-1.1073,2.7865,-9.33829,-16.1808,-6.84831,93.0786
2023-02-16 21:25:07:871,-1.1662,2.79759,-9.34292,-16.183,-6.84496,93.1312
2023-02-16 21:25:07:881,-1.2246,2.80166,-9.35191,-16.1834,-6.84156,93.1801
2023-02-16 21:25:07:891,-1.29241,2.80411,-9.38328,-16.1817,-6.83841,93.2227
2023-02-16 21:25:07:901,-1.30944,2.80057,-9.38389,-16.1693,-6.8326,93.2517
2023-02-16 21:25:07:911,-1.29866,2.75776,-9.3325,-16.1512,-6.82617,93.2634
2023-02-16 21:25:07:921,-1.31044,2.7383,-9.28748,-16.1303,-6.81582,93.2684
2023-02-16 21:25:07:931,-1.35012,2.7563,-9.33187,-16.1054,-6.80255,93.2586
2023-02-16 21:25:07:941,-1.36533,2.76593,-9.41162,-16.0793,-6.79803,93.2371
2023-02-16 21:25:07:951,-1.33814,2.73197,-9.44136,-16.047,-6.79124,93.2026
2023-02-16 21:25:07:961,-1.28363,2.68455,-9.41741,-16.0128,-6.78669,93.1562
2023-02-16 21:25:07:971,-1.21607,2.61845,-9.37535,-15.9744,-6.78848,93.0969
2023-02-16 21:25:07:981,-1.15444,2.57214,-9.32349,-15.9383,-6.80009,93.0299
2023-02-16 21:25:07:991,-1.12081,2.54467,-9.30131,-15.9055,-6.81575,92.9557
2023-02-16 21:25:08:1,-1.12934,2.5523,-9.34037,-15.8759,-6.83678,92.8761
2023-02-16 21:25:08:11,-1.1609,2.56039,-9.38139,-15.8481,-6.86238,92.795
2023-02-16 21:25:08:21,-1.15309,2.55306,-9.36407,-15.8174,-6.88737,92.7139
2023-02-16 21:25:08:31,-1.10082,2.5393,-9.35424,-15.7853,-6.90471,92.6272
2023-02-16 21:25:08:41,-1.06367,2.51851,-9.31873,-15.7532,-6.91949,92.5428
2023-02-16 21:25:08:51,-1.01515,2.47855,-9.28382,-15.7219,-6.93255,92.4578
2023-02-16 21:25:08:61,-0.984142,2.46642,-9.2887,-15.7014,-6.94965,92.3781
2023-02-16 21:25:08:71,-0.961368,2.48693,-9.32361,-15.6891,-6.96867,92.3049
2023-02-16 21:25:08:81,-0.974841,2.52138,-9.37721,-15.681,-6.99083,92.2367
2023-02-16 21:25:08:91,-1.00324,2.54264,-9.41436,-15.6717,-7.02481,92.1739
2023-02-16 21:25:08:101,-1.0433,2.56172,-9.44382,-15.6644,-7.05876,92.1214
2023-02-16 21:25:08:111,-1.10704,2.5727,-9.451,-15.657,-7.09209,92.0736
2023-02-16 21:25:08:121,-1.14881,2.57849,-9.43964,-15.648,-7.12842,92.0257
2023-02-16 21:25:08:131,-1.17618,2.58598,-9.42516,-15.6388,-7.16061,91.9781
2023-02-16 21:25:08:141,-1.2023,2.59214,-9.37282,-15.6271,-7.19057,91.9383
2023-02-16 21:25:08:151,-1.20251,2.58107,-9.30184,-15.6168,-7.21597,91.8979
2023-02-16 21:25:08:161,-1.13513,2.57585,-9.25341,-15.6096,-7.23985,91.86
2023-02-16 21:25:08:171,-1.07266,2.58861,-9.23505,-15.6069,-7.26471,91.8268
2023-02-16 21:25:08:182,-1.08054,2.60014,-9.24615,-15.609,-7.29395,91.8036
2023-02-16 21:25:08:191,-1.13342,2.6178,-9.29211,-15.612,-7.32329,91.7856
2023-02-16 21:25:08:201,-1.22353,2.67088,-9.35871,-15.6104,-7.35156,91.7708
2023-02-16 21:25:08:211,-1.32081,2.70568,-9.4564,-15.604,-7.37797,91.7618
2023-02-16 21:25:08:221,-1.4579,2.7512,-9.55388,-15.5871,-7.40681,91.751
2023-02-16 21:25:08:231,-1.57914,2.77692,-9.55997,-15.5587,-7.43532,91.7317
2023-02-16 21:25:08:241,-1.63168,2.72722,-9.47249,-15.5169,-7.45832,91.7023
2023-02-16 21:25:08:251,-1.63273,2.66765,-9.34842,-15.4725,-7.47594,91.659
2023-02-16 21:25:08:261,-1.58618,2.57881,-9.22932,-15.4298,-7.49323,91.602
2023-02-16 21:25:08:271,-1.49236,2.49849,-9.14963,-15.3949,-7.50288,91.5367
2023-02-16 21:25:08:282,-1.43117,2.49337,-9.12249,-15.3749,-7.50674,91.4686
2023-02-16 21:25:08:291,-1.39126,2.48258,-9.12918,-15.3708,-7.50984,91.4006
2023-02-16 21:25:08:301,-1.31384,2.49453,-9.1238,-15.3765,-7.50419,91.3341
2023-02-16 21:25:08:311,-1.20464,2.49415,-9.13736,-15.3945,-7.4911,91.2694
2023-02-16 21:25:08:321,-1.16775,2.55285,-9.20037,-15.4251,-7.47757,91.2211
2023-02-16 21:25:08:331,-1.1511,2.60406,-9.25501,-15.4635,-7.46301,91.1845
2023-02-16 21:25:08:341,-1.13105,2.61359,-9.26679,-15.501,-7.44273,91.1574
2023-02-16 21:25:08:351,-1.13637,2.62182,-9.27091,-15.5424,-7.41595,91.1498
2023-02-16 21:25:08:362,-1.16387,2.65947,-9.29402,-15.5865,-7.37858,91.1528
2023-02-16 21:25:08:371,-1.21461,2.70325,-9.3317,-15.6291,-7.33216,91.1682
2023-02-16 21:25:08:381,-1.2554,2.71547,-9.34448,-15.6632,-7.27908,91.1904
2023-02-16 21:25:08:391,-1.27383,2.70908,-9.33086,-15.6961,-7.22346,91.2151
2023-02-16 21:25:08:401,-1.27698,2.70334,-9.33633,-15.7238,-7.16383,91.2352
2023-02-16 21:25:08:411,-1.28596,2.73029,-9.38635,-15.7519,-7.10994,91.2564
2023-02-16 21:25:08:422,-1.27703,2.70805,-9.32905,-15.7671,-7.05657,91.2707
2023-02-16 21:25:08:431,-1.23692,2.68587,-9.31742,-15.7857,-7.00311,91.2776
2023-02-16 21:25:08:442,-1.20643,2.73434,-9.38566,-15.8046,-6.95579,91.2771
2023-02-16 21:25:08:451,-1.20241,2.73983,-9.37007,-15.8205,-6.91337,91.2722
2023-02-16 21:25:08:462,-1.19181,2.73538,-9.38769,-15.834,-6.87675,91.2593
2023-02-16 21:25:08:471,-1.14648,2.71784,-9.42808,-15.8412,-6.84483,91.2396
2023-02-16 21:25:08:482,-1.1042,2.7113,-9.42654,-15.848,-6.82066,91.2062
2023-02-16 21:25:08:492,-1.06029,2.69448,-9.3968,-15.8503,-6.80773,91.1673
2023-02-16 21:25:08:502,-1.00483,2.66083,-9.37539,-15.8566,-6.80224,91.1263
2023-02-16 21:25:08:511,-0.957265,2.68323,-9.38493,-15.865,-6.8007,91.0818
2023-02-16 21:25:08:521,-0.947973,2.7057,-9.393,-15.8743,-6.80448,91.0369
2023-02-16 21:25:08:531,-0.954713,2.69555,-9.36699,-15.8827,-6.81634,90.9972
2023-02-16 21:25:08:541,-0.950676,2.69573,-9.34464,-15.8909,-6.82839,90.9636
2023-02-16 21:25:08:551,-0.922401,2.7199,-9.38328,-15.899,-6.83766,90.9338
2023-02-16 21:25:08:561,-0.922822,2.72841,-9.41164,-15.9072,-6.85575,90.9122
2023-02-16 21:25:08:571,-0.945826,2.72097,-9.41891,-15.9122,-6.87957,90.9002
2023-02-16 21:25:08:582,-0.962978,2.71248,-9.4169,-15.9176,-6.91048,90.8955
2023-02-16 21:25:08:591,-0.996205,2.70825,-9.41199,-15.9252,-6.94723,90.9
2023-02-16 21:25:08:602,-1.04076,2.7084,-9.40033,-15.9282,-6.98651,90.9119
2023-02-16 21:25:08:611,-1.11719,2.71272,-9.3666,-15.9326,-7.02602,90.9331
2023-02-16 21:25:08:621,-1.18959,2.71784,-9.33236,-15.9362,-7.07161,90.9623
2023-02-16 21:25:08:632,-1.25217,2.75412,-9.33407,-15.9397,-7.11516,90.9958
2023-02-16 21:25:08:642,-1.30441,2.78792,-9.37647,-15.9413,-7.15479,91.0343
2023-02-16 21:25:08:651,-1.3744,2.81906,-9.39838,-15.935,-7.19112,91.0726
2023-02-16 21:25:08:661,-1.42275,2.82283,-9.39546,-15.9197,-7.21865,91.1104
2023-02-16 21:25:08:672,-1.43662,2.80117,-9.38628,-15.8978,-7.2444,91.1403
2023-02-16 21:25:08:682,-1.41912,2.76355,-9.37953,-15.8699,-7.26314,91.1661
2023-02-16 21:25:08:692,-1.40084,2.73916,-9.35258,-15.841,-7.28296,91.1845
2023-02-16 21:25:08:702,-1.37469,2.69733,-9.32148,-15.809,-7.29639,91.1997
2023-02-16 21:25:08:711,-1.33296,2.6508,-9.26438,-15.7795,-7.30837,91.21
2023-02-16 21:25:08:721,-1.30701,2.62209,-9.21459,-15.7546,-7.32246,91.2175
2023-02-16 21:25:08:732,-1.29196,2.61823,-9.22853,-15.7343,-7.33521,91.224
2023-02-16 21:25:08:741,-1.29918,2.6492,-9.26545,-15.7167,-7.3411,91.2285
2023-02-16 21:25:08:751,-1.28827,2.66418,-9.28934,-15.6979,-7.34529,91.2328
2023-02-16 21:25:08:761,-1.26275,2.65559,-9.2709,-15.6774,-7.34568,91.2351
2023-02-16 21:25:08:771,-1.25792,2.63583,-9.27734,-15.6603,-7.34034,91.2329
2023-02-16 21:25:08:781,-1.22429,2.61374,-9.30388,-15.6431,-7.33099,91.2247
2023-02-16 21:25:08:791,-1.1571,2.59492,-9.33703,-15.6264,-7.31767,91.2154
2023-02-16 21:25:08:802,-1.09207,2.57614,-9.35896,-15.6083,-7.30305,91.2071
2023-02-16 21:25:08:812,-1.0768,2.55929,-9.33073,-15.5899,-7.2942,91.1958
2023-02-16 21:25:08:822,-1.08861,2.54309,-9.29943,-15.5774,-7.28982,91.1878
2023-02-16 21:25:08:831,-1.0778,2.54226,-9.25191,-15.5752,-7.28858,91.1879
2023-02-16 21:25:08:842,-1.08375,2.55833,-9.22702,-15.5791,-7.29041,91.1905
2023-02-16 21:25:08:852,-1.09244,2.56832,-9.26155,-15.5928,-7.29272,91.1979
2023-02-16 21:25:08:862,-1.13157,2.5759,-9.3046,-15.6071,-7.29617,91.2089
2023-02-16 21:25:08:872,-1.17488,2.60196,-9.32189,-15.6251,-7.29986,91.2271
2023-02-16 21:25:08:881,-1.18804,2.61561,-9.35063,-15.6421,-7.30279,91.2452
2023-02-16 21:25:08:892,-1.19959,2.63419,-9.36213,-15.6552,-7.30669,91.2675
2023-02-16 21:25:08:902,-1.25711,2.64232,-9.33503,-15.6687,-7.31346,91.2902
2023-02-16 21:25:08:911,-1.30468,2.66227,-9.31207,-15.6798,-7.32097,91.3092
2023-02-16 21:25:08:922,-1.32456,2.6678,-9.32163,-15.6886,-7.32711,91.3237
2023-02-16 21:25:08:932,-1.31514,2.66743,-9.29722,-15.6952,-7.33727,91.3359
2023-02-16 21:25:08:941,-1.31182,2.6473,-9.28952,-15.7041,-7.34769,91.3455
2023-02-16 21:25:08:951,-1.33106,2.65379,-9.30875,-15.7164,-7.36079,91.3491
2023-02-16 21:25:08:962,-1.33155,2.67386,-9.33693,-15.7303,-7.37069,91.3496
2023-02-16 21:25:08:972,-1.31013,2.67275,-9.33519,-15.7447,-7.38396,91.344
2023-02-16 21:25:08:981,-1.25312,2.64971,-9.32253,-15.7593,-7.39218,91.3359
2023-02-16 21:25:08:991,-1.22366,2.6503,-9.34085,-15.7727,-7.40207,91.3248
2023-02-16 21:25:09:2,-1.25139,2.68529,-9.39731,-15.7882,-7.40761,91.315
2023-02-16 21:25:09:12,-1.27928,2.71448,-9.43499,-15.7982,-7.41107,91.3051
2023-02-16 21:25:09:22,-1.20753,2.68372,-9.40522,-15.8046,-7.41445,91.289
2023-02-16 21:25:09:31,-1.15153,2.66974,-9.39178,-15.8063,-7.41591,91.2756
2023-02-16 21:25:09:41,-1.15606,2.67045,-9.36251,-15.8084,-7.42477,91.265
2023-02-16 21:25:09:51,-1.14569,2.63908,-9.32384,-15.8113,-7.42998,91.2543
2023-02-16 21:25:09:62,-1.13174,2.65606,-9.32667,-15.8187,-7.438,91.2474
2023-02-16 21:25:09:72,-1.15958,2.66418,-9.34346,-15.8252,-7.44914,91.243
2023-02-16 21:25:09:82,-1.21808,2.67728,-9.35671,-15.8326,-7.4601,91.2411
2023-02-16 21:25:09:91,-1.26685,2.69747,-9.36588,-15.8383,-7.47025,91.2438
2023-02-16 21:25:09:102,-1.26974,2.691,-9.36177,-15.8408,-7.47934,91.2461
2023-02-16 21:25:09:112,-1.26672,2.69211,-9.36528,-15.8415,-7.48575,91.2476
2023-02-16 21:25:09:122,-1.25296,2.69132,-9.36372,-15.8392,-7.48479,91.2508
2023-02-16 21:25:09:132,-1.25002,2.6687,-9.35488,-15.834,-7.48359,91.2535
2023-02-16 21:25:09:141,-1.25693,2.66428,-9.33587,-15.8247,-7.48248,91.2565
2023-02-16 21:25:09:151,-1.26313,2.64339,-9.28953,-15.8215,-7.48555,91.2553
2023-02-16 21:25:09:162,-1.24387,2.61762,-9.28424,-15.8198,-7.48958,91.2603
2023-02-16 21:25:09:172,-1.24279,2.62927,-9.31239,-15.8191,-7.4945,91.2633
2023-02-16 21:25:09:181,-1.24834,2.65288,-9.348,-15.8212,-7.50328,91.2658
2023-02-16 21:25:09:191,-1.24184,2.65286,-9.36081,-15.8237,-7.51185,91.2688
2023-02-16 21:25:09:202,-1.25359,2.65237,-9.32968,-15.8233,-7.52158,91.2736
2023-02-16 21:25:09:212,-1.24999,2.66261,-9.33488,-15.8258,-7.53331,91.2792
2023-02-16 21:25:09:222,-1.28628,2.67249,-9.3395,-15.8258,-7.54399,91.2842
2023-02-16 21:25:09:232,-1.29901,2.66593,-9.33665,-15.8262,-7.55704,91.289
2023-02-16 21:25:09:241,-1.29654,2.6363,-9.33296,-15.827,-7.57036,91.2926
2023-02-16 21:25:09:252,-1.30451,2.62468,-9.32146,-15.8292,-7.58074,91.2995
2023-02-16 21:25:09:262,-1.32598,2.63429,-9.26942,-15.8318,-7.5936,91.3052
2023-02-16 21:25:09:271,-1.33306,2.62704,-9.25349,-15.8328,-7.59846,91.3088
2023-02-16 21:25:09:282,-1.31019,2.6407,-9.27124,-15.8386,-7.60436,91.3133
2023-02-16 21:25:09:291,-1.32724,2.65125,-9.29473,-15.8486,-7.60503,91.3189
2023-02-16 21:25:09:301,-1.33883,2.66519,-9.3278,-15.8567,-7.60623,91.3217
2023-02-16 21:25:09:311,-1.31472,2.68969,-9.33247,-15.8678,-7.6059,91.3258
2023-02-16 21:25:09:322,-1.32387,2.70213,-9.34031,-15.8744,-7.60623,91.3312
2023-02-16 21:25:09:332,-1.30345,2.69303,-9.32684,-15.877,-7.60283,91.3321
2023-02-16 21:25:09:341,-1.29324,2.6811,-9.29362,-15.8812,-7.59901,91.3312
2023-02-16 21:25:09:351,-1.29718,2.68039,-9.26087,-15.8861,-7.59755,91.3317
2023-02-16 21:25:09:362,-1.27108,2.66268,-9.26122,-15.895,-7.59607,91.3312
2023-02-16 21:25:09:372,-1.27353,2.66715,-9.28402,-15.9054,-7.59763,91.3318
2023-02-16 21:25:09:382,-1.30212,2.69252,-9.31047,-15.9229,-7.59542,91.3325
2023-02-16 21:25:09:392,-1.34349,2.73474,-9.31163,-15.9391,-7.595,91.3302
2023-02-16 21:25:09:402,-1.3332,2.72117,-9.31345,-15.9538,-7.59542,91.3285
2023-02-16 21:25:09:412,-1.31097,2.74452,-9.35495,-15.9668,-7.59055,91.3233
2023-02-16 21:25:09:421,-1.3053,2.77688,-9.41043,-15.9778,-7.58437,91.3204
2023-02-16 21:25:09:431,-1.30411,2.75338,-9.4212,-15.9814,-7.57999,91.3135
2023-02-16 21:25:09:441,-1.24129,2.73198,-9.38385,-15.9829,-7.57051,91.3069
2023-02-16 21:25:09:451,-1.18625,2.71534,-9.36129,-15.9804,-7.56067,91.2998
2023-02-16 21:25:09:462,-1.23154,2.71951,-9.36928,-15.9696,-7.54899,91.2956
2023-02-16 21:25:09:472,-1.32623,2.7509,-9.35652,-15.9593,-7.53901,91.2971
2023-02-16 21:25:09:482,-1.41046,2.77984,-9.35749,-15.943,-7.52866,91.2894
2023-02-16 21:25:09:491,-1.45973,2.80379,-9.38905,-15.9228,-7.5203,91.2717
2023-02-16 21:25:09:501,-1.4363,2.7885,-9.40805,-15.8973,-7.51273,91.2466
2023-02-16 21:25:09:511,-1.35852,2.75482,-9.39278,-15.8676,-7.50996,91.2105
2023-02-16 21:25:09:522,-1.28752,2.71426,-9.39624,-15.8373,-7.50881,91.1681
2023-02-16 21:25:09:531,-1.28734,2.69919,-9.3956,-15.8046,-7.51716,91.1214
2023-02-16 21:25:09:541,-1.32934,2.68723,-9.35387,-15.7754,-7.52832,91.0701
2023-02-16 21:25:09:551,-1.35045,2.65615,-9.30797,-15.7478,-7.54212,91.0194
2023-02-16 21:25:09:561,-1.35379,2.66557,-9.29264,-15.7231,-7.55549,90.9597
2023-02-16 21:25:09:571,-1.35023,2.70688,-9.30961,-15.6997,-7.56912,90.8998
2023-02-16 21:25:09:582,-1.33935,2.70118,-9.31229,-15.6763,-7.58331,90.8321
2023-02-16 21:25:09:592,-1.34258,2.68374,-9.31736,-15.6473,-7.59371,90.76
2023-02-16 21:25:09:602,-1.31844,2.66886,-9.29482,-15.6185,-7.60687,90.6831
2023-02-16 21:25:09:612,-1.31388,2.67656,-9.31406,-15.5868,-7.61671,90.603
2023-02-16 21:25:09:621,-1.30368,2.65767,-9.33151,-15.5512,-7.62331,90.5235
2023-02-16 21:25:09:631,-1.26081,2.62131,-9.32943,-15.512,-7.63224,90.4419
2023-02-16 21:25:09:642,-1.19795,2.59275,-9.3258,-15.4724,-7.63886,90.36
2023-02-16 21:25:09:652,-1.15209,2.57429,-9.36051,-15.4375,-7.64202,90.2786
2023-02-16 21:25:09:661,-1.13448,2.56476,-9.38134,-15.407,-7.64435,90.2045
2023-02-16 21:25:09:672,-1.13645,2.57399,-9.40061,-15.3754,-7.64907,90.1331
2023-02-16 21:25:09:682,-1.13726,2.59012,-9.38793,-15.3441,-7.6585,90.0674
2023-02-16 21:25:09:692,-1.13073,2.55218,-9.31875,-15.3132,-7.66565,90.0068
2023-02-16 21:25:09:702,-1.15466,2.52802,-9.30174,-15.2893,-7.67409,89.9565
2023-02-16 21:25:09:712,-1.17724,2.52117,-9.31454,-15.2649,-7.68099,89.9103
2023-02-16 21:25:09:721,-1.18441,2.53332,-9.32808,-15.2442,-7.68132,89.8658
2023-02-16 21:25:09:731,-1.15925,2.53323,-9.34173,-15.2285,-7.68383,89.8307
2023-02-16 21:25:09:742,-1.12074,2.49089,-9.34613,-15.2135,-7.68487,89.7977
2023-02-16 21:25:09:752,-1.11896,2.48694,-9.3377,-15.2003,-7.68424,89.774
2023-02-16 21:25:09:761,-1.1549,2.49097,-9.33288,-15.1887,-7.68697,89.7538
2023-02-16 21:25:09:771,-1.14666,2.50029,-9.34088,-15.1777,-7.68848,89.7424
2023-02-16 21:25:09:782,-1.13471,2.50172,-9.32323,-15.1715,-7.68924,89.7372
2023-02-16 21:25:09:792,-1.17014,2.5044,-9.31566,-15.1683,-7.68942,89.737
2023-02-16 21:25:09:801,-1.18229,2.52253,-9.34452,-15.1652,-7.6879,89.7362
2023-02-16 21:25:09:811,-1.16589,2.53052,-9.35001,-15.1661,-7.69049,89.7384
2023-02-16 21:25:09:821,-1.21821,2.5388,-9.35924,-15.1631,-7.69275,89.7457
2023-02-16 21:25:09:831,-1.29105,2.56993,-9.37327,-15.1586,-7.6961,89.7567
2023-02-16 21:25:09:842,-1.32705,2.55809,-9.34677,-15.1524,-7.6996,89.7641
2023-02-16 21:25:09:852,-1.33746,2.53832,-9.31192,-15.148,-7.70426,89.7684
2023-02-16 21:25:09:862,-1.32475,2.52612,-9.32392,-15.1474,-7.71258,89.7691
2023-02-16 21:25:09:872,-1.30119,2.51468,-9.33344,-15.1487,-7.72367,89.7661
2023-02-16 21:25:09:881,-1.28386,2.53602,-9.35377,-15.1526,-7.73726,89.7641
2023-02-16 21:25:09:892,-1.29608,2.55617,-9.35894,-15.1543,-7.75016,89.7643
2023-02-16 21:25:09:901,-1.33106,2.5389,-9.36044,-15.1581,-7.76355,89.7633
2023-02-16 21:25:09:911,-1.35053,2.53001,-9.36961,-15.1619,-7.77685,89.7656
2023-02-16 21:25:09:922,-1.35834,2.54951,-9.38674,-15.161,-7.78433,89.7628
2023-02-16 21:25:09:932,-1.37667,2.5746,-9.38619,-15.1641,-7.79075,89.7632
2023-02-16 21:25:09:941,-1.41252,2.56849,-9.36696,-15.1614,-7.79425,89.7592
2023-02-16 21:25:09:952,-1.42628,2.56542,-9.32606,-15.1547,-7.79443,89.7545
2023-02-16 21:25:09:962,-1.41038,2.55929,-9.30153,-15.1518,-7.7918,89.7468
2023-02-16 21:25:09:972,-1.40394,2.53116,-9.26964,-15.1497,-7.78803,89.7374
2023-02-16 21:25:09:982,-1.36265,2.51419,-9.25911,-15.1532,-7.7852,89.7227
2023-02-16 21:25:09:991,-1.32538,2.52697,-9.29762,-15.1623,-7.78231,89.703
2023-02-16 21:25:10:2,-1.2999,2.55089,-9.34718,-15.1704,-7.77878,89.683
2023-02-16 21:25:10:12,-1.27919,2.56981,-9.36819,-15.1784,-7.77887,89.6699
2023-02-16 21:25:10:22,-1.2894,2.58957,-9.39392,-15.1836,-7.77563,89.6591
2023-02-16 21:25:10:32,-1.29304,2.59349,-9.41605,-15.1859,-7.77447,89.6505
2023-02-16 21:25:10:41,-1.31865,2.57633,-9.41416,-15.1862,-7.77397,89.642
2023-02-16 21:25:10:51,-1.32424,2.57735,-9.39649,-15.184,-7.76846,89.6356
2023-02-16 21:25:10:61,-1.30714,2.57308,-9.33814,-15.1821,-7.76108,89.6298
2023-02-16 21:25:10:72,-1.30034,2.55918,-9.32199,-15.1789,-7.75516,89.6268
2023-02-16 21:25:10:82,-1.3037,2.58363,-9.33198,-15.1775,-7.74689,89.624
2023-02-16 21:25:10:92,-1.32327,2.61916,-9.35979,-15.1741,-7.73725,89.6192
2023-02-16 21:25:10:102,-1.34131,2.60551,-9.36326,-15.1708,-7.72543,89.6122
2023-02-16 21:25:10:111,-1.33967,2.60739,-9.33659,-15.1671,-7.71968,89.6075
2023-02-16 21:25:10:122,-1.32385,2.59851,-9.32535,-15.1643,-7.7087,89.5984
2023-02-16 21:25:10:132,-1.29955,2.58982,-9.32012,-15.1606,-7.70505,89.5944
2023-02-16 21:25:10:142,-1.30938,2.59762,-9.32655,-15.1616,-7.699,89.5889
2023-02-16 21:25:10:152,-1.32147,2.59122,-9.34578,-15.1631,-7.69392,89.5852
2023-02-16 21:25:10:162,-1.32915,2.59161,-9.35172,-15.1615,-7.69081,89.582
2023-02-16 21:25:10:171,-1.35477,2.5967,-9.3752,-15.1604,-7.68766,89.5739
2023-02-16 21:25:10:182,-1.38011,2.61952,-9.39972,-15.1562,-7.68375,89.5661
2023-02-16 21:25:10:192,-1.38667,2.62598,-9.41292,-15.1507,-7.6775,89.552
2023-02-16 21:25:10:201,-1.37565,2.59834,-9.39082,-15.1393,-7.67461,89.5328
2023-02-16 21:25:10:212,-1.34878,2.58723,-9.35631,-15.1304,-7.67441,89.5108
2023-02-16 21:25:10:221,-1.31792,2.57383,-9.33903,-15.1219,-7.6761,89.484
2023-02-16 21:25:10:232,-1.30271,2.55717,-9.32864,-15.1163,-7.67848,89.46
2023-02-16 21:25:10:242,-1.30422,2.55466,-9.3097,-15.1145,-7.68407,89.4368
2023-02-16 21:25:10:252,-1.30857,2.57289,-9.31648,-15.1195,-7.6878,89.4151
2023-02-16 21:25:10:261,-1.31357,2.58594,-9.32835,-15.1225,-7.69169,89.3972
2023-02-16 21:25:10:272,-1.32245,2.60075,-9.30999,-15.1233,-7.69149,89.378
2023-02-16 21:25:10:282,-1.31736,2.58489,-9.31987,-15.1245,-7.68438,89.3616
2023-02-16 21:25:10:291,-1.30805,2.5793,-9.32683,-15.1237,-7.67542,89.3422
2023-02-16 21:25:10:301,-1.28174,2.55311,-9.30531,-15.1234,-7.66199,89.3247
2023-02-16 21:25:10:312,-1.28716,2.54107,-9.28652,-15.1262,-7.64714,89.3075
2023-02-16 21:25:10:321,-1.28854,2.55428,-9.29818,-15.129,-7.63674,89.2924
2023-02-16 21:25:10:332,-1.25744,2.51748,-9.3001,-15.1285,-7.62567,89.2761
2023-02-16 21:25:10:342,-1.23847,2.47941,-9.27909,-15.1304,-7.61462,89.2643
2023-02-16 21:25:10:352,-1.24626,2.47375,-9.30584,-15.1383,-7.60387,89.2515
2023-02-16 21:25:10:362,-1.24554,2.51979,-9.35486,-15.1488,-7.59378,89.2365
2023-02-16 21:25:10:372,-1.21285,2.5238,-9.36764,-15.161,-7.58328,89.2227
2023-02-16 21:25:10:382,-1.19671,2.50313,-9.33402,-15.1735,-7.576,89.2122
2023-02-16 21:25:10:392,-1.21387,2.50117,-9.33918,-15.1905,-7.57176,89.2061
2023-02-16 21:25:10:402,-1.23773,2.55454,-9.43351,-15.2084,-7.56272,89.1999
2023-02-16 21:25:10:412,-1.26011,2.61815,-9.44829,-15.2215,-7.55247,89.1943
2023-02-16 21:25:10:422,-1.24766,2.61712,-9.39591,-15.2335,-7.5462,89.1886
2023-02-16 21:25:10:432,-1.23465,2.59648,-9.32833,-15.2422,-7.5431,89.1804
2023-02-16 21:25:10:442,-1.22843,2.55231,-9.31795,-15.254,-7.53597,89.1738
2023-02-16 21:25:10:452,-1.25736,2.61238,-9.40665,-15.2664,-7.53449,89.1663
2023-02-16 21:25:10:462,-1.3038,2.66644,-9.46365,-15.2759,-7.5364,89.1621
2023-02-16 21:25:10:472,-1.26624,2.67347,-9.45719,-15.2789,-7.53533,89.1536
2023-02-16 21:25:10:482,-1.22533,2.63935,-9.43553,-15.2809,-7.53446,89.1449
2023-02-16 21:25:10:492,-1.23816,2.61519,-9.39697,-15.2797,-7.53271,89.1395
2023-02-16 21:25:10:502,-1.24755,2.60493,-9.37986,-15.2749,-7.52882,89.1342
2023-02-16 21:25:10:512,-1.22307,2.59618,-9.38248,-15.27,-7.52208,89.1312
2023-02-16 21:25:10:521,-1.21584,2.60674,-9.38714,-15.2616,-7.51209,89.1293
2023-02-16 21:25:10:532,-1.2322,2.60396,-9.36115,-15.2532,-7.50826,89.1332
2023-02-16 21:25:10:542,-1.22302,2.59462,-9.35624,-15.2435,-7.50216,89.1361
2023-02-16 21:25:10:551,-1.20742,2.58172,-9.3673,-15.2323,-7.49198,89.14
2023-02-16 21:25:10:561,-1.20937,2.56557,-9.3719,-15.2206,-7.48391,89.1435
2023-02-16 21:25:10:571,-1.17879,2.55277,-9.35998,-15.2136,-7.4794,89.1497
2023-02-16 21:25:10:581,-1.16032,2.55258,-9.38509,-15.2044,-7.46972,89.1568
2023-02-16 21:25:10:592,-1.18346,2.57258,-9.42042,-15.1976,-7.4656,89.1711
2023-02-16 21:25:10:602,-1.20779,2.57535,-9.43373,-15.1878,-7.45933,89.1861
2023-02-16 21:25:10:612,-1.21438,2.55205,-9.40904,-15.1746,-7.45797,89.2036
2023-02-16 21:25:10:622,-1.21261,2.53585,-9.36839,-15.1615,-7.45384,89.2235
2023-02-16 21:25:10:632,-1.22238,2.53695,-9.33997,-15.1463,-7.4518,89.244
2023-02-16 21:25:10:642,-1.2465,2.52841,-9.32328,-15.1311,-7.44821,89.2623
2023-02-16 21:25:10:652,-1.25162,2.50109,-9.3097,-15.1176,-7.44265,89.282
2023-02-16 21:25:10:662,-1.23147,2.50736,-9.30922,-15.1074,-7.43572,89.2999
2023-02-16 21:25:10:672,-1.24156,2.51311,-9.32107,-15.0986,-7.43177,89.3127
2023-02-16 21:25:10:681,-1.23889,2.50781,-9.33389,-15.096,-7.42894,89.3239
2023-02-16 21:25:10:692,-1.21229,2.51989,-9.349,-15.0903,-7.43066,89.3291
2023-02-16 21:25:10:702,-1.21692,2.53604,-9.37468,-15.0916,-7.43722,89.3366
2023-02-16 21:25:10:712,-1.22387,2.5514,-9.39879,-15.0932,-7.44364,89.3455
2023-02-16 21:25:10:722,-1.24801,2.56274,-9.45605,-15.0885,-7.45455,89.354
2023-02-16 21:25:10:732,-1.26731,2.60943,-9.43888,-15.0812,-7.46745,89.3615
2023-02-16 21:25:10:742,-1.24733,2.49782,-9.2763,-15.0706,-7.47798,89.3673
2023-02-16 21:25:10:752,-1.24919,2.47491,-9.25458,-15.0682,-7.49293,89.3778
2023-02-16 21:25:10:762,-1.28713,2.50998,-9.32033,-15.0721,-7.51079,89.3871
2023-02-16 21:25:10:772,-1.31269,2.52159,-9.34042,-15.0757,-7.52633,89.3989
2023-02-16 21:25:10:782,-1.33198,2.51426,-9.33385,-15.0786,-7.53709,89.4085
2023-02-16 21:25:10:792,-1.34643,2.52033,-9.33641,-15.0837,-7.55169,89.42
2023-02-16 21:25:10:802,-1.33658,2.54192,-9.34441,-15.0917,-7.55929,89.4258
2023-02-16 21:25:10:812,-1.33314,2.55471,-9.35806,-15.1006,-7.56293,89.4299
2023-02-16 21:25:10:822,-1.32854,2.55656,-9.39967,-15.1071,-7.56256,89.4371
2023-02-16 21:25:10:832,-1.3304,2.57358,-9.39698,-15.108,-7.56232,89.4377
2023-02-16 21:25:10:842,-1.3229,2.58031,-9.3768,-15.1104,-7.55714,89.4426
2023-02-16 21:25:10:852,-1.3018,2.56642,-9.33012,-15.1095,-7.55224,89.44
2023-02-16 21:25:10:862,-1.25018,2.53544,-9.32571,-15.1103,-7.54122,89.4412
2023-02-16 21:25:10:872,-1.22523,2.55981,-9.36927,-15.1128,-7.52822,89.4415
2023-02-16 21:25:10:882,-1.20796,2.57082,-9.42859,-15.115,-7.52253,89.4462
2023-02-16 21:25:10:892,-1.16708,2.55441,-9.43876,-15.1122,-7.5191,89.4499
2023-02-16 21:25:10:902,-1.16637,2.56641,-9.44158,-15.1148,-7.5213,89.4605
2023-02-16 21:25:10:912,-1.21299,2.59673,-9.48881,-15.1106,-7.52304,89.4772
2023-02-16 21:25:10:922,-1.271,2.63055,-9.50671,-15.1017,-7.52368,89.4977
2023-02-16 21:25:10:932,-1.30788,2.64324,-9.4913,-15.0865,-7.51656,89.5236
2023-02-16 21:25:10:942,-1.34662,2.63609,-9.47179,-15.0658,-7.51005,89.5519
2023-02-16 21:25:10:952,-1.36539,2.61291,-9.41929,-15.0432,-7.49941,89.5798
2023-02-16 21:25:10:962,-1.36445,2.57816,-9.3426,-15.0146,-7.48155,89.6054
2023-02-16 21:25:10:972,-1.33668,2.51828,-9.25916,-14.9799,-7.45597,89.6291
2023-02-16 21:25:10:981,-1.28139,2.47409,-9.20327,-14.9493,-7.43027,89.6524
2023-02-16 21:25:10:992,-1.24046,2.4441,-9.16475,-14.9273,-7.40527,89.6749
2023-02-16 21:25:11:1,-1.22684,2.44348,-9.20426,-14.9112,-7.38277,89.6968
2023-02-16 21:25:11:11,-1.23179,2.46243,-9.28221,-14.9011,-7.361,89.7197
2023-02-16 21:25:11:22,-1.2503,2.48819,-9.35055,-14.8922,-7.33874,89.7449
2023-02-16 21:25:11:31,-1.26063,2.50912,-9.38075,-14.8799,-7.31235,89.7671
2023-02-16 21:25:11:42,-1.23467,2.5008,-9.3688,-14.8728,-7.28297,89.7892
2023-02-16 21:25:11:52,-1.19178,2.47335,-9.345,-14.8643,-7.25304,89.8083
2023-02-16 21:25:11:62,-1.19592,2.46346,-9.35855,-14.8581,-7.22503,89.828
2023-02-16 21:25:11:72,-1.18406,2.46553,-9.3297,-14.8516,-7.19378,89.8476
2023-02-16 21:25:11:81,-1.17211,2.44792,-9.31652,-14.8531,-7.16499,89.8686
2023-02-16 21:25:11:92,-1.1442,2.4743,-9.35922,-14.8573,-7.13721,89.8818
2023-02-16 21:25:11:102,-1.12691,2.50705,-9.38635,-14.8594,-7.1069,89.8956
2023-02-16 21:25:11:112,-1.12976,2.47637,-9.35159,-14.8616,-7.08007,89.9128
2023-02-16 21:25:11:122,-1.11427,2.44692,-9.29382,-14.8639,-7.05258,89.9246
2023-02-16 21:25:11:132,-1.08599,2.44055,-9.25935,-14.8757,-7.02775,89.9354
2023-02-16 21:25:11:142,-1.0733,2.43207,-9.24646,-14.8922,-6.99606,89.9507
2023-02-16 21:25:11:152,-1.06053,2.43688,-9.29977,-14.9126,-6.96234,89.9658
2023-02-16 21:25:11:162,-1.06705,2.48522,-9.3923,-14.9378,-6.93276,89.9846
2023-02-16 21:25:11:172,-1.0577,2.50732,-9.45767,-14.963,-6.90382,90.0066
2023-02-16 21:25:11:182,-1.0374,2.52636,-9.47016,-14.9877,-6.87869,90.0326
2023-02-16 21:25:11:192,-1.02611,2.54344,-9.45075,-15.0127,-6.85482,90.0595
2023-02-16 21:25:11:202,-1.01792,2.56253,-9.45937,-15.0324,-6.83485,90.0861
2023-02-16 21:25:11:212,-1.00427,2.57029,-9.43197,-15.0464,-6.81225,90.1204
2023-02-16 21:25:11:222,-0.977249,2.54305,-9.38001,-15.0607,-6.78769,90.1575
2023-02-16 21:25:11:232,-0.956981,2.53041,-9.34639,-15.074,-6.76163,90.1957
2023-02-16 21:25:11:242,-0.939889,2.56191,-9.35761,-15.0958,-6.7326,90.2356
2023-02-16 21:25:11:252,-0.905473,2.58175,-9.39662,-15.115,-6.70055,90.2814
2023-02-16 21:25:11:262,-0.841657,2.59371,-9.45984,-15.1343,-6.66702,90.334
2023-02-16 21:25:11:272,-0.783656,2.60219,-9.52735,-15.1512,-6.63326,90.396
2023-02-16 21:25:11:282,-0.757724,2.62417,-9.58016,-15.1583,-6.60795,90.4695
2023-02-16 21:25:11:292,-0.744487,2.63187,-9.61167,-15.1608,-6.58655,90.5596
2023-02-16 21:25:11:302,-0.706337,2.62836,-9.58924,-15.157,-6.57415,90.6624
2023-02-16 21:25:11:312,-0.669145,2.60376,-9.53943,-15.1475,-6.56822,90.7811
2023-02-16 21:25:11:322,-0.676924,2.58016,-9.49045,-15.137,-6.56887,90.9199
2023-02-16 21:25:11:332,-0.726228,2.55709,-9.43326,-15.1232,-6.57372,91.0773
2023-02-16 21:25:11:342,-0.786948,2.52635,-9.38272,-15.1105,-6.57809,91.2493
2023-02-16 21:25:11:352,-0.858835,2.52925,-9.36633,-15.1003,-6.58662,91.4363
2023-02-16 21:25:11:362,-0.921589,2.53057,-9.36812,-15.092,-6.59496,91.6351
2023-02-16 21:25:11:372,-0.986799,2.51265,-9.35987,-15.082,-6.60155,91.8417
2023-02-16 21:25:11:382,-1.04787,2.52728,-9.36183,-15.0726,-6.60847,92.0556
2023-02-16 21:25:11:392,-1.09369,2.53325,-9.37534,-15.0631,-6.61261,92.2716
2023-02-16 21:25:11:402,-1.14194,2.54475,-9.39745,-15.0546,-6.61071,92.4927
2023-02-16 21:25:11:412,-1.17161,2.55985,-9.38286,-15.048,-6.61418,92.7154
2023-02-16 21:25:11:422,-1.21813,2.55946,-9.37766,-15.0402,-6.61661,92.9375
2023-02-16 21:25:11:432,-1.28653,2.54141,-9.36614,-15.0317,-6.61946,93.1553
2023-02-16 21:25:11:442,-1.31398,2.53962,-9.32608,-15.0205,-6.62232,93.3712
2023-02-16 21:25:11:452,-1.32765,2.52487,-9.30517,-15.0111,-6.62605,93.5761
2023-02-16 21:25:11:462,-1.34255,2.51071,-9.29927,-15.0035,-6.62588,93.7722
2023-02-16 21:25:11:472,-1.37301,2.50549,-9.27879,-14.9985,-6.62912,93.9633
2023-02-16 21:25:11:482,-1.39724,2.50021,-9.28565,-14.9957,-6.63066,94.1415
2023-02-16 21:25:11:492,-1.41408,2.52355,-9.33567,-14.996,-6.63437,94.3085
2023-02-16 21:25:11:502,-1.42611,2.53995,-9.34975,-14.9973,-6.63836,94.4624
2023-02-16 21:25:11:512,-1.43315,2.52241,-9.30576,-15.0023,-6.64061,94.6041
2023-02-16 21:25:11:522,-1.44687,2.48768,-9.28523,-15.0051,-6.64307,94.7318
2023-02-16 21:25:11:532,-1.44923,2.49965,-9.34471,-15.0119,-6.65148,94.8435
2023-02-16 21:25:11:542,-1.46062,2.53208,-9.38006,-15.0165,-6.66247,94.9354
2023-02-16 21:25:11:552,-1.46786,2.52678,-9.33962,-15.0245,-6.67703,95.0131
2023-02-16 21:25:11:562,-1.44862,2.50253,-9.30365,-15.0302,-6.69673,95.0703
2023-02-16 21:25:11:572,-1.46501,2.49078,-9.27884,-15.0383,-6.72131,95.113
2023-02-16 21:25:11:582,-1.49529,2.52484,-9.28786,-15.0548,-6.74786,95.1365
2023-02-16 21:25:11:592,-1.52118,2.57541,-9.29913,-15.0729,-6.77664,95.1476
2023-02-16 21:25:11:602,-1.51955,2.59915,-9.29837,-15.0921,-6.80113,95.1394
2023-02-16 21:25:11:611,-1.47177,2.62079,-9.32235,-15.1175,-6.82303,95.1155
2023-02-16 21:25:11:622,-1.39249,2.63106,-9.33719,-15.1378,-6.83985,95.0776
2023-02-16 21:25:11:632,-1.33655,2.63796,-9.33773,-15.1552,-6.85414,95.0323
2023-02-16 21:25:11:642,-1.30624,2.64791,-9.34028,-15.175,-6.87287,94.9792
2023-02-16 21:25:11:652,-1.30967,2.65049,-9.36777,-15.1928,-6.88702,94.9235
2023-02-16 21:25:11:662,-1.32108,2.66332,-9.36755,-15.2017,-6.89994,94.8568
2023-02-16 21:25:11:672,-1.3072,2.67337,-9.39599,-15.2101,-6.90823,94.784
2023-02-16 21:25:11:682,-1.27713,2.68894,-9.40498,-15.2108,-6.91226,94.7024
2023-02-16 21:25:11:692,-1.24767,2.66914,-9.38645,-15.2104,-6.91636,94.6154
2023-02-16 21:25:11:702,-1.22305,2.64804,-9.36939,-15.2089,-6.92076,94.5247
2023-02-16 21:25:11:712,-1.21117,2.64922,-9.37204,-15.2068,-6.92648,94.4293
2023-02-16 21:25:11:722,-1.19508,2.64835,-9.37221,-15.2081,-6.93552,94.3342
2023-02-16 21:25:11:732,-1.17973,2.62729,-9.37023,-15.2088,-6.94196,94.2361
2023-02-16 21:25:11:742,-1.16543,2.63952,-9.40639,-15.204,-6.94968,94.1373
2023-02-16 21:25:11:752,-1.1804,2.67288,-9.46646,-15.2008,-6.95567,94.0364
2023-02-16 21:25:11:762,-1.19712,2.67208,-9.45427,-15.1934,-6.96162,93.938
2023-02-16 21:25:11:772,-1.18826,2.6309,-9.41081,-15.1805,-6.96155,93.8381
2023-02-16 21:25:11:781,-1.14556,2.60001,-9.39488,-15.1643,-6.96063,93.7367
2023-02-16 21:25:11:792,-1.1267,2.59378,-9.37265,-15.1478,-6.96179,93.6378
2023-02-16 21:25:11:802,-1.13483,2.56238,-9.34634,-15.1315,-6.96653,93.5355
2023-02-16 21:25:11:812,-1.13818,2.53225,-9.33431,-15.1169,-6.96829,93.4358
2023-02-16 21:25:11:822,-1.12863,2.51712,-9.41525,-15.1014,-6.97566,93.3343
2023-02-16 21:25:11:831,-1.13335,2.59003,-9.50362,-15.0867,-6.9832,93.2354
2023-02-16 21:25:11:842,-1.15198,2.55467,-9.41016,-15.0644,-6.98775,93.1383
2023-02-16 21:25:11:852,-1.15794,2.4871,-9.31538,-15.0418,-6.98941,93.0448
2023-02-16 21:25:11:862,-1.15708,2.49918,-9.31878,-15.0243,-6.99193,92.9486
2023-02-16 21:25:11:872,-1.1783,2.51911,-9.3111,-15.011,-6.99684,92.8521
2023-02-16 21:25:11:882,-1.20722,2.50358,-9.26495,-15.0014,-6.99964,92.7566
2023-02-16 21:25:11:892,-1.20916,2.47818,-9.23243,-14.9924,-6.9975,92.6583
2023-02-16 21:25:11:902,-1.19934,2.46383,-9.25371,-14.9911,-6.99803,92.5598
2023-02-16 21:25:11:912,-1.18208,2.50242,-9.29215,-14.9914,-6.99488,92.4581
2023-02-16 21:25:11:922,-1.15978,2.50107,-9.30131,-14.9961,-6.99232,92.3552
2023-02-16 21:25:11:931,-1.13001,2.50794,-9.3376,-15.0046,-6.99658,92.2536
2023-02-16 21:25:11:942,-1.1153,2.54043,-9.41883,-15.0127,-6.99806,92.1538
2023-02-16 21:25:11:952,-1.12737,2.58719,-9.48858,-15.0196,-7.00327,92.0565
2023-02-16 21:25:11:962,-1.12889,2.63316,-9.51476,-15.0189,-7.00718,91.9621
2023-02-16 21:25:11:972,-1.10318,2.6304,-9.50933,-15.0117,-7.00785,91.8712
2023-02-16 21:25:11:982,-1.08864,2.61073,-9.45185,-15.0012,-7.00679,91.7813
2023-02-16 21:25:11:992,-1.06571,2.57439,-9.41579,-14.9873,-7.00561,91.6954
2023-02-16 21:25:12:2,-1.04323,2.55533,-9.39345,-14.9758,-7.00389,91.6204
2023-02-16 21:25:12:12,-1.03167,2.5516,-9.37837,-14.9648,-7.00295,91.5498
2023-02-16 21:25:12:22,-1.01632,2.54869,-9.40327,-14.955,-6.99904,91.4843
2023-02-16 21:25:12:32,-1.03031,2.54713,-9.44856,-14.9434,-6.99585,91.4234
2023-02-16 21:25:12:42,-1.05028,2.55565,-9.44418,-14.9278,-6.99378,91.3763
2023-02-16 21:25:12:52,-1.06591,2.55297,-9.41746,-14.9094,-6.99145,91.3317
2023-02-16 21:25:12:62,-1.07637,2.54845,-9.41076,-14.8901,-6.99133,91.2884
2023-02-16 21:25:12:72,-1.06889,2.53208,-9.39233,-14.8683,-6.98814,91.2539
2023-02-16 21:25:12:82,-1.08046,2.49942,-9.37452,-14.8485,-6.98482,91.2242
2023-02-16 21:25:12:92,-1.08458,2.47828,-9.36098,-14.8258,-6.9842,91.1968
2023-02-16 21:25:12:102,-1.09287,2.4627,-9.34385,-14.8075,-6.98171,91.1775
2023-02-16 21:25:12:112,-1.09715,2.44493,-9.34972,-14.7897,-6.97806,91.159
2023-02-16 21:25:12:122,-1.11726,2.42902,-9.37427,-14.7732,-6.97097,91.1394
2023-02-16 21:25:12:132,-1.11938,2.42713,-9.39079,-14.7572,-6.96703,91.1225
2023-02-16 21:25:12:142,-1.11538,2.41476,-9.38249,-14.7444,-6.96729,91.108
2023-02-16 21:25:12:152,-1.13244,2.42474,-9.39722,-14.7313,-6.96853,91.091
2023-02-16 21:25:12:162,-1.143,2.4298,-9.40687,-14.718,-6.96763,91.0765
2023-02-16 21:25:12:172,-1.13764,2.40977,-9.38467,-14.704,-6.96543,91.0584
2023-02-16 21:25:12:182,-1.13889,2.40262,-9.37521,-14.6924,-6.96666,91.0395
2023-02-16 21:25:12:192,-1.1419,2.42493,-9.41432,-14.681,-6.96474,91.0198
2023-02-16 21:25:12:202,-1.13941,2.44456,-9.43197,-14.6671,-6.96375,90.9984
2023-02-16 21:25:12:212,-1.11637,2.42573,-9.43174,-14.6547,-6.96214,90.9789
2023-02-16 21:25:12:222,-1.08145,2.40165,-9.41583,-14.6409,-6.96517,90.9592
2023-02-16 21:25:12:232,-1.07112,2.38589,-9.38226,-14.6318,-6.97394,90.9408
2023-02-16 21:25:12:242,-1.0786,2.36718,-9.37519,-14.6265,-6.98164,90.9267
2023-02-16 21:25:12:252,-1.09877,2.38759,-9.36746,-14.6252,-6.99244,90.9172
2023-02-16 21:25:12:262,-1.13719,2.41284,-9.38593,-14.6265,-7.00381,90.9085
2023-02-16 21:25:12:271,-1.14503,2.43838,-9.39182,-14.6295,-7.01552,90.9013
2023-02-16 21:25:12:281,-1.14239,2.45722,-9.39064,-14.6346,-7.02404,90.8964
2023-02-16 21:25:12:292,-1.14308,2.44491,-9.39682,-14.6405,-7.03278,90.8919
2023-02-16 21:25:12:302,-1.15781,2.42949,-9.37866,-14.6449,-7.036,90.8899
2023-02-16 21:25:12:312,-1.17367,2.43497,-9.36383,-14.6504,-7.0393,90.8873
2023-02-16 21:25:12:322,-1.18226,2.44748,-9.36339,-14.6513,-7.03954,90.8893
2023-02-16 21:25:12:332,-1.16554,2.42475,-9.31736,-14.65,-7.03814,90.8894
2023-02-16 21:25:12:342,-1.16913,2.40856,-9.31618,-14.6551,-7.03439,90.8915
2023-02-16 21:25:12:352,-1.17961,2.43087,-9.35458,-14.6579,-7.02911,90.8924
2023-02-16 21:25:12:362,-1.18899,2.47402,-9.41378,-14.6656,-7.02631,90.8949
2023-02-16 21:25:12:372,-1.18298,2.49875,-9.46103,-14.6724,-7.02113,90.8951
2023-02-16 21:25:12:382,-1.15416,2.50541,-9.45212,-14.676,-7.01846,90.8943
2023-02-16 21:25:12:392,-1.1487,2.48855,-9.42352,-14.6827,-7.01523,90.889
2023-02-16 21:25:12:402,-1.17649,2.49656,-9.42303,-14.6871,-7.01675,90.8857
2023-02-16 21:25:12:412,-1.18962,2.49484,-9.42686,-14.6898,-7.019,90.8829
2023-02-16 21:25:12:422,-1.16592,2.50425,-9.45475,-14.6917,-7.0171,90.8816
2023-02-16 21:25:12:432,-1.11336,2.49012,-9.46115,-14.6886,-7.01426,90.8759
2023-02-16 21:25:12:442,-1.10661,2.46333,-9.44185,-14.6827,-7.01611,90.8712
2023-02-16 21:25:12:452,-1.14195,2.46766,-9.40904,-14.6775,-7.01896,90.8711
2023-02-16 21:25:12:462,-1.14915,2.46223,-9.37493,-14.6744,-7.01758,90.8726
2023-02-16 21:25:12:472,-1.15449,2.45243,-9.35601,-14.6699,-7.01883,90.8722
2023-02-16 21:25:12:482,-1.16104,2.44482,-9.35533,-14.6702,-7.01951,90.8739
2023-02-16 21:25:12:492,-1.14984,2.4516,-9.38072,-14.6699,-7.02159,90.8746
2023-02-16 21:25:12:502,-1.14647,2.45168,-9.39204,-14.6688,-7.02504,90.8774
2023-02-16 21:25:12:512,-1.14767,2.44677,-9.37349,-14.6687,-7.02961,90.8776
2023-02-16 21:25:12:522,-1.14424,2.42771,-9.36012,-14.6707,-7.03229,90.8775
2023-02-16 21:25:12:532,-1.1619,2.44564,-9.3735,-14.6751,-7.03749,90.8799
2023-02-16 21:25:12:542,-1.16878,2.46291,-9.37489,-14.6793,-7.04466,90.8812
2023-02-16 21:25:12:552,-1.17651,2.4524,-9.3752,-14.6827,-7.04884,90.8842
2023-02-16 21:25:12:562,-1.17859,2.46185,-9.37612,-14.6926,-7.05179,90.8897
2023-02-16 21:25:12:572,-1.17996,2.48742,-9.37688,-14.698,-7.05245,90.8968
2023-02-16 21:25:12:582,-1.19323,2.47813,-9.3849,-14.7027,-7.05518,90.9054
2023-02-16 21:25:12:592,-1.18967,2.47154,-9.36656,-14.7103,-7.05859,90.9125
2023-02-16 21:25:12:602,-1.18573,2.48598,-9.37609,-14.7191,-7.05718,90.9213
2023-02-16 21:25:12:612,-1.19439,2.49004,-9.40085,-14.7275,-7.06018,90.929
2023-02-16 21:25:12:622,-1.19818,2.51139,-9.40685,-14.7344,-7.06542,90.9378
2023-02-16 21:25:12:632,-1.19847,2.52594,-9.41235,-14.7394,-7.06868,90.9446
2023-02-16 21:25:12:642,-1.20772,2.53884,-9.4236,-14.7472,-7.06659,90.9529
2023-02-16 21:25:12:652,-1.22187,2.55304,-9.4206,-14.7526,-7.06841,90.96
2023-02-16 21:25:12:662,-1.21155,2.54856,-9.41038,-14.756,-7.06809,90.967
2023-02-16 21:25:12:672,-1.20107,2.53076,-9.40033,-14.7538,-7.07185,90.9725
2023-02-16 21:25:12:681,-1.19942,2.52258,-9.4116,-14.7543,-7.07169,90.9817
2023-02-16 21:25:12:692,-1.21437,2.51329,-9.40871,-14.7519,-7.06878,90.9888
2023-02-16 21:25:12:702,-1.21624,2.5003,-9.39905,-14.7484,-7.06807,90.9987
2023-02-16 21:25:12:712,-1.21964,2.50479,-9.39945,-14.7436,-7.06859,91.0074
2023-02-16 21:25:12:722,-1.2025,2.51039,-9.37044,-14.7418,-7.06381,91.0135
2023-02-16 21:25:12:732,-1.1858,2.48931,-9.36044,-14.7377,-7.06286,91.0187
2023-02-16 21:25:12:742,-1.17327,2.46759,-9.35965,-14.7357,-7.06064,91.021
2023-02-16 21:25:12:752,-1.18298,2.45641,-9.36461,-14.73,-7.05695,91.0254
2023-02-16 21:25:12:762,-1.19517,2.46739,-9.38401,-14.7266,-7.05358,91.031
2023-02-16 21:25:12:772,-1.17191,2.45604,-9.39191,-14.7238,-7.05186,91.0332
2023-02-16 21:25:12:782,-1.1778,2.44788,-9.369,-14.7224,-7.04815,91.0354
2023-02-16 21:25:12:792,-1.1891,2.46364,-9.38308,-14.7235,-7.04637,91.0391
2023-02-16 21:25:12:802,-1.19134,2.47648,-9.39108,-14.7222,-7.04487,91.0418
2023-02-16 21:25:12:812,-1.17471,2.4689,-9.37766,-14.7241,-7.04615,91.0436
2023-02-16 21:25:12:822,-1.17513,2.45749,-9.38004,-14.7231,-7.0485,91.0464
2023-02-16 21:25:12:832,-1.17988,2.48297,-9.40267,-14.7267,-7.05199,91.0503
2023-02-16 21:25:12:842,-1.18331,2.5063,-9.42264,-14.7264,-7.05454,91.0526
2023-02-16 21:25:12:852,-1.16424,2.50729,-9.42016,-14.7255,-7.05427,91.0559
2023-02-16 21:25:12:862,-1.13687,2.49378,-9.38605,-14.7243,-7.05823,91.0564
2023-02-16 21:25:12:872,-1.1607,2.48003,-9.38906,-14.7251,-7.06628,91.0607
2023-02-16 21:25:12:882,-1.20593,2.49001,-9.36251,-14.7274,-7.07648,91.066
2023-02-16 21:25:12:892,-1.24537,2.49851,-9.32772,-14.7342,-7.08631,91.0737
2023-02-16 21:25:12:902,-1.28244,2.51093,-9.33812,-14.7445,-7.09351,91.0815
2023-02-16 21:25:12:912,-1.32091,2.54015,-9.36035,-14.7537,-7.09524,91.085
2023-02-16 21:25:12:922,-1.3182,2.54683,-9.37867,-14.7655,-7.09692,91.0864
2023-02-16 21:25:12:932,-1.31731,2.56005,-9.38962,-14.7721,-7.09558,91.0851
2023-02-16 21:25:12:942,-1.33561,2.55881,-9.38422,-14.7753,-7.09098,91.0814
2023-02-16 21:25:12:952,-1.32153,2.54606,-9.37408,-14.7781,-7.08479,91.0699
2023-02-16 21:25:12:962,-1.30285,2.54723,-9.35902,-14.7783,-7.07647,91.0531
2023-02-16 21:25:12:972,-1.27896,2.51967,-9.31758,-14.7764,-7.06717,91.0331
2023-02-16 21:25:12:982,-1.26134,2.49501,-9.30344,-14.7743,-7.0581,91.0082
2023-02-16 21:25:12:992,-1.24795,2.49962,-9.34978,-14.7771,-7.04775,90.9831
2023-02-16 21:25:13:2,-1.24394,2.51687,-9.39016,-14.7834,-7.03832,90.9558
2023-02-16 21:25:13:12,-1.22121,2.53201,-9.38228,-14.7881,-7.02741,90.9229
2023-02-16 21:25:13:22,-1.17992,2.52118,-9.36513,-14.7941,-7.01957,90.8911
2023-02-16 21:25:13:32,-1.16127,2.5169,-9.37033,-14.7997,-7.0118,90.8578
2023-02-16 21:25:13:42,-1.17071,2.54597,-9.40527,-14.8068,-7.00197,90.8216
2023-02-16 21:25:13:52,-1.14152,2.5742,-9.44695,-14.8128,-6.98802,90.7865
2023-02-16 21:25:13:62,-1.09097,2.57248,-9.46483,-14.8136,-6.97409,90.7508
2023-02-16 21:25:13:72,-1.05994,2.55926,-9.44505,-14.8122,-6.96804,90.7139
2023-02-16 21:25:13:82,-1.06027,2.53789,-9.42051,-14.8082,-6.9668,90.6828
2023-02-16 21:25:13:92,-1.085,2.5326,-9.39702,-14.8041,-6.96574,90.655
2023-02-16 21:25:13:102,-1.12855,2.52585,-9.38679,-14.8019,-6.96482,90.6275
2023-02-16 21:25:13:112,-1.12866,2.52807,-9.40977,-14.796,-6.96508,90.6027
2023-02-16 21:25:13:122,-1.08871,2.52443,-9.41681,-14.7946,-6.9658,90.5779
2023-02-16 21:25:13:132,-1.09718,2.52158,-9.41241,-14.7904,-6.96773,90.5563
2023-02-16 21:25:13:142,-1.11542,2.51756,-9.42307,-14.7821,-6.97072,90.5344
2023-02-16 21:25:13:152,-1.12047,2.52225,-9.40689,-14.7768,-6.97184,90.516
2023-02-16 21:25:13:162,-1.12466,2.50337,-9.40108,-14.7699,-6.9754,90.4998
2023-02-16 21:25:13:172,-1.13093,2.49078,-9.41174,-14.7615,-6.98009,90.4822
2023-02-16 21:25:13:182,-1.13073,2.47129,-9.4235,-14.7505,-6.9791,90.4655
2023-02-16 21:25:13:192,-1.13418,2.47066,-9.4013,-14.7402,-6.98207,90.4496
2023-02-16 21:25:13:202,-1.14262,2.44913,-9.37448,-14.7325,-6.98654,90.4366
2023-02-16 21:25:13:212,-1.15118,2.43345,-9.36019,-14.7221,-6.9915,90.4246
2023-02-16 21:25:13:222,-1.13617,2.42915,-9.35685,-14.7137,-6.99604,90.4088
2023-02-16 21:25:13:232,-1.13867,2.43414,-9.37416,-14.709,-7.00125,90.3956
2023-02-16 21:25:13:242,-1.18791,2.43498,-9.37713,-14.7057,-7.00975,90.3845
2023-02-16 21:25:13:252,-1.20995,2.43771,-9.38496,-14.7032,-7.01743,90.371
2023-02-16 21:25:13:262,-1.21851,2.44959,-9.4031,-14.7029,-7.02454,90.3525
2023-02-16 21:25:13:272,-1.21553,2.45389,-9.3982,-14.7013,-7.03349,90.3383
2023-02-16 21:25:13:282,-1.21662,2.4665,-9.40498,-14.6959,-7.03917,90.3198
2023-02-16 21:25:13:292,-1.22389,2.4675,-9.41977,-14.6928,-7.04613,90.2978
2023-02-16 21:25:13:302,-1.20578,2.44931,-9.40939,-14.6902,-7.04935,90.2757
2023-02-16 21:25:13:312,-1.17172,2.4392,-9.40199,-14.6834,-7.05262,90.2543
2023-02-16 21:25:13:322,-1.17663,2.4279,-9.39036,-14.6833,-7.05254,90.2315
2023-02-16 21:25:13:332,-1.1641,2.42386,-9.38479,-14.6808,-7.05184,90.2065
2023-02-16 21:25:13:342,-1.16956,2.41064,-9.39448,-14.6746,-7.05616,90.1878
2023-02-16 21:25:13:352,-1.17873,2.42369,-9.40638,-14.6722,-7.05494,90.1678
2023-02-16 21:25:13:362,-1.17303,2.41586,-9.41388,-14.6667,-7.05585,90.151
2023-02-16 21:25:13:372,-1.19176,2.41861,-9.39981,-14.6632,-7.05824,90.1349
2023-02-16 21:25:13:382,-1.20299,2.41436,-9.37801,-14.6586,-7.05682,90.1198
2023-02-16 21:25:13:392,-1.18712,2.40917,-9.34471,-14.658,-7.0543,90.1083
2023-02-16 21:25:13:402,-1.18268,2.41379,-9.33894,-14.6599,-7.05164,90.0982
2023-02-16 21:25:13:412,-1.1872,2.41932,-9.35945,-14.6622,-7.04749,90.0921
2023-02-16 21:25:13:422,-1.19203,2.42706,-9.37461,-14.6676,-7.0439,90.0832
2023-02-16 21:25:13:432,-1.18416,2.42696,-9.37656,-14.6747,-7.03818,90.0783
2023-02-16 21:25:13:442,-1.20903,2.43905,-9.36792,-14.6796,-7.03006,90.0724
2023-02-16 21:25:13:452,-1.2119,2.44706,-9.35819,-14.6866,-7.01585,90.07
2023-02-16 21:25:13:462,-1.19212,2.44028,-9.35447,-14.6929,-7.00355,90.0689
2023-02-16 21:25:13:472,-1.19621,2.45028,-9.39863,-14.702,-6.98596,90.0692
2023-02-16 21:25:13:482,-1.20458,2.4951,-9.48024,-14.7062,-6.97097,90.0639
2023-02-16 21:25:13:492,-1.20243,2.52941,-9.52118,-14.7102,-6.95797,90.0597
2023-02-16 21:25:13:502,-1.16633,2.51435,-9.49146,-14.7072,-6.94346,90.0548
2023-02-16 21:25:13:512,-1.12907,2.48223,-9.42773,-14.7017,-6.9301,90.0497
2023-02-16 21:25:13:522,-1.11422,2.48214,-9.38885,-14.6974,-6.91871,90.0436
2023-02-16 21:25:13:532,-1.12547,2.47006,-9.37544,-14.6944,-6.91084,90.0366
2023-02-16 21:25:13:542,-1.14339,2.46959,-9.36211,-14.697,-6.90681,90.0325
2023-02-16 21:25:13:552,-1.13107,2.47679,-9.36503,-14.6999,-6.90158,90.0282
2023-02-16 21:25:13:562,-1.11944,2.49838,-9.36145,-14.7049,-6.89618,90.0258
2023-02-16 21:25:13:572,-1.12025,2.51901,-9.37907,-14.7092,-6.89034,90.0252
2023-02-16 21:25:13:582,-1.14065,2.52878,-9.4095,-14.7113,-6.88537,90.0252
2023-02-16 21:25:13:592,-1.12949,2.53144,-9.40971,-14.7094,-6.87914,90.0224
2023-02-16 21:25:13:602,-1.11838,2.51879,-9.38647,-14.7019,-6.87123,90.0191
2023-02-16 21:25:13:612,-1.11186,2.50889,-9.36149,-14.694,-6.86222,90.014
2023-02-16 21:25:13:622,-1.09512,2.5056,-9.36271,-14.6866,-6.85477,90.0116
2023-02-16 21:25:13:632,-1.0879,2.49283,-9.37636,-14.6787,-6.84951,90.0062
2023-02-16 21:25:13:642,-1.07533,2.48195,-9.40467,-14.6727,-6.84909,90.0007
2023-02-16 21:25:13:652,-1.08258,2.51565,-9.42132,-14.6684,-6.8531,90.0022
2023-02-16 21:25:13:662,-1.09433,2.50709,-9.42919,-14.6661,-6.85832,90.0006
2023-02-16 21:25:13:672,-1.11187,2.48748,-9.41422,-14.6634,-6.86757,89.999
2023-02-16 21:25:13:682,-1.13128,2.52463,-9.41932,-14.6595,-6.87979,90.001
2023-02-16 21:25:13:692,-1.13988,2.52405,-9.45161,-14.6553,-6.8868,90.0033
2023-02-16 21:25:13:702,-1.12524,2.51955,-9.45457,-14.6459,-6.88766,90.0015
2023-02-16 21:25:13:712,-1.09385,2.49038,-9.44412,-14.6384,-6.89413,89.9976
2023-02-16 21:25:13:722,-1.08939,2.46898,-9.40251,-14.6276,-6.90155,89.9964
2023-02-16 21:25:13:732,-1.11749,2.46757,-9.38566,-14.6203,-6.91455,89.9942
2023-02-16 21:25:13:742,-1.11751,2.47877,-9.37857,-14.614,-6.92662,89.9935
2023-02-16 21:25:13:752,-1.11631,2.46624,-9.40255,-14.6085,-6.93859,89.9959
2023-02-16 21:25:13:762,-1.13222,2.4848,-9.41716,-14.6029,-6.94984,89.9986
2023-02-16 21:25:13:772,-1.13284,2.48491,-9.41277,-14.5956,-6.95979,90.0014
2023-02-16 21:25:13:782,-1.12755,2.47877,-9.38821,-14.5898,-6.97312,90.009
2023-02-16 21:25:13:792,-1.12116,2.45316,-9.38278,-14.5812,-6.98388,90.0162
2023-02-16 21:25:13:802,-1.11129,2.44241,-9.37456,-14.5695,-6.99713,90.0257
2023-02-16 21:25:13:812,-1.11645,2.43653,-9.35768,-14.5602,-7.01104,90.0361
2023-02-16 21:25:13:822,-1.12959,2.42189,-9.35235,-14.5518,-7.02535,90.0476
2023-02-16 21:25:13:832,-1.14879,2.42407,-9.35889,-14.5451,-7.0388,90.0611
2023-02-16 21:25:13:842,-1.18288,2.43447,-9.36996,-14.541,-7.05165,90.076
2023-02-16 21:25:13:852,-1.19397,2.4477,-9.3691,-14.5391,-7.06983,90.0931
2023-02-16 21:25:13:862,-1.19948,2.45064,-9.39413,-14.5345,-7.0839,90.111
2023-02-16 21:25:13:872,-1.19793,2.46606,-9.42133,-14.5305,-7.0998,90.1238
2023-02-16 21:25:13:882,-1.19818,2.46273,-9.42635,-14.5282,-7.11421,90.1411
2023-02-16 21:25:13:892,-1.19689,2.45773,-9.41919,-14.5201,-7.12812,90.1562
2023-02-16 21:25:13:902,-1.21067,2.45198,-9.40619,-14.5147,-7.14186,90.1726
2023-02-16 21:25:13:912,-1.2181,2.4543,-9.40669,-14.5112,-7.15831,90.1882
2023-02-16 21:25:13:922,-1.229,2.43682,-9.40511,-14.5034,-7.17164,90.2041
2023-02-16 21:25:13:932,-1.23546,2.4422,-9.38389,-14.4965,-7.18506,90.2173
2023-02-16 21:25:13:942,-1.25475,2.42931,-9.37088,-14.4945,-7.19503,90.2322
2023-02-16 21:25:13:952,-1.25586,2.42512,-9.3612,-14.4877,-7.2035,90.2475
2023-02-16 21:25:13:962,-1.2497,2.43583,-9.35652,-14.4836,-7.20942,90.2615
2023-02-16 21:25:13:972,-1.25332,2.42753,-9.3519,-14.4802,-7.2175,90.2745
2023-02-16 21:25:13:982,-1.27429,2.41359,-9.35964,-14.4812,-7.22565,90.2888
2023-02-16 21:25:13:992,-1.27183,2.42243,-9.36727,-14.4768,-7.22914,90.2999
2023-02-16 21:25:14:2,-1.27294,2.43099,-9.37013,-14.4751,-7.23192,90.3088
2023-02-16 21:25:14:12,-1.26618,2.42148,-9.38737,-14.4744,-7.23323,90.3174
2023-02-16 21:25:14:22,-1.27021,2.43301,-9.37829,-14.4747,-7.23849,90.3273
2023-02-16 21:25:14:32,-1.27462,2.44213,-9.36929,-14.4742,-7.24134,90.3329
2023-02-16 21:25:14:42,-1.28641,2.44184,-9.37565,-14.4749,-7.24024,90.3375
2023-02-16 21:25:14:52,-1.28039,2.43706,-9.39362,-14.4729,-7.23551,90.3389
2023-02-16 21:25:14:62,-1.26392,2.44109,-9.3702,-14.4722,-7.23166,90.3383
2023-02-16 21:25:14:72,-1.26799,2.41837,-9.3638,-14.4749,-7.22394,90.3341
2023-02-16 21:25:14:82,-1.24783,2.43859,-9.39438,-14.4808,-7.21788,90.3297
2023-02-16 21:25:14:92,-1.2325,2.43671,-9.39834,-14.4821,-7.20893,90.322
2023-02-16 21:25:14:102,-1.20546,2.40876,-9.36585,-14.484,-7.20257,90.3117
2023-02-16 21:25:14:112,-1.17483,2.40359,-9.38319,-14.4854,-7.19339,90.3007
2023-02-16 21:25:14:122,-1.15902,2.43176,-9.47302,-14.4883,-7.18456,90.2948
2023-02-16 21:25:14:132,-1.13762,2.4616,-9.53499,-14.487,-7.17376,90.2886
2023-02-16 21:25:14:142,-1.09197,2.44741,-9.50683,-14.4853,-7.16799,90.2819
2023-02-16 21:25:14:152,-1.05804,2.42412,-9.4513,-14.4803,-7.16709,90.2815
2023-02-16 21:25:14:162,-1.07577,2.4107,-9.40252,-14.4747,-7.1747,90.2844
2023-02-16 21:25:14:172,-1.12173,2.41896,-9.38902,-14.4715,-7.18294,90.2919
2023-02-16 21:25:14:182,-1.15788,2.42892,-9.35388,-14.4711,-7.18992,90.3018
2023-02-16 21:25:14:192,-1.16791,2.41645,-9.34884,-14.4737,-7.19944,90.317
2023-02-16 21:25:14:202,-1.17892,2.45137,-9.36286,-14.4803,-7.20503,90.3341
2023-02-16 21:25:14:212,-1.2136,2.47207,-9.36893,-14.4863,-7.21168,90.3499
2023-02-16 21:25:14:222,-1.24695,2.48411,-9.37595,-14.4933,-7.21861,90.3694
2023-02-16 21:25:14:232,-1.27835,2.48221,-9.36019,-14.4955,-7.22424,90.3872
2023-02-16 21:25:14:242,-1.29896,2.46616,-9.35535,-14.4961,-7.22683,90.4035
2023-02-16 21:25:14:252,-1.31752,2.47892,-9.35251,-14.4979,-7.23013,90.4171
2023-02-16 21:25:14:262,-1.31947,2.47728,-9.34688,-14.4991,-7.23296,90.4244
2023-02-16 21:25:14:272,-1.32145,2.46247,-9.34371,-14.5004,-7.23673,90.4327
2023-02-16 21:25:14:282,-1.31455,2.44253,-9.35187,-14.5009,-7.23753,90.4388
2023-02-16 21:25:14:292,-1.29262,2.44283,-9.36646,-14.5063,-7.24026,90.4356
2023-02-16 21:25:14:302,-1.27327,2.4466,-9.35613,-14.5117,-7.24019,90.4311
2023-02-16 21:25:14:312,-1.30076,2.43724,-9.34136,-14.5201,-7.24074,90.4254
2023-02-16 21:25:14:322,-1.35388,2.46711,-9.3739,-14.5335,-7.23932,90.4202
2023-02-16 21:25:14:332,-1.38692,2.50235,-9.40838,-14.5454,-7.23209,90.4107
2023-02-16 21:25:14:342,-1.3877,2.52004,-9.42203,-14.5544,-7.21561,90.3951
2023-02-16 21:25:14:352,-1.32624,2.50015,-9.40495,-14.5614,-7.19767,90.3724
2023-02-16 21:25:14:361,-1.27788,2.48182,-9.3742,-14.5692,-7.18058,90.3431
2023-02-16 21:25:14:371,-1.24974,2.48949,-9.37924,-14.5767,-7.16999,90.3136
2023-02-16 21:25:14:381,-1.21484,2.48747,-9.39258,-14.5789,-7.15523,90.2817
2023-02-16 21:25:14:391,-1.17197,2.48837,-9.40334,-14.5841,-7.13928,90.2475
2023-02-16 21:25:14:401,-1.13662,2.49004,-9.42822,-14.59,-7.12011,90.2145
2023-02-16 21:25:14:411,-1.11554,2.50505,-9.44735,-14.5881,-7.102,90.1851
2023-02-16 21:25:14:421,-1.07795,2.49937,-9.45883,-14.5821,-7.08486,90.1598
2023-02-16 21:25:14:431,-1.04856,2.48459,-9.43293,-14.5762,-7.06739,90.1428
2023-02-16 21:25:14:441,-1.0438,2.46743,-9.4031,-14.5711,-7.05031,90.1323
2023-02-16 21:25:14:451,-1.0509,2.45869,-9.39187,-14.5671,-7.03338,90.13
2023-02-16 21:25:14:461,-1.05311,2.44768,-9.3952,-14.5612,-7.016,90.1324
2023-02-16 21:25:14:471,-1.08559,2.45302,-9.37744,-14.559,-7.00295,90.1364
2023-02-16 21:25:14:481,-1.10233,2.45202,-9.38018,-14.5552,-6.9924,90.1413
2023-02-16 21:25:14:491,-1.12171,2.43782,-9.39103,-14.5566,-6.98501,90.147
2023-02-16 21:25:14:501,-1.14283,2.43953,-9.39731,-14.5597,-6.97905,90.1511
2023-02-16 21:25:14:511,-1.15904,2.45184,-9.39128,-14.5588,-6.97282,90.1552
2023-02-16 21:25:14:521,-1.14795,2.45885,-9.37601,-14.558,-6.97161,90.1584
2023-02-16 21:25:14:531,-1.14229,2.45541,-9.37597,-14.5661,-6.97405,90.1634
2023-02-16 21:25:14:541,-1.14841,2.44531,-9.38486,-14.5706,-6.98131,90.166
2023-02-16 21:25:14:551,-1.13377,2.42934,-9.38802,-14.5781,-6.99066,90.1666
2023-02-16 21:25:14:561,-1.1186,2.43892,-9.38392,-14.5839,-7.00276,90.1637
2023-02-16 21:25:14:571,-1.10772,2.42362,-9.3825,-14.5905,-7.01686,90.1605
2023-02-16 21:25:14:581,-1.11489,2.41727,-9.38986,-14.6043,-7.03455,90.1593
2023-02-16 21:25:14:591,-1.09651,2.42935,-9.3843,-14.6147,-7.04939,90.1589
2023-02-16 21:25:14:601,-1.09027,2.43125,-9.3873,-14.6232,-7.06433,90.1617
2023-02-16 21:25:14:611,-1.10269,2.43598,-9.37704,-14.6323,-7.07944,90.1671
2023-02-16 21:25:14:621,-1.123,2.46231,-9.38127,-14.6469,-7.09669,90.1762
2023-02-16 21:25:14:631,-1.14246,2.46205,-9.39316,-14.6611,-7.11253,90.1872
2023-02-16 21:25:14:641,-1.14741,2.46999,-9.39242,-14.6723,-7.12824,90.1987
2023-02-16 21:25:14:651,-1.17049,2.49862,-9.40027,-14.6876,-7.14526,90.2118
2023-02-16 21:25:14:661,-1.19126,2.51956,-9.40763,-14.6979,-7.16157,90.2227
2023-02-16 21:25:14:671,-1.21223,2.51552,-9.40966,-14.7077,-7.17839,90.2379
2023-02-16 21:25:14:681,-1.22059,2.50442,-9.38347,-14.7129,-7.19529,90.2526
2023-02-16 21:25:14:691,-1.23382,2.49646,-9.38524,-14.7218,-7.20674,90.2714
2023-02-16 21:25:14:701,-1.25058,2.50972,-9.40144,-14.7304,-7.21977,90.2828
2023-02-16 21:25:14:711,-1.26149,2.51482,-9.41458,-14.74,-7.22667,90.2992
2023-02-16 21:25:14:721,-1.256,2.50591,-9.3965,-14.7452,-7.23469,90.3119
2023-02-16 21:25:14:731,-1.26242,2.49382,-9.38395,-14.7501,-7.23679,90.3228
2023-02-16 21:25:14:741,-1.25371,2.50063,-9.36355,-14.7543,-7.23852,90.3298
2023-02-16 21:25:14:751,-1.25088,2.49888,-9.35212,-14.7584,-7.23825,90.3388
2023-02-16 21:25:14:761,-1.24298,2.50606,-9.38738,-14.7645,-7.23837,90.3448
2023-02-16 21:25:14:771,-1.22983,2.53779,-9.45317,-14.7662,-7.23663,90.347
2023-02-16 21:25:14:781,-1.18969,2.54658,-9.47888,-14.7675,-7.23684,90.3483
2023-02-16 21:25:14:791,-1.16198,2.52398,-9.46964,-14.7629,-7.24134,90.3538
2023-02-16 21:25:14:801,-1.15988,2.51715,-9.46224,-14.7556,-7.24765,90.3594
2023-02-16 21:25:14:811,-1.17671,2.51575,-9.42358,-14.7497,-7.25594,90.3644
2023-02-16 21:25:14:821,-1.21112,2.50536,-9.38641,-14.7452,-7.2668,90.3688
2023-02-16 21:25:14:831,-1.22726,2.50088,-9.3428,-14.7403,-7.27194,90.3799
2023-02-16 21:25:14:841,-1.24326,2.49508,-9.32572,-14.7398,-7.27301,90.3934
2023-02-16 21:25:14:851,-1.25567,2.50343,-9.35397,-14.7372,-7.27177,90.4071
2023-02-16 21:25:14:862,-1.27411,2.52993,-9.36746,-14.7372,-7.2696,90.4218
2023-02-16 21:25:14:871,-1.28852,2.53056,-9.36828,-14.7364,-7.26492,90.4325
2023-02-16 21:25:14:881,-1.30214,2.51205,-9.35636,-14.7324,-7.25999,90.4418
2023-02-16 21:25:14:891,-1.29378,2.50417,-9.32923,-14.7275,-7.25417,90.452
2023-02-16 21:25:14:901,-1.29685,2.50254,-9.32294,-14.7223,-7.24674,90.4532
2023-02-16 21:25:14:911,-1.27158,2.4724,-9.32305,-14.7154,-7.23875,90.4518
2023-02-16 21:25:14:922,-1.26084,2.46413,-9.32482,-14.7103,-7.23393,90.4467
2023-02-16 21:25:14:932,-1.25294,2.46737,-9.34172,-14.7077,-7.22493,90.4377
2023-02-16 21:25:14:942,-1.22013,2.45867,-9.35947,-14.7067,-7.21434,90.4268
2023-02-16 21:25:14:952,-1.20326,2.47269,-9.36215,-14.7085,-7.20933,90.414
2023-02-16 21:25:14:962,-1.18071,2.46668,-9.35229,-14.7104,-7.20512,90.4009
2023-02-16 21:25:14:972,-1.16485,2.46074,-9.34382,-14.7154,-7.20541,90.3907
2023-02-16 21:25:14:982,-1.16918,2.48597,-9.38708,-14.7246,-7.20169,90.3828
2023-02-16 21:25:14:992,-1.164,2.51317,-9.44651,-14.735,-7.19386,90.3794
2023-02-16 21:25:15:2,-1.13579,2.51347,-9.46174,-14.7388,-7.18632,90.3749
2023-02-16 21:25:15:12,-1.11772,2.49861,-9.44563,-14.7404,-7.17767,90.3733
2023-02-16 21:25:15:22,-1.12055,2.5032,-9.44408,-14.7384,-7.17326,90.3758
2023-02-16 21:25:15:32,-1.15356,2.50767,-9.43385,-14.7356,-7.16991,90.3789
2023-02-16 21:25:15:42,-1.17382,2.48315,-9.39894,-14.7288,-7.17,90.3857
2023-02-16 21:25:15:52,-1.1692,2.47949,-9.36481,-14.7259,-7.16694,90.3941
2023-02-16 21:25:15:62,-1.1837,2.47889,-9.36887,-14.7234,-7.16595,90.4005
2023-02-16 21:25:15:72,-1.18246,2.47909,-9.38504,-14.7208,-7.16706,90.4068
2023-02-16 21:25:15:82,-1.18717,2.46244,-9.37192,-14.7191,-7.16499,90.414
2023-02-16 21:25:15:92,-1.19518,2.46972,-9.36262,-14.7153,-7.16204,90.4195
2023-02-16 21:25:15:102,-1.17914,2.47177,-9.37733,-14.7142,-7.15932,90.4251
2023-02-16 21:25:15:112,-1.18102,2.46552,-9.3875,-14.7122,-7.15809,90.4292
2023-02-16 21:25:15:122,-1.19689,2.478,-9.3805,-14.7133,-7.16063,90.4364
2023-02-16 21:25:15:132,-1.18462,2.49306,-9.38224,-14.7136,-7.1601,90.4436
2023-02-16 21:25:15:142,-1.18035,2.49387,-9.39203,-14.7124,-7.16085,90.4525
2023-02-16 21:25:15:151,-1.17118,2.47935,-9.40342,-14.7115,-7.16126,90.4543
2023-02-16 21:25:15:162,-1.16319,2.47518,-9.40356,-14.7059,-7.16009,90.4602
2023-02-16 21:25:15:172,-1.16252,2.48087,-9.39532,-14.7042,-7.16193,90.4686
2023-02-16 21:25:15:181,-1.15776,2.4754,-9.38673,-14.7031,-7.16182,90.4781
2023-02-16 21:25:15:192,-1.1645,2.46323,-9.37419,-14.7004,-7.16334,90.4844
2023-02-16 21:25:15:202,-1.17144,2.46096,-9.36729,-14.6953,-7.16467,90.4952
2023-02-16 21:25:15:212,-1.17828,2.45982,-9.3789,-14.6935,-7.16223,90.5114
2023-02-16 21:25:15:222,-1.19231,2.4751,-9.38304,-14.6951,-7.16805,90.5262
2023-02-16 21:25:15:232,-1.19349,2.47916,-9.39701,-14.6945,-7.1704,90.5387
2023-02-16 21:25:15:242,-1.1906,2.49609,-9.40549,-14.6967,-7.17426,90.5541
2023-02-16 21:25:15:252,-1.2058,2.49608,-9.3947,-14.696,-7.17398,90.5674
2023-02-16 21:25:15:262,-1.21418,2.49409,-9.38787,-14.6955,-7.17252,90.5797
2023-02-16 21:25:15:272,-1.21485,2.49027,-9.39436,-14.6939,-7.17204,90.5925
2023-02-16 21:25:15:282,-1.23449,2.47177,-9.37961,-14.6955,-7.17122,90.6041
2023-02-16 21:25:15:292,-1.21158,2.45098,-9.35474,-14.6925,-7.17397,90.6123
2023-02-16 21:25:15:302,-1.20322,2.44266,-9.35196,-14.6885,-7.17395,90.6238
2023-02-16 21:25:15:312,-1.21169,2.4437,-9.34205,-14.687,-7.17506,90.6336
2023-02-16 21:25:15:322,-1.19836,2.43746,-9.36188,-14.6849,-7.17596,90.6424
2023-02-16 21:25:15:332,-1.18939,2.45605,-9.36352,-14.6857,-7.18093,90.6498
2023-02-16 21:25:15:342,-1.20063,2.46979,-9.34863,-14.6883,-7.18432,90.6577
2023-02-16 21:25:15:352,-1.21273,2.46499,-9.35692,-14.6936,-7.18837,90.6634
2023-02-16 21:25:15:362,-1.22436,2.48413,-9.38034,-14.6994,-7.18769,90.673
2023-02-16 21:25:15:372,-1.23744,2.50584,-9.40142,-14.7047,-7.18512,90.6821
2023-02-16 21:25:15:382,-1.2351,2.48744,-9.42756,-14.7075,-7.1807,90.6872
2023-02-16 21:25:15:392,-1.23982,2.4832,-9.41589,-14.7124,-7.17508,90.6968
2023-02-16 21:25:15:401,-1.24004,2.49161,-9.40619,-14.7137,-7.17132,90.6983
2023-02-16 21:25:15:412,-1.21909,2.49408,-9.39944,-14.7119,-7.16977,90.699
2023-02-16 21:25:15:422,-1.19779,2.48521,-9.376,-14.714,-7.16974,90.7001
2023-02-16 21:25:15:432,-1.17747,2.47383,-9.37746,-14.7132,-7.16945,90.6976
2023-02-16 21:25:15:442,-1.1727,2.48779,-9.43845,-14.7125,-7.16879,90.6976
2023-02-16 21:25:15:452,-1.14764,2.49339,-9.47184,-14.7119,-7.17138,90.6939
2023-02-16 21:25:15:462,-1.11061,2.45875,-9.45323,-14.7054,-7.17678,90.6918
2023-02-16 21:25:15:472,-1.10369,2.44225,-9.42206,-14.7005,-7.1889,90.6913
2023-02-16 21:25:15:482,-1.14166,2.4386,-9.38407,-14.6996,-7.20547,90.6972
2023-02-16 21:25:15:492,-1.17637,2.44001,-9.35482,-14.701,-7.21874,90.7075
2023-02-16 21:25:15:502,-1.21365,2.43261,-9.33565,-14.7044,-7.23166,90.7209
2023-02-16 21:25:15:512,-1.22712,2.43774,-9.31346,-14.7103,-7.24361,90.7366
2023-02-16 21:25:15:522,-1.23347,2.45194,-9.32287,-14.7207,-7.2509,90.7537
2023-02-16 21:25:15:532,-1.24928,2.48181,-9.33633,-14.7307,-7.25591,90.7708
2023-02-16 21:25:15:542,-1.28801,2.49441,-9.34224,-14.7389,-7.26129,90.7831
2023-02-16 21:25:15:552,-1.30237,2.49492,-9.34777,-14.7489,-7.26342,90.7961
2023-02-16 21:25:15:562,-1.30186,2.48543,-9.33183,-14.7567,-7.26388,90.8058
2023-02-16 21:25:15:572,-1.30293,2.47718,-9.31992,-14.7674,-7.26243,90.813
2023-02-16 21:25:15:582,-1.29809,2.47365,-9.32044,-14.7776,-7.26158,90.8181
2023-02-16 21:25:15:592,-1.2728,2.47241,-9.33815,-14.7897,-7.26178,90.8181
2023-02-16 21:25:15:602,-1.27268,2.47736,-9.36131,-14.8006,-7.26394,90.8179
2023-02-16 21:25:15:612,-1.25523,2.49742,-9.3999,-14.8134,-7.2638,90.815
2023-02-16 21:25:15:622,-1.22075,2.51007,-9.4146,-14.8249,-7.26102,90.8092
2023-02-16 21:25:15:632,-1.19624,2.50565,-9.37669,-14.8373,-7.26029,90.8027
2023-02-16 21:25:15:642,-1.21239,2.48718,-9.3688,-14.8515,-7.2576,90.8005
2023-02-16 21:25:15:652,-1.22613,2.52098,-9.40421,-14.8665,-7.25253,90.7985
2023-02-16 21:25:15:662,-1.2104,2.54925,-9.42813,-14.88,-7.24007,90.7975
2023-02-16 21:25:15:672,-1.17094,2.53392,-9.42279,-14.8914,-7.22679,90.796
2023-02-16 21:25:15:682,-1.14742,2.50429,-9.39984,-14.898,-7.22043,90.7943
2023-02-16 21:25:15:692,-1.16222,2.49542,-9.3649,-14.907,-7.21517,90.7934
2023-02-16 21:25:15:702,-1.18738,2.5056,-9.34188,-14.9177,-7.21185,90.797
2023-02-16 21:25:15:712,-1.21225,2.49662,-9.33078,-14.9298,-7.206,90.7991
2023-02-16 21:25:15:722,-1.21443,2.50848,-9.33155,-14.94,-7.19861,90.802
2023-02-16 21:25:15:732,-1.20663,2.54799,-9.35432,-14.9527,-7.19258,90.8026
2023-02-16 21:25:15:742,-1.20331,2.58092,-9.36734,-14.9643,-7.18497,90.8018
2023-02-16 21:25:15:752,-1.18931,2.57689,-9.37031,-14.9763,-7.17758,90.8047
2023-02-16 21:25:15:762,-1.19775,2.5806,-9.38801,-14.9908,-7.16989,90.8065
2023-02-16 21:25:15:772,-1.19753,2.59591,-9.39888,-15.0046,-7.16336,90.8057
2023-02-16 21:25:15:782,-1.18702,2.60749,-9.404,-15.0166,-7.15744,90.8061
2023-02-16 21:25:15:792,-1.17732,2.59996,-9.40438,-15.0262,-7.15515,90.809
2023-02-16 21:25:15:802,-1.17104,2.59256,-9.3989,-15.033,-7.15445,90.8084
2023-02-16 21:25:15:812,-1.16511,2.59723,-9.39671,-15.0353,-7.15416,90.807
2023-02-16 21:25:15:822,-1.15869,2.5868,-9.39721,-15.0377,-7.1525,90.8068
2023-02-16 21:25:15:832,-1.16229,2.57721,-9.39234,-15.042,-7.15537,90.8094
2023-02-16 21:25:15:842,-1.16394,2.57411,-9.39913,-15.0426,-7.15645,90.8116
2023-02-16 21:25:15:852,-1.16018,2.58651,-9.41367,-15.0463,-7.15857,90.8152
2023-02-16 21:25:15:862,-1.1682,2.59588,-9.41518,-15.0489,-7.16613,90.8186
2023-02-16 21:25:15:872,-1.18223,2.59835,-9.40587,-15.0475,-7.17119,90.828
2023-02-16 21:25:15:882,-1.19958,2.58812,-9.39979,-15.0471,-7.17906,90.8399
2023-02-16 21:25:15:892,-1.20316,2.57268,-9.37485,-15.0414,-7.18838,90.8502
2023-02-16 21:25:15:902,-1.21978,2.56649,-9.37577,-15.0341,-7.19488,90.8653
2023-02-16 21:25:15:912,-1.23609,2.54528,-9.37047,-15.0261,-7.19993,90.874
2023-02-16 21:25:15:922,-1.23741,2.53089,-9.35496,-15.0212,-7.20701,90.8861
2023-02-16 21:25:15:932,-1.24891,2.52276,-9.33914,-15.0105,-7.21175,90.895
2023-02-16 21:25:15:942,-1.24458,2.51609,-9.33525,-15.0047,-7.21493,90.9009
2023-02-16 21:25:15:952,-1.24629,2.51469,-9.32921,-14.998,-7.21905,90.9069
2023-02-16 21:25:15:962,-1.23936,2.50511,-9.33451,-14.9933,-7.22137,90.9102
2023-02-16 21:25:15:972,-1.22276,2.50401,-9.34247,-14.9905,-7.22522,90.9188
2023-02-16 21:25:15:982,-1.21079,2.50885,-9.35015,-14.9872,-7.22627,90.9238
2023-02-16 21:25:15:992,-1.22659,2.51525,-9.35051,-14.9878,-7.23126,90.9316
2023-02-16 21:25:16:2,-1.21883,2.52562,-9.35876,-14.9886,-7.23157,90.9403
2023-02-16 21:25:16:12,-1.22365,2.52949,-9.3653,-14.9915,-7.23476,90.9475
2023-02-16 21:25:16:22,-1.22864,2.52424,-9.38097,-14.991,-7.23895,90.9562
2023-02-16 21:25:16:32,-1.24828,2.52203,-9.37507,-14.9955,-7.23587,90.9681
2023-02-16 21:25:16:42,-1.27286,2.53844,-9.36775,-14.9967,-7.23629,90.9777
2023-02-16 21:25:16:52,-1.2854,2.54658,-9.3813,-14.9956,-7.23819,90.9838
2023-02-16 21:25:16:62,-1.26712,2.54935,-9.38695,-14.9935,-7.237,90.9851
2023-02-16 21:25:16:72,-1.26189,2.53476,-9.37751,-14.9899,-7.23222,90.9853
2023-02-16 21:25:16:82,-1.26063,2.52877,-9.35339,-14.987,-7.22451,90.9813
2023-02-16 21:25:16:92,-1.25048,2.53387,-9.34671,-14.9848,-7.21985,90.978
2023-02-16 21:25:16:102,-1.23964,2.52757,-9.34411,-14.975,-7.21498,90.9723
2023-02-16 21:25:16:112,-1.20001,2.49522,-9.34103,-14.9676,-7.2071,90.9639
2023-02-16 21:25:16:122,-1.17516,2.4836,-9.37337,-14.9621,-7.19707,90.9557
2023-02-16 21:25:16:132,-1.15078,2.49772,-9.43545,-14.9562,-7.18734,90.9454
2023-02-16 21:25:16:142,-1.11519,2.52316,-9.47523,-14.9507,-7.18056,90.9364
2023-02-16 21:25:16:152,-1.08889,2.51068,-9.4623,-14.9433,-7.18107,90.9321
2023-02-16 21:25:16:162,-1.09235,2.49415,-9.40172,-14.9331,-7.18526,90.931
2023-02-16 21:25:16:172,-1.12595,2.48191,-9.36535,-14.9303,-7.19118,90.9336
2023-02-16 21:25:16:182,-1.16882,2.51716,-9.35591,-14.928,-7.19682,90.9399
2023-02-16 21:25:16:192,-1.20119,2.53558,-9.34666,-14.9317,-7.19899,90.9435
2023-02-16 21:25:16:202,-1.20868,2.53242,-9.33958,-14.9342,-7.20045,90.9512
2023-02-16 21:25:16:212,-1.20272,2.54672,-9.32536,-14.9402,-7.19845,90.9585
2023-02-16 21:25:16:222,-1.22061,2.54474,-9.33303,-14.9429,-7.19597,90.9672
2023-02-16 21:25:16:232,-1.23477,2.53803,-9.32928,-14.9434,-7.19344,90.9727
2023-02-16 21:25:16:242,-1.23226,2.53482,-9.3292,-14.9439,-7.19054,90.9763
2023-02-16 21:25:16:252,-1.20691,2.5204,-9.33946,-14.9424,-7.18883,90.9763
2023-02-16 21:25:16:262,-1.19698,2.51004,-9.35331,-14.9405,-7.18871,90.9733
2023-02-16 21:25:16:272,-1.19021,2.50916,-9.35297,-14.9398,-7.18783,90.9674
2023-02-16 21:25:16:282,-1.17928,2.50455,-9.35809,-14.9383,-7.18549,90.9639
2023-02-16 21:25:16:292,-1.17757,2.49659,-9.37186,-14.9367,-7.18569,90.9595
2023-02-16 21:25:16:302,-1.15986,2.49628,-9.40346,-14.9351,-7.18621,90.9549
2023-02-16 21:25:16:312,-1.13947,2.52085,-9.40955,-14.9343,-7.18718,90.9458
2023-02-16 21:25:16:322,-1.14005,2.51674,-9.38153,-14.9347,-7.18698,90.9391
2023-02-16 21:25:16:332,-1.1523,2.5009,-9.35568,-14.9405,-7.18819,90.9384
2023-02-16 21:25:16:342,-1.16396,2.5091,-9.39276,-14.946,-7.18821,90.9424
2023-02-16 21:25:16:352,-1.18043,2.52814,-9.41728,-14.9559,-7.18287,90.9474
2023-02-16 21:25:16:362,-1.15864,2.53243,-9.41428,-14.9592,-7.17941,90.948
2023-02-16 21:25:16:372,-1.1204,2.53079,-9.39999,-14.9626,-7.17937,90.9503
2023-02-16 21:25:16:382,-1.13559,2.52427,-9.38243,-14.9643,-7.18482,90.9552
2023-02-16 21:25:16:392,-1.16556,2.52793,-9.37417,-14.9657,-7.19015,90.9587
2023-02-16 21:25:16:402,-1.19122,2.53105,-9.3628,-14.9645,-7.19726,90.9681
2023-02-16 21:25:16:412,-1.20233,2.50718,-9.34999,-14.9637,-7.20311,90.977
2023-02-16 21:25:16:422,-1.21012,2.51822,-9.35094,-14.9653,-7.20896,90.9839
2023-02-16 21:25:16:432,-1.2086,2.52177,-9.3698,-14.9671,-7.21262,90.9905
2023-02-16 21:25:16:442,-1.22504,2.53527,-9.37465,-14.968,-7.21494,91.0006
2023-02-16 21:25:16:452,-1.23019,2.53978,-9.39296,-14.9673,-7.21658,91.0048
2023-02-16 21:25:16:462,-1.24261,2.5424,-9.37442,-14.965,-7.21925,91.0112
2023-02-16 21:25:16:472,-1.24797,2.54518,-9.3674,-14.9654,-7.21811,91.0112
2023-02-16 21:25:16:482,-1.24077,2.53724,-9.35786,-14.9664,-7.21629,91.0124
2023-02-16 21:25:16:492,-1.23391,2.53163,-9.35799,-14.9676,-7.2126,91.0122
2023-02-16 21:25:16:502,-1.21635,2.531,-9.35645,-14.9708,-7.21276,91.011
2023-02-16 21:25:16:512,-1.21101,2.52927,-9.36316,-14.9639,-7.21343,91.0062
2023-02-16 21:25:16:522,-1.20164,2.53568,-9.37457,-14.964,-7.21605,91.0049
2023-02-16 21:25:16:532,-1.20232,2.53306,-9.38226,-14.9623,-7.22093,91.0023
2023-02-16 21:25:16:542,-1.21014,2.53764,-9.40152,-14.9588,-7.23079,91.0023
2023-02-16 21:25:16:552,-1.21286,2.54846,-9.391,-14.9592,-7.23525,91.0015
2023-02-16 21:25:16:562,-1.22875,2.54575,-9.37831,-14.96,-7.24234,91.0031
2023-02-16 21:25:16:572,-1.21502,2.53741,-9.37818,-14.96,-7.2521,91.0032
2023-02-16 21:25:16:582,-1.21222,2.53039,-9.38555,-14.9587,-7.25553,91.0044
2023-02-16 21:25:16:592,-1.22982,2.51975,-9.38117,-14.9559,-7.25791,91.0048
2023-02-16 21:25:16:602,-1.23028,2.52204,-9.35472,-14.9506,-7.26055,91.0093
2023-02-16 21:25:16:612,-1.20297,2.52725,-9.3548,-14.9493,-7.26382,91.0119
2023-02-16 21:25:16:622,-1.20228,2.53703,-9.35079,-14.9498,-7.26557,91.0173
2023-02-16 21:25:16:632,-1.22271,2.5354,-9.35327,-14.9501,-7.26755,91.0183
2023-02-16 21:25:16:642,-1.23978,2.5382,-9.34231,-14.9515,-7.27117,91.0195
2023-02-16 21:25:16:652,-1.23129,2.52043,-9.33955,-14.9513,-7.27423,91.0215
2023-02-16 21:25:16:662,-1.24264,2.53104,-9.39768,-14.9533,-7.27933,91.0249
2023-02-16 21:25:16:672,-1.25211,2.54322,-9.40754,-14.9515,-7.28383,91.0279
2023-02-16 21:25:16:682,-1.24487,2.51921,-9.37316,-14.9448,-7.28522,91.0299
2023-02-16 21:25:16:692,-1.24731,2.50266,-9.33581,-14.9443,-7.28602,91.0328
2023-02-16 21:25:16:702,-1.24127,2.49655,-9.30776,-14.9427,-7.28694,91.033
2023-02-16 21:25:16:712,-1.24487,2.51052,-9.31486,-14.9435,-7.28874,91.0342
2023-02-16 21:25:16:722,-1.2487,2.50457,-9.34773,-14.9439,-7.29122,91.0328
2023-02-16 21:25:16:732,-1.24282,2.52377,-9.38506,-14.9439,-7.29358,91.0331
2023-02-16 21:25:16:742,-1.23704,2.5252,-9.40712,-14.9442,-7.29294,91.0333
2023-02-16 21:25:16:752,-1.2246,2.52034,-9.4039,-14.9442,-7.28894,91.0327
2023-02-16 21:25:16:762,-1.23433,2.52574,-9.39912,-14.9441,-7.28841,91.0322
2023-02-16 21:25:16:772,-1.21535,2.51624,-9.37524,-14.9446,-7.28518,91.0306
2023-02-16 21:25:16:782,-1.19531,2.50595,-9.35901,-14.945,-7.27814,91.0299
2023-02-16 21:25:16:792,-1.1939,2.50712,-9.35246,-14.9459,-7.27491,91.0295
