Timestamp,Acceleration_x,Acceleration_y,Acceleration_z,roll,pitch,yaw
2023-02-16 00:14:42:904,-1.84843,0.657246,-9.5667,-3.6617,-11.2102,83.6845
2023-02-16 00:14:42:912,-1.87874,0.682571,-9.58728,-3.68784,-11.2126,83.6849
2023-02-16 00:14:42:922,-1.89323,0.700064,-9.58405,-3.70754,-11.2127,83.6852
2023-02-16 00:14:42:932,-1.87122,0.710684,-9.59092,-3.72873,-11.2117,83.6837
2023-02-16 00:14:42:943,-1.83689,0.714469,-9.61126,-3.74994,-11.2053,83.6855
2023-02-16 00:14:42:952,-1.7962,0.69253,-9.6308,-3.76467,-11.1963,83.6877
2023-02-16 00:14:42:963,-1.77104,0.682611,-9.62956,-3.77848,-11.1885,83.6894
2023-02-16 00:14:42:973,-1.76739,0.667722,-9.61621,-3.78945,-11.1787,83.6968
2023-02-16 00:14:42:983,-1.77205,0.663127,-9.60876,-3.79833,-11.1693,83.709
2023-02-16 00:14:42:992,-1.77699,0.66198,-9.58061,-3.80689,-11.1618,83.7299
2023-02-16 00:14:43:2,-1.76964,0.649685,-9.55409,-3.81093,-11.1573,83.7525
2023-02-16 00:14:43:12,-1.7768,0.638799,-9.55209,-3.81988,-11.1531,83.7756
2023-02-16 00:14:43:22,-1.82595,0.659649,-9.54771,-3.82505,-11.1522,83.8034
2023-02-16 00:14:43:32,-1.88358,0.670143,-9.5565,-3.83401,-11.16,83.8306
2023-02-16 00:14:43:42,-1.93561,0.662226,-9.57142,-3.84245,-11.1673,83.8601
2023-02-16 00:14:43:53,-1.97135,0.673552,-9.5771,-3.84328,-11.1798,83.8849
2023-02-16 00:14:43:63,-1.96954,0.685514,-9.60608,-3.84814,-11.1915,83.904
2023-02-16 00:14:43:73,-1.93701,0.688702,-9.64149,-3.85119,-11.2029,83.9182
2023-02-16 00:14:43:82,-1.91851,0.700242,-9.64336,-3.85053,-11.2219,83.9257
2023-02-16 00:14:43:92,-1.91426,0.700404,-9.63245,-3.8474,-11.2417,83.9338
2023-02-16 00:14:43:103,-1.9316,0.686489,-9.59641,-3.84272,-11.2638,83.9398
2023-02-16 00:14:43:113,-1.95704,0.697663,-9.59085,-3.84052,-11.2884,83.9467
2023-02-16 00:14:43:123,-1.95101,0.720255,-9.59273,-3.83894,-11.3112,83.9561
2023-02-16 00:14:43:133,-1.94556,0.711203,-9.59242,-3.83274,-11.3322,83.9672
2023-02-16 00:14:43:143,-1.92262,0.706873,-9.58395,-3.82998,-11.3478,83.9814
2023-02-16 00:14:43:153,-1.90916,0.713126,-9.57439,-3.8247,-11.3603,83.9965
2023-02-16 00:14:43:162,-1.9209,0.702228,-9.58338,-3.81586,-11.3737,84.0148
2023-02-16 00:14:43:172,-1.93426,0.691331,-9.57149,-3.80518,-11.3862,84.0369
2023-02-16 00:14:43:183,-1.92109,0.670591,-9.53776,-3.78941,-11.397,84.062
2023-02-16 00:14:43:193,-1.8966,0.64507,-9.52158,-3.77212,-11.4036,84.0881
2023-02-16 00:14:43:202,-1.87818,0.631372,-9.53234,-3.75948,-11.4054,84.1221
2023-02-16 00:14:43:213,-1.88758,0.622823,-9.53787,-3.74726,-11.4103,84.1616
2023-02-16 00:14:43:223,-1.92307,0.611978,-9.54955,-3.73067,-11.4124,84.1996
2023-02-16 00:14:43:232,-1.93113,0.608166,-9.54392,-3.71998,-11.4137,84.2409
2023-02-16 00:14:43:242,-1.89578,0.602822,-9.53241,-3.70785,-11.4131,84.2801
2023-02-16 00:14:43:252,-1.88746,0.576155,-9.5395,-3.69721,-11.4113,84.323
2023-02-16 00:14:43:262,-1.86915,0.579203,-9.54004,-3.68784,-11.4091,84.3725
2023-02-16 00:14:43:272,-1.85337,0.592058,-9.5272,-3.68106,-11.4093,84.4211
2023-02-16 00:14:43:282,-1.86398,0.600694,-9.5191,-3.67951,-11.4076,84.4727
2023-02-16 00:14:43:292,-1.88829,0.585095,-9.50237,-3.67681,-11.409,84.5311
2023-02-16 00:14:43:302,-1.89701,0.583606,-9.51819,-3.67769,-11.4113,84.5913
2023-02-16 00:14:43:312,-1.8846,0.609429,-9.53882,-3.67842,-11.4147,84.6484
2023-02-16 00:14:43:322,-1.8682,0.612532,-9.5691,-3.67952,-11.4192,84.7111
2023-02-16 00:14:43:332,-1.87985,0.620845,-9.571,-3.6761,-11.4231,84.7733
2023-02-16 00:14:43:342,-1.91497,0.613278,-9.55259,-3.67896,-11.432,84.8408
2023-02-16 00:14:43:352,-1.92797,0.598162,-9.51658,-3.67484,-11.4405,84.9055
2023-02-16 00:14:43:362,-1.96883,0.585238,-9.50531,-3.67841,-11.4516,84.9728
2023-02-16 00:14:43:372,-2.00368,0.588008,-9.50845,-3.67785,-11.4619,85.0417
2023-02-16 00:14:43:383,-2.00212,0.590387,-9.52283,-3.68233,-11.4671,85.1066
2023-02-16 00:14:43:393,-1.99507,0.593753,-9.50223,-3.68611,-11.4724,85.1656
2023-02-16 00:14:43:403,-1.96078,0.58758,-9.514,-3.69217,-11.4744,85.2257
2023-02-16 00:14:43:412,-1.93307,0.598523,-9.53155,-3.70042,-11.476,85.2843
2023-02-16 00:14:43:422,-1.91991,0.611392,-9.55805,-3.71269,-11.4778,85.3408
2023-02-16 00:14:43:432,-1.91949,0.623096,-9.56801,-3.72248,-11.4803,85.395
2023-02-16 00:14:43:442,-1.91818,0.631596,-9.55752,-3.72854,-11.4839,85.4506
2023-02-16 00:14:43:452,-1.92668,0.631459,-9.55419,-3.73868,-11.4875,85.5071
2023-02-16 00:14:43:462,-1.93159,0.618381,-9.55504,-3.74442,-11.4951,85.5569
2023-02-16 00:14:43:472,-1.94342,0.610068,-9.55179,-3.7478,-11.5047,85.612
2023-02-16 00:14:43:482,-1.94777,0.606024,-9.54604,-3.75472,-11.5148,85.6627
2023-02-16 00:14:43:492,-1.96112,0.597299,-9.54245,-3.75739,-11.527,85.715
2023-02-16 00:14:43:502,-1.96363,0.574797,-9.50847,-3.76276,-11.5351,85.7676
2023-02-16 00:14:43:512,-1.97888,0.550481,-9.47995,-3.76851,-11.5394,85.8175
2023-02-16 00:14:43:522,-1.98407,0.552607,-9.4842,-3.77578,-11.5486,85.8666
2023-02-16 00:14:43:532,-1.98676,0.584658,-9.51736,-3.7909,-11.5562,85.9152
2023-02-16 00:14:43:542,-2.00783,0.615681,-9.57906,-3.80832,-11.5603,85.9666
2023-02-16 00:14:43:552,-2.02069,0.661893,-9.61487,-3.82777,-11.5685,86.0138
2023-02-16 00:14:43:562,-2.01347,0.690262,-9.62669,-3.84163,-11.5773,86.0604
2023-02-16 00:14:43:572,-2.03763,0.690812,-9.59682,-3.8525,-11.5863,86.104
2023-02-16 00:14:43:582,-2.0614,0.6898,-9.57084,-3.85914,-11.595,86.1476
2023-02-16 00:14:43:592,-2.07458,0.703357,-9.55795,-3.85913,-11.6016,86.188
2023-02-16 00:14:43:603,-2.0821,0.712917,-9.55557,-3.85757,-11.6051,86.2219
2023-02-16 00:14:43:612,-2.10477,0.6984,-9.55453,-3.85165,-11.6092,86.2537
2023-02-16 00:14:43:622,-2.10706,0.694807,-9.55254,-3.8465,-11.6128,86.2848
2023-02-16 00:14:43:632,-2.10844,0.687064,-9.53812,-3.83928,-11.6187,86.3078
2023-02-16 00:14:43:642,-2.1109,0.677168,-9.55298,-3.82842,-11.6216,86.3236
2023-02-16 00:14:43:652,-2.12333,0.678232,-9.57006,-3.81727,-11.6277,86.3341
2023-02-16 00:14:43:662,-2.11012,0.661767,-9.56963,-3.79956,-11.629,86.3384
2023-02-16 00:14:43:672,-2.08235,0.647606,-9.55704,-3.7792,-11.6269,86.3335
2023-02-16 00:14:43:682,-2.06454,0.622022,-9.50734,-3.75735,-11.6298,86.3196
2023-02-16 00:14:43:692,-2.05528,0.642839,-9.52151,-3.73997,-11.6348,86.2994
2023-02-16 00:14:43:702,-2.03786,0.668296,-9.55932,-3.72207,-11.6404,86.276
2023-02-16 00:14:43:712,-2.02485,0.654717,-9.57384,-3.7055,-11.6448,86.2516
2023-02-16 00:14:43:722,-2.02271,0.656702,-9.58701,-3.68515,-11.6471,86.2205
2023-02-16 00:14:43:732,-2.07379,0.683445,-9.5992,-3.66478,-11.6532,86.1846
2023-02-16 00:14:43:742,-2.11872,0.698798,-9.60115,-3.64123,-11.6631,86.1444
2023-02-16 00:14:43:752,-2.13227,0.685364,-9.5749,-3.61399,-11.6769,86.1037
2023-02-16 00:14:43:762,-2.18355,0.679827,-9.56273,-3.58557,-11.6841,86.0563
2023-02-16 00:14:43:772,-2.23281,0.690731,-9.55902,-3.55429,-11.6946,86.0001
2023-02-16 00:14:43:782,-2.24946,0.668798,-9.54421,-3.51799,-11.7027,85.9316
2023-02-16 00:14:43:792,-2.30522,0.65325,-9.53974,-3.47539,-11.7087,85.8517
2023-02-16 00:14:43:802,-2.34593,0.662662,-9.54374,-3.43478,-11.7135,85.7547
2023-02-16 00:14:43:812,-2.31075,0.64933,-9.52878,-3.38619,-11.7209,85.6403
2023-02-16 00:14:43:822,-2.23666,0.600514,-9.47972,-3.33349,-11.7262,85.5048
2023-02-16 00:14:43:832,-2.14475,0.542371,-9.4459,-3.27686,-11.7316,85.3545
2023-02-16 00:14:43:842,-2.07694,0.51078,-9.47112,-3.22642,-11.7377,85.1943
2023-02-16 00:14:43:852,-2.07344,0.528327,-9.49348,-3.18241,-11.749,85.0309
2023-02-16 00:14:43:862,-2.08954,0.524331,-9.52202,-3.14129,-11.7616,84.8637
2023-02-16 00:14:43:872,-2.09145,0.519413,-9.55639,-3.09799,-11.7687,84.6921
2023-02-16 00:14:43:882,-2.0568,0.517314,-9.59172,-3.05279,-11.7739,84.521
2023-02-16 00:14:43:892,-1.99154,0.495917,-9.5948,-3.00433,-11.7726,84.3494
2023-02-16 00:14:43:902,-1.91283,0.471146,-9.58796,-2.95417,-11.7635,84.1808
2023-02-16 00:14:43:912,-1.8098,0.441031,-9.57979,-2.90408,-11.7524,84.0154
2023-02-16 00:14:43:922,-1.73851,0.411581,-9.54598,-2.85755,-11.7417,83.8589
2023-02-16 00:14:43:932,-1.69167,0.391392,-9.53638,-2.81668,-11.7262,83.7154
2023-02-16 00:14:43:942,-1.67903,0.393896,-9.54497,-2.77911,-11.712,83.5885
2023-02-16 00:14:43:952,-1.6589,0.407245,-9.54143,-2.74501,-11.6976,83.4793
2023-02-16 00:14:43:962,-1.6516,0.415312,-9.52531,-2.71433,-11.6849,83.3776
2023-02-16 00:14:43:972,-1.66742,0.405826,-9.507,-2.68873,-11.6687,83.2988
2023-02-16 00:14:43:982,-1.69483,0.393644,-9.49416,-2.66627,-11.6511,83.2352
2023-02-16 00:14:43:992,-1.6804,0.379088,-9.4905,-2.64813,-11.6261,83.1866
2023-02-16 00:14:44:2,-1.67388,0.385738,-9.51714,-2.63018,-11.6008,83.1544
2023-02-16 00:14:44:12,-1.67081,0.396868,-9.55056,-2.61747,-11.575,83.1387
2023-02-16 00:14:44:22,-1.67098,0.407969,-9.58608,-2.60772,-11.547,83.1326
2023-02-16 00:14:44:32,-1.70587,0.425474,-9.61178,-2.60017,-11.5208,83.1423
2023-02-16 00:14:44:42,-1.76505,0.435448,-9.6246,-2.59124,-11.4985,83.1562
2023-02-16 00:14:44:52,-1.82461,0.437491,-9.60605,-2.58263,-11.4786,83.1807
2023-02-16 00:14:44:62,-1.86235,0.438998,-9.59616,-2.57672,-11.4632,83.2104
2023-02-16 00:14:44:72,-1.87434,0.433254,-9.58133,-2.56969,-11.4518,83.2368
2023-02-16 00:14:44:82,-1.9032,0.440848,-9.57206,-2.56391,-11.4401,83.2654
2023-02-16 00:14:44:92,-1.94581,0.45819,-9.57697,-2.55934,-11.4348,83.2919
2023-02-16 00:14:44:102,-1.976,0.460729,-9.56766,-2.55315,-11.4336,83.3193
2023-02-16 00:14:44:112,-2.0126,0.455955,-9.54031,-2.54842,-11.4357,83.3408
2023-02-16 00:14:44:122,-1.99086,0.449611,-9.56372,-2.54134,-11.4384,83.3543
2023-02-16 00:14:44:132,-1.94959,0.461322,-9.60666,-2.52965,-11.4412,83.3608
2023-02-16 00:14:44:142,-1.90288,0.456634,-9.62505,-2.51605,-11.4432,83.3619
2023-02-16 00:14:44:152,-1.88316,0.434644,-9.60876,-2.49972,-11.4473,83.3611
2023-02-16 00:14:44:162,-1.894,0.42572,-9.58019,-2.48358,-11.4562,83.3625
2023-02-16 00:14:44:172,-1.92805,0.414469,-9.54001,-2.46564,-11.4683,83.3638
2023-02-16 00:14:44:182,-1.9641,0.382591,-9.51383,-2.44837,-11.4795,83.3711
2023-02-16 00:14:44:193,-2.00115,0.372271,-9.5086,-2.43197,-11.4906,83.3749
2023-02-16 00:14:44:202,-2.03315,0.395889,-9.5312,-2.42331,-11.4998,83.3779
2023-02-16 00:14:44:212,-2.0492,0.430764,-9.56171,-2.41609,-11.4999,83.3822
2023-02-16 00:14:44:223,-2.04746,0.430317,-9.5782,-2.40878,-11.4941,83.3826
2023-02-16 00:14:44:232,-2.0108,0.430411,-9.5682,-2.39685,-11.4825,83.383
2023-02-16 00:14:44:242,-1.96763,0.419369,-9.54677,-2.3821,-11.4663,83.3801
2023-02-16 00:14:44:252,-1.94804,0.418297,-9.54194,-2.36811,-11.4526,83.381
2023-02-16 00:14:44:263,-1.94129,0.426765,-9.53596,-2.35488,-11.4394,83.375
2023-02-16 00:14:44:272,-1.94423,0.401148,-9.53052,-2.34101,-11.4276,83.3681
2023-02-16 00:14:44:282,-1.96397,0.409558,-9.57159,-2.32603,-11.4097,83.3598
2023-02-16 00:14:44:292,-1.95814,0.437884,-9.65198,-2.30835,-11.3846,83.3532
2023-02-16 00:14:44:302,-1.91448,0.381667,-9.63592,-2.27778,-11.3603,83.3406
2023-02-16 00:14:44:312,-1.85702,0.268605,-9.50755,-2.25146,-11.3489,83.3252
2023-02-16 00:14:44:323,-1.90117,0.265217,-9.45603,-2.23339,-11.3487,83.3093
2023-02-16 00:14:44:332,-2.04619,0.37982,-9.5455,-2.23143,-11.3513,83.299
2023-02-16 00:14:44:342,-2.1257,0.465085,-9.63291,-2.23006,-11.351,83.2903
2023-02-16 00:14:44:352,-2.13809,0.419352,-9.58586,-2.21971,-11.3474,83.2706
2023-02-16 00:14:44:363,-2.12925,0.375082,-9.55749,-2.20698,-11.3423,83.2444
2023-02-16 00:14:44:373,-2.1896,0.459378,-9.62132,-2.19592,-11.3351,83.2102
2023-02-16 00:14:44:382,-2.26492,0.535103,-9.68348,-2.18567,-11.3272,83.1671
2023-02-16 00:14:44:392,-2.24982,0.526874,-9.6599,-2.16555,-11.3138,83.1142
2023-02-16 00:14:44:402,-2.15162,0.469026,-9.5884,-2.13529,-11.3053,83.0417
2023-02-16 00:14:44:412,-2.10149,0.423989,-9.55818,-2.10045,-11.2956,82.9556
2023-02-16 00:14:44:423,-2.11334,0.413958,-9.56929,-2.06248,-11.2875,82.8594
2023-02-16 00:14:44:432,-2.20468,0.434527,-9.5479,-2.02225,-11.2843,82.7525
2023-02-16 00:14:44:442,-2.27003,0.416233,-9.51523,-1.975,-11.2809,82.6347
2023-02-16 00:14:44:452,-2.23297,0.361546,-9.48694,-1.92676,-11.2746,82.499
2023-02-16 00:14:44:463,-2.12184,0.309625,-9.47932,-1.87319,-11.2607,82.3461
2023-02-16 00:14:44:472,-2.02111,0.279451,-9.48964,-1.82359,-11.2439,82.1815
2023-02-16 00:14:44:482,-1.96859,0.296073,-9.52995,-1.78023,-11.2283,82.0056
2023-02-16 00:14:44:492,-1.90173,0.312003,-9.56822,-1.73735,-11.2147,81.8224
2023-02-16 00:14:44:502,-1.81326,0.30534,-9.58453,-1.696,-11.1971,81.635
2023-02-16 00:14:44:512,-1.73768,0.30285,-9.59001,-1.65716,-11.1817,81.4478
2023-02-16 00:14:44:523,-1.68946,0.29983,-9.60909,-1.61492,-11.1648,81.26
2023-02-16 00:14:44:532,-1.58046,0.279152,-9.64567,-1.57524,-11.1429,81.0787
2023-02-16 00:14:44:542,-1.44443,0.251405,-9.67576,-1.52821,-11.1185,80.9058
2023-02-16 00:14:44:552,-1.31415,0.228348,-9.71986,-1.48663,-11.099,80.7437
2023-02-16 00:14:44:563,-1.21451,0.205617,-9.75283,-1.43874,-11.0847,80.596
2023-02-16 00:14:44:572,-1.14669,0.182356,-9.74685,-1.39329,-11.0796,80.468
2023-02-16 00:14:44:583,-1.15775,0.174811,-9.73785,-1.35148,-11.0859,80.3696
2023-02-16 00:14:44:592,-1.35561,0.184567,-9.71879,-1.30555,-11.102,80.3062
2023-02-16 00:14:44:602,-1.65352,0.252513,-9.71724,-1.26382,-11.1196,80.2728
2023-02-16 00:14:44:612,-1.82761,0.366705,-9.73435,-1.221,-11.1405,80.2511
2023-02-16 00:14:44:623,-1.68739,0.389855,-9.77626,-1.16522,-11.161,80.2273
2023-02-16 00:14:44:632,-1.45854,0.331087,-9.77875,-1.09861,-11.1804,80.203
2023-02-16 00:14:44:642,-1.44518,0.292327,-9.74389,-1.02701,-11.2075,80.1851
2023-02-16 00:14:44:652,-1.52753,0.267219,-9.68893,-0.954205,-11.251,80.1863
2023-02-16 00:14:44:662,-1.62349,0.238467,-9.65962,-0.881592,-11.3046,80.199
2023-02-16 00:14:44:672,-1.71081,0.225815,-9.62148,-0.809068,-11.366,80.2239
2023-02-16 00:14:44:682,-1.80823,0.217744,-9.56564,-0.736522,-11.4306,80.2594
2023-02-16 00:14:44:692,-1.89385,0.189784,-9.4857,-0.666857,-11.4944,80.3009
2023-02-16 00:14:44:702,-1.97333,0.15466,-9.40906,-0.597708,-11.5522,80.3467
2023-02-16 00:14:44:712,-2.08648,0.13665,-9.37841,-0.531322,-11.6001,80.4017
2023-02-16 00:14:44:723,-2.1857,0.137016,-9.41876,-0.474101,-11.6387,80.4571
2023-02-16 00:14:44:732,-2.19829,0.159047,-9.49325,-0.420486,-11.6714,80.5079
2023-02-16 00:14:44:743,-2.19634,0.121225,-9.51134,-0.367523,-11.7073,80.5493
2023-02-16 00:14:44:752,-2.28193,0.112044,-9.54302,-0.319098,-11.7491,80.5882
2023-02-16 00:14:44:763,-2.39837,0.115658,-9.54523,-0.264851,-11.7978,80.6175
2023-02-16 00:14:44:773,-2.4695,0.0939708,-9.52588,-0.204629,-11.8441,80.6329
2023-02-16 00:14:44:782,-2.49165,0.0157107,-9.46462,-0.137408,-11.8933,80.6249
2023-02-16 00:14:44:792,-2.45366,-0.0419822,-9.41084,-0.0741476,-11.9427,80.6007
2023-02-16 00:14:44:802,-2.42722,-0.0656251,-9.42212,-0.019179,-11.9974,80.557
2023-02-16 00:14:44:813,-2.55647,-0.0128788,-9.48767,0.0265333,-12.0509,80.5069
2023-02-16 00:14:44:823,-2.86097,0.0486034,-9.53366,0.0762597,-12.1084,80.445
2023-02-16 00:14:44:832,-3.2806,0.110404,-9.55199,0.128465,-12.1662,80.3683
2023-02-16 00:14:44:843,-3.60359,0.206581,-9.58911,0.190323,-12.2144,80.2525
2023-02-16 00:14:44:852,-3.70008,0.276237,-9.63659,0.276377,-12.251,80.0794
2023-02-16 00:14:44:863,-3.56093,0.206192,-9.6514,0.390952,-12.2725,79.835
2023-02-16 00:14:44:872,-3.35825,0.0915986,-9.59556,0.533332,-12.2756,79.5213
2023-02-16 00:14:44:883,-3.21801,0.0178192,-9.60615,0.695353,-12.2626,79.159
2023-02-16 00:14:44:892,-3.10348,-0.131502,-9.52519,0.879212,-12.2417,78.7443
2023-02-16 00:14:44:903,-3.09296,-0.25007,-9.46319,1.0673,-12.2256,78.2858
2023-02-16 00:14:44:913,-3.28545,-0.164226,-9.53733,1.24831,-12.2116,77.7892
2023-02-16 00:14:44:923,-3.36212,-0.0377038,-9.70687,1.44115,-12.1842,77.2417
2023-02-16 00:14:44:933,-3.06377,-0.0189263,-9.79408,1.65863,-12.1255,76.6349
2023-02-16 00:14:44:943,-2.57522,-0.230293,-9.63044,1.9098,-12.0405,75.9748
2023-02-16 00:14:44:952,-2.12771,-0.446602,-9.4299,2.17448,-11.9368,75.2798
2023-02-16 00:14:44:963,-1.78598,-0.608164,-9.33827,2.43488,-11.8211,74.5753
2023-02-16 00:14:44:973,-1.56226,-0.672069,-9.33176,2.68334,-11.6907,73.8767
2023-02-16 00:14:44:983,-1.39121,-0.661952,-9.38043,2.91181,-11.5534,73.191
2023-02-16 00:14:44:993,-1.18319,-0.69766,-9.42787,3.1266,-11.4141,72.5244
2023-02-16 00:14:45:3,-1.01108,-0.76124,-9.41773,3.33349,-11.2765,71.8809
2023-02-16 00:14:45:13,-0.88566,-0.829001,-9.43761,3.5227,-11.1397,71.2682
2023-02-16 00:14:45:23,-0.78105,-0.867324,-9.48436,3.69891,-11.0146,70.6899
2023-02-16 00:14:45:33,-0.69868,-0.88096,-9.59329,3.86114,-10.8951,70.1551
2023-02-16 00:14:45:43,-0.715509,-0.941796,-9.54922,4.00973,-10.7928,69.66
2023-02-16 00:14:45:53,-0.782238,-0.973019,-9.53969,4.14322,-10.708,69.2078
2023-02-16 00:14:45:63,-0.885651,-0.913053,-9.60683,4.26083,-10.6316,68.7979
2023-02-16 00:14:45:73,-0.929559,-0.864827,-9.61928,4.36919,-10.5583,68.4307
2023-02-16 00:14:45:83,-0.868185,-0.909051,-9.55696,4.47263,-10.4883,68.0958
2023-02-16 00:14:45:93,-0.799249,-0.972794,-9.47879,4.57158,-10.4237,67.7931
2023-02-16 00:14:45:103,-0.850416,-0.957898,-9.40545,4.64911,-10.3705,67.528
2023-02-16 00:14:45:113,-0.981459,-0.889322,-9.39405,4.71116,-10.3261,67.2963
2023-02-16 00:14:45:123,-1.04938,-0.845833,-9.40589,4.76064,-10.2882,67.0963
2023-02-16 00:14:45:133,-1.10796,-0.827184,-9.42737,4.79896,-10.2526,66.921
2023-02-16 00:14:45:143,-1.21592,-0.82452,-9.43933,4.82788,-10.2279,66.7668
2023-02-16 00:14:45:153,-1.28107,-0.777299,-9.50811,4.84574,-10.1987,66.6316
2023-02-16 00:14:45:163,-1.27079,-0.731145,-9.61525,4.85832,-10.1732,66.51
2023-02-16 00:14:45:173,-1.27205,-0.715568,-9.6533,4.87194,-10.1485,66.4037
2023-02-16 00:14:45:183,-1.26289,-0.716135,-9.66516,4.88544,-10.1323,66.3119
2023-02-16 00:14:45:193,-1.24615,-0.754203,-9.67464,4.9018,-10.1166,66.2284
2023-02-16 00:14:45:203,-1.22316,-0.804605,-9.64176,4.92458,-10.1059,66.1579
2023-02-16 00:14:45:212,-1.24384,-0.845525,-9.63452,4.94589,-10.0963,66.108
2023-02-16 00:14:45:223,-1.30839,-0.852237,-9.69022,4.95862,-10.0915,66.0748
2023-02-16 00:14:45:233,-1.38568,-0.796469,-9.75185,4.96897,-10.0951,66.0506
2023-02-16 00:14:45:243,-1.47459,-0.72653,-9.7736,4.98629,-10.1039,66.0365
2023-02-16 00:14:45:252,-1.60508,-0.717165,-9.72699,5.0068,-10.1186,66.032
2023-02-16 00:14:45:263,-1.71656,-0.737107,-9.62437,5.04012,-10.132,66.0325
2023-02-16 00:14:45:273,-1.73577,-0.776357,-9.54663,5.07646,-10.1469,66.0325
2023-02-16 00:14:45:283,-1.7014,-0.830913,-9.5024,5.11458,-10.1618,66.0249
2023-02-16 00:14:45:293,-1.67424,-0.89658,-9.47379,5.14784,-10.1819,66.0176
2023-02-16 00:14:45:303,-1.65279,-0.922894,-9.48759,5.17754,-10.2036,66.0113
2023-02-16 00:14:45:313,-1.68799,-0.905724,-9.53584,5.20188,-10.2281,66.0064
2023-02-16 00:14:45:323,-1.77801,-0.87709,-9.59089,5.2217,-10.2561,66.004
2023-02-16 00:14:45:332,-1.87278,-0.833861,-9.64513,5.23802,-10.2865,66.003
2023-02-16 00:14:45:343,-1.90685,-0.822475,-9.66383,5.26169,-10.3169,65.9947
2023-02-16 00:14:45:353,-1.89705,-0.845393,-9.66308,5.29067,-10.3454,65.9795
2023-02-16 00:14:45:363,-1.87593,-0.847308,-9.62589,5.32441,-10.3739,65.9651
2023-02-16 00:14:45:373,-1.85354,-0.879429,-9.57199,5.36199,-10.3972,65.9478
2023-02-16 00:14:45:383,-1.84938,-0.922269,-9.52418,5.40226,-10.4193,65.9321
2023-02-16 00:14:45:393,-1.96181,-0.916401,-9.50559,5.4389,-10.4399,65.9216
2023-02-16 00:14:45:403,-2.06138,-0.892329,-9.49711,5.4732,-10.4603,65.9099
2023-02-16 00:14:45:413,-2.04476,-0.895173,-9.50327,5.50824,-10.4761,65.8859
2023-02-16 00:14:45:423,-1.99054,-0.89733,-9.53613,5.54288,-10.4875,65.8459
2023-02-16 00:14:45:433,-1.95799,-0.892517,-9.56912,5.57594,-10.5023,65.7983
2023-02-16 00:14:45:443,-1.90685,-0.891711,-9.58142,5.61071,-10.5166,65.7374
2023-02-16 00:14:45:453,-1.8348,-0.921843,-9.55321,5.65088,-10.5352,65.6663
2023-02-16 00:14:45:463,-1.80299,-0.962915,-9.52729,5.69053,-10.5562,65.5884
2023-02-16 00:14:45:472,-1.81003,-0.987466,-9.48772,5.72968,-10.5842,65.5109
2023-02-16 00:14:45:483,-1.79597,-1.0149,-9.4698,5.76487,-10.609,65.4305
2023-02-16 00:14:45:493,-1.78451,-1.0405,-9.45283,5.79666,-10.6306,65.3467
2023-02-16 00:14:45:503,-1.81189,-1.04247,-9.43728,5.82669,-10.6532,65.2669
2023-02-16 00:14:45:512,-1.89518,-1.01966,-9.45835,5.85088,-10.6752,65.192
2023-02-16 00:14:45:523,-1.96129,-0.962348,-9.50697,5.86959,-10.6989,65.118
2023-02-16 00:14:45:533,-1.95988,-0.930218,-9.56103,5.88699,-10.7117,65.0383
2023-02-16 00:14:45:543,-1.94244,-0.930799,-9.57517,5.91037,-10.7214,64.9565
2023-02-16 00:14:45:553,-1.88971,-0.958467,-9.54855,5.93912,-10.7333,64.8687
2023-02-16 00:14:45:563,-1.82991,-1.00774,-9.50649,5.96681,-10.7406,64.7785
2023-02-16 00:14:45:573,-1.78484,-1.04359,-9.5002,5.9931,-10.7475,64.6896
2023-02-16 00:14:45:583,-1.73662,-1.05651,-9.51574,6.01637,-10.7545,64.6052
2023-02-16 00:14:45:592,-1.69403,-1.08793,-9.51684,6.03587,-10.7587,64.5258
2023-02-16 00:14:45:603,-1.7091,-1.09401,-9.53532,6.04816,-10.7688,64.4549
2023-02-16 00:14:45:613,-1.79172,-1.0694,-9.54083,6.05727,-10.7796,64.3983
2023-02-16 00:14:45:623,-1.88429,-1.04314,-9.56053,6.05992,-10.7896,64.3492
2023-02-16 00:14:45:633,-1.97458,-0.999833,-9.55331,6.06438,-10.7988,64.302
2023-02-16 00:14:45:643,-1.98813,-1.00299,-9.50503,6.06969,-10.8061,64.2525
2023-02-16 00:14:45:653,-1.95058,-1.03951,-9.45062,6.0774,-10.8065,64.2017
2023-02-16 00:14:45:663,-1.8834,-1.07332,-9.40026,6.08232,-10.7983,64.1495
2023-02-16 00:14:45:673,-1.80164,-1.10073,-9.37224,6.08299,-10.7867,64.0993
2023-02-16 00:14:45:683,-1.74961,-1.12887,-9.36551,6.07604,-10.7786,64.0527
2023-02-16 00:14:45:693,-1.70339,-1.13792,-9.38736,6.06104,-10.7684,64.0115
2023-02-16 00:14:45:703,-1.66699,-1.12712,-9.44867,6.0377,-10.7562,63.9812
2023-02-16 00:14:45:713,-1.67426,-1.08539,-9.52613,6.01016,-10.7446,63.9589
2023-02-16 00:14:45:723,-1.75593,-1.02209,-9.60861,5.9751,-10.7319,63.9492
2023-02-16 00:14:45:733,-1.77929,-0.99223,-9.63328,5.94758,-10.7182,63.9456
2023-02-16 00:14:45:743,-1.74217,-1.00797,-9.60769,5.9257,-10.6975,63.9479
2023-02-16 00:14:45:753,-1.69501,-1.04621,-9.54769,5.90718,-10.6759,63.9591
2023-02-16 00:14:45:763,-1.67578,-1.07796,-9.50877,5.88559,-10.6554,63.9741
2023-02-16 00:14:45:773,-1.64598,-1.07386,-9.48792,5.85901,-10.6372,63.9953
2023-02-16 00:14:45:783,-1.63131,-1.06359,-9.47644,5.82787,-10.6211,64.0224
2023-02-16 00:14:45:793,-1.65926,-1.05339,-9.48423,5.78947,-10.6124,64.0554
2023-02-16 00:14:45:803,-1.66751,-1.01757,-9.51598,5.74523,-10.6072,64.0935
2023-02-16 00:14:45:813,-1.69343,-0.977764,-9.54026,5.6968,-10.6042,64.1419
2023-02-16 00:14:45:823,-1.68985,-0.972238,-9.54146,5.64853,-10.5999,64.1943
2023-02-16 00:14:45:833,-1.58751,-0.982403,-9.5346,5.59849,-10.5932,64.2591
2023-02-16 00:14:45:843,-1.45429,-1.00046,-9.54483,5.54674,-10.581,64.3289
2023-02-16 00:14:45:852,-1.37127,-1.0084,-9.56051,5.49203,-10.5711,64.4182
2023-02-16 00:14:45:863,-1.29092,-1.00595,-9.57978,5.43706,-10.5647,64.5249
2023-02-16 00:14:45:872,-1.24425,-0.994853,-9.59874,5.37642,-10.5563,64.6603
2023-02-16 00:14:45:883,-1.33391,-0.943901,-9.60894,5.30567,-10.5572,64.8232
2023-02-16 00:14:45:893,-1.49474,-0.87175,-9.631,5.23429,-10.5543,65.0204
2023-02-16 00:14:45:903,-1.562,-0.821467,-9.63542,5.1608,-10.5455,65.2411
2023-02-16 00:14:45:913,-1.52795,-0.837303,-9.60112,5.09066,-10.532,65.4716
2023-02-16 00:14:45:923,-1.48809,-0.84795,-9.56002,5.02404,-10.51,65.7204
2023-02-16 00:14:45:932,-1.43091,-0.843738,-9.58903,4.95377,-10.484,65.9868
2023-02-16 00:14:45:943,-1.4347,-0.821666,-9.62717,4.87867,-10.464,66.2677
2023-02-16 00:14:45:953,-1.45333,-0.775687,-9.67217,4.8004,-10.4518,66.5625
2023-02-16 00:14:45:963,-1.44678,-0.754758,-9.69288,4.72723,-10.4433,66.8695
2023-02-16 00:14:45:973,-1.41901,-0.731164,-9.67048,4.65486,-10.438,67.1869
2023-02-16 00:14:45:983,-1.36649,-0.725231,-9.63218,4.58307,-10.4392,67.5158
2023-02-16 00:14:45:993,-1.32397,-0.74991,-9.60166,4.51373,-10.451,67.8563
2023-02-16 00:14:46:3,-1.31662,-0.760916,-9.57425,4.4443,-10.468,68.2125
2023-02-16 00:14:46:12,-1.33296,-0.776012,-9.5555,4.36578,-10.4985,68.5857
2023-02-16 00:14:46:23,-1.33662,-0.778966,-9.56429,4.2809,-10.5322,68.978
2023-02-16 00:14:46:33,-1.37368,-0.73549,-9.58994,4.19485,-10.5674,69.3872
2023-02-16 00:14:46:43,-1.43317,-0.686028,-9.56683,4.09977,-10.6055,69.8134
2023-02-16 00:14:46:53,-1.49936,-0.687395,-9.50175,4.00457,-10.6462,70.2615
2023-02-16 00:14:46:63,-1.53947,-0.713078,-9.40999,3.90752,-10.6845,70.722
2023-02-16 00:14:46:73,-1.56789,-0.733285,-9.38816,3.80221,-10.7191,71.1943
2023-02-16 00:14:46:83,-1.62443,-0.703148,-9.42709,3.68302,-10.7566,71.6814
2023-02-16 00:14:46:92,-1.73124,-0.609335,-9.51248,3.5526,-10.7916,72.1835
2023-02-16 00:14:46:102,-1.85139,-0.51672,-9.57532,3.41854,-10.8294,72.6921
2023-02-16 00:14:46:112,-1.96575,-0.460382,-9.59226,3.28304,-10.8597,73.2027
2023-02-16 00:14:46:123,-2.04869,-0.426656,-9.64294,3.15081,-10.8847,73.7133
2023-02-16 00:14:46:133,-2.11661,-0.354471,-9.70711,3.01815,-10.9074,74.2182
2023-02-16 00:14:46:143,-2.17246,-0.274503,-9.71991,2.89636,-10.9331,74.7091
2023-02-16 00:14:46:153,-2.21695,-0.252175,-9.68085,2.787,-10.9613,75.1847
2023-02-16 00:14:46:162,-2.23061,-0.266261,-9.6149,2.68521,-10.9913,75.641
2023-02-16 00:14:46:173,-2.23853,-0.286759,-9.54873,2.59115,-11.0191,76.0794
2023-02-16 00:14:46:183,-2.24987,-0.30546,-9.48871,2.50056,-11.0455,76.5006
2023-02-16 00:14:46:193,-2.26896,-0.301358,-9.43416,2.41115,-11.0666,76.9052
2023-02-16 00:14:46:203,-2.27599,-0.315275,-9.45057,2.31725,-11.0845,77.2927
2023-02-16 00:14:46:213,-2.31101,-0.273394,-9.4858,2.21811,-11.1003,77.6602
2023-02-16 00:14:46:223,-2.34522,-0.210134,-9.55539,2.11562,-11.1132,78.0121
2023-02-16 00:14:46:233,-2.36817,-0.180288,-9.63378,2.02031,-11.1182,78.3435
2023-02-16 00:14:46:243,-2.33797,-0.148296,-9.65584,1.93052,-11.122,78.6519
2023-02-16 00:14:46:252,-2.27761,-0.136455,-9.66246,1.84615,-11.1274,78.9355
2023-02-16 00:14:46:263,-2.20189,-0.138217,-9.62501,1.77575,-11.1268,79.1982
2023-02-16 00:14:46:273,-2.14801,-0.160919,-9.568,1.71396,-11.1281,79.4408
2023-02-16 00:14:46:283,-2.11652,-0.182553,-9.54761,1.64858,-11.1276,79.6695
2023-02-16 00:14:46:293,-2.09937,-0.171151,-9.53576,1.58632,-11.1276,79.8855
2023-02-16 00:14:46:303,-2.08352,-0.170995,-9.57893,1.52306,-11.1258,80.0921
2023-02-16 00:14:46:313,-2.09079,-0.167185,-9.63487,1.46244,-11.1214,80.2883
2023-02-16 00:14:46:323,-2.10037,-0.140928,-9.70186,1.40421,-11.1183,80.4787
2023-02-16 00:14:46:332,-2.12302,-0.0690651,-9.77925,1.34779,-11.1192,80.6539
2023-02-16 00:14:46:343,-2.19814,-0.0279696,-9.80984,1.30424,-11.1198,80.8153
2023-02-16 00:14:46:353,-2.33364,-0.00475559,-9.77551,1.27375,-11.1256,80.9609
2023-02-16 00:14:46:363,-2.44442,0.00899831,-9.68069,1.25833,-11.1339,81.0848
2023-02-16 00:14:46:373,-2.45884,-0.058356,-9.59887,1.25727,-11.1368,81.1802
2023-02-16 00:14:46:383,-2.42763,-0.10132,-9.5481,1.26282,-11.1409,81.2457
2023-02-16 00:14:46:393,-2.41722,-0.110298,-9.5276,1.26753,-11.1475,81.2749
2023-02-16 00:14:46:403,-2.45728,-0.111717,-9.57384,1.27563,-11.1575,81.2732
2023-02-16 00:14:46:413,-2.62239,-0.0285411,-9.60102,1.28688,-11.1754,81.2391
2023-02-16 00:14:46:423,-2.86261,0.0288997,-9.57147,1.30548,-11.2013,81.1714
2023-02-16 00:14:46:433,-2.96559,0.0148023,-9.54378,1.33508,-11.2257,81.0567
2023-02-16 00:14:46:442,-2.86043,-0.0532716,-9.53017,1.37537,-11.2476,80.8879
2023-02-16 00:14:46:452,-2.71479,-0.11099,-9.54828,1.42297,-11.2623,80.666
2023-02-16 00:14:46:462,-2.64647,-0.122322,-9.59722,1.47658,-11.2841,80.403
2023-02-16 00:14:46:473,-2.62184,-0.0798068,-9.6468,1.53662,-11.3121,80.1027
2023-02-16 00:14:46:483,-2.56552,-0.0888786,-9.67258,1.605,-11.3365,79.7674
2023-02-16 00:14:46:492,-2.52509,-0.0952502,-9.63815,1.68489,-11.3558,79.4005
2023-02-16 00:14:46:503,-2.49353,-0.0987267,-9.59212,1.77399,-11.3693,79.0086
2023-02-16 00:14:46:512,-2.32573,-0.137021,-9.56722,1.87095,-11.3708,78.5897
2023-02-16 00:14:46:523,-2.12737,-0.214827,-9.54252,1.9771,-11.3649,78.1519
2023-02-16 00:14:46:532,-2.07083,-0.256167,-9.5011,2.07959,-11.3523,77.7054
2023-02-16 00:14:46:543,-2.05598,-0.26942,-9.50518,2.18064,-11.3357,77.2579
2023-02-16 00:14:46:552,-1.97789,-0.265388,-9.55795,2.28361,-11.313,76.8046
2023-02-16 00:14:46:563,-1.8389,-0.273962,-9.60667,2.38872,-11.2836,76.3525
2023-02-16 00:14:46:573,-1.68561,-0.32062,-9.62614,2.49457,-11.2493,75.9038
2023-02-16 00:14:46:583,-1.52855,-0.380025,-9.62431,2.60159,-11.2139,75.4651
2023-02-16 00:14:46:593,-1.40882,-0.454122,-9.61293,2.70878,-11.1744,75.048
2023-02-16 00:14:46:603,-1.39868,-0.498477,-9.59553,2.81044,-11.1306,74.6559
2023-02-16 00:14:46:613,-1.47692,-0.509287,-9.56868,2.90425,-11.0882,74.2968
2023-02-16 00:14:46:622,-1.4959,-0.52681,-9.58422,2.99523,-11.0422,73.9609
2023-02-16 00:14:46:633,-1.48036,-0.534145,-9.63143,3.07984,-10.9889,73.6426
2023-02-16 00:14:46:643,-1.46757,-0.507779,-9.66439,3.15956,-10.9387,73.3442
2023-02-16 00:14:46:653,-1.43497,-0.510885,-9.66399,3.24075,-10.8894,73.0593
2023-02-16 00:14:46:663,-1.40958,-0.542997,-9.6503,3.32007,-10.8429,72.7962
2023-02-16 00:14:46:673,-1.4335,-0.565484,-9.69506,3.39675,-10.8026,72.552
2023-02-16 00:14:46:683,-1.49273,-0.511953,-9.80881,3.47338,-10.77,72.3249
2023-02-16 00:14:46:693,-1.61384,-0.413127,-9.90852,3.55267,-10.7494,72.1121
2023-02-16 00:14:46:703,-1.7299,-0.329708,-9.94774,3.64505,-10.7345,71.9021
2023-02-16 00:14:46:713,-1.71953,-0.36121,-9.85444,3.76285,-10.7282,71.6872
2023-02-16 00:14:46:723,-1.64944,-0.520683,-9.69035,3.8988,-10.7253,71.4667
2023-02-16 00:14:46:733,-1.63623,-0.665097,-9.61166,4.04288,-10.7287,71.2477
2023-02-16 00:14:46:743,-1.7785,-0.637112,-9.69593,4.18404,-10.7443,71.0282
2023-02-16 00:14:46:753,-2.06902,-0.512843,-9.82339,4.32139,-10.7802,70.8029
2023-02-16 00:14:46:763,-2.35047,-0.41928,-9.87894,4.46949,-10.8275,70.5624
2023-02-16 00:14:46:773,-2.45277,-0.399212,-9.82871,4.64104,-10.8744,70.289
2023-02-16 00:14:46:783,-2.35469,-0.503614,-9.68174,4.83618,-10.9167,69.9795
2023-02-16 00:14:46:793,-2.16642,-0.688217,-9.52291,5.05065,-10.9534,69.6363
2023-02-16 00:14:46:803,-2.03459,-0.883724,-9.44425,5.26636,-10.9897,69.2718
2023-02-16 00:14:46:813,-2.09482,-0.877861,-9.48074,5.47648,-11.031,68.896
2023-02-16 00:14:46:823,-2.19542,-0.790313,-9.54749,5.67475,-11.077,68.5056
2023-02-16 00:14:46:833,-2.18296,-0.784098,-9.54279,5.88062,-11.1201,68.0958
2023-02-16 00:14:46:843,-2.0326,-0.899071,-9.45953,6.10243,-11.139,67.6742
2023-02-16 00:14:46:853,-1.79986,-1.16277,-9.2368,6.3322,-11.1456,67.2398
2023-02-16 00:14:46:863,-1.6078,-1.3581,-9.10781,6.55297,-11.149,66.8083
2023-02-16 00:14:46:873,-1.56354,-1.38455,-9.18167,6.74215,-11.1563,66.3921
2023-02-16 00:14:46:883,-1.64071,-1.28773,-9.35649,6.90479,-11.1649,66.0006
2023-02-16 00:14:46:893,-1.69642,-1.2296,-9.44555,7.05752,-11.1674,65.6223
2023-02-16 00:14:46:903,-1.72822,-1.28216,-9.42962,7.20914,-11.1633,65.2607
2023-02-16 00:14:46:913,-1.75125,-1.35364,-9.36182,7.3593,-11.1533,64.9175
2023-02-16 00:14:46:923,-1.71069,-1.38988,-9.3343,7.50216,-11.1362,64.5854
2023-02-16 00:14:46:933,-1.63003,-1.42875,-9.33674,7.63739,-11.1076,64.2623
2023-02-16 00:14:46:943,-1.53792,-1.48312,-9.30301,7.75709,-11.0779,63.9563
2023-02-16 00:14:46:953,-1.48744,-1.53612,-9.29686,7.86713,-11.0423,63.6702
2023-02-16 00:14:46:963,-1.48454,-1.5483,-9.30641,7.95958,-11.0111,63.4043
2023-02-16 00:14:46:973,-1.52599,-1.55457,-9.31609,8.04081,-10.9824,63.1591
2023-02-16 00:14:46:983,-1.62514,-1.53217,-9.31663,8.1091,-10.9578,62.9325
2023-02-16 00:14:46:993,-1.69044,-1.50049,-9.34264,8.16284,-10.9296,62.7264
2023-02-16 00:14:47:3,-1.68202,-1.49152,-9.38441,8.21132,-10.903,62.5316
2023-02-16 00:14:47:13,-1.6831,-1.49072,-9.37564,8.24904,-10.8684,62.3475
2023-02-16 00:14:47:23,-1.71311,-1.51688,-9.34484,8.2812,-10.8317,62.1755
2023-02-16 00:14:47:33,-1.71304,-1.52535,-9.32062,8.30715,-10.7943,62.0142
2023-02-16 00:14:47:43,-1.68966,-1.52376,-9.32354,8.32634,-10.7532,61.8616
2023-02-16 00:14:47:53,-1.66359,-1.53672,-9.35402,8.33589,-10.7054,61.718
2023-02-16 00:14:47:63,-1.62707,-1.52459,-9.39732,8.33477,-10.6599,61.5797
2023-02-16 00:14:47:73,-1.62122,-1.50574,-9.42792,8.32772,-10.6174,61.4473
2023-02-16 00:14:47:83,-1.69062,-1.46407,-9.45727,8.3146,-10.5758,61.3228
2023-02-16 00:14:47:93,-1.73669,-1.40586,-9.51519,8.29834,-10.5367,61.203
2023-02-16 00:14:47:103,-1.75316,-1.38676,-9.56339,8.28112,-10.4983,61.0856
2023-02-16 00:14:47:112,-1.77994,-1.38403,-9.59274,8.2662,-10.4632,60.967
2023-02-16 00:14:47:123,-1.77681,-1.33556,-9.60771,8.25524,-10.4292,60.8435
2023-02-16 00:14:47:132,-1.72459,-1.34395,-9.52421,8.25076,-10.3939,60.7168
2023-02-16 00:14:47:143,-1.6838,-1.45294,-9.41761,8.25519,-10.3571,60.5894
2023-02-16 00:14:47:152,-1.66397,-1.47619,-9.39839,8.25322,-10.3201,60.4607
2023-02-16 00:14:47:163,-1.71889,-1.42975,-9.4344,8.24291,-10.2875,60.334
2023-02-16 00:14:47:173,-1.80981,-1.40063,-9.44635,8.22887,-10.2609,60.2075
2023-02-16 00:14:47:183,-1.84164,-1.38499,-9.48546,8.21471,-10.2318,60.0774
2023-02-16 00:14:47:193,-1.80928,-1.3861,-9.53781,8.20086,-10.2026,59.9401
2023-02-16 00:14:47:203,-1.73599,-1.36599,-9.58469,8.18823,-10.1671,59.8008
2023-02-16 00:14:47:213,-1.69161,-1.36526,-9.60715,8.17865,-10.1372,59.6552
2023-02-16 00:14:47:223,-1.67955,-1.37841,-9.60842,8.18007,-10.111,59.5076
2023-02-16 00:14:47:233,-1.63829,-1.37121,-9.60224,8.18473,-10.0832,59.3613
2023-02-16 00:14:47:243,-1.60659,-1.38813,-9.58309,8.19173,-10.0558,59.2148
2023-02-16 00:14:47:253,-1.58582,-1.40502,-9.53996,8.20543,-10.0269,59.0718
2023-02-16 00:14:47:263,-1.58653,-1.43869,-9.48809,8.21861,-9.99826,58.9327
2023-02-16 00:14:47:273,-1.57338,-1.45371,-9.43102,8.23341,-9.96646,58.799
2023-02-16 00:14:47:283,-1.57091,-1.47928,-9.38888,8.24427,-9.93379,58.6761
2023-02-16 00:14:47:293,-1.60104,-1.48105,-9.40836,8.24973,-9.90237,58.5584
2023-02-16 00:14:47:303,-1.60018,-1.46571,-9.49747,8.24644,-9.87252,58.4433
2023-02-16 00:14:47:313,-1.52504,-1.41003,-9.59057,8.23402,-9.83967,58.334
2023-02-16 00:14:47:323,-1.42805,-1.40606,-9.65263,8.22313,-9.80708,58.2273
2023-02-16 00:14:47:333,-1.36792,-1.42834,-9.64413,8.21633,-9.78096,58.1284
2023-02-16 00:14:47:343,-1.37665,-1.43893,-9.6039,8.21456,-9.75702,58.0407
2023-02-16 00:14:47:353,-1.47982,-1.42677,-9.58049,8.20983,-9.73442,57.9695
2023-02-16 00:14:47:363,-1.57471,-1.40097,-9.55617,8.2031,-9.71769,57.9126
2023-02-16 00:14:47:373,-1.61924,-1.37368,-9.53929,8.19785,-9.69947,57.8596
2023-02-16 00:14:47:383,-1.60387,-1.35996,-9.5275,8.19332,-9.68096,57.8091
2023-02-16 00:14:47:393,-1.57545,-1.36982,-9.49877,8.18548,-9.6596,57.7627
2023-02-16 00:14:47:403,-1.54878,-1.38169,-9.4908,8.17993,-9.64151,57.7213
2023-02-16 00:14:47:413,-1.51363,-1.37805,-9.50933,8.17278,-9.61854,57.6828
2023-02-16 00:14:47:423,-1.47197,-1.37102,-9.51548,8.16756,-9.59681,57.6514
2023-02-16 00:14:47:433,-1.47787,-1.37307,-9.52093,8.16264,-9.57594,57.6258
2023-02-16 00:14:47:443,-1.5249,-1.37387,-9.51817,8.15538,-9.55922,57.6085
2023-02-16 00:14:47:453,-1.542,-1.35813,-9.53422,8.14838,-9.5434,57.5931
2023-02-16 00:14:47:463,-1.51348,-1.35485,-9.5575,8.1381,-9.52952,57.585
2023-02-16 00:14:47:472,-1.47447,-1.36603,-9.54406,8.12701,-9.51395,57.5771
2023-02-16 00:14:47:483,-1.46071,-1.38596,-9.54037,8.11532,-9.50207,57.5747
2023-02-16 00:14:47:493,-1.48462,-1.37212,-9.55268,8.10406,-9.4953,57.5792
2023-02-16 00:14:47:503,-1.5284,-1.34313,-9.56487,8.08862,-9.48937,57.5849
2023-02-16 00:14:47:513,-1.54775,-1.33343,-9.58469,8.07231,-9.48424,57.5936
2023-02-16 00:14:47:522,-1.55756,-1.30293,-9.5685,8.05637,-9.48081,57.603
2023-02-16 00:14:47:532,-1.546,-1.31423,-9.54877,8.03893,-9.48119,57.6143
2023-02-16 00:14:47:543,-1.60834,-1.31652,-9.53074,8.0236,-9.48448,57.6232
2023-02-16 00:14:47:553,-1.68498,-1.2867,-9.54721,8.00963,-9.48643,57.632
2023-02-16 00:14:47:563,-1.65954,-1.2503,-9.57923,7.99674,-9.48684,57.6378
2023-02-16 00:14:47:573,-1.57088,-1.27104,-9.59206,7.98946,-9.48755,57.6374
2023-02-16 00:14:47:583,-1.54435,-1.27605,-9.59783,7.98569,-9.48832,57.635
2023-02-16 00:14:47:593,-1.5994,-1.28039,-9.59593,7.98559,-9.49304,57.6352
2023-02-16 00:14:47:603,-1.65127,-1.28403,-9.57647,7.98746,-9.50089,57.6343
2023-02-16 00:14:47:613,-1.66719,-1.30387,-9.54901,7.99261,-9.50802,57.6338
2023-02-16 00:14:47:623,-1.65039,-1.32823,-9.54972,7.99752,-9.51828,57.6303
2023-02-16 00:14:47:632,-1.61407,-1.33923,-9.56319,8.00072,-9.52074,57.6246
2023-02-16 00:14:47:642,-1.58068,-1.34097,-9.54145,8.00472,-9.52419,57.6217
2023-02-16 00:14:47:652,-1.56398,-1.37122,-9.50512,8.0097,-9.52442,57.6172
2023-02-16 00:14:47:663,-1.56834,-1.39406,-9.47192,8.01445,-9.52108,57.6162
2023-02-16 00:14:47:673,-1.57165,-1.3898,-9.48052,8.01294,-9.51958,57.6188
2023-02-16 00:14:47:682,-1.57612,-1.36664,-9.53333,8.00782,-9.52042,57.6252
2023-02-16 00:14:47:693,-1.62013,-1.30795,-9.57254,8.0011,-9.52073,57.6321
2023-02-16 00:14:47:703,-1.6589,-1.29104,-9.57051,7.99745,-9.52064,57.6403
2023-02-16 00:14:47:713,-1.68609,-1.31201,-9.52249,7.99691,-9.52064,57.6454
2023-02-16 00:14:47:723,-1.65952,-1.34026,-9.47733,7.99862,-9.51918,57.6473
2023-02-16 00:14:47:732,-1.64065,-1.3511,-9.49006,7.9968,-9.51679,57.642
2023-02-16 00:14:47:743,-1.61182,-1.34131,-9.5318,7.99123,-9.51574,57.6359
2023-02-16 00:14:47:753,-1.55364,-1.33586,-9.55605,7.98696,-9.51416,57.6276
2023-02-16 00:14:47:763,-1.51181,-1.35931,-9.5532,7.98164,-9.51242,57.6201
2023-02-16 00:14:47:772,-1.50095,-1.37809,-9.54697,7.97981,-9.51105,57.6172
2023-02-16 00:14:47:783,-1.52337,-1.3797,-9.54656,7.97012,-9.51623,57.6186
2023-02-16 00:14:47:793,-1.58078,-1.3501,-9.55098,7.95789,-9.52376,57.6246
2023-02-16 00:14:47:803,-1.62932,-1.32355,-9.55694,7.94412,-9.53322,57.6366
2023-02-16 00:14:47:813,-1.63856,-1.32886,-9.53774,7.93511,-9.54375,57.6505
2023-02-16 00:14:47:823,-1.65231,-1.3391,-9.51345,7.92587,-9.55472,57.6659
2023-02-16 00:14:47:832,-1.65296,-1.3487,-9.51096,7.91585,-9.56458,57.6809
2023-02-16 00:14:47:843,-1.64803,-1.33158,-9.52587,7.90301,-9.57252,57.6972
2023-02-16 00:14:47:853,-1.65428,-1.3151,-9.5305,7.89144,-9.58235,57.7132
2023-02-16 00:14:47:863,-1.66783,-1.30676,-9.53001,7.87798,-9.59179,57.7302
2023-02-16 00:14:47:873,-1.66352,-1.28178,-9.5133,7.86715,-9.59486,57.746
2023-02-16 00:14:47:882,-1.65143,-1.2857,-9.51324,7.85675,-9.59909,57.7647
2023-02-16 00:14:47:893,-1.67027,-1.30209,-9.51694,7.84587,-9.59745,57.7791
2023-02-16 00:14:47:903,-1.6882,-1.30364,-9.52915,7.83485,-9.59685,57.7938
2023-02-16 00:14:47:913,-1.69325,-1.29911,-9.54446,7.8232,-9.59991,57.8105
2023-02-16 00:14:47:923,-1.69752,-1.29373,-9.5537,7.81028,-9.59822,57.821
2023-02-16 00:14:47:933,-1.68892,-1.29373,-9.55388,7.79623,-9.59801,57.8336
2023-02-16 00:14:47:943,-1.66006,-1.28091,-9.56658,7.78619,-9.59588,57.8451
2023-02-16 00:14:47:953,-1.64103,-1.27851,-9.57888,7.77349,-9.59292,57.8548
2023-02-16 00:14:47:963,-1.65437,-1.26439,-9.57662,7.75993,-9.59041,57.8633
2023-02-16 00:14:47:973,-1.66486,-1.24224,-9.57369,7.74641,-9.58626,57.8686
2023-02-16 00:14:47:982,-1.64269,-1.22113,-9.58167,7.73614,-9.5852,57.8747
2023-02-16 00:14:47:993,-1.62508,-1.22404,-9.59571,7.72894,-9.57904,57.8776
2023-02-16 00:14:48:3,-1.60349,-1.24028,-9.5823,7.72185,-9.57414,57.879
2023-02-16 00:14:48:12,-1.57559,-1.2481,-9.5694,7.72274,-9.56954,57.8766
2023-02-16 00:14:48:23,-1.5466,-1.26402,-9.56606,7.72057,-9.56736,57.8756
2023-02-16 00:14:48:33,-1.54893,-1.25951,-9.58351,7.71978,-9.56505,57.8793
2023-02-16 00:14:48:43,-1.5736,-1.27128,-9.59089,7.72012,-9.56366,57.8861
2023-02-16 00:14:48:53,-1.58415,-1.30558,-9.56846,7.72277,-9.56178,57.892
2023-02-16 00:14:48:63,-1.58948,-1.33897,-9.53204,7.73445,-9.56337,57.899
2023-02-16 00:14:48:72,-1.60596,-1.35269,-9.52206,7.73966,-9.5636,57.9098
2023-02-16 00:14:48:83,-1.65984,-1.32073,-9.53772,7.73997,-9.56581,57.9221
2023-02-16 00:14:48:93,-1.70359,-1.29639,-9.56046,7.74356,-9.56803,57.9313
2023-02-16 00:14:48:103,-1.72165,-1.30815,-9.56605,7.74814,-9.57103,57.9383
2023-02-16 00:14:48:112,-1.68858,-1.3173,-9.52805,7.75807,-9.56731,57.9378
2023-02-16 00:14:48:123,-1.66742,-1.33806,-9.48816,7.76482,-9.56485,57.9354
2023-02-16 00:14:48:133,-1.64527,-1.36061,-9.47058,7.76758,-9.56024,57.9357
2023-02-16 00:14:48:143,-1.60613,-1.36635,-9.47892,7.77057,-9.55527,57.9263
2023-02-16 00:14:48:152,-1.6228,-1.34429,-9.5084,7.76211,-9.5536,57.9169
2023-02-16 00:14:48:163,-1.63256,-1.31199,-9.53929,7.75592,-9.55434,57.9098
2023-02-16 00:14:48:172,-1.62741,-1.30205,-9.51943,7.75341,-9.55421,57.8989
2023-02-16 00:14:48:183,-1.64916,-1.33507,-9.4753,7.75162,-9.55229,57.8918
2023-02-16 00:14:48:193,-1.68626,-1.35049,-9.43588,7.74779,-9.54731,57.8848
2023-02-16 00:14:48:203,-1.69421,-1.35824,-9.44208,7.73887,-9.54368,57.8756
2023-02-16 00:14:48:213,-1.64086,-1.35692,-9.49127,7.72352,-9.53688,57.8612
2023-02-16 00:14:48:223,-1.57884,-1.3348,-9.54876,7.7063,-9.52719,57.8416
2023-02-16 00:14:48:232,-1.58846,-1.32374,-9.57881,7.68266,-9.51984,57.8279
2023-02-16 00:14:48:243,-1.65007,-1.28625,-9.58956,7.66255,-9.51554,57.8129
2023-02-16 00:14:48:253,-1.70144,-1.27157,-9.58537,7.6441,-9.51172,57.797
2023-02-16 00:14:48:263,-1.71898,-1.27464,-9.55603,7.62905,-9.5074,57.7759
2023-02-16 00:14:48:273,-1.69393,-1.27329,-9.51808,7.61482,-9.50419,57.7534
2023-02-16 00:14:48:283,-1.67155,-1.27929,-9.50756,7.59992,-9.49817,57.7249
2023-02-16 00:14:48:293,-1.70046,-1.26669,-9.535,7.58266,-9.49057,57.7013
2023-02-16 00:14:48:303,-1.73065,-1.22779,-9.57278,7.56622,-9.48429,57.6738
2023-02-16 00:14:48:313,-1.72999,-1.21405,-9.56888,7.55373,-9.48046,57.6401
2023-02-16 00:14:48:323,-1.70453,-1.22497,-9.55124,7.5432,-9.47166,57.6032
2023-02-16 00:14:48:333,-1.65816,-1.25126,-9.51149,7.54198,-9.4599,57.563
2023-02-16 00:14:48:343,-1.62627,-1.29024,-9.48453,7.53601,-9.45031,57.5173
2023-02-16 00:14:48:353,-1.60613,-1.29625,-9.48495,7.52782,-9.43699,57.4744
2023-02-16 00:14:48:363,-1.60516,-1.2998,-9.49939,7.51911,-9.42524,57.4343
2023-02-16 00:14:48:373,-1.60661,-1.28167,-9.53891,7.50481,-9.41278,57.3919
2023-02-16 00:14:48:383,-1.61956,-1.25321,-9.57,7.48877,-9.40275,57.3534
2023-02-16 00:14:48:393,-1.63555,-1.25483,-9.5807,7.47616,-9.39031,57.3155
2023-02-16 00:14:48:403,-1.65063,-1.26066,-9.55657,7.46177,-9.3759,57.2801
2023-02-16 00:14:48:413,-1.65316,-1.26852,-9.5363,7.44825,-9.35762,57.247
2023-02-16 00:14:48:423,-1.6184,-1.26508,-9.55372,7.43218,-9.33681,57.2131
2023-02-16 00:14:48:433,-1.56392,-1.24639,-9.56634,7.41758,-9.31656,57.1769
2023-02-16 00:14:48:443,-1.5461,-1.26207,-9.56312,7.40499,-9.29746,57.1414
2023-02-16 00:14:48:453,-1.54646,-1.28355,-9.53168,7.38972,-9.28201,57.1081
2023-02-16 00:14:48:463,-1.55158,-1.25915,-9.51731,7.37405,-9.26383,57.0763
2023-02-16 00:14:48:473,-1.49664,-1.23648,-9.57392,7.35488,-9.24834,57.0426
2023-02-16 00:14:48:483,-1.45142,-1.20386,-9.60921,7.33439,-9.23516,57.0092
2023-02-16 00:14:48:493,-1.51034,-1.19248,-9.61693,7.31933,-9.22611,56.9783
2023-02-16 00:14:48:503,-1.62446,-1.18669,-9.55595,7.30768,-9.21899,56.9497
2023-02-16 00:14:48:513,-1.67311,-1.19564,-9.50751,7.30159,-9.21219,56.92
2023-02-16 00:14:48:522,-1.6292,-1.21988,-9.48383,7.29085,-9.19913,56.8872
2023-02-16 00:14:48:532,-1.56355,-1.26066,-9.47311,7.28199,-9.17896,56.8506
2023-02-16 00:14:48:543,-1.48708,-1.26977,-9.49399,7.26858,-9.16423,56.8146
2023-02-16 00:14:48:553,-1.41897,-1.24638,-9.56291,7.24757,-9.14458,56.7767
2023-02-16 00:14:48:563,-1.40206,-1.20791,-9.6377,7.22141,-9.12899,56.7458
2023-02-16 00:14:48:573,-1.43452,-1.16298,-9.69343,7.19616,-9.11916,56.7188
2023-02-16 00:14:48:583,-1.48398,-1.12759,-9.69658,7.17469,-9.1145,56.6922
2023-02-16 00:14:48:593,-1.53619,-1.12027,-9.68016,7.15541,-9.11278,56.6707
2023-02-16 00:14:48:603,-1.5332,-1.12622,-9.65143,7.1419,-9.10937,56.6461
2023-02-16 00:14:48:613,-1.50604,-1.14146,-9.61333,7.13371,-9.10667,56.6202
2023-02-16 00:14:48:623,-1.49631,-1.16289,-9.56471,7.12939,-9.10175,56.5955
2023-02-16 00:14:48:633,-1.48163,-1.19921,-9.5345,7.12616,-9.09714,56.5725
2023-02-16 00:14:48:643,-1.44005,-1.2208,-9.52005,7.12166,-9.09513,56.5489
2023-02-16 00:14:48:653,-1.41706,-1.21799,-9.54189,7.11053,-9.09431,56.5268
2023-02-16 00:14:48:662,-1.41398,-1.20225,-9.56838,7.09756,-9.09415,56.5124
2023-02-16 00:14:48:673,-1.43343,-1.19088,-9.59031,7.08168,-9.09619,56.5049
2023-02-16 00:14:48:683,-1.49879,-1.17396,-9.61722,7.06439,-9.10389,56.5019
2023-02-16 00:14:48:693,-1.57863,-1.15734,-9.60989,7.05466,-9.11084,56.5052
2023-02-16 00:14:48:703,-1.62682,-1.14293,-9.59908,7.04246,-9.11434,56.5109
2023-02-16 00:14:48:712,-1.65045,-1.1443,-9.59875,7.03408,-9.1186,56.5127
2023-02-16 00:14:48:723,-1.6586,-1.15635,-9.58001,7.02916,-9.12091,56.5128
2023-02-16 00:14:48:733,-1.62797,-1.16779,-9.56924,7.02571,-9.12036,56.5092
2023-02-16 00:14:48:743,-1.57128,-1.18149,-9.57098,7.02109,-9.11619,56.5051
2023-02-16 00:14:48:753,-1.51451,-1.18132,-9.57263,7.0186,-9.1114,56.4931
2023-02-16 00:14:48:763,-1.49267,-1.17159,-9.5699,7.01495,-9.10292,56.4878
2023-02-16 00:14:48:773,-1.50401,-1.17031,-9.56893,7.00865,-9.09922,56.4854
2023-02-16 00:14:48:782,-1.50882,-1.1656,-9.56192,7.00409,-9.0939,56.4841
2023-02-16 00:14:48:793,-1.48711,-1.16931,-9.56586,7.00109,-9.08212,56.4856
2023-02-16 00:14:48:803,-1.4383,-1.17212,-9.56976,6.99709,-9.06985,56.4901
2023-02-16 00:14:48:813,-1.35288,-1.18894,-9.5717,6.99318,-9.06067,56.4979
2023-02-16 00:14:48:823,-1.23355,-1.21449,-9.58669,6.98498,-9.04869,56.5113
2023-02-16 00:14:48:833,-1.08799,-1.23454,-9.61652,6.97676,-9.03911,56.5372
2023-02-16 00:14:48:843,-1.03215,-1.22831,-9.63206,6.96671,-9.03175,56.5806
2023-02-16 00:14:48:853,-0.999492,-1.2191,-9.63513,6.95382,-9.02575,56.6485
2023-02-16 00:14:48:863,-0.94628,-1.24038,-9.60214,6.94145,-9.01866,56.7398
2023-02-16 00:14:48:872,-0.887439,-1.25862,-9.57921,6.92808,-9.01363,56.8555
2023-02-16 00:14:48:883,-0.843293,-1.26602,-9.57541,6.90545,-9.01211,57.0046
2023-02-16 00:14:48:893,-0.806067,-1.24439,-9.55879,6.87843,-9.01202,57.1863
2023-02-16 00:14:48:902,-0.686266,-1.24938,-9.55701,6.84478,-9.01051,57.4033
2023-02-16 00:14:48:913,-0.510669,-1.27381,-9.58598,6.80567,-9.01069,57.6511
2023-02-16 00:14:48:923,-0.349955,-1.28034,-9.5998,6.75949,-9.01567,57.9444
2023-02-16 00:14:48:932,-0.287885,-1.28526,-9.60724,6.7016,-9.02785,58.2913
2023-02-16 00:14:48:942,-0.352553,-1.2615,-9.60912,6.6354,-9.05309,58.6976
2023-02-16 00:14:48:952,-0.574296,-1.17714,-9.6358,6.55777,-9.08332,59.1636
2023-02-16 00:14:48:962,-0.851972,-1.04413,-9.67058,6.4711,-9.11881,59.6822
2023-02-16 00:14:48:972,-1.00753,-0.981543,-9.71634,6.38839,-9.14764,60.238
2023-02-16 00:14:48:983,-1.0127,-0.946836,-9.75817,6.30855,-9.1711,60.8271
2023-02-16 00:14:48:993,-0.870112,-0.935893,-9.78236,6.2354,-9.18541,61.4417
2023-02-16 00:14:49:3,-0.669519,-0.942889,-9.76567,6.16475,-9.20466,62.0854
2023-02-16 00:14:49:13,-0.570223,-0.962766,-9.66662,6.09596,-9.23621,62.7655
2023-02-16 00:14:49:23,-0.628762,-0.976757,-9.54469,6.02438,-9.2798,63.4883
2023-02-16 00:14:49:33,-0.771493,-0.969504,-9.49048,5.94138,-9.338,64.2595
2023-02-16 00:14:49:42,-0.963587,-0.88267,-9.50896,5.83928,-9.40276,65.0711
2023-02-16 00:14:49:53,-1.18937,-0.79181,-9.54439,5.72292,-9.46772,65.924
2023-02-16 00:14:49:62,-1.55283,-0.708497,-9.58371,5.59855,-9.52725,66.8096
2023-02-16 00:14:49:73,-2.0519,-0.594759,-9.63053,5.47037,-9.58551,67.712
2023-02-16 00:14:49:83,-2.54076,-0.46112,-9.70604,5.34719,-9.63951,68.6122
2023-02-16 00:14:49:92,-2.88376,-0.376954,-9.74014,5.24116,-9.68233,69.4775
2023-02-16 00:14:49:103,-3.05622,-0.407803,-9.68186,5.16079,-9.71513,70.284
2023-02-16 00:14:49:113,-3.08753,-0.502656,-9.56763,5.10292,-9.7481,71.0195
2023-02-16 00:14:49:123,-3.16117,-0.615952,-9.44114,5.05678,-9.78096,71.6778
2023-02-16 00:14:49:133,-3.52041,-0.670149,-9.29664,5.0142,-9.83045,72.2609
2023-02-16 00:14:49:143,-4.10594,-0.638097,-9.18292,4.95933,-9.89974,72.7578
2023-02-16 00:14:49:153,-4.79061,-0.549456,-9.12607,4.90243,-9.98754,73.1423
2023-02-16 00:14:49:163,-5.34134,-0.440467,-9.18263,4.85029,-10.073,73.3857
2023-02-16 00:14:49:172,-5.4501,-0.413126,-9.23869,4.813,-10.1391,73.4547
2023-02-16 00:14:49:182,-5.05521,-0.59668,-9.10132,4.80367,-10.2028,73.3208
2023-02-16 00:14:49:192,-4.61409,-0.715597,-8.96419,4.79617,-10.2617,73.0136
2023-02-16 00:14:49:202,-4.41238,-0.673899,-8.99524,4.78538,-10.3116,72.5662
2023-02-16 00:14:49:213,-4.29646,-0.598537,-9.11523,4.7699,-10.3463,71.9933
2023-02-16 00:14:49:223,-4.10084,-0.521592,-9.2428,4.75474,-10.3753,71.2978
2023-02-16 00:14:49:232,-3.75262,-0.454826,-9.37849,4.74735,-10.3918,70.4811
2023-02-16 00:14:49:243,-3.34498,-0.403592,-9.48388,4.74785,-10.3927,69.5617
2023-02-16 00:14:49:253,-3.06751,-0.40597,-9.47565,4.76087,-10.3778,68.5715
2023-02-16 00:14:49:263,-2.90084,-0.405732,-9.49565,4.77634,-10.3455,67.525
2023-02-16 00:14:49:273,-2.59573,-0.373383,-9.58079,4.80047,-10.2982,66.4324
2023-02-16 00:14:49:283,-2.13921,-0.391603,-9.64065,4.82896,-10.2453,65.2918
2023-02-16 00:14:49:293,-1.65562,-0.389208,-9.7728,4.86015,-10.1699,64.1384
2023-02-16 00:14:49:302,-1.23864,-0.420235,-9.8489,4.90008,-10.0777,62.9896
2023-02-16 00:14:49:312,-0.88848,-0.484903,-9.88566,4.94688,-9.97837,61.8671
2023-02-16 00:14:49:323,-0.639544,-0.523606,-9.96005,4.99306,-9.88185,60.7871
2023-02-16 00:14:49:332,-0.463388,-0.516525,-10.0184,5.0412,-9.78609,59.7595
2023-02-16 00:14:49:343,-0.31826,-0.501834,-10.0549,5.09139,-9.69557,58.7944
2023-02-16 00:14:49:353,-0.226336,-0.512985,-9.98852,5.15199,-9.60182,57.8926
2023-02-16 00:14:49:363,-0.255424,-0.600368,-9.86263,5.22439,-9.50137,57.0735
2023-02-16 00:14:49:373,-0.288298,-0.67752,-9.77117,5.29725,-9.39484,56.33
2023-02-16 00:14:49:383,-0.186882,-0.729669,-9.76149,5.37268,-9.28122,55.6561
2023-02-16 00:14:49:393,-0.0597175,-0.761497,-9.83099,5.44006,-9.16434,55.0494
2023-02-16 00:14:49:403,0.0358933,-0.760381,-9.90951,5.50586,-9.04313,54.5155
2023-02-16 00:14:49:412,0.090581,-0.781018,-9.92734,5.57342,-8.92855,54.0539
2023-02-16 00:14:49:423,0.0699632,-0.864928,-9.86056,5.64733,-8.82448,53.6638
2023-02-16 00:14:49:433,-0.0206771,-0.910923,-9.80046,5.72345,-8.73232,53.3465
2023-02-16 00:14:49:443,-0.159438,-0.931993,-9.73333,5.79412,-8.65362,53.0979
2023-02-16 00:14:49:453,-0.320561,-0.948521,-9.67406,5.8583,-8.58455,52.9068
2023-02-16 00:14:49:463,-0.527007,-0.974871,-9.60725,5.92014,-8.52492,52.7651
2023-02-16 00:14:49:473,-0.631054,-0.968109,-9.60831,5.97602,-8.46263,52.672
2023-02-16 00:14:49:483,-0.668507,-1.01172,-9.55373,6.02819,-8.40543,52.6141
2023-02-16 00:14:49:493,-0.70133,-1.03893,-9.55699,6.07284,-8.35054,52.5809
2023-02-16 00:14:49:503,-0.646619,-1.11422,-9.53008,6.11088,-8.30813,52.5754
2023-02-16 00:14:49:513,-0.719108,-1.12631,-9.55442,6.13698,-8.2751,52.6029
2023-02-16 00:14:49:523,-0.839233,-1.11877,-9.60985,6.15108,-8.25553,52.6594
2023-02-16 00:14:49:532,-0.879621,-1.13745,-9.62719,6.15637,-8.2506,52.7318
2023-02-16 00:14:49:542,-0.931171,-1.09351,-9.65455,6.15771,-8.25688,52.8187
2023-02-16 00:14:49:552,-1.06668,-1.04719,-9.68056,6.15467,-8.27351,52.9222
2023-02-16 00:14:49:562,-1.21176,-0.998518,-9.70193,6.15651,-8.29159,53.0398
2023-02-16 00:14:49:573,-1.23235,-1.01942,-9.68733,6.16403,-8.31214,53.155
2023-02-16 00:14:49:583,-1.15069,-1.08016,-9.63682,6.17861,-8.33193,53.2696
2023-02-16 00:14:49:593,-1.01808,-1.13004,-9.60428,6.19916,-8.35084,53.3929
2023-02-16 00:14:49:603,-0.852028,-1.18378,-9.55525,6.21594,-8.369,53.5259
2023-02-16 00:14:49:613,-0.676622,-1.24283,-9.5305,6.2264,-8.39188,53.6823
2023-02-16 00:14:49:623,-0.452722,-1.28881,-9.5279,6.22916,-8.41952,53.8668
2023-02-16 00:14:49:633,-0.240047,-1.3058,-9.54935,6.21992,-8.44992,54.0983
2023-02-16 00:14:49:643,-0.0945905,-1.32585,-9.5385,6.19692,-8.48709,54.3823
2023-02-16 00:14:49:653,-0.0237661,-1.33108,-9.50391,6.15831,-8.52919,54.736
2023-02-16 00:14:49:663,-0.0237661,-1.30994,-9.48592,6.10121,-8.57631,55.165
2023-02-16 00:14:49:673,-0.0459398,-1.25201,-9.48882,6.02665,-8.62368,55.6673
2023-02-16 00:14:49:683,-0.0933286,-1.15953,-9.53213,5.93295,-8.66763,56.2476
2023-02-16 00:14:49:692,-0.105413,-1.07279,-9.60377,5.82286,-8.70513,56.8967
2023-02-16 00:14:49:703,-0.106758,-0.977125,-9.67363,5.70337,-8.73897,57.6165
2023-02-16 00:14:49:713,-0.192969,-0.849311,-9.73839,5.57555,-8.77557,58.4052
2023-02-16 00:14:49:723,-0.361834,-0.758604,-9.7555,5.44482,-8.81592,59.2585
2023-02-16 00:14:49:733,-0.579744,-0.642488,-9.74918,5.30972,-8.84892,60.1763
2023-02-16 00:14:49:743,-0.787455,-0.567898,-9.69196,5.17556,-8.88125,61.1431
2023-02-16 00:14:49:753,-0.933068,-0.562804,-9.62636,5.0457,-8.9096,62.1451
2023-02-16 00:14:49:763,-1.061,-0.484355,-9.65464,4.91159,-8.92797,63.1816
2023-02-16 00:14:49:773,-1.17133,-0.373351,-9.77707,4.78124,-8.92771,64.2509
2023-02-16 00:14:49:783,-1.26891,-0.369513,-9.8091,4.65807,-8.92957,65.3343
2023-02-16 00:14:49:792,-1.41898,-0.330061,-9.84074,4.53469,-8.93768,66.426
2023-02-16 00:14:49:803,-1.68301,-0.17884,-9.88509,4.41688,-8.95419,67.5228
2023-02-16 00:14:49:813,-2.02984,-0.0904354,-9.86844,4.30729,-8.98103,68.6132
2023-02-16 00:14:49:823,-2.30299,-0.0894807,-9.7708,4.21553,-9.01162,69.6836
2023-02-16 00:14:49:833,-2.41269,-0.153176,-9.60409,4.14067,-9.04814,70.7138
2023-02-16 00:14:49:843,-2.38729,-0.236624,-9.47012,4.06953,-9.07872,71.7011
2023-02-16 00:14:49:853,-2.35986,-0.348031,-9.33301,4.00102,-9.10731,72.6466
2023-02-16 00:14:49:863,-2.37538,-0.453434,-9.26748,3.92426,-9.14235,73.5522
2023-02-16 00:14:49:873,-2.50608,-0.436428,-9.3519,3.83174,-9.18676,74.418
2023-02-16 00:14:49:883,-2.69949,-0.317976,-9.52148,3.71859,-9.24275,75.2442
2023-02-16 00:14:49:893,-2.87871,-0.134483,-9.71003,3.60598,-9.30223,76.0179
2023-02-16 00:14:49:903,-2.9762,-0.042462,-9.8308,3.50971,-9.35718,76.7338
2023-02-16 00:14:49:913,-2.94559,-0.0881314,-9.79747,3.44483,-9.40367,77.381
2023-02-16 00:14:49:923,-2.75607,-0.241941,-9.62767,3.40943,-9.44111,77.9598
2023-02-16 00:14:49:933,-2.5181,-0.395944,-9.45472,3.38793,-9.47508,78.482
2023-02-16 00:14:49:943,-2.38382,-0.494611,-9.34566,3.36612,-9.50562,78.9589
2023-02-16 00:14:49:953,-2.30551,-0.551212,-9.30911,3.33574,-9.53902,79.4032
2023-02-16 00:14:49:963,-2.24989,-0.54568,-9.35362,3.28931,-9.57753,79.8186
2023-02-16 00:14:49:973,-2.2499,-0.489114,-9.49268,3.23317,-9.61148,80.207
2023-02-16 00:14:49:983,-2.31449,-0.414105,-9.61688,3.16898,-9.64721,80.5709
2023-02-16 00:14:49:993,-2.33481,-0.37192,-9.67547,3.10928,-9.68156,80.9089
2023-02-16 00:14:50:3,-2.30245,-0.353659,-9.72135,3.06341,-9.70903,81.2131
2023-02-16 00:14:50:13,-2.25233,-0.40089,-9.70517,3.02949,-9.72754,81.4915
2023-02-16 00:14:50:23,-2.1639,-0.438322,-9.68812,3.0054,-9.74133,81.7384
2023-02-16 00:14:50:33,-2.09968,-0.423008,-9.68148,2.98633,-9.76107,81.9578
2023-02-16 00:14:50:43,-2.08707,-0.446786,-9.62639,2.97581,-9.78244,82.155
2023-02-16 00:14:50:52,-2.11073,-0.474132,-9.564,2.96194,-9.81182,82.3345
2023-02-16 00:14:50:63,-2.09203,-0.466077,-9.51863,2.94801,-9.83962,82.4921
2023-02-16 00:14:50:73,-2.08051,-0.451199,-9.50267,2.92941,-9.86778,82.6277
2023-02-16 00:14:50:83,-2.09655,-0.42954,-9.48987,2.91136,-9.89698,82.7427
2023-02-16 00:14:50:93,-2.1019,-0.417166,-9.4967,2.89209,-9.92321,82.8383
2023-02-16 00:14:50:103,-2.0832,-0.417219,-9.53544,2.87389,-9.94993,82.9129
2023-02-16 00:14:50:113,-2.04968,-0.417063,-9.55852,2.85602,-9.97811,82.9709
2023-02-16 00:14:50:123,-2.01463,-0.421557,-9.56576,2.84153,-10.0038,83.0082
2023-02-16 00:14:50:132,-1.9719,-0.426682,-9.5985,2.83028,-10.0313,83.0264
2023-02-16 00:14:50:143,-1.92898,-0.400006,-9.64543,2.81791,-10.0536,83.0306
2023-02-16 00:14:50:152,-1.88883,-0.396121,-9.67371,2.81311,-10.0792,83.0234
2023-02-16 00:14:50:163,-1.86714,-0.417423,-9.66157,2.81163,-10.1039,83.0092
2023-02-16 00:14:50:173,-1.89206,-0.434747,-9.62008,2.8135,-10.1258,82.9866
2023-02-16 00:14:50:183,-1.91712,-0.428673,-9.60037,2.81323,-10.1473,82.9616
2023-02-16 00:14:50:193,-1.91565,-0.437686,-9.60456,2.8122,-10.1661,82.9308
2023-02-16 00:14:50:203,-1.89851,-0.437341,-9.60287,2.80775,-10.1781,82.8965
2023-02-16 00:14:50:212,-1.8783,-0.424077,-9.59933,2.80266,-10.1871,82.8547
2023-02-16 00:14:50:223,-1.83393,-0.433216,-9.61193,2.80236,-10.1977,82.8044
2023-02-16 00:14:50:233,-1.79818,-0.417264,-9.6347,2.80103,-10.2076,82.7507
2023-02-16 00:14:50:243,-1.79687,-0.404833,-9.65515,2.80424,-10.2124,82.6955
2023-02-16 00:14:50:253,-1.75413,-0.39664,-9.67633,2.80908,-10.2154,82.6388
2023-02-16 00:14:50:263,-1.67336,-0.404242,-9.66837,2.8232,-10.2119,82.5814
2023-02-16 00:14:50:272,-1.62498,-0.441998,-9.63995,2.84108,-10.2092,82.5231
2023-02-16 00:14:50:282,-1.62084,-0.478174,-9.60085,2.86248,-10.2057,82.4718
2023-02-16 00:14:50:293,-1.64574,-0.502736,-9.58294,2.88226,-10.2086,82.4288
2023-02-16 00:14:50:302,-1.64986,-0.507049,-9.59067,2.89929,-10.208,82.3919
2023-02-16 00:14:50:313,-1.67739,-0.479669,-9.62501,2.91346,-10.2105,82.3539
2023-02-16 00:14:50:323,-1.6873,-0.472602,-9.64361,2.92305,-10.211,82.3206
2023-02-16 00:14:50:333,-1.68363,-0.477714,-9.66221,2.93378,-10.2116,82.2913
2023-02-16 00:14:50:343,-1.66605,-0.472418,-9.66291,2.94806,-10.2083,82.2638
2023-02-16 00:14:50:353,-1.66986,-0.484942,-9.64406,2.96285,-10.2066,82.2403
2023-02-16 00:14:50:363,-1.67988,-0.504902,-9.59135,2.98103,-10.2078,82.223
2023-02-16 00:14:50:373,-1.72143,-0.522935,-9.55738,2.99753,-10.2062,82.2083
2023-02-16 00:14:50:382,-1.80874,-0.501168,-9.55731,3.0092,-10.2056,82.1936
2023-02-16 00:14:50:393,-1.86948,-0.477571,-9.56093,3.01581,-10.2071,82.1765
2023-02-16 00:14:50:403,-1.87421,-0.468193,-9.55071,3.02675,-10.2083,82.1548
2023-02-16 00:14:50:412,-1.84227,-0.487364,-9.53268,3.03824,-10.2025,82.1241
2023-02-16 00:14:50:423,-1.78609,-0.509474,-9.52367,3.04979,-10.1998,82.0917
2023-02-16 00:14:50:433,-1.77088,-0.501561,-9.53814,3.0565,-10.1932,82.0542
2023-02-16 00:14:50:443,-1.76094,-0.500961,-9.57461,3.06239,-10.1897,82.0119
2023-02-16 00:14:50:453,-1.73115,-0.489479,-9.61556,3.06627,-10.1872,81.967
2023-02-16 00:14:50:463,-1.70891,-0.474077,-9.66245,3.06782,-10.1849,81.9199
2023-02-16 00:14:50:473,-1.7059,-0.465586,-9.68462,3.07351,-10.1802,81.8697
2023-02-16 00:14:50:483,-1.72552,-0.466061,-9.67208,3.08037,-10.178,81.8238
2023-02-16 00:14:50:493,-1.72725,-0.476412,-9.63176,3.09517,-10.1734,81.778
2023-02-16 00:14:50:503,-1.71547,-0.513307,-9.59314,3.11108,-10.1711,81.7298
2023-02-16 00:14:50:513,-1.72233,-0.52889,-9.58626,3.12716,-10.1659,81.6788
2023-02-16 00:14:50:523,-1.71533,-0.517674,-9.58809,3.14154,-10.1569,81.6265
2023-02-16 00:14:50:532,-1.72283,-0.51181,-9.58618,3.15531,-10.1545,81.571
2023-02-16 00:14:50:543,-1.71763,-0.52612,-9.6019,3.17035,-10.1508,81.5122
2023-02-16 00:14:50:552,-1.71972,-0.538479,-9.63445,3.1821,-10.1496,81.4473
2023-02-16 00:14:50:562,-1.74629,-0.502703,-9.62989,3.19505,-10.151,81.3826
2023-02-16 00:14:50:573,-1.78418,-0.49821,-9.62748,3.21097,-10.155,81.3146
2023-02-16 00:14:50:583,-1.79744,-0.515058,-9.61801,3.23266,-10.1591,81.2393
2023-02-16 00:14:50:593,-1.81974,-0.55364,-9.59876,3.25491,-10.164,81.1569
2023-02-16 00:14:50:603,-1.92906,-0.548944,-9.59691,3.27987,-10.1686,81.0683
2023-02-16 00:14:50:613,-2.07322,-0.49613,-9.61166,3.30143,-10.1784,80.9716
2023-02-16 00:14:50:623,-2.17369,-0.483441,-9.60264,3.32594,-10.1892,80.8568
2023-02-16 00:14:50:633,-2.24302,-0.494196,-9.58993,3.35931,-10.1973,80.719
2023-02-16 00:14:50:643,-2.29955,-0.48566,-9.60294,3.39504,-10.2091,80.5545
2023-02-16 00:14:50:653,-2.32927,-0.498691,-9.57586,3.43393,-10.2133,80.36
2023-02-16 00:14:50:663,-2.34356,-0.519153,-9.5459,3.47836,-10.2194,80.1366
2023-02-16 00:14:50:673,-2.47504,-0.50321,-9.51953,3.52227,-10.2235,79.8822
2023-02-16 00:14:50:683,-2.74922,-0.426304,-9.56276,3.56561,-10.2305,79.5955
2023-02-16 00:14:50:693,-3.01234,-0.272653,-9.63488,3.61608,-10.2357,79.2614
2023-02-16 00:14:50:703,-2.99803,-0.231056,-9.7095,3.68114,-10.2333,78.8618
2023-02-16 00:14:50:713,-2.67176,-0.310889,-9.71607,3.77057,-10.2215,78.3888
2023-02-16 00:14:50:722,-2.3022,-0.423737,-9.67115,3.87834,-10.2007,77.8543
2023-02-16 00:14:50:732,-2.09691,-0.510312,-9.61938,3.99463,-10.1864,77.2804
2023-02-16 00:14:50:743,-2.09285,-0.520415,-9.58917,4.10954,-10.1807,76.6865
2023-02-16 00:14:50:753,-2.11779,-0.505846,-9.60083,4.22346,-10.1786,76.0712
2023-02-16 00:14:50:763,-2.12647,-0.478742,-9.61979,4.34212,-10.1691,75.4375
2023-02-16 00:14:50:773,-2.10446,-0.455525,-9.62557,4.46543,-10.1513,74.786
2023-02-16 00:14:50:783,-1.90307,-0.50473,-9.63457,4.59592,-10.1188,74.1139
2023-02-16 00:14:50:793,-1.62036,-0.59818,-9.63664,4.73037,-10.0756,73.4316
2023-02-16 00:14:50:803,-1.38937,-0.687872,-9.65752,4.86726,-10.0271,72.7526
2023-02-16 00:14:50:813,-1.19448,-0.73516,-9.69829,5.00674,-9.97315,72.0858
2023-02-16 00:14:50:823,-1.03689,-0.767888,-9.72015,5.14127,-9.92325,71.4387
2023-02-16 00:14:50:833,-0.96274,-0.826177,-9.68354,5.27962,-9.87735,70.8178
2023-02-16 00:14:50:843,-0.967883,-0.860599,-9.64548,5.41687,-9.83342,70.2335
2023-02-16 00:14:50:852,-0.902876,-0.912733,-9.62147,5.54908,-9.78432,69.6825
2023-02-16 00:14:50:863,-0.830873,-0.983657,-9.59127,5.68195,-9.7308,69.1717
2023-02-16 00:14:50:873,-0.874306,-1.03643,-9.57091,5.80873,-9.67774,68.7047
2023-02-16 00:14:50:883,-0.999723,-1.01177,-9.60852,5.92169,-9.63196,68.2765
2023-02-16 00:14:50:893,-1.06883,-0.988369,-9.67836,6.02728,-9.58668,67.8754
2023-02-16 00:14:50:903,-0.982899,-0.993736,-9.7345,6.13093,-9.53699,67.5048
2023-02-16 00:14:50:913,-0.884134,-1.04944,-9.74872,6.23921,-9.48743,67.1639
2023-02-16 00:14:50:923,-0.869895,-1.11507,-9.6841,6.34877,-9.44871,66.8514
2023-02-16 00:14:50:933,-0.953316,-1.14874,-9.63802,6.45934,-9.4223,66.5735
2023-02-16 00:14:50:943,-1.07752,-1.12969,-9.60249,6.56478,-9.40503,66.3281
2023-02-16 00:14:50:953,-1.17472,-1.14249,-9.56343,6.66285,-9.3929,66.1053
2023-02-16 00:14:50:963,-1.18693,-1.17126,-9.50911,6.75934,-9.38653,65.9014
2023-02-16 00:14:50:973,-1.12634,-1.23816,-9.4866,6.85166,-9.3806,65.7149
2023-02-16 00:14:50:983,-1.08744,-1.27672,-9.47804,6.93963,-9.37899,65.5445
2023-02-16 00:14:50:993,-1.19527,-1.28538,-9.46121,7.01695,-9.38351,65.3968
2023-02-16 00:14:51:3,-1.3271,-1.28374,-9.43939,7.08934,-9.3935,65.274
2023-02-16 00:14:51:13,-1.3818,-1.27716,-9.43496,7.1576,-9.40383,65.1617
2023-02-16 00:14:51:23,-1.3867,-1.31152,-9.44115,7.22021,-9.40993,65.0574
2023-02-16 00:14:51:32,-1.41227,-1.34201,-9.44357,7.27236,-9.41623,64.9679
2023-02-16 00:14:51:43,-1.45451,-1.33867,-9.44387,7.32173,-9.42586,64.8867
2023-02-16 00:14:51:53,-1.49922,-1.31997,-9.45965,7.36457,-9.43573,64.8176
2023-02-16 00:14:51:62,-1.50269,-1.32984,-9.49098,7.40116,-9.44326,64.7528
2023-02-16 00:14:51:73,-1.47334,-1.35066,-9.51057,7.43478,-9.44636,64.6936
2023-02-16 00:14:51:83,-1.4532,-1.37087,-9.51238,7.46534,-9.44714,64.6437
2023-02-16 00:14:51:93,-1.42235,-1.38024,-9.49173,7.49188,-9.44553,64.5985
2023-02-16 00:14:51:103,-1.46757,-1.38897,-9.45736,7.51406,-9.4416,64.5703
2023-02-16 00:14:51:113,-1.59001,-1.38034,-9.44379,7.53236,-9.44177,64.5458
2023-02-16 00:14:51:123,-1.67609,-1.37387,-9.48359,7.5432,-9.4374,64.528
2023-02-16 00:14:51:133,-1.65838,-1.32474,-9.52809,7.55211,-9.43024,64.5116
2023-02-16 00:14:51:143,-1.57705,-1.29506,-9.54427,7.56239,-9.41187,64.4885
2023-02-16 00:14:51:153,-1.48873,-1.3297,-9.52928,7.57345,-9.39404,64.4631
2023-02-16 00:14:51:162,-1.48194,-1.36126,-9.50639,7.58502,-9.38018,64.4408
2023-02-16 00:14:51:172,-1.48831,-1.37742,-9.50145,7.59604,-9.36896,64.4216
2023-02-16 00:14:51:183,-1.5085,-1.37405,-9.51017,7.60177,-9.36056,64.4055
2023-02-16 00:14:51:193,-1.52118,-1.34919,-9.52923,7.60353,-9.3538,64.3867
2023-02-16 00:14:51:203,-1.52867,-1.32574,-9.56563,7.60512,-9.34878,64.3666
2023-02-16 00:14:51:213,-1.55241,-1.30802,-9.58422,7.60595,-9.34426,64.3432
2023-02-16 00:14:51:223,-1.52056,-1.30034,-9.58768,7.60644,-9.33922,64.3246
2023-02-16 00:14:51:232,-1.50683,-1.29972,-9.60145,7.60945,-9.33212,64.3042
2023-02-16 00:14:51:243,-1.55275,-1.28481,-9.58848,7.60889,-9.33018,64.2869
2023-02-16 00:14:51:252,-1.63529,-1.27888,-9.56427,7.60815,-9.33038,64.2698
2023-02-16 00:14:51:263,-1.67787,-1.27908,-9.54678,7.60898,-9.33155,64.2501
2023-02-16 00:14:51:272,-1.65528,-1.27045,-9.55112,7.61012,-9.33046,64.2242
2023-02-16 00:14:51:283,-1.64816,-1.25025,-9.56274,7.61465,-9.3276,64.1922
2023-02-16 00:14:51:292,-1.63771,-1.248,-9.57211,7.61976,-9.3274,64.1566
2023-02-16 00:14:51:302,-1.5947,-1.25992,-9.55066,7.62603,-9.3306,64.1194
2023-02-16 00:14:51:313,-1.53941,-1.28221,-9.54439,7.63217,-9.33417,64.0746
2023-02-16 00:14:51:323,-1.48828,-1.30617,-9.55552,7.63785,-9.33528,64.0285
2023-02-16 00:14:51:333,-1.48926,-1.30555,-9.57953,7.64385,-9.33968,63.9839
2023-02-16 00:14:51:343,-1.52559,-1.27885,-9.59706,7.64568,-9.34131,63.9412
2023-02-16 00:14:51:353,-1.55658,-1.26469,-9.59973,7.64989,-9.34588,63.9045
2023-02-16 00:14:51:363,-1.58563,-1.2702,-9.58455,7.65802,-9.35011,63.8713
2023-02-16 00:14:51:372,-1.58806,-1.28045,-9.55201,7.66698,-9.3543,63.8357
2023-02-16 00:14:51:383,-1.57017,-1.29637,-9.54903,7.67835,-9.35744,63.7986
2023-02-16 00:14:51:393,-1.54913,-1.2889,-9.56909,7.68622,-9.3603,63.7628
2023-02-16 00:14:51:402,-1.54492,-1.26629,-9.5798,7.69459,-9.3613,63.7295
2023-02-16 00:14:51:412,-1.52683,-1.2658,-9.56912,7.707,-9.36544,63.6936
2023-02-16 00:14:51:422,-1.52921,-1.2906,-9.54138,7.71974,-9.36735,63.6587
2023-02-16 00:14:51:432,-1.50345,-1.32485,-9.51347,7.73143,-9.36836,63.6231
2023-02-16 00:14:51:443,-1.47619,-1.32564,-9.49346,7.74178,-9.36807,63.5907
2023-02-16 00:14:51:452,-1.51862,-1.32669,-9.52223,7.74849,-9.37472,63.5621
2023-02-16 00:14:51:462,-1.57658,-1.29402,-9.54508,7.75103,-9.38604,63.5391
2023-02-16 00:14:51:473,-1.5858,-1.28617,-9.56645,7.75585,-9.39774,63.5143
2023-02-16 00:14:51:483,-1.60252,-1.30653,-9.53891,7.76371,-9.4052,63.4915
2023-02-16 00:14:51:492,-1.61531,-1.30563,-9.51591,7.76933,-9.41063,63.4684
2023-02-16 00:14:51:503,-1.63785,-1.30383,-9.54036,7.77561,-9.41501,63.4432
2023-02-16 00:14:51:512,-1.64021,-1.29097,-9.58747,7.7801,-9.42416,63.4175
2023-02-16 00:14:51:523,-1.63498,-1.26178,-9.62874,7.78369,-9.43141,63.3908
2023-02-16 00:14:51:532,-1.65399,-1.24915,-9.6428,7.79214,-9.43726,63.3577
2023-02-16 00:14:51:542,-1.6627,-1.25417,-9.60665,7.80711,-9.4492,63.3184
2023-02-16 00:14:51:552,-1.65653,-1.27804,-9.56375,7.82404,-9.45979,63.2752
2023-02-16 00:14:51:563,-1.62866,-1.2984,-9.55388,7.84119,-9.47393,63.2234
2023-02-16 00:14:51:572,-1.58958,-1.31993,-9.54127,7.8609,-9.48665,63.1708
2023-02-16 00:14:51:583,-1.55708,-1.35006,-9.52157,7.87982,-9.50341,63.1162
2023-02-16 00:14:51:593,-1.573,-1.3858,-9.50776,7.89639,-9.52008,63.0623
2023-02-16 00:14:51:602,-1.59275,-1.37947,-9.46579,7.90948,-9.53968,63.0151
2023-02-16 00:14:51:612,-1.64884,-1.36968,-9.47126,7.9209,-9.55513,62.9714
2023-02-16 00:14:51:622,-1.67281,-1.35841,-9.48446,7.92798,-9.57172,62.9297
2023-02-16 00:14:51:633,-1.65791,-1.34314,-9.50173,7.9317,-9.5857,62.8879
2023-02-16 00:14:51:643,-1.64293,-1.33273,-9.52402,7.93612,-9.59459,62.8495
2023-02-16 00:14:51:653,-1.63966,-1.32338,-9.52929,7.94101,-9.60634,62.811
2023-02-16 00:14:51:662,-1.59586,-1.3364,-9.54558,7.94477,-9.61099,62.7737
2023-02-16 00:14:51:672,-1.54988,-1.34866,-9.5374,7.95107,-9.61132,62.7417
2023-02-16 00:14:51:682,-1.55991,-1.34485,-9.53131,7.95648,-9.61107,62.712
2023-02-16 00:14:51:692,-1.55869,-1.33991,-9.52502,7.95969,-9.61118,62.6854
2023-02-16 00:14:51:702,-1.55678,-1.35041,-9.52515,7.96193,-9.60967,62.6697
2023-02-16 00:14:51:712,-1.56436,-1.33641,-9.52758,7.96399,-9.60793,62.6582
2023-02-16 00:14:51:722,-1.60622,-1.31694,-9.52675,7.96494,-9.6036,62.6483
2023-02-16 00:14:51:732,-1.66228,-1.31889,-9.49564,7.96162,-9.60232,62.6441
2023-02-16 00:14:51:742,-1.66735,-1.32325,-9.50992,7.95859,-9.59536,62.6372
2023-02-16 00:14:51:752,-1.58982,-1.3264,-9.57954,7.9563,-9.58538,62.6296
2023-02-16 00:14:51:762,-1.52038,-1.33368,-9.60287,7.95192,-9.57255,62.6226
2023-02-16 00:14:51:773,-1.54941,-1.36637,-9.59843,7.94963,-9.56557,62.6142
2023-02-16 00:14:51:783,-1.62602,-1.37594,-9.5359,7.9463,-9.56648,62.6061
2023-02-16 00:14:51:793,-1.66874,-1.39434,-9.47652,7.94478,-9.57353,62.6011
2023-02-16 00:14:51:803,-1.71149,-1.40412,-9.40169,7.93538,-9.5817,62.5955
2023-02-16 00:14:51:813,-1.79221,-1.41201,-9.34903,7.91816,-9.5866,62.5883
2023-02-16 00:14:51:823,-1.81166,-1.41192,-9.35848,7.89814,-9.58773,62.5727
2023-02-16 00:14:51:832,-1.76653,-1.36804,-9.42992,7.86913,-9.58698,62.5482
2023-02-16 00:14:51:843,-1.75014,-1.31791,-9.48901,7.83485,-9.58312,62.5212
2023-02-16 00:14:51:852,-1.75693,-1.31149,-9.52014,7.80415,-9.57666,62.4885
2023-02-16 00:14:51:863,-1.74181,-1.30802,-9.51724,7.77502,-9.56961,62.4529
2023-02-16 00:14:51:873,-1.70045,-1.31864,-9.53442,7.75164,-9.56287,62.4109
2023-02-16 00:14:51:883,-1.69489,-1.31065,-9.55959,7.72735,-9.55651,62.365
2023-02-16 00:14:51:893,-1.68471,-1.29197,-9.5701,7.70562,-9.54719,62.3133
2023-02-16 00:14:51:903,-1.66062,-1.3032,-9.56251,7.6873,-9.53935,62.2589
2023-02-16 00:14:51:913,-1.61262,-1.32304,-9.5487,7.66794,-9.53007,62.203
2023-02-16 00:14:51:923,-1.56975,-1.31406,-9.55179,7.64738,-9.51808,62.1478
2023-02-16 00:14:51:933,-1.55365,-1.28864,-9.58293,7.62582,-9.5041,62.0964
2023-02-16 00:14:51:943,-1.58459,-1.26526,-9.61575,7.6003,-9.49203,62.0482
2023-02-16 00:14:51:953,-1.62916,-1.22761,-9.60663,7.57682,-9.48247,62.0011
2023-02-16 00:14:51:963,-1.62109,-1.21708,-9.57276,7.5552,-9.47496,61.9544
2023-02-16 00:14:51:973,-1.60546,-1.24365,-9.54699,7.53595,-9.46528,61.9031
2023-02-16 00:14:51:983,-1.6353,-1.23963,-9.54434,7.51459,-9.45559,61.8519
2023-02-16 00:14:51:993,-1.63436,-1.21829,-9.57295,7.49256,-9.44715,61.8005
2023-02-16 00:14:52:3,-1.58611,-1.20183,-9.61394,7.47317,-9.43631,61.7477
2023-02-16 00:14:52:13,-1.5116,-1.20476,-9.60294,7.45636,-9.42312,61.6966
2023-02-16 00:14:52:23,-1.46056,-1.21144,-9.56773,7.44479,-9.41179,61.6474
2023-02-16 00:14:52:33,-1.48807,-1.24903,-9.54493,7.43398,-9.39483,61.6012
2023-02-16 00:14:52:43,-1.5263,-1.25586,-9.54434,7.42238,-9.38236,61.5652
2023-02-16 00:14:52:53,-1.55355,-1.24117,-9.55021,7.40772,-9.37121,61.5336
2023-02-16 00:14:52:63,-1.5749,-1.22961,-9.54689,7.39191,-9.36288,61.5083
2023-02-16 00:14:52:72,-1.55054,-1.22913,-9.56922,7.37564,-9.34806,61.4785
2023-02-16 00:14:52:82,-1.50665,-1.23044,-9.5958,7.35745,-9.33291,61.4517
2023-02-16 00:14:52:93,-1.46724,-1.22203,-9.6103,7.34028,-9.32039,61.4255
2023-02-16 00:14:52:103,-1.4225,-1.20595,-9.61604,7.32382,-9.303,61.4027
2023-02-16 00:14:52:113,-1.382,-1.20516,-9.62019,7.30613,-9.29071,61.3858
2023-02-16 00:14:52:123,-1.37305,-1.20828,-9.63107,7.29288,-9.28229,61.375
2023-02-16 00:14:52:133,-1.37208,-1.19213,-9.61606,7.28295,-9.27611,61.3683
2023-02-16 00:14:52:143,-1.42919,-1.17505,-9.60143,7.27611,-9.27498,61.3693
2023-02-16 00:14:52:153,-1.4995,-1.16841,-9.58864,7.26472,-9.27356,61.3795
2023-02-16 00:14:52:162,-1.54899,-1.18102,-9.56932,7.25784,-9.27288,61.3914
2023-02-16 00:14:52:172,-1.53388,-1.20289,-9.56644,7.25345,-9.27252,61.4023
2023-02-16 00:14:52:182,-1.50521,-1.22705,-9.57189,7.24948,-9.27473,61.411
2023-02-16 00:14:52:193,-1.48914,-1.23246,-9.56863,7.24362,-9.27666,61.4182
2023-02-16 00:14:52:203,-1.49388,-1.23003,-9.56428,7.24175,-9.28398,61.4276
2023-02-16 00:14:52:213,-1.51207,-1.23611,-9.58289,7.23328,-9.29426,61.4402
2023-02-16 00:14:52:223,-1.53883,-1.23724,-9.60273,7.2257,-9.30751,61.4558
2023-02-16 00:14:52:233,-1.57869,-1.21931,-9.58318,7.21973,-9.3242,61.4736
2023-02-16 00:14:52:243,-1.62388,-1.20978,-9.56149,7.21576,-9.33949,61.4923
2023-02-16 00:14:52:252,-1.67799,-1.21034,-9.54835,7.20799,-9.35351,61.5136
2023-02-16 00:14:52:263,-1.70851,-1.21071,-9.53204,7.20167,-9.36895,61.532
2023-02-16 00:14:52:273,-1.70104,-1.20812,-9.50891,7.19431,-9.37857,61.551
2023-02-16 00:14:52:283,-1.68295,-1.20224,-9.51652,7.18586,-9.38473,61.569
2023-02-16 00:14:52:293,-1.6654,-1.20521,-9.53843,7.17584,-9.38815,61.5853
2023-02-16 00:14:52:303,-1.63924,-1.20848,-9.53764,7.17004,-9.39072,61.5936
2023-02-16 00:14:52:313,-1.61156,-1.21329,-9.51867,7.16157,-9.39017,61.5998
2023-02-16 00:14:52:323,-1.59636,-1.22006,-9.52447,7.1516,-9.38826,61.6088
2023-02-16 00:14:52:333,-1.56194,-1.20999,-9.55028,7.14145,-9.39015,61.6174
2023-02-16 00:14:52:343,-1.52767,-1.20214,-9.57406,7.13187,-9.39181,61.625
2023-02-16 00:14:52:353,-1.55017,-1.18825,-9.58152,7.12082,-9.39247,61.6353
2023-02-16 00:14:52:363,-1.59964,-1.17563,-9.58423,7.10881,-9.39641,61.6508
2023-02-16 00:14:52:373,-1.62849,-1.15577,-9.58541,7.09695,-9.39675,61.6666
2023-02-16 00:14:52:383,-1.65985,-1.1528,-9.59265,7.0841,-9.39644,61.6818
2023-02-16 00:14:52:392,-1.67965,-1.14225,-9.58632,7.0736,-9.39622,61.6931
2023-02-16 00:14:52:403,-1.6538,-1.14285,-9.58172,7.06474,-9.3928,61.6998
2023-02-16 00:14:52:412,-1.59858,-1.16013,-9.59114,7.05854,-9.39073,61.7015
2023-02-16 00:14:52:422,-1.56957,-1.15949,-9.58284,7.05237,-9.38947,61.7007
2023-02-16 00:14:52:433,-1.56145,-1.15851,-9.58042,7.04347,-9.38766,61.702
2023-02-16 00:14:52:443,-1.57795,-1.16089,-9.59712,7.03624,-9.3885,61.7064
2023-02-16 00:14:52:453,-1.56021,-1.14753,-9.61173,7.03262,-9.38894,61.7138
2023-02-16 00:14:52:463,-1.51914,-1.14762,-9.60501,7.03113,-9.39084,61.7236
2023-02-16 00:14:52:473,-1.53785,-1.14629,-9.57724,7.03267,-9.3932,61.7351
2023-02-16 00:14:52:483,-1.56664,-1.15782,-9.56389,7.03397,-9.39408,61.7512
2023-02-16 00:14:52:493,-1.58996,-1.16962,-9.55344,7.03192,-9.39544,61.7656
2023-02-16 00:14:52:503,-1.61814,-1.17917,-9.55326,7.03338,-9.39913,61.7814
2023-02-16 00:14:52:512,-1.60622,-1.18213,-9.55354,7.0324,-9.40039,61.7986
2023-02-16 00:14:52:523,-1.57871,-1.19277,-9.55157,7.03189,-9.40418,61.8165
2023-02-16 00:14:52:533,-1.55421,-1.21158,-9.53884,7.02934,-9.40772,61.8276
2023-02-16 00:14:52:542,-1.53331,-1.21254,-9.51941,7.02807,-9.41135,61.8407
2023-02-16 00:14:52:553,-1.54352,-1.21383,-9.52002,7.01879,-9.41497,61.8566
2023-02-16 00:14:52:563,-1.57636,-1.21542,-9.54751,7.00996,-9.42021,61.8777
2023-02-16 00:14:52:573,-1.59862,-1.19854,-9.54038,7.00129,-9.42591,61.8967
2023-02-16 00:14:52:582,-1.5891,-1.20174,-9.54964,6.99438,-9.42843,61.9167
2023-02-16 00:14:52:593,-1.59792,-1.18704,-9.55693,6.98409,-9.43126,61.9361
2023-02-16 00:14:52:603,-1.6067,-1.17892,-9.58455,6.97376,-9.42966,61.9528
2023-02-16 00:14:52:613,-1.54826,-1.17451,-9.62819,6.96214,-9.42691,61.9702
2023-02-16 00:14:52:623,-1.51437,-1.17521,-9.64827,6.95579,-9.42714,61.9853
2023-02-16 00:14:52:632,-1.55701,-1.16628,-9.64121,6.94392,-9.43061,62.0049
2023-02-16 00:14:52:643,-1.63085,-1.14454,-9.63552,6.93145,-9.44194,62.0273
2023-02-16 00:14:52:653,-1.64528,-1.13753,-9.61041,6.92671,-9.45596,62.0469
2023-02-16 00:14:52:663,-1.63244,-1.12706,-9.58454,6.92658,-9.46925,62.0648
2023-02-16 00:14:52:673,-1.64034,-1.14336,-9.54566,6.92642,-9.48087,62.0836
2023-02-16 00:14:52:683,-1.66002,-1.15438,-9.49687,6.92674,-9.49309,62.1029
2023-02-16 00:14:52:693,-1.67009,-1.16432,-9.48584,6.92765,-9.50346,62.1203
2023-02-16 00:14:52:703,-1.67502,-1.15935,-9.50675,6.92316,-9.50928,62.1391
2023-02-16 00:14:52:713,-1.71447,-1.14118,-9.529,6.91786,-9.5163,62.1567
2023-02-16 00:14:52:723,-1.71341,-1.13466,-9.56686,6.91293,-9.52139,62.1714
2023-02-16 00:14:52:733,-1.69316,-1.11548,-9.59598,6.90621,-9.52396,62.1835
2023-02-16 00:14:52:743,-1.65555,-1.11598,-9.61098,6.90678,-9.52554,62.1923
2023-02-16 00:14:52:753,-1.66081,-1.13658,-9.58955,6.91124,-9.52827,62.195
2023-02-16 00:14:52:762,-1.65078,-1.15426,-9.57504,6.91295,-9.53274,62.2025
2023-02-16 00:14:52:772,-1.62876,-1.15652,-9.54686,6.91375,-9.53427,62.2067
2023-02-16 00:14:52:782,-1.62876,-1.1608,-9.55073,6.91132,-9.53551,62.2123
2023-02-16 00:14:52:793,-1.63196,-1.14384,-9.56587,6.9052,-9.53342,62.2186
2023-02-16 00:14:52:803,-1.5888,-1.12127,-9.58381,6.90096,-9.53292,62.2202
2023-02-16 00:14:52:813,-1.55572,-1.14341,-9.56635,6.8981,-9.53231,62.2233
2023-02-16 00:14:52:822,-1.57778,-1.15415,-9.52459,6.89522,-9.53304,62.2288
2023-02-16 00:14:52:832,-1.60382,-1.15502,-9.50029,6.8873,-9.53424,62.2401
2023-02-16 00:14:52:843,-1.55543,-1.12657,-9.53487,6.87769,-9.53325,62.2508
2023-02-16 00:14:52:853,-1.44382,-1.131,-9.57464,6.86968,-9.52686,62.2622
2023-02-16 00:14:52:863,-1.3478,-1.16081,-9.56892,6.86128,-9.51778,62.2741
2023-02-16 00:14:52:873,-1.27903,-1.18884,-9.55813,6.85186,-9.5136,62.2998
2023-02-16 00:14:52:883,-1.23497,-1.22257,-9.56865,6.84113,-9.51354,62.3376
2023-02-16 00:14:52:893,-1.26626,-1.24849,-9.58061,6.82775,-9.52057,62.3905
2023-02-16 00:14:52:903,-1.34942,-1.2114,-9.56937,6.80741,-9.53148,62.4644
2023-02-16 00:14:52:913,-1.4549,-1.15213,-9.59057,6.78577,-9.54123,62.5538
2023-02-16 00:14:52:923,-1.61734,-1.0833,-9.62737,6.76473,-9.549,62.6546
2023-02-16 00:14:52:933,-1.77248,-1.03254,-9.63784,6.74405,-9.55014,62.7645
2023-02-16 00:14:52:943,-1.80286,-1.02229,-9.64805,6.73192,-9.54655,62.8698
2023-02-16 00:14:52:953,-1.77605,-1.04,-9.64833,6.72153,-9.54286,62.9671
2023-02-16 00:14:52:963,-1.75285,-1.04414,-9.62549,6.71845,-9.53981,63.0547
2023-02-16 00:14:52:973,-1.76325,-1.0452,-9.59616,6.71499,-9.54054,63.1349
2023-02-16 00:14:52:982,-1.7858,-1.07016,-9.58842,6.71657,-9.54322,63.2053
2023-02-16 00:14:52:993,-1.79398,-1.092,-9.56079,6.721,-9.55153,63.2634
2023-02-16 00:14:53:3,-1.81116,-1.10253,-9.55342,6.72935,-9.56107,63.3131
2023-02-16 00:14:53:13,-1.82309,-1.11307,-9.57759,6.73304,-9.57405,63.3468
2023-02-16 00:14:53:23,-1.81588,-1.09382,-9.60876,6.73924,-9.58551,63.3753
2023-02-16 00:14:53:33,-1.79381,-1.09677,-9.62829,6.75175,-9.59502,63.3855
2023-02-16 00:14:53:43,-1.753,-1.121,-9.62235,6.76986,-9.60996,63.3857
2023-02-16 00:14:53:53,-1.74795,-1.15028,-9.56309,6.78937,-9.62749,63.3807
2023-02-16 00:14:53:63,-1.7213,-1.17975,-9.51826,6.81364,-9.64506,63.3695
2023-02-16 00:14:53:73,-1.68204,-1.21244,-9.47769,6.83373,-9.6568,63.3539
2023-02-16 00:14:53:82,-1.67741,-1.23433,-9.44678,6.85202,-9.66836,63.3357
2023-02-16 00:14:53:93,-1.68508,-1.22734,-9.43359,6.86545,-9.6781,63.3187
2023-02-16 00:14:53:103,-1.67632,-1.23009,-9.44779,6.87439,-9.68283,63.3016
2023-02-16 00:14:53:113,-1.66022,-1.2271,-9.46672,6.8811,-9.68442,63.2914
2023-02-16 00:14:53:123,-1.648,-1.22605,-9.4981,6.87812,-9.6862,63.2885
2023-02-16 00:14:53:133,-1.62372,-1.1942,-9.52732,6.87207,-9.68378,63.2864
2023-02-16 00:14:53:142,-1.61144,-1.17923,-9.55081,6.86567,-9.67773,63.2854
2023-02-16 00:14:53:153,-1.63659,-1.15761,-9.56283,6.85777,-9.67606,63.2912
2023-02-16 00:14:53:163,-1.69436,-1.13885,-9.56014,6.84613,-9.67418,63.304
2023-02-16 00:14:53:173,-1.71717,-1.12358,-9.55348,6.84095,-9.66665,63.3165
2023-02-16 00:14:53:183,-1.70797,-1.12714,-9.57409,6.83755,-9.65534,63.3256
2023-02-16 00:14:53:193,-1.70763,-1.11955,-9.59846,6.83224,-9.64394,63.3338
2023-02-16 00:14:53:203,-1.68141,-1.08874,-9.60636,6.82538,-9.63498,63.3373
2023-02-16 00:14:53:213,-1.63937,-1.10301,-9.58839,6.82335,-9.62637,63.3383
2023-02-16 00:14:53:223,-1.58676,-1.12079,-9.55857,6.82179,-9.61703,63.3274
2023-02-16 00:14:53:233,-1.56602,-1.14209,-9.55567,6.81917,-9.61099,63.3229
2023-02-16 00:14:53:243,-1.57017,-1.13358,-9.56493,6.82028,-9.6092,63.3144
2023-02-16 00:14:53:253,-1.57162,-1.13352,-9.58763,6.81722,-9.60773,63.3051
2023-02-16 00:14:53:263,-1.53934,-1.13114,-9.6034,6.81676,-9.60498,63.2983
2023-02-16 00:14:53:272,-1.53426,-1.13823,-9.61811,6.81486,-9.60259,63.2938
2023-02-16 00:14:53:282,-1.55307,-1.14638,-9.62396,6.81715,-9.60109,63.2942
2023-02-16 00:14:53:293,-1.57462,-1.13864,-9.60616,6.82213,-9.60957,63.2979
2023-02-16 00:14:53:303,-1.61963,-1.13652,-9.58907,6.82411,-9.61797,63.301
2023-02-16 00:14:53:312,-1.67332,-1.14077,-9.56584,6.82654,-9.62688,63.3135
2023-02-16 00:14:53:323,-1.70959,-1.12705,-9.53128,6.8309,-9.6331,63.3229
2023-02-16 00:14:53:333,-1.70584,-1.1562,-9.5173,6.83942,-9.63488,63.3333
2023-02-16 00:14:53:343,-1.69345,-1.16706,-9.49116,6.84699,-9.62921,63.3412
2023-02-16 00:14:53:353,-1.65525,-1.1556,-9.49388,6.85222,-9.62087,63.3463
2023-02-16 00:14:53:363,-1.61071,-1.17456,-9.51211,6.85783,-9.61469,63.3484
2023-02-16 00:14:53:373,-1.5884,-1.18582,-9.52811,6.85963,-9.60548,63.3447
2023-02-16 00:14:53:382,-1.58549,-1.1854,-9.54738,6.85909,-9.60118,63.344
2023-02-16 00:14:53:392,-1.57273,-1.17487,-9.56493,6.85715,-9.59696,63.3409
2023-02-16 00:14:53:402,-1.55371,-1.19089,-9.56359,6.85521,-9.59729,63.3381
2023-02-16 00:14:53:413,-1.55041,-1.19337,-9.56385,6.85075,-9.597,63.3318
2023-02-16 00:14:53:423,-1.55429,-1.19195,-9.57689,6.8447,-9.59935,63.3254
2023-02-16 00:14:53:433,-1.55927,-1.1701,-9.61233,6.83645,-9.60664,63.3238
2023-02-16 00:14:53:443,-1.55779,-1.15257,-9.62567,6.83115,-9.61259,63.3198
2023-02-16 00:14:53:453,-1.55893,-1.15734,-9.64169,6.82682,-9.62141,63.3183
2023-02-16 00:14:53:462,-1.58746,-1.16386,-9.61191,6.82744,-9.63241,63.318
2023-02-16 00:14:53:473,-1.62686,-1.15901,-9.5629,6.82925,-9.64287,63.3198
2023-02-16 00:14:53:483,-1.67072,-1.1588,-9.53421,6.82846,-9.65156,63.3223
2023-02-16 00:14:53:493,-1.69585,-1.14674,-9.51761,6.82575,-9.66156,63.327
2023-02-16 00:14:53:503,-1.68576,-1.14444,-9.52106,6.81953,-9.67285,63.329
2023-02-16 00:14:53:513,-1.68053,-1.13637,-9.52513,6.81333,-9.68279,63.3309
2023-02-16 00:14:53:523,-1.69444,-1.13452,-9.52369,6.80835,-9.69624,63.3328
2023-02-16 00:14:53:532,-1.71581,-1.14224,-9.53617,6.80259,-9.70461,63.3327
2023-02-16 00:14:53:543,-1.71546,-1.14674,-9.52634,6.79942,-9.71275,63.333
2023-02-16 00:14:53:553,-1.71405,-1.14904,-9.53381,6.79426,-9.71783,63.3335
2023-02-16 00:14:53:563,-1.73352,-1.13446,-9.54455,6.78861,-9.72571,63.3331
2023-02-16 00:14:53:573,-1.75368,-1.11556,-9.5463,6.78074,-9.72912,63.3314
2023-02-16 00:14:53:583,-1.77079,-1.12175,-9.5478,6.77241,-9.73004,63.3317
2023-02-16 00:14:53:592,-1.75592,-1.12483,-9.55208,6.76662,-9.72447,63.328
2023-02-16 00:14:53:603,-1.73859,-1.121,-9.5664,6.76043,-9.7197,63.3228
2023-02-16 00:14:53:612,-1.73278,-1.12397,-9.56717,6.75446,-9.70934,63.3154
2023-02-16 00:14:53:623,-1.71417,-1.11249,-9.59647,6.74859,-9.69879,63.305
2023-02-16 00:14:53:633,-1.66902,-1.07598,-9.61628,6.73955,-9.68813,63.2902
2023-02-16 00:14:53:643,-1.64322,-1.06468,-9.61856,6.73667,-9.68207,63.272
2023-02-16 00:14:53:652,-1.65617,-1.07364,-9.59468,6.73548,-9.67356,63.2554
2023-02-16 00:14:53:662,-1.67989,-1.07331,-9.58153,6.73474,-9.67046,63.2359
2023-02-16 00:14:53:672,-1.69765,-1.05621,-9.57681,6.73581,-9.66459,63.2181
2023-02-16 00:14:53:683,-1.64679,-1.05552,-9.60477,6.73485,-9.65578,63.1972
2023-02-16 00:14:53:693,-1.56022,-1.05999,-9.63836,6.73582,-9.64378,63.1735
2023-02-16 00:14:53:703,-1.53749,-1.08122,-9.64806,6.74265,-9.635,63.149
2023-02-16 00:14:53:713,-1.57755,-1.09545,-9.62964,6.7527,-9.63078,63.126
2023-02-16 00:14:53:723,-1.62488,-1.0946,-9.60082,6.76719,-9.62595,63.1071
2023-02-16 00:14:53:732,-1.64151,-1.095,-9.60933,6.77951,-9.6221,63.0861
2023-02-16 00:14:53:743,-1.61992,-1.11351,-9.62026,6.79464,-9.62025,63.0659
2023-02-16 00:14:53:752,-1.61073,-1.1205,-9.61172,6.81333,-9.61837,63.0429
2023-02-16 00:14:53:763,-1.61652,-1.13324,-9.59049,6.83215,-9.61405,63.023
2023-02-16 00:14:53:772,-1.62458,-1.14019,-9.56603,6.84792,-9.61441,63.0046
2023-02-16 00:14:53:783,-1.6283,-1.14004,-9.55706,6.86504,-9.61416,62.9851
2023-02-16 00:14:53:792,-1.66287,-1.12077,-9.57214,6.87689,-9.61593,62.9682
2023-02-16 00:14:53:803,-1.69108,-1.11068,-9.58179,6.89174,-9.61597,62.9494
2023-02-16 00:14:53:812,-1.65378,-1.11165,-9.56424,6.90823,-9.61277,62.9256
2023-02-16 00:14:53:823,-1.62627,-1.13639,-9.55215,6.93245,-9.60834,62.8993
2023-02-16 00:14:53:832,-1.60144,-1.15004,-9.5551,6.95413,-9.60437,62.8753
2023-02-16 00:14:53:843,-1.57705,-1.14566,-9.57104,6.97659,-9.60162,62.8509
2023-02-16 00:14:53:853,-1.59089,-1.15075,-9.57574,6.99919,-9.59917,62.8283
2023-02-16 00:14:53:863,-1.61994,-1.15167,-9.57827,7.02317,-9.59542,62.8038
2023-02-16 00:14:53:873,-1.61951,-1.1689,-9.57811,7.04845,-9.59105,62.7838
2023-02-16 00:14:53:883,-1.58418,-1.19064,-9.5718,7.07595,-9.58745,62.7622
2023-02-16 00:14:53:893,-1.56579,-1.1981,-9.58307,7.10145,-9.58319,62.7436
2023-02-16 00:14:53:903,-1.56439,-1.19605,-9.58739,7.1254,-9.58092,62.7272
2023-02-16 00:14:53:913,-1.58353,-1.20605,-9.56344,7.15353,-9.58613,62.7119
2023-02-16 00:14:53:923,-1.59792,-1.21395,-9.53672,7.18042,-9.59128,62.7006
2023-02-16 00:14:53:933,-1.62173,-1.21128,-9.51189,7.20549,-9.59634,62.6879
2023-02-16 00:14:53:943,-1.65013,-1.21275,-9.50396,7.22878,-9.60507,62.6763
2023-02-16 00:14:53:953,-1.65461,-1.20814,-9.51854,7.25015,-9.61068,62.6661
2023-02-16 00:14:53:963,-1.62202,-1.21304,-9.53185,7.26984,-9.6137,62.6521
2023-02-16 00:14:53:973,-1.58559,-1.23448,-9.53861,7.29089,-9.61992,62.6383
2023-02-16 00:14:53:983,-1.57548,-1.2483,-9.54303,7.30863,-9.62353,62.6268
2023-02-16 00:14:53:993,-1.58172,-1.25214,-9.55227,7.32578,-9.63015,62.6186
2023-02-16 00:14:54:3,-1.60581,-1.23309,-9.57501,7.34098,-9.63673,62.6169
2023-02-16 00:14:54:13,-1.64646,-1.22985,-9.58855,7.35546,-9.64765,62.6129
2023-02-16 00:14:54:23,-1.69327,-1.22905,-9.57663,7.37767,-9.65531,62.6147
2023-02-16 00:14:54:32,-1.70114,-1.23548,-9.55712,7.39955,-9.65865,62.6127
2023-02-16 00:14:54:43,-1.66469,-1.22972,-9.53984,7.42297,-9.66236,62.6094
2023-02-16 00:14:54:53,-1.62529,-1.26182,-9.53571,7.44422,-9.66528,62.6026
2023-02-16 00:14:54:63,-1.59314,-1.29432,-9.51161,7.46984,-9.66752,62.5945
2023-02-16 00:14:54:73,-1.61226,-1.28946,-9.5146,7.48964,-9.67295,62.5897
2023-02-16 00:14:54:83,-1.64008,-1.26858,-9.51855,7.50201,-9.67855,62.584
2023-02-16 00:14:54:92,-1.65322,-1.26758,-9.54285,7.51658,-9.68798,62.5794
2023-02-16 00:14:54:103,-1.65941,-1.2675,-9.55414,7.52993,-9.69461,62.572
2023-02-16 00:14:54:113,-1.65264,-1.27216,-9.5559,7.54597,-9.70219,62.5617
2023-02-16 00:14:54:123,-1.63542,-1.27739,-9.52724,7.56199,-9.70689,62.5539
2023-02-16 00:14:54:132,-1.63928,-1.29092,-9.49442,7.58273,-9.7136,62.5443
2023-02-16 00:14:54:143,-1.61647,-1.32127,-9.48023,7.59459,-9.71682,62.5386
2023-02-16 00:14:54:153,-1.57881,-1.33946,-9.47112,7.60749,-9.71823,62.5307
2023-02-16 00:14:54:163,-1.58969,-1.32013,-9.46932,7.61906,-9.72349,62.5274
2023-02-16 00:14:54:173,-1.61994,-1.31121,-9.49615,7.63029,-9.73004,62.5264
2023-02-16 00:14:54:183,-1.64718,-1.30087,-9.51597,7.63438,-9.73418,62.5235
2023-02-16 00:14:54:193,-1.66547,-1.30464,-9.53531,7.64185,-9.73997,62.5208
2023-02-16 00:14:54:202,-1.66435,-1.31419,-9.54274,7.64286,-9.74423,62.52
2023-02-16 00:14:54:213,-1.63905,-1.30591,-9.54112,7.64801,-9.74843,62.5178
2023-02-16 00:14:54:223,-1.63315,-1.31871,-9.53731,7.65159,-9.75591,62.5199
2023-02-16 00:14:54:233,-1.63289,-1.33046,-9.5224,7.65763,-9.76485,62.5219
2023-02-16 00:14:54:243,-1.62184,-1.33339,-9.49824,7.65849,-9.77089,62.5275
2023-02-16 00:14:54:252,-1.6279,-1.33487,-9.48136,7.65837,-9.77954,62.5353
2023-02-16 00:14:54:263,-1.63543,-1.34823,-9.45655,7.65443,-9.7872,62.545
2023-02-16 00:14:54:273,-1.64763,-1.34925,-9.45341,7.65199,-9.79427,62.5523
2023-02-16 00:14:54:283,-1.6557,-1.35408,-9.49639,7.64579,-9.80361,62.5633
2023-02-16 00:14:54:292,-1.65462,-1.32961,-9.53654,7.63584,-9.81137,62.5729
2023-02-16 00:14:54:302,-1.62899,-1.29811,-9.59013,7.62413,-9.81767,62.5813
2023-02-16 00:14:54:312,-1.62158,-1.28472,-9.62144,7.61176,-9.82875,62.5909
2023-02-16 00:14:54:322,-1.6723,-1.26979,-9.61571,7.60314,-9.84234,62.5968
2023-02-16 00:14:54:333,-1.73347,-1.27162,-9.59031,7.59452,-9.85922,62.6047
2023-02-16 00:14:54:343,-1.76368,-1.26795,-9.54935,7.58443,-9.87934,62.617
2023-02-16 00:14:54:353,-1.75729,-1.26499,-9.50983,7.57677,-9.89378,62.6281
2023-02-16 00:14:54:362,-1.74495,-1.25688,-9.4876,7.56726,-9.90773,62.6408
2023-02-16 00:14:54:373,-1.75452,-1.24939,-9.50337,7.5539,-9.91935,62.6521
2023-02-16 00:14:54:383,-1.74997,-1.23386,-9.52727,7.5431,-9.93121,62.6632
2023-02-16 00:14:54:393,-1.7454,-1.21485,-9.54616,7.53193,-9.93872,62.6754
2023-02-16 00:14:54:403,-1.75737,-1.19959,-9.54254,7.52413,-9.94399,62.6902
2023-02-16 00:14:54:413,-1.76197,-1.21502,-9.54639,7.51805,-9.94642,62.7071
2023-02-16 00:14:54:423,-1.75687,-1.22046,-9.53538,7.51519,-9.94151,62.7223
2023-02-16 00:14:54:432,-1.74702,-1.23147,-9.55035,7.51653,-9.94047,62.7363
2023-02-16 00:14:54:443,-1.74205,-1.2519,-9.54803,7.51772,-9.93902,62.7484
2023-02-16 00:14:54:453,-1.73872,-1.25751,-9.54812,7.52066,-9.93699,62.7565
2023-02-16 00:14:54:463,-1.75217,-1.25721,-9.55058,7.52349,-9.93059,62.7673
2023-02-16 00:14:54:473,-1.75186,-1.26433,-9.55891,7.52131,-9.92899,62.7733
2023-02-16 00:14:54:483,-1.73393,-1.27167,-9.55476,7.52108,-9.92415,62.7765
2023-02-16 00:14:54:493,-1.70983,-1.27047,-9.54682,7.51998,-9.92037,62.7774
2023-02-16 00:14:54:503,-1.69555,-1.2588,-9.53054,7.51858,-9.91691,62.7738
2023-02-16 00:14:54:513,-1.6941,-1.28589,-9.50884,7.51852,-9.914,62.7755
2023-02-16 00:14:54:523,-1.69913,-1.29221,-9.48676,7.51557,-9.90843,62.7777
2023-02-16 00:14:54:533,-1.67518,-1.2727,-9.485,7.50967,-9.89906,62.7826
2023-02-16 00:14:54:543,-1.58313,-1.2532,-9.51828,7.50103,-9.88501,62.7843
2023-02-16 00:14:54:552,-1.52068,-1.24758,-9.56253,7.49521,-9.87191,62.7847
2023-02-16 00:14:54:562,-1.55279,-1.23923,-9.57921,7.4889,-9.86356,62.7938
2023-02-16 00:14:54:573,-1.56856,-1.2323,-9.5846,7.48068,-9.85247,62.8132
2023-02-16 00:14:54:583,-1.59834,-1.23637,-9.56982,7.47832,-9.84313,62.8309
2023-02-16 00:14:54:593,-1.62416,-1.25977,-9.54655,7.4754,-9.84037,62.854
2023-02-16 00:14:54:602,-1.60699,-1.27835,-9.52464,7.47315,-9.83597,62.8746
2023-02-16 00:14:54:613,-1.60519,-1.28316,-9.52398,7.46911,-9.83398,62.8996
2023-02-16 00:14:54:622,-1.60624,-1.26195,-9.52862,7.46158,-9.8294,62.9247
2023-02-16 00:14:54:633,-1.63006,-1.23785,-9.53167,7.45023,-9.82494,62.9511
2023-02-16 00:14:54:643,-1.61757,-1.22735,-9.55278,7.4407,-9.82327,62.9785
2023-02-16 00:14:54:653,-1.61603,-1.21694,-9.57598,7.43022,-9.82163,63.0023
2023-02-16 00:14:54:663,-1.628,-1.21185,-9.58984,7.42265,-9.82268,63.0261
2023-02-16 00:14:54:673,-1.63846,-1.20394,-9.57338,7.41812,-9.82501,63.0512
2023-02-16 00:14:54:683,-1.66114,-1.21017,-9.57936,7.41608,-9.82868,63.0733
2023-02-16 00:14:54:693,-1.71639,-1.20882,-9.57701,7.4149,-9.83231,63.0945
2023-02-16 00:14:54:703,-1.7546,-1.20012,-9.57016,7.41729,-9.83979,63.114
2023-02-16 00:14:54:713,-1.7363,-1.19864,-9.59665,7.4205,-9.84449,63.1274
2023-02-16 00:14:54:723,-1.70057,-1.21458,-9.60798,7.42416,-9.84796,63.1371
2023-02-16 00:14:54:733,-1.66976,-1.24778,-9.56869,7.43336,-9.84941,63.1421
2023-02-16 00:14:54:743,-1.65926,-1.27312,-9.52963,7.44409,-9.85341,63.1472
2023-02-16 00:14:54:753,-1.6403,-1.29483,-9.51755,7.44961,-9.85884,63.1521
2023-02-16 00:14:54:763,-1.63826,-1.29108,-9.50988,7.4578,-9.86256,63.16
2023-02-16 00:14:54:773,-1.64753,-1.29419,-9.51699,7.4622,-9.86588,63.174
2023-02-16 00:14:54:783,-1.67373,-1.28546,-9.52804,7.46587,-9.86775,63.1911
2023-02-16 00:14:54:793,-1.65305,-1.28286,-9.52478,7.4665,-9.8672,63.2144
2023-02-16 00:14:54:803,-1.65484,-1.27199,-9.51824,7.46984,-9.86394,63.2347
2023-02-16 00:14:54:812,-1.66759,-1.2714,-9.5238,7.47022,-9.86312,63.2559
2023-02-16 00:14:54:822,-1.67868,-1.26228,-9.52567,7.46894,-9.8614,63.281
2023-02-16 00:14:54:832,-1.6353,-1.27231,-9.52973,7.46818,-9.85725,63.3093
2023-02-16 00:14:54:843,-1.58048,-1.29539,-9.52085,7.47133,-9.85308,63.3375
2023-02-16 00:14:54:852,-1.52682,-1.30607,-9.49531,7.46773,-9.84483,63.3715
2023-02-16 00:14:54:863,-1.49929,-1.33105,-9.50277,7.45873,-9.83811,63.4101
2023-02-16 00:14:54:873,-1.44665,-1.3388,-9.50296,7.44468,-9.82926,63.4567
2023-02-16 00:14:54:883,-1.33828,-1.3568,-9.49312,7.4297,-9.82102,63.5149
2023-02-16 00:14:54:893,-1.22569,-1.37556,-9.49923,7.40873,-9.80985,63.5891
2023-02-16 00:14:54:903,-1.13629,-1.40224,-9.48275,7.3828,-9.7982,63.6859
2023-02-16 00:14:54:912,-1.123,-1.40094,-9.50115,7.35343,-9.78581,63.811
2023-02-16 00:14:54:923,-1.19166,-1.34206,-9.53466,7.31064,-9.77926,63.9712
2023-02-16 00:14:54:933,-1.24767,-1.28324,-9.57648,7.26171,-9.76761,64.1566
2023-02-16 00:14:54:943,-1.21873,-1.25348,-9.58529,7.21461,-9.75172,64.3636
2023-02-16 00:14:54:952,-1.17078,-1.25514,-9.57499,7.16771,-9.73736,64.5913
2023-02-16 00:14:54:963,-1.09744,-1.2676,-9.57375,7.11758,-9.72225,64.84
2023-02-16 00:14:54:972,-0.939842,-1.26128,-9.57356,7.06259,-9.71096,65.1101
2023-02-16 00:14:54:983,-0.800451,-1.27233,-9.54931,7.00796,-9.70421,65.4023
2023-02-16 00:14:54:993,-0.721514,-1.30831,-9.52065,6.94618,-9.70757,65.7307
2023-02-16 00:14:55:3,-0.708005,-1.29008,-9.51626,6.87218,-9.71476,66.1029
2023-02-16 00:14:55:12,-0.749093,-1.24426,-9.51891,6.78664,-9.73074,66.5201
2023-02-16 00:14:55:23,-0.833043,-1.21282,-9.51275,6.69208,-9.74521,66.9854
2023-02-16 00:14:55:33,-0.92715,-1.19178,-9.47251,6.5897,-9.75713,67.4952
2023-02-16 00:14:55:43,-0.994709,-1.15913,-9.43432,6.47439,-9.76629,68.0461
2023-02-16 00:14:55:53,-1.05816,-1.14333,-9.41961,6.35019,-9.76888,68.6382
2023-02-16 00:14:55:63,-1.13622,-1.13697,-9.44269,6.21383,-9.76544,69.2659
2023-02-16 00:14:55:72,-1.2044,-1.0281,-9.52173,6.06208,-9.76199,69.9189
2023-02-16 00:14:55:82,-1.29986,-0.894509,-9.60565,5.90244,-9.7571,70.5948
2023-02-16 00:14:55:92,-1.39697,-0.823773,-9.6485,5.74184,-9.75351,71.2857
2023-02-16 00:14:55:102,-1.50369,-0.781614,-9.62309,5.58835,-9.75279,71.9862
2023-02-16 00:14:55:112,-1.62,-0.769865,-9.56959,5.43978,-9.75667,72.6891
2023-02-16 00:14:55:123,-1.72746,-0.765203,-9.4995,5.29268,-9.76024,73.3946
2023-02-16 00:14:55:132,-1.86024,-0.770082,-9.44923,5.13949,-9.76716,74.0961
2023-02-16 00:14:55:143,-1.97946,-0.767665,-9.45125,4.98175,-9.7701,74.7894
2023-02-16 00:14:55:153,-2.06313,-0.700803,-9.52911,4.81859,-9.77529,75.4659
2023-02-16 00:14:55:163,-2.11964,-0.610004,-9.6439,4.65254,-9.77878,76.1181
2023-02-16 00:14:55:172,-2.15923,-0.550463,-9.72754,4.48936,-9.78079,76.7438
2023-02-16 00:14:55:182,-2.2003,-0.52078,-9.74341,4.33649,-9.78623,77.3402
2023-02-16 00:14:55:193,-2.23327,-0.480927,-9.73012,4.19355,-9.79782,77.9089
2023-02-16 00:14:55:203,-2.26375,-0.438902,-9.70575,4.05842,-9.8119,78.4441
2023-02-16 00:14:55:213,-2.27,-0.421415,-9.62137,3.93221,-9.83064,78.9449
2023-02-16 00:14:55:222,-2.25625,-0.452024,-9.51666,3.81825,-9.8482,79.4153
2023-02-16 00:14:55:232,-2.22486,-0.479368,-9.42571,3.70627,-9.86354,79.8514
2023-02-16 00:14:55:243,-2.19091,-0.512728,-9.40869,3.59388,-9.87853,80.2618
2023-02-16 00:14:55:253,-2.15912,-0.49078,-9.45402,3.47622,-9.89053,80.6523
2023-02-16 00:14:55:262,-2.12107,-0.450057,-9.55006,3.3568,-9.90469,81.0136
2023-02-16 00:14:55:273,-2.09497,-0.413501,-9.64482,3.23684,-9.91937,81.3496
2023-02-16 00:14:55:283,-2.04986,-0.338441,-9.75856,3.1204,-9.93701,81.6651
2023-02-16 00:14:55:292,-2.01232,-0.278204,-9.81866,3.01053,-9.95534,81.9568
2023-02-16 00:14:55:303,-2.02566,-0.29172,-9.7726,2.918,-9.97588,82.2313
2023-02-16 00:14:55:313,-2.00729,-0.347545,-9.67366,2.83793,-9.99535,82.4857
2023-02-16 00:14:55:322,-1.96758,-0.385821,-9.54573,2.76871,-10.0142,82.7194
2023-02-16 00:14:55:332,-1.92501,-0.442832,-9.43576,2.69603,-10.031,82.9369
2023-02-16 00:14:55:343,-1.90079,-0.471365,-9.41542,2.61183,-10.0497,83.1475
2023-02-16 00:14:55:352,-1.9168,-0.425102,-9.48625,2.51606,-10.0666,83.3444
2023-02-16 00:14:55:363,-1.92708,-0.3193,-9.61296,2.41431,-10.0823,83.5277
2023-02-16 00:14:55:373,-1.97555,-0.220039,-9.72251,2.31115,-10.1074,83.7006
2023-02-16 00:14:55:383,-2.08862,-0.13685,-9.76071,2.21532,-10.1326,83.8627
2023-02-16 00:14:55:392,-2.12418,-0.0923442,-9.76746,2.12853,-10.155,84.0089
2023-02-16 00:14:55:403,-2.06388,-0.0668449,-9.76042,2.054,-10.1746,84.1366
2023-02-16 00:14:55:413,-1.96411,-0.0794992,-9.74362,1.98914,-10.1935,84.2468
2023-02-16 00:14:55:422,-1.91968,-0.0975792,-9.71032,1.93548,-10.2174,84.3437
2023-02-16 00:14:55:432,-1.92508,-0.110811,-9.67903,1.88958,-10.2445,84.4292
2023-02-16 00:14:55:443,-1.95254,-0.125596,-9.63039,1.85259,-10.2753,84.5017
2023-02-16 00:14:55:453,-1.95766,-0.150504,-9.63703,1.81195,-10.3058,84.5666
2023-02-16 00:14:55:463,-2.00424,-0.139409,-9.64041,1.78007,-10.3369,84.6223
2023-02-16 00:14:55:472,-2.03055,-0.133621,-9.64731,1.75253,-10.3626,84.6701
2023-02-16 00:14:55:483,-2.00616,-0.163993,-9.63701,1.72641,-10.3861,84.7062
2023-02-16 00:14:55:493,-1.96016,-0.202872,-9.63933,1.70418,-10.4059,84.7338
2023-02-16 00:14:55:503,-1.93045,-0.207509,-9.63937,1.68178,-10.4184,84.751
2023-02-16 00:14:55:512,-1.90678,-0.192396,-9.66656,1.66323,-10.432,84.764
2023-02-16 00:14:55:522,-1.90436,-0.180127,-9.67655,1.64635,-10.4421,84.7719
2023-02-16 00:14:55:533,-1.90594,-0.177428,-9.65909,1.63634,-10.4548,84.7738
2023-02-16 00:14:55:543,-1.8716,-0.196438,-9.63136,1.62953,-10.4638,84.7669
2023-02-16 00:14:55:553,-1.82302,-0.232472,-9.61829,1.62847,-10.4728,84.7524
2023-02-16 00:14:55:563,-1.80493,-0.239781,-9.6156,1.62926,-10.484,84.7361
2023-02-16 00:14:55:572,-1.79803,-0.252284,-9.60488,1.62714,-10.4933,84.7187
2023-02-16 00:14:55:582,-1.80548,-0.260726,-9.5973,1.6282,-10.5009,84.6983
2023-02-16 00:14:55:593,-1.78698,-0.266128,-9.61288,1.62957,-10.5103,84.6753
2023-02-16 00:14:55:603,-1.75093,-0.266981,-9.60082,1.62887,-10.519,84.6543
2023-02-16 00:14:55:612,-1.74104,-0.275759,-9.58595,1.63044,-10.5285,84.6345
2023-02-16 00:14:55:622,-1.74393,-0.296827,-9.59361,1.63336,-10.5355,84.6168
2023-02-16 00:14:55:632,-1.74191,-0.294872,-9.59007,1.63384,-10.546,84.6015
2023-02-16 00:14:55:643,-1.76344,-0.299393,-9.58244,1.63095,-10.5545,84.5912
2023-02-16 00:14:55:652,-1.77458,-0.305156,-9.55981,1.62669,-10.5592,84.5839
2023-02-16 00:14:55:663,-1.78189,-0.300871,-9.55441,1.62153,-10.567,84.5814
2023-02-16 00:14:55:672,-1.79662,-0.284848,-9.57608,1.61516,-10.5706,84.5783
2023-02-16 00:14:55:682,-1.79566,-0.281869,-9.57423,1.61244,-10.5785,84.5787
2023-02-16 00:14:55:693,-1.79153,-0.292729,-9.56887,1.60608,-10.5833,84.5786
2023-02-16 00:14:55:703,-1.7756,-0.288342,-9.56265,1.59969,-10.5855,84.5794
2023-02-16 00:14:55:712,-1.77244,-0.283339,-9.5894,1.58556,-10.5886,84.5816
2023-02-16 00:14:55:723,-1.79877,-0.267078,-9.58994,1.57309,-10.5968,84.5815
2023-02-16 00:14:55:733,-1.83455,-0.257009,-9.58158,1.56142,-10.6059,84.5841
2023-02-16 00:14:55:743,-1.87578,-0.25166,-9.57201,1.54599,-10.6175,84.5855
2023-02-16 00:14:55:753,-1.91852,-0.228973,-9.60073,1.53239,-10.6274,84.5857
2023-02-16 00:14:55:762,-1.93678,-0.20044,-9.64207,1.52114,-10.6358,84.5785
2023-02-16 00:14:55:772,-1.95138,-0.173961,-9.65894,1.51566,-10.6463,84.567
2023-02-16 00:14:55:782,-1.94872,-0.164428,-9.63945,1.51459,-10.6527,84.548
2023-02-16 00:14:55:793,-1.92769,-0.209872,-9.61826,1.51986,-10.6573,84.5196
2023-02-16 00:14:55:803,-1.88307,-0.222045,-9.59805,1.52688,-10.6607,84.4877
2023-02-16 00:14:55:812,-1.83335,-0.241041,-9.60083,1.53456,-10.6647,84.4484
2023-02-16 00:14:55:822,-1.8131,-0.250801,-9.57818,1.54131,-10.6721,84.407
2023-02-16 00:14:55:832,-1.81165,-0.257577,-9.59432,1.54639,-10.6803,84.3619
2023-02-16 00:14:55:842,-1.85227,-0.232129,-9.63898,1.54962,-10.6908,84.3189
2023-02-16 00:14:55:852,-1.92057,-0.184266,-9.66603,1.55583,-10.7004,84.2729
2023-02-16 00:14:55:862,-1.978,-0.178093,-9.67292,1.56447,-10.7088,84.2251
2023-02-16 00:14:55:873,-2.0021,-0.192186,-9.64922,1.58112,-10.7174,84.1703
2023-02-16 00:14:55:883,-2.00554,-0.194752,-9.64853,1.59858,-10.7273,84.1065
2023-02-16 00:14:55:893,-2.05366,-0.191642,-9.62751,1.62162,-10.7357,84.034
2023-02-16 00:14:55:902,-2.14396,-0.195237,-9.60496,1.65101,-10.7458,83.9481
2023-02-16 00:14:55:913,-2.28034,-0.171553,-9.60273,1.68224,-10.7571,83.8519
2023-02-16 00:14:55:923,-2.41759,-0.141736,-9.61638,1.71752,-10.7732,83.7399
2023-02-16 00:14:55:932,-2.52356,-0.133451,-9.63773,1.761,-10.7876,83.5971
2023-02-16 00:14:55:942,-2.60218,-0.137069,-9.63461,1.81403,-10.8037,83.4206
2023-02-16 00:14:55:953,-2.62598,-0.14393,-9.62937,1.87579,-10.8147,83.2063
2023-02-16 00:14:55:963,-2.60826,-0.152676,-9.59997,1.9484,-10.8267,82.9508
2023-02-16 00:14:55:973,-2.56554,-0.17821,-9.58706,2.02671,-10.8399,82.6535
2023-02-16 00:14:55:983,-2.59244,-0.200194,-9.5982,2.11018,-10.8562,82.3191
2023-02-16 00:14:55:993,-2.65214,-0.174197,-9.62254,2.1995,-10.8757,81.9487
2023-02-16 00:14:56:3,-2.61525,-0.173723,-9.63616,2.29685,-10.8938,81.5332
2023-02-16 00:14:56:13,-2.47569,-0.248179,-9.61045,2.40705,-10.9042,81.0776
2023-02-16 00:14:56:23,-2.41805,-0.291803,-9.5632,2.52366,-10.915,80.5901
2023-02-16 00:14:56:32,-2.4715,-0.275332,-9.56605,2.6381,-10.9222,80.0778
2023-02-16 00:14:56:42,-2.46641,-0.245231,-9.59238,2.75392,-10.9274,79.5385
2023-02-16 00:14:56:52,-2.41558,-0.258349,-9.57077,2.87609,-10.9315,78.9697
2023-02-16 00:14:56:63,-2.35294,-0.296475,-9.52846,3.00397,-10.9287,78.3734
2023-02-16 00:14:56:72,-2.28727,-0.327363,-9.48339,3.14082,-10.9212,77.751
2023-02-16 00:14:56:83,-2.22746,-0.374755,-9.40553,3.27171,-10.9108,77.1097
2023-02-16 00:14:56:93,-2.13169,-0.44967,-9.35341,3.40067,-10.8964,76.4485
2023-02-16 00:14:56:103,-1.95368,-0.457911,-9.44441,3.52339,-10.8717,75.7731
2023-02-16 00:14:56:113,-1.76881,-0.461364,-9.52846,3.64113,-10.8414,75.0864
2023-02-16 00:14:56:122,-1.73216,-0.533342,-9.53887,3.75961,-10.8128,74.4026
2023-02-16 00:14:56:133,-1.70517,-0.576133,-9.55816,3.87393,-10.7887,73.7223
2023-02-16 00:14:56:143,-1.65987,-0.573284,-9.59688,3.97634,-10.7679,73.0519
2023-02-16 00:14:56:153,-1.66777,-0.532104,-9.65195,4.07558,-10.7517,72.3907
2023-02-16 00:14:56:162,-1.62328,-0.495713,-9.70665,4.18125,-10.723,71.7438
2023-02-16 00:14:56:173,-1.50014,-0.579615,-9.64704,4.29795,-10.6841,71.1024
2023-02-16 00:14:56:183,-1.36344,-0.703361,-9.54648,4.41664,-10.634,70.4762
2023-02-16 00:14:56:193,-1.26568,-0.773525,-9.52329,4.52713,-10.5833,69.871
2023-02-16 00:14:56:203,-1.19868,-0.746804,-9.5548,4.62688,-10.5227,69.2961
2023-02-16 00:14:56:213,-1.20972,-0.772166,-9.55789,4.7205,-10.4651,68.7492
2023-02-16 00:14:56:223,-1.30269,-0.785994,-9.54752,4.80751,-10.4119,68.2307
2023-02-16 00:14:56:233,-1.42746,-0.734783,-9.57382,4.88721,-10.3554,67.745
2023-02-16 00:14:56:243,-1.49927,-0.723332,-9.56079,4.96288,-10.3014,67.2784
2023-02-16 00:14:56:253,-1.40822,-0.767736,-9.53376,5.03603,-10.2362,66.8287
2023-02-16 00:14:56:262,-1.26671,-0.832235,-9.50578,5.10461,-10.1625,66.3928
2023-02-16 00:14:56:272,-1.26554,-0.897212,-9.50059,5.1724,-10.0888,65.9805
2023-02-16 00:14:56:283,-1.30879,-0.89989,-9.5334,5.22843,-10.0184,65.593
2023-02-16 00:14:56:293,-1.31489,-0.89369,-9.58101,5.28012,-9.95069,65.2266
2023-02-16 00:14:56:303,-1.30903,-0.895638,-9.5951,5.32971,-9.88664,64.8714
2023-02-16 00:14:56:313,-1.36144,-0.902164,-9.60678,5.37392,-9.82946,64.5365
2023-02-16 00:14:56:323,-1.34499,-0.897375,-9.63107,5.41403,-9.77513,64.2102
2023-02-16 00:14:56:333,-1.22598,-0.927281,-9.65879,5.45506,-9.71716,63.8958
2023-02-16 00:14:56:343,-1.12013,-0.965619,-9.62561,5.49971,-9.66111,63.5958
2023-02-16 00:14:56:352,-1.08818,-1.0009,-9.59761,5.54006,-9.6073,63.3203
2023-02-16 00:14:56:362,-1.07818,-1.00466,-9.57619,5.57423,-9.55535,63.07
2023-02-16 00:14:56:372,-1.06075,-1.02508,-9.5843,5.60422,-9.51054,62.8389
2023-02-16 00:14:56:382,-1.06587,-1.04419,-9.59828,5.62765,-9.46868,62.633
2023-02-16 00:14:56:393,-1.09092,-1.02567,-9.59697,5.65227,-9.42889,62.4472
2023-02-16 00:14:56:403,-1.11009,-1.00603,-9.5954,5.67162,-9.3896,62.289
2023-02-16 00:14:56:413,-1.14716,-1.01199,-9.57706,5.68982,-9.35249,62.1506
2023-02-16 00:14:56:423,-1.18422,-1.02838,-9.57829,5.70669,-9.31639,62.0335
2023-02-16 00:14:56:432,-1.18415,-1.04034,-9.59024,5.72464,-9.27816,61.9291
2023-02-16 00:14:56:443,-1.14211,-1.05519,-9.5958,5.73581,-9.24197,61.8434
2023-02-16 00:14:56:453,-1.13735,-1.07112,-9.57272,5.74127,-9.20714,61.7756
2023-02-16 00:14:56:463,-1.18155,-1.08692,-9.56041,5.745,-9.17462,61.7307
2023-02-16 00:14:56:473,-1.21652,-1.07176,-9.5671,5.74401,-9.14711,61.6989
2023-02-16 00:14:56:483,-1.2448,-1.04158,-9.60323,5.7375,-9.12097,61.6791
2023-02-16 00:14:56:492,-1.28253,-1.01217,-9.61257,5.7273,-9.10296,61.6751
2023-02-16 00:14:56:502,-1.32036,-0.993568,-9.58922,5.71632,-9.08473,61.6784
2023-02-16 00:14:56:513,-1.33634,-1.01331,-9.56996,5.70555,-9.0696,61.689
2023-02-16 00:14:56:523,-1.38201,-1.01702,-9.56103,5.69077,-9.05892,61.7057
2023-02-16 00:14:56:533,-1.45598,-0.999679,-9.56318,5.67257,-9.05195,61.73
2023-02-16 00:14:56:543,-1.50875,-0.96035,-9.56478,5.65048,-9.04781,61.7577
2023-02-16 00:14:56:553,-1.54234,-0.939928,-9.57589,5.62878,-9.04373,61.7815
2023-02-16 00:14:56:563,-1.53774,-0.93894,-9.58333,5.60844,-9.03791,61.8044
2023-02-16 00:14:56:573,-1.53852,-0.929979,-9.59562,5.5856,-9.03186,61.8265
2023-02-16 00:14:56:583,-1.55358,-0.928442,-9.62972,5.56805,-9.03011,61.8444
2023-02-16 00:14:56:593,-1.61229,-0.897895,-9.64714,5.54882,-9.02957,61.86
2023-02-16 00:14:56:603,-1.62095,-0.875384,-9.67923,5.5321,-9.03134,61.8716
2023-02-16 00:14:56:612,-1.57778,-0.8849,-9.68944,5.52277,-9.03199,61.8739
2023-02-16 00:14:56:622,-1.54066,-0.908387,-9.66002,5.51514,-9.03114,61.871
2023-02-16 00:14:56:632,-1.55489,-0.913627,-9.6316,5.50805,-9.03277,61.8649
2023-02-16 00:14:56:643,-1.54201,-0.916008,-9.6086,5.5054,-9.03109,61.8593
2023-02-16 00:14:56:653,-1.50798,-0.92533,-9.58236,5.50278,-9.02724,61.8497
2023-02-16 00:14:56:663,-1.47896,-0.929202,-9.56666,5.50173,-9.02308,61.8417
2023-02-16 00:14:56:672,-1.44856,-0.931606,-9.56826,5.49606,-9.01801,61.8311
2023-02-16 00:14:56:683,-1.40637,-0.935263,-9.57696,5.48945,-9.01175,61.8245
2023-02-16 00:14:56:693,-1.3468,-0.948978,-9.58141,5.48221,-9.00799,61.8195
2023-02-16 00:14:56:703,-1.29452,-0.965085,-9.58309,5.4722,-9.00334,61.8151
2023-02-16 00:14:56:713,-1.25939,-0.968961,-9.58887,5.46002,-9.00379,61.8207
2023-02-16 00:14:56:723,-1.25869,-0.958021,-9.59446,5.44172,-9.00817,61.8381
2023-02-16 00:14:56:733,-1.31613,-0.932744,-9.62937,5.41882,-9.01149,61.8664
2023-02-16 00:14:56:743,-1.3662,-0.902881,-9.64206,5.40056,-9.01802,61.9048
2023-02-16 00:14:56:753,-1.39828,-0.901273,-9.62972,5.38081,-9.02453,61.9521
2023-02-16 00:14:56:763,-1.39657,-0.926811,-9.60405,5.36419,-9.02963,62.0082
2023-02-16 00:14:56:773,-1.37447,-0.927545,-9.5964,5.34389,-9.03235,62.0725
2023-02-16 00:14:56:783,-1.37545,-0.934411,-9.59311,5.31946,-9.03398,62.1494
2023-02-16 00:14:56:793,-1.42657,-0.924138,-9.5678,5.29586,-9.0307,62.239
2023-02-16 00:14:56:803,-1.49852,-0.89139,-9.54822,5.27042,-9.03095,62.3326
2023-02-16 00:14:56:813,-1.56777,-0.876002,-9.53476,5.24255,-9.02984,62.4339
2023-02-16 00:14:56:823,-1.62641,-0.864187,-9.54816,5.21212,-9.02977,62.5344
2023-02-16 00:14:56:833,-1.69946,-0.829723,-9.57638,5.17619,-9.02758,62.6335
2023-02-16 00:14:56:843,-1.72372,-0.807869,-9.64084,5.13878,-9.0274,62.7252
2023-02-16 00:14:56:853,-1.69504,-0.777118,-9.71936,5.10621,-9.02511,62.8059
2023-02-16 00:14:56:862,-1.63907,-0.768389,-9.74475,5.07858,-9.02367,62.8746
2023-02-16 00:14:56:872,-1.63639,-0.776026,-9.72656,5.05533,-9.02684,62.9375
2023-02-16 00:14:56:882,-1.64738,-0.784057,-9.70765,5.03813,-9.03099,62.9956
2023-02-16 00:14:56:892,-1.64091,-0.798034,-9.67,5.02729,-9.04091,63.0466
2023-02-16 00:14:56:903,-1.65587,-0.797615,-9.62545,5.0142,-9.05463,63.0886
2023-02-16 00:14:56:912,-1.68406,-0.784821,-9.57612,5.00245,-9.06616,63.1314
2023-02-16 00:14:56:923,-1.6985,-0.767111,-9.55585,4.99258,-9.07465,63.165
2023-02-16 00:14:56:933,-1.74652,-0.757948,-9.55994,4.98337,-9.08552,63.1923
2023-02-16 00:14:56:943,-1.79797,-0.737132,-9.56105,4.9715,-9.0954,63.2121
2023-02-16 00:14:56:953,-1.81955,-0.736855,-9.5756,4.96037,-9.10779,63.2219
2023-02-16 00:14:56:963,-1.78342,-0.744322,-9.56896,4.95449,-9.11476,63.2175
2023-02-16 00:14:56:973,-1.69452,-0.772651,-9.56714,4.95104,-9.11518,63.2061
2023-02-16 00:14:56:983,-1.65422,-0.780116,-9.56047,4.94926,-9.11567,63.1867
2023-02-16 00:14:56:993,-1.64616,-0.788824,-9.58818,4.94318,-9.11896,63.1662
2023-02-16 00:14:57:3,-1.63246,-0.788157,-9.62704,4.94108,-9.12116,63.1408
2023-02-16 00:14:57:13,-1.62059,-0.802556,-9.63399,4.94193,-9.11991,63.1175
2023-02-16 00:14:57:22,-1.63565,-0.811527,-9.63176,4.94096,-9.12184,63.0922
2023-02-16 00:14:57:33,-1.68148,-0.80258,-9.6336,4.94268,-9.11757,63.0649
2023-02-16 00:14:57:43,-1.67574,-0.779495,-9.65496,4.94075,-9.11316,63.034
2023-02-16 00:14:57:53,-1.6167,-0.78598,-9.63679,4.94209,-9.1051,62.9967
2023-02-16 00:14:57:63,-1.54216,-0.808296,-9.6136,4.9449,-9.0983,62.9534
2023-02-16 00:14:57:72,-1.51236,-0.822035,-9.57757,4.94767,-9.09485,62.9118
2023-02-16 00:14:57:83,-1.56214,-0.83333,-9.5532,4.95006,-9.0909,62.8698
2023-02-16 00:14:57:93,-1.62552,-0.814474,-9.53674,4.94983,-9.09334,62.8321
2023-02-16 00:14:57:103,-1.6101,-0.805783,-9.55454,4.94689,-9.09089,62.7922
2023-02-16 00:14:57:113,-1.58105,-0.805598,-9.56321,4.94524,-9.08483,62.7473
2023-02-16 00:14:57:122,-1.5388,-0.824932,-9.59837,4.94107,-9.07972,62.7042
2023-02-16 00:14:57:133,-1.56425,-0.816038,-9.61787,4.93419,-9.07413,62.6588
2023-02-16 00:14:57:143,-1.61279,-0.792462,-9.61457,4.93087,-9.07544,62.6152
2023-02-16 00:14:57:153,-1.612,-0.806599,-9.63852,4.9298,-9.0705,62.5652
2023-02-16 00:14:57:163,-1.56502,-0.821497,-9.65006,4.92795,-9.06498,62.5085
2023-02-16 00:14:57:173,-1.54861,-0.822612,-9.63967,4.92699,-9.06237,62.4523
2023-02-16 00:14:57:183,-1.55637,-0.804252,-9.61834,4.92448,-9.0582,62.3992
2023-02-16 00:14:57:193,-1.57248,-0.806776,-9.61215,4.92484,-9.05592,62.3436
2023-02-16 00:14:57:203,-1.57005,-0.790305,-9.6181,4.92158,-9.04898,62.2855
2023-02-16 00:14:57:213,-1.58267,-0.7774,-9.63841,4.91851,-9.04024,62.2284
2023-02-16 00:14:57:223,-1.60717,-0.773594,-9.64239,4.91906,-9.03236,62.1711
2023-02-16 00:14:57:233,-1.58287,-0.776797,-9.62242,4.92485,-9.02239,62.1082
2023-02-16 00:14:57:243,-1.53177,-0.803122,-9.62907,4.92922,-9.01215,62.0441
2023-02-16 00:14:57:253,-1.49258,-0.80624,-9.64082,4.93926,-9.00214,61.978
2023-02-16 00:14:57:263,-1.48047,-0.811682,-9.64011,4.95122,-8.99227,61.9117
2023-02-16 00:14:57:273,-1.4934,-0.826905,-9.62826,4.96272,-8.98403,61.8472
2023-02-16 00:14:57:283,-1.48388,-0.829372,-9.62648,4.97282,-8.97664,61.7833
2023-02-16 00:14:57:292,-1.5165,-0.833538,-9.62393,4.98967,-8.97117,61.7171
2023-02-16 00:14:57:302,-1.55576,-0.842759,-9.601,5.00238,-8.96445,61.6527
2023-02-16 00:14:57:312,-1.54652,-0.868401,-9.57947,5.0186,-8.96085,61.5825
2023-02-16 00:14:57:323,-1.53615,-0.890102,-9.57695,5.03311,-8.95581,61.5114
2023-02-16 00:14:57:332,-1.49906,-0.883299,-9.56983,5.04586,-8.95213,61.4373
2023-02-16 00:14:57:343,-1.44388,-0.909725,-9.56913,5.052,-8.94818,61.3643
2023-02-16 00:14:57:353,-1.4618,-0.904636,-9.56361,5.0583,-8.94563,61.2925
2023-02-16 00:14:57:363,-1.49502,-0.892082,-9.59661,5.05977,-8.94746,61.2257
2023-02-16 00:14:57:373,-1.48925,-0.872279,-9.63823,5.05558,-8.95064,61.1603
2023-02-16 00:14:57:382,-1.4841,-0.839035,-9.621,5.05113,-8.95323,61.0937
2023-02-16 00:14:57:393,-1.52302,-0.832819,-9.61382,5.04871,-8.95388,61.0319
2023-02-16 00:14:57:403,-1.53998,-0.826858,-9.62982,5.04935,-8.95368,60.9706
2023-02-16 00:14:57:413,-1.50917,-0.816033,-9.64164,5.05397,-8.94913,60.9115
2023-02-16 00:14:57:423,-1.49755,-0.832277,-9.62771,5.06166,-8.94881,60.8517
2023-02-16 00:14:57:433,-1.47145,-0.853024,-9.59632,5.0693,-8.94703,60.79
2023-02-16 00:14:57:443,-1.42399,-0.869529,-9.57693,5.07664,-8.94514,60.7317
2023-02-16 00:14:57:453,-1.37684,-0.890863,-9.57033,5.07938,-8.94245,60.68
2023-02-16 00:14:57:463,-1.34405,-0.912733,-9.57015,5.08011,-8.94083,60.6376
2023-02-16 00:14:57:473,-1.30101,-0.923205,-9.58913,5.07721,-8.93424,60.6017
2023-02-16 00:14:57:483,-1.30424,-0.908954,-9.62245,5.07079,-8.92973,60.5729
2023-02-16 00:14:57:492,-1.31547,-0.886358,-9.65442,5.06301,-8.92668,60.5536
2023-02-16 00:14:57:502,-1.30902,-0.865536,-9.67869,5.05509,-8.9205,60.5477
2023-02-16 00:14:57:512,-1.2759,-0.856969,-9.67162,5.05076,-8.91324,60.5479
2023-02-16 00:14:57:522,-1.26316,-0.86589,-9.65426,5.0467,-8.90747,60.5586
2023-02-16 00:14:57:533,-1.30722,-0.867096,-9.64186,5.04332,-8.90379,60.5793
2023-02-16 00:14:57:543,-1.35366,-0.851419,-9.63359,5.04181,-8.90708,60.6074
2023-02-16 00:14:57:553,-1.36389,-0.845225,-9.63018,5.03615,-8.91063,60.6417
2023-02-16 00:14:57:563,-1.35168,-0.843453,-9.61976,5.02984,-8.91521,60.6811
2023-02-16 00:14:57:573,-1.33134,-0.854917,-9.63096,5.02414,-8.92367,60.7257
2023-02-16 00:14:57:583,-1.34102,-0.85648,-9.63564,5.02027,-8.93358,60.7751
2023-02-16 00:14:57:593,-1.32404,-0.857265,-9.63435,5.01208,-8.94555,60.8313
2023-02-16 00:14:57:603,-1.29358,-0.876194,-9.63222,5.0089,-8.95905,60.8994
2023-02-16 00:14:57:613,-1.23309,-0.888003,-9.61856,5.00564,-8.97085,60.9739
2023-02-16 00:14:57:622,-1.17838,-0.906666,-9.58836,5.00002,-8.9822,61.0652
2023-02-16 00:14:57:632,-1.12982,-0.944176,-9.57975,4.98997,-8.99261,61.1713
2023-02-16 00:14:57:643,-1.21255,-0.907151,-9.56592,4.97648,-9.00198,61.2965
2023-02-16 00:14:57:653,-1.42157,-0.845031,-9.57631,4.95462,-9.01679,61.4438
2023-02-16 00:14:57:662,-1.52885,-0.787165,-9.61354,4.92993,-9.02865,61.6034
2023-02-16 00:14:57:673,-1.51848,-0.771605,-9.64473,4.90877,-9.03176,61.7687
2023-02-16 00:14:57:682,-1.46312,-0.810846,-9.63205,4.89262,-9.03087,61.9373
2023-02-16 00:14:57:693,-1.3912,-0.842505,-9.61397,4.88036,-9.02569,62.1054
2023-02-16 00:14:57:703,-1.31337,-0.851061,-9.63633,4.85904,-9.02224,62.2854
2023-02-16 00:14:57:713,-1.24196,-0.847327,-9.6556,4.836,-9.02091,62.4748
2023-02-16 00:14:57:722,-1.16453,-0.856748,-9.64467,4.81092,-9.01842,62.6771
2023-02-16 00:14:57:732,-1.09722,-0.877614,-9.61994,4.78501,-9.01769,62.8973
2023-02-16 00:14:57:742,-1.06698,-0.870193,-9.63644,4.75299,-9.01948,63.1412
2023-02-16 00:14:57:752,-1.02786,-0.836114,-9.67939,4.71395,-9.02215,63.4134
2023-02-16 00:14:57:763,-0.961896,-0.806144,-9.69532,4.67205,-9.023,63.7129
2023-02-16 00:14:57:773,-0.90583,-0.796822,-9.66487,4.63027,-9.02491,64.0435
2023-02-16 00:14:57:783,-0.887065,-0.789005,-9.57737,4.59098,-9.02369,64.4114
2023-02-16 00:14:57:793,-0.946133,-0.793453,-9.46547,4.54593,-9.01882,64.8183
2023-02-16 00:14:57:803,-1.0967,-0.807351,-9.35711,4.49358,-9.00707,65.2676
2023-02-16 00:14:57:813,-1.24518,-0.800083,-9.3418,4.42727,-8.98742,65.7518
2023-02-16 00:14:57:822,-1.30595,-0.738478,-9.43748,4.34493,-8.95312,66.2647
2023-02-16 00:14:57:832,-1.32745,-0.656295,-9.57986,4.25129,-8.90799,66.7989
2023-02-16 00:14:57:842,-1.31326,-0.602742,-9.70461,4.15563,-8.85771,67.3472
2023-02-16 00:14:57:853,-1.30204,-0.56862,-9.81268,4.05614,-8.80487,67.9107
2023-02-16 00:14:57:863,-1.30615,-0.525985,-9.86633,3.96583,-8.75977,68.4867
2023-02-16 00:14:57:873,-1.36428,-0.503234,-9.85488,3.88424,-8.71583,69.0736
2023-02-16 00:14:57:883,-1.47998,-0.465552,-9.80655,3.81149,-8.67645,69.6672
2023-02-16 00:14:57:892,-1.64978,-0.430595,-9.72437,3.74222,-8.63954,70.266
2023-02-16 00:14:57:902,-1.83489,-0.414219,-9.61783,3.67951,-8.6013,70.8664
2023-02-16 00:14:57:913,-1.94825,-0.406289,-9.53974,3.61757,-8.55997,71.4591
2023-02-16 00:14:57:923,-1.92815,-0.44185,-9.51551,3.55471,-8.50674,72.0294
2023-02-16 00:14:57:933,-1.84688,-0.472771,-9.55865,3.49089,-8.44557,72.5769
2023-02-16 00:14:57:943,-1.76833,-0.46304,-9.63134,3.42428,-8.38777,73.0985
2023-02-16 00:14:57:953,-1.73089,-0.406311,-9.73086,3.35644,-8.33769,73.5989
2023-02-16 00:14:57:963,-1.69978,-0.344965,-9.83424,3.29103,-8.29608,74.0783
2023-02-16 00:14:57:973,-1.68087,-0.299634,-9.89286,3.23782,-8.26409,74.5367
2023-02-16 00:14:57:982,-1.69986,-0.302456,-9.82131,3.20217,-8.24115,74.9733
2023-02-16 00:14:57:993,-1.75109,-0.39446,-9.69038,3.17813,-8.22379,75.398
2023-02-16 00:14:58:3,-1.77621,-0.47697,-9.56634,3.16322,-8.20451,75.8002
2023-02-16 00:14:58:13,-1.80581,-0.500446,-9.53159,3.14309,-8.18787,76.1808
2023-02-16 00:14:58:23,-1.81689,-0.480105,-9.5758,3.11868,-8.17103,76.5402
2023-02-16 00:14:58:33,-1.81589,-0.426779,-9.63581,3.08762,-8.15556,76.8788
2023-02-16 00:14:58:43,-1.77409,-0.418245,-9.68563,3.06176,-8.14291,77.1873
2023-02-16 00:14:58:53,-1.72967,-0.429729,-9.68011,3.03601,-8.13591,77.4742
2023-02-16 00:14:58:63,-1.67743,-0.45233,-9.66148,3.01259,-8.1308,77.7385
2023-02-16 00:14:58:73,-1.62479,-0.457669,-9.63992,2.99757,-8.12462,77.9805
2023-02-16 00:14:58:83,-1.59199,-0.471216,-9.62056,2.98365,-8.12495,78.2064
2023-02-16 00:14:58:93,-1.5708,-0.480597,-9.61148,2.96717,-8.12733,78.4209
2023-02-16 00:14:58:103,-1.59217,-0.485095,-9.60149,2.94755,-8.13505,78.6205
2023-02-16 00:14:58:113,-1.66078,-0.458358,-9.61293,2.927,-8.14341,78.8128
2023-02-16 00:14:58:123,-1.74263,-0.426187,-9.64664,2.90671,-8.15007,78.9899
2023-02-16 00:14:58:132,-1.75245,-0.420489,-9.67636,2.89249,-8.15545,79.1533
2023-02-16 00:14:58:142,-1.72551,-0.421445,-9.66673,2.88001,-8.15882,79.2914
2023-02-16 00:14:58:152,-1.6895,-0.447664,-9.65885,2.87441,-8.16474,79.4127
2023-02-16 00:14:58:163,-1.63164,-0.45195,-9.65684,2.86656,-8.17108,79.5167
2023-02-16 00:14:58:172,-1.60369,-0.450863,-9.68376,2.86363,-8.18337,79.6001
2023-02-16 00:14:58:183,-1.60769,-0.442298,-9.68506,2.86355,-8.19772,79.673
2023-02-16 00:14:58:193,-1.61132,-0.44852,-9.67006,2.86327,-8.21606,79.7276
2023-02-16 00:14:58:203,-1.62363,-0.439229,-9.63971,2.86476,-8.23648,79.7723
2023-02-16 00:14:58:213,-1.61614,-0.434211,-9.62366,2.86788,-8.25211,79.8067
2023-02-16 00:14:58:223,-1.61449,-0.449257,-9.63098,2.8724,-8.26929,79.8327
2023-02-16 00:14:58:233,-1.59471,-0.43563,-9.63224,2.87256,-8.28686,79.8486
2023-02-16 00:14:58:243,-1.57499,-0.429634,-9.64578,2.87397,-8.29898,79.8543
2023-02-16 00:14:58:253,-1.55548,-0.434668,-9.6449,2.87517,-8.31158,79.8499
2023-02-16 00:14:58:263,-1.52852,-0.459572,-9.65285,2.8808,-8.3215,79.8393
2023-02-16 00:14:58:272,-1.48415,-0.454902,-9.67347,2.88449,-8.32892,79.8255
2023-02-16 00:14:58:282,-1.45489,-0.451833,-9.67248,2.88804,-8.33779,79.8107
2023-02-16 00:14:58:293,-1.43046,-0.467088,-9.65603,2.89732,-8.34471,79.791
2023-02-16 00:14:58:303,-1.41406,-0.4707,-9.62664,2.90574,-8.34989,79.7702
2023-02-16 00:14:58:313,-1.41085,-0.454739,-9.63608,2.9116,-8.35378,79.7515
2023-02-16 00:14:58:323,-1.42145,-0.450297,-9.65198,2.91649,-8.35554,79.7369
2023-02-16 00:14:58:333,-1.43229,-0.45739,-9.64591,2.92431,-8.35628,79.721
2023-02-16 00:14:58:343,-1.41576,-0.467418,-9.65829,2.92909,-8.34938,79.7034
2023-02-16 00:14:58:353,-1.38664,-0.474589,-9.67478,2.93468,-8.34106,79.6898
2023-02-16 00:14:58:363,-1.37536,-0.471492,-9.65836,2.94118,-8.33618,79.6766
2023-02-16 00:14:58:372,-1.35049,-0.492763,-9.6526,2.94822,-8.3312,79.6604
2023-02-16 00:14:58:383,-1.34165,-0.491317,-9.65318,2.95715,-8.32862,79.6451
2023-02-16 00:14:58:392,-1.32817,-0.491179,-9.65673,2.96246,-8.32844,79.6299
2023-02-16 00:14:58:403,-1.30903,-0.503835,-9.64591,2.9682,-8.33337,79.6147
2023-02-16 00:14:58:412,-1.30384,-0.509026,-9.63352,2.96873,-8.34096,79.6016
2023-02-16 00:14:58:422,-1.31076,-0.51008,-9.6448,2.9703,-8.35268,79.5913
2023-02-16 00:14:58:432,-1.30577,-0.503131,-9.63823,2.97158,-8.36596,79.5808
2023-02-16 00:14:58:443,-1.32569,-0.494265,-9.66169,2.97126,-8.38201,79.5733
2023-02-16 00:14:58:453,-1.35552,-0.506204,-9.66952,2.97256,-8.40355,79.5688
2023-02-16 00:14:58:462,-1.41148,-0.4929,-9.66681,2.97183,-8.42581,79.5675
2023-02-16 00:14:58:472,-1.46195,-0.476763,-9.68186,2.97592,-8.45277,79.5611
2023-02-16 00:14:58:482,-1.48617,-0.474758,-9.68065,2.98161,-8.47702,79.5507
2023-02-16 00:14:58:493,-1.50069,-0.500625,-9.6759,2.98822,-8.50144,79.5401
2023-02-16 00:14:58:503,-1.5319,-0.513042,-9.63185,2.99903,-8.52727,79.5216
2023-02-16 00:14:58:512,-1.53868,-0.517181,-9.61699,3.01251,-8.54713,79.5026
2023-02-16 00:14:58:522,-1.53329,-0.526774,-9.61375,3.01919,-8.5706,79.4795
2023-02-16 00:14:58:532,-1.57027,-0.526448,-9.61077,3.02591,-8.59341,79.4498
2023-02-16 00:14:58:543,-1.59382,-0.533465,-9.62567,3.03209,-8.61618,79.417
2023-02-16 00:14:58:553,-1.55143,-0.538471,-9.68436,3.03937,-8.63664,79.3761
2023-02-16 00:14:58:563,-1.45396,-0.520465,-9.71468,3.04553,-8.65979,79.326
2023-02-16 00:14:58:573,-1.41417,-0.530069,-9.70458,3.05532,-8.68001,79.2724
2023-02-16 00:14:58:583,-1.41202,-0.545796,-9.65428,3.0684,-8.69595,79.2197
2023-02-16 00:14:58:593,-1.42169,-0.55581,-9.63238,3.07993,-8.71696,79.1701
2023-02-16 00:14:58:603,-1.458,-0.547386,-9.61921,3.09034,-8.74128,79.123
2023-02-16 00:14:58:613,-1.47504,-0.546313,-9.58342,3.10147,-8.76707,79.0772
2023-02-16 00:14:58:622,-1.46238,-0.547489,-9.55896,3.10957,-8.79185,79.0347
2023-02-16 00:14:58:632,-1.44119,-0.556802,-9.57264,3.11594,-8.81171,78.9936
2023-02-16 00:14:58:642,-1.43647,-0.558927,-9.59856,3.11727,-8.83127,78.9577
2023-02-16 00:14:58:653,-1.45148,-0.544241,-9.62664,3.11993,-8.85281,78.9225
2023-02-16 00:14:58:662,-1.48136,-0.522999,-9.63576,3.12188,-8.87116,78.8925
2023-02-16 00:14:58:672,-1.49449,-0.527391,-9.63259,3.12488,-8.88745,78.8615
2023-02-16 00:14:58:682,-1.47828,-0.541127,-9.61654,3.12578,-8.90249,78.8413
2023-02-16 00:14:58:692,-1.47898,-0.552868,-9.61071,3.1265,-8.91597,78.821
