Timestamp,Acceleration_x,Acceleration_y,Acceleration_z,roll,pitch,yaw
2023-02-15 07:15:55:591,-0.922153,4.21481,-9.02253,-24.6738,-5.64185,98.7399
2023-02-15 07:15:55:598,-0.968928,4.18007,-8.98112,-24.6501,-5.64679,98.7282
2023-02-15 07:15:55:609,-1.02877,4.14733,-8.89942,-24.6205,-5.65676,98.717
2023-02-15 07:15:55:619,-1.09296,4.11919,-8.84878,-24.5899,-5.6729,98.7081
2023-02-15 07:15:55:629,-1.17074,4.09805,-8.79058,-24.5531,-5.69563,98.6968
2023-02-15 07:15:55:639,-1.21503,4.06708,-8.78015,-24.5181,-5.71394,98.6761
2023-02-15 07:15:55:649,-1.2246,4.05941,-8.80776,-24.4839,-5.731,98.6467
2023-02-15 07:15:55:659,-1.20409,4.05819,-8.82039,-24.4515,-5.74484,98.6106
2023-02-15 07:15:55:669,-1.15485,4.02855,-8.82108,-24.413,-5.75936,98.5622
2023-02-15 07:15:55:679,-1.07665,4.00578,-8.80474,-24.3762,-5.76777,98.5075
2023-02-15 07:15:55:689,-0.976173,3.98579,-8.76292,-24.339,-5.77303,98.4465
2023-02-15 07:15:55:699,-0.860672,3.96835,-8.73344,-24.3068,-5.77305,98.3796
2023-02-15 07:15:55:708,-0.742745,3.95421,-8.75448,-24.2832,-5.76683,98.3149
2023-02-15 07:15:55:718,-0.634816,3.96861,-8.75365,-24.2662,-5.76521,98.2523
2023-02-15 07:15:55:728,-0.555898,3.99794,-8.79155,-24.2557,-5.75644,98.2018
2023-02-15 07:15:55:738,-0.488165,4.01869,-8.84924,-24.2461,-5.74482,98.1615
2023-02-15 07:15:55:749,-0.44155,4.02623,-8.89198,-24.2413,-5.72826,98.1312
2023-02-15 07:15:55:759,-0.399951,4.02746,-8.94281,-24.2336,-5.70712,98.1177
2023-02-15 07:15:55:769,-0.360601,4.04298,-8.95929,-24.2261,-5.68115,98.123
2023-02-15 07:15:55:779,-0.337967,4.03238,-8.95363,-24.2167,-5.65427,98.1469
2023-02-15 07:15:55:789,-0.370864,4.01685,-8.99939,-24.2017,-5.6308,98.1876
2023-02-15 07:15:55:799,-0.443518,4.04619,-9.09844,-24.187,-5.61084,98.2441
2023-02-15 07:15:55:809,-0.51093,4.06129,-9.15413,-24.1685,-5.59996,98.3193
2023-02-15 07:15:55:819,-0.550841,4.03833,-9.17567,-24.1398,-5.59116,98.4051
2023-02-15 07:15:55:829,-0.590116,3.98827,-9.18865,-24.1034,-5.59497,98.5019
2023-02-15 07:15:55:839,-0.62655,3.93878,-9.20969,-24.0589,-5.60866,98.614
2023-02-15 07:15:55:849,-0.688128,3.89377,-9.22148,-24.0054,-5.62959,98.7367
2023-02-15 07:15:55:859,-0.825417,3.84606,-9.18507,-23.945,-5.65866,98.8699
2023-02-15 07:15:55:869,-0.951307,3.78196,-9.11088,-23.8703,-5.68908,99.0092
2023-02-15 07:15:55:879,-1.0227,3.71833,-9.04051,-23.7926,-5.71629,99.1481
2023-02-15 07:15:55:889,-1.07219,3.66466,-8.99152,-23.7137,-5.73702,99.288
2023-02-15 07:15:55:899,-1.08008,3.62596,-8.92518,-23.6297,-5.74669,99.4319
2023-02-15 07:15:55:909,-1.08364,3.58183,-8.86722,-23.5444,-5.74663,99.5686
2023-02-15 07:15:55:919,-1.11784,3.55495,-8.82679,-23.4617,-5.7301,99.6965
2023-02-15 07:15:55:929,-1.11784,3.53301,-8.82369,-23.3782,-5.70495,99.8211
2023-02-15 07:15:55:939,-1.02839,3.50533,-8.77992,-23.3042,-5.6668,99.936
2023-02-15 07:15:55:949,-0.934802,3.48254,-8.72641,-23.2401,-5.61645,100.041
2023-02-15 07:15:55:958,-0.875768,3.48461,-8.65862,-23.1935,-5.56126,100.141
2023-02-15 07:15:55:968,-0.836642,3.51066,-8.61046,-23.1685,-5.5097,100.238
2023-02-15 07:15:55:978,-0.810532,3.57979,-8.59882,-23.1654,-5.46566,100.336
2023-02-15 07:15:55:988,-0.82943,3.68357,-8.65328,-23.1851,-5.43213,100.434
2023-02-15 07:15:55:998,-0.867875,3.77889,-8.70336,-23.2198,-5.40898,100.533
2023-02-15 07:15:56:8,-0.930218,3.87642,-8.78687,-23.2664,-5.39818,100.632
2023-02-15 07:15:56:18,-0.992578,3.95983,-8.88337,-23.3172,-5.39462,100.727
2023-02-15 07:15:56:28,-1.02416,4.00911,-8.9479,-23.3628,-5.39893,100.819
2023-02-15 07:15:56:39,-1.07068,4.04374,-8.96576,-23.4063,-5.41048,100.901
2023-02-15 07:15:56:49,-1.0767,4.05223,-8.93482,-23.4498,-5.42146,100.975
2023-02-15 07:15:56:58,-1.07314,4.03153,-8.91625,-23.4852,-5.43831,101.042
2023-02-15 07:15:56:69,-1.08447,4.03743,-8.8893,-23.5217,-5.45633,101.095
2023-02-15 07:15:56:79,-1.0947,4.03864,-8.86745,-23.5566,-5.48011,101.141
2023-02-15 07:15:56:89,-1.075,4.03008,-8.88612,-23.5891,-5.50786,101.178
2023-02-15 07:15:56:99,-1.08021,4.04357,-8.8837,-23.6221,-5.54179,101.207
2023-02-15 07:15:56:109,-1.09246,4.0533,-8.88905,-23.6511,-5.57762,101.227
2023-02-15 07:15:56:119,-1.07952,4.0428,-8.89912,-23.6797,-5.61533,101.243
2023-02-15 07:15:56:129,-1.06085,4.02314,-8.89288,-23.7028,-5.65207,101.25
2023-02-15 07:15:56:139,-1.03668,4.00981,-8.87676,-23.727,-5.6895,101.256
2023-02-15 07:15:56:149,-0.996503,4.01383,-8.86746,-23.7516,-5.72333,101.259
2023-02-15 07:15:56:159,-0.945509,4.04739,-8.89372,-23.7798,-5.75725,101.264
2023-02-15 07:15:56:169,-0.90435,4.06723,-8.93353,-23.8072,-5.78511,101.271
2023-02-15 07:15:56:179,-0.922301,4.07227,-8.96469,-23.8302,-5.81067,101.285
2023-02-15 07:15:56:189,-0.965936,4.07826,-8.96557,-23.8509,-5.83338,101.31
2023-02-15 07:15:56:199,-1.04026,4.08226,-8.94128,-23.8632,-5.85266,101.341
2023-02-15 07:15:56:209,-1.1204,4.05583,-8.91272,-23.8727,-5.86792,101.371
2023-02-15 07:15:56:219,-1.17119,4.02826,-8.88721,-23.8742,-5.88372,101.404
2023-02-15 07:15:56:229,-1.16124,3.98768,-8.85903,-23.8731,-5.89892,101.43
2023-02-15 07:15:56:239,-1.13334,3.95567,-8.81112,-23.8708,-5.91234,101.457
2023-02-15 07:15:56:249,-1.0939,3.91942,-8.79455,-23.8678,-5.92125,101.483
2023-02-15 07:15:56:259,-1.07156,3.89974,-8.80174,-23.8623,-5.92951,101.505
2023-02-15 07:15:56:269,-1.03426,3.89206,-8.84348,-23.8607,-5.93561,101.525
2023-02-15 07:15:56:279,-0.972765,3.88123,-8.85746,-23.859,-5.93707,101.545
2023-02-15 07:15:56:289,-0.913197,3.85799,-8.85911,-23.8608,-5.93821,101.563
2023-02-15 07:15:56:299,-0.87286,3.85834,-8.84248,-23.8693,-5.93868,101.586
2023-02-15 07:15:56:309,-0.845257,3.86363,-8.81405,-23.8842,-5.94409,101.615
2023-02-15 07:15:56:319,-0.848029,3.88345,-8.7806,-23.9063,-5.9472,101.651
2023-02-15 07:15:56:329,-0.860469,3.903,-8.74964,-23.9397,-5.94962,101.698
2023-02-15 07:15:56:338,-0.870227,3.92105,-8.72699,-23.9806,-5.94946,101.754
2023-02-15 07:15:56:348,-0.893861,3.93929,-8.70955,-24.0292,-5.948,101.816
2023-02-15 07:15:56:359,-0.913905,3.97912,-8.71116,-24.079,-5.94012,101.883
2023-02-15 07:15:56:368,-0.915737,3.99809,-8.72512,-24.1342,-5.93285,101.958
2023-02-15 07:15:56:378,-0.943163,3.98999,-8.73315,-24.1938,-5.92119,102.038
2023-02-15 07:15:56:388,-0.958616,3.97586,-8.73568,-24.2503,-5.91445,102.125
2023-02-15 07:15:56:398,-0.969986,3.95825,-8.72151,-24.3132,-5.90855,102.219
2023-02-15 07:15:56:408,-0.954117,3.92859,-8.72145,-24.3789,-5.89799,102.314
2023-02-15 07:15:56:418,-0.935079,3.89938,-8.71687,-24.454,-5.88178,102.414
2023-02-15 07:15:56:428,-0.912753,3.87304,-8.74343,-24.5353,-5.86233,102.52
2023-02-15 07:15:56:438,-0.882426,3.86836,-8.80174,-24.6251,-5.84119,102.634
2023-02-15 07:15:56:448,-0.864724,3.8698,-8.86468,-24.718,-5.82117,102.751
2023-02-15 07:15:56:458,-0.870528,3.89088,-8.94799,-24.8116,-5.80401,102.875
2023-02-15 07:15:56:468,-0.954349,3.93603,-9.08603,-24.9013,-5.78832,103.002
2023-02-15 07:15:56:478,-1.06766,3.97739,-9.21451,-24.9867,-5.7764,103.135
2023-02-15 07:15:56:488,-1.14535,3.94639,-9.19707,-25.0534,-5.76445,103.261
2023-02-15 07:15:56:499,-1.20239,3.89388,-9.09005,-25.1058,-5.74595,103.379
2023-02-15 07:15:56:509,-1.18373,3.86756,-8.99078,-25.1533,-5.71432,103.482
2023-02-15 07:15:56:519,-1.13694,3.86551,-8.89582,-25.1908,-5.66934,103.577
2023-02-15 07:15:56:528,-1.0381,3.87494,-8.78101,-25.2276,-5.61511,103.657
2023-02-15 07:15:56:538,-0.986455,3.90873,-8.71654,-25.2693,-5.56,103.729
2023-02-15 07:15:56:548,-0.991351,3.97434,-8.69215,-25.3214,-5.5137,103.79
2023-02-15 07:15:56:559,-0.944458,4.06124,-8.68464,-25.3855,-5.4763,103.842
2023-02-15 07:15:56:569,-0.912298,4.15765,-8.71296,-25.4548,-5.44667,103.887
2023-02-15 07:15:56:579,-0.932225,4.29436,-8.78081,-25.5301,-5.42986,103.927
2023-02-15 07:15:56:589,-0.920462,4.40827,-8.83433,-25.6045,-5.42383,103.959
2023-02-15 07:15:56:598,-0.945323,4.46351,-8.84344,-25.6732,-5.42077,103.989
2023-02-15 07:15:56:608,-1.00283,4.5044,-8.79768,-25.7377,-5.4271,104.014
2023-02-15 07:15:56:618,-1.05299,4.52855,-8.74071,-25.8009,-5.43539,104.033
2023-02-15 07:15:56:629,-1.11206,4.58812,-8.72765,-25.8582,-5.44205,104.046
2023-02-15 07:15:56:639,-1.14644,4.63033,-8.73051,-25.9082,-5.4506,104.052
2023-02-15 07:15:56:649,-1.16248,4.66086,-8.7408,-25.9554,-5.46562,104.05
2023-02-15 07:15:56:659,-1.15992,4.68689,-8.76612,-25.9936,-5.48275,104.035
2023-02-15 07:15:56:669,-1.1476,4.69432,-8.81165,-26.0224,-5.50075,104.015
2023-02-15 07:15:56:679,-1.14879,4.70245,-8.86882,-26.0402,-5.52006,103.988
2023-02-15 07:15:56:689,-1.17566,4.70902,-8.91929,-26.0432,-5.54039,103.951
2023-02-15 07:15:56:699,-1.21981,4.68802,-8.93593,-26.031,-5.56207,103.91
2023-02-15 07:15:56:709,-1.26033,4.64197,-8.91742,-26.0053,-5.58277,103.856
2023-02-15 07:15:56:719,-1.27391,4.5797,-8.90431,-25.9677,-5.60206,103.793
2023-02-15 07:15:56:729,-1.2863,4.51556,-8.90434,-25.9157,-5.62359,103.717
2023-02-15 07:15:56:739,-1.28634,4.48461,-8.92553,-25.8557,-5.63805,103.626
2023-02-15 07:15:56:749,-1.27562,4.43331,-8.93423,-25.7905,-5.65072,103.523
2023-02-15 07:15:56:759,-1.21824,4.35396,-8.8631,-25.7079,-5.65705,103.408
2023-02-15 07:15:56:769,-1.10869,4.26111,-8.78757,-25.6168,-5.66397,103.277
2023-02-15 07:15:56:779,-1.00565,4.1947,-8.778,-25.5302,-5.67001,103.137
2023-02-15 07:15:56:789,-0.941003,4.15494,-8.79195,-25.4409,-5.67457,102.988
2023-02-15 07:15:56:799,-0.866047,4.12343,-8.77544,-25.3529,-5.67795,102.838
2023-02-15 07:15:56:809,-0.803757,4.08075,-8.74106,-25.2643,-5.68226,102.686
2023-02-15 07:15:56:819,-0.766985,4.05521,-8.74944,-25.1794,-5.68243,102.535
2023-02-15 07:15:56:829,-0.762273,4.05,-8.77956,-25.1011,-5.67942,102.389
2023-02-15 07:15:56:839,-0.755835,4.02709,-8.78748,-25.0261,-5.67232,102.253
2023-02-15 07:15:56:849,-0.749173,3.99901,-8.79227,-24.9533,-5.66853,102.12
2023-02-15 07:15:56:859,-0.738373,3.98176,-8.81486,-24.8866,-5.66606,101.996
2023-02-15 07:15:56:869,-0.7733,3.96639,-8.83016,-24.8218,-5.66335,101.878
2023-02-15 07:15:56:879,-0.822253,3.94963,-8.81844,-24.7597,-5.66093,101.768
2023-02-15 07:15:56:889,-0.856472,3.97319,-8.85838,-24.7023,-5.65834,101.666
2023-02-15 07:15:56:899,-0.880466,3.99507,-8.91002,-24.642,-5.65324,101.568
2023-02-15 07:15:56:908,-0.919958,4.00053,-8.93764,-24.577,-5.64961,101.475
2023-02-15 07:15:56:918,-0.964009,3.99375,-8.93024,-24.5076,-5.64972,101.381
2023-02-15 07:15:56:928,-0.998253,3.97302,-8.934,-24.4298,-5.64688,101.288
2023-02-15 07:15:56:938,-1.01381,3.92968,-8.91958,-24.3499,-5.64355,101.193
2023-02-15 07:15:56:948,-0.986192,3.88866,-8.88542,-24.2699,-5.63237,101.093
2023-02-15 07:15:56:958,-0.919698,3.83851,-8.84325,-24.1905,-5.61827,100.987
2023-02-15 07:15:56:968,-0.86785,3.79495,-8.81873,-24.1142,-5.60597,100.876
2023-02-15 07:15:56:978,-0.819968,3.78795,-8.83072,-24.0424,-5.59183,100.77
2023-02-15 07:15:56:988,-0.772643,3.80799,-8.87525,-23.9785,-5.58051,100.66
2023-02-15 07:15:56:998,-0.752118,3.81687,-8.89903,-23.9216,-5.56983,100.549
2023-02-15 07:15:57:8,-0.72597,3.83295,-8.90556,-23.8687,-5.56002,100.437
2023-02-15 07:15:57:18,-0.669719,3.82382,-8.87576,-23.8235,-5.5539,100.33
2023-02-15 07:15:57:28,-0.634166,3.80016,-8.79671,-23.786,-5.55089,100.226
2023-02-15 07:15:57:38,-0.639667,3.81677,-8.75389,-23.7613,-5.55551,100.13
2023-02-15 07:15:57:48,-0.634852,3.86335,-8.8045,-23.7474,-5.56551,100.043
2023-02-15 07:15:57:58,-0.608923,3.87872,-8.81961,-23.7405,-5.57948,99.9609
2023-02-15 07:15:57:68,-0.598063,3.88897,-8.82221,-23.7384,-5.59706,99.8919
2023-02-15 07:15:57:78,-0.605782,3.92896,-8.85365,-23.7394,-5.61779,99.8309
2023-02-15 07:15:57:88,-0.644411,3.9474,-8.86308,-23.7401,-5.64212,99.7809
2023-02-15 07:15:57:98,-0.700998,3.96096,-8.86792,-23.74,-5.66999,99.7416
2023-02-15 07:15:57:108,-0.775745,3.96153,-8.90423,-23.7387,-5.70217,99.7168
2023-02-15 07:15:57:118,-0.838382,3.97109,-8.94972,-23.7339,-5.72931,99.6999
2023-02-15 07:15:57:128,-0.8986,3.97923,-8.97235,-23.7279,-5.75915,99.6891
2023-02-15 07:15:57:138,-0.963863,3.92568,-8.97846,-23.7174,-5.78913,99.684
2023-02-15 07:15:57:148,-1.02751,3.88109,-8.97587,-23.6964,-5.81014,99.6812
2023-02-15 07:15:57:158,-1.07657,3.84291,-8.96494,-23.6732,-5.82998,99.6782
2023-02-15 07:15:57:168,-1.08743,3.80322,-8.9445,-23.6512,-5.84423,99.6767
2023-02-15 07:15:57:178,-1.07373,3.76971,-8.93619,-23.6265,-5.85194,99.6722
2023-02-15 07:15:57:188,-1.06695,3.73078,-8.90117,-23.6038,-5.85485,99.6599
2023-02-15 07:15:57:198,-1.04997,3.68524,-8.84974,-23.5815,-5.8531,99.6406
2023-02-15 07:15:57:208,-1.04493,3.67489,-8.86168,-23.5641,-5.84259,99.6217
2023-02-15 07:15:57:218,-1.05123,3.69233,-8.90691,-23.5556,-5.83322,99.6001
2023-02-15 07:15:57:228,-1.05536,3.69441,-8.90801,-23.5489,-5.82333,99.5698
2023-02-15 07:15:57:238,-1.03368,3.64657,-8.86547,-23.5448,-5.80971,99.5319
2023-02-15 07:15:57:248,-0.960443,3.6068,-8.8386,-23.5448,-5.7941,99.4892
2023-02-15 07:15:57:258,-0.915279,3.59735,-8.81857,-23.5497,-5.78086,99.4412
2023-02-15 07:15:57:268,-0.90633,3.61167,-8.80323,-23.5707,-5.76963,99.3936
2023-02-15 07:15:57:278,-0.89586,3.64056,-8.80966,-23.5994,-5.75868,99.3395
2023-02-15 07:15:57:288,-0.901687,3.71303,-8.84088,-23.6353,-5.75152,99.2865
2023-02-15 07:15:57:298,-0.910171,3.81872,-8.89903,-23.6807,-5.74302,99.2306
2023-02-15 07:15:57:308,-0.886986,3.9211,-8.97275,-23.7276,-5.73488,99.172
2023-02-15 07:15:57:318,-0.833984,3.99904,-9.01638,-23.7716,-5.72209,99.1099
2023-02-15 07:15:57:328,-0.759886,4.02491,-9.01273,-23.8071,-5.70259,99.0442
2023-02-15 07:15:57:338,-0.721893,4.06723,-9.01659,-23.8381,-5.68846,98.9783
2023-02-15 07:15:57:348,-0.68359,4.09414,-8.96932,-23.8679,-5.6789,98.914
2023-02-15 07:15:57:358,-0.649022,4.0799,-8.88554,-23.8974,-5.68037,98.8577
2023-02-15 07:15:57:368,-0.652541,4.10254,-8.84106,-23.9299,-5.69186,98.8075
2023-02-15 07:15:57:378,-0.667103,4.12068,-8.82687,-23.9644,-5.71104,98.7649
2023-02-15 07:15:57:388,-0.70073,4.16121,-8.89117,-24.0009,-5.73981,98.7283
2023-02-15 07:15:57:398,-0.716211,4.20686,-8.9892,-24.0376,-5.77275,98.7001
2023-02-15 07:15:57:408,-0.780743,4.22452,-9.07675,-24.065,-5.81463,98.6785
2023-02-15 07:15:57:418,-0.874571,4.23351,-9.14107,-24.0787,-5.86422,98.6673
2023-02-15 07:15:57:428,-0.974873,4.17677,-9.0813,-24.0764,-5.91421,98.6622
2023-02-15 07:15:57:438,-1.07236,4.07419,-8.90633,-24.0621,-5.96773,98.659
2023-02-15 07:15:57:448,-1.11344,4.00539,-8.83146,-24.0451,-6.02048,98.6568
2023-02-15 07:15:57:458,-1.12268,3.95226,-8.80829,-24.0255,-6.06338,98.655
2023-02-15 07:15:57:468,-1.13623,3.90009,-8.81446,-24.0065,-6.10063,98.6535
2023-02-15 07:15:57:478,-1.11266,3.91315,-8.88968,-23.9895,-6.13438,98.6484
2023-02-15 07:15:57:488,-1.07674,3.91974,-8.9215,-23.971,-6.16044,98.6474
2023-02-15 07:15:57:498,-1.02702,3.8996,-8.89375,-23.9468,-6.17929,98.6434
2023-02-15 07:15:57:508,-1.00314,3.8764,-8.84876,-23.9223,-6.18292,98.6441
2023-02-15 07:15:57:518,-1.00853,3.86729,-8.81262,-23.9015,-6.18052,98.6529
2023-02-15 07:15:57:528,-1.00837,3.88521,-8.8072,-23.8819,-6.17682,98.667
2023-02-15 07:15:57:538,-1.02231,3.91357,-8.83025,-23.8662,-6.17003,98.6855
2023-02-15 07:15:57:548,-1.05374,3.93439,-8.83262,-23.8536,-6.15993,98.7057
2023-02-15 07:15:57:559,-1.07742,3.9066,-8.8061,-23.8429,-6.15297,98.7304
2023-02-15 07:15:57:568,-1.10475,3.88441,-8.80196,-23.8341,-6.1496,98.7545
2023-02-15 07:15:57:579,-1.11998,3.91196,-8.82484,-23.8291,-6.14633,98.7791
2023-02-15 07:15:57:589,-1.11488,3.93787,-8.85488,-23.8257,-6.14287,98.8035
2023-02-15 07:15:57:599,-1.09066,3.95524,-8.85993,-23.8238,-6.14117,98.8211
2023-02-15 07:15:57:609,-1.07206,3.95575,-8.86784,-23.8215,-6.14002,98.8369
2023-02-15 07:15:57:619,-1.05271,3.94872,-8.84479,-23.8223,-6.137,98.8514
2023-02-15 07:15:57:629,-1.06048,3.93955,-8.84864,-23.8224,-6.13534,98.865
2023-02-15 07:15:57:639,-1.06453,3.96226,-8.88711,-23.8227,-6.1354,98.8765
2023-02-15 07:15:57:649,-1.07387,3.96417,-8.8875,-23.8255,-6.13767,98.8848
2023-02-15 07:15:57:659,-1.1003,3.9609,-8.85304,-23.825,-6.13742,98.8912
2023-02-15 07:15:57:669,-1.12814,3.9695,-8.87957,-23.8273,-6.13902,98.8963
2023-02-15 07:15:57:679,-1.1383,3.99897,-8.9241,-23.8314,-6.13952,98.8979
2023-02-15 07:15:57:689,-1.13331,3.99294,-8.90674,-23.8301,-6.13927,98.8989
2023-02-15 07:15:57:699,-1.11795,3.94206,-8.84132,-23.8241,-6.14011,98.8959
2023-02-15 07:15:57:709,-1.08444,3.9576,-8.87599,-23.8185,-6.14011,98.8872
2023-02-15 07:15:57:719,-1.04913,3.99646,-8.96331,-23.8136,-6.13659,98.8743
2023-02-15 07:15:57:729,-1.00639,3.99489,-8.98258,-23.8051,-6.13622,98.8622
2023-02-15 07:15:57:738,-0.994566,3.97128,-8.96863,-23.7933,-6.13654,98.8497
2023-02-15 07:15:57:748,-1.00384,3.96101,-8.95809,-23.7788,-6.13818,98.8347
2023-02-15 07:15:57:759,-1.0257,3.95127,-8.9424,-23.7618,-6.14309,98.8207
2023-02-15 07:15:57:769,-1.04988,3.94362,-8.92344,-23.7473,-6.14433,98.8068
2023-02-15 07:15:57:778,-1.03999,3.93524,-8.91952,-23.7283,-6.14287,98.7906
2023-02-15 07:15:57:789,-1.01729,3.91937,-8.89874,-23.7112,-6.1393,98.7749
2023-02-15 07:15:57:799,-1.00574,3.90395,-8.88328,-23.6954,-6.13563,98.7531
2023-02-15 07:15:57:809,-0.972565,3.87706,-8.90053,-23.6782,-6.13593,98.733
2023-02-15 07:15:57:819,-0.948367,3.88456,-8.89498,-23.6607,-6.13621,98.7181
2023-02-15 07:15:57:829,-0.923326,3.86275,-8.87647,-23.6468,-6.14309,98.6975
2023-02-15 07:15:57:839,-0.930842,3.8164,-8.86634,-23.6309,-6.14917,98.6803
2023-02-15 07:15:57:849,-0.95207,3.79826,-8.84866,-23.6118,-6.15834,98.6639
2023-02-15 07:15:57:859,-0.945035,3.79733,-8.84377,-23.6022,-6.16808,98.6489
2023-02-15 07:15:57:869,-0.955603,3.8227,-8.87016,-23.5973,-6.18386,98.6342
2023-02-15 07:15:57:879,-0.99616,3.84765,-8.89649,-23.5906,-6.19667,98.6253
2023-02-15 07:15:57:889,-1.02756,3.87228,-8.90213,-23.5839,-6.2118,98.6139
2023-02-15 07:15:57:899,-1.04725,3.86833,-8.91432,-23.5809,-6.22562,98.6029
2023-02-15 07:15:57:909,-1.06031,3.85919,-8.89401,-23.5773,-6.23943,98.5919
2023-02-15 07:15:57:919,-1.05412,3.86292,-8.87852,-23.5757,-6.25086,98.5838
2023-02-15 07:15:57:929,-1.01136,3.86774,-8.87955,-23.5767,-6.25955,98.5718
2023-02-15 07:15:57:939,-0.975813,3.8605,-8.87437,-23.5791,-6.27105,98.5613
2023-02-15 07:15:57:949,-0.985835,3.85027,-8.88987,-23.5848,-6.28073,98.5522
2023-02-15 07:15:57:959,-1.01607,3.873,-8.92425,-23.5874,-6.28907,98.5467
2023-02-15 07:15:57:969,-1.03764,3.8954,-8.92909,-23.5948,-6.29739,98.5451
2023-02-15 07:15:57:979,-1.04886,3.88947,-8.91806,-23.5989,-6.2982,98.5445
2023-02-15 07:15:57:988,-1.05451,3.88284,-8.91505,-23.6004,-6.29578,98.5445
2023-02-15 07:15:57:998,-1.06994,3.89002,-8.91768,-23.6016,-6.29486,98.5437
2023-02-15 07:15:58:8,-1.09748,3.89401,-8.91969,-23.6008,-6.2892,98.5432
2023-02-15 07:15:58:18,-1.10685,3.89734,-8.93389,-23.5997,-6.28282,98.5381
2023-02-15 07:15:58:28,-1.10018,3.89976,-8.93284,-23.595,-6.27722,98.5339
2023-02-15 07:15:58:39,-1.06999,3.89739,-8.92989,-23.5894,-6.2701,98.5249
2023-02-15 07:15:58:49,-1.03439,3.88236,-8.93644,-23.5843,-6.26054,98.5164
2023-02-15 07:15:58:59,-0.985654,3.85536,-8.91604,-23.5756,-6.25212,98.5017
2023-02-15 07:15:58:69,-0.947728,3.85623,-8.90913,-23.5704,-6.24631,98.4874
2023-02-15 07:15:58:79,-0.933197,3.85557,-8.91261,-23.5657,-6.24429,98.4726
2023-02-15 07:15:58:89,-0.935102,3.84704,-8.9058,-23.5616,-6.24567,98.461
2023-02-15 07:15:58:99,-0.936472,3.83849,-8.90193,-23.5613,-6.24905,98.4528
2023-02-15 07:15:58:109,-0.942371,3.83958,-8.91632,-23.5574,-6.24797,98.4431
2023-02-15 07:15:58:119,-0.955129,3.86098,-8.92718,-23.5567,-6.24805,98.4328
2023-02-15 07:15:58:129,-0.976256,3.86866,-8.9175,-23.5551,-6.24912,98.4235
2023-02-15 07:15:58:139,-0.976556,3.87797,-8.90553,-23.5504,-6.24901,98.4157
2023-02-15 07:15:58:149,-0.96676,3.88313,-8.90322,-23.55,-6.25306,98.4084
2023-02-15 07:15:58:159,-0.99102,3.87991,-8.91358,-23.549,-6.25827,98.4019
2023-02-15 07:15:58:169,-1.00403,3.89477,-8.90874,-23.5502,-6.26789,98.3959
2023-02-15 07:15:58:179,-1.00906,3.90085,-8.90929,-23.5548,-6.27338,98.3922
2023-02-15 07:15:58:189,-0.998529,3.91343,-8.93226,-23.5585,-6.28158,98.3877
2023-02-15 07:15:58:199,-0.99827,3.92595,-8.94158,-23.5613,-6.28969,98.3872
2023-02-15 07:15:58:209,-1.00074,3.91507,-8.9372,-23.5581,-6.29858,98.3897
2023-02-15 07:15:58:219,-0.973287,3.91294,-8.93513,-23.5561,-6.30652,98.3869
2023-02-15 07:15:58:229,-0.983041,3.90454,-8.92281,-23.5558,-6.31336,98.3853
2023-02-15 07:15:58:239,-0.999097,3.92634,-8.91138,-23.5537,-6.31851,98.3862
2023-02-15 07:15:58:249,-1.04651,3.9274,-8.92745,-23.549,-6.32708,98.3877
2023-02-15 07:15:58:259,-1.09014,3.93637,-8.93564,-23.5422,-6.33677,98.3908
2023-02-15 07:15:58:269,-1.10339,3.93913,-8.94176,-23.5332,-6.34958,98.3947
2023-02-15 07:15:58:279,-1.09888,3.93979,-8.9294,-23.5243,-6.3617,98.3949
2023-02-15 07:15:58:289,-1.10737,3.91925,-8.93043,-23.5138,-6.36739,98.3933
2023-02-15 07:15:58:299,-1.10467,3.89848,-8.93189,-23.5,-6.37622,98.391
2023-02-15 07:15:58:309,-1.08139,3.88329,-8.91697,-23.4837,-6.38651,98.3832
2023-02-15 07:15:58:319,-1.06393,3.85451,-8.89793,-23.4698,-6.39704,98.3743
2023-02-15 07:15:58:329,-1.05399,3.83932,-8.89228,-23.4526,-6.40374,98.3623
2023-02-15 07:15:58:339,-1.02379,3.82259,-8.87936,-23.4394,-6.41093,98.3541
2023-02-15 07:15:58:349,-0.98683,3.81419,-8.86988,-23.4297,-6.41722,98.3425
2023-02-15 07:15:58:359,-0.995598,3.81152,-8.88276,-23.4235,-6.42532,98.3329
2023-02-15 07:15:58:369,-1.01799,3.83527,-8.90042,-23.4182,-6.43507,98.327
2023-02-15 07:15:58:379,-1.04285,3.84668,-8.91434,-23.418,-6.44559,98.319
2023-02-15 07:15:58:389,-1.07421,3.84072,-8.92786,-23.412,-6.45537,98.3128
2023-02-15 07:15:58:399,-1.06986,3.83571,-8.94395,-23.4062,-6.46067,98.3086
2023-02-15 07:15:58:409,-1.05508,3.82634,-8.9641,-23.3981,-6.46321,98.3073
2023-02-15 07:15:58:419,-1.04727,3.81464,-8.953,-23.3854,-6.47028,98.3046
2023-02-15 07:15:58:429,-1.05718,3.82119,-8.91496,-23.3747,-6.47896,98.3045
2023-02-15 07:15:58:439,-1.06356,3.80816,-8.89754,-23.3637,-6.48997,98.3064
2023-02-15 07:15:58:449,-1.0479,3.79169,-8.91523,-23.3568,-6.50003,98.3093
2023-02-15 07:15:58:459,-1.05826,3.81096,-8.95182,-23.3497,-6.51207,98.3116
2023-02-15 07:15:58:469,-1.05736,3.82195,-8.96097,-23.342,-6.52247,98.3142
2023-02-15 07:15:58:479,-1.05965,3.80505,-8.95916,-23.3345,-6.53511,98.3167
2023-02-15 07:15:58:489,-1.10036,3.79816,-8.93476,-23.323,-6.54869,98.3199
2023-02-15 07:15:58:499,-1.11143,3.77819,-8.92546,-23.3139,-6.56424,98.3253
2023-02-15 07:15:58:509,-1.13341,3.7697,-8.89167,-23.3104,-6.58182,98.3294
2023-02-15 07:15:58:519,-1.15969,3.77133,-8.8556,-23.308,-6.59343,98.336
2023-02-15 07:15:58:529,-1.13731,3.76702,-8.84398,-23.3088,-6.60296,98.3454
2023-02-15 07:15:58:539,-1.12568,3.78999,-8.83967,-23.3135,-6.61062,98.3529
2023-02-15 07:15:58:549,-1.1111,3.80388,-8.84752,-23.3226,-6.61859,98.3556
2023-02-15 07:15:58:559,-1.10331,3.8163,-8.84871,-23.333,-6.62402,98.3634
2023-02-15 07:15:58:569,-1.10344,3.8352,-8.87218,-23.3462,-6.62907,98.3695
2023-02-15 07:15:58:579,-1.10402,3.85049,-8.90731,-23.3581,-6.63617,98.3733
2023-02-15 07:15:58:589,-1.11552,3.87065,-8.93245,-23.372,-6.64363,98.3755
2023-02-15 07:15:58:599,-1.10972,3.88299,-8.95335,-23.3827,-6.64992,98.3773
2023-02-15 07:15:58:609,-1.09052,3.87998,-8.95986,-23.3918,-6.65331,98.379
2023-02-15 07:15:58:619,-1.08734,3.87084,-8.96155,-23.3957,-6.65851,98.38
2023-02-15 07:15:58:629,-1.08354,3.87151,-8.94626,-23.3962,-6.66324,98.3823
2023-02-15 07:15:58:639,-1.07359,3.8573,-8.91821,-23.3984,-6.66649,98.3832
2023-02-15 07:15:58:649,-1.07344,3.85658,-8.89857,-23.4041,-6.67526,98.3888
2023-02-15 07:15:58:659,-1.0798,3.8514,-8.91536,-23.4149,-6.68188,98.3964
2023-02-15 07:15:58:669,-1.07679,3.85215,-8.92083,-23.4229,-6.68605,98.3989
2023-02-15 07:15:58:679,-1.07381,3.8791,-8.91994,-23.4273,-6.68838,98.4018
2023-02-15 07:15:58:689,-1.08487,3.89172,-8.92525,-23.4334,-6.69243,98.4083
2023-02-15 07:15:58:699,-1.10602,3.90429,-8.93646,-23.4395,-6.69989,98.4151
2023-02-15 07:15:58:709,-1.13066,3.91224,-8.94378,-23.4453,-6.70842,98.421
2023-02-15 07:15:58:719,-1.12454,3.89145,-8.9168,-23.4472,-6.71581,98.4265
2023-02-15 07:15:58:729,-1.11041,3.87781,-8.89886,-23.4467,-6.72242,98.4297
2023-02-15 07:15:58:739,-1.11671,3.87777,-8.89206,-23.4437,-6.73446,98.4319
2023-02-15 07:15:58:749,-1.15753,3.87337,-8.90021,-23.4442,-6.74975,98.4351
2023-02-15 07:15:58:759,-1.16853,3.86522,-8.90566,-23.4441,-6.76928,98.4347
2023-02-15 07:15:58:769,-1.18378,3.84718,-8.89486,-23.4464,-6.78704,98.4354
2023-02-15 07:15:58:779,-1.17552,3.85006,-8.89561,-23.4492,-6.79935,98.4351
2023-02-15 07:15:58:789,-1.14083,3.85946,-8.91663,-23.4548,-6.8077,98.4339
2023-02-15 07:15:58:799,-1.13025,3.87175,-8.93352,-23.4641,-6.80847,98.4321
2023-02-15 07:15:58:809,-1.12031,3.89075,-8.9441,-23.4682,-6.80841,98.4292
2023-02-15 07:15:58:819,-1.09552,3.88958,-8.94249,-23.4722,-6.80951,98.4281
2023-02-15 07:15:58:829,-1.08651,3.88967,-8.93041,-23.4693,-6.81443,98.4279
2023-02-15 07:15:58:839,-1.10019,3.86725,-8.896,-23.4681,-6.81855,98.4287
2023-02-15 07:15:58:849,-1.11745,3.8547,-8.88009,-23.4677,-6.83035,98.4299
2023-02-15 07:15:58:859,-1.13045,3.83609,-8.87028,-23.4655,-6.84033,98.4295
2023-02-15 07:15:58:869,-1.16003,3.81931,-8.8608,-23.4634,-6.85217,98.4275
2023-02-15 07:15:58:879,-1.18131,3.82642,-8.88269,-23.4592,-6.86462,98.4245
2023-02-15 07:15:58:889,-1.1814,3.84295,-8.9132,-23.4591,-6.87853,98.4213
2023-02-15 07:15:58:899,-1.17275,3.85234,-8.94329,-23.4577,-6.89117,98.415
2023-02-15 07:15:58:909,-1.16043,3.83195,-8.93706,-23.456,-6.90291,98.4115
2023-02-15 07:15:58:919,-1.14158,3.81152,-8.91646,-23.4538,-6.90844,98.4072
2023-02-15 07:15:58:929,-1.14488,3.81643,-8.89154,-23.4533,-6.91916,98.4021
2023-02-15 07:15:58:939,-1.15174,3.82052,-8.88118,-23.4552,-6.93059,98.3981
2023-02-15 07:15:58:949,-1.14046,3.83588,-8.8649,-23.4606,-6.94055,98.3953
2023-02-15 07:15:58:959,-1.15792,3.83984,-8.8507,-23.4653,-6.95334,98.3931
2023-02-15 07:15:58:969,-1.17866,3.85595,-8.86947,-23.4743,-6.96936,98.3911
2023-02-15 07:15:58:979,-1.19672,3.87114,-8.88445,-23.4848,-6.98328,98.3913
2023-02-15 07:15:58:989,-1.20185,3.87623,-8.90033,-23.4955,-6.99595,98.3906
2023-02-15 07:15:58:999,-1.19188,3.89309,-8.91854,-23.5067,-7.00394,98.3861
2023-02-15 07:15:59:9,-1.19472,3.90323,-8.92448,-23.5151,-7.01549,98.3821
2023-02-15 07:15:59:19,-1.17766,3.88844,-8.9026,-23.5216,-7.02104,98.3795
2023-02-15 07:15:59:29,-1.15761,3.90162,-8.92151,-23.5265,-7.02528,98.375
2023-02-15 07:15:59:39,-1.15472,3.9121,-8.94578,-23.53,-7.03111,98.3666
2023-02-15 07:15:59:49,-1.1382,3.90785,-8.94512,-23.5309,-7.03574,98.364
2023-02-15 07:15:59:59,-1.13378,3.90222,-8.91803,-23.527,-7.04759,98.3582
2023-02-15 07:15:59:69,-1.15766,3.88819,-8.90594,-23.524,-7.0588,98.3524
2023-02-15 07:15:59:79,-1.16004,3.86339,-8.87795,-23.5215,-7.07453,98.3475
2023-02-15 07:15:59:89,-1.164,3.85127,-8.8591,-23.5205,-7.08604,98.3452
2023-02-15 07:15:59:99,-1.18981,3.84515,-8.85175,-23.521,-7.09902,98.3435
2023-02-15 07:15:59:109,-1.20028,3.84996,-8.86018,-23.526,-7.11643,98.3439
2023-02-15 07:15:59:119,-1.18606,3.86382,-8.87241,-23.5292,-7.13209,98.3391
2023-02-15 07:15:59:129,-1.19144,3.86737,-8.91125,-23.5327,-7.14485,98.3364
2023-02-15 07:15:59:139,-1.19618,3.88832,-8.94945,-23.5387,-7.15891,98.3326
2023-02-15 07:15:59:149,-1.19654,3.89603,-8.93666,-23.5406,-7.1749,98.3274
2023-02-15 07:15:59:159,-1.20215,3.87856,-8.89334,-23.5432,-7.18845,98.3243
2023-02-15 07:15:59:169,-1.2035,3.86318,-8.893,-23.5404,-7.20002,98.3212
2023-02-15 07:15:59:179,-1.21639,3.88121,-8.90318,-23.5396,-7.21211,98.3183
2023-02-15 07:15:59:189,-1.22255,3.88827,-8.88084,-23.5338,-7.22666,98.3136
2023-02-15 07:15:59:199,-1.22111,3.8619,-8.8502,-23.5343,-7.24121,98.3126
2023-02-15 07:15:59:209,-1.203,3.85256,-8.85521,-23.5345,-7.25476,98.3077
2023-02-15 07:15:59:219,-1.21592,3.85732,-8.90266,-23.534,-7.27094,98.3054
2023-02-15 07:15:59:229,-1.23678,3.85163,-8.912,-23.5359,-7.2871,98.3041
2023-02-15 07:15:59:239,-1.22663,3.83658,-8.88954,-23.5376,-7.30089,98.3005
2023-02-15 07:15:59:249,-1.22983,3.84063,-8.8828,-23.5429,-7.31611,98.2984
2023-02-15 07:15:59:259,-1.24623,3.86853,-8.91352,-23.5495,-7.33363,98.3012
2023-02-15 07:15:59:269,-1.24867,3.88375,-8.91528,-23.5562,-7.35082,98.2991
2023-02-15 07:15:59:279,-1.25167,3.88301,-8.90753,-23.5611,-7.36467,98.2989
2023-02-15 07:15:59:289,-1.23944,3.89811,-8.88396,-23.5662,-7.37315,98.3031
2023-02-15 07:15:59:299,-1.21998,3.90781,-8.85426,-23.5742,-7.38599,98.3094
2023-02-15 07:15:59:309,-1.22237,3.89653,-8.83957,-23.5801,-7.39908,98.3144
2023-02-15 07:15:59:319,-1.21831,3.90747,-8.83456,-23.586,-7.40728,98.3194
2023-02-15 07:15:59:329,-1.2282,3.9056,-8.85855,-23.5947,-7.4167,98.3248
2023-02-15 07:15:59:339,-1.23937,3.90649,-8.87784,-23.5975,-7.42582,98.3338
2023-02-15 07:15:59:349,-1.25537,3.90609,-8.87726,-23.5996,-7.43554,98.3415
2023-02-15 07:15:59:359,-1.24366,3.89178,-8.86277,-23.6035,-7.4389,98.3504
2023-02-15 07:15:59:369,-1.25314,3.88098,-8.85841,-23.6048,-7.44518,98.3581
2023-02-15 07:15:59:379,-1.22799,3.88248,-8.87223,-23.6092,-7.45015,98.3642
2023-02-15 07:15:59:389,-1.22754,3.8889,-8.89304,-23.6129,-7.45448,98.3713
2023-02-15 07:15:59:399,-1.22879,3.89637,-8.89168,-23.6183,-7.46149,98.3812
2023-02-15 07:15:59:409,-1.21153,3.89739,-8.88505,-23.6224,-7.46705,98.3902
2023-02-15 07:15:59:419,-1.18217,3.89216,-8.88866,-23.6299,-7.47056,98.3986
2023-02-15 07:15:59:429,-1.17433,3.90107,-8.88644,-23.6365,-7.4739,98.4112
2023-02-15 07:15:59:439,-1.19014,3.91651,-8.89049,-23.6443,-7.47732,98.4238
2023-02-15 07:15:59:449,-1.20562,3.91292,-8.87765,-23.6514,-7.47962,98.4398
2023-02-15 07:15:59:459,-1.23912,3.93933,-8.88198,-23.6582,-7.48074,98.4584
2023-02-15 07:15:59:469,-1.27029,3.94531,-8.89442,-23.6633,-7.48539,98.4745
2023-02-15 07:15:59:479,-1.26986,3.91785,-8.85898,-23.6631,-7.48713,98.4893
2023-02-15 07:15:59:489,-1.25663,3.90184,-8.8351,-23.661,-7.48664,98.5035
2023-02-15 07:15:59:499,-1.27418,3.89237,-8.85565,-23.6587,-7.48957,98.5121
2023-02-15 07:15:59:509,-1.30064,3.89663,-8.87479,-23.6603,-7.49678,98.5217
2023-02-15 07:15:59:519,-1.29785,3.90765,-8.89102,-23.6606,-7.49906,98.5274
2023-02-15 07:15:59:529,-1.29159,3.90102,-8.88716,-23.6603,-7.50187,98.5327
2023-02-15 07:15:59:539,-1.26114,3.9015,-8.89024,-23.6603,-7.49961,98.5354
2023-02-15 07:15:59:549,-1.24801,3.92304,-8.90339,-23.6608,-7.4962,98.5382
2023-02-15 07:15:59:559,-1.23871,3.92294,-8.91794,-23.6634,-7.48757,98.5389
2023-02-15 07:15:59:569,-1.24198,3.91715,-8.90886,-23.6625,-7.4814,98.5414
2023-02-15 07:15:59:579,-1.24808,3.91419,-8.88703,-23.6623,-7.47511,98.5456
2023-02-15 07:15:59:589,-1.25413,3.89965,-8.87983,-23.6579,-7.46718,98.547
2023-02-15 07:15:59:599,-1.25131,3.88145,-8.84959,-23.6548,-7.45726,98.55
2023-02-15 07:15:59:609,-1.24051,3.8471,-8.8337,-23.6507,-7.44788,98.5481
2023-02-15 07:15:59:619,-1.23388,3.84948,-8.83751,-23.6505,-7.44241,98.5443
2023-02-15 07:15:59:629,-1.22493,3.8562,-8.84007,-23.6489,-7.4376,98.5383
2023-02-15 07:15:59:639,-1.22489,3.85284,-8.85889,-23.6494,-7.43299,98.5385
2023-02-15 07:15:59:649,-1.19833,3.86925,-8.87426,-23.6513,-7.43015,98.5334
2023-02-15 07:15:59:659,-1.17645,3.8653,-8.89979,-23.6542,-7.428,98.5282
2023-02-15 07:15:59:669,-1.15785,3.87775,-8.91831,-23.6564,-7.42686,98.5262
2023-02-15 07:15:59:679,-1.15272,3.88749,-8.92441,-23.6631,-7.42265,98.5278
2023-02-15 07:15:59:689,-1.18014,3.89863,-8.91322,-23.665,-7.42181,98.5335
2023-02-15 07:15:59:699,-1.20823,3.88621,-8.91571,-23.6634,-7.42045,98.5343
2023-02-15 07:15:59:709,-1.24123,3.90392,-8.88334,-23.6628,-7.41727,98.5419
2023-02-15 07:15:59:719,-1.25253,3.89864,-8.8707,-23.6619,-7.41331,98.5487
2023-02-15 07:15:59:729,-1.26332,3.89419,-8.87624,-23.6614,-7.40489,98.5553
2023-02-15 07:15:59:739,-1.25876,3.89078,-8.87076,-23.6591,-7.40079,98.5632
2023-02-15 07:15:59:749,-1.26435,3.89815,-8.87106,-23.658,-7.39433,98.5666
2023-02-15 07:15:59:759,-1.26944,3.90523,-8.8786,-23.6563,-7.3902,98.5664
2023-02-15 07:15:59:769,-1.2639,3.89546,-8.88769,-23.6528,-7.38267,98.5676
2023-02-15 07:15:59:779,-1.23269,3.89869,-8.89639,-23.6517,-7.37478,98.5684
2023-02-15 07:15:59:789,-1.21013,3.8973,-8.88128,-23.6493,-7.36574,98.5659
2023-02-15 07:15:59:799,-1.19904,3.88246,-8.87223,-23.6494,-7.35746,98.5623
2023-02-15 07:15:59:809,-1.19839,3.88424,-8.86982,-23.648,-7.35136,98.56
2023-02-15 07:15:59:819,-1.20414,3.89,-8.88203,-23.6479,-7.3443,98.5594
2023-02-15 07:15:59:829,-1.19001,3.88949,-8.89663,-23.6483,-7.33847,98.555
2023-02-15 07:15:59:839,-1.17507,3.88439,-8.90447,-23.647,-7.33417,98.5516
2023-02-15 07:15:59:849,-1.19538,3.91201,-8.91908,-23.6463,-7.32832,98.5488
2023-02-15 07:15:59:859,-1.20722,3.92947,-8.92919,-23.6412,-7.32116,98.5453
2023-02-15 07:15:59:869,-1.20958,3.91267,-8.93582,-23.6345,-7.31765,98.538
2023-02-15 07:15:59:879,-1.22199,3.89683,-8.92993,-23.6242,-7.31249,98.5318
2023-02-15 07:15:59:889,-1.2127,3.86455,-8.89667,-23.61,-7.31101,98.5273
2023-02-15 07:15:59:899,-1.18844,3.82945,-8.85382,-23.5966,-7.31439,98.521
2023-02-15 07:15:59:909,-1.17326,3.82468,-8.86101,-23.5851,-7.31432,98.5166
2023-02-15 07:15:59:919,-1.1661,3.81564,-8.84781,-23.5776,-7.31639,98.5108
2023-02-15 07:15:59:929,-1.16382,3.78874,-8.84372,-23.5693,-7.31436,98.5064
2023-02-15 07:15:59:939,-1.16115,3.78431,-8.8572,-23.5625,-7.31274,98.5002
2023-02-15 07:15:59:949,-1.16864,3.79702,-8.91229,-23.5568,-7.31473,98.4979
2023-02-15 07:15:59:959,-1.18384,3.84289,-8.96228,-23.5528,-7.31464,98.4952
2023-02-15 07:15:59:969,-1.18821,3.85973,-8.96159,-23.5528,-7.3143,98.4968
2023-02-15 07:15:59:979,-1.1978,3.85134,-8.91599,-23.5504,-7.31628,98.5002
2023-02-15 07:15:59:989,-1.22908,3.84932,-8.89585,-23.5483,-7.3183,98.5071
2023-02-15 07:15:59:999,-1.26898,3.87252,-8.8988,-23.5498,-7.32513,98.5144
2023-02-15 07:16:00:9,-1.29479,3.89454,-8.90084,-23.5527,-7.32894,98.5201
2023-02-15 07:16:00:19,-1.28866,3.8982,-8.87421,-23.5557,-7.33116,98.5299
2023-02-15 07:16:00:29,-1.2606,3.88709,-8.85076,-23.5577,-7.3303,98.5324
2023-02-15 07:16:00:39,-1.23256,3.906,-8.83856,-23.5596,-7.32674,98.5312
2023-02-15 07:16:00:49,-1.21058,3.9095,-8.84355,-23.561,-7.32681,98.5283
2023-02-15 07:16:00:59,-1.21849,3.90567,-8.85083,-23.5616,-7.32587,98.5271
2023-02-15 07:16:00:69,-1.23701,3.8941,-8.8634,-23.5607,-7.32391,98.5242
2023-02-15 07:16:00:79,-1.23627,3.89742,-8.85815,-23.5583,-7.32347,98.5225
2023-02-15 07:16:00:89,-1.23849,3.90899,-8.86598,-23.5569,-7.32299,98.5211
2023-02-15 07:16:00:99,-1.24431,3.93572,-8.90323,-23.5537,-7.32014,98.5171
2023-02-15 07:16:00:109,-1.25526,3.94368,-8.94056,-23.548,-7.31733,98.5102
2023-02-15 07:16:00:119,-1.22719,3.9282,-8.93259,-23.5383,-7.31467,98.504
2023-02-15 07:16:00:129,-1.18554,3.91347,-8.90153,-23.5283,-7.30716,98.4955
2023-02-15 07:16:00:139,-1.1802,3.89971,-8.88797,-23.5174,-7.30092,98.4902
2023-02-15 07:16:00:149,-1.17851,3.87697,-8.88454,-23.5099,-7.29501,98.4839
2023-02-15 07:16:00:159,-1.17504,3.86279,-8.87299,-23.504,-7.2871,98.4819
2023-02-15 07:16:00:169,-1.15703,3.85287,-8.85024,-23.4998,-7.28203,98.4802
2023-02-15 07:16:00:179,-1.1668,3.84147,-8.82102,-23.4998,-7.27521,98.4759
2023-02-15 07:16:00:189,-1.18016,3.8345,-8.82888,-23.4997,-7.26885,98.471
2023-02-15 07:16:00:199,-1.17981,3.84784,-8.8671,-23.5027,-7.26561,98.4665
2023-02-15 07:16:00:209,-1.14806,3.85879,-8.87259,-23.5065,-7.26406,98.462
2023-02-15 07:16:00:219,-1.10351,3.85291,-8.88975,-23.5109,-7.26091,98.4587
2023-02-15 07:16:00:229,-1.1093,3.87025,-8.91688,-23.5139,-7.26273,98.4564
2023-02-15 07:16:00:239,-1.16059,3.87226,-8.92375,-23.5181,-7.27148,98.4556
2023-02-15 07:16:00:249,-1.19428,3.87492,-8.90993,-23.5195,-7.28209,98.4561
2023-02-15 07:16:00:259,-1.21996,3.87294,-8.91526,-23.5223,-7.28817,98.4587
2023-02-15 07:16:00:269,-1.21473,3.87642,-8.92247,-23.5237,-7.29271,98.4626
2023-02-15 07:16:00:279,-1.20123,3.8869,-8.93548,-23.5256,-7.29075,98.4627
2023-02-15 07:16:00:289,-1.19255,3.9065,-8.94217,-23.5249,-7.28885,98.462
2023-02-15 07:16:00:299,-1.18218,3.89819,-8.93899,-23.5257,-7.28952,98.4624
2023-02-15 07:16:00:309,-1.19603,3.88115,-8.92269,-23.5198,-7.29028,98.4673
2023-02-15 07:16:00:319,-1.20561,3.86727,-8.90369,-23.5138,-7.29556,98.4704
2023-02-15 07:16:00:329,-1.21154,3.84608,-8.88518,-23.5095,-7.29979,98.4732
2023-02-15 07:16:00:339,-1.22932,3.82034,-8.86482,-23.5034,-7.30228,98.474
2023-02-15 07:16:00:349,-1.21917,3.80181,-8.85623,-23.4981,-7.30583,98.4734
2023-02-15 07:16:00:359,-1.22787,3.80728,-8.85195,-23.4955,-7.31365,98.4725
2023-02-15 07:16:00:369,-1.22533,3.80699,-8.86942,-23.4942,-7.3164,98.4731
2023-02-15 07:16:00:379,-1.22349,3.82212,-8.87837,-23.4941,-7.32147,98.4741
2023-02-15 07:16:00:389,-1.20539,3.83091,-8.89293,-23.4951,-7.32605,98.4736
2023-02-15 07:16:00:399,-1.20457,3.82915,-8.90299,-23.4974,-7.32743,98.4724
2023-02-15 07:16:00:409,-1.22698,3.84916,-8.90521,-23.5013,-7.33206,98.4715
2023-02-15 07:16:00:419,-1.23737,3.85358,-8.91389,-23.5041,-7.33867,98.473
2023-02-15 07:16:00:429,-1.22824,3.86541,-8.90837,-23.5074,-7.3435,98.4715
2023-02-15 07:16:00:439,-1.22742,3.85349,-8.89492,-23.5115,-7.3445,98.4725
2023-02-15 07:16:00:449,-1.23795,3.84818,-8.86597,-23.5107,-7.34903,98.4728
2023-02-15 07:16:00:459,-1.24929,3.86439,-8.86253,-23.5114,-7.35395,98.4779
2023-02-15 07:16:00:469,-1.26112,3.86922,-8.86024,-23.5163,-7.35208,98.4803
2023-02-15 07:16:00:479,-1.26653,3.85387,-8.85393,-23.5195,-7.35375,98.486
2023-02-15 07:16:00:489,-1.27801,3.86953,-8.88125,-23.5234,-7.3546,98.4863
2023-02-15 07:16:00:499,-1.28199,3.89739,-8.9177,-23.5255,-7.35375,98.4888
2023-02-15 07:16:00:509,-1.28614,3.89806,-8.92334,-23.5252,-7.34812,98.4866
2023-02-15 07:16:00:519,-1.28743,3.90241,-8.93139,-23.5236,-7.34514,98.4856
2023-02-15 07:16:00:529,-1.24185,3.91225,-8.91552,-23.5207,-7.34099,98.4804
2023-02-15 07:16:00:539,-1.20432,3.90458,-8.90434,-23.5195,-7.33487,98.474
2023-02-15 07:16:00:549,-1.21684,3.8921,-8.89985,-23.5168,-7.33296,98.4687
2023-02-15 07:16:00:559,-1.20134,3.88135,-8.90223,-23.5142,-7.33401,98.4646
2023-02-15 07:16:00:569,-1.20077,3.88492,-8.89617,-23.5053,-7.33588,98.4559
2023-02-15 07:16:00:579,-1.17981,3.87869,-8.87387,-23.5002,-7.33743,98.4535
2023-02-15 07:16:00:589,-1.1775,3.86964,-8.86289,-23.4973,-7.33758,98.4463
2023-02-15 07:16:00:599,-1.18845,3.87559,-8.87011,-23.493,-7.33804,98.4425
2023-02-15 07:16:00:609,-1.1905,3.87497,-8.88779,-23.4895,-7.33667,98.4398
2023-02-15 07:16:00:619,-1.20259,3.88865,-8.91199,-23.4867,-7.33331,98.4376
2023-02-15 07:16:00:629,-1.21674,3.89017,-8.92159,-23.4842,-7.32956,98.4362
2023-02-15 07:16:00:639,-1.21017,3.90451,-8.9227,-23.4804,-7.32243,98.4366
2023-02-15 07:16:00:649,-1.20891,3.89334,-8.91512,-23.4752,-7.32026,98.4382
2023-02-15 07:16:00:659,-1.19857,3.88899,-8.89986,-23.4679,-7.31835,98.4401
2023-02-15 07:16:00:669,-1.21488,3.87551,-8.88851,-23.4582,-7.32027,98.4408
2023-02-15 07:16:00:679,-1.19659,3.8478,-8.87525,-23.4482,-7.32568,98.4398
2023-02-15 07:16:00:689,-1.19406,3.83751,-8.89981,-23.4362,-7.32677,98.4346
2023-02-15 07:16:00:699,-1.19323,3.84438,-8.94515,-23.4304,-7.33176,98.4301
2023-02-15 07:16:00:709,-1.17737,3.83223,-8.93154,-23.4201,-7.33745,98.4296
2023-02-15 07:16:00:719,-1.17912,3.81599,-8.91041,-23.4095,-7.34286,98.4254
2023-02-15 07:16:00:729,-1.20808,3.81582,-8.89978,-23.401,-7.35624,98.4257
2023-02-15 07:16:00:739,-1.19464,3.82108,-8.88356,-23.3963,-7.3646,98.4277
2023-02-15 07:16:00:749,-1.19688,3.81077,-8.87918,-23.394,-7.37336,98.4345
2023-02-15 07:16:00:759,-1.21452,3.83519,-8.87359,-23.3951,-7.38195,98.4376
2023-02-15 07:16:00:769,-1.22256,3.84728,-8.88502,-23.4,-7.39101,98.449
2023-02-15 07:16:00:779,-1.24169,3.86149,-8.88124,-23.4037,-7.39381,98.4578
2023-02-15 07:16:00:789,-1.25293,3.86811,-8.87441,-23.4075,-7.39564,98.4688
2023-02-15 07:16:00:799,-1.27698,3.88149,-8.88332,-23.412,-7.39705,98.4756
2023-02-15 07:16:00:809,-1.29135,3.88288,-8.89023,-23.4143,-7.39753,98.4831
2023-02-15 07:16:00:819,-1.30689,3.871,-8.88044,-23.4132,-7.40028,98.4921
2023-02-15 07:16:00:829,-1.29329,3.85069,-8.87422,-23.4115,-7.40245,98.4923
2023-02-15 07:16:00:839,-1.26449,3.83861,-8.88404,-23.4075,-7.3993,98.49
2023-02-15 07:16:00:849,-1.25267,3.84675,-8.889,-23.4045,-7.39866,98.4879
2023-02-15 07:16:00:859,-1.23227,3.84536,-8.90462,-23.4023,-7.39423,98.4857
2023-02-15 07:16:00:869,-1.20624,3.84137,-8.92362,-23.4022,-7.39096,98.4788
2023-02-15 07:16:00:879,-1.18332,3.83558,-8.90719,-23.3978,-7.38786,98.4768
2023-02-15 07:16:00:889,-1.1712,3.81605,-8.88247,-23.3929,-7.38815,98.4716
2023-02-15 07:16:00:899,-1.18148,3.81887,-8.90056,-23.3968,-7.38603,98.4676
2023-02-15 07:16:00:909,-1.1827,3.83508,-8.89843,-23.4019,-7.38228,98.4677
2023-02-15 07:16:00:919,-1.18548,3.846,-8.88596,-23.4052,-7.38012,98.4651
2023-02-15 07:16:00:929,-1.20485,3.84109,-8.88809,-23.4061,-7.37906,98.4659
2023-02-15 07:16:00:939,-1.22664,3.87117,-8.91528,-23.4123,-7.37583,98.4622
2023-02-15 07:16:00:949,-1.23568,3.89323,-8.93437,-23.4158,-7.37439,98.4649
2023-02-15 07:16:00:959,-1.19738,3.86897,-8.93092,-23.4129,-7.37113,98.4623
2023-02-15 07:16:00:969,-1.15376,3.85201,-8.92008,-23.411,-7.36442,98.4577
2023-02-15 07:16:00:979,-1.15999,3.84035,-8.92361,-23.4074,-7.36331,98.4574
2023-02-15 07:16:00:989,-1.18158,3.8128,-8.90791,-23.4022,-7.3644,98.4551
2023-02-15 07:16:00:999,-1.18156,3.80638,-8.88881,-23.3968,-7.3666,98.4533
2023-02-15 07:16:01:9,-1.18846,3.82075,-8.89627,-23.3927,-7.36756,98.449
2023-02-15 07:16:01:19,-1.20298,3.84119,-8.89549,-23.3915,-7.36822,98.4478
2023-02-15 07:16:01:29,-1.20216,3.85394,-8.90506,-23.3945,-7.36972,98.449
2023-02-15 07:16:01:39,-1.19289,3.86573,-8.92502,-23.3986,-7.3705,98.4486
2023-02-15 07:16:01:49,-1.19698,3.87849,-8.93437,-23.4026,-7.37503,98.4502
2023-02-15 07:16:01:59,-1.18235,3.87096,-8.91948,-23.4041,-7.38216,98.4512
2023-02-15 07:16:01:69,-1.21521,3.85324,-8.88604,-23.4049,-7.38911,98.4477
2023-02-15 07:16:01:79,-1.23179,3.84695,-8.8601,-23.4061,-7.39909,98.4459
2023-02-15 07:16:01:89,-1.24179,3.84384,-8.87759,-23.405,-7.4083,98.4396
2023-02-15 07:16:01:99,-1.27727,3.84889,-8.88602,-23.4091,-7.42196,98.4323
2023-02-15 07:16:01:109,-1.29543,3.84325,-8.88831,-23.4102,-7.4322,98.4267
2023-02-15 07:16:01:119,-1.2874,3.85661,-8.91281,-23.412,-7.44574,98.4179
2023-02-15 07:16:01:129,-1.27389,3.87114,-8.93234,-23.4132,-7.45998,98.4063
2023-02-15 07:16:01:139,-1.28423,3.87077,-8.92745,-23.4131,-7.47242,98.3932
2023-02-15 07:16:01:149,-1.30586,3.87496,-8.90313,-23.4094,-7.48573,98.3766
2023-02-15 07:16:01:159,-1.26699,3.865,-8.90877,-23.4066,-7.50343,98.3548
2023-02-15 07:16:01:169,-1.23217,3.85808,-8.91332,-23.4022,-7.52203,98.3305
2023-02-15 07:16:01:179,-1.26079,3.85058,-8.88677,-23.3993,-7.53883,98.3091
2023-02-15 07:16:01:189,-1.27467,3.85126,-8.86999,-23.3952,-7.55235,98.2857
2023-02-15 07:16:01:199,-1.29888,3.8615,-8.87157,-23.3935,-7.56329,98.2638
2023-02-15 07:16:01:209,-1.36428,3.86476,-8.86076,-23.3906,-7.57744,98.2398
2023-02-15 07:16:01:219,-1.40996,3.8687,-8.86744,-23.3909,-7.58822,98.2151
2023-02-15 07:16:01:229,-1.40733,3.86779,-8.87055,-23.3887,-7.59785,98.1877
2023-02-15 07:16:01:239,-1.38327,3.86757,-8.88071,-23.3878,-7.60647,98.1547
2023-02-15 07:16:01:249,-1.35516,3.86826,-8.8965,-23.3827,-7.61561,98.1169
2023-02-15 07:16:01:259,-1.31158,3.84664,-8.89507,-23.3766,-7.62013,98.0763
2023-02-15 07:16:01:269,-1.27426,3.83126,-8.87419,-23.371,-7.6268,98.0327
2023-02-15 07:16:01:279,-1.24158,3.84219,-8.87329,-23.3672,-7.63258,97.9932
2023-02-15 07:16:01:289,-1.2301,3.83265,-8.89487,-23.3625,-7.63142,97.9526
2023-02-15 07:16:01:299,-1.19966,3.82608,-8.89547,-23.3577,-7.63092,97.918
2023-02-15 07:16:01:309,-1.17753,3.82078,-8.88765,-23.3559,-7.62968,97.8834
2023-02-15 07:16:01:319,-1.1697,3.82517,-8.89019,-23.3555,-7.6264,97.8521
2023-02-15 07:16:01:329,-1.18469,3.8252,-8.91641,-23.3557,-7.6237,97.8263
2023-02-15 07:16:01:339,-1.19048,3.82487,-8.92771,-23.3553,-7.62291,97.8045
2023-02-15 07:16:01:349,-1.17198,3.84279,-8.93424,-23.3546,-7.62355,97.7852
2023-02-15 07:16:01:359,-1.17593,3.85431,-8.9263,-23.3519,-7.62663,97.765
2023-02-15 07:16:01:369,-1.16349,3.84753,-8.92372,-23.3493,-7.62872,97.7504
2023-02-15 07:16:01:379,-1.16236,3.84172,-8.91729,-23.3501,-7.62968,97.7375
2023-02-15 07:16:01:389,-1.19999,3.84333,-8.90376,-23.3484,-7.63754,97.7298
2023-02-15 07:16:01:399,-1.23813,3.84039,-8.91933,-23.3433,-7.64517,97.7216
2023-02-15 07:16:01:409,-1.28355,3.84313,-8.936,-23.3408,-7.64999,97.7175
2023-02-15 07:16:01:419,-1.32398,3.84363,-8.92072,-23.3341,-7.65956,97.7143
2023-02-15 07:16:01:429,-1.32757,3.83302,-8.88273,-23.3255,-7.66782,97.7088
2023-02-15 07:16:01:439,-1.33531,3.83122,-8.87607,-23.3189,-7.67534,97.7013
2023-02-15 07:16:01:449,-1.35443,3.81131,-8.87853,-23.3134,-7.68703,97.6894
2023-02-15 07:16:01:459,-1.3698,3.803,-8.85447,-23.3111,-7.70349,97.6729
2023-02-15 07:16:01:469,-1.34487,3.79219,-8.8636,-23.3057,-7.72012,97.6542
2023-02-15 07:16:01:479,-1.35233,3.81142,-8.87588,-23.2999,-7.73855,97.6279
2023-02-15 07:16:01:489,-1.37325,3.81897,-8.89314,-23.2952,-7.75925,97.6004
2023-02-15 07:16:01:499,-1.36816,3.8181,-8.90196,-23.2888,-7.77778,97.5689
2023-02-15 07:16:01:509,-1.36571,3.825,-8.9012,-23.2857,-7.79522,97.5351
2023-02-15 07:16:01:519,-1.42251,3.82995,-8.91046,-23.2831,-7.81324,97.4968
2023-02-15 07:16:01:529,-1.4914,3.8368,-8.93323,-23.2797,-7.83702,97.4519
2023-02-15 07:16:01:539,-1.50203,3.86486,-8.93334,-23.2753,-7.86309,97.4004
2023-02-15 07:16:01:549,-1.48746,3.86506,-8.88731,-23.2697,-7.88681,97.3391
2023-02-15 07:16:01:559,-1.46459,3.87575,-8.86334,-23.2625,-7.90896,97.2744
2023-02-15 07:16:01:569,-1.41508,3.87333,-8.85857,-23.2566,-7.93305,97.2045
2023-02-15 07:16:01:579,-1.36833,3.86659,-8.87274,-23.2507,-7.9559,97.1269
2023-02-15 07:16:01:589,-1.33039,3.87111,-8.87129,-23.2461,-7.97755,97.0483
2023-02-15 07:16:01:599,-1.30116,3.86695,-8.87158,-23.2371,-7.99671,96.9676
2023-02-15 07:16:01:609,-1.31288,3.8835,-8.87592,-23.2303,-8.01794,96.889
2023-02-15 07:16:01:619,-1.37463,3.89398,-8.90682,-23.2178,-8.03187,96.8086
2023-02-15 07:16:01:629,-1.46211,3.91711,-8.91754,-23.2042,-8.04493,96.728
2023-02-15 07:16:01:639,-1.5101,3.9209,-8.92218,-23.1857,-8.05336,96.6457
2023-02-15 07:16:01:649,-1.48567,3.90153,-8.9199,-23.1631,-8.06268,96.5537
2023-02-15 07:16:01:659,-1.40437,3.88704,-8.91118,-23.1393,-8.06737,96.4568
2023-02-15 07:16:01:669,-1.32929,3.87598,-8.91515,-23.1138,-8.07809,96.3549
2023-02-15 07:16:01:679,-1.25445,3.85952,-8.91188,-23.0883,-8.08805,96.2528
2023-02-15 07:16:01:689,-1.19822,3.82566,-8.91846,-23.0644,-8.0935,96.1526
2023-02-15 07:16:01:699,-1.17642,3.81414,-8.93867,-23.0414,-8.09822,96.0575
2023-02-15 07:16:01:709,-1.16401,3.83142,-8.93216,-23.017,-8.10677,95.9708
2023-02-15 07:16:01:719,-1.15293,3.82344,-8.9078,-22.9948,-8.11375,95.887
2023-02-15 07:16:01:729,-1.14019,3.7921,-8.90802,-22.9741,-8.11718,95.8102
2023-02-15 07:16:01:739,-1.1451,3.78756,-8.93408,-22.95,-8.12118,95.746
2023-02-15 07:16:01:749,-1.17048,3.77824,-8.916,-22.9287,-8.12375,95.6894
2023-02-15 07:16:01:759,-1.16426,3.75124,-8.91357,-22.91,-8.12354,95.6406
2023-02-15 07:16:01:769,-1.20248,3.74531,-8.9426,-22.8867,-8.12404,95.593
2023-02-15 07:16:01:779,-1.27405,3.76521,-8.95583,-22.8619,-8.12855,95.5517
2023-02-15 07:16:01:789,-1.36072,3.75623,-8.96113,-22.8378,-8.13855,95.5116
2023-02-15 07:16:01:799,-1.47167,3.7694,-8.93155,-22.8109,-8.15235,95.4697
2023-02-15 07:16:01:809,-1.53582,3.75287,-8.91976,-22.7848,-8.16824,95.4226
2023-02-15 07:16:01:819,-1.546,3.747,-8.92101,-22.7587,-8.18298,95.3668
2023-02-15 07:16:01:829,-1.55919,3.75474,-8.91523,-22.7343,-8.20243,95.3014
2023-02-15 07:16:01:839,-1.50009,3.75225,-8.90804,-22.7085,-8.22238,95.2228
2023-02-15 07:16:01:849,-1.41469,3.74099,-8.91935,-22.6856,-8.24711,95.1358
2023-02-15 07:16:01:859,-1.36508,3.73761,-8.91287,-22.6604,-8.27529,95.0428
2023-02-15 07:16:01:869,-1.34355,3.72209,-8.92957,-22.6384,-8.3126,94.9457
2023-02-15 07:16:01:879,-1.41286,3.74128,-8.93276,-22.6195,-8.34729,94.8471
2023-02-15 07:16:01:889,-1.53768,3.74849,-8.93733,-22.5978,-8.38684,94.7458
2023-02-15 07:16:01:899,-1.68054,3.77502,-8.93947,-22.5717,-8.42763,94.6414
2023-02-15 07:16:01:909,-1.85984,3.80686,-8.94864,-22.5404,-8.46874,94.5287
2023-02-15 07:16:01:919,-2.03027,3.84051,-8.94182,-22.5058,-8.50889,94.3992
2023-02-15 07:16:01:928,-2.20886,3.85831,-8.92034,-22.4681,-8.552,94.2418
2023-02-15 07:16:01:939,-2.45118,3.88848,-8.89369,-22.4195,-8.59843,94.0491
2023-02-15 07:16:01:949,-2.62993,3.89585,-8.89324,-22.3632,-8.64464,93.8156
2023-02-15 07:16:01:959,-2.78756,3.94676,-8.95768,-22.2992,-8.68532,93.5285
2023-02-15 07:16:01:969,-3.18146,4.07638,-9.02921,-22.2237,-8.74197,93.1806
2023-02-15 07:16:01:979,-3.79568,4.19092,-9.01729,-22.1277,-8.82208,92.7591
2023-02-15 07:16:01:989,-4.3249,4.29994,-8.95818,-22.0124,-8.91932,92.2401
2023-02-15 07:16:01:999,-4.62455,4.37658,-8.88979,-21.8645,-9.03527,91.5946
2023-02-15 07:16:02:9,-4.67074,4.41567,-8.85996,-21.6908,-9.1658,90.8072
2023-02-15 07:16:02:19,-4.54842,4.44607,-8.80231,-21.4939,-9.31994,89.8762
2023-02-15 07:16:02:29,-4.51585,4.46362,-8.73343,-21.2706,-9.49904,88.801
2023-02-15 07:16:02:39,-4.51647,4.50504,-8.70563,-21.0248,-9.69975,87.5842
2023-02-15 07:16:02:49,-4.45149,4.57202,-8.70413,-20.7552,-9.91316,86.229
2023-02-15 07:16:02:59,-4.3998,4.64915,-8.69718,-20.4581,-10.1346,84.7373
2023-02-15 07:16:02:69,-4.35891,4.76197,-8.71684,-20.1292,-10.3528,83.114
2023-02-15 07:16:02:79,-4.15008,4.79429,-8.70701,-19.7756,-10.5611,81.3667
2023-02-15 07:16:02:89,-3.64095,4.71003,-8.621,-19.3922,-10.7582,79.4997
2023-02-15 07:16:02:99,-3.07375,4.59084,-8.58955,-18.9941,-10.9355,77.5289
2023-02-15 07:16:02:109,-2.63463,4.49317,-8.59722,-18.5785,-11.0956,75.4853
2023-02-15 07:16:02:119,-2.3872,4.46479,-8.66198,-18.1587,-11.2308,73.3933
2023-02-15 07:16:02:129,-2.20106,4.43488,-8.72594,-17.7303,-11.3407,71.2649
2023-02-15 07:16:02:139,-1.82672,4.30734,-8.75599,-17.2936,-11.4164,69.1118
2023-02-15 07:16:02:149,-1.23843,4.12645,-8.76202,-16.8515,-11.4569,66.9533
2023-02-15 07:16:02:159,-0.685788,3.86641,-8.75975,-16.4167,-11.4653,64.8124
2023-02-15 07:16:02:169,-0.279354,3.62942,-8.80435,-15.995,-11.4466,62.7218
2023-02-15 07:16:02:179,0.0492277,3.44126,-8.91607,-15.5911,-11.4114,60.6941
2023-02-15 07:16:02:189,0.28352,3.30876,-9.08268,-15.2092,-11.3657,58.7465
2023-02-15 07:16:02:199,0.4673,3.10624,-9.15621,-14.8404,-11.3072,56.8903
2023-02-15 07:16:02:209,0.663048,2.89268,-9.17504,-14.4893,-11.233,55.1398
2023-02-15 07:16:02:219,0.884328,2.69991,-9.19374,-14.1585,-11.1351,53.5061
2023-02-15 07:16:02:229,1.10611,2.50263,-9.23499,-13.849,-11.0148,51.9978
2023-02-15 07:16:02:239,1.25813,2.33062,-9.25941,-13.5666,-10.8824,50.6224
2023-02-15 07:16:02:249,1.30075,2.19527,-9.244,-13.3083,-10.7448,49.3883
2023-02-15 07:16:02:259,1.23344,2.08248,-9.23916,-13.084,-10.6084,48.2944
2023-02-15 07:16:02:269,1.07136,2.01364,-9.27843,-12.8873,-10.4696,47.3356
2023-02-15 07:16:02:279,0.892716,1.9748,-9.32474,-12.7185,-10.329,46.5063
2023-02-15 07:16:02:289,0.755437,1.92108,-9.37969,-12.5688,-10.19,45.7966
2023-02-15 07:16:02:299,0.675958,1.89342,-9.42774,-12.4406,-10.0499,45.1953
2023-02-15 07:16:02:309,0.542392,1.86411,-9.40542,-12.3281,-9.91762,44.6951
2023-02-15 07:16:02:319,0.356712,1.82817,-9.36582,-12.2352,-9.80016,44.2881
2023-02-15 07:16:02:329,0.143574,1.83509,-9.38254,-12.1595,-9.69633,43.9642
2023-02-15 07:16:02:339,-0.160032,1.89778,-9.42651,-12.1034,-9.60426,43.712
2023-02-15 07:16:02:349,-0.500409,1.94151,-9.44404,-12.0546,-9.52373,43.5188
2023-02-15 07:16:02:359,-0.745194,1.96747,-9.49445,-12.0105,-9.4493,43.369
2023-02-15 07:16:02:369,-0.88002,2.00084,-9.55716,-11.9788,-9.38452,43.2529
2023-02-15 07:16:02:379,-0.965445,1.99354,-9.53181,-11.9487,-9.33167,43.1579
2023-02-15 07:16:02:389,-1.03857,1.94599,-9.46498,-11.9233,-9.28857,43.0821
2023-02-15 07:16:02:399,-1.08351,1.93819,-9.41416,-11.9039,-9.26604,43.0253
2023-02-15 07:16:02:409,-1.16422,1.95498,-9.41656,-11.8941,-9.25327,42.9812
2023-02-15 07:16:02:419,-1.27369,1.97549,-9.42235,-11.8865,-9.25744,42.9431
2023-02-15 07:16:02:429,-1.3787,1.97282,-9.40931,-11.8815,-9.27489,42.9119
2023-02-15 07:16:02:439,-1.49343,1.97041,-9.35007,-11.881,-9.29996,42.8849
2023-02-15 07:16:02:449,-1.50795,1.93544,-9.34211,-11.8798,-9.3255,42.8588
2023-02-15 07:16:02:459,-1.38531,1.89789,-9.34279,-11.8807,-9.34219,42.836
2023-02-15 07:16:02:469,-1.25446,1.87149,-9.32195,-11.8858,-9.35942,42.8196
2023-02-15 07:16:02:479,-1.22442,1.85636,-9.35157,-11.8972,-9.37654,42.8155
2023-02-15 07:16:02:489,-1.29158,1.90358,-9.3998,-11.9176,-9.39828,42.8227
2023-02-15 07:16:02:499,-1.34522,1.95833,-9.45957,-11.9364,-9.41918,42.8429
2023-02-15 07:16:02:509,-1.38342,1.9946,-9.50521,-11.9628,-9.43667,42.8755
2023-02-15 07:16:02:519,-1.41965,2.01229,-9.51628,-11.9857,-9.45247,42.9207
2023-02-15 07:16:02:529,-1.40486,2.006,-9.49109,-12.0105,-9.46564,42.9753
2023-02-15 07:16:02:539,-1.31816,1.98589,-9.46381,-12.0313,-9.47401,43.0426
2023-02-15 07:16:02:549,-1.21216,1.93763,-9.41768,-12.0571,-9.48195,43.1245
2023-02-15 07:16:02:559,-1.06498,1.88842,-9.37271,-12.0879,-9.4948,43.2228
2023-02-15 07:16:02:569,-0.861521,1.88866,-9.3431,-12.1318,-9.51113,43.3428
2023-02-15 07:16:02:579,-0.71587,1.91082,-9.34692,-12.1901,-9.53199,43.4944
2023-02-15 07:16:02:589,-0.757105,1.97074,-9.39094,-12.2549,-9.55607,43.6803
2023-02-15 07:16:02:599,-0.797526,2.00278,-9.43524,-12.3274,-9.57664,43.9005
2023-02-15 07:16:02:609,-0.612588,2.00766,-9.41609,-12.4019,-9.58271,44.1685
2023-02-15 07:16:02:619,-0.295112,1.9863,-9.3973,-12.4807,-9.57121,44.4829
2023-02-15 07:16:02:629,0.0176619,1.97392,-9.39896,-12.5734,-9.55091,44.8574
2023-02-15 07:16:02:639,0.339507,1.93807,-9.35637,-12.6775,-9.52559,45.3035
2023-02-15 07:16:02:649,0.67257,1.89455,-9.25014,-12.8085,-9.50186,45.8375
2023-02-15 07:16:02:659,0.953916,1.87115,-9.21351,-12.9637,-9.47522,46.4715
2023-02-15 07:16:02:669,1.21107,1.93799,-9.23049,-13.1526,-9.45164,47.2221
2023-02-15 07:16:02:679,1.42921,2.03275,-9.22343,-13.3823,-9.42503,48.1
2023-02-15 07:16:02:689,1.47961,2.16255,-9.18361,-13.6423,-9.39772,49.1134
2023-02-15 07:16:02:699,1.37087,2.32501,-9.13258,-13.9336,-9.36443,50.2677
2023-02-15 07:16:02:709,1.26909,2.53822,-9.11003,-14.2575,-9.32174,51.5591
2023-02-15 07:16:02:719,1.16015,2.76466,-9.09882,-14.6074,-9.25654,52.9871
2023-02-15 07:16:02:729,0.989333,3.02686,-9.11524,-14.9792,-9.17238,54.5424
2023-02-15 07:16:02:739,0.732821,3.32665,-9.11602,-15.3711,-9.07328,56.2092
2023-02-15 07:16:02:749,0.474946,3.55834,-8.99885,-15.7758,-8.95776,57.9788
2023-02-15 07:16:02:759,0.246926,3.74948,-8.86977,-16.1907,-8.82782,59.8435
2023-02-15 07:16:02:769,0.0485819,3.93914,-8.81906,-16.6146,-8.68586,61.7838
2023-02-15 07:16:02:779,-0.186543,4.1697,-8.89081,-17.049,-8.52994,63.7885
2023-02-15 07:16:02:789,-0.470624,4.45071,-9.03697,-17.4886,-8.36872,65.849
2023-02-15 07:16:02:799,-0.88587,4.72421,-9.15387,-17.92,-8.20967,67.9478
2023-02-15 07:16:02:809,-1.39937,4.95488,-9.20535,-18.3354,-8.06202,70.0702
2023-02-15 07:16:02:819,-1.8996,5.12465,-9.21016,-18.7212,-7.92444,72.1886
2023-02-15 07:16:02:829,-2.28026,5.18414,-9.1483,-19.0706,-7.78277,74.2831
2023-02-15 07:16:02:839,-2.48198,5.1142,-9.05657,-19.3832,-7.63291,76.3367
2023-02-15 07:16:02:849,-2.68557,5.05092,-9.04804,-19.659,-7.4785,78.334
2023-02-15 07:16:02:859,-2.9748,5.04699,-9.06342,-19.9035,-7.32904,80.2681
2023-02-15 07:16:02:869,-3.28181,4.93828,-8.99321,-20.1132,-7.19494,82.118
2023-02-15 07:16:02:879,-3.52673,4.80482,-8.9563,-20.2928,-7.07316,83.8757
2023-02-15 07:16:02:889,-3.6399,4.7097,-9.0061,-20.4435,-6.96053,85.5259
2023-02-15 07:16:02:899,-3.6142,4.54675,-8.96261,-20.561,-6.85567,87.0609
2023-02-15 07:16:02:909,-3.53728,4.34487,-8.83361,-20.6547,-6.76107,88.4871
2023-02-15 07:16:02:919,-3.43143,4.1437,-8.69743,-20.7322,-6.67444,89.8008
2023-02-15 07:16:02:929,-3.3381,3.95296,-8.59098,-20.8,-6.59885,91.0079
2023-02-15 07:16:02:939,-3.2269,3.80914,-8.56544,-20.8695,-6.53121,92.1135
2023-02-15 07:16:02:949,-3.11491,3.74668,-8.62384,-20.946,-6.47583,93.1186
2023-02-15 07:16:02:959,-3.0135,3.744,-8.75888,-21.0234,-6.42988,94.0334
2023-02-15 07:16:02:969,-2.89613,3.78949,-8.92605,-21.1016,-6.3917,94.8578
2023-02-15 07:16:02:979,-2.76854,3.80504,-9.01811,-21.1763,-6.369,95.6046
2023-02-15 07:16:02:989,-2.67037,3.76697,-9.0114,-21.2398,-6.3637,96.2709
2023-02-15 07:16:02:999,-2.60928,3.72181,-8.97715,-21.299,-6.3706,96.8677
2023-02-15 07:16:03:9,-2.53418,3.6907,-8.92973,-21.3479,-6.39106,97.3961
2023-02-15 07:16:03:19,-2.45112,3.65314,-8.88813,-21.4,-6.42163,97.862
2023-02-15 07:16:03:29,-2.33502,3.6138,-8.87153,-21.4515,-6.46082,98.2694
2023-02-15 07:16:03:39,-2.23531,3.59139,-8.87124,-21.5037,-6.50618,98.6209
2023-02-15 07:16:03:49,-2.15176,3.57391,-8.86642,-21.5558,-6.55573,98.926
2023-02-15 07:16:03:59,-2.06699,3.55813,-8.87015,-21.608,-6.60811,99.186
2023-02-15 07:16:03:69,-1.96129,3.55536,-8.88058,-21.662,-6.65966,99.4074
2023-02-15 07:16:03:79,-1.92349,3.55967,-8.86541,-21.7178,-6.71482,99.59
2023-02-15 07:16:03:89,-1.88825,3.58437,-8.89706,-21.7746,-6.76535,99.7415
2023-02-15 07:16:03:99,-1.80248,3.60802,-8.92778,-21.8308,-6.81204,99.8613
2023-02-15 07:16:03:109,-1.75663,3.66466,-8.99918,-21.8849,-6.86638,99.9502
2023-02-15 07:16:03:119,-1.66036,3.66024,-9.03595,-21.9361,-6.91143,100.015
2023-02-15 07:16:03:129,-1.56649,3.6153,-8.97535,-21.9816,-6.96163,100.063
2023-02-15 07:16:03:139,-1.49879,3.60605,-8.95248,-22.0291,-7.01911,100.088
2023-02-15 07:16:03:149,-1.45631,3.62197,-8.93758,-22.0808,-7.0743,100.103
2023-02-15 07:16:03:159,-1.4144,3.64395,-8.91809,-22.1346,-7.1284,100.115
2023-02-15 07:16:03:169,-1.37126,3.6591,-8.91058,-22.1902,-7.18033,100.116
2023-02-15 07:16:03:179,-1.32779,3.69212,-8.94512,-22.246,-7.22727,100.115
2023-02-15 07:16:03:189,-1.30709,3.71531,-8.98595,-22.3013,-7.27799,100.114
2023-02-15 07:16:03:199,-1.28357,3.72187,-8.99824,-22.3519,-7.32577,100.112
2023-02-15 07:16:03:209,-1.26137,3.71744,-9.02287,-22.4044,-7.37187,100.109
2023-02-15 07:16:03:219,-1.27426,3.74282,-9.02757,-22.4553,-7.41717,100.114
2023-02-15 07:16:03:229,-1.29017,3.7313,-9.00235,-22.5031,-7.45796,100.125
2023-02-15 07:16:03:239,-1.34309,3.7205,-8.95524,-22.5485,-7.49323,100.138
2023-02-15 07:16:03:249,-1.40017,3.74057,-8.95856,-22.5949,-7.51737,100.154
2023-02-15 07:16:03:259,-1.36637,3.75447,-8.9658,-22.6426,-7.53556,100.171
2023-02-15 07:16:03:269,-1.31572,3.79683,-8.99746,-22.6907,-7.55398,100.183
2023-02-15 07:16:03:279,-1.29483,3.81624,-9.03836,-22.7372,-7.57268,100.201
2023-02-15 07:16:03:289,-1.2776,3.8115,-9.02999,-22.7781,-7.58133,100.222
2023-02-15 07:16:03:299,-1.22142,3.79602,-8.97166,-22.8136,-7.58838,100.243
2023-02-15 07:16:03:309,-1.20408,3.77069,-8.91961,-22.8451,-7.59841,100.269
2023-02-15 07:16:03:319,-1.24475,3.75943,-8.87174,-22.8746,-7.60828,100.297
2023-02-15 07:16:03:329,-1.29631,3.73216,-8.8175,-22.9036,-7.61516,100.326
2023-02-15 07:16:03:339,-1.3174,3.73876,-8.79247,-22.9382,-7.62287,100.359
2023-02-15 07:16:03:349,-1.34035,3.78179,-8.80455,-22.9753,-7.62863,100.393
2023-02-15 07:16:03:359,-1.3321,3.80134,-8.84742,-23.0162,-7.62447,100.422
2023-02-15 07:16:03:369,-1.31068,3.83621,-8.8914,-23.0559,-7.6169,100.447
2023-02-15 07:16:03:379,-1.29252,3.87474,-8.927,-23.0998,-7.60733,100.469
2023-02-15 07:16:03:389,-1.29553,3.90891,-8.94622,-23.141,-7.59548,100.488
2023-02-15 07:16:03:399,-1.29682,3.94692,-8.93447,-23.1806,-7.58441,100.505
2023-02-15 07:16:03:409,-1.28712,3.95302,-8.91245,-23.217,-7.57568,100.518
2023-02-15 07:16:03:419,-1.28502,3.95175,-8.9011,-23.2537,-7.56395,100.531
2023-02-15 07:16:03:429,-1.27292,3.95534,-8.88371,-23.2909,-7.5484,100.538
2023-02-15 07:16:03:439,-1.2602,3.95114,-8.84048,-23.3249,-7.53507,100.535
2023-02-15 07:16:03:449,-1.25953,3.93608,-8.83974,-23.3542,-7.5232,100.527
2023-02-15 07:16:03:459,-1.23948,3.95158,-8.89975,-23.3875,-7.51079,100.516
2023-02-15 07:16:03:469,-1.20776,3.95208,-8.95032,-23.4187,-7.49918,100.502
2023-02-15 07:16:03:479,-1.17459,3.9218,-8.9493,-23.4426,-7.49074,100.484
2023-02-15 07:16:03:489,-1.14425,3.87974,-8.92676,-23.4618,-7.48063,100.463
2023-02-15 07:16:03:499,-1.14639,3.85155,-8.8917,-23.4788,-7.4745,100.442
2023-02-15 07:16:03:509,-1.18961,3.8219,-8.87681,-23.5004,-7.47102,100.424
2023-02-15 07:16:03:519,-1.2008,3.82437,-8.88856,-23.525,-7.46676,100.404
2023-02-15 07:16:03:529,-1.1753,3.8543,-8.92752,-23.5504,-7.4599,100.383
2023-02-15 07:16:03:539,-1.14053,3.87611,-8.96095,-23.5731,-7.45228,100.362
2023-02-15 07:16:03:549,-1.13061,3.88995,-8.92403,-23.6024,-7.43939,100.341
2023-02-15 07:16:03:559,-1.14787,3.89144,-8.90633,-23.6293,-7.42662,100.319
2023-02-15 07:16:03:569,-1.1684,3.89109,-8.90887,-23.6581,-7.40855,100.297
2023-02-15 07:16:03:579,-1.16333,3.91006,-8.89246,-23.6861,-7.39495,100.277
2023-02-15 07:16:03:589,-1.15041,3.90278,-8.87032,-23.7109,-7.37353,100.255
2023-02-15 07:16:03:599,-1.13215,3.89868,-8.86295,-23.739,-7.35333,100.233
2023-02-15 07:16:03:609,-1.12379,3.89593,-8.8549,-23.7634,-7.33448,100.209
2023-02-15 07:16:03:619,-1.10743,3.90864,-8.87307,-23.7886,-7.31512,100.183
2023-02-15 07:16:03:629,-1.08632,3.92842,-8.91657,-23.8144,-7.29427,100.156
2023-02-15 07:16:03:639,-1.05842,3.9227,-8.93209,-23.8379,-7.27437,100.133
2023-02-15 07:16:03:649,-1.02771,3.92215,-8.92308,-23.8583,-7.24933,100.11
2023-02-15 07:16:03:659,-0.997114,3.9291,-8.97927,-23.8781,-7.22943,100.089
2023-02-15 07:16:03:669,-0.973962,3.94554,-9.011,-23.8917,-7.21335,100.071
2023-02-15 07:16:03:679,-0.98769,3.94629,-9.01743,-23.9049,-7.20039,100.062
2023-02-15 07:16:03:689,-0.992056,3.929,-9.01324,-23.913,-7.19211,100.054
2023-02-15 07:16:03:699,-0.983555,3.90406,-8.99462,-23.9144,-7.19078,100.048
2023-02-15 07:16:03:709,-0.991542,3.86832,-8.92911,-23.9117,-7.1916,100.048
2023-02-15 07:16:03:719,-1.00296,3.83544,-8.8686,-23.914,-7.19571,100.058
2023-02-15 07:16:03:729,-1.04999,3.83585,-8.81253,-23.9183,-7.2048,100.073
2023-02-15 07:16:03:739,-1.13947,3.84644,-8.76401,-23.9302,-7.21381,100.093
2023-02-15 07:16:03:749,-1.22336,3.85069,-8.72857,-23.9472,-7.22653,100.118
2023-02-15 07:16:03:759,-1.28128,3.87559,-8.7195,-23.972,-7.24032,100.146
2023-02-15 07:16:03:769,-1.33564,3.92768,-8.74029,-24.0054,-7.24776,100.169
2023-02-15 07:16:03:779,-1.36291,3.98541,-8.77908,-24.0407,-7.25528,100.186
2023-02-15 07:16:03:789,-1.36983,4.03621,-8.81303,-24.0811,-7.26312,100.197
2023-02-15 07:16:03:799,-1.36177,4.0555,-8.8279,-24.1171,-7.26876,100.198
2023-02-15 07:16:03:809,-1.33084,4.07614,-8.81469,-24.1516,-7.27576,100.188
2023-02-15 07:16:03:819,-1.30651,4.06611,-8.80686,-24.1884,-7.28066,100.172
2023-02-15 07:16:03:829,-1.27111,4.05323,-8.81593,-24.2196,-7.28265,100.151
2023-02-15 07:16:03:839,-1.24133,4.04552,-8.81921,-24.2534,-7.28465,100.125
2023-02-15 07:16:03:849,-1.2236,4.03766,-8.82049,-24.2847,-7.28973,100.094
2023-02-15 07:16:03:859,-1.189,4.03921,-8.82938,-24.3158,-7.29423,100.058
2023-02-15 07:16:03:869,-1.13976,4.03754,-8.86137,-24.3508,-7.29931,100.017
2023-02-15 07:16:03:879,-1.1054,4.01919,-8.85206,-24.379,-7.3044,99.9753
2023-02-15 07:16:03:889,-1.0919,4.01886,-8.85374,-24.4078,-7.30914,99.9374
2023-02-15 07:16:03:899,-1.08463,4.03148,-8.85056,-24.4392,-7.31625,99.8994
2023-02-15 07:16:03:909,-1.09918,4.04561,-8.82564,-24.4692,-7.32591,99.8597
2023-02-15 07:16:03:919,-1.13364,4.03113,-8.78812,-24.5016,-7.33551,99.8274
2023-02-15 07:16:03:929,-1.17129,4.00669,-8.73421,-24.533,-7.3479,99.7996
2023-02-15 07:16:03:939,-1.21778,3.99281,-8.68009,-24.5754,-7.36356,99.7716
2023-02-15 07:16:03:949,-1.27554,3.96198,-8.64199,-24.6214,-7.38276,99.7417
2023-02-15 07:16:03:959,-1.36442,3.94468,-8.60356,-24.6751,-7.40379,99.7071
2023-02-15 07:16:03:969,-1.47188,3.93868,-8.56444,-24.7378,-7.42594,99.6753
2023-02-15 07:16:03:979,-1.56586,3.95933,-8.55334,-24.811,-7.45371,99.6381
2023-02-15 07:16:03:989,-1.62802,3.9465,-8.52844,-24.8949,-7.48134,99.5887
2023-02-15 07:16:03:999,-1.68272,3.95542,-8.51265,-24.9862,-7.51266,99.524
2023-02-15 07:16:04:9,-1.73273,3.98839,-8.54833,-25.0872,-7.54228,99.4415
2023-02-15 07:16:04:19,-1.763,4.0478,-8.58848,-25.1888,-7.57031,99.3431
2023-02-15 07:16:04:29,-1.78023,4.0681,-8.58557,-25.2981,-7.59219,99.2253
2023-02-15 07:16:04:39,-1.81042,4.06718,-8.53558,-25.4139,-7.61506,99.0902
2023-02-15 07:16:04:49,-1.87108,4.06387,-8.46319,-25.5338,-7.63118,98.9352
2023-02-15 07:16:04:59,-1.93534,4.05338,-8.40671,-25.663,-7.65085,98.7603
2023-02-15 07:16:04:69,-1.97301,4.03635,-8.31542,-25.802,-7.6665,98.5625
2023-02-15 07:16:04:79,-1.96073,4.00748,-8.24487,-25.9545,-7.68143,98.3337
2023-02-15 07:16:04:89,-1.898,4.01614,-8.23753,-26.1221,-7.69218,98.0785
2023-02-15 07:16:04:99,-1.79315,4.04681,-8.26979,-26.3143,-7.70266,97.7969
2023-02-15 07:16:04:109,-1.68319,4.10451,-8.34029,-26.5235,-7.72017,97.4918
2023-02-15 07:16:04:119,-1.56543,4.18319,-8.44644,-26.7473,-7.74498,97.1646
2023-02-15 07:16:04:129,-1.4585,4.30389,-8.60252,-26.9788,-7.78209,96.8256
2023-02-15 07:16:04:139,-1.30323,4.48864,-8.85439,-27.2167,-7.83024,96.4745
2023-02-15 07:16:04:149,-1.12543,4.68106,-9.06911,-27.4429,-7.88637,96.1194
2023-02-15 07:16:04:159,-0.995463,4.80371,-9.16181,-27.6474,-7.94646,95.7644
2023-02-15 07:16:04:169,-0.923374,4.88067,-9.11499,-27.8286,-8.00837,95.4248
2023-02-15 07:16:04:179,-0.868521,4.89218,-9.01791,-27.9884,-8.06716,95.1014
2023-02-15 07:16:04:189,-0.852397,4.87954,-8.90179,-28.1255,-8.1212,94.798
2023-02-15 07:16:04:199,-0.855524,4.87539,-8.81629,-28.2454,-8.16805,94.5138
2023-02-15 07:16:04:209,-0.872776,4.88278,-8.7836,-28.3481,-8.20618,94.2512
2023-02-15 07:16:04:219,-0.88796,4.89924,-8.7991,-28.438,-8.23801,94.0072
2023-02-15 07:16:04:229,-0.900641,4.92612,-8.81672,-28.5112,-8.2664,93.7847
2023-02-15 07:16:04:239,-0.897099,4.93604,-8.81883,-28.5735,-8.29138,93.5824
2023-02-15 07:16:04:249,-0.90224,4.93912,-8.80524,-28.623,-8.31351,93.3955
2023-02-15 07:16:04:259,-0.883139,4.94893,-8.80249,-28.6583,-8.32649,93.2287
2023-02-15 07:16:04:269,-0.837754,4.93761,-8.7861,-28.6752,-8.33398,93.0836
2023-02-15 07:16:04:279,-0.845977,4.89926,-8.77804,-28.6838,-8.33789,92.9585
2023-02-15 07:16:04:289,-0.887749,4.87245,-8.74938,-28.6863,-8.34075,92.8561
2023-02-15 07:16:04:299,-0.911626,4.88302,-8.73961,-28.6753,-8.34071,92.7743
2023-02-15 07:16:04:309,-0.900611,4.87278,-8.73716,-28.6562,-8.3363,92.7137
2023-02-15 07:16:04:319,-0.876958,4.84948,-8.72406,-28.6278,-8.32713,92.6708
2023-02-15 07:16:04:329,-0.851977,4.82528,-8.69401,-28.5897,-8.31313,92.6487
2023-02-15 07:16:04:339,-0.859845,4.79061,-8.66664,-28.5458,-8.29839,92.649
2023-02-15 07:16:04:349,-0.886941,4.7789,-8.67515,-28.492,-8.2846,92.668
2023-02-15 07:16:04:359,-0.887433,4.77413,-8.70263,-28.4299,-8.26793,92.7048
2023-02-15 07:16:04:369,-0.888874,4.75194,-8.72004,-28.361,-8.25305,92.7583
2023-02-15 07:16:04:379,-0.891212,4.75312,-8.75378,-28.2812,-8.23948,92.8318
2023-02-15 07:16:04:389,-0.897383,4.76127,-8.79799,-28.1919,-8.22396,92.9247
2023-02-15 07:16:04:399,-0.919343,4.78293,-8.87846,-28.0939,-8.21239,93.0347
2023-02-15 07:16:04:409,-0.918552,4.78395,-8.9124,-27.9816,-8.19694,93.1596
2023-02-15 07:16:04:419,-0.930518,4.71688,-8.83515,-27.8517,-8.18122,93.3015
2023-02-15 07:16:04:429,-0.939441,4.63117,-8.72134,-27.7134,-8.16459,93.4613
2023-02-15 07:16:04:439,-0.928943,4.57131,-8.63496,-27.5743,-8.14607,93.6429
2023-02-15 07:16:04:449,-0.943849,4.51298,-8.59003,-27.4359,-8.12303,93.8418
2023-02-15 07:16:04:459,-0.980324,4.46832,-8.56759,-27.2996,-8.09624,94.0555
2023-02-15 07:16:04:469,-1.01901,4.44562,-8.5976,-27.1649,-8.07211,94.2869
2023-02-15 07:16:04:479,-1.01171,4.42543,-8.628,-27.0284,-8.04094,94.5326
2023-02-15 07:16:04:489,-1.06024,4.41214,-8.62175,-26.8905,-8.01064,94.7932
2023-02-15 07:16:04:499,-1.15706,4.37389,-8.59701,-26.7587,-7.97947,95.0632
2023-02-15 07:16:04:509,-1.22685,4.31863,-8.55421,-26.6288,-7.94721,95.3395
2023-02-15 07:16:04:519,-1.27148,4.27427,-8.51416,-26.5017,-7.9138,95.6249
2023-02-15 07:16:04:529,-1.30629,4.22339,-8.4784,-26.3827,-7.88246,95.9118
2023-02-15 07:16:04:539,-1.33497,4.21705,-8.46655,-26.273,-7.85705,96.2021
2023-02-15 07:16:04:549,-1.42237,4.20194,-8.46588,-26.1685,-7.84075,96.4924
2023-02-15 07:16:04:559,-1.57824,4.21315,-8.48971,-26.0759,-7.82737,96.7832
2023-02-15 07:16:04:569,-1.71813,4.25412,-8.52328,-25.9931,-7.8195,97.0703
2023-02-15 07:16:04:579,-1.81392,4.24938,-8.55983,-25.9157,-7.80858,97.3465
2023-02-15 07:16:04:589,-1.8559,4.23701,-8.59269,-25.8398,-7.79102,97.6079
2023-02-15 07:16:04:599,-1.84609,4.25448,-8.63386,-25.7639,-7.77174,97.8497
2023-02-15 07:16:04:609,-1.83051,4.25633,-8.65554,-25.6887,-7.75348,98.0682
2023-02-15 07:16:04:619,-1.83687,4.25011,-8.66243,-25.6143,-7.73128,98.2658
2023-02-15 07:16:04:629,-1.8437,4.22824,-8.66873,-25.5374,-7.71392,98.4382
2023-02-15 07:16:04:639,-1.83166,4.20749,-8.65731,-25.4609,-7.70008,98.5917
2023-02-15 07:16:04:649,-1.79775,4.17175,-8.63769,-25.3807,-7.69013,98.7112
2023-02-15 07:16:04:659,-1.75589,4.13139,-8.61235,-25.3,-7.68595,98.8139
2023-02-15 07:16:04:669,-1.71655,4.0831,-8.61804,-25.2242,-7.68558,98.8908
2023-02-15 07:16:04:679,-1.67092,4.07257,-8.64508,-25.1536,-7.69366,98.9463
2023-02-15 07:16:04:689,-1.61518,4.07234,-8.68941,-25.0838,-7.70627,98.9812
2023-02-15 07:16:04:699,-1.57785,4.07041,-8.72193,-25.0175,-7.72398,98.9951
2023-02-15 07:16:04:709,-1.51579,4.05065,-8.73132,-24.9521,-7.74571,98.9911
2023-02-15 07:16:04:719,-1.43975,4.00618,-8.73237,-24.8882,-7.77602,98.9728
2023-02-15 07:16:04:729,-1.37587,3.97179,-8.71477,-24.8246,-7.80668,98.9457
2023-02-15 07:16:04:739,-1.35704,3.93632,-8.70026,-24.7706,-7.83741,98.9066
2023-02-15 07:16:04:749,-1.40697,3.89858,-8.66376,-24.7207,-7.87048,98.8656
2023-02-15 07:16:04:759,-1.54374,3.91574,-8.63409,-24.6779,-7.90576,98.8199
2023-02-15 07:16:04:769,-1.68905,3.93637,-8.61207,-24.6392,-7.94177,98.7648
2023-02-15 07:16:04:779,-1.75833,3.94122,-8.64537,-24.6081,-7.97651,98.6954
2023-02-15 07:16:04:789,-1.71626,3.98016,-8.72214,-24.5794,-8.0054,98.6113
2023-02-15 07:16:04:799,-1.59617,4.02421,-8.78115,-24.5556,-8.02476,98.5101
2023-02-15 07:16:04:809,-1.49279,4.03807,-8.80854,-24.5325,-8.04799,98.3991
2023-02-15 07:16:04:819,-1.42237,4.01297,-8.81337,-24.5096,-8.07214,98.2816
2023-02-15 07:16:04:829,-1.38982,3.98369,-8.78727,-24.4877,-8.09876,98.1548
2023-02-15 07:16:04:839,-1.47498,3.97829,-8.75551,-24.4658,-8.12886,98.0299
2023-02-15 07:16:04:849,-1.70133,3.9989,-8.73118,-24.4475,-8.16134,97.8994
2023-02-15 07:16:04:859,-1.8696,4.01528,-8.69778,-24.4284,-8.19625,97.76
2023-02-15 07:16:04:869,-1.90386,4.03382,-8.71293,-24.4112,-8.22531,97.601
2023-02-15 07:16:04:879,-1.8053,4.0917,-8.80321,-24.3917,-8.25862,97.4144
2023-02-15 07:16:04:889,-1.6118,4.13893,-8.8953,-24.3702,-8.29013,97.212
2023-02-15 07:16:04:899,-1.46488,4.14871,-8.93478,-24.3405,-8.33112,96.9998
2023-02-15 07:16:04:909,-1.38371,4.1245,-8.91895,-24.3066,-8.3772,96.7819
2023-02-15 07:16:04:919,-1.30527,4.08431,-8.87452,-24.2699,-8.4287,96.563
2023-02-15 07:16:04:929,-1.23256,4.04886,-8.85969,-24.2287,-8.47604,96.3515
2023-02-15 07:16:04:939,-1.18422,4.00638,-8.85145,-24.1847,-8.5151,96.1447
2023-02-15 07:16:04:949,-1.16005,3.98328,-8.84332,-24.138,-8.55008,95.9513
2023-02-15 07:16:04:959,-1.15387,3.95801,-8.86727,-24.0893,-8.57834,95.7632
2023-02-15 07:16:04:969,-1.10007,3.93422,-8.89798,-24.0373,-8.59614,95.5893
2023-02-15 07:16:04:979,-1.0369,3.90096,-8.90075,-23.9901,-8.60971,95.4276
2023-02-15 07:16:04:989,-0.984235,3.8666,-8.89935,-23.9393,-8.61738,95.2793
2023-02-15 07:16:04:999,-0.965413,3.84409,-8.90706,-23.8949,-8.62868,95.1503
2023-02-15 07:16:05:9,-1.02251,3.83714,-8.90106,-23.8497,-8.64685,95.0393
2023-02-15 07:16:05:19,-1.06579,3.81115,-8.89058,-23.8118,-8.66756,94.9472
2023-02-15 07:16:05:29,-1.05855,3.80124,-8.85546,-23.7782,-8.68636,94.8685
2023-02-15 07:16:05:39,-1.07378,3.78806,-8.8378,-23.7438,-8.7,94.8118
2023-02-15 07:16:05:49,-1.08596,3.78149,-8.82676,-23.7145,-8.70708,94.7701
2023-02-15 07:16:05:59,-1.04467,3.78413,-8.79839,-23.6896,-8.71112,94.7442
2023-02-15 07:16:05:69,-0.977047,3.77527,-8.80782,-23.6652,-8.71116,94.7346
2023-02-15 07:16:05:79,-0.965676,3.79248,-8.83245,-23.6452,-8.71188,94.7464
2023-02-15 07:16:05:89,-1.00242,3.7894,-8.84528,-23.6275,-8.71332,94.7832
2023-02-15 07:16:05:99,-1.04247,3.7847,-8.85961,-23.6113,-8.71536,94.8373
2023-02-15 07:16:05:109,-1.07022,3.79428,-8.88436,-23.6007,-8.7138,94.9087
2023-02-15 07:16:05:119,-1.08459,3.81735,-8.92759,-23.5918,-8.70933,94.9975
2023-02-15 07:16:05:129,-1.09728,3.85793,-8.94543,-23.5835,-8.70304,95.0977
2023-02-15 07:16:05:139,-1.09935,3.87939,-8.97953,-23.5739,-8.69247,95.2153
2023-02-15 07:16:05:149,-1.09869,3.88511,-9.03754,-23.5617,-8.68381,95.3473
2023-02-15 07:16:05:159,-1.08782,3.89569,-9.03851,-23.5479,-8.67241,95.4991
2023-02-15 07:16:05:169,-1.00351,3.90044,-9.00964,-23.5317,-8.6593,95.6669
2023-02-15 07:16:05:179,-0.983376,3.90645,-9.0222,-23.5138,-8.64352,95.8568
2023-02-15 07:16:05:189,-1.03721,3.92826,-9.02849,-23.4896,-8.62438,96.0659
2023-02-15 07:16:05:199,-1.0585,3.92158,-8.9986,-23.4617,-8.60716,96.2928
2023-02-15 07:16:05:209,-1.09381,3.90289,-8.93727,-23.431,-8.58904,96.5378
2023-02-15 07:16:05:219,-1.15816,3.87316,-8.89921,-23.3944,-8.56649,96.7958
2023-02-15 07:16:05:229,-1.19554,3.86261,-8.90518,-23.358,-8.54448,97.0684
2023-02-15 07:16:05:239,-1.20918,3.85147,-8.93379,-23.3213,-8.51748,97.3516
2023-02-15 07:16:05:249,-1.18544,3.84562,-8.94659,-23.2816,-8.48883,97.6413
2023-02-15 07:16:05:259,-1.22524,3.8319,-8.93433,-23.2369,-8.46224,97.9389
2023-02-15 07:16:05:269,-1.32362,3.81572,-8.91707,-23.191,-8.43628,98.2456
2023-02-15 07:16:05:279,-1.38748,3.80851,-8.91199,-23.1439,-8.41555,98.551
2023-02-15 07:16:05:289,-1.44424,3.79447,-8.88876,-23.0984,-8.39382,98.8586
2023-02-15 07:16:05:299,-1.51753,3.78105,-8.8592,-23.0543,-8.37666,99.1627
2023-02-15 07:16:05:309,-1.57779,3.77026,-8.87159,-23.0096,-8.35697,99.464
2023-02-15 07:16:05:319,-1.61318,3.78307,-8.87128,-22.9653,-8.33526,99.7515
2023-02-15 07:16:05:329,-1.63424,3.76347,-8.87486,-22.9271,-8.31105,100.032
2023-02-15 07:16:05:339,-1.64483,3.74858,-8.84043,-22.8868,-8.29432,100.3
2023-02-15 07:16:05:349,-1.68589,3.73604,-8.80122,-22.8506,-8.28125,100.556
2023-02-15 07:16:05:359,-1.74676,3.70328,-8.77324,-22.8139,-8.27377,100.792
2023-02-15 07:16:05:369,-1.78272,3.67487,-8.76526,-22.7834,-8.27308,101.016
2023-02-15 07:16:05:379,-1.77579,3.6614,-8.78612,-22.7565,-8.2761,101.219
2023-02-15 07:16:05:389,-1.76642,3.66862,-8.79664,-22.7356,-8.28532,101.403
2023-02-15 07:16:05:399,-1.77803,3.67449,-8.78421,-22.7152,-8.30014,101.568
2023-02-15 07:16:05:409,-1.80228,3.66458,-8.79835,-22.7001,-8.31896,101.716
2023-02-15 07:16:05:419,-1.80509,3.67087,-8.82489,-22.6855,-8.33964,101.844
2023-02-15 07:16:05:429,-1.80301,3.68294,-8.84964,-22.6738,-8.36375,101.954
2023-02-15 07:16:05:439,-1.81137,3.6873,-8.85607,-22.6691,-8.38892,102.042
2023-02-15 07:16:05:449,-1.77945,3.70746,-8.85189,-22.6635,-8.42057,102.116
2023-02-15 07:16:05:459,-1.7447,3.72719,-8.83295,-22.6575,-8.45122,102.17
2023-02-15 07:16:05:469,-1.72284,3.72243,-8.81741,-22.6553,-8.47937,102.212
2023-02-15 07:16:05:479,-1.71319,3.70661,-8.82141,-22.6564,-8.51052,102.24
2023-02-15 07:16:05:489,-1.67177,3.69711,-8.82926,-22.6638,-8.53726,102.259
2023-02-15 07:16:05:499,-1.65168,3.68725,-8.84045,-22.6705,-8.56576,102.268
2023-02-15 07:16:05:509,-1.64497,3.69899,-8.8465,-22.6801,-8.59427,102.266
2023-02-15 07:16:05:519,-1.61685,3.70284,-8.85891,-22.6926,-8.61626,102.257
2023-02-15 07:16:05:529,-1.60853,3.71013,-8.85904,-22.7025,-8.63427,102.24
2023-02-15 07:16:05:539,-1.64454,3.71224,-8.85429,-22.7178,-8.65312,102.217
2023-02-15 07:16:05:549,-1.66578,3.72545,-8.87629,-22.7305,-8.66726,102.189
2023-02-15 07:16:05:559,-1.66731,3.72666,-8.8861,-22.7453,-8.68065,102.155
2023-02-15 07:16:05:569,-1.6563,3.72642,-8.86535,-22.7582,-8.68902,102.112
2023-02-15 07:16:05:579,-1.66382,3.70744,-8.83158,-22.7675,-8.69601,102.059
2023-02-15 07:16:05:589,-1.6526,3.69014,-8.81887,-22.7833,-8.7039,101.994
2023-02-15 07:16:05:599,-1.63288,3.67193,-8.82198,-22.8027,-8.71401,101.921
2023-02-15 07:16:05:609,-1.59474,3.67173,-8.80891,-22.8275,-8.7283,101.842
2023-02-15 07:16:05:619,-1.54585,3.68592,-8.84236,-22.8547,-8.74362,101.757
2023-02-15 07:16:05:629,-1.47176,3.70064,-8.88217,-22.8846,-8.75737,101.67
2023-02-15 07:16:05:639,-1.44926,3.72334,-8.93243,-22.9153,-8.77286,101.579
2023-02-15 07:16:05:649,-1.42676,3.74995,-8.95495,-22.9451,-8.78942,101.483
2023-02-15 07:16:05:659,-1.40644,3.766,-8.94558,-22.9724,-8.80754,101.394
2023-02-15 07:16:05:669,-1.3999,3.77683,-8.9543,-22.9953,-8.82294,101.303
2023-02-15 07:16:05:679,-1.39682,3.78347,-8.94634,-23.0195,-8.83823,101.213
2023-02-15 07:16:05:689,-1.37799,3.78455,-8.92204,-23.0414,-8.85083,101.131
2023-02-15 07:16:05:699,-1.37224,3.79429,-8.90738,-23.0637,-8.8626,101.049
2023-02-15 07:16:05:709,-1.35763,3.79894,-8.90827,-23.0861,-8.87684,100.973
2023-02-15 07:16:05:719,-1.33598,3.81558,-8.91411,-23.109,-8.88964,100.907
2023-02-15 07:16:05:729,-1.32644,3.81869,-8.92606,-23.1293,-8.90725,100.843
2023-02-15 07:16:05:739,-1.35816,3.83147,-8.93002,-23.1517,-8.92154,100.783
2023-02-15 07:16:05:749,-1.3694,3.84285,-8.94052,-23.1718,-8.9343,100.73
2023-02-15 07:16:05:759,-1.35915,3.8428,-8.94695,-23.1924,-8.94782,100.682
2023-02-15 07:16:05:769,-1.35494,3.85777,-8.94107,-23.2117,-8.96217,100.638
2023-02-15 07:16:05:779,-1.36049,3.85598,-8.93232,-23.2211,-8.97336,100.603
2023-02-15 07:16:05:789,-1.38703,3.84389,-8.89756,-23.2338,-8.98371,100.574
2023-02-15 07:16:05:799,-1.41095,3.8291,-8.86048,-23.2457,-8.99093,100.548
2023-02-15 07:16:05:809,-1.42039,3.82464,-8.84616,-23.2539,-8.99753,100.525
2023-02-15 07:16:05:819,-1.45242,3.83227,-8.85276,-23.2648,-9.00718,100.508
2023-02-15 07:16:05:829,-1.48983,3.84329,-8.85615,-23.2768,-9.01572,100.49
2023-02-15 07:16:05:839,-1.51117,3.82881,-8.85123,-23.2895,-9.01667,100.476
2023-02-15 07:16:05:849,-1.52093,3.84514,-8.89545,-23.2978,-9.02189,100.46
2023-02-15 07:16:05:859,-1.50296,3.85307,-8.93852,-23.3081,-9.02572,100.45
2023-02-15 07:16:05:869,-1.47065,3.84839,-8.9239,-23.3142,-9.0301,100.436
2023-02-15 07:16:05:879,-1.45458,3.81226,-8.89078,-23.3184,-9.03905,100.42
2023-02-15 07:16:05:889,-1.4704,3.78647,-8.86492,-23.3219,-9.04515,100.405
2023-02-15 07:16:05:899,-1.50492,3.79524,-8.83815,-23.3315,-9.05824,100.394
2023-02-15 07:16:05:909,-1.52461,3.80276,-8.82889,-23.343,-9.07075,100.39
2023-02-15 07:16:05:919,-1.54741,3.80958,-8.80629,-23.3598,-9.0823,100.383
2023-02-15 07:16:05:929,-1.55528,3.83893,-8.8143,-23.3776,-9.08569,100.379
2023-02-15 07:16:05:939,-1.54111,3.84574,-8.81667,-23.3986,-9.08976,100.371
2023-02-15 07:16:05:949,-1.53299,3.85638,-8.83004,-23.422,-9.09072,100.366
2023-02-15 07:16:05:959,-1.52739,3.87337,-8.83043,-23.4455,-9.08891,100.364
2023-02-15 07:16:05:969,-1.52792,3.88462,-8.81644,-23.4637,-9.09047,100.359
2023-02-15 07:16:05:979,-1.53618,3.88603,-8.78958,-23.4857,-9.09167,100.351
2023-02-15 07:16:05:989,-1.54411,3.88017,-8.78022,-23.5094,-9.09343,100.343
2023-02-15 07:16:05:999,-1.52272,3.86777,-8.75757,-23.5277,-9.09041,100.337
2023-02-15 07:16:06:9,-1.49902,3.87557,-8.77637,-23.5501,-9.08334,100.332
2023-02-15 07:16:06:19,-1.48717,3.88286,-8.79932,-23.5746,-9.0734,100.324
2023-02-15 07:16:06:29,-1.47532,3.89416,-8.83027,-23.6004,-9.0608,100.319
2023-02-15 07:16:06:39,-1.45746,3.91281,-8.84604,-23.6277,-9.05265,100.314
2023-02-15 07:16:06:49,-1.442,3.93096,-8.87365,-23.6543,-9.03846,100.309
2023-02-15 07:16:06:59,-1.43798,3.94653,-8.9025,-23.6827,-9.02698,100.304
2023-02-15 07:16:06:69,-1.42868,3.96667,-8.90164,-23.7106,-9.01514,100.3
2023-02-15 07:16:06:79,-1.43297,3.98835,-8.88637,-23.7368,-9.00797,100.298
2023-02-15 07:16:06:89,-1.42453,3.98771,-8.87671,-23.7655,-9.00191,100.299
2023-02-15 07:16:06:99,-1.44289,3.98332,-8.87277,-23.7894,-8.99805,100.299
2023-02-15 07:16:06:109,-1.45494,3.99188,-8.89541,-23.812,-8.9957,100.299
2023-02-15 07:16:06:119,-1.45975,3.98897,-8.91863,-23.8328,-8.99734,100.297
2023-02-15 07:16:06:129,-1.4389,3.96755,-8.90122,-23.8443,-8.99572,100.298
2023-02-15 07:16:06:139,-1.41386,3.94404,-8.87409,-23.8525,-8.99562,100.296
2023-02-15 07:16:06:149,-1.43495,3.94064,-8.84609,-23.8592,-9.00067,100.299
2023-02-15 07:16:06:159,-1.44951,3.9293,-8.83485,-23.8687,-9.00781,100.3
2023-02-15 07:16:06:169,-1.46645,3.9132,-8.82146,-23.8715,-9.01501,100.303
2023-02-15 07:16:06:179,-1.48102,3.90164,-8.8228,-23.8791,-9.02143,100.308
2023-02-15 07:16:06:189,-1.47137,3.89502,-8.81816,-23.8881,-9.02913,100.311
2023-02-15 07:16:06:199,-1.46669,3.88794,-8.82191,-23.8978,-9.03272,100.316
2023-02-15 07:16:06:209,-1.45774,3.89468,-8.8011,-23.9049,-9.03677,100.327
2023-02-15 07:16:06:219,-1.44669,3.89166,-8.79909,-23.916,-9.04293,100.334
2023-02-15 07:16:06:229,-1.45301,3.90579,-8.81711,-23.9283,-9.05014,100.341
2023-02-15 07:16:06:239,-1.46386,3.91652,-8.82801,-23.9435,-9.06015,100.349
2023-02-15 07:16:06:249,-1.47271,3.91393,-8.83026,-23.959,-9.07391,100.361
2023-02-15 07:16:06:259,-1.48664,3.9206,-8.84848,-23.974,-9.08915,100.371
2023-02-15 07:16:06:269,-1.48644,3.94056,-8.83804,-23.9855,-9.10738,100.388
2023-02-15 07:16:06:279,-1.4911,3.93485,-8.8197,-23.9989,-9.12462,100.398
2023-02-15 07:16:06:289,-1.48303,3.90334,-8.82092,-24.01,-9.14748,100.413
2023-02-15 07:16:06:299,-1.4912,3.89458,-8.82306,-24.0228,-9.176,100.426
2023-02-15 07:16:06:309,-1.51191,3.89566,-8.80638,-24.0368,-9.20309,100.444
2023-02-15 07:16:06:319,-1.52936,3.89026,-8.77776,-24.0503,-9.23091,100.464
2023-02-15 07:16:06:329,-1.5545,3.91159,-8.77655,-24.0677,-9.2612,100.486
2023-02-15 07:16:06:339,-1.57719,3.92713,-8.78727,-24.0906,-9.28936,100.512
2023-02-15 07:16:06:349,-1.58698,3.95619,-8.79154,-24.1128,-9.31923,100.534
2023-02-15 07:16:06:359,-1.60558,3.96931,-8.77364,-24.1335,-9.34938,100.554
2023-02-15 07:16:06:369,-1.62482,3.98276,-8.75329,-24.1548,-9.37866,100.578
2023-02-15 07:16:06:379,-1.62145,3.996,-8.75291,-24.177,-9.40608,100.602
2023-02-15 07:16:06:389,-1.6208,3.99172,-8.76629,-24.1978,-9.43445,100.625
2023-02-15 07:16:06:399,-1.62402,4.0135,-8.74964,-24.2175,-9.45975,100.643
2023-02-15 07:16:06:409,-1.61313,4.01396,-8.75398,-24.2376,-9.48237,100.663
2023-02-15 07:16:06:419,-1.60772,4.0334,-8.7577,-24.2601,-9.50488,100.682
2023-02-15 07:16:06:429,-1.61903,4.04842,-8.77463,-24.279,-9.52707,100.699
2023-02-15 07:16:06:439,-1.65297,4.05147,-8.77161,-24.3006,-9.54825,100.718
2023-02-15 07:16:06:449,-1.66464,4.06946,-8.77775,-24.3192,-9.57306,100.735
2023-02-15 07:16:06:459,-1.66407,4.09163,-8.81398,-24.3384,-9.59194,100.752
2023-02-15 07:16:06:469,-1.65852,4.10671,-8.83343,-24.3518,-9.61011,100.761
2023-02-15 07:16:06:479,-1.64469,4.09776,-8.83027,-24.3625,-9.6323,100.773
2023-02-15 07:16:06:489,-1.63034,4.08126,-8.82985,-24.3694,-9.65169,100.783
2023-02-15 07:16:06:499,-1.59987,4.06695,-8.82158,-24.3765,-9.66915,100.788
2023-02-15 07:16:06:509,-1.59792,4.04899,-8.801,-24.3762,-9.68888,100.796
2023-02-15 07:16:06:519,-1.61056,4.04412,-8.7968,-24.3817,-9.71275,100.804
2023-02-15 07:16:06:529,-1.5931,4.02753,-8.80801,-24.3834,-9.73733,100.812
2023-02-15 07:16:06:539,-1.62244,4.0139,-8.79669,-24.3843,-9.76201,100.816
2023-02-15 07:16:06:549,-1.63723,4.00496,-8.79169,-24.3874,-9.78854,100.823
2023-02-15 07:16:06:559,-1.62587,4.00601,-8.80018,-24.3857,-9.81387,100.828
2023-02-15 07:16:06:569,-1.63466,3.99171,-8.80367,-24.385,-9.84006,100.831
2023-02-15 07:16:06:579,-1.63921,3.98264,-8.78483,-24.3765,-9.86517,100.829
2023-02-15 07:16:06:589,-1.63556,3.97001,-8.76962,-24.3704,-9.88985,100.83
2023-02-15 07:16:06:599,-1.64503,3.94923,-8.75108,-24.36,-9.91085,100.833
2023-02-15 07:16:06:609,-1.6408,3.92329,-8.76698,-24.3535,-9.93264,100.832
2023-02-15 07:16:06:619,-1.62427,3.91954,-8.7759,-24.3451,-9.955,100.834
2023-02-15 07:16:06:629,-1.64566,3.93737,-8.77025,-24.3414,-9.97873,100.837
2023-02-15 07:16:06:639,-1.66649,3.91583,-8.74525,-24.3377,-10.0017,100.841
2023-02-15 07:16:06:649,-1.66372,3.90054,-8.73165,-24.3349,-10.0227,100.846
2023-02-15 07:16:06:659,-1.66047,3.8976,-8.71828,-24.3322,-10.0446,100.853
2023-02-15 07:16:06:669,-1.68393,3.89747,-8.68273,-24.3322,-10.064,100.857
2023-02-15 07:16:06:679,-1.72289,3.92516,-8.69602,-24.3384,-10.0801,100.862
2023-02-15 07:16:06:689,-1.74484,3.97564,-8.73954,-24.3481,-10.0944,100.868
2023-02-15 07:16:06:699,-1.76733,4.00913,-8.77315,-24.3597,-10.1098,100.869
2023-02-15 07:16:06:709,-1.7864,4.02305,-8.80622,-24.3643,-10.1211,100.869
2023-02-15 07:16:06:719,-1.79361,4.0425,-8.85153,-24.3696,-10.1295,100.867
2023-02-15 07:16:06:729,-1.7706,4.06145,-8.92125,-24.3696,-10.14,100.862
2023-02-15 07:16:06:739,-1.73184,4.06993,-8.93736,-24.3641,-10.1461,100.856
2023-02-15 07:16:06:749,-1.71831,4.02213,-8.88792,-24.3528,-10.1534,100.849
2023-02-15 07:16:06:759,-1.73251,3.97999,-8.85266,-24.3402,-10.1671,100.836
2023-02-15 07:16:06:769,-1.7547,3.9712,-8.81603,-24.3234,-10.185,100.821
2023-02-15 07:16:06:779,-1.77141,3.97599,-8.76596,-24.3054,-10.1966,100.807
2023-02-15 07:16:06:789,-1.7927,3.96078,-8.73126,-24.2906,-10.2065,100.794
2023-02-15 07:16:06:799,-1.81024,3.95722,-8.71296,-24.2768,-10.2174,100.781
2023-02-15 07:16:06:809,-1.78337,3.96998,-8.71249,-24.2635,-10.2231,100.764
2023-02-15 07:16:06:819,-1.78207,3.95169,-8.71558,-24.2565,-10.224,100.748
2023-02-15 07:16:06:829,-1.77756,3.96057,-8.71746,-24.2474,-10.2262,100.727
2023-02-15 07:16:06:839,-1.77707,3.95033,-8.73632,-24.2336,-10.223,100.702
2023-02-15 07:16:06:849,-1.77215,3.93799,-8.75554,-24.2193,-10.2222,100.676
2023-02-15 07:16:06:859,-1.76497,3.92971,-8.75971,-24.204,-10.2219,100.645
2023-02-15 07:16:06:869,-1.75588,3.92061,-8.73436,-24.1895,-10.218,100.611
2023-02-15 07:16:06:879,-1.73318,3.89264,-8.72269,-24.1736,-10.213,100.575
2023-02-15 07:16:06:889,-1.7287,3.88803,-8.72978,-24.1638,-10.2075,100.54
2023-02-15 07:16:06:899,-1.7216,3.89893,-8.72918,-24.1556,-10.1983,100.501
2023-02-15 07:16:06:909,-1.69922,3.88889,-8.73423,-24.1534,-10.1888,100.462
2023-02-15 07:16:06:919,-1.67253,3.91428,-8.75873,-24.1511,-10.1758,100.421
2023-02-15 07:16:06:929,-1.63795,3.93193,-8.79984,-24.1515,-10.1629,100.379
2023-02-15 07:16:06:939,-1.61985,3.94438,-8.81982,-24.1524,-10.1509,100.339
2023-02-15 07:16:06:949,-1.61526,3.95746,-8.79705,-24.1521,-10.1392,100.304
2023-02-15 07:16:06:959,-1.6019,3.95554,-8.77672,-24.1544,-10.1259,100.268
2023-02-15 07:16:06:969,-1.59923,3.95694,-8.77237,-24.1536,-10.1111,100.237
2023-02-15 07:16:06:979,-1.62318,3.98531,-8.82299,-24.1518,-10.1017,100.203
2023-02-15 07:16:06:989,-1.62914,3.98134,-8.83914,-24.1498,-10.0909,100.174
2023-02-15 07:16:06:999,-1.61499,3.96168,-8.80096,-24.1495,-10.0734,100.144
2023-02-15 07:16:07:9,-1.60581,3.95975,-8.80137,-24.1441,-10.0608,100.114
2023-02-15 07:16:07:19,-1.61057,3.97319,-8.81487,-24.1379,-10.0559,100.089
2023-02-15 07:16:07:29,-1.63194,3.96346,-8.8081,-24.1311,-10.0495,100.063
2023-02-15 07:16:07:39,-1.64286,3.94864,-8.79606,-24.1255,-10.0443,100.04
2023-02-15 07:16:07:49,-1.62522,3.95811,-8.80635,-24.1227,-10.0395,100.015
2023-02-15 07:16:07:59,-1.61244,3.96584,-8.83331,-24.1191,-10.0325,99.9904
2023-02-15 07:16:07:69,-1.59253,3.9696,-8.85691,-24.1108,-10.0248,99.9685
2023-02-15 07:16:07:79,-1.5607,3.97442,-8.86742,-24.1046,-10.0151,99.9463
2023-02-15 07:16:07:89,-1.54214,3.95788,-8.86103,-24.0963,-10.0071,99.9271
2023-02-15 07:16:07:99,-1.56106,3.94542,-8.85363,-24.0856,-10.0044,99.9093
2023-02-15 07:16:07:109,-1.56924,3.94618,-8.83829,-24.0745,-10.0043,99.8899
2023-02-15 07:16:07:119,-1.58386,3.9382,-8.84321,-24.0619,-10.0119,99.8748
2023-02-15 07:16:07:129,-1.59743,3.9349,-8.84321,-24.0469,-10.0181,99.8618
2023-02-15 07:16:07:139,-1.61417,3.93029,-8.84788,-24.03,-10.0291,99.8473
2023-02-15 07:16:07:149,-1.60226,3.91062,-8.8415,-24.0098,-10.0443,99.8395
2023-02-15 07:16:07:159,-1.61927,3.88873,-8.82133,-23.9883,-10.0566,99.8312
2023-02-15 07:16:07:169,-1.62503,3.87343,-8.80829,-23.9675,-10.0691,99.8227
2023-02-15 07:16:07:179,-1.62642,3.85375,-8.81751,-23.9465,-10.0876,99.8162
2023-02-15 07:16:07:189,-1.66274,3.83255,-8.8101,-23.9252,-10.103,99.8149
2023-02-15 07:16:07:199,-1.69508,3.82528,-8.78439,-23.9089,-10.1205,99.8163
2023-02-15 07:16:07:209,-1.69536,3.81663,-8.76277,-23.8922,-10.1393,99.8183
2023-02-15 07:16:07:219,-1.70467,3.79504,-8.73448,-23.88,-10.1563,99.8206
2023-02-15 07:16:07:229,-1.72345,3.79032,-8.72257,-23.8705,-10.1711,99.8256
2023-02-15 07:16:07:239,-1.72816,3.81543,-8.74001,-23.8652,-10.1801,99.8336
2023-02-15 07:16:07:249,-1.73079,3.82731,-8.75944,-23.8633,-10.1847,99.8413
2023-02-15 07:16:07:259,-1.74064,3.85091,-8.76473,-23.8638,-10.1846,99.8481
2023-02-15 07:16:07:269,-1.72063,3.85936,-8.78186,-23.8643,-10.1844,99.8557
2023-02-15 07:16:07:279,-1.71249,3.86189,-8.78732,-23.8703,-10.1834,99.8635
2023-02-15 07:16:07:289,-1.73202,3.86044,-8.77648,-23.8721,-10.1844,99.8698
2023-02-15 07:16:07:299,-1.74144,3.861,-8.75553,-23.8745,-10.1848,99.8738
2023-02-15 07:16:07:309,-1.73828,3.86522,-8.75882,-23.877,-10.1875,99.8757
2023-02-15 07:16:07:319,-1.73114,3.87543,-8.79717,-23.8857,-10.1895,99.8806
2023-02-15 07:16:07:329,-1.72201,3.89426,-8.81952,-23.8914,-10.1918,99.8781
2023-02-15 07:16:07:339,-1.69793,3.90423,-8.82858,-23.9012,-10.1961,99.8809
2023-02-15 07:16:07:349,-1.67563,3.91055,-8.83112,-23.9085,-10.1968,99.8785
2023-02-15 07:16:07:359,-1.68403,3.91875,-8.80583,-23.9117,-10.1971,99.8764
2023-02-15 07:16:07:369,-1.69675,3.92229,-8.805,-23.9145,-10.2007,99.8771
2023-02-15 07:16:07:379,-1.70768,3.93076,-8.79762,-23.9197,-10.1997,99.8791
2023-02-15 07:16:07:389,-1.71698,3.91803,-8.8046,-23.9254,-10.1974,99.8793
2023-02-15 07:16:07:399,-1.71201,3.9281,-8.79812,-23.9281,-10.192,99.8834
2023-02-15 07:16:07:409,-1.72315,3.93411,-8.79861,-23.9308,-10.1864,99.8871
2023-02-15 07:16:07:419,-1.72158,3.92777,-8.80939,-23.9337,-10.1842,99.8891
2023-02-15 07:16:07:429,-1.69904,3.91893,-8.81355,-23.9345,-10.1777,99.8922
2023-02-15 07:16:07:439,-1.70182,3.90436,-8.81069,-23.932,-10.1725,99.8943
2023-02-15 07:16:07:449,-1.70976,3.88067,-8.79491,-23.9296,-10.1668,99.8943
2023-02-15 07:16:07:459,-1.71526,3.86749,-8.78732,-23.9305,-10.162,99.8944
2023-02-15 07:16:07:469,-1.70837,3.87311,-8.79805,-23.9288,-10.1562,99.8954
2023-02-15 07:16:07:479,-1.70726,3.88076,-8.78333,-23.9288,-10.1529,99.8947
2023-02-15 07:16:07:489,-1.7045,3.87055,-8.76651,-23.9273,-10.1473,99.893
2023-02-15 07:16:07:499,-1.68081,3.8656,-8.79652,-23.9239,-10.1446,99.8902
2023-02-15 07:16:07:509,-1.65003,3.86774,-8.84335,-23.9225,-10.1393,99.8879
2023-02-15 07:16:07:519,-1.63377,3.86606,-8.84189,-23.9214,-10.1336,99.8853
2023-02-15 07:16:07:529,-1.6186,3.86775,-8.82266,-23.9225,-10.1284,99.8846
2023-02-15 07:16:07:539,-1.60619,3.84696,-8.80467,-23.9251,-10.1255,99.8864
2023-02-15 07:16:07:549,-1.65412,3.85027,-8.78949,-23.9303,-10.1308,99.8899
2023-02-15 07:16:07:559,-1.70152,3.88185,-8.78851,-23.9395,-10.1349,99.8967
2023-02-15 07:16:07:569,-1.72699,3.89419,-8.78684,-23.9531,-10.1402,99.9079
2023-02-15 07:16:07:579,-1.73586,3.91813,-8.78987,-23.9688,-10.143,99.917
2023-02-15 07:16:07:589,-1.72926,3.93726,-8.77397,-23.9895,-10.1483,99.9247
2023-02-15 07:16:07:599,-1.70342,3.94722,-8.76268,-24.0033,-10.1479,99.9305
2023-02-15 07:16:07:609,-1.68924,3.95993,-8.75868,-24.0172,-10.1438,99.9365
2023-02-15 07:16:07:619,-1.69747,3.96054,-8.76127,-24.0305,-10.141,99.9417
2023-02-15 07:16:07:629,-1.70985,3.9432,-8.76479,-24.0444,-10.1407,99.9482
2023-02-15 07:16:07:639,-1.70662,3.93031,-8.75153,-24.0533,-10.1426,99.9528
2023-02-15 07:16:07:649,-1.67704,3.91885,-8.76403,-24.0653,-10.1433,99.9569
2023-02-15 07:16:07:659,-1.66488,3.94291,-8.76299,-24.0738,-10.1392,99.9618
2023-02-15 07:16:07:669,-1.66367,3.9559,-8.77353,-24.0863,-10.1363,99.9644
2023-02-15 07:16:07:679,-1.67285,3.95336,-8.80028,-24.099,-10.13,99.9696
2023-02-15 07:16:07:689,-1.67783,3.96756,-8.79803,-24.1101,-10.1234,99.9758
2023-02-15 07:16:07:699,-1.69142,3.98498,-8.81559,-24.1229,-10.1219,99.9797
2023-02-15 07:16:07:709,-1.68868,3.99749,-8.83702,-24.1332,-10.1161,99.988
2023-02-15 07:16:07:719,-1.68457,3.99128,-8.83054,-24.145,-10.1113,99.9938
2023-02-15 07:16:07:729,-1.67898,3.99304,-8.7902,-24.1528,-10.107,99.9982
2023-02-15 07:16:07:739,-1.6845,3.98767,-8.75765,-24.1606,-10.1036,100.002
2023-02-15 07:16:07:749,-1.69871,3.98253,-8.75812,-24.1678,-10.0969,100.005
2023-02-15 07:16:07:759,-1.71526,4.001,-8.78499,-24.1797,-10.0928,100.005
2023-02-15 07:16:07:769,-1.70009,3.98855,-8.78857,-24.1829,-10.0844,100.004
2023-02-15 07:16:07:779,-1.63959,3.95198,-8.77271,-24.188,-10.0747,100.002
2023-02-15 07:16:07:789,-1.6214,3.94483,-8.77627,-24.1899,-10.066,99.998
2023-02-15 07:16:07:799,-1.66881,3.94629,-8.79177,-24.194,-10.0636,99.9981
2023-02-15 07:16:07:809,-1.69787,3.95384,-8.77836,-24.1982,-10.0643,99.9989
2023-02-15 07:16:07:819,-1.69133,3.95483,-8.7846,-24.2019,-10.063,99.9924
2023-02-15 07:16:07:829,-1.66507,3.9561,-8.78894,-24.2064,-10.0607,99.9867
2023-02-15 07:16:07:839,-1.6356,3.96597,-8.81964,-24.2128,-10.0544,99.981
2023-02-15 07:16:07:849,-1.58664,3.98468,-8.83981,-24.2161,-10.0465,99.9758
2023-02-15 07:16:07:859,-1.54286,3.9723,-8.84662,-24.2169,-10.0384,99.9701
2023-02-15 07:16:07:869,-1.54187,3.97064,-8.8234,-24.217,-10.0323,99.9692
2023-02-15 07:16:07:879,-1.57824,3.95876,-8.80195,-24.2174,-10.03,99.967
2023-02-15 07:16:07:889,-1.6128,3.94948,-8.79716,-24.2233,-10.033,99.9732
2023-02-15 07:16:07:899,-1.61741,3.92842,-8.77315,-24.2253,-10.0384,99.9791
2023-02-15 07:16:07:909,-1.6361,3.91588,-8.7556,-24.227,-10.0404,99.985
2023-02-15 07:16:07:919,-1.66757,3.90398,-8.75829,-24.2279,-10.0479,99.991
2023-02-15 07:16:07:929,-1.67399,3.92109,-8.7855,-24.2305,-10.0523,99.9992
2023-02-15 07:16:07:939,-1.6603,3.94263,-8.79955,-24.2334,-10.0553,100.002
2023-02-15 07:16:07:949,-1.63565,3.94074,-8.78584,-24.2385,-10.0601,100.008
2023-02-15 07:16:07:959,-1.64145,3.94759,-8.79101,-24.2456,-10.0646,100.012
2023-02-15 07:16:07:969,-1.63481,3.9552,-8.80175,-24.2504,-10.0705,100.016
2023-02-15 07:16:07:979,-1.61654,3.96128,-8.81568,-24.2536,-10.0789,100.024
2023-02-15 07:16:07:989,-1.63169,3.9527,-8.80567,-24.2583,-10.0867,100.03
2023-02-15 07:16:07:999,-1.64945,3.94343,-8.78928,-24.2648,-10.0994,100.042
2023-02-15 07:16:08:9,-1.67197,3.95415,-8.78091,-24.2689,-10.11,100.056
2023-02-15 07:16:08:19,-1.6852,3.95919,-8.78168,-24.2731,-10.1187,100.068
2023-02-15 07:16:08:29,-1.70695,3.95358,-8.78054,-24.2787,-10.1274,100.077
2023-02-15 07:16:08:39,-1.71473,3.95118,-8.77963,-24.2815,-10.1341,100.088
2023-02-15 07:16:08:49,-1.72642,3.94156,-8.7586,-24.2825,-10.1371,100.098
2023-02-15 07:16:08:59,-1.73741,3.94053,-8.74452,-24.2861,-10.1446,100.108
2023-02-15 07:16:08:69,-1.74523,3.94107,-8.75759,-24.2894,-10.1507,100.117
2023-02-15 07:16:08:79,-1.74226,3.96518,-8.76018,-24.2951,-10.1602,100.123
2023-02-15 07:16:08:89,-1.72687,3.97804,-8.78905,-24.3022,-10.1688,100.13
2023-02-15 07:16:08:99,-1.68798,3.98276,-8.80174,-24.3057,-10.1762,100.133
2023-02-15 07:16:08:109,-1.6857,3.99217,-8.78842,-24.3082,-10.1826,100.135
2023-02-15 07:16:08:119,-1.68291,3.99691,-8.7664,-24.3089,-10.1906,100.138
2023-02-15 07:16:08:129,-1.67443,3.99323,-8.77653,-24.3093,-10.1965,100.139
2023-02-15 07:16:08:139,-1.66811,3.98424,-8.78872,-24.3153,-10.2014,100.138
2023-02-15 07:16:08:149,-1.66986,3.99193,-8.77924,-24.3182,-10.2092,100.141
2023-02-15 07:16:08:159,-1.68861,3.99844,-8.77503,-24.3199,-10.2183,100.144
2023-02-15 07:16:08:169,-1.68257,4.01136,-8.76331,-24.3216,-10.2232,100.146
2023-02-15 07:16:08:179,-1.69095,4.01183,-8.76379,-24.3239,-10.2321,100.149
2023-02-15 07:16:08:189,-1.69078,4.01636,-8.77055,-24.3228,-10.2388,100.149
2023-02-15 07:16:08:200,-1.69367,4.01219,-8.79517,-24.3239,-10.2467,100.148
2023-02-15 07:16:08:209,-1.68075,4.02419,-8.79891,-24.3243,-10.2547,100.149
2023-02-15 07:16:08:219,-1.65314,4.01705,-8.78099,-24.3227,-10.2624,100.153
2023-02-15 07:16:08:229,-1.64091,4.00552,-8.77968,-24.3187,-10.2677,100.155
2023-02-15 07:16:08:239,-1.64377,4.01169,-8.78008,-24.3145,-10.2758,100.157
2023-02-15 07:16:08:249,-1.65005,3.99748,-8.79155,-24.3083,-10.2862,100.16
2023-02-15 07:16:08:259,-1.64925,3.98053,-8.7862,-24.301,-10.2965,100.164
2023-02-15 07:16:08:269,-1.63643,3.97217,-8.79952,-24.2899,-10.3048,100.171
2023-02-15 07:16:08:279,-1.6156,3.95935,-8.83279,-24.2803,-10.3131,100.18
2023-02-15 07:16:08:289,-1.61172,3.95123,-8.81509,-24.2711,-10.3244,100.194
2023-02-15 07:16:08:299,-1.61837,3.92964,-8.78667,-24.2632,-10.3386,100.211
2023-02-15 07:16:08:309,-1.66231,3.92153,-8.77456,-24.2564,-10.3582,100.23
2023-02-15 07:16:08:319,-1.74722,3.92903,-8.76454,-24.2517,-10.3842,100.247
2023-02-15 07:16:08:329,-1.80747,3.93794,-8.74797,-24.2465,-10.4123,100.268
2023-02-15 07:16:08:339,-1.83372,3.93808,-8.71962,-24.2442,-10.4387,100.289
2023-02-15 07:16:08:349,-1.84195,3.93902,-8.69998,-24.2422,-10.4638,100.309
2023-02-15 07:16:08:359,-1.83815,3.93381,-8.7013,-24.2427,-10.4849,100.325
2023-02-15 07:16:08:369,-1.82833,3.94608,-8.7008,-24.2455,-10.5022,100.342
2023-02-15 07:16:08:379,-1.8442,3.95306,-8.70969,-24.2472,-10.5196,100.351
2023-02-15 07:16:08:389,-1.85277,3.95922,-8.71117,-24.2509,-10.5358,100.359
2023-02-15 07:16:08:399,-1.84119,3.97407,-8.70933,-24.2546,-10.5508,100.365
2023-02-15 07:16:08:409,-1.82276,3.97852,-8.72546,-24.2547,-10.5684,100.366
2023-02-15 07:16:08:419,-1.79157,3.97988,-8.73853,-24.2553,-10.5807,100.365
2023-02-15 07:16:08:429,-1.75955,3.97723,-8.7507,-24.2554,-10.589,100.362
2023-02-15 07:16:08:439,-1.7551,3.98573,-8.74982,-24.2555,-10.5988,100.361
2023-02-15 07:16:08:449,-1.76594,3.98672,-8.75693,-24.257,-10.6075,100.36
2023-02-15 07:16:08:459,-1.77209,4.00668,-8.76793,-24.2599,-10.6182,100.358
2023-02-15 07:16:08:469,-1.78419,4.02107,-8.78223,-24.2591,-10.6219,100.359
2023-02-15 07:16:08:479,-1.78261,4.03371,-8.77485,-24.2583,-10.6272,100.36
2023-02-15 07:16:08:489,-1.78758,4.04011,-8.75625,-24.2592,-10.6296,100.359
2023-02-15 07:16:08:499,-1.78039,4.03441,-8.74671,-24.259,-10.6324,100.355
2023-02-15 07:16:08:509,-1.78137,4.04054,-8.74267,-24.26,-10.6328,100.355
2023-02-15 07:16:08:519,-1.77444,4.07483,-8.76646,-24.261,-10.6335,100.353
2023-02-15 07:16:08:529,-1.76888,4.08838,-8.8083,-24.2606,-10.6349,100.348
2023-02-15 07:16:08:539,-1.73139,4.0607,-8.79727,-24.2535,-10.636,100.341
2023-02-15 07:16:08:549,-1.68243,4.04748,-8.77866,-24.2441,-10.6353,100.333
2023-02-15 07:16:08:559,-1.6753,4.03753,-8.78039,-24.2308,-10.6378,100.327
2023-02-15 07:16:08:569,-1.70419,4.03613,-8.7731,-24.217,-10.6427,100.324
2023-02-15 07:16:08:579,-1.73229,4.0281,-8.77294,-24.1981,-10.6538,100.321
2023-02-15 07:16:08:589,-1.74696,4.01694,-8.77516,-24.1825,-10.6624,100.317
2023-02-15 07:16:08:599,-1.75065,4.00161,-8.77691,-24.168,-10.6672,100.315
2023-02-15 07:16:08:609,-1.72083,3.98564,-8.78095,-24.1489,-10.6744,100.308
2023-02-15 07:16:08:619,-1.71348,3.95655,-8.77877,-24.1321,-10.6768,100.304
2023-02-15 07:16:08:629,-1.72013,3.92969,-8.7892,-24.1171,-10.6799,100.299
2023-02-15 07:16:08:639,-1.7337,3.92699,-8.77582,-24.1006,-10.689,100.295
2023-02-15 07:16:08:649,-1.76787,3.92415,-8.7774,-24.0874,-10.7008,100.293
2023-02-15 07:16:08:659,-1.77345,3.93204,-8.76334,-24.0764,-10.7136,100.291
2023-02-15 07:16:08:669,-1.77741,3.92402,-8.76172,-24.0645,-10.728,100.288
2023-02-15 07:16:08:679,-1.79727,3.91499,-8.74629,-24.0507,-10.7398,100.286
2023-02-15 07:16:08:689,-1.78527,3.89123,-8.75286,-24.0376,-10.7569,100.281
2023-02-15 07:16:08:699,-1.77964,3.87678,-8.75464,-24.0238,-10.7709,100.278
2023-02-15 07:16:08:709,-1.77831,3.87287,-8.76323,-24.0094,-10.7855,100.271
2023-02-15 07:16:08:719,-1.77975,3.8677,-8.77772,-23.9972,-10.8007,100.264
2023-02-15 07:16:08:729,-1.79519,3.87615,-8.79318,-23.9833,-10.8176,100.257
2023-02-15 07:16:08:739,-1.81728,3.88166,-8.80581,-23.9705,-10.8338,100.256
2023-02-15 07:16:08:749,-1.84257,3.88031,-8.81284,-23.956,-10.8504,100.252
2023-02-15 07:16:08:759,-1.85327,3.87684,-8.82594,-23.9444,-10.8641,100.249
2023-02-15 07:16:08:769,-1.85019,3.87797,-8.84489,-23.9283,-10.8784,100.248
2023-02-15 07:16:08:779,-1.85924,3.87124,-8.83396,-23.9105,-10.8958,100.244
2023-02-15 07:16:08:789,-1.86738,3.84074,-8.81741,-23.8913,-10.91,100.241
2023-02-15 07:16:08:799,-1.85787,3.83133,-8.8117,-23.8715,-10.9307,100.234
2023-02-15 07:16:08:809,-1.85636,3.82259,-8.81143,-23.849,-10.9434,100.226
2023-02-15 07:16:08:819,-1.85999,3.80121,-8.79765,-23.8269,-10.9559,100.22
2023-02-15 07:16:08:829,-1.85678,3.77377,-8.78991,-23.8014,-10.9665,100.213
2023-02-15 07:16:08:839,-1.86842,3.76816,-8.76956,-23.7754,-10.9785,100.21
2023-02-15 07:16:08:849,-1.88536,3.75302,-8.77742,-23.7573,-10.9912,100.205
2023-02-15 07:16:08:859,-1.91346,3.75748,-8.78892,-23.7376,-11.0004,100.202
2023-02-15 07:16:08:869,-1.94971,3.75022,-8.79297,-23.7178,-11.0113,100.196
2023-02-15 07:16:08:879,-1.96266,3.7317,-8.78657,-23.6964,-11.023,100.184
2023-02-15 07:16:08:889,-1.96017,3.72687,-8.78003,-23.6784,-11.0288,100.173
2023-02-15 07:16:08:899,-1.95521,3.7421,-8.77001,-23.6602,-11.0347,100.159
2023-02-15 07:16:08:909,-1.95095,3.73008,-8.77008,-23.6451,-11.0417,100.141
2023-02-15 07:16:08:919,-1.94685,3.72024,-8.77835,-23.6285,-11.0476,100.118
2023-02-15 07:16:08:929,-1.93856,3.73581,-8.77543,-23.6131,-11.0514,100.093
2023-02-15 07:16:08:939,-1.91204,3.74041,-8.77346,-23.6025,-11.0526,100.067
2023-02-15 07:16:08:949,-1.8919,3.73343,-8.77582,-23.5924,-11.0503,100.037
2023-02-15 07:16:08:959,-1.90792,3.74092,-8.75995,-23.5849,-11.0497,100.007
2023-02-15 07:16:08:969,-1.92712,3.74642,-8.74209,-23.5817,-11.0504,99.972
2023-02-15 07:16:08:979,-1.90983,3.7653,-8.75794,-23.5801,-11.0513,99.9357
2023-02-15 07:16:08:989,-1.90765,3.79088,-8.76881,-23.5788,-11.0555,99.8959
2023-02-15 07:16:08:999,-1.93116,3.79447,-8.76875,-23.5803,-11.0588,99.8537
2023-02-15 07:16:09:9,-1.92881,3.78747,-8.77345,-23.5795,-11.0587,99.8112
2023-02-15 07:16:09:19,-1.91754,3.77982,-8.76614,-23.5797,-11.0601,99.7635
2023-02-15 07:16:09:29,-1.88995,3.77935,-8.76691,-23.575,-11.0574,99.7155
2023-02-15 07:16:09:39,-1.88935,3.78602,-8.74463,-23.5744,-11.0544,99.6668
2023-02-15 07:16:09:49,-1.89049,3.77908,-8.72981,-23.5775,-11.0464,99.6186
2023-02-15 07:16:09:59,-1.88546,3.78298,-8.75447,-23.5828,-11.0334,99.5687
2023-02-15 07:16:09:69,-1.85244,3.81401,-8.7872,-23.5902,-11.0187,99.5187
2023-02-15 07:16:09:79,-1.84564,3.81075,-8.78425,-23.5944,-11.0069,99.4693
2023-02-15 07:16:09:89,-1.87289,3.81044,-8.73949,-23.6046,-10.9957,99.4193
2023-02-15 07:16:09:99,-1.93192,3.82519,-8.72572,-23.6213,-10.9907,99.3709
2023-02-15 07:16:09:109,-1.98995,3.86118,-8.73357,-23.6439,-10.9857,99.3211
2023-02-15 07:16:09:119,-2.02739,3.8988,-8.7281,-23.6655,-10.9822,99.2668
2023-02-15 07:16:09:129,-2.02704,3.93569,-8.74841,-23.6924,-10.9795,99.2148
2023-02-15 07:16:09:139,-1.99619,3.96793,-8.74825,-23.7176,-10.9745,99.1543
2023-02-15 07:16:09:149,-1.95479,3.98221,-8.77058,-23.7412,-10.965,99.0836
2023-02-15 07:16:09:159,-1.92612,3.99015,-8.78171,-23.763,-10.9514,99.0154
2023-02-15 07:16:09:169,-1.88757,3.98931,-8.76775,-23.7825,-10.9353,98.9423
2023-02-15 07:16:09:179,-1.86527,3.9837,-8.76973,-23.7971,-10.9173,98.866
2023-02-15 07:16:09:189,-1.83826,3.99112,-8.78653,-23.8099,-10.9001,98.7899
2023-02-15 07:16:09:199,-1.83335,3.99088,-8.79688,-23.8203,-10.8811,98.7117
2023-02-15 07:16:09:209,-1.86719,3.99224,-8.81601,-23.83,-10.8608,98.637
2023-02-15 07:16:09:219,-1.89544,3.99048,-8.79843,-23.835,-10.8447,98.5601
2023-02-15 07:16:09:229,-1.89882,3.96435,-8.77632,-23.8379,-10.8266,98.481
2023-02-15 07:16:09:239,-1.8863,3.96069,-8.77229,-23.8384,-10.8065,98.3972
2023-02-15 07:16:09:249,-1.85623,3.93835,-8.77144,-23.843,-10.7888,98.3105
2023-02-15 07:16:09:259,-1.81807,3.91542,-8.77391,-23.8458,-10.7674,98.2202
2023-02-15 07:16:09:269,-1.81171,3.91817,-8.77107,-23.8496,-10.7496,98.1326
2023-02-15 07:16:09:279,-1.82167,3.93464,-8.74524,-23.852,-10.7285,98.043
2023-02-15 07:16:09:289,-1.81397,3.94367,-8.71842,-23.8564,-10.7112,97.9531
2023-02-15 07:16:09:299,-1.84683,3.94207,-8.73592,-23.8632,-10.6902,97.8642
2023-02-15 07:16:09:309,-1.86778,3.96104,-8.78084,-23.8663,-10.6659,97.7719
2023-02-15 07:16:09:319,-1.84675,3.9602,-8.7869,-23.8707,-10.6387,97.6767
2023-02-15 07:16:09:329,-1.80813,3.92861,-8.76791,-23.8693,-10.6078,97.5778
2023-02-15 07:16:09:339,-1.75886,3.9123,-8.79699,-23.8709,-10.579,97.4766
2023-02-15 07:16:09:349,-1.72856,3.93131,-8.82824,-23.8719,-10.5596,97.3736
2023-02-15 07:16:09:359,-1.73792,3.91813,-8.83271,-23.8692,-10.5388,97.269
2023-02-15 07:16:09:369,-1.7377,3.91592,-8.8486,-23.8677,-10.5226,97.1614
2023-02-15 07:16:09:379,-1.72796,3.94715,-8.85438,-23.8662,-10.5042,97.0565
2023-02-15 07:16:09:389,-1.69914,3.95154,-8.86858,-23.8609,-10.4879,96.9465
2023-02-15 07:16:09:399,-1.69513,3.97613,-8.88157,-23.8565,-10.4736,96.8375
2023-02-15 07:16:09:409,-1.6855,3.98369,-8.88917,-23.8495,-10.461,96.7324
2023-02-15 07:16:09:419,-1.63019,3.97957,-8.88583,-23.8383,-10.4481,96.6277
2023-02-15 07:16:09:429,-1.62586,3.96457,-8.86714,-23.8234,-10.4333,96.5304
2023-02-15 07:16:09:439,-1.60721,3.94464,-8.86374,-23.8039,-10.4195,96.432
2023-02-15 07:16:09:449,-1.58161,3.9146,-8.8417,-23.7808,-10.4075,96.3406
2023-02-15 07:16:09:459,-1.57619,3.8797,-8.82421,-23.7528,-10.3948,96.25
2023-02-15 07:16:09:469,-1.56566,3.85785,-8.82008,-23.7237,-10.382,96.1642
2023-02-15 07:16:09:479,-1.55494,3.84028,-8.84314,-23.6965,-10.3717,96.0835
2023-02-15 07:16:09:489,-1.54533,3.83629,-8.85248,-23.6665,-10.3613,96.0048
2023-02-15 07:16:09:499,-1.55173,3.82308,-8.85868,-23.6412,-10.3547,95.9332
2023-02-15 07:16:09:509,-1.54857,3.80327,-8.83914,-23.6156,-10.3503,95.8637
2023-02-15 07:16:09:519,-1.53104,3.78779,-8.84167,-23.5919,-10.3458,95.8023
2023-02-15 07:16:09:529,-1.54134,3.77931,-8.83852,-23.5662,-10.3471,95.7421
2023-02-15 07:16:09:539,-1.55617,3.76298,-8.81418,-23.5445,-10.352,95.6892
2023-02-15 07:16:09:549,-1.57314,3.76588,-8.80071,-23.5255,-10.3535,95.6431
2023-02-15 07:16:09:559,-1.57988,3.78462,-8.79319,-23.5096,-10.3608,95.6059
2023-02-15 07:16:09:569,-1.58725,3.78778,-8.80891,-23.4963,-10.3693,95.5723
2023-02-15 07:16:09:579,-1.60336,3.78308,-8.80483,-23.4883,-10.3703,95.5424
2023-02-15 07:16:09:589,-1.62277,3.79458,-8.79852,-23.4801,-10.3729,95.5207
2023-02-15 07:16:09:599,-1.64205,3.79403,-8.78574,-23.4726,-10.3776,95.5036
2023-02-15 07:16:09:609,-1.66514,3.78918,-8.77883,-23.4644,-10.3801,95.4912
2023-02-15 07:16:09:619,-1.69019,3.78986,-8.78384,-23.4609,-10.3818,95.4802
2023-02-15 07:16:09:629,-1.70852,3.78057,-8.80114,-23.4564,-10.3821,95.4706
2023-02-15 07:16:09:639,-1.70988,3.79139,-8.82284,-23.4556,-10.3791,95.4674
2023-02-15 07:16:09:649,-1.73821,3.8279,-8.82744,-23.4559,-10.3775,95.4604
2023-02-15 07:16:09:659,-1.75737,3.84843,-8.84609,-23.4561,-10.3743,95.4533
2023-02-15 07:16:09:669,-1.75396,3.85936,-8.84277,-23.4554,-10.3696,95.4471
2023-02-15 07:16:09:679,-1.7488,3.87437,-8.85142,-23.4568,-10.361,95.4423
2023-02-15 07:16:09:689,-1.73944,3.87263,-8.85905,-23.4516,-10.3574,95.4324
2023-02-15 07:16:09:699,-1.73014,3.86302,-8.8376,-23.446,-10.3501,95.423
2023-02-15 07:16:09:709,-1.73019,3.85749,-8.80567,-23.4435,-10.3445,95.4157
2023-02-15 07:16:09:719,-1.72781,3.84924,-8.78472,-23.4393,-10.3371,95.4037
2023-02-15 07:16:09:729,-1.73834,3.85135,-8.79184,-23.439,-10.3328,95.3868
2023-02-15 07:16:09:739,-1.74094,3.87502,-8.8089,-23.44,-10.3265,95.3737
2023-02-15 07:16:09:749,-1.73594,3.88916,-8.81657,-23.4401,-10.3195,95.3589
2023-02-15 07:16:09:759,-1.73352,3.90303,-8.82584,-23.4452,-10.311,95.3392
2023-02-15 07:16:09:769,-1.70837,3.91922,-8.84923,-23.4436,-10.3008,95.3244
2023-02-15 07:16:09:779,-1.69711,3.92705,-8.85295,-23.439,-10.2882,95.3027
