Timestamp,Acceleration_x,Acceleration_y,Acceleration_z,roll,pitch,yaw
2023-02-16 04:36:00:699,-2.28289,0.199183,-9.53152,-0.128215,-12.8426,93.2677
2023-02-16 04:36:00:707,-2.29104,0.215424,-9.57631,-0.13392,-12.8373,93.2963
2023-02-16 04:36:00:717,-2.29247,0.246562,-9.63416,-0.13736,-12.8347,93.3219
2023-02-16 04:36:00:727,-2.25272,0.232289,-9.67785,-0.128339,-12.8283,93.3448
2023-02-16 04:36:00:737,-2.20434,0.159674,-9.66857,-0.109351,-12.8258,93.3607
2023-02-16 04:36:00:748,-2.21641,0.0809553,-9.60434,-0.0761615,-12.8281,93.3766
2023-02-16 04:36:00:757,-2.24506,0.000429036,-9.56516,-0.0328758,-12.8338,93.3869
2023-02-16 04:36:00:767,-2.23139,-0.034496,-9.55181,0.00935923,-12.8424,93.4011
2023-02-16 04:36:00:777,-2.25993,-0.0640312,-9.57523,0.0552587,-12.8521,93.4079
2023-02-16 04:36:00:787,-2.29368,-0.0873349,-9.58045,0.107066,-12.8581,93.4108
2023-02-16 04:36:00:797,-2.29004,-0.134102,-9.60582,0.159733,-12.8613,93.4087
2023-02-16 04:36:00:807,-2.25723,-0.168127,-9.60173,0.220588,-12.8568,93.4019
2023-02-16 04:36:00:817,-2.20173,-0.222783,-9.56057,0.285043,-12.8468,93.3888
2023-02-16 04:36:00:827,-2.13311,-0.26629,-9.51942,0.352176,-12.8313,93.3732
2023-02-16 04:36:00:837,-2.03405,-0.303359,-9.47727,0.415556,-12.8185,93.3503
2023-02-16 04:36:00:847,-1.99401,-0.35368,-9.44505,0.479923,-12.801,93.3247
2023-02-16 04:36:00:857,-2.00217,-0.370095,-9.41087,0.536255,-12.7873,93.3045
2023-02-16 04:36:00:867,-1.98762,-0.374845,-9.38332,0.586415,-12.774,93.2845
2023-02-16 04:36:00:877,-1.95183,-0.379701,-9.37069,0.631776,-12.7624,93.2635
2023-02-16 04:36:00:887,-1.94774,-0.375515,-9.3684,0.662654,-12.7498,93.2476
2023-02-16 04:36:00:898,-1.95022,-0.360984,-9.35538,0.684274,-12.7399,93.2356
2023-02-16 04:36:00:908,-1.91294,-0.343898,-9.35675,0.695923,-12.732,93.2242
2023-02-16 04:36:00:917,-1.88695,-0.320578,-9.36963,0.697528,-12.7253,93.221
2023-02-16 04:36:00:928,-1.90493,-0.280689,-9.3629,0.685899,-12.7228,93.2276
2023-02-16 04:36:00:938,-1.94318,-0.246692,-9.36057,0.661736,-12.7241,93.2424
2023-02-16 04:36:00:948,-1.99066,-0.195036,-9.37527,0.629613,-12.7278,93.2672
2023-02-16 04:36:00:958,-2.03626,-0.139,-9.39341,0.58325,-12.7336,93.3011
2023-02-16 04:36:00:967,-2.071,-0.0744107,-9.43664,0.530122,-12.7424,93.3417
2023-02-16 04:36:00:978,-2.13725,-0.0140915,-9.49137,0.469688,-12.7544,93.3915
2023-02-16 04:36:00:988,-2.2303,0.0364408,-9.52417,0.408852,-12.7669,93.4456
2023-02-16 04:36:00:998,-2.34357,0.100821,-9.52802,0.346252,-12.7786,93.5032
2023-02-16 04:36:01:8,-2.42796,0.137542,-9.5541,0.285801,-12.7933,93.5619
2023-02-16 04:36:01:18,-2.42968,0.154677,-9.58688,0.232896,-12.8014,93.6097
2023-02-16 04:36:01:28,-2.44839,0.165023,-9.60622,0.183282,-12.8082,93.6535
2023-02-16 04:36:01:37,-2.49644,0.179308,-9.62226,0.141729,-12.82,93.6884
2023-02-16 04:36:01:47,-2.5235,0.196687,-9.63441,0.10416,-12.8313,93.7178
2023-02-16 04:36:01:57,-2.52382,0.191123,-9.64801,0.0788063,-12.8482,93.7332
2023-02-16 04:36:01:67,-2.54966,0.177536,-9.64183,0.0578162,-12.8633,93.7406
2023-02-16 04:36:01:77,-2.54817,0.159189,-9.61862,0.0465386,-12.876,93.7378
2023-02-16 04:36:01:87,-2.52473,0.136504,-9.57817,0.0426755,-12.8866,93.7232
2023-02-16 04:36:01:97,-2.46684,0.0926315,-9.56418,0.0435582,-12.8901,93.7006
2023-02-16 04:36:01:107,-2.38739,0.0753857,-9.56947,0.0471556,-12.8855,93.6687
2023-02-16 04:36:01:117,-2.28771,0.051978,-9.56423,0.0550499,-12.8699,93.6263
2023-02-16 04:36:01:127,-2.19677,0.0214164,-9.57176,0.0644285,-12.8527,93.5834
2023-02-16 04:36:01:137,-2.11756,0.0120625,-9.60371,0.0753872,-12.8307,93.5367
2023-02-16 04:36:01:147,-2.05103,0.0184719,-9.6188,0.0849828,-12.8106,93.4939
2023-02-16 04:36:01:157,-2.01624,0.00781206,-9.61001,0.0996492,-12.7854,93.4546
2023-02-16 04:36:01:167,-1.99176,0.00155775,-9.59043,0.116405,-12.7596,93.4217
2023-02-16 04:36:01:177,-1.98761,-0.0327367,-9.56791,0.139798,-12.7281,93.3985
2023-02-16 04:36:01:187,-1.98368,-0.0545106,-9.53245,0.163821,-12.695,93.3854
2023-02-16 04:36:01:198,-1.97232,-0.079566,-9.49713,0.190935,-12.6558,93.3768
2023-02-16 04:36:01:207,-1.97195,-0.0935489,-9.49147,0.212187,-12.617,93.3752
2023-02-16 04:36:01:217,-1.93915,-0.0837658,-9.52392,0.229979,-12.5805,93.3819
2023-02-16 04:36:01:227,-1.90128,-0.076116,-9.57371,0.245724,-12.539,93.3941
2023-02-16 04:36:01:237,-1.95983,-0.0803482,-9.57818,0.261006,-12.5074,93.4154
2023-02-16 04:36:01:247,-2.05033,-0.086444,-9.56308,0.279722,-12.4794,93.4396
2023-02-16 04:36:01:257,-2.06873,-0.104346,-9.55469,0.295289,-12.4485,93.4664
2023-02-16 04:36:01:267,-2.04302,-0.0970912,-9.55109,0.313489,-12.4189,93.493
2023-02-16 04:36:01:277,-2.05902,-0.0930578,-9.54738,0.328881,-12.3889,93.5212
2023-02-16 04:36:01:287,-2.10815,-0.104584,-9.51102,0.346467,-12.3524,93.5538
2023-02-16 04:36:01:297,-2.10113,-0.123755,-9.48177,0.360594,-12.321,93.5764
2023-02-16 04:36:01:307,-2.01086,-0.143526,-9.47214,0.372888,-12.2896,93.5933
2023-02-16 04:36:01:317,-1.95077,-0.139221,-9.49966,0.379108,-12.2567,93.6065
2023-02-16 04:36:01:327,-1.99936,-0.120869,-9.51832,0.380447,-12.2339,93.6191
2023-02-16 04:36:01:338,-2.08233,-0.111602,-9.51791,0.384911,-12.2154,93.6332
2023-02-16 04:36:01:347,-2.07438,-0.121133,-9.53766,0.385594,-12.1965,93.6441
2023-02-16 04:36:01:358,-2.00075,-0.130754,-9.57295,0.385181,-12.1764,93.6467
2023-02-16 04:36:01:367,-1.95861,-0.13155,-9.57493,0.388019,-12.1566,93.6455
2023-02-16 04:36:01:378,-1.93496,-0.150334,-9.5483,0.38914,-12.1434,93.6437
2023-02-16 04:36:01:387,-1.92024,-0.158552,-9.54395,0.387052,-12.1302,93.6464
2023-02-16 04:36:01:398,-1.92321,-0.112739,-9.59074,0.377714,-12.1194,93.6473
2023-02-16 04:36:01:408,-1.93848,-0.0796718,-9.62671,0.363417,-12.1145,93.6488
2023-02-16 04:36:01:418,-1.93532,-0.065449,-9.62283,0.352458,-12.1107,93.6494
2023-02-16 04:36:01:428,-1.91171,-0.0873202,-9.58044,0.345969,-12.1081,93.653
2023-02-16 04:36:01:438,-1.85061,-0.102309,-9.54252,0.337519,-12.1032,93.6566
2023-02-16 04:36:01:447,-1.78693,-0.100441,-9.54279,0.326648,-12.1084,93.6614
2023-02-16 04:36:01:458,-1.75422,-0.0898139,-9.55967,0.310574,-12.1163,93.6725
2023-02-16 04:36:01:468,-1.75213,-0.0603736,-9.5682,0.298936,-12.1289,93.6932
2023-02-16 04:36:01:477,-1.74412,-0.0639456,-9.5974,0.284548,-12.143,93.7305
2023-02-16 04:36:01:488,-1.72394,-0.0744253,-9.59544,0.272707,-12.1627,93.7803
2023-02-16 04:36:01:497,-1.76286,-0.0721777,-9.59294,0.262796,-12.1796,93.8454
2023-02-16 04:36:01:507,-1.78039,-0.0629097,-9.60652,0.247373,-12.1967,93.9301
2023-02-16 04:36:01:517,-1.78988,-0.0744457,-9.5943,0.23339,-12.2098,94.0359
2023-02-16 04:36:01:527,-1.78811,-0.0823324,-9.56765,0.221271,-12.2167,94.1588
2023-02-16 04:36:01:537,-1.73496,-0.0842547,-9.5393,0.205956,-12.2184,94.3025
2023-02-16 04:36:01:547,-1.75719,-0.108317,-9.4982,0.18949,-12.2174,94.4657
2023-02-16 04:36:01:557,-1.86595,-0.128,-9.45557,0.167361,-12.2149,94.6504
2023-02-16 04:36:01:567,-1.9566,-0.107404,-9.47202,0.137135,-12.2097,94.8505
2023-02-16 04:36:01:577,-1.99182,-0.0570006,-9.49382,0.0949231,-12.2031,95.0669
2023-02-16 04:36:01:587,-2.07597,0.0168481,-9.49835,0.0438288,-12.196,95.2946
2023-02-16 04:36:01:597,-2.1904,0.041408,-9.49833,-0.00922099,-12.1871,95.5273
2023-02-16 04:36:01:607,-2.26318,0.049849,-9.53244,-0.0643762,-12.1778,95.7581
2023-02-16 04:36:01:617,-2.34728,0.0730598,-9.56398,-0.115758,-12.1651,95.9887
2023-02-16 04:36:01:627,-2.4143,0.0886543,-9.55426,-0.168278,-12.1485,96.2111
2023-02-16 04:36:01:637,-2.40631,0.0766746,-9.54877,-0.211948,-12.1293,96.4187
2023-02-16 04:36:01:647,-2.36164,0.0602795,-9.53625,-0.251945,-12.1029,96.6104
2023-02-16 04:36:01:657,-2.3834,0.0756487,-9.51759,-0.288234,-12.0732,96.791
2023-02-16 04:36:01:667,-2.39413,0.110867,-9.51384,-0.329256,-12.0384,96.9602
2023-02-16 04:36:01:677,-2.3704,0.121994,-9.53793,-0.365561,-12.0047,97.1105
2023-02-16 04:36:01:687,-2.3222,0.130977,-9.58165,-0.401308,-11.9637,97.243
2023-02-16 04:36:01:697,-2.29438,0.150162,-9.61118,-0.434582,-11.9302,97.3586
2023-02-16 04:36:01:707,-2.2838,0.162305,-9.62815,-0.467067,-11.8976,97.4608
2023-02-16 04:36:01:717,-2.23889,0.175158,-9.66829,-0.492678,-11.8752,97.5456
2023-02-16 04:36:01:727,-2.21745,0.195943,-9.7092,-0.517342,-11.8591,97.6196
2023-02-16 04:36:01:737,-2.2462,0.196275,-9.74706,-0.531492,-11.8477,97.6833
2023-02-16 04:36:01:747,-2.26028,0.183277,-9.73718,-0.533761,-11.8361,97.7301
2023-02-16 04:36:01:757,-2.25365,0.143552,-9.71116,-0.524603,-11.8289,97.7647
2023-02-16 04:36:01:767,-2.27054,0.10233,-9.69154,-0.504379,-11.8231,97.7874
2023-02-16 04:36:01:777,-2.27605,0.0672939,-9.63985,-0.475113,-11.8154,97.7989
2023-02-16 04:36:01:787,-2.24345,0.0229926,-9.59606,-0.437555,-11.8042,97.796
2023-02-16 04:36:01:797,-2.23087,-0.0143892,-9.55777,-0.39404,-11.7927,97.7801
2023-02-16 04:36:01:807,-2.20445,-0.0431229,-9.52211,-0.346964,-11.7836,97.752
2023-02-16 04:36:01:817,-2.13979,-0.0767957,-9.49559,-0.300704,-11.769,97.712
2023-02-16 04:36:01:827,-2.08307,-0.121435,-9.44462,-0.253315,-11.7491,97.6629
2023-02-16 04:36:01:837,-2.02229,-0.149405,-9.40575,-0.21385,-11.7218,97.6112
2023-02-16 04:36:01:847,-1.97707,-0.128544,-9.38546,-0.181111,-11.6914,97.552
2023-02-16 04:36:01:857,-1.93522,-0.119471,-9.39667,-0.155319,-11.6562,97.4958
2023-02-16 04:36:01:867,-1.90464,-0.0965256,-9.4066,-0.138809,-11.6204,97.4366
2023-02-16 04:36:01:877,-1.82587,-0.057848,-9.43749,-0.134906,-11.5798,97.3802
2023-02-16 04:36:01:887,-1.70984,-0.0367935,-9.49992,-0.139314,-11.5375,97.3226
2023-02-16 04:36:01:897,-1.654,-0.00672054,-9.56388,-0.150709,-11.4966,97.2694
2023-02-16 04:36:01:907,-1.64969,0.0169645,-9.58052,-0.16651,-11.4613,97.2212
2023-02-16 04:36:01:917,-1.65897,0.0465227,-9.5938,-0.186023,-11.4323,97.1809
2023-02-16 04:36:01:927,-1.71007,0.0641372,-9.6147,-0.209501,-11.4074,97.1467
2023-02-16 04:36:01:937,-1.77937,0.0912548,-9.61882,-0.232474,-11.3913,97.1156
2023-02-16 04:36:01:947,-1.81057,0.090664,-9.62053,-0.252249,-11.3784,97.0896
2023-02-16 04:36:01:957,-1.80475,0.0742355,-9.63008,-0.271362,-11.3687,97.0614
2023-02-16 04:36:01:967,-1.76283,0.0706287,-9.65298,-0.291967,-11.3688,97.0292
2023-02-16 04:36:01:977,-1.77175,0.0825633,-9.68485,-0.312145,-11.3728,96.9938
2023-02-16 04:36:01:987,-1.78509,0.0928047,-9.71795,-0.331533,-11.3853,96.9608
2023-02-16 04:36:01:997,-1.75845,0.100819,-9.71949,-0.346118,-11.4008,96.9267
2023-02-16 04:36:02:7,-1.74842,0.107087,-9.71866,-0.357176,-11.4173,96.8988
2023-02-16 04:36:02:17,-1.7715,0.107818,-9.69569,-0.363601,-11.4369,96.8757
2023-02-16 04:36:02:27,-1.79072,0.0758138,-9.63454,-0.364208,-11.4563,96.8554
2023-02-16 04:36:02:37,-1.81747,0.0470612,-9.58737,-0.364429,-11.4754,96.8386
2023-02-16 04:36:02:47,-1.87391,0.0392426,-9.5589,-0.366523,-11.4976,96.8284
2023-02-16 04:36:02:57,-1.93279,0.0425921,-9.54702,-0.373203,-11.5165,96.825
2023-02-16 04:36:02:67,-1.96656,0.0438808,-9.5655,-0.379141,-11.5372,96.823
2023-02-16 04:36:02:77,-1.97297,0.0622787,-9.59093,-0.387153,-11.5556,96.8216
2023-02-16 04:36:02:87,-1.99246,0.0704686,-9.60895,-0.393648,-11.5714,96.8207
2023-02-16 04:36:02:97,-2.00888,0.0839253,-9.62038,-0.401472,-11.5845,96.8234
2023-02-16 04:36:02:107,-2.02243,0.0687829,-9.61805,-0.401408,-11.5948,96.8228
2023-02-16 04:36:02:117,-2.03126,0.0585015,-9.55792,-0.399005,-11.609,96.8229
2023-02-16 04:36:02:127,-2.04773,0.0148211,-9.47239,-0.391116,-11.6147,96.8265
2023-02-16 04:36:02:137,-2.03687,-0.0141831,-9.40831,-0.385876,-11.6159,96.8258
2023-02-16 04:36:02:147,-1.98613,-0.0257823,-9.4083,-0.389859,-11.6178,96.8219
2023-02-16 04:36:02:157,-1.96077,0.00139167,-9.44936,-0.404537,-11.6194,96.8202
2023-02-16 04:36:02:167,-1.99507,0.0486084,-9.47936,-0.427381,-11.6259,96.8144
2023-02-16 04:36:02:177,-2.05098,0.0858459,-9.49195,-0.454826,-11.6357,96.8107
2023-02-16 04:36:02:187,-2.04639,0.104396,-9.50865,-0.4821,-11.6405,96.7988
2023-02-16 04:36:02:197,-1.98289,0.122923,-9.55353,-0.513041,-11.6447,96.7865
2023-02-16 04:36:02:207,-1.94901,0.145858,-9.58565,-0.546025,-11.6501,96.7735
2023-02-16 04:36:02:218,-1.94711,0.153244,-9.58433,-0.579533,-11.6595,96.7644
2023-02-16 04:36:02:228,-2.00362,0.170758,-9.57604,-0.61828,-11.6747,96.7585
2023-02-16 04:36:02:237,-2.07052,0.204225,-9.58898,-0.658216,-11.6945,96.7511
2023-02-16 04:36:02:247,-2.11305,0.248174,-9.61465,-0.701301,-11.7174,96.7466
2023-02-16 04:36:02:258,-2.14216,0.293737,-9.63049,-0.741933,-11.7396,96.7382
2023-02-16 04:36:02:268,-2.12746,0.30019,-9.63757,-0.779284,-11.7586,96.7298
2023-02-16 04:36:02:278,-2.0971,0.301857,-9.62052,-0.812718,-11.7706,96.7192
2023-02-16 04:36:02:288,-2.07631,0.301758,-9.60305,-0.837357,-11.7793,96.7075
2023-02-16 04:36:02:297,-2.04447,0.300456,-9.61766,-0.863424,-11.7843,96.6968
2023-02-16 04:36:02:308,-2.0038,0.303248,-9.66338,-0.885614,-11.7845,96.6844
2023-02-16 04:36:02:317,-1.97766,0.321563,-9.70197,-0.901675,-11.7804,96.6697
2023-02-16 04:36:02:327,-1.97232,0.319345,-9.69878,-0.906916,-11.7738,96.659
2023-02-16 04:36:02:337,-1.93481,0.275433,-9.65593,-0.907187,-11.7649,96.6499
2023-02-16 04:36:02:348,-1.88622,0.229348,-9.59468,-0.9028,-11.7502,96.6438
2023-02-16 04:36:02:357,-1.88243,0.194757,-9.56923,-0.890404,-11.7305,96.6363
2023-02-16 04:36:02:367,-1.88759,0.177388,-9.58556,-0.880234,-11.7126,96.6345
2023-02-16 04:36:02:377,-1.8732,0.17552,-9.63099,-0.874963,-11.7,96.634
2023-02-16 04:36:02:387,-1.88108,0.192512,-9.67222,-0.869062,-11.686,96.635
2023-02-16 04:36:02:397,-1.90273,0.188213,-9.68869,-0.865703,-11.6769,96.64
2023-02-16 04:36:02:407,-1.89616,0.175058,-9.64803,-0.853233,-11.6712,96.6448
2023-02-16 04:36:02:417,-1.88206,0.167685,-9.59644,-0.843181,-11.6662,96.6517
2023-02-16 04:36:02:427,-1.85225,0.155509,-9.55571,-0.833671,-11.6596,96.6577
2023-02-16 04:36:02:437,-1.82489,0.131819,-9.55181,-0.826257,-11.6503,96.6658
2023-02-16 04:36:02:447,-1.82766,0.133855,-9.59927,-0.82262,-11.6418,96.6743
2023-02-16 04:36:02:457,-1.82706,0.143893,-9.60729,-0.81818,-11.6396,96.6867
2023-02-16 04:36:02:467,-1.82679,0.142797,-9.62514,-0.816357,-11.6373,96.7003
2023-02-16 04:36:02:477,-1.842,0.129065,-9.59594,-0.803868,-11.6384,96.7186
2023-02-16 04:36:02:487,-1.8617,0.0911719,-9.53929,-0.793283,-11.6441,96.7401
2023-02-16 04:36:02:497,-1.91166,0.0656485,-9.4966,-0.781039,-11.6542,96.7646
2023-02-16 04:36:02:507,-2.00552,0.0784352,-9.48578,-0.778562,-11.6666,96.7939
2023-02-16 04:36:02:517,-2.04377,0.0995796,-9.52777,-0.779698,-11.678,96.8248
2023-02-16 04:36:02:527,-1.98454,0.106558,-9.56171,-0.785727,-11.6854,96.8559
2023-02-16 04:36:02:537,-1.87489,0.102843,-9.57214,-0.789945,-11.686,96.8839
2023-02-16 04:36:02:547,-1.79619,0.0850005,-9.57197,-0.794764,-11.687,96.9139
2023-02-16 04:36:02:557,-1.78692,0.0895405,-9.56617,-0.801987,-11.6864,96.9562
2023-02-16 04:36:02:567,-1.80734,0.0897019,-9.55387,-0.810967,-11.6845,97.0099
2023-02-16 04:36:02:577,-1.87171,0.115428,-9.54139,-0.824042,-11.6821,97.0757
2023-02-16 04:36:02:587,-1.95922,0.159996,-9.55734,-0.839639,-11.6762,97.1494
2023-02-16 04:36:02:597,-2.03819,0.18868,-9.57573,-0.857732,-11.669,97.2311
2023-02-16 04:36:02:607,-2.11691,0.183836,-9.56596,-0.874514,-11.6659,97.315
2023-02-16 04:36:02:617,-2.18891,0.181697,-9.55895,-0.888326,-11.6674,97.3925
2023-02-16 04:36:02:627,-2.22378,0.190172,-9.6005,-0.899554,-11.6743,97.4608
2023-02-16 04:36:02:637,-2.28033,0.204483,-9.64431,-0.90884,-11.6864,97.5183
2023-02-16 04:36:02:647,-2.344,0.198106,-9.64637,-0.911804,-11.7016,97.5639
2023-02-16 04:36:02:657,-2.36013,0.172414,-9.6184,-0.90124,-11.7173,97.5956
2023-02-16 04:36:02:667,-2.35562,0.118556,-9.55494,-0.882818,-11.7276,97.6114
2023-02-16 04:36:02:678,-2.33046,0.0556807,-9.45555,-0.861053,-11.7305,97.6124
2023-02-16 04:36:02:687,-2.21197,0.0122896,-9.38165,-0.841409,-11.7257,97.5979
2023-02-16 04:36:02:697,-2.02608,-0.00123408,-9.35827,-0.834449,-11.7109,97.5735
2023-02-16 04:36:02:707,-1.8574,0.0119173,-9.38819,-0.842062,-11.6855,97.5453
2023-02-16 04:36:02:717,-1.79915,0.0662957,-9.46074,-0.867122,-11.6557,97.5216
2023-02-16 04:36:02:727,-1.77763,0.141503,-9.54388,-0.902644,-11.6323,97.5056
2023-02-16 04:36:02:737,-1.76035,0.208576,-9.64179,-0.943299,-11.608,97.4997
2023-02-16 04:36:02:747,-1.74112,0.279309,-9.70266,-0.984376,-11.5911,97.5003
2023-02-16 04:36:02:757,-1.77526,0.334909,-9.75777,-1.02296,-11.576,97.5089
2023-02-16 04:36:02:767,-1.86042,0.367301,-9.78359,-1.05641,-11.572,97.5283
2023-02-16 04:36:02:777,-1.9674,0.395157,-9.79333,-1.07821,-11.5755,97.5546
2023-02-16 04:36:02:787,-2.08577,0.389078,-9.79506,-1.08986,-11.589,97.5811
2023-02-16 04:36:02:797,-2.20806,0.374221,-9.79087,-1.08536,-11.6069,97.6046
2023-02-16 04:36:02:807,-2.3318,0.340984,-9.77967,-1.06579,-11.6323,97.6241
2023-02-16 04:36:02:817,-2.4181,0.284632,-9.77354,-1.03348,-11.6566,97.6324
2023-02-16 04:36:02:828,-2.50085,0.216938,-9.73143,-0.978609,-11.6833,97.6238
2023-02-16 04:36:02:837,-2.52977,0.136333,-9.65208,-0.908606,-11.7091,97.5982
2023-02-16 04:36:02:847,-2.48449,0.0391807,-9.58036,-0.826901,-11.723,97.5501
2023-02-16 04:36:02:858,-2.41083,-0.0538712,-9.5085,-0.739331,-11.732,97.4811
2023-02-16 04:36:02:867,-2.32472,-0.102489,-9.45559,-0.649758,-11.7293,97.3979
2023-02-16 04:36:02:878,-2.24074,-0.151701,-9.39674,-0.563575,-11.7135,97.3001
2023-02-16 04:36:02:887,-2.10883,-0.197686,-9.34797,-0.485432,-11.6853,97.1944
2023-02-16 04:36:02:898,-1.96037,-0.19972,-9.3189,-0.416823,-11.6447,97.0832
2023-02-16 04:36:02:908,-1.85688,-0.197114,-9.30921,-0.356949,-11.5933,96.9738
2023-02-16 04:36:02:917,-1.77994,-0.20143,-9.33287,-0.313121,-11.5358,96.8692
2023-02-16 04:36:02:927,-1.71603,-0.194904,-9.33219,-0.282599,-11.4821,96.7658
2023-02-16 04:36:02:938,-1.69348,-0.171452,-9.3181,-0.268002,-11.4292,96.6707
2023-02-16 04:36:02:947,-1.68303,-0.130556,-9.32791,-0.266699,-11.3746,96.5885
2023-02-16 04:36:02:957,-1.6573,-0.064833,-9.39376,-0.282743,-11.3234,96.5072
2023-02-16 04:36:02:968,-1.61214,0.00649966,-9.48184,-0.310215,-11.2749,96.4321
2023-02-16 04:36:02:978,-1.57192,0.0613364,-9.57726,-0.343743,-11.2336,96.3612
2023-02-16 04:36:02:987,-1.58033,0.10934,-9.64121,-0.383745,-11.2012,96.3018
2023-02-16 04:36:02:997,-1.61806,0.146091,-9.6552,-0.425055,-11.1784,96.2499
2023-02-16 04:36:03:7,-1.64804,0.183288,-9.67505,-0.462551,-11.1633,96.2063
2023-02-16 04:36:03:17,-1.65085,0.206736,-9.74185,-0.495513,-11.1567,96.1639
2023-02-16 04:36:03:27,-1.6578,0.206685,-9.76986,-0.521397,-11.1542,96.1312
2023-02-16 04:36:03:37,-1.70954,0.203744,-9.73173,-0.542424,-11.1581,96.1093
2023-02-16 04:36:03:47,-1.73823,0.181921,-9.68019,-0.559627,-11.1668,96.0923
2023-02-16 04:36:03:57,-1.77211,0.160997,-9.67843,-0.579861,-11.1715,96.0817
2023-02-16 04:36:03:67,-1.80378,0.171242,-9.70996,-0.597731,-11.1761,96.075
2023-02-16 04:36:03:77,-1.85854,0.198731,-9.71911,-0.614433,-11.1852,96.0751
2023-02-16 04:36:03:88,-1.95254,0.198569,-9.6825,-0.624739,-11.1971,96.0763
2023-02-16 04:36:03:97,-2.03452,0.198034,-9.66435,-0.635053,-11.2165,96.0801
2023-02-16 04:36:03:107,-2.11094,0.218146,-9.67128,-0.639794,-11.2322,96.0813
2023-02-16 04:36:03:117,-2.14508,0.238506,-9.6802,-0.637721,-11.2454,96.0709
2023-02-16 04:36:03:128,-2.15082,0.224607,-9.66327,-0.630143,-11.2538,96.053
2023-02-16 04:36:03:138,-2.09953,0.200335,-9.63284,-0.617911,-11.2587,96.0229
2023-02-16 04:36:03:147,-2.01993,0.155902,-9.60756,-0.599213,-11.257,95.9787
2023-02-16 04:36:03:158,-2.04579,0.142875,-9.58011,-0.578844,-11.2556,95.9288
2023-02-16 04:36:03:168,-2.20376,0.164925,-9.54075,-0.563267,-11.2597,95.8752
2023-02-16 04:36:03:178,-2.42906,0.195799,-9.50585,-0.546026,-11.2716,95.8101
2023-02-16 04:36:03:187,-2.64486,0.216358,-9.47862,-0.530582,-11.2847,95.7247
2023-02-16 04:36:03:198,-2.96572,0.239684,-9.42889,-0.513862,-11.3034,95.602
2023-02-16 04:36:03:207,-3.3061,0.249029,-9.3529,-0.490213,-11.3209,95.4333
2023-02-16 04:36:03:217,-3.43149,0.23987,-9.30666,-0.466238,-11.3356,95.1964
2023-02-16 04:36:03:228,-3.42376,0.216172,-9.27115,-0.442894,-11.3534,94.8774
2023-02-16 04:36:03:237,-3.45991,0.2337,-9.30479,-0.426264,-11.3786,94.4801
2023-02-16 04:36:03:248,-3.46372,0.302039,-9.39316,-0.413937,-11.4094,93.999
2023-02-16 04:36:03:257,-3.36705,0.380037,-9.50315,-0.403376,-11.4485,93.434
2023-02-16 04:36:03:268,-3.24957,0.397871,-9.53629,-0.386433,-11.4852,92.7946
2023-02-16 04:36:03:278,-3.16551,0.359226,-9.46863,-0.361848,-11.5247,92.0898
2023-02-16 04:36:03:288,-3.14139,0.349751,-9.38946,-0.330263,-11.5631,91.326
2023-02-16 04:36:03:298,-3.1226,0.367824,-9.31328,-0.299227,-11.5953,90.5088
2023-02-16 04:36:03:307,-3.0663,0.368359,-9.24757,-0.268497,-11.6137,89.6352
2023-02-16 04:36:03:317,-2.85735,0.371909,-9.27784,-0.241424,-11.615,88.7075
2023-02-16 04:36:03:327,-2.51696,0.413498,-9.36204,-0.220667,-11.6099,87.7269
2023-02-16 04:36:03:337,-2.01613,0.458646,-9.53445,-0.207534,-11.5992,86.7115
2023-02-16 04:36:03:347,-1.28179,0.495566,-9.80859,-0.19236,-11.5806,85.6735
2023-02-16 04:36:03:357,-0.64246,0.459045,-10.0274,-0.16718,-11.5753,84.6428
2023-02-16 04:36:03:367,-0.442359,0.3965,-10.0499,-0.128331,-11.5969,83.6601
2023-02-16 04:36:03:377,-0.649556,0.314009,-9.94487,-0.076422,-11.6366,82.7476
2023-02-16 04:36:03:387,-0.955664,0.245442,-9.80497,-0.018313,-11.6857,81.914
2023-02-16 04:36:03:397,-1.08317,0.149322,-9.72476,0.0445739,-11.7256,81.136
2023-02-16 04:36:03:407,-1.1587,0.0849187,-9.68274,0.104365,-11.74,80.4123
2023-02-16 04:36:03:417,-1.22077,0.075788,-9.7081,0.156251,-11.7339,79.7374
2023-02-16 04:36:03:427,-1.0226,0.121379,-9.87873,0.205422,-11.7045,79.1019
2023-02-16 04:36:03:437,-0.777346,0.156288,-10.0121,0.25934,-11.6666,78.5023
2023-02-16 04:36:03:447,-0.64941,0.128722,-10.039,0.323959,-11.627,77.9553
2023-02-16 04:36:03:457,-0.588571,0.0767618,-10.0127,0.401441,-11.5927,77.467
2023-02-16 04:36:03:467,-0.605097,-0.022236,-9.91613,0.490294,-11.563,77.0375
2023-02-16 04:36:03:477,-0.809585,-0.112558,-9.74521,0.587171,-11.5419,76.6762
2023-02-16 04:36:03:487,-1.03829,-0.168377,-9.60017,0.681984,-11.5193,76.3675
2023-02-16 04:36:03:497,-1.16315,-0.237164,-9.52037,0.768218,-11.488,76.1067
2023-02-16 04:36:03:507,-1.17242,-0.270184,-9.50834,0.847431,-11.4516,75.8814
2023-02-16 04:36:03:517,-1.19071,-0.278876,-9.54154,0.911606,-11.4159,75.6865
2023-02-16 04:36:03:527,-1.29832,-0.25883,-9.54485,0.96277,-11.3867,75.5246
2023-02-16 04:36:03:537,-1.45397,-0.252875,-9.55365,1.00275,-11.3691,75.3893
2023-02-16 04:36:03:547,-1.59154,-0.24742,-9.5869,1.03729,-11.3561,75.2743
2023-02-16 04:36:03:557,-1.71322,-0.252616,-9.56781,1.06757,-11.3451,75.1723
2023-02-16 04:36:03:567,-1.83336,-0.272555,-9.52669,1.09828,-11.343,75.0846
2023-02-16 04:36:03:577,-1.90695,-0.285165,-9.5257,1.12759,-11.3457,74.9961
2023-02-16 04:36:03:587,-1.95133,-0.271366,-9.52173,1.14978,-11.3533,74.9096
2023-02-16 04:36:03:597,-1.92501,-0.26137,-9.52636,1.16982,-11.3648,74.8187
2023-02-16 04:36:03:607,-1.86159,-0.28276,-9.51742,1.1879,-11.38,74.7268
2023-02-16 04:36:03:617,-1.85435,-0.309616,-9.50762,1.207,-11.3999,74.6358
2023-02-16 04:36:03:627,-1.9604,-0.307029,-9.47804,1.22297,-11.4226,74.5513
2023-02-16 04:36:03:637,-2.18039,-0.283804,-9.43747,1.23362,-11.4452,74.4742
2023-02-16 04:36:03:647,-2.354,-0.2611,-9.43601,1.24354,-11.463,74.3941
2023-02-16 04:36:03:657,-2.35428,-0.260833,-9.48447,1.25211,-11.4702,74.2963
2023-02-16 04:36:03:667,-2.21576,-0.245035,-9.52284,1.25974,-11.4732,74.1847
2023-02-16 04:36:03:677,-2.08151,-0.226435,-9.57206,1.26299,-11.4663,74.0552
2023-02-16 04:36:03:687,-2.01282,-0.217291,-9.58533,1.27157,-11.4587,73.9186
2023-02-16 04:36:03:697,-2.02358,-0.243245,-9.56162,1.28278,-11.4518,73.7805
2023-02-16 04:36:03:707,-2.10784,-0.261798,-9.52981,1.29129,-11.4413,73.64
2023-02-16 04:36:03:717,-2.19018,-0.266796,-9.49776,1.29823,-11.4348,73.4928
2023-02-16 04:36:03:727,-2.23591,-0.271523,-9.47412,1.30295,-11.4241,73.3292
2023-02-16 04:36:03:737,-2.35393,-0.242807,-9.45469,1.30505,-11.4156,73.1552
2023-02-16 04:36:03:747,-2.42946,-0.224682,-9.42884,1.30616,-11.4102,72.9625
2023-02-16 04:36:03:757,-2.29229,-0.221999,-9.44278,1.30335,-11.3997,72.741
2023-02-16 04:36:03:767,-1.94777,-0.228311,-9.54228,1.30274,-11.3889,72.4873
2023-02-16 04:36:03:777,-1.74915,-0.203539,-9.6159,1.29605,-11.3864,72.2205
2023-02-16 04:36:03:787,-1.97619,-0.202066,-9.56801,1.28628,-11.3986,71.9548
2023-02-16 04:36:03:797,-2.58505,-0.137977,-9.42586,1.27469,-11.4272,71.6952
2023-02-16 04:36:03:807,-3.2683,-0.0399672,-9.30909,1.26131,-11.4585,71.4204
2023-02-16 04:36:03:817,-3.9111,0.0598262,-9.21247,1.24727,-11.48,71.0971
2023-02-16 04:36:03:827,-4.51039,0.119343,-9.01952,1.23508,-11.4899,70.693
2023-02-16 04:36:03:837,-4.77697,0.111503,-8.88838,1.22218,-11.4934,70.1697
2023-02-16 04:36:03:847,-4.62792,0.10612,-8.83625,1.20477,-11.4978,69.4931
2023-02-16 04:36:03:857,-4.65662,0.155857,-8.72679,1.16898,-11.5205,68.6714
2023-02-16 04:36:03:867,-5.08869,0.257784,-8.58458,1.11303,-11.5766,67.7075
2023-02-16 04:36:03:877,-5.60157,0.450439,-8.47176,1.02863,-11.6742,66.5836
2023-02-16 04:36:03:887,-6.05157,0.692942,-8.40782,0.922985,-11.8021,65.2757
2023-02-16 04:36:03:897,-6.40175,0.997088,-8.44263,0.791515,-11.9512,63.7577
2023-02-16 04:36:03:907,-6.22944,1.27034,-8.65585,0.641226,-12.1165,62.0069
2023-02-16 04:36:03:917,-5.44585,1.43695,-8.91589,0.488079,-12.2955,60.0099
2023-02-16 04:36:03:927,-4.55454,1.46517,-9.09221,0.339526,-12.4793,57.8157
2023-02-16 04:36:03:937,-3.85116,1.48583,-9.1761,0.187585,-12.666,55.4823
2023-02-16 04:36:03:947,-3.44636,1.50908,-9.1789,0.0308816,-12.8408,53.0745
2023-02-16 04:36:03:957,-3.08041,1.57173,-9.22581,-0.136256,-12.9862,50.624
2023-02-16 04:36:03:968,-2.59626,1.63898,-9.32835,-0.307181,-13.0868,48.1498
2023-02-16 04:36:03:977,-2.21639,1.66588,-9.45907,-0.485783,-13.1483,45.6879
2023-02-16 04:36:03:988,-1.90556,1.6993,-9.63235,-0.662529,-13.1751,43.2622
2023-02-16 04:36:03:997,-1.48475,1.67164,-9.85396,-0.835599,-13.1583,40.8832
2023-02-16 04:36:04:8,-0.896187,1.58334,-10.1089,-0.994592,-13.1047,38.572
2023-02-16 04:36:04:18,-0.379599,1.48304,-10.2947,-1.14001,-13.0294,36.3509
2023-02-16 04:36:04:27,-0.0822998,1.37562,-10.382,-1.26456,-12.929,34.2529
2023-02-16 04:36:04:37,0.0911063,1.34182,-10.3675,-1.36828,-12.7988,32.2939
2023-02-16 04:36:04:48,0.41138,1.20566,-10.2865,-1.44439,-12.6375,30.47
2023-02-16 04:36:04:57,0.858747,0.979976,-10.1252,-1.49314,-12.4479,28.7824
2023-02-16 04:36:04:67,1.23618,0.771072,-9.98828,-1.53833,-12.2389,27.2584
2023-02-16 04:36:04:77,1.35069,0.642516,-9.96976,-1.59536,-12.0215,25.9132
2023-02-16 04:36:04:87,1.26585,0.624809,-10.0154,-1.6668,-11.7972,24.7497
2023-02-16 04:36:04:97,1.15649,0.617486,-10.0945,-1.74744,-11.5748,23.7512
2023-02-16 04:36:04:107,1.08563,0.598228,-10.1448,-1.83047,-11.3551,22.9069
2023-02-16 04:36:04:117,0.957771,0.584083,-10.1418,-1.91201,-11.1377,22.2084
2023-02-16 04:36:04:127,0.712544,0.591648,-10.1239,-1.99681,-10.9304,21.6493
2023-02-16 04:36:04:138,0.440041,0.635499,-10.1199,-2.07785,-10.7324,21.2096
2023-02-16 04:36:04:147,0.178431,0.657867,-10.042,-2.1565,-10.5477,20.8684
2023-02-16 04:36:04:157,-0.0549973,0.633692,-9.90034,-2.22611,-10.371,20.6146
2023-02-16 04:36:04:167,-0.256503,0.595149,-9.76201,-2.29015,-10.2045,20.4331
2023-02-16 04:36:04:177,-0.520234,0.582318,-9.69549,-2.35689,-10.0494,20.3131
2023-02-16 04:36:04:187,-0.818997,0.626741,-9.70842,-2.43325,-9.91002,20.2394
2023-02-16 04:36:04:197,-1.04262,0.698207,-9.82633,-2.51407,-9.7866,20.1957
2023-02-16 04:36:04:208,-1.09897,0.753003,-9.98393,-2.5917,-9.6737,20.1654
2023-02-16 04:36:04:217,-1.06042,0.766313,-10.0895,-2.6588,-9.57276,20.145
2023-02-16 04:36:04:227,-1.01619,0.744868,-10.0868,-2.70998,-9.48881,20.1377
2023-02-16 04:36:04:237,-0.906018,0.667478,-10.0242,-2.73999,-9.41488,20.1432
2023-02-16 04:36:04:247,-0.701262,0.589487,-9.96106,-2.75964,-9.35069,20.168
2023-02-16 04:36:04:257,-0.457232,0.529022,-9.93594,-2.78088,-9.29712,20.2226
2023-02-16 04:36:04:267,-0.178389,0.497176,-9.97448,-2.79904,-9.24996,20.3158
2023-02-16 04:36:04:277,0.0885456,0.516632,-10.0966,-2.8185,-9.20638,20.4649
2023-02-16 04:36:04:287,0.311132,0.568823,-10.2232,-2.83886,-9.16275,20.6857
2023-02-16 04:36:04:297,0.52122,0.626086,-10.2948,-2.8479,-9.11916,20.9892
2023-02-16 04:36:04:307,0.73419,0.632396,-10.2686,-2.84186,-9.06679,21.3921
2023-02-16 04:36:04:317,0.991515,0.596993,-10.1964,-2.81812,-9.00431,21.9002
2023-02-16 04:36:04:327,1.27972,0.566339,-10.1859,-2.7814,-8.93128,22.5283
2023-02-16 04:36:04:337,1.55437,0.601971,-10.2798,-2.74473,-8.8471,23.2837
2023-02-16 04:36:04:347,1.65341,0.730324,-10.4302,-2.70762,-8.75873,24.1861
2023-02-16 04:36:04:357,1.60179,0.935418,-10.5705,-2.65857,-8.6692,25.2344
2023-02-16 04:36:04:367,1.54881,1.10519,-10.6647,-2.58956,-8.57282,26.4259
2023-02-16 04:36:04:377,1.48849,1.24618,-10.6758,-2.49221,-8.46891,27.764
2023-02-16 04:36:04:387,1.40856,1.3844,-10.5674,-2.36216,-8.35666,29.2402
2023-02-16 04:36:04:397,1.34444,1.47938,-10.4227,-2.20442,-8.24302,30.8459
2023-02-16 04:36:04:407,1.10282,1.54645,-10.2569,-2.02268,-8.13111,32.5802
2023-02-16 04:36:04:417,0.59774,1.65053,-10.1542,-1.82876,-8.03286,34.4359
2023-02-16 04:36:04:427,-0.0725741,1.81826,-10.1766,-1.62642,-7.94999,36.3934
2023-02-16 04:36:04:437,-0.772117,1.97501,-10.2791,-1.40795,-7.88159,38.4189
2023-02-16 04:36:04:447,-1.41612,2.09555,-10.3611,-1.16706,-7.83985,40.4729
2023-02-16 04:36:04:457,-1.99169,2.12828,-10.3357,-0.893991,-7.82991,42.525
2023-02-16 04:36:04:467,-2.46485,2.01677,-10.1209,-0.577558,-7.8541,44.5383
2023-02-16 04:36:04:477,-2.78913,1.7618,-9.73333,-0.223989,-7.91754,46.4935
2023-02-16 04:36:04:487,-3.08631,1.43289,-9.28761,0.157449,-8.01268,48.3769
2023-02-16 04:36:04:497,-3.3726,1.10981,-8.87595,0.535621,-8.13449,50.1772
2023-02-16 04:36:04:507,-3.67016,0.806325,-8.62589,0.890788,-8.27654,51.8859
2023-02-16 04:36:04:517,-3.93471,0.620737,-8.57748,1.20602,-8.43271,53.4864
2023-02-16 04:36:04:527,-4.03795,0.477988,-8.65027,1.48238,-8.5954,54.9651
2023-02-16 04:36:04:537,-4.03673,0.346624,-8.74856,1.71999,-8.76351,56.3157
2023-02-16 04:36:04:547,-3.93468,0.223988,-8.83343,1.93028,-8.93406,57.5399
2023-02-16 04:36:04:557,-3.78378,0.0561826,-8.84308,2.11659,-9.11026,58.6444
2023-02-16 04:36:04:567,-3.66978,-0.0943615,-8.83637,2.27636,-9.29467,59.6375
2023-02-16 04:36:04:577,-3.57493,-0.194888,-8.841,2.41475,-9.48616,60.5272
2023-02-16 04:36:04:587,-3.45453,-0.276188,-8.90045,2.52764,-9.68268,61.3163
2023-02-16 04:36:04:597,-3.39498,-0.336675,-9.00165,2.61808,-9.88092,62.0217
2023-02-16 04:36:04:607,-3.39911,-0.373711,-9.12511,2.68502,-10.0778,62.643
2023-02-16 04:36:04:617,-3.44015,-0.355311,-9.22104,2.73788,-10.2708,63.1902
2023-02-16 04:36:04:627,-3.43734,-0.345429,-9.29116,2.78617,-10.4569,63.6591
2023-02-16 04:36:04:637,-3.33284,-0.336513,-9.3565,2.82591,-10.6331,64.0552
2023-02-16 04:36:04:647,-3.11187,-0.358911,-9.39408,2.86827,-10.7996,64.3814
2023-02-16 04:36:04:657,-2.90985,-0.420785,-9.37201,2.91567,-10.9639,64.6502
2023-02-16 04:36:04:667,-2.83764,-0.441592,-9.36113,2.9654,-11.1268,64.8757
2023-02-16 04:36:04:677,-2.76741,-0.517733,-9.24851,3.02185,-11.288,65.0605
2023-02-16 04:36:04:687,-2.64028,-0.570114,-9.18707,3.07273,-11.4376,65.2132
2023-02-16 04:36:04:697,-2.57781,-0.554085,-9.26386,3.11805,-11.5837,65.3389
2023-02-16 04:36:04:707,-2.47917,-0.516983,-9.44769,3.16481,-11.7091,65.4494
2023-02-16 04:36:04:717,-2.26674,-0.582215,-9.42491,3.21141,-11.8339,65.542
2023-02-16 04:36:04:727,-2.2182,-0.541201,-9.49444,3.2576,-11.9428,65.6364
2023-02-16 04:36:04:737,-2.25817,-0.556981,-9.57284,3.31,-12.0355,65.7378
2023-02-16 04:36:04:747,-2.18926,-0.642528,-9.49431,3.36934,-12.1248,65.841
2023-02-16 04:36:04:757,-2.18749,-0.608076,-9.50782,3.42759,-12.2006,65.957
2023-02-16 04:36:04:767,-2.30693,-0.55562,-9.52899,3.48498,-12.2675,66.0923
2023-02-16 04:36:04:777,-2.31876,-0.563125,-9.50326,3.54672,-12.3235,66.2285
2023-02-16 04:36:04:787,-2.22347,-0.604141,-9.43255,3.6109,-12.3675,66.3703
2023-02-16 04:36:04:797,-2.18293,-0.620144,-9.36861,3.67339,-12.4021,66.5202
2023-02-16 04:36:04:807,-2.25782,-0.63107,-9.34668,3.72557,-12.4356,66.6835
2023-02-16 04:36:04:817,-2.34613,-0.591028,-9.37793,3.7682,-12.4698,66.848
2023-02-16 04:36:04:827,-2.34811,-0.532067,-9.48737,3.7964,-12.4945,67.018
2023-02-16 04:36:04:837,-2.29481,-0.498629,-9.57283,3.82585,-12.5111,67.1824
2023-02-16 04:36:04:847,-2.27499,-0.510224,-9.61112,3.85793,-12.5219,67.3466
2023-02-16 04:36:04:857,-2.27778,-0.507119,-9.59342,3.89476,-12.5277,67.5081
2023-02-16 04:36:04:867,-2.20168,-0.532579,-9.60309,3.94131,-12.526,67.6691
2023-02-16 04:36:04:877,-2.09842,-0.586426,-9.60577,3.99474,-12.5155,67.8286
2023-02-16 04:36:04:887,-1.99469,-0.634082,-9.59525,4.04665,-12.5011,67.9877
2023-02-16 04:36:04:897,-1.78731,-0.680364,-9.63094,4.10438,-12.4849,68.1477
2023-02-16 04:36:04:908,-1.54865,-0.71349,-9.66695,4.16105,-12.4662,68.3102
2023-02-16 04:36:04:918,-1.42924,-0.733476,-9.6668,4.21146,-12.4537,68.4922
2023-02-16 04:36:04:928,-1.40583,-0.762819,-9.65748,4.25688,-12.4466,68.7013
2023-02-16 04:36:04:938,-1.36947,-0.763191,-9.62506,4.29817,-12.4392,68.9431
2023-02-16 04:36:04:947,-1.30212,-0.785376,-9.59481,4.33489,-12.4275,69.2187
2023-02-16 04:36:04:958,-1.13586,-0.776273,-9.61957,4.3694,-12.4068,69.5249
2023-02-16 04:36:04:967,-0.855624,-0.769159,-9.71058,4.3934,-12.3863,69.8703
2023-02-16 04:36:04:977,-0.643826,-0.73334,-9.787,4.40963,-12.3632,70.2685
2023-02-16 04:36:04:988,-0.632181,-0.68899,-9.8065,4.41908,-12.3474,70.7288
2023-02-16 04:36:04:998,-0.875372,-0.640641,-9.75055,4.42221,-12.3379,71.2624
2023-02-16 04:36:05:8,-1.2559,-0.559797,-9.69374,4.41778,-12.3347,71.8605
2023-02-16 04:36:05:17,-1.5568,-0.482911,-9.71761,4.41416,-12.3271,72.504
2023-02-16 04:36:05:28,-1.71647,-0.44543,-9.78618,4.41497,-12.3094,73.1766
2023-02-16 04:36:05:37,-1.82249,-0.436862,-9.80192,4.43237,-12.2835,73.8646
2023-02-16 04:36:05:47,-1.97774,-0.47483,-9.71627,4.46048,-12.2536,74.5593
2023-02-16 04:36:05:57,-2.21942,-0.511925,-9.63734,4.49849,-12.2282,75.2543
2023-02-16 04:36:05:67,-2.45725,-0.548301,-9.55863,4.5413,-12.2097,75.9342
2023-02-16 04:36:05:77,-2.60865,-0.594996,-9.49245,4.59032,-12.1925,76.5905
2023-02-16 04:36:05:88,-2.65792,-0.634891,-9.45489,4.64045,-12.1789,77.212
2023-02-16 04:36:05:98,-2.6041,-0.659385,-9.45265,4.68843,-12.1699,77.7892
2023-02-16 04:36:05:108,-2.58552,-0.683416,-9.44071,4.74023,-12.171,78.324
2023-02-16 04:36:05:117,-2.65629,-0.693747,-9.41436,4.79163,-12.1861,78.8219
2023-02-16 04:36:05:127,-2.75294,-0.715537,-9.39643,4.8472,-12.2145,79.2781
2023-02-16 04:36:05:137,-2.80466,-0.720888,-9.39108,4.90862,-12.2506,79.6935
2023-02-16 04:36:05:148,-2.79645,-0.727269,-9.42879,4.97654,-12.294,80.0607
2023-02-16 04:36:05:158,-2.82489,-0.729016,-9.4349,5.04936,-12.3425,80.3805
2023-02-16 04:36:05:167,-2.83413,-0.737883,-9.42023,5.13156,-12.3938,80.6561
2023-02-16 04:36:05:178,-2.73044,-0.818626,-9.34446,5.22621,-12.4419,80.8854
2023-02-16 04:36:05:187,-2.56525,-0.921698,-9.24696,5.32682,-12.4835,81.0743
2023-02-16 04:36:05:198,-2.41109,-1.01747,-9.20028,5.42512,-12.5184,81.2297
2023-02-16 04:36:05:207,-2.24216,-1.03715,-9.19278,5.51047,-12.5487,81.3638
2023-02-16 04:36:05:217,-2.10263,-1.06567,-9.26259,5.57774,-12.5743,81.4801
2023-02-16 04:36:05:228,-2.03573,-1.05513,-9.35496,5.62803,-12.6029,81.5923
2023-02-16 04:36:05:238,-2.04651,-1.00254,-9.38645,5.65834,-12.6305,81.7111
2023-02-16 04:36:05:248,-2.15523,-0.974748,-9.40437,5.67814,-12.6498,81.8343
2023-02-16 04:36:05:258,-2.31855,-0.915257,-9.41492,5.68618,-12.6642,81.9659
2023-02-16 04:36:05:268,-2.41264,-0.862932,-9.43393,5.68662,-12.6597,82.1025
2023-02-16 04:36:05:277,-2.40601,-0.80913,-9.51608,5.68228,-12.6367,82.239
2023-02-16 04:36:05:288,-2.30958,-0.770157,-9.58254,5.6753,-12.5943,82.3678
2023-02-16 04:36:05:298,-2.19987,-0.758694,-9.62026,5.67901,-12.5389,82.4894
2023-02-16 04:36:05:307,-2.12912,-0.754815,-9.62021,5.69249,-12.4802,82.6048
2023-02-16 04:36:05:317,-2.03786,-0.775764,-9.57666,5.71442,-12.4193,82.7133
2023-02-16 04:36:05:328,-1.96702,-0.820079,-9.49568,5.74544,-12.3635,82.818
2023-02-16 04:36:05:338,-1.91107,-0.867161,-9.39791,5.78018,-12.3116,82.9207
2023-02-16 04:36:05:348,-1.90339,-0.897504,-9.33063,5.81471,-12.2744,83.0297
2023-02-16 04:36:05:358,-1.89423,-0.908797,-9.33002,5.84401,-12.2438,83.1407
2023-02-16 04:36:05:368,-1.86337,-0.899318,-9.39118,5.86121,-12.2232,83.2563
2023-02-16 04:36:05:377,-1.90452,-0.901581,-9.42207,5.87775,-12.2127,83.3806
2023-02-16 04:36:05:388,-1.9459,-0.916556,-9.39713,5.89285,-12.2119,83.5097
2023-02-16 04:36:05:398,-1.98356,-0.918285,-9.39023,5.903,-12.2193,83.6472
2023-02-16 04:36:05:407,-2.02861,-0.904991,-9.37912,5.90802,-12.2372,83.7882
2023-02-16 04:36:05:417,-2.05127,-0.922089,-9.38074,5.90954,-12.2611,83.9317
2023-02-16 04:36:05:427,-2.02961,-0.935555,-9.43317,5.90863,-12.2909,84.077
2023-02-16 04:36:05:438,-2.04838,-0.894804,-9.51223,5.89636,-12.3312,84.2212
2023-02-16 04:36:05:447,-2.12761,-0.873097,-9.58238,5.88091,-12.3807,84.3713
2023-02-16 04:36:05:457,-2.2249,-0.845231,-9.66413,5.86448,-12.4407,84.5215
2023-02-16 04:36:05:467,-2.28465,-0.827032,-9.70182,5.84848,-12.5034,84.6726
2023-02-16 04:36:05:478,-2.32608,-0.836876,-9.66644,5.84345,-12.5684,84.8268
2023-02-16 04:36:05:488,-2.35607,-0.877341,-9.56893,5.84357,-12.6262,84.9762
2023-02-16 04:36:05:498,-2.38313,-0.915506,-9.47422,5.84871,-12.6868,85.1278
2023-02-16 04:36:05:507,-2.47365,-0.916041,-9.42474,5.84688,-12.7449,85.2786
2023-02-16 04:36:05:517,-2.58252,-0.890264,-9.48559,5.84129,-12.805,85.4262
2023-02-16 04:36:05:528,-2.61351,-0.861447,-9.53085,5.839,-12.8612,85.566
2023-02-16 04:36:05:537,-2.58064,-0.887277,-9.53432,5.84345,-12.9153,85.6946
2023-02-16 04:36:05:548,-2.56119,-0.906791,-9.51908,5.8528,-12.9656,85.812
2023-02-16 04:36:05:557,-2.57245,-0.922437,-9.48788,5.87289,-13.0173,85.9158
2023-02-16 04:36:05:568,-2.54009,-0.965318,-9.46751,5.90103,-13.0669,86.0064
2023-02-16 04:36:05:578,-2.48904,-1.03232,-9.38451,5.94337,-13.1164,86.0847
2023-02-16 04:36:05:588,-2.50988,-1.10393,-9.2824,5.98714,-13.1647,86.162
2023-02-16 04:36:05:598,-2.56201,-1.16289,-9.18074,6.02449,-13.2069,86.236
2023-02-16 04:36:05:608,-2.51737,-1.20805,-9.18585,6.05358,-13.2402,86.307
2023-02-16 04:36:05:618,-2.40272,-1.22347,-9.21618,6.07373,-13.2586,86.3676
2023-02-16 04:36:05:628,-2.31556,-1.2342,-9.27182,6.07794,-13.2736,86.4296
2023-02-16 04:36:05:637,-2.26356,-1.19131,-9.39823,6.06639,-13.2857,86.4979
2023-02-16 04:36:05:647,-2.2024,-1.1045,-9.50823,6.04315,-13.3036,86.5731
2023-02-16 04:36:05:657,-2.18415,-1.07903,-9.56463,6.02127,-13.3278,86.6522
2023-02-16 04:36:05:667,-2.28245,-1.06092,-9.52799,5.99956,-13.366,86.7475
2023-02-16 04:36:05:677,-2.39642,-1.06601,-9.43391,5.97585,-13.4093,86.8516
2023-02-16 04:36:05:687,-2.47373,-1.06004,-9.3109,5.94085,-13.4552,86.9742
2023-02-16 04:36:05:697,-2.54354,-1.03357,-9.22241,5.89154,-13.496,87.1087
2023-02-16 04:36:05:708,-2.58924,-0.995283,-9.21361,5.83671,-13.529,87.2503
2023-02-16 04:36:05:718,-2.6288,-0.942542,-9.26515,5.76932,-13.5513,87.4029
2023-02-16 04:36:05:727,-2.66528,-0.846535,-9.30949,5.69027,-13.5558,87.5663
2023-02-16 04:36:05:738,-2.64349,-0.75878,-9.33557,5.60663,-13.5406,87.7354
2023-02-16 04:36:05:748,-2.55545,-0.739441,-9.40021,5.52744,-13.5067,87.9033
2023-02-16 04:36:05:757,-2.51405,-0.698683,-9.54354,5.45896,-13.4545,88.0709
2023-02-16 04:36:05:768,-2.49154,-0.654775,-9.68319,5.40244,-13.3951,88.2377
2023-02-16 04:36:05:778,-2.43261,-0.628759,-9.77435,5.36419,-13.3282,88.3974
2023-02-16 04:36:05:788,-2.39174,-0.671897,-9.78763,5.35679,-13.2591,88.5449
2023-02-16 04:36:05:798,-2.42304,-0.767904,-9.73942,5.3722,-13.1943,88.6859
2023-02-16 04:36:05:807,-2.44398,-0.843339,-9.67535,5.40745,-13.1392,88.8127
2023-02-16 04:36:05:817,-2.43763,-0.897204,-9.62264,5.45729,-13.0834,88.9262
2023-02-16 04:36:05:827,-2.39275,-0.95412,-9.5828,5.51392,-13.0314,89.0249
2023-02-16 04:36:05:838,-2.31798,-1.00557,-9.52204,5.58041,-12.9816,89.1058
2023-02-16 04:36:05:848,-2.18789,-1.06169,-9.46728,5.65216,-12.9307,89.1775
2023-02-16 04:36:05:858,-2.064,-1.12249,-9.43677,5.72453,-12.8855,89.2352
2023-02-16 04:36:05:868,-1.97227,-1.17049,-9.41906,5.79428,-12.8475,89.2898
2023-02-16 04:36:05:878,-1.93221,-1.16176,-9.44258,5.85461,-12.8129,89.3452
2023-02-16 04:36:05:888,-1.89883,-1.1369,-9.45457,5.9061,-12.7895,89.4084
2023-02-16 04:36:05:898,-1.87111,-1.14159,-9.42887,5.95755,-12.7724,89.4782
2023-02-16 04:36:05:908,-1.8581,-1.16522,-9.38583,6.006,-12.7612,89.5576
2023-02-16 04:36:05:917,-1.94359,-1.16968,-9.36674,6.04817,-12.7607,89.6511
2023-02-16 04:36:05:928,-2.10629,-1.14884,-9.33731,6.08123,-12.7632,89.7591
2023-02-16 04:36:05:938,-2.23294,-1.1599,-9.2877,6.10648,-12.7653,89.8764
2023-02-16 04:36:05:948,-2.28563,-1.1575,-9.26509,6.12271,-12.7597,89.9952
2023-02-16 04:36:05:958,-2.24178,-1.1277,-9.27,6.12468,-12.7488,90.1112
2023-02-16 04:36:05:968,-2.16401,-1.10494,-9.30736,6.11579,-12.7258,90.2248
2023-02-16 04:36:05:978,-2.09131,-1.07401,-9.36517,6.09552,-12.7002,90.3355
2023-02-16 04:36:05:988,-2.04312,-1.05382,-9.40092,6.0716,-12.674,90.4443
2023-02-16 04:36:05:998,-2.01227,-1.03943,-9.44872,6.04018,-12.6486,90.5564
2023-02-16 04:36:06:8,-1.97825,-1.00895,-9.51123,6.00585,-12.626,90.6695
2023-02-16 04:36:06:17,-2.03502,-0.997515,-9.53229,5.9673,-12.6038,90.7817
2023-02-16 04:36:06:28,-2.12962,-0.989359,-9.57103,5.92758,-12.5862,90.9026
2023-02-16 04:36:06:38,-2.215,-0.922029,-9.66131,5.88966,-12.5679,91.0185
2023-02-16 04:36:06:47,-2.26522,-0.849843,-9.74782,5.85599,-12.554,91.1303
2023-02-16 04:36:06:57,-2.29694,-0.843577,-9.73397,5.83788,-12.5368,91.2356
2023-02-16 04:36:06:67,-2.31288,-0.881338,-9.67088,5.83443,-12.5192,91.332
2023-02-16 04:36:06:77,-2.30974,-0.907203,-9.60495,5.8425,-12.4973,91.4218
2023-02-16 04:36:06:88,-2.26634,-0.905659,-9.55306,5.85813,-12.4713,91.501
2023-02-16 04:36:06:97,-2.23882,-0.9244,-9.50034,5.87754,-12.4414,91.5721
2023-02-16 04:36:06:108,-2.24427,-0.957858,-9.47235,5.89979,-12.4091,91.6337
2023-02-16 04:36:06:118,-2.24115,-0.983108,-9.44117,5.92514,-12.3781,91.6863
2023-02-16 04:36:06:127,-2.20452,-1.01452,-9.45178,5.94939,-12.3392,91.7313
2023-02-16 04:36:06:137,-2.20968,-1.01578,-9.50976,5.97468,-12.3002,91.7675
2023-02-16 04:36:06:148,-2.22682,-1.0121,-9.55156,5.99572,-12.2604,91.7932
2023-02-16 04:36:06:158,-2.19625,-1.02296,-9.53771,6.02287,-12.2229,91.8111
2023-02-16 04:36:06:167,-2.14901,-1.04144,-9.48381,6.05694,-12.1801,91.8165
2023-02-16 04:36:06:177,-2.13496,-1.06412,-9.431,6.09255,-12.1377,91.8133
2023-02-16 04:36:06:187,-2.09306,-1.08393,-9.41462,6.12627,-12.0939,91.8037
2023-02-16 04:36:06:198,-2.03099,-1.0782,-9.42357,6.1503,-12.0483,91.7874
2023-02-16 04:36:06:208,-1.99049,-1.05461,-9.46388,6.17106,-11.9994,91.7657
2023-02-16 04:36:06:218,-1.98359,-1.03746,-9.51728,6.18259,-11.9565,91.7382
2023-02-16 04:36:06:227,-1.94668,-1.0285,-9.54288,6.1941,-11.9147,91.7043
2023-02-16 04:36:06:237,-1.89941,-1.01894,-9.56152,6.21045,-11.874,91.6666
2023-02-16 04:36:06:247,-1.88101,-1.01951,-9.55245,6.22971,-11.8357,91.6229
2023-02-16 04:36:06:257,-1.88927,-1.01215,-9.57529,6.25008,-11.8027,91.5788
2023-02-16 04:36:06:268,-1.84703,-1.03552,-9.59338,6.2789,-11.772,91.5317
2023-02-16 04:36:06:277,-1.77729,-1.05179,-9.60675,6.30832,-11.7388,91.4883
2023-02-16 04:36:06:287,-1.73609,-1.07152,-9.61024,6.33727,-11.7092,91.449
2023-02-16 04:36:06:298,-1.73951,-1.09808,-9.57209,6.36935,-11.6869,91.4117
2023-02-16 04:36:06:308,-1.7642,-1.11607,-9.53262,6.39976,-11.6722,91.3801
2023-02-16 04:36:06:318,-1.78012,-1.13247,-9.50673,6.42882,-11.6636,91.3502
2023-02-16 04:36:06:327,-1.7984,-1.1229,-9.51226,6.45219,-11.6558,91.3322
2023-02-16 04:36:06:337,-1.80079,-1.09521,-9.51911,6.47101,-11.6518,91.3149
2023-02-16 04:36:06:347,-1.82035,-1.08717,-9.51343,6.4898,-11.6554,91.306
2023-02-16 04:36:06:357,-1.87273,-1.08543,-9.50412,6.50389,-11.6586,91.2999
2023-02-16 04:36:06:367,-1.89185,-1.0863,-9.501,6.51623,-11.6668,91.2985
2023-02-16 04:36:06:378,-1.91479,-1.08487,-9.48096,6.53279,-11.6774,91.2968
2023-02-16 04:36:06:387,-1.92021,-1.08176,-9.48304,6.54887,-11.6945,91.2959
2023-02-16 04:36:06:397,-1.92007,-1.09751,-9.47793,6.56072,-11.7075,91.3002
2023-02-16 04:36:06:408,-1.93241,-1.11811,-9.44425,6.5695,-11.7228,91.3072
2023-02-16 04:36:06:418,-1.94057,-1.15049,-9.43289,6.58113,-11.736,91.3164
2023-02-16 04:36:06:428,-1.9683,-1.16798,-9.42269,6.58716,-11.7531,91.3319
2023-02-16 04:36:06:437,-2.03554,-1.15932,-9.44922,6.59245,-11.7668,91.3484
2023-02-16 04:36:06:447,-2.09463,-1.14141,-9.47345,6.5932,-11.776,91.3677
2023-02-16 04:36:06:457,-2.1152,-1.11479,-9.50324,6.58921,-11.7804,91.3868
2023-02-16 04:36:06:467,-2.10813,-1.12683,-9.5366,6.58933,-11.7836,91.4007
2023-02-16 04:36:06:477,-2.10956,-1.11076,-9.53115,6.58668,-11.7852,91.411
2023-02-16 04:36:06:487,-2.09556,-1.10357,-9.51429,6.58464,-11.7836,91.4162
2023-02-16 04:36:06:497,-2.03104,-1.11552,-9.45647,6.58472,-11.7867,91.4154
2023-02-16 04:36:06:507,-2.02032,-1.14879,-9.42622,6.57795,-11.7888,91.4156
2023-02-16 04:36:06:517,-2.07063,-1.11861,-9.45027,6.57035,-11.7897,91.4114
2023-02-16 04:36:06:527,-2.08052,-1.0783,-9.49241,6.56154,-11.7894,91.4113
2023-02-16 04:36:06:537,-2.01047,-1.06933,-9.54011,6.55143,-11.7835,91.4096
2023-02-16 04:36:06:547,-1.92591,-1.07913,-9.55685,6.54469,-11.7729,91.4011
2023-02-16 04:36:06:558,-1.9231,-1.10131,-9.54329,6.54188,-11.7668,91.3943
2023-02-16 04:36:06:567,-1.97787,-1.08649,-9.5626,6.53801,-11.7679,91.3903
2023-02-16 04:36:06:577,-1.99153,-1.05424,-9.59931,6.53851,-11.7664,91.3858
2023-02-16 04:36:06:588,-1.99546,-1.04914,-9.60339,6.54179,-11.7706,91.3792
2023-02-16 04:36:06:598,-2.00214,-1.05189,-9.59609,6.548,-11.7738,91.3717
2023-02-16 04:36:06:607,-2.01361,-1.04597,-9.58601,6.56039,-11.7818,91.3629
2023-02-16 04:36:06:617,-2.00402,-1.06546,-9.55662,6.5732,-11.7827,91.3522
2023-02-16 04:36:06:627,-2.00942,-1.08893,-9.51253,6.59218,-11.7832,91.3466
2023-02-16 04:36:06:637,-2.02982,-1.10883,-9.48219,6.60786,-11.7856,91.3366
2023-02-16 04:36:06:647,-2.03802,-1.13286,-9.47947,6.62361,-11.7842,91.325
2023-02-16 04:36:06:657,-2.03451,-1.13704,-9.47137,6.64196,-11.7806,91.3087
2023-02-16 04:36:06:667,-1.99734,-1.14452,-9.45443,6.66005,-11.7788,91.2887
2023-02-16 04:36:06:677,-1.94883,-1.13851,-9.44839,6.67496,-11.7723,91.2674
2023-02-16 04:36:06:688,-1.89755,-1.14483,-9.48988,6.69147,-11.7672,91.2423
2023-02-16 04:36:06:697,-1.87291,-1.14625,-9.52057,6.70113,-11.7639,91.2222
2023-02-16 04:36:06:707,-1.8365,-1.14853,-9.52646,6.71323,-11.7616,91.208
2023-02-16 04:36:06:717,-1.82399,-1.16188,-9.54276,6.72443,-11.761,91.1985
2023-02-16 04:36:06:727,-1.84039,-1.16583,-9.53444,6.73312,-11.7657,91.1925
2023-02-16 04:36:06:737,-1.88058,-1.1629,-9.5161,6.73935,-11.773,91.1972
2023-02-16 04:36:06:747,-1.93821,-1.1558,-9.51725,6.74137,-11.7802,91.212
2023-02-16 04:36:06:757,-1.99827,-1.15241,-9.52191,6.74721,-11.7869,91.23
2023-02-16 04:36:06:767,-2.04875,-1.14427,-9.54358,6.75422,-11.7903,91.2537
2023-02-16 04:36:06:777,-2.06393,-1.13837,-9.54694,6.76589,-11.7905,91.2774
2023-02-16 04:36:06:787,-2.04297,-1.14443,-9.52424,6.77515,-11.7874,91.2976
2023-02-16 04:36:06:797,-1.99924,-1.16104,-9.49702,6.78667,-11.782,91.3128
2023-02-16 04:36:06:807,-1.95815,-1.1599,-9.48658,6.79722,-11.7792,91.3256
2023-02-16 04:36:06:817,-1.8934,-1.16574,-9.46856,6.8086,-11.7774,91.3371
2023-02-16 04:36:06:827,-1.86151,-1.19949,-9.4593,6.82018,-11.7776,91.3439
2023-02-16 04:36:06:837,-1.86376,-1.19996,-9.43777,6.82873,-11.7824,91.3538
2023-02-16 04:36:06:847,-1.90845,-1.19738,-9.44283,6.83127,-11.7903,91.3671
2023-02-16 04:36:06:857,-1.96013,-1.17737,-9.4648,6.82758,-11.8034,91.3808
2023-02-16 04:36:06:867,-1.98224,-1.17036,-9.49082,6.82636,-11.815,91.3952
2023-02-16 04:36:06:877,-2.0188,-1.17155,-9.47583,6.82173,-11.8256,91.4085
2023-02-16 04:36:06:888,-2.05972,-1.17402,-9.44113,6.81766,-11.835,91.4237
2023-02-16 04:36:06:897,-2.09812,-1.16318,-9.42674,6.80618,-11.8457,91.4361
2023-02-16 04:36:06:907,-2.10779,-1.13829,-9.45176,6.79445,-11.8565,91.4425
2023-02-16 04:36:06:917,-2.1121,-1.12513,-9.50154,6.78096,-11.8651,91.4429
2023-02-16 04:36:06:927,-2.09694,-1.10217,-9.50985,6.76938,-11.8736,91.4371
2023-02-16 04:36:06:937,-2.06885,-1.10561,-9.51005,6.75675,-11.8787,91.4302
2023-02-16 04:36:06:947,-2.02162,-1.10994,-9.52309,6.74687,-11.8819,91.4147
2023-02-16 04:36:06:957,-1.96846,-1.11419,-9.51632,6.73556,-11.8829,91.398
2023-02-16 04:36:06:967,-1.92714,-1.12072,-9.52338,6.72894,-11.8872,91.3802
2023-02-16 04:36:06:977,-1.89323,-1.11002,-9.55154,6.72172,-11.8868,91.367
2023-02-16 04:36:06:987,-1.90739,-1.10578,-9.59298,6.7175,-11.8873,91.3595
2023-02-16 04:36:06:997,-1.96963,-1.10181,-9.60435,6.71793,-11.8876,91.3566
2023-02-16 04:36:07:7,-2.00135,-1.10339,-9.60012,6.718,-11.89,91.3599
2023-02-16 04:36:07:17,-2.0092,-1.11141,-9.5793,6.72452,-11.8941,91.3625
2023-02-16 04:36:07:27,-2.0378,-1.14679,-9.51795,6.73783,-11.9004,91.3654
2023-02-16 04:36:07:37,-2.10491,-1.16917,-9.4639,6.74933,-11.9085,91.3683
2023-02-16 04:36:07:47,-2.11932,-1.15047,-9.47204,6.75341,-11.918,91.3659
2023-02-16 04:36:07:57,-2.0959,-1.11263,-9.50372,6.75548,-11.9275,91.3554
2023-02-16 04:36:07:67,-2.05015,-1.08786,-9.52738,6.75215,-11.9364,91.34
2023-02-16 04:36:07:77,-2.03216,-1.10426,-9.52423,6.75392,-11.9428,91.3261
2023-02-16 04:36:07:87,-2.0258,-1.11124,-9.46306,6.75813,-11.9485,91.3157
2023-02-16 04:36:07:97,-2.03681,-1.11736,-9.43418,6.76056,-11.9564,91.3061
2023-02-16 04:36:07:107,-2.09818,-1.11092,-9.42831,6.75687,-11.9662,91.3005
2023-02-16 04:36:07:117,-2.17627,-1.09377,-9.41313,6.7578,-11.9702,91.2985
2023-02-16 04:36:07:127,-2.22556,-1.09958,-9.40544,6.75662,-11.9701,91.2963
2023-02-16 04:36:07:137,-2.23971,-1.10773,-9.4223,6.75126,-11.9619,91.2921
2023-02-16 04:36:07:147,-2.22748,-1.10903,-9.4346,6.74566,-11.9472,91.2808
2023-02-16 04:36:07:157,-2.18028,-1.0974,-9.44764,6.74187,-11.9233,91.2648
2023-02-16 04:36:07:167,-2.13574,-1.10443,-9.46723,6.73506,-11.8975,91.2427
2023-02-16 04:36:07:177,-2.0748,-1.11306,-9.47772,6.72685,-11.8681,91.2174
2023-02-16 04:36:07:187,-2.02134,-1.12285,-9.52335,6.71842,-11.8391,91.189
2023-02-16 04:36:07:197,-1.99264,-1.10544,-9.55426,6.71413,-11.8064,91.1586
2023-02-16 04:36:07:207,-1.94712,-1.1022,-9.55207,6.70614,-11.7758,91.1258
2023-02-16 04:36:07:217,-1.89193,-1.11699,-9.55022,6.69994,-11.7486,91.096
2023-02-16 04:36:07:227,-1.86781,-1.119,-9.52173,6.69314,-11.7221,91.0694
2023-02-16 04:36:07:237,-1.8793,-1.11864,-9.46464,6.68527,-11.7004,91.0477
2023-02-16 04:36:07:247,-1.90738,-1.13191,-9.47816,6.67553,-11.6842,91.0294
2023-02-16 04:36:07:257,-1.97928,-1.108,-9.53361,6.65892,-11.6649,91.0168
2023-02-16 04:36:07:267,-2.03986,-1.03239,-9.59123,6.63726,-11.6502,91.0056
2023-02-16 04:36:07:277,-2.00255,-1.04344,-9.59099,6.62852,-11.6277,90.9904
2023-02-16 04:36:07:287,-1.93946,-1.09958,-9.53569,6.63103,-11.6035,90.9683
2023-02-16 04:36:07:297,-1.9013,-1.1018,-9.54452,6.63293,-11.5845,90.9442
2023-02-16 04:36:07:307,-1.87441,-1.07024,-9.60145,6.63011,-11.5701,90.9189
2023-02-16 04:36:07:318,-1.85304,-1.07461,-9.61886,6.63305,-11.5557,90.8919
2023-02-16 04:36:07:327,-1.82391,-1.08151,-9.60038,6.63953,-11.5401,90.8693
2023-02-16 04:36:07:337,-1.77806,-1.10676,-9.56104,6.65283,-11.5298,90.8485
2023-02-16 04:36:07:347,-1.76474,-1.12799,-9.53973,6.65981,-11.5214,90.835
2023-02-16 04:36:07:357,-1.792,-1.12364,-9.53492,6.66363,-11.5151,90.8305
2023-02-16 04:36:07:367,-1.83352,-1.10602,-9.55551,6.66617,-11.5107,90.8315
2023-02-16 04:36:07:377,-1.86794,-1.08636,-9.56118,6.66686,-11.5003,90.8368
2023-02-16 04:36:07:387,-1.91776,-1.07962,-9.54771,6.66837,-11.4968,90.8454
2023-02-16 04:36:07:397,-1.97273,-1.08807,-9.53905,6.673,-11.4946,90.8518
2023-02-16 04:36:07:408,-2.00772,-1.09146,-9.51822,6.68156,-11.4941,90.8575
2023-02-16 04:36:07:417,-1.96032,-1.10522,-9.53845,6.68884,-11.4928,90.8578
2023-02-16 04:36:07:427,-1.84617,-1.11307,-9.56387,6.69945,-11.4919,90.8546
2023-02-16 04:36:07:437,-1.71876,-1.12713,-9.5967,6.70775,-11.4867,90.8516
2023-02-16 04:36:07:447,-1.62438,-1.12644,-9.636,6.72167,-11.4812,90.8557
2023-02-16 04:36:07:457,-1.6633,-1.12064,-9.66191,6.73631,-11.4754,90.8771
2023-02-16 04:36:07:467,-1.86509,-1.102,-9.65593,6.75406,-11.4755,90.9165
2023-02-16 04:36:07:477,-2.0263,-1.08547,-9.6032,6.77877,-11.4732,90.9667
2023-02-16 04:36:07:488,-2.03053,-1.11322,-9.51089,6.81275,-11.4683,91.013
2023-02-16 04:36:07:497,-1.99052,-1.18009,-9.41082,6.84825,-11.4612,91.054
2023-02-16 04:36:07:507,-1.97999,-1.23007,-9.34412,6.88058,-11.4557,91.0899
2023-02-16 04:36:07:517,-1.99525,-1.24432,-9.30908,6.90216,-11.454,91.1173
2023-02-16 04:36:07:527,-1.98235,-1.23508,-9.30731,6.91202,-11.4536,91.136
2023-02-16 04:36:07:537,-1.94834,-1.23059,-9.34981,6.91286,-11.4583,91.1445
2023-02-16 04:36:07:548,-1.89562,-1.20417,-9.43125,6.90625,-11.4615,91.1501
2023-02-16 04:36:07:557,-1.86377,-1.18111,-9.46651,6.89709,-11.4687,91.1564
2023-02-16 04:36:07:567,-1.85456,-1.18414,-9.48681,6.88572,-11.4773,91.1641
2023-02-16 04:36:07:577,-1.83079,-1.1874,-9.50489,6.8714,-11.4827,91.1741
2023-02-16 04:36:07:588,-1.83606,-1.17365,-9.51968,6.85454,-11.4893,91.1918
2023-02-16 04:36:07:597,-1.88944,-1.14841,-9.55001,6.83933,-11.495,91.2089
2023-02-16 04:36:07:608,-1.92935,-1.12328,-9.56404,6.82465,-11.502,91.2276
2023-02-16 04:36:07:617,-2.00462,-1.12587,-9.55286,6.8115,-11.5074,91.2506
2023-02-16 04:36:07:627,-2.0805,-1.11303,-9.51528,6.80218,-11.515,91.2728
2023-02-16 04:36:07:637,-2.05219,-1.13542,-9.48894,6.7934,-11.5241,91.2837
2023-02-16 04:36:07:648,-1.97693,-1.15002,-9.47309,6.78267,-11.5297,91.2861
2023-02-16 04:36:07:657,-1.90995,-1.15364,-9.48887,6.76914,-11.5374,91.2817
2023-02-16 04:36:07:668,-1.91251,-1.14587,-9.49083,6.75274,-11.5481,91.2755
2023-02-16 04:36:07:677,-1.94285,-1.12787,-9.49369,6.73491,-11.5584,91.2722
2023-02-16 04:36:07:687,-1.95999,-1.11692,-9.51807,6.71747,-11.5679,91.2683
2023-02-16 04:36:07:697,-1.94502,-1.10337,-9.53908,6.69977,-11.5741,91.2647
2023-02-16 04:36:07:707,-1.93259,-1.10268,-9.54335,6.68519,-11.5786,91.2637
2023-02-16 04:36:07:717,-1.93379,-1.11024,-9.5054,6.67367,-11.5812,91.2682
2023-02-16 04:36:07:727,-1.9551,-1.13275,-9.49061,6.66491,-11.5866,91.2675
2023-02-16 04:36:07:737,-2.00978,-1.14898,-9.51383,6.6547,-11.5904,91.2674
2023-02-16 04:36:07:747,-2.08216,-1.11038,-9.54564,6.63988,-11.5973,91.2644
2023-02-16 04:36:07:757,-2.08055,-1.08871,-9.62621,6.62986,-11.603,91.2503
2023-02-16 04:36:07:767,-2.00096,-1.07655,-9.66427,6.62194,-11.6113,91.2255
2023-02-16 04:36:07:777,-1.90757,-1.09722,-9.6576,6.62126,-11.6222,91.1958
2023-02-16 04:36:07:787,-1.88575,-1.12685,-9.59299,6.63035,-11.6366,91.1624
2023-02-16 04:36:07:797,-1.88332,-1.13809,-9.5229,6.63942,-11.6552,91.1362
2023-02-16 04:36:07:807,-1.87772,-1.15028,-9.47121,6.64841,-11.6696,91.1141
2023-02-16 04:36:07:817,-1.91199,-1.16675,-9.44349,6.65257,-11.6853,91.1034
2023-02-16 04:36:07:827,-2.00177,-1.13866,-9.45454,6.65206,-11.6987,91.1009
2023-02-16 04:36:07:837,-2.06864,-1.11398,-9.49366,6.64644,-11.7085,91.1005
2023-02-16 04:36:07:847,-2.12654,-1.08526,-9.49913,6.6437,-11.7172,91.0988
2023-02-16 04:36:07:857,-2.13632,-1.08524,-9.49496,6.64255,-11.7313,91.0884
2023-02-16 04:36:07:867,-2.09867,-1.08248,-9.50316,6.64407,-11.7397,91.0691
2023-02-16 04:36:07:877,-2.05625,-1.08905,-9.51518,6.65041,-11.7498,91.0421
2023-02-16 04:36:07:887,-2.01286,-1.08915,-9.53138,6.6587,-11.7593,91.0094
2023-02-16 04:36:07:897,-1.9873,-1.10238,-9.52298,6.66906,-11.7635,90.9804
2023-02-16 04:36:07:907,-1.95405,-1.13347,-9.50117,6.68283,-11.766,90.9547
2023-02-16 04:36:07:917,-1.97368,-1.15937,-9.48078,6.69372,-11.7695,90.9377
2023-02-16 04:36:07:927,-2.01975,-1.15584,-9.49729,6.70066,-11.7649,90.9259
2023-02-16 04:36:07:937,-2.04886,-1.14245,-9.5399,6.70938,-11.759,90.914
2023-02-16 04:36:07:947,-2.05813,-1.13047,-9.57681,6.71116,-11.7488,90.9069
2023-02-16 04:36:07:957,-2.04396,-1.12053,-9.57717,6.71593,-11.7377,90.8928
2023-02-16 04:36:07:968,-2.01596,-1.11307,-9.5266,6.72026,-11.728,90.8728
2023-02-16 04:36:07:978,-1.97,-1.12589,-9.46609,6.72921,-11.7212,90.8495
2023-02-16 04:36:07:987,-1.91,-1.15192,-9.45522,6.73749,-11.7172,90.8251
2023-02-16 04:36:07:997,-1.84721,-1.14613,-9.49852,6.742,-11.7133,90.7982
2023-02-16 04:36:08:8,-1.81584,-1.13748,-9.53339,6.74499,-11.708,90.7794
2023-02-16 04:36:08:17,-1.81628,-1.14398,-9.52272,6.75156,-11.703,90.7688
2023-02-16 04:36:08:27,-1.89372,-1.16286,-9.50396,6.76082,-11.7003,90.7674
2023-02-16 04:36:08:37,-1.99846,-1.15485,-9.48797,6.76801,-11.695,90.7702
2023-02-16 04:36:08:47,-2.05475,-1.14317,-9.48793,6.77421,-11.6937,90.7705
2023-02-16 04:36:08:57,-2.05512,-1.14128,-9.47089,6.78017,-11.6931,90.7663
2023-02-16 04:36:08:68,-2.0461,-1.15465,-9.45914,6.78542,-11.6918,90.7559
2023-02-16 04:36:08:77,-1.99326,-1.16391,-9.46761,6.78797,-11.6963,90.7374
2023-02-16 04:36:08:88,-1.91279,-1.14336,-9.51035,6.78629,-11.7041,90.713
2023-02-16 04:36:08:97,-1.874,-1.12857,-9.517,6.78491,-11.7106,90.6884
2023-02-16 04:36:08:108,-1.89261,-1.15045,-9.49519,6.78077,-11.7205,90.6688
2023-02-16 04:36:08:118,-1.90142,-1.15809,-9.50804,6.77607,-11.7311,90.6565
2023-02-16 04:36:08:127,-1.94415,-1.11377,-9.5066,6.769,-11.7362,90.6529
2023-02-16 04:36:08:137,-1.99058,-1.10282,-9.47736,6.76341,-11.7415,90.6497
2023-02-16 04:36:08:147,-1.99261,-1.11381,-9.47801,6.75612,-11.7469,90.6485
2023-02-16 04:36:08:157,-1.97676,-1.11227,-9.48841,6.74849,-11.749,90.6491
2023-02-16 04:36:08:167,-1.98183,-1.0989,-9.53176,6.74314,-11.7525,90.6434
2023-02-16 04:36:08:177,-1.97021,-1.085,-9.58049,6.73572,-11.7563,90.6396
2023-02-16 04:36:08:188,-1.91654,-1.07223,-9.61066,6.73071,-11.7605,90.636
2023-02-16 04:36:08:198,-1.90681,-1.07754,-9.59288,6.73142,-11.7654,90.6353
2023-02-16 04:36:08:208,-1.92505,-1.10969,-9.53052,6.739,-11.769,90.6408
2023-02-16 04:36:08:217,-1.93407,-1.14599,-9.49704,6.74383,-11.7731,90.6519
2023-02-16 04:36:08:227,-1.94863,-1.14874,-9.48828,6.74308,-11.7774,90.6669
2023-02-16 04:36:08:237,-1.98053,-1.13026,-9.51271,6.74457,-11.7822,90.6868
2023-02-16 04:36:08:247,-2.0193,-1.10092,-9.5213,6.73981,-11.7887,90.7055
2023-02-16 04:36:08:257,-2.04307,-1.0875,-9.51512,6.73312,-11.7939,90.7237
2023-02-16 04:36:08:267,-2.04431,-1.10955,-9.49494,6.73046,-11.8008,90.7367
2023-02-16 04:36:08:277,-2.07731,-1.10679,-9.49664,6.72416,-11.8136,90.7481
2023-02-16 04:36:08:288,-2.10973,-1.09278,-9.50717,6.72004,-11.8249,90.7552
2023-02-16 04:36:08:297,-2.08918,-1.09143,-9.5099,6.7172,-11.8358,90.7561
2023-02-16 04:36:08:307,-2.06749,-1.10265,-9.46925,6.71636,-11.846,90.7534
2023-02-16 04:36:08:317,-2.04706,-1.13311,-9.43941,6.71639,-11.8505,90.749
2023-02-16 04:36:08:327,-2.05323,-1.14375,-9.43548,6.71392,-11.8538,90.7447
2023-02-16 04:36:08:337,-2.03028,-1.12339,-9.45798,6.70799,-11.8565,90.7401
2023-02-16 04:36:08:347,-2.03609,-1.11198,-9.51755,6.69883,-11.8564,90.7361
2023-02-16 04:36:08:357,-2.05611,-1.07591,-9.57824,6.68763,-11.8527,90.7311
2023-02-16 04:36:08:367,-2.07803,-1.0571,-9.61219,6.68364,-11.8513,90.7219
2023-02-16 04:36:08:377,-2.07175,-1.06765,-9.58818,6.68642,-11.8486,90.7117
2023-02-16 04:36:08:388,-2.01986,-1.09478,-9.5437,6.69042,-11.8436,90.7003
2023-02-16 04:36:08:397,-1.99204,-1.08833,-9.54012,6.69299,-11.8368,90.6895
2023-02-16 04:36:08:407,-1.97838,-1.07163,-9.53791,6.70195,-11.8323,90.6778
2023-02-16 04:36:08:417,-1.94864,-1.09347,-9.47115,6.71007,-11.8265,90.6706
2023-02-16 04:36:08:427,-1.93601,-1.15442,-9.40232,6.7201,-11.8208,90.6634
2023-02-16 04:36:08:437,-1.93232,-1.1633,-9.41018,6.72485,-11.8164,90.6579
2023-02-16 04:36:08:447,-1.95681,-1.12008,-9.52207,6.71726,-11.8099,90.6557
2023-02-16 04:36:08:457,-1.99406,-1.07126,-9.60309,6.70889,-11.8072,90.657
2023-02-16 04:36:08:467,-2.03169,-1.05134,-9.62682,6.70577,-11.8014,90.6588
2023-02-16 04:36:08:477,-2.03664,-1.06,-9.58638,6.71412,-11.7943,90.6575
2023-02-16 04:36:08:487,-1.99993,-1.08592,-9.56001,6.72953,-11.7864,90.6574
2023-02-16 04:36:08:497,-1.96017,-1.1078,-9.51958,6.74534,-11.7803,90.6568
2023-02-16 04:36:08:507,-1.95902,-1.1334,-9.45079,6.75934,-11.7778,90.6526
2023-02-16 04:36:08:517,-1.96575,-1.14136,-9.44363,6.77216,-11.775,90.6505
2023-02-16 04:36:08:528,-1.97785,-1.14383,-9.46126,6.7847,-11.7733,90.6476
2023-02-16 04:36:08:538,-1.98008,-1.15245,-9.47638,6.79784,-11.7735,90.643
2023-02-16 04:36:08:547,-1.95607,-1.17161,-9.49828,6.80911,-11.7692,90.6352
2023-02-16 04:36:08:557,-1.90735,-1.16968,-9.54238,6.81692,-11.7681,90.6318
2023-02-16 04:36:08:568,-1.89049,-1.18287,-9.56928,6.82328,-11.7697,90.6255
2023-02-16 04:36:08:577,-1.93737,-1.18141,-9.54348,6.83244,-11.7727,90.619
2023-02-16 04:36:08:587,-2.00226,-1.18433,-9.53393,6.83868,-11.7839,90.618
2023-02-16 04:36:08:597,-2.0285,-1.16718,-9.53318,6.84345,-11.7957,90.616
2023-02-16 04:36:08:607,-2.02793,-1.1586,-9.50214,6.85123,-11.8049,90.6107
2023-02-16 04:36:08:617,-2.03116,-1.17618,-9.44261,6.85835,-11.8121,90.6082
2023-02-16 04:36:08:627,-2.04019,-1.18788,-9.4,6.86031,-11.8179,90.604
2023-02-16 04:36:08:637,-2.02748,-1.18191,-9.39627,6.8604,-11.8231,90.6005
2023-02-16 04:36:08:647,-2.00784,-1.16421,-9.39981,6.85485,-11.8293,90.5942
2023-02-16 04:36:08:657,-2.0142,-1.1631,-9.41103,6.84791,-11.8345,90.5887
2023-02-16 04:36:08:667,-2.07878,-1.15885,-9.42816,6.83594,-11.8395,90.5838
2023-02-16 04:36:08:677,-2.16191,-1.13887,-9.45126,6.8232,-11.8443,90.5799
2023-02-16 04:36:08:687,-2.1976,-1.12177,-9.48854,6.81079,-11.8458,90.5711
2023-02-16 04:36:08:697,-2.17162,-1.12532,-9.51355,6.80122,-11.8457,90.5536
2023-02-16 04:36:08:707,-2.1291,-1.13042,-9.5229,6.7921,-11.8401,90.5278
2023-02-16 04:36:08:717,-2.11926,-1.13403,-9.52298,6.78846,-11.8338,90.4947
2023-02-16 04:36:08:727,-2.11161,-1.15255,-9.4918,6.78553,-11.8261,90.4542
2023-02-16 04:36:08:737,-2.08619,-1.1681,-9.49353,6.78107,-11.815,90.4092
2023-02-16 04:36:08:747,-2.07665,-1.1608,-9.49326,6.77709,-11.8075,90.3567
2023-02-16 04:36:08:757,-2.05195,-1.15811,-9.48826,6.7692,-11.7959,90.2995
2023-02-16 04:36:08:767,-2.02583,-1.14067,-9.44438,6.75526,-11.7862,90.2411
2023-02-16 04:36:08:777,-2.0058,-1.14929,-9.43992,6.74321,-11.7796,90.1797
2023-02-16 04:36:08:788,-1.99355,-1.11056,-9.48082,6.7255,-11.7679,90.1171
2023-02-16 04:36:08:797,-1.97239,-1.0849,-9.50236,6.70561,-11.757,90.0523
2023-02-16 04:36:08:807,-1.91227,-1.08098,-9.54854,6.69049,-11.7455,89.985
2023-02-16 04:36:08:818,-1.82467,-1.07894,-9.61058,6.67457,-11.7329,89.9161
2023-02-16 04:36:08:827,-1.78677,-1.0852,-9.62426,6.66579,-11.7214,89.8518
2023-02-16 04:36:08:837,-1.82768,-1.09581,-9.57378,6.6612,-11.7109,89.7986
2023-02-16 04:36:08:847,-1.86039,-1.10362,-9.55522,6.65681,-11.6996,89.7526
2023-02-16 04:36:08:858,-1.84225,-1.09495,-9.57582,6.65053,-11.6883,89.715
2023-02-16 04:36:08:867,-1.83117,-1.08818,-9.57143,6.646,-11.6773,89.684
2023-02-16 04:36:08:877,-1.83272,-1.11354,-9.56414,6.64275,-11.6662,89.6605
2023-02-16 04:36:08:888,-1.80728,-1.13407,-9.57761,6.64132,-11.6505,89.6469
2023-02-16 04:36:08:898,-1.75115,-1.10254,-9.60791,6.6389,-11.6267,89.6451
2023-02-16 04:36:08:908,-1.6815,-1.0871,-9.61634,6.63907,-11.61,89.6503
2023-02-16 04:36:08:917,-1.69711,-1.09656,-9.61556,6.64176,-11.5918,89.6667
2023-02-16 04:36:08:927,-1.76867,-1.09058,-9.57409,6.64487,-11.5822,89.6953
2023-02-16 04:36:08:937,-1.82184,-1.10623,-9.53264,6.65276,-11.5738,89.7367
2023-02-16 04:36:08:947,-1.88387,-1.10821,-9.5052,6.66459,-11.5669,89.7809
2023-02-16 04:36:08:957,-1.91076,-1.12116,-9.51994,6.67422,-11.5625,89.8316
2023-02-16 04:36:08:967,-1.93748,-1.11173,-9.51205,6.68144,-11.5607,89.8846
2023-02-16 04:36:08:977,-1.9749,-1.11379,-9.5282,6.68863,-11.5606,89.9413
2023-02-16 04:36:08:987,-1.97579,-1.12994,-9.54215,6.70018,-11.5609,89.9947
2023-02-16 04:36:08:997,-1.95146,-1.12749,-9.5684,6.71024,-11.5611,90.041
2023-02-16 04:36:09:7,-2.0007,-1.12027,-9.57531,6.72309,-11.5668,90.086
2023-02-16 04:36:09:17,-2.07056,-1.1058,-9.53593,6.73923,-11.5736,90.1296
2023-02-16 04:36:09:27,-2.11034,-1.11464,-9.46357,6.75566,-11.5836,90.1715
2023-02-16 04:36:09:37,-2.12171,-1.15388,-9.40587,6.77027,-11.591,90.1995
2023-02-16 04:36:09:47,-2.11663,-1.17774,-9.40239,6.78252,-11.5982,90.2212
2023-02-16 04:36:09:57,-2.10062,-1.16232,-9.39948,6.79375,-11.6054,90.2388
2023-02-16 04:36:09:67,-2.08987,-1.14453,-9.43222,6.79959,-11.6071,90.2492
2023-02-16 04:36:09:77,-2.05095,-1.14058,-9.46268,6.80367,-11.6077,90.2521
2023-02-16 04:36:09:87,-1.98526,-1.14985,-9.46291,6.80401,-11.6057,90.2528
2023-02-16 04:36:09:97,-1.974,-1.17276,-9.4707,6.80463,-11.6006,90.2508
2023-02-16 04:36:09:107,-1.99367,-1.14468,-9.50854,6.80191,-11.5978,90.2502
2023-02-16 04:36:09:117,-1.99717,-1.11311,-9.54203,6.80046,-11.5941,90.2482
2023-02-16 04:36:09:127,-2.00615,-1.10664,-9.55503,6.80124,-11.59,90.2473
2023-02-16 04:36:09:137,-2.01557,-1.11399,-9.55108,6.80268,-11.5804,90.246
2023-02-16 04:36:09:147,-1.99209,-1.1252,-9.52935,6.80885,-11.5694,90.2427
2023-02-16 04:36:09:157,-1.96481,-1.14411,-9.49951,6.81579,-11.5603,90.2354
2023-02-16 04:36:09:167,-1.9537,-1.14723,-9.46812,6.82126,-11.5495,90.229
2023-02-16 04:36:09:177,-1.92856,-1.1654,-9.48672,6.82716,-11.5338,90.219
2023-02-16 04:36:09:187,-1.88782,-1.16269,-9.49065,6.83142,-11.5224,90.2112
2023-02-16 04:36:09:197,-1.89468,-1.17819,-9.484,6.83581,-11.5119,90.2038
2023-02-16 04:36:09:207,-1.92061,-1.18825,-9.47637,6.83743,-11.5028,90.2009
2023-02-16 04:36:09:217,-1.95166,-1.18593,-9.49604,6.83568,-11.4953,90.1992
2023-02-16 04:36:09:227,-1.96091,-1.17223,-9.51751,6.83327,-11.4834,90.1971
2023-02-16 04:36:09:237,-1.96117,-1.16039,-9.52131,6.82818,-11.4695,90.1983
2023-02-16 04:36:09:247,-1.97108,-1.1533,-9.50614,6.82886,-11.4601,90.2014
2023-02-16 04:36:09:257,-1.98092,-1.1697,-9.48015,6.82777,-11.4494,90.2042
2023-02-16 04:36:09:267,-2.02122,-1.16199,-9.48553,6.81959,-11.4329,90.208
2023-02-16 04:36:09:277,-2.03738,-1.14949,-9.49622,6.81508,-11.4197,90.2104
2023-02-16 04:36:09:287,-1.99474,-1.14461,-9.47931,6.80924,-11.4028,90.2061
2023-02-16 04:36:09:297,-1.927,-1.15213,-9.48339,6.80564,-11.3852,90.1949
2023-02-16 04:36:09:307,-1.86613,-1.15059,-9.51635,6.79962,-11.3671,90.1809
2023-02-16 04:36:09:317,-1.81066,-1.14753,-9.52838,6.79368,-11.3551,90.1651
2023-02-16 04:36:09:327,-1.80229,-1.13784,-9.49776,6.79187,-11.3449,90.1524
2023-02-16 04:36:09:337,-1.83017,-1.13765,-9.51445,6.78641,-11.336,90.1444
2023-02-16 04:36:09:347,-1.83667,-1.12234,-9.56585,6.77488,-11.3276,90.1399
2023-02-16 04:36:09:357,-1.81605,-1.10266,-9.65527,6.76675,-11.3166,90.1331
2023-02-16 04:36:09:367,-1.80036,-1.09016,-9.6982,6.76177,-11.3083,90.1322
2023-02-16 04:36:09:377,-1.79164,-1.11298,-9.67455,6.76271,-11.3032,90.1323
2023-02-16 04:36:09:387,-1.81175,-1.14048,-9.62177,6.7656,-11.3018,90.1401
2023-02-16 04:36:09:397,-1.84357,-1.15592,-9.5639,6.77346,-11.306,90.1517
2023-02-16 04:36:09:407,-1.83945,-1.16033,-9.5222,6.77883,-11.3081,90.1632
2023-02-16 04:36:09:417,-1.82537,-1.15417,-9.50461,6.78015,-11.3175,90.1786
2023-02-16 04:36:09:427,-1.81352,-1.12179,-9.49645,6.77686,-11.3245,90.1961
2023-02-16 04:36:09:437,-1.83963,-1.10757,-9.49073,6.77462,-11.3314,90.2165
2023-02-16 04:36:09:447,-1.83725,-1.10743,-9.48272,6.7705,-11.3406,90.2402
2023-02-16 04:36:09:457,-1.84005,-1.12154,-9.47272,6.76276,-11.3485,90.2664
2023-02-16 04:36:09:467,-1.84195,-1.11378,-9.49473,6.75997,-11.3592,90.2946
2023-02-16 04:36:09:477,-1.84348,-1.08749,-9.5377,6.75508,-11.3706,90.3267
2023-02-16 04:36:09:487,-1.82065,-1.07871,-9.55422,6.75296,-11.3795,90.3596
2023-02-16 04:36:09:497,-1.79129,-1.10854,-9.54609,6.75661,-11.3835,90.399
2023-02-16 04:36:09:507,-1.80373,-1.11586,-9.5379,6.75713,-11.3907,90.4469
2023-02-16 04:36:09:517,-1.87594,-1.11773,-9.55864,6.75673,-11.3951,90.4982
2023-02-16 04:36:09:527,-1.95218,-1.09704,-9.59415,6.75681,-11.4018,90.5551
2023-02-16 04:36:09:537,-2.03437,-1.07207,-9.60502,6.75511,-11.4106,90.6122
2023-02-16 04:36:09:547,-2.11583,-1.0615,-9.58263,6.75452,-11.4154,90.665
2023-02-16 04:36:09:557,-2.13185,-1.07467,-9.55229,6.75795,-11.4241,90.7118
2023-02-16 04:36:09:567,-2.08947,-1.08457,-9.51875,6.76629,-11.4311,90.7425
2023-02-16 04:36:09:577,-2.03205,-1.08429,-9.49647,6.76862,-11.4391,90.7623
2023-02-16 04:36:09:587,-1.96922,-1.08891,-9.46496,6.77387,-11.447,90.7746
2023-02-16 04:36:09:597,-1.92014,-1.10317,-9.48683,6.77577,-11.4552,90.7799
2023-02-16 04:36:09:607,-1.92796,-1.08618,-9.51889,6.78076,-11.4638,90.7871
2023-02-16 04:36:09:617,-1.95515,-1.07143,-9.5173,6.78521,-11.4654,90.7965
2023-02-16 04:36:09:627,-1.938,-1.09069,-9.53093,6.7914,-11.4615,90.8109
2023-02-16 04:36:09:637,-1.91718,-1.10484,-9.53457,6.80338,-11.461,90.8221
2023-02-16 04:36:09:647,-1.93997,-1.13011,-9.50466,6.8168,-11.4628,90.8404
2023-02-16 04:36:09:657,-1.98363,-1.14899,-9.47538,6.82963,-11.4654,90.8525
2023-02-16 04:36:09:667,-2.02508,-1.15911,-9.47619,6.8405,-11.4671,90.866
2023-02-16 04:36:09:677,-2.03926,-1.16367,-9.49418,6.85021,-11.4684,90.8761
2023-02-16 04:36:09:687,-2.02071,-1.16941,-9.50238,6.85727,-11.4708,90.8782
2023-02-16 04:36:09:697,-1.98541,-1.17377,-9.49704,6.86458,-11.4721,90.8791
2023-02-16 04:36:09:707,-1.95214,-1.17789,-9.48324,6.86583,-11.4745,90.8775
2023-02-16 04:36:09:717,-1.90646,-1.16351,-9.48209,6.86672,-11.4762,90.8721
2023-02-16 04:36:09:727,-1.86887,-1.15677,-9.4942,6.86566,-11.4758,90.8684
2023-02-16 04:36:09:737,-1.87637,-1.1589,-9.48811,6.86049,-11.4747,90.8682
2023-02-16 04:36:09:747,-1.91822,-1.14957,-9.47197,6.85668,-11.477,90.869
2023-02-16 04:36:09:757,-1.94463,-1.13985,-9.46784,6.85016,-11.4799,90.8722
2023-02-16 04:36:09:767,-1.94709,-1.15234,-9.50696,6.84352,-11.4815,90.876
2023-02-16 04:36:09:777,-1.94614,-1.15253,-9.5422,6.8359,-11.4839,90.878
2023-02-16 04:36:09:787,-1.957,-1.15633,-9.54506,6.8298,-11.4875,90.8801
2023-02-16 04:36:09:797,-1.96454,-1.1618,-9.54748,6.82567,-11.4907,90.8788
2023-02-16 04:36:09:807,-1.95658,-1.16648,-9.56199,6.82448,-11.4929,90.8748
2023-02-16 04:36:09:817,-1.94821,-1.16913,-9.54258,6.82309,-11.4976,90.8726
2023-02-16 04:36:09:827,-1.96179,-1.16056,-9.51131,6.82345,-11.5086,90.869
2023-02-16 04:36:09:837,-1.97231,-1.15166,-9.50086,6.82118,-11.5149,90.8638
2023-02-16 04:36:09:847,-1.95846,-1.15415,-9.50155,6.82022,-11.5231,90.8661
2023-02-16 04:36:09:857,-1.96894,-1.17207,-9.48635,6.81799,-11.5281,90.8642
2023-02-16 04:36:09:867,-1.9696,-1.17346,-9.47887,6.81871,-11.529,90.8614
2023-02-16 04:36:09:877,-1.97108,-1.15268,-9.49803,6.81189,-11.5302,90.8656
2023-02-16 04:36:09:887,-1.99342,-1.12542,-9.51651,6.80748,-11.5318,90.8669
2023-02-16 04:36:09:897,-2.01994,-1.13316,-9.52042,6.80235,-11.5303,90.8691
2023-02-16 04:36:09:907,-2.01916,-1.13285,-9.49064,6.79863,-11.5267,90.874
2023-02-16 04:36:09:917,-1.98871,-1.13488,-9.49647,6.79277,-11.5233,90.8771
2023-02-16 04:36:09:927,-1.98851,-1.12993,-9.50956,6.79034,-11.5209,90.8749
2023-02-16 04:36:09:937,-1.96883,-1.14132,-9.48983,6.78943,-11.5168,90.8699
2023-02-16 04:36:09:947,-1.93358,-1.15991,-9.49116,6.78969,-11.5101,90.8654
2023-02-16 04:36:09:957,-1.90831,-1.17481,-9.48104,6.78855,-11.5059,90.8551
2023-02-16 04:36:09:967,-1.89402,-1.1791,-9.48742,6.78907,-11.5037,90.8458
2023-02-16 04:36:09:977,-1.91012,-1.173,-9.50643,6.78196,-11.5033,90.8428
2023-02-16 04:36:09:987,-1.92156,-1.14578,-9.53072,6.77094,-11.5023,90.8396
2023-02-16 04:36:09:997,-1.91005,-1.14035,-9.53371,6.75907,-11.5041,90.8379
2023-02-16 04:36:10:7,-1.91794,-1.15585,-9.5277,6.75382,-11.5068,90.838
2023-02-16 04:36:10:17,-1.95329,-1.15138,-9.50674,6.74531,-11.5091,90.8391
2023-02-16 04:36:10:27,-1.99035,-1.13993,-9.5065,6.73622,-11.5106,90.8367
2023-02-16 04:36:10:37,-2.02188,-1.12091,-9.52274,6.72781,-11.5117,90.8363
2023-02-16 04:36:10:47,-2.00116,-1.11214,-9.52998,6.71714,-11.5114,90.8318
2023-02-16 04:36:10:57,-1.96855,-1.1187,-9.53085,6.70868,-11.5114,90.8272
2023-02-16 04:36:10:67,-1.95206,-1.11844,-9.5195,6.70336,-11.512,90.8173
2023-02-16 04:36:10:77,-1.91198,-1.09977,-9.53275,6.70032,-11.5102,90.8066
2023-02-16 04:36:10:88,-1.89727,-1.10374,-9.54871,6.69794,-11.5065,90.7988
2023-02-16 04:36:10:97,-1.88554,-1.10078,-9.58172,6.69739,-11.501,90.7929
2023-02-16 04:36:10:107,-1.87612,-1.10367,-9.58196,6.70122,-11.4956,90.7928
2023-02-16 04:36:10:117,-1.9167,-1.10589,-9.54615,6.70551,-11.4906,90.7966
2023-02-16 04:36:10:127,-1.94808,-1.10969,-9.51764,6.7099,-11.4883,90.7993
2023-02-16 04:36:10:137,-1.95724,-1.12638,-9.49798,6.714,-11.4864,90.7997
2023-02-16 04:36:10:147,-1.97281,-1.12522,-9.50261,6.71945,-11.4849,90.7995
2023-02-16 04:36:10:157,-1.99196,-1.13526,-9.54521,6.7234,-11.481,90.7936
2023-02-16 04:36:10:167,-1.96003,-1.13269,-9.58801,6.72746,-11.4822,90.7854
2023-02-16 04:36:10:177,-1.90532,-1.13314,-9.60741,6.73388,-11.4801,90.7728
2023-02-16 04:36:10:187,-1.86346,-1.15,-9.5727,6.74379,-11.4823,90.7584
2023-02-16 04:36:10:197,-1.86233,-1.17104,-9.52496,6.74931,-11.4853,90.7428
2023-02-16 04:36:10:207,-1.90384,-1.14829,-9.48405,6.75465,-11.4917,90.7314
2023-02-16 04:36:10:217,-1.89883,-1.12631,-9.44121,6.75837,-11.5003,90.7255
2023-02-16 04:36:10:227,-1.88099,-1.14777,-9.43869,6.75904,-11.5061,90.7216
2023-02-16 04:36:10:238,-1.88229,-1.12955,-9.43608,6.75523,-11.5076,90.722
2023-02-16 04:36:10:247,-1.90302,-1.10834,-9.46965,6.74532,-11.5091,90.7246
2023-02-16 04:36:10:257,-1.93939,-1.08683,-9.4758,6.73183,-11.5127,90.7315
2023-02-16 04:36:10:267,-1.94365,-1.08789,-9.47672,6.71869,-11.5134,90.7328
2023-02-16 04:36:10:277,-1.94089,-1.09102,-9.49768,6.70434,-11.5198,90.7327
2023-02-16 04:36:10:287,-1.95679,-1.07504,-9.53534,6.69572,-11.5227,90.7308
2023-02-16 04:36:10:297,-1.98142,-1.06572,-9.56304,6.68782,-11.5285,90.7283
2023-02-16 04:36:10:307,-1.96969,-1.065,-9.55327,6.68285,-11.5335,90.7259
2023-02-16 04:36:10:317,-1.93845,-1.09439,-9.53056,6.6792,-11.5343,90.7244
2023-02-16 04:36:10:327,-1.92262,-1.10917,-9.54453,6.67841,-11.5317,90.7245
2023-02-16 04:36:10:337,-1.93077,-1.10348,-9.5646,6.67615,-11.5293,90.7255
2023-02-16 04:36:10:347,-1.96028,-1.09179,-9.56516,6.67017,-11.5296,90.7312
2023-02-16 04:36:10:357,-1.9822,-1.08304,-9.54217,6.66696,-11.5296,90.7386
2023-02-16 04:36:10:367,-1.9874,-1.10285,-9.53309,6.65996,-11.5257,90.7438
2023-02-16 04:36:10:377,-1.98247,-1.09266,-9.53205,6.65101,-11.524,90.7409
2023-02-16 04:36:10:387,-1.96624,-1.06457,-9.4982,6.64389,-11.5215,90.7369
2023-02-16 04:36:10:397,-1.9581,-1.07767,-9.49148,6.63978,-11.5231,90.7289
2023-02-16 04:36:10:407,-1.9488,-1.06463,-9.52735,6.6334,-11.5234,90.7215
2023-02-16 04:36:10:417,-1.95425,-1.04858,-9.55627,6.62851,-11.5236,90.7162
2023-02-16 04:36:10:428,-1.92689,-1.04622,-9.58465,6.62317,-11.5202,90.7087
2023-02-16 04:36:10:437,-1.88764,-1.0638,-9.57807,6.62339,-11.5205,90.7004
2023-02-16 04:36:10:447,-1.89775,-1.08771,-9.53913,6.63254,-11.5217,90.6964
2023-02-16 04:36:10:457,-1.92574,-1.12724,-9.50699,6.64357,-11.5231,90.691
2023-02-16 04:36:10:467,-1.94047,-1.12896,-9.52111,6.65254,-11.5254,90.6857
2023-02-16 04:36:10:477,-1.98156,-1.12043,-9.53534,6.6631,-11.5305,90.6785
2023-02-16 04:36:10:487,-2.01037,-1.1127,-9.5302,6.67132,-11.5367,90.6676
2023-02-16 04:36:10:497,-1.98098,-1.12693,-9.52686,6.68154,-11.5431,90.656
2023-02-16 04:36:10:507,-1.95273,-1.1274,-9.53673,6.69014,-11.5485,90.6403
2023-02-16 04:36:10:517,-1.90364,-1.12871,-9.53302,6.69907,-11.555,90.6268
2023-02-16 04:36:10:527,-1.89278,-1.1462,-9.51381,6.70623,-11.5612,90.6102
2023-02-16 04:36:10:537,-1.91015,-1.15225,-9.49712,6.71511,-11.5689,90.5998
2023-02-16 04:36:10:547,-1.92178,-1.14657,-9.4881,6.72234,-11.5778,90.5913
2023-02-16 04:36:10:557,-1.93824,-1.13631,-9.47678,6.72605,-11.5867,90.5869
2023-02-16 04:36:10:567,-1.96908,-1.13708,-9.47109,6.72905,-11.5874,90.5864
2023-02-16 04:36:10:577,-2.01242,-1.14248,-9.47249,6.73534,-11.593,90.587
2023-02-16 04:36:10:587,-2.00848,-1.15176,-9.4806,6.73998,-11.5954,90.5864
2023-02-16 04:36:10:597,-1.98284,-1.15244,-9.50748,6.73719,-11.5965,90.586
2023-02-16 04:36:10:607,-1.98425,-1.14837,-9.5307,6.73878,-11.5995,90.5835
2023-02-16 04:36:10:617,-1.97886,-1.14376,-9.52631,6.74451,-11.6003,90.5764
2023-02-16 04:36:10:627,-1.94709,-1.1548,-9.51442,6.74763,-11.6036,90.5696
2023-02-16 04:36:10:637,-1.93552,-1.16085,-9.49884,6.74837,-11.6036,90.5612
2023-02-16 04:36:10:647,-1.92954,-1.17872,-9.47731,6.75162,-11.6066,90.5549
2023-02-16 04:36:10:657,-1.93075,-1.1817,-9.45739,6.75081,-11.6067,90.5522
2023-02-16 04:36:10:667,-1.91373,-1.18052,-9.46168,6.74459,-11.6034,90.5524
2023-02-16 04:36:10:677,-1.95293,-1.16041,-9.48052,6.73309,-11.6026,90.5599
2023-02-16 04:36:10:687,-2.01919,-1.1347,-9.50107,6.71852,-11.5986,90.5713
2023-02-16 04:36:10:697,-2.04148,-1.11108,-9.48316,6.70622,-11.5949,90.5791
2023-02-16 04:36:10:707,-2.02612,-1.11567,-9.47632,6.6952,-11.5905,90.5838
2023-02-16 04:36:10:717,-2.01443,-1.11418,-9.49244,6.68217,-11.5831,90.5852
2023-02-16 04:36:10:727,-2.01552,-1.08755,-9.51001,6.66801,-11.5795,90.5848
2023-02-16 04:36:10:737,-1.98811,-1.07422,-9.55062,6.6545,-11.5743,90.5767
2023-02-16 04:36:10:747,-1.94564,-1.06516,-9.5641,6.6423,-11.569,90.5707
2023-02-16 04:36:10:757,-1.92355,-1.08776,-9.55391,6.63412,-11.5632,90.5626
2023-02-16 04:36:10:767,-1.90868,-1.08792,-9.53385,6.63059,-11.5551,90.5558
2023-02-16 04:36:10:777,-1.90845,-1.08922,-9.52509,6.6237,-11.5472,90.5534
2023-02-16 04:36:10:787,-1.9176,-1.0905,-9.53496,6.62148,-11.5402,90.5488
2023-02-16 04:36:10:797,-1.94924,-1.08691,-9.52516,6.61737,-11.5337,90.5472
2023-02-16 04:36:10:807,-1.96451,-1.09207,-9.5171,6.61173,-11.5282,90.5489
2023-02-16 04:36:10:817,-1.95448,-1.08685,-9.51674,6.60642,-11.5215,90.5459
2023-02-16 04:36:10:827,-1.93608,-1.07719,-9.54352,6.60263,-11.5164,90.5426
2023-02-16 04:36:10:837,-1.91712,-1.07013,-9.60584,6.59845,-11.5113,90.54
2023-02-16 04:36:10:847,-1.88916,-1.04812,-9.6129,6.59353,-11.5097,90.5348
2023-02-16 04:36:10:857,-1.88837,-1.06257,-9.58371,6.59558,-11.5071,90.5314
2023-02-16 04:36:10:867,-1.89814,-1.09122,-9.5466,6.60259,-11.5072,90.5302
2023-02-16 04:36:10:877,-1.92269,-1.10093,-9.5153,6.60839,-11.5096,90.5294
2023-02-16 04:36:10:887,-1.94755,-1.09973,-9.50352,6.61352,-11.5088,90.5314
2023-02-16 04:36:10:897,-1.96907,-1.09503,-9.50567,6.61916,-11.5075,90.5351
2023-02-16 04:36:10:907,-1.98589,-1.09351,-9.49463,6.6244,-11.5043,90.5362
2023-02-16 04:36:10:917,-2.02415,-1.09713,-9.50541,6.63157,-11.5045,90.5381
2023-02-16 04:36:10:927,-2.02939,-1.09876,-9.51874,6.64083,-11.5044,90.5321
2023-02-16 04:36:10:937,-1.99254,-1.10333,-9.51075,6.64634,-11.4998,90.5257
2023-02-16 04:36:10:947,-1.94347,-1.12589,-9.50643,6.65254,-11.4963,90.5129
2023-02-16 04:36:10:957,-1.93242,-1.1336,-9.50895,6.65725,-11.4921,90.4976
2023-02-16 04:36:10:967,-1.92352,-1.12581,-9.52872,6.6619,-11.4885,90.484
2023-02-16 04:36:10:977,-1.90945,-1.11975,-9.52297,6.668,-11.4827,90.4717
2023-02-16 04:36:10:988,-1.89762,-1.12973,-9.5086,6.67464,-11.4772,90.4598
2023-02-16 04:36:10:997,-1.90318,-1.14984,-9.5168,6.68128,-11.4692,90.4517
2023-02-16 04:36:11:7,-1.88168,-1.13693,-9.56854,6.68454,-11.4659,90.4454
2023-02-16 04:36:11:17,-1.87741,-1.1266,-9.60273,6.69439,-11.4619,90.436
2023-02-16 04:36:11:27,-1.87453,-1.15184,-9.55937,6.70032,-11.4608,90.4262
2023-02-16 04:36:11:37,-1.89866,-1.17425,-9.49148,6.70398,-11.4607,90.4196
2023-02-16 04:36:11:48,-1.91905,-1.1784,-9.45651,6.70814,-11.4624,90.4159
2023-02-16 04:36:11:57,-1.92112,-1.1583,-9.48004,6.70843,-11.4675,90.4118
2023-02-16 04:36:11:67,-1.89455,-1.14343,-9.4761,6.70339,-11.4672,90.4066
2023-02-16 04:36:11:77,-1.88554,-1.13398,-9.47762,6.69456,-11.4658,90.4039
2023-02-16 04:36:11:87,-1.87151,-1.11216,-9.49825,6.68696,-11.4675,90.3999
2023-02-16 04:36:11:97,-1.87559,-1.08012,-9.50145,6.67466,-11.4664,90.4025
2023-02-16 04:36:11:107,-1.89419,-1.07893,-9.49192,6.66506,-11.4677,90.4069
2023-02-16 04:36:11:117,-1.88992,-1.08482,-9.4964,6.65755,-11.4669,90.4133
2023-02-16 04:36:11:127,-1.89795,-1.08013,-9.50073,6.65056,-11.4686,90.4193
2023-02-16 04:36:11:138,-1.91797,-1.08151,-9.51212,6.63974,-11.4701,90.4305
2023-02-16 04:36:11:147,-1.9727,-1.07375,-9.52213,6.6321,-11.4721,90.4412
2023-02-16 04:36:11:157,-2.00219,-1.06356,-9.51912,6.62501,-11.4689,90.4543
2023-02-16 04:36:11:167,-2.0018,-1.06988,-9.53898,6.61809,-11.4629,90.4674
2023-02-16 04:36:11:177,-2.00639,-1.07248,-9.55287,6.60885,-11.4577,90.4762
2023-02-16 04:36:11:187,-2.01672,-1.08598,-9.54645,6.60463,-11.4524,90.4803
2023-02-16 04:36:11:197,-1.98383,-1.10363,-9.53973,6.5986,-11.4487,90.4784
2023-02-16 04:36:11:208,-1.95609,-1.09063,-9.52953,6.592,-11.4432,90.4724
2023-02-16 04:36:11:217,-1.9222,-1.0822,-9.52935,6.58,-11.4391,90.4656
2023-02-16 04:36:11:227,-1.88777,-1.06717,-9.50617,6.57033,-11.4335,90.455
2023-02-16 04:36:11:237,-1.87059,-1.06631,-9.53022,6.55936,-11.4261,90.446
2023-02-16 04:36:11:247,-1.88901,-1.02609,-9.56318,6.54626,-11.42,90.443
2023-02-16 04:36:11:257,-1.90199,-0.99838,-9.59768,6.53726,-11.4111,90.4406
2023-02-16 04:36:11:267,-1.87445,-0.998273,-9.61639,6.53112,-11.397,90.4413
2023-02-16 04:36:11:277,-1.84674,-1.01967,-9.60602,6.53294,-11.3852,90.4424
2023-02-16 04:36:11:287,-1.87611,-1.03485,-9.56709,6.53993,-11.3774,90.4443
2023-02-16 04:36:11:297,-1.90495,-1.05595,-9.54712,6.55069,-11.375,90.4481
2023-02-16 04:36:11:307,-1.91602,-1.06447,-9.54956,6.56013,-11.3715,90.4504
2023-02-16 04:36:11:317,-1.91734,-1.08098,-9.5687,6.57166,-11.3742,90.4505
2023-02-16 04:36:11:327,-1.88979,-1.08366,-9.56483,6.57917,-11.3756,90.4438
2023-02-16 04:36:11:338,-1.86761,-1.09052,-9.56243,6.59073,-11.3766,90.4396
2023-02-16 04:36:11:347,-1.88439,-1.10074,-9.54496,6.60431,-11.3793,90.4393
2023-02-16 04:36:11:357,-1.88939,-1.10671,-9.50859,6.61575,-11.3811,90.4401
2023-02-16 04:36:11:367,-1.88152,-1.1084,-9.48895,6.62332,-11.3873,90.4374
2023-02-16 04:36:11:377,-1.91119,-1.11509,-9.47181,6.63436,-11.3907,90.44
2023-02-16 04:36:11:387,-1.9415,-1.11864,-9.47285,6.64206,-11.3957,90.443
2023-02-16 04:36:11:397,-1.95997,-1.11757,-9.46845,6.64684,-11.3986,90.4482
2023-02-16 04:36:11:407,-1.94483,-1.11369,-9.4851,6.65197,-11.4038,90.452
2023-02-16 04:36:11:417,-1.93244,-1.10126,-9.5163,6.65191,-11.4045,90.4502
2023-02-16 04:36:11:427,-1.91808,-1.10388,-9.53502,6.65443,-11.4061,90.4473
2023-02-16 04:36:11:437,-1.91694,-1.10799,-9.54784,6.6607,-11.4077,90.4498
2023-02-16 04:36:11:447,-1.90526,-1.10329,-9.53126,6.66952,-11.4108,90.4506
2023-02-16 04:36:11:457,-1.91541,-1.12257,-9.5158,6.67872,-11.4133,90.4536
2023-02-16 04:36:11:467,-1.91969,-1.13284,-9.51644,6.68653,-11.4149,90.4598
2023-02-16 04:36:11:477,-1.95773,-1.11591,-9.51337,6.69226,-11.416,90.4671
2023-02-16 04:36:11:487,-1.99073,-1.11369,-9.50273,6.6968,-11.4159,90.477
2023-02-16 04:36:11:497,-1.99449,-1.12222,-9.50687,6.70453,-11.4169,90.4873
2023-02-16 04:36:11:507,-2.0061,-1.12895,-9.50639,6.70893,-11.4181,90.498
2023-02-16 04:36:11:517,-2.03127,-1.125,-9.50151,6.7125,-11.4178,90.5036
2023-02-16 04:36:11:527,-2.04232,-1.13268,-9.47937,6.71679,-11.4142,90.505
2023-02-16 04:36:11:537,-2.02672,-1.12897,-9.48766,6.72031,-11.4154,90.5034
2023-02-16 04:36:11:547,-1.9843,-1.11917,-9.50763,6.72015,-11.4115,90.498
2023-02-16 04:36:11:557,-1.94201,-1.12668,-9.51745,6.71892,-11.4029,90.4872
2023-02-16 04:36:11:567,-1.92394,-1.13532,-9.51606,6.72297,-11.3981,90.4794
2023-02-16 04:36:11:577,-1.90424,-1.14202,-9.50178,6.72661,-11.3904,90.4744
2023-02-16 04:36:11:587,-1.88614,-1.14201,-9.51171,6.73335,-11.3809,90.4677
2023-02-16 04:36:11:597,-1.89879,-1.13671,-9.51023,6.73545,-11.3701,90.4655
2023-02-16 04:36:11:607,-1.91884,-1.14643,-9.50047,6.73828,-11.3621,90.4624
2023-02-16 04:36:11:617,-1.91612,-1.14917,-9.49262,6.74198,-11.3541,90.4588
2023-02-16 04:36:11:627,-1.92945,-1.15142,-9.50334,6.73922,-11.3454,90.4538
2023-02-16 04:36:11:637,-1.94209,-1.14692,-9.51126,6.73582,-11.3387,90.451
2023-02-16 04:36:11:647,-1.94794,-1.14343,-9.50603,6.73351,-11.3305,90.4441
2023-02-16 04:36:11:657,-1.93626,-1.14906,-9.51902,6.72819,-11.3254,90.4317
2023-02-16 04:36:11:667,-1.90782,-1.13352,-9.54293,6.72554,-11.3154,90.4171
2023-02-16 04:36:11:677,-1.8629,-1.14202,-9.54579,6.721,-11.3077,90.4042
2023-02-16 04:36:11:688,-1.83706,-1.1457,-9.54581,6.71931,-11.302,90.3917
2023-02-16 04:36:11:697,-1.8335,-1.14921,-9.53414,6.71582,-11.2962,90.3824
2023-02-16 04:36:11:707,-1.83594,-1.14715,-9.52616,6.71383,-11.2909,90.3801
2023-02-16 04:36:11:717,-1.84231,-1.14627,-9.5162,6.71043,-11.2862,90.38
2023-02-16 04:36:11:727,-1.86134,-1.14495,-9.52112,6.70576,-11.2817,90.3817
2023-02-16 04:36:11:737,-1.89012,-1.14899,-9.51285,6.70235,-11.2802,90.3895
2023-02-16 04:36:11:747,-1.91522,-1.12303,-9.52384,6.69264,-11.2774,90.3949
2023-02-16 04:36:11:757,-1.94524,-1.1152,-9.53509,6.68833,-11.2783,90.4011
2023-02-16 04:36:11:767,-1.98259,-1.10694,-9.52208,6.68314,-11.2731,90.4021
2023-02-16 04:36:11:777,-1.98381,-1.12945,-9.51992,6.67984,-11.2728,90.4022
2023-02-16 04:36:11:787,-1.94931,-1.14049,-9.5195,6.67879,-11.2689,90.3961
2023-02-16 04:36:11:797,-1.90688,-1.16181,-9.49946,6.68141,-11.2644,90.3905
2023-02-16 04:36:11:807,-1.88895,-1.17477,-9.45632,6.67858,-11.2613,90.3835
2023-02-16 04:36:11:817,-1.88142,-1.20656,-9.43116,6.67811,-11.2558,90.3761
2023-02-16 04:36:11:827,-1.87247,-1.24027,-9.45747,6.67114,-11.2488,90.3725
2023-02-16 04:36:11:837,-1.84255,-1.234,-9.50829,6.66297,-11.2412,90.366
2023-02-16 04:36:11:847,-1.834,-1.19826,-9.58323,6.65252,-11.234,90.3587
2023-02-16 04:36:11:857,-1.80089,-1.1753,-9.6229,6.6413,-11.2305,90.3534
2023-02-16 04:36:11:867,-1.7777,-1.20203,-9.56562,6.6347,-11.2293,90.3482
2023-02-16 04:36:11:877,-1.81787,-1.22349,-9.46704,6.6235,-11.2304,90.3491
2023-02-16 04:36:11:887,-1.87939,-1.22648,-9.42573,6.60741,-11.2335,90.3516
2023-02-16 04:36:11:897,-1.92668,-1.20269,-9.42528,6.58501,-11.2368,90.3607
2023-02-16 04:36:11:907,-1.93183,-1.1743,-9.43453,6.55551,-11.2364,90.368
2023-02-16 04:36:11:917,-1.91427,-1.15572,-9.43789,6.52304,-11.2343,90.376
2023-02-16 04:36:11:927,-1.90169,-1.12953,-9.43255,6.48684,-11.2306,90.3866
2023-02-16 04:36:11:937,-1.88657,-1.12349,-9.46001,6.44685,-11.2301,90.3971
2023-02-16 04:36:11:947,-1.87677,-1.09213,-9.49014,6.40547,-11.2263,90.4083
2023-02-16 04:36:11:957,-1.89024,-1.07194,-9.52225,6.36218,-11.2251,90.4188
2023-02-16 04:36:11:967,-1.89748,-1.04508,-9.53164,6.32272,-11.222,90.4312
2023-02-16 04:36:11:977,-1.9112,-1.02843,-9.5349,6.27927,-11.216,90.4455
2023-02-16 04:36:11:987,-1.90844,-1.03043,-9.53347,6.24388,-11.2059,90.4575
2023-02-16 04:36:11:997,-1.93382,-1.02815,-9.53784,6.20368,-11.1965,90.472
2023-02-16 04:36:12:7,-1.96171,-1.02458,-9.53155,6.16749,-11.1854,90.4848
2023-02-16 04:36:12:17,-1.97676,-1.00864,-9.55258,6.13235,-11.1767,90.4938
2023-02-16 04:36:12:27,-1.95078,-0.990087,-9.59158,6.09551,-11.1651,90.5011
2023-02-16 04:36:12:37,-1.92647,-0.975863,-9.59905,6.05542,-11.1527,90.5039
2023-02-16 04:36:12:47,-1.91502,-0.990665,-9.56452,6.01639,-11.1412,90.5006
2023-02-16 04:36:12:57,-1.87997,-0.98178,-9.55786,5.9792,-11.1298,90.495
2023-02-16 04:36:12:67,-1.83776,-0.940145,-9.53652,5.94085,-11.1164,90.4877
2023-02-16 04:36:12:77,-1.83147,-0.92109,-9.54041,5.89707,-11.1046,90.4829
2023-02-16 04:36:12:87,-1.85062,-0.880949,-9.57321,5.8556,-11.0925,90.4829
2023-02-16 04:36:12:97,-1.85733,-0.833546,-9.59099,5.815,-11.0779,90.4843
2023-02-16 04:36:12:107,-1.83995,-0.797804,-9.60434,5.77765,-11.0568,90.4864
2023-02-16 04:36:12:117,-1.78428,-0.77915,-9.65249,5.74296,-11.041,90.4821
2023-02-16 04:36:12:127,-1.7805,-0.761761,-9.71536,5.71714,-11.0313,90.4781
2023-02-16 04:36:12:137,-1.82812,-0.706615,-9.75612,5.69369,-11.0234,90.4771
2023-02-16 04:36:12:147,-1.82286,-0.658264,-9.7759,5.68178,-11.0219,90.4748
2023-02-16 04:36:12:157,-1.82028,-0.579856,-9.78623,5.68024,-11.0208,90.4711
2023-02-16 04:36:12:167,-1.81548,-0.430818,-9.85958,5.6886,-11.0175,90.4671
2023-02-16 04:36:12:177,-1.79528,-0.228402,-10.049,5.70773,-11.019,90.4563
2023-02-16 04:36:12:187,-1.78862,-0.0615161,-10.2707,5.7424,-11.0287,90.4415
2023-02-16 04:36:12:197,-1.7926,0.0209072,-10.4148,5.81381,-11.0416,90.4227
2023-02-16 04:36:12:207,-1.8091,0.00700775,-10.4483,5.92862,-11.0588,90.4039
2023-02-16 04:36:12:217,-1.82757,-0.039826,-10.3974,6.08934,-11.0872,90.3774
2023-02-16 04:36:12:227,-1.87161,-0.0670607,-10.3401,6.28984,-11.1232,90.3439
2023-02-16 04:36:12:237,-1.93085,-0.103993,-10.3542,6.53102,-11.1629,90.3031
2023-02-16 04:36:12:247,-1.99784,-0.0800852,-10.4205,6.8143,-11.208,90.2531
2023-02-16 04:36:12:257,-2.04052,0.00352751,-10.5326,7.14108,-11.255,90.1918
2023-02-16 04:36:12:267,-2.0342,-0.0388399,-10.5069,7.52682,-11.3087,90.1213
2023-02-16 04:36:12:277,-2.04157,-0.265242,-10.2782,7.9802,-11.361,90.0357
2023-02-16 04:36:12:287,-2.04012,-0.510364,-9.99303,8.48406,-11.4113,89.9457
2023-02-16 04:36:12:297,-1.97354,-0.718555,-9.79846,9.02163,-11.4557,89.8487
2023-02-16 04:36:12:307,-1.93413,-0.906165,-9.7399,9.58501,-11.4943,89.748
2023-02-16 04:36:12:317,-1.96041,-0.944515,-9.8141,10.1592,-11.5324,89.6467
2023-02-16 04:36:12:327,-2.01646,-0.922781,-9.90323,10.7573,-11.5733,89.5431
2023-02-16 04:36:12:337,-2.03865,-1.01756,-9.87355,11.3936,-11.6154,89.4389
2023-02-16 04:36:12:347,-2.06865,-1.09232,-9.7934,12.0688,-11.6521,89.3312
2023-02-16 04:36:12:357,-2.05345,-1.24665,-9.60618,12.7868,-11.6853,89.2258
2023-02-16 04:36:12:367,-2.02324,-1.52955,-9.3038,13.5437,-11.7134,89.1145
2023-02-16 04:36:12:377,-2.0218,-1.85059,-9.02908,14.3237,-11.7382,89.003
2023-02-16 04:36:12:387,-2.03766,-2.04289,-8.92122,15.1052,-11.7573,88.8937
2023-02-16 04:36:12:397,-2.04838,-2.13739,-8.92775,15.8847,-11.7793,88.7831
2023-02-16 04:36:12:407,-2.04303,-2.24762,-8.90664,16.6609,-11.797,88.669
2023-02-16 04:36:12:417,-1.99562,-2.40598,-8.86048,17.4454,-11.8075,88.5486
2023-02-16 04:36:12:427,-1.92101,-2.61619,-8.81256,18.2359,-11.8127,88.4248
2023-02-16 04:36:12:437,-1.84697,-2.82835,-8.77899,19.0253,-11.8196,88.2951
2023-02-16 04:36:12:448,-1.81718,-2.99859,-8.73332,19.8114,-11.8264,88.1663
2023-02-16 04:36:12:457,-1.84694,-3.17605,-8.63286,20.6017,-11.8375,88.0395
2023-02-16 04:36:12:467,-1.94328,-3.38624,-8.46895,21.3904,-11.8587,87.9135
2023-02-16 04:36:12:477,-2.00363,-3.60515,-8.28526,22.1752,-11.876,87.7929
2023-02-16 04:36:12:487,-2.00344,-3.83031,-8.15548,22.9467,-11.8856,87.6766
2023-02-16 04:36:12:497,-1.94281,-4.03972,-8.13777,23.6977,-11.8862,87.5599
2023-02-16 04:36:12:508,-1.86514,-4.17776,-8.19211,24.4241,-11.8782,87.4441
2023-02-16 04:36:12:518,-1.85658,-4.24825,-8.23624,25.1276,-11.8637,87.3266
2023-02-16 04:36:12:527,-1.8795,-4.33601,-8.19027,25.8166,-11.8502,87.1995
2023-02-16 04:36:12:537,-1.97529,-4.45434,-8.07099,26.4975,-11.8439,87.0701
2023-02-16 04:36:12:548,-2.1185,-4.58403,-7.89231,27.166,-11.8406,86.9347
2023-02-16 04:36:12:557,-2.23932,-4.68712,-7.76123,27.8151,-11.8354,86.7928
2023-02-16 04:36:12:567,-2.3191,-4.73918,-7.72808,28.4373,-11.8226,86.6428
2023-02-16 04:36:12:577,-2.35123,-4.7601,-7.68544,29.0378,-11.8045,86.4798
2023-02-16 04:36:12:587,-2.38716,-4.7826,-7.6589,29.6198,-11.7727,86.2998
2023-02-16 04:36:12:597,-2.45952,-4.76688,-7.66341,30.1826,-11.7337,86.1049
2023-02-16 04:36:12:607,-2.54115,-4.76702,-7.74932,30.7292,-11.6803,85.8929
2023-02-16 04:36:12:617,-2.56247,-4.81875,-7.9477,31.2665,-11.6083,85.6656
2023-02-16 04:36:12:628,-2.50558,-4.83551,-8.18862,31.7976,-11.5175,85.4158
2023-02-16 04:36:12:637,-2.31683,-4.88073,-8.26243,32.3382,-11.3983,85.1453
2023-02-16 04:36:12:647,-2.0925,-5.04906,-8.05484,32.9054,-11.2617,84.8596
2023-02-16 04:36:12:657,-1.92356,-5.22064,-7.73385,33.4956,-11.1061,84.5619
2023-02-16 04:36:12:667,-1.76742,-5.40115,-7.51056,34.0888,-10.9354,84.2594
2023-02-16 04:36:12:677,-1.55011,-5.55387,-7.32587,34.6768,-10.7624,83.9591
2023-02-16 04:36:12:687,-1.67582,-5.67128,-7.11634,35.2461,-10.6016,83.6428
2023-02-16 04:36:12:697,-1.57874,-5.70496,-7.28869,35.7789,-10.4368,83.3158
2023-02-16 04:36:12:710,-1.34828,-5.67934,-7.66879,36.2829,-10.2627,83.0041
2023-02-16 04:36:12:717,-1.35816,-5.74982,-7.80397,36.7808,-10.1029,82.6933
2023-02-16 04:36:12:727,-1.47915,-5.88193,-7.74327,37.2848,-9.95363,82.3888
2023-02-16 04:36:12:737,-1.52404,-5.98152,-7.57746,37.7971,-9.80831,82.0977
2023-02-16 04:36:12:747,-1.53074,-6.09761,-7.32918,38.3111,-9.65637,81.8143
2023-02-16 04:36:12:757,-1.51714,-6.21286,-7.06512,38.816,-9.50108,81.5337
2023-02-16 04:36:12:767,-1.50056,-6.29348,-6.84583,39.3054,-9.33881,81.2619
2023-02-16 04:36:12:777,-1.52574,-6.38748,-6.73512,39.7753,-9.17426,80.9938
2023-02-16 04:36:12:787,-1.50324,-6.45381,-6.75044,40.2101,-9.00379,80.7326
2023-02-16 04:36:12:797,-1.30286,-6.46691,-6.88963,40.6162,-8.82364,80.4718
2023-02-16 04:36:12:807,-0.995793,-6.46068,-7.12776,40.9976,-8.63302,80.2123
2023-02-16 04:36:12:817,-0.779993,-6.43291,-7.30148,41.3709,-8.45113,79.9481
2023-02-16 04:36:12:827,-0.736998,-6.39906,-7.35421,41.7459,-8.29225,79.6832
2023-02-16 04:36:12:837,-0.846211,-6.3694,-7.33812,42.1291,-8.15724,79.4291
2023-02-16 04:36:12:847,-1.01049,-6.36553,-7.26281,42.5269,-8.03767,79.1891
2023-02-16 04:36:12:857,-1.14405,-6.39584,-7.17402,42.9384,-7.93026,78.9718
2023-02-16 04:36:12:867,-1.25156,-6.46223,-7.0754,43.3652,-7.8234,78.7727
2023-02-16 04:36:12:877,-1.30145,-6.55668,-6.94933,43.805,-7.71104,78.5882
2023-02-16 04:36:12:887,-1.26204,-6.64351,-6.88008,44.2512,-7.59282,78.4113
2023-02-16 04:36:12:897,-1.17121,-6.73318,-6.89973,44.7017,-7.46735,78.2334
2023-02-16 04:36:12:907,-1.07122,-6.79737,-6.97431,45.1517,-7.33928,78.0479
2023-02-16 04:36:12:917,-0.924787,-6.87543,-7.01083,45.6088,-7.21168,77.8579
2023-02-16 04:36:12:927,-0.839639,-6.99828,-6.97669,46.0804,-7.08834,77.6594
2023-02-16 04:36:12:937,-0.810711,-7.10257,-6.89432,46.5733,-6.97727,77.4639
2023-02-16 04:36:12:947,-0.840787,-7.18568,-6.73355,47.0795,-6.87109,77.2796
2023-02-16 04:36:12:957,-0.891645,-7.33083,-6.49804,47.6039,-6.76937,77.1064
2023-02-16 04:36:12:967,-0.919452,-7.5303,-6.24766,48.1347,-6.67278,76.9485
2023-02-16 04:36:12:977,-0.938961,-7.73453,-6.0445,48.6677,-6.57813,76.8044
2023-02-16 04:36:12:987,-1.02242,-7.86653,-5.88899,49.1875,-6.48887,76.6729
2023-02-16 04:36:12:997,-1.09063,-7.96222,-5.80745,49.6881,-6.40014,76.5536
2023-02-16 04:36:13:7,-1.02504,-8.02378,-5.82064,50.1603,-6.30369,76.4438
2023-02-16 04:36:13:17,-0.876219,-8.02202,-5.88202,50.6113,-6.20272,76.3423
2023-02-16 04:36:13:27,-0.738817,-7.98944,-5.90603,51.0489,-6.10173,76.25
2023-02-16 04:36:13:38,-0.702926,-8.01541,-5.8152,51.4852,-6.0065,76.1645
2023-02-16 04:36:13:47,-0.748218,-8.06496,-5.61729,51.9263,-5.92219,76.0979
2023-02-16 04:36:13:57,-0.802749,-8.12864,-5.44069,52.3583,-5.84443,76.0461
2023-02-16 04:36:13:67,-0.859544,-8.19059,-5.31958,52.7744,-5.77299,76.006
2023-02-16 04:36:13:77,-0.881445,-8.21681,-5.24625,53.1708,-5.70475,75.9771
2023-02-16 04:36:13:87,-0.809346,-8.29713,-5.14564,53.5579,-5.63284,75.9583
2023-02-16 04:36:13:97,-0.708365,-8.4343,-5.04803,53.9241,-5.5631,75.9447
2023-02-16 04:36:13:107,-0.605379,-8.53103,-5.03864,54.2684,-5.49756,75.9349
2023-02-16 04:36:13:117,-0.539714,-8.55671,-5.05559,54.5784,-5.44441,75.9265
2023-02-16 04:36:13:127,-0.576049,-8.54284,-5.08498,54.8636,-5.40224,75.9156
2023-02-16 04:36:13:137,-0.704378,-8.49117,-5.12352,55.1267,-5.37659,75.9101
2023-02-16 04:36:13:148,-0.895067,-8.51669,-5.03375,55.3771,-5.36596,75.917
2023-02-16 04:36:13:157,-1.01068,-8.62281,-4.89849,55.6156,-5.35374,75.9354
2023-02-16 04:36:13:167,-0.96482,-8.70786,-4.85885,55.8354,-5.33786,75.9673
2023-02-16 04:36:13:177,-1.01761,-8.76976,-4.79517,56.0293,-5.31677,75.9965
2023-02-16 04:36:13:187,-1.06811,-8.81996,-4.79301,56.1977,-5.28889,76.0358
2023-02-16 04:36:13:197,-0.75028,-8.90594,-4.82584,56.3411,-5.26431,76.0743
2023-02-16 04:36:13:207,-0.801387,-8.91193,-4.75929,56.4589,-5.25095,76.107
2023-02-16 04:36:13:217,-1.07036,-8.873,-4.69556,56.5472,-5.2348,76.1328
2023-02-16 04:36:13:227,-0.89956,-8.91345,-4.71135,56.6068,-5.20379,76.1582
2023-02-16 04:36:13:237,-0.79415,-8.96738,-4.65244,56.6416,-5.17793,76.1779
2023-02-16 04:36:13:247,-1.00896,-8.91131,-4.6465,56.6414,-5.1551,76.2058
2023-02-16 04:36:13:257,-1.03419,-8.87391,-4.74236,56.6076,-5.12542,76.2375
2023-02-16 04:36:13:267,-0.708628,-8.85417,-4.9038,56.5409,-5.08481,76.2627
2023-02-16 04:36:13:277,-0.398319,-8.84374,-4.99329,56.4564,-5.03828,76.2818
2023-02-16 04:36:13:287,-0.250824,-8.88669,-4.99827,56.3548,-5.00218,76.2956
2023-02-16 04:36:13:297,-0.160879,-8.95089,-4.92981,56.2404,-4.9846,76.3091
2023-02-16 04:36:13:307,-0.184131,-8.98354,-4.84816,56.1039,-4.98927,76.3243
2023-02-16 04:36:13:317,-0.39765,-8.9964,-4.74661,55.9348,-5.02058,76.346
2023-02-16 04:36:13:327,-0.631071,-8.97261,-4.6942,55.734,-5.07515,76.3814
2023-02-16 04:36:13:337,-0.723571,-8.92405,-4.77473,55.4933,-5.13721,76.4252
2023-02-16 04:36:13:347,-0.682947,-8.83569,-4.96187,55.2147,-5.198,76.4779
2023-02-16 04:36:13:357,-0.654254,-8.73976,-5.12417,54.9008,-5.26662,76.5335
2023-02-16 04:36:13:367,-0.678313,-8.66302,-5.21383,54.5617,-5.34265,76.5909
2023-02-16 04:36:13:377,-0.78602,-8.63,-5.22082,54.2067,-5.43066,76.6368
2023-02-16 04:36:13:388,-0.922504,-8.57986,-5.18764,53.8293,-5.5235,76.6788
2023-02-16 04:36:13:397,-1.04685,-8.52683,-5.16501,53.4308,-5.614,76.7178
2023-02-16 04:36:13:407,-1.05764,-8.46682,-5.16966,53.0017,-5.70204,76.7507
2023-02-16 04:36:13:417,-0.923062,-8.37313,-5.2743,52.5394,-5.77373,76.7778
2023-02-16 04:36:13:427,-0.733987,-8.26681,-5.42802,52.0452,-5.83789,76.7946
2023-02-16 04:36:13:437,-0.664665,-8.15219,-5.51851,51.5253,-5.90654,76.8049
2023-02-16 04:36:13:447,-0.712204,-8.07262,-5.58278,50.9811,-5.98636,76.8034
2023-02-16 04:36:13:457,-0.854785,-8.00608,-5.63706,50.4142,-6.07623,76.7993
2023-02-16 04:36:13:467,-0.937002,-7.89557,-5.73197,49.819,-6.17187,76.7968
2023-02-16 04:36:13:477,-0.875548,-7.8087,-5.8431,49.1987,-6.26864,76.793
2023-02-16 04:36:13:488,-0.815044,-7.69221,-5.96103,48.5581,-6.36907,76.7821
2023-02-16 04:36:13:497,-0.856086,-7.51113,-6.11726,47.8939,-6.48069,76.774
2023-02-16 04:36:13:508,-0.97762,-7.34079,-6.25808,47.2102,-6.6032,76.7684
2023-02-16 04:36:13:517,-1.177,-7.21037,-6.33263,46.5197,-6.73646,76.7668
2023-02-16 04:36:13:527,-1.31516,-7.06796,-6.38392,45.8226,-6.87288,76.776
2023-02-16 04:36:13:537,-1.27953,-6.94891,-6.45884,45.1214,-6.99648,76.7911
2023-02-16 04:36:13:547,-1.19949,-6.86603,-6.51772,44.4115,-7.10854,76.813
2023-02-16 04:36:13:557,-1.08243,-6.80251,-6.63418,43.6874,-7.21974,76.8302
2023-02-16 04:36:13:567,-1.00103,-6.68216,-6.7832,42.9512,-7.33047,76.8419
2023-02-16 04:36:13:577,-1.1062,-6.49704,-6.96191,42.2001,-7.4541,76.8516
2023-02-16 04:36:13:587,-1.34541,-6.26456,-7.10677,41.4416,-7.59174,76.864
2023-02-16 04:36:13:597,-1.5394,-6.05881,-7.21526,40.6801,-7.72836,76.8789
2023-02-16 04:36:13:607,-1.58782,-5.95269,-7.28907,39.9255,-7.85572,76.891
2023-02-16 04:36:13:617,-1.52205,-5.92375,-7.3347,39.1786,-7.97085,76.9003
2023-02-16 04:36:13:627,-1.35758,-5.88618,-7.37946,38.4327,-8.07851,76.9032
2023-02-16 04:36:13:637,-1.2325,-5.77466,-7.44764,37.6834,-8.19049,76.9
2023-02-16 04:36:13:647,-1.37401,-5.62958,-7.50533,36.9266,-8.3106,76.8964
2023-02-16 04:36:13:657,-1.69914,-5.48705,-7.55136,36.1674,-8.4404,76.8949
2023-02-16 04:36:13:667,-2.0126,-5.36031,-7.54547,35.4061,-8.56726,76.8977
2023-02-16 04:36:13:677,-2.08126,-5.24263,-7.59486,34.6414,-8.67044,76.9001
2023-02-16 04:36:13:687,-1.88496,-5.16741,-7.65605,33.8757,-8.75285,76.8934
2023-02-16 04:36:13:697,-1.6092,-5.07033,-7.75502,33.1028,-8.81939,76.8711
2023-02-16 04:36:13:707,-1.3787,-4.93648,-7.92757,32.3272,-8.87909,76.8318
2023-02-16 04:36:13:717,-1.32253,-4.77943,-8.06506,31.5407,-8.94746,76.7885
2023-02-16 04:36:13:727,-1.48821,-4.63707,-8.17225,30.7541,-9.02839,76.7489
2023-02-16 04:36:13:737,-1.70442,-4.46821,-8.27123,29.9684,-9.11565,76.7103
2023-02-16 04:36:13:747,-1.88053,-4.27217,-8.35293,29.1828,-9.20201,76.6732
2023-02-16 04:36:13:757,-1.98318,-4.09108,-8.42198,28.406,-9.28179,76.6353
2023-02-16 04:36:13:767,-1.89711,-3.95334,-8.45628,27.6382,-9.34895,76.5845
2023-02-16 04:36:13:777,-1.72159,-3.88435,-8.47201,26.8866,-9.40692,76.5231
2023-02-16 04:36:13:787,-1.58415,-3.81976,-8.46232,26.1428,-9.46067,76.4551
2023-02-16 04:36:13:797,-1.55534,-3.72817,-8.47088,25.4028,-9.52065,76.3831
2023-02-16 04:36:13:807,-1.55466,-3.58817,-8.48838,24.6623,-9.58293,76.3109
2023-02-16 04:36:13:817,-1.54163,-3.45968,-8.5446,23.92,-9.65036,76.2394
2023-02-16 04:36:13:827,-1.53453,-3.35264,-8.64756,23.1776,-9.7241,76.1693
2023-02-16 04:36:13:837,-1.57216,-3.22032,-8.76446,22.4352,-9.79713,76.1079
2023-02-16 04:36:13:847,-1.62193,-3.04871,-8.91147,21.6962,-9.8754,76.053
2023-02-16 04:36:13:857,-1.67837,-2.87155,-9.07613,20.9614,-9.95385,76.0051
2023-02-16 04:36:13:867,-1.69325,-2.7301,-9.16483,20.2359,-10.0322,75.9648
2023-02-16 04:36:13:877,-1.57088,-2.67732,-9.16864,19.5334,-10.1047,75.9336
2023-02-16 04:36:13:887,-1.36425,-2.70213,-9.12352,18.8483,-10.1714,75.9072
2023-02-16 04:36:13:897,-1.30439,-2.69795,-9.0521,18.1723,-10.2446,75.8906
2023-02-16 04:36:13:907,-1.53668,-2.58189,-9.04213,17.4919,-10.3397,75.8897
2023-02-16 04:36:13:917,-1.85303,-2.37821,-9.11242,16.8059,-10.4436,75.9011
2023-02-16 04:36:13:927,-2.04989,-2.17791,-9.21153,16.1152,-10.5482,75.9181
2023-02-16 04:36:13:937,-2.09172,-2.02124,-9.33127,15.4351,-10.6412,75.9302
2023-02-16 04:36:13:947,-2.05701,-1.89628,-9.45985,14.77,-10.7217,75.9462
2023-02-16 04:36:13:957,-2.00337,-1.7932,-9.55979,14.1263,-10.787,75.9617
2023-02-16 04:36:13:967,-2.10943,-1.69835,-9.56362,13.5043,-10.8495,75.9771
2023-02-16 04:36:13:977,-2.313,-1.63299,-9.49722,12.908,-10.9099,75.9934
2023-02-16 04:36:13:987,-2.41506,-1.57111,-9.38909,12.3354,-10.962,76.001
2023-02-16 04:36:13:997,-2.32914,-1.53735,-9.2904,11.7788,-11.0001,75.9927
2023-02-16 04:36:14:7,-1.9548,-1.54942,-9.24466,11.2345,-11.0198,75.9666
2023-02-16 04:36:14:17,-1.57079,-1.56849,-9.23452,10.6908,-11.0295,75.9332
2023-02-16 04:36:14:27,-1.42064,-1.52705,-9.24458,10.1459,-11.0547,75.9111
2023-02-16 04:36:14:37,-1.45389,-1.38781,-9.32763,9.59235,-11.0942,75.9076
2023-02-16 04:36:14:47,-1.51558,-1.20323,-9.44504,9.02625,-11.1448,75.9251
2023-02-16 04:36:14:57,-1.5093,-1.07597,-9.52284,8.46176,-11.1966,75.969
2023-02-16 04:36:14:67,-1.56117,-0.982897,-9.54156,7.90036,-11.2501,76.0403
2023-02-16 04:36:14:77,-1.72855,-0.876498,-9.57209,7.34247,-11.3052,76.1337
2023-02-16 04:36:14:87,-1.86616,-0.733528,-9.61285,6.78811,-11.3597,76.2504
2023-02-16 04:36:14:97,-1.81836,-0.617258,-9.65434,6.24358,-11.4026,76.3754
2023-02-16 04:36:14:107,-1.59341,-0.552064,-9.64468,5.71473,-11.4336,76.5147
2023-02-16 04:36:14:117,-1.28372,-0.522971,-9.56047,5.20137,-11.4628,76.6674
2023-02-16 04:36:14:127,-0.972708,-0.552813,-9.45611,4.69484,-11.4978,76.8461
2023-02-16 04:36:14:137,-0.809507,-0.574659,-9.31542,4.18692,-11.5413,77.0638
2023-02-16 04:36:14:147,-0.960507,-0.480885,-9.20661,3.66453,-11.5965,77.3408
2023-02-16 04:36:14:157,-1.41282,-0.277349,-9.18319,3.11738,-11.6585,77.6766
2023-02-16 04:36:14:167,-1.84543,-0.0580398,-9.25681,2.55257,-11.7187,78.0531
2023-02-16 04:36:14:177,-2.07462,0.112244,-9.33684,1.97791,-11.765,78.4509
2023-02-16 04:36:14:187,-2.09949,0.216955,-9.45877,1.40228,-11.7912,78.8573
2023-02-16 04:36:14:197,-1.91019,0.291092,-9.57637,0.835398,-11.8006,79.2603
2023-02-16 04:36:14:207,-1.61775,0.330241,-9.63083,0.277001,-11.7989,79.6661
2023-02-16 04:36:14:217,-1.40659,0.35143,-9.61951,-0.274508,-11.7989,80.0856
2023-02-16 04:36:14:227,-1.37436,0.366222,-9.53348,-0.819282,-11.8063,80.5352
2023-02-16 04:36:14:237,-1.56094,0.414946,-9.39055,-1.36632,-11.8166,81.0125
2023-02-16 04:36:14:247,-1.91228,0.538978,-9.27737,-1.92312,-11.827,81.5188
2023-02-16 04:36:14:257,-2.27299,0.727124,-9.27869,-2.48948,-11.8323,82.0335
2023-02-16 04:36:14:267,-2.51199,0.929659,-9.37599,-3.06342,-11.8243,82.5443
2023-02-16 04:36:14:277,-2.58588,1.11279,-9.54569,-3.63359,-11.8059,83.0296
2023-02-16 04:36:14:287,-2.52249,1.25798,-9.71566,-4.19552,-11.78,83.4874
2023-02-16 04:36:14:297,-2.44429,1.34615,-9.82495,-4.7373,-11.7534,83.9139
2023-02-16 04:36:14:307,-2.4041,1.43715,-9.82721,-5.25557,-11.7301,84.3178
2023-02-16 04:36:14:317,-2.42379,1.51076,-9.7523,-5.7468,-11.7104,84.6979
2023-02-16 04:36:14:327,-2.60267,1.61462,-9.69592,-6.21583,-11.6854,85.068
2023-02-16 04:36:14:337,-2.78435,1.81436,-9.71207,-6.66711,-11.6492,85.42
2023-02-16 04:36:14:347,-2.82788,2.03031,-9.87,-7.09978,-11.6012,85.738
2023-02-16 04:36:14:357,-2.78245,2.22819,-10.098,-7.49773,-11.5421,86.016
2023-02-16 04:36:14:367,-2.67825,2.38971,-10.2728,-7.8586,-11.4788,86.253
2023-02-16 04:36:14:377,-2.53448,2.4544,-10.3334,-8.1659,-11.4204,86.4449
2023-02-16 04:36:14:387,-2.40515,2.40374,-10.2776,-8.4161,-11.3793,86.6021
2023-02-16 04:36:14:397,-2.27068,2.30922,-10.1839,-8.60979,-11.3542,86.7227
2023-02-16 04:36:14:407,-2.13654,2.2442,-10.0875,-8.7661,-11.345,86.8157
2023-02-16 04:36:14:417,-2.01703,2.19869,-9.99821,-8.8932,-11.3406,86.8947
2023-02-16 04:36:14:427,-2.01093,2.16717,-9.93821,-8.98965,-11.3449,86.9586
2023-02-16 04:36:14:437,-2.14857,2.16928,-9.88511,-9.06722,-11.363,87.0148
2023-02-16 04:36:14:447,-2.20672,2.15015,-9.85698,-9.126,-11.3947,87.0574
2023-02-16 04:36:14:457,-2.1472,2.10792,-9.8375,-9.16423,-11.429,87.0811
2023-02-16 04:36:14:467,-2.06372,2.04688,-9.83612,-9.18439,-11.4702,87.0887
2023-02-16 04:36:14:477,-1.98763,2.0101,-9.8166,-9.18731,-11.516,87.0846
2023-02-16 04:36:14:487,-1.9334,1.9404,-9.73078,-9.17572,-11.569,87.0788
2023-02-16 04:36:14:497,-1.90092,1.87696,-9.61117,-9.14734,-11.6246,87.0701
2023-02-16 04:36:14:507,-1.8971,1.80677,-9.53448,-9.10651,-11.6791,87.0664
2023-02-16 04:36:14:517,-1.92543,1.7561,-9.50186,-9.0603,-11.7319,87.0668
2023-02-16 04:36:14:527,-2.04621,1.7526,-9.49109,-9.00981,-11.7786,87.0737
2023-02-16 04:36:14:537,-2.15776,1.72956,-9.49963,-8.95378,-11.82,87.088
2023-02-16 04:36:14:547,-2.15914,1.65227,-9.48925,-8.88703,-11.8493,87.1003
2023-02-16 04:36:14:557,-2.08326,1.55917,-9.47537,-8.81111,-11.8699,87.1034
2023-02-16 04:36:14:567,-1.99277,1.47306,-9.45032,-8.73104,-11.8859,87.1063
2023-02-16 04:36:14:577,-1.9012,1.39199,-9.41547,-8.65012,-11.8989,87.1135
2023-02-16 04:36:14:587,-1.84332,1.31997,-9.39194,-8.57061,-11.9113,87.121
2023-02-16 04:36:14:597,-1.81341,1.27191,-9.34745,-8.49142,-11.9207,87.1382
2023-02-16 04:36:14:607,-1.84022,1.24252,-9.32007,-8.42527,-11.9256,87.165
2023-02-16 04:36:14:617,-1.92161,1.22861,-9.31996,-8.37093,-11.9311,87.2066
2023-02-16 04:36:14:627,-2.00751,1.22326,-9.30248,-8.32662,-11.9314,87.2544
2023-02-16 04:36:14:637,-2.04464,1.18512,-9.27626,-8.28793,-11.9329,87.301
2023-02-16 04:36:14:647,-2.03065,1.13304,-9.22233,-8.25824,-11.935,87.3441
2023-02-16 04:36:14:657,-2.0233,1.05582,-9.15181,-8.23409,-11.9392,87.3834
2023-02-16 04:36:14:667,-2.00773,0.99087,-9.07081,-8.22278,-11.9484,87.4182
2023-02-16 04:36:14:677,-1.9334,0.91033,-9.05024,-8.22959,-11.9561,87.4493
2023-02-16 04:36:14:687,-1.83331,0.857107,-9.03405,-8.25353,-11.964,87.4776
2023-02-16 04:36:14:697,-1.781,0.806916,-8.99611,-8.29378,-11.9745,87.5084
2023-02-16 04:36:14:707,-1.75893,0.758637,-8.96786,-8.35493,-11.9865,87.5538
2023-02-16 04:36:14:717,-1.75792,0.719578,-8.95015,-8.44466,-11.9962,87.6079
2023-02-16 04:36:14:727,-1.79093,0.711231,-8.90763,-8.55993,-12.0034,87.677
2023-02-16 04:36:14:737,-1.91212,0.701708,-8.8469,-8.70248,-12.015,87.7579
2023-02-16 04:36:14:747,-2.04809,0.682108,-8.78225,-8.87237,-12.0222,87.8499
2023-02-16 04:36:14:757,-2.16848,0.674185,-8.73208,-9.07418,-12.0268,87.9457
2023-02-16 04:36:14:767,-2.20362,0.68315,-8.70068,-9.30662,-12.0276,88.0426
2023-02-16 04:36:14:777,-2.13905,0.679851,-8.68519,-9.56635,-12.0304,88.1269
2023-02-16 04:36:14:787,-2.03531,0.684344,-8.64969,-9.86117,-12.0302,88.207
2023-02-16 04:36:14:797,-1.94354,0.721215,-8.55246,-10.1876,-12.0281,88.2847
2023-02-16 04:36:14:807,-1.87944,0.743398,-8.41412,-10.5469,-12.0285,88.3659
2023-02-16 04:36:14:817,-1.82258,0.788723,-8.29945,-10.9505,-12.0275,88.4535
2023-02-16 04:36:14:827,-1.79696,0.883831,-8.25717,-11.4029,-12.0266,88.5527
2023-02-16 04:36:14:837,-1.90907,1.04262,-8.30591,-11.9047,-12.0291,88.6655
2023-02-16 04:36:14:847,-2.16855,1.23321,-8.45358,-12.4559,-12.0344,88.7941
2023-02-16 04:36:14:857,-2.45121,1.43184,-8.63953,-13.0421,-12.0381,88.9201
2023-02-16 04:36:14:867,-2.60043,1.63397,-8.73232,-13.6479,-12.0482,89.0273
2023-02-16 04:36:14:877,-2.48665,1.73971,-8.63551,-14.2587,-12.0608,89.104
2023-02-16 04:36:14:887,-2.21969,1.74432,-8.35611,-14.8807,-12.0832,89.1536
2023-02-16 04:36:14:897,-2.04363,1.73743,-8.05412,-15.5278,-12.1104,89.1904
2023-02-16 04:36:14:907,-2.04493,1.80156,-7.85947,-16.2208,-12.1475,89.231
2023-02-16 04:36:14:917,-2.0652,1.94613,-7.84602,-16.9703,-12.1887,89.2784
2023-02-16 04:36:14:927,-2.06851,2.13727,-7.91602,-17.7628,-12.2219,89.3284
2023-02-16 04:36:14:937,-2.04758,2.3496,-7.98524,-18.5964,-12.2436,89.3852
2023-02-16 04:36:14:947,-1.96906,2.56128,-7.97714,-19.4599,-12.2539,89.4419
2023-02-16 04:36:14:957,-1.89851,2.75691,-7.8968,-20.3466,-12.2543,89.5018
2023-02-16 04:36:14:967,-1.84291,2.95736,-7.82363,-21.2605,-12.2474,89.566
2023-02-16 04:36:14:977,-1.8156,3.15121,-7.81621,-22.2046,-12.2389,89.6385
2023-02-16 04:36:14:987,-1.76896,3.32642,-7.8558,-23.1684,-12.2228,89.7226
2023-02-16 04:36:14:997,-1.67006,3.45189,-7.86217,-24.1498,-12.1979,89.8152
2023-02-16 04:36:15:7,-1.59263,3.53843,-7.75823,-25.1384,-12.1628,89.9182
2023-02-16 04:36:15:17,-1.53763,3.64085,-7.49724,-26.137,-12.1193,90.0318
2023-02-16 04:36:15:27,-1.47451,3.80182,-7.08939,-27.1522,-12.066,90.1561
2023-02-16 04:36:15:37,-1.4828,3.99149,-6.66593,-28.203,-12.0061,90.2995
2023-02-16 04:36:15:47,-1.58212,4.24591,-6.49111,-29.3131,-11.9378,90.4667
2023-02-16 04:36:15:57,-1.69643,4.63992,-6.70641,-30.4979,-11.8685,90.6458
2023-02-16 04:36:15:67,-1.79281,5.10773,-7.12412,-31.7343,-11.7981,90.8307
2023-02-16 04:36:15:77,-1.77547,5.47304,-7.53205,-32.9845,-11.7207,91.0126
2023-02-16 04:36:15:87,-1.66099,5.61093,-7.69427,-34.2112,-11.6448,91.1918
2023-02-16 04:36:15:97,-1.61236,5.61324,-7.54432,-35.4076,-11.5815,91.3696
2023-02-16 04:36:15:107,-1.6621,5.72945,-7.14295,-36.5767,-11.5237,91.5503
2023-02-16 04:36:15:117,-1.54876,5.74613,-6.62126,-37.7221,-11.4578,91.7195
2023-02-16 04:36:15:127,-1.31063,5.74634,-6.12126,-38.8678,-11.3783,91.8889
2023-02-16 04:36:15:137,-1.10507,5.94449,-5.71257,-40.0564,-11.2894,92.0711
2023-02-16 04:36:15:148,-1.04331,6.23254,-5.64527,-41.3097,-11.1931,92.2815
2023-02-16 04:36:15:157,-1.16764,6.69476,-5.92453,-42.6269,-11.0839,92.5237
2023-02-16 04:36:15:167,-1.3935,7.15793,-6.33251,-43.9804,-10.9617,92.7945
2023-02-16 04:36:15:177,-1.64816,7.5047,-6.68749,-45.3217,-10.8299,93.0713
2023-02-16 04:36:15:187,-1.77041,7.77375,-6.93025,-46.6264,-10.6954,93.3416
2023-02-16 04:36:15:197,-1.72091,7.96648,-7.03636,-47.8671,-10.5516,93.5944
2023-02-16 04:36:15:207,-1.53064,8.1151,-6.96775,-49.0353,-10.4101,93.8312
2023-02-16 04:36:15:217,-1.26682,8.26883,-6.79093,-50.1314,-10.2666,94.0599
2023-02-16 04:36:15:227,-1.00129,8.35514,-6.56143,-51.1711,-10.1271,94.294
2023-02-16 04:36:15:237,-0.909339,8.53335,-6.34122,-52.1758,-9.99205,94.5631
2023-02-16 04:36:15:247,-1.13521,8.80077,-6.11587,-53.1574,-9.86286,94.8719
2023-02-16 04:36:15:257,-1.53895,9.09659,-5.97086,-54.1164,-9.73606,95.2128
2023-02-16 04:36:15:267,-1.85128,9.41437,-5.92392,-55.0428,-9.61094,95.5588
2023-02-16 04:36:15:277,-1.94114,9.62495,-5.94392,-55.9258,-9.48644,95.8807
2023-02-16 04:36:15:287,-1.8799,9.71811,-5.9262,-56.7432,-9.35947,96.171
2023-02-16 04:36:15:297,-1.74807,9.66357,-5.72991,-57.4871,-9.22916,96.4262
2023-02-16 04:36:15:307,-1.58878,9.45765,-5.33097,-58.1592,-9.09265,96.6513
2023-02-16 04:36:15:317,-1.36856,9.18738,-4.84768,-58.7829,-8.94839,96.8522
2023-02-16 04:36:15:327,-1.15227,8.97123,-4.42648,-59.392,-8.80002,97.0436
2023-02-16 04:36:15:337,-1.06245,8.89866,-4.19475,-60.0211,-8.64679,97.2419
2023-02-16 04:36:15:347,-1.06985,9.04995,-4.14269,-60.6835,-8.48856,97.4546
2023-02-16 04:36:15:357,-1.1229,9.30337,-4.2843,-61.3701,-8.33025,97.6781
2023-02-16 04:36:15:367,-1.271,9.62988,-4.54834,-62.0711,-8.16936,97.9112
2023-02-16 04:36:15:377,-1.53471,9.95675,-4.7818,-62.7589,-8.00809,98.1486
2023-02-16 04:36:15:387,-1.79306,10.2287,-4.85969,-63.4069,-7.85553,98.3774
2023-02-16 04:36:15:397,-1.91172,10.3728,-4.85,-63.9995,-7.72039,98.5842
2023-02-16 04:36:15:407,-1.93746,10.4945,-4.7678,-64.5402,-7.60156,98.7699
2023-02-16 04:36:15:417,-1.89939,10.6147,-4.71751,-65.0398,-7.50468,98.9282
2023-02-16 04:36:15:427,-1.7481,10.7602,-4.78044,-65.4924,-7.41861,99.0624
2023-02-16 04:36:15:437,-1.57763,10.9871,-4.88936,-65.8908,-7.32634,99.1736
2023-02-16 04:36:15:447,-1.47449,11.0064,-4.73835,-66.2322,-7.24237,99.2729
2023-02-16 04:36:15:457,-1.47726,11.0051,-4.53386,-66.5438,-7.18307,99.3799
2023-02-16 04:36:15:467,-1.53493,11.1915,-4.65026,-66.8308,-7.13111,99.4933
2023-02-16 04:36:15:477,-1.70527,11.4471,-4.90398,-67.0635,-7.06299,99.5831
2023-02-16 04:36:15:487,-1.86633,11.5121,-4.95181,-67.2219,-7.00139,99.655
2023-02-16 04:36:15:497,-1.79961,11.3858,-4.78403,-67.3017,-6.96358,99.7062
2023-02-16 04:36:15:507,-1.54873,11.1779,-4.55242,-67.3206,-6.94003,99.735
2023-02-16 04:36:15:517,-1.40968,11.0015,-4.35429,-67.2955,-6.91466,99.7552
2023-02-16 04:36:15:527,-1.44838,10.8752,-4.22176,-67.2337,-6.89385,99.7767
2023-02-16 04:36:15:537,-1.51448,10.7852,-4.17549,-67.1391,-6.87403,99.7924
2023-02-16 04:36:15:547,-1.53048,10.6854,-4.14975,-67.0086,-6.85919,99.7976
2023-02-16 04:36:15:557,-1.56715,10.5947,-4.17074,-66.8455,-6.84406,99.7866
2023-02-16 04:36:15:567,-1.65768,10.5402,-4.2571,-66.6557,-6.83442,99.7652
2023-02-16 04:36:15:577,-1.65337,10.4566,-4.32117,-66.429,-6.83849,99.7332
2023-02-16 04:36:15:587,-1.56659,10.365,-4.39912,-66.1659,-6.85725,99.6883
2023-02-16 04:36:15:597,-1.5278,10.314,-4.45106,-65.8647,-6.88891,99.6377
2023-02-16 04:36:15:607,-1.51535,10.2448,-4.45815,-65.5322,-6.93576,99.5852
2023-02-16 04:36:15:617,-1.49342,10.2541,-4.53,-65.1732,-6.99995,99.5289
2023-02-16 04:36:15:627,-1.48898,10.2488,-4.57637,-64.7706,-7.06977,99.4622
2023-02-16 04:36:15:637,-1.4799,10.0869,-4.4733,-64.3188,-7.14097,99.3842
2023-02-16 04:36:15:647,-1.40811,9.92554,-4.40734,-63.8356,-7.20926,99.2927
2023-02-16 04:36:15:657,-1.35341,9.93977,-4.5923,-63.3432,-7.28153,99.1983
2023-02-16 04:36:15:667,-1.32685,10.1146,-4.92322,-62.8366,-7.36028,99.1046
2023-02-16 04:36:15:677,-1.27165,10.207,-5.1814,-62.2918,-7.43532,99.0069
2023-02-16 04:36:15:687,-1.26629,10.162,-5.26636,-61.6943,-7.51846,98.9112
2023-02-16 04:36:15:697,-1.33347,10.0531,-5.16618,-61.0473,-7.6072,98.8211
2023-02-16 04:36:15:707,-1.37279,9.87949,-5.00525,-60.357,-7.70089,98.7308
2023-02-16 04:36:15:717,-1.35682,9.68296,-4.94696,-59.634,-7.79744,98.6401
2023-02-16 04:36:15:727,-1.33052,9.54337,-5.03225,-58.8979,-7.89515,98.547
2023-02-16 04:36:15:737,-1.36705,9.52296,-5.30439,-58.15,-7.99658,98.4569
2023-02-16 04:36:15:747,-1.47234,9.61787,-5.69473,-57.3867,-8.10792,98.3763
2023-02-16 04:36:15:757,-1.60023,9.69155,-6.02873,-56.5861,-8.22765,98.2947
2023-02-16 04:36:15:767,-1.6347,9.62721,-6.15661,-55.7192,-8.35299,98.2055
2023-02-16 04:36:15:777,-1.53056,9.32412,-6.03264,-54.7733,-8.47615,98.0963
2023-02-16 04:36:15:787,-1.36113,8.96564,-5.88075,-53.7656,-8.59512,97.9681
2023-02-16 04:36:15:797,-1.26052,8.79092,-5.9,-52.7325,-8.713,97.8426
2023-02-16 04:36:15:807,-1.26703,8.77171,-6.12353,-51.6846,-8.83051,97.7286
2023-02-16 04:36:15:817,-1.39007,8.75228,-6.36725,-50.6097,-8.95149,97.622
2023-02-16 04:36:15:827,-1.58459,8.66063,-6.46216,-49.4927,-9.07515,97.5264
2023-02-16 04:36:15:837,-1.71329,8.45633,-6.4279,-48.3258,-9.19786,97.4274
2023-02-16 04:36:15:847,-1.71984,8.17259,-6.32454,-47.111,-9.31799,97.311
2023-02-16 04:36:15:858,-1.59024,7.79681,-6.15754,-45.8602,-9.44419,97.1827
2023-02-16 04:36:15:867,-1.48026,7.47259,-6.15503,-44.6033,-9.56656,97.0484
2023-02-16 04:36:15:877,-1.48848,7.40095,-6.46917,-43.3587,-9.6873,96.9109
2023-02-16 04:36:15:887,-1.66316,7.44562,-6.90237,-42.1086,-9.80967,96.7789
2023-02-16 04:36:15:897,-2.00841,7.50099,-7.17768,-40.8424,-9.94469,96.6502
2023-02-16 04:36:15:907,-2.29646,7.25772,-7.08231,-39.532,-10.0907,96.5079
2023-02-16 04:36:15:917,-2.26871,6.72599,-6.76639,-38.1667,-10.2349,96.3316
2023-02-16 04:36:15:927,-1.85353,6.10983,-6.55717,-36.7702,-10.3685,96.1141
2023-02-16 04:36:15:937,-1.36664,5.68524,-6.63674,-35.3866,-10.4941,95.8701
2023-02-16 04:36:15:947,-1.27022,5.58782,-6.97424,-34.0392,-10.6347,95.6341
2023-02-16 04:36:15:957,-1.76796,5.74555,-7.4483,-32.7291,-10.791,95.4216
2023-02-16 04:36:15:967,-2.46393,5.87119,-7.75895,-31.4172,-10.9523,95.2252
2023-02-16 04:36:15:977,-2.67352,5.71325,-7.7166,-30.0554,-11.0994,94.9971
2023-02-16 04:36:15:987,-2.1073,4.94389,-7.2866,-28.6109,-11.2129,94.7113
2023-02-16 04:36:15:997,-1.32698,4.09332,-7.03634,-27.1421,-11.2861,94.3871
2023-02-16 04:36:16:7,-1.07948,3.84826,-7.25408,-25.7278,-11.3513,94.0821
2023-02-16 04:36:16:17,-1.52619,3.89865,-7.5835,-24.3718,-11.4343,93.8177
2023-02-16 04:36:16:27,-2.25075,3.79489,-7.73174,-23.0327,-11.527,93.5761
2023-02-16 04:36:16:37,-2.72752,3.62445,-7.78589,-21.7017,-11.6154,93.326
2023-02-16 04:36:16:47,-2.63335,3.36142,-7.73759,-20.3711,-11.6792,93.0297
2023-02-16 04:36:16:57,-2.1823,2.76582,-7.41205,-19.0257,-11.7258,92.6818
2023-02-16 04:36:16:67,-1.81969,2.10111,-7.0406,-17.7005,-11.7559,92.305
2023-02-16 04:36:16:77,-1.56672,1.64788,-6.98569,-16.4366,-11.7778,91.923
2023-02-16 04:36:16:87,-1.44046,1.52582,-7.43132,-15.2662,-11.8072,91.5415
2023-02-16 04:36:16:97,-1.60364,1.85545,-8.22352,-14.1919,-11.8484,91.1731
2023-02-16 04:36:16:107,-1.86164,2.12989,-8.74515,-13.1497,-11.8985,90.815
2023-02-16 04:36:16:117,-2.07992,1.91482,-8.56307,-12.0744,-11.9403,90.457
2023-02-16 04:36:16:127,-2.09929,1.22486,-7.92088,-10.9587,-11.9641,90.0864
2023-02-16 04:36:16:137,-1.91347,0.515847,-7.39016,-9.85496,-11.9681,89.704
2023-02-16 04:36:16:147,-1.70349,0.200148,-7.42079,-8.83143,-11.9652,89.311
2023-02-16 04:36:16:157,-1.46669,0.351829,-8.03494,-7.90811,-11.9596,88.9101
2023-02-16 04:36:16:167,-1.28406,0.625601,-8.75027,-7.05968,-11.9558,88.5153
2023-02-16 04:36:16:177,-1.3225,0.671322,-9.02517,-6.22487,-11.9566,88.1349
2023-02-16 04:36:16:187,-1.54213,0.318038,-8.72859,-5.36991,-11.9555,87.7822
2023-02-16 04:36:16:197,-1.66299,-0.199795,-8.27678,-4.51479,-11.9474,87.4439
2023-02-16 04:36:16:207,-1.55611,-0.579856,-8.00936,-3.6987,-11.9247,87.1124
2023-02-16 04:36:16:217,-1.34869,-0.780428,-8.06068,-2.94719,-11.8977,86.7914
2023-02-16 04:36:16:227,-1.20556,-0.781263,-8.36272,-2.27482,-11.8674,86.4809
2023-02-16 04:36:16:237,-1.27711,-0.677081,-8.65403,-1.66634,-11.8432,86.2015
2023-02-16 04:36:16:247,-1.48123,-0.62413,-8.79267,-1.09699,-11.8248,85.9513
2023-02-16 04:36:16:257,-1.62198,-0.715291,-8.82645,-0.556234,-11.8078,85.7283
2023-02-16 04:36:16:267,-1.71608,-0.847226,-8.80686,-0.0383787,-11.7865,85.5176
2023-02-16 04:36:16:277,-1.74073,-0.949731,-8.81153,0.452507,-11.7544,85.3174
2023-02-16 04:36:16:287,-1.64882,-1.05498,-8.78364,0.916635,-11.7188,85.123
2023-02-16 04:36:16:297,-1.52977,-1.18921,-8.75255,1.34858,-11.6776,84.9357
2023-02-16 04:36:16:308,-1.46859,-1.26077,-8.74139,1.74455,-11.6416,84.7649
2023-02-16 04:36:16:317,-1.50555,-1.27488,-8.76999,2.10159,-11.6123,84.6056
2023-02-16 04:36:16:327,-1.63299,-1.24678,-8.86059,2.41371,-11.5978,84.4621
2023-02-16 04:36:16:337,-1.81599,-1.18682,-8.95524,2.68576,-11.5927,84.3293
2023-02-16 04:36:16:347,-1.97016,-1.13069,-9.05846,2.92842,-11.5906,84.1997
2023-02-16 04:36:16:357,-1.95682,-1.12356,-9.17389,3.14934,-11.5917,84.0609
2023-02-16 04:36:16:367,-1.82522,-1.15636,-9.24498,3.35555,-11.591,83.9122
2023-02-16 04:36:16:377,-1.65982,-1.1641,-9.29123,3.54387,-11.5919,83.7608
2023-02-16 04:36:16:387,-1.57851,-1.19174,-9.30289,3.71807,-11.599,83.6119
2023-02-16 04:36:16:397,-1.55122,-1.21341,-9.30778,3.88015,-11.6129,83.4734
2023-02-16 04:36:16:407,-1.57365,-1.19842,-9.32733,4.02906,-11.6313,83.3476
2023-02-16 04:36:16:417,-1.68093,-1.16521,-9.32971,4.16387,-11.6595,83.2386
2023-02-16 04:36:16:427,-1.8311,-1.13311,-9.36823,4.28741,-11.682,83.1445
2023-02-16 04:36:16:437,-1.9916,-1.11449,-9.34799,4.40346,-11.7066,83.0615
2023-02-16 04:36:16:447,-1.98316,-1.08322,-9.42022,4.51172,-11.7056,82.9949
2023-02-16 04:36:16:457,-1.81442,-1.19975,-9.30128,4.62075,-11.7035,82.9301
2023-02-16 04:36:16:467,-1.72364,-1.25362,-9.30569,4.71864,-11.6858,82.8751
2023-02-16 04:36:16:477,-1.66741,-1.30166,-9.29088,4.80402,-11.6678,82.8329
2023-02-16 04:36:16:487,-1.77241,-1.30289,-9.32881,4.87123,-11.6573,82.8022
