Timestamp,Acceleration_x,Acceleration_y,Acceleration_z,roll,pitch,yaw
2023-02-16 23:02:00:991,-0.574699,-0.26438,-9.78417,1.54328,-2.97304,-49.6027
2023-02-16 23:02:00:999,-0.574351,-0.268464,-9.79421,1.54736,-2.98508,-49.6034
2023-02-16 23:02:01:9,-0.566672,-0.270854,-9.80289,1.55167,-2.99453,-49.6085
2023-02-16 23:02:01:19,-0.574154,-0.296347,-9.80251,1.55522,-3.00496,-49.6166
2023-02-16 23:02:01:30,-0.571943,-0.303554,-9.77061,1.55722,-3.01747,-49.6217
2023-02-16 23:02:01:39,-0.58049,-0.307766,-9.75475,1.56195,-3.03006,-49.6262
2023-02-16 23:02:01:49,-0.585665,-0.315132,-9.74305,1.56775,-3.04077,-49.6291
2023-02-16 23:02:01:59,-0.57552,-0.321399,-9.72487,1.57097,-3.04512,-49.6332
2023-02-16 23:02:01:69,-0.553805,-0.315823,-9.72009,1.57134,-3.0459,-49.6388
2023-02-16 23:02:01:79,-0.548764,-0.318515,-9.72646,1.57056,-3.04595,-49.6373
2023-02-16 23:02:01:89,-0.542128,-0.327015,-9.72714,1.56787,-3.04101,-49.6372
2023-02-16 23:02:01:99,-0.530468,-0.321614,-9.72363,1.5621,-3.03611,-49.6293
2023-02-16 23:02:01:109,-0.513535,-0.316161,-9.73504,1.55634,-3.0247,-49.6239
2023-02-16 23:02:01:119,-0.494414,-0.308831,-9.74193,1.55082,-3.01815,-49.613
2023-02-16 23:02:01:129,-0.47563,-0.302243,-9.73128,1.54364,-3.00906,-49.6057
2023-02-16 23:02:01:139,-0.472216,-0.288321,-9.71402,1.53156,-3.00576,-49.5971
2023-02-16 23:02:01:149,-0.47883,-0.293221,-9.71003,1.51881,-3.00297,-49.5878
2023-02-16 23:02:01:159,-0.476632,-0.283192,-9.70903,1.50346,-3.00077,-49.5761
2023-02-16 23:02:01:169,-0.49162,-0.275401,-9.71686,1.48363,-2.99842,-49.5681
2023-02-16 23:02:01:179,-0.500356,-0.257712,-9.72993,1.46214,-2.99864,-49.5622
2023-02-16 23:02:01:190,-0.471252,-0.245056,-9.7436,1.43367,-3.00025,-49.5562
2023-02-16 23:02:01:199,-0.45514,-0.222596,-9.76376,1.40567,-3.00444,-49.5487
2023-02-16 23:02:01:209,-0.461554,-0.191219,-9.8007,1.37904,-3.01127,-49.5419
2023-02-16 23:02:01:219,-0.449627,-0.179506,-9.83131,1.35209,-3.02091,-49.5384
2023-02-16 23:02:01:229,-0.47029,-0.156121,-9.83374,1.32764,-3.03272,-49.538
2023-02-16 23:02:01:239,-0.513833,-0.144155,-9.84917,1.30896,-3.04955,-49.5392
2023-02-16 23:02:01:250,-0.561511,-0.127073,-9.88682,1.2949,-3.06539,-49.5435
2023-02-16 23:02:01:259,-0.578158,-0.115088,-9.93231,1.28907,-3.08117,-49.5519
2023-02-16 23:02:01:269,-0.558601,-0.142404,-9.931,1.29278,-3.09642,-49.5655
2023-02-16 23:02:01:279,-0.523175,-0.204779,-9.89202,1.30846,-3.10423,-49.5791
2023-02-16 23:02:01:290,-0.504842,-0.258717,-9.82848,1.33107,-3.11572,-49.5882
2023-02-16 23:02:01:299,-0.496951,-0.291105,-9.77727,1.35201,-3.12535,-49.594
2023-02-16 23:02:01:310,-0.49216,-0.332656,-9.70804,1.37377,-3.13828,-49.5982
2023-02-16 23:02:01:320,-0.509949,-0.354358,-9.66279,1.38811,-3.14743,-49.6036
2023-02-16 23:02:01:329,-0.53541,-0.32393,-9.66576,1.39547,-3.15586,-49.6121
2023-02-16 23:02:01:339,-0.518175,-0.319526,-9.64706,1.40055,-3.16183,-49.6147
2023-02-16 23:02:01:349,-0.493303,-0.296023,-9.64645,1.39746,-3.1629,-49.6197
2023-02-16 23:02:01:359,-0.484907,-0.24591,-9.69785,1.38753,-3.16345,-49.6208
2023-02-16 23:02:01:369,-0.502803,-0.212814,-9.71958,1.37184,-3.16373,-49.6192
2023-02-16 23:02:01:379,-0.514144,-0.178294,-9.7124,1.35507,-3.15773,-49.6126
2023-02-16 23:02:01:389,-0.510273,-0.137769,-9.68724,1.33612,-3.15447,-49.6079
2023-02-16 23:02:01:399,-0.507313,-0.129966,-9.70493,1.31349,-3.14711,-49.605
2023-02-16 23:02:01:409,-0.49547,-0.113646,-9.69946,1.29089,-3.13785,-49.5991
2023-02-16 23:02:01:419,-0.506416,-0.0773577,-9.71267,1.2651,-3.13493,-49.5934
2023-02-16 23:02:01:429,-0.515953,-0.0396682,-9.74222,1.23903,-3.13316,-49.588
2023-02-16 23:02:01:439,-0.527334,-0.0156877,-9.77128,1.22035,-3.13155,-49.5873
2023-02-16 23:02:01:449,-0.526367,0.000272501,-9.81219,1.19887,-3.13279,-49.5931
2023-02-16 23:02:01:459,-0.536232,0.0156924,-9.81792,1.18427,-3.13539,-49.6012
2023-02-16 23:02:01:469,-0.54162,0.0131012,-9.84163,1.17579,-3.13991,-49.6139
2023-02-16 23:02:01:479,-0.554189,0.0058014,-9.87304,1.16907,-3.14748,-49.63
2023-02-16 23:02:01:490,-0.562154,-0.0149522,-9.89079,1.17286,-3.15679,-49.6475
2023-02-16 23:02:01:499,-0.538623,-0.0252222,-9.89352,1.1781,-3.16817,-49.6679
2023-02-16 23:02:01:509,-0.51544,-0.0499627,-9.90078,1.18934,-3.18601,-49.6884
2023-02-16 23:02:01:519,-0.542617,-0.0902951,-9.8792,1.20637,-3.20214,-49.7098
2023-02-16 23:02:01:530,-0.567472,-0.116031,-9.85754,1.2257,-3.224,-49.7351
2023-02-16 23:02:01:540,-0.570601,-0.131097,-9.82537,1.2446,-3.24426,-49.7594
2023-02-16 23:02:01:549,-0.562572,-0.153361,-9.79166,1.26488,-3.26312,-49.7811
2023-02-16 23:02:01:559,-0.563822,-0.174038,-9.7599,1.28311,-3.28133,-49.8038
2023-02-16 23:02:01:569,-0.555725,-0.198496,-9.75101,1.30288,-3.29851,-49.8199
2023-02-16 23:02:01:579,-0.5392,-0.194412,-9.7318,1.31553,-3.3096,-49.832
2023-02-16 23:02:01:589,-0.531374,-0.186483,-9.75408,1.32807,-3.31822,-49.8421
2023-02-16 23:02:01:599,-0.539691,-0.178947,-9.774,1.34148,-3.32661,-49.8449
2023-02-16 23:02:01:609,-0.541999,-0.189831,-9.8024,1.35831,-3.3344,-49.8436
2023-02-16 23:02:01:619,-0.540121,-0.192218,-9.80022,1.37437,-3.33843,-49.8369
2023-02-16 23:02:01:629,-0.545581,-0.198096,-9.79283,1.39389,-3.34405,-49.8308
2023-02-16 23:02:01:639,-0.551513,-0.223092,-9.79005,1.4196,-3.34713,-49.8202
2023-02-16 23:02:01:649,-0.534781,-0.23791,-9.76897,1.44255,-3.35251,-49.8047
2023-02-16 23:02:01:659,-0.543668,-0.260693,-9.74968,1.4664,-3.36022,-49.7856
2023-02-16 23:02:01:670,-0.57116,-0.272066,-9.73603,1.49008,-3.37103,-49.7672
2023-02-16 23:02:01:679,-0.587506,-0.289115,-9.74203,1.5138,-3.3833,-49.75
2023-02-16 23:02:01:689,-0.594929,-0.289556,-9.76751,1.53394,-3.39732,-49.7313
2023-02-16 23:02:01:699,-0.617824,-0.281963,-9.77932,1.55226,-3.41293,-49.7167
2023-02-16 23:02:01:709,-0.637566,-0.272414,-9.78736,1.57417,-3.43054,-49.7013
2023-02-16 23:02:01:719,-0.670999,-0.286681,-9.80626,1.59414,-3.44924,-49.6841
2023-02-16 23:02:01:729,-0.690119,-0.295386,-9.80033,1.62036,-3.46416,-49.6718
2023-02-16 23:02:01:739,-0.718182,-0.314425,-9.79394,1.64759,-3.48392,-49.6584
2023-02-16 23:02:01:749,-0.732199,-0.339203,-9.76259,1.67638,-3.50082,-49.6466
2023-02-16 23:02:01:759,-0.717523,-0.353908,-9.72615,1.70233,-3.51332,-49.6408
2023-02-16 23:02:01:769,-0.726665,-0.357574,-9.68164,1.72604,-3.52345,-49.6375
2023-02-16 23:02:01:779,-0.720936,-0.367956,-9.65599,1.74442,-3.52974,-49.6331
2023-02-16 23:02:01:789,-0.710513,-0.374914,-9.65429,1.7592,-3.53578,-49.6302
2023-02-16 23:02:01:799,-0.722905,-0.379454,-9.67077,1.77084,-3.54661,-49.6313
2023-02-16 23:02:01:809,-0.744195,-0.366377,-9.68904,1.77918,-3.5542,-49.6371
2023-02-16 23:02:01:819,-0.741204,-0.360318,-9.71425,1.78884,-3.55777,-49.6409
2023-02-16 23:02:01:829,-0.751456,-0.357221,-9.71774,1.79804,-3.55452,-49.6522
2023-02-16 23:02:01:839,-0.732604,-0.378067,-9.69794,1.80782,-3.54774,-49.6629
2023-02-16 23:02:01:849,-0.712004,-0.392799,-9.67617,1.81551,-3.53671,-49.6724
2023-02-16 23:02:01:859,-0.689833,-0.396513,-9.64944,1.82091,-3.52151,-49.6855
2023-02-16 23:02:01:869,-0.649337,-0.405163,-9.63018,1.81851,-3.5046,-49.6943
2023-02-16 23:02:01:879,-0.597089,-0.422033,-9.63754,1.81394,-3.48296,-49.7
2023-02-16 23:02:01:889,-0.535053,-0.407538,-9.64313,1.80549,-3.46186,-49.7047
2023-02-16 23:02:01:899,-0.498253,-0.380387,-9.67977,1.79209,-3.43763,-49.7064
2023-02-16 23:02:01:909,-0.453903,-0.370099,-9.72045,1.77559,-3.41609,-49.7035
2023-02-16 23:02:01:919,-0.419543,-0.340552,-9.73702,1.75225,-3.40192,-49.6947
2023-02-16 23:02:01:929,-0.429357,-0.333221,-9.74272,1.72606,-3.38832,-49.6805
2023-02-16 23:02:01:939,-0.480161,-0.312164,-9.75342,1.69447,-3.38016,-49.6634
2023-02-16 23:02:01:949,-0.514526,-0.277049,-9.80339,1.6629,-3.36855,-49.6473
2023-02-16 23:02:01:959,-0.5163,-0.256111,-9.85282,1.63468,-3.35397,-49.6276
2023-02-16 23:02:01:969,-0.469155,-0.236881,-9.86721,1.60981,-3.34271,-49.6039
2023-02-16 23:02:01:979,-0.407882,-0.228133,-9.83907,1.58676,-3.32858,-49.5733
2023-02-16 23:02:01:989,-0.431382,-0.213148,-9.81772,1.56294,-3.32979,-49.5411
2023-02-16 23:02:01:999,-0.523304,-0.190998,-9.80917,1.5346,-3.33613,-49.5039
2023-02-16 23:02:02:10,-0.657069,-0.172336,-9.78353,1.50829,-3.34819,-49.4749
2023-02-16 23:02:02:19,-0.77961,-0.138969,-9.78428,1.48056,-3.36256,-49.4544
2023-02-16 23:02:02:30,-0.866987,-0.0894284,-9.78029,1.45089,-3.37382,-49.4461
2023-02-16 23:02:02:39,-0.905665,-0.0570088,-9.79474,1.42505,-3.37851,-49.4483
2023-02-16 23:02:02:49,-0.916818,-0.0419223,-9.83373,1.4035,-3.37945,-49.46
2023-02-16 23:02:02:60,-0.944512,-0.00317053,-9.86943,1.38479,-3.3786,-49.4826
2023-02-16 23:02:02:70,-0.965196,0.0127639,-9.8912,1.37689,-3.36883,-49.5195
2023-02-16 23:02:02:79,-0.94853,-0.00954924,-9.8752,1.37996,-3.35361,-49.5692
2023-02-16 23:02:02:89,-0.892448,-0.0380324,-9.82962,1.3977,-3.33502,-49.6266
2023-02-16 23:02:02:99,-0.818762,-0.0912985,-9.79645,1.41969,-3.30966,-49.6905
2023-02-16 23:02:02:110,-0.723909,-0.158717,-9.72925,1.44945,-3.28155,-49.7564
2023-02-16 23:02:02:119,-0.650793,-0.221743,-9.67273,1.48097,-3.25365,-49.8231
2023-02-16 23:02:02:130,-0.584402,-0.26805,-9.66198,1.50532,-3.22489,-49.8925
2023-02-16 23:02:02:139,-0.539918,-0.298196,-9.65451,1.52662,-3.19111,-49.9588
2023-02-16 23:02:02:150,-0.497274,-0.317118,-9.66735,1.54192,-3.15754,-50.0218
2023-02-16 23:02:02:159,-0.43764,-0.327386,-9.68221,1.55165,-3.11785,-50.0833
2023-02-16 23:02:02:170,-0.356492,-0.333018,-9.72068,1.56139,-3.07757,-50.1352
2023-02-16 23:02:02:179,-0.271955,-0.34373,-9.77304,1.56502,-3.03691,-50.1768
2023-02-16 23:02:02:190,-0.205463,-0.334137,-9.81136,1.56762,-3.00029,-50.2108
2023-02-16 23:02:02:199,-0.133133,-0.305451,-9.84837,1.5669,-2.96862,-50.2314
2023-02-16 23:02:02:209,-0.134113,-0.289016,-9.85891,1.56131,-2.95005,-50.2405
2023-02-16 23:02:02:219,-0.169404,-0.262162,-9.87759,1.55726,-2.9429,-50.2443
2023-02-16 23:02:02:229,-0.222854,-0.244012,-9.91235,1.55422,-2.94189,-50.2412
2023-02-16 23:02:02:239,-0.30594,-0.222515,-9.90615,1.55849,-2.94641,-50.234
2023-02-16 23:02:02:249,-0.382865,-0.220402,-9.87704,1.56931,-2.9533,-50.2291
2023-02-16 23:02:02:259,-0.426959,-0.236556,-9.83859,1.58357,-2.96285,-50.2238
2023-02-16 23:02:02:269,-0.452477,-0.267549,-9.79102,1.60117,-2.97171,-50.2135
2023-02-16 23:02:02:279,-0.478211,-0.289718,-9.73326,1.62324,-2.98038,-50.2067
2023-02-16 23:02:02:289,-0.491846,-0.289178,-9.68346,1.64702,-2.98878,-50.2016
2023-02-16 23:02:02:299,-0.505663,-0.318364,-9.66207,1.66581,-2.99973,-50.1965
2023-02-16 23:02:02:309,-0.521992,-0.3291,-9.64999,1.68055,-3.01081,-50.1932
2023-02-16 23:02:02:319,-0.539672,-0.335863,-9.64272,1.69359,-3.02324,-50.1928
2023-02-16 23:02:02:329,-0.547167,-0.329996,-9.65086,1.70054,-3.03572,-50.1943
2023-02-16 23:02:02:339,-0.572229,-0.318124,-9.67947,1.70121,-3.04926,-50.1971
2023-02-16 23:02:02:349,-0.593879,-0.312352,-9.69899,1.69984,-3.06858,-50.205
2023-02-16 23:02:02:359,-0.611673,-0.32126,-9.70907,1.69216,-3.08259,-50.216
2023-02-16 23:02:02:369,-0.609787,-0.327914,-9.70946,1.68721,-3.09087,-50.2266
2023-02-16 23:02:02:379,-0.598396,-0.315686,-9.715,1.67666,-3.09533,-50.238
2023-02-16 23:02:02:389,-0.578948,-0.299796,-9.71382,1.6655,-3.09835,-50.2518
2023-02-16 23:02:02:399,-0.53417,-0.316016,-9.71997,1.65024,-3.095,-50.2659
2023-02-16 23:02:02:409,-0.494443,-0.331323,-9.70075,1.63389,-3.0919,-50.2773
2023-02-16 23:02:02:419,-0.466916,-0.346108,-9.65478,1.60811,-3.08522,-50.2829
2023-02-16 23:02:02:429,-0.448106,-0.359177,-9.63527,1.57755,-3.0763,-50.2833
2023-02-16 23:02:02:439,-0.428395,-0.350611,-9.63788,1.53917,-3.07191,-50.2755
2023-02-16 23:02:02:449,-0.437797,-0.330433,-9.64072,1.49484,-3.06688,-50.2677
2023-02-16 23:02:02:459,-0.460896,-0.299097,-9.67164,1.44229,-3.06142,-50.2604
2023-02-16 23:02:02:469,-0.475824,-0.28328,-9.70946,1.38624,-3.06086,-50.2519
2023-02-16 23:02:02:479,-0.511602,-0.271361,-9.76239,1.32699,-3.05983,-50.2421
2023-02-16 23:02:02:489,-0.539495,-0.267097,-9.80043,1.26904,-3.05944,-50.2319
2023-02-16 23:02:02:499,-0.559746,-0.25452,-9.82146,1.21611,-3.05911,-50.2212
2023-02-16 23:02:02:509,-0.555981,-0.219599,-9.82581,1.1663,-3.0531,-50.2094
2023-02-16 23:02:02:519,-0.555222,-0.226826,-9.8171,1.11782,-3.0409,-50.1948
2023-02-16 23:02:02:529,-0.547357,-0.230058,-9.81027,1.07299,-3.02817,-50.1806
2023-02-16 23:02:02:539,-0.544033,-0.237699,-9.80304,1.03188,-3.01059,-50.1613
2023-02-16 23:02:02:549,-0.50485,-0.222163,-9.78689,0.98488,-2.9925,-50.1435
2023-02-16 23:02:02:559,-0.46946,-0.206662,-9.79561,0.939328,-2.97162,-50.1205
2023-02-16 23:02:02:569,-0.476522,-0.177936,-9.81272,0.889881,-2.95135,-50.1001
2023-02-16 23:02:02:579,-0.473156,-0.155275,-9.79583,0.842723,-2.9324,-50.0831
2023-02-16 23:02:02:589,-0.449214,-0.146165,-9.79036,0.799029,-2.91813,-50.0641
2023-02-16 23:02:02:599,-0.468096,-0.150583,-9.78049,0.757589,-2.90318,-50.0416
2023-02-16 23:02:02:609,-0.507952,-0.1391,-9.75489,0.713974,-2.8889,-50.0162
2023-02-16 23:02:02:619,-0.537469,-0.119114,-9.76069,0.670563,-2.8712,-49.9967
2023-02-16 23:02:02:629,-0.502963,-0.104992,-9.80252,0.629094,-2.85287,-49.9768
2023-02-16 23:02:02:639,-0.418582,-0.102455,-9.82126,0.592283,-2.83311,-49.9554
2023-02-16 23:02:02:649,-0.336235,-0.096777,-9.8176,0.556481,-2.8216,-49.9309
2023-02-16 23:02:02:659,-0.271591,-0.0973285,-9.81973,0.519559,-2.81529,-49.8981
2023-02-16 23:02:02:669,-0.237929,-0.0566216,-9.83458,0.478624,-2.81529,-49.8673
2023-02-16 23:02:02:679,-0.254722,-0.0414422,-9.83033,0.444626,-2.82089,-49.8292
2023-02-16 23:02:02:689,-0.290874,-0.0367286,-9.7989,0.417208,-2.83296,-49.7886
2023-02-16 23:02:02:699,-0.334853,-0.0153428,-9.77842,0.390278,-2.84897,-49.7539
2023-02-16 23:02:02:709,-0.322075,-0.00211434,-9.7688,0.362675,-2.86389,-49.7179
2023-02-16 23:02:02:719,-0.289422,0.00588749,-9.77283,0.336298,-2.87913,-49.6744
2023-02-16 23:02:02:729,-0.306574,0.0291829,-9.74509,0.304792,-2.8892,-49.6286
2023-02-16 23:02:02:739,-0.317773,0.0336195,-9.689,0.271065,-2.90498,-49.5807
2023-02-16 23:02:02:749,-0.30597,0.0493349,-9.67906,0.231803,-2.92148,-49.5312
2023-02-16 23:02:02:759,-0.321667,0.0961741,-9.71687,0.184982,-2.94466,-49.4796
2023-02-16 23:02:02:769,-0.35915,0.138075,-9.75962,0.135983,-2.96928,-49.4284
2023-02-16 23:02:02:779,-0.408261,0.182676,-9.80486,0.0877944,-3.00061,-49.3789
2023-02-16 23:02:02:789,-0.464471,0.219432,-9.85956,0.0442506,-3.041,-49.3291
2023-02-16 23:02:02:799,-0.540188,0.250787,-9.92613,0.00643339,-3.08284,-49.286
2023-02-16 23:02:02:809,-0.586348,0.279237,-9.96694,-0.0205274,-3.12437,-49.2521
2023-02-16 23:02:02:819,-0.626356,0.261438,-9.94339,-0.0343536,-3.16952,-49.2188
2023-02-16 23:02:02:829,-0.65546,0.257157,-9.95588,-0.0419019,-3.21002,-49.1933
2023-02-16 23:02:02:839,-0.679393,0.266793,-9.94286,-0.0395526,-3.2543,-49.1737
2023-02-16 23:02:02:849,-0.712472,0.248376,-9.89649,-0.030043,-3.29776,-49.1543
2023-02-16 23:02:02:859,-0.735973,0.234879,-9.87767,-0.0151932,-3.34411,-49.1388
2023-02-16 23:02:02:869,-0.773724,0.23524,-9.89197,0.000440669,-3.39017,-49.1289
2023-02-16 23:02:02:879,-0.819631,0.223302,-9.86716,0.0193208,-3.43688,-49.1257
2023-02-16 23:02:02:889,-0.839835,0.202405,-9.8214,0.0456155,-3.47147,-49.1281
2023-02-16 23:02:02:899,-0.86496,0.196961,-9.8194,0.0721507,-3.50084,-49.1324
2023-02-16 23:02:02:909,-0.864991,0.176274,-9.8193,0.103365,-3.52354,-49.1451
2023-02-16 23:02:02:919,-0.840338,0.167939,-9.83064,0.13809,-3.54402,-49.1612
2023-02-16 23:02:02:929,-0.790496,0.139085,-9.84342,0.177858,-3.55788,-49.1791
2023-02-16 23:02:02:939,-0.760472,0.111941,-9.82964,0.218941,-3.56872,-49.194
2023-02-16 23:02:02:949,-0.770274,0.066855,-9.82299,0.263642,-3.58017,-49.2071
2023-02-16 23:02:02:959,-0.807313,0.0440505,-9.81518,0.312025,-3.59205,-49.222
2023-02-16 23:02:02:969,-0.830268,0.0160171,-9.79978,0.366499,-3.59673,-49.2431
2023-02-16 23:02:02:979,-0.83171,-0.0187432,-9.79594,0.425097,-3.60153,-49.2673
2023-02-16 23:02:02:989,-0.824653,-0.0604592,-9.77909,0.483967,-3.60565,-49.2921
2023-02-16 23:02:02:999,-0.811985,-0.10566,-9.74669,0.549102,-3.60068,-49.3197
2023-02-16 23:02:03:9,-0.80079,-0.135551,-9.70438,0.610938,-3.59188,-49.3481
2023-02-16 23:02:03:19,-0.793476,-0.166127,-9.69814,0.673651,-3.58459,-49.3827
2023-02-16 23:02:03:29,-0.768151,-0.201292,-9.70634,0.735989,-3.5702,-49.4167
2023-02-16 23:02:03:39,-0.741536,-0.231786,-9.71182,0.800068,-3.55177,-49.4545
2023-02-16 23:02:03:49,-0.71614,-0.250667,-9.6977,0.85863,-3.52931,-49.495
2023-02-16 23:02:03:59,-0.688325,-0.287848,-9.68661,0.91413,-3.50202,-49.534
2023-02-16 23:02:03:69,-0.657263,-0.311049,-9.67205,0.971505,-3.47049,-49.5736
2023-02-16 23:02:03:79,-0.61733,-0.323173,-9.66582,1.01856,-3.44021,-49.6135
2023-02-16 23:02:03:89,-0.562658,-0.332836,-9.65393,1.05884,-3.41081,-49.6515
2023-02-16 23:02:03:99,-0.512394,-0.332005,-9.65316,1.09421,-3.38034,-49.6911
2023-02-16 23:02:03:109,-0.471131,-0.329495,-9.66261,1.12086,-3.35188,-49.7285
2023-02-16 23:02:03:119,-0.464775,-0.329338,-9.68394,1.14253,-3.32923,-49.763
2023-02-16 23:02:03:129,-0.468923,-0.32818,-9.69973,1.15731,-3.31153,-49.796
2023-02-16 23:02:03:139,-0.454648,-0.316515,-9.69555,1.16814,-3.2982,-49.832
2023-02-16 23:02:03:149,-0.470601,-0.310736,-9.69387,1.1731,-3.28554,-49.869
2023-02-16 23:02:03:159,-0.454841,-0.289038,-9.68815,1.17336,-3.27425,-49.9088
2023-02-16 23:02:03:169,-0.423047,-0.26277,-9.68333,1.17241,-3.26514,-49.9529
2023-02-16 23:02:03:179,-0.364283,-0.261566,-9.67616,1.16684,-3.25859,-49.9966
2023-02-16 23:02:03:189,-0.307986,-0.256617,-9.68205,1.15249,-3.25386,-50.0395
2023-02-16 23:02:03:199,-0.2715,-0.219363,-9.68749,1.13381,-3.25574,-50.0846
2023-02-16 23:02:03:209,-0.242756,-0.175215,-9.74408,1.11192,-3.26643,-50.1239
2023-02-16 23:02:03:219,-0.247951,-0.112384,-9.82965,1.08858,-3.28533,-50.163
2023-02-16 23:02:03:230,-0.312281,-0.0533807,-9.89825,1.06919,-3.31993,-50.2021
2023-02-16 23:02:03:239,-0.40475,-0.0121063,-9.93629,1.05401,-3.36185,-50.2461
2023-02-16 23:02:03:249,-0.495363,0.0153182,-9.90918,1.04623,-3.41389,-50.297
2023-02-16 23:02:03:259,-0.566792,0.0420576,-9.92067,1.04799,-3.46096,-50.3475
2023-02-16 23:02:03:269,-0.658624,0.0356241,-9.91757,1.05811,-3.50885,-50.3987
2023-02-16 23:02:03:279,-0.717412,-0.00114166,-9.82733,1.07501,-3.55804,-50.4604
2023-02-16 23:02:03:289,-0.684153,-0.0181074,-9.82541,1.10003,-3.59866,-50.5215
2023-02-16 23:02:03:299,-0.606735,-0.0385301,-9.85809,1.12771,-3.63699,-50.5721
2023-02-16 23:02:03:310,-0.593355,-0.0773663,-9.83247,1.15983,-3.67265,-50.6182
2023-02-16 23:02:03:319,-0.624932,-0.102992,-9.80587,1.19691,-3.71329,-50.6626
2023-02-16 23:02:03:330,-0.657652,-0.131865,-9.77463,1.23103,-3.75619,-50.703
2023-02-16 23:02:03:339,-0.72063,-0.16504,-9.75911,1.26599,-3.79973,-50.7379
2023-02-16 23:02:03:350,-0.812675,-0.164639,-9.76392,1.29716,-3.83402,-50.7698
2023-02-16 23:02:03:359,-0.894377,-0.145784,-9.75756,1.3281,-3.85847,-50.8042
2023-02-16 23:02:03:369,-0.939144,-0.153835,-9.74878,1.36238,-3.86883,-50.8388
2023-02-16 23:02:03:379,-0.894959,-0.179257,-9.71121,1.40207,-3.85877,-50.8736
2023-02-16 23:02:03:390,-0.786862,-0.210577,-9.68248,1.44085,-3.8346,-50.8979
2023-02-16 23:02:03:399,-0.665111,-0.237884,-9.66478,1.47857,-3.79756,-50.9112
2023-02-16 23:02:03:410,-0.56477,-0.266344,-9.66057,1.51083,-3.75418,-50.9089
2023-02-16 23:02:03:419,-0.49391,-0.287034,-9.65463,1.53976,-3.70438,-50.8924
2023-02-16 23:02:03:430,-0.474355,-0.298414,-9.69674,1.56285,-3.65181,-50.8617
2023-02-16 23:02:03:439,-0.483752,-0.26601,-9.78754,1.58121,-3.59713,-50.8188
2023-02-16 23:02:03:450,-0.507319,-0.21273,-9.85208,1.60321,-3.54152,-50.7716
2023-02-16 23:02:03:459,-0.523558,-0.192317,-9.85518,1.63272,-3.48133,-50.7184
2023-02-16 23:02:03:469,-0.501903,-0.190745,-9.82993,1.66824,-3.41488,-50.6567
2023-02-16 23:02:03:479,-0.484324,-0.227269,-9.73351,1.71331,-3.34442,-50.5882
2023-02-16 23:02:03:490,-0.447364,-0.28171,-9.64306,1.75751,-3.268,-50.5159
2023-02-16 23:02:03:499,-0.420521,-0.318009,-9.62116,1.8006,-3.18813,-50.4374
2023-02-16 23:02:03:510,-0.372004,-0.370637,-9.60849,1.83902,-3.10725,-50.3515
2023-02-16 23:02:03:519,-0.320573,-0.421715,-9.59182,1.86988,-3.02271,-50.2576
2023-02-16 23:02:03:530,-0.280231,-0.425517,-9.57793,1.88724,-2.93815,-50.1604
2023-02-16 23:02:03:539,-0.228546,-0.415539,-9.61723,1.89178,-2.85897,-50.0581
2023-02-16 23:02:03:549,-0.20162,-0.389273,-9.69539,1.88456,-2.78543,-49.9525
2023-02-16 23:02:03:560,-0.217361,-0.340889,-9.76113,1.87343,-2.72077,-49.842
2023-02-16 23:02:03:569,-0.243257,-0.276942,-9.79486,1.85904,-2.66553,-49.7402
2023-02-16 23:02:03:579,-0.266566,-0.239426,-9.80414,1.84322,-2.61741,-49.6376
2023-02-16 23:02:03:590,-0.280219,-0.245607,-9.76258,1.8384,-2.57218,-49.5391
2023-02-16 23:02:03:600,-0.27294,-0.282717,-9.67944,1.82515,-2.53558,-49.4381
2023-02-16 23:02:03:609,-0.255187,-0.304493,-9.63537,1.80502,-2.5043,-49.3406
2023-02-16 23:02:03:620,-0.248252,-0.285113,-9.62815,1.78128,-2.47957,-49.2432
2023-02-16 23:02:03:630,-0.265468,-0.262956,-9.65389,1.74723,-2.46015,-49.1498
2023-02-16 23:02:03:640,-0.303915,-0.228215,-9.70041,1.71054,-2.45102,-49.059
2023-02-16 23:02:03:650,-0.320904,-0.16019,-9.76664,1.66527,-2.44627,-48.9792
2023-02-16 23:02:03:660,-0.307651,-0.100605,-9.80579,1.62297,-2.44986,-48.9014
2023-02-16 23:02:03:670,-0.313365,-0.0693157,-9.82317,1.58344,-2.46068,-48.8254
2023-02-16 23:02:03:679,-0.354208,-0.0614274,-9.84795,1.55148,-2.4792,-48.7512
2023-02-16 23:02:03:690,-0.401733,-0.0637924,-9.87097,1.52557,-2.50003,-48.6809
2023-02-16 23:02:03:700,-0.451149,-0.0620065,-9.90682,1.50586,-2.52536,-48.6184
2023-02-16 23:02:03:710,-0.528723,-0.0826571,-9.9085,1.4936,-2.55663,-48.5584
2023-02-16 23:02:03:720,-0.578756,-0.112436,-9.86888,1.49272,-2.58671,-48.5113
2023-02-16 23:02:03:730,-0.588232,-0.166146,-9.84701,1.49598,-2.61098,-48.4699
2023-02-16 23:02:03:740,-0.543574,-0.156203,-9.90125,1.50113,-2.62841,-48.4321
2023-02-16 23:02:03:750,-0.48392,-0.209744,-9.85128,1.51651,-2.64772,-48.3991
2023-02-16 23:02:03:759,-0.469495,-0.267268,-9.76463,1.52906,-2.66809,-48.3659
2023-02-16 23:02:03:769,-0.431941,-0.288322,-9.78318,1.535,-2.69015,-48.3304
2023-02-16 23:02:03:779,-0.431667,-0.272493,-9.80939,1.53476,-2.72217,-48.2924
2023-02-16 23:02:03:790,-0.502723,-0.232321,-9.84603,1.53737,-2.75785,-48.2595
2023-02-16 23:02:03:799,-0.585393,-0.212755,-9.88243,1.54154,-2.79264,-48.2347
2023-02-16 23:02:03:809,-0.641488,-0.198788,-9.88687,1.55461,-2.82099,-48.2136
2023-02-16 23:02:03:819,-0.638085,-0.240206,-9.8423,1.5751,-2.84512,-48.1944
2023-02-16 23:02:03:829,-0.599873,-0.285173,-9.79151,1.60394,-2.8638,-48.1795
2023-02-16 23:02:03:840,-0.50835,-0.338658,-9.70511,1.63117,-2.8783,-48.1612
2023-02-16 23:02:03:850,-0.431233,-0.391295,-9.64307,1.65496,-2.8928,-48.1331
2023-02-16 23:02:03:859,-0.34806,-0.421253,-9.65483,1.6671,-2.91476,-48.0972
2023-02-16 23:02:03:870,-0.304572,-0.425108,-9.67344,1.66396,-2.94459,-48.0458
2023-02-16 23:02:03:880,-0.330171,-0.398376,-9.71889,1.65005,-2.98747,-47.987
2023-02-16 23:02:03:890,-0.391288,-0.314794,-9.83359,1.62667,-3.04817,-47.9192
2023-02-16 23:02:03:900,-0.475258,-0.223971,-9.95458,1.60652,-3.12012,-47.8463
2023-02-16 23:02:03:910,-0.580304,-0.164593,-10.0035,1.59228,-3.20314,-47.7679
2023-02-16 23:02:03:920,-0.712137,-0.152964,-9.99555,1.59192,-3.2847,-47.6876
2023-02-16 23:02:03:929,-0.852677,-0.119818,-9.98322,1.60583,-3.36626,-47.6044
2023-02-16 23:02:03:940,-0.983869,-0.12174,-9.97511,1.63462,-3.44153,-47.5196
2023-02-16 23:02:03:950,-1.11404,-0.126332,-9.96017,1.68474,-3.50255,-47.441
2023-02-16 23:02:03:959,-1.21563,-0.153967,-9.94096,1.74903,-3.54481,-47.3699
2023-02-16 23:02:03:970,-1.24,-0.206345,-9.96398,1.82849,-3.56967,-47.3149
2023-02-16 23:02:03:980,-1.17405,-0.261161,-9.94426,1.92357,-3.57627,-47.2659
2023-02-16 23:02:03:990,-1.0719,-0.344896,-9.8722,2.03235,-3.57664,-47.2226
2023-02-16 23:02:03:999,-1.00476,-0.419231,-9.80605,2.14818,-3.57511,-47.1864
2023-02-16 23:02:04:10,-0.959532,-0.480876,-9.74558,2.26911,-3.56398,-47.158
2023-02-16 23:02:04:19,-0.911553,-0.554829,-9.66001,2.39298,-3.5548,-47.1453
2023-02-16 23:02:04:29,-0.877186,-0.637024,-9.56112,2.50879,-3.54609,-47.1403
2023-02-16 23:02:04:39,-0.825269,-0.711147,-9.48735,2.61619,-3.53404,-47.1439
2023-02-16 23:02:04:50,-0.763732,-0.758044,-9.43841,2.70762,-3.52013,-47.1488
2023-02-16 23:02:04:60,-0.711431,-0.788063,-9.39442,2.78232,-3.5106,-47.1629
2023-02-16 23:02:04:70,-0.633491,-0.797769,-9.35841,2.83931,-3.49507,-47.176
2023-02-16 23:02:04:80,-0.572718,-0.794211,-9.3477,2.87334,-3.48125,-47.1879
2023-02-16 23:02:04:90,-0.533227,-0.778003,-9.39941,2.88545,-3.46703,-47.2009
2023-02-16 23:02:04:100,-0.52076,-0.752925,-9.44397,2.88394,-3.45242,-47.2117
2023-02-16 23:02:04:110,-0.507918,-0.696821,-9.49836,2.8655,-3.43985,-47.2206
2023-02-16 23:02:04:119,-0.492636,-0.639737,-9.58175,2.83903,-3.42581,-47.2299
2023-02-16 23:02:04:129,-0.491604,-0.59606,-9.65575,2.80724,-3.41297,-47.2376
2023-02-16 23:02:04:139,-0.509045,-0.570425,-9.70918,2.77186,-3.39997,-47.2402
2023-02-16 23:02:04:149,-0.528424,-0.537041,-9.71426,2.73796,-3.39012,-47.2429
2023-02-16 23:02:04:159,-0.535484,-0.535804,-9.6991,2.70562,-3.37778,-47.2461
2023-02-16 23:02:04:170,-0.563987,-0.524543,-9.67183,2.67037,-3.37126,-47.2548
2023-02-16 23:02:04:179,-0.588808,-0.516935,-9.65059,2.63361,-3.36009,-47.2614
2023-02-16 23:02:04:190,-0.60674,-0.517089,-9.63855,2.5924,-3.34619,-47.2715
2023-02-16 23:02:04:200,-0.60535,-0.513844,-9.64418,2.54599,-3.33383,-47.2839
2023-02-16 23:02:04:210,-0.607056,-0.503302,-9.65972,2.49223,-3.32261,-47.2951
2023-02-16 23:02:04:220,-0.622821,-0.473799,-9.68941,2.42719,-3.31676,-47.3128
2023-02-16 23:02:04:230,-0.643506,-0.424067,-9.72645,2.35683,-3.31136,-47.3382
2023-02-16 23:02:04:240,-0.65696,-0.393863,-9.76939,2.28634,-3.30491,-47.3659
2023-02-16 23:02:04:249,-0.662005,-0.381255,-9.77703,2.21627,-3.29574,-47.3994
2023-02-16 23:02:04:260,-0.660404,-0.366418,-9.77615,2.14484,-3.28295,-47.4341
2023-02-16 23:02:04:269,-0.652242,-0.343785,-9.77359,2.07648,-3.27048,-47.4714
2023-02-16 23:02:04:279,-0.638478,-0.338924,-9.75752,2.01009,-3.25416,-47.5104
2023-02-16 23:02:04:290,-0.611073,-0.312414,-9.7624,1.94148,-3.23134,-47.5522
2023-02-16 23:02:04:300,-0.603807,-0.279726,-9.7964,1.86954,-3.20581,-47.5971
2023-02-16 23:02:04:310,-0.610087,-0.247559,-9.82466,1.80193,-3.18042,-47.6408
2023-02-16 23:02:04:320,-0.613726,-0.202897,-9.85496,1.73998,-3.15401,-47.6874
2023-02-16 23:02:04:330,-0.588497,-0.187361,-9.88955,1.68385,-3.12821,-47.7381
2023-02-16 23:02:04:340,-0.548131,-0.158713,-9.9091,1.63004,-3.095,-47.7914
2023-02-16 23:02:04:349,-0.523512,-0.131677,-9.9181,1.58899,-3.05717,-47.8447
2023-02-16 23:02:04:360,-0.494912,-0.139592,-9.88573,1.55615,-3.0178,-47.8974
2023-02-16 23:02:04:369,-0.456484,-0.162743,-9.89608,1.52893,-2.97842,-47.9478
2023-02-16 23:02:04:379,-0.439627,-0.152206,-9.91343,1.50681,-2.94363,-47.9979
2023-02-16 23:02:04:389,-0.416212,-0.16452,-9.89008,1.49614,-2.90831,-48.047
2023-02-16 23:02:04:399,-0.388216,-0.180869,-9.87016,1.48656,-2.87353,-48.0913
2023-02-16 23:02:04:410,-0.347267,-0.19188,-9.85552,1.47887,-2.83863,-48.1308
2023-02-16 23:02:04:419,-0.324503,-0.214365,-9.82026,1.47564,-2.80569,-48.1675
2023-02-16 23:02:04:430,-0.317606,-0.236873,-9.78695,1.47336,-2.77357,-48.1966
2023-02-16 23:02:04:440,-0.313283,-0.259956,-9.77624,1.47052,-2.74408,-48.2224
2023-02-16 23:02:04:449,-0.302279,-0.271036,-9.79911,1.46967,-2.72021,-48.2464
2023-02-16 23:02:04:459,-0.297207,-0.248685,-9.81209,1.46756,-2.69684,-48.2624
2023-02-16 23:02:04:470,-0.294604,-0.247521,-9.80693,1.46642,-2.67723,-48.2803
2023-02-16 23:02:04:480,-0.280158,-0.268278,-9.80698,1.46453,-2.65992,-48.2916
2023-02-16 23:02:04:490,-0.294491,-0.282577,-9.79954,1.46621,-2.64777,-48.3009
2023-02-16 23:02:04:499,-0.303035,-0.270008,-9.79074,1.46603,-2.6353,-48.3016
2023-02-16 23:02:04:509,-0.317539,-0.270757,-9.77322,1.4658,-2.6314,-48.3034
2023-02-16 23:02:04:519,-0.322188,-0.270576,-9.73868,1.46701,-2.62684,-48.2987
2023-02-16 23:02:04:529,-0.329593,-0.285335,-9.71873,1.46313,-2.62788,-48.2941
2023-02-16 23:02:04:539,-0.343374,-0.305369,-9.7064,1.46354,-2.62839,-48.285
2023-02-16 23:02:04:549,-0.37542,-0.293608,-9.71318,1.45805,-2.63422,-48.2719
2023-02-16 23:02:04:559,-0.396782,-0.256568,-9.74279,1.44563,-2.63925,-48.2573
2023-02-16 23:02:04:570,-0.416479,-0.228506,-9.78307,1.43371,-2.64583,-48.2388
2023-02-16 23:02:04:579,-0.45185,-0.20785,-9.77419,1.42426,-2.65307,-48.2222
2023-02-16 23:02:04:589,-0.496467,-0.21551,-9.74594,1.4176,-2.65975,-48.2076
2023-02-16 23:02:04:599,-0.530963,-0.215037,-9.76603,1.40861,-2.66669,-48.1938
2023-02-16 23:02:04:609,-0.546425,-0.205968,-9.81567,1.40454,-2.66521,-48.1806
2023-02-16 23:02:04:619,-0.532526,-0.206793,-9.82961,1.39897,-2.66183,-48.1732
2023-02-16 23:02:04:630,-0.473027,-0.220406,-9.81052,1.39724,-2.66018,-48.164
2023-02-16 23:02:04:640,-0.416343,-0.231204,-9.80019,1.40113,-2.65959,-48.1516
2023-02-16 23:02:04:650,-0.430461,-0.230767,-9.78422,1.4034,-2.66664,-48.1369
2023-02-16 23:02:04:659,-0.481847,-0.225678,-9.73501,1.40297,-2.67977,-48.1279
2023-02-16 23:02:04:669,-0.536782,-0.222705,-9.6998,1.39657,-2.69585,-48.1208
2023-02-16 23:02:04:680,-0.57218,-0.210794,-9.71256,1.38905,-2.70913,-48.1189
2023-02-16 23:02:04:690,-0.564546,-0.173534,-9.7155,1.37617,-2.71859,-48.12
2023-02-16 23:02:04:700,-0.552207,-0.17172,-9.72027,1.361,-2.72273,-48.1245
2023-02-16 23:02:04:710,-0.552979,-0.162104,-9.76209,1.34499,-2.72131,-48.1276
2023-02-16 23:02:04:720,-0.543669,-0.120813,-9.76191,1.32626,-2.72037,-48.1322
2023-02-16 23:02:04:729,-0.523676,-0.129287,-9.70844,1.31023,-2.71718,-48.1365
2023-02-16 23:02:04:739,-0.534311,-0.133423,-9.69304,1.29059,-2.71203,-48.1386
2023-02-16 23:02:04:749,-0.547874,-0.141466,-9.70634,1.26649,-2.7064,-48.1394
2023-02-16 23:02:04:760,-0.54139,-0.129228,-9.6999,1.24201,-2.69855,-48.1448
2023-02-16 23:02:04:770,-0.547383,-0.114431,-9.7038,1.21715,-2.68606,-48.1536
2023-02-16 23:02:04:779,-0.544505,-0.101723,-9.75047,1.1896,-2.67232,-48.1634
2023-02-16 23:02:04:789,-0.536478,-0.0715886,-9.79332,1.16046,-2.65655,-48.1762
2023-02-16 23:02:04:799,-0.520572,-0.069009,-9.78262,1.13679,-2.63963,-48.1993
2023-02-16 23:02:04:810,-0.507855,-0.0785138,-9.78904,1.11709,-2.62524,-48.2213
2023-02-16 23:02:04:820,-0.486674,-0.0698855,-9.86616,1.0969,-2.60626,-48.2443
2023-02-16 23:02:04:830,-0.439708,-0.0668236,-9.91868,1.08256,-2.5829,-48.2689
2023-02-16 23:02:04:839,-0.408846,-0.0842367,-9.8919,1.07686,-2.56353,-48.2955
2023-02-16 23:02:04:849,-0.383367,-0.0989137,-9.86271,1.07286,-2.54816,-48.3178
2023-02-16 23:02:04:859,-0.346472,-0.0949589,-9.84063,1.07093,-2.53255,-48.3368
2023-02-16 23:02:04:869,-0.331325,-0.10662,-9.84666,1.06931,-2.51559,-48.3578
2023-02-16 23:02:04:879,-0.306288,-0.118047,-9.84296,1.06758,-2.50395,-48.3791
2023-02-16 23:02:04:890,-0.300378,-0.133721,-9.81763,1.06766,-2.49696,-48.3934
2023-02-16 23:02:04:900,-0.320418,-0.141403,-9.79368,1.0721,-2.48926,-48.4056
2023-02-16 23:02:04:909,-0.333902,-0.122348,-9.81685,1.07451,-2.48395,-48.416
2023-02-16 23:02:04:920,-0.334478,-0.101795,-9.84446,1.08002,-2.48151,-48.4259
2023-02-16 23:02:04:930,-0.329259,-0.114789,-9.83527,1.09067,-2.47227,-48.4319
2023-02-16 23:02:04:940,-0.314749,-0.12821,-9.80882,1.10385,-2.46234,-48.433
2023-02-16 23:02:04:950,-0.30631,-0.134255,-9.79289,1.11922,-2.45462,-48.4329
2023-02-16 23:02:04:960,-0.297439,-0.142296,-9.79692,1.14007,-2.44418,-48.4296
2023-02-16 23:02:04:970,-0.307134,-0.167763,-9.80262,1.16219,-2.43499,-48.4232
2023-02-16 23:02:04:979,-0.309522,-0.183465,-9.79075,1.18691,-2.42612,-48.4114
2023-02-16 23:02:04:989,-0.307468,-0.21171,-9.7429,1.21134,-2.41922,-48.398
2023-02-16 23:02:04:999,-0.316643,-0.224131,-9.71036,1.23706,-2.41315,-48.3843
2023-02-16 23:02:05:10,-0.338349,-0.230912,-9.71481,1.25873,-2.41113,-48.3704
2023-02-16 23:02:05:19,-0.359878,-0.235179,-9.72657,1.28079,-2.40769,-48.3599
2023-02-16 23:02:05:30,-0.353132,-0.253175,-9.73183,1.29835,-2.40893,-48.3496
2023-02-16 23:02:05:40,-0.349677,-0.281729,-9.72328,1.31664,-2.41283,-48.3373
2023-02-16 23:02:05:50,-0.354443,-0.281351,-9.73671,1.3299,-2.4149,-48.3276
2023-02-16 23:02:05:60,-0.357898,-0.267811,-9.7477,1.3396,-2.41742,-48.3134
2023-02-16 23:02:05:70,-0.357439,-0.243633,-9.76227,1.34188,-2.42892,-48.3007
2023-02-16 23:02:05:79,-0.386949,-0.249131,-9.77719,1.34488,-2.44224,-48.2912
2023-02-16 23:02:05:90,-0.405678,-0.237914,-9.77689,1.34779,-2.45774,-48.2826
2023-02-16 23:02:05:100,-0.426138,-0.225128,-9.7709,1.35222,-2.47287,-48.2759
2023-02-16 23:02:05:110,-0.430996,-0.234759,-9.76162,1.35473,-2.4854,-48.2734
2023-02-16 23:02:05:119,-0.436088,-0.251401,-9.74664,1.35657,-2.49875,-48.2683
2023-02-16 23:02:05:130,-0.442256,-0.247826,-9.75048,1.36109,-2.50651,-48.2608
2023-02-16 23:02:05:140,-0.442196,-0.244778,-9.7397,1.36393,-2.51726,-48.2532
2023-02-16 23:02:05:150,-0.461369,-0.258693,-9.72361,1.36637,-2.52823,-48.2508
2023-02-16 23:02:05:160,-0.472396,-0.26362,-9.71747,1.3702,-2.53892,-48.2463
2023-02-16 23:02:05:170,-0.465675,-0.264289,-9.71145,1.37272,-2.54851,-48.2404
2023-02-16 23:02:05:180,-0.462128,-0.264852,-9.71148,1.37173,-2.55567,-48.2357
2023-02-16 23:02:05:190,-0.471628,-0.26576,-9.7354,1.36928,-2.56478,-48.2334
2023-02-16 23:02:05:200,-0.493197,-0.267463,-9.70538,1.36433,-2.57231,-48.2307
2023-02-16 23:02:05:210,-0.522637,-0.260711,-9.72224,1.35575,-2.57787,-48.233
2023-02-16 23:02:05:220,-0.534518,-0.245637,-9.78338,1.34556,-2.5843,-48.2358
2023-02-16 23:02:05:230,-0.534821,-0.22068,-9.84713,1.3385,-2.58942,-48.2438
2023-02-16 23:02:05:240,-0.509551,-0.20276,-9.87415,1.33848,-2.59095,-48.2568
2023-02-16 23:02:05:249,-0.454024,-0.220849,-9.86336,1.34195,-2.59004,-48.2739
2023-02-16 23:02:05:260,-0.428197,-0.244524,-9.8265,1.34724,-2.59568,-48.288
2023-02-16 23:02:05:270,-0.453574,-0.248278,-9.78158,1.35755,-2.60025,-48.302
2023-02-16 23:02:05:280,-0.463287,-0.263795,-9.71445,1.3615,-2.60518,-48.3176
2023-02-16 23:02:05:290,-0.472234,-0.273156,-9.65985,1.35941,-2.60439,-48.33
2023-02-16 23:02:05:299,-0.477053,-0.27298,-9.64722,1.35379,-2.60385,-48.3409
2023-02-16 23:02:05:309,-0.476061,-0.267642,-9.66154,1.33996,-2.60195,-48.3542
2023-02-16 23:02:05:319,-0.453846,-0.23238,-9.7061,1.32369,-2.60476,-48.3691
2023-02-16 23:02:05:330,-0.43059,-0.189458,-9.75516,1.30066,-2.60511,-48.3844
2023-02-16 23:02:05:339,-0.41752,-0.15579,-9.78729,1.27472,-2.60317,-48.3974
2023-02-16 23:02:05:350,-0.414359,-0.132227,-9.8298,1.25286,-2.6016,-48.4055
2023-02-16 23:02:05:360,-0.408443,-0.114108,-9.83012,1.23558,-2.60022,-48.4171
2023-02-16 23:02:05:370,-0.413804,-0.102536,-9.81616,1.22316,-2.59849,-48.4267
2023-02-16 23:02:05:380,-0.406297,-0.107592,-9.81735,1.2137,-2.59467,-48.4317
2023-02-16 23:02:05:390,-0.398782,-0.133765,-9.80187,1.20858,-2.59075,-48.4324
2023-02-16 23:02:05:400,-0.394919,-0.156413,-9.76593,1.2091,-2.58863,-48.4374
2023-02-16 23:02:05:410,-0.379495,-0.18223,-9.74624,1.20847,-2.58605,-48.4374
2023-02-16 23:02:05:420,-0.366285,-0.18914,-9.74878,1.20444,-2.58807,-48.4339
2023-02-16 23:02:05:430,-0.369221,-0.19427,-9.75895,1.1965,-2.58964,-48.4311
2023-02-16 23:02:05:440,-0.384316,-0.191273,-9.77511,1.19101,-2.59249,-48.4279
2023-02-16 23:02:05:450,-0.399636,-0.17818,-9.79158,1.18482,-2.59957,-48.4257
2023-02-16 23:02:05:459,-0.406088,-0.164499,-9.82559,1.17807,-2.60629,-48.4257
2023-02-16 23:02:05:470,-0.409077,-0.15524,-9.8411,1.17174,-2.61717,-48.4224
2023-02-16 23:02:05:480,-0.431432,-0.160503,-9.85699,1.16477,-2.62738,-48.4173
2023-02-16 23:02:05:490,-0.442977,-0.171592,-9.84952,1.15908,-2.63746,-48.415
2023-02-16 23:02:05:500,-0.459717,-0.176032,-9.81109,1.15748,-2.65167,-48.4132
2023-02-16 23:02:05:509,-0.490218,-0.16347,-9.77099,1.15332,-2.66082,-48.4111
2023-02-16 23:02:05:520,-0.493025,-0.16685,-9.77232,1.15277,-2.67071,-48.4134
2023-02-16 23:02:05:530,-0.477362,-0.173059,-9.73674,1.15205,-2.67754,-48.4128
2023-02-16 23:02:05:540,-0.488016,-0.184943,-9.70752,1.15032,-2.68537,-48.4138
2023-02-16 23:02:05:550,-0.479832,-0.17496,-9.70246,1.14469,-2.69066,-48.4131
2023-02-16 23:02:05:560,-0.482996,-0.166444,-9.72048,1.13568,-2.69668,-48.4156
2023-02-16 23:02:05:569,-0.498544,-0.149459,-9.75311,1.1238,-2.70527,-48.417
2023-02-16 23:02:05:579,-0.514746,-0.138622,-9.77098,1.11666,-2.71231,-48.4189
2023-02-16 23:02:05:590,-0.510564,-0.129918,-9.78584,1.11092,-2.7171,-48.4234
2023-02-16 23:02:05:600,-0.503793,-0.119328,-9.78532,1.1065,-2.72227,-48.4263
2023-02-16 23:02:05:610,-0.511611,-0.122575,-9.78994,1.10472,-2.72385,-48.4348
2023-02-16 23:02:05:619,-0.522111,-0.134249,-9.80641,1.10313,-2.73108,-48.4395
2023-02-16 23:02:05:629,-0.511888,-0.14021,-9.81063,1.09961,-2.73249,-48.4479
2023-02-16 23:02:05:640,-0.497026,-0.148844,-9.79751,1.10086,-2.73476,-48.4591
2023-02-16 23:02:05:650,-0.492238,-0.154107,-9.78406,1.10252,-2.73947,-48.4662
2023-02-16 23:02:05:659,-0.477196,-0.153211,-9.79363,1.10303,-2.74253,-48.4724
2023-02-16 23:02:05:670,-0.473978,-0.156686,-9.80753,1.10326,-2.74447,-48.4739
2023-02-16 23:02:05:679,-0.487001,-0.142082,-9.80511,1.10572,-2.74798,-48.4795
2023-02-16 23:02:05:690,-0.483702,-0.146355,-9.81892,1.10813,-2.74956,-48.4841
2023-02-16 23:02:05:700,-0.495085,-0.149637,-9.81757,1.1149,-2.75125,-48.4862
2023-02-16 23:02:05:709,-0.499431,-0.151891,-9.79779,1.1178,-2.74898,-48.4871
2023-02-16 23:02:05:720,-0.503713,-0.158838,-9.78351,1.12402,-2.74822,-48.4854
2023-02-16 23:02:05:730,-0.511667,-0.168104,-9.7579,1.13044,-2.74514,-48.4847
2023-02-16 23:02:05:740,-0.503431,-0.169835,-9.7441,1.13538,-2.73841,-48.4834
2023-02-16 23:02:05:750,-0.495756,-0.181743,-9.76034,1.14408,-2.73291,-48.4843
2023-02-16 23:02:05:760,-0.489042,-0.187597,-9.77118,1.15585,-2.72362,-48.4852
2023-02-16 23:02:05:770,-0.47046,-0.213483,-9.76045,1.16329,-2.7174,-48.4853
2023-02-16 23:02:05:780,-0.458744,-0.219369,-9.72419,1.17305,-2.71411,-48.4848
2023-02-16 23:02:05:790,-0.480185,-0.233694,-9.68867,1.18325,-2.71247,-48.484
2023-02-16 23:02:05:799,-0.515718,-0.23683,-9.67733,1.18842,-2.71142,-48.4872
2023-02-16 23:02:05:809,-0.53103,-0.243096,-9.6988,1.18849,-2.70738,-48.4954
2023-02-16 23:02:05:819,-0.52035,-0.246274,-9.7579,1.18582,-2.69683,-48.5056
2023-02-16 23:02:05:829,-0.470902,-0.256684,-9.79058,1.1885,-2.69035,-48.5121
2023-02-16 23:02:05:839,-0.409526,-0.287709,-9.78352,1.18984,-2.68597,-48.5171
2023-02-16 23:02:05:850,-0.394276,-0.305701,-9.74747,1.18693,-2.68821,-48.5211
2023-02-16 23:02:05:860,-0.42121,-0.298271,-9.697,1.18042,-2.68972,-48.5263
2023-02-16 23:02:05:870,-0.472893,-0.297271,-9.6584,1.16985,-2.69791,-48.5306
2023-02-16 23:02:05:879,-0.504274,-0.279634,-9.65686,1.15201,-2.69812,-48.5372
2023-02-16 23:02:05:890,-0.495437,-0.24261,-9.66963,1.13124,-2.69485,-48.5437
2023-02-16 23:02:05:900,-0.483803,-0.218118,-9.68554,1.10142,-2.68731,-48.5518
2023-02-16 23:02:05:909,-0.455838,-0.18721,-9.71821,1.07096,-2.68317,-48.5585
2023-02-16 23:02:05:920,-0.448384,-0.155065,-9.77075,1.03519,-2.67452,-48.5667
2023-02-16 23:02:05:930,-0.440264,-0.0940106,-9.80684,1.00389,-2.6686,-48.574
2023-02-16 23:02:05:939,-0.455298,-0.0588517,-9.83105,0.972356,-2.66319,-48.58
2023-02-16 23:02:05:949,-0.472147,-0.0460026,-9.84807,0.948453,-2.65459,-48.5859
2023-02-16 23:02:05:959,-0.469667,-0.0401979,-9.84415,0.925759,-2.6467,-48.5937
2023-02-16 23:02:05:970,-0.462535,-0.0332663,-9.81934,0.910173,-2.63621,-48.6017
2023-02-16 23:02:05:980,-0.458298,-0.0429693,-9.79872,0.895633,-2.62731,-48.609
2023-02-16 23:02:05:990,-0.437113,-0.0349403,-9.79858,0.884124,-2.61728,-48.6166
2023-02-16 23:02:05:999,-0.436964,-0.0284319,-9.82799,0.871775,-2.60866,-48.6246
2023-02-16 23:02:06:10,-0.422477,-0.0319763,-9.85158,0.86098,-2.60115,-48.633
2023-02-16 23:02:06:19,-0.41216,-0.0242992,-9.87502,0.85237,-2.59184,-48.6462
2023-02-16 23:02:06:30,-0.382805,-0.0222709,-9.8841,0.849517,-2.5776,-48.6557
2023-02-16 23:02:06:40,-0.362695,-0.0396853,-9.88779,0.852036,-2.56747,-48.6646
2023-02-16 23:02:06:50,-0.323473,-0.0502571,-9.87825,0.860016,-2.56472,-48.6716
2023-02-16 23:02:06:60,-0.335514,-0.063303,-9.86434,0.868025,-2.56161,-48.6797
2023-02-16 23:02:06:70,-0.354995,-0.0683143,-9.83765,0.877903,-2.56114,-48.6843
2023-02-16 23:02:06:80,-0.359914,-0.0858305,-9.82153,0.89124,-2.56196,-48.6917
2023-02-16 23:02:06:90,-0.372959,-0.104724,-9.80693,0.904559,-2.56337,-48.6966
2023-02-16 23:02:06:100,-0.37447,-0.0970334,-9.78666,0.921481,-2.56266,-48.7002
2023-02-16 23:02:06:110,-0.360472,-0.10137,-9.77851,0.932245,-2.56281,-48.7021
2023-02-16 23:02:06:119,-0.346331,-0.0991198,-9.76836,0.945056,-2.56426,-48.7
2023-02-16 23:02:06:129,-0.352207,-0.105425,-9.78458,0.956346,-2.56695,-48.6971
2023-02-16 23:02:06:139,-0.369155,-0.11291,-9.77715,0.97315,-2.57119,-48.6921
2023-02-16 23:02:06:149,-0.37672,-0.125984,-9.76718,0.990824,-2.57871,-48.6817
2023-02-16 23:02:06:159,-0.389663,-0.143889,-9.75957,1.01156,-2.58479,-48.6721
2023-02-16 23:02:06:169,-0.4068,-0.168744,-9.74896,1.03161,-2.59232,-48.6645
2023-02-16 23:02:06:179,-0.422221,-0.177764,-9.73244,1.04952,-2.59701,-48.6561
2023-02-16 23:02:06:189,-0.449563,-0.185341,-9.71564,1.06742,-2.60329,-48.6494
2023-02-16 23:02:06:199,-0.45648,-0.208093,-9.7131,1.08429,-2.61068,-48.6412
2023-02-16 23:02:06:209,-0.453664,-0.213986,-9.71838,1.09903,-2.61908,-48.6332
2023-02-16 23:02:06:219,-0.450445,-0.232463,-9.73341,1.10744,-2.62853,-48.6283
2023-02-16 23:02:06:229,-0.452891,-0.226447,-9.73285,1.113,-2.63786,-48.625
2023-02-16 23:02:06:239,-0.460587,-0.218846,-9.73476,1.1182,-2.65019,-48.6209
2023-02-16 23:02:06:249,-0.473418,-0.211556,-9.73409,1.12404,-2.65994,-48.6169
2023-02-16 23:02:06:259,-0.485855,-0.213797,-9.75346,1.12838,-2.67259,-48.6193
2023-02-16 23:02:06:269,-0.499343,-0.216205,-9.76337,1.12923,-2.68425,-48.618
2023-02-16 23:02:06:279,-0.504857,-0.223512,-9.76449,1.13033,-2.69361,-48.621
2023-02-16 23:02:06:289,-0.498497,-0.226891,-9.75601,1.13198,-2.69887,-48.6224
2023-02-16 23:02:06:300,-0.502298,-0.222466,-9.74366,1.13115,-2.7028,-48.6228
2023-02-16 23:02:06:310,-0.516853,-0.219803,-9.7199,1.12811,-2.70988,-48.6293
2023-02-16 23:02:06:319,-0.522319,-0.21319,-9.72451,1.12288,-2.71685,-48.6329
2023-02-16 23:02:06:329,-0.533075,-0.188559,-9.71145,1.11321,-2.72439,-48.641
2023-02-16 23:02:06:339,-0.53187,-0.209049,-9.71753,1.10166,-2.72606,-48.649
2023-02-16 23:02:06:350,-0.528888,-0.191236,-9.76748,1.09364,-2.72307,-48.6589
2023-02-16 23:02:06:360,-0.493923,-0.169965,-9.80755,1.0871,-2.72068,-48.6658
2023-02-16 23:02:06:370,-0.46066,-0.165954,-9.80897,1.0811,-2.72126,-48.6726
2023-02-16 23:02:06:379,-0.468543,-0.183628,-9.80264,1.08137,-2.72215,-48.6751
2023-02-16 23:02:06:389,-0.488018,-0.207354,-9.79111,1.08104,-2.72043,-48.6774
2023-02-16 23:02:06:400,-0.490503,-0.221134,-9.76886,1.0831,-2.71633,-48.6788
2023-02-16 23:02:06:409,-0.485359,-0.234772,-9.79117,1.08479,-2.70707,-48.6833
2023-02-16 23:02:06:420,-0.456607,-0.237475,-9.81061,1.08502,-2.6994,-48.6888
2023-02-16 23:02:06:430,-0.382292,-0.230019,-9.81475,1.08396,-2.69368,-48.6926
2023-02-16 23:02:06:439,-0.352175,-0.237552,-9.80529,1.08376,-2.69867,-48.6885
2023-02-16 23:02:06:449,-0.36573,-0.232838,-9.7964,1.08274,-2.70734,-48.6847
2023-02-16 23:02:06:460,-0.409286,-0.241123,-9.78706,1.08205,-2.71847,-48.6813
2023-02-16 23:02:06:470,-0.462046,-0.237585,-9.76202,1.07529,-2.73018,-48.6785
2023-02-16 23:02:06:480,-0.501032,-0.223059,-9.74756,1.06838,-2.74269,-48.6756
2023-02-16 23:02:06:489,-0.512418,-0.202696,-9.74698,1.06151,-2.74598,-48.6755
2023-02-16 23:02:06:500,-0.494632,-0.193566,-9.7494,1.05552,-2.74794,-48.6719
2023-02-16 23:02:06:510,-0.478351,-0.204475,-9.70934,1.04579,-2.74933,-48.6677
2023-02-16 23:02:06:520,-0.478727,-0.197342,-9.69931,1.03212,-2.75142,-48.6656
2023-02-16 23:02:06:530,-0.484828,-0.171289,-9.70969,1.01521,-2.75021,-48.6616
2023-02-16 23:02:06:539,-0.501344,-0.138006,-9.72802,0.998013,-2.74564,-48.6585
2023-02-16 23:02:06:549,-0.523247,-0.110786,-9.74213,0.982049,-2.74259,-48.658
2023-02-16 23:02:06:559,-0.536853,-0.105091,-9.77148,0.960966,-2.74331,-48.6607
2023-02-16 23:02:06:569,-0.526931,-0.102009,-9.7987,0.94633,-2.74075,-48.6637
2023-02-16 23:02:06:579,-0.520476,-0.0877021,-9.80469,0.9357,-2.73972,-48.6734
2023-02-16 23:02:06:589,-0.528568,-0.090735,-9.8028,0.927574,-2.73556,-48.6848
2023-02-16 23:02:06:599,-0.50339,-0.128956,-9.79119,0.922291,-2.73562,-48.696
2023-02-16 23:02:06:609,-0.484922,-0.149302,-9.76936,0.916696,-2.73484,-48.7061
2023-02-16 23:02:06:619,-0.473704,-0.159576,-9.76107,0.913871,-2.73152,-48.7186
2023-02-16 23:02:06:629,-0.464394,-0.167667,-9.76056,0.908264,-2.72761,-48.7357
2023-02-16 23:02:06:639,-0.425957,-0.173223,-9.76629,0.902677,-2.7249,-48.7476
2023-02-16 23:02:06:649,-0.397096,-0.168306,-9.78512,0.891366,-2.72425,-48.7558
2023-02-16 23:02:06:659,-0.398583,-0.146172,-9.80453,0.879713,-2.72793,-48.7673
2023-02-16 23:02:06:669,-0.388128,-0.132643,-9.82864,0.870093,-2.72992,-48.7778
2023-02-16 23:02:06:679,-0.396042,-0.106779,-9.82163,0.855446,-2.73328,-48.7849
2023-02-16 23:02:06:689,-0.412103,-0.104577,-9.81596,0.843791,-2.73772,-48.7895
2023-02-16 23:02:06:699,-0.425294,-0.0924743,-9.79494,0.834054,-2.74332,-48.7937
2023-02-16 23:02:06:709,-0.424435,-0.0793565,-9.79892,0.823357,-2.74489,-48.7977
2023-02-16 23:02:06:719,-0.42086,-0.0694768,-9.79657,0.813009,-2.74582,-48.7953
2023-02-16 23:02:06:729,-0.423186,-0.0663869,-9.77051,0.803377,-2.74816,-48.7944
2023-02-16 23:02:06:739,-0.415025,-0.0782801,-9.75389,0.794661,-2.74872,-48.7896
2023-02-16 23:02:06:749,-0.426384,-0.0545834,-9.74684,0.780774,-2.7514,-48.7858
2023-02-16 23:02:06:759,-0.440436,-0.0368125,-9.73931,0.769938,-2.7544,-48.7831
2023-02-16 23:02:06:769,-0.446402,-0.0381253,-9.7429,0.756218,-2.7546,-48.7777
2023-02-16 23:02:06:779,-0.460287,-0.0423827,-9.7532,0.742403,-2.75788,-48.775
2023-02-16 23:02:06:789,-0.460013,-0.0334007,-9.77377,0.733331,-2.76115,-48.7762
2023-02-16 23:02:06:799,-0.4677,-0.0405626,-9.79736,0.725982,-2.76457,-48.7777
2023-02-16 23:02:06:809,-0.474068,-0.0338912,-9.80536,0.720323,-2.76895,-48.7809
2023-02-16 23:02:06:819,-0.477021,-0.0462123,-9.81241,0.71282,-2.77027,-48.7835
2023-02-16 23:02:06:829,-0.481479,-0.052543,-9.81136,0.712596,-2.77657,-48.7902
2023-02-16 23:02:06:839,-0.471773,-0.0605473,-9.80038,0.711758,-2.7809,-48.7968
2023-02-16 23:02:06:849,-0.468145,-0.0937597,-9.77225,0.709272,-2.78685,-48.8048
2023-02-16 23:02:06:859,-0.465642,-0.10955,-9.75142,0.708973,-2.79115,-48.8106
2023-02-16 23:02:06:869,-0.460968,-0.118329,-9.74623,0.70469,-2.79661,-48.8174
2023-02-16 23:02:06:879,-0.465774,-0.118793,-9.73361,0.69613,-2.80267,-48.82
2023-02-16 23:02:06:889,-0.458707,-0.105164,-9.73382,0.686576,-2.80823,-48.8224
2023-02-16 23:02:06:899,-0.462772,-0.088035,-9.75821,0.671901,-2.80941,-48.8246
2023-02-16 23:02:06:909,-0.461472,-0.0806108,-9.77255,0.661607,-2.8142,-48.8257
2023-02-16 23:02:06:919,-0.474417,-0.074559,-9.76677,0.650201,-2.81915,-48.8271
2023-02-16 23:02:06:929,-0.48061,-0.0556054,-9.77256,0.636219,-2.8198,-48.8285
2023-02-16 23:02:06:939,-0.478845,-0.0454546,-9.79698,0.625604,-2.82321,-48.8323
2023-02-16 23:02:06:949,-0.478488,-0.029362,-9.80014,0.617717,-2.82492,-48.8322
2023-02-16 23:02:06:959,-0.488502,-0.0243186,-9.77978,0.609112,-2.82337,-48.8332
2023-02-16 23:02:06:969,-0.505471,-0.0306997,-9.77421,0.603706,-2.82496,-48.8393
2023-02-16 23:02:06:979,-0.504591,-0.0453835,-9.7657,0.597626,-2.82234,-48.8447
2023-02-16 23:02:06:989,-0.498819,-0.0561303,-9.76652,0.592218,-2.81916,-48.8483
2023-02-16 23:02:06:999,-0.491398,-0.0511101,-9.78107,0.584921,-2.82014,-48.8544
2023-02-16 23:02:07:9,-0.473211,-0.0445456,-9.80426,0.578905,-2.81923,-48.8632
2023-02-16 23:02:07:19,-0.469208,-0.0406134,-9.80384,0.575905,-2.81703,-48.8664
2023-02-16 23:02:07:29,-0.492359,-0.0489105,-9.78692,0.571993,-2.81694,-48.8729
2023-02-16 23:02:07:39,-0.517406,-0.0600213,-9.80202,0.571794,-2.81551,-48.8835
2023-02-16 23:02:07:49,-0.517558,-0.0715607,-9.84294,0.57572,-2.81004,-48.8949
2023-02-16 23:02:07:59,-0.447403,-0.0836999,-9.86163,0.580371,-2.8055,-48.9045
2023-02-16 23:02:07:69,-0.365412,-0.123795,-9.84662,0.588383,-2.80583,-48.9096
2023-02-16 23:02:07:79,-0.33815,-0.147799,-9.79054,0.602014,-2.81083,-48.9095
2023-02-16 23:02:07:90,-0.386496,-0.16177,-9.74906,0.612001,-2.81848,-48.911
2023-02-16 23:02:07:100,-0.424822,-0.189403,-9.71266,0.616707,-2.83082,-48.908
2023-02-16 23:02:07:110,-0.464377,-0.206663,-9.69244,0.618346,-2.8434,-48.9066
2023-02-16 23:02:07:120,-0.50605,-0.212574,-9.68783,0.618255,-2.85287,-48.9024
2023-02-16 23:02:07:130,-0.51226,-0.214846,-9.68053,0.612768,-2.85811,-48.9016
2023-02-16 23:02:07:139,-0.499886,-0.225184,-9.68053,0.608791,-2.86459,-48.8989
2023-02-16 23:02:07:149,-0.4964,-0.228956,-9.69158,0.60159,-2.86686,-48.8949
2023-02-16 23:02:07:159,-0.502948,-0.231408,-9.69726,0.59061,-2.86931,-48.8867
2023-02-16 23:02:07:170,-0.547549,-0.245107,-9.69372,0.579858,-2.87568,-48.8801
2023-02-16 23:02:07:180,-0.578276,-0.270448,-9.68192,0.571582,-2.88042,-48.8738
2023-02-16 23:02:07:190,-0.615153,-0.296074,-9.66607,0.56261,-2.88768,-48.8768
2023-02-16 23:02:07:199,-0.62691,-0.323614,-9.68098,0.553465,-2.89052,-48.8825
2023-02-16 23:02:07:209,-0.625737,-0.368509,-9.70187,0.546735,-2.89423,-48.8858
2023-02-16 23:02:07:220,-0.634456,-0.429122,-9.69182,0.543578,-2.89682,-48.8927
2023-02-16 23:02:07:230,-0.633047,-0.48989,-9.65037,0.541666,-2.89918,-48.9049
2023-02-16 23:02:07:240,-0.611397,-0.53551,-9.62099,0.537415,-2.90088,-48.9173
2023-02-16 23:02:07:250,-0.619896,-0.597686,-9.62603,0.526406,-2.90645,-48.9307
2023-02-16 23:02:07:259,-0.630701,-0.618455,-9.63653,0.508847,-2.91263,-48.9527
2023-02-16 23:02:07:270,-0.643641,-0.633945,-9.64825,0.489728,-2.92065,-48.981
2023-02-16 23:02:07:280,-0.618923,-0.663429,-9.63659,0.463865,-2.92502,-49.0127
2023-02-16 23:02:07:290,-0.612489,-0.700228,-9.65814,0.437584,-2.9308,-49.0465
2023-02-16 23:02:07:300,-0.609277,-0.714755,-9.67068,0.403453,-2.94028,-49.082
2023-02-16 23:02:07:309,-0.61607,-0.748108,-9.66013,0.362933,-2.95062,-49.1223
2023-02-16 23:02:07:320,-0.608856,-0.750292,-9.62173,0.319539,-2.9615,-49.1633
2023-02-16 23:02:07:330,-0.596268,-0.767026,-9.61966,0.264682,-2.97284,-49.2057
2023-02-16 23:02:07:339,-0.576454,-0.749958,-9.61136,0.202868,-2.98669,-49.2509
2023-02-16 23:02:07:349,-0.573569,-0.773268,-9.58863,0.129927,-3.00409,-49.2945
2023-02-16 23:02:07:360,-0.68023,-0.760976,-9.55852,0.0542873,-3.02321,-49.3423
2023-02-16 23:02:07:370,-0.716714,-0.73998,-9.55719,-0.0332705,-3.035,-49.3968
2023-02-16 23:02:07:380,-0.657632,-0.726441,-9.56169,-0.12777,-3.04346,-49.4521
2023-02-16 23:02:07:390,-0.643782,-0.695528,-9.57717,-0.231088,-3.05081,-49.5094
2023-02-16 23:02:07:399,-0.666861,-0.648826,-9.59096,-0.340188,-3.05763,-49.5729
2023-02-16 23:02:07:410,-0.684279,-0.5946,-9.60663,-0.459695,-3.06603,-49.6401
2023-02-16 23:02:07:419,-0.677961,-0.548819,-9.63793,-0.582014,-3.06908,-49.711
2023-02-16 23:02:07:430,-0.666641,-0.529163,-9.65713,-0.707025,-3.07169,-49.785
2023-02-16 23:02:07:440,-0.650434,-0.503221,-9.66263,-0.832175,-3.07594,-49.8629
2023-02-16 23:02:07:450,-0.655523,-0.481133,-9.63615,-0.960996,-3.08239,-49.9436
2023-02-16 23:02:07:460,-0.644838,-0.468855,-9.59396,-1.09714,-3.08809,-50.0242
2023-02-16 23:02:07:470,-0.661551,-0.450286,-9.56563,-1.24423,-3.09424,-50.1068
2023-02-16 23:02:07:480,-0.677663,-0.427157,-9.55942,-1.40085,-3.10079,-50.1918
2023-02-16 23:02:07:490,-0.697799,-0.370499,-9.59268,-1.56575,-3.09931,-50.2798
2023-02-16 23:02:07:500,-0.685386,-0.318299,-9.64339,-1.7367,-3.09767,-50.3743
2023-02-16 23:02:07:510,-0.657451,-0.249793,-9.70222,-1.91528,-3.09368,-50.4686
2023-02-16 23:02:07:520,-0.634397,-0.196407,-9.71458,-2.09457,-3.08516,-50.5644
2023-02-16 23:02:07:530,-0.62256,-0.166773,-9.6883,-2.27806,-3.0729,-50.6606
2023-02-16 23:02:07:539,-0.608835,-0.125003,-9.66789,-2.46269,-3.06124,-50.7568
2023-02-16 23:02:07:550,-0.599168,-0.0719694,-9.64244,-2.65106,-3.04835,-50.8527
2023-02-16 23:02:07:560,-0.60161,-0.0243837,-9.6162,-2.84077,-3.03099,-50.9527
2023-02-16 23:02:07:570,-0.619858,-0.0115353,-9.56048,-3.03417,-3.01316,-51.0547
2023-02-16 23:02:07:579,-0.61576,0.0258401,-9.50707,-3.2344,-2.99294,-51.1577
2023-02-16 23:02:07:590,-0.595948,0.0687109,-9.50011,-3.44779,-2.96141,-51.2589
2023-02-16 23:02:07:600,-0.563587,0.110622,-9.51526,-3.66774,-2.93074,-51.3618
2023-02-16 23:02:07:610,-0.531871,0.177964,-9.55302,-3.89004,-2.89596,-51.4706
2023-02-16 23:02:07:620,-0.482828,0.253684,-9.62291,-4.11732,-2.86119,-51.5777
2023-02-16 23:02:07:629,-0.456019,0.315418,-9.67658,-4.34231,-2.82747,-51.6852
2023-02-16 23:02:07:640,-0.450297,0.357469,-9.66119,-4.56569,-2.79715,-51.7928
2023-02-16 23:02:07:649,-0.446721,0.40664,-9.64719,-4.7871,-2.7725,-51.9018
2023-02-16 23:02:07:659,-0.447379,0.440522,-9.63089,-5.00965,-2.75253,-52.0125
2023-02-16 23:02:07:670,-0.465483,0.491167,-9.63265,-5.22978,-2.73639,-52.1248
2023-02-16 23:02:07:680,-0.478053,0.534392,-9.5993,-5.4559,-2.71905,-52.2455
2023-02-16 23:02:07:690,-0.508818,0.559094,-9.54384,-5.68078,-2.70277,-52.3712
2023-02-16 23:02:07:700,-0.501705,0.581255,-9.51903,-5.91197,-2.68573,-52.4985
2023-02-16 23:02:07:710,-0.489502,0.633262,-9.52259,-6.14685,-2.66775,-52.6279
2023-02-16 23:02:07:720,-0.525259,0.682006,-9.53106,-6.38943,-2.65496,-52.7609
2023-02-16 23:02:07:730,-0.537233,0.750386,-9.61357,-6.64046,-2.64222,-52.9022
2023-02-16 23:02:07:739,-0.536378,0.880917,-9.72664,-6.89093,-2.62958,-53.049
2023-02-16 23:02:07:749,-0.489899,0.964136,-9.81072,-7.1349,-2.61508,-53.2022
2023-02-16 23:02:07:759,-0.444204,1.0078,-9.83764,-7.36836,-2.60124,-53.3556
2023-02-16 23:02:07:769,-0.450597,1.00657,-9.80047,-7.58909,-2.59905,-53.5114
2023-02-16 23:02:07:779,-0.429336,0.988821,-9.69112,-7.80592,-2.60125,-53.6673
2023-02-16 23:02:07:790,-0.451823,0.958652,-9.56884,-8.02356,-2.6079,-53.8232
2023-02-16 23:02:07:800,-0.494095,0.957823,-9.47702,-8.24898,-2.61903,-53.9806
2023-02-16 23:02:07:810,-0.530043,1.01431,-9.40721,-8.4823,-2.63316,-54.1431
2023-02-16 23:02:07:820,-0.539638,1.10963,-9.41741,-8.72858,-2.64933,-54.3144
2023-02-16 23:02:07:830,-0.551664,1.20837,-9.50308,-8.98291,-2.66637,-54.4947
2023-02-16 23:02:07:840,-0.54796,1.30515,-9.56341,-9.24381,-2.68295,-54.6765
2023-02-16 23:02:07:850,-0.535477,1.36164,-9.58939,-9.49911,-2.69943,-54.8592
2023-02-16 23:02:07:859,-0.497605,1.38586,-9.56977,-9.74855,-2.71047,-55.0435
2023-02-16 23:02:07:869,-0.486751,1.39356,-9.47636,-9.99731,-2.72319,-55.2232
2023-02-16 23:02:07:879,-0.480068,1.38189,-9.41923,-10.2485,-2.73407,-55.4015
2023-02-16 23:02:07:890,-0.504059,1.37544,-9.34047,-10.5007,-2.74838,-55.5795
2023-02-16 23:02:07:900,-0.507309,1.41722,-9.27645,-10.7638,-2.76243,-55.7607
2023-02-16 23:02:07:910,-0.496907,1.50681,-9.2624,-11.0376,-2.77633,-55.9401
2023-02-16 23:02:07:920,-0.492282,1.61575,-9.28451,-11.3165,-2.78766,-56.1214
2023-02-16 23:02:07:929,-0.502964,1.68787,-9.32006,-11.5982,-2.79876,-56.3039
2023-02-16 23:02:07:940,-0.511751,1.76947,-9.33077,-11.884,-2.81182,-56.4897
2023-02-16 23:02:07:950,-0.50241,1.82152,-9.32869,-12.1708,-2.82052,-56.6746
2023-02-16 23:02:07:960,-0.481632,1.86014,-9.29136,-12.4607,-2.82682,-56.858
2023-02-16 23:02:07:970,-0.468184,1.91406,-9.25468,-12.7509,-2.83395,-57.0428
2023-02-16 23:02:07:980,-0.459932,1.97099,-9.2441,-13.0461,-2.84425,-57.2237
2023-02-16 23:02:07:990,-0.45074,2.02845,-9.25788,-13.3508,-2.8592,-57.402
2023-02-16 23:02:07:999,-0.440413,2.09491,-9.2287,-13.66,-2.87743,-57.5787
2023-02-16 23:02:08:10,-0.430268,2.16455,-9.19085,-13.97,-2.89804,-57.7524
2023-02-16 23:02:08:20,-0.438022,2.25471,-9.16258,-14.2891,-2.92224,-57.9262
2023-02-16 23:02:08:29,-0.472452,2.33575,-9.1528,-14.6166,-2.95365,-58.1017
2023-02-16 23:02:08:39,-0.494933,2.46283,-9.15954,-14.9505,-2.9862,-58.2755
2023-02-16 23:02:08:50,-0.513704,2.60435,-9.19674,-15.2836,-3.02538,-58.4538
2023-02-16 23:02:08:60,-0.545771,2.72124,-9.24812,-15.6169,-3.06563,-58.6314
2023-02-16 23:02:08:70,-0.571853,2.825,-9.27328,-15.947,-3.10528,-58.8116
2023-02-16 23:02:08:80,-0.58996,2.89317,-9.2387,-16.2723,-3.14773,-58.9954
2023-02-16 23:02:08:90,-0.575009,2.93467,-9.16059,-16.5961,-3.18618,-59.1792
2023-02-16 23:02:08:100,-0.568597,2.96187,-9.08555,-16.9122,-3.22275,-59.36
2023-02-16 23:02:08:110,-0.545865,2.98592,-9.03568,-17.236,-3.25952,-59.5365
2023-02-16 23:02:08:120,-0.525256,3.04404,-9.00607,-17.5606,-3.29874,-59.7097
2023-02-16 23:02:08:130,-0.508535,3.13673,-9.02612,-17.8873,-3.33621,-59.8789
2023-02-16 23:02:08:140,-0.534786,3.26122,-9.07857,-18.2161,-3.38128,-60.0493
2023-02-16 23:02:08:150,-0.569594,3.35454,-9.12794,-18.5411,-3.42301,-60.2198
2023-02-16 23:02:08:159,-0.581196,3.45825,-9.13093,-18.8662,-3.45974,-60.3863
2023-02-16 23:02:08:170,-0.605088,3.53883,-9.11761,-19.1831,-3.49739,-60.557
2023-02-16 23:02:08:180,-0.634559,3.62778,-9.08026,-19.4959,-3.53219,-60.7254
2023-02-16 23:02:08:190,-0.634946,3.71445,-9.05935,-19.8085,-3.562,-60.8996
2023-02-16 23:02:08:200,-0.630653,3.81678,-9.03337,-20.1139,-3.59325,-61.0761
2023-02-16 23:02:08:209,-0.614239,3.88506,-8.99647,-20.4166,-3.62448,-61.2542
2023-02-16 23:02:08:220,-0.605658,3.94781,-8.97983,-20.713,-3.657,-61.4298
2023-02-16 23:02:08:230,-0.5946,4.01538,-8.96048,-21.007,-3.69121,-61.6068
2023-02-16 23:02:08:240,-0.598658,4.08845,-8.94668,-21.299,-3.72447,-61.7825
2023-02-16 23:02:08:249,-0.609935,4.18095,-8.94696,-21.5842,-3.75933,-61.9582
2023-02-16 23:02:08:259,-0.630605,4.24637,-8.93522,-21.8635,-3.80056,-62.1382
2023-02-16 23:02:08:270,-0.599631,4.31135,-8.91161,-22.131,-3.83704,-62.318
2023-02-16 23:02:08:280,-0.553007,4.35814,-8.90802,-22.3976,-3.86862,-62.4943
2023-02-16 23:02:08:290,-0.57102,4.40941,-8.8749,-22.6579,-3.90279,-62.6669
2023-02-16 23:02:08:300,-0.596539,4.49795,-8.8684,-22.9133,-3.93372,-62.8367
2023-02-16 23:02:08:310,-0.599344,4.60912,-8.90448,-23.1651,-3.96107,-63.0085
2023-02-16 23:02:08:319,-0.604801,4.66575,-8.91031,-23.4046,-3.99748,-63.1762
2023-02-16 23:02:08:330,-0.601846,4.72382,-8.89618,-23.6329,-4.03544,-63.3437
2023-02-16 23:02:08:340,-0.619225,4.78304,-8.83551,-23.8509,-4.06992,-63.5104
2023-02-16 23:02:08:350,-0.63411,4.80363,-8.77467,-24.0622,-4.09903,-63.6738
2023-02-16 23:02:08:360,-0.624663,4.80814,-8.71117,-24.2706,-4.1304,-63.8357
2023-02-16 23:02:08:369,-0.606952,4.81557,-8.66359,-24.4738,-4.16008,-63.9931
2023-02-16 23:02:08:380,-0.602346,4.85504,-8.65978,-24.6746,-4.18808,-64.144
2023-02-16 23:02:08:389,-0.601712,4.89899,-8.67867,-24.8726,-4.21249,-64.2935
2023-02-16 23:02:08:400,-0.600019,4.94281,-8.67395,-25.0619,-4.23472,-64.4357
2023-02-16 23:02:08:410,-0.595178,4.96365,-8.63231,-25.2423,-4.25706,-64.5709
2023-02-16 23:02:08:420,-0.622556,4.97227,-8.56309,-25.4201,-4.27635,-64.7031
2023-02-16 23:02:08:430,-0.675994,4.99514,-8.51623,-25.5972,-4.29415,-64.8293
2023-02-16 23:02:08:440,-0.735874,5.03912,-8.53838,-25.7634,-4.30947,-64.9551
2023-02-16 23:02:08:450,-0.754181,5.09283,-8.59852,-25.9245,-4.32156,-65.0851
2023-02-16 23:02:08:460,-0.724713,5.15183,-8.64279,-26.0797,-4.33006,-65.2121
2023-02-16 23:02:08:470,-0.702667,5.18349,-8.61444,-26.2302,-4.33675,-65.3358
2023-02-16 23:02:08:480,-0.721115,5.21114,-8.57332,-26.3779,-4.3389,-65.4605
2023-02-16 23:02:08:489,-0.713383,5.27644,-8.50581,-26.5211,-4.33846,-65.587
2023-02-16 23:02:08:500,-0.720491,5.32477,-8.43529,-26.6667,-4.33689,-65.7136
2023-02-16 23:02:08:510,-0.74376,5.36354,-8.40595,-26.8153,-4.33315,-65.8393
2023-02-16 23:02:08:520,-0.756243,5.40031,-8.39837,-26.9632,-4.32888,-65.9672
2023-02-16 23:02:08:529,-0.757789,5.42134,-8.41656,-27.1102,-4.32135,-66.0938
2023-02-16 23:02:08:540,-0.747549,5.44362,-8.44835,-27.2596,-4.30982,-66.2207
2023-02-16 23:02:08:550,-0.734791,5.48036,-8.49866,-27.4115,-4.29644,-66.3468
2023-02-16 23:02:08:560,-0.706256,5.49509,-8.56509,-27.5609,-4.28188,-66.4701
2023-02-16 23:02:08:570,-0.693022,5.51269,-8.6425,-27.7039,-4.26491,-66.5968
2023-02-16 23:02:08:580,-0.665106,5.56682,-8.69426,-27.838,-4.25019,-66.7131
2023-02-16 23:02:08:589,-0.649099,5.58367,-8.745,-27.9629,-4.23078,-66.8244
2023-02-16 23:02:08:600,-0.654907,5.57436,-8.75577,-28.0732,-4.21045,-66.9329
2023-02-16 23:02:08:610,-0.670007,5.54962,-8.74096,-28.1732,-4.19105,-67.0443
2023-02-16 23:02:08:620,-0.662853,5.51027,-8.69855,-28.2574,-4.17321,-67.1531
2023-02-16 23:02:08:629,-0.63578,5.453,-8.65294,-28.3307,-4.15506,-67.2589
2023-02-16 23:02:08:640,-0.632331,5.40234,-8.60873,-28.3934,-4.14215,-67.3627
2023-02-16 23:02:08:650,-0.628126,5.35325,-8.58207,-28.4483,-4.12936,-67.4627
2023-02-16 23:02:08:659,-0.634922,5.3112,-8.546,-28.4932,-4.12018,-67.5633
2023-02-16 23:02:08:670,-0.625858,5.26239,-8.49278,-28.5338,-4.11154,-67.6597
2023-02-16 23:02:08:679,-0.61987,5.21695,-8.45008,-28.5733,-4.10914,-67.7545
2023-02-16 23:02:08:689,-0.636629,5.16892,-8.42929,-28.6083,-4.1103,-67.852
2023-02-16 23:02:08:700,-0.655716,5.13922,-8.39178,-28.6438,-4.11618,-67.9464
2023-02-16 23:02:08:710,-0.676842,5.11062,-8.35636,-28.6793,-4.1248,-68.0387
2023-02-16 23:02:08:719,-0.678083,5.13768,-8.36119,-28.7174,-4.13488,-68.1372
2023-02-16 23:02:08:730,-0.664362,5.14143,-8.41604,-28.7575,-4.14768,-68.2316
2023-02-16 23:02:08:740,-0.672168,5.15165,-8.45262,-28.799,-4.16304,-68.32
2023-02-16 23:02:08:749,-0.70649,5.16721,-8.48001,-28.8369,-4.17978,-68.4081
2023-02-16 23:02:08:759,-0.699815,5.17091,-8.50988,-28.875,-4.19932,-68.4963
2023-02-16 23:02:08:770,-0.696868,5.19975,-8.53335,-28.9121,-4.22088,-68.5783
2023-02-16 23:02:08:780,-0.719756,5.24421,-8.54615,-28.9489,-4.23794,-68.6635
2023-02-16 23:02:08:790,-0.724749,5.24009,-8.56093,-28.9863,-4.25318,-68.7444
2023-02-16 23:02:08:800,-0.753111,5.22719,-8.57867,-29.0162,-4.27255,-68.8257
2023-02-16 23:02:08:809,-0.782236,5.2199,-8.6082,-29.0444,-4.28921,-68.9064
2023-02-16 23:02:08:820,-0.773142,5.2053,-8.59889,-29.0736,-4.30489,-68.9878
2023-02-16 23:02:08:830,-0.775597,5.16534,-8.58341,-29.0998,-4.31584,-69.0662
2023-02-16 23:02:08:839,-0.789009,5.14849,-8.57336,-29.1248,-4.32654,-69.1453
2023-02-16 23:02:08:849,-0.790455,5.14946,-8.59356,-29.148,-4.3417,-69.2236
2023-02-16 23:02:08:860,-0.783826,5.16109,-8.63466,-29.1637,-4.35457,-69.3024
2023-02-16 23:02:08:870,-0.791167,5.16049,-8.64919,-29.1804,-4.36544,-69.3813
2023-02-16 23:02:08:880,-0.793721,5.14002,-8.65239,-29.1875,-4.37501,-69.4554
2023-02-16 23:02:08:889,-0.819442,5.12012,-8.60122,-29.188,-4.38493,-69.5364
2023-02-16 23:02:08:899,-0.834396,5.10343,-8.58159,-29.1907,-4.39361,-69.615
2023-02-16 23:02:08:909,-0.827775,5.08169,-8.56336,-29.1912,-4.40224,-69.6927
2023-02-16 23:02:08:920,-0.825259,5.04235,-8.561,-29.1913,-4.40987,-69.7718
2023-02-16 23:02:08:930,-0.820642,5.02583,-8.57128,-29.1854,-4.41487,-69.8536
2023-02-16 23:02:08:940,-0.809604,5.01104,-8.5477,-29.1794,-4.42267,-69.9323
2023-02-16 23:02:08:950,-0.80531,4.95704,-8.47979,-29.1702,-4.42977,-70.0148
2023-02-16 23:02:08:960,-0.782642,4.89211,-8.44886,-29.1594,-4.43559,-70.0997
2023-02-16 23:02:08:970,-0.771183,4.85998,-8.43786,-29.1508,-4.44136,-70.1816
2023-02-16 23:02:08:979,-0.767489,4.84546,-8.41819,-29.1413,-4.44763,-70.2632
2023-02-16 23:02:08:990,-0.754277,4.83589,-8.40213,-29.1398,-4.45753,-70.3431
2023-02-16 23:02:09:0,-0.717306,4.82901,-8.43283,-29.1412,-4.46294,-70.4237
2023-02-16 23:02:09:10,-0.724312,4.83149,-8.46458,-29.1404,-4.46813,-70.502
2023-02-16 23:02:09:20,-0.716202,4.83034,-8.47911,-29.1427,-4.47217,-70.5776
2023-02-16 23:02:09:30,-0.693826,4.81488,-8.46774,-29.1427,-4.47707,-70.6495
2023-02-16 23:02:09:40,-0.708218,4.79125,-8.45448,-29.143,-4.48099,-70.7193
2023-02-16 23:02:09:50,-0.72841,4.78508,-8.46398,-29.1411,-4.49077,-70.786
2023-02-16 23:02:09:60,-0.748328,4.7725,-8.47142,-29.1363,-4.49662,-70.8539
2023-02-16 23:02:09:70,-0.755514,4.74504,-8.47608,-29.1351,-4.50444,-70.9213
2023-02-16 23:02:09:79,-0.742807,4.72382,-8.49501,-29.1309,-4.51089,-70.991
2023-02-16 23:02:09:90,-0.703637,4.73438,-8.54019,-29.1311,-4.51563,-71.0569
2023-02-16 23:02:09:100,-0.64257,4.75517,-8.5518,-29.1299,-4.51911,-71.112
2023-02-16 23:02:09:109,-0.651999,4.71346,-8.48106,-29.1359,-4.52286,-71.1624
2023-02-16 23:02:09:120,-0.707284,4.75134,-8.45234,-29.1474,-4.52932,-71.2123
2023-02-16 23:02:09:130,-0.694624,4.74915,-8.39485,-29.1596,-4.53283,-71.2633
2023-02-16 23:02:09:140,-0.722,4.71661,-8.37183,-29.1778,-4.53418,-71.3144
2023-02-16 23:02:09:150,-0.775046,4.76556,-8.42428,-29.2061,-4.53469,-71.3654
2023-02-16 23:02:09:160,-0.76321,4.77418,-8.4815,-29.238,-4.53448,-71.417
2023-02-16 23:02:09:169,-0.757239,4.79839,-8.51293,-29.2666,-4.53288,-71.4647
2023-02-16 23:02:09:179,-0.773983,4.82353,-8.53722,-29.2973,-4.53084,-71.5093
2023-02-16 23:02:09:190,-0.773135,4.82672,-8.52817,-29.3259,-4.5286,-71.558
2023-02-16 23:02:09:200,-0.783563,4.84966,-8.49498,-29.3556,-4.52912,-71.6068
2023-02-16 23:02:09:210,-0.797853,4.86446,-8.47883,-29.3887,-4.53366,-71.658
2023-02-16 23:02:09:219,-0.813125,4.89035,-8.50997,-29.4202,-4.53388,-71.71
2023-02-16 23:02:09:230,-0.822882,4.92619,-8.54917,-29.4511,-4.53287,-71.7631
2023-02-16 23:02:09:240,-0.846299,4.94529,-8.55672,-29.476,-4.53159,-71.8218
2023-02-16 23:02:09:250,-0.848262,4.94284,-8.5515,-29.4979,-4.5291,-71.8805
2023-02-16 23:02:09:259,-0.843636,4.92271,-8.54179,-29.5181,-4.5259,-71.9429
2023-02-16 23:02:09:270,-0.866582,4.8989,-8.52041,-29.5369,-4.51979,-72.0086
2023-02-16 23:02:09:280,-0.864026,4.86765,-8.54925,-29.5517,-4.51254,-72.0762
2023-02-16 23:02:09:289,-0.830512,4.85108,-8.59951,-29.5628,-4.50527,-72.149
2023-02-16 23:02:09:300,-0.797415,4.82386,-8.59631,-29.5729,-4.50578,-72.2185
2023-02-16 23:02:09:310,-0.786575,4.76801,-8.5356,-29.5809,-4.50835,-72.2863
2023-02-16 23:02:09:320,-0.788724,4.74337,-8.48852,-29.5907,-4.51564,-72.3564
2023-02-16 23:02:09:329,-0.791428,4.75173,-8.45428,-29.6104,-4.52199,-72.4297
2023-02-16 23:02:09:340,-0.820662,4.74836,-8.46313,-29.6303,-4.53061,-72.5022
2023-02-16 23:02:09:350,-0.84785,4.78229,-8.51097,-29.6502,-4.54249,-72.5824
2023-02-16 23:02:09:360,-0.846276,4.82814,-8.54271,-29.666,-4.55837,-72.6611
2023-02-16 23:02:09:370,-0.832172,4.83205,-8.53623,-29.6819,-4.57026,-72.7424
2023-02-16 23:02:09:380,-0.818387,4.79,-8.4903,-29.6911,-4.5778,-72.8265
2023-02-16 23:02:09:389,-0.821993,4.74502,-8.38656,-29.7004,-4.58254,-72.9124
2023-02-16 23:02:09:399,-0.821158,4.73001,-8.27532,-29.7154,-4.58466,-73.0008
2023-02-16 23:02:09:410,-0.788286,4.73923,-8.21516,-29.7358,-4.58321,-73.089
2023-02-16 23:02:09:420,-0.706873,4.74117,-8.15564,-29.7672,-4.57871,-73.1746
2023-02-16 23:02:09:430,-0.642596,4.66736,-8.06326,-29.8074,-4.57124,-73.2539
2023-02-16 23:02:09:440,-0.68546,4.87858,-8.34354,-29.8683,-4.55783,-73.3329
2023-02-16 23:02:09:450,-0.617621,5.06956,-8.6467,-29.9205,-4.54583,-73.4047
2023-02-16 23:02:09:459,-0.501364,5.04571,-8.5849,-29.9609,-4.52808,-73.4647
2023-02-16 23:02:09:470,-0.528446,4.99915,-8.4361,-29.9971,-4.51092,-73.513
2023-02-16 23:02:09:480,-0.597107,4.96562,-8.35147,-30.0319,-4.49313,-73.5585
2023-02-16 23:02:09:490,-0.614894,4.96364,-8.40987,-30.0672,-4.47601,-73.6011
2023-02-16 23:02:09:500,-0.635384,5.00022,-8.54083,-30.1023,-4.46243,-73.6402
2023-02-16 23:02:09:510,-0.665312,4.99839,-8.60835,-30.1271,-4.45116,-73.6763
2023-02-16 23:02:09:519,-0.69282,4.9687,-8.5791,-30.14,-4.4423,-73.7129
2023-02-16 23:02:09:530,-0.702335,4.92521,-8.55379,-30.1482,-4.43594,-73.7478
2023-02-16 23:02:09:539,-0.677698,4.91277,-8.49507,-30.1553,-4.4326,-73.7768
2023-02-16 23:02:09:549,-0.666243,4.86009,-8.39283,-30.1608,-4.43078,-73.8038
2023-02-16 23:02:09:560,-0.691606,4.85199,-8.38165,-30.1748,-4.43211,-73.8322
2023-02-16 23:02:09:570,-0.70302,4.86715,-8.401,-30.191,-4.43199,-73.8578
2023-02-16 23:02:09:580,-0.722514,4.85387,-8.39473,-30.2126,-4.43244,-73.8789
2023-02-16 23:02:09:590,-0.745508,4.91132,-8.3878,-30.2352,-4.43646,-73.902
2023-02-16 23:02:09:600,-0.755811,4.95229,-8.38781,-30.2575,-4.43613,-73.9199
2023-02-16 23:02:09:610,-0.767193,4.99468,-8.38985,-30.2837,-4.4341,-73.9392
2023-02-16 23:02:09:620,-0.795139,5.04114,-8.45456,-30.308,-4.43527,-73.9593
2023-02-16 23:02:09:630,-0.792981,5.0921,-8.4679,-30.3312,-4.43294,-73.9804
2023-02-16 23:02:09:640,-0.796651,5.12772,-8.45473,-30.3575,-4.42818,-74.0029
2023-02-16 23:02:09:650,-0.817487,5.1467,-8.48326,-30.3828,-4.42052,-74.0286
2023-02-16 23:02:09:660,-0.820575,5.14779,-8.47669,-30.4022,-4.40836,-74.0536
2023-02-16 23:02:09:670,-0.820673,5.15801,-8.48128,-30.4195,-4.39577,-74.0788
2023-02-16 23:02:09:679,-0.841238,5.17237,-8.49859,-30.4329,-4.38401,-74.1035
2023-02-16 23:02:09:690,-0.856871,5.15903,-8.50308,-30.4424,-4.37232,-74.1291
2023-02-16 23:02:09:700,-0.872414,5.15289,-8.47764,-30.4526,-4.36134,-74.1608
2023-02-16 23:02:09:710,-0.873897,5.17728,-8.49463,-30.4614,-4.35218,-74.1962
2023-02-16 23:02:09:720,-0.863549,5.1729,-8.53439,-30.4594,-4.34461,-74.2338
2023-02-16 23:02:09:730,-0.860079,5.16236,-8.5175,-30.4534,-4.34026,-74.2734
2023-02-16 23:02:09:740,-0.859531,5.14898,-8.47588,-30.4398,-4.33545,-74.3206
2023-02-16 23:02:09:750,-0.856528,5.13417,-8.45174,-30.4252,-4.33439,-74.3706
2023-02-16 23:02:09:760,-0.863564,5.09887,-8.45409,-30.403,-4.33376,-74.4193
2023-02-16 23:02:09:770,-0.860599,5.05949,-8.45732,-30.3764,-4.33307,-74.4737
2023-02-16 23:02:09:780,-0.834089,5.0126,-8.45648,-30.3463,-4.33385,-74.5285
2023-02-16 23:02:09:790,-0.786629,4.96247,-8.44317,-30.3163,-4.33597,-74.5833
2023-02-16 23:02:09:800,-0.745567,4.92689,-8.40186,-30.2833,-4.34213,-74.6407
2023-02-16 23:02:09:810,-0.745741,4.92937,-8.39132,-30.249,-4.3506,-74.697
2023-02-16 23:02:09:820,-0.779372,4.94595,-8.42254,-30.2164,-4.35983,-74.7517
2023-02-16 23:02:09:829,-0.787208,4.97067,-8.44953,-30.1847,-4.36729,-74.8071
2023-02-16 23:02:09:839,-0.774646,4.99328,-8.46146,-30.1534,-4.3728,-74.8621
2023-02-16 23:02:09:850,-0.780099,5.01869,-8.48166,-30.1235,-4.37558,-74.9182
2023-02-16 23:02:09:860,-0.783032,5.03373,-8.49607,-30.0913,-4.38175,-74.971
2023-02-16 23:02:09:870,-0.775058,5.05616,-8.52962,-30.0571,-4.38765,-75.0261
2023-02-16 23:02:09:880,-0.764901,5.079,-8.56207,-30.0234,-4.38889,-75.0784
2023-02-16 23:02:09:890,-0.733831,5.07494,-8.55076,-29.9825,-4.39074,-75.1269
2023-02-16 23:02:09:900,-0.723642,5.03572,-8.52227,-29.9395,-4.38911,-75.1745
2023-02-16 23:02:09:909,-0.734773,5.01819,-8.47547,-29.8969,-4.38563,-75.2175
2023-02-16 23:02:09:919,-0.737704,4.98316,-8.45514,-29.8503,-4.38452,-75.2612
2023-02-16 23:02:09:929,-0.72493,4.95799,-8.43502,-29.8072,-4.37893,-75.3018
2023-02-16 23:02:09:939,-0.737754,4.92085,-8.40573,-29.7659,-4.3735,-75.3411
2023-02-16 23:02:09:950,-0.763535,4.90788,-8.41213,-29.726,-4.37006,-75.3796
2023-02-16 23:02:09:960,-0.749867,4.90909,-8.42234,-29.6921,-4.3611,-75.4153
2023-02-16 23:02:09:969,-0.718004,4.91547,-8.44819,-29.6637,-4.35259,-75.4527
2023-02-16 23:02:09:980,-0.723594,4.91728,-8.46356,-29.6351,-4.34196,-75.4863
2023-02-16 23:02:09:990,-0.721261,4.94033,-8.44325,-29.6114,-4.32908,-75.5194
2023-02-16 23:02:10:0,-0.728427,4.95507,-8.45431,-29.5917,-4.31933,-75.5473
2023-02-16 23:02:10:10,-0.734168,4.96302,-8.47336,-29.5763,-4.31101,-75.5728
2023-02-16 23:02:10:20,-0.764455,4.98933,-8.49005,-29.5632,-4.29821,-75.5975
2023-02-16 23:02:10:30,-0.748174,5.02808,-8.51835,-29.559,-4.28852,-75.6279
2023-02-16 23:02:10:40,-0.697383,5.08058,-8.53415,-29.5549,-4.27718,-75.6513
2023-02-16 23:02:10:49,-0.660032,5.12216,-8.54903,-29.5527,-4.26453,-75.6673
2023-02-16 23:02:10:60,-0.654021,5.19529,-8.59889,-29.5517,-4.25457,-75.6785
2023-02-16 23:02:10:69,-0.673364,5.26922,-8.6174,-29.5503,-4.24399,-75.6827
2023-02-16 23:02:10:79,-0.695931,5.32684,-8.62922,-29.545,-4.22957,-75.6853
2023-02-16 23:02:10:90,-0.720915,5.38872,-8.65978,-29.5356,-4.21573,-75.6818
2023-02-16 23:02:10:100,-0.756903,5.45053,-8.68991,-29.5248,-4.19913,-75.6764
2023-02-16 23:02:10:110,-0.763036,5.47794,-8.69072,-29.5017,-4.17522,-75.6708
2023-02-16 23:02:10:120,-0.777808,5.47401,-8.66871,-29.4684,-4.14829,-75.6629
2023-02-16 23:02:10:130,-0.774563,5.46994,-8.64608,-29.4278,-4.11718,-75.6509
2023-02-16 23:02:10:140,-0.761092,5.42635,-8.62376,-29.3786,-4.08028,-75.6421
2023-02-16 23:02:10:150,-0.745621,5.37107,-8.57885,-29.3188,-4.03989,-75.6287
2023-02-16 23:02:10:160,-0.734333,5.32295,-8.56104,-29.2569,-3.99938,-75.6186
2023-02-16 23:02:10:170,-0.715259,5.28288,-8.54926,-29.1899,-3.9566,-75.6016
2023-02-16 23:02:10:179,-0.702992,5.23759,-8.52798,-29.1189,-3.91456,-75.5884
2023-02-16 23:02:10:189,-0.713041,5.2093,-8.49568,-29.0453,-3.87211,-75.5748
2023-02-16 23:02:10:199,-0.719901,5.21331,-8.50618,-28.9681,-3.83038,-75.5632
2023-02-16 23:02:10:210,-0.714539,5.19174,-8.50669,-28.8846,-3.78863,-75.557
2023-02-16 23:02:10:220,-0.691319,5.15211,-8.51128,-28.7953,-3.74888,-75.5526
2023-02-16 23:02:10:230,-0.674342,5.07905,-8.49478,-28.7013,-3.71168,-75.5517
2023-02-16 23:02:10:239,-0.646023,5.01637,-8.51513,-28.6078,-3.68178,-75.5544
2023-02-16 23:02:10:250,-0.59134,4.96347,-8.51649,-28.5127,-3.65696,-75.5598
2023-02-16 23:02:10:260,-0.554876,4.90215,-8.4763,-28.4164,-3.63544,-75.5595
2023-02-16 23:02:10:270,-0.562468,4.84145,-8.45669,-28.3211,-3.62106,-75.561
2023-02-16 23:02:10:280,-0.576839,4.81219,-8.4555,-28.231,-3.60896,-75.565
2023-02-16 23:02:10:290,-0.581406,4.81864,-8.49193,-28.1451,-3.60087,-75.572
2023-02-16 23:02:10:300,-0.582322,4.83867,-8.53429,-28.0608,-3.59782,-75.5811
2023-02-16 23:02:10:310,-0.568857,4.84022,-8.59377,-27.9741,-3.60152,-75.5907
2023-02-16 23:02:10:320,-0.547736,4.83905,-8.64251,-27.8854,-3.60671,-75.6031
2023-02-16 23:02:10:330,-0.533325,4.81466,-8.67217,-27.7952,-3.61628,-75.614
2023-02-16 23:02:10:340,-0.508767,4.78517,-8.66057,-27.7042,-3.63223,-75.6182
2023-02-16 23:02:10:350,-0.486143,4.76198,-8.64495,-27.6128,-3.64653,-75.6178
2023-02-16 23:02:10:360,-0.477792,4.74124,-8.64209,-27.5241,-3.66181,-75.6099
2023-02-16 23:02:10:370,-0.499331,4.71947,-8.62494,-27.4327,-3.67216,-75.5973
2023-02-16 23:02:10:380,-0.544647,4.71045,-8.62752,-27.3447,-3.68178,-75.5817
2023-02-16 23:02:10:390,-0.564829,4.71457,-8.63333,-27.2558,-3.68476,-75.5648
2023-02-16 23:02:10:400,-0.582895,4.71352,-8.6854,-27.1662,-3.68586,-75.5409
2023-02-16 23:02:10:410,-0.587448,4.7237,-8.73596,-27.0714,-3.68069,-75.5154
2023-02-16 23:02:10:419,-0.570974,4.70875,-8.78354,-26.9687,-3.66819,-75.4898
2023-02-16 23:02:10:429,-0.544959,4.67991,-8.80266,-26.8613,-3.64729,-75.4556
2023-02-16 23:02:10:439,-0.536401,4.63858,-8.77868,-26.7442,-3.62488,-75.4201
2023-02-16 23:02:10:450,-0.529004,4.59002,-8.75473,-26.6265,-3.6,-75.3813
2023-02-16 23:02:10:459,-0.54088,4.52374,-8.75192,-26.5058,-3.57459,-75.3373
2023-02-16 23:02:10:470,-0.563833,4.46134,-8.75405,-26.3798,-3.54632,-75.2887
2023-02-16 23:02:10:479,-0.608791,4.38042,-8.72403,-26.2479,-3.52185,-75.2431
2023-02-16 23:02:10:490,-0.600563,4.3059,-8.7192,-26.1191,-3.49628,-75.1957
2023-02-16 23:02:10:500,-0.570599,4.26385,-8.73683,-25.9906,-3.47199,-75.1509
2023-02-16 23:02:10:510,-0.550361,4.23001,-8.74855,-25.8643,-3.44522,-75.1011
2023-02-16 23:02:10:520,-0.570056,4.22485,-8.76277,-25.7367,-3.41821,-75.0486
2023-02-16 23:02:10:530,-0.576187,4.22619,-8.77505,-25.6088,-3.39111,-74.9983
2023-02-16 23:02:10:540,-0.591251,4.21422,-8.76639,-25.4773,-3.36066,-74.9461
2023-02-16 23:02:10:550,-0.638398,4.18225,-8.76315,-25.3449,-3.33686,-74.8977
2023-02-16 23:02:10:560,-0.676899,4.13747,-8.76512,-25.2104,-3.31024,-74.8582
2023-02-16 23:02:10:570,-0.669168,4.07418,-8.74021,-25.072,-3.28378,-74.8245
2023-02-16 23:02:10:580,-0.664786,3.99073,-8.69698,-24.9381,-3.26135,-74.7901
2023-02-16 23:02:10:590,-0.637546,3.94153,-8.66537,-24.8085,-3.24292,-74.7643
2023-02-16 23:02:10:600,-0.588033,3.90215,-8.68038,-24.6868,-3.22932,-74.7448
2023-02-16 23:02:10:610,-0.529895,3.90907,-8.75227,-24.5693,-3.21964,-74.7256
2023-02-16 23:02:10:620,-0.503567,3.92295,-8.81462,-24.452,-3.21741,-74.7049
2023-02-16 23:02:10:630,-0.516906,3.93433,-8.83605,-24.3359,-3.22322,-74.6871
2023-02-16 23:02:10:640,-0.563037,3.93168,-8.84415,-24.221,-3.23698,-74.6694
2023-02-16 23:02:10:650,-0.598695,3.92116,-8.82392,-24.1049,-3.24703,-74.6548
2023-02-16 23:02:10:660,-0.604208,3.87819,-8.81156,-23.9879,-3.25803,-74.652
2023-02-16 23:02:10:670,-0.589179,3.81281,-8.81366,-23.8698,-3.26993,-74.6545
2023-02-16 23:02:10:679,-0.552094,3.75797,-8.80539,-23.7553,-3.28286,-74.6623
2023-02-16 23:02:10:690,-0.48808,3.70232,-8.83109,-23.6415,-3.29274,-74.6698
2023-02-16 23:02:10:700,-0.412009,3.66949,-8.86142,-23.5332,-3.30819,-74.6711
2023-02-16 23:02:10:710,-0.381243,3.66002,-8.8961,-23.4258,-3.32927,-74.6679
2023-02-16 23:02:10:720,-0.384706,3.65613,-8.92178,-23.3222,-3.3561,-74.6566
2023-02-16 23:02:10:730,-0.395001,3.65031,-8.92716,-23.2245,-3.3837,-74.6419
2023-02-16 23:02:10:740,-0.427398,3.64256,-8.9534,-23.1316,-3.41641,-74.6242
2023-02-16 23:02:10:749,-0.469263,3.6377,-8.97802,-23.0366,-3.45587,-74.6111
2023-02-16 23:02:10:760,-0.503846,3.61541,-8.98573,-22.945,-3.49951,-74.5961
2023-02-16 23:02:10:769,-0.526166,3.55244,-8.98941,-22.8512,-3.5457,-74.5802
2023-02-16 23:02:10:780,-0.513043,3.50035,-8.98831,-22.7577,-3.59124,-74.5652
2023-02-16 23:02:10:790,-0.496266,3.46965,-9.0195,-22.6602,-3.63487,-74.547
2023-02-16 23:02:10:800,-0.51209,3.43257,-9.0034,-22.5659,-3.68555,-74.5257
2023-02-16 23:02:10:810,-0.522402,3.42344,-8.95991,-22.4774,-3.73571,-74.5011
2023-02-16 23:02:10:820,-0.539605,3.45849,-8.8841,-22.397,-3.78222,-74.472
2023-02-16 23:02:10:830,-0.608959,3.4883,-8.83995,-22.3233,-3.82337,-74.4434
2023-02-16 23:02:10:840,-0.676279,3.50343,-8.83957,-22.2544,-3.86311,-74.4241
2023-02-16 23:02:10:850,-0.657928,3.49794,-8.90718,-22.1889,-3.89884,-74.4084
2023-02-16 23:02:10:860,-0.614417,3.46091,-8.96108,-22.1272,-3.93417,-74.3908
2023-02-16 23:02:10:870,-0.591887,3.41751,-9.00777,-22.0703,-3.96593,-74.3716
2023-02-16 23:02:10:880,-0.58341,3.36541,-9.05807,-22.0093,-3.99885,-74.3503
2023-02-16 23:02:10:889,-0.575553,3.34221,-9.1142,-21.9526,-4.03352,-74.3195
2023-02-16 23:02:10:900,-0.574233,3.3587,-9.12834,-21.896,-4.07029,-74.2844
2023-02-16 23:02:10:910,-0.622481,3.44568,-9.05319,-21.8382,-4.10217,-74.245
2023-02-16 23:02:10:920,-0.724505,3.50634,-8.86514,-21.7823,-4.12785,-74.2071
2023-02-16 23:02:10:930,-0.822819,3.52579,-8.84229,-21.7328,-4.14565,-74.1787
2023-02-16 23:02:10:939,-0.835349,3.56743,-9.04517,-21.6848,-4.15726,-74.1582
2023-02-16 23:02:10:950,-0.783506,3.5464,-9.14462,-21.6257,-4.16849,-74.1364
2023-02-16 23:02:10:960,-0.769232,3.45657,-9.14984,-21.5562,-4.18037,-74.1132
2023-02-16 23:02:10:970,-0.776217,3.35903,-9.19813,-21.4822,-4.19019,-74.0931
2023-02-16 23:02:10:980,-0.767129,3.26423,-9.21301,-21.3997,-4.20379,-74.0707
2023-02-16 23:02:10:990,-0.790239,3.16539,-9.16974,-21.3131,-4.22062,-74.0498
2023-02-16 23:02:11:0,-0.855438,3.10879,-9.10435,-21.2244,-4.23606,-74.034
2023-02-16 23:02:11:10,-0.926374,3.12088,-8.97357,-21.1406,-4.25035,-74.028
2023-02-16 23:02:11:20,-0.982724,3.14154,-8.76544,-21.0609,-4.25068,-74.036
2023-02-16 23:02:11:29,-1.00447,3.1638,-8.69504,-20.992,-4.24248,-74.065
2023-02-16 23:02:11:40,-0.93854,3.22532,-8.77785,-20.9353,-4.22272,-74.1075
2023-02-16 23:02:11:50,-0.758222,3.2559,-8.96038,-20.8882,-4.20052,-74.1582
2023-02-16 23:02:11:60,-0.618355,3.26315,-9.12913,-20.8449,-4.18199,-74.2106
2023-02-16 23:02:11:70,-0.560924,3.22733,-9.21298,-20.7941,-4.16847,-74.2527
2023-02-16 23:02:11:80,-0.504401,3.17399,-9.28277,-20.7456,-4.16182,-74.2907
2023-02-16 23:02:11:90,-0.490062,3.13493,-9.33604,-20.6955,-4.16963,-74.3255
2023-02-16 23:02:11:100,-0.513541,3.10693,-9.35879,-20.6447,-4.18948,-74.354
2023-02-16 23:02:11:110,-0.564048,3.08112,-9.30335,-20.5907,-4.2205,-74.3772
2023-02-16 23:02:11:120,-0.616265,3.06563,-9.18822,-20.5351,-4.25264,-74.4041
2023-02-16 23:02:11:130,-0.682157,3.05546,-9.10073,-20.4841,-4.28781,-74.4317
2023-02-16 23:02:11:140,-0.718456,3.05759,-9.10312,-20.4313,-4.32092,-74.4642
2023-02-16 23:02:11:150,-0.718849,3.04774,-9.14331,-20.3833,-4.35169,-74.4993
2023-02-16 23:02:11:160,-0.722134,2.99985,-9.12689,-20.338,-4.38447,-74.5382
2023-02-16 23:02:11:170,-0.73986,2.93421,-9.14382,-20.2935,-4.42292,-74.5802
2023-02-16 23:02:11:180,-0.712651,2.88847,-9.21237,-20.2507,-4.4605,-74.6223
2023-02-16 23:02:11:189,-0.667675,2.83784,-9.23117,-20.2042,-4.50337,-74.6618
2023-02-16 23:02:11:200,-0.684029,2.80941,-9.2363,-20.1626,-4.54757,-74.6976
2023-02-16 23:02:11:210,-0.742253,2.79036,-9.20824,-20.1259,-4.60122,-74.733
2023-02-16 23:02:11:220,-0.774438,2.80301,-9.17795,-20.0944,-4.66129,-74.7694
2023-02-16 23:02:11:230,-0.819713,2.80727,-9.18423,-20.0675,-4.72447,-74.8039
2023-02-16 23:02:11:240,-0.881038,2.82334,-9.18668,-20.0447,-4.78732,-74.8456
2023-02-16 23:02:11:250,-0.932176,2.85067,-9.18368,-20.0282,-4.85086,-74.891
2023-02-16 23:02:11:260,-0.944641,2.85206,-9.16002,-20.0118,-4.91106,-74.943
2023-02-16 23:02:11:270,-0.943814,2.87377,-9.16127,-19.999,-4.96742,-74.9989
2023-02-16 23:02:11:280,-0.923178,2.86123,-9.19819,-19.9851,-5.01849,-75.0568
2023-02-16 23:02:11:290,-0.905609,2.85577,-9.23105,-19.9705,-5.06609,-75.1179
2023-02-16 23:02:11:299,-0.848877,2.84832,-9.25506,-19.9515,-5.10887,-75.1779
2023-02-16 23:02:11:309,-0.786586,2.81087,-9.27005,-19.9309,-5.15258,-75.2338
2023-02-16 23:02:11:319,-0.722736,2.79266,-9.25415,-19.9153,-5.19773,-75.2842
2023-02-16 23:02:11:330,-0.697131,2.80586,-9.22786,-19.9065,-5.24856,-75.3198
2023-02-16 23:02:11:340,-0.714532,2.82302,-9.20585,-19.9015,-5.29928,-75.3507
2023-02-16 23:02:11:349,-0.758615,2.84539,-9.1987,-19.907,-5.35611,-75.3717
2023-02-16 23:02:11:359,-0.804682,2.89056,-9.20235,-19.9197,-5.41741,-75.3881
2023-02-16 23:02:11:369,-0.84093,2.9422,-9.20962,-19.9385,-5.47446,-75.4001
2023-02-16 23:02:11:380,-0.871648,2.97703,-9.21248,-19.9551,-5.52732,-75.4058
2023-02-16 23:02:11:390,-0.873986,3.00259,-9.22419,-19.9748,-5.581,-75.4064
2023-02-16 23:02:11:400,-0.890465,3.02834,-9.21189,-19.9955,-5.63303,-75.3945
2023-02-16 23:02:11:410,-0.955353,3.01946,-9.17392,-20.0167,-5.68328,-75.3782
2023-02-16 23:02:11:420,-1.02429,3.03323,-9.15225,-20.0398,-5.72522,-75.3615
2023-02-16 23:02:11:430,-1.063,3.05069,-9.12012,-20.0644,-5.76557,-75.3439
2023-02-16 23:02:11:440,-1.08813,3.05233,-9.11403,-20.0943,-5.80183,-75.3239
2023-02-16 23:02:11:449,-1.11387,3.06864,-9.07829,-20.1253,-5.83924,-75.3069
2023-02-16 23:02:11:459,-1.12835,3.08719,-9.06233,-20.1587,-5.8772,-75.2828
2023-02-16 23:02:11:470,-1.16954,3.09999,-9.04281,-20.1919,-5.91032,-75.2633
2023-02-16 23:02:11:480,-1.22616,3.10304,-9.02885,-20.2279,-5.9429,-75.247
2023-02-16 23:02:11:490,-1.28896,3.12215,-9.0321,-20.2696,-5.96595,-75.2371
2023-02-16 23:02:11:499,-1.31134,3.14526,-9.04951,-20.3103,-5.98969,-75.2355
2023-02-16 23:02:11:510,-1.28904,3.17739,-9.05202,-20.3523,-6.01194,-75.2436
2023-02-16 23:02:11:520,-1.24717,3.21819,-9.06475,-20.3934,-6.02963,-75.2549
2023-02-16 23:02:11:530,-1.20686,3.26218,-9.08098,-20.4349,-6.04764,-75.2704
2023-02-16 23:02:11:540,-1.19084,3.28866,-9.08939,-20.4799,-6.06478,-75.2864
2023-02-16 23:02:11:550,-1.18964,3.30317,-9.09995,-20.5228,-6.07846,-75.3064
2023-02-16 23:02:11:560,-1.18384,3.3069,-9.08411,-20.5626,-6.09181,-75.3335
2023-02-16 23:02:11:570,-1.16674,3.30019,-9.0716,-20.6019,-6.10076,-75.3586
2023-02-16 23:02:11:580,-1.13619,3.29802,-9.05381,-20.6398,-6.11329,-75.3859
2023-02-16 23:02:11:590,-1.12776,3.27793,-9.03984,-20.6771,-6.11753,-75.4143
2023-02-16 23:02:11:600,-1.10915,3.28839,-8.99367,-20.7151,-6.12163,-75.4479
2023-02-16 23:02:11:610,-1.08974,3.26514,-8.96502,-20.7509,-6.1182,-75.4821
2023-02-16 23:02:11:619,-1.06329,3.26562,-8.95596,-20.7903,-6.11549,-75.5121
2023-02-16 23:02:11:630,-1.04413,3.28994,-8.9433,-20.8325,-6.1085,-75.543
2023-02-16 23:02:11:640,-1.01953,3.30341,-8.93373,-20.8787,-6.09529,-75.572
2023-02-16 23:02:11:650,-1.0076,3.32234,-8.90246,-20.9328,-6.08225,-75.6001
2023-02-16 23:02:11:660,-0.987953,3.36762,-8.90459,-20.9874,-6.06618,-75.6259
2023-02-16 23:02:11:670,-0.987693,3.41418,-8.92853,-21.0501,-6.05556,-75.6512
2023-02-16 23:02:11:680,-0.981224,3.45003,-8.94768,-21.1137,-6.04239,-75.6751
2023-02-16 23:02:11:690,-0.955554,3.48707,-8.95909,-21.179,-6.02788,-75.698
2023-02-16 23:02:11:699,-0.952012,3.50015,-8.94698,-21.2489,-6.01724,-75.7144
2023-02-16 23:02:11:709,-0.962774,3.50855,-8.97044,-21.3197,-6.00678,-75.7339
2023-02-16 23:02:11:719,-0.970089,3.54515,-8.99352,-21.3925,-6.0037,-75.749
2023-02-16 23:02:11:730,-0.99994,3.5753,-8.98093,-21.4637,-5.99977,-75.7653
2023-02-16 23:02:11:739,-1.01373,3.60157,-8.97426,-21.5386,-5.99378,-75.7775
2023-02-16 23:02:11:750,-1.02429,3.66841,-8.96524,-21.6125,-5.98871,-75.7962
2023-02-16 23:02:11:760,-1.02111,3.71782,-8.99336,-21.6929,-5.98022,-75.8141
2023-02-16 23:02:11:770,-0.997778,3.78518,-9.01269,-21.7697,-5.97381,-75.8344
2023-02-16 23:02:11:780,-0.978427,3.82751,-9.03566,-21.8485,-5.97006,-75.8493
2023-02-16 23:02:11:790,-0.981753,3.85604,-9.03699,-21.9265,-5.96557,-75.8638
2023-02-16 23:02:11:800,-0.992379,3.86652,-9.00796,-22.0023,-5.96099,-75.8728
2023-02-16 23:02:11:810,-1.0162,3.88255,-9.00665,-22.0749,-5.96034,-75.8863
2023-02-16 23:02:11:820,-1.0275,3.89349,-8.99157,-22.1422,-5.95767,-75.897
2023-02-16 23:02:11:830,-1.02907,3.90515,-8.96638,-22.2068,-5.95624,-75.9106
2023-02-16 23:02:11:839,-1.04447,3.90848,-8.98044,-22.2675,-5.95139,-75.9216
2023-02-16 23:02:11:850,-1.05526,3.92258,-8.9808,-22.3273,-5.94496,-75.9301
2023-02-16 23:02:11:860,-1.0536,3.94151,-8.98935,-22.3822,-5.93734,-75.941
2023-02-16 23:02:11:870,-1.03446,3.95355,-8.97971,-22.4335,-5.92752,-75.9547
2023-02-16 23:02:11:880,-1.04319,3.94793,-8.95865,-22.48,-5.91799,-75.9637
2023-02-16 23:02:11:890,-1.05058,3.93949,-8.93013,-22.5211,-5.90296,-75.9737
2023-02-16 23:02:11:900,-1.04499,3.933,-8.92001,-22.5624,-5.88681,-75.9856
2023-02-16 23:02:11:910,-1.03858,3.91783,-8.89175,-22.6011,-5.86855,-76.0008
2023-02-16 23:02:11:920,-1.00641,3.89774,-8.89938,-22.6386,-5.85212,-76.0165
2023-02-16 23:02:11:930,-0.99685,3.87409,-8.91981,-22.6726,-5.8341,-76.0317
2023-02-16 23:02:11:940,-0.984309,3.86933,-8.91407,-22.7039,-5.81551,-76.0484
2023-02-16 23:02:11:949,-0.9787,3.85844,-8.89233,-22.7343,-5.79846,-76.0627
2023-02-16 23:02:11:959,-0.976569,3.8726,-8.89681,-22.7657,-5.7807,-76.075
2023-02-16 23:02:11:969,-0.966821,3.86325,-8.91342,-22.7997,-5.76353,-76.0915
2023-02-16 23:02:11:980,-0.961369,3.87952,-8.92475,-22.8342,-5.74512,-76.1117
2023-02-16 23:02:11:990,-0.967808,3.90146,-8.91781,-22.8676,-5.72609,-76.1273
2023-02-16 23:02:12:0,-0.950754,3.90873,-8.92144,-22.9061,-5.70987,-76.1449
2023-02-16 23:02:12:10,-0.939728,3.91608,-8.92557,-22.9421,-5.69375,-76.165
2023-02-16 23:02:12:20,-0.940095,3.91716,-8.93109,-22.9812,-5.6752,-76.1832
2023-02-16 23:02:12:30,-0.920512,3.93261,-8.94517,-23.0191,-5.65958,-76.2008
2023-02-16 23:02:12:40,-0.894432,3.94322,-8.93356,-23.0554,-5.64367,-76.2204
2023-02-16 23:02:12:50,-0.859024,3.95955,-8.94944,-23.0973,-5.62799,-76.2357
2023-02-16 23:02:12:60,-0.818499,3.97794,-8.98948,-23.1357,-5.61709,-76.2467
2023-02-16 23:02:12:69,-0.781092,3.9936,-9.00844,-23.1745,-5.6066,-76.2536
2023-02-16 23:02:12:80,-0.798557,4.03471,-9.03006,-23.214,-5.6016,-76.2538
2023-02-16 23:02:12:90,-0.833311,4.06688,-9.01476,-23.2523,-5.59978,-76.2499
2023-02-16 23:02:12:99,-0.878833,4.07228,-8.98818,-23.2903,-5.59993,-76.2493
2023-02-16 23:02:12:110,-0.898409,4.10952,-8.98094,-23.3227,-5.59919,-76.2457
2023-02-16 23:02:12:120,-0.929603,4.11493,-8.97456,-23.3546,-5.59781,-76.2404
2023-02-16 23:02:12:130,-0.927218,4.1079,-8.95085,-23.384,-5.59198,-76.2332
2023-02-16 23:02:12:140,-0.899899,4.09691,-8.96341,-23.412,-5.58477,-76.226
2023-02-16 23:02:12:150,-0.874311,4.09959,-8.98187,-23.44,-5.57622,-76.2135
2023-02-16 23:02:12:160,-0.867504,4.124,-8.99805,-23.4656,-5.565,-76.2005
2023-02-16 23:02:12:170,-0.856702,4.12128,-8.98606,-23.4866,-5.55796,-76.1859
2023-02-16 23:02:12:180,-0.873915,4.12209,-8.97428,-23.5063,-5.55089,-76.1706
2023-02-16 23:02:12:190,-0.90982,4.12164,-8.96887,-23.521,-5.54408,-76.1507
2023-02-16 23:02:12:199,-0.948793,4.11925,-8.94402,-23.5309,-5.54105,-76.1341
2023-02-16 23:02:12:210,-0.958233,4.09284,-8.93763,-23.536,-5.53686,-76.1162
2023-02-16 23:02:12:220,-0.958904,4.04748,-8.92506,-23.5372,-5.53152,-76.1024
2023-02-16 23:02:12:230,-0.965891,4.00369,-8.9061,-23.5338,-5.52393,-76.0929
2023-02-16 23:02:12:240,-0.944293,3.98244,-8.89655,-23.5274,-5.51515,-76.0835
2023-02-16 23:02:12:250,-0.922534,3.95984,-8.88798,-23.5199,-5.51073,-76.0755
2023-02-16 23:02:12:260,-0.897251,3.93874,-8.86923,-23.5167,-5.50433,-76.066
2023-02-16 23:02:12:270,-0.896968,3.92048,-8.86801,-23.5112,-5.50155,-76.0594
2023-02-16 23:02:12:280,-0.91473,3.89919,-8.87267,-23.5093,-5.49845,-76.0487
2023-02-16 23:02:12:290,-0.924945,3.90056,-8.86104,-23.5,-5.49384,-76.0418
2023-02-16 23:02:12:300,-0.93144,3.87935,-8.8547,-23.4951,-5.4934,-76.0387
2023-02-16 23:02:12:310,-0.917413,3.88287,-8.85779,-23.4962,-5.49571,-76.0347
2023-02-16 23:02:12:320,-0.905402,3.88345,-8.87618,-23.4976,-5.49971,-76.0321
2023-02-16 23:02:12:329,-0.896268,3.88568,-8.88951,-23.5002,-5.50354,-76.0308
2023-02-16 23:02:12:340,-0.896266,3.87736,-8.89636,-23.5048,-5.50732,-76.0277
2023-02-16 23:02:12:350,-0.909924,3.87246,-8.89815,-23.5105,-5.5181,-76.0226
2023-02-16 23:02:12:360,-0.911324,3.8709,-8.88214,-23.5164,-5.52503,-76.0222
2023-02-16 23:02:12:370,-0.912551,3.86608,-8.85694,-23.5218,-5.53226,-76.021
2023-02-16 23:02:12:380,-0.92296,3.87241,-8.87775,-23.5361,-5.54227,-76.0226
2023-02-16 23:02:12:390,-0.922643,3.89636,-8.89118,-23.5473,-5.55227,-76.0229
2023-02-16 23:02:12:400,-0.941037,3.92485,-8.90762,-23.5615,-5.56148,-76.0245
2023-02-16 23:02:12:410,-0.943608,3.93968,-8.93842,-23.5762,-5.56855,-76.0261
2023-02-16 23:02:12:420,-0.954897,3.96279,-8.9557,-23.5896,-5.57304,-76.0293
2023-02-16 23:02:12:430,-0.965747,3.96085,-8.9564,-23.5996,-5.57761,-76.0313
2023-02-16 23:02:12:440,-0.977358,3.96599,-8.94413,-23.6068,-5.58237,-76.0337
2023-02-16 23:02:12:450,-0.990691,3.95142,-8.95219,-23.6121,-5.58379,-76.041
2023-02-16 23:02:12:460,-0.990575,3.92863,-8.9442,-23.612,-5.58556,-76.0515
2023-02-16 23:02:12:470,-0.98408,3.91587,-8.9253,-23.6176,-5.58526,-76.0604
2023-02-16 23:02:12:480,-0.97415,3.91148,-8.91289,-23.6182,-5.58543,-76.0695
2023-02-16 23:02:12:489,-0.968577,3.90586,-8.91462,-23.6225,-5.58772,-76.0844
2023-02-16 23:02:12:500,-0.961356,3.90721,-8.92623,-23.6259,-5.586,-76.1011
2023-02-16 23:02:12:510,-0.968533,3.91985,-8.94041,-23.6296,-5.58728,-76.1214
2023-02-16 23:02:12:520,-0.94839,3.92012,-8.9683,-23.6342,-5.58788,-76.1369
2023-02-16 23:02:12:530,-0.939384,3.93303,-8.96821,-23.6339,-5.58845,-76.154
2023-02-16 23:02:12:540,-0.933177,3.94087,-8.97116,-23.6324,-5.58871,-76.1686
2023-02-16 23:02:12:550,-0.928274,3.92699,-8.97236,-23.6334,-5.58974,-76.1848
2023-02-16 23:02:12:559,-0.927892,3.92489,-8.95418,-23.632,-5.59069,-76.2039
2023-02-16 23:02:12:570,-0.931277,3.91246,-8.94442,-23.6315,-5.58946,-76.2243
2023-02-16 23:02:12:580,-0.932133,3.89111,-8.94682,-23.6276,-5.58535,-76.2415
2023-02-16 23:02:12:590,-0.923636,3.87592,-8.94236,-23.6211,-5.58242,-76.2584
2023-02-16 23:02:12:600,-0.913519,3.86591,-8.93106,-23.6157,-5.5795,-76.2758
2023-02-16 23:02:12:610,-0.918703,3.86846,-8.91228,-23.6105,-5.5754,-76.2914
2023-02-16 23:02:12:620,-0.911701,3.86887,-8.91073,-23.6111,-5.57296,-76.3051
2023-02-16 23:02:12:630,-0.911513,3.86172,-8.91297,-23.6092,-5.5693,-76.3208
2023-02-16 23:02:12:640,-0.90224,3.8728,-8.91149,-23.6064,-5.56154,-76.3392
2023-02-16 23:02:12:650,-0.883931,3.87519,-8.91389,-23.6032,-5.55867,-76.357
2023-02-16 23:02:12:660,-0.883761,3.87674,-8.92144,-23.6016,-5.55418,-76.3758
2023-02-16 23:02:12:670,-0.880406,3.88285,-8.92021,-23.6009,-5.55208,-76.3923
2023-02-16 23:02:12:679,-0.871381,3.85761,-8.92813,-23.5978,-5.5504,-76.4095
2023-02-16 23:02:12:690,-0.865988,3.84472,-8.9054,-23.5938,-5.55321,-76.4225
2023-02-16 23:02:12:699,-0.871261,3.8455,-8.88855,-23.59,-5.55497,-76.4337
2023-02-16 23:02:12:710,-0.87981,3.84499,-8.8814,-23.5885,-5.55741,-76.4441
2023-02-16 23:02:12:720,-0.86765,3.84273,-8.90359,-23.5921,-5.56371,-76.4545
2023-02-16 23:02:12:730,-0.8625,3.8391,-8.91653,-23.5932,-5.56742,-76.4576
2023-02-16 23:02:12:740,-0.884443,3.85864,-8.9091,-23.5949,-5.56981,-76.4629
2023-02-16 23:02:12:750,-0.880115,3.86105,-8.89908,-23.5987,-5.57329,-76.4692
2023-02-16 23:02:12:760,-0.88094,3.86311,-8.92117,-23.6035,-5.57852,-76.4729
2023-02-16 23:02:12:770,-0.896621,3.86827,-8.93831,-23.6054,-5.58126,-76.4713
2023-02-16 23:02:12:780,-0.914189,3.87718,-8.93582,-23.6092,-5.58226,-76.473
2023-02-16 23:02:12:790,-0.914234,3.8726,-8.91494,-23.6142,-5.58738,-76.4787
2023-02-16 23:02:12:800,-0.918488,3.86762,-8.89661,-23.6189,-5.58779,-76.4816
2023-02-16 23:02:12:810,-0.922367,3.8713,-8.90697,-23.6238,-5.58678,-76.4844
2023-02-16 23:02:12:820,-0.932913,3.87695,-8.89188,-23.6287,-5.58559,-76.4871
2023-02-16 23:02:12:830,-0.958064,3.86428,-8.91103,-23.6357,-5.58458,-76.492
2023-02-16 23:02:12:840,-0.955693,3.86054,-8.90828,-23.6417,-5.58392,-76.4993
2023-02-16 23:02:12:850,-0.938859,3.84693,-8.90562,-23.6489,-5.58547,-76.5081
2023-02-16 23:02:12:860,-0.879365,3.8433,-8.91215,-23.6536,-5.58795,-76.5166
2023-02-16 23:02:12:870,-0.845816,3.86148,-8.91657,-23.661,-5.59482,-76.5224
2023-02-16 23:02:12:880,-0.843214,3.88918,-8.9225,-23.6668,-5.60475,-76.5253
2023-02-16 23:02:12:890,-0.877171,3.87784,-8.93442,-23.6757,-5.61977,-76.5243
2023-02-16 23:02:12:899,-0.916228,3.88884,-8.90964,-23.686,-5.63308,-76.5265
2023-02-16 23:02:12:910,-0.956287,3.89657,-8.89311,-23.6995,-5.65352,-76.5283
2023-02-16 23:02:12:920,-0.966687,3.90623,-8.88802,-23.7115,-5.66837,-76.5321
2023-02-16 23:02:12:930,-0.966869,3.91056,-8.88731,-23.7245,-5.68176,-76.5367
2023-02-16 23:02:12:939,-0.962992,3.90888,-8.88702,-23.7429,-5.69199,-76.5365
2023-02-16 23:02:12:950,-0.949271,3.91789,-8.88348,-23.7634,-5.70146,-76.5383
2023-02-16 23:02:12:960,-0.945806,3.92354,-8.89969,-23.7843,-5.70436,-76.5358
2023-02-16 23:02:12:970,-0.966711,3.95572,-8.90442,-23.8041,-5.71002,-76.5314
2023-02-16 23:02:12:980,-0.981367,3.9886,-8.91255,-23.8231,-5.71522,-76.5282
2023-02-16 23:02:12:990,-0.998778,4.01115,-8.90915,-23.8415,-5.71343,-76.5282
2023-02-16 23:02:13:0,-1.01851,4.02726,-8.8992,-23.8563,-5.71385,-76.5268
2023-02-16 23:02:13:10,-1.02978,4.0278,-8.91135,-23.8685,-5.7071,-76.532
2023-02-16 23:02:13:20,-1.03159,4.02824,-8.91563,-23.8789,-5.70626,-76.5388
2023-02-16 23:02:13:30,-1.02313,4.02713,-8.91482,-23.8876,-5.70204,-76.5484
2023-02-16 23:02:13:40,-1.00949,4.01372,-8.90832,-23.8954,-5.69755,-76.5589
2023-02-16 23:02:13:50,-0.993507,4.0057,-8.9186,-23.9002,-5.69454,-76.5704
2023-02-16 23:02:13:60,-0.984039,4.00513,-8.92218,-23.9051,-5.69198,-76.5822
2023-02-16 23:02:13:69,-0.971189,4.0065,-8.9013,-23.913,-5.69289,-76.5916
2023-02-16 23:02:13:79,-0.965586,4.00542,-8.8951,-23.9147,-5.69416,-76.6082
2023-02-16 23:02:13:90,-0.967386,4.00483,-8.88915,-23.92,-5.69617,-76.6224
2023-02-16 23:02:13:100,-0.951023,4.01487,-8.90885,-23.9191,-5.69351,-76.6373
2023-02-16 23:02:13:110,-0.934461,4.01389,-8.91057,-23.9237,-5.69436,-76.6523
2023-02-16 23:02:13:120,-0.917538,4.01271,-8.92892,-23.928,-5.6942,-76.6687
2023-02-16 23:02:13:130,-0.888373,4.00359,-8.93875,-23.9279,-5.69268,-76.6807
2023-02-16 23:02:13:140,-0.888015,4.00405,-8.92163,-23.9287,-5.69305,-76.6907
2023-02-16 23:02:13:150,-0.905686,3.99865,-8.92345,-23.9246,-5.69281,-76.6953
2023-02-16 23:02:13:159,-0.922342,3.993,-8.89647,-23.9225,-5.69293,-76.7028
2023-02-16 23:02:13:170,-0.924971,3.98659,-8.87611,-23.9214,-5.6922,-76.7066
2023-02-16 23:02:13:180,-0.924124,3.99106,-8.8673,-23.9194,-5.68865,-76.712
2023-02-16 23:02:13:190,-0.931211,3.98638,-8.86095,-23.9188,-5.68769,-76.7213
2023-02-16 23:02:13:200,-0.926985,3.97812,-8.86226,-23.9186,-5.68346,-76.7273
2023-02-16 23:02:13:209,-0.924001,3.99813,-8.86637,-23.9189,-5.67875,-76.7356
2023-02-16 23:02:13:220,-0.929972,4.00069,-8.87776,-23.9187,-5.67543,-76.7401
2023-02-16 23:02:13:230,-0.918646,4.0072,-8.89568,-23.9213,-5.67192,-76.7408
2023-02-16 23:02:13:240,-0.937309,4.0259,-8.89161,-23.9195,-5.66962,-76.7471
2023-02-16 23:02:13:249,-0.932538,4.0144,-8.89728,-23.9172,-5.67104,-76.7532
2023-02-16 23:02:13:260,-0.941773,3.99561,-8.90017,-23.9098,-5.67281,-76.7573
2023-02-16 23:02:13:270,-0.943781,3.98642,-8.87592,-23.903,-5.67716,-76.7641
2023-02-16 23:02:13:280,-0.93109,3.99012,-8.87469,-23.9006,-5.67892,-76.7718
2023-02-16 23:02:13:290,-0.918301,3.98561,-8.88885,-23.8985,-5.68584,-76.7807
2023-02-16 23:02:13:300,-0.908298,3.99185,-8.90116,-23.8955,-5.69122,-76.7877
2023-02-16 23:02:13:310,-0.911899,3.98614,-8.9036,-23.8916,-5.6965,-76.7966
2023-02-16 23:02:13:319,-0.911355,3.98829,-8.90467,-23.8874,-5.70452,-76.8001
2023-02-16 23:02:13:330,-0.902092,3.99872,-8.91537,-23.8825,-5.70623,-76.802
2023-02-16 23:02:13:340,-0.913702,3.9957,-8.91126,-23.8778,-5.71226,-76.798
2023-02-16 23:02:13:350,-0.922101,3.98598,-8.91323,-23.8682,-5.71513,-76.7986
2023-02-16 23:02:13:360,-0.933162,3.98263,-8.90003,-23.8624,-5.71842,-76.8007
2023-02-16 23:02:13:370,-0.938225,3.96812,-8.88952,-23.8552,-5.7237,-76.797
2023-02-16 23:02:13:380,-0.925661,3.96467,-8.87957,-23.8478,-5.72577,-76.7937
2023-02-16 23:02:13:390,-0.92974,3.96284,-8.8783,-23.841,-5.72799,-76.7925
2023-02-16 23:02:13:400,-0.941813,3.96347,-8.87899,-23.8347,-5.73079,-76.7904
2023-02-16 23:02:13:410,-0.96108,3.96721,-8.88117,-23.83,-5.73259,-76.7887
2023-02-16 23:02:13:420,-0.966318,3.96727,-8.88338,-23.8226,-5.73513,-76.7873
2023-02-16 23:02:13:430,-0.964114,3.96311,-8.88201,-23.8138,-5.73872,-76.789
2023-02-16 23:02:13:440,-0.975208,3.96634,-8.87809,-23.8086,-5.74555,-76.7861
2023-02-16 23:02:13:450,-0.983041,3.95234,-8.8837,-23.8028,-5.75376,-76.786
2023-02-16 23:02:13:460,-0.982896,3.95169,-8.87599,-23.7979,-5.75769,-76.7893
2023-02-16 23:02:13:470,-0.970666,3.93711,-8.86443,-23.7918,-5.76439,-76.7925
2023-02-16 23:02:13:480,-0.968127,3.93514,-8.87078,-23.7868,-5.77005,-76.7954
2023-02-16 23:02:13:490,-0.970391,3.93028,-8.87641,-23.7823,-5.77766,-76.8028
2023-02-16 23:02:13:500,-0.95532,3.94321,-8.89498,-23.7774,-5.78712,-76.8075
2023-02-16 23:02:13:510,-0.936018,3.96282,-8.91054,-23.7738,-5.79325,-76.8104
2023-02-16 23:02:13:519,-0.943426,3.96337,-8.91136,-23.7699,-5.79714,-76.8092
2023-02-16 23:02:13:530,-0.950034,3.95618,-8.9188,-23.7628,-5.80349,-76.8056
2023-02-16 23:02:13:540,-0.942625,3.94683,-8.91518,-23.7587,-5.80826,-76.8044
2023-02-16 23:02:13:550,-0.965686,3.94984,-8.88785,-23.7538,-5.81387,-76.8049
2023-02-16 23:02:13:560,-0.988049,3.94208,-8.88375,-23.7487,-5.816,-76.8069
2023-02-16 23:02:13:570,-0.983761,3.93355,-8.89886,-23.7446,-5.81678,-76.8068
2023-02-16 23:02:13:580,-0.97867,3.92972,-8.89807,-23.741,-5.81575,-76.8076
2023-02-16 23:02:13:590,-0.975542,3.94382,-8.9093,-23.736,-5.81443,-76.8086
2023-02-16 23:02:13:599,-0.958002,3.94116,-8.92189,-23.7302,-5.81495,-76.8091
2023-02-16 23:02:13:610,-0.951762,3.93315,-8.92223,-23.7229,-5.8128,-76.8086
2023-02-16 23:02:13:620,-0.946851,3.92477,-8.9177,-23.7121,-5.81458,-76.8099
2023-02-16 23:02:13:630,-0.932383,3.91855,-8.91384,-23.7057,-5.81593,-76.811
2023-02-16 23:02:13:640,-0.931805,3.90534,-8.89,-23.6968,-5.81847,-76.8083
2023-02-16 23:02:13:650,-0.95712,3.90172,-8.89037,-23.69,-5.82067,-76.8092
2023-02-16 23:02:13:660,-0.962519,3.89436,-8.90934,-23.6837,-5.82097,-76.8121
2023-02-16 23:02:13:670,-0.939998,3.88567,-8.90459,-23.6819,-5.82545,-76.816
2023-02-16 23:02:13:680,-0.875266,3.87479,-8.90473,-23.6732,-5.83279,-76.818
2023-02-16 23:02:13:690,-0.824384,3.85631,-8.90297,-23.6689,-5.8435,-76.82
2023-02-16 23:02:13:699,-0.828367,3.86449,-8.90191,-23.6702,-5.85731,-76.8161
2023-02-16 23:02:13:710,-0.884216,3.87719,-8.88419,-23.6695,-5.877,-76.8073
2023-02-16 23:02:13:719,-0.921444,3.87518,-8.86253,-23.6701,-5.89228,-76.7992
2023-02-16 23:02:13:730,-0.940765,3.91087,-8.89002,-23.6755,-5.90718,-76.7882
2023-02-16 23:02:13:740,-0.961593,3.91875,-8.92685,-23.6803,-5.9241,-76.7775
2023-02-16 23:02:13:750,-0.960126,3.93596,-8.93061,-23.6861,-5.93642,-76.7666
2023-02-16 23:02:13:759,-0.951919,3.95984,-8.93251,-23.692,-5.94724,-76.7539
2023-02-16 23:02:13:770,-0.941786,3.94678,-8.95365,-23.6993,-5.95386,-76.7366
2023-02-16 23:02:13:780,-0.966024,3.9586,-8.93682,-23.7073,-5.95613,-76.7151
2023-02-16 23:02:13:790,-1.00532,3.9783,-8.91703,-23.7131,-5.9609,-76.6938
2023-02-16 23:02:13:800,-1.04601,3.99346,-8.90322,-23.7194,-5.96728,-76.681
2023-02-16 23:02:13:810,-1.06366,4.00381,-8.90065,-23.7245,-5.9764,-76.6649
2023-02-16 23:02:13:819,-1.06648,4.0084,-8.90883,-23.7286,-5.98084,-76.6512
2023-02-16 23:02:13:830,-1.06033,4.00746,-8.91564,-23.7271,-5.98297,-76.6411
2023-02-16 23:02:13:840,-1.05384,4.01624,-8.91169,-23.7239,-5.98932,-76.6308
2023-02-16 23:02:13:850,-1.05886,4.00822,-8.90064,-23.7216,-5.99406,-76.6232
2023-02-16 23:02:13:860,-1.05646,3.9958,-8.90117,-23.7127,-5.99987,-76.6226
2023-02-16 23:02:13:870,-1.04442,3.98496,-8.90425,-23.7028,-6.00317,-76.6198
2023-02-16 23:02:13:880,-1.0342,3.98295,-8.8942,-23.6939,-6.00798,-76.6207
2023-02-16 23:02:13:890,-1.01377,3.96433,-8.90949,-23.6842,-6.01083,-76.6208
2023-02-16 23:02:13:900,-1.01285,3.95307,-8.90287,-23.6757,-6.01342,-76.6189
2023-02-16 23:02:13:910,-1.0145,3.94083,-8.90928,-23.6656,-6.02019,-76.6197
2023-02-16 23:02:13:920,-1.00956,3.95249,-8.91491,-23.6549,-6.02203,-76.6153
2023-02-16 23:02:13:930,-0.996475,3.93965,-8.90784,-23.6474,-6.02688,-76.6126
2023-02-16 23:02:13:940,-0.97865,3.92607,-8.91259,-23.6373,-6.03155,-76.6137
2023-02-16 23:02:13:950,-0.96948,3.90768,-8.91673,-23.6255,-6.03726,-76.6098
2023-02-16 23:02:13:960,-0.980833,3.90477,-8.89947,-23.6163,-6.03863,-76.6034
2023-02-16 23:02:13:970,-1.00095,3.89396,-8.87657,-23.606,-6.04049,-76.5983
2023-02-16 23:02:13:980,-1.01321,3.88262,-8.85836,-23.5985,-6.04767,-76.5955
2023-02-16 23:02:13:990,-1.03657,3.88073,-8.85381,-23.5933,-6.05582,-76.5949
2023-02-16 23:02:13:999,-1.05487,3.89132,-8.84076,-23.5907,-6.06046,-76.5975
2023-02-16 23:02:14:10,-1.04139,3.89001,-8.8452,-23.589,-6.06613,-76.5999
2023-02-16 23:02:14:20,-1.04918,3.89033,-8.85486,-23.5862,-6.07241,-76.6042
2023-02-16 23:02:14:30,-1.05378,3.90854,-8.87438,-23.5874,-6.07894,-76.6093
2023-02-16 23:02:14:40,-1.05605,3.91957,-8.88821,-23.5904,-6.08533,-76.6194
2023-02-16 23:02:14:50,-1.06497,3.93286,-8.90986,-23.5873,-6.09337,-76.6306
2023-02-16 23:02:14:60,-1.04938,3.95295,-8.90549,-23.5873,-6.1022,-76.643
2023-02-16 23:02:14:70,-1.04303,3.93948,-8.90581,-23.5877,-6.11064,-76.6549
2023-02-16 23:02:14:80,-1.03746,3.92304,-8.907,-23.5853,-6.12044,-76.6651
2023-02-16 23:02:14:90,-1.03394,3.92351,-8.89861,-23.5791,-6.12788,-76.6774
2023-02-16 23:02:14:100,-1.01689,3.92788,-8.90529,-23.5804,-6.13584,-76.6892
2023-02-16 23:02:14:110,-1.00233,3.9395,-8.91655,-23.5808,-6.13961,-76.6976
2023-02-16 23:02:14:120,-0.999221,3.94027,-8.92056,-23.5806,-6.14393,-76.705
2023-02-16 23:02:14:130,-0.992406,3.94703,-8.93917,-23.5802,-6.15036,-76.7123
2023-02-16 23:02:14:140,-0.998264,3.95566,-8.96334,-23.5771,-6.15378,-76.7164
2023-02-16 23:02:14:150,-0.995801,3.95164,-8.98436,-23.5734,-6.15737,-76.7193
2023-02-16 23:02:14:160,-0.997758,3.95629,-8.97373,-23.5652,-6.15769,-76.7195
2023-02-16 23:02:14:169,-1.01919,3.95633,-8.94689,-23.5571,-6.15688,-76.7155
2023-02-16 23:02:14:180,-1.02901,3.93939,-8.92885,-23.549,-6.15743,-76.7147
2023-02-16 23:02:14:190,-1.04328,3.92256,-8.9373,-23.5397,-6.15674,-76.7142
2023-02-16 23:02:14:200,-1.03449,3.91824,-8.91578,-23.5311,-6.15152,-76.7151
2023-02-16 23:02:14:210,-1.0192,3.90997,-8.8879,-23.5202,-6.1457,-76.7134
2023-02-16 23:02:14:219,-1.02669,3.9068,-8.90379,-23.51,-6.14494,-76.7096
2023-02-16 23:02:14:230,-1.01999,3.90166,-8.90425,-23.5021,-6.14251,-76.709
2023-02-16 23:02:14:240,-1.02668,3.90359,-8.91457,-23.4915,-6.14171,-76.706
2023-02-16 23:02:14:250,-1.03964,3.89622,-8.92283,-23.4811,-6.14392,-76.7077
2023-02-16 23:02:14:260,-1.05915,3.90722,-8.9196,-23.4676,-6.14551,-76.7074
2023-02-16 23:02:14:269,-1.06297,3.90282,-8.90688,-23.4546,-6.15418,-76.7133
2023-02-16 23:02:14:280,-1.05897,3.88812,-8.91156,-23.4417,-6.15986,-76.7183
2023-02-16 23:02:14:290,-1.04446,3.87525,-8.9183,-23.4288,-6.16757,-76.7251
2023-02-16 23:02:14:300,-1.03862,3.86604,-8.90817,-23.4173,-6.17185,-76.7306
2023-02-16 23:02:14:310,-1.02626,3.87424,-8.90469,-23.4033,-6.1793,-76.7375
2023-02-16 23:02:14:320,-1.0261,3.87335,-8.90533,-23.3917,-6.18536,-76.7404
2023-02-16 23:02:14:330,-1.02801,3.8599,-8.89242,-23.3816,-6.18955,-76.7444
2023-02-16 23:02:14:340,-1.03421,3.85907,-8.90582,-23.368,-6.19597,-76.7469
2023-02-16 23:02:14:350,-1.04302,3.87322,-8.9213,-23.3586,-6.20183,-76.7509
2023-02-16 23:02:14:360,-1.03625,3.88986,-8.93794,-23.3476,-6.20638,-76.7543
2023-02-16 23:02:14:370,-1.03572,3.88916,-8.9549,-23.3343,-6.20982,-76.7552
2023-02-16 23:02:14:380,-1.0474,3.89082,-8.97727,-23.3245,-6.21174,-76.7526
2023-02-16 23:02:14:390,-1.06033,3.86366,-8.96539,-23.3085,-6.21309,-76.752
2023-02-16 23:02:14:400,-1.06025,3.84189,-8.93907,-23.2882,-6.21036,-76.7542
2023-02-16 23:02:14:410,-1.04173,3.81575,-8.91543,-23.2727,-6.20447,-76.7565
2023-02-16 23:02:14:420,-1.02644,3.79883,-8.90651,-23.2533,-6.19673,-76.7579
2023-02-16 23:02:14:430,-1.00727,3.79766,-8.90371,-23.2366,-6.18907,-76.7598
2023-02-16 23:02:14:439,-0.997517,3.80785,-8.91409,-23.2202,-6.18393,-76.7589
2023-02-16 23:02:14:450,-1.00282,3.79946,-8.92016,-23.2042,-6.18075,-76.7561
2023-02-16 23:02:14:460,-1.0442,3.80198,-8.9346,-23.1885,-6.18083,-76.756
2023-02-16 23:02:14:469,-1.06137,3.81346,-8.96247,-23.1689,-6.18178,-76.7569
2023-02-16 23:02:14:480,-1.03828,3.80879,-8.96554,-23.1489,-6.1803,-76.7591
2023-02-16 23:02:14:490,-0.999139,3.79235,-8.948,-23.1304,-6.18,-76.7669
2023-02-16 23:02:14:500,-0.95628,3.77364,-8.95436,-23.1174,-6.17979,-76.7726
2023-02-16 23:02:14:510,-0.968758,3.7687,-8.97003,-23.1014,-6.18672,-76.7728
2023-02-16 23:02:14:520,-1.00757,3.76612,-8.99006,-23.0839,-6.19241,-76.7745
2023-02-16 23:02:14:530,-1.04195,3.76326,-8.96543,-23.0641,-6.20121,-76.7714
2023-02-16 23:02:14:540,-1.06972,3.74322,-8.95254,-23.0461,-6.20873,-76.777
2023-02-16 23:02:14:550,-1.07837,3.75382,-8.94925,-23.0317,-6.2177,-76.7788
2023-02-16 23:02:14:560,-1.07655,3.75131,-8.93263,-23.0156,-6.22314,-76.7876
2023-02-16 23:02:14:570,-1.06352,3.77711,-8.93418,-22.9974,-6.22546,-76.7988
2023-02-16 23:02:14:579,-1.06922,3.81325,-8.97781,-22.9826,-6.22479,-76.807
2023-02-16 23:02:14:590,-1.0744,3.83667,-9.01764,-22.9683,-6.22592,-76.818
2023-02-16 23:02:14:600,-1.07402,3.85367,-9.03834,-22.9481,-6.23266,-76.8326
2023-02-16 23:02:14:610,-1.08546,3.86057,-9.03647,-22.9251,-6.23953,-76.8485
2023-02-16 23:02:14:620,-1.10321,3.85512,-8.99293,-22.8953,-6.2549,-76.8704
2023-02-16 23:02:14:630,-1.11135,3.83925,-8.9198,-22.8645,-6.27102,-76.8944
2023-02-16 23:02:14:640,-1.11302,3.82539,-8.91898,-22.8345,-6.28677,-76.9223
2023-02-16 23:02:14:650,-1.1169,3.81422,-8.95297,-22.7971,-6.30414,-76.9529
2023-02-16 23:02:14:660,-1.12656,3.79944,-8.95645,-22.7593,-6.32259,-76.9861
2023-02-16 23:02:14:670,-1.13005,3.80182,-8.95886,-22.7199,-6.34401,-77.0251
2023-02-16 23:02:14:680,-1.10354,3.76373,-8.95147,-22.6757,-6.36743,-77.0666
2023-02-16 23:02:14:690,-1.08373,3.73804,-8.95853,-22.6246,-6.38931,-77.1043
2023-02-16 23:02:14:700,-1.10295,3.71728,-8.98704,-22.5753,-6.4129,-77.1447
2023-02-16 23:02:14:710,-1.11646,3.68486,-8.95987,-22.5246,-6.43118,-77.1847
2023-02-16 23:02:14:720,-1.11016,3.62796,-8.90544,-22.4727,-6.4484,-77.2254
2023-02-16 23:02:14:729,-1.10159,3.59775,-8.9251,-22.4231,-6.46121,-77.2676
2023-02-16 23:02:14:740,-1.08845,3.59075,-8.95961,-22.3707,-6.47168,-77.3088
2023-02-16 23:02:14:750,-1.02701,3.57685,-8.96229,-22.3227,-6.48068,-77.3449
2023-02-16 23:02:14:760,-0.981798,3.53947,-8.9253,-22.2761,-6.48351,-77.3735
2023-02-16 23:02:14:770,-0.981059,3.53013,-8.9096,-22.2388,-6.47668,-77.3983
2023-02-16 23:02:14:780,-0.964573,3.58964,-9.00153,-22.2036,-6.4692,-77.4208
2023-02-16 23:02:14:790,-0.876103,3.68657,-9.17134,-22.1672,-6.45309,-77.4269
2023-02-16 23:02:14:800,-0.748778,3.74539,-9.27409,-22.1242,-6.42013,-77.4142
2023-02-16 23:02:14:810,-0.67661,3.75746,-9.30484,-22.0696,-6.37592,-77.3818
2023-02-16 23:02:14:819,-0.67004,3.77866,-9.28936,-22.0062,-6.31728,-77.3278
2023-02-16 23:02:14:830,-0.639691,3.76097,-9.27863,-21.9326,-6.24604,-77.2561
2023-02-16 23:02:14:839,-0.565932,3.79033,-9.36176,-21.8515,-6.15821,-77.16
2023-02-16 23:02:14:850,-0.482582,3.86749,-9.42421,-21.7512,-6.0599,-77.0379
2023-02-16 23:02:14:860,-0.408902,3.87911,-9.33658,-21.6416,-5.94707,-76.8888
2023-02-16 23:02:14:870,-0.423649,3.8044,-9.07448,-21.5292,-5.82093,-76.7145
2023-02-16 23:02:14:880,-0.489103,3.71041,-8.88918,-21.4194,-5.68181,-76.5218
2023-02-16 23:02:14:890,-0.543582,3.75279,-9.0655,-21.3206,-5.53912,-76.3151
2023-02-16 23:02:14:900,-0.588152,3.8247,-9.27031,-21.2217,-5.39795,-76.0938
2023-02-16 23:02:14:910,-0.659437,3.75346,-9.16931,-21.1119,-5.25686,-75.8621
2023-02-16 23:02:14:920,-0.711781,3.63681,-8.94938,-21.0053,-5.11544,-75.6309
2023-02-16 23:02:14:930,-0.752167,3.55641,-8.81084,-20.9132,-4.97523,-75.4014
2023-02-16 23:02:14:940,-0.783232,3.50727,-8.77804,-20.8307,-4.83764,-75.1774
2023-02-16 23:02:14:950,-0.820906,3.52972,-8.96101,-20.7631,-4.70301,-74.9576
2023-02-16 23:02:14:960,-0.820334,3.57852,-9.20401,-20.6996,-4.5844,-74.7428
2023-02-16 23:02:14:970,-0.830982,3.57005,-9.2919,-20.6256,-4.47653,-74.5361
2023-02-16 23:02:14:979,-0.882594,3.51536,-9.29085,-20.5469,-4.37994,-74.3354
2023-02-16 23:02:14:990,-0.941818,3.49175,-9.28232,-20.4656,-4.30008,-74.1525
2023-02-16 23:02:15:0,-0.974367,3.50048,-9.26133,-20.3809,-4.23148,-73.981
2023-02-16 23:02:15:10,-0.99374,3.4743,-9.17237,-20.2911,-4.18087,-73.8249
2023-02-16 23:02:15:20,-1.00278,3.37502,-9.00947,-20.2007,-4.14784,-73.6841
2023-02-16 23:02:15:30,-1.01714,3.30256,-8.9239,-20.1154,-4.13179,-73.5632
2023-02-16 23:02:15:40,-1.02903,3.27902,-8.91928,-20.0389,-4.12385,-73.4597
2023-02-16 23:02:15:50,-1.02594,3.2617,-8.92978,-19.9702,-4.12475,-73.3735
2023-02-16 23:02:15:60,-1.03074,3.23009,-8.95327,-19.9077,-4.13738,-73.3052
2023-02-16 23:02:15:69,-1.03152,3.22535,-8.97644,-19.8515,-4.16036,-73.2519
2023-02-16 23:02:15:80,-1.02212,3.24866,-8.97844,-19.7985,-4.1888,-73.2116
2023-02-16 23:02:15:90,-0.986123,3.23405,-8.97412,-19.7499,-4.22175,-73.1854
2023-02-16 23:02:15:100,-0.958977,3.20749,-8.95788,-19.7102,-4.25669,-73.1709
2023-02-16 23:02:15:110,-0.943141,3.19766,-8.92358,-19.6772,-4.29475,-73.1638
2023-02-16 23:02:15:120,-0.911955,3.1908,-8.92071,-19.655,-4.33428,-73.1641
2023-02-16 23:02:15:130,-0.883402,3.20942,-8.97109,-19.6421,-4.3717,-73.1706
2023-02-16 23:02:15:140,-0.858217,3.24151,-9.04131,-19.6358,-4.40775,-73.176
2023-02-16 23:02:15:150,-0.83411,3.26126,-9.07112,-19.6291,-4.43555,-73.1842
2023-02-16 23:02:15:160,-0.831871,3.27325,-9.10651,-19.6266,-4.46449,-73.1886
2023-02-16 23:02:15:170,-0.824368,3.33609,-9.19179,-19.6309,-4.49234,-73.1986
2023-02-16 23:02:15:180,-0.824722,3.36735,-9.21336,-19.6275,-4.51809,-73.207
2023-02-16 23:02:15:190,-0.824071,3.35097,-9.21572,-19.6211,-4.53847,-73.2141
2023-02-16 23:02:15:200,-0.830708,3.364,-9.23179,-19.6137,-4.55653,-73.2196
2023-02-16 23:02:15:210,-0.836433,3.36978,-9.23006,-19.6005,-4.56814,-73.2276
2023-02-16 23:02:15:220,-0.816593,3.37164,-9.20917,-19.5877,-4.57477,-73.2355
2023-02-16 23:02:15:230,-0.792563,3.36461,-9.20663,-19.5763,-4.5771,-73.2431
2023-02-16 23:02:15:240,-0.781532,3.3731,-9.21953,-19.5601,-4.57756,-73.2494
2023-02-16 23:02:15:250,-0.771103,3.37265,-9.24617,-19.5476,-4.57008,-73.2497
2023-02-16 23:02:15:260,-0.771524,3.37504,-9.26818,-19.5271,-4.56014,-73.2521
2023-02-16 23:02:15:270,-0.751182,3.38205,-9.29658,-19.503,-4.54691,-73.2565
2023-02-16 23:02:15:280,-0.709856,3.37818,-9.31177,-19.4762,-4.53238,-73.2569
2023-02-16 23:02:15:290,-0.654602,3.36449,-9.3126,-19.4445,-4.51541,-73.2523
2023-02-16 23:02:15:300,-0.615147,3.36744,-9.32658,-19.4048,-4.5008,-73.2429
2023-02-16 23:02:15:310,-0.622871,3.38759,-9.38592,-19.3591,-4.48535,-73.2299
2023-02-16 23:02:15:320,-0.636511,3.41196,-9.40529,-19.311,-4.47658,-73.2093
2023-02-16 23:02:15:330,-0.672998,3.4136,-9.39916,-19.2588,-4.47046,-73.1907
2023-02-16 23:02:15:340,-0.700694,3.41089,-9.38417,-19.1962,-4.46679,-73.1707
2023-02-16 23:02:15:350,-0.712821,3.38559,-9.34869,-19.1302,-4.45986,-73.1561
2023-02-16 23:02:15:360,-0.702753,3.35311,-9.32973,-19.0595,-4.46062,-73.1363
2023-02-16 23:02:15:370,-0.689301,3.32256,-9.32071,-18.9873,-4.45828,-73.1185
2023-02-16 23:02:15:380,-0.694606,3.29264,-9.31263,-18.9072,-4.46123,-73.0998
2023-02-16 23:02:15:390,-0.695486,3.24707,-9.28496,-18.8287,-4.46422,-73.0808
2023-02-16 23:02:15:400,-0.697215,3.20906,-9.25618,-18.7472,-4.46749,-73.0603
2023-02-16 23:02:15:410,-0.734072,3.18063,-9.21808,-18.6685,-4.47576,-73.0402
2023-02-16 23:02:15:420,-0.756829,3.14894,-9.18904,-18.5875,-4.48638,-73.0232
2023-02-16 23:02:15:430,-0.770041,3.12621,-9.17856,-18.512,-4.49542,-73.008
2023-02-16 23:02:15:440,-0.780134,3.09818,-9.1535,-18.4389,-4.50637,-72.9974
2023-02-16 23:02:15:450,-0.767368,3.04703,-9.13462,-18.3667,-4.51966,-72.9864
2023-02-16 23:02:15:460,-0.792284,3.00283,-9.12538,-18.2986,-4.53086,-72.9753
2023-02-16 23:02:15:470,-0.801443,2.9692,-9.13064,-18.2346,-4.54406,-72.964
2023-02-16 23:02:15:480,-0.788017,2.94903,-9.11632,-18.1781,-4.55408,-72.9559
2023-02-16 23:02:15:490,-0.793592,2.93152,-9.07908,-18.1247,-4.56577,-72.9493
2023-02-16 23:02:15:500,-0.807463,2.91912,-9.10598,-18.0804,-4.57975,-72.9451
2023-02-16 23:02:15:510,-0.804781,2.92436,-9.16382,-18.0368,-4.589,-72.943
2023-02-16 23:02:15:520,-0.800132,2.90605,-9.14827,-18.001,-4.60082,-72.9431
2023-02-16 23:02:15:530,-0.799555,2.88897,-9.12782,-17.974,-4.61166,-72.9429
2023-02-16 23:02:15:540,-0.80474,2.87408,-9.14579,-17.9498,-4.63094,-72.9445
2023-02-16 23:02:15:550,-0.811887,2.85504,-9.13912,-17.931,-4.64484,-72.9479
2023-02-16 23:02:15:560,-0.835616,2.84657,-9.13568,-17.9204,-4.65855,-72.9523
2023-02-16 23:02:15:570,-0.864157,2.84632,-9.1232,-17.9144,-4.67475,-72.9579
2023-02-16 23:02:15:580,-0.883905,2.85507,-9.11103,-17.9176,-4.68906,-72.9657
2023-02-16 23:02:15:590,-0.916072,2.8407,-9.11152,-17.9242,-4.70263,-72.98
2023-02-16 23:02:15:600,-0.930684,2.85863,-9.10317,-17.9362,-4.71449,-72.9968
2023-02-16 23:02:15:610,-0.95882,2.87815,-9.11775,-17.9566,-4.72506,-73.0228
2023-02-16 23:02:15:620,-0.991311,2.90467,-9.13929,-17.9794,-4.73586,-73.0545
2023-02-16 23:02:15:630,-1.06992,2.92581,-9.14742,-18.007,-4.75846,-73.0962
2023-02-16 23:02:15:640,-1.167,2.94239,-9.12304,-18.0393,-4.78032,-73.1537
2023-02-16 23:02:15:650,-1.26834,2.93864,-9.11555,-18.0768,-4.81099,-73.2358
2023-02-16 23:02:15:660,-1.33233,2.96471,-9.09002,-18.1216,-4.84803,-73.3398
2023-02-16 23:02:15:670,-1.35345,2.99459,-9.10204,-18.1698,-4.89466,-73.4714
2023-02-16 23:02:15:680,-1.32601,3.00693,-9.145,-18.2218,-4.9503,-73.6252
2023-02-16 23:02:15:690,-1.30683,3.02433,-9.1573,-18.2779,-5.0146,-73.8001
2023-02-16 23:02:15:700,-1.29758,3.03045,-9.13202,-18.339,-5.08699,-73.9952
2023-02-16 23:02:15:710,-1.29259,3.02515,-9.12352,-18.3981,-5.16876,-74.2072
2023-02-16 23:02:15:720,-1.2678,3.04073,-9.15259,-18.4621,-5.25249,-74.435
2023-02-16 23:02:15:730,-1.21548,3.07554,-9.21581,-18.5266,-5.33935,-74.6714
2023-02-16 23:02:15:740,-1.139,3.1292,-9.25843,-18.589,-5.42658,-74.9189
2023-02-16 23:02:15:750,-1.03667,3.15233,-9.30075,-18.6473,-5.51916,-75.1675
2023-02-16 23:02:15:760,-0.964328,3.18418,-9.32325,-18.703,-5.61154,-75.4099
2023-02-16 23:02:15:770,-0.92359,3.20201,-9.32434,-18.7556,-5.70409,-75.6506
2023-02-16 23:02:15:780,-0.893695,3.22064,-9.32285,-18.8024,-5.79445,-75.886
2023-02-16 23:02:15:790,-0.860435,3.22385,-9.3035,-18.8455,-5.87969,-76.1148
2023-02-16 23:02:15:800,-0.833352,3.20263,-9.28103,-18.8845,-5.96284,-76.3286
2023-02-16 23:02:15:809,-0.828085,3.17897,-9.25126,-18.9182,-6.03865,-76.5386
2023-02-16 23:02:15:820,-0.801828,3.16217,-9.23879,-18.9501,-6.10754,-76.737
2023-02-16 23:02:15:830,-0.773011,3.13551,-9.22491,-18.9815,-6.16657,-76.9229
2023-02-16 23:02:15:840,-0.75502,3.1267,-9.21451,-19.011,-6.22034,-77.0929
2023-02-16 23:02:15:850,-0.748537,3.14265,-9.20508,-19.0395,-6.26668,-77.2489
2023-02-16 23:02:15:860,-0.744268,3.14089,-9.20528,-19.0709,-6.30957,-77.3915
2023-02-16 23:02:15:870,-0.744944,3.14432,-9.19563,-19.0993,-6.3453,-77.5206
2023-02-16 23:02:15:880,-0.745037,3.15335,-9.19031,-19.1321,-6.37838,-77.6351
2023-02-16 23:02:15:890,-0.757414,3.14561,-9.174,-19.165,-6.40598,-77.7365
2023-02-16 23:02:15:900,-0.769042,3.14928,-9.15515,-19.1971,-6.43239,-77.8235
2023-02-16 23:02:15:910,-0.793621,3.15036,-9.1489,-19.2316,-6.45281,-77.8997
2023-02-16 23:02:15:920,-0.835687,3.14719,-9.15315,-19.2715,-6.46756,-77.9656
2023-02-16 23:02:15:930,-0.857063,3.14526,-9.15218,-19.3142,-6.47679,-78.0199
2023-02-16 23:02:15:940,-0.89747,3.16514,-9.14967,-19.3576,-6.48278,-78.0649
2023-02-16 23:02:15:950,-0.913847,3.19322,-9.18827,-19.4019,-6.48358,-78.1054
2023-02-16 23:02:15:960,-0.918034,3.23828,-9.23755,-19.4471,-6.48087,-78.1376
2023-02-16 23:02:15:970,-0.926598,3.24775,-9.25731,-19.487,-6.47227,-78.1677
2023-02-16 23:02:15:980,-0.921848,3.24155,-9.25117,-19.5214,-6.46164,-78.1881
2023-02-16 23:02:15:989,-0.943133,3.25231,-9.21545,-19.5571,-6.44861,-78.2035
2023-02-16 23:02:16:0,-0.962897,3.24871,-9.18365,-19.5926,-6.42987,-78.2134
2023-02-16 23:02:16:9,-0.972845,3.25704,-9.18367,-19.6247,-6.40759,-78.2233
2023-02-16 23:02:16:19,-0.959243,3.27698,-9.1767,-19.6604,-6.38673,-78.2261
2023-02-16 23:02:16:30,-0.946447,3.28853,-9.17632,-19.6931,-6.36494,-78.2283
2023-02-16 23:02:16:40,-0.922542,3.29516,-9.19096,-19.7227,-6.34602,-78.2241
2023-02-16 23:02:16:50,-0.933386,3.28396,-9.19858,-19.754,-6.3339,-78.2162
2023-02-16 23:02:16:60,-0.975185,3.3122,-9.18206,-19.7819,-6.32534,-78.2097
2023-02-16 23:02:16:70,-1.02687,3.32964,-9.1851,-19.8135,-6.31876,-78.2057
2023-02-16 23:02:16:80,-1.04753,3.3519,-9.19685,-19.8436,-6.31249,-78.1996
2023-02-16 23:02:16:90,-1.06515,3.38181,-9.22684,-19.8669,-6.3108,-78.1992
2023-02-16 23:02:16:99,-1.08524,3.40384,-9.20694,-19.89,-6.3094,-78.201
2023-02-16 23:02:16:110,-1.08818,3.41019,-9.17407,-19.9078,-6.30603,-78.205
2023-02-16 23:02:16:120,-1.0933,3.41973,-9.16246,-19.9267,-6.30467,-78.2108
2023-02-16 23:02:16:130,-1.08985,3.4144,-9.15703,-19.9456,-6.30425,-78.2145
2023-02-16 23:02:16:140,-1.07383,3.41532,-9.14414,-19.9618,-6.30637,-78.2192
2023-02-16 23:02:16:150,-1.09033,3.42982,-9.1442,-19.9771,-6.30552,-78.2257
2023-02-16 23:02:16:160,-1.09291,3.4449,-9.14262,-19.9917,-6.30495,-78.2302
2023-02-16 23:02:16:170,-1.10503,3.45889,-9.10613,-20.0028,-6.30133,-78.2427
2023-02-16 23:02:16:180,-1.12368,3.43736,-9.06858,-20.012,-6.30202,-78.2516
2023-02-16 23:02:16:190,-1.14044,3.4332,-9.08737,-20.0209,-6.30076,-78.2639
2023-02-16 23:02:16:200,-1.1317,3.44164,-9.10634,-20.0307,-6.29834,-78.2772
2023-02-16 23:02:16:210,-1.13254,3.43013,-9.12153,-20.0357,-6.29764,-78.2898
2023-02-16 23:02:16:220,-1.13076,3.44056,-9.12111,-20.0395,-6.2919,-78.3015
2023-02-16 23:02:16:230,-1.14675,3.43782,-9.12206,-20.0447,-6.28497,-78.315
2023-02-16 23:02:16:240,-1.15733,3.41607,-9.13402,-20.0416,-6.27187,-78.3331
2023-02-16 23:02:16:250,-1.16372,3.37594,-9.12003,-20.0415,-6.2593,-78.3545
2023-02-16 23:02:16:260,-1.15729,3.34893,-9.09838,-20.0381,-6.24555,-78.3794
2023-02-16 23:02:16:270,-1.14185,3.32458,-9.09671,-20.0374,-6.22853,-78.4017
2023-02-16 23:02:16:280,-1.11599,3.31003,-9.09277,-20.0361,-6.21447,-78.4284
2023-02-16 23:02:16:290,-1.07996,3.30536,-9.08672,-20.0366,-6.19724,-78.4546
2023-02-16 23:02:16:300,-1.06084,3.29156,-9.06891,-20.0405,-6.18289,-78.4846
2023-02-16 23:02:16:310,-1.02191,3.26111,-9.03873,-20.0433,-6.16989,-78.5108
2023-02-16 23:02:16:320,-1.00275,3.24782,-9.03764,-20.0566,-6.15105,-78.5339
2023-02-16 23:02:16:330,-1.00873,3.25553,-9.04532,-20.0717,-6.13532,-78.5578
2023-02-16 23:02:16:340,-1.00704,3.26778,-9.06813,-20.0921,-6.12219,-78.5865
2023-02-16 23:02:16:350,-1.00418,3.28557,-9.08984,-20.1171,-6.10598,-78.6117
2023-02-16 23:02:16:360,-1.0097,3.30625,-9.10157,-20.1454,-6.09381,-78.6341
2023-02-16 23:02:16:370,-1.0221,3.34388,-9.1263,-20.1724,-6.08584,-78.6566
2023-02-16 23:02:16:380,-1.0428,3.36779,-9.1637,-20.1944,-6.0694,-78.6794
2023-02-16 23:02:16:390,-1.07915,3.34197,-9.16352,-20.2113,-6.05277,-78.7077
2023-02-16 23:02:16:400,-1.11792,3.33265,-9.19463,-20.2245,-6.03617,-78.7456
