Timestamp,Acceleration_x,Acceleration_y,Acceleration_z,roll,pitch,yaw
2023-02-16 22:07:07:390,-0.86069,1.0766,-9.67664,-6.24125,-5.05405,81.5178
2023-02-16 22:07:07:399,-0.860161,1.05487,-9.68847,-6.25151,-5.07155,81.5264
2023-02-16 22:07:07:409,-0.87813,1.05329,-9.68405,-6.26162,-5.09019,81.5378
2023-02-16 22:07:07:419,-0.888194,1.03972,-9.67478,-6.27409,-5.10797,81.5438
2023-02-16 22:07:07:429,-0.922118,1.03489,-9.68699,-6.28928,-5.13206,81.551
2023-02-16 22:07:07:439,-0.991951,1.06699,-9.72951,-6.30983,-5.15813,81.5632
2023-02-16 22:07:07:449,-1.04499,1.10096,-9.78246,-6.33044,-5.18233,81.5706
2023-02-16 22:07:07:459,-1.02611,1.12175,-9.80986,-6.35012,-5.20509,81.5693
2023-02-16 22:07:07:469,-0.978664,1.08345,-9.77875,-6.35891,-5.22493,81.5586
2023-02-16 22:07:07:479,-0.936882,1.03183,-9.71855,-6.36454,-5.24728,81.5499
2023-02-16 22:07:07:489,-0.911466,1.00806,-9.69418,-6.37235,-5.27102,81.5433
2023-02-16 22:07:07:499,-0.882397,1.01561,-9.69388,-6.38197,-5.29635,81.5419
2023-02-16 22:07:07:509,-0.890907,1.00942,-9.65407,-6.39499,-5.32276,81.5428
2023-02-16 22:07:07:519,-0.947051,1.01296,-9.60717,-6.40809,-5.34428,81.552
2023-02-16 22:07:07:529,-0.986874,1.02439,-9.58879,-6.42066,-5.36493,81.5624
2023-02-16 22:07:07:539,-1.00467,1.02864,-9.56631,-6.43677,-5.38192,81.5722
2023-02-16 22:07:07:549,-0.987733,1.04969,-9.57381,-6.45307,-5.39554,81.5857
2023-02-16 22:07:07:559,-0.945073,1.09053,-9.61212,-6.47211,-5.40529,81.5983
2023-02-16 22:07:07:569,-0.973665,1.11201,-9.6319,-6.48912,-5.41225,81.6112
2023-02-16 22:07:07:579,-1.02653,1.11899,-9.61823,-6.50196,-5.41477,81.6294
2023-02-16 22:07:07:589,-0.997836,1.13026,-9.6338,-6.51211,-5.40987,81.6392
2023-02-16 22:07:07:599,-0.930843,1.12037,-9.64224,-6.52007,-5.39892,81.647
2023-02-16 22:07:07:610,-0.843675,1.05924,-9.63058,-6.52327,-5.38018,81.6491
2023-02-16 22:07:07:620,-0.713003,1.03806,-9.6186,-6.53319,-5.35559,81.6536
2023-02-16 22:07:07:630,-0.603479,1.02793,-9.6291,-6.55596,-5.33236,81.6629
2023-02-16 22:07:07:640,-0.566317,1.0553,-9.63808,-6.58605,-5.30825,81.6849
2023-02-16 22:07:07:649,-0.56674,1.10512,-9.64311,-6.62158,-5.29089,81.718
2023-02-16 22:07:07:660,-0.573284,1.138,-9.63095,-6.66903,-5.2814,81.7667
2023-02-16 22:07:07:670,-0.645764,1.18582,-9.59181,-6.72438,-5.27687,81.8279
2023-02-16 22:07:07:680,-0.751431,1.24113,-9.57596,-6.78812,-5.28083,81.8972
2023-02-16 22:07:07:689,-0.839002,1.3078,-9.61604,-6.86342,-5.29084,81.9714
2023-02-16 22:07:07:699,-0.89158,1.3812,-9.65969,-6.93426,-5.30303,82.0442
2023-02-16 22:07:07:710,-0.905781,1.40752,-9.67688,-7.00359,-5.31605,82.1212
2023-02-16 22:07:07:719,-0.931559,1.44215,-9.67573,-7.07316,-5.32634,82.1932
2023-02-16 22:07:07:729,-0.936293,1.46386,-9.67693,-7.1332,-5.3415,82.2653
2023-02-16 22:07:07:739,-0.920871,1.46433,-9.67993,-7.18994,-5.35599,82.3403
2023-02-16 22:07:07:749,-0.927574,1.45912,-9.69882,-7.24029,-5.36744,82.4191
2023-02-16 22:07:07:759,-0.953591,1.46303,-9.67925,-7.28873,-5.37861,82.4987
2023-02-16 22:07:07:769,-0.978106,1.45102,-9.67545,-7.32449,-5.38624,82.5778
2023-02-16 22:07:07:779,-0.999853,1.43557,-9.69292,-7.35784,-5.38713,82.6597
2023-02-16 22:07:07:789,-1.01733,1.43295,-9.70953,-7.38141,-5.38103,82.7336
2023-02-16 22:07:07:799,-1.02971,1.40574,-9.73279,-7.39561,-5.37305,82.8055
2023-02-16 22:07:07:809,-1.02083,1.39287,-9.73956,-7.40559,-5.36804,82.8713
2023-02-16 22:07:07:819,-1.02372,1.38166,-9.73671,-7.4117,-5.36135,82.9312
2023-02-16 22:07:07:829,-1.0533,1.3658,-9.69267,-7.40936,-5.35339,82.9837
2023-02-16 22:07:07:839,-1.08154,1.35102,-9.6742,-7.41243,-5.35046,83.0298
2023-02-16 22:07:07:850,-1.07516,1.34686,-9.67326,-7.41479,-5.34763,83.0641
2023-02-16 22:07:07:860,-1.05337,1.33443,-9.69583,-7.41435,-5.34581,83.0866
2023-02-16 22:07:07:869,-0.998955,1.31761,-9.73762,-7.41147,-5.34194,83.0957
2023-02-16 22:07:07:879,-0.936664,1.2997,-9.73607,-7.40858,-5.33944,83.0986
2023-02-16 22:07:07:889,-0.893437,1.28685,-9.71941,-7.40065,-5.34024,83.0938
2023-02-16 22:07:07:899,-0.873327,1.27573,-9.7177,-7.3951,-5.34408,83.0843
2023-02-16 22:07:07:909,-0.857145,1.26374,-9.7036,-7.38393,-5.34739,83.0735
2023-02-16 22:07:07:919,-0.852824,1.26259,-9.71818,-7.37471,-5.3534,83.0638
2023-02-16 22:07:07:929,-0.827397,1.27227,-9.7526,-7.36513,-5.3541,83.0544
2023-02-16 22:07:07:939,-0.793423,1.27376,-9.75824,-7.34914,-5.35949,83.0441
2023-02-16 22:07:07:949,-0.778749,1.25534,-9.74694,-7.33044,-5.36673,83.0388
2023-02-16 22:07:07:959,-0.796155,1.23152,-9.71685,-7.31138,-5.37543,83.0412
2023-02-16 22:07:07:969,-0.845871,1.21697,-9.67632,-7.29121,-5.38907,83.0469
2023-02-16 22:07:07:979,-0.881681,1.2109,-9.66147,-7.27305,-5.4035,83.057
2023-02-16 22:07:07:989,-0.898173,1.19249,-9.67825,-7.25149,-5.42106,83.0693
2023-02-16 22:07:07:999,-0.922543,1.18523,-9.66206,-7.23082,-5.43656,83.0856
2023-02-16 22:07:08:9,-0.948092,1.17202,-9.64736,-7.20515,-5.45501,83.1056
2023-02-16 22:07:08:19,-0.985472,1.15943,-9.64529,-7.17907,-5.47502,83.1266
2023-02-16 22:07:08:29,-1.03038,1.14905,-9.62601,-7.15109,-5.49367,83.1429
2023-02-16 22:07:08:39,-1.03094,1.12214,-9.61378,-7.12189,-5.51504,83.1584
2023-02-16 22:07:08:50,-1.06337,1.10573,-9.59827,-7.09636,-5.5344,83.1728
2023-02-16 22:07:08:59,-1.10212,1.10016,-9.601,-7.07383,-5.55857,83.1854
2023-02-16 22:07:08:70,-1.11821,1.11103,-9.62547,-7.05338,-5.57992,83.1946
2023-02-16 22:07:08:79,-1.09626,1.11313,-9.62385,-7.0384,-5.59644,83.2028
2023-02-16 22:07:08:90,-1.10399,1.10627,-9.59923,-7.02542,-5.60666,83.2069
2023-02-16 22:07:08:99,-1.083,1.0941,-9.58673,-7.01276,-5.60821,83.2072
2023-02-16 22:07:08:110,-1.02578,1.09935,-9.56568,-7.00102,-5.60802,83.2063
2023-02-16 22:07:08:120,-1.00492,1.10542,-9.56812,-6.99999,-5.60572,83.2086
2023-02-16 22:07:08:130,-1.01272,1.1155,-9.58156,-7.00182,-5.6041,83.2126
2023-02-16 22:07:08:140,-1.00734,1.14427,-9.61373,-7.00559,-5.59654,83.214
2023-02-16 22:07:08:150,-0.989428,1.18264,-9.68163,-7.01453,-5.58722,83.2206
2023-02-16 22:07:08:159,-0.950548,1.20912,-9.74247,-7.02157,-5.57207,83.2242
2023-02-16 22:07:08:170,-0.91788,1.20997,-9.72886,-7.02413,-5.56485,83.2281
2023-02-16 22:07:08:179,-0.921917,1.1901,-9.70494,-7.02821,-5.55944,83.2307
2023-02-16 22:07:08:190,-0.969288,1.1613,-9.68458,-7.02868,-5.55756,83.2419
2023-02-16 22:07:08:199,-1.01058,1.1715,-9.67008,-7.02839,-5.55895,83.2505
2023-02-16 22:07:08:209,-1.01892,1.17724,-9.67253,-7.02764,-5.55572,83.2555
2023-02-16 22:07:08:220,-1.01679,1.18295,-9.6398,-7.02532,-5.55162,83.2595
2023-02-16 22:07:08:229,-1.01326,1.17883,-9.62318,-7.02418,-5.54728,83.262
2023-02-16 22:07:08:240,-0.994264,1.19169,-9.60989,-7.02393,-5.54463,83.2617
2023-02-16 22:07:08:249,-0.976278,1.18981,-9.60463,-7.02731,-5.53901,83.2571
2023-02-16 22:07:08:259,-0.970325,1.19083,-9.5926,-7.02996,-5.53302,83.2558
2023-02-16 22:07:08:269,-0.965629,1.18319,-9.58472,-7.03328,-5.52059,83.2564
2023-02-16 22:07:08:279,-0.940955,1.18601,-9.59529,-7.03741,-5.5065,83.2577
2023-02-16 22:07:08:290,-0.934132,1.18906,-9.60568,-7.04378,-5.49245,83.2581
2023-02-16 22:07:08:299,-0.947751,1.21178,-9.59015,-7.05154,-5.48217,83.2643
2023-02-16 22:07:08:310,-0.975322,1.22154,-9.62335,-7.06373,-5.46708,83.2677
2023-02-16 22:07:08:319,-0.984251,1.23387,-9.64547,-7.08172,-5.4505,83.2704
2023-02-16 22:07:08:329,-0.977212,1.24883,-9.65999,-7.1018,-5.43515,83.2723
2023-02-16 22:07:08:339,-0.945035,1.27039,-9.68397,-7.12228,-5.41475,83.2725
2023-02-16 22:07:08:349,-0.935865,1.28217,-9.68436,-7.14257,-5.40104,83.2728
2023-02-16 22:07:08:359,-0.926557,1.27641,-9.70391,-7.16175,-5.3927,83.2705
2023-02-16 22:07:08:369,-0.92271,1.31559,-9.72695,-7.18105,-5.38276,83.2648
2023-02-16 22:07:08:379,-0.952443,1.34763,-9.75066,-7.1984,-5.375,83.2584
2023-02-16 22:07:08:389,-0.955726,1.35031,-9.73595,-7.20497,-5.36835,83.2523
2023-02-16 22:07:08:400,-0.903873,1.31967,-9.70988,-7.20117,-5.35977,83.2387
2023-02-16 22:07:08:409,-0.836214,1.25704,-9.67351,-7.19123,-5.3446,83.2227
2023-02-16 22:07:08:419,-0.798677,1.20244,-9.64587,-7.17624,-5.33296,83.2085
2023-02-16 22:07:08:429,-0.799386,1.18132,-9.63975,-7.16398,-5.32707,83.2026
2023-02-16 22:07:08:440,-0.829857,1.19664,-9.64722,-7.15916,-5.32208,83.1993
2023-02-16 22:07:08:449,-0.873871,1.20402,-9.66522,-7.15959,-5.31504,83.2003
2023-02-16 22:07:08:459,-0.900314,1.2066,-9.67153,-7.15852,-5.30383,83.2005
2023-02-16 22:07:08:469,-0.890396,1.21057,-9.6986,-7.15829,-5.28948,83.2021
2023-02-16 22:07:08:479,-0.867081,1.21977,-9.70279,-7.15589,-5.27354,83.2029
2023-02-16 22:07:08:490,-0.855339,1.21453,-9.68551,-7.14966,-5.25893,83.2041
2023-02-16 22:07:08:499,-0.848827,1.18953,-9.66314,-7.14356,-5.2449,83.203
2023-02-16 22:07:08:510,-0.823898,1.17689,-9.66236,-7.13686,-5.22721,83.2013
2023-02-16 22:07:08:520,-0.771897,1.16791,-9.66457,-7.13004,-5.21825,83.2001
2023-02-16 22:07:08:529,-0.739966,1.16438,-9.65611,-7.12779,-5.21129,83.2002
2023-02-16 22:07:08:540,-0.737645,1.15945,-9.65092,-7.1246,-5.20926,83.2013
2023-02-16 22:07:08:550,-0.752764,1.15647,-9.64206,-7.12719,-5.21288,83.2098
2023-02-16 22:07:08:559,-0.824164,1.14233,-9.65228,-7.12794,-5.21935,83.2214
2023-02-16 22:07:08:569,-0.847565,1.13651,-9.66735,-7.12561,-5.22264,83.233
2023-02-16 22:07:08:579,-0.843608,1.11789,-9.67054,-7.12327,-5.2213,83.2474
2023-02-16 22:07:08:589,-0.855754,1.12814,-9.66138,-7.12094,-5.22378,83.2591
2023-02-16 22:07:08:599,-0.881869,1.12757,-9.62564,-7.1163,-5.2218,83.2727
2023-02-16 22:07:08:609,-0.881242,1.10973,-9.61062,-7.11189,-5.22315,83.2836
2023-02-16 22:07:08:619,-0.867767,1.11107,-9.60338,-7.1124,-5.22503,83.2909
2023-02-16 22:07:08:629,-0.845448,1.11282,-9.59664,-7.11092,-5.22211,83.2955
2023-02-16 22:07:08:639,-0.822013,1.09028,-9.57796,-7.11397,-5.21889,83.2976
2023-02-16 22:07:08:649,-0.820165,1.08812,-9.54754,-7.1174,-5.21606,83.2953
2023-02-16 22:07:08:659,-0.799947,1.10203,-9.55358,-7.13058,-5.21015,83.2938
2023-02-16 22:07:08:669,-0.776322,1.11815,-9.55326,-7.15242,-5.20431,83.2897
2023-02-16 22:07:08:679,-0.742724,1.12806,-9.57078,-7.18267,-5.19931,83.2821
2023-02-16 22:07:08:689,-0.754636,1.16184,-9.59728,-7.22402,-5.20063,83.2768
2023-02-16 22:07:08:699,-0.765417,1.21537,-9.65181,-7.27032,-5.207,83.2735
2023-02-16 22:07:08:709,-0.766377,1.27448,-9.6887,-7.32118,-5.22464,83.274
2023-02-16 22:07:08:719,-0.783788,1.32113,-9.72008,-7.37561,-5.2465,83.2752
2023-02-16 22:07:08:729,-0.809554,1.35367,-9.73969,-7.42501,-5.27074,83.2718
2023-02-16 22:07:08:739,-0.82302,1.37977,-9.74415,-7.47568,-5.30352,83.2726
2023-02-16 22:07:08:749,-0.849351,1.38739,-9.74245,-7.52172,-5.33756,83.2788
2023-02-16 22:07:08:759,-0.904293,1.38753,-9.73255,-7.56429,-5.37508,83.2838
2023-02-16 22:07:08:769,-0.953846,1.39161,-9.72986,-7.59857,-5.41866,83.2906
2023-02-16 22:07:08:779,-0.995472,1.39274,-9.75784,-7.63061,-5.45924,83.2996
2023-02-16 22:07:08:789,-1.02824,1.39752,-9.79039,-7.6561,-5.49447,83.3067
2023-02-16 22:07:08:799,-1.04008,1.40224,-9.82226,-7.67329,-5.53063,83.3188
2023-02-16 22:07:08:809,-1.0515,1.4145,-9.82204,-7.68357,-5.56731,83.3294
2023-02-16 22:07:08:819,-1.09249,1.40209,-9.79664,-7.68224,-5.60237,83.3414
2023-02-16 22:07:08:829,-1.11171,1.36461,-9.75024,-7.67397,-5.63017,83.3567
2023-02-16 22:07:08:839,-1.11622,1.32612,-9.70828,-7.65505,-5.65684,83.3669
2023-02-16 22:07:08:849,-1.11388,1.28453,-9.65511,-7.63195,-5.67377,83.3757
2023-02-16 22:07:08:859,-1.1049,1.24541,-9.59364,-7.60326,-5.68244,83.3857
2023-02-16 22:07:08:869,-1.08799,1.22955,-9.56038,-7.57354,-5.6853,83.3951
2023-02-16 22:07:08:879,-1.07235,1.20717,-9.57399,-7.54942,-5.68967,83.3992
2023-02-16 22:07:08:889,-1.04796,1.20946,-9.56971,-7.5291,-5.68852,83.3979
2023-02-16 22:07:08:899,-1.03878,1.21506,-9.55101,-7.50391,-5.68902,83.3937
2023-02-16 22:07:08:909,-1.0491,1.21503,-9.54416,-7.48543,-5.69075,83.3857
2023-02-16 22:07:08:919,-1.0416,1.21502,-9.59756,-7.473,-5.69227,83.3694
2023-02-16 22:07:08:929,-1.00978,1.25159,-9.69083,-7.46213,-5.69659,83.3496
2023-02-16 22:07:08:939,-0.983208,1.27598,-9.74114,-7.44787,-5.70336,83.3245
2023-02-16 22:07:08:949,-0.956821,1.2511,-9.68571,-7.42805,-5.71146,83.2935
2023-02-16 22:07:08:959,-0.948217,1.2024,-9.61673,-7.4081,-5.72714,83.2609
2023-02-16 22:07:08:969,-0.981121,1.19894,-9.5452,-7.39607,-5.74842,83.2298
2023-02-16 22:07:08:979,-1.03719,1.21207,-9.52301,-7.39138,-5.77403,83.1963
2023-02-16 22:07:08:989,-1.13054,1.23842,-9.52046,-7.40257,-5.79796,83.1629
2023-02-16 22:07:08:999,-1.2066,1.28626,-9.5204,-7.42075,-5.81841,83.1306
2023-02-16 22:07:09:9,-1.27578,1.31356,-9.52062,-7.4458,-5.83321,83.0933
2023-02-16 22:07:09:19,-1.41651,1.35789,-9.51297,-7.46988,-5.84074,83.0533
2023-02-16 22:07:09:29,-1.49479,1.41332,-9.53605,-7.50415,-5.84044,82.9989
2023-02-16 22:07:09:39,-1.45752,1.46562,-9.60625,-7.54341,-5.83382,82.9267
2023-02-16 22:07:09:49,-1.30455,1.51808,-9.69405,-7.57899,-5.82353,82.8366
2023-02-16 22:07:09:59,-1.0965,1.55919,-9.77044,-7.6123,-5.81519,82.733
2023-02-16 22:07:09:69,-0.994935,1.58688,-9.783,-7.63525,-5.81547,82.6269
2023-02-16 22:07:09:79,-1.01383,1.57835,-9.71216,-7.65242,-5.81357,82.5264
2023-02-16 22:07:09:89,-1.00464,1.54517,-9.6608,-7.65615,-5.80473,82.4295
2023-02-16 22:07:09:99,-0.968769,1.50847,-9.68095,-7.65063,-5.79324,82.3294
2023-02-16 22:07:09:109,-0.912081,1.49387,-9.72732,-7.64148,-5.77632,82.234
2023-02-16 22:07:09:119,-0.881953,1.46809,-9.76516,-7.62042,-5.75707,82.1456
2023-02-16 22:07:09:129,-0.876097,1.4305,-9.74409,-7.5917,-5.73723,82.0597
2023-02-16 22:07:09:140,-0.843329,1.36868,-9.72635,-7.55516,-5.71238,81.9743
2023-02-16 22:07:09:150,-0.795857,1.3174,-9.75605,-7.51605,-5.68747,81.8949
2023-02-16 22:07:09:160,-0.719834,1.28499,-9.81447,-7.47333,-5.66163,81.8162
2023-02-16 22:07:09:170,-0.658684,1.25415,-9.81495,-7.42712,-5.63439,81.7468
2023-02-16 22:07:09:179,-0.615893,1.17871,-9.72477,-7.37906,-5.61106,81.6849
2023-02-16 22:07:09:189,-0.61829,1.12457,-9.60403,-7.33455,-5.59107,81.6386
2023-02-16 22:07:09:200,-0.668716,1.09118,-9.52348,-7.29983,-5.57575,81.6058
2023-02-16 22:07:09:210,-0.742137,1.1032,-9.45664,-7.2738,-5.56092,81.5872
2023-02-16 22:07:09:220,-0.780566,1.13094,-9.48624,-7.26087,-5.5414,81.5723
2023-02-16 22:07:09:229,-0.791406,1.18795,-9.57796,-7.25789,-5.51564,81.568
2023-02-16 22:07:09:239,-0.79287,1.23138,-9.65201,-7.25942,-5.49213,81.5695
2023-02-16 22:07:09:249,-0.799834,1.24931,-9.66615,-7.2564,-5.465,81.5754
2023-02-16 22:07:09:260,-0.800071,1.23344,-9.64513,-7.25493,-5.43561,81.5848
2023-02-16 22:07:09:270,-0.801569,1.19927,-9.6163,-7.24927,-5.41208,81.5953
2023-02-16 22:07:09:280,-0.797432,1.19616,-9.59205,-7.24844,-5.39173,81.6057
2023-02-16 22:07:09:290,-0.77607,1.20162,-9.61377,-7.25014,-5.37587,81.6181
2023-02-16 22:07:09:300,-0.801023,1.22811,-9.63815,-7.25507,-5.36414,81.6351
2023-02-16 22:07:09:309,-0.887461,1.25674,-9.65378,-7.25977,-5.35865,81.6551
2023-02-16 22:07:09:319,-0.969787,1.26931,-9.66077,-7.26889,-5.35693,81.6721
2023-02-16 22:07:09:330,-1.00221,1.2654,-9.67769,-7.27565,-5.35818,81.6829
2023-02-16 22:07:09:340,-1.02444,1.27866,-9.69214,-7.27975,-5.36414,81.6898
2023-02-16 22:07:09:349,-1.04691,1.26476,-9.69622,-7.27839,-5.37199,81.6883
2023-02-16 22:07:09:360,-1.09146,1.25886,-9.66789,-7.27903,-5.38065,81.6816
2023-02-16 22:07:09:369,-1.09601,1.25084,-9.64703,-7.28176,-5.38965,81.6654
2023-02-16 22:07:09:379,-1.0557,1.23013,-9.66389,-7.27953,-5.39706,81.6419
2023-02-16 22:07:09:389,-1.05521,1.24531,-9.64961,-7.276,-5.4032,81.6143
2023-02-16 22:07:09:399,-1.06435,1.24019,-9.61605,-7.27526,-5.41186,81.5771
2023-02-16 22:07:09:409,-1.02132,1.2086,-9.60993,-7.27943,-5.41521,81.5338
2023-02-16 22:07:09:420,-0.998576,1.20276,-9.6396,-7.28463,-5.41877,81.4891
2023-02-16 22:07:09:429,-0.996432,1.21135,-9.65866,-7.28691,-5.42108,81.4406
2023-02-16 22:07:09:439,-0.979706,1.22661,-9.65639,-7.28769,-5.4204,81.3937
2023-02-16 22:07:09:450,-0.961652,1.23302,-9.6683,-7.28597,-5.42026,81.3427
2023-02-16 22:07:09:460,-0.971888,1.23816,-9.67682,-7.28383,-5.42009,81.293
2023-02-16 22:07:09:469,-1.01097,1.25347,-9.67527,-7.28348,-5.42115,81.2453
2023-02-16 22:07:09:480,-1.03198,1.25403,-9.65364,-7.28105,-5.41845,81.1969
2023-02-16 22:07:09:489,-1.01818,1.22738,-9.63741,-7.27855,-5.41356,81.1465
2023-02-16 22:07:09:500,-0.945005,1.22513,-9.65285,-7.27504,-5.40334,81.0894
2023-02-16 22:07:09:509,-0.839676,1.24344,-9.70736,-7.27145,-5.38737,81.0342
2023-02-16 22:07:09:520,-0.767085,1.23213,-9.7428,-7.26458,-5.3702,80.9827
2023-02-16 22:07:09:529,-0.699782,1.20375,-9.73638,-7.25534,-5.35432,80.9392
2023-02-16 22:07:09:539,-0.636101,1.19224,-9.69398,-7.247,-5.33831,80.9025
2023-02-16 22:07:09:550,-0.635273,1.18333,-9.65417,-7.23869,-5.32562,80.8794
2023-02-16 22:07:09:560,-0.692228,1.19001,-9.60597,-7.23119,-5.31042,80.8713
2023-02-16 22:07:09:570,-0.765166,1.18999,-9.58378,-7.22898,-5.29519,80.8764
2023-02-16 22:07:09:580,-0.822294,1.19551,-9.5923,-7.23138,-5.2771,80.8852
2023-02-16 22:07:09:590,-0.858212,1.21607,-9.6365,-7.23728,-5.25787,80.8984
2023-02-16 22:07:09:600,-0.887093,1.24121,-9.67074,-7.24433,-5.24208,80.915
2023-02-16 22:07:09:609,-0.904745,1.25367,-9.6767,-7.24779,-5.22581,80.9293
2023-02-16 22:07:09:619,-0.898581,1.23311,-9.69801,-7.25119,-5.2077,80.9405
2023-02-16 22:07:09:629,-0.903796,1.23311,-9.69709,-7.25014,-5.19452,80.9506
2023-02-16 22:07:09:639,-0.904116,1.21596,-9.64481,-7.24727,-5.18402,80.9544
2023-02-16 22:07:09:649,-0.87185,1.22019,-9.61749,-7.24879,-5.17167,80.9521
2023-02-16 22:07:09:659,-0.86118,1.22362,-9.62996,-7.25165,-5.16442,80.9461
2023-02-16 22:07:09:669,-0.863373,1.2395,-9.63018,-7.25622,-5.15956,80.9424
2023-02-16 22:07:09:679,-0.896176,1.23176,-9.61284,-7.26012,-5.15728,80.9338
2023-02-16 22:07:09:689,-0.934976,1.24073,-9.6318,-7.26278,-5.15909,80.9225
2023-02-16 22:07:09:699,-0.953495,1.24529,-9.66376,-7.26755,-5.16196,80.907
2023-02-16 22:07:09:709,-0.937406,1.26027,-9.72812,-7.27187,-5.16428,80.8807
2023-02-16 22:07:09:719,-0.911175,1.27383,-9.76912,-7.27149,-5.17054,80.8508
2023-02-16 22:07:09:729,-0.881406,1.25804,-9.77033,-7.27196,-5.18169,80.8125
2023-02-16 22:07:09:739,-0.86384,1.25413,-9.78039,-7.27058,-5.19503,80.7716
2023-02-16 22:07:09:749,-0.845762,1.26775,-9.77132,-7.2692,-5.21647,80.7326
2023-02-16 22:07:09:759,-0.846436,1.27564,-9.73564,-7.2614,-5.23834,80.6896
2023-02-16 22:07:09:769,-0.880909,1.28811,-9.6666,-7.25466,-5.26315,80.649
2023-02-16 22:07:09:779,-0.877407,1.28913,-9.63807,-7.2539,-5.2852,80.6102
2023-02-16 22:07:09:789,-0.853868,1.27887,-9.62813,-7.25151,-5.30601,80.5735
2023-02-16 22:07:09:799,-0.861959,1.27441,-9.60554,-7.24786,-5.32591,80.5366
2023-02-16 22:07:09:809,-0.872354,1.27591,-9.60674,-7.24566,-5.34594,80.5056
2023-02-16 22:07:09:819,-0.859556,1.276,-9.63771,-7.24527,-5.36796,80.4806
2023-02-16 22:07:09:829,-0.847686,1.25958,-9.64603,-7.24689,-5.38737,80.4616
2023-02-16 22:07:09:839,-0.849874,1.24296,-9.62945,-7.24259,-5.40679,80.4495
2023-02-16 22:07:09:849,-0.867032,1.23672,-9.59418,-7.23956,-5.42458,80.4448
2023-02-16 22:07:09:859,-0.88604,1.22403,-9.57639,-7.23832,-5.439,80.4453
2023-02-16 22:07:09:869,-0.910931,1.21155,-9.60236,-7.24048,-5.45186,80.4548
2023-02-16 22:07:09:879,-0.973638,1.21452,-9.64002,-7.24076,-5.45883,80.4672
2023-02-16 22:07:09:889,-1.01258,1.21857,-9.67283,-7.24717,-5.46056,80.4869
2023-02-16 22:07:09:899,-1.04557,1.24993,-9.6914,-7.25422,-5.46024,80.5078
2023-02-16 22:07:09:909,-1.05879,1.24303,-9.68011,-7.2599,-5.45839,80.5227
2023-02-16 22:07:09:919,-1.05184,1.22381,-9.63691,-7.26425,-5.45861,80.5352
2023-02-16 22:07:09:929,-1.05178,1.24348,-9.62281,-7.27366,-5.45507,80.5415
2023-02-16 22:07:09:939,-1.04451,1.26738,-9.64207,-7.28286,-5.45034,80.549
2023-02-16 22:07:09:949,-0.994932,1.29091,-9.64992,-7.29119,-5.44163,80.5517
2023-02-16 22:07:09:959,-0.911982,1.27292,-9.63958,-7.299,-5.43393,80.5537
2023-02-16 22:07:09:969,-0.872586,1.23994,-9.60347,-7.30528,-5.42592,80.5545
2023-02-16 22:07:09:979,-0.882588,1.22838,-9.58391,-7.3127,-5.4161,80.5624
2023-02-16 22:07:09:989,-0.90473,1.22004,-9.57211,-7.3243,-5.40737,80.5677
2023-02-16 22:07:09:999,-0.911779,1.22136,-9.58893,-7.34029,-5.394,80.5772
2023-02-16 22:07:10:9,-0.903641,1.24531,-9.62193,-7.36308,-5.37752,80.5863
2023-02-16 22:07:10:19,-0.910554,1.27983,-9.6471,-7.38338,-5.36021,80.599
2023-02-16 22:07:10:29,-0.916411,1.29484,-9.65418,-7.40422,-5.34757,80.6103
2023-02-16 22:07:10:39,-0.927697,1.30466,-9.64908,-7.42939,-5.33305,80.6218
2023-02-16 22:07:10:49,-0.938493,1.32012,-9.64937,-7.45197,-5.32266,80.6281
2023-02-16 22:07:10:59,-0.945568,1.3295,-9.61898,-7.47679,-5.31044,80.634
2023-02-16 22:07:10:69,-0.941142,1.33249,-9.60541,-7.49788,-5.29873,80.6375
2023-02-16 22:07:10:79,-0.911848,1.32244,-9.61135,-7.52039,-5.28691,80.6366
2023-02-16 22:07:10:89,-0.902947,1.33967,-9.62313,-7.54305,-5.27415,80.6343
2023-02-16 22:07:10:99,-0.89437,1.3536,-9.64724,-7.56623,-5.26122,80.6297
2023-02-16 22:07:10:109,-0.854263,1.35131,-9.69625,-7.59092,-5.25236,80.6244
2023-02-16 22:07:10:119,-0.813982,1.36913,-9.71608,-7.61165,-5.2452,80.6168
2023-02-16 22:07:10:129,-0.80201,1.36276,-9.69036,-7.62831,-5.24363,80.6099
2023-02-16 22:07:10:139,-0.802864,1.34239,-9.65958,-7.6446,-5.24572,80.6053
2023-02-16 22:07:10:149,-0.825998,1.35104,-9.65938,-7.66776,-5.25029,80.6086
2023-02-16 22:07:10:159,-0.838533,1.37242,-9.6617,-7.68988,-5.25662,80.6091
2023-02-16 22:07:10:169,-0.856466,1.40129,-9.67011,-7.71346,-5.26687,80.6119
2023-02-16 22:07:10:179,-0.886612,1.40146,-9.67831,-7.73756,-5.27766,80.6179
2023-02-16 22:07:10:189,-0.903443,1.41424,-9.69289,-7.76195,-5.28717,80.6245
2023-02-16 22:07:10:199,-0.892732,1.43144,-9.69828,-7.78166,-5.29687,80.6302
2023-02-16 22:07:10:209,-0.885752,1.42522,-9.69508,-7.79862,-5.30774,80.6359
2023-02-16 22:07:10:219,-0.872836,1.41819,-9.67229,-7.81311,-5.3137,80.6447
2023-02-16 22:07:10:229,-0.869816,1.41742,-9.6672,-7.82532,-5.32625,80.6582
2023-02-16 22:07:10:239,-0.870879,1.41153,-9.66294,-7.83861,-5.33513,80.6742
2023-02-16 22:07:10:249,-0.899252,1.42186,-9.64055,-7.84975,-5.34325,80.6908
2023-02-16 22:07:10:259,-0.935338,1.44905,-9.65824,-7.85968,-5.34923,80.7111
2023-02-16 22:07:10:269,-0.93084,1.48146,-9.68694,-7.8717,-5.35326,80.7312
2023-02-16 22:07:10:279,-0.92723,1.47918,-9.72218,-7.87737,-5.35499,80.7539
2023-02-16 22:07:10:289,-0.937181,1.46654,-9.7083,-7.88013,-5.36011,80.7725
2023-02-16 22:07:10:299,-0.954258,1.44259,-9.68869,-7.87631,-5.36367,80.7916
2023-02-16 22:07:10:310,-0.965822,1.41922,-9.66222,-7.86794,-5.36783,80.8069
2023-02-16 22:07:10:319,-0.974699,1.39081,-9.63479,-7.85668,-5.37214,80.8214
2023-02-16 22:07:10:329,-0.951775,1.3755,-9.62554,-7.84395,-5.38003,80.8317
2023-02-16 22:07:10:340,-0.911341,1.35824,-9.6107,-7.8351,-5.38191,80.8409
2023-02-16 22:07:10:350,-0.893067,1.35189,-9.58148,-7.82688,-5.38592,80.8519
2023-02-16 22:07:10:359,-0.892004,1.3524,-9.58904,-7.8218,-5.38813,80.8624
2023-02-16 22:07:10:370,-0.899868,1.34933,-9.63325,-7.8221,-5.39135,80.8747
2023-02-16 22:07:10:380,-0.913044,1.36577,-9.67199,-7.81672,-5.39043,80.8925
2023-02-16 22:07:10:389,-0.904694,1.3606,-9.67765,-7.81286,-5.38765,80.9079
2023-02-16 22:07:10:400,-0.907791,1.3496,-9.65955,-7.80726,-5.39062,80.9213
2023-02-16 22:07:10:410,-0.900799,1.32629,-9.62558,-7.79922,-5.39029,80.9328
2023-02-16 22:07:10:420,-0.92085,1.30804,-9.60052,-7.79267,-5.39379,80.943
2023-02-16 22:07:10:429,-0.938713,1.28569,-9.59804,-7.78586,-5.40012,80.9528
2023-02-16 22:07:10:439,-0.95678,1.29506,-9.60918,-7.77898,-5.40601,80.9607
2023-02-16 22:07:10:450,-0.972353,1.30402,-9.64055,-7.7739,-5.41399,80.9627
2023-02-16 22:07:10:460,-0.965147,1.31196,-9.67158,-7.76886,-5.41761,80.9597
2023-02-16 22:07:10:469,-0.917159,1.29446,-9.66777,-7.76081,-5.42132,80.9529
2023-02-16 22:07:10:480,-0.848102,1.2601,-9.63545,-7.74862,-5.42603,80.9412
2023-02-16 22:07:10:489,-0.805132,1.22668,-9.59548,-7.74132,-5.4355,80.9262
2023-02-16 22:07:10:499,-0.824272,1.23435,-9.57714,-7.74405,-5.44991,80.9167
2023-02-16 22:07:10:509,-0.857905,1.27044,-9.60359,-7.75454,-5.46749,80.91
2023-02-16 22:07:10:519,-0.896751,1.32034,-9.64921,-7.77289,-5.4869,80.9025
2023-02-16 22:07:10:529,-0.888539,1.35487,-9.6838,-7.7892,-5.50864,80.8966
2023-02-16 22:07:10:539,-0.899217,1.36683,-9.67092,-7.80452,-5.5343,80.8838
2023-02-16 22:07:10:549,-0.906272,1.37477,-9.63916,-7.82207,-5.56215,80.875
2023-02-16 22:07:10:559,-0.914612,1.37519,-9.63607,-7.8372,-5.59325,80.8603
2023-02-16 22:07:10:569,-0.961369,1.38055,-9.63536,-7.84939,-5.62401,80.8478
2023-02-16 22:07:10:580,-0.978644,1.38668,-9.66086,-7.86024,-5.65377,80.8328
2023-02-16 22:07:10:589,-0.989759,1.40375,-9.65953,-7.86818,-5.68277,80.8165
2023-02-16 22:07:10:599,-0.962971,1.40427,-9.64724,-7.86872,-5.71061,80.7985
2023-02-16 22:07:10:610,-0.927021,1.3758,-9.63895,-7.86689,-5.7337,80.7806
2023-02-16 22:07:10:619,-0.936886,1.33172,-9.61695,-7.86013,-5.75411,80.7644
2023-02-16 22:07:10:630,-0.974655,1.33383,-9.60002,-7.85661,-5.77614,80.7507
2023-02-16 22:07:10:640,-1.00421,1.3399,-9.6223,-7.85405,-5.79749,80.7378
2023-02-16 22:07:10:650,-1.01897,1.36807,-9.64788,-7.855,-5.81578,80.7269
2023-02-16 22:07:10:659,-0.99987,1.38577,-9.68225,-7.85896,-5.83282,80.7191
2023-02-16 22:07:10:670,-0.978377,1.39056,-9.70855,-7.8601,-5.8458,80.7138
2023-02-16 22:07:10:680,-0.971432,1.39235,-9.71488,-7.85787,-5.85026,80.7104
2023-02-16 22:07:10:689,-0.95839,1.38431,-9.70791,-7.85631,-5.85442,80.7131
2023-02-16 22:07:10:699,-0.933736,1.40211,-9.72002,-7.85027,-5.85813,80.7167
2023-02-16 22:07:10:710,-0.897115,1.38496,-9.73135,-7.83837,-5.86048,80.7219
2023-02-16 22:07:10:720,-0.884763,1.35334,-9.68433,-7.82144,-5.86819,80.7274
2023-02-16 22:07:10:729,-0.934095,1.32613,-9.63426,-7.80525,-5.88339,80.7422
2023-02-16 22:07:10:740,-1.01388,1.30593,-9.61832,-7.7929,-5.8989,80.7587
2023-02-16 22:07:10:750,-1.06406,1.30341,-9.5987,-7.78053,-5.91419,80.7797
2023-02-16 22:07:10:759,-1.04573,1.29059,-9.61052,-7.76751,-5.92552,80.7994
2023-02-16 22:07:10:769,-0.985657,1.27076,-9.61681,-7.75875,-5.93633,80.813
2023-02-16 22:07:10:779,-0.924548,1.26489,-9.6235,-7.74917,-5.94171,80.832
2023-02-16 22:07:10:789,-0.903771,1.27845,-9.67434,-7.74308,-5.94433,80.8524
2023-02-16 22:07:10:799,-0.889365,1.30613,-9.69395,-7.73867,-5.94906,80.8754
2023-02-16 22:07:10:809,-0.878844,1.30676,-9.6956,-7.72682,-5.95289,80.9008
2023-02-16 22:07:10:819,-0.874323,1.31494,-9.68523,-7.71782,-5.95672,80.9261
2023-02-16 22:07:10:829,-0.879884,1.30648,-9.62815,-7.70006,-5.96066,80.9591
2023-02-16 22:07:10:839,-0.891835,1.27788,-9.583,-7.68201,-5.96568,80.995
2023-02-16 22:07:10:849,-0.860124,1.25009,-9.55967,-7.6671,-5.97196,81.03
2023-02-16 22:07:10:859,-0.860504,1.2281,-9.54291,-7.65728,-5.98679,81.0699
2023-02-16 22:07:10:869,-0.919851,1.2289,-9.55081,-7.65227,-6.0098,81.1135
2023-02-16 22:07:10:879,-1.01418,1.25297,-9.57324,-7.65285,-6.03833,81.1661
2023-02-16 22:07:10:890,-1.08837,1.27072,-9.57475,-7.66083,-6.06843,81.2218
2023-02-16 22:07:10:899,-1.13284,1.2995,-9.59293,-7.67298,-6.1021,81.2792
2023-02-16 22:07:10:909,-1.1775,1.31792,-9.61334,-7.68565,-6.13287,81.3351
2023-02-16 22:07:10:919,-1.23336,1.33141,-9.6293,-7.6953,-6.1605,81.3868
2023-02-16 22:07:10:930,-1.26703,1.36304,-9.6425,-7.70529,-6.18917,81.435
2023-02-16 22:07:10:940,-1.28233,1.35865,-9.6484,-7.71225,-6.21139,81.4815
2023-02-16 22:07:10:950,-1.2825,1.35566,-9.63086,-7.71778,-6.22828,81.5158
2023-02-16 22:07:10:960,-1.28282,1.3622,-9.62537,-7.72082,-6.24154,81.5447
2023-02-16 22:07:10:970,-1.29434,1.35993,-9.61793,-7.72285,-6.25187,81.5675
2023-02-16 22:07:10:979,-1.30383,1.35339,-9.60189,-7.72529,-6.26057,81.5837
2023-02-16 22:07:10:990,-1.30445,1.34687,-9.6269,-7.72451,-6.26314,81.5943
2023-02-16 22:07:10:999,-1.28211,1.33556,-9.66043,-7.72125,-6.26454,81.5952
2023-02-16 22:07:11:9,-1.23672,1.33189,-9.65983,-7.71545,-6.26447,81.5964
2023-02-16 22:07:11:19,-1.20277,1.32313,-9.66502,-7.70988,-6.26104,81.5923
2023-02-16 22:07:11:29,-1.181,1.31344,-9.64442,-7.70517,-6.25581,81.5836
2023-02-16 22:07:11:39,-1.15089,1.29664,-9.63174,-7.69911,-6.24434,81.5776
2023-02-16 22:07:11:50,-1.13556,1.28693,-9.62342,-7.69058,-6.23572,81.57
2023-02-16 22:07:11:59,-1.12169,1.2909,-9.62797,-7.68452,-6.22602,81.5616
2023-02-16 22:07:11:70,-1.11201,1.2769,-9.61485,-7.67472,-6.21139,81.5535
2023-02-16 22:07:11:79,-1.08471,1.27398,-9.59021,-7.66583,-6.19602,81.5462
2023-02-16 22:07:11:89,-1.0656,1.26258,-9.59343,-7.65768,-6.17635,81.5413
2023-02-16 22:07:11:99,-1.05243,1.25368,-9.60334,-7.65429,-6.15404,81.5381
2023-02-16 22:07:11:110,-1.03828,1.2344,-9.59925,-7.6508,-6.13445,81.5395
2023-02-16 22:07:11:120,-1.03315,1.21018,-9.60097,-7.64765,-6.11444,81.5428
2023-02-16 22:07:11:129,-1.0516,1.20966,-9.61539,-7.65375,-6.091,81.5511
2023-02-16 22:07:11:139,-1.0586,1.21143,-9.60396,-7.65929,-6.06817,81.555
2023-02-16 22:07:11:150,-1.02835,1.21121,-9.60298,-7.66645,-6.04351,81.5566
2023-02-16 22:07:11:160,-0.995907,1.23884,-9.61896,-7.67461,-6.0175,81.559
2023-02-16 22:07:11:170,-0.988943,1.25463,-9.59931,-7.68464,-5.99344,81.5629
2023-02-16 22:07:11:179,-0.973348,1.25649,-9.59818,-7.69445,-5.9692,81.5644
2023-02-16 22:07:11:189,-0.95989,1.25039,-9.59959,-7.70695,-5.94614,81.5672
2023-02-16 22:07:11:199,-0.951157,1.24769,-9.6064,-7.7191,-5.92086,81.5686
2023-02-16 22:07:11:210,-0.950687,1.24929,-9.61802,-7.73661,-5.89368,81.5692
2023-02-16 22:07:11:219,-0.90419,1.26222,-9.649,-7.75149,-5.86822,81.5722
2023-02-16 22:07:11:230,-0.836133,1.27733,-9.67875,-7.76521,-5.84569,81.5703
2023-02-16 22:07:11:239,-0.801781,1.27922,-9.67491,-7.77853,-5.82767,81.5758
2023-02-16 22:07:11:250,-0.815753,1.27907,-9.68328,-7.79423,-5.81783,81.585
2023-02-16 22:07:11:259,-0.844505,1.31982,-9.70843,-7.81407,-5.81078,81.6012
2023-02-16 22:07:11:270,-0.857619,1.35417,-9.70286,-7.83251,-5.80604,81.6197
2023-02-16 22:07:11:279,-0.889178,1.36464,-9.67532,-7.85187,-5.80062,81.6422
2023-02-16 22:07:11:289,-0.894681,1.36323,-9.64928,-7.87017,-5.79513,81.6697
2023-02-16 22:07:11:299,-0.904432,1.36694,-9.62632,-7.88824,-5.78927,81.7009
2023-02-16 22:07:11:309,-0.904149,1.36319,-9.60252,-7.90653,-5.78509,81.7307
2023-02-16 22:07:11:319,-0.920202,1.36066,-9.5883,-7.92591,-5.77858,81.7636
2023-02-16 22:07:11:330,-0.929543,1.3621,-9.57817,-7.94555,-5.77961,81.7945
2023-02-16 22:07:11:339,-0.950234,1.34166,-9.58685,-7.96441,-5.78043,81.827
2023-02-16 22:07:11:349,-0.962248,1.36646,-9.59237,-7.98441,-5.78058,81.8602
2023-02-16 22:07:11:359,-0.957124,1.38516,-9.60138,-8.00446,-5.78394,81.8934
2023-02-16 22:07:11:369,-0.96531,1.37904,-9.61498,-8.02049,-5.78808,81.9238
2023-02-16 22:07:11:379,-1.00786,1.37762,-9.62874,-8.03934,-5.79021,81.9552
2023-02-16 22:07:11:389,-1.01979,1.40244,-9.64358,-8.06115,-5.79136,81.9859
2023-02-16 22:07:11:399,-1.01818,1.40097,-9.64619,-8.07987,-5.79371,82.0107
2023-02-16 22:07:11:410,-1.00363,1.39446,-9.60833,-8.09926,-5.79482,82.0348
2023-02-16 22:07:11:419,-1.00481,1.38804,-9.58759,-8.12243,-5.79613,82.0578
2023-02-16 22:07:11:429,-1.00581,1.39655,-9.59663,-8.14705,-5.79708,82.078
2023-02-16 22:07:11:439,-1.01919,1.4207,-9.6346,-8.17337,-5.8,82.0963
2023-02-16 22:07:11:449,-0.997527,1.47718,-9.7144,-8.20162,-5.8043,82.1118
2023-02-16 22:07:11:459,-0.94623,1.51695,-9.74791,-8.22212,-5.80565,82.1233
2023-02-16 22:07:11:470,-0.90376,1.50642,-9.72331,-8.23444,-5.80468,82.1343
2023-02-16 22:07:11:479,-0.919332,1.47726,-9.66733,-8.24379,-5.80438,82.1484
2023-02-16 22:07:11:489,-0.930181,1.47163,-9.61695,-8.25397,-5.80794,82.1653
2023-02-16 22:07:11:499,-0.945647,1.45209,-9.61433,-8.26351,-5.81372,82.1846
2023-02-16 22:07:11:510,-0.952605,1.47462,-9.63394,-8.27652,-5.81812,82.2053
2023-02-16 22:07:11:519,-0.973992,1.47905,-9.62919,-8.28772,-5.82316,82.2295
2023-02-16 22:07:11:529,-0.981901,1.46072,-9.60515,-8.29696,-5.82426,82.2485
2023-02-16 22:07:11:539,-0.976561,1.45737,-9.61355,-8.30901,-5.82657,82.2707
2023-02-16 22:07:11:550,-0.964421,1.47703,-9.65338,-8.32151,-5.82669,82.2928
2023-02-16 22:07:11:559,-0.968331,1.48852,-9.64983,-8.33219,-5.82761,82.3156
2023-02-16 22:07:11:570,-0.98045,1.47895,-9.62182,-8.34136,-5.82996,82.3369
2023-02-16 22:07:11:579,-0.988604,1.45543,-9.63427,-8.34501,-5.83493,82.3612
2023-02-16 22:07:11:589,-0.982499,1.44995,-9.60713,-8.34888,-5.84048,82.3882
2023-02-16 22:07:11:600,-0.985922,1.43919,-9.5792,-8.35398,-5.84677,82.4146
2023-02-16 22:07:11:610,-0.992236,1.43123,-9.58071,-8.36124,-5.85162,82.4404
2023-02-16 22:07:11:620,-0.973223,1.45716,-9.60848,-8.36766,-5.85699,82.4679
2023-02-16 22:07:11:630,-0.960627,1.46116,-9.63151,-8.37499,-5.86025,82.4956
2023-02-16 22:07:11:639,-0.977751,1.44785,-9.63102,-8.38305,-5.86452,82.5272
2023-02-16 22:07:11:650,-1.00174,1.44637,-9.62419,-8.38929,-5.8715,82.5546
2023-02-16 22:07:11:659,-1.00798,1.45705,-9.63229,-8.40052,-5.88022,82.5832
2023-02-16 22:07:11:669,-0.991778,1.46887,-9.62893,-8.40638,-5.8877,82.6139
2023-02-16 22:07:11:679,-0.984672,1.45996,-9.60955,-8.4149,-5.89228,82.6449
2023-02-16 22:07:11:690,-0.960084,1.43308,-9.6031,-8.4246,-5.89442,82.6748
2023-02-16 22:07:11:700,-0.961836,1.44585,-9.60121,-8.43373,-5.89996,82.7072
2023-02-16 22:07:11:710,-0.983151,1.44279,-9.58133,-8.44197,-5.89925,82.7431
2023-02-16 22:07:11:719,-1.01112,1.43125,-9.57814,-8.45586,-5.9002,82.7812
2023-02-16 22:07:11:729,-1.00855,1.46753,-9.61406,-8.47299,-5.89581,82.8155
2023-02-16 22:07:11:739,-1.00795,1.46742,-9.6191,-8.48811,-5.89435,82.8466
2023-02-16 22:07:11:749,-1.03612,1.49045,-9.62452,-8.49924,-5.89942,82.8791
2023-02-16 22:07:11:759,-1.05182,1.51414,-9.63998,-8.51008,-5.90616,82.9076
2023-02-16 22:07:11:769,-1.05728,1.52066,-9.67705,-8.52043,-5.91749,82.9285
2023-02-16 22:07:11:779,-1.05821,1.52432,-9.65879,-8.52779,-5.93159,82.9467
2023-02-16 22:07:11:789,-1.0377,1.5087,-9.63742,-8.53236,-5.94483,82.9627
2023-02-16 22:07:11:799,-1.0244,1.48107,-9.62501,-8.53541,-5.95906,82.9786
2023-02-16 22:07:11:809,-1.00702,1.45729,-9.6008,-8.53768,-5.97179,82.9929
2023-02-16 22:07:11:819,-1.00765,1.46933,-9.59874,-8.53986,-5.98495,83.0071
2023-02-16 22:07:11:829,-0.990276,1.45998,-9.60642,-8.54246,-5.99609,83.0181
2023-02-16 22:07:11:839,-0.981091,1.45952,-9.60489,-8.54643,-6.00765,83.0339
2023-02-16 22:07:11:849,-0.995308,1.46195,-9.60087,-8.55047,-6.0189,83.0508
2023-02-16 22:07:11:859,-1.02672,1.45778,-9.62088,-8.55265,-6.03006,83.0667
2023-02-16 22:07:11:869,-1.05716,1.46657,-9.64155,-8.55116,-6.03831,83.086
2023-02-16 22:07:11:879,-1.06192,1.47253,-9.65987,-8.55403,-6.0468,83.1049
2023-02-16 22:07:11:889,-1.05563,1.45625,-9.6605,-8.55129,-6.05192,83.1215
2023-02-16 22:07:11:899,-1.03427,1.44229,-9.64304,-8.54429,-6.05316,83.1363
2023-02-16 22:07:11:909,-1.03385,1.42585,-9.62227,-8.53594,-6.05222,83.1524
2023-02-16 22:07:11:919,-1.01494,1.42418,-9.60063,-8.52744,-6.05352,83.1685
2023-02-16 22:07:11:929,-0.965604,1.41666,-9.58074,-8.51981,-6.05313,83.1814
2023-02-16 22:07:11:939,-0.942141,1.40343,-9.57207,-8.51307,-6.05086,83.1979
2023-02-16 22:07:11:949,-0.948337,1.40414,-9.59392,-8.50973,-6.04637,83.2185
2023-02-16 22:07:11:959,-0.915033,1.42302,-9.64265,-8.51033,-6.04286,83.2372
2023-02-16 22:07:11:969,-0.866066,1.421,-9.66831,-8.51043,-6.03384,83.2585
2023-02-16 22:07:11:979,-0.843658,1.40557,-9.664,-8.50948,-6.03406,83.2848
2023-02-16 22:07:11:989,-0.850809,1.39663,-9.64814,-8.51061,-6.03818,83.3167
2023-02-16 22:07:11:999,-0.906937,1.42262,-9.65847,-8.52099,-6.04712,83.3556
2023-02-16 22:07:12:9,-0.955347,1.45955,-9.6801,-8.53092,-6.06362,83.3985
2023-02-16 22:07:12:19,-0.99492,1.46736,-9.66276,-8.53773,-6.08311,83.4387
2023-02-16 22:07:12:29,-1.06141,1.4831,-9.64607,-8.5473,-6.10507,83.4813
2023-02-16 22:07:12:39,-1.11925,1.51597,-9.63128,-8.55367,-6.12519,83.5263
2023-02-16 22:07:12:49,-1.14355,1.53701,-9.63722,-8.55809,-6.14835,83.565
2023-02-16 22:07:12:59,-1.15234,1.54117,-9.6266,-8.56158,-6.16707,83.6031
2023-02-16 22:07:12:70,-1.14281,1.52074,-9.60517,-8.55828,-6.18586,83.6377
2023-02-16 22:07:12:79,-1.14161,1.48373,-9.57124,-8.54952,-6.19654,83.669
2023-02-16 22:07:12:89,-1.13679,1.46807,-9.54264,-8.54013,-6.20658,83.6992
2023-02-16 22:07:12:99,-1.14193,1.45204,-9.53253,-8.53304,-6.21876,83.7261
2023-02-16 22:07:12:110,-1.15556,1.45441,-9.55691,-8.52953,-6.2285,83.7481
2023-02-16 22:07:12:119,-1.18066,1.47074,-9.58838,-8.52838,-6.2386,83.7674
2023-02-16 22:07:12:129,-1.17605,1.46358,-9.62393,-8.52424,-6.24764,83.7832
2023-02-16 22:07:12:139,-1.17491,1.46125,-9.63497,-8.52341,-6.25704,83.7937
2023-02-16 22:07:12:149,-1.15678,1.48042,-9.61335,-8.51919,-6.26634,83.7966
2023-02-16 22:07:12:159,-1.12138,1.44884,-9.59505,-8.51315,-6.27174,83.7964
2023-02-16 22:07:12:169,-1.11314,1.44372,-9.59414,-8.51111,-6.28004,83.7993
2023-02-16 22:07:12:179,-1.10956,1.44794,-9.60824,-8.51123,-6.28868,83.7968
2023-02-16 22:07:12:189,-1.09813,1.46344,-9.64706,-8.50931,-6.29501,83.7904
2023-02-16 22:07:12:199,-1.05354,1.48146,-9.67197,-8.50524,-6.29432,83.7795
2023-02-16 22:07:12:209,-1.0232,1.45666,-9.64635,-8.50209,-6.29813,83.7691
2023-02-16 22:07:12:219,-1.00389,1.4245,-9.61758,-8.49662,-6.30248,83.7642
2023-02-16 22:07:12:229,-1.00871,1.42104,-9.60875,-8.49158,-6.30929,83.7617
2023-02-16 22:07:12:239,-1.02312,1.43947,-9.62898,-8.48581,-6.31417,83.7623
2023-02-16 22:07:12:250,-1.01818,1.43258,-9.61958,-8.47891,-6.31852,83.7641
2023-02-16 22:07:12:259,-1.00248,1.41979,-9.60483,-8.47068,-6.3159,83.7686
2023-02-16 22:07:12:269,-0.982339,1.39967,-9.5844,-8.46692,-6.31691,83.7785
2023-02-16 22:07:12:279,-0.982641,1.40099,-9.57045,-8.46145,-6.31697,83.795
2023-02-16 22:07:12:289,-1.00842,1.41085,-9.58923,-8.46122,-6.32014,83.8147
2023-02-16 22:07:12:299,-1.03928,1.42489,-9.60674,-8.46101,-6.32605,83.8392
2023-02-16 22:07:12:309,-1.05625,1.44715,-9.62039,-8.46364,-6.33774,83.8623
2023-02-16 22:07:12:319,-1.09792,1.44889,-9.60934,-8.46348,-6.3419,83.8887
2023-02-16 22:07:12:329,-1.12781,1.42729,-9.60242,-8.45852,-6.35228,83.9118
2023-02-16 22:07:12:339,-1.08568,1.39769,-9.58559,-8.4559,-6.35865,83.9351
2023-02-16 22:07:12:349,-1.06989,1.3991,-9.59161,-8.4549,-6.36822,83.9559
2023-02-16 22:07:12:359,-1.05352,1.39858,-9.60768,-8.45665,-6.37714,83.9778
2023-02-16 22:07:12:369,-1.02335,1.38908,-9.61403,-8.45771,-6.38705,83.9979
2023-02-16 22:07:12:379,-1.02126,1.38287,-9.59852,-8.45813,-6.39992,84.0206
2023-02-16 22:07:12:389,-1.0232,1.38351,-9.60987,-8.46364,-6.41225,84.049
2023-02-16 22:07:12:399,-1.0471,1.40002,-9.63016,-8.4684,-6.42694,84.0808
2023-02-16 22:07:12:409,-1.08236,1.40682,-9.64005,-8.47011,-6.44162,84.1156
2023-02-16 22:07:12:419,-1.11649,1.42089,-9.62142,-8.47559,-6.45555,84.1498
2023-02-16 22:07:12:429,-1.14202,1.42892,-9.619,-8.47951,-6.46865,84.1834
2023-02-16 22:07:12:439,-1.15102,1.41514,-9.61754,-8.48286,-6.47889,84.2179
2023-02-16 22:07:12:449,-1.1525,1.39906,-9.59229,-8.48182,-6.48885,84.2529
2023-02-16 22:07:12:459,-1.1542,1.40189,-9.55836,-8.48447,-6.4995,84.2879
2023-02-16 22:07:12:469,-1.14655,1.40029,-9.54772,-8.48747,-6.50493,84.3227
2023-02-16 22:07:12:479,-1.13678,1.38581,-9.55465,-8.49278,-6.51132,84.359
2023-02-16 22:07:12:489,-1.13254,1.39651,-9.54866,-8.50273,-6.51336,84.3959
2023-02-16 22:07:12:499,-1.16174,1.39635,-9.52693,-8.51143,-6.51201,84.4339
2023-02-16 22:07:12:509,-1.16115,1.39936,-9.55349,-8.52412,-6.51088,84.4701
2023-02-16 22:07:12:519,-1.13024,1.43493,-9.60869,-8.53738,-6.50624,84.5036
2023-02-16 22:07:12:529,-1.15348,1.43801,-9.5941,-8.54997,-6.50412,84.5417
2023-02-16 22:07:12:539,-1.18157,1.44773,-9.58841,-8.55907,-6.49951,84.576
2023-02-16 22:07:12:549,-1.17742,1.46319,-9.60176,-8.57145,-6.49654,84.6073
2023-02-16 22:07:12:559,-1.14249,1.47347,-9.6116,-8.57902,-6.49781,84.6352
2023-02-16 22:07:12:569,-1.13487,1.4708,-9.60508,-8.58702,-6.49244,84.6654
2023-02-16 22:07:12:579,-1.14018,1.45385,-9.60916,-8.59417,-6.48892,84.6939
2023-02-16 22:07:12:589,-1.12793,1.46372,-9.60877,-8.59929,-6.48405,84.7155
2023-02-16 22:07:12:599,-1.097,1.46475,-9.60147,-8.60824,-6.48055,84.7385
2023-02-16 22:07:12:609,-1.06351,1.45132,-9.59729,-8.6173,-6.47491,84.7606
2023-02-16 22:07:12:619,-1.06529,1.47591,-9.60089,-8.62821,-6.47144,84.7879
2023-02-16 22:07:12:629,-1.08053,1.47676,-9.60446,-8.64245,-6.46662,84.8161
2023-02-16 22:07:12:639,-1.0824,1.47125,-9.61156,-8.6495,-6.46557,84.8401
2023-02-16 22:07:12:649,-1.07069,1.47106,-9.61638,-8.65783,-6.46179,84.8668
2023-02-16 22:07:12:659,-1.06606,1.46602,-9.64652,-8.66589,-6.45788,84.8951
2023-02-16 22:07:12:669,-1.07844,1.47801,-9.69117,-8.67627,-6.45515,84.924
2023-02-16 22:07:12:679,-1.0642,1.48806,-9.70411,-8.68314,-6.45039,84.9506
2023-02-16 22:07:12:689,-1.04325,1.46683,-9.65181,-8.68244,-6.44634,84.9762
2023-02-16 22:07:12:699,-1.00353,1.42283,-9.5805,-8.68193,-6.44416,85.0002
2023-02-16 22:07:12:709,-0.963452,1.40852,-9.55626,-8.68371,-6.4448,85.0274
2023-02-16 22:07:12:719,-0.9527,1.42383,-9.55768,-8.69312,-6.44742,85.0603
2023-02-16 22:07:12:729,-0.972337,1.44616,-9.55093,-8.70509,-6.45123,85.1024
2023-02-16 22:07:12:739,-1.00137,1.45729,-9.52991,-8.72357,-6.45404,85.1478
2023-02-16 22:07:12:749,-1.0316,1.44268,-9.53058,-8.74329,-6.45918,85.1975
2023-02-16 22:07:12:759,-1.07558,1.44889,-9.52276,-8.76808,-6.46352,85.2522
2023-02-16 22:07:12:769,-1.12752,1.47777,-9.51814,-8.79731,-6.47194,85.3099
2023-02-16 22:07:12:779,-1.17738,1.52048,-9.54884,-8.82913,-6.47889,85.3652
2023-02-16 22:07:12:789,-1.17728,1.5517,-9.5959,-8.86326,-6.48437,85.4144
2023-02-16 22:07:12:799,-1.15833,1.56248,-9.63381,-8.89362,-6.49207,85.4598
2023-02-16 22:07:12:810,-1.14763,1.55741,-9.62676,-8.91712,-6.50036,85.5007
2023-02-16 22:07:12:819,-1.1297,1.54476,-9.59491,-8.94121,-6.50697,85.5421
2023-02-16 22:07:12:829,-1.13251,1.53985,-9.57618,-8.96513,-6.51219,85.5822
2023-02-16 22:07:12:839,-1.13183,1.53238,-9.58776,-8.98899,-6.5166,85.621
2023-02-16 22:07:12:850,-1.13671,1.55474,-9.62077,-9.01369,-6.51509,85.6599
2023-02-16 22:07:12:859,-1.1347,1.582,-9.63035,-9.04113,-6.51593,85.6991
2023-02-16 22:07:12:869,-1.13204,1.59008,-9.6115,-9.06663,-6.51649,85.7373
2023-02-16 22:07:12:879,-1.14144,1.58663,-9.59134,-9.09157,-6.51779,85.7757
2023-02-16 22:07:12:889,-1.17832,1.60036,-9.59703,-9.11859,-6.51731,85.8105
2023-02-16 22:07:12:899,-1.21317,1.64596,-9.61718,-9.15065,-6.51448,85.8472
2023-02-16 22:07:12:909,-1.19518,1.68103,-9.64466,-9.17719,-6.51024,85.8781
2023-02-16 22:07:12:919,-1.14153,1.6663,-9.64563,-9.19776,-6.50249,85.9032
2023-02-16 22:07:12:929,-1.10771,1.64652,-9.62308,-9.21383,-6.49505,85.9249
2023-02-16 22:07:12:939,-1.10515,1.64804,-9.61418,-9.22817,-6.48952,85.9486
2023-02-16 22:07:12:949,-1.13268,1.65995,-9.60747,-9.24192,-6.48694,85.9735
2023-02-16 22:07:12:959,-1.13847,1.6651,-9.61417,-9.25514,-6.48506,85.9925
2023-02-16 22:07:12:969,-1.14136,1.65864,-9.64064,-9.26786,-6.48243,86.0072
2023-02-16 22:07:12:979,-1.13284,1.66534,-9.63508,-9.27574,-6.48046,86.0204
2023-02-16 22:07:12:989,-1.12193,1.64797,-9.63251,-9.27742,-6.47574,86.0297
2023-02-16 22:07:12:999,-1.11984,1.63314,-9.61217,-9.27709,-6.47187,86.0365
2023-02-16 22:07:13:9,-1.10613,1.60907,-9.57267,-9.27884,-6.47056,86.0422
2023-02-16 22:07:13:19,-1.11847,1.59295,-9.55777,-9.27904,-6.46728,86.0474
2023-02-16 22:07:13:29,-1.10643,1.59398,-9.54936,-9.28344,-6.46649,86.0523
2023-02-16 22:07:13:39,-1.06534,1.56947,-9.54959,-9.2858,-6.46821,86.0505
2023-02-16 22:07:13:49,-1.01103,1.54184,-9.5587,-9.28664,-6.4672,86.0475
2023-02-16 22:07:13:59,-0.971664,1.53036,-9.57381,-9.29244,-6.46896,86.0417
2023-02-16 22:07:13:70,-0.99187,1.53364,-9.56323,-9.30188,-6.47461,86.0422
2023-02-16 22:07:13:79,-0.996109,1.53592,-9.55841,-9.3106,-6.48238,86.0475
2023-02-16 22:07:13:89,-0.991856,1.53913,-9.57843,-9.32336,-6.49162,86.0541
2023-02-16 22:07:13:99,-0.988021,1.53128,-9.58915,-9.33497,-6.49991,86.0657
2023-02-16 22:07:13:110,-1.00091,1.5423,-9.59353,-9.35297,-6.50972,86.0808
2023-02-16 22:07:13:119,-1.04026,1.5417,-9.59588,-9.36563,-6.52243,86.101
2023-02-16 22:07:13:129,-1.08303,1.55718,-9.59153,-9.38278,-6.53556,86.1214
2023-02-16 22:07:13:139,-1.13114,1.56078,-9.60111,-9.40298,-6.55123,86.1447
2023-02-16 22:07:13:149,-1.13791,1.55262,-9.58866,-9.41841,-6.56375,86.1725
2023-02-16 22:07:13:159,-1.13963,1.56075,-9.56345,-9.43365,-6.57032,86.2029
2023-02-16 22:07:13:169,-1.14876,1.57416,-9.56967,-9.4515,-6.5759,86.2296
2023-02-16 22:07:13:179,-1.16392,1.61259,-9.59648,-9.4742,-6.58585,86.261
2023-02-16 22:07:13:189,-1.17159,1.63102,-9.62872,-9.49024,-6.59057,86.2897
2023-02-16 22:07:13:199,-1.18254,1.64714,-9.62714,-9.50384,-6.59333,86.3188
2023-02-16 22:07:13:209,-1.18337,1.64888,-9.62008,-9.51627,-6.59558,86.3465
2023-02-16 22:07:13:219,-1.17777,1.65064,-9.61024,-9.5269,-6.59692,86.3703
2023-02-16 22:07:13:229,-1.17794,1.64911,-9.59084,-9.5365,-6.59783,86.3937
2023-02-16 22:07:13:239,-1.18306,1.64888,-9.57788,-9.54359,-6.59592,86.4126
2023-02-16 22:07:13:249,-1.19254,1.65552,-9.57993,-9.55085,-6.59187,86.4298
2023-02-16 22:07:13:259,-1.18959,1.65605,-9.58361,-9.55692,-6.59089,86.4406
2023-02-16 22:07:13:269,-1.17135,1.66555,-9.58953,-9.56149,-6.58607,86.452
2023-02-16 22:07:13:279,-1.16573,1.66821,-9.60949,-9.56613,-6.58102,86.4607
2023-02-16 22:07:13:289,-1.16565,1.67054,-9.63028,-9.56802,-6.57574,86.4662
2023-02-16 22:07:13:299,-1.17058,1.67019,-9.63388,-9.56979,-6.57013,86.4685
2023-02-16 22:07:13:309,-1.15046,1.65046,-9.60453,-9.56678,-6.56126,86.4684
2023-02-16 22:07:13:319,-1.10821,1.6393,-9.58812,-9.56193,-6.55171,86.4639
2023-02-16 22:07:13:329,-1.07597,1.61728,-9.56545,-9.55592,-6.54635,86.46
2023-02-16 22:07:13:339,-1.06065,1.5908,-9.52847,-9.55122,-6.53913,86.4558
2023-02-16 22:07:13:349,-1.04717,1.58022,-9.51834,-9.54566,-6.53449,86.4529
2023-02-16 22:07:13:359,-1.03539,1.58674,-9.55168,-9.54725,-6.52797,86.4519
2023-02-16 22:07:13:369,-1.03546,1.59663,-9.6193,-9.54708,-6.5261,86.4498
2023-02-16 22:07:13:379,-1.01396,1.60391,-9.65397,-9.54433,-6.51835,86.4484
2023-02-16 22:07:13:389,-0.986981,1.59777,-9.63109,-9.54107,-6.51476,86.4487
2023-02-16 22:07:13:399,-0.973778,1.57465,-9.59435,-9.53661,-6.51694,86.4535
2023-02-16 22:07:13:409,-0.994435,1.55958,-9.56192,-9.53658,-6.5206,86.465
2023-02-16 22:07:13:419,-1.04527,1.58191,-9.55379,-9.54215,-6.52735,86.4817
2023-02-16 22:07:13:429,-1.08144,1.60603,-9.55329,-9.54944,-6.53396,86.4975
2023-02-16 22:07:13:439,-1.08472,1.62331,-9.54677,-9.55911,-6.53779,86.5157
2023-02-16 22:07:13:449,-1.09105,1.62228,-9.54418,-9.57115,-6.54393,86.5335
2023-02-16 22:07:13:459,-1.0891,1.63377,-9.54248,-9.58348,-6.54817,86.5579
2023-02-16 22:07:13:469,-1.0907,1.63941,-9.55929,-9.60414,-6.55209,86.5805
2023-02-16 22:07:13:479,-1.12515,1.66527,-9.55134,-9.61994,-6.55447,86.6025
2023-02-16 22:07:13:489,-1.14475,1.67044,-9.56545,-9.63233,-6.55705,86.6272
2023-02-16 22:07:13:499,-1.16108,1.66011,-9.55371,-9.64535,-6.56041,86.6451
2023-02-16 22:07:13:509,-1.16841,1.65534,-9.54769,-9.65401,-6.56024,86.6613
2023-02-16 22:07:13:519,-1.18282,1.65693,-9.54794,-9.66349,-6.56297,86.676
2023-02-16 22:07:13:529,-1.1845,1.66549,-9.53993,-9.67146,-6.56521,86.6877
2023-02-16 22:07:13:539,-1.16055,1.66823,-9.53963,-9.67996,-6.56545,86.6952
2023-02-16 22:07:13:549,-1.1508,1.65582,-9.56945,-9.69212,-6.5625,86.7002
2023-02-16 22:07:13:559,-1.13081,1.66119,-9.58098,-9.70699,-6.56229,86.704
2023-02-16 22:07:13:569,-1.08445,1.6639,-9.57482,-9.71928,-6.56063,86.7036
2023-02-16 22:07:13:579,-1.04546,1.65899,-9.56927,-9.73449,-6.55556,86.7014
2023-02-16 22:07:13:589,-1.04179,1.67122,-9.57367,-9.74917,-6.55221,86.7021
2023-02-16 22:07:13:599,-1.06079,1.68231,-9.60072,-9.76528,-6.54865,86.7027
2023-02-16 22:07:13:609,-1.05149,1.7218,-9.63664,-9.78251,-6.54353,86.7016
2023-02-16 22:07:13:619,-1.04373,1.71481,-9.64877,-9.79274,-6.54067,86.7042
2023-02-16 22:07:13:629,-1.03805,1.691,-9.61804,-9.79923,-6.54186,86.7056
2023-02-16 22:07:13:639,-1.04732,1.67866,-9.57601,-9.8053,-6.54552,86.7101
2023-02-16 22:07:13:649,-1.08178,1.67909,-9.58084,-9.80795,-6.54949,86.7136
2023-02-16 22:07:13:659,-1.11353,1.67626,-9.59186,-9.8121,-6.55425,86.7188
2023-02-16 22:07:13:669,-1.12806,1.68193,-9.5945,-9.8194,-6.55505,86.7225
2023-02-16 22:07:13:679,-1.12731,1.67568,-9.57362,-9.82053,-6.55964,86.7251
2023-02-16 22:07:13:689,-1.10085,1.66843,-9.56899,-9.82387,-6.56375,86.7253
2023-02-16 22:07:13:699,-1.08622,1.67285,-9.57792,-9.8275,-6.56318,86.7249
2023-02-16 22:07:13:709,-1.06669,1.68365,-9.58151,-9.82762,-6.56373,86.726
2023-02-16 22:07:13:719,-1.05566,1.6794,-9.58291,-9.82919,-6.56709,86.7268
2023-02-16 22:07:13:729,-1.0617,1.67132,-9.57987,-9.83202,-6.57199,86.7298
2023-02-16 22:07:13:739,-1.06028,1.67379,-9.57227,-9.83045,-6.5772,86.7302
2023-02-16 22:07:13:749,-1.06587,1.66586,-9.5613,-9.83069,-6.58176,86.7333
2023-02-16 22:07:13:759,-1.07193,1.66235,-9.55741,-9.83003,-6.5861,86.7409
2023-02-16 22:07:13:769,-1.08535,1.64331,-9.58363,-9.83502,-6.59533,86.7467
2023-02-16 22:07:13:779,-1.10585,1.65219,-9.58492,-9.83826,-6.59988,86.7596
2023-02-16 22:07:13:789,-1.12002,1.6607,-9.59155,-9.84322,-6.6044,86.77
2023-02-16 22:07:13:799,-1.12834,1.66125,-9.58408,-9.8467,-6.6083,86.7831
2023-02-16 22:07:13:809,-1.12828,1.66719,-9.58249,-9.84954,-6.61594,86.7946
2023-02-16 22:07:13:819,-1.11155,1.66228,-9.58654,-9.85099,-6.6201,86.809
2023-02-16 22:07:13:829,-1.11481,1.66692,-9.5767,-9.85355,-6.62229,86.821
2023-02-16 22:07:13:839,-1.11514,1.6661,-9.57913,-9.85948,-6.62724,86.8332
2023-02-16 22:07:13:849,-1.11473,1.65645,-9.5631,-9.85954,-6.62824,86.8474
2023-02-16 22:07:13:859,-1.12583,1.65264,-9.54519,-9.86385,-6.63407,86.8611
2023-02-16 22:07:13:869,-1.13701,1.65886,-9.52952,-9.86772,-6.63371,86.8768
2023-02-16 22:07:13:879,-1.12894,1.67737,-9.53092,-9.87247,-6.6347,86.8909
2023-02-16 22:07:13:889,-1.12329,1.68577,-9.55383,-9.88289,-6.63571,86.9052
2023-02-16 22:07:13:899,-1.12201,1.6873,-9.56423,-9.89409,-6.63677,86.9206
2023-02-16 22:07:13:909,-1.13686,1.69763,-9.5535,-9.8984,-6.63533,86.9358
2023-02-16 22:07:13:919,-1.12604,1.70737,-9.54993,-9.90874,-6.63502,86.9499
2023-02-16 22:07:13:929,-1.12304,1.71385,-9.55218,-9.91815,-6.63367,86.9628
2023-02-16 22:07:13:939,-1.12626,1.71255,-9.55361,-9.92505,-6.62944,86.9783
2023-02-16 22:07:13:949,-1.12668,1.7026,-9.55379,-9.93178,-6.6289,86.9909
2023-02-16 22:07:13:959,-1.12486,1.68709,-9.55909,-9.93593,-6.63086,87.0026
2023-02-16 22:07:13:969,-1.12916,1.71681,-9.58233,-9.94298,-6.6336,87.0151
2023-02-16 22:07:13:979,-1.13679,1.73157,-9.60147,-9.94983,-6.6349,87.0242
2023-02-16 22:07:13:989,-1.14288,1.74031,-9.60259,-9.95183,-6.63532,87.0313
2023-02-16 22:07:13:999,-1.13963,1.74557,-9.62651,-9.95125,-6.63481,87.0359
2023-02-16 22:07:14:9,-1.13508,1.74724,-9.59669,-9.95108,-6.63454,87.0412
2023-02-16 22:07:14:19,-1.11912,1.73254,-9.58218,-9.94712,-6.63329,87.0473
2023-02-16 22:07:14:29,-1.10587,1.71229,-9.55779,-9.94614,-6.63207,87.0537
2023-02-16 22:07:14:39,-1.08796,1.6898,-9.53758,-9.94184,-6.63191,87.0541
2023-02-16 22:07:14:49,-1.07781,1.68507,-9.5382,-9.93996,-6.63308,87.0577
2023-02-16 22:07:14:59,-1.08047,1.67118,-9.52983,-9.93704,-6.63012,87.0601
2023-02-16 22:07:14:69,-1.07503,1.67357,-9.56422,-9.93354,-6.62912,87.0619
2023-02-16 22:07:14:79,-1.07353,1.69731,-9.61394,-9.93161,-6.62489,87.0664
2023-02-16 22:07:14:89,-1.04575,1.69669,-9.654,-9.92788,-6.62301,87.0701
2023-02-16 22:07:14:99,-1.03428,1.67505,-9.63316,-9.92322,-6.62902,87.076
2023-02-16 22:07:14:109,-1.05632,1.66319,-9.6,-9.91813,-6.63425,87.0854
2023-02-16 22:07:14:119,-1.0987,1.67223,-9.56982,-9.91492,-6.64332,87.0956
2023-02-16 22:07:14:129,-1.13439,1.68393,-9.55668,-9.91951,-6.65226,87.1066
2023-02-16 22:07:14:139,-1.13658,1.70926,-9.55808,-9.92242,-6.66231,87.1173
2023-02-16 22:07:14:149,-1.15522,1.73154,-9.54801,-9.92689,-6.67143,87.1243
2023-02-16 22:07:14:159,-1.15443,1.73959,-9.53241,-9.93083,-6.67954,87.1325
2023-02-16 22:07:14:169,-1.14893,1.73316,-9.54582,-9.93383,-6.68805,87.1429
2023-02-16 22:07:14:179,-1.15335,1.72356,-9.55359,-9.93294,-6.69735,87.1481
2023-02-16 22:07:14:189,-1.15702,1.72795,-9.5341,-9.93185,-6.70063,87.1544
2023-02-16 22:07:14:199,-1.15603,1.71903,-9.5266,-9.93149,-6.70669,87.1619
2023-02-16 22:07:14:209,-1.14755,1.70584,-9.53328,-9.92754,-6.70996,87.1616
2023-02-16 22:07:14:219,-1.13088,1.68722,-9.5569,-9.92787,-6.71074,87.1641
2023-02-16 22:07:14:229,-1.11453,1.66966,-9.55868,-9.92539,-6.71154,87.1653
2023-02-16 22:07:14:239,-1.12756,1.6557,-9.55969,-9.92573,-6.71266,87.1656
2023-02-16 22:07:14:249,-1.1351,1.67296,-9.57585,-9.92584,-6.71396,87.166
2023-02-16 22:07:14:259,-1.12931,1.68902,-9.58387,-9.93029,-6.7097,87.1639
2023-02-16 22:07:14:269,-1.11368,1.69778,-9.57165,-9.93164,-6.71278,87.1619
2023-02-16 22:07:14:279,-1.12172,1.67286,-9.5488,-9.933,-6.71347,87.1606
2023-02-16 22:07:14:289,-1.1329,1.66866,-9.5528,-9.93693,-6.71203,87.1609
2023-02-16 22:07:14:299,-1.14729,1.67083,-9.57157,-9.94355,-6.70905,87.1595
2023-02-16 22:07:14:309,-1.13423,1.69983,-9.5863,-9.94849,-6.70545,87.1558
2023-02-16 22:07:14:319,-1.06102,1.69696,-9.60759,-9.94971,-6.69965,87.1488
2023-02-16 22:07:14:329,-1.03023,1.67003,-9.57872,-9.95084,-6.69709,87.1483
2023-02-16 22:07:14:339,-1.04993,1.65109,-9.53873,-9.95301,-6.69927,87.1525
2023-02-16 22:07:14:349,-1.08948,1.65722,-9.54184,-9.95843,-6.69987,87.157
2023-02-16 22:07:14:359,-1.12928,1.68988,-9.56617,-9.96469,-6.70505,87.1597
2023-02-16 22:07:14:369,-1.14219,1.69861,-9.58718,-9.97209,-6.71125,87.1605
2023-02-16 22:07:14:379,-1.13808,1.70269,-9.57191,-9.97677,-6.71806,87.1589
2023-02-16 22:07:14:389,-1.12681,1.69303,-9.5683,-9.97953,-6.72634,87.1593
2023-02-16 22:07:14:399,-1.12817,1.69892,-9.58406,-9.98013,-6.73049,87.1577
2023-02-16 22:07:14:409,-1.11654,1.71034,-9.60014,-9.97966,-6.73591,87.1546
2023-02-16 22:07:14:419,-1.10189,1.71981,-9.59036,-9.98027,-6.74263,87.154
2023-02-16 22:07:14:429,-1.08714,1.70597,-9.57632,-9.9784,-6.74956,87.1507
2023-02-16 22:07:14:439,-1.0696,1.68848,-9.56854,-9.97739,-6.75444,87.1475
2023-02-16 22:07:14:449,-1.0695,1.69543,-9.5926,-9.97643,-6.76187,87.148
2023-02-16 22:07:14:459,-1.08026,1.69332,-9.59532,-9.97162,-6.77007,87.1471
2023-02-16 22:07:14:469,-1.08749,1.69382,-9.58218,-9.96451,-6.7774,87.1533
2023-02-16 22:07:14:479,-1.11556,1.6926,-9.58301,-9.96093,-6.78434,87.1632
2023-02-16 22:07:14:489,-1.12892,1.69419,-9.58361,-9.95649,-6.79775,87.1715
2023-02-16 22:07:14:499,-1.15396,1.68875,-9.57058,-9.95251,-6.80913,87.1803
2023-02-16 22:07:14:509,-1.17277,1.67327,-9.55984,-9.94943,-6.82114,87.1873
2023-02-16 22:07:14:519,-1.19931,1.67352,-9.54715,-9.94682,-6.83168,87.1979
2023-02-16 22:07:14:529,-1.20983,1.67303,-9.54768,-9.94452,-6.84271,87.2113
2023-02-16 22:07:14:539,-1.20137,1.67483,-9.55346,-9.94271,-6.85227,87.2175
2023-02-16 22:07:14:549,-1.19303,1.67457,-9.54641,-9.941,-6.85744,87.2229
2023-02-16 22:07:14:559,-1.2024,1.6688,-9.52454,-9.94253,-6.86434,87.2322
2023-02-16 22:07:14:569,-1.21129,1.66884,-9.51827,-9.9434,-6.87058,87.239
2023-02-16 22:07:14:579,-1.21081,1.67158,-9.52754,-9.944,-6.87316,87.2483
2023-02-16 22:07:14:589,-1.2005,1.66942,-9.5166,-9.94515,-6.87695,87.2532
2023-02-16 22:07:14:599,-1.18613,1.67593,-9.52587,-9.95018,-6.87506,87.256
2023-02-16 22:07:14:609,-1.16627,1.6785,-9.54711,-9.95897,-6.8738,87.2601
2023-02-16 22:07:14:619,-1.16264,1.68539,-9.54913,-9.96392,-6.87384,87.2597
2023-02-16 22:07:14:629,-1.18474,1.71159,-9.54823,-9.97333,-6.87797,87.2661
2023-02-16 22:07:14:639,-1.18763,1.71096,-9.56807,-9.97969,-6.88057,87.2671
2023-02-16 22:07:14:649,-1.17866,1.71988,-9.55563,-9.98685,-6.87996,87.2685
2023-02-16 22:07:14:659,-1.18864,1.72399,-9.56342,-9.99278,-6.87939,87.2699
2023-02-16 22:07:14:669,-1.18173,1.72099,-9.58896,-9.99845,-6.87928,87.2699
2023-02-16 22:07:14:679,-1.18463,1.72975,-9.60521,-10.0035,-6.87855,87.2684
2023-02-16 22:07:14:689,-1.18731,1.74789,-9.61371,-10.007,-6.87528,87.2683
2023-02-16 22:07:14:699,-1.17692,1.73331,-9.6027,-10.0036,-6.87674,87.269
2023-02-16 22:07:14:709,-1.16466,1.71633,-9.5909,-10.0009,-6.87042,87.2652
2023-02-16 22:07:14:719,-1.158,1.72089,-9.54449,-9.99466,-6.8642,87.2616
2023-02-16 22:07:14:729,-1.15998,1.71932,-9.53104,-9.99094,-6.86084,87.2583
2023-02-16 22:07:14:739,-1.14831,1.70922,-9.56114,-9.98836,-6.85495,87.2537
2023-02-16 22:07:14:749,-1.12071,1.70796,-9.57084,-9.98642,-6.85267,87.2499
2023-02-16 22:07:14:759,-1.10977,1.69328,-9.594,-9.98386,-6.84659,87.2459
2023-02-16 22:07:14:769,-1.1008,1.70629,-9.63198,-9.98012,-6.84233,87.2427
2023-02-16 22:07:14:779,-1.07433,1.70212,-9.62371,-9.97372,-6.83984,87.2371
2023-02-16 22:07:14:789,-1.03184,1.6704,-9.57051,-9.96162,-6.84293,87.2288
2023-02-16 22:07:14:799,-1.02514,1.64311,-9.54382,-9.95449,-6.84443,87.2296
2023-02-16 22:07:14:809,-1.04352,1.64686,-9.5357,-9.95325,-6.85085,87.2336
2023-02-16 22:07:14:819,-1.08236,1.65936,-9.54437,-9.96134,-6.86174,87.2425
2023-02-16 22:07:14:829,-1.11591,1.68651,-9.55657,-9.96834,-6.87567,87.2512
2023-02-16 22:07:14:839,-1.13554,1.71166,-9.55803,-9.97643,-6.88944,87.2619
2023-02-16 22:07:14:849,-1.14814,1.71363,-9.54152,-9.98312,-6.90059,87.2754
2023-02-16 22:07:14:859,-1.17114,1.7271,-9.53023,-9.99519,-6.91318,87.2894
2023-02-16 22:07:14:869,-1.21606,1.74237,-9.52245,-10.0046,-6.92313,87.3032
2023-02-16 22:07:14:879,-1.26017,1.75223,-9.53007,-10.0128,-6.93323,87.3144
2023-02-16 22:07:14:889,-1.25792,1.76076,-9.55668,-10.02,-6.94345,87.3277
2023-02-16 22:07:14:899,-1.23853,1.75149,-9.57461,-10.024,-6.95088,87.3383
2023-02-16 22:07:14:909,-1.23889,1.73702,-9.57007,-10.0236,-6.94952,87.3427
2023-02-16 22:07:14:919,-1.24507,1.72487,-9.54454,-10.0222,-6.95161,87.3471
2023-02-16 22:07:14:929,-1.26226,1.71512,-9.53855,-10.0183,-6.95269,87.3479
2023-02-16 22:07:14:939,-1.26393,1.71472,-9.54908,-10.0154,-6.95084,87.348
2023-02-16 22:07:14:949,-1.25854,1.71609,-9.55848,-10.0106,-6.94421,87.348
2023-02-16 22:07:14:959,-1.2433,1.71986,-9.53853,-10.0096,-6.93536,87.3411
2023-02-16 22:07:14:969,-1.21262,1.69991,-9.5282,-10.0098,-6.92782,87.3327
2023-02-16 22:07:14:979,-1.21257,1.7186,-9.53804,-10.014,-6.91835,87.3214
2023-02-16 22:07:14:989,-1.23616,1.73154,-9.55262,-10.0225,-6.90963,87.3102
2023-02-16 22:07:14:999,-1.2437,1.77905,-9.59701,-10.031,-6.8947,87.2975
2023-02-16 22:07:15:9,-1.17793,1.78277,-9.61882,-10.0319,-6.8801,87.2805
2023-02-16 22:07:15:19,-1.09811,1.74283,-9.60338,-10.028,-6.86454,87.2592
2023-02-16 22:07:15:29,-1.06772,1.72081,-9.58095,-10.0226,-6.84581,87.237
2023-02-16 22:07:15:39,-1.08351,1.72901,-9.58804,-10.0183,-6.83217,87.2208
2023-02-16 22:07:15:49,-1.11417,1.75197,-9.59181,-10.0116,-6.82119,87.2063
2023-02-16 22:07:15:59,-1.11302,1.74553,-9.59545,-10.0051,-6.80633,87.1924
2023-02-16 22:07:15:69,-1.07453,1.72131,-9.5986,-9.99645,-6.79464,87.1801
2023-02-16 22:07:15:79,-1.04339,1.70415,-9.58951,-9.98726,-6.78225,87.1652
2023-02-16 22:07:15:89,-1.04423,1.69356,-9.57102,-9.97456,-6.76927,87.1584
2023-02-16 22:07:15:99,-1.05647,1.69621,-9.5489,-9.96563,-6.7551,87.1531
2023-02-16 22:07:15:109,-1.08124,1.68547,-9.54648,-9.95625,-6.74277,87.1517
2023-02-16 22:07:15:119,-1.10017,1.68132,-9.56371,-9.95269,-6.72874,87.1503
2023-02-16 22:07:15:129,-1.09618,1.69354,-9.57989,-9.95024,-6.72425,87.1507
2023-02-16 22:07:15:139,-1.10204,1.69524,-9.57812,-9.9471,-6.72156,87.1509
2023-02-16 22:07:15:149,-1.10944,1.67524,-9.57251,-9.94089,-6.7185,87.1489
2023-02-16 22:07:15:159,-1.09915,1.67339,-9.56246,-9.93405,-6.71602,87.1492
2023-02-16 22:07:15:169,-1.08071,1.67261,-9.56176,-9.92707,-6.71939,87.1495
2023-02-16 22:07:15:179,-1.0813,1.65984,-9.54327,-9.92525,-6.72295,87.1529
2023-02-16 22:07:15:189,-1.09758,1.63988,-9.54226,-9.92269,-6.72502,87.1564
2023-02-16 22:07:15:199,-1.10757,1.64565,-9.5516,-9.92028,-6.73154,87.1591
2023-02-16 22:07:15:209,-1.11422,1.65956,-9.56791,-9.92467,-6.73315,87.1641
2023-02-16 22:07:15:219,-1.12377,1.67505,-9.59622,-9.9256,-6.73908,87.1687
2023-02-16 22:07:15:229,-1.12944,1.68784,-9.58997,-9.92408,-6.74543,87.1732
2023-02-16 22:07:15:239,-1.11793,1.68163,-9.58438,-9.9191,-6.74941,87.1816
2023-02-16 22:07:15:249,-1.10753,1.67029,-9.59061,-9.91518,-6.75674,87.1896
2023-02-16 22:07:15:259,-1.11971,1.67582,-9.58929,-9.90946,-6.76271,87.1974
2023-02-16 22:07:15:269,-1.13712,1.67496,-9.58537,-9.90911,-6.76777,87.2075
2023-02-16 22:07:15:279,-1.14349,1.68044,-9.57226,-9.90581,-6.77859,87.2164
2023-02-16 22:07:15:289,-1.12518,1.68663,-9.5711,-9.90101,-6.78632,87.2222
2023-02-16 22:07:15:299,-1.13782,1.67685,-9.55923,-9.89823,-6.79508,87.2264
2023-02-16 22:07:15:309,-1.14227,1.66232,-9.54191,-9.89586,-6.8044,87.2359
2023-02-16 22:07:15:319,-1.14709,1.6553,-9.52528,-9.89081,-6.81289,87.2407
2023-02-16 22:07:15:329,-1.15995,1.64773,-9.54068,-9.89205,-6.82002,87.2472
2023-02-16 22:07:15:339,-1.1756,1.66985,-9.56084,-9.89144,-6.8266,87.2539
2023-02-16 22:07:15:349,-1.17912,1.69147,-9.5631,-9.89246,-6.83136,87.2599
2023-02-16 22:07:15:359,-1.18693,1.67526,-9.55515,-9.89249,-6.8387,87.2639
2023-02-16 22:07:15:369,-1.18713,1.67579,-9.54849,-9.89047,-6.84449,87.2678
2023-02-16 22:07:15:379,-1.17809,1.66862,-9.57354,-9.88683,-6.84807,87.2715
2023-02-16 22:07:15:389,-1.17961,1.67629,-9.59921,-9.88672,-6.84481,87.2765
2023-02-16 22:07:15:399,-1.19354,1.68737,-9.58029,-9.88631,-6.84334,87.2847
2023-02-16 22:07:15:409,-1.1889,1.67007,-9.57642,-9.88467,-6.83676,87.2844
2023-02-16 22:07:15:419,-1.17569,1.67099,-9.5631,-9.88149,-6.83227,87.2882
2023-02-16 22:07:15:429,-1.15101,1.66882,-9.55474,-9.87447,-6.82008,87.2868
2023-02-16 22:07:15:439,-1.13312,1.65645,-9.55965,-9.87219,-6.81179,87.2845
2023-02-16 22:07:15:449,-1.1049,1.65103,-9.55545,-9.86952,-6.80026,87.2826
2023-02-16 22:07:15:459,-1.08856,1.64776,-9.55609,-9.8664,-6.79129,87.2813
2023-02-16 22:07:15:469,-1.07416,1.65944,-9.60062,-9.86669,-6.78424,87.28
2023-02-16 22:07:15:479,-1.05934,1.67631,-9.62764,-9.86421,-6.77783,87.2769
2023-02-16 22:07:15:489,-1.0173,1.6589,-9.62206,-9.85751,-6.77592,87.2785
2023-02-16 22:07:15:499,-1.00784,1.63185,-9.59557,-9.85108,-6.77933,87.2792
2023-02-16 22:07:15:509,-1.02742,1.6202,-9.56673,-9.85201,-6.78712,87.2899
2023-02-16 22:07:15:519,-1.08513,1.63344,-9.55078,-9.85497,-6.79475,87.2999
2023-02-16 22:07:15:529,-1.11006,1.65877,-9.55121,-9.85951,-6.8021,87.3089
2023-02-16 22:07:15:539,-1.12377,1.67535,-9.55213,-9.86653,-6.81296,87.3224
2023-02-16 22:07:15:549,-1.12778,1.68052,-9.5461,-9.87748,-6.82323,87.337
2023-02-16 22:07:15:559,-1.13693,1.68118,-9.54236,-9.88297,-6.83031,87.349
2023-02-16 22:07:15:569,-1.16117,1.70768,-9.53543,-9.89215,-6.83624,87.3663
2023-02-16 22:07:15:579,-1.19125,1.71646,-9.53921,-9.90076,-6.84114,87.3821
2023-02-16 22:07:15:589,-1.21413,1.71101,-9.52734,-9.9066,-6.84116,87.3977
2023-02-16 22:07:15:599,-1.20398,1.70314,-9.52068,-9.91065,-6.8413,87.4101
2023-02-16 22:07:15:609,-1.2118,1.69738,-9.53866,-9.91581,-6.84168,87.4216
2023-02-16 22:07:15:619,-1.22695,1.69878,-9.56383,-9.92053,-6.84099,87.4281
2023-02-16 22:07:15:629,-1.23498,1.67895,-9.55724,-9.92404,-6.83802,87.433
2023-02-16 22:07:15:639,-1.21093,1.6775,-9.54831,-9.92725,-6.83526,87.4375
2023-02-16 22:07:15:649,-1.19965,1.67785,-9.5662,-9.9325,-6.82971,87.4359
2023-02-16 22:07:15:659,-1.1688,1.67677,-9.58323,-9.94185,-6.82283,87.4338
2023-02-16 22:07:15:669,-1.1449,1.68512,-9.56227,-9.95219,-6.81334,87.4304
2023-02-16 22:07:15:679,-1.11068,1.68347,-9.55863,-9.96406,-6.80838,87.4243
2023-02-16 22:07:15:689,-1.11271,1.72128,-9.58364,-9.97862,-6.80318,87.4224
2023-02-16 22:07:15:699,-1.13407,1.75751,-9.6038,-9.9937,-6.79857,87.4244
2023-02-16 22:07:15:709,-1.11824,1.77823,-9.62168,-10.0041,-6.79178,87.4255
2023-02-16 22:07:15:719,-1.05703,1.76245,-9.63402,-10.0141,-6.78505,87.4247
2023-02-16 22:07:15:729,-1.0362,1.74061,-9.60848,-10.0146,-6.77872,87.4205
2023-02-16 22:07:15:739,-1.05216,1.73448,-9.58653,-10.0173,-6.77444,87.4256
2023-02-16 22:07:15:749,-1.08886,1.71493,-9.58344,-10.0174,-6.77558,87.4318
2023-02-16 22:07:15:759,-1.13834,1.70262,-9.58643,-10.0148,-6.77944,87.4425
2023-02-16 22:07:15:769,-1.14897,1.70486,-9.57546,-10.014,-6.77971,87.4534
2023-02-16 22:07:15:779,-1.15082,1.70367,-9.56505,-10.011,-6.77964,87.4613
2023-02-16 22:07:15:789,-1.13794,1.68553,-9.55618,-10.0091,-6.77832,87.4654
2023-02-16 22:07:15:799,-1.13269,1.6862,-9.56419,-10.0088,-6.77914,87.4723
2023-02-16 22:07:15:809,-1.1316,1.69536,-9.57203,-10.0087,-6.78284,87.4719
2023-02-16 22:07:15:819,-1.12351,1.71389,-9.55996,-10.0101,-6.78665,87.4733
2023-02-16 22:07:15:829,-1.10793,1.71815,-9.57078,-10.01,-6.78875,87.4747
2023-02-16 22:07:15:839,-1.1079,1.71471,-9.56987,-10.0074,-6.79411,87.4738
2023-02-16 22:07:15:849,-1.10534,1.71067,-9.55315,-10.008,-6.79827,87.4778
2023-02-16 22:07:15:859,-1.10701,1.69351,-9.54315,-10.0096,-6.80297,87.4815
2023-02-16 22:07:15:869,-1.10657,1.67813,-9.55192,-10.0105,-6.80925,87.4883
2023-02-16 22:07:15:879,-1.11322,1.68372,-9.54393,-10.0096,-6.8151,87.494
2023-02-16 22:07:15:889,-1.12348,1.69271,-9.55263,-10.0115,-6.82359,87.5045
2023-02-16 22:07:15:899,-1.13503,1.69474,-9.56859,-10.0131,-6.82981,87.5139
2023-02-16 22:07:15:909,-1.12228,1.71076,-9.56036,-10.0185,-6.83619,87.5252
2023-02-16 22:07:15:919,-1.14543,1.71376,-9.55575,-10.023,-6.83876,87.5342
2023-02-16 22:07:15:929,-1.17269,1.70196,-9.56547,-10.0278,-6.84303,87.5451
2023-02-16 22:07:15:939,-1.19557,1.70951,-9.55301,-10.0284,-6.8497,87.5543
2023-02-16 22:07:15:949,-1.2088,1.70437,-9.56316,-10.0313,-6.85616,87.5673
2023-02-16 22:07:15:959,-1.20951,1.71819,-9.55932,-10.0365,-6.86054,87.575
2023-02-16 22:07:15:969,-1.21171,1.72089,-9.56207,-10.0395,-6.8662,87.5818
2023-02-16 22:07:15:979,-1.21288,1.71239,-9.55293,-10.0405,-6.86915,87.5873
2023-02-16 22:07:15:989,-1.20938,1.69702,-9.55037,-10.0428,-6.87016,87.5898
2023-02-16 22:07:15:999,-1.18466,1.71408,-9.55324,-10.0408,-6.86876,87.5905
2023-02-16 22:07:16:9,-1.16406,1.71498,-9.55134,-10.0456,-6.86377,87.5919
2023-02-16 22:07:16:19,-1.15792,1.71212,-9.53849,-10.0509,-6.86541,87.5896
2023-02-16 22:07:16:29,-1.16516,1.71501,-9.54817,-10.0523,-6.86773,87.5887
2023-02-16 22:07:16:39,-1.15424,1.72306,-9.55449,-10.0555,-6.86749,87.5866
2023-02-16 22:07:16:49,-1.13823,1.71099,-9.55159,-10.0553,-6.86478,87.5833
2023-02-16 22:07:16:59,-1.13503,1.71403,-9.55261,-10.059,-6.86285,87.5833
2023-02-16 22:07:16:69,-1.12182,1.71921,-9.57785,-10.0622,-6.86122,87.5804
2023-02-16 22:07:16:79,-1.1087,1.72528,-9.58225,-10.0646,-6.86566,87.5738
2023-02-16 22:07:16:89,-1.10744,1.72171,-9.578,-10.067,-6.86563,87.5731
2023-02-16 22:07:16:99,-1.11465,1.72115,-9.58652,-10.0672,-6.8681,87.5699
2023-02-16 22:07:16:109,-1.11065,1.72502,-9.58495,-10.0678,-6.87217,87.5713
2023-02-16 22:07:16:119,-1.10882,1.73507,-9.59072,-10.0691,-6.87291,87.5739
2023-02-16 22:07:16:129,-1.10004,1.72848,-9.58396,-10.0665,-6.8758,87.5773
2023-02-16 22:07:16:139,-1.09387,1.71337,-9.59897,-10.06,-6.87808,87.5828
2023-02-16 22:07:16:149,-1.10117,1.72227,-9.58895,-10.0585,-6.88158,87.5891
2023-02-16 22:07:16:159,-1.12119,1.70645,-9.55896,-10.0494,-6.88342,87.5969
2023-02-16 22:07:16:169,-1.13312,1.69297,-9.54058,-10.0438,-6.88801,87.6054
2023-02-16 22:07:16:179,-1.13577,1.67861,-9.53058,-10.0348,-6.89044,87.6154
2023-02-16 22:07:16:189,-1.1437,1.68261,-9.50082,-10.0289,-6.89344,87.6205
2023-02-16 22:07:16:199,-1.15821,1.6745,-9.50127,-10.0259,-6.89734,87.6312
2023-02-16 22:07:16:209,-1.18076,1.6525,-9.52479,-10.0264,-6.89784,87.639
2023-02-16 22:07:16:219,-1.19741,1.67491,-9.56003,-10.0302,-6.90187,87.6419
2023-02-16 22:07:16:229,-1.1766,1.71414,-9.64006,-10.0359,-6.90602,87.6445
2023-02-16 22:07:16:239,-1.13338,1.72386,-9.67099,-10.0386,-6.90783,87.6432
2023-02-16 22:07:16:249,-1.07754,1.68803,-9.63147,-10.0311,-6.91354,87.6386
2023-02-16 22:07:16:259,-1.07691,1.66117,-9.56942,-10.0224,-6.92204,87.6352
2023-02-16 22:07:16:269,-1.11232,1.67003,-9.55327,-10.0227,-6.93271,87.6401
2023-02-16 22:07:16:279,-1.13926,1.70542,-9.57743,-10.0273,-6.9458,87.6497
2023-02-16 22:07:16:289,-1.16404,1.73,-9.5906,-10.035,-6.95851,87.6601
2023-02-16 22:07:16:299,-1.18545,1.75297,-9.59528,-10.0424,-6.97007,87.6734
2023-02-16 22:07:16:309,-1.17812,1.76765,-9.59357,-10.0477,-6.97819,87.6879
2023-02-16 22:07:16:319,-1.19505,1.77874,-9.57827,-10.0484,-6.98483,87.6979
2023-02-16 22:07:16:329,-1.22925,1.77744,-9.5586,-10.047,-6.98736,87.7088
2023-02-16 22:07:16:339,-1.25472,1.75689,-9.55084,-10.0431,-6.99267,87.7206
2023-02-16 22:07:16:349,-1.26023,1.73869,-9.52926,-10.0357,-6.99449,87.7283
2023-02-16 22:07:16:359,-1.23679,1.71794,-9.51909,-10.0249,-6.9915,87.734
2023-02-16 22:07:16:369,-1.22582,1.70047,-9.50752,-10.0148,-6.98943,87.7351
2023-02-16 22:07:16:379,-1.23969,1.68163,-9.50801,-10.0068,-6.98919,87.7359
2023-02-16 22:07:16:389,-1.22844,1.67226,-9.51628,-10,-6.98718,87.7311
2023-02-16 22:07:16:399,-1.1925,1.65991,-9.52941,-9.99595,-6.9818,87.7239
2023-02-16 22:07:16:409,-1.16643,1.66752,-9.55277,-9.99516,-6.9743,87.7184
2023-02-16 22:07:16:419,-1.16191,1.6789,-9.56367,-9.99646,-6.97195,87.7096
2023-02-16 22:07:16:429,-1.13677,1.69082,-9.5464,-9.99809,-6.96756,87.697
2023-02-16 22:07:16:439,-1.12783,1.6827,-9.54078,-10.0036,-6.96298,87.687
2023-02-16 22:07:16:449,-1.12486,1.69138,-9.57883,-10.0109,-6.96121,87.6836
2023-02-16 22:07:16:459,-1.14459,1.71005,-9.59948,-10.0199,-6.95677,87.6818
2023-02-16 22:07:16:469,-1.12279,1.7217,-9.6091,-10.0231,-6.95016,87.6773
2023-02-16 22:07:16:479,-1.07157,1.70355,-9.59461,-10.0227,-6.94227,87.6725
2023-02-16 22:07:16:489,-1.03999,1.6824,-9.57285,-10.02,-6.93711,87.669
2023-02-16 22:07:16:499,-1.05777,1.65835,-9.55176,-10.0172,-6.93926,87.6679
2023-02-16 22:07:16:509,-1.11371,1.65748,-9.53737,-10.0183,-6.94042,87.6728
2023-02-16 22:07:16:519,-1.13844,1.67363,-9.57217,-10.022,-6.94603,87.6809
2023-02-16 22:07:16:529,-1.14226,1.68027,-9.5936,-10.0267,-6.9512,87.688
2023-02-16 22:07:16:539,-1.14241,1.67997,-9.58207,-10.0314,-6.95077,87.6927
2023-02-16 22:07:16:549,-1.16032,1.67202,-9.54118,-10.0334,-6.95165,87.6978
2023-02-16 22:07:16:559,-1.18042,1.68542,-9.50638,-10.0371,-6.95306,87.703
2023-02-16 22:07:16:569,-1.17164,1.69326,-9.51926,-10.043,-6.95595,87.707
2023-02-16 22:07:16:579,-1.16628,1.70096,-9.55093,-10.0472,-6.95642,87.712
2023-02-16 22:07:16:589,-1.16948,1.715,-9.56914,-10.0538,-6.95831,87.7158
2023-02-16 22:07:16:599,-1.18294,1.72038,-9.55661,-10.06,-6.96415,87.7189
2023-02-16 22:07:16:609,-1.20708,1.73415,-9.55853,-10.0667,-6.96727,87.7236
2023-02-16 22:07:16:619,-1.19131,1.71892,-9.5596,-10.0728,-6.9769,87.7272
2023-02-16 22:07:16:629,-1.19999,1.71109,-9.57668,-10.0781,-6.98202,87.7306
2023-02-16 22:07:16:639,-1.19276,1.71357,-9.59762,-10.0775,-6.98599,87.7311
2023-02-16 22:07:16:649,-1.1629,1.70974,-9.5984,-10.0782,-6.98984,87.7326
2023-02-16 22:07:16:659,-1.16353,1.69976,-9.58171,-10.0715,-6.99286,87.7342
2023-02-16 22:07:16:669,-1.18109,1.68836,-9.55095,-10.0701,-6.99225,87.7368
2023-02-16 22:07:16:679,-1.20248,1.68731,-9.53019,-10.0682,-6.99336,87.7456
2023-02-16 22:07:16:689,-1.20702,1.67365,-9.52471,-10.0682,-6.99099,87.749
2023-02-16 22:07:16:699,-1.21599,1.68811,-9.52908,-10.0726,-6.99067,87.7577
2023-02-16 22:07:16:709,-1.23132,1.68966,-9.55628,-10.0787,-6.98928,87.7657
2023-02-16 22:07:16:719,-1.2282,1.69539,-9.54238,-10.0823,-6.9858,87.7715
2023-02-16 22:07:16:729,-1.23152,1.70173,-9.52988,-10.0858,-6.98425,87.7752
2023-02-16 22:07:16:739,-1.23794,1.69659,-9.53084,-10.0925,-6.98141,87.7743
2023-02-16 22:07:16:749,-1.22652,1.70554,-9.53604,-10.0988,-6.97328,87.7699
2023-02-16 22:07:16:759,-1.2212,1.70087,-9.53826,-10.1031,-6.96653,87.7681
2023-02-16 22:07:16:769,-1.21326,1.69754,-9.53313,-10.1086,-6.95925,87.7642
2023-02-16 22:07:16:779,-1.18659,1.69124,-9.53167,-10.1112,-6.95222,87.7557
2023-02-16 22:07:16:789,-1.17794,1.69913,-9.5288,-10.1176,-6.94282,87.7491
2023-02-16 22:07:16:799,-1.19145,1.68636,-9.54053,-10.1262,-6.93575,87.742
2023-02-16 22:07:16:809,-1.18623,1.68507,-9.54236,-10.1361,-6.9275,87.7357
2023-02-16 22:07:16:819,-1.16366,1.67723,-9.53046,-10.1444,-6.916,87.7264
2023-02-16 22:07:16:829,-1.13794,1.67842,-9.53317,-10.1505,-6.90885,87.7171
2023-02-16 22:07:16:839,-1.12498,1.6987,-9.55467,-10.1617,-6.89941,87.7046
2023-02-16 22:07:16:849,-1.12365,1.71633,-9.57677,-10.1751,-6.88893,87.6925
2023-02-16 22:07:16:859,-1.11337,1.71454,-9.57045,-10.1902,-6.878,87.6866
2023-02-16 22:07:16:869,-1.10134,1.71967,-9.57052,-10.2041,-6.868,87.6817
2023-02-16 22:07:16:879,-1.09378,1.73209,-9.58211,-10.2178,-6.86057,87.6786
2023-02-16 22:07:16:889,-1.10086,1.74314,-9.59483,-10.2294,-6.85185,87.6762
2023-02-16 22:07:16:899,-1.12514,1.75832,-9.57956,-10.238,-6.84629,87.6776
2023-02-16 22:07:16:909,-1.12912,1.75965,-9.56289,-10.2502,-6.84005,87.6775
2023-02-16 22:07:16:919,-1.12565,1.75506,-9.5646,-10.2646,-6.83073,87.6807
2023-02-16 22:07:16:929,-1.11609,1.75231,-9.56859,-10.273,-6.82391,87.6818
2023-02-16 22:07:16:939,-1.11525,1.75817,-9.55775,-10.2807,-6.81589,87.6846
2023-02-16 22:07:16:949,-1.13752,1.75752,-9.56806,-10.2896,-6.80807,87.6857
2023-02-16 22:07:16:959,-1.14551,1.76039,-9.56938,-10.2986,-6.80188,87.6879
2023-02-16 22:07:16:969,-1.14668,1.76664,-9.55884,-10.31,-6.79587,87.6909
2023-02-16 22:07:16:979,-1.12739,1.75728,-9.55867,-10.3171,-6.78812,87.6918
2023-02-16 22:07:16:989,-1.12727,1.75774,-9.52994,-10.3225,-6.77967,87.6942
2023-02-16 22:07:16:999,-1.1321,1.74563,-9.53081,-10.3291,-6.77508,87.6944
2023-02-16 22:07:17:9,-1.12164,1.73545,-9.551,-10.3343,-6.76403,87.6935
2023-02-16 22:07:17:19,-1.11085,1.73715,-9.58017,-10.3394,-6.75559,87.693
2023-02-16 22:07:17:29,-1.09428,1.74772,-9.62503,-10.3456,-6.74642,87.6942
2023-02-16 22:07:17:39,-1.09717,1.75223,-9.63168,-10.3498,-6.74158,87.6932
2023-02-16 22:07:17:49,-1.08923,1.7269,-9.59065,-10.3513,-6.73988,87.693
2023-02-16 22:07:17:59,-1.07716,1.70764,-9.55213,-10.3538,-6.73638,87.6944
2023-02-16 22:07:17:69,-1.08921,1.72652,-9.57815,-10.3634,-6.73595,87.6957
2023-02-16 22:07:17:79,-1.13042,1.7784,-9.62562,-10.3763,-6.73719,87.6998
2023-02-16 22:07:17:89,-1.15368,1.81525,-9.60714,-10.3869,-6.73909,87.7023
2023-02-16 22:07:17:99,-1.11736,1.79909,-9.55891,-10.3905,-6.73609,87.7059
2023-02-16 22:07:17:109,-1.08403,1.78601,-9.52172,-10.3934,-6.73588,87.7051
2023-02-16 22:07:17:119,-1.09366,1.78136,-9.48962,-10.3962,-6.73452,87.7064
2023-02-16 22:07:17:129,-1.11647,1.78244,-9.47308,-10.3989,-6.7346,87.7121
2023-02-16 22:07:17:139,-1.13551,1.77842,-9.4632,-10.4001,-6.73016,87.7198
2023-02-16 22:07:17:149,-1.14178,1.76857,-9.48265,-10.4052,-6.7296,87.7285
2023-02-16 22:07:17:159,-1.132,1.75377,-9.49842,-10.4115,-6.72495,87.7352
2023-02-16 22:07:17:169,-1.13532,1.74938,-9.50591,-10.4192,-6.71902,87.7377
2023-02-16 22:07:17:179,-1.15334,1.76043,-9.50709,-10.4333,-6.716,87.7393
2023-02-16 22:07:17:189,-1.16041,1.76574,-9.53601,-10.4479,-6.71273,87.7404
2023-02-16 22:07:17:199,-1.16221,1.79305,-9.56063,-10.4661,-6.70564,87.7423
2023-02-16 22:07:17:209,-1.15652,1.81561,-9.57672,-10.4847,-6.7029,87.7414
2023-02-16 22:07:17:219,-1.14273,1.82403,-9.59784,-10.5033,-6.69694,87.7358
2023-02-16 22:07:17:229,-1.11037,1.84668,-9.5737,-10.5224,-6.69321,87.7319
2023-02-16 22:07:17:239,-1.09974,1.84161,-9.55553,-10.5356,-6.68563,87.7257
2023-02-16 22:07:17:249,-1.11348,1.8534,-9.5642,-10.5506,-6.6792,87.7218
2023-02-16 22:07:17:259,-1.1387,1.85132,-9.58446,-10.5651,-6.67087,87.7156
2023-02-16 22:07:17:269,-1.11555,1.86655,-9.59558,-10.5772,-6.66124,87.7051
2023-02-16 22:07:17:279,-1.03523,1.86939,-9.60658,-10.5821,-6.64686,87.6932
2023-02-16 22:07:17:289,-1.01147,1.83555,-9.5875,-10.586,-6.64035,87.6855
2023-02-16 22:07:17:299,-1.0419,1.81253,-9.55622,-10.5879,-6.63755,87.6849
2023-02-16 22:07:17:309,-1.0894,1.81464,-9.55071,-10.5923,-6.63756,87.6857
2023-02-16 22:07:17:319,-1.10399,1.82646,-9.55597,-10.5964,-6.63653,87.6863
2023-02-16 22:07:17:329,-1.12401,1.82452,-9.55657,-10.5984,-6.63064,87.6856
2023-02-16 22:07:17:339,-1.11523,1.81961,-9.55898,-10.6014,-6.62591,87.6865
2023-02-16 22:07:17:349,-1.08842,1.81909,-9.55586,-10.5998,-6.61854,87.6838
2023-02-16 22:07:17:359,-1.06779,1.83109,-9.56035,-10.6004,-6.61283,87.6849
2023-02-16 22:07:17:369,-1.06677,1.82703,-9.56756,-10.604,-6.6073,87.6882
2023-02-16 22:07:17:379,-1.03702,1.83711,-9.57165,-10.6067,-6.60087,87.6878
2023-02-16 22:07:17:389,-1.03973,1.82963,-9.58506,-10.6045,-6.59835,87.6874
2023-02-16 22:07:17:399,-1.07005,1.85114,-9.58924,-10.6011,-6.60397,87.6915
2023-02-16 22:07:17:409,-1.07418,1.82902,-9.5675,-10.5954,-6.60553,87.6917
2023-02-16 22:07:17:419,-1.08917,1.81793,-9.56006,-10.5931,-6.6071,87.6961
2023-02-16 22:07:17:429,-1.09597,1.80143,-9.56908,-10.5854,-6.61444,87.693
2023-02-16 22:07:17:439,-1.1225,1.79436,-9.5286,-10.5791,-6.61825,87.6938
2023-02-16 22:07:17:449,-1.12139,1.77184,-9.49522,-10.573,-6.62391,87.698
2023-02-16 22:07:17:459,-1.12908,1.77968,-9.4972,-10.57,-6.62688,87.7035
2023-02-16 22:07:17:469,-1.13566,1.79414,-9.5356,-10.568,-6.63069,87.7083
2023-02-16 22:07:17:479,-1.14775,1.80933,-9.55965,-10.568,-6.6323,87.7149
2023-02-16 22:07:17:489,-1.15992,1.80655,-9.55545,-10.5647,-6.6308,87.7177
2023-02-16 22:07:17:499,-1.1692,1.79749,-9.54565,-10.5639,-6.62844,87.721
2023-02-16 22:07:17:509,-1.15663,1.78929,-9.54834,-10.5604,-6.61974,87.7224
2023-02-16 22:07:17:519,-1.15449,1.79094,-9.54285,-10.5579,-6.60893,87.725
2023-02-16 22:07:17:529,-1.13614,1.78493,-9.5237,-10.5565,-6.60424,87.7229
2023-02-16 22:07:17:539,-1.12824,1.78415,-9.51095,-10.5543,-6.59504,87.7238
2023-02-16 22:07:17:549,-1.11077,1.79586,-9.53116,-10.5571,-6.58735,87.7226
2023-02-16 22:07:17:559,-1.11273,1.79034,-9.54101,-10.5595,-6.58196,87.7229
2023-02-16 22:07:17:569,-1.12189,1.78485,-9.54422,-10.5617,-6.57489,87.7196
2023-02-16 22:07:17:579,-1.10262,1.78055,-9.54066,-10.5624,-6.56458,87.7158
2023-02-16 22:07:17:589,-1.09998,1.77635,-9.54602,-10.5641,-6.55583,87.712
2023-02-16 22:07:17:599,-1.11378,1.78212,-9.53601,-10.5649,-6.54864,87.7071
2023-02-16 22:07:17:609,-1.10479,1.78106,-9.51832,-10.566,-6.54001,87.7009
2023-02-16 22:07:17:619,-1.08924,1.77995,-9.53755,-10.5699,-6.5305,87.6915
2023-02-16 22:07:17:629,-1.07964,1.787,-9.53842,-10.5737,-6.52015,87.6834
2023-02-16 22:07:17:639,-1.07446,1.78809,-9.5431,-10.5794,-6.51055,87.671
2023-02-16 22:07:17:649,-1.07464,1.78137,-9.5412,-10.5868,-6.50441,87.6612
2023-02-16 22:07:17:659,-1.06192,1.78429,-9.548,-10.5973,-6.49896,87.6494
2023-02-16 22:07:17:669,-1.06558,1.80102,-9.53961,-10.6065,-6.4927,87.6389
2023-02-16 22:07:17:679,-1.06656,1.80278,-9.54002,-10.6167,-6.48935,87.6292
2023-02-16 22:07:17:689,-1.05864,1.81315,-9.54875,-10.6248,-6.48388,87.6175
2023-02-16 22:07:17:699,-1.05032,1.81666,-9.56233,-10.6362,-6.4804,87.6072
2023-02-16 22:07:17:709,-1.04742,1.83771,-9.57529,-10.6455,-6.47613,87.5953
2023-02-16 22:07:17:719,-1.05948,1.8394,-9.5957,-10.6545,-6.47142,87.584
2023-02-16 22:07:17:729,-1.09217,1.85727,-9.59561,-10.6647,-6.46811,87.578
2023-02-16 22:07:17:739,-1.1059,1.84171,-9.56325,-10.6659,-6.46383,87.5679
2023-02-16 22:07:17:749,-1.08005,1.80538,-9.53542,-10.6655,-6.45684,87.5589
2023-02-16 22:07:17:759,-1.03991,1.80453,-9.54452,-10.6708,-6.45259,87.5453
2023-02-16 22:07:17:769,-1.05053,1.81265,-9.56109,-10.6779,-6.45089,87.5336
2023-02-16 22:07:17:779,-1.10325,1.80608,-9.52714,-10.6836,-6.45448,87.5205
2023-02-16 22:07:17:789,-1.13288,1.79337,-9.52093,-10.6886,-6.45533,87.5056
2023-02-16 22:07:17:799,-1.11252,1.79305,-9.5312,-10.6946,-6.45659,87.4853
2023-02-16 22:07:17:809,-1.07699,1.78424,-9.57455,-10.7041,-6.45983,87.4572
2023-02-16 22:07:17:819,-1.04648,1.80339,-9.5972,-10.7105,-6.46859,87.4305
2023-02-16 22:07:17:829,-1.04562,1.80313,-9.57975,-10.7195,-6.48267,87.4009
2023-02-16 22:07:17:839,-1.08226,1.78073,-9.55086,-10.7265,-6.50102,87.3678
2023-02-16 22:07:17:849,-1.1392,1.76662,-9.5174,-10.7385,-6.52004,87.3351
2023-02-16 22:07:17:859,-1.13614,1.7788,-9.49705,-10.7571,-6.54093,87.2984
2023-02-16 22:07:17:869,-1.13435,1.81809,-9.51706,-10.7799,-6.56633,87.2602
2023-02-16 22:07:17:879,-1.13431,1.85886,-9.5529,-10.8046,-6.58979,87.2164
2023-02-16 22:07:17:889,-1.11667,1.87106,-9.57262,-10.8245,-6.6107,87.1718
2023-02-16 22:07:17:899,-1.10456,1.88563,-9.5759,-10.8429,-6.63493,87.1281
2023-02-16 22:07:17:909,-1.11422,1.9104,-9.56579,-10.8539,-6.65739,87.0848
2023-02-16 22:07:17:919,-1.12788,1.88565,-9.53045,-10.8596,-6.67888,87.0414
2023-02-16 22:07:17:929,-1.13064,1.85288,-9.50745,-10.8641,-6.69746,86.999
2023-02-16 22:07:17:939,-1.11322,1.84833,-9.49455,-10.8684,-6.71047,86.9562
2023-02-16 22:07:17:949,-1.06597,1.83396,-9.51039,-10.8734,-6.72253,86.9126
2023-02-16 22:07:17:959,-1.08232,1.8323,-9.52742,-10.879,-6.73679,86.8784
2023-02-16 22:07:17:969,-1.10429,1.8355,-9.52656,-10.8859,-6.74375,86.8464
2023-02-16 22:07:17:979,-1.09739,1.85267,-9.52557,-10.8928,-6.75291,86.8146
2023-02-16 22:07:17:989,-1.08757,1.85663,-9.55305,-10.9012,-6.75735,86.7867
2023-02-16 22:07:17:999,-1.09017,1.85893,-9.57706,-10.9115,-6.76206,86.7614
2023-02-16 22:07:18:9,-1.10681,1.88982,-9.57217,-10.9274,-6.76388,86.7395
2023-02-16 22:07:18:19,-1.08642,1.88925,-9.5331,-10.9361,-6.76544,86.7198
2023-02-16 22:07:18:29,-1.07186,1.85441,-9.53007,-10.9468,-6.76276,86.7038
2023-02-16 22:07:18:39,-1.06269,1.88135,-9.55003,-10.9604,-6.75714,86.6925
2023-02-16 22:07:18:49,-1.05778,1.91,-9.55793,-10.9723,-6.74789,86.6829
2023-02-16 22:07:18:59,-0.99785,1.90092,-9.57539,-10.98,-6.74122,86.6732
2023-02-16 22:07:18:69,-0.982382,1.88297,-9.56475,-10.9859,-6.73417,86.6674
2023-02-16 22:07:18:79,-1.02226,1.86047,-9.51666,-10.9937,-6.72875,86.6707
2023-02-16 22:07:18:89,-1.07066,1.8687,-9.49566,-10.9975,-6.72553,86.6782
2023-02-16 22:07:18:99,-1.0755,1.88899,-9.54652,-11.0069,-6.72267,86.6859
2023-02-16 22:07:18:109,-1.08079,1.90771,-9.59396,-11.0157,-6.7198,86.6961
2023-02-16 22:07:18:119,-1.06921,1.90552,-9.60746,-11.0196,-6.7172,86.7033
2023-02-16 22:07:18:129,-1.08533,1.89677,-9.59794,-11.0209,-6.72049,86.7136
2023-02-16 22:07:18:139,-1.09479,1.88204,-9.56271,-11.0251,-6.72303,86.7255
2023-02-16 22:07:18:149,-1.08363,1.86236,-9.53814,-11.0279,-6.72278,86.7357
2023-02-16 22:07:18:159,-1.06997,1.88155,-9.53456,-11.0308,-6.72229,86.7474
2023-02-16 22:07:18:169,-1.0942,1.87781,-9.52965,-11.0353,-6.72594,86.7657
2023-02-16 22:07:18:179,-1.12283,1.87103,-9.51211,-11.0348,-6.72941,86.7838
2023-02-16 22:07:18:189,-1.12468,1.86392,-9.51961,-11.036,-6.72869,86.802
2023-02-16 22:07:18:199,-1.12482,1.85162,-9.5137,-11.0347,-6.7295,86.8206
2023-02-16 22:07:18:209,-1.15663,1.82625,-9.48508,-11.0329,-6.72977,86.8415
2023-02-16 22:07:18:219,-1.1818,1.81842,-9.48064,-11.0346,-6.73249,86.8627
2023-02-16 22:07:18:229,-1.19635,1.82768,-9.51609,-11.042,-6.73099,86.8852
2023-02-16 22:07:18:239,-1.1815,1.83275,-9.4937,-11.046,-6.72908,86.9019
2023-02-16 22:07:18:249,-1.18789,1.81015,-9.44142,-11.0519,-6.72681,86.9184
2023-02-16 22:07:18:259,-1.19432,1.82337,-9.46195,-11.0657,-6.72418,86.9347
2023-02-16 22:07:18:269,-1.20231,1.88471,-9.51298,-11.0795,-6.71805,86.9501
2023-02-16 22:07:18:279,-1.22708,1.92108,-9.52492,-11.0953,-6.70816,86.9644
2023-02-16 22:07:18:289,-1.22772,1.91487,-9.50808,-11.1101,-6.69914,86.9779
2023-02-16 22:07:18:299,-1.21626,1.92902,-9.546,-11.126,-6.68333,86.9902
2023-02-16 22:07:18:309,-1.19712,1.96442,-9.59256,-11.1407,-6.66013,87.0015
2023-02-16 22:07:18:319,-1.19822,1.96364,-9.58963,-11.147,-6.64306,87.0097
2023-02-16 22:07:18:329,-1.1981,1.94265,-9.54651,-11.1474,-6.62129,87.0177
2023-02-16 22:07:18:339,-1.16038,1.90894,-9.52214,-11.1447,-6.5959,87.027
2023-02-16 22:07:18:349,-1.14167,1.89046,-9.51884,-11.1482,-6.571,87.0303
2023-02-16 22:07:18:359,-1.14535,1.89596,-9.53246,-11.1512,-6.54387,87.0396
2023-02-16 22:07:18:369,-1.17672,1.88933,-9.53924,-11.1536,-6.52166,87.0486
2023-02-16 22:07:18:379,-1.18563,1.89707,-9.55249,-11.1571,-6.49898,87.0551
2023-02-16 22:07:18:389,-1.17644,1.90815,-9.56182,-11.1569,-6.46702,87.0583
2023-02-16 22:07:18:399,-1.14123,1.9,-9.54932,-11.1586,-6.43625,87.0625
2023-02-16 22:07:18:409,-1.11717,1.8772,-9.52373,-11.1589,-6.40355,87.072
2023-02-16 22:07:18:419,-1.11478,1.87058,-9.48826,-11.1618,-6.37055,87.0812
2023-02-16 22:07:18:429,-1.12112,1.8685,-9.46733,-11.1691,-6.33097,87.1002
2023-02-16 22:07:18:439,-1.15596,1.85776,-9.44434,-11.1746,-6.28581,87.1227
2023-02-16 22:07:18:449,-1.20908,1.8815,-9.42971,-11.1869,-6.22988,87.1509
2023-02-16 22:07:18:459,-1.26615,1.89204,-9.43688,-11.2035,-6.16585,87.1868
2023-02-16 22:07:18:469,-1.2822,1.90061,-9.45836,-11.219,-6.08935,87.2266
2023-02-16 22:07:18:479,-1.27347,1.90922,-9.45524,-11.235,-5.99864,87.2667
2023-02-16 22:07:18:489,-1.28759,1.9073,-9.44178,-11.2508,-5.89249,87.3126
2023-02-16 22:07:18:499,-1.3058,1.90799,-9.45701,-11.2675,-5.77215,87.3634
2023-02-16 22:07:18:509,-1.3195,1.93538,-9.45921,-11.288,-5.63522,87.4138
2023-02-16 22:07:18:519,-1.30229,1.95804,-9.48466,-11.3087,-5.48358,87.46
2023-02-16 22:07:18:529,-1.25541,1.97847,-9.50002,-11.3256,-5.32103,87.5058
2023-02-16 22:07:18:539,-1.24391,1.97903,-9.49908,-11.3377,-5.14713,87.5497
2023-02-16 22:07:18:549,-1.2527,1.98313,-9.47661,-11.3491,-4.95902,87.5955
2023-02-16 22:07:18:559,-1.23257,1.96461,-9.46846,-11.3552,-4.75568,87.6383
2023-02-16 22:07:18:569,-1.182,1.96032,-9.50783,-11.3607,-4.53988,87.6751
2023-02-16 22:07:18:579,-1.11558,1.9679,-9.55767,-11.3664,-4.31044,87.7079
2023-02-16 22:07:18:589,-1.03483,1.97608,-9.58233,-11.3677,-4.06966,87.7337
2023-02-16 22:07:18:599,-0.986645,1.95232,-9.55747,-11.3626,-3.81551,87.7595
2023-02-16 22:07:18:609,-1.00964,1.9262,-9.50216,-11.3546,-3.54887,87.7917
2023-02-16 22:07:18:619,-1.04218,1.93197,-9.48058,-11.3494,-3.26454,87.8254
2023-02-16 22:07:18:629,-1.04328,1.94313,-9.4575,-11.3413,-2.96251,87.8571
2023-02-16 22:07:18:639,-0.973504,1.92321,-9.43532,-11.3361,-2.63997,87.8892
2023-02-16 22:07:18:649,-0.873409,1.90508,-9.41208,-11.3285,-2.28754,87.9191
2023-02-16 22:07:18:659,-0.78992,1.90029,-9.39395,-11.3229,-1.91743,87.9488
2023-02-16 22:07:18:669,-0.750267,1.88999,-9.37945,-11.3159,-1.52599,87.98
2023-02-16 22:07:18:679,-0.747659,1.87944,-9.38487,-11.3098,-1.12136,88.0089
2023-02-16 22:07:18:689,-0.719639,1.88797,-9.39446,-11.302,-0.703617,88.035
2023-02-16 22:07:18:699,-0.686148,1.90582,-9.4302,-11.2944,-0.265156,88.0608
2023-02-16 22:07:18:709,-0.633402,1.90373,-9.43398,-11.2754,0.186692,88.0746
2023-02-16 22:07:18:719,-0.544705,1.85149,-9.39268,-11.2559,0.657257,88.0818
2023-02-16 22:07:18:729,-0.384155,1.78804,-9.34461,-11.2319,1.14342,88.0762
2023-02-16 22:07:18:739,-0.262329,1.75268,-9.27989,-11.2098,1.64568,88.0674
2023-02-16 22:07:18:749,-0.28198,1.7062,-9.2564,-11.1947,2.16458,88.0657
2023-02-16 22:07:18:759,-0.332579,1.72259,-9.32024,-11.187,2.70342,88.0671
2023-02-16 22:07:18:769,-0.323718,1.80182,-9.35034,-11.1793,3.27184,88.0652
2023-02-16 22:07:18:779,-0.266686,1.7302,-9.20167,-11.1627,3.87522,88.0511
2023-02-16 22:07:18:789,-0.182574,1.64118,-8.97234,-11.1469,4.51341,88.0239
2023-02-16 22:07:18:799,-0.0953915,1.57876,-8.78368,-11.1441,5.18314,87.9828
2023-02-16 22:07:18:809,0.0571259,1.59298,-8.73543,-11.1636,5.89048,87.931
2023-02-16 22:07:18:819,0.185851,1.69331,-8.84197,-11.203,6.63243,87.8694
2023-02-16 22:07:18:829,0.265641,1.829,-8.96659,-11.2543,7.41305,87.8046
2023-02-16 22:07:18:839,0.392201,1.85741,-8.96872,-11.2968,8.24315,87.7261
2023-02-16 22:07:18:849,0.625943,1.79006,-8.85875,-11.3267,9.11983,87.6294
2023-02-16 22:07:18:859,1.01421,1.73596,-8.74493,-11.3527,10.042,87.5088
2023-02-16 22:07:18:869,1.33241,1.71761,-8.68031,-11.3827,11.0001,87.3872
2023-02-16 22:07:18:879,1.37342,1.73021,-8.48334,-11.4201,11.9888,87.2635
2023-02-16 22:07:18:889,1.23814,1.7505,-8.23629,-11.4708,13.0084,87.1431
2023-02-16 22:07:18:899,1.2127,1.77997,-8.1155,-11.5451,14.0779,86.9995
2023-02-16 22:07:18:909,1.47938,1.90731,-8.22953,-11.6398,15.1979,86.8238
2023-02-16 22:07:18:919,1.85745,1.98602,-8.29612,-11.7441,16.3701,86.6148
2023-02-16 22:07:18:929,2.17166,1.92319,-8.17654,-11.8446,17.586,86.3812
2023-02-16 22:07:18:939,2.55985,1.82961,-8.10772,-11.9426,18.8402,86.1265
2023-02-16 22:07:18:949,2.88927,1.85106,-8.06834,-12.0493,20.1266,85.8552
2023-02-16 22:07:18:959,3.01821,1.88037,-7.83245,-12.1595,21.4319,85.5709
2023-02-16 22:07:18:969,3.04243,1.86914,-7.54429,-12.2761,22.7617,85.2748
2023-02-16 22:07:18:979,3.29862,1.92794,-7.54565,-12.4188,24.1185,84.9471
2023-02-16 22:07:18:989,3.88162,2.0358,-7.71896,-12.5762,25.4899,84.5776
2023-02-16 22:07:18:999,4.55736,1.99276,-7.76767,-12.7293,26.8694,84.1759
2023-02-16 22:07:19:9,5.11885,1.88295,-7.67137,-12.8754,28.2419,83.7681
2023-02-16 22:07:19:19,5.36303,1.82042,-7.41634,-13.0169,29.602,83.3727
2023-02-16 22:07:19:29,5.34497,1.74245,-7.21465,-13.1647,30.9515,82.9803
2023-02-16 22:07:19:39,5.34602,1.80679,-7.13723,-13.3434,32.2759,82.5709
2023-02-16 22:07:19:49,5.65961,1.88095,-7.19533,-13.5647,33.5754,82.0993
2023-02-16 22:07:19:59,6.29179,1.90774,-7.33321,-13.8186,34.8382,81.5607
2023-02-16 22:07:19:69,7.01991,1.9461,-7.47385,-14.0976,36.0397,80.9741
2023-02-16 22:07:19:79,7.71772,1.9871,-7.60153,-14.3864,37.1719,80.3619
2023-02-16 22:07:19:89,8.21934,2.06134,-7.69235,-14.6717,38.2106,79.7525
2023-02-16 22:07:19:99,8.53933,2.12431,-7.6861,-14.9448,39.1436,79.1574
2023-02-16 22:07:19:109,8.69615,2.17015,-7.58369,-15.2019,39.9871,78.5783
2023-02-16 22:07:19:119,8.79086,2.18324,-7.55414,-15.4444,40.7443,78.0161
2023-02-16 22:07:19:129,8.85495,2.21844,-7.54719,-15.6695,41.4148,77.4684
2023-02-16 22:07:19:139,8.86812,2.21554,-7.5095,-15.871,41.9983,76.9386
2023-02-16 22:07:19:149,8.84978,2.14571,-7.40484,-16.0521,42.5027,76.4174
2023-02-16 22:07:19:159,8.89123,2.07218,-7.22173,-16.2261,42.9266,75.8967
2023-02-16 22:07:19:169,8.9537,1.97795,-6.90929,-16.3975,43.2761,75.3791
2023-02-16 22:07:19:179,8.95136,1.88751,-6.5165,-16.57,43.5555,74.8787
2023-02-16 22:07:19:189,8.91257,1.81461,-6.37274,-16.753,43.767,74.4153
2023-02-16 22:07:19:199,8.8721,1.96268,-6.55655,-16.9479,43.9144,74.0004
2023-02-16 22:07:19:209,8.71701,2.17384,-6.82933,-17.1305,43.9959,73.641
2023-02-16 22:07:19:219,8.39724,2.24876,-6.89787,-17.2807,44.0338,73.334
2023-02-16 22:07:19:229,7.99469,2.25139,-6.75402,-17.4058,44.0436,73.0485
2023-02-16 22:07:19:239,7.66365,2.16931,-6.4842,-17.5262,44.032,72.772
2023-02-16 22:07:19:249,7.44621,2.09544,-6.27907,-17.6643,44.0004,72.4947
2023-02-16 22:07:19:259,7.47932,2.14336,-6.44935,-17.8275,43.9386,72.2154
2023-02-16 22:07:19:269,7.77945,2.27293,-6.85786,-18.0061,43.8519,71.938
2023-02-16 22:07:19:279,7.91714,2.33967,-7.0988,-18.1375,43.7428,71.7055
2023-02-16 22:07:19:289,7.82457,2.29199,-7.00719,-18.2121,43.6311,71.5222
2023-02-16 22:07:19:299,7.67534,2.21811,-6.76747,-18.2421,43.525,71.3821
2023-02-16 22:07:19:309,7.43907,2.12503,-6.55759,-18.2363,43.4291,71.2897
2023-02-16 22:07:19:319,7.0926,2.07961,-6.39761,-18.216,43.3364,71.2357
2023-02-16 22:07:19:329,6.72999,2.05287,-6.38265,-18.2117,43.2413,71.1941
2023-02-16 22:07:19:339,6.57575,2.12316,-6.5627,-18.2344,43.1303,71.1457
2023-02-16 22:07:19:349,6.82833,2.22916,-6.91687,-18.2823,43.0097,71.0756
2023-02-16 22:07:19:359,7.21699,2.2962,-7.21667,-18.3126,42.8791,71.0078
2023-02-16 22:07:19:369,7.44422,2.26042,-7.23241,-18.2923,42.7425,70.9751
2023-02-16 22:07:19:379,7.34088,2.19126,-7.01552,-18.222,42.6122,70.9891
2023-02-16 22:07:19:389,7.03231,2.11933,-6.71117,-18.1191,42.4876,71.0416
2023-02-16 22:07:19:399,6.68271,2.09735,-6.46525,-18.0221,42.3657,71.1158
2023-02-16 22:07:19:409,6.43281,2.06284,-6.33035,-17.9515,42.2468,71.188
2023-02-16 22:07:19:419,6.37633,2.11293,-6.42293,-17.9155,42.1399,71.2493
2023-02-16 22:07:19:429,6.4856,2.16459,-6.56952,-17.911,42.0289,71.292
2023-02-16 22:07:19:439,6.70682,2.26844,-6.84787,-17.9248,41.9156,71.3296
2023-02-16 22:07:19:449,6.88277,2.37142,-7.07081,-17.9401,41.7832,71.367
2023-02-16 22:07:19:459,7.00428,2.4395,-7.14691,-17.9418,41.6368,71.4138
2023-02-16 22:07:19:469,6.98921,2.44812,-7.11053,-17.9284,41.4717,71.4711
2023-02-16 22:07:19:479,6.83578,2.44018,-6.98164,-17.9073,41.2908,71.5459
2023-02-16 22:07:19:489,6.64589,2.44561,-6.88971,-17.882,41.096,71.6308
2023-02-16 22:07:19:499,6.54065,2.48006,-6.8982,-17.8688,40.8919,71.7087
2023-02-16 22:07:19:509,6.57774,2.56819,-7.05242,-17.8661,40.6777,71.7779
2023-02-16 22:07:19:519,6.69901,2.648,-7.26077,-17.8609,40.4453,71.8412
2023-02-16 22:07:19:529,6.83257,2.67467,-7.37421,-17.8525,40.1991,71.902
2023-02-16 22:07:19:539,6.95659,2.69735,-7.46489,-17.8325,39.938,71.9636
2023-02-16 22:07:19:549,6.93889,2.72574,-7.48441,-17.7846,39.6586,72.0421
2023-02-16 22:07:19:559,6.75895,2.75245,-7.39956,-17.7343,39.3573,72.122
2023-02-16 22:07:19:569,6.5212,2.73342,-7.31802,-17.6762,39.0335,72.1996
2023-02-16 22:07:19:579,6.34759,2.75411,-7.31721,-17.6229,38.6775,72.2702
2023-02-16 22:07:19:589,6.42941,2.84587,-7.53285,-17.5861,38.2976,72.3185
2023-02-16 22:07:19:599,6.73565,2.91715,-7.87004,-17.5433,37.8939,72.3489
2023-02-16 22:07:19:609,6.86557,2.93185,-8.03986,-17.4657,37.4566,72.3973
2023-02-16 22:07:19:619,6.72553,2.86435,-7.97866,-17.3491,36.9894,72.4637
2023-02-16 22:07:19:629,6.47244,2.77107,-7.8263,-17.2017,36.5013,72.5425
2023-02-16 22:07:19:639,6.20365,2.67549,-7.67735,-17.0394,35.9928,72.6244
2023-02-16 22:07:19:649,5.99979,2.59449,-7.5461,-16.8722,35.4729,72.6998
2023-02-16 22:07:19:659,5.95705,2.5383,-7.52176,-16.7134,34.9395,72.7627
2023-02-16 22:07:19:669,6.11081,2.51223,-7.66704,-16.5662,34.3926,72.8158
2023-02-16 22:07:19:679,6.15233,2.52535,-7.82806,-16.4109,33.825,72.8774
2023-02-16 22:07:19:689,5.93686,2.53434,-7.87634,-16.2501,33.2317,72.9533
2023-02-16 22:07:19:699,5.69489,2.52006,-7.88356,-16.087,32.6168,73.0318
2023-02-16 22:07:19:709,5.45951,2.48757,-7.88468,-15.9203,31.9753,73.1068
2023-02-16 22:07:19:719,5.28277,2.44017,-7.87651,-15.7575,31.3186,73.1695
2023-02-16 22:07:19:729,5.33936,2.39624,-7.9836,-15.5961,30.6462,73.2162
2023-02-16 22:07:19:739,5.57028,2.37965,-8.18208,-15.4329,29.9562,73.2582
2023-02-16 22:07:19:749,5.64491,2.38815,-8.35138,-15.2596,29.2462,73.3159
2023-02-16 22:07:19:759,5.37931,2.36073,-8.35715,-15.0594,28.5131,73.4071
2023-02-16 22:07:19:769,4.9403,2.31552,-8.24668,-14.8446,27.7599,73.5183
2023-02-16 22:07:19:779,4.49818,2.25106,-8.13933,-14.6263,27.0003,73.6294
2023-02-16 22:07:19:789,4.1841,2.17164,-8.06627,-14.4163,26.2443,73.7278
2023-02-16 22:07:19:799,4.07204,2.12471,-8.06461,-14.2212,25.4853,73.8063
2023-02-16 22:07:19:809,4.18858,2.10554,-8.11419,-14.0441,24.735,73.862
2023-02-16 22:07:19:819,4.38288,2.099,-8.25342,-13.8807,23.9813,73.9079
2023-02-16 22:07:19:829,4.39058,2.09642,-8.40012,-13.7218,23.2199,73.9667
2023-02-16 22:07:19:839,4.12316,2.08763,-8.47389,-13.5631,22.4399,74.0506
2023-02-16 22:07:19:849,3.74408,2.07516,-8.50989,-13.405,21.6487,74.1478
2023-02-16 22:07:19:859,3.40253,2.06492,-8.58076,-13.2476,20.8496,74.2468
2023-02-16 22:07:19:869,3.19178,2.06685,-8.66126,-13.0988,20.0523,74.3312
2023-02-16 22:07:19:879,3.15914,2.06779,-8.73502,-12.953,19.2532,74.3979
2023-02-16 22:07:19:889,3.19303,2.07158,-8.80511,-12.8129,18.444,74.4497
2023-02-16 22:07:19:899,3.1549,2.08799,-8.86906,-12.6755,17.6239,74.5044
2023-02-16 22:07:19:909,3.04499,2.08885,-8.90696,-12.5376,16.7906,74.5561
2023-02-16 22:07:19:919,2.89815,2.06726,-8.92269,-12.3971,15.9445,74.6035
2023-02-16 22:07:19:929,2.7346,1.95146,-8.91739,-12.2465,15.0891,74.6554
2023-02-16 22:07:19:939,2.52544,1.86225,-8.93376,-12.0995,14.2198,74.7082
2023-02-16 22:07:19:949,2.33086,1.87042,-8.98574,-11.9638,13.3429,74.7593
2023-02-16 22:07:19:959,2.27132,1.91075,-9.07508,-11.8336,12.4558,74.7925
2023-02-16 22:07:19:969,2.37513,1.89316,-9.13669,-11.7007,11.5559,74.8089
2023-02-16 22:07:19:979,2.47467,1.81234,-9.13311,-11.568,10.6345,74.8239
2023-02-16 22:07:19:989,2.31343,1.72882,-9.09173,-11.4376,9.68652,74.8531
2023-02-16 22:07:19:999,1.92143,1.69421,-9.03463,-11.3112,8.71408,74.8992
2023-02-16 22:07:20:9,1.50074,1.65405,-8.98817,-11.1914,7.71495,74.9534
2023-02-16 22:07:20:19,1.2077,1.62058,-8.95678,-11.0817,6.6979,74.9987
2023-02-16 22:07:20:29,1.09305,1.5718,-8.87183,-10.9846,5.66022,75.0247
2023-02-16 22:07:20:39,1.10981,1.50464,-8.85941,-10.9015,4.61205,75.0389
2023-02-16 22:07:20:49,1.07793,1.46987,-8.95856,-10.8375,3.55268,75.0585
2023-02-16 22:07:20:59,0.836306,1.5375,-9.13461,-10.7842,2.476,75.1068
2023-02-16 22:07:20:69,0.391554,1.6597,-9.30344,-10.7375,1.38389,75.1797
2023-02-16 22:07:20:79,-0.145915,1.82498,-9.40019,-10.6862,0.27439,75.2598
2023-02-16 22:07:20:89,-0.543358,1.89351,-9.3494,-10.6149,-0.850901,75.3174
2023-02-16 22:07:20:99,-0.651648,1.77617,-9.04895,-10.5139,-1.98198,75.3304
2023-02-16 22:07:20:109,-0.37629,1.53984,-8.67074,-10.3993,-3.10168,75.3034
2023-02-16 22:07:20:119,0.138714,1.27913,-8.45032,-10.299,-4.21958,75.2618
2023-02-16 22:07:20:129,0.382351,1.152,-8.39071,-10.2383,-5.3492,75.2458
2023-02-16 22:07:20:139,0.00769206,1.21792,-8.44833,-10.2284,-6.50535,75.2842
2023-02-16 22:07:20:149,-0.640472,1.37963,-8.58561,-10.264,-7.68313,75.3737
2023-02-16 22:07:20:159,-1.20347,1.49505,-8.70701,-10.3112,-8.86946,75.4856
2023-02-16 22:07:20:169,-1.60269,1.49197,-8.73024,-10.3635,-10.0431,75.6176
2023-02-16 22:07:20:179,-1.89223,1.39829,-8.66694,-10.4145,-11.1915,75.7605
2023-02-16 22:07:20:189,-2.18429,1.34179,-8.57644,-10.4611,-12.3011,75.9127
2023-02-16 22:07:20:199,-2.41947,1.35998,-8.5848,-10.5105,-13.3507,76.0797
2023-02-16 22:07:20:209,-2.5695,1.28861,-8.48483,-10.5593,-14.363,76.2554
2023-02-16 22:07:20:219,-2.77583,1.21323,-8.26853,-10.6349,-15.3648,76.4522
2023-02-16 22:07:20:229,-3.15784,1.24982,-8.17993,-10.7602,-16.347,76.6862
2023-02-16 22:07:20:239,-3.76605,1.3957,-8.19071,-10.9393,-17.292,76.9679
2023-02-16 22:07:20:249,-4.49887,1.62928,-8.32886,-11.1626,-18.164,77.2986
2023-02-16 22:07:20:259,-5.16026,1.84476,-8.50061,-11.3957,-18.9329,77.6459
2023-02-16 22:07:20:269,-5.55818,1.97668,-8.6794,-11.6063,-19.5784,77.9781
2023-02-16 22:07:20:279,-5.61075,1.97197,-8.77824,-11.7805,-20.1022,78.2731
2023-02-16 22:07:20:289,-5.49715,1.91961,-8.77445,-11.926,-20.5204,78.5366
2023-02-16 22:07:20:299,-5.41874,1.90999,-8.71801,-12.0561,-20.8478,78.7901
2023-02-16 22:07:20:309,-5.45188,1.93442,-8.70846,-12.182,-21.0924,79.0337
2023-02-16 22:07:20:319,-5.47789,2.03462,-8.7702,-12.3071,-21.2631,79.2696
2023-02-16 22:07:20:329,-5.35805,2.10441,-8.8429,-12.4221,-21.3709,79.4833
2023-02-16 22:07:20:339,-5.09171,2.10732,-8.85503,-12.524,-21.4195,79.6822
2023-02-16 22:07:20:349,-4.86449,2.0643,-8.79209,-12.6145,-21.4154,79.8669
2023-02-16 22:07:20:359,-4.75233,2.05072,-8.74142,-12.7061,-21.3809,80.0486
2023-02-16 22:07:20:369,-4.65741,2.07196,-8.78788,-12.8015,-21.3079,80.2189
2023-02-16 22:07:20:379,-4.51824,2.13149,-8.86381,-12.8964,-21.2016,80.3736
2023-02-16 22:07:20:389,-4.34196,2.17735,-8.91449,-12.9853,-21.0667,80.5127
2023-02-16 22:07:20:399,-4.17031,2.18227,-8.94097,-13.0629,-20.9109,80.6444
2023-02-16 22:07:20:409,-4.06413,2.21023,-8.97095,-13.1369,-20.7351,80.7649
2023-02-16 22:07:20:419,-4.01769,2.25399,-8.9947,-13.2027,-20.5486,80.8732
2023-02-16 22:07:20:429,-3.97421,2.29551,-9.04049,-13.2638,-20.3581,80.9736
2023-02-16 22:07:20:439,-3.89413,2.31244,-9.08442,-13.3063,-20.1583,81.0534
2023-02-16 22:07:20:449,-3.77571,2.30325,-9.08755,-13.3328,-19.9536,81.1164
2023-02-16 22:07:20:459,-3.62586,2.26002,-9.05619,-13.344,-19.7543,81.162
2023-02-16 22:07:20:469,-3.49022,2.20424,-9.01019,-13.3424,-19.5586,81.1949
2023-02-16 22:07:20:479,-3.36696,2.14104,-8.96976,-13.3318,-19.3669,81.2156
2023-02-16 22:07:20:489,-3.29069,2.08634,-8.91469,-13.3199,-19.1802,81.2291
2023-02-16 22:07:20:499,-3.25466,2.0729,-8.87183,-13.3181,-18.9963,81.2403
2023-02-16 22:07:20:509,-3.24275,2.08679,-8.86918,-13.3192,-18.8199,81.2463
2023-02-16 22:07:20:519,-3.23289,2.12659,-8.91647,-13.3224,-18.6465,81.2447
2023-02-16 22:07:20:529,-3.18527,2.14517,-8.9543,-13.3235,-18.4783,81.2338
2023-02-16 22:07:20:539,-3.10827,2.16151,-8.96997,-13.321,-18.3155,81.2112
2023-02-16 22:07:20:549,-3.01591,2.15224,-8.94101,-13.3192,-18.1587,81.1781
2023-02-16 22:07:20:559,-2.9613,2.11381,-8.8957,-13.3212,-18.0121,81.1421
2023-02-16 22:07:20:569,-2.95034,2.10777,-8.89928,-13.3281,-17.8776,81.0994
2023-02-16 22:07:20:579,-2.98748,2.14632,-8.96174,-13.3429,-17.7554,81.0567
2023-02-16 22:07:20:589,-3.09139,2.19602,-9.00724,-13.363,-17.6463,81.0117
2023-02-16 22:07:20:599,-3.15266,2.23287,-9.04955,-13.3773,-17.5418,80.9548
2023-02-16 22:07:20:609,-3.14041,2.27272,-9.11083,-13.3865,-17.4411,80.8883
2023-02-16 22:07:20:619,-3.09233,2.26416,-9.14286,-13.3875,-17.3441,80.8056
2023-02-16 22:07:20:629,-3.06625,2.23089,-9.10263,-13.3856,-17.2529,80.7156
2023-02-16 22:07:20:639,-3.04623,2.19889,-9.04279,-13.3803,-17.1654,80.6203
2023-02-16 22:07:20:649,-3.04576,2.17429,-9.03236,-13.3747,-17.0768,80.5163
2023-02-16 22:07:20:659,-3.03282,2.17386,-9.05668,-13.3718,-16.9884,80.4101
2023-02-16 22:07:20:669,-3.02273,2.18422,-9.09611,-13.3694,-16.8959,80.2999
2023-02-16 22:07:20:679,-3.01099,2.21469,-9.15863,-13.3682,-16.8021,80.1911
2023-02-16 22:07:20:689,-2.95648,2.25918,-9.26623,-13.3634,-16.709,80.0776
2023-02-16 22:07:20:699,-2.89504,2.32823,-9.32857,-13.3455,-16.6065,79.9595
2023-02-16 22:07:20:709,-2.84812,2.31804,-9.3118,-13.3134,-16.4998,79.8429
2023-02-16 22:07:20:719,-2.79241,2.26355,-9.21918,-13.2682,-16.3849,79.7234
2023-02-16 22:07:20:729,-2.73196,2.20202,-9.14395,-13.2229,-16.2619,79.6125
2023-02-16 22:07:20:739,-2.70859,2.14039,-9.09106,-13.1736,-16.1358,79.5101
2023-02-16 22:07:20:749,-2.72668,2.11109,-9.08349,-13.1365,-15.9977,79.414
2023-02-16 22:07:20:759,-2.74821,2.11829,-9.11674,-13.1061,-15.8488,79.3263
2023-02-16 22:07:20:769,-2.73188,2.16056,-9.14561,-13.0764,-15.6931,79.2422
2023-02-16 22:07:20:779,-2.68082,2.16461,-9.15428,-13.0436,-15.5277,79.1614
2023-02-16 22:07:20:789,-2.62868,2.14986,-9.17699,-13.0141,-15.3534,79.0851
2023-02-16 22:07:20:799,-2.6068,2.17093,-9.20134,-12.9858,-15.173,79.0132
2023-02-16 22:07:20:809,-2.60284,2.16926,-9.19975,-12.9553,-14.9919,78.9445
2023-02-16 22:07:20:819,-2.63992,2.1441,-9.14414,-12.9275,-14.8016,78.8825
2023-02-16 22:07:20:829,-2.68142,2.08843,-9.0617,-12.8973,-14.6006,78.8235
2023-02-16 22:07:20:839,-2.64384,2.02814,-8.98891,-12.8738,-14.3819,78.7662
2023-02-16 22:07:20:849,-2.55713,1.98021,-8.94051,-12.8575,-14.1467,78.7049
2023-02-16 22:07:20:859,-2.44159,1.94337,-8.92124,-12.8524,-13.8969,78.6468
2023-02-16 22:07:20:869,-2.34695,1.95087,-8.9514,-12.8636,-13.6328,78.5924
2023-02-16 22:07:20:879,-2.3146,2.00864,-9.01998,-12.8907,-13.3589,78.5495
2023-02-16 22:07:20:889,-2.33403,2.07792,-9.12109,-12.93,-13.0731,78.5148
2023-02-16 22:07:20:899,-2.31921,2.14526,-9.24672,-12.9755,-12.7717,78.4844
2023-02-16 22:07:20:909,-2.24828,2.1875,-9.36575,-13.0141,-12.4572,78.4583
2023-02-16 22:07:20:919,-2.15422,2.21287,-9.43844,-13.0469,-12.1273,78.435
2023-02-16 22:07:20:929,-2.03967,2.19148,-9.44351,-13.0669,-11.7872,78.4135
2023-02-16 22:07:20:939,-1.94969,2.16759,-9.35602,-13.0757,-11.4353,78.3958
2023-02-16 22:07:20:949,-1.89182,2.13624,-9.24463,-13.082,-11.0785,78.3869
2023-02-16 22:07:20:959,-1.87863,2.11021,-9.19068,-13.0935,-10.7202,78.3876
2023-02-16 22:07:20:969,-1.8594,2.12387,-9.19833,-13.1097,-10.3539,78.3964
2023-02-16 22:07:20:979,-1.76484,2.13806,-9.2351,-13.1315,-9.97569,78.4071
2023-02-16 22:07:20:989,-1.6491,2.13906,-9.30976,-13.1561,-9.58919,78.4214
2023-02-16 22:07:20:999,-1.55974,2.11902,-9.32447,-13.176,-9.20133,78.4468
2023-02-16 22:07:21:9,-1.5242,2.09395,-9.28243,-13.1938,-8.80093,78.484
2023-02-16 22:07:21:19,-1.53585,2.09952,-9.27641,-13.2217,-8.40033,78.5264
2023-02-16 22:07:21:29,-1.56801,2.16226,-9.33068,-13.2518,-7.99167,78.5773
2023-02-16 22:07:21:39,-1.53027,2.19009,-9.40433,-13.2746,-7.58024,78.6282
2023-02-16 22:07:21:49,-1.40194,2.20662,-9.48075,-13.2926,-7.15304,78.6763
2023-02-16 22:07:21:59,-1.23435,2.21375,-9.52213,-13.2983,-6.71363,78.7255
2023-02-16 22:07:21:69,-1.12654,2.17917,-9.50158,-13.2911,-6.26049,78.786
2023-02-16 22:07:21:79,-1.09044,2.12611,-9.46006,-13.2787,-5.79421,78.8564
2023-02-16 22:07:21:89,-1.06546,2.06916,-9.38301,-13.2627,-5.31525,78.9398
2023-02-16 22:07:21:99,-1.02742,2.02709,-9.34141,-13.2477,-4.82201,79.036
2023-02-16 22:07:21:109,-0.986385,2.02293,-9.34238,-13.2364,-4.3108,79.1395
2023-02-16 22:07:21:119,-0.951923,2.05468,-9.34323,-13.2273,-3.78444,79.2548
2023-02-16 22:07:21:129,-0.862638,2.04853,-9.32505,-13.2194,-3.23976,79.3739
2023-02-16 22:07:21:139,-0.716007,2.04491,-9.29402,-13.2115,-2.68322,79.4985
2023-02-16 22:07:21:149,-0.633043,2.03976,-9.24884,-13.2037,-2.10736,79.6308
2023-02-16 22:07:21:159,-0.594124,2.04149,-9.21476,-13.1939,-1.50859,79.7749
2023-02-16 22:07:21:169,-0.543552,2.02697,-9.20832,-13.184,-0.888382,79.932
2023-02-16 22:07:21:179,-0.482444,2.01468,-9.23081,-13.1737,-0.243384,80.1032
2023-02-16 22:07:21:189,-0.454564,2.00546,-9.2425,-13.1581,0.438206,80.2863
2023-02-16 22:07:21:199,-0.317932,2.02358,-9.25189,-13.1372,1.15044,80.4755
2023-02-16 22:07:21:209,-0.105574,2.00655,-9.19534,-13.104,1.90222,80.6739
2023-02-16 22:07:21:219,-0.0241467,1.94585,-9.05615,-13.0633,2.6905,80.8904
2023-02-16 22:07:21:229,-0.12422,1.92107,-8.94842,-13.0179,3.52643,81.1323
2023-02-16 22:07:21:239,-0.276368,1.91945,-8.85974,-12.977,4.40135,81.3826
2023-02-16 22:07:21:249,-0.293579,1.88052,-8.75029,-12.942,5.31034,81.6171
2023-02-16 22:07:21:259,-0.160356,1.84175,-8.692,-12.9196,6.25266,81.8266
2023-02-16 22:07:21:269,0.0528926,1.83971,-8.66711,-12.9157,7.22525,82.0019
2023-02-16 22:07:21:279,0.19046,1.8596,-8.60145,-12.9272,8.21904,82.1516
2023-02-16 22:07:21:289,0.385948,1.87976,-8.55555,-12.9609,9.22606,82.2637
2023-02-16 22:07:21:299,0.624965,1.94085,-8.57068,-13.0142,10.2508,82.3431
2023-02-16 22:07:21:309,0.89582,1.99555,-8.5823,-13.083,11.2969,82.3815
2023-02-16 22:07:21:319,1.19396,2.0002,-8.57797,-13.1624,12.3681,82.3812
2023-02-16 22:07:21:329,1.42893,2.02037,-8.51267,-13.2592,13.4516,82.3456
2023-02-16 22:07:21:339,1.54399,1.98759,-8.2812,-13.3648,14.5571,82.2804
2023-02-16 22:07:21:349,1.57853,1.91509,-7.97564,-13.4913,15.6874,82.1822
2023-02-16 22:07:21:359,1.71374,1.94451,-7.83923,-13.6534,16.8462,82.0384
2023-02-16 22:07:21:369,2.06292,2.02551,-7.91795,-13.8521,18.0417,81.8409
2023-02-16 22:07:21:379,2.54321,2.11431,-8.03175,-14.0742,19.2641,81.5962
2023-02-16 22:07:21:389,3.10128,2.19151,-8.01182,-14.3078,20.5081,81.3041
2023-02-16 22:07:21:399,3.59553,2.17456,-7.89037,-14.5374,21.7601,80.9822
2023-02-16 22:07:21:409,3.91484,2.11187,-7.72231,-14.7769,23.0198,80.6484
2023-02-16 22:07:21:419,4.14214,2.11658,-7.54097,-15.0339,24.2798,80.2964
2023-02-16 22:07:21:429,4.30238,2.15914,-7.29224,-15.3111,25.5446,79.9249
2023-02-16 22:07:21:439,4.44442,2.19134,-7.05602,-15.614,26.8169,79.5314
2023-02-16 22:07:21:449,4.69803,2.29877,-7.04922,-15.95,28.0886,79.1043
2023-02-16 22:07:21:459,5.05372,2.43323,-7.20366,-16.3128,29.3591,78.6392
2023-02-16 22:07:21:469,5.53167,2.5436,-7.38832,-16.6927,30.6114,78.1408
2023-02-16 22:07:21:479,6.10948,2.63812,-7.55591,-17.0796,31.8365,77.6032
2023-02-16 22:07:21:489,6.51889,2.65957,-7.50048,-17.4561,33.0202,77.0586
2023-02-16 22:07:21:499,6.59157,2.6254,-7.28024,-17.8171,34.1571,76.5172
2023-02-16 22:07:21:509,6.60444,2.70288,-7.22509,-18.1947,35.2432,75.9691
2023-02-16 22:07:21:519,6.77211,2.85987,-7.41315,-18.5959,36.269,75.3853
2023-02-16 22:07:21:529,7.03308,2.99129,-7.63252,-19.0038,37.2284,74.7697
2023-02-16 22:07:21:539,7.43401,3.05654,-7.71899,-19.4129,38.1173,74.1065
2023-02-16 22:07:21:549,7.92796,3.07581,-7.60892,-19.8241,38.9237,73.3985
2023-02-16 22:07:21:559,8.39369,3.01739,-7.33221,-20.2196,39.6442,72.6753
2023-02-16 22:07:21:569,8.78899,2.9552,-7.15463,-20.6018,40.2802,71.9688
2023-02-16 22:07:21:579,9.16623,3.04692,-7.26859,-20.9739,40.826,71.3052
2023-02-16 22:07:21:589,9.34328,3.1486,-7.45257,-21.2935,41.2934,70.7106
2023-02-16 22:07:21:599,9.26178,3.17993,-7.48175,-21.5593,41.6873,70.1899
2023-02-16 22:07:21:609,9.12386,3.14798,-7.36579,-21.7696,42.0156,69.727
2023-02-16 22:07:21:619,8.93556,3.08227,-7.01883,-21.9292,42.2863,69.3156
2023-02-16 22:07:21:629,8.69503,2.93783,-6.73188,-22.0506,42.5125,68.9592
2023-02-16 22:07:21:639,8.39771,2.92107,-6.62279,-22.1543,42.6966,68.6531
2023-02-16 22:07:21:649,8.09935,2.94856,-6.6392,-22.2573,42.8393,68.376
2023-02-16 22:07:21:659,7.97401,2.93809,-6.74156,-22.3532,42.9336,68.1205
2023-02-16 22:07:21:669,7.90101,2.94856,-6.75067,-22.4376,42.9907,67.8844
2023-02-16 22:07:21:679,7.89811,2.89704,-6.67442,-22.5081,43.0122,67.6638
2023-02-16 22:07:21:689,7.82361,2.88846,-6.61963,-22.5552,43.0109,67.4803
2023-02-16 22:07:21:699,7.61854,2.92976,-6.62598,-22.586,42.9826,67.3255
2023-02-16 22:07:21:709,7.35052,2.94124,-6.59906,-22.5916,42.9421,67.2045
2023-02-16 22:07:21:719,7.10262,2.91926,-6.5544,-22.59,42.8968,67.0949
2023-02-16 22:07:21:729,7.00727,2.86667,-6.50753,-22.5902,42.8449,66.9827
2023-02-16 22:07:21:739,7.00124,2.82111,-6.47973,-22.5916,42.7806,66.8734
2023-02-16 22:07:21:749,6.89821,2.76043,-6.39995,-22.594,42.7043,66.7694
2023-02-16 22:07:21:759,6.64722,2.74809,-6.37471,-22.601,42.6132,66.6816
2023-02-16 22:07:21:769,6.60035,2.8072,-6.57465,-22.6235,42.5134,66.5883
2023-02-16 22:07:21:779,6.81591,2.93271,-6.89282,-22.6582,42.4067,66.4827
2023-02-16 22:07:21:789,7.10142,2.96234,-7.12042,-22.6676,42.2907,66.3799
2023-02-16 22:07:21:799,7.23658,2.92314,-7.14825,-22.6328,42.168,66.3059
2023-02-16 22:07:21:809,7.12001,2.83495,-6.9967,-22.5511,42.0442,66.2712
2023-02-16 22:07:21:819,6.85599,2.76213,-6.71652,-22.435,41.9259,66.2637
2023-02-16 22:07:21:829,6.61466,2.66937,-6.52728,-22.3171,41.8157,66.2664
2023-02-16 22:07:21:839,6.50464,2.62699,-6.4756,-22.2263,41.7024,66.2566
2023-02-16 22:07:21:849,6.68992,2.61161,-6.56811,-22.1552,41.5831,66.2385
2023-02-16 22:07:21:859,6.96399,2.5912,-6.73172,-22.0817,41.4543,66.2333
2023-02-16 22:07:21:869,7.00191,2.57258,-6.79776,-21.9981,41.3176,66.261
2023-02-16 22:07:21:879,6.91311,2.56745,-6.83487,-21.8921,41.1881,66.3223
2023-02-16 22:07:21:889,6.83376,2.59033,-6.8775,-21.7759,41.0658,66.3989
2023-02-16 22:07:21:899,6.67168,2.61689,-6.81399,-21.6585,40.9401,66.4822
2023-02-16 22:07:21:909,6.43536,2.5943,-6.68295,-21.5454,40.8046,66.5691
2023-02-16 22:07:21:919,6.28513,2.61566,-6.62005,-21.4603,40.658,66.6483
2023-02-16 22:07:21:929,6.51276,2.70023,-6.85187,-21.4117,40.4982,66.705
2023-02-16 22:07:21:939,6.85574,2.79257,-7.14182,-21.3598,40.3148,66.7727
2023-02-16 22:07:21:949,6.91245,2.85,-7.24496,-21.2816,40.1222,66.8697
2023-02-16 22:07:21:959,6.83267,2.84999,-7.20063,-21.177,39.9279,66.9914
2023-02-16 22:07:21:969,6.74646,2.84991,-7.11192,-21.0536,39.7417,67.1279
2023-02-16 22:07:21:979,6.61258,2.82315,-6.99873,-20.9165,39.5565,67.2781
2023-02-16 22:07:21:989,6.37783,2.81125,-6.9071,-20.7771,39.37,67.4373
2023-02-16 22:07:21:999,6.37992,2.84701,-7.03155,-20.6482,39.1792,67.5921
2023-02-16 22:07:22:9,6.77056,2.86937,-7.39542,-20.5154,38.9645,67.7439
2023-02-16 22:07:22:19,7.15374,2.892,-7.75605,-20.3478,38.726,67.9249
2023-02-16 22:07:22:29,7.26435,2.88612,-7.86836,-20.1139,38.4689,68.1589
2023-02-16 22:07:22:39,6.90873,2.82935,-7.54989,-19.8147,38.2015,68.4489
2023-02-16 22:07:22:49,6.34937,2.72791,-7.09776,-19.4853,37.9365,68.7674
2023-02-16 22:07:22:59,5.90314,2.67067,-6.86355,-19.1746,37.6722,69.0788
2023-02-16 22:07:22:69,5.59953,2.65731,-6.87508,-18.9085,37.4044,69.3575
2023-02-16 22:07:22:79,5.52167,2.67249,-7.11522,-18.6995,37.1195,69.5932
2023-02-16 22:07:22:89,5.62794,2.76469,-7.45099,-18.5338,36.8047,69.7896
2023-02-16 22:07:22:99,5.77156,2.85168,-7.69753,-18.3826,36.4589,69.9558
2023-02-16 22:07:22:109,5.84472,2.88608,-7.81428,-18.2361,36.0911,70.0953
2023-02-16 22:07:22:119,5.84554,2.86792,-7.83943,-18.0822,35.7034,70.2188
2023-02-16 22:07:22:129,5.7445,2.80972,-7.7717,-17.9215,35.3007,70.324
2023-02-16 22:07:22:139,5.63036,2.70104,-7.67891,-17.756,34.8843,70.4151
2023-02-16 22:07:22:149,5.57782,2.60212,-7.61204,-17.5989,34.4564,70.4846
2023-02-16 22:07:22:159,5.70011,2.53025,-7.61304,-17.4542,34.019,70.5295
2023-02-16 22:07:22:169,5.96362,2.49083,-7.70868,-17.3252,33.5598,70.5579
2023-02-16 22:07:22:179,6.21311,2.44436,-7.81265,-17.1967,33.0755,70.592
2023-02-16 22:07:22:189,6.15804,2.43376,-7.86331,-17.0631,32.5716,70.6494
2023-02-16 22:07:22:199,5.86684,2.44031,-7.86477,-16.9221,32.043,70.7313
2023-02-16 22:07:22:209,5.54919,2.42165,-7.8531,-16.7835,31.4885,70.8232
2023-02-16 22:07:22:219,5.32091,2.41314,-7.8428,-16.6498,30.9151,70.9131
2023-02-16 22:07:22:229,5.2894,2.42989,-7.91316,-16.5302,30.3297,70.9861
2023-02-16 22:07:22:239,5.40579,2.43998,-8.04589,-16.4151,29.7285,71.0541
2023-02-16 22:07:22:249,5.48301,2.46053,-8.20237,-16.3015,29.1064,71.1229
2023-02-16 22:07:22:259,5.34649,2.50509,-8.28996,-16.1793,28.4617,71.2085
2023-02-16 22:07:22:269,5.08183,2.54515,-8.32984,-16.0456,27.7922,71.3091
2023-02-16 22:07:22:279,4.78088,2.5472,-8.34757,-15.9032,27.0996,71.4179
2023-02-16 22:07:22:289,4.50221,2.53822,-8.33204,-15.7601,26.3907,71.5184
2023-02-16 22:07:22:299,4.33757,2.5231,-8.39063,-15.62,25.6653,71.6092
2023-02-16 22:07:22:309,4.3182,2.53161,-8.51285,-15.486,24.9161,71.6764
2023-02-16 22:07:22:319,4.38238,2.51297,-8.59418,-15.3467,24.1501,71.7322
2023-02-16 22:07:22:329,4.36792,2.47778,-8.63345,-15.1963,23.3654,71.7932
2023-02-16 22:07:22:339,4.14426,2.45245,-8.60965,-15.0383,22.56,71.8646
2023-02-16 22:07:22:349,3.77766,2.39712,-8.54906,-14.8742,21.7463,71.9422
2023-02-16 22:07:22:359,3.44619,2.33813,-8.53776,-14.7092,20.9243,72.0196
2023-02-16 22:07:22:369,3.22211,2.2797,-8.54422,-14.5523,20.0944,72.083
2023-02-16 22:07:22:379,3.17994,2.25842,-8.59845,-14.4067,19.2641,72.122
2023-02-16 22:07:22:389,3.41347,2.2864,-8.77754,-14.2691,18.4221,72.1394
2023-02-16 22:07:22:399,3.57102,2.3613,-8.84537,-14.1275,17.5703,72.1557
2023-02-16 22:07:22:409,3.16945,2.37155,-8.63844,-13.9764,16.7038,72.1942
2023-02-16 22:07:22:419,2.35104,2.34724,-8.42688,-13.831,15.832,72.2452
2023-02-16 22:07:22:429,1.61861,2.403,-8.59652,-13.71,14.9617,72.2783
2023-02-16 22:07:22:439,1.39415,2.54492,-9.09953,-13.6168,14.09,72.2479
2023-02-16 22:07:22:449,1.80056,2.53632,-9.47784,-13.5132,13.2038,72.1419
2023-02-16 22:07:22:459,2.32268,2.21565,-9.41245,-13.3815,12.3027,71.9947
2023-02-16 22:07:22:469,2.36817,1.92606,-9.16972,-13.2326,11.384,71.8561
2023-02-16 22:07:22:479,2.0041,1.8953,-9.08282,-13.086,10.4547,71.7508
2023-02-16 22:07:22:489,1.66744,1.95668,-9.17189,-12.9453,9.51688,71.6615
2023-02-16 22:07:22:499,1.44629,2.00055,-9.20795,-12.7927,8.58462,71.5792
2023-02-16 22:07:22:509,1.27101,1.91257,-9.0682,-12.6285,7.66288,71.5014
2023-02-16 22:07:22:519,1.08316,1.75641,-8.8792,-12.4628,6.75812,71.4333
2023-02-16 22:07:22:529,0.923533,1.65436,-8.78735,-12.3045,5.87558,71.3775
2023-02-16 22:07:22:539,0.791039,1.60806,-8.83085,-12.1607,5.01775,71.3355
2023-02-16 22:07:22:549,0.689227,1.66638,-8.95509,-12.0303,4.18143,71.3088
2023-02-16 22:07:22:559,0.643716,1.73159,-9.04129,-11.9042,3.3669,71.2951
2023-02-16 22:07:22:569,0.544655,1.69498,-8.97003,-11.7786,2.57474,71.3059
2023-02-16 22:07:22:579,0.325622,1.61044,-8.8594,-11.6587,1.81027,71.3465
2023-02-16 22:07:22:589,-0.00692006,1.58338,-8.8243,-11.5616,1.072,71.4191
2023-02-16 22:07:22:599,-0.325149,1.60774,-8.92141,-11.485,0.358578,71.5179
2023-02-16 22:07:22:609,-0.544409,1.68478,-9.06608,-11.43,-0.338973,71.623
2023-02-16 22:07:22:619,-0.648647,1.70341,-9.11792,-11.3825,-1.02383,71.723
2023-02-16 22:07:22:629,-0.691038,1.65089,-9.06454,-11.3463,-1.69621,71.8203
2023-02-16 22:07:22:639,-0.755773,1.58837,-8.99619,-11.3254,-2.348,71.9224
2023-02-16 22:07:22:649,-0.921661,1.59075,-9.02207,-11.3232,-2.97785,72.0412
2023-02-16 22:07:22:659,-1.15077,1.70654,-9.15052,-11.3358,-3.56962,72.1773
2023-02-16 22:07:22:669,-1.27655,1.7946,-9.31472,-11.3505,-4.11327,72.3185
2023-02-16 22:07:22:679,-1.2641,1.77354,-9.27067,-11.3625,-4.62608,72.4566
2023-02-16 22:07:22:689,-1.17972,1.7221,-9.15873,-11.371,-5.10576,72.5928
2023-02-16 22:07:22:699,-1.0867,1.69144,-9.01306,-11.3922,-5.56363,72.7413
2023-02-16 22:07:22:709,-1.16921,1.702,-8.9384,-11.4372,-6.00004,72.9007
2023-02-16 22:07:22:719,-1.44616,1.74105,-8.93182,-11.5041,-6.42426,73.0806
2023-02-16 22:07:22:729,-1.77951,1.80186,-9.03162,-11.5952,-6.81778,73.2697
2023-02-16 22:07:22:739,-1.98515,1.89552,-9.22391,-11.6985,-7.17651,73.4516
2023-02-16 22:07:22:749,-1.89946,1.97185,-9.38345,-11.8026,-7.50836,73.6127
2023-02-16 22:07:22:759,-1.56449,1.95814,-9.48556,-11.8988,-7.81676,73.7494
2023-02-16 22:07:22:769,-1.32076,1.94851,-9.51086,-11.9901,-8.1066,73.8861
2023-02-16 22:07:22:779,-1.44881,2.01597,-9.4877,-12.0863,-8.39199,74.0447
2023-02-16 22:07:22:789,-1.76827,2.14004,-9.53669,-12.1863,-8.66853,74.2149
2023-02-16 22:07:22:799,-1.99538,2.24908,-9.59452,-12.2818,-8.93714,74.3835
2023-02-16 22:07:22:809,-2.10092,2.26951,-9.59036,-12.3565,-9.18838,74.5418
2023-02-16 22:07:22:819,-2.07837,2.23164,-9.57449,-12.4156,-9.4189,74.6851
2023-02-16 22:07:22:829,-1.95368,2.21817,-9.57078,-12.4545,-9.63117,74.8164
2023-02-16 22:07:22:839,-1.83941,2.15815,-9.4716,-12.4756,-9.83414,74.9389
2023-02-16 22:07:22:849,-1.81643,2.07602,-9.28088,-12.4842,-10.0298,75.0619
2023-02-16 22:07:22:859,-1.96772,2.00688,-9.12118,-12.5005,-10.2313,75.197
2023-02-16 22:07:22:869,-2.24437,2.00945,-9.07375,-12.5345,-10.4305,75.3407
2023-02-16 22:07:22:879,-2.47221,2.06282,-9.12481,-12.5794,-10.6161,75.4881
2023-02-16 22:07:22:889,-2.57356,2.0854,-9.19461,-12.6332,-10.7824,75.6281
2023-02-16 22:07:22:899,-2.57232,2.09138,-9.26218,-12.682,-10.9143,75.7545
2023-02-16 22:07:22:909,-2.47464,2.11506,-9.34585,-12.7287,-11.0224,75.8687
2023-02-16 22:07:22:919,-2.35998,2.14966,-9.41934,-12.7713,-11.1036,75.9701
2023-02-16 22:07:22:929,-2.29944,2.19395,-9.42807,-12.8075,-11.169,76.0677
2023-02-16 22:07:22:939,-2.34201,2.20079,-9.38157,-12.8381,-11.2128,76.1655
2023-02-16 22:07:22:949,-2.37664,2.19026,-9.34163,-12.8657,-11.243,76.2595
2023-02-16 22:07:22:959,-2.35101,2.18433,-9.3314,-12.8874,-11.2547,76.3442
2023-02-16 22:07:22:969,-2.32153,2.17432,-9.31113,-12.9098,-11.2547,76.4263
2023-02-16 22:07:22:979,-2.27834,2.16854,-9.29401,-12.9298,-11.2364,76.5017
2023-02-16 22:07:22:989,-2.18936,2.16061,-9.31949,-12.9465,-11.2068,76.5654
2023-02-16 22:07:22:999,-2.07773,2.16894,-9.35763,-12.9573,-11.1751,76.6206
2023-02-16 22:07:23:9,-1.99529,2.16479,-9.37072,-12.9708,-11.1431,76.6699
2023-02-16 22:07:23:19,-1.96402,2.16487,-9.35117,-12.9855,-11.108,76.7196
2023-02-16 22:07:23:29,-1.95491,2.17111,-9.35413,-13.001,-11.0716,76.7698
2023-02-16 22:07:23:39,-1.92745,2.21317,-9.37906,-13.0182,-11.0381,76.8159
2023-02-16 22:07:23:49,-1.8763,2.23948,-9.42192,-13.0335,-11.0043,76.8575
2023-02-16 22:07:23:59,-1.87431,2.24591,-9.44161,-13.0441,-10.9726,76.8961
2023-02-16 22:07:23:69,-1.85685,2.26093,-9.41745,-13.0507,-10.941,76.9354
2023-02-16 22:07:23:79,-1.83588,2.25003,-9.40747,-13.053,-10.911,76.9722
2023-02-16 22:07:23:89,-1.81293,2.22579,-9.39167,-13.0532,-10.8838,77.006
2023-02-16 22:07:23:99,-1.78912,2.20993,-9.3498,-13.0547,-10.859,77.0447
2023-02-16 22:07:23:109,-1.78225,2.19103,-9.3174,-13.0557,-10.8417,77.0856
2023-02-16 22:07:23:119,-1.7712,2.1834,-9.31959,-13.0599,-10.8256,77.1289
2023-02-16 22:07:23:129,-1.78811,2.18553,-9.35408,-13.0647,-10.8067,77.1687
2023-02-16 22:07:23:139,-1.824,2.17912,-9.36178,-13.0687,-10.7875,77.2097
2023-02-16 22:07:23:149,-1.83227,2.16914,-9.34574,-13.0699,-10.7652,77.2534
2023-02-16 22:07:23:159,-1.84384,2.18882,-9.36065,-13.0713,-10.7402,77.2941
2023-02-16 22:07:23:169,-1.85276,2.20125,-9.39154,-13.0735,-10.7146,77.3358
2023-02-16 22:07:23:179,-1.85177,2.19336,-9.38469,-13.0667,-10.6838,77.3713
2023-02-16 22:07:23:189,-1.80173,2.17936,-9.37297,-13.0614,-10.6509,77.4058
2023-02-16 22:07:23:199,-1.73947,2.15713,-9.36962,-13.0615,-10.617,77.4403
2023-02-16 22:07:23:209,-1.72074,2.15988,-9.34629,-13.059,-10.586,77.4759
2023-02-16 22:07:23:219,-1.72158,2.1545,-9.33408,-13.0598,-10.5548,77.5134
2023-02-16 22:07:23:229,-1.7128,2.15299,-9.32117,-13.0643,-10.5257,77.5518
2023-02-16 22:07:23:239,-1.7188,2.17454,-9.35474,-13.072,-10.5003,77.5916
2023-02-16 22:07:23:249,-1.74975,2.20349,-9.40358,-13.0781,-10.4784,77.631
2023-02-16 22:07:23:259,-1.78497,2.21354,-9.43842,-13.0808,-10.4564,77.6693
2023-02-16 22:07:23:269,-1.80186,2.22347,-9.44073,-13.082,-10.4284,77.7066
2023-02-16 22:07:23:279,-1.79182,2.19838,-9.4093,-13.0744,-10.4018,77.7415
2023-02-16 22:07:23:289,-1.76743,2.17414,-9.37251,-13.0644,-10.3769,77.7766
2023-02-16 22:07:23:299,-1.76877,2.1509,-9.34032,-13.0559,-10.3502,77.8095
2023-02-16 22:07:23:309,-1.76769,2.16125,-9.34931,-13.0519,-10.3239,77.8415
2023-02-16 22:07:23:319,-1.78073,2.17985,-9.39066,-13.0499,-10.2967,77.8718
2023-02-16 22:07:23:329,-1.80244,2.20001,-9.40498,-13.0449,-10.2699,77.9003
