Timestamp,Acceleration_x,Acceleration_y,Acceleration_z,roll,pitch,yaw
2023-02-16 22:05:26:802,-0.838946,1.64974,-9.61446,-9.0326,-5.36204,79.085
2023-02-16 22:05:26:810,-0.84276,1.63388,-9.63276,-9.0288,-5.36406,79.0205
2023-02-16 22:05:26:820,-0.818925,1.62915,-9.66512,-9.02015,-5.36832,78.9665
2023-02-16 22:05:26:830,-0.835061,1.61182,-9.68759,-9.00946,-5.37513,78.9159
2023-02-16 22:05:26:840,-0.855309,1.60078,-9.67174,-8.98954,-5.38397,78.8694
2023-02-16 22:05:26:850,-0.87484,1.56344,-9.65755,-8.97544,-5.38562,78.8301
2023-02-16 22:05:26:860,-0.905056,1.54037,-9.67457,-8.95663,-5.38951,78.7904
2023-02-16 22:05:26:871,-0.928735,1.54662,-9.66324,-8.93343,-5.39525,78.7535
2023-02-16 22:05:26:880,-0.941321,1.53378,-9.61297,-8.91135,-5.40052,78.7193
2023-02-16 22:05:26:890,-0.935623,1.51763,-9.60662,-8.89549,-5.40794,78.6817
2023-02-16 22:05:26:900,-0.927966,1.527,-9.61876,-8.87902,-5.4198,78.6481
2023-02-16 22:05:26:910,-0.911302,1.52623,-9.61674,-8.86067,-5.43313,78.6134
2023-02-16 22:05:26:920,-0.942476,1.50439,-9.58716,-8.83997,-5.44849,78.5788
2023-02-16 22:05:26:930,-0.969253,1.49004,-9.55451,-8.81999,-5.46394,78.5457
2023-02-16 22:05:26:940,-0.945303,1.4948,-9.53101,-8.79764,-5.47475,78.508
2023-02-16 22:05:26:950,-0.887264,1.47536,-9.52957,-8.7792,-5.48621,78.4725
2023-02-16 22:05:26:960,-0.834144,1.46058,-9.53694,-8.76818,-5.49709,78.4436
2023-02-16 22:05:26:970,-0.807222,1.4713,-9.51959,-8.76385,-5.51024,78.4187
2023-02-16 22:05:26:980,-0.806266,1.50019,-9.50732,-8.76826,-5.52582,78.4024
2023-02-16 22:05:26:990,-0.826443,1.54905,-9.56319,-8.77889,-5.547,78.3969
2023-02-16 22:05:27:0,-0.868047,1.6022,-9.66342,-8.79076,-5.5673,78.3957
2023-02-16 22:05:27:10,-0.897726,1.66211,-9.71146,-8.80325,-5.5889,78.4011
2023-02-16 22:05:27:20,-0.914538,1.68001,-9.69717,-8.80848,-5.61094,78.4125
2023-02-16 22:05:27:31,-0.909689,1.65448,-9.65018,-8.80507,-5.63367,78.4324
2023-02-16 22:05:27:41,-0.898281,1.63168,-9.5726,-8.80181,-5.65497,78.4643
2023-02-16 22:05:27:51,-0.951658,1.61404,-9.50704,-8.80038,-5.67791,78.5046
2023-02-16 22:05:27:61,-1.04605,1.61759,-9.49957,-8.79943,-5.69824,78.5519
2023-02-16 22:05:27:71,-1.11933,1.65357,-9.57982,-8.79898,-5.70833,78.5973
2023-02-16 22:05:27:81,-1.16638,1.67699,-9.65931,-8.78762,-5.70722,78.6414
2023-02-16 22:05:27:91,-1.13526,1.66996,-9.69855,-8.76678,-5.69774,78.6799
2023-02-16 22:05:27:101,-1.05999,1.61569,-9.69079,-8.73872,-5.68395,78.7132
2023-02-16 22:05:27:110,-0.990846,1.54343,-9.64667,-8.70442,-5.67182,78.7409
2023-02-16 22:05:27:121,-0.959808,1.48595,-9.57586,-8.67446,-5.66342,78.7694
2023-02-16 22:05:27:131,-0.941604,1.45357,-9.55519,-8.65087,-5.66086,78.7974
2023-02-16 22:05:27:140,-0.932093,1.44431,-9.57188,-8.63212,-5.65938,78.8248
2023-02-16 22:05:27:150,-0.923675,1.4288,-9.57716,-8.61924,-5.66155,78.8517
2023-02-16 22:05:27:160,-0.949432,1.43336,-9.56539,-8.61289,-5.66515,78.8803
2023-02-16 22:05:27:170,-0.969133,1.4382,-9.57194,-8.60746,-5.67139,78.9076
2023-02-16 22:05:27:180,-0.957549,1.44255,-9.60033,-8.60873,-5.6751,78.9323
2023-02-16 22:05:27:190,-0.95875,1.44013,-9.6016,-8.61055,-5.67976,78.9562
2023-02-16 22:05:27:200,-0.983331,1.44637,-9.59253,-8.61403,-5.68792,78.9831
2023-02-16 22:05:27:210,-0.997616,1.43236,-9.58858,-8.6191,-5.6936,79.0096
2023-02-16 22:05:27:220,-1.0233,1.4287,-9.58472,-8.62398,-5.69977,79.0353
2023-02-16 22:05:27:230,-1.04228,1.42805,-9.5635,-8.62586,-5.70357,79.0601
2023-02-16 22:05:27:240,-1.03719,1.4133,-9.58442,-8.62585,-5.70475,79.0817
2023-02-16 22:05:27:250,-1.01501,1.42032,-9.58055,-8.63482,-5.70691,79.0974
2023-02-16 22:05:27:260,-0.993198,1.43266,-9.61176,-8.64196,-5.70225,79.1124
2023-02-16 22:05:27:270,-0.98645,1.43797,-9.65219,-8.64779,-5.69725,79.1241
2023-02-16 22:05:27:280,-0.983687,1.4547,-9.64419,-8.65293,-5.69254,79.1362
2023-02-16 22:05:27:290,-0.965914,1.43559,-9.63896,-8.65741,-5.6854,79.148
2023-02-16 22:05:27:300,-0.97001,1.43713,-9.63713,-8.66602,-5.68035,79.162
2023-02-16 22:05:27:310,-1.01126,1.43777,-9.635,-8.6735,-5.67036,79.1744
2023-02-16 22:05:27:320,-1.01441,1.44137,-9.64545,-8.67592,-5.65793,79.1814
2023-02-16 22:05:27:330,-0.978126,1.45195,-9.67866,-8.68136,-5.64008,79.1861
2023-02-16 22:05:27:340,-0.904612,1.43455,-9.71424,-8.68045,-5.62303,79.186
2023-02-16 22:05:27:350,-0.85272,1.41701,-9.70511,-8.67823,-5.60815,79.1868
2023-02-16 22:05:27:360,-0.841391,1.39718,-9.64743,-8.67574,-5.59674,79.1837
2023-02-16 22:05:27:370,-0.853502,1.38528,-9.62014,-8.67553,-5.58858,79.1818
2023-02-16 22:05:27:380,-0.870949,1.40206,-9.60479,-8.68074,-5.58407,79.1812
2023-02-16 22:05:27:390,-0.893897,1.42541,-9.62195,-8.68698,-5.58212,79.1828
2023-02-16 22:05:27:400,-0.894653,1.45435,-9.63353,-8.69593,-5.57663,79.1832
2023-02-16 22:05:27:410,-0.882468,1.46051,-9.65552,-8.70156,-5.57248,79.1857
2023-02-16 22:05:27:420,-0.870848,1.45257,-9.647,-8.70675,-5.57436,79.1853
2023-02-16 22:05:27:431,-0.866395,1.43834,-9.61102,-8.7131,-5.57764,79.185
2023-02-16 22:05:27:440,-0.850483,1.41414,-9.57852,-8.71601,-5.58235,79.1866
2023-02-16 22:05:27:450,-0.836972,1.39552,-9.56152,-8.71909,-5.58517,79.1888
2023-02-16 22:05:27:460,-0.827419,1.40011,-9.54915,-8.72871,-5.59529,79.1974
2023-02-16 22:05:27:470,-0.834581,1.41366,-9.55937,-8.7421,-5.60732,79.2071
2023-02-16 22:05:27:480,-0.856886,1.42772,-9.59565,-8.76117,-5.62436,79.2192
2023-02-16 22:05:27:491,-0.881329,1.45521,-9.63708,-8.77939,-5.64481,79.234
2023-02-16 22:05:27:501,-0.911151,1.4786,-9.62642,-8.79778,-5.66704,79.2553
2023-02-16 22:05:27:511,-0.921278,1.4821,-9.59955,-8.81482,-5.6855,79.277
2023-02-16 22:05:27:521,-0.916593,1.46493,-9.58961,-8.83586,-5.70603,79.3045
2023-02-16 22:05:27:531,-0.915092,1.47184,-9.577,-8.86284,-5.72397,79.3357
2023-02-16 22:05:27:541,-0.926358,1.50201,-9.5634,-8.89313,-5.739,79.3701
2023-02-16 22:05:27:551,-0.951929,1.52531,-9.57575,-8.92516,-5.75189,79.4085
2023-02-16 22:05:27:561,-0.975084,1.55128,-9.59584,-8.95772,-5.76132,79.4517
2023-02-16 22:05:27:571,-0.973285,1.58494,-9.61868,-8.98851,-5.76754,79.4974
2023-02-16 22:05:27:580,-0.982513,1.59722,-9.63804,-9.01872,-5.77138,79.5464
2023-02-16 22:05:27:591,-1.00113,1.59749,-9.64337,-9.04379,-5.77596,79.5925
2023-02-16 22:05:27:601,-0.988295,1.58625,-9.63508,-9.06836,-5.7742,79.6336
2023-02-16 22:05:27:611,-0.970712,1.58858,-9.62595,-9.09227,-5.77173,79.679
2023-02-16 22:05:27:621,-0.965766,1.60201,-9.60967,-9.11754,-5.77059,79.7226
2023-02-16 22:05:27:630,-0.976955,1.60845,-9.616,-9.14244,-5.77405,79.7606
2023-02-16 22:05:27:641,-0.95666,1.6113,-9.63246,-9.16532,-5.77936,79.7995
2023-02-16 22:05:27:651,-0.958923,1.61597,-9.62994,-9.18886,-5.78779,79.8445
2023-02-16 22:05:27:661,-0.97992,1.62765,-9.64154,-9.21161,-5.79802,79.8867
2023-02-16 22:05:27:670,-1.00128,1.63646,-9.65305,-9.22868,-5.80903,79.9279
2023-02-16 22:05:27:680,-1.02345,1.62092,-9.63895,-9.24204,-5.82261,79.9707
2023-02-16 22:05:27:690,-1.0235,1.61136,-9.60019,-9.25453,-5.83794,80.0082
2023-02-16 22:05:27:700,-1.03008,1.61798,-9.58262,-9.26842,-5.84733,80.0454
2023-02-16 22:05:27:710,-1.05395,1.61499,-9.58366,-9.27951,-5.85797,80.0814
2023-02-16 22:05:27:720,-1.0603,1.62992,-9.60331,-9.29367,-5.87065,80.1121
2023-02-16 22:05:27:730,-1.06569,1.64257,-9.62507,-9.30416,-5.88175,80.1443
2023-02-16 22:05:27:741,-1.08266,1.64514,-9.63415,-9.31674,-5.89331,80.1728
2023-02-16 22:05:27:750,-1.11072,1.63908,-9.64909,-9.32786,-5.90578,80.2031
2023-02-16 22:05:27:761,-1.11331,1.63059,-9.64836,-9.3353,-5.91653,80.2287
2023-02-16 22:05:27:770,-1.10096,1.63001,-9.63064,-9.34137,-5.92717,80.2507
2023-02-16 22:05:27:780,-1.08458,1.62297,-9.62947,-9.34335,-5.9367,80.2717
2023-02-16 22:05:27:790,-1.07021,1.6094,-9.61243,-9.34854,-5.94727,80.2937
2023-02-16 22:05:27:801,-1.06864,1.58114,-9.59624,-9.3458,-5.96055,80.3125
2023-02-16 22:05:27:811,-1.05486,1.57407,-9.5888,-9.34961,-5.97052,80.3273
2023-02-16 22:05:27:820,-1.04366,1.59273,-9.61311,-9.35385,-5.9789,80.3453
2023-02-16 22:05:27:830,-1.04176,1.6414,-9.65371,-9.35915,-5.98922,80.3632
2023-02-16 22:05:27:841,-1.01862,1.66059,-9.66225,-9.35703,-5.99717,80.3806
2023-02-16 22:05:27:850,-0.980834,1.63705,-9.61805,-9.35337,-6.00988,80.3989
2023-02-16 22:05:27:860,-0.962376,1.6096,-9.58182,-9.34963,-6.02043,80.4185
2023-02-16 22:05:27:871,-0.966523,1.59327,-9.56872,-9.35026,-6.031,80.4488
2023-02-16 22:05:27:881,-0.983125,1.58349,-9.51599,-9.35121,-6.04263,80.4824
2023-02-16 22:05:27:890,-1.00603,1.5902,-9.48616,-9.35667,-6.05373,80.5193
2023-02-16 22:05:27:901,-1.00941,1.60037,-9.48796,-9.37224,-6.06438,80.5664
2023-02-16 22:05:27:911,-1.02083,1.62599,-9.52165,-9.39527,-6.07372,80.6129
2023-02-16 22:05:27:921,-1.00255,1.65424,-9.58107,-9.41981,-6.08104,80.6668
2023-02-16 22:05:27:931,-1.03918,1.68998,-9.62258,-9.43777,-6.09207,80.721
2023-02-16 22:05:27:941,-1.09119,1.69757,-9.64479,-9.45515,-6.09916,80.781
2023-02-16 22:05:27:950,-1.10924,1.66292,-9.63494,-9.45833,-6.10784,80.8399
2023-02-16 22:05:27:960,-1.12374,1.64216,-9.62275,-9.46122,-6.11433,80.8956
2023-02-16 22:05:27:970,-1.13561,1.65276,-9.62008,-9.45843,-6.11907,80.9519
2023-02-16 22:05:27:980,-1.14065,1.62706,-9.59515,-9.45499,-6.1283,81.0039
2023-02-16 22:05:27:990,-1.12515,1.59214,-9.55058,-9.44969,-6.13414,81.0495
2023-02-16 22:05:28:0,-1.11095,1.56567,-9.51172,-9.45254,-6.13826,81.0921
2023-02-16 22:05:28:10,-1.11786,1.56785,-9.50899,-9.46392,-6.14697,81.1333
2023-02-16 22:05:28:20,-1.14762,1.5996,-9.52636,-9.48131,-6.15095,81.1772
2023-02-16 22:05:28:30,-1.15775,1.63565,-9.56126,-9.49919,-6.15413,81.2145
2023-02-16 22:05:28:40,-1.16995,1.67051,-9.59352,-9.51436,-6.15335,81.2413
2023-02-16 22:05:28:50,-1.16058,1.68328,-9.61089,-9.52472,-6.14253,81.2603
2023-02-16 22:05:28:60,-1.13365,1.68757,-9.59747,-9.53244,-6.13045,81.2737
2023-02-16 22:05:28:70,-1.11067,1.65926,-9.55951,-9.54009,-6.12073,81.2783
2023-02-16 22:05:28:80,-1.0817,1.63188,-9.52413,-9.55119,-6.11337,81.2769
2023-02-16 22:05:28:90,-1.075,1.63321,-9.50894,-9.56868,-6.11268,81.2658
2023-02-16 22:05:28:100,-1.09006,1.66671,-9.53931,-9.59585,-6.1177,81.2558
2023-02-16 22:05:28:110,-1.12747,1.72957,-9.62924,-9.63088,-6.12464,81.2429
2023-02-16 22:05:28:120,-1.16012,1.8346,-9.79279,-9.65951,-6.12758,81.2298
2023-02-16 22:05:28:130,-1.17749,1.94199,-9.9316,-9.6738,-6.12314,81.2115
2023-02-16 22:05:28:140,-1.14692,1.97702,-9.94419,-9.66143,-6.1094,81.1866
2023-02-16 22:05:28:150,-1.09305,1.88529,-9.8047,-9.62512,-6.07666,81.1619
2023-02-16 22:05:28:160,-1.03073,1.7668,-9.63197,-9.58216,-6.03722,81.1416
2023-02-16 22:05:28:170,-0.960619,1.69779,-9.52938,-9.54419,-5.99848,81.1186
2023-02-16 22:05:28:180,-0.904499,1.65013,-9.4962,-9.51606,-5.96088,81.1063
2023-02-16 22:05:28:190,-0.938223,1.67089,-9.55837,-9.49407,-5.93251,81.0981
2023-02-16 22:05:28:200,-1.00541,1.70385,-9.67705,-9.46858,-5.90355,81.0908
2023-02-16 22:05:28:210,-1.03768,1.69572,-9.73023,-9.43061,-5.87755,81.0798
2023-02-16 22:05:28:220,-1.01506,1.64115,-9.697,-9.38379,-5.85547,81.0635
2023-02-16 22:05:28:230,-0.969939,1.58577,-9.6567,-9.33109,-5.83379,81.0434
2023-02-16 22:05:28:240,-0.951466,1.53221,-9.60704,-9.27648,-5.81463,81.0165
2023-02-16 22:05:28:250,-0.952505,1.48933,-9.54367,-9.22593,-5.80613,80.9894
2023-02-16 22:05:28:260,-0.953201,1.44379,-9.51275,-9.18454,-5.80243,80.9533
2023-02-16 22:05:28:270,-0.953636,1.44761,-9.53671,-9.14422,-5.79822,80.9165
2023-02-16 22:05:28:280,-0.946782,1.44721,-9.56762,-9.10578,-5.79505,80.8784
2023-02-16 22:05:28:290,-0.938315,1.44659,-9.58702,-9.06802,-5.79154,80.8369
2023-02-16 22:05:28:300,-0.92024,1.44805,-9.61043,-9.03421,-5.79314,80.7968
2023-02-16 22:05:28:310,-0.911115,1.43681,-9.60314,-9.00137,-5.79588,80.7544
2023-02-16 22:05:28:320,-0.915634,1.40769,-9.56415,-8.96973,-5.79885,80.7104
2023-02-16 22:05:28:330,-0.923612,1.37711,-9.51619,-8.93489,-5.80416,80.6679
2023-02-16 22:05:28:340,-0.925198,1.34625,-9.48372,-8.90769,-5.80533,80.6196
2023-02-16 22:05:28:350,-0.905683,1.34138,-9.50394,-8.88933,-5.80457,80.5693
2023-02-16 22:05:28:360,-0.88045,1.36635,-9.59417,-8.88207,-5.80278,80.5205
2023-02-16 22:05:28:370,-0.86563,1.42175,-9.67641,-8.8742,-5.80444,80.4757
2023-02-16 22:05:28:380,-0.879372,1.45508,-9.66856,-8.86328,-5.80785,80.4358
2023-02-16 22:05:28:390,-0.910614,1.46055,-9.59164,-8.85373,-5.80908,80.3958
2023-02-16 22:05:28:400,-0.912312,1.44016,-9.52311,-8.8435,-5.8035,80.3547
2023-02-16 22:05:28:410,-0.888003,1.43746,-9.50071,-8.83935,-5.80014,80.3167
2023-02-16 22:05:28:420,-0.878721,1.44888,-9.48618,-8.83955,-5.79776,80.2838
2023-02-16 22:05:28:430,-0.873248,1.48034,-9.50222,-8.84504,-5.79791,80.2526
2023-02-16 22:05:28:440,-0.869111,1.49447,-9.552,-8.85863,-5.79791,80.2261
2023-02-16 22:05:28:450,-0.874215,1.51523,-9.58248,-8.87302,-5.79929,80.1986
2023-02-16 22:05:28:460,-0.873796,1.51145,-9.59545,-8.88798,-5.8055,80.1754
2023-02-16 22:05:28:470,-0.851381,1.53563,-9.62088,-8.90882,-5.81747,80.1545
2023-02-16 22:05:28:480,-0.872178,1.56734,-9.64469,-8.93126,-5.83374,80.1396
2023-02-16 22:05:28:490,-0.926027,1.59115,-9.66356,-8.94958,-5.85172,80.1274
2023-02-16 22:05:28:500,-0.94816,1.60532,-9.67501,-8.96468,-5.86917,80.115
2023-02-16 22:05:28:510,-0.944397,1.60803,-9.6865,-8.9745,-5.88309,80.1079
2023-02-16 22:05:28:520,-0.933357,1.59773,-9.69225,-8.9838,-5.89872,80.1015
2023-02-16 22:05:28:530,-0.938129,1.58892,-9.67057,-8.98752,-5.91483,80.0974
2023-02-16 22:05:28:540,-0.944016,1.57512,-9.64074,-8.98838,-5.92869,80.0986
2023-02-16 22:05:28:550,-0.940714,1.55394,-9.58118,-8.98884,-5.94619,80.1009
2023-02-16 22:05:28:560,-0.9288,1.53034,-9.52266,-8.99473,-5.96061,80.1068
2023-02-16 22:05:28:570,-0.945555,1.53755,-9.56375,-9.00652,-5.97882,80.1177
2023-02-16 22:05:28:580,-0.987608,1.57874,-9.64809,-9.01666,-5.9924,80.1301
2023-02-16 22:05:28:590,-1.00815,1.60625,-9.72779,-9.02346,-6.0079,80.1397
2023-02-16 22:05:28:600,-0.971749,1.58944,-9.72556,-9.02218,-6.02749,80.1449
2023-02-16 22:05:28:610,-0.952135,1.56,-9.70817,-9.01945,-6.04889,80.1549
2023-02-16 22:05:28:620,-0.999577,1.55695,-9.6653,-9.01558,-6.07452,80.1714
2023-02-16 22:05:28:630,-1.04955,1.57024,-9.60259,-9.01646,-6.10597,80.1889
2023-02-16 22:05:28:640,-1.08929,1.56547,-9.54218,-9.01487,-6.13601,80.2034
2023-02-16 22:05:28:650,-1.11653,1.55154,-9.51838,-9.01611,-6.16,80.2158
2023-02-16 22:05:28:660,-1.09713,1.54116,-9.54547,-9.02019,-6.17737,80.232
2023-02-16 22:05:28:670,-1.06659,1.54477,-9.56804,-9.02491,-6.19509,80.2487
2023-02-16 22:05:28:680,-1.06511,1.55343,-9.56672,-9.03176,-6.21684,80.2645
2023-02-16 22:05:28:690,-1.0999,1.53158,-9.56983,-9.03713,-6.23285,80.2793
2023-02-16 22:05:28:700,-1.13267,1.51976,-9.56277,-9.03858,-6.24839,80.2924
2023-02-16 22:05:28:710,-1.14152,1.52758,-9.56799,-9.04259,-6.26015,80.3086
2023-02-16 22:05:28:720,-1.14532,1.50038,-9.58031,-9.04797,-6.2749,80.3197
2023-02-16 22:05:28:730,-1.13995,1.47941,-9.54488,-9.04779,-6.28172,80.3292
2023-02-16 22:05:28:740,-1.14296,1.47243,-9.52388,-9.04826,-6.29258,80.3376
2023-02-16 22:05:28:750,-1.16018,1.47168,-9.53732,-9.05816,-6.30317,80.3417
2023-02-16 22:05:28:760,-1.16391,1.47915,-9.57749,-9.06671,-6.31168,80.3446
2023-02-16 22:05:28:770,-1.15055,1.50433,-9.5879,-9.07963,-6.32111,80.3437
2023-02-16 22:05:28:780,-1.13729,1.50232,-9.56879,-9.09632,-6.33008,80.3431
2023-02-16 22:05:28:790,-1.15315,1.51115,-9.5759,-9.11225,-6.34113,80.3402
2023-02-16 22:05:28:800,-1.16785,1.52286,-9.58433,-9.13178,-6.34785,80.3328
2023-02-16 22:05:28:810,-1.14716,1.54499,-9.58546,-9.15074,-6.35196,80.3253
2023-02-16 22:05:28:820,-1.07651,1.56022,-9.60024,-9.17095,-6.35911,80.315
2023-02-16 22:05:28:830,-1.03766,1.55952,-9.58927,-9.19111,-6.36847,80.3063
2023-02-16 22:05:28:840,-1.05637,1.55181,-9.56972,-9.20981,-6.38166,80.2992
2023-02-16 22:05:28:850,-1.08544,1.56846,-9.56098,-9.23394,-6.3954,80.2964
2023-02-16 22:05:28:860,-1.12659,1.58121,-9.5676,-9.26184,-6.41335,80.2965
2023-02-16 22:05:28:870,-1.14498,1.62108,-9.59512,-9.28778,-6.42377,80.2967
2023-02-16 22:05:28:880,-1.15654,1.63133,-9.6069,-9.31537,-6.43626,80.3057
2023-02-16 22:05:28:890,-1.19279,1.64207,-9.59432,-9.33992,-6.44648,80.3176
2023-02-16 22:05:28:900,-1.22798,1.65878,-9.6291,-9.36229,-6.45064,80.3274
2023-02-16 22:05:28:910,-1.26299,1.68067,-9.64751,-9.37699,-6.45215,80.3381
2023-02-16 22:05:28:920,-1.28744,1.67535,-9.61874,-9.38713,-6.44852,80.3474
2023-02-16 22:05:28:930,-1.27182,1.65257,-9.5912,-9.3946,-6.44252,80.3505
2023-02-16 22:05:28:940,-1.23723,1.63047,-9.56718,-9.39984,-6.43243,80.353
2023-02-16 22:05:28:950,-1.22946,1.62169,-9.51171,-9.40064,-6.42177,80.3504
2023-02-16 22:05:28:960,-1.21324,1.6019,-9.48955,-9.40667,-6.40913,80.3452
2023-02-16 22:05:28:970,-1.1948,1.60218,-9.50711,-9.41707,-6.39432,80.3346
2023-02-16 22:05:28:980,-1.19747,1.61722,-9.55211,-9.42918,-6.37784,80.3242
2023-02-16 22:05:28:990,-1.18939,1.65145,-9.59376,-9.44104,-6.3596,80.3124
2023-02-16 22:05:29:0,-1.17976,1.65989,-9.61216,-9.45155,-6.34319,80.2958
2023-02-16 22:05:29:10,-1.17398,1.65577,-9.61739,-9.45907,-6.32656,80.2781
2023-02-16 22:05:29:20,-1.16178,1.65139,-9.63479,-9.46687,-6.30719,80.2562
2023-02-16 22:05:29:30,-1.15653,1.64884,-9.62249,-9.47257,-6.28853,80.2334
2023-02-16 22:05:29:40,-1.12992,1.64304,-9.60772,-9.47911,-6.26695,80.2083
2023-02-16 22:05:29:50,-1.10459,1.64006,-9.59994,-9.48674,-6.24534,80.1816
2023-02-16 22:05:29:60,-1.08371,1.63948,-9.59326,-9.49429,-6.22322,80.1582
2023-02-16 22:05:29:70,-1.08912,1.63148,-9.58034,-9.49955,-6.2015,80.1286
2023-02-16 22:05:29:80,-1.06786,1.62758,-9.56845,-9.50572,-6.17963,80.0979
2023-02-16 22:05:29:90,-1.0431,1.63401,-9.56646,-9.51081,-6.15511,80.0677
2023-02-16 22:05:29:100,-1.02563,1.63744,-9.56001,-9.51668,-6.12992,80.0398
2023-02-16 22:05:29:110,-1.01291,1.63584,-9.55964,-9.52351,-6.10807,80.0105
2023-02-16 22:05:29:120,-1.01269,1.62171,-9.57402,-9.52965,-6.087,79.9811
2023-02-16 22:05:29:130,-1.00052,1.61939,-9.5838,-9.53392,-6.06698,79.9518
2023-02-16 22:05:29:140,-0.998712,1.62015,-9.58853,-9.54035,-6.05168,79.9241
2023-02-16 22:05:29:150,-0.995802,1.62977,-9.58958,-9.54892,-6.0345,79.897
2023-02-16 22:05:29:160,-0.991887,1.62176,-9.5895,-9.55507,-6.01606,79.8719
2023-02-16 22:05:29:170,-0.981563,1.62155,-9.5853,-9.56039,-5.99965,79.8433
2023-02-16 22:05:29:180,-0.959748,1.62376,-9.55965,-9.56879,-5.98724,79.8132
2023-02-16 22:05:29:190,-0.92645,1.59926,-9.55737,-9.57677,-5.97625,79.7814
2023-02-16 22:05:29:200,-0.91104,1.60795,-9.55514,-9.5931,-5.96414,79.7568
2023-02-16 22:05:29:210,-0.913308,1.6318,-9.58071,-9.60764,-5.95566,79.7311
2023-02-16 22:05:29:220,-0.92147,1.6603,-9.62703,-9.62213,-5.95143,79.7095
2023-02-16 22:05:29:230,-0.931476,1.67784,-9.6387,-9.63541,-5.94585,79.6882
2023-02-16 22:05:29:240,-0.933932,1.66239,-9.61409,-9.64187,-5.94399,79.6678
2023-02-16 22:05:29:250,-0.912116,1.65662,-9.60519,-9.65181,-5.94064,79.6548
2023-02-16 22:05:29:260,-0.901975,1.6622,-9.59917,-9.66429,-5.94229,79.6422
2023-02-16 22:05:29:270,-0.904764,1.66763,-9.60216,-9.67573,-5.94162,79.6321
2023-02-16 22:05:29:280,-0.933747,1.67331,-9.6014,-9.69139,-5.94216,79.6275
2023-02-16 22:05:29:290,-0.969017,1.67673,-9.60373,-9.70339,-5.94281,79.6272
2023-02-16 22:05:29:300,-0.968665,1.70021,-9.62455,-9.70944,-5.93808,79.6289
2023-02-16 22:05:29:310,-0.954873,1.69365,-9.62457,-9.71301,-5.93364,79.6334
2023-02-16 22:05:29:320,-0.959046,1.6668,-9.61369,-9.71618,-5.92469,79.6413
2023-02-16 22:05:29:330,-0.95487,1.67228,-9.63072,-9.72091,-5.91534,79.6523
2023-02-16 22:05:29:340,-0.940905,1.69088,-9.65263,-9.72442,-5.90769,79.6641
2023-02-16 22:05:29:350,-0.931308,1.67736,-9.63805,-9.72588,-5.90329,79.6788
2023-02-16 22:05:29:360,-0.94423,1.6561,-9.59836,-9.7308,-5.90049,79.6989
2023-02-16 22:05:29:371,-0.979825,1.66428,-9.57547,-9.73429,-5.89882,79.7181
2023-02-16 22:05:29:380,-1.02205,1.68595,-9.57895,-9.74482,-5.89521,79.7382
2023-02-16 22:05:29:390,-1.05198,1.72272,-9.58151,-9.75293,-5.89659,79.7559
2023-02-16 22:05:29:400,-1.04853,1.7361,-9.5834,-9.76309,-5.89685,79.7724
2023-02-16 22:05:29:410,-1.04982,1.72432,-9.583,-9.77112,-5.89363,79.7842
2023-02-16 22:05:29:420,-1.04695,1.72752,-9.5733,-9.77895,-5.89362,79.7977
2023-02-16 22:05:29:430,-1.05323,1.73767,-9.55511,-9.78219,-5.89225,79.8067
2023-02-16 22:05:29:440,-1.04702,1.70592,-9.56728,-9.78533,-5.89137,79.8133
2023-02-16 22:05:29:450,-1.02892,1.70406,-9.58019,-9.78364,-5.89132,79.8158
2023-02-16 22:05:29:460,-0.99526,1.69243,-9.57302,-9.77906,-5.88762,79.816
2023-02-16 22:05:29:470,-0.978583,1.66714,-9.5682,-9.77245,-5.8865,79.813
2023-02-16 22:05:29:480,-0.961479,1.65122,-9.56407,-9.76697,-5.88346,79.8091
2023-02-16 22:05:29:490,-0.961967,1.66219,-9.56607,-9.76704,-5.87966,79.8075
2023-02-16 22:05:29:500,-0.955366,1.64574,-9.57961,-9.76709,-5.87335,79.8089
2023-02-16 22:05:29:510,-0.943428,1.65521,-9.58871,-9.76943,-5.86748,79.8091
2023-02-16 22:05:29:520,-0.927017,1.66266,-9.57058,-9.77248,-5.85958,79.8105
2023-02-16 22:05:29:530,-0.918116,1.64472,-9.56726,-9.777,-5.85108,79.8173
2023-02-16 22:05:29:540,-0.953917,1.64679,-9.56746,-9.78532,-5.84302,79.8263
2023-02-16 22:05:29:550,-0.99396,1.66444,-9.58401,-9.79232,-5.83512,79.8332
2023-02-16 22:05:29:560,-0.966959,1.69289,-9.61796,-9.80186,-5.82734,79.8394
2023-02-16 22:05:29:571,-0.917036,1.68273,-9.61899,-9.804,-5.81668,79.8438
2023-02-16 22:05:29:580,-0.903108,1.66542,-9.58781,-9.80671,-5.81135,79.8494
2023-02-16 22:05:29:591,-0.917261,1.65567,-9.56221,-9.81127,-5.80987,79.8562
2023-02-16 22:05:29:600,-0.929886,1.6593,-9.54822,-9.82056,-5.81178,79.8656
2023-02-16 22:05:29:611,-0.918351,1.68233,-9.55714,-9.83147,-5.81003,79.8718
2023-02-16 22:05:29:620,-0.927956,1.70058,-9.59048,-9.84104,-5.81105,79.8791
2023-02-16 22:05:29:630,-0.915934,1.69812,-9.60869,-9.85006,-5.80767,79.8913
2023-02-16 22:05:29:640,-0.888442,1.70191,-9.5965,-9.85938,-5.80818,79.9056
2023-02-16 22:05:29:650,-0.879962,1.71929,-9.61039,-9.8718,-5.80908,79.9198
2023-02-16 22:05:29:660,-0.899928,1.74406,-9.64642,-9.88377,-5.81059,79.9369
2023-02-16 22:05:29:670,-0.901436,1.75811,-9.66395,-9.88627,-5.81176,79.9555
2023-02-16 22:05:29:680,-0.915797,1.72459,-9.63304,-9.88635,-5.81298,79.9785
2023-02-16 22:05:29:690,-0.916687,1.7004,-9.57822,-9.88622,-5.81269,80.0014
2023-02-16 22:05:29:700,-0.922159,1.6967,-9.55907,-9.88418,-5.81198,80.0263
2023-02-16 22:05:29:710,-0.920776,1.68647,-9.56552,-9.88394,-5.81881,80.0513
2023-02-16 22:05:29:720,-0.928756,1.68185,-9.56128,-9.89031,-5.8257,80.0787
2023-02-16 22:05:29:730,-0.932803,1.70263,-9.56856,-9.89298,-5.83105,80.1049
2023-02-16 22:05:29:740,-0.959836,1.70421,-9.58168,-9.89703,-5.84511,80.1336
2023-02-16 22:05:29:750,-0.977603,1.70621,-9.59043,-9.90137,-5.85687,80.1641
2023-02-16 22:05:29:760,-0.976458,1.72237,-9.58501,-9.90946,-5.87216,80.1943
2023-02-16 22:05:29:770,-0.974633,1.71081,-9.57604,-9.91877,-5.88637,80.2219
2023-02-16 22:05:29:780,-0.987392,1.70673,-9.57532,-9.92697,-5.89729,80.252
2023-02-16 22:05:29:790,-1.00046,1.69918,-9.57604,-9.93515,-5.91381,80.2854
2023-02-16 22:05:29:800,-1.00872,1.71308,-9.5615,-9.9449,-5.92588,80.3256
2023-02-16 22:05:29:810,-1.02227,1.70634,-9.55053,-9.95588,-5.93748,80.3618
2023-02-16 22:05:29:820,-1.02995,1.70549,-9.56765,-9.97018,-5.94985,80.3981
2023-02-16 22:05:29:830,-1.03565,1.72968,-9.6009,-9.98395,-5.96089,80.4381
2023-02-16 22:05:29:841,-1.05063,1.76402,-9.61682,-9.99482,-5.97306,80.4758
2023-02-16 22:05:29:851,-1.08032,1.7702,-9.62506,-10.0051,-5.97994,80.5175
2023-02-16 22:05:29:860,-1.08595,1.77956,-9.62789,-10.0117,-5.98772,80.5573
2023-02-16 22:05:29:870,-1.07271,1.7876,-9.62499,-10.0145,-5.99296,80.5964
2023-02-16 22:05:29:881,-1.05205,1.7726,-9.60679,-10.0121,-5.99901,80.6356
2023-02-16 22:05:29:890,-1.04962,1.76375,-9.56846,-10.0114,-6.00745,80.6704
2023-02-16 22:05:29:900,-1.04322,1.74905,-9.57389,-10.0105,-6.02036,80.708
2023-02-16 22:05:29:910,-1.0464,1.75061,-9.56843,-10.0096,-6.03191,80.7472
2023-02-16 22:05:29:920,-1.05393,1.7483,-9.57621,-10.008,-6.04306,80.7856
2023-02-16 22:05:29:930,-1.06566,1.73813,-9.57393,-10.0035,-6.0543,80.8212
2023-02-16 22:05:29:940,-1.06134,1.71585,-9.56201,-9.99777,-6.06118,80.8582
2023-02-16 22:05:29:951,-1.05706,1.69257,-9.54644,-9.99189,-6.07411,80.8903
2023-02-16 22:05:29:960,-1.06338,1.67856,-9.54322,-9.98311,-6.07983,80.9263
2023-02-16 22:05:29:970,-1.07092,1.67553,-9.52081,-9.97429,-6.08575,80.9556
2023-02-16 22:05:29:980,-1.05767,1.65599,-9.50795,-9.97222,-6.09284,80.9878
2023-02-16 22:05:29:990,-1.05401,1.65725,-9.50069,-9.97188,-6.09979,81.0188
2023-02-16 22:05:30:0,-1.06251,1.67171,-9.49653,-9.97464,-6.10254,81.0487
2023-02-16 22:05:30:10,-1.04841,1.67925,-9.50686,-9.98336,-6.10721,81.0814
2023-02-16 22:05:30:20,-1.04162,1.69692,-9.54395,-9.99401,-6.11366,81.1111
2023-02-16 22:05:30:31,-1.05643,1.72965,-9.5933,-10.0102,-6.12075,81.1412
2023-02-16 22:05:30:41,-1.05386,1.74413,-9.65808,-10.0186,-6.12484,81.1702
2023-02-16 22:05:30:50,-1.04884,1.76779,-9.69947,-10.0236,-6.12707,81.1971
2023-02-16 22:05:30:60,-1.01113,1.76926,-9.66717,-10.0177,-6.13231,81.2227
2023-02-16 22:05:30:70,-0.97563,1.71755,-9.60731,-10.0128,-6.14314,81.2496
2023-02-16 22:05:30:80,-0.984261,1.69462,-9.55443,-10.0139,-6.15597,81.2783
2023-02-16 22:05:30:91,-1.02952,1.70561,-9.54184,-10.0155,-6.17222,81.3145
2023-02-16 22:05:30:100,-1.08005,1.72458,-9.56203,-10.0192,-6.1902,81.3465
2023-02-16 22:05:30:111,-1.10894,1.74552,-9.59032,-10.0223,-6.2084,81.3802
2023-02-16 22:05:30:120,-1.10582,1.76486,-9.59791,-10.0269,-6.22087,81.4103
2023-02-16 22:05:30:131,-1.09769,1.76745,-9.61586,-10.0324,-6.23157,81.443
2023-02-16 22:05:30:141,-1.10585,1.78032,-9.59969,-10.0314,-6.24071,81.4753
2023-02-16 22:05:30:151,-1.12237,1.76796,-9.57065,-10.0259,-6.25008,81.5035
2023-02-16 22:05:30:160,-1.13085,1.74977,-9.5574,-10.02,-6.25763,81.5321
2023-02-16 22:05:30:171,-1.13189,1.73622,-9.55838,-10.0126,-6.2608,81.5585
2023-02-16 22:05:30:180,-1.11944,1.7233,-9.54903,-10.0033,-6.26208,81.5797
2023-02-16 22:05:30:191,-1.11099,1.69225,-9.54304,-9.99436,-6.26123,81.6007
2023-02-16 22:05:30:201,-1.10205,1.69503,-9.52578,-9.98703,-6.25984,81.6185
2023-02-16 22:05:30:211,-1.1106,1.69209,-9.53346,-9.98138,-6.26206,81.6361
2023-02-16 22:05:30:221,-1.10838,1.67955,-9.55786,-9.97463,-6.26081,81.6476
2023-02-16 22:05:30:231,-1.0849,1.67648,-9.56181,-9.97001,-6.26032,81.6589
2023-02-16 22:05:30:241,-1.05949,1.67802,-9.58253,-9.96916,-6.25686,81.6702
2023-02-16 22:05:30:251,-1.06267,1.68013,-9.6097,-9.97143,-6.2506,81.6867
2023-02-16 22:05:30:261,-1.0817,1.69064,-9.6283,-9.97098,-6.2432,81.7036
2023-02-16 22:05:30:270,-1.10371,1.70452,-9.64568,-9.96669,-6.23247,81.7176
2023-02-16 22:05:30:280,-1.0721,1.70825,-9.64261,-9.95853,-6.21811,81.7338
2023-02-16 22:05:30:291,-1.0413,1.70037,-9.62739,-9.94571,-6.20622,81.7451
2023-02-16 22:05:30:300,-1.04037,1.67155,-9.58027,-9.93248,-6.19926,81.7592
2023-02-16 22:05:30:310,-1.05483,1.65222,-9.53961,-9.92318,-6.19101,81.7706
2023-02-16 22:05:30:320,-1.06086,1.64303,-9.51458,-9.91539,-6.18696,81.7801
2023-02-16 22:05:30:331,-1.0836,1.63255,-9.52111,-9.91099,-6.18029,81.7879
2023-02-16 22:05:30:340,-1.07066,1.6317,-9.53293,-9.90545,-6.16795,81.7931
2023-02-16 22:05:30:350,-1.04497,1.65038,-9.53453,-9.90597,-6.15425,81.7987
2023-02-16 22:05:30:361,-1.0156,1.6404,-9.55166,-9.90932,-6.13923,81.8016
2023-02-16 22:05:30:370,-0.983677,1.64887,-9.5677,-9.91165,-6.12765,81.805
2023-02-16 22:05:30:380,-1.00788,1.67572,-9.5671,-9.9192,-6.11679,81.8088
2023-02-16 22:05:30:390,-1.01446,1.68444,-9.56813,-9.9277,-6.11147,81.8107
2023-02-16 22:05:30:400,-1.03148,1.67754,-9.54755,-9.93292,-6.1073,81.8153
2023-02-16 22:05:30:410,-1.03057,1.68677,-9.52626,-9.94024,-6.10272,81.8155
2023-02-16 22:05:30:420,-1.02118,1.68452,-9.51669,-9.9476,-6.09835,81.8148
2023-02-16 22:05:30:431,-1.02573,1.67979,-9.52693,-9.95884,-6.10088,81.8158
2023-02-16 22:05:30:441,-1.03082,1.69695,-9.52598,-9.97009,-6.10564,81.8134
2023-02-16 22:05:30:451,-1.05,1.71085,-9.54193,-9.985,-6.10814,81.8091
2023-02-16 22:05:30:460,-1.06412,1.73337,-9.57289,-10.0035,-6.11588,81.8052
2023-02-16 22:05:30:470,-1.08207,1.75391,-9.60089,-10.0166,-6.12314,81.7986
2023-02-16 22:05:30:481,-1.08455,1.75586,-9.60866,-10.0288,-6.12949,81.7892
2023-02-16 22:05:30:490,-1.0758,1.75802,-9.59895,-10.0411,-6.13683,81.7782
2023-02-16 22:05:30:500,-1.07164,1.76276,-9.58611,-10.0541,-6.14415,81.7667
2023-02-16 22:05:30:510,-1.0699,1.7608,-9.58149,-10.0669,-6.15146,81.7547
2023-02-16 22:05:30:520,-1.08271,1.75893,-9.56358,-10.0774,-6.159,81.7416
2023-02-16 22:05:30:530,-1.08767,1.74936,-9.56737,-10.087,-6.16607,81.7317
2023-02-16 22:05:30:540,-1.1005,1.77826,-9.58175,-10.0986,-6.17145,81.7192
2023-02-16 22:05:30:550,-1.10295,1.79217,-9.59753,-10.1058,-6.17662,81.7047
2023-02-16 22:05:30:560,-1.10293,1.79921,-9.60999,-10.1095,-6.17819,81.6932
2023-02-16 22:05:30:570,-1.0832,1.78069,-9.61132,-10.1127,-6.17993,81.6853
2023-02-16 22:05:30:580,-1.07337,1.7549,-9.58711,-10.1099,-6.17651,81.6766
2023-02-16 22:05:30:590,-1.05306,1.73536,-9.55468,-10.1065,-6.17159,81.6711
2023-02-16 22:05:30:600,-1.03291,1.71324,-9.53408,-10.1045,-6.16559,81.6646
2023-02-16 22:05:30:610,-1.02316,1.71795,-9.51741,-10.1047,-6.16004,81.6588
2023-02-16 22:05:30:620,-1.02462,1.71743,-9.54214,-10.1113,-6.16078,81.6584
2023-02-16 22:05:30:631,-1.04102,1.72244,-9.55839,-10.1144,-6.15796,81.6581
2023-02-16 22:05:30:641,-1.08194,1.73864,-9.57476,-10.1188,-6.15518,81.6598
2023-02-16 22:05:30:651,-1.08993,1.74797,-9.57018,-10.1202,-6.15183,81.6606
2023-02-16 22:05:30:660,-1.07813,1.73117,-9.57695,-10.1243,-6.14725,81.6637
2023-02-16 22:05:30:670,-1.07178,1.72569,-9.58186,-10.123,-6.14131,81.6641
2023-02-16 22:05:30:680,-1.07697,1.71992,-9.57042,-10.1246,-6.13611,81.6694
2023-02-16 22:05:30:691,-1.07,1.70271,-9.56756,-10.1236,-6.12561,81.6732
2023-02-16 22:05:30:700,-1.05413,1.69506,-9.57158,-10.125,-6.11776,81.6791
2023-02-16 22:05:30:710,-1.02897,1.69685,-9.58168,-10.1281,-6.10665,81.6824
2023-02-16 22:05:30:720,-1.02113,1.70375,-9.57059,-10.1277,-6.09536,81.6925
2023-02-16 22:05:30:730,-1.02038,1.70918,-9.55164,-10.1257,-6.08323,81.7019
2023-02-16 22:05:30:740,-1.02897,1.69274,-9.55317,-10.1246,-6.06923,81.7122
2023-02-16 22:05:30:750,-1.02278,1.70103,-9.58955,-10.1251,-6.05672,81.7209
2023-02-16 22:05:30:760,-1.02146,1.71694,-9.62747,-10.1265,-6.04203,81.7308
2023-02-16 22:05:30:770,-0.989186,1.70937,-9.64294,-10.1254,-6.02538,81.7373
2023-02-16 22:05:30:780,-0.960323,1.6789,-9.61558,-10.1177,-6.01551,81.7405
2023-02-16 22:05:30:791,-0.965544,1.66416,-9.57154,-10.1172,-6.01011,81.7474
2023-02-16 22:05:30:800,-0.966412,1.65491,-9.55518,-10.1159,-6.00804,81.756
2023-02-16 22:05:30:810,-0.972936,1.66587,-9.53706,-10.1227,-6.00751,81.7642
2023-02-16 22:05:30:820,-0.986375,1.69579,-9.52304,-10.137,-6.0081,81.774
2023-02-16 22:05:30:831,-0.97949,1.71117,-9.52602,-10.1502,-6.00853,81.781
2023-02-16 22:05:30:840,-0.969181,1.7274,-9.54203,-10.1636,-6.00634,81.7938
2023-02-16 22:05:30:851,-0.958414,1.74917,-9.55776,-10.1784,-6.00491,81.8111
2023-02-16 22:05:30:860,-0.98279,1.76689,-9.57642,-10.1901,-6.00215,81.8292
2023-02-16 22:05:30:870,-1.00641,1.7736,-9.56778,-10.2003,-5.99842,81.8469
2023-02-16 22:05:30:880,-1.00438,1.76323,-9.55167,-10.2075,-5.99461,81.8666
2023-02-16 22:05:30:890,-0.980197,1.7599,-9.54752,-10.2183,-5.98508,81.8833
2023-02-16 22:05:30:900,-0.940801,1.75241,-9.55536,-10.2266,-5.97637,81.8994
2023-02-16 22:05:30:910,-0.91507,1.74038,-9.56669,-10.2339,-5.97223,81.9187
2023-02-16 22:05:30:920,-0.885432,1.72753,-9.5718,-10.2431,-5.9653,81.9386
2023-02-16 22:05:30:930,-0.869021,1.73318,-9.58848,-10.2521,-5.958,81.9621
2023-02-16 22:05:30:940,-0.861681,1.74908,-9.59464,-10.2631,-5.9548,81.9853
2023-02-16 22:05:30:950,-0.855557,1.76508,-9.56849,-10.2728,-5.94865,82.0126
2023-02-16 22:05:30:960,-0.861191,1.75266,-9.56845,-10.2915,-5.94533,82.047
2023-02-16 22:05:30:970,-0.906529,1.76499,-9.588,-10.3069,-5.9443,82.0841
2023-02-16 22:05:30:980,-0.938853,1.79967,-9.61194,-10.3254,-5.9432,82.1219
2023-02-16 22:05:30:990,-0.912983,1.82084,-9.66353,-10.3406,-5.93727,82.1614
2023-02-16 22:05:31:0,-0.873452,1.82163,-9.66776,-10.349,-5.93587,82.2023
2023-02-16 22:05:31:10,-0.881439,1.77401,-9.63554,-10.3538,-5.93584,82.2488
2023-02-16 22:05:31:20,-0.916411,1.76878,-9.59433,-10.3567,-5.93987,82.2976
2023-02-16 22:05:31:30,-0.95766,1.77,-9.56956,-10.3601,-5.94682,82.3494
2023-02-16 22:05:31:40,-0.980813,1.77211,-9.54409,-10.3618,-5.95067,82.395
2023-02-16 22:05:31:50,-0.998891,1.76913,-9.54413,-10.3636,-5.95057,82.4465
2023-02-16 22:05:31:60,-0.989775,1.76336,-9.55653,-10.3705,-5.95288,82.495
2023-02-16 22:05:31:70,-0.955409,1.76533,-9.55195,-10.3776,-5.95518,82.5437
2023-02-16 22:05:31:80,-0.964333,1.75526,-9.53712,-10.3823,-5.95998,82.5956
2023-02-16 22:05:31:90,-0.986648,1.74295,-9.53171,-10.3899,-5.9654,82.6437
2023-02-16 22:05:31:100,-1.00146,1.76018,-9.53042,-10.3992,-5.96775,82.6929
2023-02-16 22:05:31:110,-1.00827,1.76989,-9.53998,-10.4094,-5.97275,82.7398
2023-02-16 22:05:31:121,-1.02218,1.75689,-9.54098,-10.4248,-5.97993,82.7866
2023-02-16 22:05:31:130,-0.999516,1.76746,-9.54347,-10.4391,-5.98566,82.8332
2023-02-16 22:05:31:140,-0.991057,1.77781,-9.53265,-10.4512,-5.99343,82.8802
2023-02-16 22:05:31:150,-0.975687,1.77411,-9.52451,-10.4708,-6.00208,82.9284
2023-02-16 22:05:31:160,-0.974751,1.78714,-9.55031,-10.49,-6.01053,82.9758
2023-02-16 22:05:31:170,-0.964953,1.80464,-9.5695,-10.5089,-6.01976,83.0266
2023-02-16 22:05:31:180,-0.943327,1.81068,-9.57648,-10.5268,-6.02668,83.0816
2023-02-16 22:05:31:191,-0.952219,1.80506,-9.56646,-10.5455,-6.03246,83.1369
2023-02-16 22:05:31:200,-0.93812,1.8155,-9.57559,-10.5661,-6.04096,83.1937
2023-02-16 22:05:31:210,-0.921896,1.82823,-9.5785,-10.5844,-6.0492,83.256
2023-02-16 22:05:31:220,-0.906526,1.82817,-9.56722,-10.5992,-6.05934,83.3254
2023-02-16 22:05:31:230,-0.936088,1.82482,-9.53225,-10.616,-6.0664,83.3955
2023-02-16 22:05:31:240,-0.994054,1.81572,-9.49264,-10.6324,-6.06833,83.4755
2023-02-16 22:05:31:250,-1.04206,1.80651,-9.47853,-10.649,-6.05823,83.555
2023-02-16 22:05:31:260,-1.01855,1.85195,-9.53346,-10.6721,-6.04585,83.6389
2023-02-16 22:05:31:270,-0.982709,1.84869,-9.58463,-10.6916,-6.03951,83.726
2023-02-16 22:05:31:280,-1.02937,1.87929,-9.59444,-10.7139,-6.03776,83.8144
2023-02-16 22:05:31:290,-1.10137,1.92491,-9.60074,-10.7356,-6.03766,83.9045
2023-02-16 22:05:31:300,-1.11905,1.92556,-9.59828,-10.7506,-6.03557,83.9883
2023-02-16 22:05:31:310,-1.13637,1.91455,-9.57979,-10.7626,-6.0353,84.07
2023-02-16 22:05:31:320,-1.14541,1.89188,-9.54695,-10.7711,-6.03696,84.1435
2023-02-16 22:05:31:330,-1.17107,1.88403,-9.52295,-10.7795,-6.04437,84.2107
2023-02-16 22:05:31:340,-1.16676,1.87699,-9.52141,-10.7908,-6.05352,84.2704
2023-02-16 22:05:31:350,-1.17274,1.89898,-9.52852,-10.7984,-6.06325,84.3246
2023-02-16 22:05:31:360,-1.18873,1.92016,-9.53033,-10.8158,-6.07545,84.3711
2023-02-16 22:05:31:370,-1.20069,1.91752,-9.5296,-10.8247,-6.08797,84.4109
2023-02-16 22:05:31:380,-1.22459,1.92232,-9.55023,-10.8304,-6.1052,84.4385
2023-02-16 22:05:31:390,-1.23715,1.92473,-9.54801,-10.8372,-6.12272,84.4616
2023-02-16 22:05:31:400,-1.21958,1.92727,-9.55299,-10.8441,-6.13834,84.4774
2023-02-16 22:05:31:411,-1.22046,1.91847,-9.57062,-10.844,-6.15641,84.4849
2023-02-16 22:05:31:420,-1.19767,1.9031,-9.55861,-10.8424,-6.17454,84.4877
2023-02-16 22:05:31:430,-1.16773,1.87274,-9.53637,-10.8377,-6.19006,84.4829
2023-02-16 22:05:31:440,-1.12116,1.86955,-9.51639,-10.8361,-6.20302,84.4758
2023-02-16 22:05:31:450,-1.09219,1.86458,-9.49687,-10.8352,-6.21611,84.4712
2023-02-16 22:05:31:460,-1.08604,1.85857,-9.51864,-10.8325,-6.22758,84.4659
2023-02-16 22:05:31:470,-1.08085,1.85214,-9.55113,-10.8318,-6.23937,84.4555
2023-02-16 22:05:31:480,-1.07109,1.86482,-9.5918,-10.8322,-6.24966,84.4493
2023-02-16 22:05:31:490,-1.04546,1.88576,-9.64289,-10.8316,-6.26364,84.4446
2023-02-16 22:05:31:500,-1.02651,1.87065,-9.63839,-10.8257,-6.27652,84.4409
2023-02-16 22:05:31:510,-1.03203,1.86351,-9.59674,-10.8206,-6.29338,84.4424
2023-02-16 22:05:31:520,-1.05346,1.86793,-9.55369,-10.8156,-6.31219,84.4492
2023-02-16 22:05:31:530,-1.09032,1.87476,-9.5294,-10.8122,-6.3297,84.4587
2023-02-16 22:05:31:540,-1.13088,1.87947,-9.50733,-10.8097,-6.34236,84.4744
2023-02-16 22:05:31:550,-1.15431,1.88881,-9.50177,-10.8053,-6.35409,84.4871
2023-02-16 22:05:31:560,-1.15981,1.89207,-9.51505,-10.8018,-6.35937,84.4975
2023-02-16 22:05:31:570,-1.15855,1.89908,-9.51128,-10.7991,-6.3627,84.5044
2023-02-16 22:05:31:580,-1.15084,1.88414,-9.49432,-10.7915,-6.36492,84.5152
2023-02-16 22:05:31:590,-1.15909,1.86449,-9.49438,-10.7832,-6.36732,84.5223
2023-02-16 22:05:31:600,-1.14556,1.85853,-9.50886,-10.7729,-6.36743,84.5226
2023-02-16 22:05:31:610,-1.13535,1.84893,-9.52855,-10.7621,-6.36841,84.5229
2023-02-16 22:05:31:620,-1.12248,1.81674,-9.53356,-10.7536,-6.36934,84.5234
2023-02-16 22:05:31:630,-1.12328,1.7982,-9.53719,-10.7471,-6.37081,84.5201
2023-02-16 22:05:31:640,-1.1247,1.80097,-9.54222,-10.7416,-6.37194,84.5167
2023-02-16 22:05:31:650,-1.1098,1.80228,-9.5492,-10.7358,-6.36881,84.51
2023-02-16 22:05:31:660,-1.08213,1.79665,-9.54272,-10.7332,-6.36913,84.5028
2023-02-16 22:05:31:670,-1.06561,1.78702,-9.52435,-10.7319,-6.36624,84.4952
2023-02-16 22:05:31:680,-1.05986,1.79804,-9.50864,-10.7329,-6.36505,84.4914
2023-02-16 22:05:31:691,-1.1089,1.79892,-9.51803,-10.7352,-6.36234,84.4886
2023-02-16 22:05:31:700,-1.13642,1.81413,-9.5489,-10.7424,-6.35926,84.4811
2023-02-16 22:05:31:710,-1.1011,1.84858,-9.60645,-10.7448,-6.35213,84.4727
2023-02-16 22:05:31:720,-1.0266,1.83878,-9.61245,-10.7389,-6.34671,84.4603
2023-02-16 22:05:31:730,-1.01572,1.80343,-9.57197,-10.7301,-6.34494,84.4483
2023-02-16 22:05:31:740,-1.03229,1.80028,-9.54239,-10.7255,-6.34533,84.4403
2023-02-16 22:05:31:750,-1.05518,1.80619,-9.54405,-10.7232,-6.34936,84.4318
2023-02-16 22:05:31:760,-1.05708,1.81234,-9.55745,-10.7204,-6.34924,84.4233
2023-02-16 22:05:31:770,-1.055,1.81491,-9.55635,-10.7159,-6.3475,84.4174
2023-02-16 22:05:31:780,-1.03779,1.80099,-9.54397,-10.7136,-6.34458,84.412
2023-02-16 22:05:31:790,-1.02937,1.79807,-9.52772,-10.7109,-6.34171,84.406
2023-02-16 22:05:31:800,-1.03102,1.80359,-9.51824,-10.7097,-6.34034,84.4012
2023-02-16 22:05:31:810,-1.03899,1.8027,-9.51961,-10.7134,-6.34156,84.403
2023-02-16 22:05:31:820,-1.04783,1.81463,-9.5307,-10.716,-6.34269,84.4026
2023-02-16 22:05:31:830,-1.06027,1.83546,-9.55356,-10.7193,-6.34071,84.4038
2023-02-16 22:05:31:840,-1.07394,1.83811,-9.57307,-10.721,-6.33916,84.4051
2023-02-16 22:05:31:850,-1.06961,1.84196,-9.58303,-10.7185,-6.34255,84.407
2023-02-16 22:05:31:860,-1.06824,1.85875,-9.57794,-10.7171,-6.34585,84.4045
2023-02-16 22:05:31:870,-1.07645,1.85099,-9.57522,-10.7147,-6.34924,84.4044
2023-02-16 22:05:31:880,-1.07184,1.84022,-9.55865,-10.7094,-6.35486,84.4022
2023-02-16 22:05:31:890,-1.06216,1.83726,-9.55809,-10.7045,-6.36108,84.4016
2023-02-16 22:05:31:900,-1.04317,1.81777,-9.55016,-10.6984,-6.36637,84.4005
2023-02-16 22:05:31:910,-1.04773,1.80594,-9.5356,-10.6923,-6.36918,84.4013
2023-02-16 22:05:31:920,-1.0438,1.80037,-9.54106,-10.6901,-6.37668,84.401
2023-02-16 22:05:31:930,-1.03641,1.7956,-9.52528,-10.6886,-6.38318,84.4029
2023-02-16 22:05:31:940,-1.02312,1.78118,-9.52462,-10.6897,-6.38796,84.4031
2023-02-16 22:05:31:950,-1.03212,1.77845,-9.53507,-10.6914,-6.39249,84.4102
2023-02-16 22:05:31:960,-1.04723,1.79497,-9.5543,-10.6928,-6.40145,84.4168
2023-02-16 22:05:31:970,-1.06496,1.8217,-9.56886,-10.6951,-6.40585,84.4291
2023-02-16 22:05:31:980,-1.09228,1.82286,-9.54318,-10.6938,-6.41331,84.4401
2023-02-16 22:05:31:990,-1.10813,1.80189,-9.50606,-10.6932,-6.41964,84.4467
2023-02-16 22:05:32:0,-1.09276,1.78545,-9.49738,-10.6954,-6.42541,84.4537
2023-02-16 22:05:32:10,-1.08584,1.78804,-9.50468,-10.6958,-6.4293,84.4629
2023-02-16 22:05:32:20,-1.09324,1.78917,-9.50453,-10.7024,-6.43748,84.4724
2023-02-16 22:05:32:30,-1.09612,1.78764,-9.51488,-10.7099,-6.44459,84.4833
2023-02-16 22:05:32:40,-1.10196,1.81086,-9.52346,-10.7199,-6.44811,84.4897
2023-02-16 22:05:32:50,-1.09717,1.8196,-9.5433,-10.7279,-6.45317,84.497
2023-02-16 22:05:32:60,-1.07864,1.82119,-9.54731,-10.7369,-6.45811,84.5049
2023-02-16 22:05:32:70,-1.07742,1.83345,-9.54771,-10.7449,-6.46554,84.5142
2023-02-16 22:05:32:80,-1.09544,1.85457,-9.56192,-10.7539,-6.47039,84.5228
2023-02-16 22:05:32:90,-1.12171,1.87548,-9.58439,-10.7639,-6.47133,84.5353
2023-02-16 22:05:32:100,-1.14011,1.87838,-9.5808,-10.7703,-6.47241,84.5435
2023-02-16 22:05:32:110,-1.14151,1.8594,-9.55627,-10.7724,-6.4705,84.5481
2023-02-16 22:05:32:120,-1.13406,1.85583,-9.53222,-10.7719,-6.47127,84.5551
2023-02-16 22:05:32:130,-1.12817,1.85133,-9.51238,-10.7765,-6.46698,84.56
2023-02-16 22:05:32:140,-1.10542,1.8427,-9.52117,-10.7831,-6.46644,84.5609
2023-02-16 22:05:32:150,-1.08553,1.85072,-9.5323,-10.7873,-6.46423,84.5605
2023-02-16 22:05:32:160,-1.07827,1.85936,-9.54435,-10.7958,-6.46203,84.5608
2023-02-16 22:05:32:170,-1.0618,1.86079,-9.5894,-10.801,-6.46106,84.5581
2023-02-16 22:05:32:180,-1.04859,1.87766,-9.63784,-10.8023,-6.46281,84.5564
2023-02-16 22:05:32:190,-1.02224,1.87757,-9.60938,-10.8022,-6.46869,84.5529
2023-02-16 22:05:32:200,-0.999588,1.83821,-9.5483,-10.7999,-6.48362,84.5506
2023-02-16 22:05:32:210,-1.02505,1.82099,-9.50283,-10.8015,-6.49592,84.5531
2023-02-16 22:05:32:220,-1.05755,1.8246,-9.48993,-10.8052,-6.51108,84.5604
2023-02-16 22:05:32:230,-1.08563,1.84369,-9.50759,-10.8127,-6.52737,84.5712
2023-02-16 22:05:32:240,-1.10538,1.87541,-9.5099,-10.8212,-6.54086,84.582
2023-02-16 22:05:32:250,-1.10448,1.8839,-9.52253,-10.8301,-6.55287,84.5941
2023-02-16 22:05:32:260,-1.104,1.87792,-9.52777,-10.8419,-6.5644,84.6104
2023-02-16 22:05:32:271,-1.13846,1.88997,-9.53349,-10.8523,-6.57625,84.6287
2023-02-16 22:05:32:280,-1.17156,1.91081,-9.54306,-10.8619,-6.58915,84.643
2023-02-16 22:05:32:290,-1.20799,1.9132,-9.55203,-10.8693,-6.5983,84.6611
2023-02-16 22:05:32:300,-1.22153,1.91414,-9.54434,-10.8713,-6.60439,84.6763
2023-02-16 22:05:32:310,-1.21835,1.90637,-9.53354,-10.8718,-6.60746,84.6875
2023-02-16 22:05:32:320,-1.21834,1.90041,-9.53684,-10.8684,-6.6109,84.692
2023-02-16 22:05:32:330,-1.21387,1.89369,-9.53588,-10.8659,-6.61171,84.6931
2023-02-16 22:05:32:340,-1.21928,1.87688,-9.53201,-10.8643,-6.61151,84.6944
2023-02-16 22:05:32:350,-1.20515,1.88606,-9.51751,-10.8639,-6.60747,84.6935
2023-02-16 22:05:32:360,-1.17771,1.88868,-9.52292,-10.8659,-6.60736,84.6918
2023-02-16 22:05:32:370,-1.16779,1.87917,-9.53864,-10.8674,-6.60722,84.6873
2023-02-16 22:05:32:380,-1.18284,1.86957,-9.5373,-10.8704,-6.60305,84.6824
2023-02-16 22:05:32:390,-1.20896,1.89006,-9.54992,-10.8737,-6.59669,84.6725
2023-02-16 22:05:32:400,-1.18299,1.91482,-9.584,-10.8753,-6.58805,84.6638
2023-02-16 22:05:32:410,-1.1093,1.92317,-9.58643,-10.8746,-6.58064,84.6514
2023-02-16 22:05:32:420,-1.07258,1.88276,-9.54807,-10.8678,-6.57368,84.6351
2023-02-16 22:05:32:430,-1.0602,1.84492,-9.52764,-10.8629,-6.56743,84.6233
2023-02-16 22:05:32:440,-1.07243,1.85268,-9.50921,-10.8614,-6.56433,84.6158
2023-02-16 22:05:32:450,-1.08868,1.84305,-9.5193,-10.8555,-6.56148,84.6051
2023-02-16 22:05:32:460,-1.07786,1.83752,-9.52961,-10.8541,-6.5545,84.5992
2023-02-16 22:05:32:470,-1.05836,1.8358,-9.52575,-10.8511,-6.54757,84.5941
2023-02-16 22:05:32:480,-1.03728,1.8309,-9.52822,-10.8473,-6.53905,84.5911
2023-02-16 22:05:32:490,-1.01421,1.83719,-9.53563,-10.849,-6.53175,84.5903
2023-02-16 22:05:32:500,-1.02962,1.8472,-9.5451,-10.8492,-6.52612,84.5904
2023-02-16 22:05:32:510,-1.06209,1.85867,-9.55301,-10.848,-6.52222,84.5949
2023-02-16 22:05:32:520,-1.07942,1.85903,-9.5474,-10.8491,-6.51937,84.6007
2023-02-16 22:05:32:530,-1.09554,1.86632,-9.55716,-10.8505,-6.51705,84.6075
2023-02-16 22:05:32:540,-1.08218,1.86554,-9.55583,-10.8478,-6.51509,84.609
2023-02-16 22:05:32:550,-1.07288,1.8701,-9.54566,-10.8469,-6.51711,84.6095
2023-02-16 22:05:32:560,-1.05289,1.86411,-9.53415,-10.8475,-6.52381,84.6129
2023-02-16 22:05:32:570,-1.04973,1.84704,-9.52354,-10.8468,-6.52972,84.6151
2023-02-16 22:05:32:580,-1.03767,1.84671,-9.53583,-10.8472,-6.53777,84.6173
2023-02-16 22:05:32:590,-1.03061,1.85944,-9.54904,-10.8492,-6.546,84.6246
2023-02-16 22:05:32:600,-1.03744,1.86371,-9.55524,-10.8535,-6.55647,84.6354
2023-02-16 22:05:32:610,-1.045,1.86541,-9.56361,-10.8543,-6.5668,84.6457
2023-02-16 22:05:32:620,-1.06324,1.86114,-9.55456,-10.8557,-6.57353,84.6624
2023-02-16 22:05:32:630,-1.07477,1.86014,-9.54858,-10.8554,-6.58128,84.6793
2023-02-16 22:05:32:640,-1.0884,1.84969,-9.54165,-10.8587,-6.59308,84.6983
2023-02-16 22:05:32:650,-1.11747,1.84755,-9.53695,-10.8569,-6.60095,84.7187
2023-02-16 22:05:32:660,-1.13211,1.8352,-9.53593,-10.8563,-6.61109,84.7368
2023-02-16 22:05:32:670,-1.15596,1.84403,-9.53403,-10.8569,-6.62287,84.759
2023-02-16 22:05:32:680,-1.17594,1.85955,-9.54768,-10.8581,-6.63372,84.7771
2023-02-16 22:05:32:690,-1.1944,1.86731,-9.54737,-10.8578,-6.64644,84.7952
2023-02-16 22:05:32:700,-1.2142,1.87037,-9.5144,-10.8555,-6.658,84.8116
2023-02-16 22:05:32:710,-1.21849,1.84872,-9.50345,-10.8526,-6.67053,84.8206
2023-02-16 22:05:32:720,-1.19562,1.83017,-9.50343,-10.8517,-6.67815,84.8315
2023-02-16 22:05:32:730,-1.18289,1.82834,-9.50248,-10.8515,-6.68429,84.8402
2023-02-16 22:05:32:740,-1.18289,1.83142,-9.48853,-10.8553,-6.69352,84.8461
2023-02-16 22:05:32:750,-1.17141,1.82568,-9.47507,-10.8581,-6.69975,84.8493
2023-02-16 22:05:32:760,-1.15512,1.82749,-9.51112,-10.8616,-6.70017,84.8514
2023-02-16 22:05:32:770,-1.16673,1.85309,-9.54838,-10.8669,-6.70436,84.8574
2023-02-16 22:05:32:780,-1.16594,1.86806,-9.58108,-10.871,-6.70689,84.8636
2023-02-16 22:05:32:790,-1.16583,1.86567,-9.57921,-10.8708,-6.70765,84.8671
2023-02-16 22:05:32:800,-1.1713,1.86825,-9.56739,-10.8703,-6.70908,84.868
2023-02-16 22:05:32:810,-1.17131,1.86381,-9.56153,-10.8665,-6.70866,84.8714
2023-02-16 22:05:32:820,-1.16115,1.85763,-9.53076,-10.8628,-6.70611,84.8759
2023-02-16 22:05:32:830,-1.15638,1.84275,-9.50721,-10.8584,-6.70409,84.8752
2023-02-16 22:05:32:840,-1.15503,1.82257,-9.51402,-10.8519,-6.70018,84.8743
2023-02-16 22:05:32:850,-1.14096,1.83337,-9.5393,-10.8509,-6.7008,84.8749
2023-02-16 22:05:32:860,-1.147,1.85174,-9.56822,-10.8511,-6.6996,84.8728
2023-02-16 22:05:32:870,-1.13958,1.85587,-9.5946,-10.8507,-6.69788,84.8726
2023-02-16 22:05:32:880,-1.09627,1.84213,-9.59061,-10.8432,-6.70224,84.8715
2023-02-16 22:05:32:890,-1.0747,1.82403,-9.54748,-10.8325,-6.70341,84.8693
2023-02-16 22:05:32:900,-1.09436,1.81261,-9.509,-10.8252,-6.71149,84.8693
2023-02-16 22:05:32:910,-1.114,1.82801,-9.50838,-10.8203,-6.72205,84.8727
2023-02-16 22:05:32:920,-1.14006,1.83258,-9.5165,-10.8188,-6.7305,84.8776
2023-02-16 22:05:32:930,-1.14608,1.83954,-9.49707,-10.816,-6.73742,84.8884
2023-02-16 22:05:32:940,-1.15209,1.8515,-9.50608,-10.8184,-6.74104,84.9005
2023-02-16 22:05:32:950,-1.17035,1.86092,-9.53101,-10.8193,-6.74225,84.9097
2023-02-16 22:05:32:960,-1.18003,1.86638,-9.51933,-10.8211,-6.74294,84.921
2023-02-16 22:05:32:970,-1.20939,1.85674,-9.52904,-10.8198,-6.74262,84.9296
2023-02-16 22:05:32:980,-1.20823,1.83726,-9.52984,-10.8139,-6.73911,84.9355
2023-02-16 22:05:32:990,-1.20695,1.82146,-9.49959,-10.811,-6.74055,84.9401
2023-02-16 22:05:33:0,-1.20385,1.80715,-9.49485,-10.8109,-6.73843,84.9422
2023-02-16 22:05:33:10,-1.20548,1.79502,-9.49801,-10.816,-6.73677,84.944
2023-02-16 22:05:33:20,-1.19,1.80538,-9.51738,-10.8206,-6.73464,84.9461
2023-02-16 22:05:33:30,-1.18199,1.81607,-9.54454,-10.8254,-6.73166,84.9428
2023-02-16 22:05:33:40,-1.18131,1.8283,-9.53909,-10.8326,-6.72937,84.9382
2023-02-16 22:05:33:50,-1.15695,1.82646,-9.50956,-10.8411,-6.72969,84.9372
2023-02-16 22:05:33:60,-1.13559,1.81655,-9.50055,-10.8502,-6.72286,84.9323
2023-02-16 22:05:33:70,-1.14926,1.83895,-9.52646,-10.8626,-6.71991,84.93
2023-02-16 22:05:33:80,-1.17892,1.86655,-9.55372,-10.8731,-6.71347,84.9251
2023-02-16 22:05:33:90,-1.1636,1.89811,-9.60971,-10.8797,-6.70635,84.9185
2023-02-16 22:05:33:100,-1.11359,1.90045,-9.62088,-10.8831,-6.69435,84.9116
2023-02-16 22:05:33:110,-1.08047,1.86473,-9.56651,-10.8825,-6.68364,84.9035
2023-02-16 22:05:33:120,-1.08064,1.81989,-9.51766,-10.8841,-6.67668,84.8946
2023-02-16 22:05:33:130,-1.09069,1.80958,-9.48221,-10.8865,-6.67258,84.8882
2023-02-16 22:05:33:140,-1.09071,1.82044,-9.4976,-10.8953,-6.6676,84.882
2023-02-16 22:05:33:150,-1.09133,1.84698,-9.53871,-10.9045,-6.66114,84.8772
2023-02-16 22:05:33:160,-1.09085,1.87497,-9.55793,-10.9129,-6.65513,84.8728
2023-02-16 22:05:33:170,-1.06952,1.87233,-9.56876,-10.9181,-6.64915,84.8687
2023-02-16 22:05:33:180,-1.05123,1.86735,-9.5811,-10.9258,-6.64594,84.8647
2023-02-16 22:05:33:190,-1.04241,1.87016,-9.5817,-10.9298,-6.63945,84.8646
2023-02-16 22:05:33:200,-1.06695,1.87403,-9.55744,-10.935,-6.63594,84.8667
2023-02-16 22:05:33:210,-1.08358,1.86355,-9.53198,-10.9377,-6.63313,84.8681
2023-02-16 22:05:33:220,-1.09087,1.85277,-9.526,-10.9437,-6.632,84.8722
2023-02-16 22:05:33:230,-1.09446,1.85868,-9.53906,-10.9489,-6.63107,84.8757
2023-02-16 22:05:33:240,-1.10578,1.86113,-9.5336,-10.9532,-6.63255,84.8772
2023-02-16 22:05:33:250,-1.09432,1.86223,-9.52666,-10.9599,-6.63176,84.8809
2023-02-16 22:05:33:260,-1.09681,1.86188,-9.54944,-10.9689,-6.63343,84.8853
2023-02-16 22:05:33:270,-1.09231,1.87341,-9.56261,-10.9767,-6.63764,84.8891
2023-02-16 22:05:33:280,-1.10565,1.88576,-9.57081,-10.988,-6.64236,84.8918
2023-02-16 22:05:33:290,-1.11293,1.88507,-9.57723,-10.994,-6.64641,84.8959
2023-02-16 22:05:33:300,-1.11597,1.89002,-9.54946,-10.9964,-6.64812,84.9014
2023-02-16 22:05:33:310,-1.1128,1.88376,-9.5502,-11.0026,-6.65316,84.9064
2023-02-16 22:05:33:320,-1.11152,1.8781,-9.54588,-11.0068,-6.65716,84.9145
2023-02-16 22:05:33:330,-1.11749,1.87092,-9.53125,-11.0123,-6.66141,84.9214
2023-02-16 22:05:33:340,-1.1476,1.85749,-9.51424,-11.0138,-6.66705,84.9278
2023-02-16 22:05:33:350,-1.14231,1.8657,-9.49867,-11.0183,-6.66868,84.9332
2023-02-16 22:05:33:360,-1.13441,1.85983,-9.5018,-11.0199,-6.66822,84.9373
2023-02-16 22:05:33:370,-1.15319,1.85664,-9.51004,-11.0285,-6.67484,84.9426
2023-02-16 22:05:33:380,-1.15341,1.86811,-9.51804,-11.042,-6.67673,84.9505
2023-02-16 22:05:33:390,-1.16739,1.88384,-9.53656,-11.0523,-6.67575,84.9578
2023-02-16 22:05:33:400,-1.17259,1.88987,-9.55041,-11.0602,-6.67578,84.9588
2023-02-16 22:05:33:410,-1.1516,1.8903,-9.53784,-11.067,-6.67605,84.957
2023-02-16 22:05:33:420,-1.1408,1.88419,-9.52956,-11.0736,-6.6757,84.9531
2023-02-16 22:05:33:430,-1.12514,1.8824,-9.52347,-11.0814,-6.67531,84.9479
2023-02-16 22:05:33:440,-1.09295,1.88149,-9.47747,-11.0865,-6.67915,84.9464
2023-02-16 22:05:33:450,-1.09367,1.87045,-9.46425,-11.097,-6.68759,84.9435
2023-02-16 22:05:33:460,-1.1122,1.89129,-9.4623,-11.1078,-6.69435,84.9445
2023-02-16 22:05:33:470,-1.15054,1.90282,-9.49361,-11.1273,-6.70246,84.9472
2023-02-16 22:05:33:480,-1.1809,1.90091,-9.53143,-11.148,-6.71018,84.9542
2023-02-16 22:05:33:490,-1.1975,1.92167,-9.56212,-11.164,-6.71201,84.9546
2023-02-16 22:05:33:500,-1.21702,1.93523,-9.58032,-11.1781,-6.71046,84.9624
2023-02-16 22:05:33:510,-1.22171,1.93699,-9.58158,-11.1884,-6.70336,84.9672
2023-02-16 22:05:33:520,-1.2181,1.94052,-9.57011,-11.1943,-6.69336,84.9711
2023-02-16 22:05:33:530,-1.21028,1.93315,-9.53947,-11.199,-6.67982,84.9768
2023-02-16 22:05:33:540,-1.18694,1.9226,-9.52611,-11.2025,-6.66639,84.9762
2023-02-16 22:05:33:550,-1.17647,1.91094,-9.51091,-11.2075,-6.6552,84.9773
2023-02-16 22:05:33:560,-1.16915,1.90061,-9.50923,-11.2113,-6.63966,84.9755
2023-02-16 22:05:33:570,-1.16678,1.89822,-9.54884,-11.2176,-6.62363,84.9706
2023-02-16 22:05:33:580,-1.14826,1.91775,-9.59466,-11.2216,-6.60785,84.9639
2023-02-16 22:05:33:590,-1.09544,1.92355,-9.61618,-11.2216,-6.59626,84.9499
2023-02-16 22:05:33:600,-1.05313,1.88705,-9.56977,-11.2199,-6.5881,84.9382
2023-02-16 22:05:33:610,-1.06345,1.86316,-9.51647,-11.2205,-6.5817,84.9313
2023-02-16 22:05:33:620,-1.08326,1.88597,-9.49999,-11.2265,-6.57685,84.9238
2023-02-16 22:05:33:630,-1.11107,1.90663,-9.51198,-11.2369,-6.57078,84.9159
2023-02-16 22:05:33:640,-1.09363,1.92605,-9.53084,-11.2485,-6.56541,84.9067
2023-02-16 22:05:33:650,-1.09039,1.93535,-9.531,-11.2572,-6.55237,84.9017
2023-02-16 22:05:33:660,-1.1057,1.94161,-9.51903,-11.2642,-6.54477,84.8982
2023-02-16 22:05:33:670,-1.10961,1.93924,-9.50493,-11.2672,-6.53587,84.8924
2023-02-16 22:05:33:680,-1.10165,1.93399,-9.50994,-11.2708,-6.52789,84.8879
2023-02-16 22:05:33:690,-1.09652,1.92615,-9.4973,-11.2774,-6.51847,84.8853
2023-02-16 22:05:33:700,-1.09079,1.9165,-9.48115,-11.2805,-6.5121,84.8788
2023-02-16 22:05:33:710,-1.07508,1.90112,-9.48993,-11.2854,-6.50414,84.8714
2023-02-16 22:05:33:720,-1.0723,1.90655,-9.51294,-11.2917,-6.49654,84.8653
2023-02-16 22:05:33:730,-1.08446,1.90758,-9.52459,-11.3012,-6.49109,84.8618
2023-02-16 22:05:33:740,-1.07677,1.91787,-9.54201,-11.3102,-6.48628,84.8561
2023-02-16 22:05:33:750,-1.05535,1.93379,-9.56845,-11.3194,-6.47715,84.8509
2023-02-16 22:05:33:760,-1.04152,1.94308,-9.56126,-11.3253,-6.46963,84.8455
2023-02-16 22:05:33:770,-1.03319,1.93951,-9.52481,-11.3338,-6.46127,84.8405
2023-02-16 22:05:33:780,-1.06095,1.94118,-9.5039,-11.3444,-6.45482,84.8406
2023-02-16 22:05:33:790,-1.11238,1.94345,-9.51831,-11.3592,-6.44806,84.8389
2023-02-16 22:05:33:800,-1.12842,1.97286,-9.53079,-11.374,-6.43508,84.8391
2023-02-16 22:05:33:810,-1.07727,2.00956,-9.5871,-11.3835,-6.42343,84.8348
2023-02-16 22:05:33:820,-1.03244,2.00624,-9.58292,-11.3868,-6.41616,84.8282
2023-02-16 22:05:33:830,-1.0501,1.97014,-9.54377,-11.3898,-6.41247,84.8254
2023-02-16 22:05:33:840,-1.0918,1.97081,-9.51671,-11.3938,-6.4101,84.8239
2023-02-16 22:05:33:850,-1.09101,1.97887,-9.53251,-11.4002,-6.41194,84.8176
2023-02-16 22:05:33:860,-1.07614,1.9879,-9.53701,-11.405,-6.41187,84.8093
2023-02-16 22:05:33:870,-1.07066,1.98314,-9.56196,-11.4082,-6.41336,84.801
2023-02-16 22:05:33:880,-1.07173,1.98828,-9.56108,-11.4142,-6.41207,84.7932
2023-02-16 22:05:33:890,-1.04904,1.97565,-9.5365,-11.4121,-6.41174,84.7849
2023-02-16 22:05:33:900,-1.02419,1.95372,-9.51206,-11.4138,-6.40545,84.7767
2023-02-16 22:05:33:910,-1.01954,1.94524,-9.49997,-11.4122,-6.39997,84.7723
2023-02-16 22:05:33:920,-1.02713,1.93933,-9.48647,-11.415,-6.39998,84.7692
2023-02-16 22:05:33:930,-1.0473,1.95272,-9.51653,-11.4206,-6.40106,84.7659
2023-02-16 22:05:33:940,-1.06665,1.98443,-9.55097,-11.4238,-6.40285,84.7662
2023-02-16 22:05:33:950,-1.05027,1.98602,-9.56398,-11.4262,-6.40614,84.7693
2023-02-16 22:05:33:960,-1.05112,1.97017,-9.55057,-11.4281,-6.4106,84.768
2023-02-16 22:05:33:970,-1.04646,1.95727,-9.55088,-11.4243,-6.41815,84.7691
2023-02-16 22:05:33:980,-1.05685,1.96659,-9.55731,-11.4242,-6.42788,84.7746
2023-02-16 22:05:33:990,-1.0564,1.9568,-9.54688,-11.4196,-6.43737,84.7792
2023-02-16 22:05:34:0,-1.04464,1.93876,-9.52825,-11.4154,-6.44161,84.7838
2023-02-16 22:05:34:10,-1.04715,1.93391,-9.51262,-11.4113,-6.44833,84.7904
2023-02-16 22:05:34:20,-1.04111,1.94634,-9.51201,-11.4114,-6.45529,84.7979
2023-02-16 22:05:34:30,-1.05363,1.96073,-9.51731,-11.4152,-6.4665,84.8083
2023-02-16 22:05:34:40,-1.08599,1.96237,-9.53118,-11.4176,-6.47804,84.8255
2023-02-16 22:05:34:50,-1.12046,1.97635,-9.52546,-11.4181,-6.48921,84.8423
2023-02-16 22:05:34:60,-1.14834,1.97176,-9.53691,-11.4139,-6.50026,84.8553
2023-02-16 22:05:34:70,-1.18218,1.96863,-9.51488,-11.4143,-6.50912,84.8673
2023-02-16 22:05:34:80,-1.20041,1.9682,-9.50104,-11.4112,-6.51752,84.8775
2023-02-16 22:05:34:90,-1.20931,1.95064,-9.50091,-11.4099,-6.52412,84.8878
2023-02-16 22:05:34:100,-1.20567,1.95858,-9.50165,-11.4087,-6.53127,84.8935
2023-02-16 22:05:34:110,-1.2087,1.9552,-9.51231,-11.4107,-6.53807,84.895
2023-02-16 22:05:34:120,-1.21245,1.96708,-9.51995,-11.4055,-6.54144,84.8931
2023-02-16 22:05:34:130,-1.19126,1.96771,-9.50232,-11.399,-6.54232,84.8886
2023-02-16 22:05:34:140,-1.18358,1.9529,-9.5111,-11.3982,-6.54379,84.8782
2023-02-16 22:05:34:150,-1.1806,1.95636,-9.52923,-11.3939,-6.54353,84.8683
2023-02-16 22:05:34:160,-1.15869,1.96761,-9.5283,-11.3896,-6.53988,84.8534
2023-02-16 22:05:34:170,-1.13914,1.95867,-9.5352,-11.3863,-6.53859,84.843
2023-02-16 22:05:34:180,-1.13458,1.95388,-9.54261,-11.3803,-6.53446,84.8327
2023-02-16 22:05:34:190,-1.11565,1.94707,-9.54334,-11.377,-6.53031,84.8205
2023-02-16 22:05:34:200,-1.10801,1.93182,-9.5345,-11.3673,-6.52322,84.8105
2023-02-16 22:05:34:210,-1.12276,1.93275,-9.538,-11.3635,-6.51494,84.7996
2023-02-16 22:05:34:220,-1.11354,1.93975,-9.53643,-11.3546,-6.51264,84.7889
2023-02-16 22:05:34:230,-1.0976,1.93396,-9.52877,-11.3446,-6.5057,84.7745
2023-02-16 22:05:34:240,-1.07915,1.91206,-9.52147,-11.3393,-6.49601,84.7622
2023-02-16 22:05:34:250,-1.07286,1.89927,-9.50678,-11.3314,-6.48773,84.751
2023-02-16 22:05:34:260,-1.08048,1.89573,-9.49662,-11.3261,-6.47591,84.7382
2023-02-16 22:05:34:270,-1.10024,1.89972,-9.49944,-11.3225,-6.46722,84.7242
2023-02-16 22:05:34:280,-1.08578,1.9071,-9.52925,-11.3152,-6.46084,84.7086
2023-02-16 22:05:34:290,-1.07151,1.90318,-9.54983,-11.3154,-6.4528,84.6947
2023-02-16 22:05:34:300,-1.04757,1.91072,-9.59192,-11.3125,-6.44808,84.6789
2023-02-16 22:05:34:310,-1.03212,1.91745,-9.58407,-11.3042,-6.44544,84.6642
2023-02-16 22:05:34:320,-1.00838,1.89692,-9.52384,-11.2914,-6.44225,84.6488
2023-02-16 22:05:34:330,-1.00967,1.85717,-9.45894,-11.2841,-6.44313,84.6384
2023-02-16 22:05:34:340,-1.03392,1.85431,-9.43392,-11.2868,-6.44494,84.6264
2023-02-16 22:05:34:350,-1.05694,1.87976,-9.48023,-11.2938,-6.44494,84.6149
2023-02-16 22:05:34:360,-1.04164,1.91912,-9.543,-11.3069,-6.44934,84.6099
2023-02-16 22:05:34:370,-1.0482,1.95772,-9.54888,-11.3155,-6.45848,84.605
2023-02-16 22:05:34:380,-1.06633,1.93463,-9.48577,-11.3213,-6.46033,84.6014
2023-02-16 22:05:34:390,-1.06105,1.9137,-9.50747,-11.3308,-6.46089,84.596
2023-02-16 22:05:34:400,-1.04452,1.98737,-9.58145,-11.3439,-6.46198,84.5938
2023-02-16 22:05:34:410,-1.09036,1.97793,-9.55618,-11.3452,-6.46163,84.5957
2023-02-16 22:05:34:420,-1.12734,1.92323,-9.45821,-11.3421,-6.46212,84.5966
2023-02-16 22:05:34:430,-1.07315,1.90248,-9.48986,-11.3445,-6.45844,84.6014
2023-02-16 22:05:34:440,-1.04046,1.94381,-9.56945,-11.3443,-6.45171,84.6052
2023-02-16 22:05:34:450,-1.0788,1.944,-9.53343,-11.345,-6.44642,84.61
2023-02-16 22:05:34:460,-1.10829,1.91708,-9.50825,-11.3466,-6.44393,84.6143
2023-02-16 22:05:34:470,-1.10033,1.90345,-9.49836,-11.3515,-6.44018,84.6173
2023-02-16 22:05:34:480,-1.09805,1.92388,-9.53224,-11.3618,-6.43282,84.6215
2023-02-16 22:05:34:490,-1.07999,1.94207,-9.53334,-11.3723,-6.42816,84.6215
2023-02-16 22:05:34:500,-1.08466,1.93048,-9.50815,-11.3835,-6.42594,84.6218
2023-02-16 22:05:34:510,-1.10947,1.92945,-9.50399,-11.3947,-6.42232,84.6245
2023-02-16 22:05:34:520,-1.10322,1.96451,-9.54334,-11.4084,-6.41359,84.6233
2023-02-16 22:05:34:530,-1.06659,2.00673,-9.60067,-11.4166,-6.40703,84.6226
2023-02-16 22:05:34:540,-1.0185,1.99401,-9.60143,-11.4199,-6.40182,84.6185
2023-02-16 22:05:34:550,-0.996282,1.9509,-9.53628,-11.42,-6.39975,84.6174
2023-02-16 22:05:34:560,-1.00665,1.94357,-9.50935,-11.4242,-6.40345,84.6185
2023-02-16 22:05:34:570,-1.02676,1.95099,-9.51348,-11.4276,-6.40596,84.623
2023-02-16 22:05:34:580,-1.03661,1.93375,-9.53366,-11.4302,-6.40589,84.6292
2023-02-16 22:05:34:590,-1.03584,1.92524,-9.52397,-11.4314,-6.40589,84.6355
2023-02-16 22:05:34:600,-1.01223,1.92862,-9.51417,-11.434,-6.40515,84.6454
2023-02-16 22:05:34:610,-1.00907,1.91783,-9.50952,-11.4378,-6.40374,84.6584
2023-02-16 22:05:34:620,-1.02891,1.9285,-9.50815,-11.4453,-6.40551,84.6708
2023-02-16 22:05:34:630,-1.04841,1.94433,-9.5224,-11.4553,-6.41197,84.6885
2023-02-16 22:05:34:640,-1.06241,1.98319,-9.55523,-11.4664,-6.41616,84.7078
2023-02-16 22:05:34:650,-1.09432,2.00481,-9.56775,-11.4753,-6.41991,84.7292
2023-02-16 22:05:34:660,-1.1253,1.98965,-9.53724,-11.479,-6.42342,84.7464
2023-02-16 22:05:34:670,-1.14018,1.97205,-9.50964,-11.4851,-6.43019,84.7624
2023-02-16 22:05:34:680,-1.13734,1.97233,-9.50521,-11.49,-6.43621,84.7762
2023-02-16 22:05:34:690,-1.13263,1.98327,-9.49006,-11.4948,-6.44376,84.7884
2023-02-16 22:05:34:700,-1.13198,1.98069,-9.50247,-11.5027,-6.44881,84.7957
2023-02-16 22:05:34:710,-1.14006,1.97225,-9.51484,-11.5033,-6.45368,84.8064
2023-02-16 22:05:34:720,-1.12433,1.97296,-9.5185,-11.508,-6.46205,84.8126
2023-02-16 22:05:34:730,-1.10902,1.96193,-9.51333,-11.5152,-6.46752,84.8178
2023-02-16 22:05:34:740,-1.10573,1.95797,-9.51845,-11.5247,-6.47478,84.8271
2023-02-16 22:05:34:750,-1.09043,1.9684,-9.51802,-11.5334,-6.48357,84.834
2023-02-16 22:05:34:760,-1.08348,1.97574,-9.52851,-11.5413,-6.49071,84.8441
2023-02-16 22:05:34:770,-1.10168,2.00191,-9.54284,-11.5488,-6.49651,84.854
2023-02-16 22:05:34:780,-1.13054,2.00079,-9.54172,-11.5541,-6.50369,84.8642
2023-02-16 22:05:34:790,-1.14562,1.97882,-9.52149,-11.5516,-6.50607,84.8729
2023-02-16 22:05:34:800,-1.1312,1.97272,-9.49061,-11.5538,-6.50695,84.8785
2023-02-16 22:05:34:810,-1.13388,1.97357,-9.49441,-11.558,-6.50505,84.8897
2023-02-16 22:05:34:820,-1.14168,1.98019,-9.52016,-11.5653,-6.50629,84.8987
2023-02-16 22:05:34:830,-1.14066,1.99669,-9.53202,-11.5663,-6.50828,84.9061
2023-02-16 22:05:34:840,-1.12823,2.00206,-9.54306,-11.5707,-6.51131,84.9139
2023-02-16 22:05:34:850,-1.13962,1.99709,-9.54316,-11.5735,-6.51515,84.9226
2023-02-16 22:05:34:860,-1.13678,1.98315,-9.53095,-11.5726,-6.51941,84.927
2023-02-16 22:05:34:870,-1.12422,1.9723,-9.52542,-11.5742,-6.52218,84.9306
2023-02-16 22:05:34:880,-1.13343,1.97517,-9.50676,-11.5745,-6.52646,84.93
2023-02-16 22:05:34:890,-1.13755,1.96554,-9.49668,-11.5749,-6.53279,84.9317
2023-02-16 22:05:34:900,-1.12936,1.96222,-9.50081,-11.5765,-6.53964,84.9297
2023-02-16 22:05:34:910,-1.09923,1.97504,-9.49339,-11.5781,-6.54149,84.9297
2023-02-16 22:05:34:920,-1.08502,1.97874,-9.4831,-11.5827,-6.54234,84.9306
2023-02-16 22:05:34:930,-1.09888,1.97934,-9.51923,-11.5847,-6.54483,84.9333
2023-02-16 22:05:34:940,-1.09959,1.99796,-9.55705,-11.5896,-6.54641,84.9388
2023-02-16 22:05:34:950,-1.10054,2.00475,-9.57047,-11.5893,-6.54222,84.946
2023-02-16 22:05:34:960,-1.10621,1.99834,-9.54927,-11.5903,-6.53952,84.9525
2023-02-16 22:05:34:970,-1.10133,1.98453,-9.53092,-11.5873,-6.53336,84.961
2023-02-16 22:05:34:980,-1.10881,1.96937,-9.52167,-11.5885,-6.52915,84.9687
2023-02-16 22:05:34:990,-1.10997,1.96579,-9.5188,-11.5894,-6.52685,84.9789
2023-02-16 22:05:35:0,-1.10955,1.96638,-9.5042,-11.5857,-6.52428,84.9843
2023-02-16 22:05:35:10,-1.1105,1.96106,-9.51755,-11.5861,-6.52031,84.9926
2023-02-16 22:05:35:20,-1.10533,1.96994,-9.55198,-11.5853,-6.51773,84.9982
2023-02-16 22:05:35:30,-1.084,1.98061,-9.58391,-11.5833,-6.51248,85.0013
2023-02-16 22:05:35:40,-1.05552,1.99386,-9.58216,-11.5786,-6.51373,85.0029
2023-02-16 22:05:35:50,-1.02657,1.96226,-9.53321,-11.5676,-6.52044,85.0045
2023-02-16 22:05:35:60,-1.04303,1.91923,-9.47853,-11.5625,-6.53091,85.008
2023-02-16 22:05:35:70,-1.0653,1.9323,-9.47722,-11.5621,-6.54572,85.0155
2023-02-16 22:05:35:80,-1.08533,1.96463,-9.49348,-11.5664,-6.55485,85.025
2023-02-16 22:05:35:90,-1.08822,1.9789,-9.51479,-11.5712,-6.56147,85.035
2023-02-16 22:05:35:100,-1.07939,1.98425,-9.51102,-11.578,-6.5689,85.0475
2023-02-16 22:05:35:110,-1.10028,1.99153,-9.49126,-11.5826,-6.57366,85.0601
2023-02-16 22:05:35:120,-1.11471,1.99406,-9.49502,-11.5892,-6.58248,85.0739
2023-02-16 22:05:35:130,-1.14086,2.00348,-9.49925,-11.5953,-6.58503,85.0907
2023-02-16 22:05:35:140,-1.18051,2.00792,-9.48344,-11.5981,-6.59094,85.1083
2023-02-16 22:05:35:150,-1.19549,2.01813,-9.47741,-11.6032,-6.59368,85.1259
2023-02-16 22:05:35:160,-1.20114,1.99301,-9.48014,-11.6064,-6.59513,85.1379
2023-02-16 22:05:35:170,-1.20196,1.97992,-9.48283,-11.6102,-6.59511,85.1512
2023-02-16 22:05:35:180,-1.19626,1.98595,-9.49257,-11.61,-6.59187,85.1567
2023-02-16 22:05:35:190,-1.20545,1.988,-9.52641,-11.6113,-6.58761,85.1589
2023-02-16 22:05:35:200,-1.19369,1.99239,-9.53078,-11.6125,-6.58241,85.158
2023-02-16 22:05:35:210,-1.16861,1.97788,-9.52187,-11.6182,-6.57502,85.152
2023-02-16 22:05:35:220,-1.11749,1.9686,-9.49039,-11.6233,-6.56926,85.1451
2023-02-16 22:05:35:230,-1.09933,1.9573,-9.47007,-11.6317,-6.5628,85.1371
2023-02-16 22:05:35:240,-1.11257,1.97684,-9.48277,-11.6435,-6.55906,85.1324
2023-02-16 22:05:35:250,-1.12842,1.98989,-9.51562,-11.6562,-6.55377,85.1264
2023-02-16 22:05:35:260,-1.10319,2.01399,-9.5423,-11.6649,-6.54617,85.1155
2023-02-16 22:05:35:270,-1.04196,2.01104,-9.56387,-11.67,-6.53955,85.1006
2023-02-16 22:05:35:280,-1.00644,1.99119,-9.5406,-11.6726,-6.52955,85.0906
2023-02-16 22:05:35:290,-1.03097,1.97877,-9.51821,-11.6757,-6.52462,85.0836
2023-02-16 22:05:35:300,-1.04518,1.9824,-9.53463,-11.6762,-6.51969,85.0784
2023-02-16 22:05:35:310,-1.0566,1.98726,-9.53925,-11.6809,-6.51757,85.0759
2023-02-16 22:05:35:320,-1.03964,1.98153,-9.52413,-11.685,-6.5166,85.0724
2023-02-16 22:05:35:330,-1.04093,1.97869,-9.53806,-11.6939,-6.51441,85.0746
2023-02-16 22:05:35:340,-1.05762,1.99549,-9.55161,-11.6989,-6.51001,85.0765
2023-02-16 22:05:35:350,-1.06649,1.99208,-9.54639,-11.6997,-6.50647,85.0813
2023-02-16 22:05:35:360,-1.0592,1.98996,-9.53095,-11.7002,-6.4999,85.0833
2023-02-16 22:05:35:370,-1.06305,1.99796,-9.52202,-11.6999,-6.49793,85.0865
2023-02-16 22:05:35:380,-1.08519,2.01107,-9.52502,-11.7,-6.49865,85.0874
2023-02-16 22:05:35:390,-1.10605,1.99861,-9.51842,-11.7018,-6.50041,85.0882
2023-02-16 22:05:35:400,-1.10217,1.99784,-9.51552,-11.7051,-6.50453,85.0896
2023-02-16 22:05:35:410,-1.08905,2.00326,-9.53063,-11.7028,-6.51167,85.0897
2023-02-16 22:05:35:420,-1.0977,2.00909,-9.52164,-11.7029,-6.52283,85.091
2023-02-16 22:05:35:430,-1.0936,1.99845,-9.51984,-11.7016,-6.53062,85.0877
2023-02-16 22:05:35:440,-1.08311,1.99518,-9.51807,-11.6984,-6.54106,85.0845
2023-02-16 22:05:35:450,-1.07255,1.97625,-9.50997,-11.696,-6.5495,85.0829
2023-02-16 22:05:35:460,-1.08013,1.95316,-9.49914,-11.6942,-6.55616,85.0838
2023-02-16 22:05:35:470,-1.08716,1.952,-9.49314,-11.6951,-6.56709,85.089
2023-02-16 22:05:35:480,-1.09157,1.94904,-9.4822,-11.6976,-6.57554,85.0982
2023-02-16 22:05:35:490,-1.12035,1.96106,-9.48172,-11.6991,-6.58389,85.1082
2023-02-16 22:05:35:500,-1.13107,1.96473,-9.49282,-11.7079,-6.58908,85.1242
2023-02-16 22:05:35:510,-1.13674,1.98001,-9.49577,-11.7121,-6.59319,85.138
2023-02-16 22:05:35:520,-1.15083,1.99469,-9.49464,-11.7162,-6.59586,85.1499
2023-02-16 22:05:35:530,-1.1726,1.99107,-9.49504,-11.7222,-6.60094,85.1626
2023-02-16 22:05:35:540,-1.17609,1.98928,-9.48834,-11.7294,-6.60731,85.1737
2023-02-16 22:05:35:550,-1.18455,1.98763,-9.50471,-11.7381,-6.6109,85.1817
2023-02-16 22:05:35:560,-1.19021,2.0055,-9.52617,-11.7471,-6.61322,85.1908
2023-02-16 22:05:35:570,-1.18885,2.02493,-9.5314,-11.7546,-6.61558,85.1951
2023-02-16 22:05:35:580,-1.17796,2.0102,-9.529,-11.7599,-6.61442,85.1944
2023-02-16 22:05:35:590,-1.17006,2.01087,-9.52649,-11.7604,-6.61223,85.1944
2023-02-16 22:05:35:600,-1.15301,2.00896,-9.50548,-11.7634,-6.61208,85.1897
2023-02-16 22:05:35:610,-1.13948,2.00576,-9.49537,-11.7679,-6.6124,85.1834
2023-02-16 22:05:35:620,-1.12319,2.00395,-9.49083,-11.7731,-6.6114,85.1763
2023-02-16 22:05:35:630,-1.12615,2.00493,-9.49868,-11.7821,-6.60942,85.1701
2023-02-16 22:05:35:640,-1.10884,2.01366,-9.5226,-11.7881,-6.6082,85.165
2023-02-16 22:05:35:650,-1.11229,2.01158,-9.52191,-11.7932,-6.60521,85.1616
2023-02-16 22:05:35:660,-1.10823,2.00098,-9.5029,-11.7981,-6.60412,85.1544
2023-02-16 22:05:35:670,-1.10983,1.9951,-9.47493,-11.806,-6.60591,85.1494
2023-02-16 22:05:35:680,-1.10031,2.00796,-9.49271,-11.8137,-6.60954,85.1447
2023-02-16 22:05:35:690,-1.10095,2.01681,-9.51848,-11.8266,-6.61069,85.1421
2023-02-16 22:05:35:700,-1.12106,2.02511,-9.51214,-11.8369,-6.61162,85.1408
2023-02-16 22:05:35:710,-1.12966,2.01358,-9.52052,-11.8415,-6.60679,85.1395
2023-02-16 22:05:35:720,-1.12415,2.00926,-9.51884,-11.8451,-6.60098,85.1399
2023-02-16 22:05:35:730,-1.11802,2.00801,-9.51663,-11.8494,-6.59345,85.1428
2023-02-16 22:05:35:740,-1.11793,1.99801,-9.51317,-11.8472,-6.58722,85.1459
2023-02-16 22:05:35:750,-1.10693,1.9964,-9.48423,-11.8505,-6.58253,85.1458
2023-02-16 22:05:35:760,-1.09748,2.00185,-9.46374,-11.8553,-6.57609,85.146
2023-02-16 22:05:35:770,-1.11722,1.99542,-9.48436,-11.8646,-6.57418,85.1479
2023-02-16 22:05:35:780,-1.13922,2.00701,-9.52468,-11.8747,-6.57262,85.147
2023-02-16 22:05:35:790,-1.14125,2.04377,-9.57124,-11.8786,-6.56973,85.1453
2023-02-16 22:05:35:800,-1.09889,2.05286,-9.60094,-11.8812,-6.56818,85.1411
2023-02-16 22:05:35:810,-1.04683,2.01856,-9.54962,-11.8788,-6.57236,85.1356
2023-02-16 22:05:35:820,-1.04193,1.95711,-9.47177,-11.879,-6.57893,85.1368
2023-02-16 22:05:35:830,-1.07413,1.97289,-9.45203,-11.8901,-6.59077,85.1396
2023-02-16 22:05:35:840,-1.13019,2.0177,-9.46913,-11.9015,-6.60458,85.1419
2023-02-16 22:05:35:850,-1.15907,2.04131,-9.50376,-11.9173,-6.61566,85.1464
2023-02-16 22:05:35:860,-1.16746,2.05443,-9.51794,-11.9299,-6.62454,85.1526
2023-02-16 22:05:35:870,-1.15654,2.05885,-9.51686,-11.9383,-6.63145,85.1581
2023-02-16 22:05:35:880,-1.17252,2.06428,-9.51867,-11.9482,-6.63492,85.1671
2023-02-16 22:05:35:890,-1.18784,2.06827,-9.47811,-11.9547,-6.63473,85.173
2023-02-16 22:05:35:900,-1.20727,2.06371,-9.46563,-11.9597,-6.63488,85.1819
2023-02-16 22:05:35:910,-1.21006,2.05381,-9.46028,-11.963,-6.63381,85.1851
2023-02-16 22:05:35:920,-1.20026,2.04411,-9.46017,-11.9664,-6.63261,85.1887
2023-02-16 22:05:35:930,-1.19069,2.03751,-9.48628,-11.9706,-6.62463,85.1902
2023-02-16 22:05:35:940,-1.20935,2.02991,-9.4824,-11.9728,-6.61356,85.189
2023-02-16 22:05:35:950,-1.20971,2.01543,-9.48841,-11.9772,-6.60811,85.19
2023-02-16 22:05:35:960,-1.20067,2.01781,-9.48243,-11.9845,-6.59975,85.1871
2023-02-16 22:05:35:970,-1.17968,2.03081,-9.49318,-11.9954,-6.59,85.1801
2023-02-16 22:05:35:980,-1.16065,2.05272,-9.49049,-12.0075,-6.57689,85.1729
2023-02-16 22:05:35:990,-1.15451,2.04558,-9.47145,-12.0208,-6.56387,85.1651
2023-02-16 22:05:36:0,-1.16433,2.04709,-9.4815,-12.0333,-6.54604,85.1589
2023-02-16 22:05:36:10,-1.18576,2.07585,-9.48336,-12.0463,-6.52639,85.1526
2023-02-16 22:05:36:20,-1.17708,2.08303,-9.48941,-12.0603,-6.50349,85.1429
2023-02-16 22:05:36:30,-1.10732,2.08921,-9.51298,-12.0701,-6.47932,85.1295
2023-02-16 22:05:36:40,-1.05088,2.05494,-9.49035,-12.0805,-6.46288,85.1124
2023-02-16 22:05:36:50,-1.06048,2.0412,-9.45123,-12.0913,-6.44775,85.1016
2023-02-16 22:05:36:60,-1.08829,2.06411,-9.47304,-12.1061,-6.43271,85.0916
2023-02-16 22:05:36:70,-1.09289,2.08981,-9.51865,-12.1235,-6.41771,85.0805
2023-02-16 22:05:36:80,-1.08885,2.10749,-9.53444,-12.135,-6.40159,85.0671
2023-02-16 22:05:36:90,-1.07903,2.09017,-9.51449,-12.1433,-6.38074,85.0505
2023-02-16 22:05:36:100,-1.06242,2.07795,-9.50917,-12.1548,-6.35772,85.0367
2023-02-16 22:05:36:110,-1.05131,2.08193,-9.50346,-12.1622,-6.33802,85.0196
2023-02-16 22:05:36:120,-1.02272,2.09595,-9.47526,-12.1723,-6.31698,85.004
2023-02-16 22:05:36:130,-1.00071,2.08077,-9.45943,-12.1909,-6.29425,84.991
2023-02-16 22:05:36:140,-1.01594,2.08613,-9.46993,-12.2074,-6.27566,84.9794
2023-02-16 22:05:36:150,-1.03841,2.12351,-9.5081,-12.2262,-6.26175,84.9713
2023-02-16 22:05:36:160,-1.06328,2.1588,-9.52515,-12.2402,-6.24541,84.9596
2023-02-16 22:05:36:170,-1.06137,2.14564,-9.52722,-12.253,-6.23281,84.948
2023-02-16 22:05:36:180,-1.03955,2.10607,-9.49307,-12.2615,-6.21869,84.9376
2023-02-16 22:05:36:190,-1.02179,2.10042,-9.47667,-12.2708,-6.20653,84.9258
2023-02-16 22:05:36:200,-1.0185,2.12532,-9.50256,-12.2845,-6.1965,84.9127
2023-02-16 22:05:36:210,-1.02274,2.12267,-9.53432,-12.2968,-6.18642,84.9003
2023-02-16 22:05:36:220,-1.02348,2.1258,-9.53303,-12.3042,-6.17682,84.8881
2023-02-16 22:05:36:230,-1.03133,2.11801,-9.51448,-12.3078,-6.16301,84.8747
2023-02-16 22:05:36:240,-1.02262,2.12523,-9.49351,-12.3169,-6.15409,84.8607
2023-02-16 22:05:36:250,-1.00574,2.13086,-9.52341,-12.325,-6.1428,84.8462
2023-02-16 22:05:36:260,-1.0239,2.12788,-9.5349,-12.3345,-6.13302,84.8357
2023-02-16 22:05:36:270,-1.04879,2.14284,-9.53763,-12.3468,-6.12541,84.8269
2023-02-16 22:05:36:280,-1.05388,2.17095,-9.54966,-12.354,-6.11803,84.8142
2023-02-16 22:05:36:290,-1.04652,2.16569,-9.53761,-12.3565,-6.10815,84.8023
2023-02-16 22:05:36:300,-1.0543,2.1378,-9.49397,-12.3562,-6.09583,84.7923
2023-02-16 22:05:36:310,-1.04516,2.13279,-9.44689,-12.3546,-6.08548,84.7807
2023-02-16 22:05:36:320,-1.03985,2.11506,-9.43923,-12.3549,-6.07153,84.7691
2023-02-16 22:05:36:330,-1.02596,2.11608,-9.45318,-12.3573,-6.0567,84.756
2023-02-16 22:05:36:340,-1.03277,2.12594,-9.47361,-12.3631,-6.04318,84.7439
2023-02-16 22:05:36:350,-1.03164,2.13811,-9.49575,-12.368,-6.02963,84.7337
2023-02-16 22:05:36:360,-1.0266,2.11622,-9.50771,-12.373,-6.01812,84.7191
2023-02-16 22:05:36:370,-1.02789,2.11389,-9.50866,-12.3798,-6.00102,84.7066
2023-02-16 22:05:36:380,-1.02474,2.11317,-9.49749,-12.3835,-5.98813,84.6885
2023-02-16 22:05:36:390,-1.02063,2.10027,-9.49641,-12.3834,-5.97127,84.6726
2023-02-16 22:05:36:400,-1.00462,2.11038,-9.49801,-12.3876,-5.95725,84.6582
2023-02-16 22:05:36:410,-0.993761,2.10417,-9.50296,-12.3885,-5.94021,84.6391
2023-02-16 22:05:36:420,-0.983282,2.10968,-9.51657,-12.3912,-5.92839,84.6224
2023-02-16 22:05:36:430,-0.967075,2.11134,-9.5105,-12.3933,-5.91592,84.603
2023-02-16 22:05:36:440,-0.937537,2.1055,-9.48984,-12.3936,-5.90383,84.588
2023-02-16 22:05:36:450,-0.916942,2.10308,-9.50189,-12.3979,-5.89662,84.5704
2023-02-16 22:05:36:460,-0.929953,2.1135,-9.513,-12.4039,-5.88646,84.555
2023-02-16 22:05:36:470,-0.939623,2.115,-9.53604,-12.4059,-5.87941,84.5391
2023-02-16 22:05:36:480,-0.957204,2.12801,-9.53194,-12.4069,-5.87354,84.526
2023-02-16 22:05:36:490,-0.961363,2.12036,-9.52464,-12.4042,-5.8681,84.5145
2023-02-16 22:05:36:500,-0.949718,2.1056,-9.52752,-12.4014,-5.8685,84.5038
2023-02-16 22:05:36:510,-0.945475,2.08928,-9.50127,-12.3987,-5.86514,84.4936
2023-02-16 22:05:36:520,-0.954179,2.08146,-9.4764,-12.3978,-5.86326,84.4852
2023-02-16 22:05:36:530,-0.964258,2.09805,-9.46664,-12.3982,-5.86163,84.4803
2023-02-16 22:05:36:540,-0.958863,2.09498,-9.49062,-12.3963,-5.86315,84.4774
2023-02-16 22:05:36:550,-0.940088,2.09179,-9.4998,-12.3987,-5.86234,84.4688
2023-02-16 22:05:36:560,-0.911457,2.08622,-9.537,-12.4012,-5.85921,84.4608
2023-02-16 22:05:36:570,-0.916191,2.10896,-9.56036,-12.3991,-5.8579,84.4549
2023-02-16 22:05:36:580,-0.922736,2.09772,-9.56283,-12.4029,-5.86232,84.4522
2023-02-16 22:05:36:590,-0.926289,2.07916,-9.53746,-12.4027,-5.86811,84.4518
2023-02-16 22:05:36:600,-0.942656,2.09114,-9.52144,-12.4083,-5.87321,84.4523
2023-02-16 22:05:36:610,-0.980067,2.11741,-9.53303,-12.4125,-5.87853,84.4553
2023-02-16 22:05:36:620,-0.99112,2.14633,-9.5247,-12.4192,-5.88445,84.4601
2023-02-16 22:05:36:630,-0.98339,2.15224,-9.49633,-12.4215,-5.89029,84.4597
2023-02-16 22:05:36:640,-0.971028,2.14176,-9.46468,-12.4212,-5.89496,84.463
2023-02-16 22:05:36:650,-0.981453,2.13726,-9.45318,-12.4251,-5.89687,84.4664
2023-02-16 22:05:36:660,-1.00243,2.14582,-9.45422,-12.4271,-5.90276,84.4741
2023-02-16 22:05:36:670,-1.01995,2.15373,-9.4686,-12.4263,-5.90795,84.4786
2023-02-16 22:05:36:680,-1.0194,2.14717,-9.47605,-12.4223,-5.90955,84.4818
2023-02-16 22:05:36:690,-1.00636,2.13549,-9.47287,-12.4184,-5.90986,84.4856
2023-02-16 22:05:36:700,-0.994943,2.138,-9.46059,-12.4171,-5.91145,84.4894
2023-02-16 22:05:36:710,-1.00391,2.12779,-9.45363,-12.4261,-5.91645,84.494
2023-02-16 22:05:36:720,-1.02741,2.12477,-9.49111,-12.4299,-5.91889,84.4971
2023-02-16 22:05:36:730,-1.03573,2.14513,-9.53259,-12.4336,-5.92146,84.4992
2023-02-16 22:05:36:740,-1.01363,2.15609,-9.53693,-12.4401,-5.92373,84.494
2023-02-16 22:05:36:750,-0.992767,2.15153,-9.51489,-12.4438,-5.92549,84.4889
2023-02-16 22:05:36:760,-0.976944,2.1475,-9.48761,-12.4455,-5.92795,84.4831
2023-02-16 22:05:36:770,-0.989229,2.14244,-9.47836,-12.4506,-5.92981,84.4829
2023-02-16 22:05:36:780,-1.02568,2.16031,-9.49779,-12.4563,-5.93343,84.4784
2023-02-16 22:05:36:790,-1.05794,2.19471,-9.52596,-12.4619,-5.93482,84.4779
2023-02-16 22:05:36:800,-1.03321,2.22141,-9.57406,-12.4623,-5.93632,84.4692
2023-02-16 22:05:36:810,-0.951494,2.19442,-9.57465,-12.4537,-5.93843,84.4555
2023-02-16 22:05:36:820,-0.916197,2.15114,-9.51377,-12.4434,-5.93931,84.4413
2023-02-16 22:05:36:830,-0.936954,2.13136,-9.48862,-12.4345,-5.94339,84.43
2023-02-16 22:05:36:840,-0.928388,2.13109,-9.49407,-12.4284,-5.95078,84.419
2023-02-16 22:05:36:850,-0.909795,2.12877,-9.49384,-12.4238,-5.95798,84.4086
2023-02-16 22:05:36:860,-0.90575,2.1267,-9.4813,-12.4164,-5.96643,84.3972
2023-02-16 22:05:36:870,-0.901853,2.11778,-9.48446,-12.4096,-5.97354,84.3899
2023-02-16 22:05:36:880,-0.901455,2.11922,-9.50467,-12.4046,-5.98281,84.3854
2023-02-16 22:05:36:890,-0.906783,2.12492,-9.51439,-12.4015,-5.99396,84.3847
2023-02-16 22:05:36:900,-0.919075,2.11195,-9.5013,-12.3978,-6.0083,84.3873
2023-02-16 22:05:36:910,-0.94015,2.11953,-9.49494,-12.3945,-6.02394,84.3915
2023-02-16 22:05:36:920,-0.976903,2.13273,-9.50623,-12.3896,-6.04012,84.3976
2023-02-16 22:05:36:930,-0.999137,2.13544,-9.50772,-12.3836,-6.05873,84.4066
2023-02-16 22:05:36:940,-1.00281,2.11368,-9.47958,-12.3754,-6.07566,84.4121
2023-02-16 22:05:36:950,-1.01824,2.10579,-9.47401,-12.3714,-6.09176,84.4199
2023-02-16 22:05:36:960,-1.034,2.10506,-9.49462,-12.3676,-6.10932,84.4258
2023-02-16 22:05:36:970,-1.04636,2.09877,-9.50809,-12.3578,-6.13162,84.4362
2023-02-16 22:05:36:980,-1.06036,2.07505,-9.48551,-12.3515,-6.1508,84.4478
2023-02-16 22:05:36:990,-1.08618,2.05826,-9.46706,-12.3433,-6.1695,84.4627
2023-02-16 22:05:37:0,-1.11022,2.05512,-9.46947,-12.3392,-6.18902,84.4719
2023-02-16 22:05:37:10,-1.10877,2.05778,-9.47746,-12.3378,-6.20158,84.4831
2023-02-16 22:05:37:20,-1.09946,2.06462,-9.48506,-12.339,-6.21217,84.4914
2023-02-16 22:05:37:30,-1.10197,2.05951,-9.48103,-12.3411,-6.21982,84.4992
2023-02-16 22:05:37:40,-1.12164,2.05817,-9.47651,-12.343,-6.23079,84.5035
2023-02-16 22:05:37:50,-1.13578,2.05915,-9.47499,-12.3446,-6.23753,84.5119
2023-02-16 22:05:37:60,-1.14612,2.07056,-9.45977,-12.3444,-6.24191,84.5191
2023-02-16 22:05:37:70,-1.15642,2.0737,-9.44677,-12.3467,-6.24545,84.5221
2023-02-16 22:05:37:80,-1.17678,2.09111,-9.44494,-12.351,-6.24563,84.5226
2023-02-16 22:05:37:90,-1.15741,2.09175,-9.45699,-12.3581,-6.24389,84.526
2023-02-16 22:05:37:100,-1.13619,2.08433,-9.46375,-12.3619,-6.24092,84.5223
2023-02-16 22:05:37:110,-1.12921,2.07124,-9.46692,-12.3641,-6.23712,84.5157
2023-02-16 22:05:37:120,-1.11782,2.07194,-9.45917,-12.3701,-6.23504,84.5063
2023-02-16 22:05:37:130,-1.09827,2.08194,-9.48394,-12.3778,-6.23261,84.4979
2023-02-16 22:05:37:140,-1.08391,2.10325,-9.4816,-12.387,-6.2316,84.4899
2023-02-16 22:05:37:150,-1.09018,2.10816,-9.48863,-12.3955,-6.2262,84.4801
2023-02-16 22:05:37:160,-1.07789,2.11598,-9.50487,-12.4062,-6.22401,84.4745
2023-02-16 22:05:37:170,-1.06078,2.11823,-9.51602,-12.4135,-6.21731,84.4659
2023-02-16 22:05:37:180,-1.05715,2.11436,-9.50825,-12.4196,-6.21005,84.4558
2023-02-16 22:05:37:190,-1.04918,2.11496,-9.4947,-12.4306,-6.20012,84.4507
2023-02-16 22:05:37:200,-1.04354,2.12964,-9.504,-12.4374,-6.19111,84.4506
2023-02-16 22:05:37:210,-1.04809,2.13878,-9.52396,-12.444,-6.18174,84.4442
2023-02-16 22:05:37:220,-1.0586,2.13454,-9.53228,-12.4434,-6.17369,84.442
2023-02-16 22:05:37:230,-1.0328,2.12568,-9.51879,-12.4451,-6.16327,84.436
2023-02-16 22:05:37:240,-1.01829,2.11693,-9.48968,-12.4515,-6.15372,84.4301
2023-02-16 22:05:37:250,-1.01921,2.10858,-9.49076,-12.4565,-6.14788,84.4264
2023-02-16 22:05:37:260,-1.01827,2.12421,-9.49174,-12.458,-6.14115,84.4245
2023-02-16 22:05:37:270,-1.01964,2.13461,-9.49405,-12.4615,-6.13346,84.4206
2023-02-16 22:05:37:280,-1.01691,2.11758,-9.50966,-12.4586,-6.12987,84.4166
2023-02-16 22:05:37:290,-1.00699,2.10914,-9.52336,-12.4557,-6.12475,84.4128
2023-02-16 22:05:37:300,-0.986428,2.12734,-9.53462,-12.4557,-6.12116,84.4081
2023-02-16 22:05:37:310,-0.962279,2.11995,-9.52639,-12.4507,-6.12092,84.4029
2023-02-16 22:05:37:320,-0.972135,2.08895,-9.50357,-12.4496,-6.12548,84.4043
2023-02-16 22:05:37:330,-0.994308,2.07929,-9.48682,-12.4511,-6.13346,84.4104
2023-02-16 22:05:37:340,-1.02245,2.10808,-9.49373,-12.4536,-6.13803,84.4151
2023-02-16 22:05:37:350,-1.04795,2.13757,-9.48217,-12.4576,-6.14377,84.4231
2023-02-16 22:05:37:360,-1.09096,2.13976,-9.48757,-12.4641,-6.14956,84.4329
2023-02-16 22:05:37:370,-1.09215,2.15486,-9.49421,-12.4738,-6.15221,84.441
2023-02-16 22:05:37:380,-1.08943,2.18178,-9.5076,-12.4811,-6.15528,84.4506
2023-02-16 22:05:37:390,-1.09149,2.19207,-9.49408,-12.4844,-6.15601,84.4579
2023-02-16 22:05:37:400,-1.11038,2.17377,-9.47463,-12.4833,-6.15445,84.4646
2023-02-16 22:05:37:410,-1.1224,2.15487,-9.4293,-12.4782,-6.15319,84.4652
2023-02-16 22:05:37:420,-1.11503,2.12596,-9.43596,-12.4787,-6.15299,84.4649
2023-02-16 22:05:37:430,-1.10863,2.1255,-9.46402,-12.4751,-6.14628,84.4623
2023-02-16 22:05:37:440,-1.10382,2.12493,-9.47665,-12.4704,-6.14221,84.4583
2023-02-16 22:05:37:450,-1.12152,2.13233,-9.48251,-12.4671,-6.13358,84.449
2023-02-16 22:05:37:460,-1.11206,2.12134,-9.4845,-12.464,-6.12772,84.4447
2023-02-16 22:05:37:470,-1.09454,2.11899,-9.48808,-12.4603,-6.11961,84.4335
2023-02-16 22:05:37:480,-1.04845,2.1151,-9.49179,-12.4595,-6.10517,84.4243
2023-02-16 22:05:37:490,-1.02526,2.12691,-9.47754,-12.4603,-6.09752,84.4114
2023-02-16 22:05:37:500,-1.02258,2.13945,-9.47528,-12.4649,-6.09108,84.4022
2023-02-16 22:05:37:510,-1.04221,2.17686,-9.49815,-12.4695,-6.08085,84.3935
2023-02-16 22:05:37:520,-1.06054,2.18258,-9.50358,-12.4748,-6.06652,84.3837
2023-02-16 22:05:37:530,-1.03836,2.20241,-9.53281,-12.4767,-6.04835,84.3717
2023-02-16 22:05:37:540,-0.952384,2.17645,-9.56595,-12.4706,-6.03802,84.3562
2023-02-16 22:05:37:550,-0.925246,2.14456,-9.54514,-12.4637,-6.03168,84.3413
2023-02-16 22:05:37:560,-0.962016,2.12494,-9.51852,-12.4575,-6.02465,84.3319
2023-02-16 22:05:37:570,-0.993602,2.13432,-9.49665,-12.4481,-6.01965,84.3226
2023-02-16 22:05:37:580,-0.994507,2.14091,-9.50528,-12.4372,-6.01416,84.3143
2023-02-16 22:05:37:590,-0.9624,2.12118,-9.50836,-12.4274,-6.0102,84.3046
2023-02-16 22:05:37:600,-0.956666,2.10644,-9.49601,-12.4191,-6.00352,84.2989
2023-02-16 22:05:37:610,-0.950766,2.10688,-9.50207,-12.4105,-5.99679,84.2948
2023-02-16 22:05:37:620,-0.940083,2.11743,-9.5067,-12.4072,-5.99323,84.2934
2023-02-16 22:05:37:630,-0.936534,2.12995,-9.51589,-12.4006,-5.98711,84.2917
2023-02-16 22:05:37:640,-0.953511,2.11944,-9.51485,-12.3909,-5.98314,84.2925
2023-02-16 22:05:37:650,-0.963187,2.10263,-9.51077,-12.381,-5.9819,84.2918
2023-02-16 22:05:37:660,-0.979583,2.10031,-9.489,-12.3714,-5.98042,84.2912
2023-02-16 22:05:37:670,-0.987645,2.09069,-9.47848,-12.358,-5.98303,84.29
2023-02-16 22:05:37:680,-0.986049,2.07818,-9.46943,-12.3474,-5.98583,84.2914
2023-02-16 22:05:37:690,-0.994224,2.06778,-9.48511,-12.3396,-5.99095,84.2895
2023-02-16 22:05:37:700,-0.984466,2.06662,-9.47157,-12.3305,-5.99596,84.2889
2023-02-16 22:05:37:710,-0.969998,2.05492,-9.4711,-12.3251,-6.0023,84.2885
2023-02-16 22:05:37:720,-0.958165,2.06105,-9.49747,-12.3226,-6.0083,84.2878
2023-02-16 22:05:37:730,-0.956684,2.09688,-9.55041,-12.3206,-6.01523,84.2943
2023-02-16 22:05:37:740,-0.974088,2.12152,-9.5777,-12.3154,-6.02269,84.3009
2023-02-16 22:05:37:750,-1.00453,2.11186,-9.55924,-12.3103,-6.02702,84.3086
2023-02-16 22:05:37:760,-1.04174,2.09583,-9.52525,-12.2994,-6.03413,84.3179
2023-02-16 22:05:37:770,-1.05873,2.08325,-9.482,-12.2889,-6.03798,84.326
2023-02-16 22:05:37:780,-1.05888,2.06312,-9.42192,-12.2776,-6.04313,84.3358
2023-02-16 22:05:37:790,-1.06787,2.06555,-9.41803,-12.2712,-6.04795,84.3435
2023-02-16 22:05:37:800,-1.09153,2.07706,-9.45314,-12.2672,-6.05132,84.3535
2023-02-16 22:05:37:810,-1.09124,2.08371,-9.463,-12.265,-6.05715,84.3575
2023-02-16 22:05:37:820,-1.07981,2.08419,-9.48389,-12.2622,-6.05802,84.3625
2023-02-16 22:05:37:830,-1.07689,2.10931,-9.48067,-12.2596,-6.05909,84.3608
2023-02-16 22:05:37:840,-1.08102,2.09202,-9.48769,-12.2568,-6.05957,84.3583
2023-02-16 22:05:37:850,-1.06887,2.07678,-9.48952,-12.251,-6.06028,84.3558
2023-02-16 22:05:37:860,-1.06384,2.07618,-9.47365,-12.2462,-6.05957,84.3544
2023-02-16 22:05:37:870,-1.06192,2.06811,-9.48151,-12.2466,-6.0581,84.3494
2023-02-16 22:05:37:880,-1.04213,2.07215,-9.4987,-12.2429,-6.05683,84.3467
2023-02-16 22:05:37:890,-1.02526,2.0748,-9.51008,-12.241,-6.05192,84.3428
2023-02-16 22:05:37:900,-1.00825,2.08855,-9.50457,-12.2413,-6.05012,84.3395
2023-02-16 22:05:37:910,-1.00693,2.08575,-9.50408,-12.243,-6.04816,84.3353
2023-02-16 22:05:37:920,-1.01028,2.08023,-9.50345,-12.2438,-6.03981,84.3374
2023-02-16 22:05:37:930,-1.03125,2.09184,-9.51327,-12.2464,-6.03186,84.3366
2023-02-16 22:05:37:940,-1.0361,2.08973,-9.51792,-12.2479,-6.02147,84.335
2023-02-16 22:05:37:950,-1.02006,2.07709,-9.51364,-12.2457,-6.01315,84.3316
2023-02-16 22:05:37:960,-0.994062,2.07964,-9.50825,-12.2464,-6.006,84.3273
2023-02-16 22:05:37:970,-0.993597,2.07832,-9.51157,-12.2488,-5.99667,84.3228
2023-02-16 22:05:37:980,-0.976734,2.06782,-9.5022,-12.2447,-5.99233,84.3198
2023-02-16 22:05:37:990,-0.975998,2.06526,-9.4914,-12.2375,-5.99078,84.3156
2023-02-16 22:05:38:0,-0.99101,2.06988,-9.48461,-12.2364,-5.98555,84.3108
2023-02-16 22:05:38:10,-0.977235,2.06982,-9.50334,-12.2337,-5.98514,84.3067
2023-02-16 22:05:38:20,-0.944795,2.06993,-9.54328,-12.2338,-5.98734,84.3034
2023-02-16 22:05:38:30,-0.942878,2.0737,-9.54202,-12.2281,-5.99808,84.299
2023-02-16 22:05:38:40,-0.962308,2.06584,-9.51094,-12.2316,-6.00762,84.3037
2023-02-16 22:05:38:50,-0.995476,2.05895,-9.49887,-12.2366,-6.01422,84.3101
2023-02-16 22:05:38:60,-1.02655,2.08399,-9.50338,-12.2452,-6.02331,84.3194
2023-02-16 22:05:38:70,-1.0475,2.1095,-9.5196,-12.2512,-6.03209,84.3289
2023-02-16 22:05:38:80,-1.05567,2.11729,-9.48669,-12.2554,-6.03733,84.337
2023-02-16 22:05:38:90,-1.05447,2.1215,-9.45183,-12.2627,-6.04143,84.3441
2023-02-16 22:05:38:100,-1.06959,2.13649,-9.46018,-12.2691,-6.04627,84.3493
2023-02-16 22:05:38:110,-1.08852,2.14564,-9.46823,-12.2716,-6.04564,84.3563
2023-02-16 22:05:38:120,-1.10278,2.13731,-9.45627,-12.2761,-6.04633,84.3612
2023-02-16 22:05:38:130,-1.10224,2.12502,-9.47017,-12.276,-6.04889,84.3621
2023-02-16 22:05:38:140,-1.09954,2.11748,-9.49159,-12.2769,-6.05154,84.3611
2023-02-16 22:05:38:150,-1.11263,2.12806,-9.48039,-12.2735,-6.05323,84.3571
2023-02-16 22:05:38:160,-1.11018,2.11434,-9.48659,-12.2757,-6.04959,84.3502
2023-02-16 22:05:38:170,-1.08079,2.10018,-9.49504,-12.2735,-6.04468,84.341
2023-02-16 22:05:38:180,-1.05225,2.12116,-9.49999,-12.2728,-6.03921,84.3324
2023-02-16 22:05:38:190,-1.03404,2.11264,-9.52481,-12.2703,-6.03019,84.3212
2023-02-16 22:05:38:200,-1.00571,2.10073,-9.51077,-12.2712,-6.02166,84.3116
2023-02-16 22:05:38:210,-0.983333,2.09973,-9.4972,-12.2752,-6.01164,84.3016
2023-02-16 22:05:38:220,-1.00788,2.11866,-9.48389,-12.28,-6.00527,84.2928
2023-02-16 22:05:38:230,-1.04076,2.13036,-9.48239,-12.2858,-5.99854,84.2874
2023-02-16 22:05:38:240,-1.04438,2.14486,-9.5256,-12.294,-5.98586,84.2778
2023-02-16 22:05:38:250,-0.977311,2.16656,-9.58436,-12.2942,-5.97505,84.2693
2023-02-16 22:05:38:260,-0.919562,2.16691,-9.58382,-12.2882,-5.97144,84.2597
2023-02-16 22:05:38:270,-0.942352,2.12002,-9.52865,-12.2791,-5.96941,84.252
2023-02-16 22:05:38:280,-0.976121,2.1093,-9.50422,-12.2719,-5.96648,84.2447
2023-02-16 22:05:38:290,-0.980183,2.10312,-9.51453,-12.263,-5.965,84.237
2023-02-16 22:05:38:300,-0.974905,2.09735,-9.53486,-12.2546,-5.96323,84.2338
2023-02-16 22:05:38:310,-0.968075,2.09009,-9.53115,-12.2445,-5.96006,84.2286
2023-02-16 22:05:38:320,-0.961029,2.08417,-9.51878,-12.2303,-5.95733,84.221
2023-02-16 22:05:38:330,-0.953099,2.07448,-9.50851,-12.2157,-5.95135,84.2148
2023-02-16 22:05:38:340,-0.930871,2.06685,-9.50042,-12.2041,-5.95098,84.2125
2023-02-16 22:05:38:350,-0.932905,2.06086,-9.49753,-12.1964,-5.95362,84.2156
2023-02-16 22:05:38:360,-0.949868,2.05328,-9.4922,-12.1905,-5.95603,84.219
2023-02-16 22:05:38:370,-0.97651,2.05768,-9.49187,-12.1847,-5.95969,84.22
2023-02-16 22:05:38:380,-1.007,2.06775,-9.49485,-12.181,-5.96529,84.2221
2023-02-16 22:05:38:390,-1.00692,2.05766,-9.50339,-12.1735,-5.97106,84.2237
2023-02-16 22:05:38:400,-0.987073,2.05216,-9.50008,-12.1686,-5.97818,84.2249
2023-02-16 22:05:38:410,-0.991289,2.05681,-9.5107,-12.1604,-5.98054,84.2277
2023-02-16 22:05:38:420,-0.982282,2.03471,-9.50808,-12.1538,-5.98527,84.2287
2023-02-16 22:05:38:430,-0.96193,2.03037,-9.48945,-12.1503,-5.9941,84.2315
2023-02-16 22:05:38:440,-0.957195,2.0294,-9.4808,-12.1504,-6.00119,84.2366
2023-02-16 22:05:38:450,-0.963999,2.02321,-9.47056,-12.1499,-6.01034,84.2436
2023-02-16 22:05:38:460,-0.983283,2.01814,-9.46205,-12.1518,-6.02153,84.2518
2023-02-16 22:05:38:470,-0.990209,2.00893,-9.47095,-12.1522,-6.02685,84.2616
2023-02-16 22:05:38:480,-0.98384,2.01048,-9.4892,-12.1599,-6.03511,84.2726
2023-02-16 22:05:38:490,-0.99698,2.02989,-9.48713,-12.1672,-6.04459,84.2825
2023-02-16 22:05:38:500,-1.0395,2.04235,-9.4848,-12.1715,-6.0515,84.2964
2023-02-16 22:05:38:510,-1.06413,2.04846,-9.48242,-12.1775,-6.06065,84.3033
2023-02-16 22:05:38:520,-1.09747,2.04098,-9.48325,-12.1822,-6.06676,84.3144
2023-02-16 22:05:38:530,-1.10928,2.04745,-9.47593,-12.1898,-6.07377,84.3227
2023-02-16 22:05:38:540,-1.11201,2.05406,-9.48081,-12.1969,-6.08077,84.3274
2023-02-16 22:05:38:550,-1.10413,2.06431,-9.47283,-12.2054,-6.08315,84.3309
2023-02-16 22:05:38:560,-1.09708,2.0592,-9.49082,-12.2138,-6.08194,84.331
2023-02-16 22:05:38:570,-1.07273,2.05305,-9.49915,-12.2203,-6.08431,84.3276
2023-02-16 22:05:38:580,-1.06319,2.07464,-9.49757,-12.2288,-6.08899,84.3253
2023-02-16 22:05:38:590,-1.05025,2.07778,-9.49699,-12.2353,-6.09169,84.3203
2023-02-16 22:05:38:600,-1.04063,2.08219,-9.49695,-12.2478,-6.0919,84.315
2023-02-16 22:05:38:610,-1.03701,2.10993,-9.50663,-12.2581,-6.09058,84.3121
2023-02-16 22:05:38:620,-1.02793,2.11832,-9.51066,-12.2656,-6.09146,84.306
2023-02-16 22:05:38:630,-1.01795,2.10978,-9.50715,-12.272,-6.09015,84.3046
2023-02-16 22:05:38:640,-1.02318,2.08992,-9.51333,-12.2832,-6.08695,84.3052
2023-02-16 22:05:38:650,-1.02639,2.0959,-9.52907,-12.2944,-6.08317,84.3057
2023-02-16 22:05:38:659,-1.04838,2.12345,-9.531,-12.3004,-6.07799,84.3095
2023-02-16 22:05:38:670,-1.05599,2.12106,-9.51874,-12.3037,-6.07028,84.3085
2023-02-16 22:05:38:680,-1.0361,2.11488,-9.49952,-12.3076,-6.06446,84.3082
2023-02-16 22:05:38:690,-1.02485,2.11271,-9.50108,-12.3102,-6.05606,84.3063
2023-02-16 22:05:38:700,-1.00036,2.10526,-9.47996,-12.3121,-6.05166,84.3028
2023-02-16 22:05:38:710,-1.00482,2.09692,-9.4595,-12.3138,-6.04396,84.2997
2023-02-16 22:05:38:720,-1.00747,2.10118,-9.47825,-12.3199,-6.04081,84.2971
2023-02-16 22:05:38:730,-1.0008,2.11182,-9.51318,-12.3264,-6.03966,84.2952
2023-02-16 22:05:38:740,-0.980398,2.1134,-9.55966,-12.3293,-6.04119,84.2914
2023-02-16 22:05:38:750,-0.950682,2.12086,-9.59198,-12.3264,-6.04275,84.2892
2023-02-16 22:05:38:760,-0.930696,2.09558,-9.56399,-12.3245,-6.05096,84.2851
2023-02-16 22:05:38:770,-0.946245,2.07913,-9.50441,-12.3267,-6.06233,84.2881
2023-02-16 22:05:38:780,-0.993863,2.0937,-9.50399,-12.332,-6.077,84.2986
2023-02-16 22:05:38:790,-1.02849,2.11267,-9.51599,-12.339,-6.09042,84.3094
2023-02-16 22:05:38:800,-1.06076,2.14056,-9.50491,-12.3434,-6.10336,84.3188
2023-02-16 22:05:38:810,-1.0684,2.16429,-9.48499,-12.3517,-6.11254,84.3281
2023-02-16 22:05:38:820,-1.0779,2.15677,-9.48095,-12.3567,-6.11731,84.3404
2023-02-16 22:05:38:830,-1.09535,2.16047,-9.47844,-12.3572,-6.12176,84.3507
2023-02-16 22:05:38:840,-1.12618,2.16148,-9.48136,-12.3551,-6.1283,84.3588
2023-02-16 22:05:38:850,-1.1264,2.14569,-9.48088,-12.349,-6.13378,84.3671
2023-02-16 22:05:38:860,-1.12148,2.13604,-9.45345,-12.3427,-6.1384,84.3713
2023-02-16 22:05:38:870,-1.11668,2.10923,-9.43705,-12.3327,-6.14073,84.3697
2023-02-16 22:05:38:880,-1.09141,2.09409,-9.45842,-12.327,-6.14103,84.3715
2023-02-16 22:05:38:890,-1.08794,2.09184,-9.469,-12.3213,-6.14156,84.3665
2023-02-16 22:05:38:900,-1.08604,2.0885,-9.46559,-12.3175,-6.14635,84.3598
2023-02-16 22:05:38:910,-1.0753,2.0762,-9.47099,-12.316,-6.14408,84.3549
2023-02-16 22:05:38:920,-1.069,2.08107,-9.50501,-12.3191,-6.1401,84.3525
2023-02-16 22:05:38:930,-1.03069,2.10444,-9.51299,-12.3215,-6.13562,84.3493
2023-02-16 22:05:38:940,-1.00552,2.1075,-9.50061,-12.3222,-6.13112,84.3422
2023-02-16 22:05:38:950,-1.02589,2.10813,-9.4819,-12.3273,-6.12851,84.3383
2023-02-16 22:05:38:960,-1.0593,2.13601,-9.47228,-12.3317,-6.12612,84.3351
2023-02-16 22:05:38:970,-1.05744,2.14407,-9.5078,-12.3384,-6.12046,84.3296
2023-02-16 22:05:38:980,-0.991827,2.17389,-9.58347,-12.3424,-6.11322,84.3205
2023-02-16 22:05:38:990,-0.950617,2.17257,-9.58024,-12.3369,-6.11183,84.3127
2023-02-16 22:05:39:0,-0.957978,2.12891,-9.51323,-12.3315,-6.11523,84.3052
2023-02-16 22:05:39:10,-0.988075,2.09413,-9.49059,-12.328,-6.11606,84.301
2023-02-16 22:05:39:20,-1.00301,2.09625,-9.48533,-12.322,-6.12223,84.3001
2023-02-16 22:05:39:30,-0.985579,2.09888,-9.48674,-12.3185,-6.12677,84.2939
2023-02-16 22:05:39:40,-0.962251,2.07502,-9.4953,-12.3134,-6.12893,84.2924
2023-02-16 22:05:39:50,-0.963985,2.07707,-9.48832,-12.3078,-6.1319,84.2916
2023-02-16 22:05:39:60,-0.968521,2.09229,-9.47966,-12.3075,-6.13635,84.2922
2023-02-16 22:05:39:70,-0.974311,2.08479,-9.47486,-12.3052,-6.13999,84.2947
2023-02-16 22:05:39:80,-0.971946,2.0841,-9.47163,-12.3073,-6.14435,84.2988
2023-02-16 22:05:39:90,-0.999138,2.10286,-9.4789,-12.3103,-6.15106,84.3064
2023-02-16 22:05:39:100,-1.02903,2.1091,-9.49137,-12.3124,-6.15959,84.3132
2023-02-16 22:05:39:110,-1.03351,2.11007,-9.51007,-12.3173,-6.16759,84.3205
2023-02-16 22:05:39:120,-1.02786,2.12041,-9.52041,-12.3192,-6.17722,84.3232
2023-02-16 22:05:39:130,-1.0297,2.11276,-9.53504,-12.3189,-6.18742,84.3267
2023-02-16 22:05:39:140,-1.04671,2.11724,-9.52588,-12.3155,-6.2016,84.3312
2023-02-16 22:05:39:150,-1.04833,2.10182,-9.50801,-12.3148,-6.21349,84.3392
2023-02-16 22:05:39:160,-1.05415,2.09904,-9.50314,-12.3103,-6.22579,84.3466
2023-02-16 22:05:39:170,-1.05821,2.07924,-9.49376,-12.303,-6.23564,84.3527
2023-02-16 22:05:39:180,-1.05775,2.07173,-9.48001,-12.2955,-6.24529,84.3608
2023-02-16 22:05:39:190,-1.07022,2.06809,-9.46152,-12.2918,-6.25386,84.3708
2023-02-16 22:05:39:200,-1.09347,2.04881,-9.44551,-12.2912,-6.26153,84.381
2023-02-16 22:05:39:210,-1.10712,2.05027,-9.44221,-12.2916,-6.26798,84.3954
2023-02-16 22:05:39:220,-1.10742,2.06197,-9.47311,-12.295,-6.27511,84.4058
2023-02-16 22:05:39:230,-1.12143,2.07978,-9.4819,-12.3019,-6.27988,84.4177
2023-02-16 22:05:39:240,-1.15003,2.08222,-9.47601,-12.3095,-6.27979,84.4315
2023-02-16 22:05:39:250,-1.17538,2.08962,-9.46061,-12.3136,-6.28199,84.4409
2023-02-16 22:05:39:260,-1.16069,2.10169,-9.46626,-12.3161,-6.28366,84.4481
2023-02-16 22:05:39:269,-1.15374,2.09196,-9.45996,-12.3184,-6.28173,84.4483
2023-02-16 22:05:39:280,-1.13984,2.08478,-9.45592,-12.3212,-6.27935,84.4488
2023-02-16 22:05:39:290,-1.12353,2.0975,-9.48139,-12.3268,-6.27488,84.4429
2023-02-16 22:05:39:300,-1.0935,2.11626,-9.49495,-12.3284,-6.26969,84.4377
2023-02-16 22:05:39:310,-1.08175,2.1149,-9.50465,-12.3294,-6.26695,84.4335
2023-02-16 22:05:39:320,-1.07188,2.10948,-9.50107,-12.3325,-6.25941,84.4289
2023-02-16 22:05:39:330,-1.05522,2.12143,-9.50073,-12.3364,-6.25685,84.4234
2023-02-16 22:05:39:340,-1.05942,2.12117,-9.52446,-12.3416,-6.25718,84.4187
2023-02-16 22:05:39:350,-1.06137,2.13638,-9.53784,-12.347,-6.2542,84.4133
2023-02-16 22:05:39:360,-1.05633,2.14459,-9.53411,-12.3498,-6.25037,84.4088
2023-02-16 22:05:39:370,-1.05272,2.15668,-9.5149,-12.3505,-6.24793,84.4072
2023-02-16 22:05:39:380,-1.04223,2.14575,-9.5186,-12.3544,-6.24447,84.404
2023-02-16 22:05:39:390,-1.04117,2.15528,-9.53075,-12.352,-6.24027,84.4028
2023-02-16 22:05:39:400,-1.05335,2.15773,-9.53413,-12.351,-6.23505,84.4031
2023-02-16 22:05:39:410,-1.07114,2.15263,-9.53993,-12.346,-6.22867,84.4017
2023-02-16 22:05:39:420,-1.0678,2.14711,-9.51736,-12.3346,-6.22466,84.4004
2023-02-16 22:05:39:430,-1.04626,2.11583,-9.50048,-12.3255,-6.21834,84.3997
2023-02-16 22:05:39:440,-1.05457,2.09659,-9.48893,-12.3168,-6.21511,84.3939
2023-02-16 22:05:39:450,-1.05776,2.09275,-9.48774,-12.3082,-6.21214,84.391
2023-02-16 22:05:39:460,-1.04927,2.08466,-9.48747,-12.2989,-6.21078,84.3882
2023-02-16 22:05:39:470,-1.04719,2.07262,-9.49935,-12.2868,-6.20664,84.384
2023-02-16 22:05:39:480,-1.04409,2.05903,-9.51652,-12.2736,-6.20428,84.3808
2023-02-16 22:05:39:490,-1.01329,2.06015,-9.54947,-12.2635,-6.19888,84.3744
2023-02-16 22:05:39:500,-0.974739,2.06342,-9.55404,-12.2511,-6.19442,84.3702
2023-02-16 22:05:39:510,-0.974751,2.04148,-9.51902,-12.2393,-6.1995,84.3697
2023-02-16 22:05:39:520,-1.01558,2.03091,-9.47983,-12.2336,-6.20561,84.3693
2023-02-16 22:05:39:530,-1.05084,2.0632,-9.47981,-12.2337,-6.20943,84.3736
2023-02-16 22:05:39:540,-1.0672,2.09429,-9.49116,-12.2339,-6.21163,84.3776
2023-02-16 22:05:39:550,-1.06662,2.1115,-9.48379,-12.2337,-6.21153,84.3809
2023-02-16 22:05:39:560,-1.06339,2.10063,-9.45934,-12.2334,-6.2107,84.3853
2023-02-16 22:05:39:570,-1.06938,2.09284,-9.45007,-12.2325,-6.21006,84.3881
2023-02-16 22:05:39:580,-1.08187,2.10089,-9.45607,-12.2274,-6.21295,84.3902
2023-02-16 22:05:39:590,-1.09274,2.0974,-9.4505,-12.2269,-6.21598,84.3927
2023-02-16 22:05:39:600,-1.10758,2.08307,-9.44605,-12.2269,-6.21685,84.3912
2023-02-16 22:05:39:610,-1.10966,2.06695,-9.45869,-12.2217,-6.21639,84.3895
2023-02-16 22:05:39:620,-1.08477,2.07086,-9.46205,-12.2189,-6.21699,84.3849
2023-02-16 22:05:39:630,-1.09642,2.0678,-9.46175,-12.2174,-6.21338,84.3823
2023-02-16 22:05:39:640,-1.09654,2.06598,-9.46978,-12.2206,-6.21364,84.3788
2023-02-16 22:05:39:650,-1.08122,2.07055,-9.48189,-12.226,-6.20466,84.3765
2023-02-16 22:05:39:660,-1.05168,2.08469,-9.51043,-12.2346,-6.19122,84.3718
2023-02-16 22:05:39:670,-1.04877,2.11187,-9.54054,-12.2423,-6.18008,84.3666
2023-02-16 22:05:39:680,-1.03918,2.12585,-9.53674,-12.2528,-6.17083,84.3645
2023-02-16 22:05:39:690,-1.02525,2.13015,-9.52116,-12.2619,-6.16101,84.3609
2023-02-16 22:05:39:700,-1.06787,2.14982,-9.52495,-12.2675,-6.15131,84.3543
2023-02-16 22:05:39:710,-1.09217,2.15916,-9.53026,-12.2731,-6.13822,84.351
2023-02-16 22:05:39:720,-1.06471,2.16226,-9.55451,-12.2718,-6.12111,84.34
2023-02-16 22:05:39:730,-0.999291,2.16149,-9.59536,-12.2661,-6.10246,84.3269
2023-02-16 22:05:39:740,-0.946951,2.12796,-9.57074,-12.2522,-6.09506,84.3173
2023-02-16 22:05:39:750,-0.961103,2.08716,-9.51748,-12.2381,-6.08327,84.3088
2023-02-16 22:05:39:760,-0.986554,2.07285,-9.49019,-12.229,-6.07086,84.3016
2023-02-16 22:05:39:770,-0.976643,2.06882,-9.50318,-12.2196,-6.0607,84.2929
2023-02-16 22:05:39:780,-0.950859,2.07566,-9.512,-12.2141,-6.04657,84.2883
2023-02-16 22:05:39:790,-0.948958,2.06603,-9.51408,-12.2054,-6.03477,84.2896
2023-02-16 22:05:39:800,-0.962263,2.0647,-9.49811,-12.1966,-6.02165,84.2891
2023-02-16 22:05:39:810,-0.992416,2.06736,-9.49489,-12.1869,-6.00958,84.2966
2023-02-16 22:05:39:820,-1.01966,2.06253,-9.48444,-12.1817,-5.99493,84.3053
2023-02-16 22:05:39:830,-1.05072,2.05178,-9.47408,-12.177,-5.97565,84.3154
2023-02-16 22:05:39:840,-1.0508,2.04912,-9.48624,-12.1739,-5.95872,84.3227
2023-02-16 22:05:39:850,-1.06373,2.04485,-9.48803,-12.1672,-5.93425,84.3324
2023-02-16 22:05:39:860,-1.06394,2.04492,-9.49436,-12.1654,-5.90842,84.3424
2023-02-16 22:05:39:870,-1.06206,2.03775,-9.49765,-12.1625,-5.87646,84.3544
2023-02-16 22:05:39:880,-1.09186,2.03498,-9.48215,-12.1582,-5.84305,84.3662
2023-02-16 22:05:39:890,-1.09715,2.01047,-9.47873,-12.1525,-5.80299,84.3791
2023-02-16 22:05:39:900,-1.08716,2.00315,-9.48317,-12.1514,-5.75653,84.3945
2023-02-16 22:05:39:910,-1.10229,2.01095,-9.48905,-12.1526,-5.7054,84.41
2023-02-16 22:05:39:920,-1.11516,2.01548,-9.46306,-12.1525,-5.64907,84.4254
2023-02-16 22:05:39:930,-1.11763,2.00825,-9.43337,-12.1564,-5.58832,84.4401
2023-02-16 22:05:39:940,-1.0953,2.01066,-9.44465,-12.1642,-5.5228,84.4518
2023-02-16 22:05:39:950,-1.03627,2.01301,-9.47547,-12.17,-5.45604,84.4593
2023-02-16 22:05:39:960,-0.943916,2.01654,-9.50088,-12.1784,-5.38531,84.4673
2023-02-16 22:05:39:970,-0.890897,2.03376,-9.50639,-12.1864,-5.31097,84.4845
2023-02-16 22:05:39:980,-0.922248,2.02909,-9.4967,-12.195,-5.22887,84.5045
2023-02-16 22:05:39:990,-0.971657,2.04074,-9.49097,-12.2051,-5.14171,84.534
2023-02-16 22:05:40:0,-0.992494,2.07185,-9.50934,-12.2189,-5.04771,84.5637
2023-02-16 22:05:40:10,-1.02324,2.09433,-9.49257,-12.2284,-4.94977,84.5959
2023-02-16 22:05:40:20,-1.06757,2.08447,-9.44929,-12.2365,-4.84887,84.6262
2023-02-16 22:05:40:30,-1.05827,2.07105,-9.4434,-12.2499,-4.73686,84.651
2023-02-16 22:05:40:40,-1.0156,2.09692,-9.46905,-12.2627,-4.62166,84.6713
2023-02-16 22:05:40:50,-1.01998,2.10954,-9.49666,-12.2799,-4.49993,84.6935
2023-02-16 22:05:40:60,-1.0698,2.10859,-9.49069,-12.2942,-4.37226,84.7114
2023-02-16 22:05:40:70,-1.09659,2.09422,-9.48182,-12.3041,-4.23472,84.7273
2023-02-16 22:05:40:80,-1.05411,2.1057,-9.49304,-12.3183,-4.08977,84.7359
2023-02-16 22:05:40:90,-1.03704,2.11768,-9.46917,-12.3312,-3.92893,84.7423
2023-02-16 22:05:40:100,-1.12768,2.10339,-9.41435,-12.3437,-3.75695,84.7505
2023-02-16 22:05:40:110,-1.28678,2.12591,-9.35428,-12.3538,-3.57442,84.7499
2023-02-16 22:05:40:120,-1.46878,2.14432,-9.33698,-12.3735,-3.38123,84.7366
2023-02-16 22:05:40:130,-1.65485,2.18267,-9.34319,-12.3986,-3.17865,84.6924
2023-02-16 22:05:40:140,-1.65973,2.21235,-9.42469,-12.4196,-2.96201,84.6105
2023-02-16 22:05:40:150,-1.30941,2.17634,-9.6226,-12.4322,-2.72627,84.4967
2023-02-16 22:05:40:160,-0.681848,2.18335,-9.8918,-12.4401,-2.46902,84.3632
2023-02-16 22:05:40:170,-0.0582271,2.20914,-10.0031,-12.416,-2.19286,84.2596
2023-02-16 22:05:40:180,-0.0548866,2.09252,-9.65832,-12.3598,-1.88453,84.2289
2023-02-16 22:05:40:190,-0.714467,1.96298,-9.13179,-12.3029,-1.53233,84.2676
2023-02-16 22:05:40:200,-1.33284,1.94546,-8.80121,-12.2594,-1.11198,84.3299
2023-02-16 22:05:40:210,-1.47687,1.93318,-8.73382,-12.2305,-0.613441,84.3779
2023-02-16 22:05:40:220,-1.27642,1.88049,-8.82931,-12.2188,-0.0489385,84.4101
2023-02-16 22:05:40:230,-0.984542,1.88666,-9.0541,-12.2217,0.558917,84.4268
2023-02-16 22:05:40:240,-0.642769,2.00693,-9.30879,-12.2334,1.20286,84.432
2023-02-16 22:05:40:250,-0.4238,2.06359,-9.40753,-12.2302,1.87275,84.4384
2023-02-16 22:05:40:260,-0.353022,2.03172,-9.30285,-12.2185,2.56768,84.4407
2023-02-16 22:05:40:270,-0.214252,1.98453,-9.1842,-12.2086,3.28267,84.4383
2023-02-16 22:05:40:280,0.0294438,2.02286,-9.16486,-12.1999,4.02841,84.4423
2023-02-16 22:05:40:290,0.082491,2.07113,-9.08482,-12.1814,4.81982,84.4736
2023-02-16 22:05:40:300,-0.109016,2.05635,-8.90128,-12.154,5.66343,84.5219
2023-02-16 22:05:40:310,-0.310553,2.04352,-8.73501,-12.1245,6.56928,84.5644
2023-02-16 22:05:40:320,-0.321118,2.01493,-8.55493,-12.0951,7.52935,84.5752
2023-02-16 22:05:40:330,-0.178888,1.92305,-8.40857,-12.0773,8.54261,84.5569
2023-02-16 22:05:40:340,0.0172297,1.9172,-8.41975,-12.0824,9.5969,84.5053
2023-02-16 22:05:40:350,0.332953,1.98469,-8.54187,-12.0932,10.6955,84.4171
2023-02-16 22:05:40:360,0.745101,2.02336,-8.63548,-12.1087,11.8286,84.2934
2023-02-16 22:05:40:370,1.23448,1.99984,-8.62496,-12.1221,12.9944,84.1302
2023-02-16 22:05:40:380,1.71584,1.94601,-8.62606,-12.1312,14.1876,83.9551
2023-02-16 22:05:40:390,1.95508,1.9543,-8.46994,-12.1257,15.3976,83.7785
2023-02-16 22:05:40:400,1.98732,1.8267,-8.08626,-12.1212,16.6291,83.5894
2023-02-16 22:05:40:410,2.11273,1.6696,-7.75647,-12.1427,17.8909,83.3697
2023-02-16 22:05:40:420,2.5388,1.5827,-7.626,-12.2029,19.1744,83.1082
2023-02-16 22:05:40:430,3.07709,1.544,-7.56171,-12.3033,20.4637,82.8186
2023-02-16 22:05:40:440,3.46826,1.49902,-7.45024,-12.4348,21.7527,82.5222
2023-02-16 22:05:40:450,3.65093,1.51651,-7.34503,-12.6008,23.0471,82.2259
2023-02-16 22:05:40:460,3.71223,1.62063,-7.3091,-12.8025,24.3541,81.9214
2023-02-16 22:05:40:470,3.79747,1.728,-7.36223,-13.0379,25.6707,81.586
2023-02-16 22:05:40:480,4.19238,1.81408,-7.44054,-13.3041,26.9979,81.1932
2023-02-16 22:05:40:490,4.83117,1.88335,-7.51792,-13.5914,28.3289,80.7578
2023-02-16 22:05:40:500,5.4684,1.9387,-7.5802,-13.884,29.6518,80.3004
2023-02-16 22:05:40:510,5.87466,2.0184,-7.50968,-14.1705,30.9528,79.8385
2023-02-16 22:05:40:520,6.08518,2.02854,-7.34101,-14.4632,32.2232,79.3606
2023-02-16 22:05:40:530,6.43362,1.96217,-7.1635,-14.7741,33.4601,78.853
2023-02-16 22:05:40:540,6.99404,1.90141,-7.0383,-15.1161,34.6562,78.3143
2023-02-16 22:05:40:550,7.60694,1.92453,-7.07949,-15.487,35.7894,77.7715
2023-02-16 22:05:40:560,8.01576,2.06963,-7.24997,-15.8798,36.8354,77.2481
2023-02-16 22:05:40:570,8.34518,2.25433,-7.45729,-16.2754,37.7972,76.7416
2023-02-16 22:05:40:580,8.68199,2.44609,-7.7459,-16.6689,38.6663,76.2476
2023-02-16 22:05:40:590,8.95136,2.63447,-7.85678,-17.0418,39.4321,75.7696
2023-02-16 22:05:40:600,9.06024,2.69291,-7.84254,-17.3727,40.0911,75.3246
2023-02-16 22:05:40:610,9.00576,2.79006,-7.66522,-17.6767,40.6448,74.9032
2023-02-16 22:05:40:620,8.93571,2.80883,-7.51598,-17.9567,41.1099,74.5082
2023-02-16 22:05:40:630,8.96772,2.85655,-7.61825,-18.2144,41.4966,74.1373
2023-02-16 22:05:40:640,8.92633,2.97142,-7.66952,-18.4335,41.7968,73.7996
2023-02-16 22:05:40:650,8.76006,2.91524,-7.50145,-18.6172,42.0213,73.4834
2023-02-16 22:05:40:660,8.5456,2.84204,-7.26358,-18.7755,42.1756,73.1916
2023-02-16 22:05:40:670,8.22334,2.80296,-7.03182,-18.9162,42.2637,72.9313
2023-02-16 22:05:40:680,7.79438,2.78701,-6.83192,-19.0542,42.3052,72.6866
2023-02-16 22:05:40:690,7.37198,2.82764,-6.84062,-19.2001,42.313,72.445
2023-02-16 22:05:40:700,7.23384,2.91255,-7.04801,-19.36,42.2859,72.1881
2023-02-16 22:05:40:710,7.32248,3.00236,-7.27817,-19.5012,42.231,71.9297
2023-02-16 22:05:40:720,7.27851,2.98211,-7.28085,-19.5997,42.1579,71.6877
2023-02-16 22:05:40:730,7.08009,2.9134,-7.03368,-19.6593,42.0757,71.4577
2023-02-16 22:05:40:740,6.99061,2.76372,-6.89288,-19.7082,41.9949,71.2343
2023-02-16 22:05:40:750,7.05017,2.79344,-7.02505,-19.7338,41.9141,71.0375
2023-02-16 22:05:40:760,7.0251,2.80307,-7.13521,-19.7284,41.8347,70.8611
2023-02-16 22:05:40:770,7.01192,2.7425,-7.12973,-19.6854,41.7586,70.7053
2023-02-16 22:05:40:780,7.05829,2.62103,-7.06242,-19.6186,41.6822,70.5638
2023-02-16 22:05:40:790,7.08288,2.49032,-6.87048,-19.5281,41.6069,70.445
2023-02-16 22:05:40:800,7.07055,2.36185,-6.72005,-19.4262,41.5319,70.3478
2023-02-16 22:05:40:810,6.91161,2.3255,-6.63178,-19.3207,41.4491,70.2871
2023-02-16 22:05:40:820,6.75416,2.36246,-6.6843,-19.2247,41.3599,70.2451
2023-02-16 22:05:40:830,6.81894,2.40671,-6.90537,-19.1331,41.2657,70.2135
2023-02-16 22:05:40:840,6.96187,2.44904,-7.14227,-19.0245,41.1699,70.2022
2023-02-16 22:05:40:850,6.97048,2.45464,-7.24674,-18.8827,41.0681,70.225
2023-02-16 22:05:40:860,6.87532,2.43354,-7.23372,-18.7175,40.9716,70.2683
2023-02-16 22:05:40:870,6.79592,2.34945,-7.18621,-18.5351,40.8721,70.3237
2023-02-16 22:05:40:880,6.84051,2.28644,-7.13726,-18.3487,40.7641,70.3809
2023-02-16 22:05:40:890,6.99085,2.20298,-7.08417,-18.165,40.6468,70.4351
2023-02-16 22:05:40:900,7.09911,2.13836,-7.02808,-17.9821,40.506,70.498
2023-02-16 22:05:40:910,7.21593,2.10095,-7.00047,-17.8201,40.3339,70.5607
2023-02-16 22:05:40:920,7.30108,2.11894,-7.03205,-17.672,40.1162,70.6336
2023-02-16 22:05:40:930,7.21399,2.14722,-7.06139,-17.5363,39.8509,70.7203
2023-02-16 22:05:40:940,7.0292,2.21491,-7.10882,-17.4304,39.5318,70.799
2023-02-16 22:05:40:950,7.04129,2.2782,-7.28156,-17.3545,39.1562,70.8602
2023-02-16 22:05:40:960,7.31666,2.40016,-7.55237,-17.2938,38.7215,70.9061
2023-02-16 22:05:40:970,7.60402,2.49431,-7.80296,-17.2218,38.2178,70.9545
2023-02-16 22:05:40:980,7.61202,2.54691,-7.89484,-17.1188,37.654,71.0372
2023-02-16 22:05:40:990,7.32813,2.5793,-7.9319,-16.9913,37.0359,71.1413
2023-02-16 22:05:41:0,6.97893,2.62093,-7.95938,-16.8517,36.3661,71.2449
2023-02-16 22:05:41:10,6.77601,2.68588,-8.10165,-16.7091,35.6502,71.3335
2023-02-16 22:05:41:20,6.76021,2.80765,-8.2782,-16.5548,34.8794,71.3991
2023-02-16 22:05:41:30,6.79564,2.79253,-8.33896,-16.3736,34.0494,71.455
2023-02-16 22:05:41:40,6.77296,2.72245,-8.23408,-16.1715,33.1611,71.5078
2023-02-16 22:05:41:50,6.73421,2.66156,-8.17559,-15.9574,32.2175,71.5654
2023-02-16 22:05:41:60,6.62095,2.67195,-8.24482,-15.7347,31.2138,71.6356
2023-02-16 22:05:41:70,6.35901,2.70649,-8.34574,-15.4914,30.1468,71.7248
2023-02-16 22:05:41:80,5.99309,2.71264,-8.35989,-15.2349,29.0181,71.8199
2023-02-16 22:05:41:90,5.60611,2.65663,-8.2818,-14.9637,27.8387,71.9103
2023-02-16 22:05:41:100,5.37305,2.56405,-8.18282,-14.6916,26.6165,71.9895
2023-02-16 22:05:41:110,5.32583,2.47013,-8.17576,-14.4166,25.3599,72.0627
2023-02-16 22:05:41:120,5.21219,2.39732,-8.14937,-14.1299,24.0723,72.1524
2023-02-16 22:05:41:130,4.84624,2.35702,-8.0754,-13.8417,22.7581,72.2699
2023-02-16 22:05:41:140,4.30724,2.33948,-8.0098,-13.5506,21.4337,72.4028
2023-02-16 22:05:41:150,3.75153,2.29266,-7.97885,-13.2567,20.0987,72.5435
2023-02-16 22:05:41:160,3.24761,2.18411,-8.00032,-12.9684,18.7627,72.6867
2023-02-16 22:05:41:170,2.82263,2.05886,-8.0519,-12.6814,17.4399,72.8261
2023-02-16 22:05:41:180,2.55094,1.99122,-8.17768,-12.4092,16.141,72.9485
2023-02-16 22:05:41:190,2.55385,1.98182,-8.32602,-12.1451,14.8655,73.0472
2023-02-16 22:05:41:200,2.75988,1.94425,-8.42691,-11.8777,13.6058,73.1396
2023-02-16 22:05:41:210,2.83575,1.86808,-8.43234,-11.605,12.3518,73.2582
2023-02-16 22:05:41:220,2.5164,1.80569,-8.41678,-11.3304,11.0973,73.4224
2023-02-16 22:05:41:230,1.94815,1.76383,-8.47881,-11.0598,9.84791,73.6269
2023-02-16 22:05:41:240,1.41814,1.7957,-8.67033,-10.791,8.62405,73.8548
2023-02-16 22:05:41:250,1.12186,1.81705,-8.85805,-10.5125,7.42519,74.0807
2023-02-16 22:05:41:260,1.07927,1.76163,-8.88923,-10.2173,6.25762,74.299
2023-02-16 22:05:41:270,1.18714,1.61861,-8.77943,-9.9151,5.09906,74.5131
2023-02-16 22:05:41:280,1.18722,1.41248,-8.64708,-9.61678,3.94351,74.7506
2023-02-16 22:05:41:290,0.878063,1.27056,-8.58081,-9.33587,2.78318,75.0261
2023-02-16 22:05:41:300,0.388166,1.27684,-8.62135,-9.07709,1.61996,75.3304
2023-02-16 22:05:41:310,-0.0237863,1.34754,-8.67145,-8.83373,0.470502,75.6376
2023-02-16 22:05:41:320,-0.180851,1.31303,-8.68871,-8.59658,-0.670597,75.9292
2023-02-16 22:05:41:330,-0.234343,1.18582,-8.5894,-8.3702,-1.81051,76.2189
2023-02-16 22:05:41:340,-0.380627,1.02665,-8.47118,-8.16334,-2.9462,76.5209
2023-02-16 22:05:41:350,-0.63836,0.956813,-8.41571,-7.98424,-4.07625,76.8322
2023-02-16 22:05:41:360,-0.866053,0.946315,-8.40315,-7.82859,-5.20368,77.1439
2023-02-16 22:05:41:370,-0.825571,0.947897,-8.39773,-7.69113,-6.33194,77.4469
2023-02-16 22:05:41:380,-0.541727,0.825236,-8.42377,-7.57298,-7.48064,77.7441
2023-02-16 22:05:41:390,-0.54529,0.772557,-8.38378,-7.49991,-8.66349,78.0828
2023-02-16 22:05:41:400,-1.11378,0.929801,-8.4189,-7.46052,-9.84499,78.4725
2023-02-16 22:05:41:410,-1.83981,1.11243,-8.59469,-7.42968,-11.0164,78.8946
2023-02-16 22:05:41:420,-2.38383,1.06845,-8.41487,-7.40263,-12.2139,79.316
2023-02-16 22:05:41:430,-2.7893,0.967998,-8.14256,-7.38929,-13.4149,79.7179
2023-02-16 22:05:41:440,-3.0231,0.82102,-7.90533,-7.40755,-14.6135,80.1092
2023-02-16 22:05:41:450,-3.28241,0.735272,-7.7717,-7.45836,-15.7759,80.5067
2023-02-16 22:05:41:460,-3.69849,0.698852,-7.73041,-7.55391,-16.8961,80.9148
2023-02-16 22:05:41:470,-4.17669,0.778732,-7.79213,-7.69159,-17.9672,81.3239
2023-02-16 22:05:41:480,-4.44727,0.963259,-7.95587,-7.8555,-18.9891,81.7023
2023-02-16 22:05:41:490,-4.34765,1.04589,-8.11997,-8.01918,-19.97,82.0524
2023-02-16 22:05:41:500,-4.2097,0.987591,-8.24365,-8.20614,-20.9299,82.399
2023-02-16 22:05:41:510,-4.68809,0.970726,-8.30254,-8.43107,-21.8678,82.7832
2023-02-16 22:05:41:520,-5.73407,1.17113,-8.42175,-8.69645,-22.7393,83.2084
2023-02-16 22:05:41:530,-6.88524,1.4383,-8.54726,-8.9633,-23.5214,83.6345
2023-02-16 22:05:41:540,-7.66603,1.57888,-8.53739,-9.19073,-24.2018,84.002
2023-02-16 22:05:41:550,-7.77554,1.59542,-8.48674,-9.36278,-24.7676,84.2765
2023-02-16 22:05:41:560,-7.25071,1.50732,-8.46825,-9.48393,-25.2186,84.4574
2023-02-16 22:05:41:570,-6.51773,1.34906,-8.38758,-9.57654,-25.58,84.5908
2023-02-16 22:05:41:580,-6.1856,1.16798,-8.22725,-9.67568,-25.8654,84.7169
2023-02-16 22:05:41:590,-6.3863,1.11767,-8.03492,-9.80609,-26.0778,84.8475
2023-02-16 22:05:41:600,-6.55812,1.21727,-8.05229,-9.96129,-26.202,84.959
2023-02-16 22:05:41:610,-6.33197,1.37004,-8.30813,-10.131,-26.2394,85.0362
2023-02-16 22:05:41:620,-5.85762,1.56412,-8.59469,-10.2964,-26.2043,85.0884
2023-02-16 22:05:41:630,-5.42579,1.67366,-8.77205,-10.451,-26.115,85.1362
2023-02-16 22:05:41:640,-5.17651,1.72245,-8.79096,-10.5939,-25.9863,85.1878
2023-02-16 22:05:41:650,-5.04389,1.73552,-8.72545,-10.7277,-25.8334,85.2403
2023-02-16 22:05:41:660,-4.91572,1.73551,-8.63078,-10.8508,-25.6515,85.2893
2023-02-16 22:05:41:670,-4.77328,1.71284,-8.58476,-10.9716,-25.4431,85.3347
2023-02-16 22:05:41:680,-4.61258,1.75139,-8.60538,-11.089,-25.2086,85.3725
2023-02-16 22:05:41:690,-4.45728,1.81605,-8.66153,-11.2008,-24.9562,85.4033
2023-02-16 22:05:41:700,-4.29552,1.84813,-8.7408,-11.3082,-24.6877,85.4308
2023-02-16 22:05:41:710,-4.11991,1.87121,-8.80427,-11.4108,-24.4072,85.4609
2023-02-16 22:05:41:720,-3.96682,1.89017,-8.88071,-11.5056,-24.129,85.4871
2023-02-16 22:05:41:730,-3.84019,1.91871,-8.92915,-11.5938,-23.849,85.5202
2023-02-16 22:05:41:740,-3.72225,1.92952,-8.93702,-11.6745,-23.5716,85.5559
2023-02-16 22:05:41:750,-3.6605,1.92018,-8.92552,-11.7517,-23.304,85.6035
2023-02-16 22:05:41:760,-3.64751,1.93872,-8.90335,-11.8284,-23.0328,85.6579
2023-02-16 22:05:41:770,-3.64055,1.95054,-8.8987,-11.9046,-22.7633,85.7187
2023-02-16 22:05:41:780,-3.56917,1.9844,-8.94043,-11.9766,-22.4948,85.7728
2023-02-16 22:05:41:790,-3.46435,2.01873,-8.98569,-12.0414,-22.234,85.8249
2023-02-16 22:05:41:800,-3.32927,2.02569,-8.99492,-12.0995,-21.9802,85.8744
2023-02-16 22:05:41:810,-3.19367,2.01171,-8.997,-12.1556,-21.7371,85.9278
2023-02-16 22:05:41:820,-3.09836,2.01516,-8.94996,-12.212,-21.5083,85.9893
2023-02-16 22:05:41:830,-3.08985,2.02792,-8.90799,-12.271,-21.2899,86.0587
2023-02-16 22:05:41:839,-3.12704,2.07708,-8.9029,-12.3417,-21.0778,86.137
2023-02-16 22:05:41:850,-3.15854,2.10984,-8.92619,-12.4134,-20.872,86.2161
2023-02-16 22:05:41:860,-3.15376,2.12558,-8.97371,-12.4866,-20.6733,86.2949
2023-02-16 22:05:41:870,-3.0971,2.15645,-9.00806,-12.5572,-20.4774,86.377
2023-02-16 22:05:41:880,-3.01361,2.17109,-9.006,-12.6205,-20.2905,86.4538
2023-02-16 22:05:41:890,-2.98539,2.16729,-9.04394,-12.6858,-20.1141,86.5314
2023-02-16 22:05:41:900,-3.00085,2.20605,-9.07919,-12.7486,-19.9545,86.6116
2023-02-16 22:05:41:909,-3.07379,2.26272,-9.10666,-12.805,-19.805,86.6883
2023-02-16 22:05:41:920,-3.14194,2.27921,-9.10612,-12.8525,-19.6627,86.7585
2023-02-16 22:05:41:930,-3.1907,2.26522,-9.0458,-12.8834,-19.5307,86.8174
2023-02-16 22:05:41:940,-3.19244,2.22519,-8.99818,-12.9117,-19.4079,86.8649
2023-02-16 22:05:41:950,-3.16732,2.18861,-8.98081,-12.9391,-19.2936,86.9017
2023-02-16 22:05:41:960,-3.11976,2.1721,-9.00338,-12.9663,-19.1889,86.9273
2023-02-16 22:05:41:970,-3.10621,2.17861,-9.00331,-12.9921,-19.0973,86.9407
2023-02-16 22:05:41:980,-3.09763,2.16737,-8.97429,-13.0194,-19.0202,86.9469
2023-02-16 22:05:41:990,-3.06764,2.16808,-9.0091,-13.0478,-18.9576,86.9406
2023-02-16 22:05:42:0,-3.01911,2.20078,-9.07551,-13.0802,-18.91,86.9274
2023-02-16 22:05:42:10,-3.02202,2.24276,-9.11943,-13.1068,-18.8797,86.9036
2023-02-16 22:05:42:20,-3.01665,2.2617,-9.13784,-13.1245,-18.8618,86.8779
2023-02-16 22:05:42:30,-2.99247,2.2646,-9.12845,-13.1326,-18.8535,86.8452
2023-02-16 22:05:42:40,-2.96418,2.2354,-9.10044,-13.1373,-18.8513,86.8109
2023-02-16 22:05:42:50,-2.95467,2.2152,-9.05969,-13.1364,-18.8547,86.778
2023-02-16 22:05:42:60,-2.95865,2.20604,-9.04199,-13.1405,-18.8635,86.7514
2023-02-16 22:05:42:70,-2.95168,2.20012,-9.06071,-13.1401,-18.8754,86.7256
2023-02-16 22:05:42:80,-2.95892,2.18946,-9.07072,-13.1371,-18.8934,86.7053
2023-02-16 22:05:42:90,-2.99025,2.16681,-9.07288,-13.1362,-18.9127,86.689
2023-02-16 22:05:42:100,-3.02553,2.18208,-9.05668,-13.1355,-18.9307,86.6768
2023-02-16 22:05:42:110,-3.03703,2.17739,-9.06067,-13.1311,-18.9477,86.6689
2023-02-16 22:05:42:120,-3.0462,2.17804,-9.06009,-13.1264,-18.9688,86.665
2023-02-16 22:05:42:130,-3.0478,2.16941,-9.06637,-13.1192,-18.9915,86.6634
2023-02-16 22:05:42:140,-3.05907,2.15423,-9.06958,-13.1082,-19.0134,86.6633
2023-02-16 22:05:42:150,-3.11166,2.15696,-9.06531,-13.097,-19.0367,86.6702
2023-02-16 22:05:42:160,-3.15252,2.15685,-9.05653,-13.0839,-19.0618,86.6796
2023-02-16 22:05:42:170,-3.17952,2.13847,-9.0577,-13.0655,-19.0898,86.6904
2023-02-16 22:05:42:180,-3.21326,2.13188,-9.05763,-13.0469,-19.1076,86.6972
2023-02-16 22:05:42:190,-3.21747,2.10685,-9.06054,-13.0306,-19.1271,86.7086
2023-02-16 22:05:42:200,-3.21212,2.09528,-9.04277,-13.0071,-19.1466,86.7197
2023-02-16 22:05:42:210,-3.20138,2.07993,-9.01749,-12.9832,-19.1657,86.73
2023-02-16 22:05:42:220,-3.14213,2.04493,-8.99528,-12.9626,-19.1803,86.7404
2023-02-16 22:05:42:230,-3.09935,2.02576,-8.957,-12.9468,-19.1932,86.7533
2023-02-16 22:05:42:240,-3.08135,2.02447,-8.93804,-12.9333,-19.2106,86.7704
2023-02-16 22:05:42:250,-3.09687,2.04575,-8.94355,-12.9281,-19.2314,86.7913
2023-02-16 22:05:42:260,-3.13543,2.06006,-8.95668,-12.9279,-19.2536,86.8176
2023-02-16 22:05:42:270,-3.16518,2.09175,-8.98388,-12.9264,-19.2803,86.8415
2023-02-16 22:05:42:280,-3.17237,2.11074,-9.00502,-12.9239,-19.3086,86.8622
2023-02-16 22:05:42:290,-3.14947,2.10871,-9.01019,-12.9131,-19.3423,86.8739
2023-02-16 22:05:42:300,-3.12016,2.09312,-8.9752,-12.9019,-19.378,86.8837
2023-02-16 22:05:42:310,-3.18681,2.08435,-8.93437,-12.8942,-19.4231,86.894
2023-02-16 22:05:42:320,-3.32184,2.10688,-8.936,-12.8857,-19.4729,86.8963
2023-02-16 22:05:42:330,-3.39883,2.146,-9.00462,-12.8797,-19.5306,86.8806
2023-02-16 22:05:42:340,-3.38093,2.1628,-9.07217,-12.8616,-19.5953,86.848
2023-02-16 22:05:42:350,-3.31742,2.1682,-9.09298,-12.8348,-19.6704,86.7969
2023-02-16 22:05:42:360,-3.26121,2.15386,-9.07411,-12.7992,-19.7577,86.7296
2023-02-16 22:05:42:370,-3.16683,2.12379,-9.02827,-12.7577,-19.8539,86.649
2023-02-16 22:05:42:380,-3.04406,2.09082,-9.00731,-12.7122,-19.9662,86.5634
2023-02-16 22:05:42:390,-2.94054,2.07168,-8.98963,-12.6705,-20.0923,86.4762
2023-02-16 22:05:42:400,-2.88608,2.07462,-9.00718,-12.6326,-20.2351,86.3941
2023-02-16 22:05:42:410,-2.91629,2.06987,-9.02866,-12.5983,-20.3912,86.3213
2023-02-16 22:05:42:420,-2.99563,2.10165,-9.06127,-12.5656,-20.5607,86.2498
2023-02-16 22:05:42:430,-3.01429,2.13291,-9.10148,-12.5233,-20.7437,86.1757
2023-02-16 22:05:42:440,-2.97294,2.11036,-9.08639,-12.4768,-20.9329,86.1086
2023-02-16 22:05:42:450,-2.95046,2.06857,-9.06068,-12.4213,-21.1317,86.0504
2023-02-16 22:05:42:460,-2.93697,2.05952,-9.04958,-12.3634,-21.3458,85.9962
2023-02-16 22:05:42:470,-2.90164,2.03439,-9.03497,-12.3014,-21.5689,85.949
2023-02-16 22:05:42:480,-2.86147,2.02437,-9.02771,-12.2391,-21.8078,85.9116
2023-02-16 22:05:42:490,-2.85905,2.02355,-9.04915,-12.1728,-22.0643,85.8822
2023-02-16 22:05:42:500,-2.92314,2.06445,-9.02313,-12.1041,-22.3383,85.868
2023-02-16 22:05:42:510,-2.96119,2.05922,-8.94146,-12.0237,-22.6271,85.854
2023-02-16 22:05:42:520,-2.86685,2.02717,-8.90261,-11.9379,-22.932,85.8379
2023-02-16 22:05:42:530,-2.68039,1.97153,-8.91418,-11.8452,-23.2634,85.8237
2023-02-16 22:05:42:540,-2.55115,1.91947,-8.92524,-11.7587,-23.633,85.8255
2023-02-16 22:05:42:550,-2.57006,1.8854,-8.9131,-11.6753,-24.0528,85.8451
2023-02-16 22:05:42:560,-2.74383,1.88523,-8.84223,-11.5935,-24.5233,85.8864
2023-02-16 22:05:42:570,-2.9428,1.87036,-8.71193,-11.514,-25.036,85.9437
2023-02-16 22:05:42:580,-3.07847,1.83574,-8.55331,-11.4297,-25.5833,86.0042
2023-02-16 22:05:42:590,-3.08579,1.79264,-8.42438,-11.3487,-26.1649,86.065
2023-02-16 22:05:42:600,-3.01735,1.7306,-8.3136,-11.281,-26.7812,86.1284
2023-02-16 22:05:42:610,-2.87932,1.69132,-8.30007,-11.2338,-27.4348,86.2028
2023-02-16 22:05:42:620,-2.75247,1.71636,-8.38724,-11.2079,-28.134,86.2977
2023-02-16 22:05:42:630,-2.73416,1.74319,-8.41207,-11.1953,-28.8876,86.4262
2023-02-16 22:05:42:640,-2.92966,1.74248,-8.234,-11.1921,-29.6925,86.6031
2023-02-16 22:05:42:650,-3.19106,1.67181,-7.94484,-11.1914,-30.5355,86.8156
2023-02-16 22:05:42:660,-3.26267,1.59965,-7.73419,-11.205,-31.4185,87.0523
2023-02-16 22:05:42:670,-3.22636,1.55058,-7.56154,-11.2428,-32.3387,87.3282
2023-02-16 22:05:42:680,-3.30219,1.51788,-7.39072,-11.3215,-33.3039,87.6517
2023-02-16 22:05:42:690,-3.51525,1.52585,-7.19807,-11.4328,-34.3141,88.0238
2023-02-16 22:05:42:700,-3.6238,1.48942,-7.07259,-11.5805,-35.3604,88.4398
