Timestamp,Acceleration_x,Acceleration_y,Acceleration_z,roll,pitch,yaw
2023-02-16 21:33:50:476,-1.14693,2.87614,-9.36742,-16.9824,-7.49978,86.7333
2023-02-16 21:33:50:485,-1.1773,2.88568,-9.34475,-17.0008,-7.50966,86.7763
2023-02-16 21:33:50:495,-1.19691,2.86795,-9.31386,-17.0159,-7.51946,86.8232
2023-02-16 21:33:50:505,-1.19035,2.84267,-9.28629,-17.0319,-7.52703,86.8756
2023-02-16 21:33:50:515,-1.20438,2.82345,-9.27363,-17.0433,-7.53672,86.9316
2023-02-16 21:33:50:526,-1.24851,2.81475,-9.2556,-17.0601,-7.54138,86.9895
2023-02-16 21:33:50:535,-1.27603,2.80714,-9.24221,-17.0764,-7.54608,87.0501
2023-02-16 21:33:50:545,-1.29738,2.81177,-9.24347,-17.0954,-7.55121,87.1133
2023-02-16 21:33:50:555,-1.33737,2.79569,-9.23632,-17.112,-7.55327,87.1774
2023-02-16 21:33:50:565,-1.35714,2.78698,-9.26366,-17.1327,-7.55619,87.2366
2023-02-16 21:33:50:575,-1.357,2.81944,-9.30562,-17.15,-7.55959,87.2926
2023-02-16 21:33:50:585,-1.35583,2.84562,-9.32045,-17.1637,-7.56364,87.3494
2023-02-16 21:33:50:595,-1.36298,2.8449,-9.29967,-17.1755,-7.56307,87.4029
2023-02-16 21:33:50:605,-1.35282,2.84292,-9.3074,-17.1869,-7.56278,87.4517
2023-02-16 21:33:50:615,-1.3566,2.82194,-9.30369,-17.1957,-7.56135,87.4969
2023-02-16 21:33:50:625,-1.35213,2.81877,-9.31037,-17.2061,-7.56685,87.5366
2023-02-16 21:33:50:635,-1.34606,2.8388,-9.33229,-17.2144,-7.57564,87.5698
2023-02-16 21:33:50:645,-1.35679,2.84507,-9.30972,-17.2228,-7.58427,87.6022
2023-02-16 21:33:50:655,-1.38906,2.81794,-9.26997,-17.234,-7.59594,87.6359
2023-02-16 21:33:50:665,-1.39085,2.78897,-9.22119,-17.2471,-7.61158,87.6661
2023-02-16 21:33:50:675,-1.40258,2.77603,-9.15243,-17.2642,-7.62162,87.6965
2023-02-16 21:33:50:685,-1.41645,2.77486,-9.12696,-17.2889,-7.63126,87.7232
2023-02-16 21:33:50:695,-1.39506,2.80665,-9.15364,-17.3147,-7.64273,87.7497
2023-02-16 21:33:50:705,-1.40558,2.8355,-9.21616,-17.3404,-7.64958,87.7698
2023-02-16 21:33:50:715,-1.41433,2.87061,-9.22761,-17.364,-7.65258,87.7939
2023-02-16 21:33:50:725,-1.39263,2.87255,-9.20613,-17.3878,-7.64979,87.8136
2023-02-16 21:33:50:735,-1.37001,2.8625,-9.17945,-17.4156,-7.64356,87.8311
2023-02-16 21:33:50:745,-1.35475,2.85169,-9.16868,-17.4399,-7.63542,87.8497
2023-02-16 21:33:50:755,-1.35865,2.8468,-9.17899,-17.4688,-7.62635,87.8682
2023-02-16 21:33:50:765,-1.34161,2.85123,-9.17635,-17.5015,-7.61765,87.8836
2023-02-16 21:33:50:775,-1.34093,2.84765,-9.17358,-17.5406,-7.60331,87.9007
2023-02-16 21:33:50:786,-1.34625,2.88118,-9.20129,-17.5838,-7.59078,87.9177
2023-02-16 21:33:50:795,-1.31811,2.92272,-9.23247,-17.6256,-7.58115,87.9321
2023-02-16 21:33:50:806,-1.32919,2.95273,-9.28014,-17.6724,-7.57717,87.9469
2023-02-16 21:33:50:815,-1.35857,3.0085,-9.32304,-17.7139,-7.57064,87.9635
2023-02-16 21:33:50:825,-1.36503,3.04371,-9.34191,-17.7494,-7.5575,87.9721
2023-02-16 21:33:50:835,-1.36298,3.03746,-9.3311,-17.7763,-7.54387,87.9786
2023-02-16 21:33:50:845,-1.33283,3.01957,-9.31404,-17.7989,-7.52512,87.9838
2023-02-16 21:33:50:855,-1.30331,3.00273,-9.29519,-17.8155,-7.50794,87.9872
2023-02-16 21:33:50:865,-1.27122,2.98049,-9.25938,-17.8297,-7.48944,87.9931
2023-02-16 21:33:50:875,-1.25415,2.96197,-9.24989,-17.8419,-7.47153,87.9968
2023-02-16 21:33:50:885,-1.24633,2.99022,-9.27892,-17.8601,-7.44839,88.0035
2023-02-16 21:33:50:895,-1.24693,3.03179,-9.31386,-17.8749,-7.42598,88.0098
2023-02-16 21:33:50:905,-1.23213,3.04755,-9.28934,-17.8868,-7.40268,88.0163
2023-02-16 21:33:50:915,-1.20204,3.03942,-9.28434,-17.8941,-7.37966,88.024
2023-02-16 21:33:50:925,-1.18055,3.05139,-9.27148,-17.9035,-7.35634,88.0309
2023-02-16 21:33:50:935,-1.1636,3.05712,-9.25829,-17.9105,-7.33691,88.0421
2023-02-16 21:33:50:945,-1.15193,3.03536,-9.23152,-17.9162,-7.31652,88.052
2023-02-16 21:33:50:955,-1.13484,3.01016,-9.20479,-17.9193,-7.29502,88.0668
2023-02-16 21:33:50:965,-1.12248,2.99957,-9.20657,-17.9234,-7.2742,88.0815
2023-02-16 21:33:50:975,-1.12583,2.98412,-9.19274,-17.9307,-7.2567,88.1004
2023-02-16 21:33:50:985,-1.13641,2.9577,-9.17805,-17.939,-7.24232,88.119
2023-02-16 21:33:50:995,-1.15382,2.95902,-9.18234,-17.9527,-7.23114,88.1433
2023-02-16 21:33:51:5,-1.15581,2.9708,-9.22418,-17.9657,-7.22014,88.1689
2023-02-16 21:33:51:15,-1.17164,2.98298,-9.23406,-17.9795,-7.21042,88.1949
2023-02-16 21:33:51:25,-1.1611,2.97446,-9.21821,-17.9954,-7.20116,88.2184
2023-02-16 21:33:51:35,-1.16449,2.95596,-9.21386,-18.0125,-7.19722,88.2401
2023-02-16 21:33:51:45,-1.15472,2.96174,-9.2028,-18.0309,-7.1925,88.2619
2023-02-16 21:33:51:55,-1.1492,2.96723,-9.21408,-18.0541,-7.18879,88.2887
2023-02-16 21:33:51:65,-1.15719,2.96696,-9.20651,-18.0785,-7.18662,88.3124
2023-02-16 21:33:51:75,-1.18869,2.98528,-9.22056,-18.1106,-7.18575,88.3374
2023-02-16 21:33:51:85,-1.22937,3.03457,-9.22006,-18.1362,-7.18181,88.3619
2023-02-16 21:33:51:95,-1.25086,3.0386,-9.18535,-18.1637,-7.17884,88.3839
2023-02-16 21:33:51:106,-1.2383,3.02578,-9.18518,-18.1917,-7.17464,88.405
2023-02-16 21:33:51:116,-1.23861,3.052,-9.20463,-18.2171,-7.16996,88.4238
2023-02-16 21:33:51:125,-1.26373,3.05456,-9.19423,-18.244,-7.16459,88.4372
2023-02-16 21:33:51:135,-1.25327,3.0612,-9.16442,-18.2717,-7.16264,88.4488
2023-02-16 21:33:51:146,-1.25059,3.07082,-9.18577,-18.3009,-7.15953,88.4538
2023-02-16 21:33:51:156,-1.24386,3.09024,-9.18488,-18.3286,-7.15473,88.4543
2023-02-16 21:33:51:165,-1.22423,3.09573,-9.20134,-18.3545,-7.15215,88.4535
2023-02-16 21:33:51:176,-1.20784,3.08636,-9.22143,-18.3818,-7.14589,88.4477
2023-02-16 21:33:51:186,-1.19832,3.098,-9.21973,-18.4014,-7.13817,88.4396
2023-02-16 21:33:51:195,-1.20577,3.10174,-9.21187,-18.4217,-7.13369,88.4277
2023-02-16 21:33:51:206,-1.20722,3.09747,-9.20526,-18.4474,-7.13279,88.4191
2023-02-16 21:33:51:215,-1.22418,3.1049,-9.18646,-18.4742,-7.13503,88.4119
2023-02-16 21:33:51:226,-1.22412,3.11465,-9.16938,-18.4988,-7.13576,88.4001
2023-02-16 21:33:51:235,-1.21978,3.11634,-9.16903,-18.5286,-7.13124,88.3868
2023-02-16 21:33:51:245,-1.21474,3.10334,-9.16058,-18.5596,-7.12697,88.3729
2023-02-16 21:33:51:255,-1.19461,3.10127,-9.171,-18.5889,-7.12035,88.3589
2023-02-16 21:33:51:266,-1.16656,3.1094,-9.19982,-18.6215,-7.11502,88.3488
2023-02-16 21:33:51:276,-1.13918,3.11757,-9.24316,-18.6545,-7.10697,88.338
2023-02-16 21:33:51:286,-1.12082,3.1596,-9.31336,-18.681,-7.1041,88.3242
2023-02-16 21:33:51:295,-1.12594,3.19972,-9.33014,-18.7047,-7.10599,88.3121
2023-02-16 21:33:51:306,-1.12563,3.18674,-9.277,-18.7269,-7.1067,88.3013
2023-02-16 21:33:51:315,-1.12484,3.1636,-9.21132,-18.7514,-7.1074,88.2955
2023-02-16 21:33:51:326,-1.13013,3.15832,-9.17919,-18.7791,-7.10788,88.2933
2023-02-16 21:33:51:335,-1.13236,3.15036,-9.13984,-18.8048,-7.10773,88.2951
2023-02-16 21:33:51:345,-1.13344,3.11872,-9.10567,-18.8326,-7.09866,88.2994
2023-02-16 21:33:51:355,-1.09903,3.08541,-9.08192,-18.8654,-7.08923,88.3092
2023-02-16 21:33:51:366,-1.08358,3.05881,-9.04924,-18.8995,-7.07766,88.3208
2023-02-16 21:33:51:375,-1.07734,3.01855,-8.99984,-18.9435,-7.06185,88.3337
2023-02-16 21:33:51:386,-1.07312,3.0019,-8.96482,-18.9888,-7.04966,88.3518
2023-02-16 21:33:51:395,-1.09954,3.04152,-9.03356,-19.044,-7.03841,88.374
2023-02-16 21:33:51:405,-1.14443,3.14054,-9.22634,-19.1042,-7.03213,88.4007
2023-02-16 21:33:51:415,-1.21911,3.28069,-9.35473,-19.1552,-7.02869,88.4258
2023-02-16 21:33:51:425,-1.27219,3.34505,-9.36538,-19.2006,-7.02696,88.4439
2023-02-16 21:33:51:435,-1.27894,3.35008,-9.32678,-19.2382,-7.02523,88.4554
2023-02-16 21:33:51:445,-1.2476,3.33549,-9.2445,-19.2669,-7.02225,88.4634
2023-02-16 21:33:51:455,-1.2433,3.28297,-9.15298,-19.2918,-7.02323,88.4703
2023-02-16 21:33:51:466,-1.22064,3.25072,-9.10591,-19.3217,-7.02335,88.4718
2023-02-16 21:33:51:476,-1.21374,3.2431,-9.08501,-19.3521,-7.02448,88.4713
2023-02-16 21:33:51:485,-1.20211,3.22574,-9.07099,-19.3885,-7.02219,88.4668
2023-02-16 21:33:51:495,-1.14181,3.18533,-9.06533,-19.4298,-7.01707,88.4597
2023-02-16 21:33:51:505,-1.10456,3.19795,-9.05191,-19.4762,-7.01828,88.4572
2023-02-16 21:33:51:516,-1.11875,3.21509,-9.06402,-19.5275,-7.02112,88.4525
2023-02-16 21:33:51:526,-1.12738,3.19845,-9.01662,-19.5871,-7.02521,88.4508
2023-02-16 21:33:51:536,-1.10899,3.16127,-8.94276,-19.6512,-7.0239,88.4513
2023-02-16 21:33:51:546,-1.10067,3.09432,-8.85219,-19.7291,-7.02562,88.4526
2023-02-16 21:33:51:556,-1.07796,3.03784,-8.80727,-19.8205,-7.0239,88.4548
2023-02-16 21:33:51:565,-1.06679,3.03573,-8.8111,-19.9257,-7.02031,88.4605
2023-02-16 21:33:51:575,-1.06395,3.06253,-8.82888,-20.0481,-7.01911,88.4741
2023-02-16 21:33:51:586,-1.0463,3.09597,-8.84936,-20.1847,-7.01784,88.4867
2023-02-16 21:33:51:595,-1.0567,3.13047,-8.83474,-20.3333,-7.01388,88.5043
2023-02-16 21:33:51:606,-1.06891,3.12652,-8.847,-20.4921,-7.01578,88.5251
2023-02-16 21:33:51:616,-1.08115,3.14748,-8.84227,-20.6665,-7.02061,88.5488
2023-02-16 21:33:51:626,-1.09731,3.14734,-8.79706,-20.8543,-7.02618,88.5721
2023-02-16 21:33:51:636,-1.07149,3.14837,-8.67593,-21.0602,-7.03551,88.5944
2023-02-16 21:33:51:646,-1.03675,3.15288,-8.55117,-21.2861,-7.05196,88.6205
2023-02-16 21:33:51:655,-1.06022,3.14663,-8.46682,-21.5406,-7.07046,88.6538
2023-02-16 21:33:51:665,-1.11304,3.22043,-8.47865,-21.828,-7.09674,88.69
2023-02-16 21:33:51:675,-1.13383,3.32326,-8.6161,-22.1377,-7.12744,88.7293
2023-02-16 21:33:51:685,-1.1745,3.48216,-8.86124,-22.4628,-7.16198,88.7699
2023-02-16 21:33:51:695,-1.24579,3.65553,-9.05882,-22.7898,-7.19892,88.8101
2023-02-16 21:33:51:705,-1.28406,3.74497,-9.1014,-23.1075,-7.23327,88.8484
2023-02-16 21:33:51:715,-1.27199,3.79142,-9.03724,-23.4121,-7.25881,88.8836
2023-02-16 21:33:51:726,-1.2685,3.84223,-8.91425,-23.7151,-7.2779,88.9176
2023-02-16 21:33:51:735,-1.24738,3.90218,-8.85585,-24.0152,-7.28898,88.9459
2023-02-16 21:33:51:746,-1.21432,3.99375,-8.87614,-24.3173,-7.29742,88.9812
2023-02-16 21:33:51:755,-1.22334,4.12858,-8.93954,-24.6179,-7.29715,89.0213
2023-02-16 21:33:51:766,-1.24176,4.23109,-8.97321,-24.9066,-7.29831,89.0595
2023-02-16 21:33:51:775,-1.25238,4.25762,-8.98338,-25.182,-7.29976,89.0935
2023-02-16 21:33:51:785,-1.25037,4.34608,-9.06273,-25.4469,-7.30381,89.1256
2023-02-16 21:33:51:795,-1.26042,4.45898,-9.17406,-25.6903,-7.30396,89.1589
2023-02-16 21:33:51:805,-1.28219,4.53078,-9.19732,-25.9115,-7.29869,89.1856
2023-02-16 21:33:51:815,-1.29911,4.63012,-9.21533,-26.1083,-7.29539,89.214
2023-02-16 21:33:51:825,-1.31339,4.74776,-9.23128,-26.2797,-7.29478,89.236
2023-02-16 21:33:51:835,-1.32925,4.78938,-9.16607,-26.4262,-7.28997,89.2596
2023-02-16 21:33:51:846,-1.33179,4.73859,-9.00672,-26.5457,-7.28103,89.2789
2023-02-16 21:33:51:855,-1.27973,4.68247,-8.88622,-26.6562,-7.26926,89.2971
2023-02-16 21:33:51:865,-1.25681,4.6612,-8.82874,-26.7533,-7.25398,89.3128
2023-02-16 21:33:51:875,-1.24406,4.61278,-8.79786,-26.843,-7.23586,89.3263
2023-02-16 21:33:51:885,-1.23629,4.58073,-8.7749,-26.9252,-7.22258,89.3403
2023-02-16 21:33:51:895,-1.24278,4.60093,-8.76544,-27.004,-7.20892,89.3563
2023-02-16 21:33:51:905,-1.25283,4.64198,-8.78436,-27.0725,-7.19477,89.3744
2023-02-16 21:33:51:915,-1.27818,4.67017,-8.81816,-27.1342,-7.18161,89.3873
2023-02-16 21:33:51:925,-1.27722,4.66781,-8.84299,-27.1834,-7.16831,89.3971
2023-02-16 21:33:51:935,-1.27155,4.67132,-8.87667,-27.2236,-7.15265,89.4033
2023-02-16 21:33:51:945,-1.27659,4.67955,-8.91107,-27.2464,-7.13874,89.4127
2023-02-16 21:33:51:955,-1.26989,4.67402,-8.88036,-27.2605,-7.1282,89.4193
2023-02-16 21:33:51:965,-1.23687,4.63983,-8.81398,-27.2625,-7.11833,89.4214
2023-02-16 21:33:51:975,-1.19906,4.60358,-8.7461,-27.2598,-7.11263,89.4236
2023-02-16 21:33:51:985,-1.17395,4.62427,-8.74647,-27.255,-7.11233,89.4268
2023-02-16 21:33:51:995,-1.19497,4.7064,-8.81386,-27.243,-7.11119,89.4364
2023-02-16 21:33:52:6,-1.23805,4.76414,-8.85939,-27.2137,-7.11793,89.4464
2023-02-16 21:33:52:15,-1.25669,4.74466,-8.81755,-27.1744,-7.12207,89.4549
2023-02-16 21:33:52:26,-1.24157,4.7054,-8.76346,-27.1244,-7.12251,89.4634
2023-02-16 21:33:52:35,-1.23613,4.67278,-8.77301,-27.065,-7.12138,89.4716
2023-02-16 21:33:52:45,-1.2344,4.66495,-8.87248,-26.9941,-7.12142,89.4765
2023-02-16 21:33:52:55,-1.24232,4.76526,-9.05616,-26.906,-7.12367,89.4795
2023-02-16 21:33:52:65,-1.25046,4.83232,-9.15445,-26.7888,-7.12107,89.484
2023-02-16 21:33:52:75,-1.21965,4.78317,-9.05429,-26.643,-7.11304,89.4884
2023-02-16 21:33:52:85,-1.18317,4.66602,-8.85136,-26.4851,-7.09896,89.4904
2023-02-16 21:33:52:95,-1.11569,4.54778,-8.72105,-26.32,-7.0788,89.4991
2023-02-16 21:33:52:106,-1.07072,4.43868,-8.6687,-26.1559,-7.05403,89.5166
2023-02-16 21:33:52:115,-1.05907,4.39624,-8.67446,-25.9918,-7.02922,89.5399
2023-02-16 21:33:52:126,-1.07062,4.37962,-8.72798,-25.8255,-7.00711,89.5661
2023-02-16 21:33:52:135,-1.0802,4.35213,-8.80833,-25.6601,-6.98609,89.6037
2023-02-16 21:33:52:145,-1.11641,4.36724,-8.89633,-25.4913,-6.96633,89.6405
2023-02-16 21:33:52:155,-1.14875,4.3301,-8.90611,-25.3096,-6.93641,89.679
2023-02-16 21:33:52:165,-1.13286,4.23951,-8.82417,-25.1253,-6.90579,89.723
2023-02-16 21:33:52:175,-1.08461,4.15679,-8.76299,-24.9454,-6.87758,89.7684
2023-02-16 21:33:52:185,-1.09169,4.11443,-8.75539,-24.7644,-6.85136,89.8211
2023-02-16 21:33:52:195,-1.11587,4.06646,-8.73762,-24.5923,-6.82985,89.8742
2023-02-16 21:33:52:206,-1.14279,4.02422,-8.70482,-24.4186,-6.8059,89.9283
2023-02-16 21:33:52:215,-1.1573,3.94206,-8.68073,-24.2527,-6.78754,89.982
2023-02-16 21:33:52:226,-1.14824,3.87977,-8.66078,-24.0935,-6.76692,90.0367
2023-02-16 21:33:52:235,-1.17114,3.87493,-8.68341,-23.9451,-6.74654,90.0901
2023-02-16 21:33:52:246,-1.1972,3.85621,-8.67752,-23.8024,-6.72417,90.1397
2023-02-16 21:33:52:255,-1.1791,3.81063,-8.67294,-23.6681,-6.70375,90.1842
2023-02-16 21:33:52:265,-1.15302,3.76879,-8.7053,-23.5349,-6.68703,90.2218
2023-02-16 21:33:52:275,-1.16105,3.74709,-8.72069,-23.4142,-6.67138,90.2538
2023-02-16 21:33:52:286,-1.17055,3.7295,-8.71482,-23.303,-6.65973,90.2851
2023-02-16 21:33:52:295,-1.16641,3.69669,-8.72793,-23.1984,-6.65116,90.3117
2023-02-16 21:33:52:305,-1.14275,3.68862,-8.77716,-23.1004,-6.64538,90.3325
2023-02-16 21:33:52:315,-1.11246,3.72174,-8.82957,-23.0095,-6.64403,90.3453
2023-02-16 21:33:52:325,-1.1079,3.71519,-8.83738,-22.9251,-6.64321,90.3549
2023-02-16 21:33:52:335,-1.09312,3.69163,-8.81607,-22.8501,-6.65032,90.3599
2023-02-16 21:33:52:345,-1.06496,3.70028,-8.84019,-22.7802,-6.66345,90.362
2023-02-16 21:33:52:355,-1.06009,3.70304,-8.86598,-22.7173,-6.67613,90.3665
2023-02-16 21:33:52:366,-1.05116,3.69023,-8.85376,-22.6593,-6.6941,90.3692
2023-02-16 21:33:52:376,-1.06967,3.68979,-8.86768,-22.6085,-6.71131,90.3742
2023-02-16 21:33:52:386,-1.07635,3.67904,-8.89912,-22.5583,-6.73041,90.377
2023-02-16 21:33:52:396,-1.07724,3.67492,-8.91427,-22.5132,-6.75217,90.3779
2023-02-16 21:33:52:406,-1.07719,3.66788,-8.90174,-22.4683,-6.77479,90.3817
2023-02-16 21:33:52:415,-1.07626,3.666,-8.88592,-22.4283,-6.79775,90.3845
2023-02-16 21:33:52:426,-1.08267,3.66764,-8.87109,-22.3932,-6.81827,90.3872
2023-02-16 21:33:52:435,-1.08957,3.64959,-8.86248,-22.3635,-6.83955,90.3877
2023-02-16 21:33:52:445,-1.07373,3.62846,-8.85792,-22.3389,-6.86086,90.3914
2023-02-16 21:33:52:455,-1.07495,3.62425,-8.86348,-22.319,-6.87803,90.3966
2023-02-16 21:33:52:465,-1.08333,3.62115,-8.87993,-22.3027,-6.89803,90.4014
2023-02-16 21:33:52:476,-1.09066,3.6037,-8.89632,-22.2868,-6.91662,90.4107
2023-02-16 21:33:52:486,-1.12722,3.63089,-8.95549,-22.2792,-6.93793,90.4236
2023-02-16 21:33:52:495,-1.17239,3.67202,-8.99369,-22.2681,-6.9619,90.4367
2023-02-16 21:33:52:506,-1.205,3.67036,-8.98904,-22.2556,-6.98171,90.4491
2023-02-16 21:33:52:515,-1.22392,3.66687,-8.9726,-22.247,-7.00007,90.4615
2023-02-16 21:33:52:526,-1.23762,3.65208,-8.95566,-22.2406,-7.0206,90.4724
2023-02-16 21:33:52:535,-1.23528,3.65015,-8.93628,-22.2356,-7.0393,90.4817
2023-02-16 21:33:52:546,-1.23037,3.6529,-8.94389,-22.2309,-7.05622,90.4861
2023-02-16 21:33:52:556,-1.20781,3.65811,-8.9547,-22.2283,-7.07233,90.4906
2023-02-16 21:33:52:565,-1.18944,3.65557,-8.9643,-22.2248,-7.0873,90.4967
2023-02-16 21:33:52:575,-1.18903,3.66508,-8.98748,-22.221,-7.10214,90.5006
2023-02-16 21:33:52:586,-1.18264,3.68955,-9.00657,-22.2174,-7.11555,90.5053
2023-02-16 21:33:52:595,-1.19572,3.67723,-9.01312,-22.2145,-7.13085,90.5124
2023-02-16 21:33:52:606,-1.19953,3.68027,-9.01374,-22.2079,-7.14008,90.5201
2023-02-16 21:33:52:615,-1.2113,3.67918,-9.01929,-22.1974,-7.14931,90.526
2023-02-16 21:33:52:625,-1.22425,3.6736,-9.04518,-22.1835,-7.15507,90.5322
2023-02-16 21:33:52:636,-1.21395,3.67876,-9.0837,-22.1691,-7.15824,90.5411
2023-02-16 21:33:52:645,-1.20934,3.68676,-9.09629,-22.1541,-7.15565,90.552
2023-02-16 21:33:52:656,-1.19604,3.69834,-9.08228,-22.1324,-7.15374,90.5606
2023-02-16 21:33:52:665,-1.18989,3.67347,-9.04383,-22.1085,-7.15418,90.5669
2023-02-16 21:33:52:675,-1.18375,3.65424,-9.00071,-22.0888,-7.15804,90.5726
2023-02-16 21:33:52:685,-1.19457,3.65485,-8.9743,-22.0706,-7.16487,90.5772
2023-02-16 21:33:52:695,-1.20358,3.66872,-8.97257,-22.0568,-7.17427,90.5844
2023-02-16 21:33:52:705,-1.23694,3.68404,-8.99113,-22.0436,-7.1809,90.5863
2023-02-16 21:33:52:715,-1.24023,3.70687,-9.02392,-22.0297,-7.18966,90.589
2023-02-16 21:33:52:725,-1.22751,3.71664,-9.03635,-22.0085,-7.19638,90.5884
2023-02-16 21:33:52:735,-1.22215,3.70049,-9.02131,-21.9843,-7.20608,90.5835
2023-02-16 21:33:52:745,-1.20611,3.66835,-9.01028,-21.9586,-7.2127,90.5819
2023-02-16 21:33:52:755,-1.19441,3.65527,-9.01667,-21.9278,-7.219,90.5767
2023-02-16 21:33:52:765,-1.17811,3.64292,-9.01951,-21.8945,-7.22634,90.5693
2023-02-16 21:33:52:775,-1.17897,3.62246,-9.00098,-21.8609,-7.22938,90.5648
2023-02-16 21:33:52:785,-1.19872,3.59617,-9.00754,-21.8255,-7.23634,90.5593
2023-02-16 21:33:52:795,-1.19054,3.59882,-9.0086,-21.7902,-7.23614,90.5509
2023-02-16 21:33:52:805,-1.21159,3.60004,-9.00466,-21.76,-7.24177,90.5452
2023-02-16 21:33:52:815,-1.21403,3.58048,-9.01411,-21.7317,-7.25123,90.5379
2023-02-16 21:33:52:825,-1.18763,3.57599,-9.02661,-21.7039,-7.26155,90.5303
2023-02-16 21:33:52:835,-1.17082,3.59164,-9.04675,-21.6756,-7.27864,90.522
2023-02-16 21:33:52:845,-1.20369,3.60237,-9.05644,-21.6457,-7.29355,90.5161
2023-02-16 21:33:52:855,-1.24919,3.60051,-9.05588,-21.6112,-7.30656,90.507
2023-02-16 21:33:52:865,-1.24618,3.57901,-9.04712,-21.578,-7.31669,90.4982
2023-02-16 21:33:52:875,-1.19209,3.56334,-9.05507,-21.5411,-7.32363,90.4905
2023-02-16 21:33:52:885,-1.1597,3.5343,-9.03814,-21.4994,-7.32799,90.4825
2023-02-16 21:33:52:895,-1.15805,3.51024,-8.98804,-21.4609,-7.33208,90.4766
2023-02-16 21:33:52:905,-1.1647,3.48624,-8.9605,-21.4319,-7.34316,90.4762
2023-02-16 21:33:52:915,-1.17127,3.49206,-8.97507,-21.4052,-7.35171,90.4746
2023-02-16 21:33:52:925,-1.19388,3.49421,-8.99546,-21.3794,-7.35877,90.4727
2023-02-16 21:33:52:935,-1.21057,3.51272,-8.99709,-21.3613,-7.36764,90.4733
2023-02-16 21:33:52:945,-1.22884,3.53327,-9.003,-21.3442,-7.37264,90.4818
2023-02-16 21:33:52:955,-1.27114,3.53389,-9.0235,-21.3292,-7.37881,90.4874
2023-02-16 21:33:52:965,-1.29437,3.55495,-9.03635,-21.3104,-7.38361,90.494
2023-02-16 21:33:52:975,-1.33538,3.55612,-9.06774,-21.2906,-7.39318,90.4937
2023-02-16 21:33:52:985,-1.35468,3.55369,-9.10227,-21.2716,-7.4033,90.4919
2023-02-16 21:33:52:995,-1.3857,3.55077,-9.15573,-21.2497,-7.41735,90.4838
2023-02-16 21:33:53:5,-1.37265,3.55496,-9.22592,-21.2188,-7.4343,90.4704
2023-02-16 21:33:53:15,-1.35838,3.5428,-9.23332,-21.1858,-7.45142,90.4529
2023-02-16 21:33:53:25,-1.32624,3.50756,-9.20053,-21.1477,-7.47215,90.4319
2023-02-16 21:33:53:35,-1.30207,3.51327,-9.16875,-21.1113,-7.49767,90.4087
2023-02-16 21:33:53:45,-1.30194,3.49915,-9.09734,-21.0709,-7.52325,90.3859
2023-02-16 21:33:53:55,-1.33381,3.46905,-9.02756,-21.0293,-7.5467,90.3667
2023-02-16 21:33:53:65,-1.32682,3.45561,-8.98341,-20.9889,-7.5694,90.3527
2023-02-16 21:33:53:75,-1.31405,3.43487,-8.95974,-20.9494,-7.59038,90.3361
2023-02-16 21:33:53:85,-1.32004,3.42749,-8.94901,-20.9094,-7.60899,90.3214
2023-02-16 21:33:53:95,-1.31231,3.43443,-8.99676,-20.8692,-7.6235,90.3082
2023-02-16 21:33:53:105,-1.31891,3.44908,-9.03978,-20.8302,-7.63813,90.2969
2023-02-16 21:33:53:115,-1.3381,3.41879,-8.99602,-20.7841,-7.64226,90.2821
2023-02-16 21:33:53:125,-1.33384,3.39655,-8.92785,-20.7428,-7.64371,90.2659
2023-02-16 21:33:53:135,-1.29507,3.36907,-8.89623,-20.704,-7.63862,90.2492
2023-02-16 21:33:53:145,-1.24175,3.33644,-8.86879,-20.6718,-7.62641,90.2287
2023-02-16 21:33:53:155,-1.17494,3.34057,-8.84637,-20.6482,-7.60878,90.2127
2023-02-16 21:33:53:165,-1.13885,3.35468,-8.83789,-20.6337,-7.58909,90.1976
2023-02-16 21:33:53:175,-1.13968,3.3865,-8.87018,-20.6298,-7.56813,90.1823
2023-02-16 21:33:53:185,-1.13697,3.44428,-8.94565,-20.637,-7.55138,90.1727
2023-02-16 21:33:53:195,-1.12534,3.48796,-9.00012,-20.6463,-7.53582,90.1627
2023-02-16 21:33:53:205,-1.12914,3.50575,-9.03215,-20.6579,-7.5257,90.1523
2023-02-16 21:33:53:215,-1.16105,3.52332,-9.08011,-20.6719,-7.51773,90.1458
2023-02-16 21:33:53:225,-1.179,3.53571,-9.09313,-20.6801,-7.51421,90.1389
2023-02-16 21:33:53:235,-1.18696,3.53588,-9.07138,-20.6894,-7.51576,90.1292
2023-02-16 21:33:53:245,-1.21288,3.5056,-9.06706,-20.6971,-7.51812,90.121
2023-02-16 21:33:53:255,-1.24264,3.51041,-9.08544,-20.704,-7.52879,90.106
2023-02-16 21:33:53:266,-1.26009,3.52685,-9.12559,-20.7139,-7.54493,90.0907
2023-02-16 21:33:53:275,-1.30116,3.57187,-9.14893,-20.7233,-7.56222,90.0727
2023-02-16 21:33:53:285,-1.31561,3.60117,-9.15339,-20.7281,-7.58878,90.0454
2023-02-16 21:33:53:295,-1.30043,3.59809,-9.14817,-20.7265,-7.6142,90.0138
2023-02-16 21:33:53:305,-1.26821,3.5959,-9.13267,-20.7181,-7.6407,89.9782
2023-02-16 21:33:53:315,-1.23844,3.58028,-9.10045,-20.7081,-7.66697,89.9394
2023-02-16 21:33:53:325,-1.19673,3.55397,-9.11576,-20.6938,-7.69455,89.8963
2023-02-16 21:33:53:335,-1.15879,3.53387,-9.13602,-20.6744,-7.72142,89.8545
2023-02-16 21:33:53:345,-1.15007,3.50551,-9.13354,-20.6508,-7.74385,89.8149
2023-02-16 21:33:53:355,-1.1312,3.46379,-9.11802,-20.6251,-7.76923,89.7725
2023-02-16 21:33:53:365,-1.10873,3.42293,-9.12738,-20.5994,-7.79529,89.7364
2023-02-16 21:33:53:375,-1.09503,3.40586,-9.116,-20.5726,-7.82052,89.7067
2023-02-16 21:33:53:385,-1.11067,3.38453,-9.08481,-20.5463,-7.84622,89.6814
2023-02-16 21:33:53:395,-1.12197,3.37297,-9.0658,-20.5254,-7.86952,89.6648
2023-02-16 21:33:53:405,-1.12172,3.37274,-9.05355,-20.5037,-7.89017,89.6536
2023-02-16 21:33:53:415,-1.14302,3.35983,-9.05277,-20.4841,-7.90997,89.6465
2023-02-16 21:33:53:425,-1.14828,3.35141,-9.05235,-20.4664,-7.92769,89.6492
2023-02-16 21:33:53:435,-1.14146,3.34353,-9.0506,-20.4507,-7.94201,89.659
2023-02-16 21:33:53:445,-1.1502,3.33453,-9.04338,-20.4392,-7.95564,89.6756
2023-02-16 21:33:53:455,-1.16221,3.32618,-9.02227,-20.426,-7.96879,89.6998
2023-02-16 21:33:53:465,-1.18712,3.32006,-9.04642,-20.4163,-7.98176,89.7355
2023-02-16 21:33:53:475,-1.20935,3.31856,-9.05217,-20.4075,-7.99703,89.7789
2023-02-16 21:33:53:485,-1.27116,3.3126,-9.0515,-20.4008,-8.0103,89.8289
2023-02-16 21:33:53:495,-1.33064,3.30276,-9.06601,-20.3944,-8.02683,89.8858
2023-02-16 21:33:53:505,-1.40102,3.30473,-9.06577,-20.39,-8.0443,89.9448
2023-02-16 21:33:53:515,-1.46923,3.32793,-9.07897,-20.3845,-8.06154,89.9989
2023-02-16 21:33:53:525,-1.49117,3.35005,-9.06871,-20.3802,-8.07706,90.0517
2023-02-16 21:33:53:535,-1.51689,3.34595,-9.04854,-20.3809,-8.09965,90.101
2023-02-16 21:33:53:545,-1.57284,3.38282,-9.06664,-20.3827,-8.11973,90.1486
2023-02-16 21:33:53:555,-1.61717,3.42988,-9.09522,-20.3872,-8.13782,90.1868
2023-02-16 21:33:53:565,-1.61743,3.44251,-9.1202,-20.386,-8.15401,90.2191
2023-02-16 21:33:53:575,-1.57256,3.4301,-9.12077,-20.3847,-8.17236,90.2431
2023-02-16 21:33:53:585,-1.55887,3.42335,-9.09207,-20.3757,-8.18861,90.2638
2023-02-16 21:33:53:595,-1.58818,3.42857,-9.07969,-20.3684,-8.20428,90.2832
2023-02-16 21:33:53:605,-1.58803,3.41411,-9.0832,-20.3578,-8.21941,90.2923
2023-02-16 21:33:53:615,-1.55668,3.40604,-9.08064,-20.3475,-8.23249,90.2996
2023-02-16 21:33:53:625,-1.55688,3.40109,-9.06917,-20.3338,-8.23934,90.3014
2023-02-16 21:33:53:635,-1.52772,3.38348,-9.06753,-20.3162,-8.24164,90.3002
2023-02-16 21:33:53:645,-1.47608,3.38745,-9.08504,-20.3072,-8.23986,90.2961
2023-02-16 21:33:53:655,-1.45881,3.37961,-9.08323,-20.2893,-8.23471,90.2858
2023-02-16 21:33:53:665,-1.44322,3.34896,-9.06807,-20.2748,-8.23128,90.2765
2023-02-16 21:33:53:675,-1.43095,3.33442,-9.06228,-20.2569,-8.23032,90.2647
2023-02-16 21:33:53:685,-1.42477,3.32092,-9.06569,-20.2435,-8.22864,90.254
2023-02-16 21:33:53:695,-1.42358,3.30488,-9.03575,-20.2286,-8.22659,90.2429
2023-02-16 21:33:53:705,-1.40572,3.29351,-9.02411,-20.2152,-8.22551,90.2302
2023-02-16 21:33:53:715,-1.38553,3.29303,-9.05654,-20.2047,-8.22398,90.2166
2023-02-16 21:33:53:726,-1.37214,3.30565,-9.09505,-20.1955,-8.22536,90.208
2023-02-16 21:33:53:735,-1.35049,3.30251,-9.10719,-20.1853,-8.22582,90.1999
2023-02-16 21:33:53:745,-1.35425,3.30512,-9.0915,-20.1804,-8.23124,90.1946
2023-02-16 21:33:53:755,-1.36858,3.31648,-9.08337,-20.1743,-8.23772,90.1953
2023-02-16 21:33:53:765,-1.39611,3.31249,-9.05775,-20.1702,-8.24172,90.1951
2023-02-16 21:33:53:775,-1.41158,3.32077,-9.05405,-20.168,-8.24673,90.1953
2023-02-16 21:33:53:785,-1.4085,3.31951,-9.05254,-20.1633,-8.24455,90.194
2023-02-16 21:33:53:795,-1.38211,3.31205,-9.0234,-20.1624,-8.23965,90.196
2023-02-16 21:33:53:805,-1.36294,3.31031,-9.02099,-20.1651,-8.23284,90.2039
2023-02-16 21:33:53:815,-1.33675,3.32142,-9.03763,-20.1732,-8.22271,90.2119
2023-02-16 21:33:53:826,-1.32579,3.33564,-9.05518,-20.1849,-8.21637,90.2166
2023-02-16 21:33:53:835,-1.35001,3.34657,-9.0808,-20.1976,-8.2107,90.2321
2023-02-16 21:33:53:845,-1.39511,3.37656,-9.11902,-20.2095,-8.20821,90.2474
2023-02-16 21:33:53:855,-1.44146,3.38984,-9.1514,-20.2205,-8.20688,90.2633
2023-02-16 21:33:53:865,-1.47257,3.38097,-9.14567,-20.2245,-8.20551,90.2739
2023-02-16 21:33:53:875,-1.49642,3.3627,-9.10207,-20.2256,-8.19972,90.2817
2023-02-16 21:33:53:885,-1.52381,3.35202,-9.04996,-20.2245,-8.1978,90.2883
2023-02-16 21:33:53:895,-1.51781,3.32202,-8.97115,-20.2271,-8.19237,90.2864
2023-02-16 21:33:53:905,-1.47983,3.29312,-8.90518,-20.2349,-8.18734,90.2822
2023-02-16 21:33:53:915,-1.41252,3.29394,-8.90637,-20.2503,-8.1831,90.2757
2023-02-16 21:33:53:925,-1.39166,3.31745,-8.9571,-20.2722,-8.17838,90.2688
2023-02-16 21:33:53:935,-1.38569,3.35987,-9.02863,-20.2989,-8.17858,90.2605
2023-02-16 21:33:53:945,-1.38813,3.40394,-9.09367,-20.3285,-8.17321,90.2523
2023-02-16 21:33:53:955,-1.41213,3.44783,-9.14931,-20.3503,-8.16488,90.2424
2023-02-16 21:33:53:965,-1.40723,3.46735,-9.16529,-20.3676,-8.14801,90.2327
2023-02-16 21:33:53:975,-1.37434,3.47003,-9.13181,-20.3791,-8.12702,90.2154
2023-02-16 21:33:53:985,-1.35376,3.45053,-9.07268,-20.3855,-8.09822,90.1983
2023-02-16 21:33:53:995,-1.31038,3.44212,-9.03226,-20.3913,-8.07097,90.1808
2023-02-16 21:33:54:5,-1.26607,3.42763,-9.03331,-20.3992,-8.04762,90.1642
2023-02-16 21:33:54:15,-1.24523,3.44627,-9.07102,-20.4129,-8.02404,90.1505
2023-02-16 21:33:54:25,-1.22616,3.47011,-9.16037,-20.4292,-8.00477,90.1353
2023-02-16 21:33:54:35,-1.20016,3.47997,-9.22546,-20.438,-7.99312,90.1222
2023-02-16 21:33:54:45,-1.16985,3.47173,-9.23385,-20.4465,-7.98824,90.1081
2023-02-16 21:33:54:55,-1.18548,3.45676,-9.22947,-20.4531,-7.99252,90.1033
2023-02-16 21:33:54:65,-1.23021,3.46539,-9.22239,-20.4547,-8.00119,90.0997
2023-02-16 21:33:54:75,-1.28312,3.4599,-9.19219,-20.4532,-8.0121,90.0997
2023-02-16 21:33:54:85,-1.32996,3.4338,-9.15424,-20.4449,-8.01986,90.0992
2023-02-16 21:33:54:95,-1.33496,3.39798,-9.13144,-20.4322,-8.02403,90.0965
2023-02-16 21:33:54:105,-1.32752,3.36228,-9.14531,-20.4167,-8.02925,90.0911
2023-02-16 21:33:54:115,-1.34051,3.3225,-9.1513,-20.3982,-8.03338,90.0846
2023-02-16 21:33:54:125,-1.35286,3.31503,-9.15286,-20.3736,-8.03705,90.0751
2023-02-16 21:33:54:135,-1.35407,3.28873,-9.15336,-20.3464,-8.04419,90.0637
2023-02-16 21:33:54:145,-1.35017,3.24965,-9.13697,-20.3146,-8.0507,90.0471
2023-02-16 21:33:54:155,-1.35331,3.22303,-9.10557,-20.2803,-8.05888,90.025
2023-02-16 21:33:54:165,-1.34487,3.19304,-9.05543,-20.2441,-8.06585,90.0006
2023-02-16 21:33:54:175,-1.31104,3.1678,-9.02612,-20.2122,-8.07391,89.9728
2023-02-16 21:33:54:185,-1.2715,3.16296,-9.01181,-20.1844,-8.07744,89.9456
2023-02-16 21:33:54:195,-1.21855,3.16332,-8.97804,-20.1616,-8.07686,89.9148
2023-02-16 21:33:54:205,-1.15615,3.14833,-8.9597,-20.1521,-8.0726,89.8824
2023-02-16 21:33:54:215,-1.08832,3.1538,-8.95175,-20.1494,-8.06831,89.8577
2023-02-16 21:33:54:225,-1.0498,3.17584,-8.94424,-20.1599,-8.06582,89.8387
2023-02-16 21:33:54:235,-1.02937,3.21408,-8.96663,-20.1813,-8.06184,89.8349
2023-02-16 21:33:54:245,-1.05312,3.30889,-9.03073,-20.2139,-8.06196,89.8431
2023-02-16 21:33:54:255,-1.12302,3.39474,-9.10145,-20.2499,-8.06027,89.8606
2023-02-16 21:33:54:265,-1.18755,3.44516,-9.13933,-20.2813,-8.06084,89.8851
2023-02-16 21:33:54:275,-1.25701,3.48638,-9.1445,-20.308,-8.06505,89.9219
2023-02-16 21:33:54:285,-1.3386,3.50792,-9.15357,-20.3295,-8.06822,89.9565
2023-02-16 21:33:54:295,-1.40815,3.51275,-9.16796,-20.3381,-8.07039,89.9887
2023-02-16 21:33:54:305,-1.44941,3.50192,-9.15661,-20.3405,-8.07669,90.0169
2023-02-16 21:33:54:315,-1.43623,3.49191,-9.16506,-20.3416,-8.08387,90.0409
2023-02-16 21:33:54:325,-1.4542,3.47573,-9.15213,-20.3376,-8.09601,90.0627
2023-02-16 21:33:54:335,-1.49509,3.46674,-9.14135,-20.3295,-8.10976,90.076
2023-02-16 21:33:54:345,-1.50109,3.47225,-9.14326,-20.323,-8.12814,90.0818
2023-02-16 21:33:54:355,-1.48006,3.47261,-9.14941,-20.3125,-8.14542,90.0849
2023-02-16 21:33:54:365,-1.49422,3.46616,-9.13283,-20.2979,-8.16124,90.0864
2023-02-16 21:33:54:375,-1.49035,3.45102,-9.11153,-20.2824,-8.17437,90.0818
2023-02-16 21:33:54:385,-1.45991,3.43131,-9.09073,-20.2615,-8.18606,90.068
2023-02-16 21:33:54:395,-1.42678,3.40962,-9.07636,-20.2387,-8.19219,90.0555
2023-02-16 21:33:54:405,-1.41567,3.39172,-9.09116,-20.2157,-8.19571,90.0449
2023-02-16 21:33:54:415,-1.37163,3.3909,-9.10606,-20.1918,-8.19653,90.0298
2023-02-16 21:33:54:425,-1.32684,3.38567,-9.11153,-20.1682,-8.19363,90.0157
2023-02-16 21:33:54:435,-1.2901,3.36316,-9.11123,-20.1418,-8.19385,90.0003
2023-02-16 21:33:54:445,-1.25912,3.35254,-9.10728,-20.1181,-8.19365,89.9908
2023-02-16 21:33:54:455,-1.26631,3.34134,-9.09847,-20.0934,-8.19411,89.9846
2023-02-16 21:33:54:465,-1.27474,3.33483,-9.08015,-20.0683,-8.19713,89.9812
2023-02-16 21:33:54:475,-1.28855,3.34104,-9.08336,-20.0485,-8.19904,89.9827
2023-02-16 21:33:54:486,-1.30542,3.34685,-9.10935,-20.0292,-8.20553,89.9852
2023-02-16 21:33:54:495,-1.33152,3.33874,-9.09986,-20.0059,-8.21559,89.9895
2023-02-16 21:33:54:505,-1.36211,3.31645,-9.07784,-19.9837,-8.22651,89.9963
2023-02-16 21:33:54:515,-1.38794,3.29578,-9.05352,-19.9624,-8.24088,90.0015
2023-02-16 21:33:54:525,-1.39477,3.29425,-9.05353,-19.9427,-8.25661,90.0081
2023-02-16 21:33:54:535,-1.39946,3.28964,-9.04786,-19.9264,-8.2732,90.0144
2023-02-16 21:33:54:546,-1.40259,3.27609,-9.03761,-19.9124,-8.29207,90.0208
2023-02-16 21:33:54:555,-1.40352,3.27863,-9.04078,-19.9005,-8.30725,90.0309
2023-02-16 21:33:54:565,-1.40376,3.28645,-9.05575,-19.8926,-8.32304,90.0401
2023-02-16 21:33:54:575,-1.37636,3.28893,-9.06903,-19.8863,-8.33825,90.0537
2023-02-16 21:33:54:585,-1.37172,3.28931,-9.06097,-19.8794,-8.34855,90.0681
2023-02-16 21:33:54:595,-1.38422,3.29824,-9.03564,-19.8746,-8.36321,90.0841
2023-02-16 21:33:54:605,-1.4058,3.29789,-9.02868,-19.8719,-8.37814,90.1066
2023-02-16 21:33:54:615,-1.42754,3.30035,-9.04007,-19.8712,-8.38797,90.1304
2023-02-16 21:33:54:625,-1.45194,3.30967,-9.04716,-19.8723,-8.39991,90.1579
2023-02-16 21:33:54:635,-1.46533,3.29881,-9.02937,-19.8764,-8.41398,90.1875
2023-02-16 21:33:54:645,-1.46112,3.30515,-8.99933,-19.8829,-8.42614,90.2165
2023-02-16 21:33:54:655,-1.50316,3.29071,-9.01837,-19.8936,-8.43927,90.2501
2023-02-16 21:33:54:665,-1.52887,3.29562,-9.0764,-19.902,-8.44904,90.2851
2023-02-16 21:33:54:675,-1.55886,3.31438,-9.11481,-19.9127,-8.457,90.3173
2023-02-16 21:33:54:685,-1.58782,3.3179,-9.15601,-19.9189,-8.46045,90.3448
2023-02-16 21:33:54:695,-1.62119,3.31626,-9.21043,-19.9231,-8.46259,90.3707
2023-02-16 21:33:54:705,-1.63217,3.32863,-9.22807,-19.9177,-8.45726,90.3927
2023-02-16 21:33:54:715,-1.60671,3.31054,-9.20527,-19.9078,-8.45201,90.4037
2023-02-16 21:33:54:725,-1.58553,3.29495,-9.15932,-19.8919,-8.44644,90.4087
2023-02-16 21:33:54:735,-1.57162,3.2823,-9.1374,-19.8777,-8.43607,90.4063
2023-02-16 21:33:54:745,-1.56043,3.29666,-9.15756,-19.8593,-8.42682,90.401
2023-02-16 21:33:54:755,-1.53447,3.3077,-9.17225,-19.8457,-8.41633,90.387
2023-02-16 21:33:54:765,-1.47842,3.29474,-9.16206,-19.8297,-8.40632,90.3636
2023-02-16 21:33:54:775,-1.44593,3.27169,-9.11651,-19.8114,-8.40074,90.3399
2023-02-16 21:33:54:785,-1.43017,3.26711,-9.09831,-19.7972,-8.39494,90.312
2023-02-16 21:33:54:795,-1.41341,3.27901,-9.10528,-19.7838,-8.38676,90.2785
2023-02-16 21:33:54:805,-1.38574,3.29669,-9.09138,-19.7706,-8.38151,90.2464
2023-02-16 21:33:54:815,-1.35398,3.29566,-9.0706,-19.7569,-8.37842,90.2087
2023-02-16 21:33:54:825,-1.31859,3.2969,-9.05717,-19.7417,-8.37102,90.1725
2023-02-16 21:33:54:835,-1.28985,3.29418,-9.08895,-19.7239,-8.36146,90.1401
2023-02-16 21:33:54:845,-1.26734,3.28627,-9.10797,-19.7043,-8.34883,90.1087
2023-02-16 21:33:54:855,-1.24699,3.25069,-9.10654,-19.6836,-8.33974,90.0854
2023-02-16 21:33:54:865,-1.2308,3.22992,-9.09866,-19.6658,-8.33003,90.0683
2023-02-16 21:33:54:875,-1.22665,3.22569,-9.10672,-19.6451,-8.31702,90.0555
2023-02-16 21:33:54:885,-1.23189,3.22446,-9.14196,-19.6298,-8.30839,90.0491
2023-02-16 21:33:54:895,-1.26778,3.24263,-9.17316,-19.6107,-8.29765,90.0483
2023-02-16 21:33:54:905,-1.30465,3.24894,-9.19472,-19.5915,-8.2893,90.0528
2023-02-16 21:33:54:915,-1.32848,3.24239,-9.19144,-19.5721,-8.28434,90.06
2023-02-16 21:33:54:925,-1.34225,3.23679,-9.17764,-19.5538,-8.2739,90.0702
2023-02-16 21:33:54:935,-1.36264,3.21465,-9.16854,-19.5366,-8.26512,90.0871
2023-02-16 21:33:54:945,-1.3758,3.22814,-9.15354,-19.5183,-8.25798,90.1076
2023-02-16 21:33:54:955,-1.38049,3.22378,-9.12766,-19.4986,-8.25245,90.1272
2023-02-16 21:33:54:965,-1.41375,3.23131,-9.12646,-19.4771,-8.25299,90.1512
2023-02-16 21:33:54:975,-1.45459,3.24751,-9.13286,-19.457,-8.24839,90.1742
2023-02-16 21:33:54:985,-1.49096,3.24619,-9.12581,-19.4402,-8.2434,90.1961
2023-02-16 21:33:54:995,-1.51707,3.23363,-9.10998,-19.4188,-8.24313,90.2161
2023-02-16 21:33:55:5,-1.54649,3.21614,-9.06778,-19.3989,-8.24204,90.2311
2023-02-16 21:33:55:15,-1.60538,3.21547,-9.05946,-19.3842,-8.24096,90.2396
2023-02-16 21:33:55:25,-1.64703,3.21369,-9.03816,-19.3649,-8.23584,90.2401
2023-02-16 21:33:55:35,-1.65304,3.19129,-9.01047,-19.3481,-8.22775,90.235
2023-02-16 21:33:55:45,-1.61927,3.16621,-8.98984,-19.34,-8.22174,90.2136
2023-02-16 21:33:55:55,-1.5709,3.16594,-8.99627,-19.3379,-8.22029,90.1814
2023-02-16 21:33:55:65,-1.54756,3.18274,-9.01234,-19.3411,-8.21668,90.1369
2023-02-16 21:33:55:75,-1.52567,3.1989,-9.01873,-19.3467,-8.20787,90.084
2023-02-16 21:33:55:85,-1.50955,3.21031,-9.0369,-19.3583,-8.19772,90.0255
2023-02-16 21:33:55:95,-1.48772,3.23052,-9.03739,-19.3711,-8.18062,89.9588
2023-02-16 21:33:55:105,-1.45838,3.25657,-9.07094,-19.3852,-8.16271,89.8824
2023-02-16 21:33:55:115,-1.41714,3.27445,-9.09288,-19.3987,-8.14165,89.8049
2023-02-16 21:33:55:125,-1.35933,3.27253,-9.09631,-19.4137,-8.11581,89.7192
2023-02-16 21:33:55:135,-1.26283,3.29405,-9.14474,-19.4263,-8.09033,89.6308
2023-02-16 21:33:55:145,-1.18562,3.29939,-9.18423,-19.4356,-8.06552,89.5414
2023-02-16 21:33:55:155,-1.15162,3.30447,-9.18249,-19.4452,-8.04523,89.4555
2023-02-16 21:33:55:165,-1.1437,3.29829,-9.18279,-19.449,-8.03041,89.3759
2023-02-16 21:33:55:175,-1.13308,3.29894,-9.19321,-19.4509,-8.01548,89.3008
2023-02-16 21:33:55:185,-1.15119,3.26882,-9.20943,-19.4515,-8.00751,89.232
2023-02-16 21:33:55:195,-1.16788,3.26981,-9.22525,-19.4492,-8.00101,89.1651
2023-02-16 21:33:55:205,-1.15485,3.27053,-9.25769,-19.4448,-7.99739,89.1047
2023-02-16 21:33:55:215,-1.16291,3.24172,-9.27231,-19.4342,-7.99387,89.0537
2023-02-16 21:33:55:225,-1.19036,3.21806,-9.21972,-19.4195,-7.99508,89.0046
2023-02-16 21:33:55:235,-1.21767,3.17623,-9.17386,-19.4053,-7.99396,88.9669
2023-02-16 21:33:55:245,-1.22915,3.16868,-9.15431,-19.3926,-7.99254,88.9393
2023-02-16 21:33:55:255,-1.25439,3.14506,-9.12909,-19.3786,-7.99143,88.9145
2023-02-16 21:33:55:265,-1.25374,3.12346,-9.10286,-19.3712,-7.98321,88.8951
2023-02-16 21:33:55:275,-1.23951,3.10733,-9.09465,-19.3675,-7.97119,88.8822
2023-02-16 21:33:55:285,-1.23177,3.11072,-9.09125,-19.3653,-7.95336,88.8757
2023-02-16 21:33:55:295,-1.22788,3.11037,-9.08667,-19.3703,-7.93592,88.8761
2023-02-16 21:33:55:305,-1.21445,3.12925,-9.08123,-19.3797,-7.91165,88.878
2023-02-16 21:33:55:315,-1.23788,3.15228,-9.10934,-19.393,-7.88858,88.8879
2023-02-16 21:33:55:325,-1.26365,3.1861,-9.1288,-19.4086,-7.87067,88.8951
2023-02-16 21:33:55:335,-1.27359,3.21414,-9.0894,-19.426,-7.85791,88.9051
2023-02-16 21:33:55:345,-1.23356,3.21381,-9.08283,-19.4457,-7.8448,88.9111
2023-02-16 21:33:55:355,-1.22891,3.24404,-9.11314,-19.4689,-7.83671,88.9233
2023-02-16 21:33:55:365,-1.2883,3.27076,-9.12815,-19.493,-7.83346,88.9339
2023-02-16 21:33:55:375,-1.31964,3.29334,-9.16098,-19.5146,-7.83443,88.9456
2023-02-16 21:33:55:385,-1.31326,3.33198,-9.23354,-19.5315,-7.83763,88.9524
2023-02-16 21:33:55:395,-1.33632,3.372,-9.25103,-19.5444,-7.84372,88.9617
2023-02-16 21:33:55:405,-1.34802,3.36672,-9.2383,-19.5494,-7.85253,88.9682
2023-02-16 21:33:55:415,-1.36333,3.34088,-9.19866,-19.5483,-7.86434,88.9729
2023-02-16 21:33:55:425,-1.35026,3.31424,-9.16141,-19.5473,-7.8726,88.9779
2023-02-16 21:33:55:435,-1.34007,3.30415,-9.14061,-19.5441,-7.87889,88.9841
2023-02-16 21:33:55:445,-1.34716,3.2718,-9.10433,-19.5387,-7.88507,88.9905
2023-02-16 21:33:55:455,-1.35158,3.23116,-9.06083,-19.5327,-7.88661,88.9922
2023-02-16 21:33:55:465,-1.32978,3.22352,-9.04462,-19.5275,-7.88668,88.9925
2023-02-16 21:33:55:475,-1.32449,3.22156,-9.05976,-19.5258,-7.8869,88.9904
2023-02-16 21:33:55:485,-1.32983,3.2136,-9.08231,-19.5267,-7.88397,88.9922
2023-02-16 21:33:55:495,-1.32101,3.22817,-9.11778,-19.5294,-7.87996,88.9926
2023-02-16 21:33:55:505,-1.28918,3.26565,-9.17527,-19.5339,-7.8741,88.9897
2023-02-16 21:33:55:515,-1.24741,3.26795,-9.19203,-19.53,-7.8706,88.9849
2023-02-16 21:33:55:525,-1.23594,3.24623,-9.1819,-19.5267,-7.87401,88.982
2023-02-16 21:33:55:535,-1.23888,3.25958,-9.16554,-19.5253,-7.88302,88.9842
2023-02-16 21:33:55:545,-1.23883,3.29078,-9.16472,-19.5265,-7.88925,88.993
2023-02-16 21:33:55:555,-1.24641,3.28019,-9.14414,-19.5276,-7.89607,89.0067
2023-02-16 21:33:55:565,-1.27023,3.25486,-9.10083,-19.5286,-7.89795,89.0187
2023-02-16 21:33:55:575,-1.30122,3.26417,-9.11881,-19.53,-7.90257,89.034
2023-02-16 21:33:55:585,-1.3165,3.30641,-9.15977,-19.5275,-7.90797,89.0525
2023-02-16 21:33:55:595,-1.34482,3.29657,-9.12461,-19.5222,-7.91644,89.0724
2023-02-16 21:33:55:606,-1.34773,3.24535,-9.07133,-19.5172,-7.91747,89.0888
2023-02-16 21:33:55:615,-1.34163,3.24453,-9.07447,-19.5119,-7.91727,89.1044
2023-02-16 21:33:55:625,-1.34271,3.26788,-9.10274,-19.5091,-7.92074,89.1173
2023-02-16 21:33:55:635,-1.36025,3.25585,-9.10249,-19.5016,-7.92158,89.1281
2023-02-16 21:33:55:645,-1.3476,3.23417,-9.09668,-19.4947,-7.91819,89.1383
2023-02-16 21:33:55:655,-1.33926,3.22682,-9.10532,-19.4915,-7.91475,89.1473
2023-02-16 21:33:55:665,-1.35026,3.23496,-9.10834,-19.4875,-7.91369,89.1545
2023-02-16 21:33:55:675,-1.32278,3.23399,-9.11203,-19.4826,-7.90775,89.1587
2023-02-16 21:33:55:685,-1.30093,3.24002,-9.11082,-19.4866,-7.90382,89.1624
2023-02-16 21:33:55:695,-1.29607,3.25796,-9.13369,-19.489,-7.90228,89.1679
2023-02-16 21:33:55:705,-1.28007,3.26674,-9.12862,-19.4933,-7.90384,89.1712
2023-02-16 21:33:55:715,-1.27392,3.26864,-9.13251,-19.5019,-7.90411,89.1753
2023-02-16 21:33:55:725,-1.27277,3.27655,-9.18711,-19.5133,-7.90512,89.1848
2023-02-16 21:33:55:735,-1.26351,3.30308,-9.2305,-19.5183,-7.90464,89.1936
2023-02-16 21:33:55:745,-1.23673,3.31277,-9.25526,-19.5182,-7.9019,89.1997
2023-02-16 21:33:55:755,-1.21084,3.29769,-9.23566,-19.5129,-7.89931,89.2148
2023-02-16 21:33:55:765,-1.22499,3.24593,-9.17917,-19.5032,-7.90162,89.2329
2023-02-16 21:33:55:775,-1.24258,3.22362,-9.12928,-19.494,-7.89952,89.2537
2023-02-16 21:33:55:785,-1.28163,3.23323,-9.14938,-19.4869,-7.90356,89.2795
2023-02-16 21:33:55:795,-1.32521,3.23136,-9.18235,-19.4753,-7.90765,89.3055
2023-02-16 21:33:55:805,-1.36886,3.23387,-9.15553,-19.464,-7.91071,89.3283
2023-02-16 21:33:55:815,-1.3878,3.219,-9.1288,-19.4532,-7.91183,89.3546
2023-02-16 21:33:55:825,-1.41034,3.21388,-9.14689,-19.442,-7.91388,89.3762
2023-02-16 21:33:55:835,-1.4179,3.22539,-9.18086,-19.4294,-7.91168,89.3923
2023-02-16 21:33:55:845,-1.42615,3.21615,-9.15217,-19.4151,-7.9112,89.4067
2023-02-16 21:33:55:855,-1.41035,3.19411,-9.12179,-19.4072,-7.90894,89.4174
2023-02-16 21:33:55:865,-1.406,3.18943,-9.13642,-19.3951,-7.90701,89.4256
2023-02-16 21:33:55:875,-1.39463,3.20116,-9.13311,-19.3842,-7.90368,89.4317
2023-02-16 21:33:55:885,-1.37619,3.19887,-9.10951,-19.3738,-7.89829,89.4344
2023-02-16 21:33:55:895,-1.36794,3.18478,-9.10628,-19.3663,-7.89663,89.435
2023-02-16 21:33:55:905,-1.34776,3.18351,-9.10754,-19.361,-7.89511,89.4386
2023-02-16 21:33:55:915,-1.33763,3.19462,-9.13205,-19.3575,-7.89187,89.4402
2023-02-16 21:33:55:925,-1.32302,3.203,-9.1384,-19.3521,-7.89006,89.4391
2023-02-16 21:33:55:935,-1.31842,3.19125,-9.10269,-19.3461,-7.88811,89.4405
2023-02-16 21:33:55:945,-1.30911,3.20366,-9.09465,-19.3447,-7.88561,89.4408
2023-02-16 21:33:55:955,-1.3256,3.22743,-9.13096,-19.3472,-7.87911,89.4452
2023-02-16 21:33:55:965,-1.363,3.24886,-9.15575,-19.3455,-7.86908,89.4507
2023-02-16 21:33:55:975,-1.36506,3.25558,-9.17881,-19.347,-7.85607,89.4561
2023-02-16 21:33:55:985,-1.34827,3.2758,-9.19783,-19.3441,-7.84246,89.4595
2023-02-16 21:33:55:995,-1.34895,3.26505,-9.17838,-19.3371,-7.82441,89.4622
2023-02-16 21:33:56:5,-1.35104,3.25053,-9.15791,-19.3333,-7.80506,89.4662
2023-02-16 21:33:56:15,-1.33361,3.23793,-9.16055,-19.3237,-7.78363,89.4697
2023-02-16 21:33:56:25,-1.33431,3.23125,-9.16432,-19.3132,-7.76215,89.4674
2023-02-16 21:33:56:35,-1.32909,3.22134,-9.14047,-19.3008,-7.74214,89.4652
2023-02-16 21:33:56:45,-1.32747,3.2216,-9.12717,-19.289,-7.72322,89.4606
2023-02-16 21:33:56:55,-1.3355,3.20332,-9.09656,-19.2795,-7.70712,89.4529
2023-02-16 21:33:56:65,-1.31256,3.18643,-9.04251,-19.2683,-7.69145,89.4423
2023-02-16 21:33:56:75,-1.29282,3.19672,-9.03992,-19.2643,-7.67922,89.4314
2023-02-16 21:33:56:85,-1.27573,3.18845,-9.03178,-19.2621,-7.66095,89.4172
2023-02-16 21:33:56:95,-1.25742,3.16442,-8.98868,-19.2654,-7.6408,89.4003
2023-02-16 21:33:56:106,-1.21531,3.13932,-8.9825,-19.2762,-7.61469,89.3831
2023-02-16 21:33:56:115,-1.16963,3.17382,-9.07404,-19.3005,-7.58862,89.3672
2023-02-16 21:33:56:125,-1.16963,3.21258,-9.16221,-19.3217,-7.5632,89.3555
2023-02-16 21:33:56:135,-1.16947,3.24209,-9.20269,-19.3405,-7.53852,89.3426
2023-02-16 21:33:56:145,-1.16197,3.27163,-9.22963,-19.355,-7.51765,89.3353
2023-02-16 21:33:56:155,-1.17624,3.30691,-9.2484,-19.3671,-7.49542,89.3296
2023-02-16 21:33:56:165,-1.21113,3.31467,-9.20676,-19.374,-7.46945,89.3222
2023-02-16 21:33:56:175,-1.23017,3.29439,-9.14405,-19.3787,-7.44519,89.3168
2023-02-16 21:33:56:185,-1.22105,3.30846,-9.14982,-19.3825,-7.4204,89.3089
2023-02-16 21:33:56:195,-1.22765,3.33425,-9.17285,-19.389,-7.39629,89.3015
2023-02-16 21:33:56:205,-1.23589,3.32026,-9.15687,-19.3881,-7.37531,89.2941
2023-02-16 21:33:56:215,-1.21846,3.31249,-9.1773,-19.3844,-7.35676,89.2796
2023-02-16 21:33:56:225,-1.21863,3.34247,-9.2621,-19.377,-7.34012,89.2612
2023-02-16 21:33:56:235,-1.19788,3.37114,-9.33801,-19.3665,-7.32046,89.2387
2023-02-16 21:33:56:245,-1.14048,3.34817,-9.32713,-19.3452,-7.3102,89.2142
2023-02-16 21:33:56:255,-1.0862,3.31164,-9.31583,-19.32,-7.30207,89.1861
2023-02-16 21:33:56:265,-1.06862,3.29153,-9.3048,-19.2937,-7.30276,89.165
2023-02-16 21:33:56:275,-1.0997,3.28616,-9.29202,-19.2629,-7.30867,89.1497
2023-02-16 21:33:56:285,-1.12508,3.26821,-9.27917,-19.2345,-7.31454,89.1355
2023-02-16 21:33:56:295,-1.14127,3.26222,-9.25527,-19.2039,-7.32352,89.1256
2023-02-16 21:33:56:305,-1.15704,3.25632,-9.23901,-19.1714,-7.33347,89.1193
2023-02-16 21:33:56:315,-1.1764,3.24554,-9.22253,-19.1359,-7.34361,89.1146
2023-02-16 21:33:56:325,-1.19784,3.23298,-9.21826,-19.0977,-7.35363,89.1148
2023-02-16 21:33:56:335,-1.22882,3.20811,-9.18706,-19.0552,-7.36487,89.1148
2023-02-16 21:33:56:345,-1.23231,3.17292,-9.14553,-19.0123,-7.37637,89.1186
2023-02-16 21:33:56:355,-1.25058,3.13266,-9.1354,-18.9685,-7.38707,89.1206
2023-02-16 21:33:56:365,-1.28782,3.11747,-9.12738,-18.9208,-7.3927,89.1221
2023-02-16 21:33:56:375,-1.29821,3.08857,-9.13266,-18.872,-7.39869,89.1245
2023-02-16 21:33:56:385,-1.29918,3.06937,-9.13839,-18.824,-7.40435,89.129
2023-02-16 21:33:56:395,-1.31619,3.04825,-9.16181,-18.7778,-7.40789,89.132
2023-02-16 21:33:56:406,-1.31455,3.03794,-9.19878,-18.7357,-7.41187,89.1319
2023-02-16 21:33:56:415,-1.31312,3.03123,-9.20744,-18.6954,-7.41462,89.1326
2023-02-16 21:33:56:426,-1.32369,3.03844,-9.2064,-18.6556,-7.41486,89.1325
2023-02-16 21:33:56:435,-1.30387,3.03981,-9.15556,-18.6183,-7.41251,89.1323
2023-02-16 21:33:56:445,-1.27528,3.00759,-9.14506,-18.5854,-7.41112,89.1356
2023-02-16 21:33:56:455,-1.27794,3.0445,-9.20309,-18.5518,-7.40332,89.1337
2023-02-16 21:33:56:465,-1.29475,3.05489,-9.21554,-18.5168,-7.39914,89.1327
2023-02-16 21:33:56:475,-1.27464,3.03491,-9.2094,-18.4821,-7.38812,89.1303
2023-02-16 21:33:56:485,-1.25343,3.00594,-9.2154,-18.4481,-7.37762,89.127
2023-02-16 21:33:56:495,-1.24653,2.99058,-9.23122,-18.4145,-7.36865,89.1236
2023-02-16 21:33:56:505,-1.25845,2.99048,-9.23402,-18.3757,-7.3633,89.1226
2023-02-16 21:33:56:515,-1.28874,2.97453,-9.19987,-18.3411,-7.35326,89.1194
2023-02-16 21:33:56:526,-1.27466,2.94011,-9.15253,-18.3103,-7.34252,89.1144
2023-02-16 21:33:56:535,-1.24477,2.93559,-9.15866,-18.2812,-7.33118,89.1072
2023-02-16 21:33:56:545,-1.23127,2.95993,-9.17328,-18.2584,-7.31593,89.0985
2023-02-16 21:33:56:555,-1.24014,2.96323,-9.14107,-18.2366,-7.30267,89.0918
2023-02-16 21:33:56:566,-1.22551,2.98122,-9.12638,-18.2228,-7.28914,89.0807
2023-02-16 21:33:56:575,-1.19954,3.0072,-9.15868,-18.208,-7.27406,89.0669
2023-02-16 21:33:56:585,-1.20425,3.02659,-9.14849,-18.2004,-7.25945,89.0556
2023-02-16 21:33:56:595,-1.20484,3.03456,-9.15616,-18.1929,-7.24728,89.0422
2023-02-16 21:33:56:605,-1.18726,3.03669,-9.16001,-18.1868,-7.2343,89.0304
2023-02-16 21:33:56:615,-1.18291,3.0288,-9.15441,-18.1835,-7.22289,89.0153
2023-02-16 21:33:56:625,-1.17894,3.04899,-9.17793,-18.1807,-7.21396,89.0018
2023-02-16 21:33:56:635,-1.17747,3.06941,-9.21107,-18.1808,-7.2075,88.9846
2023-02-16 21:33:56:645,-1.17389,3.0805,-9.24014,-18.1814,-7.19769,88.9734
2023-02-16 21:33:56:655,-1.16247,3.09768,-9.24749,-18.1798,-7.1935,88.9618
2023-02-16 21:33:56:665,-1.1637,3.08579,-9.25075,-18.1789,-7.18756,88.9484
2023-02-16 21:33:56:676,-1.15476,3.083,-9.23882,-18.175,-7.18274,88.9371
2023-02-16 21:33:56:685,-1.13743,3.08327,-9.24622,-18.1681,-7.17496,88.9261
2023-02-16 21:33:56:695,-1.14077,3.0658,-9.25543,-18.1656,-7.16691,88.9213
2023-02-16 21:33:56:705,-1.16526,3.07622,-9.29589,-18.1587,-7.16602,88.9158
2023-02-16 21:33:56:715,-1.17364,3.10409,-9.34009,-18.1488,-7.16102,88.9117
2023-02-16 21:33:56:725,-1.15867,3.14982,-9.43047,-18.1332,-7.16148,88.9071
2023-02-16 21:33:56:735,-1.17409,3.12814,-9.4031,-18.1046,-7.16094,88.9041
2023-02-16 21:33:56:745,-1.1952,3.04385,-9.29249,-18.0726,-7.16045,88.9033
2023-02-16 21:33:56:755,-1.18142,3.0614,-9.25141,-18.0433,-7.15915,88.9016
2023-02-16 21:33:56:765,-1.17631,2.99011,-9.13132,-18.0111,-7.15914,88.899
2023-02-16 21:33:56:775,-1.20249,2.95424,-9.11196,-17.9858,-7.15489,88.8937
2023-02-16 21:33:56:785,-1.2036,2.98987,-9.19044,-17.9646,-7.15404,88.8866
2023-02-16 21:33:56:795,-1.19535,2.99072,-9.21586,-17.943,-7.15249,88.8789
2023-02-16 21:33:56:805,-1.20169,2.96526,-9.19171,-17.9204,-7.15741,88.8702
2023-02-16 21:33:56:815,-1.1905,2.96317,-9.19255,-17.9001,-7.1634,88.8598
2023-02-16 21:33:56:825,-1.15955,2.99461,-9.24384,-17.887,-7.16932,88.8525
2023-02-16 21:33:56:835,-1.16841,3.03891,-9.28487,-17.8699,-7.17837,88.841
2023-02-16 21:33:56:845,-1.17888,3.02783,-9.28538,-17.851,-7.18518,88.8317
2023-02-16 21:33:56:855,-1.16899,2.99881,-9.22383,-17.8322,-7.19221,88.8255
2023-02-16 21:33:56:865,-1.16836,2.98995,-9.19822,-17.8116,-7.19702,88.8165
2023-02-16 21:33:56:875,-1.18372,2.9834,-9.21516,-17.7935,-7.19699,88.8123
2023-02-16 21:33:56:885,-1.19981,2.95257,-9.2094,-17.7741,-7.19568,88.8107
2023-02-16 21:33:56:895,-1.19671,2.93791,-9.25002,-17.7572,-7.1956,88.8064
2023-02-16 21:33:56:905,-1.18818,2.97155,-9.29613,-17.7376,-7.19244,88.8016
2023-02-16 21:33:56:915,-1.16259,2.95482,-9.24194,-17.7194,-7.18876,88.7954
2023-02-16 21:33:56:925,-1.14991,2.94052,-9.20458,-17.6996,-7.18867,88.7902
2023-02-16 21:33:56:935,-1.1428,2.93458,-9.24797,-17.6809,-7.18788,88.7852
2023-02-16 21:33:56:945,-1.17511,2.95433,-9.28303,-17.6623,-7.18564,88.7807
2023-02-16 21:33:56:955,-1.19286,2.95377,-9.29242,-17.6399,-7.18757,88.7743
2023-02-16 21:33:56:965,-1.17078,2.94358,-9.30655,-17.6169,-7.18403,88.7686
2023-02-16 21:33:56:975,-1.12238,2.96027,-9.34853,-17.5938,-7.1858,88.7636
2023-02-16 21:33:56:985,-1.08534,2.93693,-9.34053,-17.5678,-7.19036,88.759
2023-02-16 21:33:56:995,-1.08038,2.91184,-9.28932,-17.5424,-7.20302,88.7635
2023-02-16 21:33:57:5,-1.09541,2.89122,-9.23867,-17.522,-7.21527,88.7697
2023-02-16 21:33:57:15,-1.12386,2.876,-9.20478,-17.5085,-7.23028,88.7793
2023-02-16 21:33:57:25,-1.16279,2.88139,-9.20059,-17.4954,-7.24173,88.7946
2023-02-16 21:33:57:35,-1.19827,2.89708,-9.21222,-17.4866,-7.25404,88.8117
2023-02-16 21:33:57:45,-1.22124,2.91283,-9.22602,-17.4773,-7.27056,88.8287
2023-02-16 21:33:57:55,-1.23727,2.92506,-9.22981,-17.4664,-7.27894,88.8469
2023-02-16 21:33:57:65,-1.26837,2.93701,-9.22678,-17.4553,-7.28895,88.8693
2023-02-16 21:33:57:75,-1.29449,2.93284,-9.20628,-17.4421,-7.29627,88.886
2023-02-16 21:33:57:85,-1.31054,2.90947,-9.18895,-17.4216,-7.30142,88.902
2023-02-16 21:33:57:95,-1.31827,2.88889,-9.18536,-17.4061,-7.3068,88.9113
2023-02-16 21:33:57:105,-1.32405,2.8793,-9.18055,-17.3975,-7.31115,88.9207
2023-02-16 21:33:57:115,-1.30975,2.87873,-9.18378,-17.3889,-7.31231,88.929
2023-02-16 21:33:57:125,-1.30311,2.86851,-9.198,-17.385,-7.3158,88.9311
2023-02-16 21:33:57:135,-1.29018,2.87946,-9.21386,-17.3855,-7.31644,88.932
2023-02-16 21:33:57:145,-1.26783,2.8881,-9.22866,-17.3856,-7.31787,88.9305
2023-02-16 21:33:57:155,-1.22363,2.89454,-9.22761,-17.3935,-7.3181,88.9267
2023-02-16 21:33:57:165,-1.20741,2.89419,-9.232,-17.3993,-7.32067,88.9252
2023-02-16 21:33:57:175,-1.21212,2.91899,-9.23881,-17.4083,-7.31956,88.9245
2023-02-16 21:33:57:185,-1.22974,2.94639,-9.27122,-17.4127,-7.31901,88.9217
2023-02-16 21:33:57:195,-1.21206,2.95695,-9.28526,-17.4163,-7.31398,88.9204
2023-02-16 21:33:57:205,-1.18511,2.94776,-9.28281,-17.4184,-7.30598,88.9212
2023-02-16 21:33:57:215,-1.16491,2.93198,-9.26054,-17.4194,-7.29732,88.9233
2023-02-16 21:33:57:225,-1.17749,2.91985,-9.25369,-17.4202,-7.29257,88.9289
2023-02-16 21:33:57:235,-1.19975,2.93438,-9.24981,-17.424,-7.28878,88.9332
2023-02-16 21:33:57:245,-1.19872,2.93162,-9.26498,-17.4239,-7.28617,88.9347
2023-02-16 21:33:57:255,-1.20454,2.93085,-9.28155,-17.4262,-7.28367,88.9372
2023-02-16 21:33:57:265,-1.21432,2.93764,-9.30331,-17.4274,-7.27881,88.9406
2023-02-16 21:33:57:275,-1.20469,2.95151,-9.30584,-17.4304,-7.27665,88.9431
2023-02-16 21:33:57:285,-1.19911,2.95445,-9.28708,-17.428,-7.27405,88.9487
2023-02-16 21:33:57:295,-1.21457,2.96418,-9.29241,-17.425,-7.27265,88.9532
2023-02-16 21:33:57:305,-1.22186,2.96663,-9.28674,-17.4171,-7.27098,88.957
2023-02-16 21:33:57:315,-1.21815,2.94423,-9.26094,-17.4145,-7.2718,88.9615
2023-02-16 21:33:57:325,-1.20365,2.92386,-9.23113,-17.4087,-7.27569,88.9614
2023-02-16 21:33:57:335,-1.20201,2.93696,-9.24752,-17.4033,-7.28012,88.9642
2023-02-16 21:33:57:345,-1.22226,2.93083,-9.25093,-17.3975,-7.28212,88.9661
2023-02-16 21:33:57:355,-1.2208,2.91207,-9.22091,-17.3893,-7.28772,88.9647
2023-02-16 21:33:57:365,-1.20756,2.89332,-9.24107,-17.3877,-7.29498,88.9663
2023-02-16 21:33:57:375,-1.198,2.9099,-9.27364,-17.3792,-7.30275,88.965
2023-02-16 21:33:57:385,-1.21582,2.9096,-9.30154,-17.3715,-7.31119,88.9642
2023-02-16 21:33:57:395,-1.23578,2.91442,-9.29916,-17.3662,-7.31712,88.9671
2023-02-16 21:33:57:406,-1.23006,2.91137,-9.28955,-17.3605,-7.32165,88.9713
2023-02-16 21:33:57:415,-1.22523,2.92291,-9.30101,-17.3533,-7.32362,88.9736
2023-02-16 21:33:57:425,-1.22078,2.90922,-9.28842,-17.3447,-7.32321,88.9756
2023-02-16 21:33:57:435,-1.22648,2.90263,-9.27023,-17.3375,-7.323,88.9774
2023-02-16 21:33:57:445,-1.23518,2.90019,-9.26314,-17.3287,-7.32519,88.9817
2023-02-16 21:33:57:455,-1.22975,2.88879,-9.24472,-17.3198,-7.32448,88.9861
2023-02-16 21:33:57:465,-1.23317,2.89247,-9.22506,-17.3109,-7.32267,88.992
2023-02-16 21:33:57:475,-1.23365,2.87536,-9.24023,-17.3041,-7.32059,88.9967
2023-02-16 21:33:57:485,-1.23128,2.87685,-9.24416,-17.2979,-7.32116,88.9975
2023-02-16 21:33:57:495,-1.22955,2.88882,-9.25072,-17.2928,-7.32462,88.9949
2023-02-16 21:33:57:506,-1.21914,2.88104,-9.25209,-17.2874,-7.32971,88.9945
2023-02-16 21:33:57:515,-1.22258,2.87203,-9.24593,-17.283,-7.33441,88.9933
2023-02-16 21:33:57:526,-1.22509,2.87096,-9.23884,-17.2789,-7.34093,88.9954
2023-02-16 21:33:57:535,-1.2271,2.8654,-9.24309,-17.2765,-7.34711,88.9951
2023-02-16 21:33:57:546,-1.23732,2.87078,-9.25088,-17.2708,-7.35572,88.9951
2023-02-16 21:33:57:555,-1.2405,2.86921,-9.23615,-17.2672,-7.36114,88.9979
2023-02-16 21:33:57:565,-1.23947,2.87726,-9.25308,-17.2646,-7.36603,89
2023-02-16 21:33:57:575,-1.24058,2.87331,-9.27577,-17.2638,-7.3699,88.9987
2023-02-16 21:33:57:585,-1.24285,2.87563,-9.26562,-17.2624,-7.3702,88.9961
2023-02-16 21:33:57:595,-1.22964,2.87365,-9.26404,-17.2625,-7.36887,88.9922
2023-02-16 21:33:57:605,-1.21041,2.8773,-9.26004,-17.2629,-7.36868,88.9895
2023-02-16 21:33:57:615,-1.19547,2.86914,-9.24798,-17.2661,-7.3726,88.9862
2023-02-16 21:33:57:625,-1.19227,2.853,-9.24135,-17.2679,-7.37746,88.9858
2023-02-16 21:33:57:635,-1.21694,2.8696,-9.26959,-17.2741,-7.38087,88.9844
2023-02-16 21:33:57:645,-1.21131,2.88604,-9.3211,-17.2756,-7.3831,88.9825
2023-02-16 21:33:57:655,-1.17786,2.86926,-9.34749,-17.2727,-7.3859,88.9846
2023-02-16 21:33:57:666,-1.14355,2.85222,-9.34452,-17.2719,-7.3913,88.985
2023-02-16 21:33:57:675,-1.15612,2.84584,-9.30914,-17.271,-7.39986,88.9898
2023-02-16 21:33:57:685,-1.18806,2.83737,-9.25155,-17.2713,-7.40972,88.9958
2023-02-16 21:33:57:695,-1.20858,2.84655,-9.23418,-17.2788,-7.42308,89.0085
2023-02-16 21:33:57:705,-1.23054,2.87953,-9.22932,-17.2888,-7.43333,89.0214
2023-02-16 21:33:57:715,-1.26779,2.89314,-9.22974,-17.298,-7.44349,89.0355
2023-02-16 21:33:57:725,-1.29818,2.90371,-9.21998,-17.3138,-7.44765,89.0515
2023-02-16 21:33:57:735,-1.30383,2.93562,-9.22811,-17.3249,-7.45163,89.0629
2023-02-16 21:33:57:746,-1.33518,2.93837,-9.23421,-17.3322,-7.45781,89.0723
2023-02-16 21:33:57:755,-1.34231,2.92873,-9.21632,-17.3372,-7.45995,89.0794
2023-02-16 21:33:57:766,-1.32393,2.92329,-9.21534,-17.3411,-7.46266,89.0841
2023-02-16 21:33:57:775,-1.32417,2.91966,-9.23959,-17.347,-7.46127,89.0845
2023-02-16 21:33:57:786,-1.3231,2.9262,-9.25294,-17.3507,-7.46358,89.0848
2023-02-16 21:33:57:795,-1.31718,2.92488,-9.25957,-17.3547,-7.46511,89.0823
2023-02-16 21:33:57:805,-1.29994,2.94,-9.26347,-17.3549,-7.46325,89.0785
2023-02-16 21:33:57:815,-1.26542,2.9343,-9.28848,-17.359,-7.45997,89.0739
2023-02-16 21:33:57:825,-1.2674,2.94853,-9.28301,-17.3632,-7.45833,89.0685
2023-02-16 21:33:57:835,-1.24824,2.95009,-9.26837,-17.3637,-7.45541,89.0656
2023-02-16 21:33:57:846,-1.23863,2.94435,-9.23436,-17.3672,-7.45547,89.0633
2023-02-16 21:33:57:855,-1.26317,2.94193,-9.24951,-17.3728,-7.45433,89.0612
2023-02-16 21:33:57:865,-1.2823,2.97862,-9.29377,-17.3784,-7.44851,89.0564
2023-02-16 21:33:57:875,-1.26938,2.98286,-9.32631,-17.3773,-7.43853,89.0491
2023-02-16 21:33:57:885,-1.2153,2.95266,-9.33598,-17.3749,-7.43231,89.0424
2023-02-16 21:33:57:895,-1.17609,2.94169,-9.29599,-17.3655,-7.43093,89.0386
2023-02-16 21:33:57:905,-1.20247,2.91199,-9.28834,-17.3551,-7.43299,89.0336
2023-02-16 21:33:57:915,-1.22843,2.91483,-9.27161,-17.3448,-7.43619,89.0296
2023-02-16 21:33:57:925,-1.23553,2.90036,-9.25572,-17.3351,-7.43832,89.0267
2023-02-16 21:33:57:935,-1.23869,2.89048,-9.25872,-17.3252,-7.435,89.0216
2023-02-16 21:33:57:945,-1.22627,2.88335,-9.24924,-17.3178,-7.43337,89.0185
2023-02-16 21:33:57:955,-1.21375,2.87194,-9.25191,-17.31,-7.43682,89.0115
2023-02-16 21:33:57:965,-1.20235,2.87878,-9.27024,-17.3019,-7.44072,89.0059
2023-02-16 21:33:57:975,-1.21116,2.87058,-9.2727,-17.292,-7.44157,89.003
2023-02-16 21:33:57:985,-1.21688,2.86202,-9.25921,-17.2821,-7.44594,89.0038
2023-02-16 21:33:57:995,-1.21578,2.87498,-9.25239,-17.2777,-7.45135,89.0055
2023-02-16 21:33:58:5,-1.22443,2.88552,-9.25892,-17.2732,-7.45773,89.005
2023-02-16 21:33:58:15,-1.24865,2.89709,-9.27398,-17.2681,-7.46516,89.0031
2023-02-16 21:33:58:25,-1.27107,2.89823,-9.30159,-17.2627,-7.47192,89.0034
2023-02-16 21:33:58:35,-1.27548,2.8879,-9.3308,-17.2511,-7.47967,89.0038
2023-02-16 21:33:58:45,-1.27392,2.88019,-9.32282,-17.2377,-7.48533,89.0022
2023-02-16 21:33:58:55,-1.26425,2.87046,-9.29552,-17.222,-7.49044,89.0051
2023-02-16 21:33:58:65,-1.26256,2.84215,-9.2756,-17.2061,-7.49649,89.0046
2023-02-16 21:33:58:75,-1.2671,2.83075,-9.25739,-17.1905,-7.50193,89.0024
2023-02-16 21:33:58:85,-1.25901,2.82087,-9.24955,-17.1807,-7.50441,89.0038
2023-02-16 21:33:58:95,-1.25684,2.81491,-9.25393,-17.1726,-7.50527,89.0058
2023-02-16 21:33:58:105,-1.25723,2.81613,-9.24095,-17.1638,-7.50583,89.0086
2023-02-16 21:33:58:115,-1.2677,2.80346,-9.22966,-17.1538,-7.50812,89.0116
2023-02-16 21:33:58:125,-1.27249,2.81422,-9.2381,-17.1493,-7.50384,89.0142
2023-02-16 21:33:58:135,-1.26975,2.82043,-9.25504,-17.1426,-7.5024,89.015
2023-02-16 21:33:58:145,-1.27187,2.82065,-9.24682,-17.1404,-7.50283,89.0152
2023-02-16 21:33:58:155,-1.28617,2.82501,-9.23144,-17.1361,-7.49888,89.017
2023-02-16 21:33:58:165,-1.28647,2.81109,-9.20694,-17.1297,-7.49493,89.0144
2023-02-16 21:33:58:175,-1.262,2.79491,-9.21669,-17.127,-7.4898,89.0079
2023-02-16 21:33:58:185,-1.2503,2.81599,-9.2174,-17.1307,-7.48817,89.0014
2023-02-16 21:33:58:195,-1.2482,2.81582,-9.21515,-17.134,-7.48607,88.9971
2023-02-16 21:33:58:205,-1.23951,2.81704,-9.21325,-17.1402,-7.48655,88.9928
2023-02-16 21:33:58:215,-1.24205,2.83902,-9.21171,-17.1517,-7.48416,88.9871
2023-02-16 21:33:58:225,-1.24033,2.84404,-9.22555,-17.1623,-7.47919,88.9827
2023-02-16 21:33:58:235,-1.22314,2.86741,-9.25328,-17.1734,-7.4807,88.9773
2023-02-16 21:33:58:245,-1.23368,2.89715,-9.29366,-17.185,-7.47479,88.9742
2023-02-16 21:33:58:255,-1.25456,2.8962,-9.2906,-17.1951,-7.46794,88.971
2023-02-16 21:33:58:265,-1.26419,2.87711,-9.28172,-17.2042,-7.45903,88.9658
2023-02-16 21:33:58:275,-1.25596,2.87052,-9.27276,-17.2151,-7.45531,88.9639
2023-02-16 21:33:58:285,-1.24527,2.87586,-9.24684,-17.2192,-7.44682,88.96
2023-02-16 21:33:58:295,-1.2335,2.87226,-9.23591,-17.2226,-7.43639,88.9579
2023-02-16 21:33:58:305,-1.23035,2.86783,-9.27025,-17.2321,-7.42592,88.9546
2023-02-16 21:33:58:315,-1.21152,2.8867,-9.32995,-17.2345,-7.42123,88.9487
2023-02-16 21:33:58:325,-1.20819,2.90703,-9.37415,-17.2401,-7.41592,88.9437
2023-02-16 21:33:58:335,-1.20384,2.88923,-9.34433,-17.2426,-7.40892,88.9365
2023-02-16 21:33:58:345,-1.16492,2.86675,-9.29892,-17.2442,-7.40604,88.9344
2023-02-16 21:33:58:355,-1.12245,2.84123,-9.26467,-17.248,-7.40661,88.9292
2023-02-16 21:33:58:365,-1.12967,2.83987,-9.25241,-17.2535,-7.41272,88.9283
2023-02-16 21:33:58:375,-1.1641,2.8585,-9.24753,-17.264,-7.41838,88.9312
2023-02-16 21:33:58:385,-1.22433,2.87081,-9.24841,-17.2768,-7.42408,88.9394
2023-02-16 21:33:58:395,-1.2569,2.90751,-9.24834,-17.2897,-7.43087,88.9499
2023-02-16 21:33:58:405,-1.27233,2.94502,-9.25908,-17.3027,-7.43295,88.9616
2023-02-16 21:33:58:415,-1.28874,2.9471,-9.26988,-17.3156,-7.43466,88.9709
2023-02-16 21:33:58:425,-1.31261,2.9372,-9.25253,-17.3252,-7.43803,88.9822
2023-02-16 21:33:58:435,-1.31912,2.93341,-9.23419,-17.331,-7.43554,88.9889
2023-02-16 21:33:58:445,-1.32019,2.92041,-9.21529,-17.3377,-7.42925,88.9962
2023-02-16 21:33:58:455,-1.3153,2.90781,-9.21722,-17.3386,-7.42365,88.9995
2023-02-16 21:33:58:465,-1.30696,2.90884,-9.22932,-17.3425,-7.42091,89.0041
2023-02-16 21:33:58:475,-1.29199,2.90771,-9.23061,-17.3437,-7.41637,89.0014
2023-02-16 21:33:58:485,-1.30191,2.89784,-9.24263,-17.3496,-7.414,89.0013
2023-02-16 21:33:58:495,-1.29893,2.91397,-9.25005,-17.352,-7.41101,88.9998
2023-02-16 21:33:58:505,-1.27378,2.93145,-9.26087,-17.3576,-7.40354,88.9966
2023-02-16 21:33:58:515,-1.25262,2.94882,-9.25525,-17.3659,-7.39956,88.9935
2023-02-16 21:33:58:525,-1.2541,2.9241,-9.25884,-17.3749,-7.39153,88.9881
2023-02-16 21:33:58:535,-1.26108,2.93912,-9.26575,-17.3846,-7.38355,88.9858
2023-02-16 21:33:58:545,-1.27646,2.95175,-9.30103,-17.3927,-7.37813,88.9857
2023-02-16 21:33:58:555,-1.26941,2.96228,-9.31852,-17.3978,-7.36318,88.9788
2023-02-16 21:33:58:565,-1.19852,2.94251,-9.29709,-17.3969,-7.34909,88.9699
2023-02-16 21:33:58:575,-1.16026,2.92308,-9.27304,-17.3985,-7.33564,88.9658
2023-02-16 21:33:58:585,-1.16545,2.91714,-9.27296,-17.4,-7.32668,88.9611
2023-02-16 21:33:58:595,-1.17681,2.93203,-9.28493,-17.3982,-7.31954,88.9573
2023-02-16 21:33:58:605,-1.18219,2.94262,-9.27422,-17.3941,-7.31642,88.957
2023-02-16 21:33:58:615,-1.18797,2.93708,-9.28589,-17.3915,-7.3123,88.963
2023-02-16 21:33:58:625,-1.18439,2.94325,-9.28628,-17.3855,-7.30902,88.9635
2023-02-16 21:33:58:635,-1.16867,2.92014,-9.26881,-17.3823,-7.30779,88.964
2023-02-16 21:33:58:645,-1.16354,2.91353,-9.24342,-17.3796,-7.30549,88.9649
2023-02-16 21:33:58:655,-1.16182,2.91936,-9.2455,-17.3803,-7.30226,88.9678
2023-02-16 21:33:58:665,-1.16747,2.90684,-9.24659,-17.3801,-7.29967,88.971
2023-02-16 21:33:58:675,-1.16634,2.90298,-9.21704,-17.3819,-7.29926,88.9754
2023-02-16 21:33:58:685,-1.15469,2.91467,-9.23029,-17.3849,-7.3017,88.9786
2023-02-16 21:33:58:695,-1.15747,2.92712,-9.25881,-17.3915,-7.30383,88.9845
2023-02-16 21:33:58:705,-1.17118,2.93577,-9.2687,-17.3962,-7.30352,88.9897
2023-02-16 21:33:58:715,-1.16392,2.96307,-9.27467,-17.4015,-7.30862,88.9959
2023-02-16 21:33:58:725,-1.16384,2.97331,-9.28763,-17.4,-7.31525,89.0045
2023-02-16 21:33:58:735,-1.17024,2.9626,-9.30334,-17.4,-7.32605,89.0125
2023-02-16 21:33:58:745,-1.16968,2.96552,-9.27844,-17.4014,-7.3351,89.0259
2023-02-16 21:33:58:755,-1.17894,2.95406,-9.2468,-17.3976,-7.34943,89.0394
2023-02-16 21:33:58:765,-1.18009,2.93377,-9.25658,-17.3978,-7.36055,89.0535
2023-02-16 21:33:58:775,-1.18659,2.92168,-9.26554,-17.3957,-7.37488,89.0685
2023-02-16 21:33:58:785,-1.20921,2.91101,-9.2547,-17.3964,-7.38729,89.086
2023-02-16 21:33:58:795,-1.22476,2.92211,-9.24924,-17.3975,-7.39681,89.1039
2023-02-16 21:33:58:805,-1.25282,2.92008,-9.27199,-17.3955,-7.40624,89.123
2023-02-16 21:33:58:815,-1.27453,2.9267,-9.26489,-17.3916,-7.41398,89.14
2023-02-16 21:33:58:825,-1.29775,2.93437,-9.27759,-17.3887,-7.42238,89.1573
2023-02-16 21:33:58:835,-1.31263,2.92805,-9.29412,-17.3846,-7.42661,89.1725
2023-02-16 21:33:58:845,-1.31044,2.93455,-9.27454,-17.3748,-7.43361,89.1895
2023-02-16 21:33:58:855,-1.32094,2.92846,-9.24129,-17.3682,-7.43931,89.199
2023-02-16 21:33:58:865,-1.32396,2.90527,-9.22312,-17.3585,-7.44214,89.2063
2023-02-16 21:33:58:875,-1.32546,2.89972,-9.23574,-17.3509,-7.44815,89.2095
2023-02-16 21:33:58:885,-1.31688,2.89777,-9.22932,-17.3437,-7.45216,89.2123
2023-02-16 21:33:58:895,-1.29726,2.88939,-9.22633,-17.3437,-7.45817,89.2123
2023-02-16 21:33:58:905,-1.2882,2.89177,-9.2395,-17.3438,-7.4635,89.2063
2023-02-16 21:33:58:915,-1.27545,2.90544,-9.27605,-17.3409,-7.47283,89.2014
2023-02-16 21:33:58:925,-1.28611,2.91877,-9.28315,-17.338,-7.48283,89.1962
2023-02-16 21:33:58:935,-1.28929,2.92406,-9.27301,-17.3363,-7.4889,89.1888
2023-02-16 21:33:58:945,-1.2896,2.94457,-9.26515,-17.3351,-7.49332,89.185
2023-02-16 21:33:58:955,-1.28113,2.94613,-9.26094,-17.3306,-7.49288,89.1805
2023-02-16 21:33:58:965,-1.28134,2.93647,-9.25424,-17.3262,-7.49154,89.1768
2023-02-16 21:33:58:975,-1.27771,2.92973,-9.2342,-17.3213,-7.48637,89.1747
2023-02-16 21:33:58:985,-1.26837,2.90692,-9.22014,-17.316,-7.47956,89.1707
2023-02-16 21:33:58:995,-1.28582,2.89473,-9.23013,-17.3045,-7.47442,89.1682
2023-02-16 21:33:59:5,-1.30062,2.90664,-9.26468,-17.2953,-7.46436,89.163
2023-02-16 21:33:59:15,-1.27603,2.91663,-9.30167,-17.2847,-7.456,89.1574
2023-02-16 21:33:59:25,-1.21693,2.89363,-9.31346,-17.2699,-7.45073,89.1492
2023-02-16 21:33:59:35,-1.15756,2.85247,-9.30218,-17.2564,-7.45247,89.1395
2023-02-16 21:33:59:45,-1.1727,2.84445,-9.29038,-17.2456,-7.4598,89.1296
2023-02-16 21:33:59:55,-1.19366,2.86537,-9.29027,-17.2371,-7.46793,89.1267
2023-02-16 21:33:59:65,-1.20242,2.86029,-9.27205,-17.2322,-7.4754,89.1267
2023-02-16 21:33:59:75,-1.22667,2.87178,-9.25684,-17.231,-7.48064,89.1285
2023-02-16 21:33:59:85,-1.25393,2.88171,-9.24784,-17.2297,-7.48258,89.1345
2023-02-16 21:33:59:95,-1.23404,2.88367,-9.26396,-17.2276,-7.4846,89.1392
2023-02-16 21:33:59:105,-1.23749,2.87747,-9.25749,-17.2215,-7.49065,89.1424
2023-02-16 21:33:59:115,-1.26889,2.89469,-9.24653,-17.2128,-7.49207,89.1469
2023-02-16 21:33:59:125,-1.29237,2.86421,-9.21741,-17.2004,-7.49157,89.1528
2023-02-16 21:33:59:135,-1.27279,2.84949,-9.19278,-17.1897,-7.49224,89.1548
2023-02-16 21:33:59:145,-1.26255,2.83952,-9.20777,-17.1826,-7.492,89.1546
2023-02-16 21:33:59:155,-1.279,2.82511,-9.20444,-17.1778,-7.49698,89.1534
2023-02-16 21:33:59:165,-1.27975,2.81619,-9.23694,-17.1747,-7.50042,89.15
2023-02-16 21:33:59:175,-1.26938,2.83311,-9.27892,-17.1741,-7.50803,89.1451
2023-02-16 21:33:59:185,-1.23986,2.83515,-9.28703,-17.177,-7.51216,89.1413
2023-02-16 21:33:59:195,-1.22753,2.85252,-9.29114,-17.1845,-7.51612,89.1335
2023-02-16 21:33:59:205,-1.22392,2.85978,-9.26444,-17.19,-7.51934,89.1297
2023-02-16 21:33:59:215,-1.23786,2.8485,-9.23348,-17.1966,-7.52354,89.1301
2023-02-16 21:33:59:225,-1.25238,2.8791,-9.24652,-17.2058,-7.5268,89.1342
2023-02-16 21:33:59:235,-1.27351,2.91508,-9.27813,-17.2157,-7.52286,89.1366
2023-02-16 21:33:59:245,-1.27282,2.93633,-9.30916,-17.2234,-7.51861,89.1392
2023-02-16 21:33:59:255,-1.24643,2.91393,-9.315,-17.2242,-7.51131,89.1398
2023-02-16 21:33:59:265,-1.23724,2.89363,-9.28651,-17.2244,-7.50642,89.1403
2023-02-16 21:33:59:275,-1.2317,2.89644,-9.29599,-17.2245,-7.50171,89.1403
2023-02-16 21:33:59:285,-1.25838,2.90032,-9.3006,-17.2206,-7.49833,89.1407
2023-02-16 21:33:59:295,-1.2649,2.88977,-9.27687,-17.2156,-7.4971,89.1405
2023-02-16 21:33:59:305,-1.2636,2.88285,-9.27003,-17.2115,-7.49503,89.1391
2023-02-16 21:33:59:315,-1.25775,2.89176,-9.29878,-17.206,-7.49331,89.1393
2023-02-16 21:33:59:325,-1.24503,2.88573,-9.31276,-17.1989,-7.49251,89.136
2023-02-16 21:33:59:335,-1.22712,2.88153,-9.28671,-17.1888,-7.49041,89.1325
2023-02-16 21:33:59:345,-1.22265,2.86771,-9.25926,-17.1814,-7.48804,89.1275
2023-02-16 21:33:59:355,-1.22447,2.85968,-9.26212,-17.1712,-7.48417,89.1238
2023-02-16 21:33:59:365,-1.22107,2.86518,-9.27615,-17.1604,-7.4826,89.1201
2023-02-16 21:33:59:375,-1.22872,2.86145,-9.28181,-17.1531,-7.48271,89.1184
2023-02-16 21:33:59:385,-1.23861,2.85467,-9.28654,-17.1441,-7.48415,89.1128
2023-02-16 21:33:59:395,-1.21967,2.83907,-9.28382,-17.1323,-7.48746,89.1068
2023-02-16 21:33:59:405,-1.21648,2.84446,-9.28177,-17.124,-7.49156,89.1066
2023-02-16 21:33:59:415,-1.20735,2.84498,-9.27659,-17.1184,-7.49517,89.1081
2023-02-16 21:33:59:425,-1.21014,2.84428,-9.28452,-17.1113,-7.50097,89.1072
2023-02-16 21:33:59:435,-1.21246,2.83243,-9.27169,-17.1045,-7.50335,89.1121
2023-02-16 21:33:59:445,-1.2153,2.83781,-9.26982,-17.0965,-7.5082,89.1183
2023-02-16 21:33:59:455,-1.22451,2.84559,-9.2799,-17.0939,-7.50831,89.1264
2023-02-16 21:33:59:465,-1.23152,2.84099,-9.25197,-17.0893,-7.51144,89.1384
2023-02-16 21:33:59:475,-1.27115,2.84107,-9.24978,-17.086,-7.50876,89.1503
2023-02-16 21:33:59:485,-1.28097,2.85202,-9.26304,-17.0818,-7.5087,89.1602
2023-02-16 21:33:59:495,-1.27437,2.85606,-9.27019,-17.0785,-7.50879,89.1684
2023-02-16 21:33:59:505,-1.29806,2.8523,-9.2575,-17.0751,-7.50716,89.1699
2023-02-16 21:33:59:515,-1.29229,2.8548,-9.24662,-17.0728,-7.50554,89.176
2023-02-16 21:33:59:525,-1.292,2.85645,-9.24955,-17.0729,-7.51014,89.1762
2023-02-16 21:33:59:535,-1.29158,2.85655,-9.24777,-17.0722,-7.51402,89.1798
2023-02-16 21:33:59:545,-1.2804,2.85962,-9.23476,-17.0741,-7.5154,89.1802
2023-02-16 21:33:59:555,-1.27011,2.84826,-9.23246,-17.0752,-7.51525,89.1785
2023-02-16 21:33:59:565,-1.27558,2.8522,-9.24086,-17.0772,-7.51558,89.176
2023-02-16 21:33:59:575,-1.25559,2.87919,-9.25573,-17.0801,-7.516,89.171
2023-02-16 21:33:59:585,-1.24695,2.88518,-9.27995,-17.0835,-7.51666,89.1663
2023-02-16 21:33:59:595,-1.24452,2.88004,-9.28085,-17.0839,-7.5142,89.1623
2023-02-16 21:33:59:605,-1.25379,2.86977,-9.28159,-17.085,-7.51303,89.1614
2023-02-16 21:33:59:615,-1.26689,2.88042,-9.2824,-17.0844,-7.50979,89.1575
2023-02-16 21:33:59:625,-1.26943,2.87327,-9.27365,-17.0816,-7.50652,89.1539
2023-02-16 21:33:59:635,-1.26855,2.8461,-9.26297,-17.0797,-7.50305,89.1537
2023-02-16 21:33:59:645,-1.25526,2.84113,-9.24361,-17.0821,-7.49715,89.1531
2023-02-16 21:33:59:655,-1.24088,2.84249,-9.2337,-17.0787,-7.4901,89.1514
2023-02-16 21:33:59:665,-1.24597,2.82464,-9.22918,-17.0756,-7.48405,89.1495
2023-02-16 21:33:59:675,-1.23943,2.81466,-9.24543,-17.0753,-7.47363,89.1474
2023-02-16 21:33:59:685,-1.21264,2.84327,-9.33042,-17.078,-7.46282,89.1439
2023-02-16 21:33:59:695,-1.18246,2.87434,-9.41009,-17.0772,-7.45274,89.1426
2023-02-16 21:33:59:705,-1.1562,2.86931,-9.40896,-17.0684,-7.44623,89.1383
2023-02-16 21:33:59:715,-1.14151,2.82882,-9.34853,-17.0594,-7.44516,89.137
2023-02-16 21:33:59:725,-1.15982,2.82482,-9.30433,-17.0559,-7.44791,89.1391
2023-02-16 21:33:59:735,-1.19448,2.8291,-9.2678,-17.0544,-7.45053,89.1428
2023-02-16 21:33:59:745,-1.2203,2.82513,-9.2503,-17.0556,-7.45389,89.1496
2023-02-16 21:33:59:755,-1.2297,2.83638,-9.21642,-17.0582,-7.45583,89.1564
2023-02-16 21:33:59:765,-1.24542,2.83132,-9.23725,-17.0672,-7.45777,89.1646
2023-02-16 21:33:59:775,-1.25028,2.85895,-9.25138,-17.0732,-7.45806,89.1685
2023-02-16 21:33:59:785,-1.25227,2.87412,-9.27903,-17.0755,-7.45826,89.1737
2023-02-16 21:33:59:795,-1.26562,2.88113,-9.28444,-17.0748,-7.45751,89.1775
2023-02-16 21:33:59:805,-1.26545,2.87413,-9.26631,-17.0712,-7.45803,89.1811
2023-02-16 21:33:59:815,-1.25504,2.84796,-9.26215,-17.0614,-7.4624,89.1795
2023-02-16 21:33:59:825,-1.26394,2.83151,-9.27293,-17.0534,-7.46762,89.1793
2023-02-16 21:33:59:835,-1.26887,2.83834,-9.28144,-17.0448,-7.4738,89.1782
2023-02-16 21:33:59:845,-1.25535,2.82038,-9.26274,-17.0348,-7.47831,89.1773
2023-02-16 21:33:59:855,-1.25191,2.80779,-9.24242,-17.0328,-7.47855,89.1797
2023-02-16 21:33:59:865,-1.25004,2.79618,-9.23971,-17.0289,-7.47792,89.1809
2023-02-16 21:33:59:875,-1.24895,2.8126,-9.24174,-17.0323,-7.4778,89.1832
2023-02-16 21:33:59:885,-1.23772,2.80323,-9.23062,-17.0382,-7.47933,89.1844
2023-02-16 21:33:59:895,-1.26588,2.81809,-9.23105,-17.0466,-7.4792,89.1835
2023-02-16 21:33:59:905,-1.29565,2.85153,-9.28044,-17.0595,-7.47497,89.1847
2023-02-16 21:33:59:915,-1.28929,2.87274,-9.31664,-17.0703,-7.47008,89.1857
2023-02-16 21:33:59:925,-1.2429,2.87579,-9.32754,-17.0754,-7.46583,89.1815
2023-02-16 21:33:59:935,-1.20839,2.87164,-9.29745,-17.0786,-7.46149,89.1739
2023-02-16 21:33:59:945,-1.22591,2.8585,-9.27358,-17.0785,-7.46288,89.1668
2023-02-16 21:33:59:955,-1.24361,2.86197,-9.25978,-17.0813,-7.46357,89.1643
2023-02-16 21:33:59:965,-1.24221,2.85869,-9.24777,-17.0859,-7.46358,89.1582
2023-02-16 21:33:59:975,-1.24641,2.86771,-9.24249,-17.0951,-7.46266,89.1576
2023-02-16 21:33:59:985,-1.22402,2.86541,-9.251,-17.1015,-7.46231,89.1532
2023-02-16 21:33:59:995,-1.20593,2.85604,-9.27191,-17.1118,-7.46206,89.1481
2023-02-16 21:34:00:5,-1.19489,2.87381,-9.27569,-17.1217,-7.46307,89.1488
2023-02-16 21:34:00:15,-1.21161,2.90907,-9.28778,-17.1331,-7.46392,89.1518
2023-02-16 21:34:00:25,-1.22705,2.92341,-9.30887,-17.1394,-7.46474,89.1539
2023-02-16 21:34:00:35,-1.22555,2.92104,-9.32511,-17.1449,-7.45974,89.1585
2023-02-16 21:34:00:45,-1.22862,2.92232,-9.29351,-17.1474,-7.4587,89.1629
2023-02-16 21:34:00:55,-1.2314,2.92753,-9.29506,-17.1525,-7.45815,89.1667
2023-02-16 21:34:00:65,-1.22228,2.94087,-9.30154,-17.15,-7.46253,89.1696
2023-02-16 21:34:00:75,-1.22464,2.9264,-9.29536,-17.1485,-7.46322,89.1718
2023-02-16 21:34:00:85,-1.23251,2.91417,-9.25975,-17.1477,-7.47076,89.1759
2023-02-16 21:34:00:95,-1.24288,2.88488,-9.24075,-17.1449,-7.47587,89.1796
2023-02-16 21:34:00:105,-1.24674,2.8882,-9.24835,-17.1428,-7.4811,89.1813
2023-02-16 21:34:00:115,-1.24891,2.90336,-9.26788,-17.1425,-7.48468,89.1843
2023-02-16 21:34:00:125,-1.24876,2.9118,-9.27418,-17.1405,-7.48897,89.1861
2023-02-16 21:34:00:135,-1.25375,2.90639,-9.29033,-17.1392,-7.49525,89.1917
2023-02-16 21:34:00:145,-1.25047,2.90654,-9.29142,-17.1366,-7.49817,89.1926
2023-02-16 21:34:00:155,-1.25226,2.91515,-9.29761,-17.1313,-7.5009,89.1996
2023-02-16 21:34:00:165,-1.26265,2.90948,-9.28319,-17.1249,-7.50566,89.2043
2023-02-16 21:34:00:175,-1.26324,2.89138,-9.27019,-17.1158,-7.50508,89.2072
2023-02-16 21:34:00:185,-1.26698,2.88635,-9.26883,-17.1072,-7.50615,89.2108
2023-02-16 21:34:00:195,-1.26907,2.89369,-9.26138,-17.0987,-7.50516,89.2146
2023-02-16 21:34:00:205,-1.27843,2.88115,-9.26657,-17.0872,-7.50435,89.2117
2023-02-16 21:34:00:215,-1.26991,2.86695,-9.2463,-17.0758,-7.50567,89.2098
2023-02-16 21:34:00:225,-1.26001,2.84075,-9.23483,-17.0639,-7.50618,89.2088
2023-02-16 21:34:00:235,-1.25071,2.82876,-9.22642,-17.0555,-7.51321,89.2068
2023-02-16 21:34:00:245,-1.24778,2.84056,-9.23457,-17.0502,-7.51502,89.2037
2023-02-16 21:34:00:255,-1.25335,2.84635,-9.25296,-17.0486,-7.51706,89.202
2023-02-16 21:34:00:265,-1.25867,2.85689,-9.26821,-17.0435,-7.52245,89.199
2023-02-16 21:34:00:275,-1.26723,2.86726,-9.27541,-17.0423,-7.52313,89.2007
2023-02-16 21:34:00:285,-1.28398,2.87369,-9.28249,-17.0416,-7.52239,89.2029
2023-02-16 21:34:00:295,-1.29378,2.8844,-9.31629,-17.0378,-7.51901,89.2021
2023-02-16 21:34:00:305,-1.3015,2.88642,-9.30437,-17.029,-7.51567,89.1988
2023-02-16 21:34:00:315,-1.29294,2.86768,-9.26094,-17.0193,-7.50633,89.1931
2023-02-16 21:34:00:325,-1.29003,2.85657,-9.24606,-17.0087,-7.49753,89.1858
2023-02-16 21:34:00:335,-1.25872,2.85153,-9.23541,-17.0021,-7.49008,89.1775
2023-02-16 21:34:00:345,-1.23773,2.82356,-9.21569,-16.9947,-7.48442,89.1665
2023-02-16 21:34:00:355,-1.23134,2.81535,-9.26149,-16.989,-7.47549,89.1573
2023-02-16 21:34:00:365,-1.19942,2.83685,-9.33286,-16.9827,-7.4711,89.1441
2023-02-16 21:34:00:375,-1.15536,2.835,-9.37883,-16.9724,-7.4666,89.1333
2023-02-16 21:34:00:385,-1.12325,2.8256,-9.36256,-16.9624,-7.46946,89.1235
2023-02-16 21:34:00:395,-1.13007,2.79594,-9.30975,-16.9486,-7.47467,89.1177
2023-02-16 21:34:00:405,-1.16379,2.78438,-9.28954,-16.9421,-7.48287,89.1162
2023-02-16 21:34:00:415,-1.18671,2.79138,-9.28357,-16.9378,-7.48917,89.1213
2023-02-16 21:34:00:425,-1.21606,2.8047,-9.2607,-16.9356,-7.49691,89.126
2023-02-16 21:34:00:435,-1.23184,2.81243,-9.2445,-16.9348,-7.50136,89.1363
2023-02-16 21:34:00:445,-1.24216,2.8283,-9.23449,-16.9364,-7.50075,89.1456
2023-02-16 21:34:00:455,-1.25801,2.83957,-9.25872,-16.9443,-7.50396,89.1596
2023-02-16 21:34:00:465,-1.29599,2.85406,-9.24899,-16.9445,-7.50638,89.1696
2023-02-16 21:34:00:475,-1.32525,2.8502,-9.2175,-16.9454,-7.51045,89.1777
2023-02-16 21:34:00:485,-1.32226,2.84716,-9.21663,-16.9444,-7.5122,89.1844
2023-02-16 21:34:00:495,-1.32174,2.84831,-9.23376,-16.9401,-7.51137,89.1887
2023-02-16 21:34:00:505,-1.31078,2.84711,-9.26519,-16.9372,-7.50888,89.1886
2023-02-16 21:34:00:515,-1.30168,2.83389,-9.2847,-16.9309,-7.51203,89.1859
2023-02-16 21:34:00:525,-1.30556,2.82161,-9.276,-16.9266,-7.51429,89.1819
2023-02-16 21:34:00:535,-1.3011,2.82665,-9.27899,-16.9177,-7.51553,89.1739
2023-02-16 21:34:00:545,-1.28712,2.82494,-9.30388,-16.9196,-7.51739,89.1672
2023-02-16 21:34:00:555,-1.2734,2.83928,-9.2959,-16.9198,-7.51712,89.1614
2023-02-16 21:34:00:565,-1.26544,2.84905,-9.27672,-16.9227,-7.51619,89.1569
2023-02-16 21:34:00:575,-1.29136,2.8468,-9.27042,-16.9321,-7.51181,89.1575
2023-02-16 21:34:00:585,-1.32996,2.87743,-9.29832,-16.9401,-7.50809,89.1558
2023-02-16 21:34:00:595,-1.31751,2.89748,-9.33929,-16.9401,-7.49879,89.1514
2023-02-16 21:34:00:605,-1.27782,2.89584,-9.35674,-16.9369,-7.48732,89.1444
2023-02-16 21:34:00:615,-1.23565,2.87444,-9.3272,-16.929,-7.47953,89.1365
2023-02-16 21:34:00:625,-1.23656,2.84692,-9.28859,-16.9192,-7.47202,89.1295
2023-02-16 21:34:00:635,-1.2577,2.8475,-9.26499,-16.9048,-7.46288,89.1251
2023-02-16 21:34:00:645,-1.24491,2.81839,-9.25557,-16.894,-7.45644,89.1145
2023-02-16 21:34:00:655,-1.21705,2.79625,-9.25932,-16.8791,-7.44909,89.1046
2023-02-16 21:34:00:665,-1.21419,2.79928,-9.26107,-16.8697,-7.4441,89.0964
2023-02-16 21:34:00:675,-1.18102,2.81199,-9.26829,-16.8617,-7.43766,89.0897
2023-02-16 21:34:00:685,-1.15745,2.80772,-9.27112,-16.8557,-7.42565,89.0847
2023-02-16 21:34:00:695,-1.14924,2.80758,-9.25951,-16.8489,-7.4151,89.0827
2023-02-16 21:34:00:705,-1.14771,2.79129,-9.25101,-16.8478,-7.40293,89.0832
2023-02-16 21:34:00:715,-1.15589,2.79179,-9.24808,-16.8463,-7.39224,89.0861
2023-02-16 21:34:00:726,-1.16236,2.7928,-9.26311,-16.8483,-7.38003,89.0925
2023-02-16 21:34:00:735,-1.16764,2.81468,-9.29458,-16.8485,-7.37088,89.0975
2023-02-16 21:34:00:745,-1.18571,2.83365,-9.29716,-16.8511,-7.36602,89.1039
2023-02-16 21:34:00:755,-1.19539,2.83998,-9.30692,-16.8514,-7.36399,89.1054
2023-02-16 21:34:00:765,-1.17284,2.84977,-9.31646,-16.8513,-7.36389,89.1088
2023-02-16 21:34:00:775,-1.16626,2.83984,-9.32637,-16.8486,-7.36651,89.113
2023-02-16 21:34:00:785,-1.16929,2.82503,-9.33463,-16.8464,-7.37176,89.1138
2023-02-16 21:34:00:795,-1.16223,2.81485,-9.30291,-16.8428,-7.37828,89.1175
2023-02-16 21:34:00:805,-1.17037,2.80977,-9.27602,-16.8359,-7.38684,89.1194
2023-02-16 21:34:00:815,-1.17691,2.79585,-9.27044,-16.8323,-7.39857,89.126
2023-02-16 21:34:00:825,-1.1912,2.79596,-9.27679,-16.8282,-7.40697,89.1358
2023-02-16 21:34:00:835,-1.19118,2.7888,-9.28,-16.8295,-7.41674,89.1489
2023-02-16 21:34:00:845,-1.19277,2.78334,-9.27127,-16.8301,-7.42502,89.1634
2023-02-16 21:34:00:855,-1.19987,2.79194,-9.27838,-16.8334,-7.4354,89.1794
2023-02-16 21:34:00:865,-1.21794,2.81034,-9.28129,-16.8359,-7.44483,89.1959
2023-02-16 21:34:00:875,-1.23678,2.81492,-9.28006,-16.8388,-7.45175,89.2142
2023-02-16 21:34:00:885,-1.24588,2.81088,-9.26267,-16.8424,-7.46103,89.2335
2023-02-16 21:34:00:895,-1.27121,2.81976,-9.25359,-16.8455,-7.46741,89.2521
2023-02-16 21:34:00:905,-1.29416,2.82972,-9.25016,-16.8472,-7.47293,89.2683
2023-02-16 21:34:00:915,-1.29287,2.83008,-9.24937,-16.8499,-7.4811,89.283
2023-02-16 21:34:00:925,-1.28339,2.84838,-9.25732,-16.8519,-7.49034,89.2971
2023-02-16 21:34:00:935,-1.28765,2.84378,-9.26123,-16.8621,-7.5017,89.3098
2023-02-16 21:34:00:945,-1.30524,2.83895,-9.26191,-16.8688,-7.51474,89.3187
2023-02-16 21:34:00:955,-1.30932,2.83833,-9.25934,-16.8795,-7.52773,89.3283
2023-02-16 21:34:00:965,-1.31094,2.83849,-9.25032,-16.8895,-7.53626,89.3369
2023-02-16 21:34:00:975,-1.31073,2.85901,-9.26966,-16.9011,-7.5461,89.3435
2023-02-16 21:34:00:985,-1.30947,2.87074,-9.32865,-16.9115,-7.5564,89.3488
2023-02-16 21:34:00:995,-1.33245,2.88964,-9.32055,-16.9193,-7.56137,89.3544
2023-02-16 21:34:01:5,-1.3363,2.89023,-9.2861,-16.9245,-7.56302,89.361
2023-02-16 21:34:01:15,-1.31851,2.88268,-9.27781,-16.9233,-7.55965,89.3639
2023-02-16 21:34:01:25,-1.29426,2.86304,-9.2688,-16.9209,-7.55445,89.3662
2023-02-16 21:34:01:35,-1.26797,2.83893,-9.24606,-16.9187,-7.54821,89.3648
2023-02-16 21:34:01:45,-1.25656,2.83432,-9.25217,-16.9247,-7.54508,89.3634
2023-02-16 21:34:01:55,-1.26734,2.84738,-9.29513,-16.9276,-7.54095,89.3597
2023-02-16 21:34:01:65,-1.24754,2.85665,-9.34026,-16.9268,-7.53676,89.3579
2023-02-16 21:34:01:75,-1.19103,2.83293,-9.34243,-16.9249,-7.53618,89.3541
2023-02-16 21:34:01:85,-1.1679,2.80307,-9.30715,-16.9237,-7.54309,89.3517
2023-02-16 21:34:01:95,-1.17162,2.79508,-9.2617,-16.9239,-7.55436,89.3518
2023-02-16 21:34:01:105,-1.18409,2.81065,-9.24915,-16.9336,-7.56573,89.3557
2023-02-16 21:34:01:115,-1.22481,2.83248,-9.25468,-16.9457,-7.57636,89.3629
2023-02-16 21:34:01:125,-1.26759,2.84899,-9.26284,-16.9559,-7.58359,89.3762
2023-02-16 21:34:01:135,-1.2755,2.86251,-9.26606,-16.9662,-7.58919,89.3917
2023-02-16 21:34:01:145,-1.28813,2.86839,-9.28228,-16.9737,-7.59023,89.4112
2023-02-16 21:34:01:155,-1.33436,2.86855,-9.26995,-16.9789,-7.58827,89.4303
2023-02-16 21:34:01:165,-1.37573,2.8644,-9.24353,-16.9822,-7.59098,89.4532
2023-02-16 21:34:01:175,-1.38948,2.8448,-9.22705,-16.9835,-7.59005,89.4686
2023-02-16 21:34:01:185,-1.40442,2.84069,-9.22817,-16.9856,-7.58924,89.4788
2023-02-16 21:34:01:195,-1.43496,2.84707,-9.24185,-16.9898,-7.58765,89.485
2023-02-16 21:34:01:205,-1.44807,2.85722,-9.25555,-16.9879,-7.58417,89.4861
2023-02-16 21:34:01:215,-1.45563,2.85914,-9.27643,-16.9868,-7.58262,89.48
2023-02-16 21:34:01:225,-1.44603,2.83627,-9.26879,-16.985,-7.58445,89.4677
2023-02-16 21:34:01:235,-1.4355,2.82409,-9.26875,-16.9786,-7.58451,89.4464
2023-02-16 21:34:01:245,-1.38762,2.83438,-9.26801,-16.9814,-7.58017,89.4232
2023-02-16 21:34:01:255,-1.34289,2.82673,-9.23986,-16.9817,-7.57969,89.3935
2023-02-16 21:34:01:265,-1.31077,2.80927,-9.22886,-16.9846,-7.57673,89.3608
2023-02-16 21:34:01:275,-1.28676,2.81601,-9.26047,-16.9897,-7.56654,89.3321
2023-02-16 21:34:01:285,-1.29732,2.82555,-9.28995,-16.9937,-7.55697,89.3027
2023-02-16 21:34:01:295,-1.26828,2.81558,-9.27495,-16.9982,-7.54393,89.2734
2023-02-16 21:34:01:305,-1.23114,2.8035,-9.25434,-17.0013,-7.53031,89.2456
2023-02-16 21:34:01:315,-1.21676,2.79139,-9.23495,-17.0069,-7.51985,89.2182
2023-02-16 21:34:01:325,-1.22339,2.81273,-9.24229,-17.0129,-7.50865,89.1941
2023-02-16 21:34:01:335,-1.23689,2.83483,-9.25524,-17.0215,-7.49396,89.174
2023-02-16 21:34:01:345,-1.24392,2.84318,-9.27494,-17.0305,-7.47941,89.1551
2023-02-16 21:34:01:355,-1.23854,2.84268,-9.27629,-17.0377,-7.46436,89.138
2023-02-16 21:34:01:365,-1.22348,2.86304,-9.29903,-17.0468,-7.44374,89.1221
2023-02-16 21:34:01:375,-1.20803,2.88604,-9.29014,-17.0565,-7.42225,89.1067
2023-02-16 21:34:01:385,-1.20561,2.88194,-9.28153,-17.0632,-7.40082,89.095
2023-02-16 21:34:01:395,-1.19981,2.89011,-9.27295,-17.0719,-7.37742,89.0821
2023-02-16 21:34:01:405,-1.18815,2.91269,-9.27766,-17.0786,-7.35204,89.074
2023-02-16 21:34:01:415,-1.1917,2.9288,-9.31884,-17.0855,-7.33125,89.0654
2023-02-16 21:34:01:425,-1.17521,2.92387,-9.33506,-17.088,-7.31077,89.0579
2023-02-16 21:34:01:435,-1.16553,2.92222,-9.31024,-17.0867,-7.29507,89.0484
2023-02-16 21:34:01:445,-1.16967,2.91831,-9.30799,-17.0873,-7.28058,89.0388
2023-02-16 21:34:01:455,-1.16292,2.90798,-9.32691,-17.0818,-7.27067,89.0277
2023-02-16 21:34:01:465,-1.1536,2.89079,-9.32229,-17.0725,-7.25889,89.0173
2023-02-16 21:34:01:475,-1.1426,2.87441,-9.29506,-17.0644,-7.25361,89.0079
2023-02-16 21:34:01:485,-1.11659,2.86639,-9.28596,-17.0566,-7.24496,89.0015
2023-02-16 21:34:01:495,-1.09584,2.86098,-9.32356,-17.0492,-7.23714,88.9945
2023-02-16 21:34:01:505,-1.09564,2.85748,-9.32054,-17.0416,-7.22895,88.9902
2023-02-16 21:34:01:515,-1.10035,2.85098,-9.31081,-17.0343,-7.22674,88.9884
2023-02-16 21:34:01:525,-1.11971,2.85898,-9.29003,-17.0259,-7.227,88.993
2023-02-16 21:34:01:535,-1.11679,2.84442,-9.277,-17.0211,-7.22697,88.9995
2023-02-16 21:34:01:545,-1.1352,2.83523,-9.26207,-17.0157,-7.2264,89.0074
2023-02-16 21:34:01:555,-1.15248,2.83717,-9.2477,-17.0135,-7.22593,89.0159
2023-02-16 21:34:01:565,-1.1733,2.84314,-9.25197,-17.013,-7.22621,89.0264
2023-02-16 21:34:01:575,-1.19343,2.84915,-9.27168,-17.0151,-7.22734,89.0393
2023-02-16 21:34:01:585,-1.21179,2.85097,-9.28521,-17.0094,-7.22877,89.0491
2023-02-16 21:34:01:595,-1.2215,2.84703,-9.27446,-17.0027,-7.23039,89.0551
2023-02-16 21:34:01:605,-1.22014,2.84646,-9.27633,-16.9991,-7.23433,89.0621
2023-02-16 21:34:01:615,-1.20403,2.85159,-9.26752,-16.9968,-7.23949,89.0645
2023-02-16 21:34:01:625,-1.19739,2.86204,-9.27462,-16.994,-7.24477,89.0666
2023-02-16 21:34:01:635,-1.18929,2.86661,-9.2852,-16.9875,-7.25097,89.0624
2023-02-16 21:34:01:645,-1.17712,2.86358,-9.27371,-16.982,-7.25617,89.0592
2023-02-16 21:34:01:655,-1.16707,2.85938,-9.27729,-16.9779,-7.25974,89.0574
2023-02-16 21:34:01:665,-1.15355,2.86633,-9.29182,-16.9759,-7.26323,89.0559
2023-02-16 21:34:01:675,-1.14799,2.87061,-9.31949,-16.9712,-7.26988,89.0579
2023-02-16 21:34:01:685,-1.12782,2.87479,-9.34009,-16.9613,-7.27599,89.064
2023-02-16 21:34:01:695,-1.13479,2.87851,-9.33428,-16.9539,-7.28062,89.0697
2023-02-16 21:34:01:705,-1.1784,2.87953,-9.33561,-16.9426,-7.28024,89.0775
2023-02-16 21:34:01:715,-1.1867,2.8679,-9.3043,-16.9313,-7.28112,89.0877
2023-02-16 21:34:01:725,-1.19472,2.8543,-9.29012,-16.9165,-7.2842,89.099
2023-02-16 21:34:01:735,-1.20352,2.83184,-9.29177,-16.902,-7.2895,89.1074
2023-02-16 21:34:01:745,-1.20523,2.81989,-9.24957,-16.8836,-7.29372,89.1165
2023-02-16 21:34:01:755,-1.21848,2.79852,-9.25493,-16.8724,-7.30156,89.1234
2023-02-16 21:34:01:765,-1.22548,2.81706,-9.29415,-16.8606,-7.31001,89.1306
2023-02-16 21:34:01:775,-1.20887,2.83378,-9.35105,-16.849,-7.31938,89.1325
2023-02-16 21:34:01:785,-1.15963,2.83471,-9.35823,-16.8332,-7.32778,89.1345
2023-02-16 21:34:01:795,-1.12555,2.79447,-9.32852,-16.8165,-7.34485,89.136
2023-02-16 21:34:01:805,-1.11617,2.75855,-9.2769,-16.8045,-7.36686,89.143
2023-02-16 21:34:01:815,-1.14339,2.76731,-9.26343,-16.7972,-7.39316,89.1503
2023-02-16 21:34:01:825,-1.18497,2.78852,-9.2442,-16.7942,-7.416,89.1656
2023-02-16 21:34:01:835,-1.23521,2.78975,-9.20675,-16.7967,-7.43884,89.1867
2023-02-16 21:34:01:845,-1.26733,2.80706,-9.18613,-16.8038,-7.45787,89.21
2023-02-16 21:34:01:855,-1.29392,2.84475,-9.2138,-16.8118,-7.47115,89.2388
2023-02-16 21:34:01:865,-1.31585,2.85595,-9.24609,-16.8186,-7.4855,89.2675
2023-02-16 21:34:01:875,-1.36309,2.86285,-9.2432,-16.8221,-7.49612,89.2973
2023-02-16 21:34:01:885,-1.39689,2.86023,-9.23788,-16.8243,-7.50323,89.3235
2023-02-16 21:34:01:895,-1.39893,2.86665,-9.23611,-16.827,-7.50963,89.3438
2023-02-16 21:34:01:905,-1.40222,2.86624,-9.24735,-16.8288,-7.5151,89.3606
2023-02-16 21:34:01:915,-1.39964,2.85407,-9.25649,-16.8279,-7.51831,89.3748
2023-02-16 21:34:01:925,-1.39039,2.84028,-9.25782,-16.8261,-7.52089,89.378
2023-02-16 21:34:01:935,-1.37798,2.83995,-9.26427,-16.8241,-7.5208,89.3793
2023-02-16 21:34:01:945,-1.35061,2.83709,-9.26359,-16.8237,-7.52414,89.3746
2023-02-16 21:34:01:955,-1.31489,2.83307,-9.28691,-16.8256,-7.52427,89.3648
2023-02-16 21:34:01:965,-1.28774,2.82821,-9.27467,-16.8254,-7.52856,89.3528
2023-02-16 21:34:01:975,-1.28792,2.82094,-9.24988,-16.832,-7.53238,89.3425
2023-02-16 21:34:01:985,-1.30418,2.84923,-9.27193,-16.8363,-7.53594,89.3319
2023-02-16 21:34:01:995,-1.29474,2.86488,-9.33224,-16.8405,-7.53138,89.3207
2023-02-16 21:34:02:5,-1.27393,2.8705,-9.35237,-16.8419,-7.52696,89.31
2023-02-16 21:34:02:15,-1.23669,2.85368,-9.33239,-16.8404,-7.5197,89.2986
2023-02-16 21:34:02:25,-1.22705,2.82182,-9.30595,-16.8325,-7.51259,89.2921
2023-02-16 21:34:02:35,-1.25005,2.82634,-9.28065,-16.8273,-7.50737,89.2832
2023-02-16 21:34:02:45,-1.24587,2.81215,-9.25944,-16.8226,-7.4989,89.2725
2023-02-16 21:34:02:55,-1.26431,2.79018,-9.24876,-16.8152,-7.4923,89.2626
2023-02-16 21:34:02:65,-1.26852,2.77531,-9.24288,-16.8117,-7.48781,89.253
2023-02-16 21:34:02:75,-1.25539,2.77977,-9.24733,-16.8097,-7.48155,89.2398
2023-02-16 21:34:02:85,-1.22193,2.79059,-9.24904,-16.8132,-7.47818,89.2281
2023-02-16 21:34:02:95,-1.2228,2.80455,-9.26858,-16.8157,-7.47371,89.2133
2023-02-16 21:34:02:105,-1.226,2.82658,-9.29162,-16.8191,-7.472,89.205
2023-02-16 21:34:02:115,-1.21543,2.8309,-9.2825,-16.8218,-7.46949,89.1951
2023-02-16 21:34:02:125,-1.19021,2.82732,-9.30158,-16.8215,-7.46752,89.1864
2023-02-16 21:34:02:135,-1.18388,2.83997,-9.31517,-16.8223,-7.46622,89.1795
2023-02-16 21:34:02:145,-1.18192,2.84782,-9.31548,-16.8221,-7.46629,89.1738
2023-02-16 21:34:02:155,-1.1796,2.82966,-9.30024,-16.818,-7.46751,89.1739
2023-02-16 21:34:02:165,-1.19734,2.82058,-9.28101,-16.8125,-7.46748,89.1749
2023-02-16 21:34:02:175,-1.21193,2.8115,-9.28285,-16.8063,-7.46749,89.1775
2023-02-16 21:34:02:185,-1.21982,2.79906,-9.30429,-16.8062,-7.47296,89.1836
2023-02-16 21:34:02:195,-1.21926,2.81552,-9.30283,-16.8071,-7.47649,89.1899
2023-02-16 21:34:02:205,-1.23881,2.80139,-9.29339,-16.8079,-7.48207,89.1972
2023-02-16 21:34:02:215,-1.25177,2.80508,-9.28151,-16.8075,-7.48615,89.2006
2023-02-16 21:34:02:225,-1.26227,2.82843,-9.29985,-16.8076,-7.49126,89.207
2023-02-16 21:34:02:235,-1.28926,2.83215,-9.31396,-16.8048,-7.49604,89.2116
2023-02-16 21:34:02:245,-1.31092,2.83785,-9.31165,-16.7968,-7.50227,89.2184
2023-02-16 21:34:02:255,-1.32293,2.82774,-9.29232,-16.7915,-7.50651,89.223
2023-02-16 21:34:02:265,-1.32792,2.80225,-9.26982,-16.7844,-7.51206,89.2224
2023-02-16 21:34:02:275,-1.31315,2.79387,-9.27148,-16.7779,-7.50887,89.2211
2023-02-16 21:34:02:285,-1.28953,2.79087,-9.26577,-16.7745,-7.50872,89.2189
2023-02-16 21:34:02:295,-1.27908,2.78507,-9.24953,-16.7674,-7.50724,89.2147
2023-02-16 21:34:02:305,-1.26098,2.7775,-9.24425,-16.7659,-7.50518,89.2103
2023-02-16 21:34:02:315,-1.24933,2.79064,-9.26707,-16.7631,-7.50352,89.2047
2023-02-16 21:34:02:325,-1.24494,2.80835,-9.28895,-16.7644,-7.50214,89.197
2023-02-16 21:34:02:335,-1.24541,2.80973,-9.28684,-16.7626,-7.50386,89.1911
2023-02-16 21:34:02:345,-1.21996,2.79647,-9.28201,-16.7603,-7.50553,89.1859
2023-02-16 21:34:02:355,-1.21146,2.79311,-9.31285,-16.758,-7.50821,89.1841
2023-02-16 21:34:02:365,-1.20168,2.81646,-9.33173,-16.7562,-7.50717,89.1796
2023-02-16 21:34:02:375,-1.23008,2.82064,-9.31855,-16.7537,-7.50998,89.1813
2023-02-16 21:34:02:385,-1.24838,2.79921,-9.29869,-16.7483,-7.51112,89.1842
2023-02-16 21:34:02:395,-1.25154,2.78735,-9.26768,-16.7403,-7.51517,89.1862
2023-02-16 21:34:02:405,-1.27613,2.77785,-9.25033,-16.7354,-7.51425,89.1949
2023-02-16 21:34:02:415,-1.29832,2.77825,-9.23906,-16.7341,-7.51279,89.2028
2023-02-16 21:34:02:425,-1.31456,2.77083,-9.23236,-16.7319,-7.5092,89.2093
2023-02-16 21:34:02:435,-1.35486,2.78265,-9.25708,-16.7303,-7.50634,89.2148
2023-02-16 21:34:02:445,-1.36405,2.80932,-9.29169,-16.7265,-7.49862,89.2135
2023-02-16 21:34:02:455,-1.34983,2.81438,-9.31118,-16.723,-7.49283,89.2086
2023-02-16 21:34:02:465,-1.3398,2.79904,-9.30569,-16.7133,-7.48104,89.1967
2023-02-16 21:34:02:475,-1.31611,2.77435,-9.27627,-16.7054,-7.47742,89.1858
2023-02-16 21:34:02:485,-1.30238,2.75893,-9.23844,-16.6963,-7.47436,89.1686
2023-02-16 21:34:02:495,-1.31426,2.74943,-9.2648,-16.6878,-7.46938,89.1482
2023-02-16 21:34:02:505,-1.30152,2.75348,-9.31162,-16.6823,-7.46472,89.1222
2023-02-16 21:34:02:515,-1.26256,2.76641,-9.34034,-16.6761,-7.45644,89.0882
2023-02-16 21:34:02:525,-1.19287,2.74738,-9.31776,-16.6655,-7.44929,89.0518
2023-02-16 21:34:02:535,-1.16086,2.72176,-9.29573,-16.6581,-7.44557,89.0124
2023-02-16 21:34:02:545,-1.149,2.74082,-9.30844,-16.6543,-7.43799,88.9799
2023-02-16 21:34:02:555,-1.13896,2.75292,-9.29862,-16.6528,-7.43172,88.9506
2023-02-16 21:34:02:565,-1.13347,2.75803,-9.2923,-16.6543,-7.42713,88.9213
2023-02-16 21:34:02:575,-1.11836,2.77005,-9.29373,-16.6567,-7.41467,88.8961
2023-02-16 21:34:02:585,-1.11684,2.78142,-9.27482,-16.6581,-7.4055,88.8737
2023-02-16 21:34:02:595,-1.11842,2.77154,-9.25706,-16.6616,-7.39612,88.8538
2023-02-16 21:34:02:605,-1.11435,2.77668,-9.25607,-16.6639,-7.38761,88.8369
2023-02-16 21:34:02:615,-1.12962,2.77501,-9.25712,-16.6672,-7.38431,88.8235
2023-02-16 21:34:02:625,-1.13988,2.75272,-9.23739,-16.6707,-7.37902,88.811
2023-02-16 21:34:02:635,-1.1384,2.73387,-9.22831,-16.6752,-7.37303,88.8037
2023-02-16 21:34:02:645,-1.13049,2.71534,-9.23998,-16.6817,-7.36785,88.8001
2023-02-16 21:34:02:655,-1.14054,2.71413,-9.25156,-16.6867,-7.36396,88.7947
2023-02-16 21:34:02:665,-1.15042,2.7235,-9.26253,-16.699,-7.36192,88.7889
2023-02-16 21:34:02:675,-1.16901,2.73226,-9.26847,-16.7181,-7.36276,88.789
2023-02-16 21:34:02:685,-1.18075,2.74378,-9.29154,-16.7398,-7.36211,88.7903
2023-02-16 21:34:02:695,-1.18879,2.77492,-9.33901,-16.7581,-7.36314,88.7919
2023-02-16 21:34:02:705,-1.19063,2.80011,-9.30494,-16.7758,-7.36597,88.7933
2023-02-16 21:34:02:715,-1.20365,2.79811,-9.2725,-16.7963,-7.36728,88.7998
2023-02-16 21:34:02:725,-1.21975,2.80776,-9.29908,-16.8195,-7.36657,88.8059
2023-02-16 21:34:02:735,-1.21163,2.83533,-9.33111,-16.8409,-7.36183,88.8111
2023-02-16 21:34:02:745,-1.17044,2.83941,-9.31534,-16.8614,-7.36194,88.8127
2023-02-16 21:34:02:755,-1.1396,2.82367,-9.247,-16.8793,-7.36469,88.813
2023-02-16 21:34:02:765,-1.14955,2.79473,-9.23612,-16.8978,-7.37067,88.817
2023-02-16 21:34:02:775,-1.16244,2.82665,-9.25562,-16.9214,-7.38042,88.8224
2023-02-16 21:34:02:785,-1.19796,2.83795,-9.26277,-16.9493,-7.38963,88.836
2023-02-16 21:34:02:795,-1.20724,2.84218,-9.25466,-16.9742,-7.39691,88.8464
2023-02-16 21:34:02:805,-1.19532,2.85777,-9.28173,-17.0034,-7.40508,88.8578
2023-02-16 21:34:02:815,-1.20564,2.88509,-9.29451,-17.0317,-7.41269,88.8692
2023-02-16 21:34:02:825,-1.2199,2.89852,-9.30895,-17.056,-7.41823,88.8825
2023-02-16 21:34:02:835,-1.25144,2.92471,-9.29974,-17.0787,-7.4242,88.8953
2023-02-16 21:34:02:845,-1.27513,2.9337,-9.28656,-17.0997,-7.4254,88.9074
2023-02-16 21:34:02:855,-1.27228,2.93455,-9.2801,-17.1213,-7.42832,88.9205
2023-02-16 21:34:02:865,-1.28888,2.93635,-9.28464,-17.1385,-7.43176,88.9301
2023-02-16 21:34:02:875,-1.29754,2.93615,-9.26864,-17.1554,-7.43496,88.9387
2023-02-16 21:34:02:885,-1.28722,2.93837,-9.24239,-17.1682,-7.43481,88.9404
2023-02-16 21:34:02:895,-1.27213,2.94536,-9.24079,-17.1814,-7.44069,88.9425
2023-02-16 21:34:02:905,-1.24924,2.92662,-9.27088,-17.1928,-7.44832,88.9395
2023-02-16 21:34:02:915,-1.21308,2.92643,-9.27645,-17.2082,-7.45959,88.9362
2023-02-16 21:34:02:925,-1.19189,2.94422,-9.28918,-17.2201,-7.47468,88.9312
2023-02-16 21:34:02:935,-1.193,2.93551,-9.29513,-17.2326,-7.49099,88.9278
2023-02-16 21:34:02:945,-1.172,2.91676,-9.26491,-17.2477,-7.511,88.9282
2023-02-16 21:34:02:955,-1.14273,2.90246,-9.24412,-17.2667,-7.531,88.9329
2023-02-16 21:34:02:965,-1.14735,2.89856,-9.24124,-17.2843,-7.55586,88.943
2023-02-16 21:34:02:975,-1.16,2.90747,-9.23864,-17.3055,-7.57641,88.9623
2023-02-16 21:34:02:985,-1.16609,2.90952,-9.20092,-17.3314,-7.59547,88.9894
2023-02-16 21:34:02:995,-1.16911,2.9118,-9.23719,-17.355,-7.61567,89.0189
2023-02-16 21:34:03:5,-1.22532,2.93968,-9.26734,-17.378,-7.63716,89.0579
2023-02-16 21:34:03:15,-1.28571,2.92783,-9.22079,-17.3982,-7.65557,89.1023
2023-02-16 21:34:03:25,-1.31222,2.90956,-9.18796,-17.4247,-7.67378,89.1481
2023-02-16 21:34:03:35,-1.339,2.9144,-9.20248,-17.4528,-7.68962,89.1991
2023-02-16 21:34:03:45,-1.40188,2.95138,-9.27935,-17.4752,-7.7078,89.2445
2023-02-16 21:34:03:55,-1.47859,2.98377,-9.33658,-17.4948,-7.72375,89.2898
2023-02-16 21:34:03:65,-1.56387,2.97444,-9.31487,-17.5097,-7.73998,89.3298
2023-02-16 21:34:03:75,-1.63475,2.97651,-9.25132,-17.5202,-7.75213,89.3605
2023-02-16 21:34:03:85,-1.5877,2.95845,-9.27802,-17.5255,-7.75275,89.3801
2023-02-16 21:34:03:95,-1.52529,3.08247,-9.42521,-17.5195,-7.74205,89.3844
2023-02-16 21:34:03:105,-1.43204,2.9823,-9.18716,-17.5035,-7.71336,89.3867
2023-02-16 21:34:03:115,-1.36146,2.92474,-9.08754,-17.4948,-7.68279,89.3793
2023-02-16 21:34:03:125,-1.38206,3.07783,-9.29805,-17.4896,-7.66108,89.372
2023-02-16 21:34:03:135,-1.38854,3.1725,-9.4654,-17.4742,-7.64047,89.3617
2023-02-16 21:34:03:145,-1.37373,3.13863,-9.46059,-17.4411,-7.61978,89.3412
2023-02-16 21:34:03:155,-1.2613,3.0432,-9.36731,-17.4066,-7.59889,89.3127
2023-02-16 21:34:03:165,-1.16981,3.0054,-9.30461,-17.3682,-7.57709,89.2864
2023-02-16 21:34:03:175,-1.15848,2.94526,-9.20436,-17.3268,-7.55951,89.2625
2023-02-16 21:34:03:185,-1.15554,2.90014,-9.15977,-17.2952,-7.55139,89.24
2023-02-16 21:34:03:195,-1.18002,2.94074,-9.23827,-17.2718,-7.55243,89.2199
2023-02-16 21:34:03:205,-1.19996,2.95554,-9.30193,-17.2426,-7.55578,89.1998
2023-02-16 21:34:03:215,-1.18479,2.94438,-9.31656,-17.2136,-7.56061,89.1778
2023-02-16 21:34:03:225,-1.17157,2.91771,-9.31283,-17.1794,-7.57509,89.1573
2023-02-16 21:34:03:235,-1.15509,2.89989,-9.30577,-17.1484,-7.59386,89.1371
2023-02-16 21:34:03:245,-1.15627,2.88339,-9.27353,-17.1165,-7.61951,89.1228
2023-02-16 21:34:03:255,-1.17765,2.84769,-9.2134,-17.0879,-7.64541,89.1148
2023-02-16 21:34:03:265,-1.21164,2.83843,-9.18558,-17.0668,-7.66865,89.1123
2023-02-16 21:34:03:275,-1.21592,2.82439,-9.16631,-17.0487,-7.68719,89.1158
2023-02-16 21:34:03:285,-1.22377,2.81451,-9.13769,-17.0355,-7.70377,89.1264
2023-02-16 21:34:03:295,-1.28126,2.8322,-9.14189,-17.0302,-7.71881,89.1416
2023-02-16 21:34:03:305,-1.35386,2.85871,-9.1827,-17.0213,-7.73238,89.1601
2023-02-16 21:34:03:315,-1.40302,2.8669,-9.17801,-17.0123,-7.74125,89.18
2023-02-16 21:34:03:325,-1.41956,2.83813,-9.17607,-17.0011,-7.74393,89.1958
2023-02-16 21:34:03:335,-1.42268,2.84482,-9.20187,-16.9938,-7.74602,89.2094
2023-02-16 21:34:03:345,-1.43923,2.85522,-9.23422,-16.9836,-7.74861,89.2205
2023-02-16 21:34:03:355,-1.44416,2.846,-9.26633,-16.9767,-7.7502,89.2303
2023-02-16 21:34:03:365,-1.43207,2.83481,-9.27281,-16.9641,-7.75193,89.23
2023-02-16 21:34:03:375,-1.40391,2.82683,-9.26861,-16.9559,-7.74933,89.2278
2023-02-16 21:34:03:385,-1.3813,2.82782,-9.25635,-16.9474,-7.74874,89.2241
2023-02-16 21:34:03:395,-1.33372,2.82321,-9.25374,-16.9399,-7.7489,89.2113
2023-02-16 21:34:03:405,-1.30207,2.81398,-9.26668,-16.9382,-7.74856,89.1989
2023-02-16 21:34:03:415,-1.31033,2.81949,-9.29097,-16.9343,-7.74722,89.1893
2023-02-16 21:34:03:425,-1.31093,2.84251,-9.30958,-16.9313,-7.74533,89.1784
2023-02-16 21:34:03:435,-1.30639,2.83624,-9.33281,-16.9219,-7.7392,89.168
2023-02-16 21:34:03:445,-1.26798,2.83468,-9.35016,-16.9103,-7.7366,89.1541
2023-02-16 21:34:03:455,-1.24227,2.79902,-9.32948,-16.8937,-7.73505,89.1428
2023-02-16 21:34:03:465,-1.26113,2.76933,-9.24886,-16.8776,-7.73592,89.1342
2023-02-16 21:34:03:475,-1.27323,2.74485,-9.22111,-16.8643,-7.7343,89.1228
2023-02-16 21:34:03:485,-1.27087,2.7252,-9.23289,-16.8565,-7.73371,89.1154
2023-02-16 21:34:03:495,-1.26946,2.74297,-9.26674,-16.8522,-7.73376,89.1086
2023-02-16 21:34:03:505,-1.26557,2.77566,-9.31175,-16.8454,-7.72999,89.1064
2023-02-16 21:34:03:515,-1.27049,2.80007,-9.34704,-16.8399,-7.73028,89.1043
2023-02-16 21:34:03:525,-1.29623,2.82069,-9.35321,-16.8318,-7.73129,89.1049
2023-02-16 21:34:03:535,-1.33078,2.82081,-9.32631,-16.8224,-7.73107,89.1022
2023-02-16 21:34:03:545,-1.35955,2.82713,-9.28538,-16.8081,-7.73223,89.0989
2023-02-16 21:34:03:555,-1.36612,2.83725,-9.27279,-16.7908,-7.73346,89.0927
2023-02-16 21:34:03:565,-1.36511,2.81246,-9.24297,-16.7715,-7.73892,89.0817
2023-02-16 21:34:03:575,-1.35977,2.78958,-9.23698,-16.7557,-7.74096,89.0668
2023-02-16 21:34:03:585,-1.33772,2.79202,-9.24429,-16.7477,-7.7434,89.0517
2023-02-16 21:34:03:595,-1.31265,2.77643,-9.23993,-16.7374,-7.74659,89.0328
2023-02-16 21:34:03:605,-1.28309,2.76455,-9.25405,-16.7274,-7.74576,89.0157
2023-02-16 21:34:03:615,-1.25582,2.75923,-9.28069,-16.7213,-7.74295,88.9977
2023-02-16 21:34:03:625,-1.23585,2.76751,-9.24725,-16.7142,-7.74216,88.9841
2023-02-16 21:34:03:635,-1.22293,2.75446,-9.21893,-16.7143,-7.73696,88.9714
2023-02-16 21:34:03:645,-1.2006,2.76032,-9.24003,-16.7156,-7.72981,88.9621
2023-02-16 21:34:03:655,-1.19488,2.77313,-9.30434,-16.7193,-7.72438,88.9599
2023-02-16 21:34:03:665,-1.23045,2.81341,-9.34987,-16.7217,-7.71612,88.9576
2023-02-16 21:34:03:675,-1.25879,2.81499,-9.34121,-16.7205,-7.71119,88.9606
2023-02-16 21:34:03:685,-1.26858,2.81001,-9.31033,-16.7142,-7.70397,88.9665
2023-02-16 21:34:03:695,-1.27334,2.81299,-9.30851,-16.7132,-7.69518,88.9732
2023-02-16 21:34:03:705,-1.29797,2.80175,-9.29886,-16.7104,-7.68984,88.9761
2023-02-16 21:34:03:715,-1.31993,2.79336,-9.27407,-16.7048,-7.68543,88.9807
2023-02-16 21:34:03:725,-1.31064,2.79169,-9.28188,-16.7005,-7.68232,88.9793
2023-02-16 21:34:03:735,-1.3034,2.80427,-9.31472,-16.6973,-7.68129,88.9745
2023-02-16 21:34:03:745,-1.29468,2.81827,-9.31959,-16.6911,-7.67983,88.9723
2023-02-16 21:34:03:755,-1.28046,2.81197,-9.29536,-16.6815,-7.67883,88.9694
2023-02-16 21:34:03:765,-1.29441,2.78661,-9.28787,-16.6749,-7.68026,88.9652
2023-02-16 21:34:03:775,-1.28233,2.78195,-9.27856,-16.666,-7.68068,88.9579
2023-02-16 21:34:03:785,-1.27244,2.79487,-9.25721,-16.6629,-7.68138,88.9526
2023-02-16 21:34:03:795,-1.26929,2.79045,-9.23694,-16.6589,-7.67779,88.9452
2023-02-16 21:34:03:805,-1.25403,2.77188,-9.24561,-16.6607,-7.6757,88.9391
2023-02-16 21:34:03:815,-1.24266,2.78932,-9.2816,-16.6598,-7.66606,88.9371
2023-02-16 21:34:03:825,-1.27753,2.81265,-9.31049,-16.659,-7.65786,88.9387
2023-02-16 21:34:03:835,-1.27148,2.79856,-9.29904,-16.658,-7.64614,88.9377
2023-02-16 21:34:03:845,-1.24227,2.78987,-9.30433,-16.6549,-7.63379,88.936
2023-02-16 21:34:03:855,-1.22659,2.78261,-9.3,-16.6467,-7.61954,88.9367
2023-02-16 21:34:03:865,-1.2341,2.77121,-9.30253,-16.6402,-7.60783,88.9398
2023-02-16 21:34:03:875,-1.23739,2.77145,-9.30153,-16.6347,-7.60012,88.9394
2023-02-16 21:34:03:885,-1.22314,2.76211,-9.32874,-16.6257,-7.59283,88.9382
2023-02-16 21:34:03:895,-1.19832,2.76144,-9.33329,-16.6166,-7.58566,88.9381
2023-02-16 21:34:03:905,-1.17515,2.7446,-9.31454,-16.6083,-7.58098,88.9384
2023-02-16 21:34:03:915,-1.15222,2.72067,-9.30102,-16.6026,-7.58522,88.938
2023-02-16 21:34:03:925,-1.15443,2.70369,-9.28834,-16.5977,-7.59434,88.9441
2023-02-16 21:34:03:935,-1.18348,2.69882,-9.27235,-16.5965,-7.60464,88.9527
2023-02-16 21:34:03:945,-1.21997,2.73287,-9.27352,-16.6002,-7.61514,88.9626
2023-02-16 21:34:03:955,-1.2623,2.76156,-9.28475,-16.605,-7.62632,88.9788
2023-02-16 21:34:03:965,-1.28284,2.787,-9.28977,-16.6098,-7.63981,88.9944
2023-02-16 21:34:03:975,-1.29431,2.82164,-9.29972,-16.6185,-7.64912,89.0085
2023-02-16 21:34:03:985,-1.30165,2.83831,-9.29995,-16.6235,-7.65847,89.0228
2023-02-16 21:34:03:995,-1.31791,2.83919,-9.26732,-16.6253,-7.66119,89.0374
2023-02-16 21:34:04:5,-1.32207,2.81712,-9.23933,-16.6311,-7.66649,89.0497
2023-02-16 21:34:04:15,-1.33324,2.82408,-9.20939,-16.637,-7.67424,89.0641
2023-02-16 21:34:04:25,-1.35173,2.82545,-9.20783,-16.6438,-7.68033,89.0786
2023-02-16 21:34:04:35,-1.34913,2.83489,-9.24068,-16.6487,-7.6863,89.0849
2023-02-16 21:34:04:45,-1.34422,2.8386,-9.27013,-16.6505,-7.69296,89.0906
2023-02-16 21:34:04:55,-1.34101,2.8386,-9.27025,-16.6581,-7.69963,89.0977
2023-02-16 21:34:04:65,-1.33552,2.8462,-9.28227,-16.6718,-7.70453,89.1044
2023-02-16 21:34:04:75,-1.32377,2.88606,-9.29161,-16.6851,-7.71028,89.1155
2023-02-16 21:34:04:85,-1.34789,2.92381,-9.31257,-16.6991,-7.71454,89.1239
2023-02-16 21:34:04:95,-1.38118,2.93841,-9.29939,-16.7093,-7.71877,89.1328
2023-02-16 21:34:04:105,-1.39328,2.94418,-9.30951,-16.7179,-7.72167,89.1394
2023-02-16 21:34:04:115,-1.36752,2.95185,-9.3448,-16.7217,-7.71975,89.147
2023-02-16 21:34:04:125,-1.34079,2.97721,-9.37434,-16.7265,-7.72249,89.1529
2023-02-16 21:34:04:135,-1.34018,2.98427,-9.36238,-16.7294,-7.72668,89.1591
2023-02-16 21:34:04:145,-1.35992,2.97061,-9.3444,-16.7276,-7.73241,89.1677
2023-02-16 21:34:04:155,-1.41898,2.97306,-9.3464,-16.7208,-7.73556,89.1751
2023-02-16 21:34:04:165,-1.46664,2.9705,-9.32259,-16.7062,-7.74179,89.1813
2023-02-16 21:34:04:175,-1.49409,2.93119,-9.28202,-16.6816,-7.7443,89.1787
2023-02-16 21:34:04:185,-1.45979,2.90375,-9.25668,-16.6585,-7.74483,89.1727
2023-02-16 21:34:04:195,-1.39028,2.89372,-9.24112,-16.6326,-7.74384,89.1561
2023-02-16 21:34:04:205,-1.31807,2.89004,-9.25541,-16.6124,-7.73989,89.1358
2023-02-16 21:34:04:215,-1.26595,2.89536,-9.29461,-16.5901,-7.73755,89.1133
2023-02-16 21:34:04:225,-1.23691,2.92391,-9.35771,-16.5726,-7.73382,89.0966
2023-02-16 21:34:04:235,-1.22483,2.92905,-9.45078,-16.5467,-7.72976,89.0829
2023-02-16 21:34:04:245,-1.21633,2.92247,-9.49288,-16.5163,-7.72577,89.0693
2023-02-16 21:34:04:255,-1.21276,2.87776,-9.44871,-16.4723,-7.71606,89.0578
2023-02-16 21:34:04:265,-1.17699,2.80455,-9.35928,-16.4245,-7.70318,89.0529
2023-02-16 21:34:04:275,-1.14579,2.7381,-9.28671,-16.3766,-7.69228,89.0505
2023-02-16 21:34:04:285,-1.15988,2.69896,-9.27744,-16.327,-7.68154,89.0481
2023-02-16 21:34:04:295,-1.18804,2.66054,-9.2897,-16.2819,-7.67924,89.0466
2023-02-16 21:34:04:305,-1.19739,2.58854,-9.31018,-16.2345,-7.6807,89.0465
2023-02-16 21:34:04:315,-1.20624,2.5559,-9.32599,-16.1873,-7.69021,89.0405
2023-02-16 21:34:04:325,-1.23445,2.53913,-9.30635,-16.1436,-7.70201,89.0367
2023-02-16 21:34:04:335,-1.28874,2.49169,-9.2484,-16.0975,-7.71447,89.0286
2023-02-16 21:34:04:345,-1.32281,2.46028,-9.20293,-16.0567,-7.7254,89.0177
2023-02-16 21:34:04:355,-1.33274,2.46291,-9.18474,-16.0189,-7.73679,89.0008
2023-02-16 21:34:04:365,-1.33444,2.45966,-9.18925,-15.9921,-7.74193,88.9837
2023-02-16 21:34:04:375,-1.315,2.45448,-9.20728,-15.9694,-7.74323,88.9631
2023-02-16 21:34:04:385,-1.30945,2.43091,-9.22816,-15.9517,-7.7402,88.94
2023-02-16 21:34:04:395,-1.29998,2.42893,-9.23563,-15.9384,-7.73134,88.9112
2023-02-16 21:34:04:405,-1.29842,2.42261,-9.21387,-15.926,-7.72293,88.8871
2023-02-16 21:34:04:415,-1.28908,2.43754,-9.22264,-15.9222,-7.70639,88.8557
2023-02-16 21:34:04:425,-1.26165,2.46215,-9.24488,-15.9231,-7.68482,88.8226
2023-02-16 21:34:04:435,-1.23243,2.48703,-9.24288,-15.927,-7.66456,88.7886
2023-02-16 21:34:04:445,-1.21827,2.49601,-9.23358,-15.9356,-7.64747,88.7495
2023-02-16 21:34:04:455,-1.19767,2.52103,-9.2542,-15.9495,-7.63026,88.7064
2023-02-16 21:34:04:465,-1.18151,2.54576,-9.30141,-15.9673,-7.61558,88.6682
2023-02-16 21:34:04:475,-1.15844,2.5789,-9.34037,-15.9893,-7.60567,88.6319
2023-02-16 21:34:04:485,-1.18086,2.61456,-9.37229,-16.0096,-7.60017,88.5943
2023-02-16 21:34:04:495,-1.19434,2.6208,-9.36349,-16.0319,-7.59978,88.5621
2023-02-16 21:34:04:505,-1.1643,2.62948,-9.38317,-16.05,-7.59395,88.5264
2023-02-16 21:34:04:515,-1.15933,2.6398,-9.37539,-16.0681,-7.58784,88.4974
2023-02-16 21:34:04:525,-1.18725,2.67107,-9.39441,-16.089,-7.57858,88.4765
2023-02-16 21:34:04:535,-1.22108,2.6931,-9.39442,-16.1052,-7.56423,88.4588
2023-02-16 21:34:04:545,-1.23434,2.6861,-9.35513,-16.1233,-7.55016,88.4488
2023-02-16 21:34:04:555,-1.23965,2.70137,-9.31912,-16.1387,-7.53286,88.4419
2023-02-16 21:34:04:565,-1.25309,2.71797,-9.29641,-16.1548,-7.51258,88.4369
2023-02-16 21:34:04:575,-1.27929,2.72517,-9.28782,-16.17,-7.49318,88.4363
2023-02-16 21:34:04:585,-1.26772,2.72499,-9.28996,-16.181,-7.47032,88.4355
2023-02-16 21:34:04:595,-1.27332,2.75018,-9.3406,-16.1929,-7.4498,88.435
2023-02-16 21:34:04:605,-1.29353,2.77221,-9.40201,-16.201,-7.43329,88.4367
2023-02-16 21:34:04:615,-1.29102,2.7761,-9.41845,-16.2061,-7.42529,88.4341
2023-02-16 21:34:04:625,-1.30517,2.77998,-9.40299,-16.211,-7.41988,88.4327
2023-02-16 21:34:04:635,-1.32854,2.7788,-9.37766,-16.2104,-7.41832,88.4315
2023-02-16 21:34:04:645,-1.36138,2.78893,-9.36219,-16.208,-7.41433,88.4248
2023-02-16 21:34:04:655,-1.3717,2.78167,-9.32642,-16.2043,-7.41028,88.4124
2023-02-16 21:34:04:665,-1.3552,2.76209,-9.28762,-16.2045,-7.40314,88.3996
2023-02-16 21:34:04:675,-1.33861,2.77286,-9.27469,-16.2031,-7.39816,88.3843
2023-02-16 21:34:04:685,-1.32508,2.78837,-9.28125,-16.1978,-7.38663,88.3673
2023-02-16 21:34:04:695,-1.28794,2.75685,-9.25494,-16.1974,-7.37329,88.3431
2023-02-16 21:34:04:705,-1.24162,2.7621,-9.26276,-16.1928,-7.36035,88.3183
2023-02-16 21:34:04:715,-1.19802,2.76389,-9.27206,-16.1881,-7.34487,88.2939
2023-02-16 21:34:04:725,-1.15771,2.73691,-9.25936,-16.1836,-7.32484,88.2674
2023-02-16 21:34:04:735,-1.11697,2.70113,-9.27356,-16.181,-7.30773,88.2378
2023-02-16 21:34:04:745,-1.10229,2.71343,-9.3323,-16.1795,-7.29427,88.2129
2023-02-16 21:34:04:755,-1.07755,2.70622,-9.34412,-16.1779,-7.28383,88.1897
2023-02-16 21:34:04:765,-1.0281,2.67697,-9.31479,-16.1751,-7.27584,88.1708
2023-02-16 21:34:04:775,-1.00896,2.66431,-9.31444,-16.1793,-7.26825,88.1532
2023-02-16 21:34:04:785,-1.01935,2.68259,-9.32359,-16.1885,-7.26423,88.1471
2023-02-16 21:34:04:795,-1.05342,2.70325,-9.32463,-16.1997,-7.26804,88.1458
2023-02-16 21:34:04:805,-1.08762,2.71357,-9.30591,-16.2139,-7.27491,88.1494
2023-02-16 21:34:04:815,-1.13807,2.73893,-9.28863,-16.2266,-7.27992,88.1555
2023-02-16 21:34:04:825,-1.1771,2.75211,-9.32391,-16.2443,-7.28916,88.167
2023-02-16 21:34:04:835,-1.16795,2.77627,-9.37282,-16.2573,-7.29972,88.1748
2023-02-16 21:34:04:845,-1.17011,2.76943,-9.35411,-16.2654,-7.31559,88.1853
2023-02-16 21:34:04:855,-1.2025,2.74519,-9.31566,-16.2738,-7.33003,88.1991
2023-02-16 21:34:04:865,-1.22666,2.77103,-9.33137,-16.2844,-7.34658,88.2106
2023-02-16 21:34:04:875,-1.26364,2.7795,-9.33289,-16.2922,-7.36214,88.2231
2023-02-16 21:34:04:885,-1.28936,2.76676,-9.30967,-16.2992,-7.37854,88.2392
2023-02-16 21:34:04:895,-1.28615,2.78806,-9.31322,-16.309,-7.39412,88.2521
2023-02-16 21:34:04:905,-1.27347,2.79949,-9.29726,-16.3163,-7.40644,88.2615
2023-02-16 21:34:04:915,-1.27783,2.79568,-9.31368,-16.3227,-7.41761,88.2731
2023-02-16 21:34:04:925,-1.30395,2.81996,-9.34468,-16.3282,-7.42665,88.2861
2023-02-16 21:34:04:935,-1.31085,2.81739,-9.32302,-16.3295,-7.43643,88.2948
2023-02-16 21:34:04:945,-1.30716,2.78579,-9.26429,-16.3265,-7.44519,88.3035
2023-02-16 21:34:04:955,-1.28656,2.75194,-9.23578,-16.3206,-7.4553,88.3072
2023-02-16 21:34:04:965,-1.29598,2.744,-9.25633,-16.3199,-7.46334,88.3078
2023-02-16 21:34:04:975,-1.28641,2.73892,-9.27125,-16.3209,-7.47286,88.3109
2023-02-16 21:34:04:985,-1.22589,2.74125,-9.27409,-16.323,-7.47912,88.3081
2023-02-16 21:34:04:995,-1.18621,2.75289,-9.31596,-16.327,-7.48605,88.3062
2023-02-16 21:34:05:5,-1.18853,2.78444,-9.33045,-16.3299,-7.49721,88.3093
2023-02-16 21:34:05:15,-1.17288,2.75706,-9.32585,-16.333,-7.50873,88.3154
2023-02-16 21:34:05:25,-1.16931,2.76652,-9.34647,-16.3363,-7.52075,88.3246
2023-02-16 21:34:05:35,-1.20285,2.79895,-9.32957,-16.3437,-7.53444,88.3391
2023-02-16 21:34:05:45,-1.21329,2.78791,-9.31593,-16.3525,-7.54663,88.3593
2023-02-16 21:34:05:55,-1.21632,2.81832,-9.35273,-16.3593,-7.56031,88.3824
2023-02-16 21:34:05:65,-1.2539,2.84275,-9.34426,-16.3636,-7.57291,88.409
2023-02-16 21:34:05:75,-1.32623,2.80837,-9.2569,-16.3675,-7.58435,88.4366
2023-02-16 21:34:05:85,-1.34195,2.78743,-9.22555,-16.3723,-7.59625,88.4641
2023-02-16 21:34:05:95,-1.34693,2.80411,-9.27598,-16.3822,-7.61176,88.494
2023-02-16 21:34:05:105,-1.37601,2.83525,-9.34271,-16.3876,-7.62328,88.5201
2023-02-16 21:34:05:115,-1.41131,2.86339,-9.35158,-16.3918,-7.63137,88.5414
2023-02-16 21:34:05:125,-1.40563,2.84675,-9.32623,-16.3928,-7.64105,88.5589
2023-02-16 21:34:05:135,-1.3557,2.84919,-9.30428,-16.3901,-7.6494,88.5694
2023-02-16 21:34:05:145,-1.28485,2.85013,-9.24936,-16.3854,-7.65214,88.5742
2023-02-16 21:34:05:155,-1.21395,2.81665,-9.21738,-16.3864,-7.65079,88.5794
2023-02-16 21:34:05:165,-1.18549,2.8361,-9.22321,-16.3901,-7.65222,88.5875
2023-02-16 21:34:05:175,-1.18733,2.827,-9.19718,-16.4007,-7.65943,88.6036
2023-02-16 21:34:05:185,-1.13914,2.81231,-9.12002,-16.4127,-7.66524,88.6218
2023-02-16 21:34:05:195,-1.04787,2.84828,-9.17959,-16.4308,-7.66709,88.6458
2023-02-16 21:34:05:205,-1.07047,2.94219,-9.32988,-16.4475,-7.67466,88.6851
2023-02-16 21:34:05:215,-1.14502,2.94531,-9.33699,-16.4643,-7.68414,88.7351
2023-02-16 21:34:05:225,-1.206,2.92744,-9.32255,-16.4751,-7.69617,88.7911
2023-02-16 21:34:05:235,-1.25248,2.9563,-9.35086,-16.4813,-7.70467,88.8534
2023-02-16 21:34:05:245,-1.30824,2.92673,-9.33609,-16.4839,-7.71313,88.9185
2023-02-16 21:34:05:255,-1.40644,2.87354,-9.30363,-16.4811,-7.72737,88.9904
2023-02-16 21:34:05:265,-1.51824,2.85266,-9.33344,-16.4799,-7.74294,89.0599
2023-02-16 21:34:05:275,-1.59509,2.83819,-9.39546,-16.4731,-7.76103,89.1185
2023-02-16 21:34:05:285,-1.63319,2.78801,-9.4237,-16.4556,-7.77931,89.1656
2023-02-16 21:34:05:295,-1.64832,2.73904,-9.39011,-16.4371,-7.79717,89.2023
2023-02-16 21:34:05:305,-1.66197,2.69391,-9.31597,-16.4172,-7.81567,89.2257
2023-02-16 21:34:05:315,-1.66155,2.6316,-9.24635,-16.3924,-7.83266,89.2419
2023-02-16 21:34:05:325,-1.61997,2.59784,-9.20815,-16.3787,-7.84152,89.2485
2023-02-16 21:34:05:335,-1.5482,2.5708,-9.18466,-16.366,-7.84124,89.2431
2023-02-16 21:34:05:345,-1.49685,2.56134,-9.17703,-16.3589,-7.83606,89.2312
2023-02-16 21:34:05:355,-1.46474,2.56702,-9.17934,-16.3545,-7.82753,89.2139
2023-02-16 21:34:05:365,-1.44404,2.58124,-9.21835,-16.3562,-7.81699,89.1919
2023-02-16 21:34:05:375,-1.39098,2.62364,-9.29523,-16.3524,-7.79623,89.1677
2023-02-16 21:34:05:385,-1.36722,2.66899,-9.36218,-16.3427,-7.76608,89.1363
2023-02-16 21:34:05:395,-1.37153,2.63701,-9.34055,-16.319,-7.72808,89.1007
2023-02-16 21:34:05:405,-1.36695,2.55954,-9.21993,-16.2917,-7.68263,89.0561
2023-02-16 21:34:05:415,-1.32575,2.51678,-9.16342,-16.2684,-7.62957,88.9998
2023-02-16 21:34:05:425,-1.19958,2.50091,-9.20174,-16.2506,-7.57543,88.9322
2023-02-16 21:34:05:435,-1.05764,2.48433,-9.21767,-16.2354,-7.52077,88.8604
2023-02-16 21:34:05:445,-0.97652,2.51214,-9.29656,-16.2349,-7.46572,88.7894
2023-02-16 21:34:05:455,-0.910396,2.57417,-9.4176,-16.238,-7.42077,88.7161
2023-02-16 21:34:05:465,-0.82565,2.61265,-9.44342,-16.2408,-7.3864,88.6479
2023-02-16 21:34:05:475,-0.773713,2.61629,-9.40998,-16.2489,-7.35745,88.5891
2023-02-16 21:34:05:485,-0.749997,2.65196,-9.40253,-16.2624,-7.33742,88.5413
2023-02-16 21:34:05:495,-0.732914,2.7087,-9.42686,-16.2813,-7.32446,88.5042
2023-02-16 21:34:05:505,-0.732142,2.74583,-9.47639,-16.3025,-7.31818,88.482
2023-02-16 21:34:05:515,-0.75606,2.78344,-9.51472,-16.3161,-7.32672,88.4743
2023-02-16 21:34:05:525,-0.797476,2.80216,-9.49774,-16.3293,-7.34257,88.4833
2023-02-16 21:34:05:535,-0.898055,2.81547,-9.49214,-16.338,-7.36666,88.5069
2023-02-16 21:34:05:545,-1.03053,2.84766,-9.50999,-16.3382,-7.40572,88.5429
2023-02-16 21:34:05:555,-1.14485,2.84346,-9.49676,-16.337,-7.45379,88.5865
2023-02-16 21:34:05:565,-1.23745,2.83146,-9.45703,-16.3245,-7.50202,88.6334
2023-02-16 21:34:05:575,-1.31627,2.81966,-9.42271,-16.307,-7.54992,88.6841
2023-02-16 21:34:05:585,-1.39266,2.79311,-9.42088,-16.2829,-7.60169,88.7347
2023-02-16 21:34:05:595,-1.45769,2.7657,-9.39524,-16.2518,-7.64968,88.781
2023-02-16 21:34:05:605,-1.49059,2.73658,-9.33274,-16.2137,-7.69506,88.8201
2023-02-16 21:34:05:615,-1.5168,2.68483,-9.26607,-16.1759,-7.73592,88.8562
2023-02-16 21:34:05:625,-1.53991,2.65486,-9.24084,-16.1376,-7.77282,88.8901
2023-02-16 21:34:05:635,-1.52907,2.64615,-9.22825,-16.0996,-7.80159,88.9163
2023-02-16 21:34:05:645,-1.52339,2.62094,-9.23281,-16.0651,-7.82561,88.9335
2023-02-16 21:34:05:655,-1.51445,2.61571,-9.24691,-16.0293,-7.84818,88.945
2023-02-16 21:34:05:665,-1.48164,2.61193,-9.27085,-15.9958,-7.86827,88.9553
2023-02-16 21:34:05:675,-1.45434,2.58014,-9.28283,-15.9655,-7.87935,88.9586
2023-02-16 21:34:05:685,-1.42896,2.58366,-9.29637,-15.9322,-7.89406,88.9555
2023-02-16 21:34:05:695,-1.40228,2.57389,-9.29603,-15.9036,-7.90477,88.9511
2023-02-16 21:34:05:705,-1.38375,2.5607,-9.28155,-15.8784,-7.9171,88.9448
2023-02-16 21:34:05:715,-1.36899,2.54964,-9.26185,-15.855,-7.92264,88.9424
2023-02-16 21:34:05:725,-1.34594,2.55526,-9.25157,-15.8345,-7.92501,88.9365
2023-02-16 21:34:05:735,-1.31445,2.56564,-9.28003,-15.8142,-7.92465,88.9341
2023-02-16 21:34:05:745,-1.31518,2.57158,-9.29888,-15.8024,-7.92378,88.9312
2023-02-16 21:34:05:755,-1.31249,2.57454,-9.26906,-15.7885,-7.92133,88.927
2023-02-16 21:34:05:765,-1.29068,2.58352,-9.27039,-15.7809,-7.92281,88.9268
2023-02-16 21:34:05:775,-1.27727,2.59108,-9.29946,-15.778,-7.92178,88.9312
2023-02-16 21:34:05:785,-1.2712,2.59562,-9.30222,-15.7731,-7.92118,88.933
2023-02-16 21:34:05:795,-1.31014,2.58544,-9.27952,-15.7676,-7.9225,88.94
2023-02-16 21:34:05:805,-1.32465,2.5826,-9.2525,-15.7668,-7.92337,88.9456
2023-02-16 21:34:05:815,-1.3376,2.59161,-9.27911,-15.7714,-7.92682,88.9527
2023-02-16 21:34:05:825,-1.35744,2.59777,-9.26895,-15.7774,-7.93283,88.9609
2023-02-16 21:34:05:835,-1.36713,2.61661,-9.23753,-15.7842,-7.93663,88.9626
2023-02-16 21:34:05:845,-1.36679,2.61332,-9.22673,-15.797,-7.94494,88.9696
2023-02-16 21:34:05:855,-1.38381,2.62246,-9.24689,-15.8089,-7.95323,88.9698
2023-02-16 21:34:05:865,-1.41865,2.64323,-9.27487,-15.8249,-7.96187,88.9724
2023-02-16 21:34:05:875,-1.41734,2.66655,-9.29675,-15.8424,-7.97085,88.9715
2023-02-16 21:34:05:885,-1.39414,2.67805,-9.30362,-15.865,-7.9758,88.9672
2023-02-16 21:34:05:895,-1.38962,2.68444,-9.30735,-15.8836,-7.98021,88.957
2023-02-16 21:34:05:905,-1.35989,2.71024,-9.31064,-15.9026,-7.98505,88.9465
2023-02-16 21:34:05:915,-1.30479,2.70793,-9.3336,-15.92,-7.98699,88.9326
2023-02-16 21:34:05:925,-1.26753,2.71531,-9.33427,-15.9376,-7.98992,88.9225
2023-02-16 21:34:05:935,-1.25518,2.74317,-9.37138,-15.9574,-7.99401,88.911
2023-02-16 21:34:05:945,-1.22727,2.78188,-9.43696,-15.973,-7.99593,88.9078
2023-02-16 21:34:05:955,-1.21443,2.79927,-9.48035,-15.9804,-8.00072,88.9086
2023-02-16 21:34:05:965,-1.21244,2.78464,-9.48549,-15.9798,-8.00941,88.9142
2023-02-16 21:34:05:975,-1.24159,2.78217,-9.49231,-15.973,-8.0222,88.9264
2023-02-16 21:34:05:985,-1.287,2.76791,-9.46775,-15.9611,-8.03723,88.9432
2023-02-16 21:34:05:995,-1.30526,2.7368,-9.37294,-15.9492,-8.05569,88.9632
2023-02-16 21:34:06:5,-1.33039,2.71741,-9.31764,-15.9375,-8.06985,88.9895
2023-02-16 21:34:06:15,-1.3687,2.69755,-9.28361,-15.9215,-8.0835,89.016
2023-02-16 21:34:06:25,-1.38395,2.68862,-9.26507,-15.9128,-8.09796,89.0431
2023-02-16 21:34:06:35,-1.41015,2.69217,-9.30279,-15.9009,-8.10949,89.0732
2023-02-16 21:34:06:45,-1.45925,2.72378,-9.36867,-15.8872,-8.12459,89.1037
2023-02-16 21:34:06:55,-1.49447,2.7267,-9.32174,-15.8701,-8.13575,89.1313
2023-02-16 21:34:06:65,-1.50949,2.66592,-9.22892,-15.8549,-8.14529,89.156
2023-02-16 21:34:06:75,-1.49604,2.64901,-9.19724,-15.8371,-8.15478,89.1743
2023-02-16 21:34:06:85,-1.50136,2.66182,-9.2194,-15.8233,-8.16068,89.1894
2023-02-16 21:34:06:95,-1.49329,2.65278,-9.2601,-15.8113,-8.16869,89.1988
2023-02-16 21:34:06:105,-1.45559,2.65268,-9.30667,-15.8027,-8.17485,89.2065
2023-02-16 21:34:06:115,-1.41649,2.66989,-9.32242,-15.7932,-8.17988,89.2122
2023-02-16 21:34:06:125,-1.3941,2.66968,-9.33986,-15.7858,-8.18025,89.2187
2023-02-16 21:34:06:135,-1.33963,2.66956,-9.33742,-15.7751,-8.17932,89.2213
2023-02-16 21:34:06:145,-1.30255,2.64925,-9.32164,-15.7655,-8.17379,89.2276
2023-02-16 21:34:06:155,-1.30042,2.6584,-9.34143,-15.7538,-8.17027,89.2379
2023-02-16 21:34:06:165,-1.31224,2.66517,-9.35708,-15.7405,-8.16239,89.2523
2023-02-16 21:34:06:175,-1.34752,2.6534,-9.35316,-15.724,-8.15506,89.2732
2023-02-16 21:34:06:185,-1.36528,2.63818,-9.32994,-15.7125,-8.14658,89.2954
2023-02-16 21:34:06:195,-1.4022,2.63389,-9.33351,-15.6977,-8.14124,89.3146
2023-02-16 21:34:06:205,-1.44509,2.62955,-9.35243,-15.6795,-8.13587,89.3311
2023-02-16 21:34:06:215,-1.45526,2.63105,-9.34519,-15.6559,-8.12884,89.3445
2023-02-16 21:34:06:225,-1.42037,2.61646,-9.30499,-15.6345,-8.11697,89.3516
2023-02-16 21:34:06:235,-1.37152,2.60958,-9.29548,-15.6198,-8.10667,89.3511
2023-02-16 21:34:06:245,-1.32933,2.62165,-9.32381,-15.6024,-8.09928,89.346
2023-02-16 21:34:06:255,-1.29416,2.61708,-9.35622,-15.5894,-8.09816,89.3383
2023-02-16 21:34:06:265,-1.2699,2.61262,-9.38583,-15.5723,-8.09908,89.3316
2023-02-16 21:34:06:275,-1.31296,2.61635,-9.40877,-15.5521,-8.10272,89.3286
2023-02-16 21:34:06:285,-1.35578,2.60967,-9.40862,-15.5269,-8.10369,89.325
2023-02-16 21:34:06:295,-1.38516,2.6102,-9.40117,-15.5002,-8.10692,89.3159
2023-02-16 21:34:06:305,-1.39994,2.59402,-9.38828,-15.464,-8.1103,89.3052
2023-02-16 21:34:06:315,-1.38198,2.57509,-9.39113,-15.4296,-8.11433,89.2916
2023-02-16 21:34:06:325,-1.36645,2.52695,-9.3546,-15.3919,-8.11695,89.2767
2023-02-16 21:34:06:335,-1.34157,2.47918,-9.28208,-15.3538,-8.11792,89.2585
2023-02-16 21:34:06:345,-1.29321,2.43867,-9.24707,-15.3183,-8.1168,89.2416
2023-02-16 21:34:06:355,-1.27163,2.41155,-9.27654,-15.2899,-8.11535,89.2272
2023-02-16 21:34:06:365,-1.27665,2.42755,-9.312,-15.2669,-8.11111,89.2184
2023-02-16 21:34:06:375,-1.28853,2.43393,-9.3365,-15.2457,-8.10474,89.2118
2023-02-16 21:34:06:385,-1.30867,2.43235,-9.33182,-15.2222,-8.09731,89.2016
2023-02-16 21:34:06:395,-1.31616,2.45203,-9.31666,-15.2011,-8.0848,89.1926
