Timestamp,Acceleration_x,Acceleration_y,Acceleration_z,roll,pitch,yaw
2023-02-16 05:49:28:322,-1.18033,1.23784,-9.55135,-8.50339,-9.55588,95.3988
2023-02-16 05:49:28:331,-1.25182,1.25468,-9.56781,-8.49142,-9.56737,95.3181
2023-02-16 05:49:28:341,-1.32592,1.27161,-9.61338,-8.47901,-9.57171,95.2668
2023-02-16 05:49:28:350,-1.37521,1.27871,-9.61453,-8.45945,-9.5656,95.241
2023-02-16 05:49:28:361,-1.40694,1.26865,-9.61869,-8.43686,-9.54679,95.233
2023-02-16 05:49:28:371,-1.43399,1.26618,-9.61378,-8.40895,-9.51621,95.2412
2023-02-16 05:49:28:381,-1.4091,1.24196,-9.58632,-8.37515,-9.47326,95.2589
2023-02-16 05:49:28:391,-1.37859,1.21327,-9.55135,-8.34409,-9.42047,95.2879
2023-02-16 05:49:28:401,-1.38018,1.20829,-9.53056,-8.31662,-9.3693,95.329
2023-02-16 05:49:28:411,-1.39077,1.22163,-9.53718,-8.29548,-9.31743,95.3791
2023-02-16 05:49:28:421,-1.36529,1.23629,-9.56008,-8.27924,-9.26793,95.4327
2023-02-16 05:49:28:431,-1.31096,1.25039,-9.57484,-8.26878,-9.21623,95.4873
2023-02-16 05:49:28:441,-1.27221,1.2728,-9.59208,-8.26236,-9.16344,95.5481
2023-02-16 05:49:28:450,-1.25176,1.29551,-9.58063,-8.2622,-9.12021,95.6087
2023-02-16 05:49:28:460,-1.28384,1.30817,-9.55796,-8.26685,-9.08762,95.6746
2023-02-16 05:49:28:471,-1.37747,1.34735,-9.51458,-8.28118,-9.06775,95.7415
2023-02-16 05:49:28:481,-1.48439,1.38101,-9.47841,-8.30396,-9.06083,95.813
2023-02-16 05:49:28:491,-1.57449,1.40938,-9.4238,-8.33046,-9.05985,95.8863
2023-02-16 05:49:28:501,-1.63006,1.42673,-9.36495,-8.36383,-9.058,95.9497
2023-02-16 05:49:28:511,-1.67606,1.45228,-9.36494,-8.40795,-9.05544,96.006
2023-02-16 05:49:28:521,-1.67601,1.48523,-9.41695,-8.45258,-9.04617,96.0518
2023-02-16 05:49:28:531,-1.57179,1.50315,-9.46886,-8.50073,-9.03369,96.0849
2023-02-16 05:49:28:541,-1.46166,1.52241,-9.50427,-8.54691,-9.02424,96.1067
2023-02-16 05:49:28:551,-1.4144,1.55052,-9.56228,-8.5922,-9.02519,96.1288
2023-02-16 05:49:28:561,-1.42857,1.56951,-9.61441,-8.63162,-9.03722,96.1555
2023-02-16 05:49:28:571,-1.43806,1.55918,-9.63245,-8.66141,-9.05992,96.1876
2023-02-16 05:49:28:581,-1.4719,1.53854,-9.61462,-8.6874,-9.0879,96.2269
2023-02-16 05:49:28:591,-1.5455,1.51892,-9.5567,-8.71491,-9.11505,96.276
2023-02-16 05:49:28:601,-1.64398,1.50968,-9.48153,-8.74317,-9.14361,96.3358
2023-02-16 05:49:28:611,-1.7389,1.51599,-9.46791,-8.77336,-9.16987,96.3983
2023-02-16 05:49:28:621,-1.78029,1.55238,-9.49785,-8.80478,-9.19237,96.4616
2023-02-16 05:49:28:631,-1.78853,1.57838,-9.53499,-8.83768,-9.20496,96.5224
2023-02-16 05:49:28:641,-1.82779,1.59905,-9.61754,-8.86305,-9.21072,96.5789
2023-02-16 05:49:28:651,-1.78912,1.61097,-9.65477,-8.87773,-9.212,96.6339
2023-02-16 05:49:28:661,-1.71895,1.589,-9.66854,-8.8872,-9.20979,96.6815
2023-02-16 05:49:28:671,-1.69166,1.55995,-9.62323,-8.88817,-9.21043,96.7294
2023-02-16 05:49:28:681,-1.69453,1.52419,-9.52945,-8.88534,-9.2102,96.7712
2023-02-16 05:49:28:691,-1.70336,1.46996,-9.43048,-8.88183,-9.2099,96.8127
2023-02-16 05:49:28:701,-1.72766,1.45922,-9.38626,-8.88306,-9.20142,96.8503
2023-02-16 05:49:28:711,-1.74167,1.5058,-9.45849,-8.8891,-9.18327,96.8818
2023-02-16 05:49:28:720,-1.6881,1.54071,-9.58113,-8.89295,-9.1496,96.904
2023-02-16 05:49:28:731,-1.56744,1.55725,-9.70762,-8.89159,-9.10899,96.9177
2023-02-16 05:49:28:740,-1.46938,1.56553,-9.76342,-8.88731,-9.07246,96.9264
2023-02-16 05:49:28:750,-1.4472,1.55147,-9.75741,-8.87135,-9.04801,96.9292
2023-02-16 05:49:28:761,-1.43836,1.52843,-9.70033,-8.84944,-9.03408,96.9328
2023-02-16 05:49:28:771,-1.47392,1.50287,-9.61331,-8.81881,-9.02684,96.9354
2023-02-16 05:49:28:781,-1.49322,1.4804,-9.501,-8.78597,-9.02883,96.9441
2023-02-16 05:49:28:791,-1.50959,1.45627,-9.41695,-8.75826,-9.02328,96.954
2023-02-16 05:49:28:801,-1.55851,1.44343,-9.34414,-8.73581,-9.01084,96.9625
2023-02-16 05:49:28:811,-1.54375,1.43309,-9.29263,-8.72131,-8.99001,96.9699
2023-02-16 05:49:28:821,-1.51914,1.44254,-9.30576,-8.72074,-8.95795,96.9783
2023-02-16 05:49:28:831,-1.51923,1.4813,-9.37274,-8.72808,-8.92167,96.9831
2023-02-16 05:49:28:841,-1.5264,1.52538,-9.44707,-8.74489,-8.88701,96.982
2023-02-16 05:49:28:851,-1.51017,1.54819,-9.49467,-8.76774,-8.84885,96.9753
2023-02-16 05:49:28:861,-1.48701,1.57328,-9.47475,-8.79957,-8.81121,96.9662
2023-02-16 05:49:28:871,-1.50712,1.59378,-9.45646,-8.83795,-8.77479,96.9511
2023-02-16 05:49:28:881,-1.522,1.62184,-9.4558,-8.88735,-8.74516,96.9283
2023-02-16 05:49:28:891,-1.52137,1.65426,-9.46311,-8.94128,-8.71873,96.8996
2023-02-16 05:49:28:901,-1.50652,1.68624,-9.4945,-8.9997,-8.68653,96.8606
2023-02-16 05:49:28:911,-1.45155,1.73766,-9.55596,-9.05863,-8.66023,96.8107
2023-02-16 05:49:28:921,-1.35489,1.78423,-9.61515,-9.11223,-8.63906,96.7543
2023-02-16 05:49:28:931,-1.28324,1.78944,-9.71177,-9.15805,-8.62543,96.6906
2023-02-16 05:49:28:941,-1.20092,1.78989,-9.7825,-9.19008,-8.62218,96.6274
2023-02-16 05:49:28:951,-1.14318,1.76531,-9.76196,-9.20286,-8.6352,96.5671
2023-02-16 05:49:28:961,-1.15126,1.69973,-9.66846,-9.20018,-8.66471,96.5144
2023-02-16 05:49:28:971,-1.21493,1.6416,-9.60356,-9.18432,-8.71509,96.4763
2023-02-16 05:49:28:981,-1.30425,1.59266,-9.53088,-9.1696,-8.77579,96.4519
2023-02-16 05:49:28:991,-1.40236,1.57821,-9.47484,-9.15473,-8.83471,96.4459
2023-02-16 05:49:29:1,-1.45199,1.55827,-9.44914,-9.14493,-8.88803,96.4472
2023-02-16 05:49:29:11,-1.49362,1.55047,-9.41839,-9.14028,-8.94077,96.4628
2023-02-16 05:49:29:21,-1.55564,1.57397,-9.44482,-9.14521,-8.9915,96.4897
2023-02-16 05:49:29:31,-1.60493,1.59975,-9.49743,-9.15357,-9.03653,96.5264
2023-02-16 05:49:29:41,-1.67291,1.62542,-9.53328,-9.16589,-9.08051,96.5739
2023-02-16 05:49:29:51,-1.74299,1.65269,-9.58033,-9.17739,-9.11838,96.63
2023-02-16 05:49:29:61,-1.82847,1.69022,-9.66646,-9.18417,-9.14798,96.6893
2023-02-16 05:49:29:71,-1.86035,1.7234,-9.69625,-9.18822,-9.17026,96.7531
2023-02-16 05:49:29:81,-1.87217,1.70712,-9.65557,-9.17905,-9.18471,96.8155
2023-02-16 05:49:29:91,-1.87477,1.66066,-9.56741,-9.16462,-9.18871,96.8732
2023-02-16 05:49:29:101,-1.86755,1.61697,-9.44245,-9.14733,-9.19042,96.9288
2023-02-16 05:49:29:111,-1.81274,1.5941,-9.34567,-9.13678,-9.19241,96.9758
2023-02-16 05:49:29:121,-1.75651,1.58018,-9.3134,-9.13012,-9.188,97.0151
2023-02-16 05:49:29:131,-1.75815,1.60032,-9.32168,-9.13102,-9.18342,97.0447
2023-02-16 05:49:29:141,-1.72405,1.60894,-9.36915,-9.13678,-9.17511,97.0639
2023-02-16 05:49:29:151,-1.6522,1.63953,-9.47206,-9.14406,-9.1633,97.072
2023-02-16 05:49:29:161,-1.60845,1.66831,-9.55723,-9.15032,-9.14648,97.0676
2023-02-16 05:49:29:171,-1.5832,1.66823,-9.59045,-9.151,-9.13451,97.0626
2023-02-16 05:49:29:181,-1.5467,1.64918,-9.59754,-9.14571,-9.11815,97.0481
2023-02-16 05:49:29:191,-1.51261,1.62241,-9.57796,-9.13895,-9.1036,97.0308
2023-02-16 05:49:29:201,-1.4803,1.62331,-9.55777,-9.13211,-9.08684,97.0116
2023-02-16 05:49:29:211,-1.43134,1.60064,-9.5266,-9.12051,-9.07178,96.9849
2023-02-16 05:49:29:221,-1.36086,1.57529,-9.50132,-9.11221,-9.0565,96.958
2023-02-16 05:49:29:231,-1.34973,1.568,-9.5027,-9.10086,-9.0458,96.9274
2023-02-16 05:49:29:241,-1.42214,1.56625,-9.49625,-9.09246,-9.04935,96.9052
2023-02-16 05:49:29:251,-1.49721,1.55433,-9.467,-9.08508,-9.06352,96.884
2023-02-16 05:49:29:261,-1.54708,1.53849,-9.47079,-9.08265,-9.07817,96.8581
2023-02-16 05:49:29:271,-1.55563,1.5304,-9.47975,-9.08305,-9.09249,96.8241
2023-02-16 05:49:29:281,-1.53601,1.53517,-9.46561,-9.08718,-9.10477,96.7885
2023-02-16 05:49:29:291,-1.52473,1.53187,-9.49915,-9.09388,-9.11752,96.7523
2023-02-16 05:49:29:301,-1.51349,1.57016,-9.54466,-9.10272,-9.12746,96.7114
2023-02-16 05:49:29:311,-1.46886,1.57941,-9.6045,-9.10737,-9.13526,96.6763
2023-02-16 05:49:29:321,-1.45543,1.57562,-9.63985,-9.11021,-9.14119,96.6436
2023-02-16 05:49:29:331,-1.46694,1.57059,-9.66851,-9.1036,-9.14213,96.6148
2023-02-16 05:49:29:341,-1.4708,1.55439,-9.63787,-9.09395,-9.14486,96.5926
2023-02-16 05:49:29:351,-1.46277,1.51978,-9.60362,-9.08004,-9.14157,96.5747
2023-02-16 05:49:29:361,-1.47381,1.50339,-9.58743,-9.06105,-9.13452,96.5631
2023-02-16 05:49:29:371,-1.46627,1.4887,-9.56958,-9.0421,-9.12163,96.558
2023-02-16 05:49:29:381,-1.4769,1.49456,-9.58833,-9.02205,-9.11034,96.5601
2023-02-16 05:49:29:391,-1.48789,1.49894,-9.58061,-8.99873,-9.10239,96.5638
2023-02-16 05:49:29:401,-1.53775,1.48279,-9.57165,-8.97416,-9.09652,96.5731
2023-02-16 05:49:29:411,-1.58165,1.46836,-9.56057,-8.94722,-9.09521,96.5864
2023-02-16 05:49:29:421,-1.61306,1.45685,-9.55385,-8.91634,-9.09858,96.596
2023-02-16 05:49:29:431,-1.65937,1.45636,-9.54135,-8.88373,-9.10616,96.6034
2023-02-16 05:49:29:441,-1.69572,1.45982,-9.53823,-8.85579,-9.11598,96.6088
2023-02-16 05:49:29:451,-1.6872,1.45199,-9.53447,-8.82322,-9.12538,96.6081
2023-02-16 05:49:29:461,-1.68945,1.42852,-9.51039,-8.79189,-9.1311,96.6038
2023-02-16 05:49:29:471,-1.691,1.4123,-9.48375,-8.76549,-9.13678,96.5984
2023-02-16 05:49:29:481,-1.68174,1.42247,-9.50686,-8.74045,-9.13812,96.5863
2023-02-16 05:49:29:491,-1.67122,1.43891,-9.5379,-8.71686,-9.13511,96.5715
2023-02-16 05:49:29:501,-1.63649,1.43139,-9.57904,-8.69621,-9.12964,96.5526
2023-02-16 05:49:29:511,-1.58031,1.43071,-9.58619,-8.67396,-9.12118,96.5334
2023-02-16 05:49:29:521,-1.54114,1.43519,-9.58062,-8.65289,-9.1104,96.5172
2023-02-16 05:49:29:531,-1.53632,1.41952,-9.59512,-8.62714,-9.09641,96.5036
2023-02-16 05:49:29:541,-1.52942,1.40474,-9.58887,-8.60117,-9.08275,96.4932
2023-02-16 05:49:29:551,-1.53645,1.39464,-9.54679,-8.57483,-9.06748,96.4865
2023-02-16 05:49:29:561,-1.52899,1.38111,-9.49412,-8.54669,-9.04985,96.4807
2023-02-16 05:49:29:571,-1.50709,1.36711,-9.44957,-8.52119,-9.03359,96.4787
2023-02-16 05:49:29:581,-1.52017,1.36192,-9.4154,-8.50164,-9.01899,96.4773
2023-02-16 05:49:29:591,-1.53478,1.35764,-9.42781,-8.48577,-9.00869,96.4733
2023-02-16 05:49:29:601,-1.54364,1.38117,-9.47458,-8.47269,-8.99663,96.4694
2023-02-16 05:49:29:611,-1.55912,1.3944,-9.54606,-8.4627,-8.98602,96.4628
2023-02-16 05:49:29:621,-1.52036,1.43164,-9.63609,-8.45426,-8.97425,96.4554
2023-02-16 05:49:29:631,-1.45088,1.44261,-9.69368,-8.44407,-8.96166,96.4497
2023-02-16 05:49:29:641,-1.41393,1.42862,-9.68905,-8.42787,-8.95571,96.4421
2023-02-16 05:49:29:651,-1.42722,1.41498,-9.65946,-8.40957,-8.95531,96.4386
2023-02-16 05:49:29:661,-1.42662,1.39342,-9.59646,-8.39473,-8.96299,96.4393
2023-02-16 05:49:29:670,-1.4299,1.39196,-9.49578,-8.38833,-8.97247,96.4506
2023-02-16 05:49:29:680,-1.44482,1.37715,-9.46025,-8.3932,-8.98664,96.4626
2023-02-16 05:49:29:690,-1.4512,1.38433,-9.4349,-8.40462,-9.00627,96.4813
2023-02-16 05:49:29:700,-1.47976,1.41762,-9.41943,-8.42642,-9.02927,96.5107
2023-02-16 05:49:29:710,-1.52968,1.44125,-9.42852,-8.45773,-9.05651,96.5472
2023-02-16 05:49:29:720,-1.53784,1.47717,-9.48008,-8.49695,-9.08128,96.5861
2023-02-16 05:49:29:731,-1.55655,1.51155,-9.5229,-8.53659,-9.10258,96.6298
2023-02-16 05:49:29:740,-1.58144,1.53851,-9.54875,-8.56821,-9.12199,96.6786
2023-02-16 05:49:29:751,-1.56763,1.53777,-9.52064,-8.60111,-9.13708,96.7342
2023-02-16 05:49:29:760,-1.54511,1.50506,-9.47032,-8.62448,-9.14816,96.7954
2023-02-16 05:49:29:770,-1.55422,1.49076,-9.44215,-8.64541,-9.1585,96.8635
2023-02-16 05:49:29:780,-1.53805,1.48077,-9.46126,-8.66547,-9.16779,96.9354
2023-02-16 05:49:29:790,-1.56213,1.49198,-9.54442,-8.68713,-9.17973,97.0074
2023-02-16 05:49:29:801,-1.6153,1.50136,-9.61378,-8.70328,-9.19015,97.0801
2023-02-16 05:49:29:811,-1.62789,1.50993,-9.64486,-8.71501,-9.19523,97.1572
2023-02-16 05:49:29:821,-1.62548,1.50015,-9.68647,-8.71762,-9.19097,97.233
2023-02-16 05:49:29:831,-1.63106,1.48737,-9.68992,-8.71375,-9.18455,97.3027
2023-02-16 05:49:29:841,-1.60289,1.44821,-9.66526,-8.70387,-9.1677,97.3676
2023-02-16 05:49:29:851,-1.52101,1.41441,-9.5632,-8.68776,-9.14823,97.4284
2023-02-16 05:49:29:861,-1.49548,1.36415,-9.46988,-8.66918,-9.12671,97.4904
2023-02-16 05:49:29:871,-1.50876,1.33173,-9.39995,-8.65969,-9.10162,97.5453
2023-02-16 05:49:29:881,-1.47002,1.31248,-9.35351,-8.65149,-9.07625,97.5946
2023-02-16 05:49:29:891,-1.41634,1.32494,-9.37142,-8.65634,-9.04453,97.6431
2023-02-16 05:49:29:901,-1.40031,1.34972,-9.42332,-8.67153,-9.01714,97.6891
2023-02-16 05:49:29:911,-1.41229,1.38526,-9.51322,-8.69049,-8.99697,97.727
2023-02-16 05:49:29:921,-1.41055,1.44238,-9.60004,-8.71513,-8.98023,97.7685
2023-02-16 05:49:29:931,-1.44191,1.46819,-9.61056,-8.73865,-8.96795,97.8083
2023-02-16 05:49:29:941,-1.46749,1.47834,-9.5916,-8.7624,-8.96169,97.8457
2023-02-16 05:49:29:951,-1.45321,1.49454,-9.56114,-8.78852,-8.96177,97.8793
2023-02-16 05:49:29:961,-1.46723,1.52195,-9.54052,-8.81718,-8.96765,97.913
2023-02-16 05:49:29:971,-1.48282,1.56173,-9.53772,-8.84718,-8.97764,97.9479
2023-02-16 05:49:29:981,-1.45526,1.58027,-9.54719,-8.87927,-8.98817,97.9763
2023-02-16 05:49:29:991,-1.45968,1.58688,-9.53118,-8.9107,-9.00642,98.0085
2023-02-16 05:49:30:1,-1.51608,1.6046,-9.5078,-8.93687,-9.02623,98.0429
2023-02-16 05:49:30:11,-1.51869,1.61471,-9.52649,-8.96663,-9.04653,98.0766
2023-02-16 05:49:30:21,-1.52221,1.63191,-9.5418,-8.99802,-9.07275,98.1137
2023-02-16 05:49:30:31,-1.54773,1.6506,-9.52888,-9.02682,-9.09427,98.1519
2023-02-16 05:49:30:41,-1.5747,1.6596,-9.51388,-9.05242,-9.11764,98.1906
2023-02-16 05:49:30:51,-1.60893,1.65067,-9.50642,-9.07449,-9.1383,98.2305
2023-02-16 05:49:30:61,-1.61239,1.65978,-9.52022,-9.09243,-9.15887,98.2713
2023-02-16 05:49:30:71,-1.62856,1.6812,-9.54727,-9.10892,-9.17153,98.3105
2023-02-16 05:49:30:81,-1.62472,1.66191,-9.55508,-9.12069,-9.18608,98.3491
2023-02-16 05:49:30:91,-1.60927,1.64862,-9.53188,-9.13316,-9.19728,98.3839
2023-02-16 05:49:30:101,-1.60057,1.62728,-9.48261,-9.14484,-9.20347,98.4168
2023-02-16 05:49:30:111,-1.59213,1.62334,-9.45362,-9.1595,-9.211,98.448
2023-02-16 05:49:30:121,-1.63942,1.62293,-9.43178,-9.17535,-9.21518,98.4769
2023-02-16 05:49:30:131,-1.69413,1.62077,-9.46893,-9.19539,-9.22056,98.508
2023-02-16 05:49:30:141,-1.6826,1.64739,-9.54183,-9.21787,-9.22146,98.537
2023-02-16 05:49:30:151,-1.70712,1.66326,-9.59295,-9.24147,-9.21801,98.5666
2023-02-16 05:49:30:161,-1.69655,1.67773,-9.61942,-9.25806,-9.20921,98.5895
2023-02-16 05:49:30:171,-1.6779,1.68982,-9.62187,-9.2708,-9.19859,98.6098
2023-02-16 05:49:30:181,-1.67138,1.67798,-9.60922,-9.27663,-9.19007,98.6231
2023-02-16 05:49:30:191,-1.67037,1.66584,-9.61298,-9.27738,-9.18192,98.6329
2023-02-16 05:49:30:201,-1.68144,1.63764,-9.58983,-9.26978,-9.17794,98.6328
2023-02-16 05:49:30:211,-1.69326,1.63669,-9.57826,-9.2572,-9.17684,98.6262
2023-02-16 05:49:30:221,-1.68579,1.62797,-9.58625,-9.23808,-9.17599,98.611
2023-02-16 05:49:30:231,-1.65267,1.59311,-9.58618,-9.21243,-9.17442,98.5841
2023-02-16 05:49:30:241,-1.61488,1.56858,-9.60901,-9.18329,-9.17311,98.5502
2023-02-16 05:49:30:251,-1.58742,1.55699,-9.62596,-9.15446,-9.17181,98.5106
2023-02-16 05:49:30:261,-1.57908,1.55591,-9.64106,-9.12243,-9.17083,98.4688
2023-02-16 05:49:30:271,-1.53207,1.5321,-9.65466,-9.08566,-9.17194,98.429
2023-02-16 05:49:30:281,-1.4777,1.53019,-9.64523,-9.04478,-9.17263,98.3926
2023-02-16 05:49:30:291,-1.46825,1.51243,-9.61034,-9.0056,-9.17193,98.3619
2023-02-16 05:49:30:301,-1.44008,1.50012,-9.57567,-8.96521,-9.17742,98.3328
2023-02-16 05:49:30:311,-1.44268,1.48439,-9.55845,-8.92319,-9.17972,98.3168
2023-02-16 05:49:30:321,-1.45492,1.47485,-9.54723,-8.8791,-9.17843,98.3025
2023-02-16 05:49:30:331,-1.45934,1.46162,-9.51506,-8.83915,-9.17384,98.2982
2023-02-16 05:49:30:341,-1.46675,1.43589,-9.48321,-8.79855,-9.16895,98.2986
2023-02-16 05:49:30:351,-1.49463,1.42818,-9.47427,-8.75704,-9.16364,98.3009
2023-02-16 05:49:30:361,-1.52447,1.43573,-9.47919,-8.72273,-9.1565,98.314
2023-02-16 05:49:30:371,-1.56664,1.41657,-9.48807,-8.68797,-9.15283,98.3289
2023-02-16 05:49:30:381,-1.61781,1.42822,-9.50236,-8.65337,-9.14829,98.348
2023-02-16 05:49:30:391,-1.65454,1.44289,-9.52024,-8.62039,-9.14275,98.3645
2023-02-16 05:49:30:401,-1.68526,1.43208,-9.52822,-8.58729,-9.13445,98.3791
2023-02-16 05:49:30:411,-1.70191,1.4274,-9.51025,-8.55373,-9.12408,98.3896
2023-02-16 05:49:30:421,-1.71685,1.42693,-9.49726,-8.52011,-9.11106,98.3947
2023-02-16 05:49:30:431,-1.69646,1.39965,-9.47032,-8.48866,-9.09211,98.394
2023-02-16 05:49:30:441,-1.6809,1.38333,-9.45668,-8.45909,-9.07074,98.3854
2023-02-16 05:49:30:451,-1.6614,1.39191,-9.4777,-8.43144,-9.05137,98.3666
2023-02-16 05:49:30:461,-1.62335,1.37265,-9.48247,-8.40704,-9.02905,98.3421
2023-02-16 05:49:30:471,-1.55716,1.35235,-9.47925,-8.38508,-9.00202,98.3119
2023-02-16 05:49:30:481,-1.46749,1.35447,-9.5107,-8.37152,-8.9733,98.2776
2023-02-16 05:49:30:491,-1.37124,1.34294,-9.51295,-8.35925,-8.9458,98.2359
2023-02-16 05:49:30:501,-1.31241,1.33132,-9.49622,-8.35483,-8.92017,98.1981
2023-02-16 05:49:30:511,-1.28237,1.32589,-9.51573,-8.35528,-8.90498,98.169
2023-02-16 05:49:30:521,-1.30006,1.35064,-9.55991,-8.36731,-8.9001,98.1439
2023-02-16 05:49:30:531,-1.3192,1.41021,-9.62972,-8.38204,-8.89929,98.1243
2023-02-16 05:49:30:541,-1.32594,1.45157,-9.71305,-8.39568,-8.90878,98.1118
2023-02-16 05:49:30:551,-1.34955,1.44312,-9.72623,-8.40034,-8.92123,98.1078
2023-02-16 05:49:30:561,-1.39408,1.43668,-9.69506,-8.39762,-8.93797,98.1097
2023-02-16 05:49:30:571,-1.44777,1.43139,-9.64017,-8.39236,-8.95719,98.1182
2023-02-16 05:49:30:581,-1.48031,1.40677,-9.55718,-8.3807,-8.97722,98.1321
2023-02-16 05:49:30:591,-1.50559,1.36764,-9.46265,-8.36916,-8.99905,98.1491
2023-02-16 05:49:30:601,-1.54093,1.34084,-9.40258,-8.35923,-9.02259,98.1675
2023-02-16 05:49:30:611,-1.57881,1.34286,-9.3776,-8.35721,-9.0439,98.1843
2023-02-16 05:49:30:621,-1.6117,1.35768,-9.4085,-8.3608,-9.06556,98.2026
2023-02-16 05:49:30:631,-1.63593,1.3811,-9.46721,-8.36957,-9.08646,98.2168
2023-02-16 05:49:30:641,-1.65468,1.39065,-9.53856,-8.38375,-9.10781,98.2309
2023-02-16 05:49:30:651,-1.65029,1.39963,-9.57922,-8.3949,-9.12458,98.236
2023-02-16 05:49:30:661,-1.62153,1.40235,-9.59236,-8.4044,-9.13813,98.2361
2023-02-16 05:49:30:671,-1.56779,1.39278,-9.59864,-8.40954,-9.15288,98.2338
2023-02-16 05:49:30:681,-1.52093,1.38158,-9.57838,-8.4164,-9.16443,98.2294
2023-02-16 05:49:30:691,-1.48471,1.37251,-9.56094,-8.42608,-9.17876,98.2238
2023-02-16 05:49:30:701,-1.43998,1.36738,-9.5643,-8.43923,-9.19189,98.2185
2023-02-16 05:49:30:711,-1.39919,1.37144,-9.55857,-8.45109,-9.20307,98.2201
2023-02-16 05:49:30:721,-1.40965,1.37637,-9.53325,-8.46919,-9.2165,98.2299
2023-02-16 05:49:30:731,-1.4373,1.38662,-9.53252,-8.49317,-9.22888,98.2437
2023-02-16 05:49:30:741,-1.43992,1.39777,-9.56275,-8.51979,-9.24493,98.2637
2023-02-16 05:49:30:751,-1.47301,1.42491,-9.5554,-8.54901,-9.26174,98.2863
2023-02-16 05:49:30:761,-1.51232,1.43904,-9.5187,-8.57612,-9.2785,98.3168
2023-02-16 05:49:30:771,-1.51839,1.43586,-9.48355,-8.60464,-9.29702,98.3518
2023-02-16 05:49:30:781,-1.56958,1.44251,-9.46123,-8.63924,-9.31789,98.3885
2023-02-16 05:49:30:791,-1.62767,1.46918,-9.4726,-8.6711,-9.33814,98.428
2023-02-16 05:49:30:801,-1.63646,1.50897,-9.51994,-8.70907,-9.35961,98.4661
2023-02-16 05:49:30:811,-1.61085,1.53868,-9.55656,-8.74159,-9.38047,98.5003
2023-02-16 05:49:30:821,-1.60398,1.53154,-9.56706,-8.76994,-9.40603,98.538
2023-02-16 05:49:30:831,-1.67125,1.53339,-9.59331,-8.79526,-9.42801,98.5753
2023-02-16 05:49:30:841,-1.69102,1.54389,-9.60347,-8.81463,-9.4465,98.609
2023-02-16 05:49:30:851,-1.67839,1.54253,-9.62574,-8.83245,-9.46204,98.6405
2023-02-16 05:49:30:861,-1.69385,1.55145,-9.60996,-8.84118,-9.47604,98.6702
2023-02-16 05:49:30:871,-1.68269,1.54807,-9.57144,-8.85412,-9.48775,98.6979
2023-02-16 05:49:30:881,-1.66383,1.52611,-9.55221,-8.8629,-9.50394,98.72
2023-02-16 05:49:30:891,-1.69859,1.52421,-9.55614,-8.87204,-9.51968,98.7419
2023-02-16 05:49:30:901,-1.73749,1.5335,-9.56559,-8.88299,-9.53616,98.7623
2023-02-16 05:49:30:911,-1.73253,1.53108,-9.52733,-8.89172,-9.55029,98.78
2023-02-16 05:49:30:921,-1.7366,1.51328,-9.50594,-8.90056,-9.55975,98.7957
2023-02-16 05:49:30:931,-1.72851,1.49084,-9.49536,-8.90293,-9.56835,98.8101
2023-02-16 05:49:30:941,-1.7179,1.5035,-9.48685,-8.90722,-9.57648,98.8151
2023-02-16 05:49:30:951,-1.71591,1.51301,-9.45925,-8.9078,-9.58781,98.8166
2023-02-16 05:49:30:961,-1.75423,1.5065,-9.46984,-8.90984,-9.60323,98.8159
2023-02-16 05:49:30:971,-1.77883,1.51285,-9.51767,-8.91098,-9.61307,98.8111
2023-02-16 05:49:30:981,-1.75195,1.53472,-9.56294,-8.91302,-9.62344,98.7993
2023-02-16 05:49:30:991,-1.71297,1.52592,-9.56257,-8.91082,-9.62739,98.7858
2023-02-16 05:49:31:1,-1.70203,1.50899,-9.53347,-8.90529,-9.63239,98.7698
2023-02-16 05:49:31:11,-1.65293,1.48454,-9.52671,-8.90332,-9.63605,98.7533
2023-02-16 05:49:31:21,-1.60781,1.48062,-9.49664,-8.90045,-9.63817,98.7364
2023-02-16 05:49:31:31,-1.6092,1.48229,-9.49843,-8.90121,-9.64364,98.7208
2023-02-16 05:49:31:41,-1.66221,1.50062,-9.55064,-8.90424,-9.65016,98.707
2023-02-16 05:49:31:51,-1.71674,1.53977,-9.60529,-8.9071,-9.65585,98.6952
2023-02-16 05:49:31:61,-1.75307,1.56052,-9.61564,-8.90758,-9.65768,98.685
2023-02-16 05:49:31:71,-1.73409,1.56022,-9.57307,-8.90241,-9.65265,98.67
2023-02-16 05:49:31:81,-1.70897,1.53971,-9.51114,-8.89242,-9.64576,98.6532
2023-02-16 05:49:31:91,-1.69181,1.52678,-9.46362,-8.87806,-9.63845,98.6328
2023-02-16 05:49:31:101,-1.67024,1.52779,-9.42619,-8.86866,-9.62911,98.6074
2023-02-16 05:49:31:111,-1.65027,1.51311,-9.41399,-8.8579,-9.61934,98.5785
2023-02-16 05:49:31:121,-1.60676,1.50288,-9.41207,-8.85442,-9.60708,98.55
2023-02-16 05:49:31:131,-1.55518,1.50664,-9.42667,-8.85712,-9.5937,98.5231
2023-02-16 05:49:31:141,-1.53071,1.50843,-9.45558,-8.86591,-9.58504,98.4949
2023-02-16 05:49:31:151,-1.51159,1.51285,-9.46596,-8.87409,-9.57331,98.4698
2023-02-16 05:49:31:161,-1.47887,1.51897,-9.47379,-8.88538,-9.56237,98.4506
2023-02-16 05:49:31:171,-1.46244,1.54496,-9.51475,-8.9054,-9.55107,98.4391
2023-02-16 05:49:31:181,-1.49093,1.55177,-9.54451,-8.92726,-9.54214,98.4305
2023-02-16 05:49:31:191,-1.52584,1.56449,-9.56767,-8.949,-9.53715,98.4316
2023-02-16 05:49:31:201,-1.56426,1.58345,-9.56038,-8.96643,-9.53126,98.4367
2023-02-16 05:49:31:211,-1.58835,1.58438,-9.54221,-8.98454,-9.52493,98.4461
2023-02-16 05:49:31:221,-1.61336,1.59252,-9.5247,-9.00568,-9.51843,98.4565
2023-02-16 05:49:31:231,-1.6187,1.59822,-9.51258,-9.0269,-9.51011,98.4707
2023-02-16 05:49:31:241,-1.62341,1.59237,-9.48077,-9.0454,-9.50441,98.4835
2023-02-16 05:49:31:251,-1.65027,1.57607,-9.4942,-9.0592,-9.50106,98.4907
2023-02-16 05:49:31:261,-1.66146,1.585,-9.51003,-9.07789,-9.49677,98.4972
2023-02-16 05:49:31:271,-1.68313,1.59623,-9.53827,-9.09733,-9.49942,98.5022
2023-02-16 05:49:31:281,-1.68384,1.60244,-9.57433,-9.11163,-9.50019,98.4996
2023-02-16 05:49:31:291,-1.6819,1.61351,-9.57408,-9.12147,-9.4995,98.4957
2023-02-16 05:49:31:301,-1.66933,1.60426,-9.56832,-9.13108,-9.49843,98.4922
2023-02-16 05:49:31:311,-1.66668,1.59757,-9.55249,-9.1393,-9.50053,98.4855
2023-02-16 05:49:31:321,-1.6872,1.59183,-9.5378,-9.14396,-9.4992,98.4795
2023-02-16 05:49:31:331,-1.68778,1.59633,-9.54618,-9.14818,-9.49612,98.4687
2023-02-16 05:49:31:341,-1.67319,1.59056,-9.55685,-9.15,-9.49114,98.4613
2023-02-16 05:49:31:351,-1.63939,1.58173,-9.54028,-9.14974,-9.48815,98.4502
2023-02-16 05:49:31:361,-1.5903,1.55209,-9.51881,-9.15079,-9.4776,98.4387
2023-02-16 05:49:31:371,-1.56927,1.53876,-9.50289,-9.15258,-9.4678,98.4297
2023-02-16 05:49:31:381,-1.57039,1.5294,-9.49935,-9.15486,-9.46259,98.423
2023-02-16 05:49:31:391,-1.5753,1.52133,-9.49568,-9.15538,-9.45781,98.4148
2023-02-16 05:49:31:401,-1.56952,1.52963,-9.50146,-9.15924,-9.45639,98.4117
2023-02-16 05:49:31:411,-1.58313,1.54743,-9.51992,-9.16612,-9.45733,98.4082
2023-02-16 05:49:31:421,-1.60284,1.54975,-9.53043,-9.16668,-9.45775,98.3997
2023-02-16 05:49:31:431,-1.625,1.54631,-9.53847,-9.16803,-9.46138,98.3976
2023-02-16 05:49:31:441,-1.63128,1.55162,-9.53575,-9.17075,-9.46467,98.396
2023-02-16 05:49:31:451,-1.64451,1.55201,-9.55201,-9.16963,-9.46805,98.3936
2023-02-16 05:49:31:461,-1.63894,1.56177,-9.60644,-9.16811,-9.46823,98.3951
2023-02-16 05:49:31:471,-1.61389,1.57392,-9.61342,-9.1655,-9.46945,98.3923
2023-02-16 05:49:31:481,-1.61175,1.53826,-9.57065,-9.1593,-9.47651,98.3935
2023-02-16 05:49:31:491,-1.64315,1.50935,-9.53358,-9.15286,-9.4869,98.3942
2023-02-16 05:49:31:501,-1.67114,1.51201,-9.50895,-9.14798,-9.50177,98.3975
2023-02-16 05:49:31:511,-1.70061,1.52044,-9.48459,-9.14314,-9.51283,98.3993
2023-02-16 05:49:31:521,-1.71457,1.52636,-9.46459,-9.14124,-9.5186,98.4053
2023-02-16 05:49:31:531,-1.71695,1.52576,-9.44938,-9.14189,-9.51867,98.4129
2023-02-16 05:49:31:541,-1.69696,1.51718,-9.44005,-9.13824,-9.51108,98.4167
2023-02-16 05:49:31:551,-1.67118,1.52184,-9.44099,-9.13705,-9.50277,98.4181
2023-02-16 05:49:31:561,-1.64956,1.51368,-9.45992,-9.1399,-9.48832,98.4206
2023-02-16 05:49:31:571,-1.63223,1.50751,-9.46138,-9.14076,-9.46976,98.4192
2023-02-16 05:49:31:581,-1.63639,1.50309,-9.45132,-9.14612,-9.44993,98.4192
2023-02-16 05:49:31:591,-1.62438,1.50353,-9.43652,-9.15826,-9.42881,98.4152
2023-02-16 05:49:31:601,-1.59413,1.50032,-9.4494,-9.1735,-9.41092,98.4117
2023-02-16 05:49:31:611,-1.59489,1.51593,-9.46238,-9.19367,-9.39688,98.4112
2023-02-16 05:49:31:621,-1.61982,1.52292,-9.49981,-9.2178,-9.38396,98.4126
2023-02-16 05:49:31:631,-1.63827,1.55337,-9.53174,-9.24262,-9.36827,98.412
2023-02-16 05:49:31:641,-1.64425,1.57633,-9.549,-9.26675,-9.35331,98.4065
2023-02-16 05:49:31:651,-1.65323,1.59118,-9.56659,-9.29159,-9.33798,98.4019
2023-02-16 05:49:31:661,-1.63038,1.59757,-9.5818,-9.30976,-9.32445,98.3925
2023-02-16 05:49:31:671,-1.61088,1.59278,-9.56899,-9.32829,-9.30788,98.3817
2023-02-16 05:49:31:681,-1.5999,1.58985,-9.55513,-9.34335,-9.29528,98.3694
2023-02-16 05:49:31:691,-1.57511,1.57844,-9.51808,-9.35929,-9.28189,98.3533
2023-02-16 05:49:31:701,-1.54019,1.55484,-9.48221,-9.37278,-9.26984,98.336
2023-02-16 05:49:31:711,-1.52662,1.55902,-9.49357,-9.38565,-9.26351,98.3177
2023-02-16 05:49:31:721,-1.53202,1.5732,-9.52516,-9.40084,-9.25095,98.2979
2023-02-16 05:49:31:731,-1.49164,1.58151,-9.5623,-9.41752,-9.23993,98.2765
2023-02-16 05:49:31:741,-1.43541,1.57033,-9.55902,-9.43021,-9.22333,98.2588
2023-02-16 05:49:31:751,-1.40685,1.55737,-9.55763,-9.44516,-9.20729,98.2466
2023-02-16 05:49:31:761,-1.41472,1.55044,-9.55094,-9.45548,-9.19879,98.238
2023-02-16 05:49:31:771,-1.46082,1.55299,-9.54048,-9.46888,-9.18998,98.2337
2023-02-16 05:49:31:781,-1.45561,1.55322,-9.52058,-9.48331,-9.18151,98.2338
2023-02-16 05:49:31:791,-1.48099,1.55878,-9.51053,-9.50179,-9.16979,98.2372
2023-02-16 05:49:31:801,-1.49026,1.57448,-9.50098,-9.5224,-9.16032,98.2444
2023-02-16 05:49:31:811,-1.48032,1.57994,-9.50005,-9.54443,-9.14888,98.2527
2023-02-16 05:49:31:821,-1.48606,1.59006,-9.50751,-9.56761,-9.14081,98.2618
2023-02-16 05:49:31:831,-1.5223,1.62244,-9.49674,-9.59472,-9.14099,98.2728
2023-02-16 05:49:31:841,-1.52599,1.65132,-9.52526,-9.62558,-9.14379,98.2793
2023-02-16 05:49:31:851,-1.53663,1.67096,-9.54546,-9.65341,-9.14905,98.2854
2023-02-16 05:49:31:861,-1.56983,1.67644,-9.57062,-9.67823,-9.15603,98.2891
2023-02-16 05:49:31:871,-1.59079,1.68638,-9.58002,-9.70192,-9.16903,98.2955
2023-02-16 05:49:31:881,-1.59513,1.68113,-9.60616,-9.71854,-9.18474,98.2958
2023-02-16 05:49:31:891,-1.5901,1.67658,-9.57195,-9.73445,-9.20246,98.2964
2023-02-16 05:49:31:901,-1.61047,1.66748,-9.51504,-9.74759,-9.2192,98.2975
2023-02-16 05:49:31:911,-1.66194,1.66399,-9.49623,-9.75737,-9.23787,98.299
2023-02-16 05:49:31:921,-1.69431,1.67354,-9.48287,-9.76872,-9.2531,98.3
2023-02-16 05:49:31:931,-1.71024,1.6753,-9.49286,-9.7841,-9.26811,98.3004
2023-02-16 05:49:31:941,-1.73146,1.7012,-9.49025,-9.79752,-9.2745,98.2985
2023-02-16 05:49:31:951,-1.74056,1.71126,-9.49548,-9.81298,-9.27736,98.2937
2023-02-16 05:49:31:961,-1.7491,1.72221,-9.51006,-9.82641,-9.28002,98.2834
2023-02-16 05:49:31:971,-1.72465,1.72352,-9.50894,-9.83484,-9.27918,98.2672
2023-02-16 05:49:31:981,-1.70365,1.73159,-9.51187,-9.84034,-9.27526,98.2466
2023-02-16 05:49:31:991,-1.69176,1.75239,-9.52931,-9.8434,-9.27383,98.2229
2023-02-16 05:49:32:1,-1.68693,1.75617,-9.56963,-9.84103,-9.27133,98.1945
2023-02-16 05:49:32:11,-1.64413,1.75652,-9.59914,-9.8369,-9.26528,98.1665
2023-02-16 05:49:32:21,-1.60516,1.76367,-9.59958,-9.82583,-9.26043,98.1347
2023-02-16 05:49:32:31,-1.56463,1.75555,-9.59517,-9.80768,-9.25603,98.1006
2023-02-16 05:49:32:41,-1.51971,1.75795,-9.57739,-9.78512,-9.24912,98.0642
2023-02-16 05:49:32:51,-1.48633,1.74854,-9.55237,-9.7614,-9.24159,98.0335
2023-02-16 05:49:32:61,-1.4985,1.72246,-9.53272,-9.73784,-9.23807,98.0078
2023-02-16 05:49:32:71,-1.51629,1.71389,-9.51001,-9.71501,-9.23182,97.9888
2023-02-16 05:49:32:81,-1.52719,1.7104,-9.47425,-9.69253,-9.22283,97.97
2023-02-16 05:49:32:91,-1.52171,1.68848,-9.45829,-9.66873,-9.20767,97.952
2023-02-16 05:49:32:101,-1.49998,1.67082,-9.462,-9.64563,-9.18309,97.9312
2023-02-16 05:49:32:111,-1.45074,1.66894,-9.4388,-9.6264,-9.1548,97.913
2023-02-16 05:49:32:121,-1.34884,1.65462,-9.4505,-9.61044,-9.12543,97.9002
2023-02-16 05:49:32:131,-1.2974,1.63591,-9.48301,-9.60095,-9.09899,97.8913
2023-02-16 05:49:32:141,-1.31263,1.6357,-9.51942,-9.59237,-9.08041,97.8939
2023-02-16 05:49:32:151,-1.35453,1.65356,-9.59244,-9.58842,-9.07273,97.9038
2023-02-16 05:49:32:161,-1.42359,1.67128,-9.63904,-9.58438,-9.07653,97.9265
2023-02-16 05:49:32:171,-1.55081,1.68609,-9.64557,-9.57833,-9.08946,97.9534
2023-02-16 05:49:32:180,-1.66873,1.69104,-9.61053,-9.55872,-9.10553,97.9861
2023-02-16 05:49:32:190,-1.75484,1.66458,-9.59578,-9.53248,-9.1205,98.0155
2023-02-16 05:49:32:200,-1.79582,1.61926,-9.58506,-9.49608,-9.12619,98.0413
2023-02-16 05:49:32:210,-1.7803,1.58218,-9.5395,-9.45187,-9.12954,98.0601
2023-02-16 05:49:32:220,-1.70844,1.52074,-9.47632,-9.40817,-9.12483,98.078
2023-02-16 05:49:32:230,-1.63014,1.45697,-9.361,-9.36446,-9.11617,98.0939
2023-02-16 05:49:32:241,-1.58766,1.42395,-9.28865,-9.32466,-9.10164,98.1099
2023-02-16 05:49:32:250,-1.57573,1.41253,-9.30535,-9.29845,-9.09151,98.126
2023-02-16 05:49:32:260,-1.59188,1.44655,-9.36216,-9.28126,-9.07882,98.1481
2023-02-16 05:49:32:271,-1.66868,1.50546,-9.46441,-9.26914,-9.06039,98.1684
2023-02-16 05:49:32:281,-1.7166,1.55245,-9.5207,-9.26088,-9.03885,98.1893
2023-02-16 05:49:32:290,-1.7293,1.56809,-9.5398,-9.24675,-9.00822,98.1967
2023-02-16 05:49:32:301,-1.70665,1.55194,-9.54653,-9.23268,-8.96831,98.1992
2023-02-16 05:49:32:310,-1.63521,1.52795,-9.55292,-9.21829,-8.92296,98.1905
2023-02-16 05:49:32:320,-1.49911,1.50141,-9.55096,-9.20662,-8.87751,98.1731
2023-02-16 05:49:32:331,-1.34709,1.47463,-9.51784,-9.19878,-8.83088,98.1491
2023-02-16 05:49:32:341,-1.22233,1.46851,-9.48819,-9.1985,-8.7916,98.1295
2023-02-16 05:49:32:351,-1.16445,1.48741,-9.45309,-9.21268,-8.76442,98.113
2023-02-16 05:49:32:361,-1.18034,1.51981,-9.39872,-9.23684,-8.74572,98.1115
2023-02-16 05:49:32:371,-1.3085,1.57495,-9.42436,-9.26668,-8.73533,98.1185
2023-02-16 05:49:32:381,-1.48754,1.67477,-9.54789,-9.29835,-8.73065,98.1326
2023-02-16 05:49:32:391,-1.55627,1.73594,-9.69941,-9.31918,-8.7145,98.1448
2023-02-16 05:49:32:401,-1.45176,1.72178,-9.78378,-9.32516,-8.68501,98.1527
2023-02-16 05:49:32:410,-1.29282,1.65451,-9.74103,-9.31957,-8.64656,98.1555
2023-02-16 05:49:32:421,-1.19784,1.57797,-9.6311,-9.30551,-8.61499,98.164
2023-02-16 05:49:32:431,-1.1722,1.54423,-9.49712,-9.29893,-8.60188,98.1744
2023-02-16 05:49:32:441,-1.24189,1.5545,-9.41814,-9.30149,-8.60031,98.1974
2023-02-16 05:49:32:450,-1.39241,1.60609,-9.48881,-9.31606,-8.60843,98.2242
2023-02-16 05:49:32:461,-1.51368,1.64968,-9.51471,-9.33489,-8.61753,98.2562
2023-02-16 05:49:32:471,-1.59274,1.67575,-9.58015,-9.34965,-8.62522,98.2838
2023-02-16 05:49:32:481,-1.59316,1.71345,-9.67116,-9.3569,-8.62263,98.3086
2023-02-16 05:49:32:490,-1.51334,1.68602,-9.65692,-9.34945,-8.61265,98.3185
2023-02-16 05:49:32:500,-1.38583,1.63571,-9.61807,-9.34009,-8.59522,98.3255
2023-02-16 05:49:32:510,-1.27297,1.5907,-9.55556,-9.32739,-8.57413,98.3307
2023-02-16 05:49:32:521,-1.1845,1.56295,-9.45871,-9.3154,-8.55364,98.3364
2023-02-16 05:49:32:530,-1.14606,1.55694,-9.39821,-9.30891,-8.54032,98.3514
2023-02-16 05:49:32:540,-1.19513,1.56353,-9.39449,-9.32024,-8.53695,98.3759
2023-02-16 05:49:32:551,-1.29606,1.6226,-9.46344,-9.34144,-8.53681,98.4116
2023-02-16 05:49:32:560,-1.41924,1.71687,-9.47765,-9.36206,-8.54523,98.45
2023-02-16 05:49:32:570,-1.60154,1.74854,-9.43581,-9.37933,-8.55022,98.4946
2023-02-16 05:49:32:580,-1.78973,1.80334,-9.59514,-9.38977,-8.55686,98.5336
2023-02-16 05:49:32:591,-1.83186,1.86511,-9.81583,-9.38332,-8.55858,98.5569
2023-02-16 05:49:32:600,-1.72018,1.81469,-9.85205,-9.35917,-8.55415,98.5672
2023-02-16 05:49:32:610,-1.56495,1.70904,-9.79771,-9.31606,-8.54501,98.5629
2023-02-16 05:49:32:620,-1.43825,1.63414,-9.67237,-9.27033,-8.54246,98.5526
2023-02-16 05:49:32:630,-1.3421,1.54678,-9.48928,-9.22038,-8.55178,98.5397
2023-02-16 05:49:32:640,-1.31252,1.47464,-9.3433,-9.17756,-8.56479,98.5327
2023-02-16 05:49:32:650,-1.37783,1.44043,-9.26414,-9.14732,-8.5795,98.5353
2023-02-16 05:49:32:660,-1.46329,1.44657,-9.24388,-9.12813,-8.59013,98.5425
2023-02-16 05:49:32:671,-1.54081,1.46328,-9.3373,-9.12079,-8.59648,98.5564
2023-02-16 05:49:32:680,-1.63034,1.50849,-9.52057,-9.11547,-8.60156,98.5627
2023-02-16 05:49:32:690,-1.72763,1.5318,-9.67176,-9.10567,-8.60444,98.5641
2023-02-16 05:49:32:700,-1.68105,1.51655,-9.74846,-9.08663,-8.60942,98.5528
2023-02-16 05:49:32:710,-1.60066,1.4876,-9.73495,-9.0648,-8.61036,98.5341
2023-02-16 05:49:32:721,-1.52893,1.43111,-9.63056,-9.03625,-8.61284,98.5071
2023-02-16 05:49:32:730,-1.4332,1.37405,-9.46823,-9.00939,-8.61855,98.4718
2023-02-16 05:49:32:740,-1.36119,1.31595,-9.28349,-9.00134,-8.6218,98.4407
2023-02-16 05:49:32:750,-1.36833,1.30342,-9.1815,-9.01128,-8.62015,98.4181
2023-02-16 05:49:32:760,-1.45346,1.379,-9.23204,-9.04078,-8.61524,98.4002
2023-02-16 05:49:32:770,-1.56604,1.47714,-9.4095,-9.08245,-8.60669,98.3845
2023-02-16 05:49:32:780,-1.64491,1.58241,-9.62208,-9.12427,-8.59333,98.3625
2023-02-16 05:49:32:791,-1.68517,1.65551,-9.797,-9.15543,-8.57346,98.3336
2023-02-16 05:49:32:800,-1.65489,1.65811,-9.87759,-9.16688,-8.55582,98.2904
2023-02-16 05:49:32:810,-1.55528,1.60812,-9.83796,-9.16237,-8.53998,98.2342
2023-02-16 05:49:32:820,-1.41246,1.54046,-9.67956,-9.15485,-8.53035,98.1733
2023-02-16 05:49:32:830,-1.3114,1.47077,-9.52306,-9.14783,-8.52762,98.1133
2023-02-16 05:49:32:841,-1.24536,1.43996,-9.40616,-9.1494,-8.53574,98.0567
2023-02-16 05:49:32:851,-1.21887,1.44831,-9.39568,-9.16192,-8.55081,98.01
2023-02-16 05:49:32:861,-1.23118,1.48135,-9.43362,-9.18375,-8.56864,97.9748
2023-02-16 05:49:32:871,-1.28965,1.51776,-9.50113,-9.20545,-8.58778,97.9513
2023-02-16 05:49:32:881,-1.34902,1.5456,-9.58878,-9.23021,-8.6069,97.9438
2023-02-16 05:49:32:891,-1.39887,1.57139,-9.64196,-9.24803,-8.62494,97.9454
2023-02-16 05:49:32:901,-1.48065,1.57354,-9.67991,-9.25488,-8.64228,97.9518
2023-02-16 05:49:32:911,-1.56372,1.58753,-9.69047,-9.25669,-8.66082,97.9651
2023-02-16 05:49:32:921,-1.62178,1.58179,-9.68269,-9.24779,-8.67785,97.9783
2023-02-16 05:49:32:931,-1.64264,1.53983,-9.64502,-9.22887,-8.69045,97.9836
2023-02-16 05:49:32:941,-1.65625,1.48748,-9.56028,-9.20612,-8.70038,97.983
2023-02-16 05:49:32:951,-1.62433,1.44002,-9.45885,-9.18425,-8.70787,97.9715
2023-02-16 05:49:32:961,-1.53067,1.39939,-9.37937,-9.17055,-8.71293,97.9578
2023-02-16 05:49:32:971,-1.44297,1.37543,-9.35094,-9.16477,-8.70752,97.9387
2023-02-16 05:49:32:981,-1.38328,1.38103,-9.38803,-9.17384,-8.69796,97.9203
2023-02-16 05:49:32:991,-1.34492,1.45003,-9.53811,-9.19369,-8.6868,97.91
2023-02-16 05:49:33:1,-1.31397,1.52644,-9.6625,-9.21707,-8.67652,97.9068
2023-02-16 05:49:33:11,-1.38194,1.57473,-9.68711,-9.24386,-8.67697,97.9129
2023-02-16 05:49:33:21,-1.50034,1.59976,-9.63544,-9.2586,-8.67572,97.9256
2023-02-16 05:49:33:31,-1.59877,1.59379,-9.60436,-9.27251,-8.67675,97.9391
2023-02-16 05:49:33:41,-1.65959,1.60973,-9.57182,-9.28003,-8.67074,97.9492
2023-02-16 05:49:33:51,-1.65781,1.58331,-9.51579,-9.27579,-8.64721,97.9534
2023-02-16 05:49:33:61,-1.57473,1.5482,-9.4479,-9.26981,-8.6098,97.9516
2023-02-16 05:49:33:71,-1.44824,1.5055,-9.38806,-9.26342,-8.56573,97.9426
2023-02-16 05:49:33:81,-1.33511,1.49099,-9.40475,-9.26625,-8.52719,97.9281
2023-02-16 05:49:33:91,-1.25571,1.54376,-9.49057,-9.28092,-8.49597,97.9141
2023-02-16 05:49:33:101,-1.17176,1.6011,-9.57525,-9.30657,-8.47866,97.9003
2023-02-16 05:49:33:111,-1.13702,1.63943,-9.60778,-9.33712,-8.48095,97.891
2023-02-16 05:49:33:121,-1.22753,1.70928,-9.62991,-9.3711,-8.49985,97.8909
2023-02-16 05:49:33:131,-1.45378,1.76966,-9.66697,-9.40006,-8.53135,97.899
2023-02-16 05:49:33:141,-1.65435,1.80661,-9.68811,-9.42269,-8.56342,97.9116
2023-02-16 05:49:33:151,-1.73468,1.80164,-9.66777,-9.42772,-8.59392,97.9149
2023-02-16 05:49:33:161,-1.73775,1.75688,-9.60874,-9.41888,-8.61017,97.9042
2023-02-16 05:49:33:171,-1.64225,1.72323,-9.59033,-9.40347,-8.62064,97.8806
2023-02-16 05:49:33:181,-1.47826,1.6795,-9.59402,-9.38921,-8.62342,97.8416
2023-02-16 05:49:33:191,-1.36479,1.65453,-9.57404,-9.36781,-8.62685,97.7993
2023-02-16 05:49:33:201,-1.28492,1.60555,-9.52683,-9.34839,-8.63122,97.76
2023-02-16 05:49:33:211,-1.23086,1.5898,-9.48381,-9.33672,-8.63361,97.7241
2023-02-16 05:49:33:221,-1.21488,1.57977,-9.49554,-9.32953,-8.63117,97.6992
2023-02-16 05:49:33:231,-1.28026,1.60604,-9.49401,-9.32981,-8.62403,97.6827
2023-02-16 05:49:33:241,-1.33915,1.60666,-9.45323,-9.33258,-8.61215,97.6757
2023-02-16 05:49:33:251,-1.37954,1.62406,-9.44048,-9.33452,-8.58981,97.6753
2023-02-16 05:49:33:261,-1.44064,1.66133,-9.45894,-9.34274,-8.56396,97.6795
2023-02-16 05:49:33:270,-1.48023,1.67218,-9.44178,-9.34675,-8.53287,97.6799
2023-02-16 05:49:33:280,-1.43289,1.66661,-9.42853,-9.346,-8.49908,97.6773
2023-02-16 05:49:33:290,-1.34234,1.67265,-9.50304,-9.34898,-8.4662,97.6681
2023-02-16 05:49:33:301,-1.28919,1.6869,-9.59074,-9.35241,-8.44318,97.6508
2023-02-16 05:49:33:311,-1.23708,1.72817,-9.72021,-9.35452,-8.42252,97.6341
2023-02-16 05:49:33:321,-1.12338,1.74341,-9.77796,-9.34781,-8.40861,97.6169
2023-02-16 05:49:33:331,-1.13355,1.71459,-9.75189,-9.32998,-8.40077,97.6069
2023-02-16 05:49:33:341,-1.26056,1.68461,-9.70294,-9.30576,-8.39965,97.6034
2023-02-16 05:49:33:351,-1.35892,1.67289,-9.65779,-9.27739,-8.40308,97.6059
2023-02-16 05:49:33:361,-1.42134,1.65174,-9.60006,-9.24825,-8.40333,97.6103
2023-02-16 05:49:33:371,-1.46138,1.62089,-9.49293,-9.22326,-8.40146,97.606
2023-02-16 05:49:33:381,-1.4249,1.56646,-9.40141,-9.19935,-8.396,97.5946
2023-02-16 05:49:33:391,-1.32145,1.56777,-9.35218,-9.18726,-8.38535,97.5745
2023-02-16 05:49:33:401,-1.18454,1.58155,-9.35011,-9.18728,-8.3745,97.5508
2023-02-16 05:49:33:411,-1.08948,1.56682,-9.38422,-9.19754,-8.36708,97.5273
2023-02-16 05:49:33:421,-1.05496,1.58345,-9.41201,-9.21326,-8.36714,97.5081
2023-02-16 05:49:33:431,-1.07475,1.60399,-9.43966,-9.23504,-8.3734,97.4982
2023-02-16 05:49:33:441,-1.13286,1.64118,-9.479,-9.26588,-8.38616,97.4985
2023-02-16 05:49:33:451,-1.19645,1.67352,-9.52404,-9.29498,-8.39753,97.511
2023-02-16 05:49:33:461,-1.29441,1.69298,-9.55266,-9.32219,-8.41097,97.5331
2023-02-16 05:49:33:471,-1.36563,1.69702,-9.55372,-9.3457,-8.42305,97.5544
2023-02-16 05:49:33:481,-1.39557,1.67529,-9.54274,-9.36188,-8.4324,97.5777
2023-02-16 05:49:33:491,-1.40984,1.65651,-9.51921,-9.37746,-8.44593,97.5998
2023-02-16 05:49:33:501,-1.40786,1.65004,-9.50583,-9.39598,-8.46294,97.6199
2023-02-16 05:49:33:511,-1.364,1.63603,-9.53625,-9.41923,-8.4854,97.6381
2023-02-16 05:49:33:521,-1.35313,1.64265,-9.54077,-9.44418,-8.51418,97.6593
2023-02-16 05:49:33:531,-1.36867,1.64878,-9.51581,-9.47267,-8.55203,97.6832
2023-02-16 05:49:33:541,-1.42611,1.65148,-9.50411,-9.50395,-8.5936,97.7116
2023-02-16 05:49:33:551,-1.53218,1.67645,-9.52545,-9.53819,-8.64148,97.74
2023-02-16 05:49:33:561,-1.64806,1.68844,-9.51269,-9.57375,-8.68748,97.7713
2023-02-16 05:49:33:571,-1.70931,1.70152,-9.51853,-9.60242,-8.72658,97.8018
2023-02-16 05:49:33:581,-1.71176,1.70623,-9.52007,-9.6338,-8.75624,97.8298
2023-02-16 05:49:33:591,-1.66299,1.67371,-9.49899,-9.66137,-8.78046,97.8552
2023-02-16 05:49:33:601,-1.65925,1.66472,-9.49979,-9.69156,-8.80142,97.8729
2023-02-16 05:49:33:611,-1.66958,1.66477,-9.49368,-9.72077,-8.81951,97.888
2023-02-16 05:49:33:621,-1.64509,1.66239,-9.50204,-9.7528,-8.84076,97.8993
2023-02-16 05:49:33:631,-1.62558,1.65881,-9.52057,-9.78342,-8.85447,97.9082
2023-02-16 05:49:33:641,-1.65096,1.65946,-9.54733,-9.81335,-8.87024,97.9135
2023-02-16 05:49:33:651,-1.69507,1.68151,-9.57734,-9.84165,-8.88028,97.916
2023-02-16 05:49:33:661,-1.71895,1.68842,-9.60407,-9.86678,-8.8846,97.913
2023-02-16 05:49:33:671,-1.6947,1.68919,-9.62039,-9.88527,-8.88093,97.9096
2023-02-16 05:49:33:681,-1.64785,1.66409,-9.60338,-9.89639,-8.87289,97.8965
2023-02-16 05:49:33:691,-1.6057,1.62591,-9.55689,-9.90352,-8.86084,97.882
2023-02-16 05:49:33:701,-1.55903,1.59362,-9.48409,-9.91368,-8.84994,97.8633
2023-02-16 05:49:33:711,-1.54019,1.5718,-9.45577,-9.92414,-8.84276,97.8426
2023-02-16 05:49:33:721,-1.53458,1.58099,-9.43859,-9.94209,-8.83519,97.8236
2023-02-16 05:49:33:731,-1.57462,1.57357,-9.40096,-9.96561,-8.83338,97.8035
2023-02-16 05:49:33:741,-1.60611,1.5729,-9.35081,-9.99365,-8.83629,97.7858
2023-02-16 05:49:33:751,-1.63829,1.58377,-9.33291,-10.0312,-8.84129,97.7659
2023-02-16 05:49:33:761,-1.67583,1.6,-9.31653,-10.0781,-8.85028,97.7456
2023-02-16 05:49:33:771,-1.69513,1.62428,-9.31743,-10.1282,-8.85411,97.722
2023-02-16 05:49:33:781,-1.69158,1.65494,-9.3323,-10.1852,-8.85372,97.6994
2023-02-16 05:49:33:791,-1.68178,1.67695,-9.34932,-10.2454,-8.85316,97.6741
2023-02-16 05:49:33:801,-1.68064,1.71365,-9.39252,-10.3069,-8.8489,97.6466
2023-02-16 05:49:33:811,-1.66084,1.75045,-9.424,-10.3723,-8.84689,97.6173
2023-02-16 05:49:33:821,-1.66493,1.77351,-9.45889,-10.4352,-8.84239,97.5886
2023-02-16 05:49:33:831,-1.64828,1.79742,-9.49368,-10.5017,-8.8346,97.5561
2023-02-16 05:49:33:841,-1.65125,1.83146,-9.51803,-10.5691,-8.83256,97.523
2023-02-16 05:49:33:851,-1.69439,1.85086,-9.52709,-10.6316,-8.8289,97.4924
2023-02-16 05:49:33:861,-1.7239,1.85479,-9.53484,-10.6892,-8.82813,97.4549
2023-02-16 05:49:33:871,-1.74631,1.87248,-9.54842,-10.7487,-8.82221,97.4159
2023-02-16 05:49:33:881,-1.73965,1.88415,-9.55163,-10.8012,-8.813,97.3699
2023-02-16 05:49:33:891,-1.73989,1.86304,-9.51459,-10.8531,-8.8069,97.3164
2023-02-16 05:49:33:901,-1.72809,1.85489,-9.49138,-10.9017,-8.79371,97.256
2023-02-16 05:49:33:911,-1.72151,1.87611,-9.4944,-10.9502,-8.78028,97.1854
2023-02-16 05:49:33:921,-1.69668,1.90828,-9.49296,-10.995,-8.76777,97.1076
2023-02-16 05:49:33:931,-1.64732,1.90126,-9.49108,-11.0395,-8.75016,97.0145
2023-02-16 05:49:33:941,-1.59295,1.89628,-9.48472,-11.0812,-8.72902,96.9182
2023-02-16 05:49:33:951,-1.54429,1.89963,-9.4488,-11.1163,-8.70533,96.8162
2023-02-16 05:49:33:961,-1.54225,1.90652,-9.43872,-11.1557,-8.67738,96.7134
2023-02-16 05:49:33:971,-1.63431,1.92805,-9.44858,-11.1885,-8.64811,96.6065
2023-02-16 05:49:33:981,-1.7611,1.95394,-9.44228,-11.2173,-8.61238,96.4951
2023-02-16 05:49:33:991,-1.76611,1.95852,-9.44175,-11.2456,-8.56731,96.3746
2023-02-16 05:49:34:1,-1.72232,1.9634,-9.44418,-11.2657,-8.51632,96.2411
2023-02-16 05:49:34:11,-1.68788,1.97198,-9.47729,-11.2913,-8.46082,96.0993
2023-02-16 05:49:34:21,-1.6164,1.96745,-9.53921,-11.3149,-8.40363,95.9437
2023-02-16 05:49:34:31,-1.51494,1.97331,-9.60619,-11.3391,-8.34722,95.7809
2023-02-16 05:49:34:41,-1.4539,1.96759,-9.63285,-11.3533,-8.29433,95.6162
2023-02-16 05:49:34:51,-1.43133,1.96742,-9.61507,-11.3664,-8.24385,95.4451
2023-02-16 05:49:34:61,-1.41509,1.95985,-9.58948,-11.373,-8.18934,95.2736
2023-02-16 05:49:34:71,-1.38469,1.94043,-9.54133,-11.3764,-8.13379,95.0989
2023-02-16 05:49:34:81,-1.35682,1.91823,-9.50004,-11.3796,-8.0728,94.9268
2023-02-16 05:49:34:91,-1.32738,1.91328,-9.46956,-11.3823,-8.01092,94.751
2023-02-16 05:49:34:101,-1.27884,1.90196,-9.45272,-11.3884,-7.94371,94.5759
2023-02-16 05:49:34:111,-1.2444,1.90432,-9.46024,-11.397,-7.87758,94.3996
2023-02-16 05:49:34:121,-1.24627,1.92156,-9.49114,-11.4095,-7.81407,94.2215
2023-02-16 05:49:34:131,-1.28688,1.95608,-9.50379,-11.4233,-7.75254,94.0483
2023-02-16 05:49:34:141,-1.31537,1.97096,-9.51632,-11.4299,-7.69316,93.8742
2023-02-16 05:49:34:151,-1.34681,1.96983,-9.49456,-11.4321,-7.63152,93.691
2023-02-16 05:49:34:161,-1.37369,1.98012,-9.49936,-11.436,-7.56723,93.5081
2023-02-16 05:49:34:171,-1.30351,1.97553,-9.49674,-11.4376,-7.50309,93.3194
2023-02-16 05:49:34:181,-1.25018,1.95121,-9.47234,-11.4387,-7.43519,93.1246
2023-02-16 05:49:34:191,-1.24574,1.95486,-9.45609,-11.4378,-7.36612,92.9267
2023-02-16 05:49:34:201,-1.21456,1.95113,-9.46411,-11.4371,-7.29632,92.7256
2023-02-16 05:49:34:211,-1.1843,1.95673,-9.47712,-11.4357,-7.22733,92.5261
2023-02-16 05:49:34:221,-1.17394,1.95865,-9.49931,-11.4345,-7.15758,92.3252
2023-02-16 05:49:34:231,-1.12246,1.95593,-9.5228,-11.4367,-7.088,92.1241
2023-02-16 05:49:34:241,-1.05083,1.95411,-9.59577,-11.44,-7.01708,91.9272
2023-02-16 05:49:34:251,-1.00436,1.9794,-9.65554,-11.4389,-6.94228,91.7335
2023-02-16 05:49:34:261,-0.972016,2.00047,-9.66897,-11.4346,-6.87242,91.5477
2023-02-16 05:49:34:271,-0.948772,1.97686,-9.64523,-11.4271,-6.80433,91.3648
2023-02-16 05:49:34:281,-0.918094,1.96636,-9.61571,-11.418,-6.74227,91.194
2023-02-16 05:49:34:291,-0.898359,1.99481,-9.56599,-11.4142,-6.67984,91.0262
2023-02-16 05:49:34:301,-0.867146,1.97791,-9.52419,-11.407,-6.62236,90.8689
2023-02-16 05:49:34:311,-0.816487,1.96285,-9.49478,-11.3962,-6.56544,90.7145
2023-02-16 05:49:34:321,-0.772459,1.94008,-9.46623,-11.3889,-6.51554,90.5724
2023-02-16 05:49:34:331,-0.741006,1.93713,-9.44536,-11.3803,-6.46758,90.4415
2023-02-16 05:49:34:341,-0.689279,1.92506,-9.47603,-11.3749,-6.42028,90.3264
2023-02-16 05:49:34:351,-0.651028,1.91736,-9.50901,-11.3705,-6.37891,90.2204
2023-02-16 05:49:34:361,-0.670658,1.92702,-9.52363,-11.365,-6.33592,90.1295
2023-02-16 05:49:34:371,-0.713346,1.93434,-9.54846,-11.3621,-6.29852,90.0555
2023-02-16 05:49:34:381,-0.742528,1.94787,-9.58986,-11.3584,-6.25887,89.9988
2023-02-16 05:49:34:391,-0.756468,1.95454,-9.59835,-11.3526,-6.22201,89.9552
2023-02-16 05:49:34:401,-0.783779,1.9507,-9.58579,-11.3459,-6.18701,89.922
2023-02-16 05:49:34:411,-0.819042,1.93579,-9.59249,-11.3411,-6.15529,89.902
2023-02-16 05:49:34:421,-0.84703,1.92999,-9.57488,-11.3331,-6.12406,89.8891
2023-02-16 05:49:34:431,-0.872943,1.91488,-9.55733,-11.3295,-6.09745,89.8822
2023-02-16 05:49:34:441,-0.892692,1.92612,-9.55328,-11.3284,-6.07798,89.8771
2023-02-16 05:49:34:451,-0.906087,1.93132,-9.544,-11.3285,-6.06198,89.8749
2023-02-16 05:49:34:461,-0.916453,1.91939,-9.53077,-11.3293,-6.05288,89.8766
2023-02-16 05:49:34:471,-0.909697,1.91723,-9.51102,-11.3353,-6.04607,89.8837
2023-02-16 05:49:34:481,-0.925775,1.91893,-9.48628,-11.3389,-6.04527,89.8868
2023-02-16 05:49:34:491,-0.976714,1.93388,-9.49994,-11.3439,-6.04741,89.8935
2023-02-16 05:49:34:501,-1.01044,1.95553,-9.52819,-11.3532,-6.05029,89.9018
2023-02-16 05:49:34:511,-0.977902,1.97828,-9.58049,-11.3579,-6.052,89.9062
2023-02-16 05:49:34:521,-0.956087,1.97409,-9.61425,-11.3636,-6.05674,89.9151
2023-02-16 05:49:34:531,-0.987735,1.95775,-9.60094,-11.3613,-6.06446,89.9215
2023-02-16 05:49:34:541,-0.99849,1.95237,-9.57994,-11.3578,-6.07492,89.9274
2023-02-16 05:49:34:551,-0.989368,1.94047,-9.57479,-11.3512,-6.08743,89.9363
2023-02-16 05:49:34:561,-1.0031,1.92737,-9.53781,-11.3446,-6.102,89.9542
2023-02-16 05:49:34:571,-1.02843,1.91276,-9.51767,-11.3386,-6.11734,89.9721
2023-02-16 05:49:34:581,-1.04121,1.91607,-9.49248,-11.3361,-6.12946,89.9875
2023-02-16 05:49:34:591,-1.06178,1.924,-9.49222,-11.3331,-6.14083,89.998
2023-02-16 05:49:34:601,-1.07801,1.93215,-9.51612,-11.3324,-6.15082,90.0168
2023-02-16 05:49:34:611,-1.08447,1.93663,-9.52711,-11.3341,-6.16131,90.0292
2023-02-16 05:49:34:621,-1.09423,1.95289,-9.52806,-11.3383,-6.16994,90.0427
2023-02-16 05:49:34:631,-1.0849,1.95708,-9.54644,-11.3391,-6.1801,90.0543
2023-02-16 05:49:34:641,-1.05991,1.94159,-9.55077,-11.3362,-6.19464,90.0629
2023-02-16 05:49:34:651,-1.0447,1.93112,-9.53675,-11.33,-6.20628,90.0735
2023-02-16 05:49:34:661,-1.04005,1.9365,-9.54648,-11.3251,-6.22086,90.0813
2023-02-16 05:49:34:671,-1.02417,1.94075,-9.53733,-11.3159,-6.2386,90.087
2023-02-16 05:49:34:681,-1.0153,1.91795,-9.53155,-11.311,-6.25467,90.099
2023-02-16 05:49:34:691,-1.01433,1.89649,-9.53786,-11.3015,-6.2738,90.1139
2023-02-16 05:49:34:701,-1.02174,1.89366,-9.52081,-11.2934,-6.29203,90.1273
2023-02-16 05:49:34:711,-1.03784,1.87953,-9.51132,-11.2878,-6.30951,90.1452
2023-02-16 05:49:34:721,-1.06921,1.89233,-9.52332,-11.2814,-6.33073,90.1652
2023-02-16 05:49:34:731,-1.09223,1.88794,-9.50877,-11.2793,-6.35163,90.1846
2023-02-16 05:49:34:741,-1.11434,1.89682,-9.48951,-11.2753,-6.37033,90.2092
2023-02-16 05:49:34:751,-1.14447,1.90088,-9.49173,-11.2758,-6.38873,90.2347
2023-02-16 05:49:34:761,-1.14548,1.89792,-9.50055,-11.2745,-6.40775,90.2597
2023-02-16 05:49:34:771,-1.13974,1.90393,-9.4918,-11.2779,-6.42178,90.2859
2023-02-16 05:49:34:781,-1.13745,1.91373,-9.48879,-11.2817,-6.43716,90.3102
2023-02-16 05:49:34:791,-1.14635,1.92585,-9.49719,-11.2858,-6.45263,90.3304
2023-02-16 05:49:34:801,-1.14077,1.93605,-9.51646,-11.2895,-6.46708,90.3538
2023-02-16 05:49:34:811,-1.14283,1.94342,-9.52678,-11.2914,-6.47672,90.3752
2023-02-16 05:49:34:821,-1.15718,1.93747,-9.53877,-11.2934,-6.48701,90.3932
2023-02-16 05:49:34:831,-1.16058,1.93658,-9.51909,-11.2912,-6.49335,90.4093
2023-02-16 05:49:34:841,-1.17538,1.9331,-9.52281,-11.2917,-6.50383,90.422
2023-02-16 05:49:34:851,-1.17857,1.93828,-9.52573,-11.2902,-6.51234,90.4357
2023-02-16 05:49:34:861,-1.17192,1.92989,-9.51326,-11.2871,-6.51799,90.4456
2023-02-16 05:49:34:871,-1.14538,1.9186,-9.50114,-11.2825,-6.52468,90.4563
2023-02-16 05:49:34:881,-1.12677,1.91517,-9.5113,-11.2807,-6.53131,90.4657
2023-02-16 05:49:34:891,-1.10993,1.92205,-9.52442,-11.2766,-6.53669,90.4772
2023-02-16 05:49:34:901,-1.09425,1.91705,-9.53989,-11.2754,-6.53904,90.4879
2023-02-16 05:49:34:911,-1.09124,1.94023,-9.55951,-11.2781,-6.54139,90.4974
2023-02-16 05:49:34:921,-1.08951,1.95648,-9.58315,-11.2776,-6.54382,90.51
2023-02-16 05:49:34:931,-1.08586,1.96239,-9.59564,-11.2733,-6.54655,90.5251
2023-02-16 05:49:34:941,-1.09614,1.96514,-9.60261,-11.2662,-6.55078,90.5393
2023-02-16 05:49:34:951,-1.08614,1.94411,-9.59522,-11.2554,-6.55119,90.5572
2023-02-16 05:49:34:961,-1.07371,1.92571,-9.56052,-11.2409,-6.55097,90.5765
2023-02-16 05:49:34:971,-1.06375,1.9187,-9.51384,-11.2259,-6.54981,90.5993
2023-02-16 05:49:34:981,-1.02467,1.89436,-9.51275,-11.2093,-6.55146,90.6219
2023-02-16 05:49:34:991,-1.00221,1.89559,-9.53093,-11.1942,-6.55082,90.6517
2023-02-16 05:49:35:1,-0.957815,1.89874,-9.53993,-11.1791,-6.55534,90.683
2023-02-16 05:49:35:11,-0.91069,1.89238,-9.55694,-11.1632,-6.55567,90.7238
2023-02-16 05:49:35:21,-0.908183,1.89039,-9.54584,-11.1475,-6.55329,90.7739
2023-02-16 05:49:35:31,-0.938951,1.88952,-9.55233,-11.1305,-6.54933,90.8332
2023-02-16 05:49:35:41,-0.959017,1.90406,-9.56826,-11.1123,-6.54466,90.9063
2023-02-16 05:49:35:51,-0.97921,1.88549,-9.57308,-11.0936,-6.53882,90.9866
2023-02-16 05:49:35:61,-1.00102,1.87144,-9.54428,-11.0702,-6.52983,91.0726
2023-02-16 05:49:35:71,-1.04717,1.86799,-9.49972,-11.0473,-6.51874,91.1639
2023-02-16 05:49:35:81,-1.08732,1.86838,-9.45872,-11.027,-6.51277,91.2601
2023-02-16 05:49:35:91,-1.1122,1.86018,-9.45851,-11.0104,-6.50353,91.358
2023-02-16 05:49:35:101,-1.1509,1.86756,-9.4872,-10.9922,-6.49677,91.4591
2023-02-16 05:49:35:111,-1.21412,1.87542,-9.53494,-10.9798,-6.48384,91.5549
2023-02-16 05:49:35:121,-1.212,1.90568,-9.59242,-10.9682,-6.46749,91.649
2023-02-16 05:49:35:131,-1.18278,1.91222,-9.64956,-10.954,-6.44778,91.7381
2023-02-16 05:49:35:141,-1.20692,1.91082,-9.6648,-10.9365,-6.43545,91.8211
2023-02-16 05:49:35:151,-1.23075,1.92806,-9.64062,-10.9165,-6.42789,91.9032
2023-02-16 05:49:35:161,-1.24153,1.9179,-9.60662,-10.8886,-6.42362,91.9774
2023-02-16 05:49:35:171,-1.26162,1.90505,-9.52729,-10.8583,-6.41522,92.0454
2023-02-16 05:49:35:181,-1.27086,1.88257,-9.46825,-10.8258,-6.40841,92.1071
2023-02-16 05:49:35:191,-1.27533,1.87313,-9.42789,-10.7923,-6.39832,92.1603
2023-02-16 05:49:35:201,-1.27682,1.87043,-9.40374,-10.763,-6.39121,92.2061
2023-02-16 05:49:35:211,-1.27587,1.8859,-9.4358,-10.7368,-6.38414,92.2419
2023-02-16 05:49:35:221,-1.3102,1.8804,-9.46155,-10.7163,-6.37676,92.2698
2023-02-16 05:49:35:231,-1.30064,1.88524,-9.45777,-10.6956,-6.37228,92.2863
2023-02-16 05:49:35:241,-1.28257,1.86907,-9.46502,-10.6759,-6.36809,92.2957
2023-02-16 05:49:35:251,-1.27613,1.89084,-9.52225,-10.6544,-6.36251,92.2967
2023-02-16 05:49:35:261,-1.28001,1.92023,-9.62023,-10.6328,-6.3523,92.2876
2023-02-16 05:49:35:271,-1.25689,1.95566,-9.67397,-10.6062,-6.34565,92.2715
2023-02-16 05:49:35:281,-1.19318,1.96246,-9.69902,-10.5752,-6.33009,92.2471
2023-02-16 05:49:35:291,-1.13028,1.94,-9.67359,-10.5318,-6.31196,92.2207
2023-02-16 05:49:35:301,-1.09978,1.92286,-9.63145,-10.4848,-6.28746,92.1935
2023-02-16 05:49:35:311,-1.09957,1.89285,-9.58318,-10.4311,-6.26238,92.1658
2023-02-16 05:49:35:321,-1.06921,1.87218,-9.55223,-10.3768,-6.2333,92.1378
2023-02-16 05:49:35:331,-1.02728,1.86327,-9.55668,-10.3237,-6.20096,92.1108
2023-02-16 05:49:35:341,-1.02101,1.85198,-9.55499,-10.2714,-6.16691,92.0874
2023-02-16 05:49:35:351,-1.03201,1.83902,-9.51958,-10.2177,-6.12826,92.0664
2023-02-16 05:49:35:361,-1.05048,1.83643,-9.54178,-10.1605,-6.08686,92.0505
2023-02-16 05:49:35:371,-1.06804,1.85987,-9.58903,-10.1044,-6.04349,92.0332
2023-02-16 05:49:35:381,-1.04941,1.85531,-9.6314,-10.0483,-5.99687,92.011
2023-02-16 05:49:35:391,-1.01802,1.82412,-9.6327,-9.98547,-5.95536,91.9913
2023-02-16 05:49:35:401,-1.01671,1.79486,-9.62194,-9.91717,-5.91771,91.969
2023-02-16 05:49:35:411,-1.00676,1.77057,-9.60188,-9.84684,-5.88045,91.9448
2023-02-16 05:49:35:421,-1.00438,1.74247,-9.59673,-9.77457,-5.84732,91.9154
2023-02-16 05:49:35:431,-1.02254,1.72893,-9.58373,-9.70007,-5.81635,91.8888
2023-02-16 05:49:35:441,-1.01207,1.70944,-9.58691,-9.63073,-5.78671,91.8648
2023-02-16 05:49:35:451,-0.96894,1.68374,-9.58455,-9.55361,-5.75591,91.8335
2023-02-16 05:49:35:461,-0.957511,1.67173,-9.60425,-9.47695,-5.71891,91.8008
2023-02-16 05:49:35:471,-0.947113,1.66795,-9.62641,-9.40025,-5.68266,91.7714
2023-02-16 05:49:35:481,-0.901112,1.65764,-9.61377,-9.32418,-5.64439,91.7376
2023-02-16 05:49:35:491,-0.843464,1.6232,-9.61307,-9.24874,-5.60741,91.7058
2023-02-16 05:49:35:501,-0.813764,1.59138,-9.60396,-9.16917,-5.57367,91.6769
2023-02-16 05:49:35:511,-0.787112,1.58084,-9.63129,-9.09065,-5.54861,91.6491
2023-02-16 05:49:35:521,-0.77677,1.56564,-9.63741,-9.01163,-5.52987,91.6216
2023-02-16 05:49:35:531,-0.77939,1.5454,-9.62754,-8.93354,-5.51662,91.5965
2023-02-16 05:49:35:541,-0.762141,1.52656,-9.62807,-8.85367,-5.50561,91.5745
2023-02-16 05:49:35:551,-0.766136,1.49642,-9.62787,-8.77297,-5.49612,91.5545
2023-02-16 05:49:35:561,-0.758123,1.46727,-9.62407,-8.69535,-5.49069,91.5419
2023-02-16 05:49:35:571,-0.771887,1.44652,-9.62157,-8.61867,-5.48851,91.5312
2023-02-16 05:49:35:581,-0.79744,1.44081,-9.62289,-8.54281,-5.4916,91.5225
2023-02-16 05:49:35:591,-0.80282,1.41796,-9.65226,-8.4653,-5.49574,91.5203
2023-02-16 05:49:35:601,-0.787082,1.41303,-9.65938,-8.39228,-5.50349,91.5248
2023-02-16 05:49:35:611,-0.784799,1.3962,-9.64771,-8.31767,-5.51602,91.5295
2023-02-16 05:49:35:621,-0.822497,1.37008,-9.62317,-8.24337,-5.52981,91.5367
2023-02-16 05:49:35:631,-0.828002,1.34908,-9.59103,-8.17082,-5.55072,91.547
2023-02-16 05:49:35:641,-0.840891,1.33091,-9.58658,-8.1026,-5.57282,91.5586
2023-02-16 05:49:35:651,-0.877804,1.31475,-9.61111,-8.04098,-5.59899,91.5729
2023-02-16 05:49:35:661,-0.910985,1.31613,-9.64916,-7.97975,-5.63212,91.5869
2023-02-16 05:49:35:671,-0.946827,1.31282,-9.6697,-7.91535,-5.67421,91.6004
2023-02-16 05:49:35:681,-0.959131,1.27798,-9.64457,-7.85165,-5.71986,91.607
2023-02-16 05:49:35:691,-0.962074,1.26609,-9.60617,-7.79416,-5.77537,91.6106
2023-02-16 05:49:35:701,-0.980818,1.25231,-9.55202,-7.73875,-5.8453,91.6068
2023-02-16 05:49:35:711,-1.00323,1.24401,-9.54517,-7.68923,-5.91737,91.5944
2023-02-16 05:49:35:721,-1.01734,1.23026,-9.53951,-7.64569,-5.98905,91.5782
2023-02-16 05:49:35:731,-0.996864,1.21629,-9.51255,-7.60741,-6.05403,91.5598
2023-02-16 05:49:35:741,-0.985065,1.22266,-9.5201,-7.5761,-6.11759,91.546
2023-02-16 05:49:35:751,-0.984556,1.23195,-9.54174,-7.54918,-6.17253,91.531
2023-02-16 05:49:35:761,-0.964273,1.24172,-9.56431,-7.52246,-6.22261,91.5215
2023-02-16 05:49:35:771,-0.938601,1.23956,-9.58575,-7.50148,-6.2692,91.5173
2023-02-16 05:49:35:781,-0.969042,1.222,-9.59517,-7.48284,-6.30939,91.5184
2023-02-16 05:49:35:791,-0.995898,1.22345,-9.59319,-7.46428,-6.34329,91.5295
2023-02-16 05:49:35:801,-1.04765,1.22588,-9.61725,-7.44658,-6.3716,91.5485
2023-02-16 05:49:35:811,-1.10035,1.24551,-9.61558,-7.4326,-6.39741,91.5729
2023-02-16 05:49:35:821,-1.12341,1.2532,-9.60467,-7.41703,-6.41676,91.5987
2023-02-16 05:49:35:831,-1.15557,1.23586,-9.57535,-7.39971,-6.4346,91.6234
2023-02-16 05:49:35:841,-1.17888,1.23046,-9.57695,-7.38607,-6.44864,91.6506
2023-02-16 05:49:35:851,-1.18796,1.24562,-9.6072,-7.37892,-6.46119,91.6767
2023-02-16 05:49:35:861,-1.18537,1.25175,-9.63356,-7.36686,-6.47053,91.6987
2023-02-16 05:49:35:871,-1.19883,1.26358,-9.63754,-7.35641,-6.47598,91.7212
2023-02-16 05:49:35:881,-1.18985,1.2612,-9.64403,-7.34268,-6.48086,91.742
2023-02-16 05:49:35:891,-1.18592,1.27209,-9.63609,-7.32699,-6.48292,91.7572
2023-02-16 05:49:35:901,-1.19351,1.25045,-9.62527,-7.31044,-6.48461,91.7705
2023-02-16 05:49:35:911,-1.21322,1.23954,-9.63564,-7.29624,-6.48648,91.7792
2023-02-16 05:49:35:921,-1.22736,1.2389,-9.63395,-7.27857,-6.48757,91.7864
2023-02-16 05:49:35:931,-1.20657,1.23347,-9.62196,-7.2615,-6.48448,91.7905
2023-02-16 05:49:35:941,-1.1827,1.21451,-9.61822,-7.24021,-6.483,91.7908
2023-02-16 05:49:35:951,-1.16749,1.19742,-9.61026,-7.22256,-6.47641,91.7868
2023-02-16 05:49:35:961,-1.15736,1.18476,-9.59902,-7.2027,-6.47007,91.7785
2023-02-16 05:49:35:971,-1.13717,1.17871,-9.61608,-7.18625,-6.46548,91.7692
2023-02-16 05:49:35:981,-1.12009,1.20343,-9.64463,-7.17005,-6.45817,91.7608
2023-02-16 05:49:35:991,-1.09881,1.22775,-9.68271,-7.15227,-6.44426,91.7498
2023-02-16 05:49:36:1,-1.0413,1.21364,-9.71708,-7.13213,-6.43313,91.7399
2023-02-16 05:49:36:11,-1.00664,1.19696,-9.69918,-7.10973,-6.42678,91.7306
2023-02-16 05:49:36:21,-1.01325,1.17679,-9.67441,-7.08901,-6.42528,91.7241
2023-02-16 05:49:36:31,-1.0231,1.17015,-9.62989,-7.06941,-6.43017,91.7209
2023-02-16 05:49:36:41,-1.03949,1.16179,-9.58001,-7.05295,-6.43927,91.7208
2023-02-16 05:49:36:51,-1.06343,1.16296,-9.54179,-7.04379,-6.45021,91.7216
2023-02-16 05:49:36:61,-1.08298,1.16796,-9.51717,-7.04107,-6.46402,91.7256
2023-02-16 05:49:36:71,-1.08448,1.16782,-9.52357,-7.04086,-6.47289,91.7278
2023-02-16 05:49:36:81,-1.09119,1.17915,-9.54182,-7.0439,-6.48283,91.7364
2023-02-16 05:49:36:91,-1.11817,1.18723,-9.5729,-7.04952,-6.49351,91.7432
2023-02-16 05:49:36:101,-1.12908,1.20459,-9.58732,-7.05895,-6.5021,91.7511
2023-02-16 05:49:36:111,-1.13762,1.18561,-9.60467,-7.06748,-6.51079,91.7562
2023-02-16 05:49:36:121,-1.1255,1.18899,-9.59362,-7.07428,-6.51806,91.7604
2023-02-16 05:49:36:131,-1.1115,1.18763,-9.59399,-7.0815,-6.52933,91.7655
2023-02-16 05:49:36:141,-1.10271,1.18492,-9.59294,-7.09353,-6.53644,91.7663
2023-02-16 05:49:36:151,-1.10542,1.17968,-9.61675,-7.1102,-6.54523,91.7693
2023-02-16 05:49:36:161,-1.10676,1.1864,-9.62942,-7.12936,-6.5519,91.7723
2023-02-16 05:49:36:171,-1.11631,1.19585,-9.64065,-7.14446,-6.55384,91.7772
2023-02-16 05:49:36:181,-1.11136,1.21395,-9.65248,-7.16612,-6.55638,91.7849
2023-02-16 05:49:36:191,-1.12207,1.22434,-9.65575,-7.1871,-6.56106,91.7899
2023-02-16 05:49:36:201,-1.13812,1.21799,-9.67779,-7.20458,-6.56724,91.7961
2023-02-16 05:49:36:211,-1.13309,1.22236,-9.6682,-7.22255,-6.57234,91.8017
2023-02-16 05:49:36:221,-1.11936,1.22639,-9.6461,-7.24044,-6.5827,91.8066
2023-02-16 05:49:36:231,-1.14002,1.23624,-9.60381,-7.25823,-6.59622,91.8108
2023-02-16 05:49:36:241,-1.15681,1.22562,-9.57729,-7.27838,-6.60531,91.8154
2023-02-16 05:49:36:251,-1.15052,1.23385,-9.60085,-7.29724,-6.61094,91.8188
2023-02-16 05:49:36:261,-1.10385,1.25697,-9.62133,-7.31755,-6.61536,91.8161
2023-02-16 05:49:36:271,-1.09625,1.25289,-9.63097,-7.33599,-6.62407,91.8138
2023-02-16 05:49:36:281,-1.12371,1.27212,-9.64141,-7.35665,-6.6342,91.811
2023-02-16 05:49:36:291,-1.14663,1.27499,-9.6717,-7.37905,-6.64579,91.8132
2023-02-16 05:49:36:301,-1.16618,1.28714,-9.68592,-7.39715,-6.65544,91.8111
2023-02-16 05:49:36:311,-1.18025,1.30498,-9.69106,-7.41302,-6.66216,91.8172
2023-02-16 05:49:36:321,-1.18041,1.2899,-9.67159,-7.4268,-6.66528,91.8212
2023-02-16 05:49:36:331,-1.18274,1.29046,-9.66978,-7.43884,-6.66597,91.8235
2023-02-16 05:49:36:341,-1.17619,1.30568,-9.66246,-7.44801,-6.65991,91.8264
2023-02-16 05:49:36:351,-1.16432,1.31091,-9.62949,-7.45685,-6.65608,91.8332
2023-02-16 05:49:36:361,-1.17042,1.29632,-9.61913,-7.46571,-6.64734,91.8337
2023-02-16 05:49:36:371,-1.17037,1.30517,-9.60505,-7.47236,-6.63954,91.8341
2023-02-16 05:49:36:381,-1.15414,1.30814,-9.59412,-7.47974,-6.63118,91.8296
2023-02-16 05:49:36:391,-1.14799,1.31109,-9.60759,-7.48846,-6.61843,91.8271
2023-02-16 05:49:36:401,-1.13106,1.3175,-9.63003,-7.49732,-6.61005,91.823
2023-02-16 05:49:36:411,-1.10294,1.31167,-9.6488,-7.50033,-6.6025,91.818
2023-02-16 05:49:36:421,-1.07884,1.29455,-9.6458,-7.5034,-6.59439,91.8116
2023-02-16 05:49:36:431,-1.06922,1.29234,-9.65255,-7.50766,-6.58969,91.806
2023-02-16 05:49:36:441,-1.0596,1.29505,-9.65445,-7.51194,-6.58547,91.799
2023-02-16 05:49:36:451,-1.03702,1.28756,-9.62965,-7.51756,-6.57999,91.7937
2023-02-16 05:49:36:461,-1.04709,1.2748,-9.61066,-7.52072,-6.57484,91.7928
2023-02-16 05:49:36:471,-1.06404,1.27029,-9.61224,-7.52391,-6.57097,91.797
2023-02-16 05:49:36:481,-1.06819,1.27121,-9.59515,-7.53387,-6.56704,91.8006
2023-02-16 05:49:36:491,-1.09925,1.27755,-9.59291,-7.54333,-6.56468,91.805
2023-02-16 05:49:36:501,-1.12109,1.28823,-9.60077,-7.55663,-6.55916,91.8125
2023-02-16 05:49:36:511,-1.11815,1.3053,-9.60121,-7.57211,-6.55349,91.8215
2023-02-16 05:49:36:521,-1.11657,1.3181,-9.59415,-7.58691,-6.54987,91.8278
2023-02-16 05:49:36:531,-1.12852,1.32224,-9.59779,-7.60331,-6.54616,91.8373
2023-02-16 05:49:36:541,-1.14326,1.32156,-9.60137,-7.62124,-6.54363,91.8438
2023-02-16 05:49:36:551,-1.10823,1.33033,-9.60989,-7.63965,-6.53618,91.8495
2023-02-16 05:49:36:561,-1.08994,1.32698,-9.61915,-7.65466,-6.52988,91.8507
2023-02-16 05:49:36:571,-1.07772,1.32707,-9.60783,-7.67097,-6.52583,91.8503
2023-02-16 05:49:36:581,-1.07703,1.33116,-9.58716,-7.6873,-6.52458,91.8529
2023-02-16 05:49:36:591,-1.06365,1.33983,-9.5975,-7.70784,-6.52278,91.8528
2023-02-16 05:49:36:601,-1.05461,1.35825,-9.611,-7.72655,-6.52046,91.8564
2023-02-16 05:49:36:611,-1.04222,1.36049,-9.64149,-7.74147,-6.51817,91.8602
2023-02-16 05:49:36:621,-1.05629,1.37566,-9.63923,-7.76004,-6.51444,91.8682
2023-02-16 05:49:36:631,-1.07416,1.38362,-9.64573,-7.77884,-6.50931,91.8768
2023-02-16 05:49:36:641,-1.08855,1.39128,-9.6599,-7.799,-6.5061,91.8844
2023-02-16 05:49:36:651,-1.09698,1.39387,-9.65634,-7.81907,-6.50548,91.8889
2023-02-16 05:49:36:661,-1.1156,1.40819,-9.66003,-7.83789,-6.50358,91.8964
2023-02-16 05:49:36:671,-1.09672,1.41631,-9.65743,-7.85154,-6.50199,91.9046
2023-02-16 05:49:36:681,-1.09358,1.40657,-9.64127,-7.86749,-6.50124,91.9143
2023-02-16 05:49:36:691,-1.10515,1.38794,-9.6352,-7.87839,-6.50388,91.9221
2023-02-16 05:49:36:701,-1.10362,1.40005,-9.6128,-7.88845,-6.50469,91.9294
2023-02-16 05:49:36:711,-1.09192,1.40001,-9.63069,-7.89978,-6.50794,91.9371
2023-02-16 05:49:36:721,-1.11089,1.41766,-9.65794,-7.90705,-6.50943,91.9394
2023-02-16 05:49:36:731,-1.10597,1.4297,-9.67753,-7.91313,-6.50989,91.9424
2023-02-16 05:49:36:741,-1.11492,1.43232,-9.67947,-7.91599,-6.51049,91.9466
2023-02-16 05:49:36:751,-1.12381,1.41776,-9.67558,-7.91775,-6.50996,91.9537
2023-02-16 05:49:36:761,-1.11951,1.39998,-9.65346,-7.916,-6.51078,91.96
2023-02-16 05:49:36:771,-1.11966,1.39194,-9.62549,-7.91067,-6.50846,91.9655
2023-02-16 05:49:36:781,-1.13728,1.39411,-9.61266,-7.90575,-6.50372,91.9741
2023-02-16 05:49:36:791,-1.14176,1.38558,-9.62694,-7.90036,-6.50311,91.9824
2023-02-16 05:49:36:801,-1.15338,1.38811,-9.62034,-7.89103,-6.49571,91.9903
2023-02-16 05:49:36:811,-1.16111,1.38811,-9.60963,-7.88122,-6.48726,91.998
2023-02-16 05:49:36:821,-1.14097,1.3758,-9.61602,-7.87118,-6.47803,92.0012
2023-02-16 05:49:36:831,-1.13878,1.36083,-9.60396,-7.859,-6.46764,92.0028
2023-02-16 05:49:36:841,-1.13831,1.34856,-9.58362,-7.85,-6.45665,92.0023
2023-02-16 05:49:36:851,-1.13783,1.34557,-9.56502,-7.84171,-6.4448,91.9981
2023-02-16 05:49:36:861,-1.1255,1.34584,-9.59371,-7.83775,-6.43036,91.9949
2023-02-16 05:49:36:871,-1.09566,1.36097,-9.68069,-7.83043,-6.41271,91.9882
2023-02-16 05:49:36:881,-1.03043,1.38179,-9.73902,-7.82584,-6.39722,91.9791
2023-02-16 05:49:36:891,-0.987499,1.35716,-9.74032,-7.81832,-6.38508,91.9704
2023-02-16 05:49:36:901,-1.00202,1.34534,-9.70126,-7.8045,-6.38065,91.9652
2023-02-16 05:49:36:911,-1.02095,1.34565,-9.65985,-7.7928,-6.37625,91.962
2023-02-16 05:49:36:921,-1.01438,1.3337,-9.60929,-7.77879,-6.37412,91.9607
2023-02-16 05:49:36:931,-1.01999,1.32463,-9.55872,-7.76811,-6.37193,91.9639
2023-02-16 05:49:36:941,-1.02483,1.3181,-9.53225,-7.76062,-6.36925,91.9707
2023-02-16 05:49:36:951,-1.03884,1.32663,-9.53872,-7.75776,-6.36616,91.9798
2023-02-16 05:49:36:961,-1.05143,1.34246,-9.55368,-7.75598,-6.36362,91.9858
2023-02-16 05:49:36:971,-1.06983,1.3382,-9.56467,-7.7568,-6.36258,91.9937
2023-02-16 05:49:36:981,-1.08942,1.34491,-9.58763,-7.75709,-6.36213,92.0011
2023-02-16 05:49:36:991,-1.11591,1.35816,-9.60284,-7.76071,-6.36353,92.005
2023-02-16 05:49:37:1,-1.12607,1.34974,-9.61316,-7.76532,-6.36346,92.0101
2023-02-16 05:49:37:11,-1.11898,1.34589,-9.59325,-7.76851,-6.36442,92.0121
2023-02-16 05:49:37:21,-1.11539,1.33739,-9.59333,-7.77305,-6.35929,92.0136
2023-02-16 05:49:37:31,-1.09756,1.34278,-9.6019,-7.77923,-6.35663,92.0109
2023-02-16 05:49:37:41,-1.07887,1.33473,-9.62787,-7.7837,-6.35168,92.0075
2023-02-16 05:49:37:51,-1.06456,1.33717,-9.63605,-7.79089,-6.3495,92.0045
2023-02-16 05:49:37:61,-1.04851,1.34406,-9.65825,-7.79726,-6.34375,92.0034
2023-02-16 05:49:37:71,-1.03302,1.36024,-9.67026,-7.80431,-6.33228,91.9992
2023-02-16 05:49:37:81,-1.0309,1.36641,-9.67162,-7.81292,-6.32533,91.9978
2023-02-16 05:49:37:91,-1.02879,1.37974,-9.64736,-7.82347,-6.3209,91.9994
2023-02-16 05:49:37:101,-1.03772,1.36975,-9.61175,-7.82918,-6.32084,92
2023-02-16 05:49:37:111,-1.06768,1.35453,-9.60884,-7.83905,-6.32244,92.0026
2023-02-16 05:49:37:121,-1.08647,1.36108,-9.61095,-7.84376,-6.32022,92
2023-02-16 05:49:37:131,-1.05642,1.39486,-9.62946,-7.85255,-6.31375,91.9975
2023-02-16 05:49:37:141,-1.01865,1.37677,-9.63812,-7.85796,-6.31024,91.9926
2023-02-16 05:49:37:151,-1.0253,1.36744,-9.63183,-7.85993,-6.30905,91.9873
2023-02-16 05:49:37:161,-1.04143,1.37376,-9.63202,-7.86303,-6.31087,91.9841
2023-02-16 05:49:37:171,-1.0506,1.35706,-9.62478,-7.86545,-6.31734,91.9813
2023-02-16 05:49:37:181,-1.06229,1.35686,-9.63918,-7.86655,-6.32125,91.9808
2023-02-16 05:49:37:191,-1.07867,1.35179,-9.65124,-7.86992,-6.32327,91.9835
2023-02-16 05:49:37:201,-1.0829,1.35586,-9.65389,-7.87073,-6.32738,91.9833
2023-02-16 05:49:37:211,-1.08117,1.36315,-9.66401,-7.87398,-6.32793,91.983
2023-02-16 05:49:37:221,-1.08399,1.35856,-9.64691,-7.87527,-6.32858,91.9799
2023-02-16 05:49:37:231,-1.08102,1.37078,-9.63719,-7.87509,-6.32783,91.9773
2023-02-16 05:49:37:241,-1.08546,1.36584,-9.6334,-7.87444,-6.32548,91.9752
2023-02-16 05:49:37:251,-1.08968,1.35718,-9.63365,-7.87221,-6.32765,91.9699
2023-02-16 05:49:37:261,-1.07344,1.35434,-9.62795,-7.87487,-6.32485,91.9657
2023-02-16 05:49:37:271,-1.05507,1.3531,-9.61353,-7.87152,-6.32838,91.9633
2023-02-16 05:49:37:281,-1.04088,1.33798,-9.62026,-7.86731,-6.33124,91.9594
2023-02-16 05:49:37:291,-1.03007,1.32471,-9.61617,-7.85783,-6.33046,91.9591
2023-02-16 05:49:37:301,-1.04049,1.31224,-9.60025,-7.85371,-6.33032,91.9572
2023-02-16 05:49:37:311,-1.03209,1.3114,-9.60537,-7.84778,-6.3333,91.9552
2023-02-16 05:49:37:321,-1.03108,1.30531,-9.60616,-7.84457,-6.33755,91.9602
2023-02-16 05:49:37:331,-1.02726,1.29325,-9.6098,-7.84499,-6.33857,91.9663
2023-02-16 05:49:37:341,-1.05419,1.29059,-9.60966,-7.84691,-6.33819,91.9772
2023-02-16 05:49:37:351,-1.09107,1.30264,-9.59457,-7.84886,-6.33623,91.9857
2023-02-16 05:49:37:361,-1.11674,1.30883,-9.59158,-7.8546,-6.33517,91.9983
2023-02-16 05:49:37:371,-1.12276,1.3265,-9.586,-7.86605,-6.32891,92.0096
2023-02-16 05:49:37:381,-1.12003,1.34319,-9.58416,-7.87872,-6.3234,92.0256
2023-02-16 05:49:37:391,-1.11171,1.34888,-9.59686,-7.89092,-6.31398,92.0395
2023-02-16 05:49:37:401,-1.10303,1.3609,-9.5975,-7.903,-6.30342,92.0521
2023-02-16 05:49:37:411,-1.09668,1.36227,-9.60722,-7.91969,-6.29813,92.0633
2023-02-16 05:49:37:421,-1.07214,1.37399,-9.61793,-7.9307,-6.29033,92.0731
2023-02-16 05:49:37:431,-1.06986,1.38595,-9.6262,-7.94388,-6.28276,92.084
2023-02-16 05:49:37:441,-1.05923,1.39224,-9.64136,-7.9559,-6.27637,92.087
2023-02-16 05:49:37:451,-1.04196,1.39199,-9.64446,-7.96811,-6.26824,92.0914
2023-02-16 05:49:37:461,-1.0325,1.40962,-9.65528,-7.97605,-6.26325,92.0952
2023-02-16 05:49:37:471,-1.0338,1.4163,-9.66228,-7.98194,-6.25799,92.1016
2023-02-16 05:49:37:481,-1.04396,1.41901,-9.66398,-7.98903,-6.25739,92.1059
2023-02-16 05:49:37:491,-1.06126,1.41448,-9.65817,-7.99476,-6.25999,92.1105
2023-02-16 05:49:37:501,-1.05783,1.41002,-9.65478,-7.99839,-6.26424,92.1115
2023-02-16 05:49:37:511,-1.05675,1.4141,-9.64572,-8.00351,-6.27312,92.1113
2023-02-16 05:49:37:521,-1.05294,1.41356,-9.64251,-8.0088,-6.27941,92.1123
2023-02-16 05:49:37:531,-1.05681,1.42041,-9.62741,-8.01246,-6.28696,92.1142
2023-02-16 05:49:37:541,-1.04872,1.40473,-9.62352,-8.01524,-6.29575,92.114
2023-02-16 05:49:37:551,-1.05232,1.4104,-9.62651,-8.0151,-6.30553,92.1123
2023-02-16 05:49:37:561,-1.05528,1.40493,-9.62954,-8.01591,-6.31101,92.1144
2023-02-16 05:49:37:571,-1.06343,1.39397,-9.62056,-8.0145,-6.31869,92.1133
2023-02-16 05:49:37:581,-1.06649,1.40243,-9.6031,-8.01478,-6.32607,92.1142
2023-02-16 05:49:37:591,-1.05311,1.39482,-9.60417,-8.01371,-6.3333,92.1184
2023-02-16 05:49:37:601,-1.06163,1.3853,-9.59121,-8.00727,-6.33865,92.1183
2023-02-16 05:49:37:611,-1.08174,1.38173,-9.59479,-8.00702,-6.34323,92.1235
2023-02-16 05:49:37:621,-1.07017,1.36704,-9.60758,-8.00629,-6.34187,92.1294
2023-02-16 05:49:37:631,-1.06689,1.3692,-9.59845,-8.00744,-6.34409,92.135
2023-02-16 05:49:37:641,-1.073,1.37412,-9.60475,-8.01088,-6.34524,92.1396
2023-02-16 05:49:37:651,-1.08319,1.37842,-9.61854,-8.01233,-6.34841,92.1464
2023-02-16 05:49:37:661,-1.09484,1.37649,-9.6077,-8.01598,-6.3511,92.1519
2023-02-16 05:49:37:671,-1.0919,1.36993,-9.59609,-8.01644,-6.35497,92.1574
2023-02-16 05:49:37:681,-1.10458,1.36961,-9.61608,-8.02019,-6.36354,92.1587
2023-02-16 05:49:37:691,-1.10004,1.38538,-9.62944,-8.02904,-6.36837,92.1616
2023-02-16 05:49:37:701,-1.10163,1.39298,-9.62021,-8.03412,-6.37089,92.1673
2023-02-16 05:49:37:711,-1.09553,1.39604,-9.63019,-8.03846,-6.37513,92.1712
2023-02-16 05:49:37:721,-1.08408,1.40358,-9.62028,-8.04455,-6.37542,92.1718
2023-02-16 05:49:37:731,-1.08868,1.39857,-9.61461,-8.04943,-6.37549,92.1753
2023-02-16 05:49:37:741,-1.09403,1.38626,-9.60994,-8.05204,-6.37601,92.1807
2023-02-16 05:49:37:751,-1.09849,1.39009,-9.62169,-8.05354,-6.37927,92.1861
2023-02-16 05:49:37:761,-1.12008,1.39946,-9.66323,-8.05305,-6.37823,92.1873
2023-02-16 05:49:37:771,-1.08657,1.42693,-9.73164,-8.05534,-6.37596,92.1862
2023-02-16 05:49:37:781,-1.05055,1.39966,-9.74453,-8.05165,-6.36887,92.1836
2023-02-16 05:49:37:791,-1.05202,1.3769,-9.68086,-8.04808,-6.3705,92.1795
2023-02-16 05:49:37:801,-1.07189,1.37168,-9.63024,-8.04165,-6.3741,92.1783
2023-02-16 05:49:37:811,-1.0794,1.37409,-9.58723,-8.03864,-6.38137,92.1778
2023-02-16 05:49:37:821,-1.08087,1.3664,-9.57598,-8.03347,-6.38677,92.1804
2023-02-16 05:49:37:831,-1.07864,1.38026,-9.57778,-8.03275,-6.39014,92.1829
2023-02-16 05:49:37:841,-1.08257,1.38211,-9.58651,-8.03344,-6.39019,92.1806
2023-02-16 05:49:37:851,-1.06398,1.37987,-9.58669,-8.03358,-6.38993,92.1808
2023-02-16 05:49:37:861,-1.07214,1.38106,-9.57866,-8.03425,-6.39027,92.182
2023-02-16 05:49:37:871,-1.09368,1.38082,-9.56731,-8.03432,-6.39,92.1801
2023-02-16 05:49:37:881,-1.1131,1.36391,-9.57587,-8.03206,-6.38755,92.178
2023-02-16 05:49:37:891,-1.11941,1.36598,-9.57753,-8.03051,-6.38681,92.1755
2023-02-16 05:49:37:901,-1.11475,1.36201,-9.58226,-8.02893,-6.38455,92.169
2023-02-16 05:49:37:911,-1.11601,1.3511,-9.5774,-8.03083,-6.38094,92.1636
2023-02-16 05:49:37:921,-1.10435,1.3511,-9.59957,-8.03322,-6.37383,92.1591
2023-02-16 05:49:37:931,-1.07942,1.35329,-9.60828,-8.03711,-6.36377,92.1518
2023-02-16 05:49:37:941,-1.05965,1.35263,-9.61181,-8.04375,-6.3507,92.1412
2023-02-16 05:49:37:951,-1.03327,1.35957,-9.61707,-8.05235,-6.34105,92.1334
2023-02-16 05:49:37:961,-1.03047,1.36592,-9.6358,-8.06261,-6.32855,92.1251
2023-02-16 05:49:37:971,-1.01672,1.37537,-9.64913,-8.07374,-6.31697,92.1193
2023-02-16 05:49:37:981,-1.00155,1.38019,-9.62813,-8.08692,-6.30442,92.1162
2023-02-16 05:49:37:991,-0.991509,1.38648,-9.60271,-8.10006,-6.29613,92.1107
2023-02-16 05:49:38:1,-1.01205,1.40765,-9.61079,-8.11287,-6.29177,92.1101
2023-02-16 05:49:38:11,-1.04571,1.41833,-9.59654,-8.12391,-6.28452,92.1089
2023-02-16 05:49:38:21,-1.04958,1.44161,-9.63378,-8.13732,-6.27542,92.1069
2023-02-16 05:49:38:31,-1.00981,1.43835,-9.67403,-8.14506,-6.26666,92.1088
2023-02-16 05:49:38:41,-1.0072,1.43007,-9.68692,-8.15079,-6.25795,92.1096
2023-02-16 05:49:38:51,-1.02682,1.4228,-9.67175,-8.1501,-6.25545,92.1119
2023-02-16 05:49:38:61,-1.02483,1.40804,-9.64255,-8.14712,-6.25656,92.11
2023-02-16 05:49:38:71,-1.04802,1.38809,-9.61924,-8.14293,-6.25743,92.1099
2023-02-16 05:49:38:81,-1.06219,1.38308,-9.60317,-8.13988,-6.25716,92.1106
2023-02-16 05:49:38:91,-1.04017,1.39427,-9.60816,-8.14099,-6.2549,92.1104
2023-02-16 05:49:38:101,-1.04918,1.3874,-9.62515,-8.14475,-6.25238,92.1127
2023-02-16 05:49:38:111,-1.05735,1.40154,-9.64048,-8.15052,-6.24914,92.1157
2023-02-16 05:49:38:121,-1.0642,1.42548,-9.64483,-8.15658,-6.24704,92.1214
2023-02-16 05:49:38:131,-1.05322,1.42432,-9.63967,-8.1592,-6.24321,92.1233
2023-02-16 05:49:38:141,-1.02502,1.41841,-9.64869,-8.15752,-6.24141,92.1274
2023-02-16 05:49:38:151,-1.02929,1.41954,-9.62674,-8.15785,-6.23845,92.1298
2023-02-16 05:49:38:161,-1.04609,1.40318,-9.60693,-8.15544,-6.23767,92.1315
2023-02-16 05:49:38:171,-1.03423,1.40355,-9.59009,-8.15172,-6.23941,92.136
2023-02-16 05:49:38:181,-1.03909,1.4044,-9.60449,-8.15097,-6.24252,92.1399
2023-02-16 05:49:38:191,-1.03498,1.39092,-9.61583,-8.15304,-6.24263,92.1451
2023-02-16 05:49:38:201,-1.0278,1.38911,-9.60291,-8.15097,-6.24795,92.1557
2023-02-16 05:49:38:211,-1.0301,1.38784,-9.59971,-8.15026,-6.24832,92.1638
2023-02-16 05:49:38:221,-1.05638,1.38688,-9.59845,-8.1499,-6.2515,92.1754
2023-02-16 05:49:38:231,-1.0715,1.39324,-9.60377,-8.15087,-6.25642,92.1849
2023-02-16 05:49:38:241,-1.08346,1.39431,-9.61038,-8.15584,-6.25731,92.1952
2023-02-16 05:49:38:251,-1.10008,1.39838,-9.59189,-8.16385,-6.26107,92.205
2023-02-16 05:49:38:261,-1.12656,1.42084,-9.5983,-8.16923,-6.26221,92.2179
2023-02-16 05:49:38:271,-1.13299,1.43383,-9.62963,-8.1787,-6.26077,92.2296
2023-02-16 05:49:38:281,-1.14274,1.44042,-9.61536,-8.18391,-6.25936,92.2375
2023-02-16 05:49:38:291,-1.15443,1.43039,-9.60585,-8.18908,-6.25431,92.2443
2023-02-16 05:49:38:301,-1.1418,1.43685,-9.61145,-8.19538,-6.24924,92.2464
2023-02-16 05:49:38:311,-1.1181,1.43183,-9.60843,-8.20145,-6.24407,92.2475
2023-02-16 05:49:38:321,-1.10176,1.4346,-9.61381,-8.20766,-6.23599,92.247
2023-02-16 05:49:38:331,-1.08458,1.43247,-9.62128,-8.21285,-6.22775,92.2433
2023-02-16 05:49:38:341,-1.07222,1.42566,-9.63054,-8.2173,-6.22044,92.2389
2023-02-16 05:49:38:351,-1.05499,1.44215,-9.63511,-8.22078,-6.20972,92.2312
2023-02-16 05:49:38:361,-1.02897,1.44075,-9.65234,-8.22436,-6.20463,92.2233
2023-02-16 05:49:38:371,-1.03016,1.43084,-9.65885,-8.22391,-6.19938,92.2172
2023-02-16 05:49:38:381,-1.02562,1.43492,-9.65039,-8.22461,-6.19271,92.2106
2023-02-16 05:49:38:391,-1.0057,1.43667,-9.64257,-8.22196,-6.18746,92.2055
2023-02-16 05:49:38:401,-1.00027,1.42535,-9.63421,-8.21922,-6.17872,92.2028
2023-02-16 05:49:38:411,-0.993959,1.41393,-9.6283,-8.22118,-6.17462,92.1984
2023-02-16 05:49:38:421,-0.986536,1.40977,-9.61821,-8.21926,-6.17133,92.1951
2023-02-16 05:49:38:431,-0.984002,1.41094,-9.61102,-8.21345,-6.16788,92.1917
2023-02-16 05:49:38:441,-0.982955,1.41861,-9.62625,-8.21439,-6.1676,92.1903
2023-02-16 05:49:38:451,-0.983677,1.41126,-9.63188,-8.2143,-6.16642,92.1891
2023-02-16 05:49:38:461,-0.97228,1.40915,-9.63734,-8.21519,-6.16498,92.1902
2023-02-16 05:49:38:471,-0.962057,1.41643,-9.61874,-8.21429,-6.16371,92.1943
2023-02-16 05:49:38:481,-0.969207,1.39739,-9.61257,-8.21236,-6.16808,92.1947
2023-02-16 05:49:38:491,-0.964151,1.39424,-9.61601,-8.21164,-6.17351,92.1988
2023-02-16 05:49:38:501,-0.981351,1.39117,-9.62872,-8.21204,-6.1806,92.2066
2023-02-16 05:49:38:511,-1.00289,1.3944,-9.63379,-8.21454,-6.18746,92.2137
2023-02-16 05:49:38:521,-1.01108,1.3857,-9.61872,-8.21496,-6.19323,92.2237
2023-02-16 05:49:38:531,-1.01413,1.38652,-9.59549,-8.21572,-6.19976,92.2336
2023-02-16 05:49:38:541,-1.01735,1.40169,-9.60357,-8.21807,-6.20793,92.2396
2023-02-16 05:49:38:551,-1.02313,1.41959,-9.62023,-8.21971,-6.21794,92.249
2023-02-16 05:49:38:561,-1.04463,1.42552,-9.62978,-8.22229,-6.22304,92.2581
2023-02-16 05:49:38:571,-1.06906,1.41037,-9.62945,-8.22526,-6.22847,92.267
2023-02-16 05:49:38:581,-1.07133,1.4139,-9.62797,-8.22825,-6.2341,92.2754
2023-02-16 05:49:38:591,-1.061,1.41479,-9.62266,-8.23305,-6.24381,92.2797
2023-02-16 05:49:38:601,-1.06313,1.40904,-9.61054,-8.23308,-6.25361,92.2851
2023-02-16 05:49:38:611,-1.06245,1.3981,-9.59385,-8.23312,-6.26162,92.2897
2023-02-16 05:49:38:621,-1.05475,1.39541,-9.59904,-8.23431,-6.26603,92.2903
2023-02-16 05:49:38:631,-1.0626,1.41238,-9.63467,-8.23875,-6.26819,92.2936
2023-02-16 05:49:38:641,-1.0454,1.43227,-9.7071,-8.24403,-6.27287,92.2967
2023-02-16 05:49:38:651,-1.02178,1.43103,-9.72333,-8.24521,-6.2745,92.2963
2023-02-16 05:49:38:661,-1.00257,1.41175,-9.68675,-8.24378,-6.2776,92.2966
2023-02-16 05:49:38:671,-1.03891,1.41122,-9.62939,-8.24737,-6.29081,92.3014
2023-02-16 05:49:38:681,-1.0637,1.4075,-9.60168,-8.24951,-6.30532,92.3103
2023-02-16 05:49:38:691,-1.06899,1.41035,-9.58565,-8.25365,-6.31667,92.3174
2023-02-16 05:49:38:701,-1.08979,1.41803,-9.57598,-8.25931,-6.32736,92.3304
2023-02-16 05:49:38:711,-1.10513,1.42725,-9.56434,-8.26649,-6.33807,92.3401
2023-02-16 05:49:38:721,-1.11051,1.45017,-9.56587,-8.27413,-6.34341,92.3504
2023-02-16 05:49:38:731,-1.12825,1.44963,-9.57177,-8.27946,-6.35185,92.3607
2023-02-16 05:49:38:741,-1.14713,1.44343,-9.5747,-8.28429,-6.35897,92.3698
2023-02-16 05:49:38:751,-1.15742,1.44964,-9.55856,-8.28521,-6.36496,92.3772
2023-02-16 05:49:38:761,-1.16803,1.43439,-9.55975,-8.28603,-6.36854,92.3812
2023-02-16 05:49:38:771,-1.16076,1.43056,-9.5581,-8.28624,-6.37209,92.381
2023-02-16 05:49:38:781,-1.13942,1.44219,-9.58922,-8.29271,-6.3711,92.3756
2023-02-16 05:49:38:791,-1.12816,1.46115,-9.61703,-8.2968,-6.3712,92.368
2023-02-16 05:49:38:801,-1.11286,1.46147,-9.64746,-8.30561,-6.37313,92.3606
2023-02-16 05:49:38:811,-1.0771,1.46978,-9.65477,-8.31125,-6.374,92.3503
2023-02-16 05:49:38:821,-1.06814,1.47587,-9.64532,-8.31769,-6.37482,92.3421
2023-02-16 05:49:38:831,-1.05502,1.47161,-9.6473,-8.32152,-6.37273,92.3322
2023-02-16 05:49:38:841,-1.03466,1.47292,-9.63437,-8.32148,-6.37235,92.3257
2023-02-16 05:49:38:851,-1.03144,1.48044,-9.62625,-8.32809,-6.36868,92.3206
2023-02-16 05:49:38:861,-1.02574,1.46494,-9.60886,-8.3356,-6.3686,92.3206
2023-02-16 05:49:38:871,-1.06162,1.47517,-9.61121,-8.34082,-6.36918,92.3188
2023-02-16 05:49:38:881,-1.10385,1.49168,-9.61979,-8.34229,-6.37082,92.318
2023-02-16 05:49:38:891,-1.11149,1.49642,-9.64887,-8.34271,-6.36911,92.3202
2023-02-16 05:49:38:901,-1.0628,1.50106,-9.6636,-8.3376,-6.36818,92.3178
2023-02-16 05:49:38:911,-1.04177,1.47926,-9.65397,-8.33282,-6.36749,92.3176
2023-02-16 05:49:38:921,-1.04672,1.45638,-9.63635,-8.32159,-6.37258,92.3176
2023-02-16 05:49:38:931,-1.05485,1.45363,-9.62871,-8.31529,-6.38207,92.3207
2023-02-16 05:49:38:941,-1.07282,1.4415,-9.62091,-8.30562,-6.39059,92.3213
2023-02-16 05:49:38:951,-1.09508,1.43158,-9.61723,-8.29612,-6.39636,92.3251
2023-02-16 05:49:38:961,-1.09527,1.42655,-9.61362,-8.28683,-6.40267,92.3304
2023-02-16 05:49:38:971,-1.10391,1.42482,-9.60963,-8.27887,-6.40631,92.3337
2023-02-16 05:49:38:981,-1.11172,1.44175,-9.61718,-8.27506,-6.41042,92.3367
2023-02-16 05:49:38:991,-1.12208,1.44328,-9.63607,-8.26896,-6.41168,92.3423
2023-02-16 05:49:39:1,-1.13372,1.46137,-9.64984,-8.25972,-6.41216,92.3497
2023-02-16 05:49:39:11,-1.10897,1.46756,-9.67033,-8.24723,-6.41026,92.3496
2023-02-16 05:49:39:21,-1.08009,1.46958,-9.66878,-8.22833,-6.41047,92.3467
2023-02-16 05:49:39:31,-1.03564,1.45627,-9.65116,-8.20904,-6.41307,92.343
2023-02-16 05:49:39:41,-1.00234,1.43783,-9.63307,-8.18669,-6.41862,92.3378
2023-02-16 05:49:39:51,-0.967031,1.41945,-9.62613,-8.16226,-6.42752,92.3305
2023-02-16 05:49:39:61,-0.957652,1.40895,-9.62845,-8.13804,-6.43925,92.3298
2023-02-16 05:49:39:71,-0.953441,1.40461,-9.63885,-8.1146,-6.45764,92.3354
2023-02-16 05:49:39:81,-0.951485,1.39181,-9.63621,-8.08978,-6.47335,92.343
2023-02-16 05:49:39:91,-0.978559,1.38022,-9.63003,-8.06584,-6.49135,92.3585
2023-02-16 05:49:39:101,-1.02292,1.37393,-9.62102,-8.04341,-6.51265,92.3739
2023-02-16 05:49:39:111,-1.065,1.36471,-9.61907,-8.02211,-6.53158,92.3946
2023-02-16 05:49:39:121,-1.1026,1.36635,-9.60196,-8.00445,-6.55295,92.4161
2023-02-16 05:49:39:131,-1.13889,1.3523,-9.58293,-7.98613,-6.57607,92.442
2023-02-16 05:49:39:141,-1.18568,1.34761,-9.57397,-7.96961,-6.59716,92.4657
2023-02-16 05:49:39:151,-1.22487,1.35363,-9.57125,-7.95588,-6.61844,92.4904
2023-02-16 05:49:39:161,-1.22943,1.35236,-9.56917,-7.94119,-6.63625,92.5103
2023-02-16 05:49:39:171,-1.23429,1.34685,-9.56649,-7.92841,-6.65205,92.5293
2023-02-16 05:49:39:181,-1.2455,1.35416,-9.56438,-7.91625,-6.66689,92.5414
2023-02-16 05:49:39:191,-1.23194,1.34323,-9.57883,-7.90522,-6.68249,92.5512
2023-02-16 05:49:39:201,-1.22011,1.33322,-9.58702,-7.89662,-6.69228,92.5553
2023-02-16 05:49:39:211,-1.20848,1.3245,-9.57639,-7.89002,-6.70044,92.5531
2023-02-16 05:49:39:221,-1.18539,1.31629,-9.57066,-7.88396,-6.70712,92.5481
2023-02-16 05:49:39:231,-1.18885,1.32225,-9.57714,-7.88113,-6.71001,92.5505
2023-02-16 05:49:39:241,-1.1883,1.32513,-9.59843,-7.87986,-6.71,92.5483
2023-02-16 05:49:39:251,-1.18846,1.31852,-9.61431,-7.87713,-6.70915,92.5459
2023-02-16 05:49:39:261,-1.19416,1.31376,-9.60699,-7.87797,-6.70599,92.5455
2023-02-16 05:49:39:271,-1.20198,1.31305,-9.5992,-7.87828,-6.69791,92.5457
2023-02-16 05:49:39:281,-1.21146,1.32129,-9.59108,-7.88143,-6.68739,92.5437
2023-02-16 05:49:39:291,-1.20668,1.32754,-9.59149,-7.88506,-6.6786,92.5423
2023-02-16 05:49:39:301,-1.18263,1.32013,-9.58683,-7.88746,-6.66733,92.5389
2023-02-16 05:49:39:311,-1.16893,1.32622,-9.59869,-7.89611,-6.65495,92.5335
2023-02-16 05:49:39:321,-1.14748,1.32239,-9.60692,-7.90284,-6.64441,92.5226
2023-02-16 05:49:39:331,-1.13416,1.33383,-9.62181,-7.90868,-6.6342,92.5144
2023-02-16 05:49:39:341,-1.12461,1.34026,-9.63103,-7.91456,-6.62182,92.5037
2023-02-16 05:49:39:351,-1.11171,1.35465,-9.63667,-7.92279,-6.60975,92.4913
2023-02-16 05:49:39:361,-1.085,1.35209,-9.64846,-7.92786,-6.60006,92.4818
2023-02-16 05:49:39:371,-1.08421,1.35699,-9.64615,-7.9313,-6.5902,92.4707
2023-02-16 05:49:39:381,-1.07243,1.35713,-9.6293,-7.93218,-6.58255,92.4627
2023-02-16 05:49:39:391,-1.06093,1.34713,-9.62735,-7.93371,-6.57352,92.4572
2023-02-16 05:49:39:401,-1.04903,1.34738,-9.617,-7.93743,-6.56657,92.4516
2023-02-16 05:49:39:411,-1.06103,1.35308,-9.62551,-7.94302,-6.56436,92.4536
2023-02-16 05:49:39:421,-1.07122,1.34582,-9.65101,-7.94635,-6.55716,92.455
2023-02-16 05:49:39:431,-1.07831,1.35291,-9.64635,-7.95009,-6.55496,92.4566
2023-02-16 05:49:39:441,-1.09521,1.35838,-9.65367,-7.9512,-6.55283,92.459
2023-02-16 05:49:39:451,-1.09488,1.3454,-9.65255,-7.95099,-6.54999,92.4605
2023-02-16 05:49:39:461,-1.09836,1.34757,-9.63118,-7.95154,-6.54759,92.4585
2023-02-16 05:49:39:471,-1.08795,1.34803,-9.60329,-7.947,-6.54853,92.4552
2023-02-16 05:49:39:481,-1.09534,1.33842,-9.60113,-7.95003,-6.55159,92.4536
2023-02-16 05:49:39:491,-1.09692,1.3323,-9.6454,-7.94954,-6.55232,92.4507
2023-02-16 05:49:39:501,-1.0646,1.36729,-9.7054,-7.95118,-6.55166,92.448
2023-02-16 05:49:39:511,-1.00844,1.36031,-9.72973,-7.95227,-6.55475,92.4467
2023-02-16 05:49:39:521,-1.02348,1.34726,-9.68601,-7.94845,-6.56225,92.4475
2023-02-16 05:49:39:531,-1.06704,1.34648,-9.63913,-7.94295,-6.57126,92.4508
2023-02-16 05:49:39:541,-1.10227,1.34454,-9.59655,-7.94074,-6.58664,92.4624
2023-02-16 05:49:39:551,-1.11772,1.33052,-9.55469,-7.93928,-6.60056,92.4748
2023-02-16 05:49:39:561,-1.13591,1.32791,-9.52697,-7.94445,-6.61572,92.4924
2023-02-16 05:49:39:571,-1.15482,1.33766,-9.53006,-7.95265,-6.62382,92.5086
2023-02-16 05:49:39:581,-1.16523,1.36133,-9.54753,-7.96252,-6.63405,92.5254
2023-02-16 05:49:39:591,-1.17899,1.38664,-9.57096,-7.97192,-6.64275,92.5386
2023-02-16 05:49:39:601,-1.21664,1.39588,-9.5866,-7.98056,-6.64667,92.5504
2023-02-16 05:49:39:611,-1.2427,1.39982,-9.59423,-7.99405,-6.64897,92.5602
2023-02-16 05:49:39:621,-1.2614,1.40179,-9.58731,-8.0023,-6.65273,92.5661
2023-02-16 05:49:39:631,-1.25469,1.38869,-9.54997,-8.00851,-6.64957,92.5684
2023-02-16 05:49:39:641,-1.23006,1.37993,-9.54321,-8.02203,-6.64591,92.5705
2023-02-16 05:49:39:651,-1.20133,1.37617,-9.54438,-8.03425,-6.63676,92.5674
2023-02-16 05:49:39:661,-1.17043,1.38297,-9.56925,-8.04808,-6.62632,92.5641
2023-02-16 05:49:39:671,-1.12649,1.38898,-9.59344,-8.06417,-6.61222,92.5533
2023-02-16 05:49:39:681,-1.09911,1.40029,-9.62324,-8.08263,-6.59614,92.543
2023-02-16 05:49:39:691,-1.08409,1.42535,-9.67027,-8.10739,-6.58153,92.533
2023-02-16 05:49:39:701,-1.05422,1.43403,-9.70138,-8.12889,-6.57031,92.5231
2023-02-16 05:49:39:711,-1.03577,1.43205,-9.68914,-8.14716,-6.55987,92.5109
2023-02-16 05:49:39:721,-1.02528,1.42421,-9.63533,-8.16469,-6.55066,92.4997
2023-02-16 05:49:39:731,-1.02139,1.40812,-9.57994,-8.18086,-6.54246,92.4919
2023-02-16 05:49:39:741,-1.04111,1.41569,-9.57441,-8.19754,-6.53861,92.4829
2023-02-16 05:49:39:751,-1.04224,1.42044,-9.59399,-8.21467,-6.53023,92.4788
2023-02-16 05:49:39:761,-1.02594,1.4417,-9.6329,-8.23659,-6.51616,92.4751
2023-02-16 05:49:39:771,-0.989465,1.45045,-9.65393,-8.25595,-6.50936,92.4717
2023-02-16 05:49:39:781,-0.997428,1.44302,-9.68206,-8.27172,-6.50387,92.4708
2023-02-16 05:49:39:791,-1.01621,1.45467,-9.67843,-8.28351,-6.50284,92.4719
2023-02-16 05:49:39:801,-1.04079,1.45647,-9.67111,-8.29437,-6.50289,92.4752
2023-02-16 05:49:39:811,-1.06224,1.45882,-9.66701,-8.30343,-6.50537,92.4769
2023-02-16 05:49:39:821,-1.06832,1.46378,-9.66884,-8.30947,-6.50834,92.4819
2023-02-16 05:49:39:831,-1.06036,1.46716,-9.66715,-8.31935,-6.50747,92.4844
2023-02-16 05:49:39:841,-1.05983,1.46559,-9.67283,-8.32255,-6.50901,92.4858
2023-02-16 05:49:39:851,-1.08171,1.48188,-9.65905,-8.3237,-6.51419,92.4909
2023-02-16 05:49:39:861,-1.07403,1.46983,-9.66297,-8.32454,-6.517,92.496
2023-02-16 05:49:39:871,-1.08072,1.48119,-9.64502,-8.32384,-6.52089,92.5024
2023-02-16 05:49:39:881,-1.07273,1.48211,-9.63001,-8.32164,-6.52511,92.5093
2023-02-16 05:49:39:891,-1.08303,1.4642,-9.61342,-8.31572,-6.52953,92.5148
2023-02-16 05:49:39:901,-1.0967,1.44725,-9.61604,-8.30566,-6.53616,92.5218
2023-02-16 05:49:39:911,-1.10498,1.4421,-9.60821,-8.29596,-6.53848,92.5286
2023-02-16 05:49:39:921,-1.10303,1.4226,-9.58979,-8.2852,-6.54117,92.5342
2023-02-16 05:49:39:931,-1.09831,1.41604,-9.59938,-8.2765,-6.54321,92.5413
2023-02-16 05:49:39:941,-1.09554,1.41964,-9.60048,-8.2661,-6.5479,92.5467
2023-02-16 05:49:39:951,-1.10267,1.40981,-9.60605,-8.25538,-6.55508,92.5527
2023-02-16 05:49:39:961,-1.11368,1.41167,-9.61405,-8.25267,-6.55999,92.5602
2023-02-16 05:49:39:971,-1.13743,1.41962,-9.61052,-8.24897,-6.56603,92.5687
2023-02-16 05:49:39:981,-1.14907,1.41003,-9.60523,-8.24104,-6.57064,92.5799
2023-02-16 05:49:39:991,-1.17155,1.41613,-9.57273,-8.23648,-6.57674,92.5909
2023-02-16 05:49:40:1,-1.17116,1.41297,-9.56647,-8.23485,-6.58059,92.5977
2023-02-16 05:49:40:11,-1.18185,1.4167,-9.56183,-8.23085,-6.5794,92.6053
2023-02-16 05:49:40:21,-1.19267,1.41406,-9.55887,-8.23327,-6.57824,92.6091
2023-02-16 05:49:40:31,-1.18332,1.40053,-9.57781,-8.23453,-6.58195,92.6102
2023-02-16 05:49:40:41,-1.17836,1.41219,-9.59423,-8.236,-6.57843,92.6136
2023-02-16 05:49:40:51,-1.16619,1.42173,-9.61632,-8.23999,-6.57282,92.6101
2023-02-16 05:49:40:61,-1.13965,1.43199,-9.61721,-8.24425,-6.56736,92.6018
2023-02-16 05:49:40:71,-1.1132,1.4194,-9.61897,-8.24476,-6.55986,92.5948
2023-02-16 05:49:40:81,-1.1023,1.42962,-9.61573,-8.24214,-6.55585,92.5889
2023-02-16 05:49:40:91,-1.07574,1.43158,-9.62185,-8.24225,-6.55126,92.584
2023-02-16 05:49:40:101,-1.06366,1.43047,-9.62149,-8.24107,-6.54698,92.5808
2023-02-16 05:49:40:111,-1.05867,1.41862,-9.62066,-8.24019,-6.54232,92.5775
2023-02-16 05:49:40:121,-1.06832,1.4133,-9.62387,-8.24004,-6.53878,92.5733
2023-02-16 05:49:40:131,-1.084,1.42806,-9.62191,-8.24248,-6.53806,92.5758
2023-02-16 05:49:40:141,-1.08138,1.42987,-9.63591,-8.24218,-6.53471,92.5781
2023-02-16 05:49:40:151,-1.07478,1.42867,-9.63597,-8.24274,-6.53096,92.5794
2023-02-16 05:49:40:161,-1.08316,1.42993,-9.63833,-8.23978,-6.53088,92.5797
2023-02-16 05:49:40:171,-1.08448,1.42119,-9.639,-8.23577,-6.52855,92.5842
2023-02-16 05:49:40:181,-1.0996,1.42369,-9.63577,-8.22876,-6.52863,92.5873
2023-02-16 05:49:40:191,-1.10353,1.43097,-9.62822,-8.22718,-6.5284,92.5898
2023-02-16 05:49:40:201,-1.10162,1.42182,-9.62949,-8.2233,-6.5279,92.5931
2023-02-16 05:49:40:211,-1.09609,1.41301,-9.62812,-8.21885,-6.52895,92.5968
2023-02-16 05:49:40:221,-1.09772,1.40653,-9.64714,-8.20963,-6.53042,92.5953
2023-02-16 05:49:40:231,-1.09469,1.41231,-9.65638,-8.20207,-6.53041,92.5962
2023-02-16 05:49:40:241,-1.09403,1.41791,-9.62752,-8.19412,-6.53158,92.5957
2023-02-16 05:49:40:251,-1.09435,1.4143,-9.60729,-8.18413,-6.53414,92.5975
2023-02-16 05:49:40:261,-1.11297,1.39085,-9.61111,-8.17188,-6.535,92.5975
2023-02-16 05:49:40:271,-1.09983,1.38449,-9.60352,-8.16255,-6.53564,92.5998
2023-02-16 05:49:40:281,-1.10163,1.3756,-9.59298,-8.1529,-6.53627,92.6037
2023-02-16 05:49:40:291,-1.11254,1.37572,-9.58751,-8.14454,-6.53857,92.6065
2023-02-16 05:49:40:301,-1.11328,1.36843,-9.59631,-8.14063,-6.54191,92.6113
2023-02-16 05:49:40:311,-1.12321,1.36192,-9.60769,-8.13445,-6.54617,92.6173
2023-02-16 05:49:40:321,-1.1276,1.36875,-9.58643,-8.13068,-6.54913,92.6207
2023-02-16 05:49:40:331,-1.13718,1.35896,-9.59666,-8.12696,-6.54916,92.6276
2023-02-16 05:49:40:341,-1.15074,1.36166,-9.60976,-8.12243,-6.54845,92.6316
2023-02-16 05:49:40:351,-1.15557,1.37311,-9.60076,-8.11971,-6.54617,92.6386
2023-02-16 05:49:40:361,-1.16267,1.36816,-9.59718,-8.11839,-6.5424,92.6441
2023-02-16 05:49:40:371,-1.1485,1.37279,-9.59078,-8.11801,-6.53594,92.6465
2023-02-16 05:49:40:381,-1.13374,1.36736,-9.57791,-8.11833,-6.53112,92.6456
2023-02-16 05:49:40:391,-1.12704,1.3673,-9.55453,-8.11721,-6.52598,92.641
2023-02-16 05:49:40:401,-1.13155,1.36448,-9.56762,-8.11846,-6.52065,92.6376
2023-02-16 05:49:40:411,-1.10838,1.38939,-9.6239,-8.12489,-6.51472,92.6311
2023-02-16 05:49:40:421,-1.06425,1.41662,-9.70184,-8.12972,-6.50626,92.6211
2023-02-16 05:49:40:431,-1.01355,1.42143,-9.73713,-8.13115,-6.49977,92.6107
2023-02-16 05:49:40:441,-0.999734,1.41012,-9.71595,-8.12749,-6.49805,92.6072
2023-02-16 05:49:40:451,-1.00524,1.40526,-9.67115,-8.12872,-6.50179,92.6037
2023-02-16 05:49:40:461,-1.03751,1.41259,-9.63392,-8.12752,-6.50821,92.6052
2023-02-16 05:49:40:471,-1.05271,1.40373,-9.59687,-8.12795,-6.51421,92.609
2023-02-16 05:49:40:481,-1.0692,1.39799,-9.5703,-8.12759,-6.51295,92.6186
2023-02-16 05:49:40:491,-1.07464,1.41077,-9.56584,-8.13024,-6.515,92.6239
2023-02-16 05:49:40:501,-1.08036,1.41019,-9.57861,-8.12989,-6.51504,92.635
2023-02-16 05:49:40:511,-1.1035,1.41392,-9.58309,-8.13032,-6.51444,92.6452
2023-02-16 05:49:40:521,-1.11871,1.40518,-9.59149,-8.13103,-6.51404,92.6547
2023-02-16 05:49:40:531,-1.13839,1.40738,-9.5874,-8.13176,-6.51605,92.6606
2023-02-16 05:49:40:541,-1.14768,1.39774,-9.56802,-8.12875,-6.5176,92.6653
2023-02-16 05:49:40:551,-1.13149,1.38526,-9.57535,-8.12955,-6.51644,92.6653
2023-02-16 05:49:40:561,-1.13105,1.37746,-9.59958,-8.12922,-6.51622,92.6651
2023-02-16 05:49:40:571,-1.13856,1.39026,-9.6132,-8.13372,-6.51673,92.6667
2023-02-16 05:49:40:581,-1.1268,1.3901,-9.63402,-8.14082,-6.51564,92.6645
2023-02-16 05:49:40:591,-1.1151,1.39943,-9.64165,-8.14764,-6.51627,92.6587
2023-02-16 05:49:40:601,-1.10322,1.41223,-9.64525,-8.1547,-6.51445,92.6514
2023-02-16 05:49:40:611,-1.084,1.41515,-9.64229,-8.15952,-6.51499,92.6456
2023-02-16 05:49:40:621,-1.07641,1.41283,-9.63101,-8.16871,-6.51066,92.6391
2023-02-16 05:49:40:631,-1.07,1.40996,-9.6244,-8.1764,-6.51047,92.6348
2023-02-16 05:49:40:641,-1.05711,1.41129,-9.59822,-8.18835,-6.51247,92.6335
2023-02-16 05:49:40:651,-1.07181,1.41438,-9.57211,-8.19887,-6.50965,92.6282
2023-02-16 05:49:40:661,-1.11207,1.43245,-9.59605,-8.20855,-6.51312,92.6232
2023-02-16 05:49:40:671,-1.11065,1.44686,-9.63038,-8.21783,-6.50926,92.6245
2023-02-16 05:49:40:681,-1.08606,1.46731,-9.67116,-8.22674,-6.50212,92.6208
2023-02-16 05:49:40:691,-1.05858,1.45905,-9.68308,-8.23067,-6.49786,92.615
2023-02-16 05:49:40:701,-1.05236,1.44789,-9.67668,-8.23426,-6.49514,92.6093
2023-02-16 05:49:40:711,-1.06807,1.4498,-9.64625,-8.23347,-6.4952,92.6091
2023-02-16 05:49:40:721,-1.07543,1.44234,-9.6248,-8.22939,-6.49908,92.6097
2023-02-16 05:49:40:731,-1.09164,1.43994,-9.62291,-8.22703,-6.50008,92.61
2023-02-16 05:49:40:741,-1.08929,1.43455,-9.63605,-8.22303,-6.5028,92.615
2023-02-16 05:49:40:751,-1.07876,1.42987,-9.65157,-8.22021,-6.50473,92.6189
2023-02-16 05:49:40:761,-1.08436,1.42981,-9.64793,-8.21804,-6.50634,92.6212
2023-02-16 05:49:40:771,-1.10024,1.43663,-9.64683,-8.21475,-6.50655,92.6251
2023-02-16 05:49:40:781,-1.10495,1.44159,-9.64802,-8.20967,-6.50637,92.6288
2023-02-16 05:49:40:791,-1.10971,1.4428,-9.62671,-8.2015,-6.50774,92.6304
2023-02-16 05:49:40:801,-1.09977,1.43018,-9.61961,-8.18982,-6.50696,92.6313
2023-02-16 05:49:40:811,-1.1006,1.43121,-9.61206,-8.17538,-6.50951,92.6286
2023-02-16 05:49:40:821,-1.09851,1.41242,-9.60541,-8.16526,-6.51577,92.6269
2023-02-16 05:49:40:831,-1.09751,1.38751,-9.60197,-8.15505,-6.52288,92.6245
2023-02-16 05:49:40:841,-1.08314,1.38227,-9.59682,-8.14222,-6.52923,92.6178
2023-02-16 05:49:40:851,-1.08149,1.36341,-9.6086,-8.1313,-6.5344,92.6112
2023-02-16 05:49:40:861,-1.0849,1.34435,-9.60773,-8.12108,-6.5432,92.6075
2023-02-16 05:49:40:871,-1.08574,1.33278,-9.59922,-8.11308,-6.55026,92.6062
2023-02-16 05:49:40:881,-1.09167,1.33304,-9.58569,-8.10403,-6.55717,92.6062
2023-02-16 05:49:40:891,-1.11131,1.33786,-9.58332,-8.09907,-6.56489,92.6079
2023-02-16 05:49:40:901,-1.13261,1.34175,-9.57833,-8.09808,-6.56819,92.6134
2023-02-16 05:49:40:911,-1.16059,1.33714,-9.58093,-8.10032,-6.57265,92.6189
2023-02-16 05:49:40:921,-1.1776,1.3413,-9.57193,-8.10576,-6.57358,92.6244
2023-02-16 05:49:40:931,-1.176,1.34862,-9.57807,-8.11379,-6.57426,92.6291
2023-02-16 05:49:40:941,-1.17223,1.34838,-9.56837,-8.1195,-6.57626,92.6349
2023-02-16 05:49:40:951,-1.15022,1.35811,-9.57595,-8.12903,-6.57574,92.6388
2023-02-16 05:49:40:961,-1.14242,1.36909,-9.58721,-8.14304,-6.57402,92.6397
2023-02-16 05:49:40:971,-1.1489,1.37662,-9.60942,-8.1546,-6.56978,92.6403
2023-02-16 05:49:40:981,-1.13168,1.40033,-9.63258,-8.1672,-6.56771,92.6379
2023-02-16 05:49:40:991,-1.0927,1.40831,-9.65096,-8.17817,-6.56382,92.6382
2023-02-16 05:49:41:1,-1.09995,1.40893,-9.65211,-8.1883,-6.55865,92.6349
2023-02-16 05:49:41:11,-1.1067,1.41848,-9.63115,-8.19858,-6.55454,92.6316
2023-02-16 05:49:41:21,-1.09357,1.43011,-9.64117,-8.20832,-6.5501,92.6316
2023-02-16 05:49:41:31,-1.10187,1.42436,-9.63821,-8.2172,-6.54628,92.6301
2023-02-16 05:49:41:41,-1.09937,1.42524,-9.64742,-8.22064,-6.54397,92.6277
2023-02-16 05:49:41:51,-1.09925,1.42633,-9.65237,-8.22542,-6.54422,92.6279
2023-02-16 05:49:41:61,-1.08795,1.43486,-9.63882,-8.22798,-6.54703,92.6243
2023-02-16 05:49:41:71,-1.09605,1.44722,-9.62573,-8.22825,-6.54956,92.6235
2023-02-16 05:49:41:81,-1.10306,1.43712,-9.63608,-8.23162,-6.55234,92.6209
2023-02-16 05:49:41:91,-1.10072,1.42681,-9.64271,-8.23066,-6.55341,92.6203
2023-02-16 05:49:41:101,-1.10459,1.43519,-9.62615,-8.23109,-6.55335,92.6207
2023-02-16 05:49:41:111,-1.10437,1.44517,-9.63197,-8.2279,-6.55675,92.6186
2023-02-16 05:49:41:121,-1.11441,1.42758,-9.64517,-8.22696,-6.55634,92.6193
2023-02-16 05:49:41:131,-1.12962,1.43587,-9.64042,-8.22103,-6.5593,92.6204
2023-02-16 05:49:41:141,-1.13396,1.42991,-9.64359,-8.21448,-6.55827,92.6232
2023-02-16 05:49:41:151,-1.14412,1.42263,-9.62104,-8.20949,-6.56114,92.6234
2023-02-16 05:49:41:161,-1.1485,1.39977,-9.60165,-8.20444,-6.5609,92.623
2023-02-16 05:49:41:171,-1.14313,1.40386,-9.59102,-8.1994,-6.5631,92.6222
2023-02-16 05:49:41:181,-1.14869,1.39675,-9.59718,-8.1913,-6.55903,92.6189
2023-02-16 05:49:41:191,-1.11933,1.3925,-9.59016,-8.18431,-6.55559,92.6132
2023-02-16 05:49:41:201,-1.11059,1.379,-9.60422,-8.18206,-6.55244,92.6087
2023-02-16 05:49:41:211,-1.09829,1.37617,-9.61829,-8.17931,-6.55052,92.6064
2023-02-16 05:49:41:221,-1.07777,1.3803,-9.60367,-8.17373,-6.54641,92.6033
2023-02-16 05:49:41:231,-1.0729,1.37858,-9.59836,-8.17111,-6.54276,92.6015
2023-02-16 05:49:41:241,-1.07341,1.36338,-9.60444,-8.1708,-6.53496,92.5991
2023-02-16 05:49:41:251,-1.07484,1.36994,-9.59594,-8.17211,-6.53088,92.5978
2023-02-16 05:49:41:261,-1.07914,1.37216,-9.58844,-8.17315,-6.52793,92.5986
2023-02-16 05:49:41:271,-1.07213,1.36984,-9.58826,-8.17612,-6.5228,92.6024
2023-02-16 05:49:41:281,-1.08907,1.38518,-9.59352,-8.18221,-6.51998,92.6061
2023-02-16 05:49:41:291,-1.09908,1.3841,-9.59844,-8.18833,-6.51678,92.6109
2023-02-16 05:49:41:301,-1.10546,1.39133,-9.60718,-8.19582,-6.51163,92.6166
2023-02-16 05:49:41:311,-1.1266,1.39927,-9.61032,-8.20471,-6.50864,92.6225
2023-02-16 05:49:41:321,-1.13029,1.39895,-9.60973,-8.21148,-6.5037,92.6269
2023-02-16 05:49:41:331,-1.12412,1.39394,-9.60564,-8.21983,-6.49917,92.6295
2023-02-16 05:49:41:341,-1.10802,1.39525,-9.60216,-8.22542,-6.49404,92.6304
2023-02-16 05:49:41:351,-1.11206,1.40176,-9.58941,-8.23158,-6.48781,92.6307
2023-02-16 05:49:41:361,-1.11047,1.40442,-9.5883,-8.23796,-6.48132,92.6272
2023-02-16 05:49:41:371,-1.10128,1.4141,-9.61133,-8.2433,-6.47409,92.6222
2023-02-16 05:49:41:381,-1.07743,1.44414,-9.67796,-8.25207,-6.46683,92.6148
2023-02-16 05:49:41:391,-1.03642,1.46412,-9.75056,-8.25941,-6.45426,92.6107
2023-02-16 05:49:41:401,-0.996199,1.46286,-9.74943,-8.26215,-6.44643,92.6076
2023-02-16 05:49:41:411,-1.0175,1.43353,-9.68551,-8.26123,-6.44653,92.6058
2023-02-16 05:49:41:421,-1.05518,1.41738,-9.62676,-8.26143,-6.44612,92.6069
2023-02-16 05:49:41:431,-1.07467,1.42129,-9.60637,-8.26364,-6.45102,92.6123
2023-02-16 05:49:41:441,-1.08907,1.42572,-9.59156,-8.26671,-6.45529,92.6172
2023-02-16 05:49:41:451,-1.0874,1.42935,-9.57974,-8.26974,-6.45638,92.6218
2023-02-16 05:49:41:461,-1.10181,1.44666,-9.57886,-8.27095,-6.45425,92.6297
2023-02-16 05:49:41:471,-1.12072,1.44624,-9.58021,-8.2743,-6.45301,92.6341
2023-02-16 05:49:41:481,-1.12671,1.45532,-9.56688,-8.27447,-6.44851,92.6399
2023-02-16 05:49:41:491,-1.152,1.446,-9.57948,-8.27472,-6.44461,92.6428
2023-02-16 05:49:41:501,-1.15705,1.43416,-9.56402,-8.27346,-6.44139,92.6452
2023-02-16 05:49:41:511,-1.12994,1.41458,-9.55942,-8.26904,-6.43762,92.6443
2023-02-16 05:49:41:521,-1.10721,1.40124,-9.57444,-8.26847,-6.43006,92.6396
2023-02-16 05:49:41:531,-1.11211,1.40794,-9.57938,-8.27319,-6.42194,92.6351
2023-02-16 05:49:41:541,-1.11075,1.40688,-9.60259,-8.27693,-6.41214,92.6307
2023-02-16 05:49:41:551,-1.08194,1.41802,-9.63404,-8.28557,-6.40265,92.624
2023-02-16 05:49:41:561,-1.06945,1.43949,-9.65789,-8.29523,-6.39521,92.6189
2023-02-16 05:49:41:571,-1.05881,1.4501,-9.66576,-8.30527,-6.38415,92.6123
2023-02-16 05:49:41:581,-1.04679,1.4532,-9.66988,-8.31332,-6.36827,92.6085
2023-02-16 05:49:41:591,-1.04246,1.45399,-9.66084,-8.31891,-6.35922,92.6038
2023-02-16 05:49:41:601,-1.05075,1.46246,-9.64343,-8.32189,-6.34711,92.5995
2023-02-16 05:49:41:610,-1.04578,1.45633,-9.59662,-8.32632,-6.34002,92.5967
2023-02-16 05:49:41:621,-1.06013,1.44243,-9.56921,-8.3318,-6.33493,92.5945
2023-02-16 05:49:41:631,-1.07998,1.45946,-9.57356,-8.33539,-6.32769,92.5911
2023-02-16 05:49:41:641,-1.09992,1.4621,-9.61467,-8.33711,-6.31841,92.5843
2023-02-16 05:49:41:651,-1.04393,1.46446,-9.65422,-8.34057,-6.30581,92.5791
2023-02-16 05:49:41:661,-0.998827,1.44534,-9.66263,-8.34061,-6.29648,92.5726
2023-02-16 05:49:41:671,-0.996173,1.44365,-9.66322,-8.33777,-6.2916,92.5652
2023-02-16 05:49:41:681,-1.00478,1.4455,-9.65178,-8.33153,-6.2902,92.5598
2023-02-16 05:49:41:691,-1.01446,1.4345,-9.65332,-8.32794,-6.28858,92.5549
2023-02-16 05:49:41:701,-1.03308,1.4264,-9.63248,-8.32389,-6.28868,92.5514
2023-02-16 05:49:41:711,-1.03704,1.43783,-9.62592,-8.32099,-6.28891,92.554
2023-02-16 05:49:41:721,-1.01905,1.43781,-9.64047,-8.31512,-6.28902,92.5529
2023-02-16 05:49:41:731,-1.0263,1.44166,-9.65989,-8.31044,-6.28635,92.5562
2023-02-16 05:49:41:741,-1.05774,1.44948,-9.65271,-8.30644,-6.28453,92.5592
2023-02-16 05:49:41:751,-1.05905,1.44445,-9.63846,-8.29771,-6.2826,92.5636
2023-02-16 05:49:41:761,-1.07152,1.44696,-9.61521,-8.28682,-6.28399,92.5658
2023-02-16 05:49:41:771,-1.07142,1.42465,-9.59806,-8.27625,-6.2805,92.5718
2023-02-16 05:49:41:781,-1.08113,1.41038,-9.58653,-8.26251,-6.2809,92.5752
2023-02-16 05:49:41:791,-1.08444,1.39641,-9.58797,-8.24832,-6.28336,92.5771
2023-02-16 05:49:41:801,-1.08303,1.39718,-9.5819,-8.23603,-6.28539,92.5737
2023-02-16 05:49:41:811,-1.05542,1.38834,-9.58579,-8.22613,-6.28534,92.5692
2023-02-16 05:49:41:821,-1.03022,1.3745,-9.6049,-8.21619,-6.28731,92.5665
2023-02-16 05:49:41:831,-1.0291,1.36634,-9.60268,-8.208,-6.29042,92.5663
2023-02-16 05:49:41:841,-1.02939,1.36033,-9.60321,-8.20445,-6.29159,92.5674
2023-02-16 05:49:41:851,-1.04379,1.35225,-9.60026,-8.20112,-6.29592,92.5725
2023-02-16 05:49:41:861,-1.05098,1.35665,-9.60029,-8.20059,-6.29712,92.5784
2023-02-16 05:49:41:871,-1.07548,1.37119,-9.59483,-8.2018,-6.29612,92.5836
2023-02-16 05:49:41:881,-1.09862,1.38855,-9.59954,-8.20625,-6.29419,92.5919
2023-02-16 05:49:41:891,-1.11051,1.40075,-9.59705,-8.20947,-6.29223,92.6019
2023-02-16 05:49:41:901,-1.13533,1.41062,-9.58361,-8.21457,-6.28909,92.6139
2023-02-16 05:49:41:911,-1.14597,1.41679,-9.59327,-8.22146,-6.2844,92.6203
2023-02-16 05:49:41:921,-1.13685,1.42079,-9.59558,-8.22607,-6.27988,92.6243
2023-02-16 05:49:41:931,-1.13409,1.42549,-9.58849,-8.23071,-6.27164,92.626
2023-02-16 05:49:41:941,-1.12304,1.42947,-9.60372,-8.23437,-6.26129,92.6254
2023-02-16 05:49:41:951,-1.09463,1.43329,-9.61921,-8.23985,-6.24888,92.6216
2023-02-16 05:49:41:961,-1.07393,1.42638,-9.6327,-8.24267,-6.23893,92.6203
2023-02-16 05:49:41:971,-1.06312,1.42069,-9.63327,-8.24576,-6.2288,92.6148
2023-02-16 05:49:41:981,-1.04069,1.41189,-9.63079,-8.24901,-6.21485,92.6058
2023-02-16 05:49:41:991,-1.02496,1.40453,-9.62986,-8.24944,-6.20454,92.5973
2023-02-16 05:49:42:1,-1.00732,1.42167,-9.62404,-8.24972,-6.19372,92.5872
2023-02-16 05:49:42:11,-0.999453,1.42407,-9.64523,-8.25423,-6.18428,92.5813
2023-02-16 05:49:42:21,-1.00269,1.42751,-9.65568,-8.25544,-6.17608,92.5742
2023-02-16 05:49:42:31,-0.997663,1.43111,-9.64707,-8.25701,-6.16755,92.5695
2023-02-16 05:49:42:41,-0.9952,1.43601,-9.63609,-8.25827,-6.1574,92.5712
2023-02-16 05:49:42:51,-1.00895,1.42246,-9.63547,-8.25931,-6.14807,92.5687
2023-02-16 05:49:42:61,-1.00234,1.4165,-9.63867,-8.25806,-6.13817,92.5677
2023-02-16 05:49:42:71,-1.0064,1.41599,-9.63294,-8.25737,-6.12885,92.5721
2023-02-16 05:49:42:81,-1.01771,1.42529,-9.61064,-8.25496,-6.12123,92.5742
2023-02-16 05:49:42:91,-1.03498,1.41724,-9.61415,-8.25029,-6.11304,92.5715
2023-02-16 05:49:42:101,-1.03388,1.41124,-9.61226,-8.24979,-6.10551,92.5744
2023-02-16 05:49:42:111,-1.02915,1.40607,-9.61789,-8.24862,-6.09842,92.5742
2023-02-16 05:49:42:121,-1.0163,1.41121,-9.61699,-8.24779,-6.09064,92.5721
2023-02-16 05:49:42:131,-1.01128,1.40373,-9.6403,-8.24582,-6.07851,92.5721
2023-02-16 05:49:42:141,-1.00183,1.41661,-9.64558,-8.24909,-6.06769,92.5702
2023-02-16 05:49:42:151,-1.00104,1.41249,-9.64021,-8.25179,-6.0619,92.5715
2023-02-16 05:49:42:160,-0.99829,1.40766,-9.64183,-8.25139,-6.05812,92.5721
2023-02-16 05:49:42:170,-1.00061,1.40662,-9.64213,-8.25169,-6.0527,92.5699
2023-02-16 05:49:42:181,-0.995708,1.40267,-9.6347,-8.25285,-6.04905,92.5699
2023-02-16 05:49:42:191,-1.0048,1.40524,-9.61197,-8.2538,-6.04588,92.5696
2023-02-16 05:49:42:201,-0.985001,1.41423,-9.61198,-8.25893,-6.04094,92.571
2023-02-16 05:49:42:210,-0.980496,1.40229,-9.6118,-8.26204,-6.03989,92.5748
2023-02-16 05:49:42:221,-0.959659,1.39296,-9.60726,-8.262,-6.03867,92.5778
2023-02-16 05:49:42:231,-0.976009,1.39638,-9.62967,-8.26646,-6.03794,92.5842
2023-02-16 05:49:42:241,-0.998651,1.40657,-9.64832,-8.27167,-6.03583,92.5905
2023-02-16 05:49:42:251,-0.993409,1.41417,-9.64037,-8.27287,-6.03145,92.6001
2023-02-16 05:49:42:261,-1.02407,1.41906,-9.63862,-8.27257,-6.02979,92.6105
2023-02-16 05:49:42:271,-1.0496,1.4065,-9.64316,-8.27268,-6.03198,92.6198
2023-02-16 05:49:42:281,-1.03825,1.40065,-9.62377,-8.26825,-6.02859,92.6252
2023-02-16 05:49:42:291,-1.05369,1.41121,-9.60426,-8.26434,-6.02896,92.6314
2023-02-16 05:49:42:301,-1.07692,1.40282,-9.60999,-8.25824,-6.03089,92.6343
2023-02-16 05:49:42:311,-1.05691,1.4053,-9.67497,-8.2558,-6.03001,92.6322
2023-02-16 05:49:42:321,-1.00531,1.41961,-9.74448,-8.25469,-6.02335,92.6299
2023-02-16 05:49:42:331,-0.95934,1.41059,-9.74671,-8.25018,-6.02102,92.6232
2023-02-16 05:49:42:341,-0.960097,1.38364,-9.69676,-8.24341,-6.03055,92.6151
2023-02-16 05:49:42:351,-0.979875,1.38318,-9.64104,-8.2341,-6.04378,92.608
2023-02-16 05:49:42:361,-0.98426,1.38251,-9.60349,-8.22891,-6.05131,92.6032
2023-02-16 05:49:42:371,-0.996264,1.37903,-9.57634,-8.2232,-6.06188,92.6056
2023-02-16 05:49:42:381,-0.994967,1.38082,-9.55217,-8.22061,-6.06914,92.6094
2023-02-16 05:49:42:391,-0.992561,1.38509,-9.55969,-8.22594,-6.07312,92.617
2023-02-16 05:49:42:401,-1.00986,1.39202,-9.55532,-8.22862,-6.0779,92.6232
2023-02-16 05:49:42:411,-1.03068,1.40145,-9.56781,-8.23295,-6.08375,92.6329
2023-02-16 05:49:42:421,-1.05485,1.42882,-9.57216,-8.23817,-6.08528,92.6411
2023-02-16 05:49:42:431,-1.07696,1.41857,-9.57942,-8.24107,-6.08964,92.6505
2023-02-16 05:49:42:441,-1.08085,1.40862,-9.58144,-8.2462,-6.09452,92.6598
2023-02-16 05:49:42:451,-1.08459,1.40698,-9.56516,-8.24897,-6.0964,92.6659
2023-02-16 05:49:42:461,-1.0862,1.41156,-9.56355,-8.25348,-6.09742,92.6684
2023-02-16 05:49:42:471,-1.08638,1.41322,-9.59666,-8.26171,-6.09505,92.6702
2023-02-16 05:49:42:481,-1.068,1.42326,-9.63716,-8.27097,-6.09399,92.6651
2023-02-16 05:49:42:491,-1.04682,1.44685,-9.64619,-8.28336,-6.08805,92.6593
2023-02-16 05:49:42:501,-1.01925,1.46177,-9.6476,-8.29781,-6.08206,92.6542
2023-02-16 05:49:42:511,-1.00463,1.46038,-9.66106,-8.30995,-6.07186,92.6489
2023-02-16 05:49:42:521,-0.997687,1.4655,-9.65313,-8.32179,-6.06465,92.6456
2023-02-16 05:49:42:531,-0.987822,1.46984,-9.64221,-8.3334,-6.06082,92.6413
2023-02-16 05:49:42:541,-0.980978,1.47429,-9.61633,-8.34074,-6.05454,92.6351
2023-02-16 05:49:42:551,-0.967142,1.46721,-9.59923,-8.34707,-6.05504,92.6318
2023-02-16 05:49:42:561,-0.99725,1.47314,-9.59863,-8.34986,-6.05195,92.6277
2023-02-16 05:49:42:571,-1.00997,1.48053,-9.62629,-8.35558,-6.04646,92.6264
2023-02-16 05:49:42:581,-0.982663,1.49355,-9.67557,-8.36065,-6.03619,92.6219
2023-02-16 05:49:42:591,-0.940034,1.47364,-9.68104,-8.35902,-6.03016,92.6229
2023-02-16 05:49:42:601,-0.937721,1.45629,-9.65541,-8.35472,-6.02747,92.6243
2023-02-16 05:49:42:611,-0.976742,1.45877,-9.64316,-8.34925,-6.02815,92.6285
2023-02-16 05:49:42:621,-0.993996,1.44985,-9.62452,-8.3408,-6.03156,92.6337
2023-02-16 05:49:42:631,-1.01942,1.43031,-9.61961,-8.3338,-6.03292,92.6428
2023-02-16 05:49:42:641,-1.03021,1.41923,-9.62073,-8.32426,-6.03115,92.6508
2023-02-16 05:49:42:651,-1.02316,1.42155,-9.64387,-8.32066,-6.02699,92.6573
2023-02-16 05:49:42:661,-1.02855,1.44413,-9.65748,-8.31796,-6.02085,92.6656
2023-02-16 05:49:42:671,-1.04924,1.45579,-9.65132,-8.31546,-6.01638,92.6706
2023-02-16 05:49:42:681,-1.03762,1.43471,-9.64119,-8.30856,-6.01202,92.6778
2023-02-16 05:49:42:691,-1.04021,1.44275,-9.63771,-8.30152,-6.00768,92.6838
2023-02-16 05:49:42:701,-1.04478,1.44729,-9.62105,-8.29555,-6.00258,92.6892
2023-02-16 05:49:42:711,-1.04206,1.43728,-9.619,-8.28573,-6.00037,92.6887
2023-02-16 05:49:42:721,-1.02517,1.42971,-9.61492,-8.27903,-5.99606,92.6915
2023-02-16 05:49:42:731,-1.02255,1.41338,-9.61104,-8.27056,-5.99078,92.6886
2023-02-16 05:49:42:741,-0.98999,1.41354,-9.6027,-8.25896,-5.98403,92.6847
2023-02-16 05:49:42:751,-0.976498,1.39804,-9.60747,-8.24719,-5.98313,92.6807
2023-02-16 05:49:42:761,-0.97592,1.37659,-9.61256,-8.23667,-5.98055,92.6812
2023-02-16 05:49:42:771,-0.966747,1.36208,-9.60261,-8.22863,-5.98229,92.6824
2023-02-16 05:49:42:781,-0.965868,1.3653,-9.60093,-8.22182,-5.98296,92.6854
2023-02-16 05:49:42:791,-0.993105,1.36411,-9.5978,-8.22009,-5.98164,92.6895
2023-02-16 05:49:42:801,-1.00267,1.36275,-9.59744,-8.22203,-5.98166,92.6944
2023-02-16 05:49:42:811,-1.02669,1.37931,-9.58032,-8.22666,-5.98024,92.7028
2023-02-16 05:49:42:821,-1.05202,1.39408,-9.57672,-8.23111,-5.98217,92.7113
2023-02-16 05:49:42:831,-1.05376,1.38811,-9.60142,-8.23754,-5.98091,92.7199
2023-02-16 05:49:42:841,-1.05758,1.40905,-9.6204,-8.2451,-5.97898,92.7268
2023-02-16 05:49:42:851,-1.05568,1.41909,-9.62834,-8.2529,-5.97792,92.7319
2023-02-16 05:49:42:861,-1.06256,1.43107,-9.62306,-8.25762,-5.97513,92.736
2023-02-16 05:49:42:871,-1.06155,1.43659,-9.62391,-8.26206,-5.97079,92.7362
2023-02-16 05:49:42:881,-1.05092,1.42466,-9.63296,-8.26728,-5.96586,92.7372
2023-02-16 05:49:42:891,-1.03818,1.43221,-9.64361,-8.27145,-5.96159,92.7349
2023-02-16 05:49:42:901,-1.02627,1.42609,-9.64719,-8.27425,-5.95757,92.7299
2023-02-16 05:49:42:911,-1.00663,1.43524,-9.63706,-8.27581,-5.95536,92.723
2023-02-16 05:49:42:921,-1.00158,1.42804,-9.63545,-8.27401,-5.9513,92.7131
2023-02-16 05:49:42:931,-0.983249,1.4219,-9.64161,-8.27491,-5.94587,92.7074
2023-02-16 05:49:42:941,-0.979874,1.40504,-9.65584,-8.27137,-5.93995,92.701
2023-02-16 05:49:42:951,-0.977159,1.40671,-9.64663,-8.2695,-5.93462,92.6974
2023-02-16 05:49:42:961,-0.966505,1.41781,-9.64307,-8.27013,-5.9315,92.6957
2023-02-16 05:49:42:971,-0.97105,1.41891,-9.63604,-8.26807,-5.92905,92.6945
2023-02-16 05:49:42:981,-0.995261,1.42365,-9.63297,-8.26514,-5.9216,92.6957
2023-02-16 05:49:42:991,-1.00257,1.42107,-9.63361,-8.26172,-5.91795,92.6965
2023-02-16 05:49:43:1,-1.0152,1.41453,-9.62858,-8.25727,-5.91358,92.6998
2023-02-16 05:49:43:11,-1.02053,1.41701,-9.62991,-8.25267,-5.91028,92.7027
2023-02-16 05:49:43:21,-1.02102,1.41797,-9.62918,-8.24624,-5.90572,92.7057
2023-02-16 05:49:43:31,-1.02617,1.41103,-9.62504,-8.24263,-5.90122,92.7063
2023-02-16 05:49:43:41,-1.02948,1.40617,-9.61963,-8.23528,-5.89651,92.7077
2023-02-16 05:49:43:51,-1.02187,1.39841,-9.60798,-8.22923,-5.89566,92.7064
2023-02-16 05:49:43:61,-1.01969,1.40149,-9.60412,-8.22637,-5.89363,92.7036
2023-02-16 05:49:43:71,-1.00721,1.39465,-9.60892,-8.22228,-5.89031,92.7005
2023-02-16 05:49:43:81,-1.01392,1.39187,-9.62645,-8.21888,-5.88635,92.6953
2023-02-16 05:49:43:91,-1.01156,1.38092,-9.63194,-8.21156,-5.88361,92.6934
2023-02-16 05:49:43:101,-1.00036,1.38264,-9.62793,-8.20842,-5.87874,92.6921
2023-02-16 05:49:43:111,-1.0045,1.38026,-9.62341,-8.20607,-5.8705,92.6885
2023-02-16 05:49:43:121,-1.00023,1.37495,-9.61645,-8.20256,-5.86635,92.6897
2023-02-16 05:49:43:131,-0.989834,1.37892,-9.63264,-8.20262,-5.86004,92.6882
2023-02-16 05:49:43:141,-0.982389,1.38099,-9.62462,-8.20347,-5.8532,92.6885
2023-02-16 05:49:43:151,-0.987832,1.38925,-9.60276,-8.20334,-5.84678,92.6869
2023-02-16 05:49:43:161,-0.990402,1.39135,-9.61095,-8.20594,-5.83688,92.6895
2023-02-16 05:49:43:171,-1.01888,1.38995,-9.61438,-8.21015,-5.82757,92.6943
2023-02-16 05:49:43:181,-1.02807,1.38502,-9.60858,-8.21232,-5.81452,92.7014
2023-02-16 05:49:43:191,-1.0267,1.37711,-9.61553,-8.21194,-5.79758,92.7097
2023-02-16 05:49:43:201,-1.01767,1.38004,-9.59997,-8.2139,-5.77765,92.7189
2023-02-16 05:49:43:211,-0.983024,1.36465,-9.57088,-8.21659,-5.75768,92.7288
2023-02-16 05:49:43:221,-1.00977,1.38588,-9.58126,-8.2219,-5.72886,92.7448
2023-02-16 05:49:43:231,-1.08001,1.39712,-9.58626,-8.22725,-5.69649,92.7653
2023-02-16 05:49:43:241,-1.07259,1.39545,-9.58406,-8.23237,-5.6557,92.7853
2023-02-16 05:49:43:251,-1.09263,1.40204,-9.592,-8.23732,-5.60502,92.8094
2023-02-16 05:49:43:261,-1.14827,1.4113,-9.58246,-8.24127,-5.55305,92.8342
2023-02-16 05:49:43:271,-1.19712,1.41779,-9.5802,-8.24217,-5.48727,92.86
2023-02-16 05:49:43:281,-1.24438,1.41601,-9.61069,-8.24349,-5.41111,92.8882
2023-02-16 05:49:43:291,-1.28987,1.42366,-9.65481,-8.24083,-5.32058,92.918
2023-02-16 05:49:43:301,-1.3196,1.42618,-9.68146,-8.23805,-5.20735,92.9481
2023-02-16 05:49:43:311,-1.30264,1.40552,-9.67813,-8.22727,-5.07856,92.9828
2023-02-16 05:49:43:321,-1.26548,1.36206,-9.64981,-8.21125,-4.93243,93.0195
2023-02-16 05:49:43:331,-1.25366,1.34678,-9.59621,-8.19262,-4.76856,93.0579
2023-02-16 05:49:43:341,-1.24551,1.33151,-9.5291,-8.17331,-4.58642,93.099
2023-02-16 05:49:43:351,-1.19983,1.32782,-9.47916,-8.15086,-4.38148,93.1377
2023-02-16 05:49:43:361,-1.15689,1.32108,-9.44127,-8.13622,-4.16078,93.1775
2023-02-16 05:49:43:371,-1.11799,1.30107,-9.4182,-8.11785,-3.92003,93.2175
2023-02-16 05:49:43:381,-1.04916,1.28779,-9.42007,-8.10924,-3.66918,93.253
2023-02-16 05:49:43:391,-0.958989,1.31484,-9.45118,-8.10612,-3.40611,93.2828
2023-02-16 05:49:43:401,-0.858438,1.33037,-9.4902,-8.10961,-3.12843,93.3077
2023-02-16 05:49:43:411,-0.781656,1.33222,-9.52534,-8.10608,-2.84319,93.3341
2023-02-16 05:49:43:421,-0.733196,1.33196,-9.54159,-8.10373,-2.54068,93.3577
2023-02-16 05:49:43:431,-0.677185,1.3171,-9.51734,-8.09927,-2.21647,93.3903
2023-02-16 05:49:43:441,-0.597204,1.28854,-9.50319,-8.0952,-1.8739,93.4235
2023-02-16 05:49:43:451,-0.528884,1.27522,-9.48801,-8.09469,-1.50889,93.4662
2023-02-16 05:49:43:461,-0.428632,1.26821,-9.46734,-8.09657,-1.12403,93.5162
2023-02-16 05:49:43:471,-0.327989,1.26216,-9.44678,-8.09938,-0.71825,93.571
2023-02-16 05:49:43:481,-0.271372,1.27043,-9.41787,-8.1048,-0.296226,93.6363
2023-02-16 05:49:43:491,-0.259583,1.27645,-9.41689,-8.11505,0.149046,93.7137
2023-02-16 05:49:43:501,-0.256551,1.29628,-9.38236,-8.12937,0.612252,93.797
2023-02-16 05:49:43:511,-0.230292,1.29732,-9.3531,-8.14186,1.10322,93.8903
2023-02-16 05:49:43:521,-0.227996,1.29067,-9.34262,-8.15781,1.62241,93.9828
2023-02-16 05:49:43:531,-0.170562,1.30975,-9.32547,-8.17631,2.16368,94.0764
2023-02-16 05:49:43:541,-0.0141802,1.30558,-9.32464,-8.19624,2.73428,94.1693
2023-02-16 05:49:43:551,0.105448,1.32519,-9.31446,-8.21719,3.32715,94.2594
2023-02-16 05:49:43:561,0.149263,1.30826,-9.30939,-8.23781,3.93764,94.3495
2023-02-16 05:49:43:571,0.287584,1.32723,-9.36109,-8.25993,4.56894,94.4325
2023-02-16 05:49:43:581,0.563974,1.33431,-9.4269,-8.28169,5.22198,94.5119
2023-02-16 05:49:43:591,0.777178,1.31284,-9.42504,-8.29632,5.88726,94.5901
2023-02-16 05:49:43:601,0.86609,1.32472,-9.38732,-8.30667,6.56754,94.6749
2023-02-16 05:49:43:611,0.913102,1.32804,-9.3242,-8.3081,7.26422,94.7646
2023-02-16 05:49:43:621,0.986623,1.33237,-9.28579,-8.30978,7.98062,94.8609
2023-02-16 05:49:43:631,1.03181,1.33595,-9.24156,-8.30288,8.71471,94.9566
2023-02-16 05:49:43:641,1.10941,1.31743,-9.20332,-8.29571,9.46769,95.0487
2023-02-16 05:49:43:651,1.32399,1.3525,-9.29525,-8.29094,10.2425,95.1319
2023-02-16 05:49:43:661,1.48503,1.40539,-9.39028,-8.27545,11.0342,95.2166
2023-02-16 05:49:43:671,1.52969,1.35933,-9.28339,-8.23775,11.8432,95.3069
2023-02-16 05:49:43:681,1.56805,1.30668,-9.09736,-8.18979,12.6728,95.3959
2023-02-16 05:49:43:691,1.70713,1.25633,-9.00717,-8.1358,13.5275,95.4832
2023-02-16 05:49:43:701,1.91329,1.21299,-8.96375,-8.07691,14.3997,95.5628
2023-02-16 05:49:43:711,2.04296,1.18165,-8.86707,-8.01018,15.2914,95.6391
2023-02-16 05:49:43:721,2.0616,1.12814,-8.68529,-7.93558,16.2074,95.7148
2023-02-16 05:49:43:731,2.09163,1.04955,-8.47257,-7.86584,17.1503,95.7849
2023-02-16 05:49:43:740,2.25042,0.979842,-8.35312,-7.80171,18.1175,95.8382
2023-02-16 05:49:43:750,2.48063,0.951332,-8.35254,-7.75885,19.1048,95.8765
2023-02-16 05:49:43:760,2.69926,0.980304,-8.41259,-7.73038,20.1141,95.8974
2023-02-16 05:49:43:770,2.92391,1.02744,-8.44755,-7.70432,21.1541,95.9083
2023-02-16 05:49:43:780,3.09767,1.02309,-8.32444,-7.67016,22.2233,95.9141
2023-02-16 05:49:43:791,3.26251,0.964726,-8.12743,-7.62768,23.3207,95.9133
2023-02-16 05:49:43:801,3.52636,0.875263,-7.93447,-7.58738,24.4422,95.8993
2023-02-16 05:49:43:811,3.87753,0.778149,-7.77257,-7.56561,25.5763,95.8612
2023-02-16 05:49:43:821,4.26705,0.696992,-7.63169,-7.57193,26.7094,95.8106
2023-02-16 05:49:43:831,4.61875,0.66126,-7.5662,-7.60256,27.8354,95.7466
2023-02-16 05:49:43:841,4.89299,0.694035,-7.56296,-7.66388,28.9472,95.6734
2023-02-16 05:49:43:851,5.1551,0.805513,-7.66559,-7.75313,30.0487,95.5899
2023-02-16 05:49:43:861,5.43599,0.98348,-7.83831,-7.86488,31.1341,95.4963
2023-02-16 05:49:43:871,5.68805,1.14174,-7.9349,-7.98241,32.1982,95.3916
2023-02-16 05:49:43:881,5.96087,1.24689,-7.96555,-8.09867,33.235,95.275
2023-02-16 05:49:43:891,6.32628,1.30612,-8.00958,-8.21092,34.242,95.1386
2023-02-16 05:49:43:901,6.69531,1.31915,-7.97406,-8.32073,35.2083,94.9835
2023-02-16 05:49:43:911,7.00022,1.29169,-7.83118,-8.42719,36.1218,94.8128
2023-02-16 05:49:43:921,7.17552,1.28084,-7.65846,-8.53767,36.9741,94.6242
2023-02-16 05:49:43:931,7.2787,1.26406,-7.55338,-8.67426,37.7584,94.4122
2023-02-16 05:49:43:941,7.50048,1.34483,-7.65471,-8.84218,38.477,94.1735
2023-02-16 05:49:43:951,7.80457,1.48861,-7.85209,-9.03633,39.1305,93.909
2023-02-16 05:49:43:961,8.09817,1.57797,-7.96743,-9.23031,39.7147,93.6336
2023-02-16 05:49:43:971,8.29881,1.61787,-7.98206,-9.40077,40.2375,93.3595
2023-02-16 05:49:43:981,8.32639,1.60865,-7.84831,-9.53789,40.7002,93.1082
2023-02-16 05:49:43:991,8.22463,1.58944,-7.5601,-9.6468,41.102,92.8669
2023-02-16 05:49:44:1,7.96074,1.49986,-7.16507,-9.74322,41.4473,92.6395
2023-02-16 05:49:44:11,7.81956,1.43233,-6.99615,-9.86123,41.7507,92.4004
2023-02-16 05:49:44:21,8.01073,1.49006,-7.22219,-10.0165,42.0127,92.1455
2023-02-16 05:49:44:31,8.34157,1.62687,-7.58269,-10.1817,42.2264,91.8894
2023-02-16 05:49:44:41,8.47346,1.70833,-7.72397,-10.3147,42.3884,91.6609
2023-02-16 05:49:44:51,8.24031,1.67373,-7.46765,-10.3906,42.5035,91.471
2023-02-16 05:49:44:61,7.75298,1.58596,-6.9622,-10.4318,42.5885,91.3065
2023-02-16 05:49:44:71,7.27873,1.4902,-6.55642,-10.4852,42.6521,91.1427
2023-02-16 05:49:44:81,7.28546,1.42838,-6.5686,-10.5915,42.7006,90.9509
2023-02-16 05:49:44:91,7.65811,1.5311,-6.96004,-10.7582,42.7161,90.7327
2023-02-16 05:49:44:101,7.97636,1.68299,-7.49027,-10.9359,42.6808,90.5166
2023-02-16 05:49:44:111,7.88866,1.77761,-7.75132,-11.0745,42.5926,90.3335
2023-02-16 05:49:44:121,7.42939,1.76081,-7.62665,-11.1624,42.4733,90.1794
2023-02-16 05:49:44:131,7.02895,1.64195,-7.32111,-11.2229,42.3394,90.0264
2023-02-16 05:49:44:141,6.881,1.53311,-7.08967,-11.2929,42.1899,89.8543
2023-02-16 05:49:44:151,6.94233,1.47907,-7.04256,-11.3994,42.0168,89.6462
2023-02-16 05:49:44:161,7.19982,1.47358,-7.22774,-11.5296,41.8144,89.4236
2023-02-16 05:49:44:171,7.3766,1.54156,-7.47754,-11.663,41.5719,89.2097
2023-02-16 05:49:44:181,7.24864,1.55905,-7.54982,-11.7692,41.2968,89.0171
2023-02-16 05:49:44:191,7.07694,1.51327,-7.48904,-11.8466,41.0055,88.8482
2023-02-16 05:49:44:201,6.94057,1.48127,-7.39055,-11.8991,40.7045,88.7008
2023-02-16 05:49:44:211,6.69583,1.46162,-7.26366,-11.9412,40.3931,88.5668
2023-02-16 05:49:44:221,6.39219,1.47353,-7.13719,-11.9902,40.0802,88.4313
2023-02-16 05:49:44:231,6.15018,1.52284,-7.01804,-12.0665,39.7591,88.2771
2023-02-16 05:49:44:241,6.06127,1.51492,-6.8865,-12.1831,39.4251,88.0851
