Timestamp,Acceleration_x,Acceleration_y,Acceleration_z,roll,pitch,yaw
2023-02-16 20:43:48:693,-0.398038,3.97892,-8.76852,-25.3696,-5.03438,-4.57867
2023-02-16 20:43:48:703,-0.414555,4.00648,-8.77003,-25.3467,-5.02577,-4.73352
2023-02-16 20:43:48:713,-0.412887,3.98718,-8.74535,-25.3259,-5.01528,-4.87791
2023-02-16 20:43:48:723,-0.436082,3.98034,-8.73818,-25.3086,-5.00701,-5.0058
2023-02-16 20:43:48:733,-0.464362,3.97576,-8.74907,-25.3006,-4.99699,-5.11691
2023-02-16 20:43:48:743,-0.503586,3.99954,-8.78083,-25.2967,-4.98938,-5.21544
2023-02-16 20:43:48:753,-0.569378,4.02949,-8.8432,-25.3008,-4.98506,-5.2996
2023-02-16 20:43:48:763,-0.626919,4.06306,-8.88392,-25.3032,-4.98208,-5.37374
2023-02-16 20:43:48:773,-0.690018,4.07854,-8.94218,-25.3041,-4.97776,-5.4443
2023-02-16 20:43:48:783,-0.713623,4.11284,-8.96232,-25.3067,-4.97068,-5.5061
2023-02-16 20:43:48:793,-0.728263,4.11689,-8.90529,-25.3043,-4.9621,-5.56205
2023-02-16 20:43:48:803,-0.763069,4.09176,-8.82477,-25.2977,-4.95195,-5.61686
2023-02-16 20:43:48:813,-0.771792,4.06538,-8.75272,-25.2883,-4.93612,-5.66976
2023-02-16 20:43:48:823,-0.771765,4.05615,-8.71323,-25.2793,-4.91235,-5.72362
2023-02-16 20:43:48:833,-0.728736,4.04745,-8.70999,-25.2687,-4.87946,-5.77519
2023-02-16 20:43:48:843,-0.668794,4.00815,-8.67454,-25.265,-4.84158,-5.82896
2023-02-16 20:43:48:853,-0.613323,3.97557,-8.62998,-25.2722,-4.80274,-5.87678
2023-02-16 20:43:48:863,-0.574104,3.95509,-8.59596,-25.2834,-4.76211,-5.92189
2023-02-16 20:43:48:873,-0.527872,3.95831,-8.60595,-25.3068,-4.71781,-5.96151
2023-02-16 20:43:48:883,-0.466002,3.98416,-8.62621,-25.3399,-4.67088,-5.99429
2023-02-16 20:43:48:893,-0.430494,3.98996,-8.60421,-25.3805,-4.62488,-6.02094
2023-02-16 20:43:48:904,-0.424251,3.98865,-8.56636,-25.4293,-4.5774,-6.03971
2023-02-16 20:43:48:913,-0.428887,4.0033,-8.53823,-25.4896,-4.53171,-6.05004
2023-02-16 20:43:48:923,-0.453706,4.03171,-8.54266,-25.5627,-4.48358,-6.05461
2023-02-16 20:43:48:933,-0.490559,4.06489,-8.59406,-25.6452,-4.44106,-6.05895
2023-02-16 20:43:48:943,-0.548817,4.16515,-8.69768,-25.7431,-4.40802,-6.06219
2023-02-16 20:43:48:953,-0.574395,4.32131,-8.89477,-25.8457,-4.37935,-6.06837
2023-02-16 20:43:48:963,-0.578874,4.45448,-9.01957,-25.9463,-4.35653,-6.07004
2023-02-16 20:43:48:974,-0.595212,4.53158,-9.03172,-26.0318,-4.34453,-6.07878
2023-02-16 20:43:48:984,-0.628771,4.55433,-8.92808,-26.1074,-4.34453,-6.0873
2023-02-16 20:43:48:994,-0.669606,4.5538,-8.84808,-26.1783,-4.35552,-6.10019
2023-02-16 20:43:49:4,-0.725877,4.58666,-8.80488,-26.2476,-4.37104,-6.12064
2023-02-16 20:43:49:13,-0.829401,4.63419,-8.82044,-26.3166,-4.39596,-6.14293
2023-02-16 20:43:49:23,-0.933738,4.68316,-8.86974,-26.3767,-4.4311,-6.17447
2023-02-16 20:43:49:33,-0.999609,4.70755,-8.90391,-26.4271,-4.47381,-6.21683
2023-02-16 20:43:49:43,-1.03665,4.72581,-8.91515,-26.4675,-4.51584,-6.26922
2023-02-16 20:43:49:54,-1.08761,4.72113,-8.90518,-26.4919,-4.56337,-6.33142
2023-02-16 20:43:49:64,-1.13826,4.69308,-8.86969,-26.5058,-4.61379,-6.40388
2023-02-16 20:43:49:74,-1.17414,4.65605,-8.82522,-26.5112,-4.66302,-6.48714
2023-02-16 20:43:49:84,-1.2093,4.62844,-8.79672,-26.5084,-4.70762,-6.58736
2023-02-16 20:43:49:93,-1.21498,4.59839,-8.76258,-26.4984,-4.74661,-6.69855
2023-02-16 20:43:49:104,-1.19652,4.54547,-8.69246,-26.4796,-4.78081,-6.82529
2023-02-16 20:43:49:114,-1.16456,4.4935,-8.64481,-26.4577,-4.81506,-6.96029
2023-02-16 20:43:49:123,-1.10758,4.42702,-8.6307,-26.4346,-4.84306,-7.11137
2023-02-16 20:43:49:133,-1.09778,4.37591,-8.53307,-26.4183,-4.88189,-7.26372
2023-02-16 20:43:49:143,-1.11094,4.40948,-8.71028,-26.3962,-4.89601,-7.43979
2023-02-16 20:43:49:154,-0.863375,4.31573,-8.63569,-26.3746,-4.92671,-7.61189
2023-02-16 20:43:49:164,-0.832146,4.34889,-8.70355,-26.3599,-4.94216,-7.78045
2023-02-16 20:43:49:173,-0.885844,4.375,-8.76513,-26.34,-4.96532,-7.95094
2023-02-16 20:43:49:184,-0.796405,4.34632,-8.76746,-26.3171,-4.98811,-8.12323
2023-02-16 20:43:49:193,-0.757605,4.32099,-8.72911,-26.2967,-5.00957,-8.28967
2023-02-16 20:43:49:204,-0.843918,4.35007,-8.71667,-26.2846,-5.03374,-8.45094
2023-02-16 20:43:49:213,-0.863722,4.38019,-8.7593,-26.274,-5.05681,-8.61619
2023-02-16 20:43:49:223,-0.80312,4.39485,-8.79613,-26.2585,-5.07702,-8.77762
2023-02-16 20:43:49:233,-0.774862,4.37793,-8.81816,-26.239,-5.10089,-8.93855
2023-02-16 20:43:49:244,-0.771457,4.374,-8.82881,-26.2121,-5.1179,-9.09376
2023-02-16 20:43:49:253,-0.734877,4.35319,-8.8157,-26.1798,-5.13324,-9.24727
2023-02-16 20:43:49:263,-0.73845,4.31354,-8.82123,-26.1446,-5.1461,-9.39427
2023-02-16 20:43:49:273,-0.735503,4.26948,-8.77558,-26.1052,-5.15669,-9.53258
2023-02-16 20:43:49:283,-0.752977,4.25971,-8.74273,-26.0678,-5.17399,-9.67033
2023-02-16 20:43:49:293,-0.720958,4.27068,-8.81933,-26.0254,-5.1827,-9.80269
2023-02-16 20:43:49:303,-0.718348,4.24239,-8.81661,-25.978,-5.19064,-9.92254
2023-02-16 20:43:49:313,-0.760754,4.1797,-8.74143,-25.928,-5.19803,-10.0371
2023-02-16 20:43:49:323,-0.747602,4.14743,-8.70797,-25.8853,-5.20291,-10.1492
2023-02-16 20:43:49:333,-0.695031,4.15137,-8.71928,-25.8518,-5.20373,-10.2499
2023-02-16 20:43:49:343,-0.679597,4.13121,-8.69476,-25.8173,-5.20325,-10.3485
2023-02-16 20:43:49:353,-0.709142,4.10377,-8.64431,-25.7889,-5.19746,-10.4332
2023-02-16 20:43:49:363,-0.721956,4.10349,-8.63745,-25.7675,-5.18932,-10.514
2023-02-16 20:43:49:373,-0.682142,4.11755,-8.6575,-25.7527,-5.17539,-10.5924
2023-02-16 20:43:49:384,-0.638481,4.1327,-8.7021,-25.744,-5.15782,-10.664
2023-02-16 20:43:49:393,-0.584779,4.09301,-8.70563,-25.7378,-5.13873,-10.7237
2023-02-16 20:43:49:404,-0.562031,4.074,-8.68645,-25.7319,-5.11927,-10.7691
2023-02-16 20:43:49:413,-0.579636,4.08093,-8.71243,-25.7349,-5.09645,-10.8055
2023-02-16 20:43:49:423,-0.582402,4.09478,-8.69356,-25.743,-5.07169,-10.8357
2023-02-16 20:43:49:433,-0.598976,4.10793,-8.68291,-25.7565,-5.04195,-10.8555
2023-02-16 20:43:49:444,-0.613542,4.15186,-8.71293,-25.7782,-5.00764,-10.8683
2023-02-16 20:43:49:453,-0.596579,4.19862,-8.7622,-25.7979,-4.96997,-10.8768
2023-02-16 20:43:49:463,-0.591289,4.22814,-8.78302,-25.822,-4.93084,-10.8751
2023-02-16 20:43:49:473,-0.614229,4.23997,-8.77537,-25.846,-4.89391,-10.8675
2023-02-16 20:43:49:483,-0.649932,4.25415,-8.78513,-25.87,-4.86028,-10.8565
2023-02-16 20:43:49:493,-0.673136,4.28693,-8.79561,-25.8962,-4.83574,-10.8431
2023-02-16 20:43:49:503,-0.678938,4.299,-8.81947,-25.9217,-4.81463,-10.8269
2023-02-16 20:43:49:514,-0.682499,4.30268,-8.83017,-25.9441,-4.79767,-10.8109
2023-02-16 20:43:49:523,-0.675854,4.30701,-8.84195,-25.9647,-4.78762,-10.7942
2023-02-16 20:43:49:533,-0.654516,4.31398,-8.85413,-25.9835,-4.77852,-10.7759
2023-02-16 20:43:49:543,-0.625102,4.31469,-8.86808,-26.0003,-4.77419,-10.7514
2023-02-16 20:43:49:553,-0.596583,4.31515,-8.87187,-26.0108,-4.77215,-10.725
2023-02-16 20:43:49:563,-0.60442,4.32487,-8.85779,-26.0184,-4.76957,-10.6925
2023-02-16 20:43:49:573,-0.615057,4.32866,-8.83473,-26.0244,-4.77167,-10.6506
2023-02-16 20:43:49:583,-0.609772,4.32373,-8.78785,-26.0266,-4.77165,-10.6056
2023-02-16 20:43:49:593,-0.61588,4.3068,-8.76879,-26.0273,-4.76814,-10.5551
2023-02-16 20:43:49:603,-0.615467,4.30102,-8.74953,-26.0311,-4.7594,-10.5001
2023-02-16 20:43:49:614,-0.616166,4.31475,-8.75739,-26.0389,-4.74977,-10.4399
2023-02-16 20:43:49:624,-0.592056,4.33804,-8.79419,-26.0453,-4.73573,-10.3746
2023-02-16 20:43:49:634,-0.619901,4.36189,-8.80888,-26.0468,-4.72144,-10.3058
2023-02-16 20:43:49:644,-0.634731,4.42467,-8.85887,-26.0508,-4.71334,-10.233
2023-02-16 20:43:49:654,-0.621432,4.47471,-8.88953,-26.047,-4.70527,-10.1601
2023-02-16 20:43:49:664,-0.624034,4.47245,-8.84023,-26.0378,-4.69591,-10.0835
2023-02-16 20:43:49:673,-0.664369,4.46612,-8.7856,-26.0233,-4.69002,-9.99752
2023-02-16 20:43:49:684,-0.684216,4.54033,-8.8507,-26.0073,-4.67909,-9.91081
2023-02-16 20:43:49:694,-0.713678,4.62639,-8.98929,-25.9795,-4.66061,-9.81793
2023-02-16 20:43:49:703,-0.761766,4.63806,-8.98966,-25.9412,-4.65723,-9.72228
2023-02-16 20:43:49:713,-0.78892,4.68365,-9.03433,-25.9011,-4.661,-9.62906
2023-02-16 20:43:49:724,-0.8066,4.77935,-9.19175,-25.8494,-4.67349,-9.53911
2023-02-16 20:43:49:733,-0.81533,4.80823,-9.26129,-25.7724,-4.6819,-9.44674
2023-02-16 20:43:49:743,-0.858912,4.76924,-9.2108,-25.6644,-4.68589,-9.35106
2023-02-16 20:43:49:754,-0.9385,4.68532,-9.08919,-25.5291,-4.68113,-9.25453
2023-02-16 20:43:49:763,-0.993204,4.6074,-8.98182,-25.374,-4.66904,-9.1609
2023-02-16 20:43:49:773,-1.02655,4.53009,-8.90033,-25.2092,-4.65679,-9.07507
2023-02-16 20:43:49:783,-1.02702,4.49374,-8.85274,-25.0368,-4.63965,-8.99631
2023-02-16 20:43:49:793,-1.0315,4.43158,-8.81553,-24.8561,-4.62143,-8.92427
2023-02-16 20:43:49:803,-1.03571,4.38033,-8.7964,-24.6704,-4.59397,-8.85998
2023-02-16 20:43:49:813,-1.04023,4.33748,-8.79103,-24.4814,-4.56743,-8.8025
2023-02-16 20:43:49:823,-1.03816,4.27672,-8.78027,-24.2903,-4.54074,-8.74929
2023-02-16 20:43:49:833,-1.03765,4.18164,-8.75862,-24.0996,-4.51729,-8.70673
2023-02-16 20:43:49:843,-1.05507,4.09842,-8.73675,-23.9129,-4.49788,-8.67131
2023-02-16 20:43:49:853,-1.05532,4.04935,-8.77879,-23.7318,-4.48274,-8.64751
2023-02-16 20:43:49:863,-1.05836,4.01118,-8.83205,-23.5517,-4.47457,-8.63583
2023-02-16 20:43:49:873,-1.01067,3.95769,-8.86751,-23.371,-4.47413,-8.63635
2023-02-16 20:43:49:883,-0.95241,3.87118,-8.87141,-23.1964,-4.48017,-8.64089
2023-02-16 20:43:49:893,-0.941792,3.81021,-8.83526,-23.0255,-4.49497,-8.65763
2023-02-16 20:43:49:903,-0.942702,3.74138,-8.81997,-22.8602,-4.51618,-8.67965
2023-02-16 20:43:49:913,-0.912503,3.68278,-8.82096,-22.7066,-4.54318,-8.71105
2023-02-16 20:43:49:923,-0.890391,3.62663,-8.83658,-22.5592,-4.57462,-8.74642
2023-02-16 20:43:49:933,-0.849871,3.59154,-8.815,-22.4159,-4.60822,-8.78705
2023-02-16 20:43:49:943,-0.836375,3.53169,-8.79016,-22.2805,-4.64142,-8.83471
2023-02-16 20:43:49:953,-0.838861,3.49668,-8.79775,-22.1546,-4.67375,-8.8803
2023-02-16 20:43:49:963,-0.82567,3.46569,-8.81324,-22.0398,-4.70141,-8.93099
2023-02-16 20:43:49:973,-0.808751,3.4249,-8.82221,-21.9301,-4.72985,-8.97579
2023-02-16 20:43:49:983,-0.793966,3.38811,-8.83339,-21.8277,-4.7538,-9.0272
2023-02-16 20:43:49:993,-0.783933,3.39284,-8.86468,-21.7325,-4.77649,-9.07078
2023-02-16 20:43:50:3,-0.75727,3.39302,-8.91358,-21.6427,-4.78886,-9.11627
2023-02-16 20:43:50:13,-0.734983,3.37406,-8.95081,-21.5617,-4.80293,-9.15384
2023-02-16 20:43:50:23,-0.724892,3.35617,-8.98328,-21.4865,-4.81221,-9.1892
2023-02-16 20:43:50:33,-0.716708,3.34638,-9.0054,-21.4167,-4.82019,-9.21988
2023-02-16 20:43:50:43,-0.712195,3.33735,-9.02234,-21.3514,-4.82507,-9.24727
2023-02-16 20:43:50:53,-0.712804,3.33425,-9.00909,-21.2914,-4.83111,-9.2708
2023-02-16 20:43:50:63,-0.73029,3.34453,-9.01594,-21.2378,-4.8343,-9.29185
2023-02-16 20:43:50:73,-0.775539,3.34099,-9.02503,-21.1906,-4.83687,-9.31041
2023-02-16 20:43:50:83,-0.793286,3.37285,-9.09293,-21.146,-4.83688,-9.33082
2023-02-16 20:43:50:93,-0.758866,3.40944,-9.18283,-21.1049,-4.834,-9.35149
2023-02-16 20:43:50:103,-0.726341,3.41682,-9.1949,-21.0583,-4.83349,-9.36849
2023-02-16 20:43:50:113,-0.737855,3.38061,-9.12869,-21.0098,-4.83123,-9.38393
2023-02-16 20:43:50:123,-0.743965,3.33168,-9.0486,-20.957,-4.83029,-9.3963
2023-02-16 20:43:50:133,-0.753174,3.29971,-9.00517,-20.9107,-4.83017,-9.40775
2023-02-16 20:43:50:143,-0.743545,3.28582,-8.97639,-20.8742,-4.82626,-9.41916
2023-02-16 20:43:50:153,-0.715176,3.27299,-8.9797,-20.8424,-4.81969,-9.42679
2023-02-16 20:43:50:163,-0.684922,3.26285,-8.96414,-20.8203,-4.81005,-9.4354
2023-02-16 20:43:50:173,-0.666856,3.26162,-8.96935,-20.8075,-4.80006,-9.43561
2023-02-16 20:43:50:183,-0.649255,3.29282,-9.01052,-20.8056,-4.79237,-9.43623
2023-02-16 20:43:50:193,-0.664489,3.35365,-9.07348,-20.8106,-4.78304,-9.43104
2023-02-16 20:43:50:203,-0.677614,3.39193,-9.13027,-20.8159,-4.77706,-9.42678
2023-02-16 20:43:50:213,-0.697316,3.41515,-9.15332,-20.8208,-4.77422,-9.4162
2023-02-16 20:43:50:223,-0.719661,3.41726,-9.13954,-20.8239,-4.77097,-9.40356
2023-02-16 20:43:50:233,-0.753431,3.39854,-9.12067,-20.826,-4.77095,-9.38954
2023-02-16 20:43:50:243,-0.78915,3.38829,-9.10839,-20.8283,-4.76801,-9.3771
2023-02-16 20:43:50:253,-0.796546,3.39804,-9.11121,-20.8366,-4.76721,-9.36528
2023-02-16 20:43:50:263,-0.796582,3.42106,-9.1403,-20.845,-4.76908,-9.35305
2023-02-16 20:43:50:273,-0.796345,3.44704,-9.13986,-20.8558,-4.76925,-9.34422
2023-02-16 20:43:50:283,-0.788907,3.47056,-9.13633,-20.8639,-4.77052,-9.33741
2023-02-16 20:43:50:293,-0.805885,3.48426,-9.12632,-20.8725,-4.77299,-9.32559
2023-02-16 20:43:50:303,-0.849535,3.47789,-9.11771,-20.8764,-4.77585,-9.31669
2023-02-16 20:43:50:313,-0.882463,3.48398,-9.10554,-20.8816,-4.77774,-9.30681
2023-02-16 20:43:50:323,-0.876474,3.45532,-9.08055,-20.8811,-4.77616,-9.30375
2023-02-16 20:43:50:333,-0.86908,3.41943,-9.04628,-20.8825,-4.77316,-9.30024
2023-02-16 20:43:50:343,-0.873823,3.43885,-9.06215,-20.8819,-4.76194,-9.29466
2023-02-16 20:43:50:353,-0.855755,3.45293,-9.08741,-20.8786,-4.74848,-9.29181
2023-02-16 20:43:50:363,-0.853055,3.43145,-9.05633,-20.8812,-4.73617,-9.29242
2023-02-16 20:43:50:373,-0.87423,3.44077,-9.0723,-20.8854,-4.72482,-9.29477
2023-02-16 20:43:50:383,-0.885472,3.47836,-9.10417,-20.8921,-4.71599,-9.30151
2023-02-16 20:43:50:393,-0.884641,3.47978,-9.07707,-20.8957,-4.70421,-9.31094
2023-02-16 20:43:50:403,-0.884088,3.47146,-9.07428,-20.8983,-4.69576,-9.32619
2023-02-16 20:43:50:414,-0.854144,3.46238,-9.05767,-20.9001,-4.68351,-9.34472
2023-02-16 20:43:50:424,-0.817076,3.46832,-9.04907,-20.9035,-4.67112,-9.36665
2023-02-16 20:43:50:434,-0.773284,3.43933,-9.04654,-20.91,-4.6554,-9.39246
2023-02-16 20:43:50:444,-0.747898,3.42722,-9.03839,-20.9185,-4.6468,-9.41884
2023-02-16 20:43:50:454,-0.749448,3.44092,-9.02992,-20.9348,-4.64224,-9.43931
2023-02-16 20:43:50:464,-0.764215,3.46753,-9.08022,-20.9547,-4.6362,-9.46117
2023-02-16 20:43:50:474,-0.75695,3.49289,-9.13082,-20.9733,-4.62959,-9.48521
2023-02-16 20:43:50:483,-0.760918,3.51027,-9.16366,-20.9916,-4.62319,-9.50429
2023-02-16 20:43:50:494,-0.781722,3.5148,-9.14593,-21.0018,-4.61814,-9.52709
2023-02-16 20:43:50:504,-0.757055,3.4943,-9.13375,-21.0131,-4.61172,-9.55163
2023-02-16 20:43:50:514,-0.696143,3.47598,-9.10102,-21.0223,-4.60205,-9.57665
2023-02-16 20:43:50:524,-0.675066,3.45092,-9.08862,-21.0353,-4.5939,-9.59545
2023-02-16 20:43:50:534,-0.683307,3.42871,-9.0579,-21.0524,-4.58747,-9.60571
2023-02-16 20:43:50:544,-0.669928,3.42285,-9.03788,-21.0687,-4.57999,-9.61721
2023-02-16 20:43:50:554,-0.654348,3.41863,-9.06586,-21.0868,-4.56905,-9.62353
2023-02-16 20:43:50:564,-0.649515,3.43515,-9.11761,-21.1086,-4.5638,-9.62704
2023-02-16 20:43:50:574,-0.663181,3.49401,-9.19739,-21.1357,-4.5555,-9.62343
2023-02-16 20:43:50:584,-0.666741,3.5131,-9.21676,-21.1573,-4.55176,-9.61944
2023-02-16 20:43:50:594,-0.616131,3.4908,-9.18998,-21.1731,-4.55335,-9.61407
2023-02-16 20:43:50:604,-0.632758,3.45873,-9.13771,-21.1867,-4.55615,-9.59721
2023-02-16 20:43:50:614,-0.68657,3.46058,-9.10298,-21.202,-4.55848,-9.57575
2023-02-16 20:43:50:624,-0.704587,3.48373,-9.09431,-21.222,-4.55889,-9.55542
2023-02-16 20:43:50:634,-0.710759,3.4849,-9.04685,-21.2431,-4.56109,-9.53072
2023-02-16 20:43:50:644,-0.724332,3.5,-9.03145,-21.2693,-4.56031,-9.50604
2023-02-16 20:43:50:654,-0.754498,3.53417,-9.06848,-21.2991,-4.55665,-9.48271
2023-02-16 20:43:50:664,-0.759092,3.57449,-9.07975,-21.3277,-4.55875,-9.46361
2023-02-16 20:43:50:674,-0.777787,3.59146,-9.10318,-21.3574,-4.56222,-9.44535
2023-02-16 20:43:50:684,-0.790988,3.61145,-9.12043,-21.3802,-4.56571,-9.43053
2023-02-16 20:43:50:694,-0.78251,3.5819,-9.08576,-21.3912,-4.56234,-9.41595
2023-02-16 20:43:50:704,-0.759364,3.52665,-9.02647,-21.4028,-4.55965,-9.40374
2023-02-16 20:43:50:714,-0.742775,3.50734,-8.98491,-21.4187,-4.55409,-9.39122
2023-02-16 20:43:50:724,-0.737648,3.50764,-9.00924,-21.4362,-4.55113,-9.38117
2023-02-16 20:43:50:734,-0.726361,3.52178,-9.02615,-21.4612,-4.54514,-9.37164
2023-02-16 20:43:50:744,-0.723376,3.53705,-9.00061,-21.4832,-4.53658,-9.36241
2023-02-16 20:43:50:754,-0.72489,3.55013,-8.98776,-21.5168,-4.52745,-9.35325
2023-02-16 20:43:50:764,-0.702364,3.58976,-9.00807,-21.5592,-4.52369,-9.34576
2023-02-16 20:43:50:774,-0.695541,3.65287,-9.09985,-21.5998,-4.51469,-9.33633
2023-02-16 20:43:50:784,-0.704714,3.71067,-9.17172,-21.637,-4.50812,-9.32444
2023-02-16 20:43:50:794,-0.691488,3.72201,-9.17857,-21.6688,-4.49819,-9.31357
2023-02-16 20:43:50:804,-0.673067,3.71234,-9.15412,-21.6922,-4.48799,-9.29953
2023-02-16 20:43:50:814,-0.655835,3.67779,-9.09317,-21.713,-4.48087,-9.28468
2023-02-16 20:43:50:824,-0.632619,3.65866,-9.06946,-21.7365,-4.47712,-9.26639
2023-02-16 20:43:50:834,-0.63556,3.68289,-9.08748,-21.7598,-4.47185,-9.24671
2023-02-16 20:43:50:844,-0.644327,3.6745,-9.10504,-21.7807,-4.4662,-9.21755
2023-02-16 20:43:50:854,-0.650704,3.67052,-9.07963,-21.7974,-4.46483,-9.18641
2023-02-16 20:43:50:864,-0.646216,3.66488,-9.03152,-21.8138,-4.46974,-9.15335
2023-02-16 20:43:50:874,-0.639816,3.66623,-9.03419,-21.8346,-4.4687,-9.12035
2023-02-16 20:43:50:884,-0.638359,3.68275,-9.0631,-21.8564,-4.46674,-9.08228
2023-02-16 20:43:50:894,-0.634164,3.69342,-9.06287,-21.8756,-4.46443,-9.03912
2023-02-16 20:43:50:904,-0.655458,3.67649,-9.05315,-21.8906,-4.46083,-8.99077
2023-02-16 20:43:50:914,-0.669184,3.65394,-9.01361,-21.9056,-4.46053,-8.939
2023-02-16 20:43:50:924,-0.684377,3.63499,-8.99624,-21.9193,-4.45706,-8.88449
2023-02-16 20:43:50:934,-0.699089,3.61724,-9.00979,-21.9392,-4.45444,-8.82617
2023-02-16 20:43:50:944,-0.68836,3.61406,-9.00834,-21.9607,-4.44976,-8.76477
2023-02-16 20:43:50:954,-0.66904,3.61238,-9.00748,-21.9835,-4.44348,-8.70279
2023-02-16 20:43:50:964,-0.668558,3.62674,-9.00659,-22.0072,-4.4362,-8.6407
2023-02-16 20:43:50:974,-0.661395,3.63779,-9.03967,-22.0299,-4.4277,-8.56995
2023-02-16 20:43:50:984,-0.685663,3.67305,-9.06207,-22.0572,-4.4211,-8.49663
2023-02-16 20:43:50:993,-0.702422,3.68494,-9.06748,-22.0825,-4.41568,-8.42536
2023-02-16 20:43:51:4,-0.712677,3.69167,-9.06691,-22.1063,-4.41041,-8.35691
2023-02-16 20:43:51:14,-0.716376,3.6758,-9.03604,-22.1311,-4.40673,-8.28809
2023-02-16 20:43:51:24,-0.735097,3.65387,-9.01893,-22.1553,-4.40206,-8.21622
2023-02-16 20:43:51:34,-0.746772,3.64604,-8.98404,-22.1815,-4.40388,-8.1464
2023-02-16 20:43:51:44,-0.74386,3.61565,-8.97531,-22.2091,-4.4054,-8.07908
2023-02-16 20:43:51:54,-0.752273,3.6102,-8.96399,-22.2385,-4.40871,-8.01091
2023-02-16 20:43:51:64,-0.76947,3.64369,-8.96569,-22.2705,-4.40844,-7.94315
2023-02-16 20:43:51:74,-0.81255,3.69838,-9.00349,-22.3066,-4.41005,-7.87793
2023-02-16 20:43:51:84,-0.823426,3.74682,-9.03033,-22.3446,-4.41101,-7.82029
2023-02-16 20:43:51:94,-0.839973,3.75554,-9.05317,-22.3792,-4.41102,-7.76544
2023-02-16 20:43:51:104,-0.847857,3.76889,-9.05787,-22.4081,-4.40721,-7.71293
2023-02-16 20:43:51:114,-0.84389,3.77618,-9.05827,-22.4319,-4.40717,-7.66538
2023-02-16 20:43:51:124,-0.854599,3.77247,-9.04109,-22.4543,-4.40533,-7.62291
2023-02-16 20:43:51:134,-0.871691,3.75387,-9.01891,-22.4735,-4.40774,-7.58269
2023-02-16 20:43:51:144,-0.874421,3.7463,-8.99148,-22.4948,-4.41116,-7.54646
2023-02-16 20:43:51:154,-0.878373,3.76952,-8.99521,-22.517,-4.41695,-7.51914
2023-02-16 20:43:51:164,-0.901066,3.78828,-9.02502,-22.5382,-4.42321,-7.4983
2023-02-16 20:43:51:174,-0.904088,3.78783,-9.0314,-22.5587,-4.42538,-7.48317
2023-02-16 20:43:51:184,-0.883063,3.78641,-9.0394,-22.5786,-4.42384,-7.46902
2023-02-16 20:43:51:194,-0.853822,3.79001,-9.05263,-22.5935,-4.41978,-7.45932
2023-02-16 20:43:51:204,-0.849584,3.78515,-9.04819,-22.6033,-4.41823,-7.45526
2023-02-16 20:43:51:214,-0.831386,3.79641,-9.03642,-22.6131,-4.41472,-7.45708
2023-02-16 20:43:51:224,-0.791109,3.79422,-9.05209,-22.6176,-4.41037,-7.45962
2023-02-16 20:43:51:234,-0.755562,3.79552,-9.06212,-22.6193,-4.4057,-7.46497
2023-02-16 20:43:51:244,-0.728915,3.79927,-9.05479,-22.6204,-4.40165,-7.47159
2023-02-16 20:43:51:254,-0.711532,3.78194,-9.04742,-22.621,-4.39464,-7.47964
2023-02-16 20:43:51:264,-0.712712,3.77778,-9.03569,-22.6218,-4.39415,-7.48852
2023-02-16 20:43:51:274,-0.73747,3.77109,-9.01796,-22.6164,-4.39276,-7.49684
2023-02-16 20:43:51:284,-0.763382,3.77041,-9.03156,-22.6141,-4.39284,-7.50588
2023-02-16 20:43:51:294,-0.741704,3.78659,-9.06669,-22.6097,-4.38914,-7.51736
2023-02-16 20:43:51:304,-0.687419,3.77248,-9.08974,-22.607,-4.39149,-7.52727
2023-02-16 20:43:51:314,-0.668031,3.76508,-9.07425,-22.5969,-4.39535,-7.53434
2023-02-16 20:43:51:324,-0.699666,3.76593,-9.0546,-22.5879,-4.40634,-7.54253
2023-02-16 20:43:51:334,-0.738489,3.76821,-9.03854,-22.5784,-4.41752,-7.551
2023-02-16 20:43:51:344,-0.772765,3.77457,-9.00169,-22.5688,-4.43259,-7.55837
2023-02-16 20:43:51:354,-0.80236,3.7786,-8.98664,-22.5591,-4.44647,-7.56789
2023-02-16 20:43:51:364,-0.812314,3.78532,-8.97837,-22.5513,-4.46007,-7.58006
2023-02-16 20:43:51:374,-0.849084,3.81053,-8.99182,-22.5482,-4.47008,-7.59205
2023-02-16 20:43:51:384,-0.885827,3.82924,-8.9956,-22.5384,-4.48009,-7.60845
2023-02-16 20:43:51:394,-0.925036,3.81167,-8.9951,-22.5272,-4.49448,-7.63162
2023-02-16 20:43:51:404,-0.946175,3.8074,-8.98553,-22.5113,-4.50552,-7.66161
2023-02-16 20:43:51:414,-0.92999,3.80679,-8.98334,-22.495,-4.5174,-7.69613
2023-02-16 20:43:51:424,-0.911724,3.80777,-9.00301,-22.4755,-4.52359,-7.73841
2023-02-16 20:43:51:434,-0.8651,3.8143,-8.99022,-22.4529,-4.53333,-7.78727
2023-02-16 20:43:51:444,-0.819025,3.77885,-8.99556,-22.4286,-4.53704,-7.8382
2023-02-16 20:43:51:454,-0.793763,3.73668,-8.98611,-22.403,-4.53692,-7.88817
2023-02-16 20:43:51:464,-0.759383,3.7302,-8.96509,-22.3784,-4.53689,-7.93839
2023-02-16 20:43:51:474,-0.727609,3.73676,-8.96968,-22.3599,-4.53842,-7.99423
2023-02-16 20:43:51:484,-0.674292,3.72572,-8.9692,-22.3416,-4.53472,-8.04591
2023-02-16 20:43:51:494,-0.631798,3.73263,-8.96018,-22.322,-4.52961,-8.0968
2023-02-16 20:43:51:504,-0.609914,3.72207,-8.97837,-22.3058,-4.52112,-8.14456
2023-02-16 20:43:51:514,-0.585498,3.71874,-8.98575,-22.2974,-4.51123,-8.18317
2023-02-16 20:43:51:524,-0.53371,3.71036,-9.00508,-22.2905,-4.50568,-8.21815
2023-02-16 20:43:51:534,-0.491466,3.72295,-9.03692,-22.2845,-4.50175,-8.24127
2023-02-16 20:43:51:544,-0.500769,3.73604,-9.05409,-22.2813,-4.50124,-8.25329
2023-02-16 20:43:51:554,-0.563818,3.74618,-9.05601,-22.2745,-4.50265,-8.25725
2023-02-16 20:43:51:564,-0.646131,3.74651,-9.05977,-22.2665,-4.50238,-8.25383
2023-02-16 20:43:51:574,-0.699569,3.75799,-9.06617,-22.2535,-4.50304,-8.25072
2023-02-16 20:43:51:583,-0.735259,3.74581,-9.07336,-22.2407,-4.50018,-8.24651
2023-02-16 20:43:51:594,-0.742933,3.74102,-9.05963,-22.2238,-4.49752,-8.23889
2023-02-16 20:43:51:604,-0.735094,3.71928,-9.05156,-22.2055,-4.49058,-8.2333
2023-02-16 20:43:51:614,-0.716818,3.71359,-9.04223,-22.1852,-4.49489,-8.22848
2023-02-16 20:43:51:623,-0.704082,3.69427,-9.02238,-22.1653,-4.49442,-8.22231
2023-02-16 20:43:51:633,-0.702754,3.68109,-9.00545,-22.1474,-4.49847,-8.21737
2023-02-16 20:43:51:644,-0.738133,3.69705,-9.01319,-22.134,-4.50543,-8.2105
2023-02-16 20:43:51:654,-0.77093,3.71599,-9.04939,-22.1198,-4.51603,-8.20232
2023-02-16 20:43:51:664,-0.808809,3.72051,-9.05551,-22.1017,-4.52574,-8.19852
2023-02-16 20:43:51:674,-0.8256,3.70195,-9.05784,-22.0801,-4.53687,-8.19792
2023-02-16 20:43:51:684,-0.830676,3.67516,-9.07097,-22.0566,-4.54475,-8.20003
2023-02-16 20:43:51:694,-0.839795,3.67649,-9.08459,-22.031,-4.55213,-8.20657
2023-02-16 20:43:51:704,-0.828885,3.67694,-9.09899,-22.0026,-4.55564,-8.21488
2023-02-16 20:43:51:714,-0.80417,3.66423,-9.10705,-21.9697,-4.55791,-8.22684
2023-02-16 20:43:51:724,-0.775663,3.64773,-9.09469,-21.9372,-4.56187,-8.24157
2023-02-16 20:43:51:734,-0.744285,3.63641,-9.06956,-21.8991,-4.56408,-8.25862
2023-02-16 20:43:51:744,-0.697826,3.60656,-9.03305,-21.8656,-4.5611,-8.27468
2023-02-16 20:43:51:754,-0.667018,3.58956,-9.01469,-21.8352,-4.55869,-8.29071
2023-02-16 20:43:51:763,-0.624651,3.57037,-8.9898,-21.8043,-4.55268,-8.30546
2023-02-16 20:43:51:773,-0.576969,3.55367,-8.99516,-21.7741,-4.54916,-8.319
2023-02-16 20:43:51:783,-0.562942,3.56709,-9.02338,-21.7501,-4.54593,-8.32341
2023-02-16 20:43:51:793,-0.578279,3.59703,-9.05989,-21.7276,-4.53953,-8.32301
2023-02-16 20:43:51:803,-0.591799,3.61355,-9.0798,-21.7017,-4.53419,-8.3204
2023-02-16 20:43:51:813,-0.610182,3.62309,-9.0773,-21.6739,-4.5285,-8.31612
2023-02-16 20:43:51:823,-0.617861,3.63861,-9.09199,-21.6439,-4.51868,-8.3068
2023-02-16 20:43:51:833,-0.634013,3.62604,-9.09971,-21.6119,-4.51181,-8.29547
2023-02-16 20:43:51:843,-0.643602,3.56618,-9.02253,-21.5778,-4.51084,-8.28028
2023-02-16 20:43:51:853,-0.63581,3.53279,-9.00751,-21.5479,-4.51103,-8.26757
2023-02-16 20:43:51:863,-0.625055,3.56986,-9.05561,-21.5274,-4.51836,-8.25214
2023-02-16 20:43:51:873,-0.6052,3.57395,-9.08749,-21.5065,-4.5303,-8.23673
2023-02-16 20:43:51:883,-0.610717,3.57004,-9.07451,-21.4855,-4.53858,-8.21366
2023-02-16 20:43:51:893,-0.64136,3.56399,-9.02579,-21.466,-4.55773,-8.18875
2023-02-16 20:43:51:903,-0.693803,3.5584,-9.00874,-21.4464,-4.57767,-8.16554
2023-02-16 20:43:51:913,-0.744101,3.55246,-9.02839,-21.4334,-4.60143,-8.14103
2023-02-16 20:43:51:923,-0.787485,3.57022,-9.07227,-21.421,-4.62308,-8.12047
2023-02-16 20:43:51:933,-0.790993,3.59419,-9.11391,-21.408,-4.64458,-8.09999
2023-02-16 20:43:51:943,-0.779293,3.59583,-9.16216,-21.3927,-4.66498,-8.08028
2023-02-16 20:43:51:953,-0.765071,3.5954,-9.17562,-21.3719,-4.68913,-8.06165
2023-02-16 20:43:51:963,-0.764153,3.58593,-9.13556,-21.3439,-4.7121,-8.04206
2023-02-16 20:43:51:973,-0.766254,3.57513,-9.10222,-21.3174,-4.73897,-8.02178
2023-02-16 20:43:51:983,-0.73276,3.58962,-9.10581,-21.2867,-4.76195,-8.00258
2023-02-16 20:43:51:993,-0.715916,3.61175,-9.13831,-21.2527,-4.77958,-7.97689
2023-02-16 20:43:52:3,-0.714179,3.59696,-9.14402,-21.2175,-4.80082,-7.94931
2023-02-16 20:43:52:13,-0.673245,3.57907,-9.1157,-21.184,-4.82611,-7.91753
2023-02-16 20:43:52:24,-0.631595,3.55707,-9.08186,-21.1526,-4.86114,-7.87842
2023-02-16 20:43:52:33,-0.657455,3.57886,-9.11286,-21.1251,-4.89407,-7.83009
2023-02-16 20:43:52:43,-0.717555,3.59928,-9.17443,-21.0907,-4.92934,-7.77719
2023-02-16 20:43:52:53,-0.768465,3.59677,-9.16545,-21.0541,-4.96321,-7.71377
2023-02-16 20:43:52:63,-0.779523,3.54157,-9.09704,-21.0144,-5.00009,-7.6482
2023-02-16 20:43:52:73,-0.727243,3.53161,-9.06093,-20.9774,-5.03526,-7.57615
2023-02-16 20:43:52:83,-0.673528,3.52178,-9.06038,-20.9519,-5.07262,-7.49255
2023-02-16 20:43:52:93,-0.666678,3.5263,-9.08758,-20.927,-5.10503,-7.39502
2023-02-16 20:43:52:103,-0.687631,3.52601,-9.09305,-20.9079,-5.14325,-7.28753
2023-02-16 20:43:52:113,-0.742202,3.53868,-9.11024,-20.8878,-5.18133,-7.16635
2023-02-16 20:43:52:123,-0.816904,3.52694,-9.11078,-20.8631,-5.22034,-7.03733
2023-02-16 20:43:52:133,-0.907734,3.48034,-9.05619,-20.8367,-5.25913,-6.90395
2023-02-16 20:43:52:143,-1.00707,3.45152,-9.00412,-20.8143,-5.30241,-6.76482
2023-02-16 20:43:52:153,-1.06177,3.45736,-9.03329,-20.7929,-5.34022,-6.63132
2023-02-16 20:43:52:163,-1.07018,3.4594,-9.05918,-20.7712,-5.37668,-6.50127
2023-02-16 20:43:52:173,-1.04216,3.48572,-9.10952,-20.7481,-5.40417,-6.37458
2023-02-16 20:43:52:183,-1.04225,3.46951,-9.08062,-20.724,-5.42731,-6.24861
2023-02-16 20:43:52:193,-1.0451,3.43167,-8.9762,-20.7018,-5.45288,-6.12706
2023-02-16 20:43:52:203,-1.00467,3.45741,-8.96789,-20.6891,-5.47261,-6.00634
2023-02-16 20:43:52:213,-0.981816,3.44625,-8.92043,-20.6809,-5.49069,-5.88805
2023-02-16 20:43:52:223,-0.983568,3.45739,-8.91983,-20.6767,-5.51168,-5.77419
2023-02-16 20:43:52:233,-0.969113,3.49879,-9.0201,-20.6833,-5.52909,-5.65891
2023-02-16 20:43:52:243,-0.913021,3.52794,-9.07861,-20.6916,-5.54554,-5.54973
2023-02-16 20:43:52:253,-0.849468,3.54272,-9.14095,-20.6995,-5.57125,-5.44016
2023-02-16 20:43:52:263,-0.831729,3.56533,-9.23613,-20.7025,-5.59348,-5.32308
2023-02-16 20:43:52:273,-0.837811,3.54549,-9.26997,-20.6963,-5.62471,-5.20254
2023-02-16 20:43:52:283,-0.857344,3.51661,-9.28221,-20.688,-5.65477,-5.07529
2023-02-16 20:43:52:293,-0.895983,3.50574,-9.3177,-20.6699,-5.68542,-4.94559
2023-02-16 20:43:52:303,-0.912296,3.48146,-9.3252,-20.6399,-5.71152,-4.81536
2023-02-16 20:43:52:313,-0.92518,3.4208,-9.24823,-20.6051,-5.7393,-4.68454
2023-02-16 20:43:52:323,-0.975528,3.38361,-9.19217,-20.5638,-5.76283,-4.55443
2023-02-16 20:43:52:333,-0.994504,3.36483,-9.15194,-20.523,-5.78731,-4.42324
2023-02-16 20:43:52:343,-1.02526,3.34616,-9.11768,-20.4816,-5.81355,-4.29355
2023-02-16 20:43:52:353,-1.06136,3.33173,-9.10603,-20.4386,-5.83745,-4.16729
2023-02-16 20:43:52:363,-1.08247,3.3037,-9.08035,-20.3906,-5.85919,-4.05114
2023-02-16 20:43:52:373,-1.09542,3.26345,-9.07035,-20.3454,-5.88118,-3.94108
2023-02-16 20:43:52:383,-1.12526,3.23946,-9.06952,-20.3054,-5.90391,-3.83743
2023-02-16 20:43:52:393,-1.15,3.23762,-9.08889,-20.2631,-5.92704,-3.74724
2023-02-16 20:43:52:403,-1.16637,3.24645,-9.108,-20.2236,-5.95103,-3.66848
2023-02-16 20:43:52:413,-1.1967,3.25343,-9.13636,-20.1864,-5.97803,-3.60141
2023-02-16 20:43:52:423,-1.23324,3.23821,-9.14191,-20.1524,-6.00786,-3.54257
2023-02-16 20:43:52:433,-1.25391,3.23781,-9.13131,-20.1202,-6.03652,-3.49725
2023-02-16 20:43:52:443,-1.28234,3.22888,-9.14297,-20.0862,-6.06635,-3.46942
2023-02-16 20:43:52:453,-1.26057,3.25967,-9.15431,-20.0551,-6.09002,-3.45516
2023-02-16 20:43:52:463,-1.24096,3.24244,-9.13447,-20.0203,-6.10981,-3.45005
2023-02-16 20:43:52:473,-1.23372,3.24489,-9.08634,-19.9863,-6.13582,-3.46005
2023-02-16 20:43:52:483,-1.2142,3.26334,-9.11895,-19.9534,-6.15484,-3.47927
2023-02-16 20:43:52:493,-1.19007,3.28124,-9.15825,-19.9182,-6.17873,-3.5127
2023-02-16 20:43:52:503,-1.18104,3.26698,-9.17807,-19.886,-6.20022,-3.55106
2023-02-16 20:43:52:513,-1.15138,3.2585,-9.18808,-19.8511,-6.22667,-3.59597
2023-02-16 20:43:52:523,-1.13224,3.2706,-9.18882,-19.8137,-6.25007,-3.65263
2023-02-16 20:43:52:533,-1.10202,3.26414,-9.17629,-19.7755,-6.26815,-3.71061
2023-02-16 20:43:52:543,-1.06463,3.22069,-9.12711,-19.7315,-6.2804,-3.7751
2023-02-16 20:43:52:554,-1.04893,3.18443,-9.07864,-19.6905,-6.29236,-3.83392
2023-02-16 20:43:52:563,-1.0335,3.18694,-9.07694,-19.6528,-6.30152,-3.89667
2023-02-16 20:43:52:574,-1.02436,3.22487,-9.14874,-19.6216,-6.30893,-3.96051
2023-02-16 20:43:52:584,-1.00567,3.26803,-9.2394,-19.5944,-6.31477,-4.02642
2023-02-16 20:43:52:594,-0.998637,3.28208,-9.29871,-19.5634,-6.31729,-4.08782
2023-02-16 20:43:52:603,-1.00172,3.27754,-9.29476,-19.523,-6.31969,-4.14982
2023-02-16 20:43:52:614,-0.983873,3.25898,-9.27927,-19.479,-6.32287,-4.20957
2023-02-16 20:43:52:624,-0.957798,3.23145,-9.22373,-19.4297,-6.32791,-4.26255
2023-02-16 20:43:52:634,-0.948836,3.19997,-9.14786,-19.3797,-6.33215,-4.31221
2023-02-16 20:43:52:644,-0.981976,3.18876,-9.11369,-19.3295,-6.3319,-4.35666
2023-02-16 20:43:52:654,-1.03108,3.1949,-9.1249,-19.282,-6.33291,-4.39872
2023-02-16 20:43:52:664,-1.07215,3.20823,-9.13005,-19.238,-6.33048,-4.43993
2023-02-16 20:43:52:674,-1.08875,3.19914,-9.13284,-19.1926,-6.32851,-4.48327
2023-02-16 20:43:52:684,-1.08857,3.20392,-9.14764,-19.1466,-6.32552,-4.52617
2023-02-16 20:43:52:694,-1.0953,3.20386,-9.15503,-19.1016,-6.31878,-4.56955
2023-02-16 20:43:52:703,-1.10241,3.17874,-9.15905,-19.0531,-6.3117,-4.61254
2023-02-16 20:43:52:714,-1.06867,3.16137,-9.14584,-19.0023,-6.30026,-4.6567
2023-02-16 20:43:52:724,-1.03188,3.14078,-9.10441,-18.9532,-6.28946,-4.70517
2023-02-16 20:43:52:734,-1.00352,3.1018,-9.09785,-18.9098,-6.28361,-4.74928
2023-02-16 20:43:52:744,-1.00046,3.10827,-9.10278,-18.8696,-6.27949,-4.78882
2023-02-16 20:43:52:754,-0.990151,3.12272,-9.12147,-18.8383,-6.27883,-4.8268
2023-02-16 20:43:52:764,-0.982412,3.12079,-9.14231,-18.8096,-6.27833,-4.8607
2023-02-16 20:43:52:774,-0.996204,3.1233,-9.18934,-18.7865,-6.27778,-4.89179
2023-02-16 20:43:52:784,-0.999735,3.13944,-9.20732,-18.7701,-6.27806,-4.91787
2023-02-16 20:43:52:794,-0.995853,3.15398,-9.1925,-18.7614,-6.28114,-4.94103
2023-02-16 20:43:52:804,-1.01445,3.16378,-9.17994,-18.7523,-6.28763,-4.96148
2023-02-16 20:43:52:814,-1.04585,3.18915,-9.14176,-18.7462,-6.29496,-4.97671
2023-02-16 20:43:52:824,-1.0896,3.19498,-9.10213,-18.7439,-6.30325,-4.99522
2023-02-16 20:43:52:834,-1.12632,3.21692,-9.11192,-18.7428,-6.30983,-5.01348
2023-02-16 20:43:52:844,-1.15332,3.23783,-9.1343,-18.7404,-6.31249,-5.03199
2023-02-16 20:43:52:854,-1.15643,3.23664,-9.15367,-18.7284,-6.31452,-5.05407
2023-02-16 20:43:52:864,-1.13023,3.2084,-9.13691,-18.7159,-6.30988,-5.07901
2023-02-16 20:43:52:874,-1.09024,3.17996,-9.13687,-18.7017,-6.30273,-5.10814
2023-02-16 20:43:52:884,-1.03899,3.1648,-9.17043,-18.6872,-6.29582,-5.13135
2023-02-16 20:43:52:894,-1.01902,3.14137,-9.17467,-18.6726,-6.28891,-5.15883
2023-02-16 20:43:52:904,-1.03567,3.13851,-9.21149,-18.6589,-6.28686,-5.18109
2023-02-16 20:43:52:914,-1.05999,3.1504,-9.22793,-18.6484,-6.28627,-5.19919
2023-02-16 20:43:52:924,-1.07668,3.17691,-9.22083,-18.6374,-6.28357,-5.2175
2023-02-16 20:43:52:934,-1.09624,3.17743,-9.24457,-18.6323,-6.28235,-5.23735
2023-02-16 20:43:52:944,-1.11903,3.18571,-9.21913,-18.6224,-6.28341,-5.25346
2023-02-16 20:43:52:954,-1.14286,3.16569,-9.18453,-18.6141,-6.28782,-5.2693
2023-02-16 20:43:52:964,-1.20127,3.13669,-9.15732,-18.6016,-6.28614,-5.28481
2023-02-16 20:43:52:974,-1.21229,3.12669,-9.17558,-18.591,-6.2753,-5.30722
2023-02-16 20:43:52:984,-1.14503,3.12978,-9.22565,-18.5774,-6.26442,-5.33092
2023-02-16 20:43:52:994,-1.07409,3.11157,-9.24082,-18.5616,-6.25233,-5.35595
2023-02-16 20:43:53:4,-1.03346,3.09176,-9.22304,-18.5414,-6.23839,-5.37839
2023-02-16 20:43:53:14,-1.03073,3.06015,-9.17357,-18.5187,-6.22097,-5.4005
2023-02-16 20:43:53:24,-1.01136,3.0245,-9.14104,-18.4966,-6.20219,-5.41817
2023-02-16 20:43:53:34,-0.993642,3.00299,-9.15581,-18.4806,-6.18199,-5.43356
2023-02-16 20:43:53:44,-0.98304,3.02401,-9.18436,-18.471,-6.15928,-5.44728
2023-02-16 20:43:53:54,-0.980582,3.03809,-9.22016,-18.4656,-6.13488,-5.45873
2023-02-16 20:43:53:64,-0.996324,3.06093,-9.24211,-18.4612,-6.11224,-5.47023
2023-02-16 20:43:53:74,-1.02578,3.07105,-9.2369,-18.457,-6.08684,-5.47749
2023-02-16 20:43:53:84,-1.01692,3.07423,-9.22021,-18.4564,-6.06799,-5.48294
2023-02-16 20:43:53:94,-0.995357,3.07965,-9.21511,-18.4539,-6.04545,-5.49364
2023-02-16 20:43:53:104,-1.00097,3.08152,-9.22244,-18.4515,-6.02533,-5.50403
2023-02-16 20:43:53:114,-0.995016,3.08742,-9.23787,-18.4477,-6.01278,-5.51661
2023-02-16 20:43:53:124,-0.985509,3.10115,-9.24591,-18.4426,-5.99697,-5.52921
2023-02-16 20:43:53:134,-0.965565,3.08646,-9.25976,-18.4366,-5.9838,-5.54251
2023-02-16 20:43:53:144,-0.951203,3.05744,-9.23842,-18.4285,-5.97634,-5.55669
2023-02-16 20:43:53:154,-0.94166,3.03638,-9.20562,-18.4235,-5.96861,-5.56334
2023-02-16 20:43:53:164,-0.949475,3.0262,-9.19389,-18.4224,-5.96141,-5.56685
2023-02-16 20:43:53:174,-0.958245,3.01321,-9.19397,-18.4261,-5.95732,-5.57301
2023-02-16 20:43:53:184,-0.973349,3.00227,-9.16795,-18.4294,-5.95778,-5.57413
2023-02-16 20:43:53:194,-1.00466,2.98376,-9.14392,-18.4397,-5.95103,-5.57424
2023-02-16 20:43:53:204,-1.00682,2.98419,-9.10834,-18.4534,-5.93946,-5.5739
2023-02-16 20:43:53:214,-1.01601,3.00843,-9.12484,-18.4727,-5.92889,-5.57693
2023-02-16 20:43:53:224,-0.993393,3.04652,-9.1773,-18.4951,-5.91686,-5.58571
2023-02-16 20:43:53:234,-0.923979,3.05379,-9.20387,-18.512,-5.89913,-5.59319
2023-02-16 20:43:53:244,-0.860329,3.03854,-9.18976,-18.5313,-5.8791,-5.59886
2023-02-16 20:43:53:254,-0.817516,3.01688,-9.17314,-18.5544,-5.86084,-5.60092
2023-02-16 20:43:53:264,-0.778572,2.99563,-9.15542,-18.5844,-5.84954,-5.59706
2023-02-16 20:43:53:274,-0.785887,2.99638,-9.1215,-18.6255,-5.83355,-5.58597
2023-02-16 20:43:53:284,-0.788915,3.0081,-9.10805,-18.672,-5.81962,-5.56828
2023-02-16 20:43:53:294,-0.808577,3.04491,-9.14749,-18.7259,-5.80767,-5.54687
2023-02-16 20:43:53:304,-0.807235,3.10569,-9.1866,-18.788,-5.7986,-5.5234
2023-02-16 20:43:53:314,-0.800317,3.12515,-9.17005,-18.8484,-5.7945,-5.49508
2023-02-16 20:43:53:324,-0.787356,3.13179,-9.14108,-18.913,-5.79011,-5.46375
2023-02-16 20:43:53:334,-0.788845,3.13338,-9.11274,-18.9816,-5.78715,-5.42676
2023-02-16 20:43:53:344,-0.796136,3.10058,-9.07063,-19.0471,-5.78342,-5.38307
2023-02-16 20:43:53:354,-0.766088,3.0422,-8.98145,-19.1218,-5.77988,-5.33502
2023-02-16 20:43:53:364,-0.760262,3.01467,-8.92383,-19.2058,-5.77644,-5.28233
2023-02-16 20:43:53:374,-0.774138,3.00754,-8.85945,-19.3083,-5.77336,-5.22016
2023-02-16 20:43:53:384,-0.814988,3.01813,-8.80542,-19.4268,-5.77393,-5.14948
2023-02-16 20:43:53:394,-0.856364,3.01287,-8.73768,-19.5651,-5.77499,-5.0749
2023-02-16 20:43:53:404,-0.921798,2.98062,-8.72702,-19.7285,-5.77669,-4.99523
2023-02-16 20:43:53:414,-0.975393,3.06498,-8.83414,-19.9136,-5.77044,-4.91235
2023-02-16 20:43:53:424,-0.985386,3.11945,-8.93333,-20.1078,-5.7608,-4.82683
2023-02-16 20:43:53:434,-1.05265,3.26236,-9.09055,-20.3134,-5.74434,-4.74503
2023-02-16 20:43:53:444,-1.10378,3.48403,-9.32563,-20.5201,-5.72756,-4.67359
2023-02-16 20:43:53:454,-1.0867,3.64107,-9.47276,-20.7132,-5.70851,-4.61104
2023-02-16 20:43:53:464,-1.07119,3.6791,-9.38725,-20.8838,-5.69305,-4.55552
2023-02-16 20:43:53:474,-1.07158,3.6477,-9.25934,-21.0348,-5.67298,-4.5042
2023-02-16 20:43:53:484,-1.07848,3.63465,-9.15369,-21.1726,-5.65126,-4.4596
2023-02-16 20:43:53:494,-1.08374,3.6419,-9.09686,-21.3077,-5.62759,-4.41886
2023-02-16 20:43:53:504,-1.09038,3.67082,-9.08914,-21.4494,-5.61009,-4.38336
2023-02-16 20:43:53:514,-1.12673,3.76838,-9.17033,-21.5918,-5.59256,-4.35576
2023-02-16 20:43:53:524,-1.12154,3.8773,-9.27969,-21.7311,-5.57697,-4.33569
2023-02-16 20:43:53:534,-1.12532,3.94937,-9.36174,-21.8568,-5.55874,-4.32514
2023-02-16 20:43:53:544,-1.11198,3.96954,-9.36816,-21.957,-5.5424,-4.32315
2023-02-16 20:43:53:554,-1.10405,3.9193,-9.24055,-22.0322,-5.52004,-4.32006
2023-02-16 20:43:53:564,-1.11771,3.82976,-9.06198,-22.0923,-5.4943,-4.32137
2023-02-16 20:43:53:574,-1.09341,3.73924,-8.92908,-22.1529,-5.47228,-4.33453
2023-02-16 20:43:53:584,-1.0293,3.68601,-8.81885,-22.2156,-5.44802,-4.35455
2023-02-16 20:43:53:594,-1.00552,3.6698,-8.77089,-22.2885,-5.42161,-4.37918
2023-02-16 20:43:53:604,-1.03009,3.7336,-8.85398,-22.3726,-5.40274,-4.40725
2023-02-16 20:43:53:614,-1.0026,3.82474,-9.06445,-22.4636,-5.36735,-4.44087
2023-02-16 20:43:53:624,-0.949972,3.9208,-9.22059,-22.5495,-5.33221,-4.47856
2023-02-16 20:43:53:634,-0.888376,3.92008,-9.23389,-22.6166,-5.29936,-4.51503
2023-02-16 20:43:53:644,-0.841266,3.87205,-9.13438,-22.6704,-5.26346,-4.54887
2023-02-16 20:43:53:654,-0.823938,3.80365,-9.04543,-22.7211,-5.22798,-4.58062
2023-02-16 20:43:53:664,-0.841381,3.76705,-8.97713,-22.7684,-5.19682,-4.61067
2023-02-16 20:43:53:674,-0.854946,3.72524,-8.88824,-22.8162,-5.16476,-4.6381
2023-02-16 20:43:53:684,-0.817435,3.71724,-8.84646,-22.8718,-5.12578,-4.66914
2023-02-16 20:43:53:694,-0.785282,3.80986,-8.98962,-22.9385,-5.08763,-4.70353
2023-02-16 20:43:53:704,-0.74021,3.96866,-9.2338,-23.0072,-5.05145,-4.74227
2023-02-16 20:43:53:714,-0.676528,4.0392,-9.34172,-23.0593,-5.01624,-4.77556
2023-02-16 20:43:53:724,-0.669625,4.0185,-9.26239,-23.0901,-4.99105,-4.79652
2023-02-16 20:43:53:734,-0.70535,3.95035,-9.14593,-23.1056,-4.96869,-4.81235
2023-02-16 20:43:53:744,-0.69811,3.88893,-9.02323,-23.1172,-4.94547,-4.82937
2023-02-16 20:43:53:754,-0.673857,3.85602,-8.96878,-23.128,-4.93301,-4.84592
2023-02-16 20:43:53:764,-0.681878,3.83895,-8.92535,-23.1386,-4.91841,-4.85471
2023-02-16 20:43:53:774,-0.700931,3.81403,-8.89053,-23.1527,-4.90585,-4.86115
2023-02-16 20:43:53:784,-0.708008,3.8104,-8.89344,-23.1694,-4.8914,-4.86397
2023-02-16 20:43:53:794,-0.736066,3.86264,-8.98894,-23.194,-4.88039,-4.86892
2023-02-16 20:43:53:804,-0.749818,3.94519,-9.1168,-23.2191,-4.8732,-4.87383
2023-02-16 20:43:53:814,-0.761092,3.99726,-9.16125,-23.2367,-4.87488,-4.87617
2023-02-16 20:43:53:824,-0.784783,3.99029,-9.11909,-23.2418,-4.87845,-4.8781
2023-02-16 20:43:53:834,-0.789314,3.93688,-9.03689,-23.2378,-4.88579,-4.88215
2023-02-16 20:43:53:844,-0.777808,3.88554,-8.98066,-23.2276,-4.89211,-4.88641
2023-02-16 20:43:53:854,-0.780189,3.86494,-8.92827,-23.2181,-4.90291,-4.88957
2023-02-16 20:43:53:864,-0.802047,3.86026,-8.92972,-23.2119,-4.9158,-4.89373
2023-02-16 20:43:53:874,-0.807365,3.88348,-8.96557,-23.2048,-4.93071,-4.89775
2023-02-16 20:43:53:884,-0.81849,3.89335,-9.01534,-23.1991,-4.94451,-4.90314
2023-02-16 20:43:53:894,-0.829958,3.9077,-9.07608,-23.1895,-4.9598,-4.90745
2023-02-16 20:43:53:904,-0.825401,3.91654,-9.11546,-23.179,-4.9763,-4.91027
2023-02-16 20:43:53:914,-0.837719,3.90975,-9.11221,-23.159,-4.99748,-4.91012
2023-02-16 20:43:53:924,-0.849767,3.87347,-9.06491,-23.1314,-5.01794,-4.91157
2023-02-16 20:43:53:934,-0.854812,3.82731,-8.97981,-23.097,-5.03947,-4.91404
2023-02-16 20:43:53:944,-0.85819,3.80087,-8.92567,-23.0595,-5.05774,-4.91287
2023-02-16 20:43:53:954,-0.884864,3.82918,-8.96336,-23.0271,-5.07101,-4.91708
2023-02-16 20:43:53:964,-0.880407,3.88897,-9.05022,-22.9978,-5.08321,-4.9208
2023-02-16 20:43:53:974,-0.872533,3.92234,-9.08935,-22.9645,-5.0943,-4.92885
2023-02-16 20:43:53:984,-0.878739,3.91281,-9.06594,-22.9209,-5.10641,-4.94012
2023-02-16 20:43:53:994,-0.878844,3.87755,-9.03306,-22.8718,-5.12062,-4.94683
2023-02-16 20:43:54:4,-0.886215,3.84968,-8.99899,-22.8192,-5.13726,-4.95528
2023-02-16 20:43:54:14,-0.887153,3.82793,-8.99117,-22.7695,-5.1533,-4.96691
2023-02-16 20:43:54:24,-0.892888,3.84725,-9.01133,-22.7191,-5.16844,-4.97786
2023-02-16 20:43:54:34,-0.897257,3.88687,-9.09151,-22.6619,-5.17998,-4.9902
2023-02-16 20:43:54:44,-0.90846,3.92353,-9.13947,-22.596,-5.19043,-5.00531
2023-02-16 20:43:54:54,-0.915446,3.89659,-9.1395,-22.5294,-5.20404,-5.02413
2023-02-16 20:43:54:64,-0.940549,3.88721,-9.15947,-22.4563,-5.21966,-5.0418
2023-02-16 20:43:54:74,-0.950102,3.87585,-9.16598,-22.3737,-5.23765,-5.06651
2023-02-16 20:43:54:84,-0.939302,3.84425,-9.13517,-22.2815,-5.24696,-5.09022
2023-02-16 20:43:54:94,-0.899413,3.82675,-9.13965,-22.181,-5.24613,-5.1131
2023-02-16 20:43:54:104,-0.854105,3.78422,-9.10646,-22.0695,-5.24478,-5.13516
2023-02-16 20:43:54:114,-0.850791,3.7074,-8.9834,-21.9548,-5.25077,-5.15679
2023-02-16 20:43:54:124,-0.846283,3.67846,-8.95227,-21.8409,-5.25812,-5.17851
2023-02-16 20:43:54:134,-0.869861,3.66552,-8.96526,-21.7335,-5.27009,-5.20285
2023-02-16 20:43:54:144,-0.884333,3.66082,-9.02377,-21.6269,-5.27752,-5.2243
2023-02-16 20:43:54:155,-0.854662,3.65273,-9.08597,-21.5185,-5.27655,-5.24835
2023-02-16 20:43:54:164,-0.817761,3.58056,-9.1217,-21.4035,-5.27445,-5.26687
2023-02-16 20:43:54:174,-0.796552,3.51602,-9.08126,-21.2876,-5.28059,-5.28029
2023-02-16 20:43:54:184,-0.805678,3.46106,-9.0447,-21.1772,-5.2936,-5.28665
2023-02-16 20:43:54:194,-0.81754,3.42498,-8.98222,-21.0694,-5.31172,-5.2864
2023-02-16 20:43:54:204,-0.862277,3.41263,-8.9187,-20.9742,-5.33392,-5.28497
2023-02-16 20:43:54:214,-0.904975,3.42924,-8.91372,-20.8901,-5.35575,-5.28503
2023-02-16 20:43:54:224,-0.918928,3.44549,-8.9376,-20.8128,-5.376,-5.28656
2023-02-16 20:43:54:234,-0.939439,3.44319,-8.97325,-20.7405,-5.39346,-5.28593
2023-02-16 20:43:54:244,-0.949814,3.43777,-8.98901,-20.674,-5.41052,-5.28865
2023-02-16 20:43:54:254,-0.936291,3.41496,-9.00617,-20.6051,-5.42408,-5.29274
2023-02-16 20:43:54:264,-0.939207,3.37386,-9.01202,-20.5351,-5.42974,-5.29607
2023-02-16 20:43:54:274,-0.943983,3.3369,-8.98151,-20.4657,-5.43897,-5.30222
2023-02-16 20:43:54:284,-0.917398,3.33188,-8.99012,-20.4039,-5.44109,-5.3114
2023-02-16 20:43:54:294,-0.880174,3.32992,-9.04926,-20.3433,-5.44227,-5.32333
2023-02-16 20:43:54:304,-0.855179,3.33342,-9.12608,-20.2881,-5.44392,-5.33042
2023-02-16 20:43:54:314,-0.856798,3.35316,-9.17591,-20.2288,-5.44679,-5.34027
2023-02-16 20:43:54:324,-0.862751,3.34345,-9.20681,-20.1715,-5.45018,-5.34569
2023-02-16 20:43:54:334,-0.859138,3.32764,-9.20944,-20.1144,-5.45438,-5.34935
2023-02-16 20:43:54:344,-0.854699,3.29475,-9.18099,-20.059,-5.45719,-5.35096
2023-02-16 20:43:54:354,-0.862848,3.26335,-9.15567,-20.0037,-5.4623,-5.3508
2023-02-16 20:43:54:364,-0.895728,3.23733,-9.0884,-19.9493,-5.47187,-5.34983
2023-02-16 20:43:54:374,-0.918815,3.22522,-9.06595,-19.9017,-5.47984,-5.35026
2023-02-16 20:43:54:384,-0.911833,3.24527,-9.11733,-19.8607,-5.48763,-5.35101
2023-02-16 20:43:54:394,-0.896515,3.26637,-9.12733,-19.8197,-5.49488,-5.35436
2023-02-16 20:43:54:404,-0.913557,3.26057,-9.1195,-19.7824,-5.50307,-5.36072
2023-02-16 20:43:54:414,-0.952649,3.24537,-9.12283,-19.7433,-5.51024,-5.36633
2023-02-16 20:43:54:424,-0.956065,3.23904,-9.12236,-19.7099,-5.51984,-5.37002
2023-02-16 20:43:54:434,-0.931018,3.23342,-9.1549,-19.6756,-5.53237,-5.38119
2023-02-16 20:43:54:444,-0.911937,3.23803,-9.20317,-19.6432,-5.54105,-5.39282
2023-02-16 20:43:54:454,-0.894088,3.24433,-9.2098,-19.6098,-5.54901,-5.40049
2023-02-16 20:43:54:464,-0.881414,3.21608,-9.17245,-19.5754,-5.55695,-5.40797
2023-02-16 20:43:54:474,-0.904997,3.20581,-9.14017,-19.54,-5.56517,-5.41135
2023-02-16 20:43:54:484,-0.913297,3.21314,-9.14637,-19.507,-5.57363,-5.41649
2023-02-16 20:43:54:495,-0.901916,3.22874,-9.1723,-19.4732,-5.57931,-5.42284
2023-02-16 20:43:54:504,-0.893366,3.22625,-9.21401,-19.4417,-5.58784,-5.42574
2023-02-16 20:43:54:514,-0.890978,3.22363,-9.23132,-19.4068,-5.59527,-5.42515
2023-02-16 20:43:54:524,-0.888813,3.21016,-9.2212,-19.3694,-5.60494,-5.4216
2023-02-16 20:43:54:534,-0.91688,3.1737,-9.18647,-19.332,-5.6154,-5.41657
2023-02-16 20:43:54:544,-0.924146,3.1461,-9.15842,-19.2943,-5.6264,-5.41289
2023-02-16 20:43:54:554,-0.940356,3.1158,-9.12483,-19.2593,-5.63643,-5.40891
2023-02-16 20:43:54:564,-0.952703,3.10568,-9.11661,-19.2307,-5.64605,-5.4048
2023-02-16 20:43:54:574,-0.970951,3.13464,-9.12428,-19.2083,-5.65234,-5.40159
2023-02-16 20:43:54:584,-0.964171,3.17359,-9.21917,-19.182,-5.64932,-5.39798
2023-02-16 20:43:54:594,-0.993815,3.14321,-9.17456,-19.1571,-5.65012,-5.39548
2023-02-16 20:43:54:604,-0.991832,3.12062,-9.13153,-19.1377,-5.65417,-5.39084
2023-02-16 20:43:54:614,-0.994144,3.15539,-9.16529,-19.1219,-5.65612,-5.39086
2023-02-16 20:43:54:624,-1.00563,3.15169,-9.16531,-19.1094,-5.66436,-5.38848
2023-02-16 20:43:54:634,-0.989819,3.15772,-9.15455,-19.0954,-5.66196,-5.39016
2023-02-16 20:43:54:644,-0.953085,3.17199,-9.17789,-19.0787,-5.65492,-5.39323
2023-02-16 20:43:54:654,-0.939311,3.13032,-9.13449,-19.0671,-5.65067,-5.39479
2023-02-16 20:43:54:664,-0.931781,3.10861,-9.10166,-19.0589,-5.65322,-5.39901
2023-02-16 20:43:54:674,-0.929252,3.12171,-9.1184,-19.0589,-5.65716,-5.40104
2023-02-16 20:43:54:684,-0.914333,3.1515,-9.16521,-19.0632,-5.66012,-5.40381
2023-02-16 20:43:54:694,-0.927148,3.19017,-9.22313,-19.0669,-5.66392,-5.40609
2023-02-16 20:43:54:704,-0.933095,3.20557,-9.23183,-19.0653,-5.66575,-5.40454
2023-02-16 20:43:54:714,-0.936856,3.2156,-9.23103,-19.0649,-5.66771,-5.40571
2023-02-16 20:43:54:724,-0.925835,3.23778,-9.24514,-19.0618,-5.67313,-5.40807
2023-02-16 20:43:54:735,-0.924465,3.24834,-9.24732,-19.0585,-5.67681,-5.41013
2023-02-16 20:43:54:744,-0.907434,3.21906,-9.21967,-19.0509,-5.68185,-5.40578
2023-02-16 20:43:54:754,-0.920399,3.23333,-9.18763,-19.0414,-5.68208,-5.39809
2023-02-16 20:43:54:764,-0.935224,3.23162,-9.19282,-19.0332,-5.68399,-5.39325
2023-02-16 20:43:54:774,-0.963207,3.25063,-9.24202,-19.0229,-5.67853,-5.38677
2023-02-16 20:43:54:784,-0.992517,3.27274,-9.29344,-19.0094,-5.67402,-5.38477
2023-02-16 20:43:54:794,-0.99206,3.25827,-9.30904,-18.9938,-5.66446,-5.38794
2023-02-16 20:43:54:804,-0.973075,3.23948,-9.31313,-18.9709,-5.6526,-5.38605
2023-02-16 20:43:54:814,-0.929216,3.21598,-9.29675,-18.9438,-5.64569,-5.38546
2023-02-16 20:43:54:824,-0.882742,3.17106,-9.26081,-18.9091,-5.63437,-5.38215
2023-02-16 20:43:54:834,-0.895303,3.12856,-9.21047,-18.8706,-5.62557,-5.37759
2023-02-16 20:43:54:844,-0.910394,3.09722,-9.14587,-18.8352,-5.61778,-5.37191
2023-02-16 20:43:54:855,-0.884163,3.08409,-9.15574,-18.8047,-5.61013,-5.36688
2023-02-16 20:43:54:864,-0.839571,3.09308,-9.23035,-18.7761,-5.60345,-5.36748
2023-02-16 20:43:54:874,-0.815345,3.11059,-9.27939,-18.7509,-5.60417,-5.36448
2023-02-16 20:43:54:884,-0.823909,3.09748,-9.263,-18.7261,-5.61129,-5.35939
2023-02-16 20:43:54:894,-0.838995,3.07098,-9.24769,-18.6987,-5.62151,-5.35542
2023-02-16 20:43:54:905,-0.858413,3.05787,-9.23087,-18.6764,-5.63835,-5.34668
2023-02-16 20:43:54:914,-0.874443,3.03784,-9.1858,-18.6526,-5.65902,-5.33972
2023-02-16 20:43:54:924,-0.883095,3.03217,-9.152,-18.6367,-5.68342,-5.33064
2023-02-16 20:43:54:934,-0.868261,3.05125,-9.14235,-18.6265,-5.70769,-5.32266
2023-02-16 20:43:54:944,-0.878824,3.0792,-9.16583,-18.6233,-5.73288,-5.31091
2023-02-16 20:43:54:954,-0.916192,3.1243,-9.18993,-18.6198,-5.75381,-5.29748
2023-02-16 20:43:54:965,-0.963701,3.13213,-9.2006,-18.6148,-5.77238,-5.28108
2023-02-16 20:43:54:974,-0.986317,3.11605,-9.19436,-18.6092,-5.78822,-5.26591
2023-02-16 20:43:54:985,-1.00726,3.10142,-9.17816,-18.6044,-5.79996,-5.25106
2023-02-16 20:43:54:994,-1.01803,3.09183,-9.1638,-18.5967,-5.81149,-5.23658
2023-02-16 20:43:55:5,-1.03179,3.07882,-9.16529,-18.5908,-5.81717,-5.22652
2023-02-16 20:43:55:14,-1.01728,3.07224,-9.16654,-18.5842,-5.82098,-5.2166
2023-02-16 20:43:55:24,-1.01737,3.0711,-9.17937,-18.5799,-5.82775,-5.2091
2023-02-16 20:43:55:34,-1.0295,3.0753,-9.18535,-18.5804,-5.83437,-5.20567
2023-02-16 20:43:55:44,-1.02206,3.06599,-9.18716,-18.5856,-5.84061,-5.20161
2023-02-16 20:43:55:55,-1.01174,3.07877,-9.18352,-18.5894,-5.8448,-5.20195
2023-02-16 20:43:55:65,-1.01466,3.09811,-9.17157,-18.5963,-5.84779,-5.2031
2023-02-16 20:43:55:75,-1.02281,3.1147,-9.17067,-18.6051,-5.84863,-5.20531
2023-02-16 20:43:55:85,-1.03333,3.15605,-9.24439,-18.6199,-5.84657,-5.21319
2023-02-16 20:43:55:94,-0.982246,3.191,-9.31076,-18.6268,-5.838,-5.22052
2023-02-16 20:43:55:104,-0.931592,3.17085,-9.30835,-18.6235,-5.8293,-5.22439
2023-02-16 20:43:55:114,-0.939157,3.13914,-9.2924,-18.6182,-5.82182,-5.2258
2023-02-16 20:43:55:124,-0.956514,3.13544,-9.29358,-18.6081,-5.81443,-5.22571
2023-02-16 20:43:55:134,-0.956669,3.11279,-9.25686,-18.5996,-5.8113,-5.2274
2023-02-16 20:43:55:144,-0.966777,3.08074,-9.19217,-18.5893,-5.81013,-5.22815
2023-02-16 20:43:55:154,-0.988462,3.06691,-9.12386,-18.5839,-5.80836,-5.23182
2023-02-16 20:43:55:165,-1.00566,3.07418,-9.12671,-18.5837,-5.8039,-5.23663
2023-02-16 20:43:55:175,-1.00068,3.10853,-9.16297,-18.5871,-5.80254,-5.24603
2023-02-16 20:43:55:184,-0.985157,3.15593,-9.22213,-18.597,-5.79616,-5.26091
2023-02-16 20:43:55:195,-0.96992,3.17483,-9.28886,-18.6037,-5.79235,-5.27767
2023-02-16 20:43:55:205,-0.935898,3.18234,-9.31498,-18.6057,-5.79095,-5.29945
2023-02-16 20:43:55:214,-0.899369,3.1617,-9.33182,-18.6047,-5.78957,-5.31612
2023-02-16 20:43:55:224,-0.881297,3.13395,-9.30354,-18.5929,-5.79553,-5.33105
2023-02-16 20:43:55:235,-0.909998,3.10711,-9.248,-18.5787,-5.80494,-5.34244
2023-02-16 20:43:55:245,-0.920461,3.07436,-9.20025,-18.5701,-5.81225,-5.35573
2023-02-16 20:43:55:254,-0.910213,3.04982,-9.17182,-18.5613,-5.82042,-5.36631
2023-02-16 20:43:55:264,-0.914167,3.0686,-9.14752,-18.5521,-5.82803,-5.37327
2023-02-16 20:43:55:275,-0.926543,3.07513,-9.17283,-18.5497,-5.83052,-5.38152
2023-02-16 20:43:55:285,-0.93618,3.09061,-9.2233,-18.5523,-5.83421,-5.38864
2023-02-16 20:43:55:295,-0.946086,3.13314,-9.31049,-18.5532,-5.83682,-5.39427
2023-02-16 20:43:55:304,-0.930814,3.15418,-9.34874,-18.5496,-5.84252,-5.40069
2023-02-16 20:43:55:314,-0.935726,3.10346,-9.29316,-18.5351,-5.85096,-5.4011
2023-02-16 20:43:55:324,-0.947535,3.08315,-9.24343,-18.5226,-5.85914,-5.40101
2023-02-16 20:43:55:335,-0.951046,3.0627,-9.23453,-18.5075,-5.86869,-5.40095
2023-02-16 20:43:55:345,-0.945468,3.06644,-9.22762,-18.4935,-5.87352,-5.39912
2023-02-16 20:43:55:355,-0.947095,3.06086,-9.22416,-18.4761,-5.87431,-5.39645
2023-02-16 20:43:55:365,-0.961651,3.05513,-9.19614,-18.4621,-5.87623,-5.3945
2023-02-16 20:43:55:374,-0.956106,3.04289,-9.16246,-18.4456,-5.87407,-5.39
2023-02-16 20:43:55:384,-0.953,3.0235,-9.16159,-18.4346,-5.87523,-5.38318
2023-02-16 20:43:55:395,-0.985259,3.02137,-9.18591,-18.4273,-5.87472,-5.37752
2023-02-16 20:43:55:405,-0.999071,3.05613,-9.21978,-18.422,-5.87571,-5.37369
2023-02-16 20:43:55:415,-0.986218,3.06499,-9.24739,-18.4185,-5.87844,-5.37108
2023-02-16 20:43:55:424,-0.957456,3.06441,-9.24088,-18.4163,-5.88357,-5.36268
2023-02-16 20:43:55:435,-0.936409,3.07601,-9.23475,-18.4169,-5.89317,-5.35773
2023-02-16 20:43:55:445,-0.942267,3.08457,-9.22555,-18.4173,-5.90526,-5.35169
2023-02-16 20:43:55:455,-0.954595,3.09649,-9.21798,-18.419,-5.91944,-5.34887
2023-02-16 20:43:55:464,-0.964327,3.10228,-9.23552,-18.4229,-5.9333,-5.34359
2023-02-16 20:43:55:475,-0.961967,3.11126,-9.2454,-18.4255,-5.94922,-5.33663
2023-02-16 20:43:55:485,-0.98551,3.10829,-9.24513,-18.4288,-5.96145,-5.32496
2023-02-16 20:43:55:495,-1.02282,3.10078,-9.2396,-18.4291,-5.9739,-5.31412
2023-02-16 20:43:55:504,-1.04529,3.08124,-9.1939,-18.4277,-5.98343,-5.30202
2023-02-16 20:43:55:514,-1.06801,3.07411,-9.16108,-18.4276,-5.99441,-5.29384
2023-02-16 20:43:55:525,-1.08275,3.09112,-9.18876,-18.4298,-6.00159,-5.28345
2023-02-16 20:43:55:535,-1.07509,3.11226,-9.22458,-18.4342,-6.00862,-5.27734
2023-02-16 20:43:55:545,-1.05839,3.09642,-9.25154,-18.4342,-6.01697,-5.27356
2023-02-16 20:43:55:555,-1.0425,3.08478,-9.24491,-18.4287,-6.02364,-5.27074
2023-02-16 20:43:55:565,-1.03318,3.06872,-9.24834,-18.4223,-6.02926,-5.26956
2023-02-16 20:43:55:575,-1.00965,3.07488,-9.29244,-18.417,-6.03337,-5.26524
2023-02-16 20:43:55:585,-0.967369,3.07004,-9.28831,-18.4065,-6.03927,-5.26056
2023-02-16 20:43:55:595,-0.955662,3.05051,-9.24443,-18.3964,-6.0444,-5.25475
2023-02-16 20:43:55:605,-1.00755,3.04942,-9.2369,-18.3871,-6.05243,-5.24593
2023-02-16 20:43:55:614,-1.04355,3.05066,-9.21997,-18.3846,-6.06171,-5.23516
2023-02-16 20:43:55:624,-1.05462,3.06383,-9.23681,-18.3834,-6.06662,-5.2239
2023-02-16 20:43:55:634,-1.0537,3.10412,-9.24124,-18.3832,-6.07476,-5.21366
2023-02-16 20:43:55:645,-1.03951,3.07941,-9.21423,-18.3777,-6.08177,-5.20734
2023-02-16 20:43:55:655,-1.05224,3.09318,-9.19461,-18.374,-6.08099,-5.2009
2023-02-16 20:43:55:665,-1.0696,3.10027,-9.20907,-18.3719,-6.08209,-5.19855
2023-02-16 20:43:55:674,-1.05663,3.11562,-9.2467,-18.3673,-6.07956,-5.19842
2023-02-16 20:43:55:684,-1.03235,3.09553,-9.24393,-18.3527,-6.07738,-5.20171
2023-02-16 20:43:55:695,-1.02391,3.06472,-9.19525,-18.3396,-6.07486,-5.20322
2023-02-16 20:43:55:705,-1.01332,3.0276,-9.18535,-18.3272,-6.07523,-5.20305
2023-02-16 20:43:55:715,-1.00544,3.01768,-9.19423,-18.3177,-6.0753,-5.20408
2023-02-16 20:43:55:725,-1.01103,3.02232,-9.19534,-18.3089,-6.0723,-5.19994
2023-02-16 20:43:55:735,-1.04272,3.02843,-9.20226,-18.3036,-6.07212,-5.19728
2023-02-16 20:43:55:745,-1.03815,3.05309,-9.22678,-18.3013,-6.06803,-5.19647
2023-02-16 20:43:55:754,-1.03266,3.09845,-9.22966,-18.3043,-6.06223,-5.19955
2023-02-16 20:43:55:765,-1.03682,3.10469,-9.19889,-18.3106,-6.05799,-5.20325
2023-02-16 20:43:55:774,-1.0575,3.11492,-9.19199,-18.3166,-6.05638,-5.20744
2023-02-16 20:43:55:785,-1.06352,3.14571,-9.24094,-18.3207,-6.04988,-5.21677
2023-02-16 20:43:55:795,-1.04071,3.17583,-9.31754,-18.3243,-6.04071,-5.2276
2023-02-16 20:43:55:805,-0.948918,3.17385,-9.36126,-18.3225,-6.02633,-5.23818
2023-02-16 20:43:55:814,-0.859576,3.12975,-9.35653,-18.3093,-6.01763,-5.24846
2023-02-16 20:43:55:824,-0.852999,3.07601,-9.33959,-18.2917,-6.01492,-5.25061
2023-02-16 20:43:55:834,-0.887957,3.05942,-9.29442,-18.2738,-6.01583,-5.24254
2023-02-16 20:43:55:844,-0.940962,3.03564,-9.22671,-18.2593,-6.02342,-5.23077
2023-02-16 20:43:55:854,-1.00637,2.99351,-9.14506,-18.2435,-6.02629,-5.21538
2023-02-16 20:43:55:864,-1.06561,2.98294,-9.08709,-18.2334,-6.02658,-5.20253
2023-02-16 20:43:55:874,-1.08276,2.99026,-9.09466,-18.2355,-6.02267,-5.1897
2023-02-16 20:43:55:884,-1.07339,3.00362,-9.08776,-18.2398,-6.01668,-5.18053
2023-02-16 20:43:55:894,-1.07647,3.00528,-9.09033,-18.2487,-6.00683,-5.17762
2023-02-16 20:43:55:904,-1.06316,3.03676,-9.15791,-18.2588,-6.00107,-5.18091
2023-02-16 20:43:55:914,-1.02138,3.09389,-9.26829,-18.2692,-5.99139,-5.19083
2023-02-16 20:43:55:924,-0.939752,3.10727,-9.33511,-18.2764,-5.98637,-5.1996
2023-02-16 20:43:55:934,-0.872852,3.05815,-9.35642,-18.277,-5.9808,-5.20261
2023-02-16 20:43:55:944,-0.84758,3.04825,-9.3736,-18.2741,-5.97555,-5.20067
2023-02-16 20:43:55:954,-0.81376,3.02249,-9.35791,-18.2669,-5.97705,-5.19198
2023-02-16 20:43:55:964,-0.828123,3.00615,-9.3447,-18.2561,-5.97742,-5.17131
2023-02-16 20:43:55:974,-0.895059,3.02653,-9.29735,-18.2489,-5.98072,-5.14336
2023-02-16 20:43:55:984,-0.981708,2.9711,-9.18278,-18.2405,-5.98946,-5.11457
2023-02-16 20:43:55:994,-0.985071,2.9709,-9.12602,-18.2397,-5.98693,-5.08272
2023-02-16 20:43:56:4,-1.03094,3.01311,-9.13906,-18.2466,-5.98076,-5.05359
2023-02-16 20:43:56:14,-1.12392,3.06027,-9.14198,-18.2579,-5.98473,-5.0278
2023-02-16 20:43:56:24,-1.15684,3.10827,-9.20323,-18.2724,-5.98533,-5.00995
2023-02-16 20:43:56:34,-1.15087,3.12457,-9.24233,-18.2883,-5.98685,-5.0013
2023-02-16 20:43:56:44,-1.11943,3.11619,-9.26056,-18.2954,-5.98622,-4.9989
2023-02-16 20:43:56:54,-1.07639,3.12831,-9.26001,-18.3006,-5.98266,-5.00173
2023-02-16 20:43:56:64,-1.01851,3.12185,-9.28047,-18.3039,-5.9789,-5.01224
2023-02-16 20:43:56:74,-0.960596,3.11906,-9.28195,-18.3053,-5.97969,-5.02437
2023-02-16 20:43:56:85,-0.898106,3.08803,-9.27628,-18.2983,-5.97658,-5.03564
2023-02-16 20:43:56:95,-0.872528,3.09916,-9.28894,-18.2896,-5.97318,-5.04442
2023-02-16 20:43:56:105,-0.8852,3.10644,-9.33227,-18.2824,-5.97514,-5.04824
2023-02-16 20:43:56:114,-0.870413,3.09658,-9.36394,-18.2689,-5.97848,-5.05148
2023-02-16 20:43:56:125,-0.861301,3.08234,-9.3186,-18.2547,-5.97833,-5.04444
2023-02-16 20:43:56:134,-0.873886,3.04883,-9.26505,-18.2385,-5.98564,-5.03532
2023-02-16 20:43:56:145,-0.901935,3.04943,-9.25031,-18.2227,-5.99533,-5.02103
2023-02-16 20:43:56:155,-0.929315,3.06841,-9.26101,-18.2073,-6.00482,-5.00561
2023-02-16 20:43:56:165,-0.975809,3.09122,-9.26323,-18.1949,-6.01877,-4.98542
2023-02-16 20:43:56:175,-1.01092,3.10617,-9.24533,-18.1808,-6.03057,-4.97092
2023-02-16 20:43:56:185,-1.04295,3.10637,-9.23801,-18.1656,-6.04474,-4.95468
2023-02-16 20:43:56:195,-1.07205,3.10258,-9.25011,-18.1462,-6.0542,-4.94286
2023-02-16 20:43:56:205,-1.06939,3.09098,-9.26752,-18.1266,-6.06225,-4.93213
2023-02-16 20:43:56:214,-1.05591,3.0837,-9.25602,-18.1047,-6.07344,-4.92553
2023-02-16 20:43:56:224,-1.05075,3.08089,-9.24632,-18.0772,-6.08572,-4.92243
2023-02-16 20:43:56:234,-1.03131,3.05426,-9.22878,-18.0519,-6.09711,-4.91959
2023-02-16 20:43:56:244,-1.03083,3.0199,-9.21457,-18.0252,-6.10735,-4.91424
2023-02-16 20:43:56:254,-1.02997,3.01415,-9.21099,-17.9978,-6.11849,-4.91221
2023-02-16 20:43:56:264,-1.03665,3.00156,-9.23284,-17.9749,-6.13453,-4.91069
2023-02-16 20:43:56:274,-1.02962,2.98624,-9.26368,-17.9537,-6.15184,-4.90832
2023-02-16 20:43:56:284,-0.998982,2.97592,-9.28506,-17.9321,-6.16945,-4.90565
2023-02-16 20:43:56:294,-0.993187,2.9589,-9.27659,-17.9082,-6.18851,-4.89519
2023-02-16 20:43:56:304,-1.03593,2.93813,-9.2439,-17.8832,-6.20914,-4.88171
2023-02-16 20:43:56:314,-1.05983,2.92062,-9.19494,-17.8647,-6.22926,-4.86463
2023-02-16 20:43:56:324,-1.07478,2.92209,-9.16005,-17.8509,-6.24693,-4.851
2023-02-16 20:43:56:334,-1.09056,2.9403,-9.13604,-17.8459,-6.26404,-4.83456
2023-02-16 20:43:56:344,-1.08328,2.96301,-9.15433,-17.8466,-6.26835,-4.81946
2023-02-16 20:43:56:354,-1.09214,3.00252,-9.17691,-17.8491,-6.27785,-4.80631
2023-02-16 20:43:56:364,-1.11801,3.03083,-9.22565,-17.857,-6.28153,-4.79367
2023-02-16 20:43:56:374,-1.11476,3.04328,-9.2759,-17.8602,-6.28424,-4.78313
2023-02-16 20:43:56:384,-1.11474,3.05451,-9.28513,-17.8572,-6.28415,-4.77335
2023-02-16 20:43:56:394,-1.11481,3.02299,-9.25625,-17.8507,-6.28767,-4.76606
2023-02-16 20:43:56:404,-1.1003,2.98898,-9.22741,-17.8374,-6.29146,-4.76082
2023-02-16 20:43:56:414,-1.08063,2.98105,-9.22806,-17.8269,-6.29351,-4.76414
2023-02-16 20:43:56:424,-1.03698,2.96951,-9.24007,-17.8141,-6.29748,-4.76632
2023-02-16 20:43:56:434,-1.00476,2.92351,-9.23952,-17.8019,-6.30301,-4.7631
2023-02-16 20:43:56:444,-0.982021,2.90915,-9.22167,-17.7896,-6.30611,-4.76209
2023-02-16 20:43:56:454,-0.976752,2.93395,-9.23914,-17.7841,-6.31351,-4.75613
2023-02-16 20:43:56:464,-0.973836,2.95181,-9.24266,-17.7849,-6.31879,-4.74781
2023-02-16 20:43:56:474,-0.959684,2.96771,-9.24135,-17.7896,-6.32268,-4.73022
2023-02-16 20:43:56:484,-0.991854,2.976,-9.25631,-17.794,-6.32731,-4.71224
2023-02-16 20:43:56:494,-1.02695,2.99289,-9.25732,-17.8015,-6.33182,-4.69375
2023-02-16 20:43:56:504,-1.02291,3.02251,-9.28384,-17.8168,-6.33353,-4.67538
2023-02-16 20:43:56:514,-0.987029,3.03698,-9.30222,-17.824,-6.33447,-4.65808
2023-02-16 20:43:56:524,-0.998348,3.03296,-9.28114,-17.8279,-6.3358,-4.63774
2023-02-16 20:43:56:534,-1.03887,3.03813,-9.25299,-17.8312,-6.34221,-4.61739
2023-02-16 20:43:56:544,-1.07967,3.0491,-9.25335,-17.8349,-6.35128,-4.59621
2023-02-16 20:43:56:554,-1.09451,3.07146,-9.28359,-17.8395,-6.36169,-4.57376
2023-02-16 20:43:56:564,-1.10289,3.09007,-9.30259,-17.8431,-6.36931,-4.55579
2023-02-16 20:43:56:574,-1.1297,3.08028,-9.29235,-17.8447,-6.38185,-4.53451
2023-02-16 20:43:56:584,-1.14188,3.05918,-9.27199,-17.8395,-6.39121,-4.51337
2023-02-16 20:43:56:594,-1.14259,3.04582,-9.25901,-17.8313,-6.39713,-4.49565
2023-02-16 20:43:56:604,-1.15584,3.02979,-9.24759,-17.8158,-6.40233,-4.47619
2023-02-16 20:43:56:614,-1.17295,2.99432,-9.21972,-17.8022,-6.40914,-4.46049
2023-02-16 20:43:56:624,-1.17464,2.98601,-9.19523,-17.7885,-6.411,-4.44768
2023-02-16 20:43:56:634,-1.1555,2.99328,-9.18955,-17.7778,-6.41305,-4.44168
2023-02-16 20:43:56:644,-1.13345,2.9787,-9.20983,-17.7658,-6.41211,-4.44041
2023-02-16 20:43:56:654,-1.11407,2.97288,-9.24814,-17.7588,-6.41565,-4.44362
2023-02-16 20:43:56:664,-1.0981,2.97203,-9.27631,-17.7499,-6.41895,-4.44582
2023-02-16 20:43:56:674,-1.06568,2.97913,-9.30208,-17.7365,-6.42397,-4.4488
2023-02-16 20:43:56:684,-1.0453,2.96522,-9.30945,-17.7264,-6.43007,-4.45495
2023-02-16 20:43:56:694,-1.01886,2.96078,-9.28422,-17.7169,-6.43793,-4.46081
2023-02-16 20:43:56:704,-1.00606,2.93023,-9.27495,-17.7082,-6.44858,-4.46283
2023-02-16 20:43:56:714,-0.981439,2.93039,-9.3067,-17.6976,-6.45928,-4.45932
2023-02-16 20:43:56:724,-0.964709,2.94307,-9.30621,-17.689,-6.46791,-4.45152
2023-02-16 20:43:56:734,-0.986517,2.94015,-9.27756,-17.6804,-6.4769,-4.43596
2023-02-16 20:43:56:745,-1.05514,2.94431,-9.26566,-17.6733,-6.48385,-4.42033
2023-02-16 20:43:56:754,-1.08547,2.9513,-9.28242,-17.6638,-6.48798,-4.40375
2023-02-16 20:43:56:765,-1.10822,2.95486,-9.25599,-17.6514,-6.48955,-4.38262
2023-02-16 20:43:56:774,-1.12473,2.92636,-9.23961,-17.64,-6.48949,-4.36107
2023-02-16 20:43:56:785,-1.15401,2.90183,-9.23828,-17.6316,-6.4908,-4.33992
2023-02-16 20:43:56:795,-1.17275,2.92166,-9.25402,-17.6202,-6.49224,-4.31972
2023-02-16 20:43:56:805,-1.16303,2.95895,-9.34537,-17.6066,-6.47889,-4.3034
2023-02-16 20:43:56:815,-1.15364,2.91734,-9.28431,-17.5844,-6.47247,-4.2869
2023-02-16 20:43:56:824,-1.1614,2.86162,-9.15019,-17.5676,-6.47864,-4.2776
2023-02-16 20:43:56:834,-1.16545,2.88085,-9.1715,-17.5657,-6.48769,-4.27416
2023-02-16 20:43:56:845,-1.15097,2.95351,-9.25172,-17.5661,-6.49666,-4.27661
2023-02-16 20:43:56:854,-1.1238,2.97567,-9.30049,-17.5627,-6.50384,-4.28275
2023-02-16 20:43:56:865,-1.0975,2.98932,-9.32104,-17.5553,-6.50353,-4.28042
2023-02-16 20:43:56:875,-1.12871,2.96817,-9.29626,-17.5431,-6.50621,-4.28017
2023-02-16 20:43:56:884,-1.1139,2.92017,-9.30397,-17.529,-6.50841,-4.2823
2023-02-16 20:43:56:895,-1.10007,2.92176,-9.33772,-17.5129,-6.50821,-4.28473
2023-02-16 20:43:56:905,-1.08873,2.898,-9.28009,-17.4949,-6.50872,-4.28467
2023-02-16 20:43:56:915,-1.07363,2.85549,-9.22119,-17.4825,-6.51163,-4.28579
2023-02-16 20:43:56:925,-1.05221,2.85916,-9.22501,-17.4704,-6.51736,-4.28287
2023-02-16 20:43:56:935,-1.03726,2.87375,-9.24699,-17.4603,-6.5182,-4.28229
2023-02-16 20:43:56:945,-1.06204,2.87003,-9.23973,-17.453,-6.52135,-4.2746
2023-02-16 20:43:56:955,-1.09059,2.86244,-9.22446,-17.4453,-6.52643,-4.26729
2023-02-16 20:43:56:965,-1.12967,2.87782,-9.25425,-17.444,-6.53126,-4.26046
2023-02-16 20:43:56:975,-1.11721,2.92231,-9.34963,-17.4411,-6.53512,-4.25782
2023-02-16 20:43:56:985,-1.07246,2.93331,-9.40023,-17.4311,-6.53722,-4.25895
2023-02-16 20:43:56:995,-1.03558,2.91015,-9.36,-17.4179,-6.5444,-4.2555
2023-02-16 20:43:57:5,-1.05565,2.88634,-9.27649,-17.403,-6.55452,-4.24738
2023-02-16 20:43:57:15,-1.06249,2.87619,-9.23115,-17.3916,-6.56604,-4.2405
2023-02-16 20:43:57:25,-1.08116,2.88328,-9.21509,-17.384,-6.5773,-4.23082
2023-02-16 20:43:57:35,-1.10083,2.91792,-9.20224,-17.3845,-6.59161,-4.21809
2023-02-16 20:43:57:45,-1.11048,2.96517,-9.25009,-17.3877,-6.60257,-4.20668
2023-02-16 20:43:57:55,-1.09134,2.98484,-9.28813,-17.3906,-6.60726,-4.19463
2023-02-16 20:43:57:65,-1.09793,2.99839,-9.30899,-17.39,-6.61194,-4.17927
2023-02-16 20:43:57:75,-1.13506,2.99962,-9.30374,-17.386,-6.61504,-4.16252
2023-02-16 20:43:57:85,-1.17247,2.98483,-9.29557,-17.3799,-6.62022,-4.14519
2023-02-16 20:43:57:95,-1.18661,2.97299,-9.27157,-17.3683,-6.62714,-4.13118
2023-02-16 20:43:57:105,-1.20083,2.95791,-9.25999,-17.3544,-6.63377,-4.11789
2023-02-16 20:43:57:115,-1.22253,2.93865,-9.2203,-17.3404,-6.63956,-4.10845
2023-02-16 20:43:57:125,-1.24262,2.92214,-9.20921,-17.327,-6.64592,-4.10254
2023-02-16 20:43:57:135,-1.24174,2.91366,-9.21722,-17.3138,-6.64692,-4.09852
2023-02-16 20:43:57:145,-1.22801,2.92437,-9.23202,-17.3055,-6.64694,-4.10187
2023-02-16 20:43:57:155,-1.18053,2.92302,-9.2425,-17.2994,-6.64587,-4.10676
2023-02-16 20:43:57:165,-1.13113,2.90805,-9.24212,-17.2911,-6.64536,-4.11074
2023-02-16 20:43:57:175,-1.11874,2.91373,-9.24569,-17.2885,-6.64472,-4.11651
2023-02-16 20:43:57:185,-1.12025,2.90953,-9.27008,-17.2839,-6.64378,-4.1202
2023-02-16 20:43:57:195,-1.10813,2.93257,-9.29719,-17.2803,-6.6427,-4.12525
2023-02-16 20:43:57:205,-1.074,2.94712,-9.32481,-17.2753,-6.63782,-4.12965
2023-02-16 20:43:57:215,-1.04545,2.93376,-9.31424,-17.2672,-6.63338,-4.13257
2023-02-16 20:43:57:225,-1.06277,2.91686,-9.29004,-17.2563,-6.63299,-4.13244
2023-02-16 20:43:57:235,-1.09199,2.91119,-9.27542,-17.2463,-6.63136,-4.12524
2023-02-16 20:43:57:245,-1.10783,2.8969,-9.2652,-17.2365,-6.63148,-4.11744
2023-02-16 20:43:57:255,-1.12876,2.89083,-9.25074,-17.2263,-6.6291,-4.11029
2023-02-16 20:43:57:265,-1.12596,2.88589,-9.26795,-17.2231,-6.62328,-4.1021
2023-02-16 20:43:57:275,-1.11603,2.86625,-9.279,-17.2192,-6.61894,-4.09111
2023-02-16 20:43:57:285,-1.10197,2.8455,-9.26728,-17.2136,-6.60819,-4.08028
2023-02-16 20:43:57:295,-1.09228,2.83903,-9.23414,-17.2058,-6.59904,-4.07432
2023-02-16 20:43:57:305,-1.08931,2.82781,-9.24451,-17.205,-6.59037,-4.06663
2023-02-16 20:43:57:315,-1.07929,2.8519,-9.26137,-17.2011,-6.58929,-4.06059
2023-02-16 20:43:57:325,-1.05882,2.87105,-9.28335,-17.2008,-6.58721,-4.05514
2023-02-16 20:43:57:335,-1.05279,2.87209,-9.30469,-17.1965,-6.58466,-4.04818
2023-02-16 20:43:57:345,-1.05922,2.86273,-9.3122,-17.1878,-6.58262,-4.04131
2023-02-16 20:43:57:355,-1.04632,2.86157,-9.29732,-17.1795,-6.58096,-4.03255
2023-02-16 20:43:57:365,-1.04865,2.84681,-9.28788,-17.1698,-6.58028,-4.02364
2023-02-16 20:43:57:375,-1.0712,2.845,-9.28203,-17.1586,-6.57854,-4.01314
2023-02-16 20:43:57:385,-1.07324,2.85479,-9.31153,-17.1492,-6.57544,-4.00342
2023-02-16 20:43:57:395,-1.04031,2.84966,-9.33335,-17.1402,-6.5708,-3.99599
2023-02-16 20:43:57:405,-1.00743,2.83645,-9.31277,-17.1304,-6.56644,-3.9844
2023-02-16 20:43:57:415,-1.01347,2.82112,-9.29404,-17.1235,-6.56355,-3.96911
2023-02-16 20:43:57:425,-1.02677,2.81069,-9.27454,-17.1167,-6.56099,-3.95071
2023-02-16 20:43:57:435,-1.04004,2.82448,-9.26254,-17.1136,-6.56184,-3.93107
2023-02-16 20:43:57:445,-1.05253,2.86092,-9.26698,-17.1175,-6.55966,-3.9117
2023-02-16 20:43:57:455,-1.07224,2.87929,-9.28488,-17.1205,-6.55969,-3.89105
2023-02-16 20:43:57:465,-1.0744,2.89898,-9.29949,-17.1217,-6.55764,-3.87281
2023-02-16 20:43:57:475,-1.07184,2.90405,-9.28671,-17.1239,-6.55301,-3.85345
2023-02-16 20:43:57:485,-1.04454,2.89201,-9.24758,-17.1251,-6.55059,-3.83346
2023-02-16 20:43:57:495,-1.00956,2.8788,-9.21618,-17.1282,-6.54785,-3.80905
2023-02-16 20:43:57:505,-0.964191,2.8706,-9.2007,-17.1315,-6.54063,-3.78392
2023-02-16 20:43:57:515,-0.925266,2.87555,-9.16461,-17.1389,-6.53573,-3.7542
2023-02-16 20:43:57:525,-0.929676,2.88484,-9.15397,-17.1565,-6.53373,-3.71884
2023-02-16 20:43:57:535,-0.975745,2.91969,-9.16648,-17.1819,-6.53507,-3.67683
2023-02-16 20:43:57:545,-1.01298,2.96563,-9.2147,-17.2109,-6.53847,-3.62808
2023-02-16 20:43:57:555,-1.05029,3.01797,-9.26668,-17.2457,-6.54426,-3.58111
2023-02-16 20:43:57:565,-1.09981,3.06495,-9.3052,-17.2836,-6.5525,-3.53075
2023-02-16 20:43:57:575,-1.18223,3.10115,-9.32562,-17.3153,-6.55915,-3.47964
2023-02-16 20:43:57:585,-1.25407,3.10853,-9.33246,-17.3394,-6.56923,-3.42953
2023-02-16 20:43:57:595,-1.29864,3.09332,-9.3259,-17.3576,-6.584,-3.38288
2023-02-16 20:43:57:605,-1.32846,3.07559,-9.30425,-17.3659,-6.59374,-3.34295
2023-02-16 20:43:57:615,-1.33444,3.0588,-9.28957,-17.3686,-6.60067,-3.31069
2023-02-16 20:43:57:625,-1.31235,3.06982,-9.30657,-17.3675,-6.60407,-3.28649
2023-02-16 20:43:57:635,-1.29481,3.05538,-9.31837,-17.3636,-6.6102,-3.26946
2023-02-16 20:43:57:645,-1.29192,3.03038,-9.29653,-17.3514,-6.61959,-3.25908
2023-02-16 20:43:57:655,-1.28855,2.99512,-9.29395,-17.336,-6.62986,-3.25341
2023-02-16 20:43:57:665,-1.28948,2.96271,-9.31829,-17.3168,-6.6403,-3.25207
2023-02-16 20:43:57:674,-1.28093,2.94787,-9.38145,-17.2921,-6.64796,-3.25663
2023-02-16 20:43:57:685,-1.22695,2.93046,-9.4165,-17.267,-6.65808,-3.2662
2023-02-16 20:43:57:695,-1.18765,2.87707,-9.378,-17.2284,-6.66896,-3.28145
2023-02-16 20:43:57:705,-1.19972,2.81585,-9.28984,-17.1888,-6.68099,-3.29392
2023-02-16 20:43:57:715,-1.22066,2.79519,-9.24422,-17.1562,-6.69285,-3.31265
2023-02-16 20:43:57:725,-1.20964,2.78761,-9.25039,-17.1263,-6.70366,-3.33011
2023-02-16 20:43:57:735,-1.20246,2.78876,-9.25793,-17.0969,-6.71194,-3.35119
2023-02-16 20:43:57:745,-1.18442,2.79604,-9.28194,-17.0726,-6.71741,-3.37118
2023-02-16 20:43:57:755,-1.14214,2.79619,-9.3056,-17.0483,-6.72052,-3.39374
2023-02-16 20:43:57:765,-1.09993,2.78305,-9.29736,-17.0259,-6.71877,-3.41579
2023-02-16 20:43:57:775,-1.08291,2.76012,-9.27738,-16.9968,-6.71346,-3.43335
2023-02-16 20:43:57:785,-1.07449,2.73405,-9.2275,-16.9692,-6.70352,-3.44851
2023-02-16 20:43:57:795,-1.05201,2.73948,-9.28369,-16.9332,-6.67776,-3.45908
2023-02-16 20:43:57:805,-1.0227,2.68316,-9.25944,-16.886,-6.64934,-3.4659
2023-02-16 20:43:57:815,-1.02328,2.59342,-9.10859,-16.8539,-6.62824,-3.47013
2023-02-16 20:43:57:825,-1.04299,2.59681,-9.07294,-16.8382,-6.61807,-3.47673
2023-02-16 20:43:57:835,-1.048,2.67216,-9.19785,-16.8411,-6.6051,-3.48574
2023-02-16 20:43:57:845,-1.01386,2.73097,-9.32909,-16.845,-6.58917,-3.49538
2023-02-16 20:43:57:855,-1.01306,2.75907,-9.41616,-16.8465,-6.56793,-3.4963
2023-02-16 20:43:57:865,-1.03129,2.76074,-9.37718,-16.8415,-6.54853,-3.49862
2023-02-16 20:43:57:875,-1.03329,2.7243,-9.33063,-16.8386,-6.53601,-3.50383
2023-02-16 20:43:57:885,-1.02676,2.73294,-9.32206,-16.8396,-6.52583,-3.5125
2023-02-16 20:43:57:895,-1.04626,2.75943,-9.3586,-16.8444,-6.51533,-3.52364
2023-02-16 20:43:57:905,-1.01807,2.77729,-9.40394,-16.8494,-6.50729,-3.53292
2023-02-16 20:43:57:915,-0.954174,2.77462,-9.37903,-16.8492,-6.49867,-3.54378
2023-02-16 20:43:57:925,-0.932007,2.77017,-9.35481,-16.8451,-6.49399,-3.55008
2023-02-16 20:43:57:935,-0.975852,2.77571,-9.35114,-16.8438,-6.49675,-3.55238
2023-02-16 20:43:57:945,-0.994911,2.76643,-9.34757,-16.8429,-6.5045,-3.55879
2023-02-16 20:43:57:955,-1.00819,2.77643,-9.33993,-16.8444,-6.51246,-3.56314
2023-02-16 20:43:57:965,-1.01572,2.78498,-9.36254,-16.8422,-6.5163,-3.55871
2023-02-16 20:43:57:975,-1.01063,2.77227,-9.35887,-16.8348,-6.52462,-3.55689
2023-02-16 20:43:57:985,-1.00188,2.76669,-9.344,-16.8292,-6.52989,-3.55491
2023-02-16 20:43:57:995,-1.00577,2.77322,-9.3194,-16.8244,-6.53715,-3.55215
2023-02-16 20:43:58:5,-1.02361,2.77718,-9.28223,-16.8203,-6.54641,-3.54523
2023-02-16 20:43:58:15,-1.04351,2.77215,-9.26925,-16.8171,-6.55745,-3.53615
2023-02-16 20:43:58:25,-1.03792,2.76864,-9.25614,-16.8152,-6.56555,-3.52913
2023-02-16 20:43:58:35,-1.03464,2.77332,-9.24232,-16.816,-6.57457,-3.51792
2023-02-16 20:43:58:45,-1.04729,2.7778,-9.24229,-16.8185,-6.57959,-3.50619
2023-02-16 20:43:58:55,-1.04879,2.78331,-9.24531,-16.8264,-6.5917,-3.48815
2023-02-16 20:43:58:65,-1.04693,2.81792,-9.29079,-16.8361,-6.60252,-3.46892
2023-02-16 20:43:58:75,-1.05119,2.84588,-9.35492,-16.8514,-6.61308,-3.44986
2023-02-16 20:43:58:85,-1.07845,2.88676,-9.37432,-16.865,-6.62872,-3.42936
2023-02-16 20:43:58:95,-1.14114,2.8922,-9.36274,-16.8786,-6.64586,-3.40824
2023-02-16 20:43:58:105,-1.18445,2.89271,-9.32447,-16.8858,-6.65888,-3.38564
2023-02-16 20:43:58:115,-1.20287,2.90716,-9.30122,-16.8887,-6.67335,-3.36519
2023-02-16 20:43:58:125,-1.223,2.90085,-9.27638,-16.8904,-6.6898,-3.34749
2023-02-16 20:43:58:135,-1.26109,2.88878,-9.2592,-16.8909,-6.70507,-3.3317
2023-02-16 20:43:58:145,-1.26806,2.88541,-9.25985,-16.8863,-6.71819,-3.31824
2023-02-16 20:43:58:155,-1.26478,2.87741,-9.25651,-16.8833,-6.72775,-3.3047
2023-02-16 20:43:58:165,-1.2498,2.88841,-9.26623,-16.8847,-6.73654,-3.29903
2023-02-16 20:43:58:175,-1.25755,2.88442,-9.27444,-16.8851,-6.74196,-3.29358
2023-02-16 20:43:58:185,-1.27242,2.87854,-9.26759,-16.8826,-6.74735,-3.29153
2023-02-16 20:43:58:195,-1.27986,2.88139,-9.28101,-16.8817,-6.75331,-3.29216
2023-02-16 20:43:58:205,-1.273,2.89626,-9.28758,-16.8777,-6.75929,-3.29738
2023-02-16 20:43:58:215,-1.23687,2.88225,-9.28642,-16.8731,-6.76381,-3.3017
2023-02-16 20:43:58:225,-1.21765,2.88452,-9.29597,-16.8666,-6.76635,-3.30901
2023-02-16 20:43:58:235,-1.21196,2.87046,-9.28866,-16.8589,-6.77159,-3.32057
2023-02-16 20:43:58:245,-1.19223,2.86641,-9.29493,-16.8524,-6.77485,-3.33513
2023-02-16 20:43:58:255,-1.17355,2.84959,-9.28457,-16.8441,-6.77663,-3.3517
2023-02-16 20:43:58:265,-1.17335,2.84285,-9.28494,-16.8366,-6.77901,-3.36447
2023-02-16 20:43:58:275,-1.15158,2.84412,-9.30919,-16.8284,-6.77793,-3.37915
2023-02-16 20:43:58:285,-1.13379,2.84994,-9.31266,-16.8233,-6.77517,-3.39033
2023-02-16 20:43:58:295,-1.11038,2.82866,-9.29883,-16.8103,-6.77075,-3.40343
2023-02-16 20:43:58:305,-1.09734,2.82691,-9.29767,-16.8027,-6.76768,-3.4134
2023-02-16 20:43:58:315,-1.07851,2.79934,-9.30811,-16.7902,-6.76679,-3.41825
2023-02-16 20:43:58:325,-1.08977,2.78514,-9.28763,-16.7772,-6.76299,-3.42268
2023-02-16 20:43:58:335,-1.12757,2.7657,-9.2498,-16.7662,-6.7629,-3.42854
2023-02-16 20:43:58:345,-1.12136,2.73991,-9.22588,-16.7581,-6.75986,-3.43027
2023-02-16 20:43:58:355,-1.111,2.74593,-9.29882,-16.754,-6.7582,-3.42849
2023-02-16 20:43:58:365,-1.10352,2.79422,-9.38891,-16.753,-6.75451,-3.43099
2023-02-16 20:43:58:375,-1.08986,2.79362,-9.40309,-16.7451,-6.75219,-3.43087
2023-02-16 20:43:58:385,-1.06709,2.77326,-9.35338,-16.736,-6.75598,-3.42696
2023-02-16 20:43:58:395,-1.07852,2.75212,-9.32833,-16.7273,-6.76208,-3.42118
2023-02-16 20:43:58:405,-1.10453,2.75467,-9.29788,-16.7225,-6.76672,-3.41364
2023-02-16 20:43:58:415,-1.1195,2.75999,-9.27242,-16.7196,-6.77119,-3.40345
2023-02-16 20:43:58:425,-1.11374,2.76183,-9.25326,-16.7209,-6.77782,-3.39377
2023-02-16 20:43:58:435,-1.13315,2.78592,-9.23719,-16.7256,-6.785,-3.38687
2023-02-16 20:43:58:445,-1.16191,2.79682,-9.25561,-16.7308,-6.78851,-3.37738
2023-02-16 20:43:58:455,-1.18616,2.80562,-9.28713,-16.7344,-6.79156,-3.36836
2023-02-16 20:43:58:465,-1.18278,2.80524,-9.27499,-16.7376,-6.79175,-3.35679
2023-02-16 20:43:58:475,-1.16838,2.7992,-9.2588,-16.7396,-6.79346,-3.35405
2023-02-16 20:43:58:485,-1.16142,2.78143,-9.25594,-16.7399,-6.79464,-3.35337
2023-02-16 20:43:58:495,-1.16413,2.76756,-9.26551,-16.7418,-6.79378,-3.35256
2023-02-16 20:43:58:505,-1.17044,2.76631,-9.27047,-16.7441,-6.79582,-3.35016
2023-02-16 20:43:58:515,-1.18186,2.77575,-9.25177,-16.7483,-6.79737,-3.35289
2023-02-16 20:43:58:525,-1.16655,2.79053,-9.28008,-16.7523,-6.79461,-3.35726
2023-02-16 20:43:58:535,-1.13623,2.79618,-9.30721,-16.7618,-6.79426,-3.36113
2023-02-16 20:43:58:545,-1.1109,2.8203,-9.32106,-16.7707,-6.79325,-3.3637
2023-02-16 20:43:58:555,-1.09214,2.83218,-9.31969,-16.7844,-6.79334,-3.36518
2023-02-16 20:43:58:565,-1.12802,2.83669,-9.30481,-16.796,-6.79293,-3.36418
2023-02-16 20:43:58:575,-1.16755,2.85576,-9.2941,-16.8078,-6.78984,-3.36405
2023-02-16 20:43:58:585,-1.15468,2.88538,-9.36143,-16.8188,-6.78566,-3.3639
2023-02-16 20:43:58:595,-1.08314,2.90037,-9.38733,-16.8266,-6.77746,-3.36398
2023-02-16 20:43:58:605,-1.03998,2.86673,-9.34402,-16.8272,-6.77243,-3.35774
2023-02-16 20:43:58:615,-1.06963,2.8486,-9.33348,-16.8258,-6.77332,-3.35001
2023-02-16 20:43:58:625,-1.10411,2.83959,-9.30467,-16.8261,-6.7766,-3.34044
2023-02-16 20:43:58:635,-1.12874,2.82263,-9.27746,-16.8273,-6.77929,-3.32917
2023-02-16 20:43:58:645,-1.16392,2.84171,-9.26591,-16.8288,-6.78243,-3.31783
2023-02-16 20:43:58:655,-1.18233,2.8563,-9.27423,-16.8323,-6.78166,-3.3062
2023-02-16 20:43:58:665,-1.18771,2.85446,-9.26377,-16.8385,-6.77988,-3.29103
2023-02-16 20:43:58:675,-1.18329,2.86665,-9.26437,-16.8418,-6.77459,-3.28184
2023-02-16 20:43:58:685,-1.18188,2.86144,-9.27394,-16.8473,-6.7691,-3.27429
2023-02-16 20:43:58:695,-1.1693,2.86179,-9.29119,-16.8514,-6.7627,-3.26749
2023-02-16 20:43:58:705,-1.15975,2.86354,-9.30356,-16.856,-6.75901,-3.26046
2023-02-16 20:43:58:715,-1.15605,2.86734,-9.31141,-16.8609,-6.75444,-3.25482
2023-02-16 20:43:58:725,-1.155,2.86871,-9.29925,-16.8642,-6.74974,-3.2512
2023-02-16 20:43:58:735,-1.14078,2.85564,-9.27945,-16.8643,-6.74438,-3.25047
2023-02-16 20:43:58:745,-1.12009,2.83512,-9.26081,-16.8625,-6.74178,-3.24872
2023-02-16 20:43:58:755,-1.09687,2.83476,-9.2764,-16.8619,-6.74041,-3.25009
2023-02-16 20:43:58:765,-1.08285,2.84503,-9.30703,-16.8655,-6.73998,-3.25212
2023-02-16 20:43:58:775,-1.07631,2.84022,-9.29709,-16.8688,-6.74352,-3.25046
2023-02-16 20:43:58:785,-1.08409,2.82838,-9.29281,-16.87,-6.74407,-3.24377
2023-02-16 20:43:58:795,-1.1009,2.8336,-9.31157,-16.8714,-6.7475,-3.23987
2023-02-16 20:43:58:805,-1.08225,2.83522,-9.32111,-16.8768,-6.75046,-3.23074
2023-02-16 20:43:58:815,-1.08547,2.82465,-9.31924,-16.8769,-6.74997,-3.21985
2023-02-16 20:43:58:825,-1.11838,2.83398,-9.30295,-16.8831,-6.74935,-3.20654
2023-02-16 20:43:58:835,-1.15268,2.84741,-9.29616,-16.8901,-6.74867,-3.1901
2023-02-16 20:43:58:845,-1.15289,2.85066,-9.30097,-16.8952,-6.74482,-3.17312
2023-02-16 20:43:58:855,-1.17686,2.86741,-9.32,-16.8999,-6.73991,-3.15637
2023-02-16 20:43:58:865,-1.18631,2.88254,-9.32265,-16.9034,-6.73058,-3.14325
2023-02-16 20:43:58:875,-1.17548,2.86678,-9.32927,-16.9036,-6.72541,-3.13076
2023-02-16 20:43:58:885,-1.16957,2.84868,-9.30617,-16.9,-6.71983,-3.12344
2023-02-16 20:43:58:895,-1.15751,2.8244,-9.28402,-16.8964,-6.71658,-3.11852
2023-02-16 20:43:58:905,-1.14842,2.81917,-9.26664,-16.8903,-6.71353,-3.11164
2023-02-16 20:43:58:915,-1.12637,2.81994,-9.25242,-16.8869,-6.71082,-3.10953
2023-02-16 20:43:58:925,-1.12038,2.81298,-9.27039,-16.8842,-6.70773,-3.10595
2023-02-16 20:43:58:935,-1.13179,2.81339,-9.27985,-16.8857,-6.70713,-3.10535
2023-02-16 20:43:58:945,-1.14899,2.82613,-9.28931,-16.8874,-6.70883,-3.10228
2023-02-16 20:43:58:955,-1.15145,2.83341,-9.30166,-16.8898,-6.70541,-3.1013
2023-02-16 20:43:58:965,-1.15536,2.84231,-9.31172,-16.887,-6.69869,-3.10102
2023-02-16 20:43:58:975,-1.14534,2.83697,-9.31927,-16.881,-6.68705,-3.09661
2023-02-16 20:43:58:985,-1.1214,2.8138,-9.31047,-16.8774,-6.67491,-3.09124
2023-02-16 20:43:58:995,-1.11013,2.8118,-9.30003,-16.8737,-6.66142,-3.08954
2023-02-16 20:43:59:5,-1.09144,2.79442,-9.27765,-16.8688,-6.64912,-3.08753
2023-02-16 20:43:59:15,-1.07058,2.78446,-9.27125,-16.8644,-6.63813,-3.08142
2023-02-16 20:43:59:25,-1.07582,2.78541,-9.2725,-16.8603,-6.62661,-3.07537
2023-02-16 20:43:59:35,-1.08428,2.80741,-9.30921,-16.8608,-6.61488,-3.06725
2023-02-16 20:43:59:45,-1.06203,2.8514,-9.37573,-16.8635,-6.60403,-3.06208
2023-02-16 20:43:59:55,-1.02128,2.86162,-9.4137,-16.8642,-6.5963,-3.0613
2023-02-16 20:43:59:65,-0.985716,2.83181,-9.39404,-16.8614,-6.59551,-3.05887
2023-02-16 20:43:59:75,-1.00166,2.81235,-9.36886,-16.8519,-6.59779,-3.04678
2023-02-16 20:43:59:85,-1.02621,2.82451,-9.34041,-16.8432,-6.60129,-3.03356
2023-02-16 20:43:59:95,-1.04325,2.84034,-9.32474,-16.8384,-6.60494,-3.01707
2023-02-16 20:43:59:105,-1.0473,2.82766,-9.30596,-16.8301,-6.60853,-2.99564
2023-02-16 20:43:59:115,-1.03715,2.82381,-9.28535,-16.8258,-6.61391,-2.96968
2023-02-16 20:43:59:125,-1.04565,2.82804,-9.25687,-16.822,-6.61448,-2.94272
2023-02-16 20:43:59:135,-1.06227,2.82506,-9.26667,-16.8183,-6.61469,-2.91044
2023-02-16 20:43:59:145,-1.08059,2.84017,-9.26169,-16.8158,-6.61523,-2.87857
2023-02-16 20:43:59:155,-1.12541,2.84424,-9.26108,-16.8134,-6.61671,-2.84774
2023-02-16 20:43:59:165,-1.16421,2.84684,-9.26434,-16.8109,-6.61584,-2.81982
2023-02-16 20:43:59:175,-1.19398,2.85111,-9.25001,-16.8071,-6.61872,-2.7916
2023-02-16 20:43:59:185,-1.19656,2.83949,-9.26088,-16.8013,-6.61854,-2.77474
2023-02-16 20:43:59:195,-1.20176,2.84241,-9.27581,-16.7986,-6.61702,-2.75526
2023-02-16 20:43:59:205,-1.19317,2.82723,-9.28053,-16.7927,-6.61424,-2.74389
2023-02-16 20:43:59:215,-1.18931,2.83466,-9.29546,-16.7911,-6.61404,-2.73513
2023-02-16 20:43:59:225,-1.16422,2.84579,-9.31933,-16.7883,-6.61408,-2.72765
2023-02-16 20:43:59:235,-1.12795,2.84862,-9.30763,-16.7865,-6.61399,-2.72336
2023-02-16 20:43:59:245,-1.11657,2.836,-9.29137,-16.7861,-6.61423,-2.72177
2023-02-16 20:43:59:255,-1.11107,2.84217,-9.29154,-16.7841,-6.61364,-2.72092
2023-02-16 20:43:59:265,-1.10799,2.85534,-9.31071,-16.788,-6.60922,-2.72155
2023-02-16 20:43:59:275,-1.08999,2.87725,-9.33901,-16.7904,-6.60457,-2.72512
2023-02-16 20:43:59:285,-1.05518,2.86815,-9.32643,-16.7842,-6.59907,-2.72346
2023-02-16 20:43:59:295,-1.0492,2.8255,-9.31532,-16.7797,-6.59673,-2.71943
2023-02-16 20:43:59:305,-1.06245,2.81988,-9.29462,-16.772,-6.59395,-2.71478
2023-02-16 20:43:59:315,-1.05142,2.8028,-9.27484,-16.7611,-6.58906,-2.70955
2023-02-16 20:43:59:325,-1.08213,2.79095,-9.27178,-16.7549,-6.58863,-2.7009
2023-02-16 20:43:59:335,-1.09426,2.80192,-9.28299,-16.7559,-6.58364,-2.69289
2023-02-16 20:43:59:345,-1.08435,2.80678,-9.29798,-16.7557,-6.58057,-2.68607
2023-02-16 20:43:59:355,-1.07909,2.80398,-9.29696,-16.7548,-6.58061,-2.67978
2023-02-16 20:43:59:365,-1.07155,2.81614,-9.30034,-16.7567,-6.57936,-2.67106
2023-02-16 20:43:59:375,-1.06173,2.83416,-9.29413,-16.7594,-6.57802,-2.66647
2023-02-16 20:43:59:385,-1.06615,2.84755,-9.30389,-16.7639,-6.58009,-2.65535
2023-02-16 20:43:59:395,-1.07867,2.86507,-9.30814,-16.7652,-6.5821,-2.64417
2023-02-16 20:43:59:405,-1.08085,2.87037,-9.32641,-16.7689,-6.58319,-2.63872
2023-02-16 20:43:59:415,-1.10795,2.88223,-9.32627,-16.7695,-6.58568,-2.6327
2023-02-16 20:43:59:425,-1.12625,2.87387,-9.31711,-16.7625,-6.58904,-2.62525
2023-02-16 20:43:59:435,-1.11914,2.85995,-9.31509,-16.7573,-6.59227,-2.61861
2023-02-16 20:43:59:445,-1.11842,2.84091,-9.31971,-16.7524,-6.59337,-2.61324
2023-02-16 20:43:59:455,-1.11139,2.8236,-9.31928,-16.744,-6.59548,-2.60643
2023-02-16 20:43:59:465,-1.09556,2.80497,-9.30344,-16.7382,-6.60112,-2.60114
2023-02-16 20:43:59:475,-1.10651,2.78986,-9.29668,-16.7333,-6.60615,-2.59472
2023-02-16 20:43:59:485,-1.1096,2.7833,-9.30571,-16.7287,-6.60897,-2.58697
2023-02-16 20:43:59:495,-1.12154,2.7814,-9.31239,-16.7247,-6.61656,-2.57746
2023-02-16 20:43:59:505,-1.12638,2.76976,-9.30287,-16.718,-6.62123,-2.56598
2023-02-16 20:43:59:515,-1.11498,2.75749,-9.28296,-16.7107,-6.62366,-2.55526
2023-02-16 20:43:59:525,-1.1228,2.75917,-9.26325,-16.7071,-6.62498,-2.54673
2023-02-16 20:43:59:535,-1.13388,2.77169,-9.26084,-16.7029,-6.62226,-2.53729
2023-02-16 20:43:59:545,-1.1464,2.77978,-9.27147,-16.7008,-6.61896,-2.53092
2023-02-16 20:43:59:555,-1.15831,2.78815,-9.26659,-16.7008,-6.61978,-2.52662
2023-02-16 20:43:59:565,-1.14698,2.78064,-9.27397,-16.6986,-6.61775,-2.52472
2023-02-16 20:43:59:575,-1.12878,2.77826,-9.27204,-16.6993,-6.62017,-2.52271
2023-02-16 20:43:59:585,-1.1205,2.76954,-9.28028,-16.7018,-6.61785,-2.52173
2023-02-16 20:43:59:595,-1.08719,2.76723,-9.28087,-16.7032,-6.6184,-2.52094
2023-02-16 20:43:59:605,-1.06737,2.7651,-9.27725,-16.7071,-6.62106,-2.52076
2023-02-16 20:43:59:615,-1.08759,2.77723,-9.30428,-16.7123,-6.62357,-2.519
2023-02-16 20:43:59:625,-1.08199,2.78526,-9.3228,-16.7181,-6.62628,-2.51563
2023-02-16 20:43:59:635,-1.06633,2.79677,-9.32895,-16.725,-6.62408,-2.50645
2023-02-16 20:43:59:645,-1.1112,2.81217,-9.33506,-16.7335,-6.62529,-2.49594
2023-02-16 20:43:59:655,-1.15662,2.83725,-9.35492,-16.7384,-6.6242,-2.48567
2023-02-16 20:43:59:665,-1.16438,2.84681,-9.35197,-16.7396,-6.6168,-2.47918
2023-02-16 20:43:59:675,-1.14602,2.83209,-9.3287,-16.7405,-6.61237,-2.46833
2023-02-16 20:43:59:685,-1.15226,2.81648,-9.31574,-16.738,-6.60405,-2.45633
2023-02-16 20:43:59:695,-1.14734,2.81503,-9.31554,-16.7327,-6.59913,-2.44672
2023-02-16 20:43:59:705,-1.15421,2.79904,-9.28844,-16.7278,-6.59412,-2.44146
2023-02-16 20:43:59:715,-1.16597,2.77183,-9.28266,-16.7212,-6.59253,-2.43541
2023-02-16 20:43:59:725,-1.16262,2.7822,-9.31992,-16.7164,-6.59371,-2.43521
2023-02-16 20:43:59:735,-1.11175,2.80257,-9.35367,-16.7115,-6.58607,-2.43991
2023-02-16 20:43:59:745,-1.04834,2.7811,-9.3444,-16.7039,-6.58213,-2.44248
2023-02-16 20:43:59:755,-1.05306,2.74032,-9.29983,-16.6968,-6.58218,-2.4412
2023-02-16 20:43:59:765,-1.06182,2.73614,-9.28024,-16.695,-6.58508,-2.4393
2023-02-16 20:43:59:775,-1.07055,2.75417,-9.29185,-16.6953,-6.59074,-2.43743
2023-02-16 20:43:59:785,-1.08502,2.78529,-9.29835,-16.7017,-6.59421,-2.43212
2023-02-16 20:43:59:795,-1.0929,2.79214,-9.2927,-16.7084,-6.59527,-2.4257
2023-02-16 20:43:59:805,-1.09333,2.80722,-9.28246,-16.715,-6.59694,-2.41203
2023-02-16 20:43:59:815,-1.11234,2.82961,-9.26753,-16.7224,-6.59628,-2.40025
2023-02-16 20:43:59:825,-1.12406,2.83778,-9.25738,-16.7293,-6.59581,-2.39072
2023-02-16 20:43:59:835,-1.15904,2.85803,-9.25062,-16.7339,-6.59492,-2.38279
2023-02-16 20:43:59:845,-1.17923,2.8656,-9.2446,-16.7399,-6.59192,-2.37788
2023-02-16 20:43:59:855,-1.19078,2.86198,-9.25477,-16.7485,-6.58612,-2.37426
2023-02-16 20:43:59:865,-1.18883,2.85967,-9.26395,-16.753,-6.58505,-2.37764
2023-02-16 20:43:59:875,-1.18887,2.85671,-9.28382,-16.7548,-6.58118,-2.38173
2023-02-16 20:43:59:885,-1.16401,2.8451,-9.30391,-16.7601,-6.57768,-2.38631
2023-02-16 20:43:59:895,-1.15778,2.84748,-9.31786,-16.7624,-6.57246,-2.39367
2023-02-16 20:43:59:905,-1.12889,2.84057,-9.33283,-16.7655,-6.56599,-2.40555
2023-02-16 20:43:59:915,-1.09028,2.84591,-9.32749,-16.7701,-6.55914,-2.4186
2023-02-16 20:43:59:925,-1.0757,2.84884,-9.32319,-16.7751,-6.55454,-2.42893
2023-02-16 20:43:59:935,-1.07632,2.85904,-9.32121,-16.7796,-6.54738,-2.44395
2023-02-16 20:43:59:945,-1.09851,2.86887,-9.34367,-16.7888,-6.54272,-2.45448
2023-02-16 20:43:59:955,-1.08562,2.88931,-9.36574,-16.7939,-6.53267,-2.46871
2023-02-16 20:43:59:965,-1.02872,2.87984,-9.38041,-16.793,-6.52292,-2.47801
2023-02-16 20:43:59:975,-0.982987,2.84943,-9.34494,-16.7906,-6.51449,-2.48524
2023-02-16 20:43:59:985,-0.997146,2.83322,-9.31541,-16.7824,-6.50768,-2.49211
2023-02-16 20:43:59:995,-1.01277,2.82585,-9.30328,-16.7749,-6.50186,-2.49824
2023-02-16 20:44:00:5,-1.04013,2.82203,-9.2977,-16.7691,-6.49651,-2.49877
2023-02-16 20:44:00:15,-1.05763,2.79641,-9.28181,-16.7635,-6.49145,-2.50046
2023-02-16 20:44:00:25,-1.06802,2.77987,-9.27512,-16.7578,-6.48438,-2.49863
2023-02-16 20:44:00:35,-1.07502,2.78962,-9.29937,-16.7558,-6.47777,-2.49839
2023-02-16 20:44:00:45,-1.06842,2.80576,-9.30722,-16.7521,-6.46819,-2.4939
2023-02-16 20:44:00:55,-1.05421,2.79767,-9.29613,-16.7489,-6.45907,-2.49288
2023-02-16 20:44:00:65,-1.05739,2.79295,-9.2839,-16.7466,-6.45221,-2.4908
2023-02-16 20:44:00:75,-1.07825,2.79049,-9.28984,-16.7449,-6.44415,-2.48685
2023-02-16 20:44:00:85,-1.08655,2.79337,-9.27962,-16.7422,-6.43717,-2.48379
2023-02-16 20:44:00:95,-1.07822,2.78504,-9.29029,-16.7405,-6.42968,-2.47972
2023-02-16 20:44:00:105,-1.07689,2.79629,-9.30717,-16.7415,-6.42518,-2.47979
2023-02-16 20:44:00:115,-1.0571,2.80758,-9.32066,-16.7424,-6.4197,-2.48077
2023-02-16 20:44:00:125,-1.03257,2.80558,-9.32075,-16.7423,-6.41354,-2.47748
2023-02-16 20:44:00:135,-1.0256,2.78724,-9.30807,-16.7411,-6.41173,-2.47671
2023-02-16 20:44:00:145,-1.02756,2.77842,-9.30922,-16.7417,-6.41028,-2.47305
2023-02-16 20:44:00:155,-1.03432,2.78896,-9.33428,-16.741,-6.41106,-2.46738
2023-02-16 20:44:00:165,-1.05554,2.79518,-9.35901,-16.7427,-6.41095,-2.45879
2023-02-16 20:44:00:175,-1.07094,2.80182,-9.3592,-16.7398,-6.41294,-2.45446
2023-02-16 20:44:00:185,-1.08842,2.79269,-9.327,-16.7369,-6.41194,-2.44833
2023-02-16 20:44:00:195,-1.08638,2.77571,-9.29325,-16.7367,-6.41143,-2.44175
2023-02-16 20:44:00:205,-1.0839,2.76352,-9.28234,-16.7336,-6.41279,-2.43156
2023-02-16 20:44:00:215,-1.08897,2.76812,-9.26843,-16.7312,-6.41216,-2.42106
2023-02-16 20:44:00:225,-1.09567,2.75551,-9.26099,-16.7333,-6.41091,-2.41062
2023-02-16 20:44:00:235,-1.08906,2.74536,-9.27732,-16.7383,-6.40995,-2.40185
2023-02-16 20:44:00:245,-1.0721,2.7569,-9.27041,-16.7421,-6.40676,-2.39679
2023-02-16 20:44:00:255,-1.0496,2.78696,-9.28086,-16.7509,-6.40369,-2.39262
2023-02-16 20:44:00:265,-1.06205,2.7852,-9.30061,-16.759,-6.40486,-2.38966
2023-02-16 20:44:00:275,-1.05853,2.79106,-9.31009,-16.7671,-6.40828,-2.38436
2023-02-16 20:44:00:285,-1.04876,2.81168,-9.31947,-16.7773,-6.41201,-2.37792
2023-02-16 20:44:00:295,-1.03963,2.84414,-9.3315,-16.7855,-6.41405,-2.37314
2023-02-16 20:44:00:305,-1.05059,2.85364,-9.33663,-16.7928,-6.41451,-2.36969
2023-02-16 20:44:00:315,-1.05877,2.85044,-9.32468,-16.8003,-6.41279,-2.36695
2023-02-16 20:44:00:325,-1.06749,2.84605,-9.31149,-16.8064,-6.41237,-2.35912
2023-02-16 20:44:00:335,-1.06913,2.84739,-9.30369,-16.8161,-6.41149,-2.34938
2023-02-16 20:44:00:345,-1.07781,2.84084,-9.33019,-16.8217,-6.41265,-2.3442
2023-02-16 20:44:00:355,-1.08447,2.84497,-9.32462,-16.8243,-6.40925,-2.33511
2023-02-16 20:44:00:365,-1.10093,2.86227,-9.31618,-16.8247,-6.40629,-2.32574
2023-02-16 20:44:00:375,-1.09963,2.86317,-9.30256,-16.8256,-6.40678,-2.31738
2023-02-16 20:44:00:385,-1.09246,2.85431,-9.30941,-16.8273,-6.40572,-2.31105
2023-02-16 20:44:00:395,-1.10291,2.85343,-9.30832,-16.8287,-6.4061,-2.30695
2023-02-16 20:44:00:405,-1.08964,2.83094,-9.28399,-16.8274,-6.40346,-2.30312
2023-02-16 20:44:00:415,-1.0775,2.79892,-9.24744,-16.8238,-6.39995,-2.29823
2023-02-16 20:44:00:425,-1.05407,2.76725,-9.22699,-16.8214,-6.39899,-2.29543
2023-02-16 20:44:00:435,-1.04887,2.77795,-9.25421,-16.8244,-6.39763,-2.28983
2023-02-16 20:44:00:445,-1.03294,2.814,-9.3323,-16.8327,-6.39785,-2.28598
2023-02-16 20:44:00:455,-1.01209,2.82199,-9.34539,-16.8357,-6.39824,-2.28093
2023-02-16 20:44:00:465,-1.01357,2.81723,-9.30874,-16.8402,-6.39868,-2.27676
2023-02-16 20:44:00:475,-1.05357,2.82744,-9.30392,-16.8471,-6.40243,-2.26664
2023-02-16 20:44:00:485,-1.08159,2.84504,-9.31613,-16.8571,-6.40678,-2.25897
2023-02-16 20:44:00:495,-1.08219,2.88898,-9.31594,-16.8675,-6.41025,-2.24938
2023-02-16 20:44:00:505,-1.08666,2.9066,-9.30648,-16.8801,-6.41171,-2.24024
2023-02-16 20:44:00:515,-1.07908,2.91493,-9.30871,-16.8908,-6.41388,-2.23366
2023-02-16 20:44:00:525,-1.07939,2.92987,-9.30538,-16.8978,-6.41877,-2.228
2023-02-16 20:44:00:535,-1.08159,2.92379,-9.29234,-16.9021,-6.42475,-2.22453
2023-02-16 20:44:00:545,-1.10483,2.91567,-9.26616,-16.9054,-6.42911,-2.22261
2023-02-16 20:44:00:555,-1.09507,2.90038,-9.25344,-16.9052,-6.43326,-2.22109
2023-02-16 20:44:00:565,-1.07965,2.88029,-9.23979,-16.9028,-6.43448,-2.22452
2023-02-16 20:44:00:575,-1.08144,2.86656,-9.24335,-16.9036,-6.43503,-2.22301
2023-02-16 20:44:00:585,-1.0934,2.86906,-9.26023,-16.9057,-6.43876,-2.22142
2023-02-16 20:44:00:595,-1.08966,2.86966,-9.27634,-16.9058,-6.43744,-2.21943
2023-02-16 20:44:00:605,-1.08924,2.87378,-9.29244,-16.9118,-6.43858,-2.21906
2023-02-16 20:44:00:615,-1.10278,2.87851,-9.30246,-16.9129,-6.43992,-2.21756
2023-02-16 20:44:00:625,-1.10419,2.88717,-9.31167,-16.9176,-6.43935,-2.22053
2023-02-16 20:44:00:635,-1.09304,2.8965,-9.30947,-16.9224,-6.43905,-2.22011
2023-02-16 20:44:00:646,-1.10649,2.88963,-9.31644,-16.9243,-6.43997,-2.21976
2023-02-16 20:44:00:655,-1.14028,2.9109,-9.311,-16.9254,-6.43848,-2.22033
2023-02-16 20:44:00:665,-1.1453,2.9315,-9.35325,-16.9295,-6.43521,-2.22507
2023-02-16 20:44:00:675,-1.10916,2.95483,-9.38516,-16.9315,-6.42854,-2.2331
2023-02-16 20:44:00:685,-1.05978,2.92228,-9.36847,-16.9247,-6.42516,-2.2436
2023-02-16 20:44:00:695,-1.05011,2.88746,-9.33057,-16.9136,-6.42512,-2.24996
2023-02-16 20:44:00:705,-1.05171,2.87143,-9.29866,-16.9029,-6.42944,-2.25658
2023-02-16 20:44:00:715,-1.0518,2.8298,-9.29139,-16.8884,-6.43163,-2.26271
2023-02-16 20:44:00:725,-1.04204,2.82338,-9.28099,-16.8758,-6.4338,-2.27016
2023-02-16 20:44:00:735,-1.05183,2.81557,-9.27476,-16.8632,-6.43645,-2.27549
2023-02-16 20:44:00:745,-1.02508,2.81023,-9.28369,-16.8552,-6.43816,-2.2794
2023-02-16 20:44:00:755,-1.01007,2.81277,-9.30773,-16.8444,-6.4357,-2.28127
2023-02-16 20:44:00:765,-1.01463,2.81747,-9.31127,-16.8383,-6.43744,-2.28286
2023-02-16 20:44:00:775,-1.02919,2.81617,-9.3129,-16.8313,-6.43594,-2.28134
2023-02-16 20:44:00:785,-1.05682,2.80797,-9.3146,-16.8226,-6.44105,-2.27493
2023-02-16 20:44:00:795,-1.07363,2.78555,-9.29995,-16.8126,-6.4424,-2.26941
2023-02-16 20:44:00:805,-1.08443,2.78181,-9.28512,-16.8034,-6.44576,-2.26569
2023-02-16 20:44:00:815,-1.09549,2.7837,-9.289,-16.794,-6.44794,-2.26409
2023-02-16 20:44:00:825,-1.08529,2.7544,-9.28376,-16.7868,-6.45026,-2.26405
2023-02-16 20:44:00:835,-1.0694,2.74082,-9.28897,-16.7801,-6.45096,-2.26404
2023-02-16 20:44:00:845,-1.03616,2.74045,-9.29655,-16.771,-6.45609,-2.2611
2023-02-16 20:44:00:855,-1.02017,2.73568,-9.3026,-16.7685,-6.46636,-2.25743
2023-02-16 20:44:00:865,-1.03057,2.73929,-9.30251,-16.7686,-6.47612,-2.25215
2023-02-16 20:44:00:875,-1.04866,2.74662,-9.29539,-16.7701,-6.48705,-2.24545
2023-02-16 20:44:00:885,-1.0591,2.75461,-9.30895,-16.776,-6.49888,-2.23335
2023-02-16 20:44:00:895,-1.08305,2.7722,-9.32417,-16.7788,-6.50456,-2.21934
2023-02-16 20:44:00:905,-1.10391,2.78185,-9.31954,-16.7823,-6.51006,-2.20489
2023-02-16 20:44:00:915,-1.12759,2.77673,-9.28437,-16.788,-6.51429,-2.19073
2023-02-16 20:44:00:925,-1.15297,2.77813,-9.26713,-16.7923,-6.5181,-2.17294
2023-02-16 20:44:00:935,-1.16137,2.7914,-9.28335,-16.7987,-6.51559,-2.1574
2023-02-16 20:44:00:946,-1.16051,2.79943,-9.30174,-16.8063,-6.51562,-2.14554
2023-02-16 20:44:00:955,-1.17794,2.81114,-9.31005,-16.812,-6.51298,-2.13652
2023-02-16 20:44:00:966,-1.19022,2.82116,-9.29918,-16.8155,-6.51386,-2.12909
2023-02-16 20:44:00:975,-1.18243,2.82826,-9.29418,-16.8231,-6.5122,-2.12797
2023-02-16 20:44:00:985,-1.15518,2.82761,-9.28708,-16.8267,-6.5104,-2.12978
2023-02-16 20:44:00:995,-1.12135,2.82372,-9.28352,-16.8304,-6.50583,-2.1321
2023-02-16 20:44:01:5,-1.10333,2.81068,-9.27106,-16.8373,-6.50184,-2.13533
2023-02-16 20:44:01:15,-1.07263,2.81704,-9.27985,-16.8449,-6.49946,-2.13891
2023-02-16 20:44:01:25,-1.05534,2.81736,-9.29083,-16.8533,-6.49867,-2.14211
2023-02-16 20:44:01:35,-1.06971,2.84593,-9.29659,-16.8597,-6.50026,-2.14288
2023-02-16 20:44:01:45,-1.07398,2.85843,-9.30772,-16.8683,-6.49764,-2.14263
2023-02-16 20:44:01:55,-1.05287,2.85927,-9.31363,-16.8768,-6.49883,-2.13874
2023-02-16 20:44:01:65,-1.06504,2.86642,-9.32206,-16.8845,-6.49466,-2.13516
2023-02-16 20:44:01:75,-1.0862,2.88092,-9.35308,-16.8856,-6.48894,-2.13165
2023-02-16 20:44:01:85,-1.12302,2.88107,-9.36284,-16.886,-6.48217,-2.12495
2023-02-16 20:44:01:95,-1.12523,2.87468,-9.32878,-16.8807,-6.47632,-2.12229
2023-02-16 20:44:01:105,-1.10729,2.83477,-9.29679,-16.8759,-6.46652,-2.12212
2023-02-16 20:44:01:115,-1.09366,2.83328,-9.28329,-16.873,-6.45779,-2.12225
2023-02-16 20:44:01:125,-1.08496,2.81588,-9.26348,-16.8724,-6.45154,-2.1239
2023-02-16 20:44:01:135,-1.04066,2.78863,-9.24361,-16.8671,-6.44554,-2.12289
2023-02-16 20:44:01:145,-1.04191,2.7606,-9.23038,-16.8699,-6.43774,-2.12026
2023-02-16 20:44:01:155,-1.03821,2.78721,-9.27276,-16.8767,-6.43288,-2.11981
2023-02-16 20:44:01:166,-1.00254,2.82256,-9.34716,-16.8856,-6.42831,-2.12321
2023-02-16 20:44:01:175,-0.935271,2.83026,-9.4031,-16.8881,-6.42497,-2.12115
2023-02-16 20:44:01:185,-0.912139,2.81218,-9.36681,-16.8906,-6.42832,-2.11712
2023-02-16 20:44:01:195,-0.950867,2.81061,-9.30885,-16.8928,-6.43678,-2.10518
2023-02-16 20:44:01:205,-0.997185,2.814,-9.29337,-16.8984,-6.44472,-2.09232
2023-02-16 20:44:01:215,-1.02698,2.83783,-9.29975,-16.9098,-6.45469,-2.075
2023-02-16 20:44:01:226,-1.045,2.87469,-9.31176,-16.9216,-6.46023,-2.05814
2023-02-16 20:44:01:235,-1.05923,2.88557,-9.32425,-16.9326,-6.4682,-2.03819
2023-02-16 20:44:01:246,-1.06826,2.89369,-9.32055,-16.9414,-6.47452,-2.01576
2023-02-16 20:44:01:255,-1.1037,2.87806,-9.30784,-16.9469,-6.48319,-1.99601
2023-02-16 20:44:01:265,-1.14067,2.87688,-9.26167,-16.9493,-6.48925,-1.97574
2023-02-16 20:44:01:275,-1.17035,2.87148,-9.21134,-16.9527,-6.49638,-1.96028
2023-02-16 20:44:01:285,-1.19065,2.85185,-9.18855,-16.9549,-6.50306,-1.95145
2023-02-16 20:44:01:296,-1.20239,2.85725,-9.20542,-16.9583,-6.50835,-1.94318
2023-02-16 20:44:01:305,-1.19249,2.87647,-9.24871,-16.969,-6.50929,-1.94065
2023-02-16 20:44:01:316,-1.17269,2.88697,-9.29158,-16.9768,-6.50886,-1.94052
2023-02-16 20:44:01:326,-1.15218,2.88358,-9.31669,-16.9848,-6.5054,-1.94419
2023-02-16 20:44:01:336,-1.1364,2.89877,-9.32302,-16.99,-6.50675,-1.94681
2023-02-16 20:44:01:345,-1.10154,2.8918,-9.32449,-16.9973,-6.50469,-1.95125
2023-02-16 20:44:01:355,-1.08775,2.89105,-9.29858,-17.0045,-6.5012,-1.9556
2023-02-16 20:44:01:365,-1.09396,2.88772,-9.28177,-17.0106,-6.49823,-1.96053
2023-02-16 20:44:01:375,-1.10242,2.90045,-9.28435,-17.0182,-6.49305,-1.96613
2023-02-16 20:44:01:385,-1.11083,2.91838,-9.30805,-17.0242,-6.48749,-1.96996
2023-02-16 20:44:01:395,-1.06886,2.93814,-9.34762,-17.0292,-6.47852,-1.97845
2023-02-16 20:44:01:405,-1.03814,2.92208,-9.36296,-17.0274,-6.4727,-1.98527
2023-02-16 20:44:01:415,-1.02207,2.89118,-9.33643,-17.0223,-6.46648,-1.99227
2023-02-16 20:44:01:425,-1.01783,2.86569,-9.30453,-17.0143,-6.46541,-1.99445
2023-02-16 20:44:01:435,-1.03476,2.8596,-9.28347,-17.0084,-6.46178,-1.99307
2023-02-16 20:44:01:445,-1.04128,2.85951,-9.28308,-17.0074,-6.46298,-1.9947
2023-02-16 20:44:01:455,-1.04223,2.8792,-9.30938,-17.006,-6.46518,-2.00068
2023-02-16 20:44:01:465,-1.03854,2.87773,-9.3336,-17.0041,-6.46453,-1.99987
2023-02-16 20:44:01:475,-1.02175,2.88143,-9.32219,-17.0001,-6.46439,-1.99907
2023-02-16 20:44:01:486,-1.03194,2.90235,-9.30156,-16.9939,-6.46568,-1.99536
2023-02-16 20:44:01:496,-1.02686,2.88422,-9.2926,-16.9876,-6.46754,-1.99352
2023-02-16 20:44:01:506,-1.01472,2.87971,-9.27533,-16.9802,-6.46791,-1.98515
2023-02-16 20:44:01:516,-1.0353,2.87955,-9.27406,-16.9699,-6.4691,-1.97747
2023-02-16 20:44:01:526,-1.05966,2.87851,-9.2833,-16.9641,-6.47137,-1.9694
2023-02-16 20:44:01:536,-1.08287,2.88087,-9.28851,-16.9589,-6.47458,-1.9609
2023-02-16 20:44:01:545,-1.1065,2.87295,-9.29333,-16.9505,-6.4801,-1.95424
2023-02-16 20:44:01:555,-1.10824,2.86668,-9.30628,-16.9415,-6.48675,-1.94974
2023-02-16 20:44:01:566,-1.11008,2.8514,-9.29449,-16.9308,-6.49328,-1.94438
2023-02-16 20:44:01:576,-1.1198,2.83729,-9.27236,-16.9246,-6.50139,-1.93927
2023-02-16 20:44:01:585,-1.11763,2.81332,-9.27129,-16.9173,-6.50691,-1.93351
2023-02-16 20:44:01:596,-1.10784,2.80184,-9.28473,-16.9092,-6.51075,-1.92732
2023-02-16 20:44:01:605,-1.09952,2.80714,-9.28501,-16.9057,-6.51921,-1.91955
2023-02-16 20:44:01:616,-1.10647,2.80017,-9.27395,-16.8987,-6.52601,-1.91296
2023-02-16 20:44:01:626,-1.13043,2.79218,-9.25816,-16.897,-6.5307,-1.90575
2023-02-16 20:44:01:636,-1.16154,2.79292,-9.23324,-16.8953,-6.53265,-1.89966
2023-02-16 20:44:01:646,-1.15748,2.80469,-9.23513,-16.9007,-6.531,-1.89176
2023-02-16 20:44:01:655,-1.14831,2.82204,-9.23158,-16.9054,-6.52741,-1.88865
2023-02-16 20:44:01:666,-1.15224,2.82946,-9.25682,-16.9098,-6.52445,-1.8819
2023-02-16 20:44:01:675,-1.16716,2.8524,-9.286,-16.917,-6.52301,-1.88275
2023-02-16 20:44:01:686,-1.16745,2.85984,-9.30827,-16.9227,-6.51719,-1.88364
2023-02-16 20:44:01:696,-1.1596,2.8532,-9.30694,-16.9242,-6.51238,-1.89013
2023-02-16 20:44:01:706,-1.13221,2.85801,-9.2984,-16.9269,-6.50509,-1.89588
2023-02-16 20:44:01:716,-1.10441,2.85509,-9.29292,-16.9281,-6.49802,-1.9039
2023-02-16 20:44:01:726,-1.07821,2.85097,-9.29982,-16.9315,-6.49056,-1.91474
2023-02-16 20:44:01:736,-1.03666,2.86241,-9.31517,-16.9334,-6.48646,-1.92374
2023-02-16 20:44:01:746,-1.01917,2.85389,-9.31855,-16.9336,-6.48123,-1.93327
2023-02-16 20:44:01:755,-1.00607,2.84575,-9.31515,-16.9333,-6.47903,-1.93777
2023-02-16 20:44:01:765,-1.00744,2.86253,-9.32229,-16.9385,-6.47487,-1.94015
2023-02-16 20:44:01:775,-1.01089,2.8689,-9.31717,-16.9378,-6.4738,-1.94252
2023-02-16 20:44:01:785,-1.0024,2.8612,-9.30683,-16.9383,-6.47301,-1.94026
2023-02-16 20:44:01:795,-1.00137,2.86151,-9.30863,-16.9375,-6.47452,-1.93721
2023-02-16 20:44:01:806,-1.00649,2.85969,-9.29509,-16.9384,-6.4787,-1.92984
2023-02-16 20:44:01:816,-1.00643,2.84621,-9.2973,-16.9396,-6.47859,-1.92244
2023-02-16 20:44:01:826,-1.03836,2.82998,-9.28999,-16.9383,-6.48035,-1.91426
2023-02-16 20:44:01:836,-1.04907,2.83375,-9.29898,-16.9383,-6.485,-1.90117
2023-02-16 20:44:01:845,-1.09173,2.84095,-9.31862,-16.9356,-6.49092,-1.88749
2023-02-16 20:44:01:856,-1.10032,2.8513,-9.30755,-16.9329,-6.49049,-1.87418
2023-02-16 20:44:01:865,-1.10485,2.83497,-9.29337,-16.933,-6.49085,-1.86442
2023-02-16 20:44:01:876,-1.11059,2.83228,-9.27788,-16.9295,-6.49259,-1.85447
2023-02-16 20:44:01:886,-1.10811,2.83323,-9.27913,-16.9276,-6.49469,-1.84351
2023-02-16 20:44:01:895,-1.09647,2.83168,-9.29312,-16.9255,-6.49872,-1.83628
2023-02-16 20:44:01:905,-1.10914,2.82412,-9.28435,-16.9214,-6.49971,-1.83153
2023-02-16 20:44:01:915,-1.1201,2.81213,-9.30853,-16.9197,-6.50053,-1.82678
2023-02-16 20:44:01:926,-1.09004,2.83121,-9.37233,-16.9155,-6.49788,-1.8209
2023-02-16 20:44:01:936,-1.03329,2.82855,-9.37801,-16.9071,-6.49899,-1.81907
2023-02-16 20:44:01:946,-1.00528,2.78673,-9.3245,-16.9007,-6.5077,-1.80902
2023-02-16 20:44:01:955,-1.03347,2.76767,-9.26836,-16.8993,-6.51792,-1.7988
2023-02-16 20:44:01:966,-1.06657,2.79012,-9.25554,-16.901,-6.52921,-1.78622
2023-02-16 20:44:01:976,-1.08961,2.81331,-9.25161,-16.9063,-6.53926,-1.77736
2023-02-16 20:44:01:986,-1.12731,2.85526,-9.25646,-16.9128,-6.5446,-1.76367
2023-02-16 20:44:01:995,-1.16446,2.88123,-9.26635,-16.9237,-6.54834,-1.74986
2023-02-16 20:44:02:6,-1.17002,2.90598,-9.27891,-16.9326,-6.55168,-1.74083
2023-02-16 20:44:02:15,-1.17162,2.91759,-9.28008,-16.9388,-6.55227,-1.73271
2023-02-16 20:44:02:25,-1.18472,2.91019,-9.27294,-16.9398,-6.54512,-1.72912
2023-02-16 20:44:02:35,-1.17629,2.88559,-9.23094,-16.9383,-6.54103,-1.72747
2023-02-16 20:44:02:46,-1.16021,2.85404,-9.21512,-16.9367,-6.53649,-1.72696
2023-02-16 20:44:02:55,-1.14572,2.84447,-9.2209,-16.9382,-6.5342,-1.73026
2023-02-16 20:44:02:66,-1.12955,2.84043,-9.24565,-16.9391,-6.53389,-1.73721
2023-02-16 20:44:02:76,-1.12698,2.84002,-9.25841,-16.9449,-6.53141,-1.74244
2023-02-16 20:44:02:85,-1.11629,2.85017,-9.27262,-16.951,-6.52532,-1.75068
2023-02-16 20:44:02:96,-1.10429,2.87826,-9.31136,-16.9587,-6.51886,-1.75819
2023-02-16 20:44:02:106,-1.07055,2.8896,-9.34001,-16.9697,-6.51175,-1.76796
2023-02-16 20:44:02:116,-1.04304,2.89977,-9.34303,-16.9831,-6.50489,-1.7747
2023-02-16 20:44:02:126,-1.02269,2.9039,-9.33944,-16.9922,-6.49706,-1.78009
2023-02-16 20:44:02:135,-1.0497,2.92601,-9.33976,-16.9985,-6.4912,-1.78274
2023-02-16 20:44:02:146,-1.06964,2.91228,-9.36123,-16.9995,-6.48296,-1.78722
2023-02-16 20:44:02:156,-1.05328,2.91192,-9.36822,-16.9958,-6.47271,-1.79241
2023-02-16 20:44:02:166,-1.01435,2.88644,-9.34675,-16.9934,-6.46402,-1.79698
2023-02-16 20:44:02:176,-1.02188,2.86648,-9.30436,-16.9856,-6.46463,-1.80047
2023-02-16 20:44:02:186,-1.03452,2.87446,-9.2985,-16.9812,-6.46637,-1.80105
2023-02-16 20:44:02:196,-1.05191,2.87098,-9.29255,-16.9724,-6.46868,-1.80472
2023-02-16 20:44:02:206,-1.0571,2.85448,-9.29014,-16.9639,-6.47018,-1.8078
2023-02-16 20:44:02:216,-1.05558,2.85228,-9.29306,-16.9602,-6.47355,-1.80807
2023-02-16 20:44:02:225,-1.06012,2.84877,-9.3128,-16.9502,-6.47478,-1.80953
2023-02-16 20:44:02:236,-1.05611,2.84214,-9.30932,-16.9427,-6.47685,-1.81124
2023-02-16 20:44:02:245,-1.05714,2.83587,-9.29012,-16.9342,-6.48,-1.81129
2023-02-16 20:44:02:256,-1.06665,2.83142,-9.26476,-16.927,-6.48027,-1.80746
2023-02-16 20:44:02:266,-1.0747,2.8164,-9.26663,-16.9212,-6.48336,-1.8062
2023-02-16 20:44:02:276,-1.07477,2.82659,-9.27748,-16.9124,-6.48188,-1.80399
2023-02-16 20:44:02:286,-1.07703,2.83432,-9.29381,-16.9064,-6.48264,-1.80375
2023-02-16 20:44:02:295,-1.0853,2.83907,-9.30023,-16.9007,-6.48463,-1.80195
2023-02-16 20:44:02:305,-1.07167,2.8446,-9.30211,-16.8967,-6.49212,-1.80181
2023-02-16 20:44:02:316,-1.07047,2.83362,-9.31108,-16.8942,-6.49711,-1.80034
2023-02-16 20:44:02:326,-1.07514,2.82567,-9.31244,-16.8919,-6.50203,-1.7983
2023-02-16 20:44:02:336,-1.06282,2.82786,-9.32006,-16.8878,-6.50677,-1.79669
2023-02-16 20:44:02:345,-1.06787,2.82724,-9.31724,-16.8837,-6.50955,-1.79131
2023-02-16 20:44:02:356,-1.08074,2.82885,-9.31622,-16.8785,-6.51707,-1.78379
2023-02-16 20:44:02:365,-1.09073,2.82762,-9.29818,-16.8746,-6.52086,-1.77473
2023-02-16 20:44:02:375,-1.09999,2.81236,-9.30125,-16.8731,-6.52191,-1.76384
2023-02-16 20:44:02:386,-1.12201,2.82464,-9.27738,-16.8713,-6.52449,-1.7526
2023-02-16 20:44:02:395,-1.12958,2.8302,-9.2632,-16.8664,-6.52456,-1.74462
2023-02-16 20:44:02:406,-1.12781,2.81599,-9.27516,-16.866,-6.52577,-1.73558
2023-02-16 20:44:02:416,-1.12576,2.82716,-9.29278,-16.8657,-6.52376,-1.73182
2023-02-16 20:44:02:425,-1.13148,2.83683,-9.28578,-16.8676,-6.52025,-1.72947
2023-02-16 20:44:02:436,-1.11799,2.83256,-9.24913,-16.8664,-6.5194,-1.72783
2023-02-16 20:44:02:446,-1.11103,2.83253,-9.25343,-16.866,-6.51649,-1.72932
2023-02-16 20:44:02:456,-1.09786,2.84137,-9.27228,-16.8661,-6.51536,-1.73293
2023-02-16 20:44:02:466,-1.08038,2.8443,-9.27637,-16.8692,-6.51676,-1.7373
2023-02-16 20:44:02:476,-1.05754,2.83809,-9.28259,-16.8729,-6.51696,-1.7443
2023-02-16 20:44:02:485,-1.06387,2.83546,-9.30158,-16.8766,-6.51878,-1.74891
2023-02-16 20:44:02:496,-1.05034,2.85395,-9.30595,-16.879,-6.52036,-1.7541
2023-02-16 20:44:02:506,-1.03359,2.87407,-9.30809,-16.8802,-6.52288,-1.76094
2023-02-16 20:44:02:516,-1.03437,2.86173,-9.31663,-16.8826,-6.52646,-1.76266
2023-02-16 20:44:02:526,-1.03738,2.84984,-9.35192,-16.8855,-6.53138,-1.76186
2023-02-16 20:44:02:536,-1.02469,2.86031,-9.35673,-16.8841,-6.53192,-1.76116
2023-02-16 20:44:02:546,-1.0452,2.86926,-9.35981,-16.8819,-6.53672,-1.75895
2023-02-16 20:44:02:555,-1.06813,2.872,-9.33597,-16.8788,-6.5431,-1.75683
2023-02-16 20:44:02:565,-1.07377,2.85222,-9.31097,-16.8747,-6.54965,-1.75183
2023-02-16 20:44:02:575,-1.09225,2.84716,-9.28121,-16.8699,-6.5579,-1.74645
2023-02-16 20:44:02:585,-1.10681,2.8357,-9.26875,-16.8659,-6.56443,-1.73743
2023-02-16 20:44:02:595,-1.12062,2.81927,-9.26864,-16.8588,-6.56856,-1.72775
2023-02-16 20:44:02:605,-1.14291,2.82868,-9.27365,-16.8518,-6.56856,-1.71972
2023-02-16 20:44:02:615,-1.14552,2.81591,-9.25603,-16.8434,-6.57071,-1.71067
2023-02-16 20:44:02:626,-1.14221,2.80899,-9.23834,-16.8407,-6.57027,-1.70323
2023-02-16 20:44:02:635,-1.13401,2.81746,-9.24237,-16.841,-6.56847,-1.6995
2023-02-16 20:44:02:646,-1.14914,2.82995,-9.26516,-16.8411,-6.56653,-1.69916
2023-02-16 20:44:02:656,-1.13181,2.81514,-9.27306,-16.8377,-6.56451,-1.69993
2023-02-16 20:44:02:666,-1.1274,2.7912,-9.28037,-16.8371,-6.56364,-1.7001
2023-02-16 20:44:02:675,-1.12774,2.81061,-9.3204,-16.8354,-6.55908,-1.70604
2023-02-16 20:44:02:686,-1.08291,2.84137,-9.37816,-16.8372,-6.5553,-1.71331
2023-02-16 20:44:02:696,-1.02235,2.83026,-9.36599,-16.8386,-6.55193,-1.72111
2023-02-16 20:44:02:706,-1.01247,2.80592,-9.31102,-16.8366,-6.55451,-1.72104
2023-02-16 20:44:02:716,-1.03648,2.81498,-9.29905,-16.8402,-6.56121,-1.71937
2023-02-16 20:44:02:725,-1.03478,2.84186,-9.31754,-16.846,-6.56784,-1.71646
2023-02-16 20:44:02:736,-1.02645,2.86464,-9.33617,-16.8491,-6.57098,-1.71231
2023-02-16 20:44:02:746,-1.06303,2.87482,-9.31458,-16.8528,-6.5759,-1.70644
2023-02-16 20:44:02:756,-1.08478,2.88608,-9.28754,-16.8576,-6.5815,-1.70034
2023-02-16 20:44:02:766,-1.10632,2.8856,-9.28618,-16.8607,-6.58896,-1.69084
2023-02-16 20:44:02:776,-1.12174,2.88545,-9.28407,-16.8619,-6.59623,-1.68749
2023-02-16 20:44:02:786,-1.14036,2.87202,-9.26823,-16.8587,-6.5999,-1.68151
2023-02-16 20:44:02:796,-1.15316,2.8412,-9.22963,-16.8504,-6.60517,-1.67832
2023-02-16 20:44:02:806,-1.15567,2.82287,-9.21482,-16.8468,-6.61265,-1.67616
2023-02-16 20:44:02:815,-1.15681,2.82262,-9.22706,-16.8464,-6.61722,-1.67697
2023-02-16 20:44:02:826,-1.16014,2.83605,-9.2421,-16.8479,-6.61444,-1.68006
2023-02-16 20:44:02:835,-1.16227,2.84278,-9.25341,-16.8506,-6.61607,-1.68321
2023-02-16 20:44:02:845,-1.16112,2.84464,-9.29173,-16.8552,-6.61473,-1.68917
2023-02-16 20:44:02:856,-1.15474,2.85516,-9.3011,-16.8629,-6.61164,-1.6937
2023-02-16 20:44:02:866,-1.13366,2.87696,-9.30313,-16.8686,-6.6079,-1.70311
2023-02-16 20:44:02:876,-1.10841,2.89317,-9.31347,-16.8745,-6.60058,-1.71038
2023-02-16 20:44:02:886,-1.11412,2.89246,-9.30139,-16.88,-6.59792,-1.71602
2023-02-16 20:44:02:896,-1.14786,2.88498,-9.28079,-16.8882,-6.59071,-1.72153
2023-02-16 20:44:02:906,-1.15695,2.8744,-9.30085,-16.8963,-6.58372,-1.7336
2023-02-16 20:44:02:916,-1.12465,2.86645,-9.33483,-16.9016,-6.57781,-1.74566
2023-02-16 20:44:02:926,-1.05162,2.85781,-9.33084,-16.9054,-6.57053,-1.75873
2023-02-16 20:44:02:936,-1.02684,2.83622,-9.32575,-16.9053,-6.56818,-1.77197
2023-02-16 20:44:02:946,-1.04702,2.82363,-9.32402,-16.9031,-6.56806,-1.78148
2023-02-16 20:44:02:956,-1.05305,2.82227,-9.30325,-16.9034,-6.56977,-1.79102
2023-02-16 20:44:02:966,-1.05801,2.8227,-9.2892,-16.9009,-6.57303,-1.80057
2023-02-16 20:44:02:976,-1.06676,2.82715,-9.30463,-16.9043,-6.57538,-1.80741
2023-02-16 20:44:02:986,-1.04792,2.83282,-9.2982,-16.9074,-6.57683,-1.80884
2023-02-16 20:44:02:996,-1.0323,2.84309,-9.2976,-16.9095,-6.57747,-1.81222
2023-02-16 20:44:03:6,-1.01339,2.84309,-9.30916,-16.9122,-6.57269,-1.81549
2023-02-16 20:44:03:16,-1.02289,2.84389,-9.29795,-16.9115,-6.57292,-1.81101
2023-02-16 20:44:03:26,-1.04472,2.84208,-9.2823,-16.9122,-6.57148,-1.8066
2023-02-16 20:44:03:36,-1.08442,2.82942,-9.28863,-16.917,-6.57201,-1.80015
2023-02-16 20:44:03:46,-1.10761,2.84987,-9.31869,-16.9204,-6.57126,-1.79507
2023-02-16 20:44:03:56,-1.13231,2.86598,-9.31745,-16.9188,-6.57689,-1.79121
2023-02-16 20:44:03:66,-1.14586,2.869,-9.30913,-16.92,-6.5808,-1.7919
2023-02-16 20:44:03:76,-1.1415,2.85619,-9.30716,-16.9182,-6.58521,-1.79389
2023-02-16 20:44:03:86,-1.10995,2.85946,-9.31164,-16.9176,-6.58993,-1.79961
2023-02-16 20:44:03:96,-1.09819,2.84989,-9.31708,-16.9137,-6.59418,-1.80431
2023-02-16 20:44:03:106,-1.07735,2.8511,-9.3259,-16.913,-6.59883,-1.80957
2023-02-16 20:44:03:116,-1.05472,2.86476,-9.35478,-16.9077,-6.60582,-1.81057
2023-02-16 20:44:03:126,-1.03621,2.85947,-9.34594,-16.8987,-6.61201,-1.81229
2023-02-16 20:44:03:136,-1.04227,2.84671,-9.30636,-16.8883,-6.61661,-1.80953
2023-02-16 20:44:03:146,-1.05732,2.84372,-9.27649,-16.8828,-6.62084,-1.80478
2023-02-16 20:44:03:156,-1.08223,2.84067,-9.26518,-16.879,-6.62739,-1.79632
2023-02-16 20:44:03:166,-1.12238,2.82917,-9.27777,-16.8743,-6.63275,-1.78694
2023-02-16 20:44:03:176,-1.15306,2.83872,-9.27449,-16.8732,-6.63214,-1.77267
2023-02-16 20:44:03:186,-1.17108,2.85186,-9.2854,-16.8704,-6.63419,-1.76556
2023-02-16 20:44:03:196,-1.18077,2.84899,-9.28237,-16.8637,-6.6371,-1.7591
2023-02-16 20:44:03:206,-1.1779,2.84122,-9.28203,-16.8593,-6.64197,-1.75489
2023-02-16 20:44:03:216,-1.17664,2.83878,-9.27636,-16.8484,-6.64651,-1.75479
2023-02-16 20:44:03:226,-1.17384,2.84046,-9.26551,-16.8424,-6.64632,-1.76002
2023-02-16 20:44:03:236,-1.16123,2.82981,-9.26616,-16.8372,-6.65084,-1.76727
2023-02-16 20:44:03:246,-1.13029,2.81156,-9.25325,-16.8315,-6.65408,-1.7742
2023-02-16 20:44:03:256,-1.10411,2.80049,-9.25582,-16.8307,-6.65277,-1.78522
2023-02-16 20:44:03:266,-1.09355,2.8031,-9.28362,-16.8284,-6.65132,-1.79662
2023-02-16 20:44:03:276,-1.07939,2.80907,-9.3113,-16.83,-6.65357,-1.80702
2023-02-16 20:44:03:286,-1.06623,2.8096,-9.32621,-16.8319,-6.65509,-1.81167
2023-02-16 20:44:03:296,-1.05372,2.81046,-9.30866,-16.8319,-6.65585,-1.81491
2023-02-16 20:44:03:306,-1.06273,2.80216,-9.29345,-16.8301,-6.65392,-1.81572
2023-02-16 20:44:03:316,-1.08147,2.80392,-9.29237,-16.829,-6.65098,-1.81324
2023-02-16 20:44:03:326,-1.07764,2.79616,-9.29116,-16.8287,-6.64612,-1.80921
2023-02-16 20:44:03:336,-1.0935,2.79598,-9.27208,-16.8284,-6.64375,-1.80378
2023-02-16 20:44:03:345,-1.10354,2.788,-9.26592,-16.8315,-6.64467,-1.7958
2023-02-16 20:44:03:356,-1.11423,2.80051,-9.25411,-16.8376,-6.64578,-1.78707
2023-02-16 20:44:03:366,-1.14322,2.8199,-9.28629,-16.8434,-6.64188,-1.78055
2023-02-16 20:44:03:376,-1.16074,2.82682,-9.32356,-16.8486,-6.64601,-1.77871
2023-02-16 20:44:03:386,-1.13958,2.83103,-9.31861,-16.8551,-6.64626,-1.77768
2023-02-16 20:44:03:396,-1.13708,2.84306,-9.30798,-16.8565,-6.64579,-1.77952
2023-02-16 20:44:03:406,-1.13935,2.84239,-9.31022,-16.8604,-6.64737,-1.77836
2023-02-16 20:44:03:416,-1.13377,2.84059,-9.29623,-16.8628,-6.64726,-1.781
2023-02-16 20:44:03:426,-1.11735,2.8352,-9.29914,-16.8662,-6.64846,-1.78568
2023-02-16 20:44:03:436,-1.13519,2.83366,-9.30997,-16.866,-6.64974,-1.78962
2023-02-16 20:44:03:446,-1.13918,2.83602,-9.34647,-16.8664,-6.6521,-1.79799
2023-02-16 20:44:03:456,-1.10668,2.86199,-9.39053,-16.8658,-6.6512,-1.80625
2023-02-16 20:44:03:466,-1.04382,2.84426,-9.37584,-16.8605,-6.65386,-1.81332
2023-02-16 20:44:03:476,-1.03431,2.8063,-9.30813,-16.8508,-6.66103,-1.81722
2023-02-16 20:44:03:486,-1.0713,2.80219,-9.27818,-16.8432,-6.66986,-1.81607
2023-02-16 20:44:03:496,-1.10137,2.81865,-9.27292,-16.8424,-6.68165,-1.81076
2023-02-16 20:44:03:506,-1.12199,2.82982,-9.27901,-16.8425,-6.68989,-1.80343
2023-02-16 20:44:03:516,-1.12891,2.82603,-9.29215,-16.8472,-6.69852,-1.7958
2023-02-16 20:44:03:526,-1.14926,2.8398,-9.29225,-16.8465,-6.70219,-1.78854
2023-02-16 20:44:03:536,-1.15611,2.85301,-9.31529,-16.8456,-6.7055,-1.78186
2023-02-16 20:44:03:546,-1.1561,2.85068,-9.31634,-16.844,-6.70719,-1.77522
2023-02-16 20:44:03:556,-1.17416,2.85113,-9.28913,-16.8374,-6.70954,-1.7701
2023-02-16 20:44:03:566,-1.18215,2.82199,-9.25132,-16.8305,-6.71409,-1.76672
2023-02-16 20:44:03:576,-1.19278,2.80755,-9.21145,-16.8264,-6.71686,-1.76256
2023-02-16 20:44:03:586,-1.18512,2.8199,-9.21995,-16.8228,-6.71757,-1.7602
2023-02-16 20:44:03:596,-1.18746,2.83619,-9.24054,-16.8244,-6.71329,-1.76112
2023-02-16 20:44:03:606,-1.15627,2.82687,-9.28343,-16.8216,-6.71087,-1.76314
2023-02-16 20:44:03:616,-1.12339,2.82767,-9.29563,-16.8223,-6.70287,-1.76532
2023-02-16 20:44:03:626,-1.09052,2.82878,-9.32008,-16.8215,-6.69348,-1.76816
2023-02-16 20:44:03:636,-1.07188,2.82585,-9.33763,-16.8191,-6.68566,-1.76266
2023-02-16 20:44:03:646,-1.05874,2.83524,-9.3248,-16.8171,-6.67825,-1.75997
2023-02-16 20:44:03:656,-1.05458,2.8341,-9.32792,-16.8156,-6.67234,-1.75628
2023-02-16 20:44:03:666,-1.07453,2.8457,-9.34084,-16.8136,-6.6654,-1.7546
2023-02-16 20:44:03:675,-1.10293,2.84857,-9.36118,-16.8104,-6.65971,-1.74637
2023-02-16 20:44:03:686,-1.10053,2.88873,-9.40336,-16.806,-6.65492,-1.74004
2023-02-16 20:44:03:696,-1.06686,2.87838,-9.42842,-16.7935,-6.64498,-1.73634
2023-02-16 20:44:03:706,-1.04797,2.84517,-9.3696,-16.7776,-6.63923,-1.73094
2023-02-16 20:44:03:716,-1.07641,2.84463,-9.3336,-16.7573,-6.63486,-1.72597
2023-02-16 20:44:03:726,-1.10664,2.84358,-9.32248,-16.7343,-6.63204,-1.7197
2023-02-16 20:44:03:736,-1.10467,2.81614,-9.27366,-16.7141,-6.63366,-1.71442
2023-02-16 20:44:03:746,-1.11138,2.78135,-9.2524,-16.6934,-6.63919,-1.71071
2023-02-16 20:44:03:756,-1.10013,2.77359,-9.26043,-16.6762,-6.64365,-1.70708
2023-02-16 20:44:03:766,-1.08352,2.77822,-9.28489,-16.6614,-6.6487,-1.70606
2023-02-16 20:44:03:776,-1.06962,2.76927,-9.27201,-16.6461,-6.65315,-1.70073
2023-02-16 20:44:03:786,-1.09325,2.75719,-9.24638,-16.6339,-6.66,-1.69704
2023-02-16 20:44:03:796,-1.091,2.75152,-9.26415,-16.6234,-6.66903,-1.69255
2023-02-16 20:44:03:806,-1.08316,2.76012,-9.2732,-16.6181,-6.67563,-1.68708
2023-02-16 20:44:03:816,-1.09499,2.75486,-9.27824,-16.61,-6.68395,-1.68332
2023-02-16 20:44:03:826,-1.10971,2.7622,-9.261,-16.6072,-6.6909,-1.67805
2023-02-16 20:44:03:836,-1.11687,2.76768,-9.27865,-16.6059,-6.69939,-1.67229
2023-02-16 20:44:03:846,-1.10499,2.77046,-9.30176,-16.6035,-6.70673,-1.66734
2023-02-16 20:44:03:855,-1.09632,2.77957,-9.30709,-16.6048,-6.71517,-1.66408
2023-02-16 20:44:03:866,-1.09807,2.7791,-9.31616,-16.6058,-6.72125,-1.65818
2023-02-16 20:44:03:876,-1.09579,2.7951,-9.31999,-16.6035,-6.72455,-1.65066
2023-02-16 20:44:03:886,-1.10911,2.7827,-9.33781,-16.6019,-6.72728,-1.6453
2023-02-16 20:44:03:896,-1.13269,2.77486,-9.31269,-16.6037,-6.73249,-1.6319
2023-02-16 20:44:03:906,-1.14444,2.77671,-9.30129,-16.6042,-6.73594,-1.61945
2023-02-16 20:44:03:916,-1.15077,2.78529,-9.29072,-16.6066,-6.73577,-1.60746
2023-02-16 20:44:03:926,-1.16874,2.78872,-9.29153,-16.6052,-6.7376,-1.59364
2023-02-16 20:44:03:936,-1.18166,2.79317,-9.29523,-16.6046,-6.7358,-1.58389
2023-02-16 20:44:03:946,-1.18312,2.78059,-9.28565,-16.6065,-6.73777,-1.57585
2023-02-16 20:44:03:956,-1.20405,2.7737,-9.27286,-16.608,-6.73548,-1.56724
2023-02-16 20:44:03:966,-1.19706,2.78322,-9.27655,-16.611,-6.73423,-1.56501
2023-02-16 20:44:03:976,-1.16931,2.79903,-9.28496,-16.6148,-6.73365,-1.56668
2023-02-16 20:44:03:986,-1.16097,2.79369,-9.29266,-16.616,-6.72946,-1.57099
2023-02-16 20:44:03:996,-1.1543,2.78732,-9.29781,-16.6162,-6.72725,-1.57839
2023-02-16 20:44:04:6,-1.12802,2.794,-9.29608,-16.6159,-6.72592,-1.58371
2023-02-16 20:44:04:16,-1.10788,2.7858,-9.31005,-16.6151,-6.72357,-1.59143
2023-02-16 20:44:04:26,-1.10941,2.78696,-9.32539,-16.6147,-6.71889,-1.59401
2023-02-16 20:44:04:36,-1.09865,2.79889,-9.32864,-16.6138,-6.71356,-1.59409
2023-02-16 20:44:04:46,-1.08064,2.79624,-9.33052,-16.6134,-6.70987,-1.59826
2023-02-16 20:44:04:56,-1.07989,2.7969,-9.34863,-16.6107,-6.70728,-1.59959
2023-02-16 20:44:04:66,-1.08745,2.80916,-9.34886,-16.6067,-6.70564,-1.60016
2023-02-16 20:44:04:76,-1.08094,2.79691,-9.33725,-16.6014,-6.70501,-1.60149
2023-02-16 20:44:04:86,-1.06635,2.78024,-9.32636,-16.5942,-6.70343,-1.59761
2023-02-16 20:44:04:96,-1.06771,2.74742,-9.30947,-16.5914,-6.70807,-1.59144
2023-02-16 20:44:04:106,-1.09933,2.74491,-9.27982,-16.5873,-6.71299,-1.58646
2023-02-16 20:44:04:116,-1.11297,2.75824,-9.28641,-16.5832,-6.71927,-1.58277
2023-02-16 20:44:04:126,-1.10653,2.75809,-9.30725,-16.587,-6.72407,-1.57932
2023-02-16 20:44:04:136,-1.11275,2.75562,-9.31407,-16.5848,-6.72589,-1.57489
2023-02-16 20:44:04:146,-1.11306,2.77105,-9.33046,-16.5827,-6.72636,-1.57109
2023-02-16 20:44:04:156,-1.11146,2.77152,-9.32098,-16.5819,-6.73018,-1.56504
2023-02-16 20:44:04:166,-1.11549,2.76926,-9.3133,-16.5784,-6.73091,-1.56013
2023-02-16 20:44:04:176,-1.12928,2.75728,-9.28437,-16.5734,-6.73245,-1.55675
2023-02-16 20:44:04:186,-1.14764,2.76026,-9.27331,-16.5721,-6.73387,-1.54759
2023-02-16 20:44:04:196,-1.14872,2.75956,-9.27947,-16.5712,-6.73837,-1.5406
2023-02-16 20:44:04:206,-1.14075,2.76846,-9.28098,-16.5752,-6.74119,-1.53369
2023-02-16 20:44:04:216,-1.15541,2.74535,-9.27081,-16.5753,-6.74459,-1.52722
2023-02-16 20:44:04:226,-1.16946,2.73328,-9.26695,-16.5732,-6.74619,-1.51846
2023-02-16 20:44:04:236,-1.17471,2.74241,-9.32886,-16.5732,-6.74389,-1.5132
2023-02-16 20:44:04:246,-1.12749,2.77735,-9.39608,-16.5734,-6.74415,-1.50974
2023-02-16 20:44:04:256,-1.07994,2.77288,-9.37602,-16.5746,-6.74867,-1.50679
2023-02-16 20:44:04:266,-1.09272,2.7353,-9.32968,-16.5712,-6.75466,-1.50134
2023-02-16 20:44:04:276,-1.14385,2.75016,-9.31396,-16.5744,-6.76145,-1.49177
2023-02-16 20:44:04:286,-1.17616,2.79034,-9.32007,-16.584,-6.76712,-1.48455
2023-02-16 20:44:04:296,-1.1844,2.81095,-9.31864,-16.5935,-6.773,-1.48036
2023-02-16 20:44:04:306,-1.19126,2.80949,-9.28982,-16.6027,-6.77873,-1.47679
2023-02-16 20:44:04:316,-1.19542,2.8221,-9.26557,-16.6141,-6.78395,-1.47509
2023-02-16 20:44:04:326,-1.21543,2.82567,-9.24874,-16.618,-6.7944,-1.48047
2023-02-16 20:44:04:336,-1.23173,2.80094,-9.22248,-16.6244,-6.79884,-1.48763
