Timestamp,Acceleration_x,Acceleration_y,Acceleration_z,roll,pitch,yaw
2023-02-16 05:36:50:41,-0.979098,1.57769,-9.68994,-8.42946,-6.06921,93.2322
2023-02-16 05:36:50:49,-1.00205,1.56354,-9.68467,-8.42988,-6.08047,93.2385
2023-02-16 05:36:50:59,-1.01131,1.55177,-9.64029,-8.42552,-6.08954,93.2432
2023-02-16 05:36:50:69,-1.0323,1.52708,-9.61795,-8.42039,-6.09614,93.2571
2023-02-16 05:36:50:79,-1.04751,1.5102,-9.62242,-8.41265,-6.09772,93.2754
2023-02-16 05:36:50:89,-1.06438,1.51143,-9.63954,-8.40799,-6.09898,93.294
2023-02-16 05:36:50:99,-1.09788,1.49393,-9.65022,-8.39695,-6.09848,93.3174
2023-02-16 05:36:50:109,-1.13745,1.48407,-9.66915,-8.38448,-6.09998,93.3419
2023-02-16 05:36:50:119,-1.17847,1.47347,-9.68985,-8.36414,-6.10643,93.362
2023-02-16 05:36:50:129,-1.21913,1.45615,-9.67748,-8.34651,-6.11449,93.379
2023-02-16 05:36:50:139,-1.25651,1.44085,-9.63222,-8.32538,-6.12314,93.3899
2023-02-16 05:36:50:149,-1.29536,1.41954,-9.60777,-8.29894,-6.13024,93.3925
2023-02-16 05:36:50:159,-1.32725,1.37439,-9.60761,-8.26661,-6.13919,93.3884
2023-02-16 05:36:50:169,-1.33291,1.33676,-9.62116,-8.23279,-6.14669,93.3756
2023-02-16 05:36:50:179,-1.28513,1.30081,-9.60793,-8.19444,-6.14627,93.3507
2023-02-16 05:36:50:189,-1.22137,1.25432,-9.5845,-8.15562,-6.14537,93.3181
2023-02-16 05:36:50:199,-1.15908,1.21342,-9.55862,-8.11788,-6.144,93.2719
2023-02-16 05:36:50:209,-1.09197,1.19679,-9.54641,-8.08973,-6.14171,93.2256
2023-02-16 05:36:50:219,-1.01163,1.21391,-9.55594,-8.07022,-6.14199,93.1782
2023-02-16 05:36:50:229,-0.978793,1.23579,-9.59843,-8.062,-6.14425,93.1282
2023-02-16 05:36:50:239,-0.988868,1.28979,-9.64371,-8.06022,-6.15281,93.084
2023-02-16 05:36:50:249,-0.988274,1.36572,-9.67421,-8.06185,-6.16093,93.0455
2023-02-16 05:36:50:259,-0.976597,1.40568,-9.66991,-8.06225,-6.16517,93.0152
2023-02-16 05:36:50:269,-0.981169,1.40762,-9.63619,-8.05839,-6.17035,92.9938
2023-02-16 05:36:50:279,-0.976318,1.39307,-9.58999,-8.05656,-6.17211,92.9772
2023-02-16 05:36:50:289,-0.969019,1.38154,-9.54781,-8.05801,-6.16948,92.9644
2023-02-16 05:36:50:300,-0.946701,1.37733,-9.51288,-8.06221,-6.16355,92.9595
2023-02-16 05:36:50:309,-0.92913,1.38256,-9.45928,-8.07647,-6.15594,92.9617
2023-02-16 05:36:50:319,-0.930838,1.38617,-9.44881,-8.09689,-6.15317,92.9684
2023-02-16 05:36:50:329,-0.940691,1.41692,-9.50414,-8.13008,-6.15192,92.9828
2023-02-16 05:36:50:339,-0.950266,1.47553,-9.56463,-8.16689,-6.14983,93.0018
2023-02-16 05:36:50:349,-0.98734,1.5526,-9.67459,-8.20549,-6.15147,93.0255
2023-02-16 05:36:50:359,-1.04201,1.59966,-9.77368,-8.23581,-6.15536,93.0532
2023-02-16 05:36:50:370,-1.08986,1.61769,-9.81304,-8.26259,-6.16436,93.0778
2023-02-16 05:36:50:379,-1.12436,1.62711,-9.83716,-8.27347,-6.16994,93.1009
2023-02-16 05:36:50:389,-1.15457,1.60946,-9.849,-8.27113,-6.16909,93.1213
2023-02-16 05:36:50:399,-1.15749,1.57556,-9.83582,-8.25125,-6.16588,93.1359
2023-02-16 05:36:50:409,-1.13198,1.53469,-9.81454,-8.22277,-6.15457,93.1444
2023-02-16 05:36:50:419,-1.08756,1.46916,-9.77969,-8.18428,-6.13786,93.1441
2023-02-16 05:36:50:429,-1.04244,1.4282,-9.76023,-8.14319,-6.11803,93.1406
2023-02-16 05:36:50:439,-0.988439,1.3756,-9.73334,-8.09818,-6.0994,93.1339
2023-02-16 05:36:50:449,-0.943369,1.32871,-9.70403,-8.04762,-6.08114,93.1278
2023-02-16 05:36:50:459,-0.911861,1.31017,-9.68894,-7.99959,-6.06313,93.1209
2023-02-16 05:36:50:469,-0.903174,1.29194,-9.67149,-7.95234,-6.03953,93.1197
2023-02-16 05:36:50:479,-0.897633,1.26646,-9.63935,-7.90619,-6.02153,93.12
2023-02-16 05:36:50:489,-0.899779,1.25079,-9.57255,-7.85897,-5.99683,93.125
2023-02-16 05:36:50:499,-0.930702,1.20824,-9.51601,-7.81147,-5.97311,93.1326
2023-02-16 05:36:50:509,-0.959418,1.19944,-9.47947,-7.76647,-5.95121,93.1367
2023-02-16 05:36:50:519,-0.991916,1.19516,-9.47286,-7.72652,-5.92922,93.1329
2023-02-16 05:36:50:529,-0.996696,1.1886,-9.50556,-7.69239,-5.91043,93.1256
2023-02-16 05:36:50:539,-1.02011,1.17148,-9.54172,-7.66037,-5.89843,93.1119
2023-02-16 05:36:50:549,-1.04676,1.16545,-9.5622,-7.62791,-5.8898,93.0874
2023-02-16 05:36:50:559,-1.04994,1.16492,-9.55778,-7.60405,-5.88269,93.0522
2023-02-16 05:36:50:569,-1.04626,1.15723,-9.57822,-7.58378,-5.87479,93.0088
2023-02-16 05:36:50:579,-1.0275,1.16627,-9.61254,-7.56633,-5.87492,92.9545
2023-02-16 05:36:50:589,-0.96333,1.17622,-9.62658,-7.55012,-5.86697,92.8928
2023-02-16 05:36:50:599,-0.913203,1.18818,-9.65824,-7.54296,-5.86813,92.8257
2023-02-16 05:36:50:609,-0.851397,1.20258,-9.69548,-7.53881,-5.86685,92.756
2023-02-16 05:36:50:620,-0.778787,1.23575,-9.72399,-7.53814,-5.86843,92.6888
2023-02-16 05:36:50:629,-0.727122,1.24555,-9.74439,-7.53426,-5.87513,92.628
2023-02-16 05:36:50:639,-0.709068,1.23237,-9.72925,-7.52753,-5.88927,92.5757
2023-02-16 05:36:50:649,-0.747087,1.2328,-9.70289,-7.52338,-5.91212,92.5331
2023-02-16 05:36:50:659,-0.782963,1.2574,-9.67221,-7.51833,-5.9412,92.5047
2023-02-16 05:36:50:669,-0.830967,1.28096,-9.628,-7.51645,-5.9705,92.4868
2023-02-16 05:36:50:679,-0.872875,1.2878,-9.62402,-7.51575,-6.00101,92.4817
2023-02-16 05:36:50:689,-0.893381,1.309,-9.62733,-7.51907,-6.03115,92.4906
2023-02-16 05:36:50:699,-0.907511,1.30627,-9.64794,-7.52436,-6.06366,92.506
2023-02-16 05:36:50:709,-0.906488,1.30512,-9.63017,-7.53164,-6.10186,92.5311
2023-02-16 05:36:50:719,-0.930214,1.31481,-9.59914,-7.54083,-6.13853,92.5641
2023-02-16 05:36:50:729,-0.966298,1.32685,-9.59598,-7.55569,-6.18109,92.6137
2023-02-16 05:36:50:739,-0.99212,1.35732,-9.58256,-7.5738,-6.22587,92.6701
2023-02-16 05:36:50:749,-1.03178,1.38973,-9.58806,-7.58989,-6.26859,92.7343
2023-02-16 05:36:50:759,-1.08703,1.4194,-9.60614,-7.60522,-6.31315,92.8081
2023-02-16 05:36:50:770,-1.17227,1.44274,-9.65154,-7.62278,-6.35246,92.8881
2023-02-16 05:36:50:779,-1.19567,1.45959,-9.65764,-7.63112,-6.38301,92.9741
2023-02-16 05:36:50:789,-1.20998,1.43491,-9.63456,-7.63675,-6.40528,93.0627
2023-02-16 05:36:50:799,-1.22726,1.41397,-9.5842,-7.6405,-6.42147,93.1553
2023-02-16 05:36:50:809,-1.24934,1.40715,-9.56364,-7.64458,-6.43153,93.2468
2023-02-16 05:36:50:820,-1.264,1.4021,-9.58238,-7.64438,-6.43845,93.3366
2023-02-16 05:36:50:829,-1.26579,1.41264,-9.61966,-7.64796,-6.4372,93.4245
2023-02-16 05:36:50:839,-1.27972,1.41373,-9.65337,-7.65121,-6.43004,93.5085
2023-02-16 05:36:50:849,-1.2734,1.42411,-9.64869,-7.65698,-6.41645,93.588
2023-02-16 05:36:50:859,-1.24483,1.42341,-9.64769,-7.65886,-6.40259,93.6595
2023-02-16 05:36:50:869,-1.2625,1.42422,-9.66569,-7.65772,-6.38889,93.7182
2023-02-16 05:36:50:879,-1.26297,1.4181,-9.68018,-7.65317,-6.37612,93.7704
2023-02-16 05:36:50:889,-1.23152,1.41224,-9.68421,-7.64818,-6.35788,93.8149
2023-02-16 05:36:50:900,-1.18888,1.39662,-9.66218,-7.63937,-6.34355,93.8451
2023-02-16 05:36:50:909,-1.17464,1.37921,-9.66621,-7.63109,-6.33378,93.8655
2023-02-16 05:36:50:919,-1.15584,1.35523,-9.65753,-7.62461,-6.32807,93.8757
2023-02-16 05:36:50:929,-1.12009,1.32022,-9.63605,-7.60926,-6.32833,93.8808
2023-02-16 05:36:50:940,-1.09398,1.30899,-9.61785,-7.5983,-6.32883,93.8794
2023-02-16 05:36:50:949,-1.05178,1.2923,-9.6221,-7.58614,-6.33268,93.8702
2023-02-16 05:36:50:959,-1.00254,1.29346,-9.66149,-7.57778,-6.33698,93.8591
2023-02-16 05:36:50:969,-0.98627,1.29057,-9.67309,-7.56759,-6.34244,93.8458
2023-02-16 05:36:50:979,-1.01242,1.27733,-9.64159,-7.55967,-6.35393,93.8388
2023-02-16 05:36:50:990,-1.03621,1.27444,-9.63061,-7.55002,-6.36458,93.8312
2023-02-16 05:36:50:999,-1.04012,1.26294,-9.62459,-7.54269,-6.3724,93.8287
2023-02-16 05:36:51:9,-1.04373,1.26061,-9.5941,-7.53269,-6.37689,93.8263
2023-02-16 05:36:51:19,-1.03579,1.26003,-9.5855,-7.5219,-6.37672,93.829
2023-02-16 05:36:51:29,-1.0373,1.2306,-9.59735,-7.51247,-6.37751,93.8301
2023-02-16 05:36:51:39,-1.03873,1.22005,-9.60401,-7.50294,-6.37912,93.8348
2023-02-16 05:36:51:49,-1.04197,1.21462,-9.61118,-7.49934,-6.38389,93.8375
2023-02-16 05:36:51:60,-1.052,1.20769,-9.61493,-7.49798,-6.39214,93.8455
2023-02-16 05:36:51:69,-1.05776,1.2036,-9.62557,-7.49851,-6.39732,93.8516
2023-02-16 05:36:51:79,-1.06504,1.21702,-9.64122,-7.50204,-6.40214,93.858
2023-02-16 05:36:51:89,-1.08219,1.22556,-9.6354,-7.50684,-6.4076,93.8663
2023-02-16 05:36:51:100,-1.09577,1.23477,-9.61511,-7.51443,-6.41381,93.8747
2023-02-16 05:36:51:109,-1.09454,1.22946,-9.62734,-7.52607,-6.41893,93.8836
2023-02-16 05:36:51:119,-1.1061,1.2619,-9.64086,-7.53772,-6.42115,93.8942
2023-02-16 05:36:51:129,-1.11093,1.2885,-9.65255,-7.55235,-6.42375,93.9047
2023-02-16 05:36:51:139,-1.09572,1.29192,-9.64777,-7.56284,-6.42619,93.9133
2023-02-16 05:36:51:149,-1.10497,1.30554,-9.64807,-7.57456,-6.42838,93.9228
2023-02-16 05:36:51:159,-1.10761,1.31024,-9.64084,-7.58636,-6.43187,93.9316
2023-02-16 05:36:51:169,-1.10262,1.31186,-9.63961,-7.59773,-6.4386,93.943
2023-02-16 05:36:51:179,-1.12375,1.33624,-9.62774,-7.60836,-6.44629,93.954
2023-02-16 05:36:51:189,-1.12029,1.34633,-9.60754,-7.62251,-6.45246,93.9659
2023-02-16 05:36:51:199,-1.13075,1.35344,-9.58994,-7.63314,-6.45699,93.9751
2023-02-16 05:36:51:209,-1.14244,1.35763,-9.61231,-7.64629,-6.4585,93.9838
2023-02-16 05:36:51:219,-1.145,1.37022,-9.63307,-7.65148,-6.45816,93.9951
2023-02-16 05:36:51:229,-1.15646,1.37177,-9.65982,-7.66133,-6.45552,94.0066
2023-02-16 05:36:51:239,-1.16011,1.37893,-9.66729,-7.6676,-6.45497,94.0148
2023-02-16 05:36:51:249,-1.15554,1.38802,-9.67322,-7.66902,-6.45707,94.0228
2023-02-16 05:36:51:259,-1.14841,1.38436,-9.68035,-7.67007,-6.4563,94.0294
2023-02-16 05:36:51:269,-1.15258,1.36921,-9.66919,-7.66868,-6.4555,94.0345
2023-02-16 05:36:51:279,-1.1313,1.36501,-9.64472,-7.67192,-6.45766,94.0379
2023-02-16 05:36:51:289,-1.1234,1.34525,-9.63821,-7.67295,-6.45668,94.04
2023-02-16 05:36:51:300,-1.11293,1.34882,-9.63501,-7.67578,-6.45492,94.0414
2023-02-16 05:36:51:309,-1.1004,1.36696,-9.64318,-7.68153,-6.45241,94.0427
2023-02-16 05:36:51:319,-1.09773,1.37858,-9.66316,-7.6849,-6.4514,94.0438
2023-02-16 05:36:51:329,-1.10845,1.37443,-9.68152,-7.68179,-6.44651,94.0477
2023-02-16 05:36:51:339,-1.10883,1.38478,-9.69131,-7.68149,-6.44284,94.0523
2023-02-16 05:36:51:349,-1.08345,1.3699,-9.68785,-7.68057,-6.4365,94.0571
2023-02-16 05:36:51:359,-1.07249,1.35922,-9.64928,-7.67753,-6.42983,94.0656
2023-02-16 05:36:51:369,-1.07452,1.35171,-9.61513,-7.67523,-6.42402,94.0797
2023-02-16 05:36:51:379,-1.07521,1.32068,-9.61529,-7.67355,-6.42226,94.0922
2023-02-16 05:36:51:389,-1.08918,1.30619,-9.61183,-7.6716,-6.42299,94.1064
2023-02-16 05:36:51:399,-1.11169,1.29861,-9.59605,-7.67107,-6.42614,94.1223
2023-02-16 05:36:51:409,-1.10832,1.28842,-9.62696,-7.67335,-6.43266,94.1336
2023-02-16 05:36:51:419,-1.10885,1.30998,-9.66975,-7.67766,-6.44392,94.1456
2023-02-16 05:36:51:429,-1.12806,1.3207,-9.68251,-7.67945,-6.45933,94.1538
2023-02-16 05:36:51:439,-1.1403,1.29511,-9.67252,-7.67855,-6.47871,94.1608
2023-02-16 05:36:51:449,-1.13109,1.26845,-9.6995,-7.676,-6.49475,94.1648
2023-02-16 05:36:51:459,-1.13071,1.24115,-9.70513,-7.66743,-6.51104,94.1696
2023-02-16 05:36:51:469,-1.12819,1.22515,-9.67067,-7.65641,-6.52225,94.1717
2023-02-16 05:36:51:479,-1.10659,1.19664,-9.66726,-7.64082,-6.53085,94.1687
2023-02-16 05:36:51:489,-1.05489,1.16236,-9.67679,-7.61948,-6.53782,94.1642
2023-02-16 05:36:51:499,-0.994469,1.13724,-9.68395,-7.59772,-6.54118,94.1569
2023-02-16 05:36:51:509,-0.976554,1.10714,-9.66874,-7.57092,-6.54412,94.1466
2023-02-16 05:36:51:519,-0.954735,1.0825,-9.64206,-7.53944,-6.54266,94.1375
2023-02-16 05:36:51:529,-0.895454,1.05503,-9.64286,-7.51087,-6.53736,94.1322
2023-02-16 05:36:51:539,-0.833343,1.02571,-9.64345,-7.48282,-6.52655,94.1231
2023-02-16 05:36:51:549,-0.778997,1.00378,-9.61063,-7.45984,-6.51699,94.1159
2023-02-16 05:36:51:559,-0.742917,0.980788,-9.57875,-7.44587,-6.51368,94.1176
2023-02-16 05:36:51:569,-0.749214,0.978343,-9.56292,-7.43942,-6.51433,94.122
2023-02-16 05:36:51:579,-0.7612,1.0048,-9.57349,-7.4489,-6.52155,94.138
2023-02-16 05:36:51:589,-0.75594,1.02902,-9.59257,-7.46481,-6.52971,94.1634
2023-02-16 05:36:51:599,-0.786192,1.0657,-9.59568,-7.488,-6.54866,94.195
2023-02-16 05:36:51:609,-0.808024,1.09235,-9.61077,-7.5178,-6.57375,94.241
2023-02-16 05:36:51:619,-0.838312,1.12819,-9.62979,-7.55581,-6.59989,94.2938
2023-02-16 05:36:51:629,-0.876651,1.16557,-9.6144,-7.59616,-6.62979,94.3568
2023-02-16 05:36:51:639,-0.921047,1.19274,-9.59167,-7.63708,-6.66828,94.4301
2023-02-16 05:36:51:649,-0.999237,1.23166,-9.593,-7.67996,-6.70982,94.5065
2023-02-16 05:36:51:659,-1.08146,1.28129,-9.57681,-7.73048,-6.75846,94.5904
2023-02-16 05:36:51:669,-1.17502,1.32625,-9.57387,-7.78274,-6.80861,94.6801
2023-02-16 05:36:51:679,-1.24707,1.34696,-9.58726,-7.8341,-6.85873,94.7692
2023-02-16 05:36:51:689,-1.28951,1.41463,-9.62466,-7.89118,-6.90848,94.8616
2023-02-16 05:36:51:699,-1.29421,1.46647,-9.65035,-7.94462,-6.95411,94.9505
2023-02-16 05:36:51:709,-1.29613,1.48518,-9.63484,-7.99435,-6.99491,95.0422
2023-02-16 05:36:51:719,-1.30321,1.49415,-9.58392,-8.03736,-7.03386,95.1337
2023-02-16 05:36:51:729,-1.31612,1.48839,-9.57061,-8.08328,-7.06565,95.2276
2023-02-16 05:36:51:739,-1.32102,1.50782,-9.6088,-8.12844,-7.09696,95.3162
2023-02-16 05:36:51:749,-1.31413,1.54223,-9.6265,-8.17208,-7.12941,95.4061
2023-02-16 05:36:51:759,-1.31471,1.55464,-9.62931,-8.21884,-7.15911,95.4943
2023-02-16 05:36:51:769,-1.3065,1.56314,-9.57775,-8.26367,-7.18612,95.5791
2023-02-16 05:36:51:779,-1.3189,1.55032,-9.52448,-8.30485,-7.21421,95.6605
2023-02-16 05:36:51:789,-1.37442,1.56076,-9.51956,-8.34454,-7.24259,95.7381
2023-02-16 05:36:51:799,-1.40343,1.57672,-9.5475,-8.38593,-7.26496,95.8084
2023-02-16 05:36:51:809,-1.3713,1.57628,-9.5859,-8.42138,-7.28507,95.8773
2023-02-16 05:36:51:819,-1.32923,1.57008,-9.60116,-8.45427,-7.29791,95.9374
2023-02-16 05:36:51:829,-1.34776,1.56117,-9.60205,-8.48183,-7.31,95.9932
2023-02-16 05:36:51:839,-1.35462,1.53768,-9.57062,-8.50839,-7.32615,96.0417
2023-02-16 05:36:51:849,-1.33063,1.5411,-9.57511,-8.53123,-7.34637,96.0825
2023-02-16 05:36:51:859,-1.34241,1.56162,-9.62866,-8.55796,-7.36617,96.1191
2023-02-16 05:36:51:869,-1.36068,1.57941,-9.64762,-8.58148,-7.38906,96.1528
2023-02-16 05:36:51:879,-1.37935,1.57328,-9.62151,-8.59908,-7.41056,96.1826
2023-02-16 05:36:51:889,-1.39583,1.59529,-9.64637,-8.6194,-7.42545,96.2089
2023-02-16 05:36:51:899,-1.4081,1.62605,-9.65791,-8.63433,-7.43891,96.2287
2023-02-16 05:36:51:909,-1.40261,1.61567,-9.64266,-8.64479,-7.44764,96.2463
2023-02-16 05:36:51:919,-1.38644,1.6232,-9.61357,-8.65386,-7.45167,96.2593
2023-02-16 05:36:51:929,-1.35882,1.60381,-9.57115,-8.66433,-7.45405,96.2717
2023-02-16 05:36:51:939,-1.33977,1.59183,-9.51643,-8.67376,-7.45704,96.2779
2023-02-16 05:36:51:949,-1.34354,1.58071,-9.51333,-8.68658,-7.45647,96.2842
2023-02-16 05:36:51:959,-1.32214,1.579,-9.54747,-8.6959,-7.45301,96.2846
2023-02-16 05:36:51:969,-1.29371,1.58518,-9.59049,-8.70737,-7.44978,96.2849
2023-02-16 05:36:51:979,-1.29314,1.60485,-9.62841,-8.71824,-7.44365,96.2805
2023-02-16 05:36:51:989,-1.29439,1.61906,-9.67651,-8.72565,-7.43858,96.2699
2023-02-16 05:36:51:999,-1.28655,1.61924,-9.73706,-8.72549,-7.43217,96.2581
2023-02-16 05:36:52:9,-1.30471,1.62197,-9.77682,-8.71894,-7.4335,96.2436
2023-02-16 05:36:52:19,-1.31931,1.6004,-9.75634,-8.70555,-7.43742,96.2322
2023-02-16 05:36:52:29,-1.33427,1.57403,-9.69145,-8.68853,-7.44463,96.2166
2023-02-16 05:36:52:39,-1.33155,1.52257,-9.64951,-8.66589,-7.44767,96.1988
2023-02-16 05:36:52:49,-1.29917,1.48239,-9.63349,-8.63865,-7.44505,96.1776
2023-02-16 05:36:52:59,-1.25769,1.46674,-9.60609,-8.61059,-7.43887,96.1553
2023-02-16 05:36:52:69,-1.22643,1.44899,-9.59212,-8.58298,-7.43446,96.1333
2023-02-16 05:36:52:79,-1.19926,1.42551,-9.59164,-8.55061,-7.432,96.1198
2023-02-16 05:36:52:89,-1.1856,1.41484,-9.60301,-8.52263,-7.43424,96.105
2023-02-16 05:36:52:99,-1.20718,1.42795,-9.62785,-8.48717,-7.43895,96.0944
2023-02-16 05:36:52:109,-1.24803,1.43704,-9.66269,-8.45289,-7.44725,96.0876
2023-02-16 05:36:52:119,-1.28981,1.43438,-9.71443,-8.41454,-7.45907,96.0792
2023-02-16 05:36:52:129,-1.31089,1.44049,-9.7316,-8.36972,-7.47146,96.0741
2023-02-16 05:36:52:139,-1.33317,1.44042,-9.68812,-8.32168,-7.48355,96.0724
2023-02-16 05:36:52:149,-1.35975,1.39684,-9.60962,-8.26413,-7.49382,96.0679
2023-02-16 05:36:52:160,-1.40827,1.35576,-9.54942,-8.20766,-7.50863,96.0635
2023-02-16 05:36:52:169,-1.4483,1.34577,-9.54385,-8.15427,-7.52305,96.0554
2023-02-16 05:36:52:179,-1.48651,1.34849,-9.542,-8.10497,-7.53682,96.0402
2023-02-16 05:36:52:189,-1.51023,1.33605,-9.56279,-8.05905,-7.54897,96.0186
2023-02-16 05:36:52:199,-1.53734,1.3219,-9.58695,-8.00877,-7.55893,95.9896
2023-02-16 05:36:52:209,-1.51761,1.32666,-9.65592,-7.95572,-7.56089,95.9541
2023-02-16 05:36:52:219,-1.50361,1.32754,-9.69779,-7.9025,-7.56353,95.9106
2023-02-16 05:36:52:229,-1.47327,1.32183,-9.72258,-7.84401,-7.56803,95.8646
2023-02-16 05:36:52:239,-1.44346,1.33028,-9.74106,-7.78049,-7.56677,95.8116
2023-02-16 05:36:52:249,-1.44188,1.31412,-9.72639,-7.7107,-7.56588,95.7509
2023-02-16 05:36:52:259,-1.42901,1.28462,-9.67468,-7.63133,-7.56316,95.6883
2023-02-16 05:36:52:269,-1.39679,1.26874,-9.61536,-7.55102,-7.55566,95.6217
2023-02-16 05:36:52:279,-1.3589,1.22443,-9.55312,-7.47003,-7.54444,95.5488
2023-02-16 05:36:52:290,-1.31169,1.17375,-9.47439,-7.39068,-7.53366,95.4729
2023-02-16 05:36:52:299,-1.28327,1.13444,-9.43805,-7.32059,-7.52133,95.4009
2023-02-16 05:36:52:309,-1.2686,1.10897,-9.42557,-7.25651,-7.50963,95.3263
2023-02-16 05:36:52:319,-1.25126,1.11878,-9.43295,-7.20245,-7.49378,95.2502
2023-02-16 05:36:52:329,-1.27806,1.136,-9.49622,-7.16067,-7.47665,95.1773
2023-02-16 05:36:52:339,-1.29029,1.16936,-9.55607,-7.12081,-7.46035,95.1049
2023-02-16 05:36:52:349,-1.26731,1.18779,-9.61038,-7.08335,-7.43488,95.0357
2023-02-16 05:36:52:359,-1.25844,1.20368,-9.65997,-7.04615,-7.40541,94.9652
2023-02-16 05:36:52:369,-1.2921,1.2379,-9.70167,-7.00902,-7.37647,94.8952
2023-02-16 05:36:52:379,-1.28893,1.2456,-9.71189,-6.96691,-7.34555,94.8257
2023-02-16 05:36:52:389,-1.25554,1.22894,-9.69096,-6.92376,-7.31624,94.7547
2023-02-16 05:36:52:399,-1.24217,1.20003,-9.6038,-6.87948,-7.28882,94.6829
2023-02-16 05:36:52:409,-1.21958,1.17037,-9.5431,-6.83945,-7.26045,94.609
2023-02-16 05:36:52:419,-1.16609,1.14144,-9.5453,-6.80357,-7.23814,94.5327
2023-02-16 05:36:52:429,-1.14893,1.136,-9.54513,-6.77345,-7.21756,94.4585
2023-02-16 05:36:52:439,-1.16145,1.12514,-9.5072,-6.74546,-7.19149,94.3847
2023-02-16 05:36:52:449,-1.16844,1.10731,-9.50055,-6.72099,-7.16529,94.3139
2023-02-16 05:36:52:459,-1.19914,1.14303,-9.57581,-6.70339,-7.13918,94.2416
2023-02-16 05:36:52:469,-1.21004,1.19206,-9.71504,-6.68518,-7.11061,94.1686
2023-02-16 05:36:52:479,-1.15839,1.21439,-9.81453,-6.66084,-7.08311,94.0958
2023-02-16 05:36:52:489,-1.11871,1.19169,-9.81793,-6.63252,-7.05624,94.022
2023-02-16 05:36:52:499,-1.1225,1.15281,-9.75561,-6.59721,-7.03229,93.9449
2023-02-16 05:36:52:509,-1.12888,1.11506,-9.70243,-6.5625,-7.01817,93.8688
2023-02-16 05:36:52:519,-1.11719,1.08639,-9.64747,-6.53242,-7.00139,93.7926
2023-02-16 05:36:52:529,-1.10885,1.07858,-9.59095,-6.50261,-6.98446,93.7177
2023-02-16 05:36:52:540,-1.08636,1.05945,-9.557,-6.47666,-6.96709,93.6472
2023-02-16 05:36:52:549,-1.0509,1.03664,-9.53299,-6.45353,-6.94524,93.5805
2023-02-16 05:36:52:559,-1.04416,1.04075,-9.54217,-6.43905,-6.92397,93.5184
2023-02-16 05:36:52:569,-1.06037,1.05152,-9.58288,-6.43037,-6.90215,93.461
2023-02-16 05:36:52:579,-1.08467,1.06987,-9.61295,-6.42201,-6.88036,93.4088
2023-02-16 05:36:52:589,-1.09876,1.06605,-9.61928,-6.41052,-6.85901,93.3609
2023-02-16 05:36:52:599,-1.09867,1.06404,-9.65207,-6.3996,-6.83557,93.3171
2023-02-16 05:36:52:609,-1.08694,1.05886,-9.66895,-6.39165,-6.80728,93.2752
2023-02-16 05:36:52:619,-1.0563,1.04678,-9.65647,-6.37975,-6.78825,93.2334
2023-02-16 05:36:52:629,-1.05067,1.03799,-9.63246,-6.3722,-6.76896,93.1966
2023-02-16 05:36:52:639,-1.05296,1.01635,-9.60124,-6.36702,-6.74588,93.1628
2023-02-16 05:36:52:649,-1.02068,0.99106,-9.56534,-6.36582,-6.72704,93.133
2023-02-16 05:36:52:660,-1.01519,0.977052,-9.55364,-6.36738,-6.70776,93.1073
2023-02-16 05:36:52:669,-1.01514,0.981698,-9.57484,-6.38158,-6.68564,93.087
2023-02-16 05:36:52:679,-1.01804,1.00804,-9.63054,-6.40049,-6.66658,93.0697
2023-02-16 05:36:52:689,-1.04049,1.04349,-9.67853,-6.42651,-6.64255,93.0575
2023-02-16 05:36:52:700,-1.0629,1.07852,-9.69803,-6.45361,-6.61744,93.0492
2023-02-16 05:36:52:710,-1.05503,1.10917,-9.69616,-6.48025,-6.59578,93.0447
2023-02-16 05:36:52:719,-1.04054,1.08298,-9.65211,-6.50253,-6.57484,93.0452
2023-02-16 05:36:52:729,-1.04476,1.06053,-9.62078,-6.52216,-6.55739,93.047
2023-02-16 05:36:52:739,-1.06715,1.06356,-9.62195,-6.54891,-6.5359,93.0513
2023-02-16 05:36:52:749,-1.10029,1.08878,-9.63407,-6.57613,-6.51724,93.0562
2023-02-16 05:36:52:759,-1.05951,1.10978,-9.63776,-6.60504,-6.49463,93.0631
2023-02-16 05:36:52:769,-1.03471,1.10859,-9.65757,-6.63517,-6.47126,93.0676
2023-02-16 05:36:52:779,-1.04199,1.12234,-9.67331,-6.66549,-6.45139,93.0716
2023-02-16 05:36:52:789,-1.07876,1.1544,-9.68153,-6.69442,-6.43527,93.0735
2023-02-16 05:36:52:799,-1.075,1.17424,-9.69846,-6.72027,-6.41828,93.0761
2023-02-16 05:36:52:809,-1.04834,1.19573,-9.71987,-6.74926,-6.39719,93.0814
2023-02-16 05:36:52:819,-1.04344,1.21429,-9.72554,-6.77834,-6.38276,93.0857
2023-02-16 05:36:52:829,-1.04565,1.21376,-9.70976,-6.80344,-6.36538,93.0919
2023-02-16 05:36:52:839,-1.04573,1.2091,-9.68142,-6.8251,-6.3511,93.0959
2023-02-16 05:36:52:849,-1.02276,1.19254,-9.65633,-6.85011,-6.33262,93.1016
2023-02-16 05:36:52:860,-0.982851,1.19008,-9.65609,-6.87253,-6.31697,93.1054
2023-02-16 05:36:52:869,-0.925695,1.19878,-9.6857,-6.89419,-6.30043,93.1158
2023-02-16 05:36:52:879,-0.896341,1.19886,-9.69672,-6.91126,-6.2885,93.1299
2023-02-16 05:36:52:889,-0.905047,1.19458,-9.6807,-6.92882,-6.28128,93.1459
2023-02-16 05:36:52:900,-0.931179,1.19828,-9.67704,-6.94338,-6.27495,93.1704
2023-02-16 05:36:52:910,-0.976103,1.21274,-9.69215,-6.9565,-6.2714,93.199
2023-02-16 05:36:52:919,-1.04386,1.23292,-9.71285,-6.97147,-6.2753,93.2297
2023-02-16 05:36:52:929,-1.06329,1.22575,-9.71545,-6.98304,-6.27847,93.2599
2023-02-16 05:36:52:939,-1.04184,1.22298,-9.74228,-6.99467,-6.28411,93.2875
2023-02-16 05:36:52:949,-0.981044,1.24057,-9.77296,-7.00313,-6.2931,93.312
2023-02-16 05:36:52:959,-0.964322,1.23308,-9.74696,-7.00812,-6.3031,93.3386
2023-02-16 05:36:52:969,-0.994442,1.2062,-9.67689,-7.01096,-6.31695,93.3692
2023-02-16 05:36:52:979,-1.03992,1.20197,-9.6083,-7.0139,-6.33024,93.4026
2023-02-16 05:36:52:989,-1.07672,1.21926,-9.58868,-7.02214,-6.33748,93.4441
2023-02-16 05:36:52:999,-1.09759,1.23189,-9.58334,-7.02836,-6.3438,93.4871
2023-02-16 05:36:53:9,-1.12617,1.24443,-9.587,-7.0381,-6.34144,93.533
2023-02-16 05:36:53:19,-1.14877,1.25345,-9.59054,-7.04842,-6.34153,93.5787
2023-02-16 05:36:53:29,-1.15435,1.24899,-9.59768,-7.05934,-6.33647,93.6228
2023-02-16 05:36:53:39,-1.14335,1.25776,-9.61521,-7.07155,-6.33394,93.6659
2023-02-16 05:36:53:49,-1.1373,1.26268,-9.64135,-7.08573,-6.33248,93.7097
2023-02-16 05:36:53:60,-1.13826,1.27728,-9.66121,-7.09879,-6.33062,93.7448
2023-02-16 05:36:53:69,-1.16467,1.27668,-9.65526,-7.11065,-6.33052,93.7823
2023-02-16 05:36:53:79,-1.17717,1.26954,-9.64372,-7.11695,-6.32988,93.8119
2023-02-16 05:36:53:89,-1.19989,1.27717,-9.63119,-7.12376,-6.32746,93.8387
2023-02-16 05:36:53:99,-1.20672,1.27071,-9.647,-7.12981,-6.32357,93.8576
2023-02-16 05:36:53:110,-1.20513,1.29448,-9.66247,-7.13194,-6.31656,93.872
2023-02-16 05:36:53:119,-1.18575,1.29658,-9.68273,-7.138,-6.30779,93.8823
2023-02-16 05:36:53:129,-1.15943,1.30072,-9.68805,-7.14311,-6.29822,93.8849
2023-02-16 05:36:53:139,-1.11235,1.29384,-9.68924,-7.1416,-6.29021,93.8784
2023-02-16 05:36:53:149,-1.07155,1.27403,-9.67098,-7.14134,-6.28482,93.8741
2023-02-16 05:36:53:159,-1.06533,1.26616,-9.66249,-7.13625,-6.2781,93.8646
2023-02-16 05:36:53:169,-1.02983,1.2575,-9.6547,-7.13049,-6.27181,93.8559
2023-02-16 05:36:53:179,-1.00311,1.24327,-9.6308,-7.12508,-6.26208,93.8507
2023-02-16 05:36:53:190,-0.995996,1.22798,-9.63891,-7.12234,-6.25599,93.8434
2023-02-16 05:36:53:199,-0.98818,1.21774,-9.65753,-7.11778,-6.24674,93.8349
2023-02-16 05:36:53:209,-0.999849,1.23321,-9.66633,-7.11515,-6.2403,93.8326
2023-02-16 05:36:53:219,-1.01618,1.23667,-9.65344,-7.11451,-6.23488,93.8286
2023-02-16 05:36:53:229,-1.02501,1.2395,-9.67015,-7.11203,-6.23234,93.8263
2023-02-16 05:36:53:239,-1.04045,1.24055,-9.68007,-7.11346,-6.22822,93.827
2023-02-16 05:36:53:249,-1.04091,1.22238,-9.68159,-7.10862,-6.22405,93.8293
2023-02-16 05:36:53:259,-1.0422,1.22012,-9.68395,-7.10269,-6.21942,93.8298
2023-02-16 05:36:53:269,-1.05915,1.19536,-9.6804,-7.09569,-6.21902,93.831
2023-02-16 05:36:53:279,-1.06278,1.18882,-9.66605,-7.08738,-6.21376,93.8291
2023-02-16 05:36:53:290,-1.05215,1.17853,-9.63957,-7.08205,-6.21072,93.8262
2023-02-16 05:36:53:299,-1.04385,1.1583,-9.63274,-7.07831,-6.206,93.8237
2023-02-16 05:36:53:309,-1.02922,1.16814,-9.64683,-7.07485,-6.20428,93.8212
2023-02-16 05:36:53:319,-1.01761,1.18881,-9.65825,-7.07147,-6.20657,93.8154
2023-02-16 05:36:53:329,-1.01976,1.18094,-9.61931,-7.06823,-6.20473,93.8114
2023-02-16 05:36:53:340,-1.04948,1.16679,-9.58168,-7.06449,-6.20483,93.8068
2023-02-16 05:36:53:349,-1.04638,1.15294,-9.60956,-7.0628,-6.20321,93.8075
2023-02-16 05:36:53:359,-1.02572,1.16566,-9.6656,-7.06394,-6.19843,93.8095
2023-02-16 05:36:53:369,-0.982711,1.17396,-9.69449,-7.067,-6.19197,93.8129
2023-02-16 05:36:53:379,-0.97625,1.15454,-9.71808,-7.06692,-6.19143,93.8116
2023-02-16 05:36:53:390,-0.983222,1.16086,-9.69815,-7.06867,-6.19659,93.816
2023-02-16 05:36:53:399,-0.999381,1.16491,-9.67212,-7.07024,-6.20085,93.8212
2023-02-16 05:36:53:409,-1.03198,1.16043,-9.65804,-7.07653,-6.20895,93.8269
2023-02-16 05:36:53:419,-1.06558,1.16506,-9.61705,-7.07925,-6.21652,93.833
2023-02-16 05:36:53:429,-1.05944,1.17204,-9.58671,-7.08463,-6.21725,93.8418
2023-02-16 05:36:53:439,-1.04138,1.18468,-9.59054,-7.09447,-6.21709,93.854
2023-02-16 05:36:53:449,-1.05106,1.2031,-9.62291,-7.1042,-6.21456,93.8616
2023-02-16 05:36:53:459,-1.06962,1.22075,-9.67142,-7.11745,-6.21316,93.876
2023-02-16 05:36:53:469,-1.08377,1.22252,-9.70204,-7.1268,-6.21188,93.8868
2023-02-16 05:36:53:479,-1.1016,1.22915,-9.67234,-7.13579,-6.20951,93.8997
2023-02-16 05:36:53:489,-1.09647,1.22819,-9.63173,-7.14751,-6.20803,93.9117
2023-02-16 05:36:53:500,-1.08794,1.20522,-9.61678,-7.15452,-6.20532,93.9195
2023-02-16 05:36:53:510,-1.0808,1.20126,-9.59094,-7.16944,-6.20447,93.9228
2023-02-16 05:36:53:519,-1.07395,1.19064,-9.5852,-7.18626,-6.20058,93.9227
2023-02-16 05:36:53:529,-1.06515,1.2073,-9.57775,-7.20606,-6.19484,93.9172
2023-02-16 05:36:53:540,-1.04561,1.22246,-9.5988,-7.22673,-6.18689,93.9106
2023-02-16 05:36:53:549,-1.0542,1.24608,-9.65337,-7.25051,-6.17894,93.9018
2023-02-16 05:36:53:559,-1.04818,1.28228,-9.68956,-7.27524,-6.1708,93.8868
2023-02-16 05:36:53:569,-1.02,1.29045,-9.70182,-7.29679,-6.16132,93.8732
2023-02-16 05:36:53:579,-1.02151,1.28346,-9.68279,-7.31397,-6.15416,93.8604
2023-02-16 05:36:53:589,-1.00407,1.28373,-9.66106,-7.32888,-6.14986,93.8409
2023-02-16 05:36:53:599,-0.978437,1.27307,-9.59789,-7.34912,-6.14562,93.823
2023-02-16 05:36:53:609,-0.991187,1.27013,-9.59506,-7.37377,-6.14179,93.8032
2023-02-16 05:36:53:619,-1.01076,1.30211,-9.63674,-7.39604,-6.14174,93.7844
2023-02-16 05:36:53:629,-0.998951,1.30642,-9.69109,-7.42281,-6.13723,93.7674
2023-02-16 05:36:53:639,-0.947116,1.29801,-9.70376,-7.44387,-6.13408,93.7468
2023-02-16 05:36:53:649,-0.932178,1.29994,-9.6933,-7.46136,-6.13242,93.7264
2023-02-16 05:36:53:659,-0.9313,1.30452,-9.7021,-7.47998,-6.13614,93.7063
2023-02-16 05:36:53:669,-0.914347,1.28807,-9.70486,-7.49706,-6.1429,93.6886
2023-02-16 05:36:53:679,-0.903633,1.27222,-9.68275,-7.51187,-6.15686,93.6754
2023-02-16 05:36:53:690,-0.937951,1.28158,-9.6722,-7.53219,-6.17245,93.6677
2023-02-16 05:36:53:699,-0.997499,1.30121,-9.68118,-7.55277,-6.1894,93.665
2023-02-16 05:36:53:710,-1.03406,1.32035,-9.66011,-7.57771,-6.2014,93.6658
2023-02-16 05:36:53:719,-1.06039,1.31474,-9.64796,-7.59709,-6.21195,93.6686
2023-02-16 05:36:53:729,-1.10081,1.32147,-9.61569,-7.61699,-6.21664,93.6769
2023-02-16 05:36:53:740,-1.10371,1.32381,-9.61363,-7.63339,-6.22095,93.6829
2023-02-16 05:36:53:749,-1.10816,1.32901,-9.62449,-7.65243,-6.2268,93.6875
2023-02-16 05:36:53:759,-1.14316,1.32245,-9.63172,-7.67017,-6.23261,93.6897
2023-02-16 05:36:53:769,-1.15907,1.30277,-9.64647,-7.68826,-6.23812,93.6866
2023-02-16 05:36:53:779,-1.15282,1.30524,-9.64784,-7.70314,-6.24635,93.6825
2023-02-16 05:36:53:789,-1.13466,1.28709,-9.63228,-7.71876,-6.25156,93.6714
2023-02-16 05:36:53:799,-1.12573,1.28477,-9.6115,-7.73418,-6.25549,93.6589
2023-02-16 05:36:53:809,-1.11403,1.28249,-9.58662,-7.74931,-6.26113,93.6423
2023-02-16 05:36:53:819,-1.10103,1.26391,-9.58398,-7.76744,-6.26324,93.6262
2023-02-16 05:36:53:829,-1.04906,1.24637,-9.56358,-7.78896,-6.2615,93.6097
2023-02-16 05:36:53:839,-1.03212,1.26457,-9.58536,-7.81591,-6.2657,93.593
2023-02-16 05:36:53:849,-1.04177,1.3077,-9.62605,-7.84481,-6.26923,93.5775
2023-02-16 05:36:53:860,-1.06977,1.32453,-9.66764,-7.87384,-6.27171,93.5643
2023-02-16 05:36:53:869,-1.09775,1.34758,-9.67006,-7.90257,-6.27368,93.5513
2023-02-16 05:36:53:879,-1.09337,1.34676,-9.64219,-7.9305,-6.27028,93.5404
2023-02-16 05:36:53:889,-1.10066,1.35123,-9.61283,-7.95866,-6.26494,93.5331
2023-02-16 05:36:53:899,-1.09539,1.35459,-9.60447,-7.99092,-6.25547,93.5271
2023-02-16 05:36:53:910,-1.08468,1.34711,-9.59788,-8.02049,-6.24686,93.5241
2023-02-16 05:36:53:919,-1.10021,1.35396,-9.58168,-8.05243,-6.23692,93.5223
2023-02-16 05:36:53:929,-1.08314,1.36612,-9.57973,-8.08438,-6.22757,93.5225
2023-02-16 05:36:53:939,-1.07588,1.38106,-9.60797,-8.11495,-6.21482,93.5213
2023-02-16 05:36:53:949,-1.08952,1.40486,-9.6387,-8.14945,-6.20206,93.5186
2023-02-16 05:36:53:959,-1.12899,1.43493,-9.68754,-8.18158,-6.19156,93.5157
2023-02-16 05:36:53:969,-1.14077,1.46078,-9.71383,-8.20807,-6.18174,93.5173
2023-02-16 05:36:53:979,-1.12912,1.4553,-9.69786,-8.22929,-6.16038,93.5127
2023-02-16 05:36:53:989,-1.12967,1.44935,-9.65789,-8.24801,-6.14656,93.5064
2023-02-16 05:36:53:999,-1.11307,1.43666,-9.64185,-8.26418,-6.1316,93.4967
2023-02-16 05:36:54:9,-1.09584,1.44467,-9.62194,-8.2792,-6.11678,93.4871
2023-02-16 05:36:54:19,-1.0761,1.41599,-9.64164,-8.2981,-6.10067,93.4739
2023-02-16 05:36:54:29,-1.04831,1.43798,-9.6711,-8.31261,-6.08206,93.4578
2023-02-16 05:36:54:39,-1.01521,1.45722,-9.72543,-8.32109,-6.06365,93.4398
2023-02-16 05:36:54:49,-0.988828,1.4543,-9.7618,-8.32934,-6.04594,93.4194
2023-02-16 05:36:54:60,-0.985912,1.45948,-9.766,-8.33177,-6.0311,93.4005
2023-02-16 05:36:54:69,-0.986909,1.45994,-9.73702,-8.32643,-6.02003,93.3825
2023-02-16 05:36:54:79,-0.9905,1.43434,-9.69968,-8.32113,-6.01034,93.3614
2023-02-16 05:36:54:89,-0.978238,1.40988,-9.66008,-8.30779,-6.0029,93.3407
2023-02-16 05:36:54:99,-0.94993,1.39474,-9.61842,-8.29829,-5.99496,93.3226
2023-02-16 05:36:54:110,-0.930415,1.37076,-9.60982,-8.2855,-5.9815,93.3054
2023-02-16 05:36:54:119,-0.910032,1.35088,-9.61181,-8.27682,-5.97682,93.2871
2023-02-16 05:36:54:129,-0.897808,1.33726,-9.57972,-8.26864,-5.97737,93.2695
2023-02-16 05:36:54:139,-0.926083,1.33132,-9.55773,-8.26454,-5.98394,93.2564
2023-02-16 05:36:54:149,-0.970486,1.3413,-9.57249,-8.26301,-6.00007,93.2448
2023-02-16 05:36:54:159,-1.03611,1.35596,-9.58041,-8.26626,-6.02087,93.235
2023-02-16 05:36:54:169,-1.072,1.36737,-9.58463,-8.2755,-6.04352,93.2284
2023-02-16 05:36:54:179,-1.10621,1.36742,-9.56609,-8.28292,-6.06069,93.2183
2023-02-16 05:36:54:189,-1.12196,1.36,-9.56013,-8.29695,-6.07314,93.2035
2023-02-16 05:36:54:199,-1.10171,1.38483,-9.59577,-8.3118,-6.08306,93.1865
2023-02-16 05:36:54:209,-1.02883,1.40333,-9.6441,-8.32867,-6.08855,93.1644
2023-02-16 05:36:54:219,-0.993133,1.38753,-9.61526,-8.34664,-6.10216,93.1418
2023-02-16 05:36:54:229,-1.01376,1.37919,-9.57329,-8.36278,-6.11797,93.1183
2023-02-16 05:36:54:239,-1.04873,1.37977,-9.5696,-8.37988,-6.13332,93.0988
2023-02-16 05:36:54:249,-1.04508,1.40219,-9.60269,-8.39989,-6.14652,93.0788
2023-02-16 05:36:54:259,-0.997914,1.41231,-9.65486,-8.42048,-6.15242,93.0586
2023-02-16 05:36:54:269,-0.951637,1.42123,-9.66407,-8.444,-6.15779,93.0416
2023-02-16 05:36:54:279,-0.960548,1.42182,-9.63982,-8.46494,-6.16476,93.0313
2023-02-16 05:36:54:289,-0.984701,1.42454,-9.61889,-8.48547,-6.17327,93.0241
2023-02-16 05:36:54:299,-0.998438,1.43391,-9.64112,-8.51136,-6.18264,93.0211
2023-02-16 05:36:54:309,-1.03048,1.46393,-9.67525,-8.53606,-6.19796,93.0196
2023-02-16 05:36:54:319,-1.06826,1.52629,-9.6849,-8.56111,-6.21391,93.019
2023-02-16 05:36:54:329,-1.07448,1.54249,-9.6523,-8.58591,-6.22712,93.0194
2023-02-16 05:36:54:339,-1.09075,1.55505,-9.61259,-8.60793,-6.22925,93.0249
2023-02-16 05:36:54:349,-1.08397,1.5596,-9.58558,-8.62714,-6.22875,93.0305
2023-02-16 05:36:54:359,-1.03549,1.55767,-9.56814,-8.64099,-6.22756,93.034
2023-02-16 05:36:54:369,-1.01027,1.55505,-9.59679,-8.65102,-6.22351,93.0388
2023-02-16 05:36:54:379,-0.997119,1.56549,-9.64762,-8.65908,-6.21792,93.0446
2023-02-16 05:36:54:389,-0.994392,1.55715,-9.70052,-8.66342,-6.21475,93.0527
2023-02-16 05:36:54:399,-1.00727,1.54551,-9.73239,-8.66165,-6.21097,93.0643
2023-02-16 05:36:54:409,-1.03732,1.52714,-9.7121,-8.65428,-6.20772,93.0784
2023-02-16 05:36:54:419,-1.06022,1.4853,-9.67797,-8.64362,-6.20335,93.0964
2023-02-16 05:36:54:429,-1.06231,1.47103,-9.65783,-8.63193,-6.1935,93.1119
2023-02-16 05:36:54:439,-1.05618,1.45283,-9.60553,-8.62088,-6.17718,93.1282
2023-02-16 05:36:54:449,-1.02847,1.43007,-9.59605,-8.60963,-6.15705,93.1416
2023-02-16 05:36:54:459,-1.01066,1.40147,-9.57256,-8.60025,-6.141,93.1528
2023-02-16 05:36:54:469,-1.05739,1.40163,-9.57183,-8.5938,-6.12667,93.1638
2023-02-16 05:36:54:479,-1.09517,1.40662,-9.57657,-8.59063,-6.11635,93.1713
2023-02-16 05:36:54:489,-1.06716,1.40068,-9.57911,-8.59201,-6.11006,93.1717
2023-02-16 05:36:54:499,-1.03907,1.41612,-9.59523,-8.60111,-6.10779,93.1677
2023-02-16 05:36:54:509,-1.04535,1.42828,-9.63028,-8.6094,-6.10682,93.1589
2023-02-16 05:36:54:519,-1.02692,1.4333,-9.64486,-8.61387,-6.10905,93.1418
2023-02-16 05:36:54:529,-0.98766,1.43551,-9.6314,-8.61897,-6.11256,93.1236
2023-02-16 05:36:54:539,-0.914237,1.41343,-9.61802,-8.61849,-6.11253,93.1041
2023-02-16 05:36:54:549,-0.852223,1.405,-9.614,-8.61924,-6.11612,93.0863
2023-02-16 05:36:54:559,-0.860792,1.39116,-9.60937,-8.61719,-6.12471,93.0713
2023-02-16 05:36:54:569,-0.87082,1.38844,-9.5871,-8.62034,-6.13457,93.0614
2023-02-16 05:36:54:579,-0.89031,1.39019,-9.58804,-8.6266,-6.14734,93.0583
2023-02-16 05:36:54:589,-0.91267,1.42195,-9.60526,-8.63932,-6.16214,93.065
2023-02-16 05:36:54:599,-0.945249,1.45161,-9.62446,-8.65741,-6.17499,93.078
2023-02-16 05:36:54:609,-0.964898,1.48061,-9.65865,-8.67403,-6.18651,93.0957
2023-02-16 05:36:54:619,-0.999396,1.53349,-9.7116,-8.6925,-6.20317,93.1186
2023-02-16 05:36:54:629,-1.02561,1.57672,-9.71812,-8.70254,-6.21671,93.1481
2023-02-16 05:36:54:639,-1.08369,1.57387,-9.70037,-8.71024,-6.23218,93.1778
2023-02-16 05:36:54:649,-1.12523,1.56269,-9.67141,-8.7109,-6.24776,93.2103
2023-02-16 05:36:54:659,-1.14457,1.55911,-9.64587,-8.70744,-6.26269,93.2419
2023-02-16 05:36:54:669,-1.15366,1.52371,-9.59958,-8.7029,-6.27715,93.2717
2023-02-16 05:36:54:679,-1.17109,1.49002,-9.57009,-8.69585,-6.29674,93.2953
2023-02-16 05:36:54:689,-1.18284,1.49293,-9.56673,-8.69519,-6.31537,93.3182
2023-02-16 05:36:54:699,-1.18687,1.51034,-9.56411,-8.69553,-6.33528,93.3363
2023-02-16 05:36:54:710,-1.18996,1.5182,-9.59455,-8.69806,-6.34691,93.35
2023-02-16 05:36:54:719,-1.17681,1.54653,-9.66365,-8.701,-6.35599,93.3594
2023-02-16 05:36:54:729,-1.14874,1.56509,-9.68043,-8.7008,-6.36094,93.3686
2023-02-16 05:36:54:739,-1.10506,1.54191,-9.65456,-8.69705,-6.36325,93.375
2023-02-16 05:36:54:749,-1.06966,1.52854,-9.64365,-8.69042,-6.36532,93.3806
2023-02-16 05:36:54:759,-1.03548,1.50809,-9.61623,-8.6785,-6.36591,93.3841
2023-02-16 05:36:54:769,-1.01152,1.47212,-9.57126,-8.66817,-6.3725,93.3928
2023-02-16 05:36:54:780,-1.00919,1.4563,-9.56431,-8.66005,-6.38108,93.4043
2023-02-16 05:36:54:790,-1.04704,1.45107,-9.57517,-8.65335,-6.38884,93.4176
2023-02-16 05:36:54:799,-1.08287,1.46448,-9.59126,-8.64774,-6.39513,93.435
2023-02-16 05:36:54:809,-1.10815,1.48089,-9.62378,-8.64626,-6.39937,93.4528
2023-02-16 05:36:54:819,-1.12052,1.50115,-9.63747,-8.64436,-6.40488,93.4711
2023-02-16 05:36:54:829,-1.13455,1.50151,-9.63108,-8.63944,-6.4073,93.4896
2023-02-16 05:36:54:839,-1.13354,1.48092,-9.60899,-8.63594,-6.40836,93.5071
2023-02-16 05:36:54:849,-1.11419,1.46911,-9.62374,-8.6337,-6.40694,93.5209
2023-02-16 05:36:54:860,-1.07678,1.46849,-9.60197,-8.62869,-6.40564,93.5278
2023-02-16 05:36:54:869,-1.05262,1.43564,-9.56911,-8.62409,-6.4101,93.5396
2023-02-16 05:36:54:879,-1.04038,1.42928,-9.57334,-8.62198,-6.41134,93.549
2023-02-16 05:36:54:889,-1.02227,1.44414,-9.60176,-8.62675,-6.41735,93.5592
2023-02-16 05:36:54:899,-0.986883,1.43673,-9.58725,-8.62846,-6.42603,93.5703
2023-02-16 05:36:54:909,-0.983985,1.41367,-9.57417,-8.62478,-6.43575,93.5876
2023-02-16 05:36:54:919,-1.01304,1.40886,-9.59235,-8.62937,-6.44646,93.6095
2023-02-16 05:36:54:929,-1.01208,1.41047,-9.61307,-8.63366,-6.45725,93.6357
2023-02-16 05:36:54:940,-1.03727,1.4122,-9.62556,-8.63697,-6.4687,93.6648
2023-02-16 05:36:54:949,-1.07578,1.43076,-9.67135,-8.64595,-6.48026,93.6969
2023-02-16 05:36:54:959,-1.10242,1.46621,-9.71033,-8.64947,-6.49511,93.7353
2023-02-16 05:36:54:970,-1.12315,1.47324,-9.70081,-8.6514,-6.51198,93.775
2023-02-16 05:36:54:980,-1.15898,1.47568,-9.67335,-8.64647,-6.52486,93.8167
2023-02-16 05:36:54:990,-1.18059,1.49781,-9.6721,-8.63845,-6.53787,93.8602
2023-02-16 05:36:54:999,-1.20492,1.53532,-9.75417,-8.63069,-6.55727,93.8978
2023-02-16 05:36:55:9,-1.222,1.57647,-9.81256,-8.61329,-6.57935,93.9317
2023-02-16 05:36:55:19,-1.21918,1.58552,-9.80256,-8.58781,-6.60284,93.9587
2023-02-16 05:36:55:29,-1.21184,1.53275,-9.67245,-8.55482,-6.62912,93.9868
2023-02-16 05:36:55:39,-1.22354,1.47356,-9.53,-8.51844,-6.65753,94.012
2023-02-16 05:36:55:49,-1.23694,1.44192,-9.43182,-8.48719,-6.68656,94.0318
2023-02-16 05:36:55:59,-1.26291,1.42385,-9.40289,-8.46415,-6.71151,94.0453
2023-02-16 05:36:55:69,-1.28338,1.40686,-9.41217,-8.45197,-6.73098,94.0536
2023-02-16 05:36:55:79,-1.31023,1.39831,-9.4069,-8.44534,-6.74568,94.0581
2023-02-16 05:36:55:89,-1.31566,1.40875,-9.41485,-8.44711,-6.75446,94.0581
2023-02-16 05:36:55:100,-1.2794,1.44074,-9.49922,-8.46052,-6.75791,94.0488
2023-02-16 05:36:55:109,-1.23052,1.4637,-9.59164,-8.47577,-6.75648,94.0365
2023-02-16 05:36:55:119,-1.18837,1.47711,-9.56934,-8.48766,-6.75378,94.0229
2023-02-16 05:36:55:129,-1.18176,1.46972,-9.5408,-8.50169,-6.74716,94.0102
2023-02-16 05:36:55:140,-1.167,1.47661,-9.59431,-8.51817,-6.7393,93.9912
2023-02-16 05:36:55:149,-1.11851,1.47097,-9.6223,-8.53102,-6.73105,93.9783
2023-02-16 05:36:55:159,-1.08564,1.46014,-9.63411,-8.54309,-6.71872,93.9678
2023-02-16 05:36:55:169,-1.07057,1.45751,-9.64376,-8.54878,-6.7083,93.9593
2023-02-16 05:36:55:180,-1.07929,1.4294,-9.63946,-8.55519,-6.70432,93.9465
2023-02-16 05:36:55:190,-1.07751,1.43054,-9.63705,-8.56214,-6.70136,93.9372
2023-02-16 05:36:55:199,-1.06993,1.42792,-9.61463,-8.57638,-6.70329,93.9328
2023-02-16 05:36:55:209,-1.10171,1.4217,-9.56656,-8.5904,-6.70515,93.9317
2023-02-16 05:36:55:219,-1.16835,1.43979,-9.53479,-8.61496,-6.70496,93.9383
2023-02-16 05:36:55:229,-1.1717,1.47287,-9.58044,-8.64398,-6.70309,93.9422
2023-02-16 05:36:55:239,-1.16084,1.5231,-9.64737,-8.66837,-6.70181,93.947
2023-02-16 05:36:55:249,-1.14079,1.55313,-9.68425,-8.68874,-6.69921,93.9561
2023-02-16 05:36:55:259,-1.14624,1.54492,-9.67806,-8.70437,-6.69643,93.9694
2023-02-16 05:36:55:269,-1.17172,1.53478,-9.61906,-8.71376,-6.69451,93.9841
2023-02-16 05:36:55:279,-1.19835,1.51593,-9.53632,-8.72231,-6.69373,94.0007
2023-02-16 05:36:55:289,-1.23624,1.50965,-9.52104,-8.73292,-6.69401,94.0167
2023-02-16 05:36:55:299,-1.26637,1.52724,-9.55707,-8.74644,-6.68411,94.0289
2023-02-16 05:36:55:310,-1.29404,1.53406,-9.60592,-8.75631,-6.67845,94.0361
2023-02-16 05:36:55:319,-1.3064,1.54617,-9.61478,-8.76273,-6.66656,94.0421
2023-02-16 05:36:55:329,-1.28738,1.55348,-9.62515,-8.76775,-6.64757,94.0458
2023-02-16 05:36:55:339,-1.25953,1.55593,-9.65232,-8.77227,-6.62501,94.0423
2023-02-16 05:36:55:349,-1.20818,1.54299,-9.65839,-8.77349,-6.60159,94.0325
2023-02-16 05:36:55:359,-1.15133,1.52324,-9.64492,-8.77215,-6.57935,94.0218
2023-02-16 05:36:55:369,-1.13481,1.50378,-9.61318,-8.77169,-6.55642,94.0084
2023-02-16 05:36:55:379,-1.14901,1.48157,-9.53866,-8.76991,-6.53478,93.9921
2023-02-16 05:36:55:389,-1.13233,1.45615,-9.45812,-8.77019,-6.51385,93.9756
2023-02-16 05:36:55:399,-1.12969,1.44068,-9.41716,-8.77661,-6.49121,93.9534
2023-02-16 05:36:55:409,-1.1173,1.45139,-9.46344,-8.79163,-6.46557,93.93
2023-02-16 05:36:55:419,-1.11975,1.47937,-9.59804,-8.81497,-6.4372,93.9018
2023-02-16 05:36:55:429,-1.0654,1.54144,-9.72236,-8.83775,-6.40505,93.8684
2023-02-16 05:36:55:439,-1.00162,1.48421,-9.67266,-8.85048,-6.37502,93.8358
2023-02-16 05:36:55:449,-1.00174,1.52528,-9.7214,-8.86362,-6.34761,93.8047
2023-02-16 05:36:55:460,-0.945231,1.55794,-9.7732,-8.87563,-6.32373,93.7693
2023-02-16 05:36:55:469,-0.919921,1.54198,-9.70278,-8.87706,-6.30554,93.7369
2023-02-16 05:36:55:479,-0.956258,1.49621,-9.575,-8.87763,-6.28956,93.7102
2023-02-16 05:36:55:489,-0.97532,1.47294,-9.48484,-8.88201,-6.27373,93.6865
2023-02-16 05:36:55:499,-0.95049,1.48486,-9.48824,-8.89606,-6.25833,93.6627
2023-02-16 05:36:55:510,-0.966156,1.4992,-9.54058,-8.91387,-6.24386,93.6355
2023-02-16 05:36:55:519,-0.965621,1.52407,-9.62121,-8.93094,-6.2262,93.6147
2023-02-16 05:36:55:529,-0.932694,1.54046,-9.66969,-8.95082,-6.20772,93.5937
2023-02-16 05:36:55:540,-0.932786,1.53546,-9.65303,-8.96663,-6.19099,93.5736
2023-02-16 05:36:55:549,-0.936269,1.52239,-9.61218,-8.97803,-6.18156,93.5574
2023-02-16 05:36:55:559,-0.953591,1.50767,-9.5961,-8.99204,-6.17239,93.5424
2023-02-16 05:36:55:569,-0.967134,1.5223,-9.61056,-9.00926,-6.16946,93.5269
2023-02-16 05:36:55:579,-0.959548,1.55378,-9.67776,-9.02659,-6.16946,93.5121
2023-02-16 05:36:55:589,-0.969109,1.58056,-9.68769,-9.0379,-6.17451,93.4996
2023-02-16 05:36:55:599,-1.00684,1.54418,-9.60977,-9.04589,-6.18303,93.4943
2023-02-16 05:36:55:609,-1.02986,1.52037,-9.58799,-9.05455,-6.1898,93.4923
2023-02-16 05:36:55:619,-1.00174,1.55614,-9.64981,-9.06837,-6.19458,93.4935
2023-02-16 05:36:55:629,-1.00804,1.58682,-9.70501,-9.08236,-6.19811,93.4953
2023-02-16 05:36:55:639,-1.01369,1.56865,-9.70104,-9.09328,-6.20587,93.499
2023-02-16 05:36:55:649,-1.00749,1.55052,-9.66101,-9.0984,-6.21249,93.5049
2023-02-16 05:36:55:660,-1.0324,1.52314,-9.60363,-9.10296,-6.22322,93.5152
2023-02-16 05:36:55:669,-1.04786,1.52352,-9.58367,-9.10752,-6.23337,93.5268
2023-02-16 05:36:55:679,-1.07033,1.53026,-9.58136,-9.11353,-6.23776,93.5437
2023-02-16 05:36:55:690,-1.07864,1.54499,-9.58387,-9.12163,-6.2445,93.5601
2023-02-16 05:36:55:699,-1.10303,1.53512,-9.58503,-9.12723,-6.24756,93.5789
2023-02-16 05:36:55:710,-1.15943,1.5599,-9.62141,-9.13632,-6.25137,93.5991
2023-02-16 05:36:55:719,-1.1703,1.60343,-9.6732,-9.14224,-6.24879,93.6172
2023-02-16 05:36:55:729,-1.13841,1.59316,-9.64468,-9.14295,-6.24762,93.6323
2023-02-16 05:36:55:740,-1.13477,1.56659,-9.57633,-9.13565,-6.24074,93.6489
2023-02-16 05:36:55:749,-1.14467,1.56351,-9.60169,-9.13489,-6.2336,93.6621
2023-02-16 05:36:55:759,-1.09818,1.57909,-9.621,-9.13116,-6.22626,93.669
2023-02-16 05:36:55:769,-1.04631,1.52945,-9.54354,-9.12533,-6.21904,93.6716
2023-02-16 05:36:55:780,-1.05568,1.52465,-9.5306,-9.12589,-6.20619,93.6798
2023-02-16 05:36:55:790,-1.05858,1.54293,-9.60338,-9.13103,-6.20158,93.6795
2023-02-16 05:36:55:799,-1.03751,1.56712,-9.64909,-9.13648,-6.19566,93.6758
2023-02-16 05:36:55:809,-1.05308,1.57512,-9.66098,-9.14084,-6.18651,93.6701
2023-02-16 05:36:55:819,-1.07246,1.57866,-9.67832,-9.14374,-6.18177,93.6653
2023-02-16 05:36:55:829,-1.0553,1.57878,-9.67485,-9.13983,-6.17803,93.6579
2023-02-16 05:36:55:839,-1.0411,1.57651,-9.63685,-9.13509,-6.17824,93.6526
2023-02-16 05:36:55:849,-1.04291,1.55882,-9.59186,-9.1258,-6.18075,93.6445
2023-02-16 05:36:55:860,-1.04204,1.53072,-9.59676,-9.1199,-6.18639,93.6347
2023-02-16 05:36:55:869,-1.03731,1.5254,-9.58046,-9.11334,-6.19515,93.6237
2023-02-16 05:36:55:879,-1.02184,1.52915,-9.5524,-9.11038,-6.20286,93.6127
2023-02-16 05:36:55:889,-1.01201,1.52925,-9.54999,-9.11189,-6.20664,93.603
2023-02-16 05:36:55:899,-1.01732,1.54884,-9.58834,-9.11636,-6.209,93.597
2023-02-16 05:36:55:910,-1.0043,1.59641,-9.63644,-9.12361,-6.21533,93.5893
2023-02-16 05:36:55:919,-0.992711,1.60569,-9.66013,-9.12101,-6.21777,93.584
2023-02-16 05:36:55:929,-0.996914,1.59517,-9.65096,-9.11759,-6.21833,93.5825
2023-02-16 05:36:55:939,-1.00336,1.57381,-9.60484,-9.11146,-6.22061,93.5842
2023-02-16 05:36:55:949,-1.00936,1.55126,-9.58584,-9.10635,-6.22433,93.5881
2023-02-16 05:36:55:959,-1.00856,1.54207,-9.57184,-9.10168,-6.22875,93.5976
2023-02-16 05:36:55:969,-1.01555,1.55328,-9.56241,-9.10245,-6.23369,93.6023
2023-02-16 05:36:55:980,-1.01866,1.54452,-9.55576,-9.10464,-6.23918,93.6072
2023-02-16 05:36:55:990,-1.02299,1.52735,-9.55636,-9.10845,-6.25009,93.6107
2023-02-16 05:36:55:999,-1.05519,1.53034,-9.61358,-9.11447,-6.25904,93.6132
2023-02-16 05:36:56:9,-1.06724,1.55542,-9.66641,-9.11872,-6.26921,93.6147
2023-02-16 05:36:56:19,-1.06013,1.56513,-9.67571,-9.11818,-6.28055,93.6167
2023-02-16 05:36:56:29,-1.06659,1.55856,-9.68599,-9.11515,-6.29277,93.6203
2023-02-16 05:36:56:39,-1.06727,1.56143,-9.69875,-9.11386,-6.30969,93.6255
2023-02-16 05:36:56:49,-1.07339,1.56683,-9.66284,-9.10426,-6.3276,93.6349
2023-02-16 05:36:56:60,-1.10876,1.54742,-9.62033,-9.09643,-6.34426,93.6436
2023-02-16 05:36:56:69,-1.13534,1.54569,-9.57338,-9.0889,-6.35893,93.6509
2023-02-16 05:36:56:79,-1.14052,1.53584,-9.5193,-9.08318,-6.37321,93.6626
2023-02-16 05:36:56:90,-1.13665,1.51247,-9.4952,-9.08029,-6.382,93.6702
2023-02-16 05:36:56:100,-1.13301,1.5262,-9.50245,-9.07881,-6.38833,93.6811
2023-02-16 05:36:56:110,-1.13806,1.52653,-9.52131,-9.08093,-6.3897,93.6915
2023-02-16 05:36:56:119,-1.13356,1.53218,-9.5166,-9.08634,-6.3914,93.7016
2023-02-16 05:36:56:129,-1.13701,1.54017,-9.5205,-9.08815,-6.39013,93.7083
2023-02-16 05:36:56:140,-1.13525,1.54708,-9.55967,-9.09355,-6.38422,93.7134
2023-02-16 05:36:56:149,-1.14475,1.54719,-9.61695,-9.09619,-6.38274,93.7206
2023-02-16 05:36:56:159,-1.11833,1.5503,-9.63055,-9.09587,-6.38008,93.7238
2023-02-16 05:36:56:169,-1.09713,1.54367,-9.63886,-9.09767,-6.37548,93.7265
2023-02-16 05:36:56:179,-1.09394,1.53459,-9.67406,-9.09435,-6.3697,93.7258
2023-02-16 05:36:56:189,-1.0802,1.54538,-9.70997,-9.088,-6.36342,93.7257
2023-02-16 05:36:56:199,-1.05267,1.57122,-9.73936,-9.08744,-6.35824,93.7247
2023-02-16 05:36:56:209,-1.03233,1.55921,-9.70729,-9.0784,-6.35479,93.7228
2023-02-16 05:36:56:220,-1.05263,1.55081,-9.65137,-9.0668,-6.3484,93.7254
2023-02-16 05:36:56:229,-1.0406,1.54201,-9.59821,-9.0545,-6.34808,93.7271
2023-02-16 05:36:56:239,-0.998579,1.5433,-9.54817,-9.05167,-6.3457,93.7276
2023-02-16 05:36:56:249,-1.02626,1.53878,-9.48934,-9.04618,-6.34685,93.7327
2023-02-16 05:36:56:260,-1.0617,1.54411,-9.51246,-9.04779,-6.35188,93.7379
2023-02-16 05:36:56:269,-1.05397,1.53992,-9.52615,-9.0527,-6.3603,93.7437
2023-02-16 05:36:56:279,-1.05681,1.54385,-9.52646,-9.0591,-6.36652,93.7459
2023-02-16 05:36:56:289,-1.03088,1.54929,-9.53893,-9.06947,-6.37082,93.7473
2023-02-16 05:36:56:299,-1.03265,1.54847,-9.57332,-9.0815,-6.37994,93.7474
2023-02-16 05:36:56:310,-1.01707,1.55997,-9.59968,-9.09372,-6.38806,93.7475
2023-02-16 05:36:56:319,-1.02349,1.56426,-9.60487,-9.10685,-6.40029,93.7541
2023-02-16 05:36:56:329,-1.064,1.56629,-9.57817,-9.11835,-6.41126,93.7624
2023-02-16 05:36:56:340,-1.11137,1.57725,-9.56872,-9.1315,-6.41726,93.7774
2023-02-16 05:36:56:349,-1.11697,1.59776,-9.60115,-9.14851,-6.42178,93.7912
2023-02-16 05:36:56:359,-1.10938,1.60997,-9.6198,-9.1646,-6.42087,93.8093
2023-02-16 05:36:56:369,-1.11839,1.62649,-9.6176,-9.18171,-6.41341,93.8281
2023-02-16 05:36:56:379,-1.10832,1.62959,-9.61196,-9.19564,-6.40684,93.8457
2023-02-16 05:36:56:389,-1.09459,1.62698,-9.62873,-9.20868,-6.39835,93.861
2023-02-16 05:36:56:399,-1.10065,1.63373,-9.62585,-9.22075,-6.39083,93.8767
2023-02-16 05:36:56:409,-1.10432,1.62062,-9.61041,-9.22943,-6.38516,93.888
2023-02-16 05:36:56:419,-1.10595,1.63849,-9.63135,-9.2414,-6.38229,93.897
2023-02-16 05:36:56:429,-1.13181,1.67737,-9.70366,-9.25031,-6.3812,93.9017
2023-02-16 05:36:56:439,-1.13441,1.67876,-9.76159,-9.25045,-6.3871,93.9055
2023-02-16 05:36:56:449,-1.12533,1.67264,-9.75581,-9.24269,-6.39239,93.9055
2023-02-16 05:36:56:459,-1.12333,1.66601,-9.74241,-9.22768,-6.39833,93.904
2023-02-16 05:36:56:469,-1.09782,1.63879,-9.70731,-9.20481,-6.3991,93.9019
2023-02-16 05:36:56:479,-1.05574,1.59207,-9.63553,-9.17768,-6.40031,93.9019
2023-02-16 05:36:56:489,-1.03831,1.5515,-9.57545,-9.15015,-6.39774,93.9041
2023-02-16 05:36:56:499,-1.02846,1.5243,-9.5268,-9.12244,-6.39321,93.9124
2023-02-16 05:36:56:510,-1.03028,1.52755,-9.5311,-9.10082,-6.38807,93.9255
2023-02-16 05:36:56:519,-1.03756,1.53863,-9.5495,-9.08402,-6.38386,93.9414
2023-02-16 05:36:56:529,-1.04831,1.52793,-9.55404,-9.07076,-6.37948,93.9623
2023-02-16 05:36:56:539,-1.1027,1.53079,-9.54294,-9.05618,-6.3763,93.9799
2023-02-16 05:36:56:549,-1.16488,1.54431,-9.53392,-9.04613,-6.37228,93.9961
2023-02-16 05:36:56:560,-1.19368,1.54928,-9.56351,-9.03794,-6.36596,94.0128
2023-02-16 05:36:56:569,-1.1942,1.54691,-9.55887,-9.03071,-6.36212,94.024
2023-02-16 05:36:56:579,-1.19548,1.54482,-9.52817,-9.02602,-6.35583,94.0297
2023-02-16 05:36:56:589,-1.17659,1.53441,-9.52766,-9.02334,-6.34974,94.032
2023-02-16 05:36:56:599,-1.14725,1.5365,-9.54916,-9.02206,-6.34402,94.027
2023-02-16 05:36:56:609,-1.11513,1.53904,-9.56444,-9.0231,-6.33967,94.022
2023-02-16 05:36:56:619,-1.0987,1.54753,-9.59769,-9.02466,-6.33188,94.0125
2023-02-16 05:36:56:629,-1.07093,1.55311,-9.62438,-9.0242,-6.32945,94.0007
2023-02-16 05:36:56:639,-1.06139,1.55422,-9.61629,-9.02495,-6.32227,93.9888
2023-02-16 05:36:56:649,-1.0585,1.55848,-9.6458,-9.02707,-6.31489,93.9782
2023-02-16 05:36:56:659,-1.04159,1.58269,-9.67743,-9.02388,-6.30783,93.9675
2023-02-16 05:36:56:669,-1.02242,1.59548,-9.68369,-9.01823,-6.30468,93.9551
2023-02-16 05:36:56:679,-1.00876,1.57208,-9.67276,-9.00793,-6.3034,93.9452
2023-02-16 05:36:56:689,-1.00492,1.53988,-9.64878,-8.99602,-6.30283,93.9358
2023-02-16 05:36:56:699,-1.00735,1.5197,-9.64662,-8.98216,-6.30466,93.9293
2023-02-16 05:36:56:709,-1.01847,1.49878,-9.63399,-8.97025,-6.31272,93.9263
2023-02-16 05:36:56:719,-1.03867,1.49822,-9.5807,-8.9578,-6.31939,93.9233
2023-02-16 05:36:56:729,-1.05634,1.47445,-9.54273,-8.9452,-6.32385,93.9285
2023-02-16 05:36:56:739,-1.06377,1.46185,-9.51443,-8.9376,-6.32578,93.9304
2023-02-16 05:36:56:749,-1.07997,1.46697,-9.52501,-8.93401,-6.3268,93.9334
2023-02-16 05:36:56:759,-1.08849,1.47511,-9.56026,-8.93344,-6.32478,93.9374
2023-02-16 05:36:56:769,-1.06651,1.51053,-9.61488,-8.93458,-6.31751,93.9426
2023-02-16 05:36:56:779,-1.05956,1.52838,-9.63914,-8.93472,-6.31079,93.9492
2023-02-16 05:36:56:789,-1.05491,1.52546,-9.64437,-8.93127,-6.30675,93.9515
2023-02-16 05:36:56:799,-1.06407,1.50094,-9.63133,-8.92904,-6.30331,93.9552
2023-02-16 05:36:56:809,-1.06195,1.48687,-9.5959,-8.93152,-6.30644,93.9591
2023-02-16 05:36:56:819,-1.05776,1.46989,-9.54196,-8.92955,-6.30798,93.9626
2023-02-16 05:36:56:829,-1.0789,1.46223,-9.52572,-8.92958,-6.31039,93.9641
2023-02-16 05:36:56:839,-1.07682,1.48496,-9.56189,-8.93263,-6.31237,93.963
2023-02-16 05:36:56:849,-1.0484,1.49717,-9.60283,-8.94135,-6.31477,93.9596
2023-02-16 05:36:56:859,-1.02537,1.50648,-9.62333,-8.9461,-6.31619,93.9575
2023-02-16 05:36:56:869,-1.02076,1.50336,-9.62304,-8.95288,-6.31736,93.9571
2023-02-16 05:36:56:879,-1.01669,1.49775,-9.63213,-8.96552,-6.32439,93.9583
2023-02-16 05:36:56:889,-1.03515,1.5156,-9.64477,-8.98025,-6.3337,93.9598
2023-02-16 05:36:56:899,-1.06044,1.5296,-9.6488,-8.9915,-6.34503,93.9649
2023-02-16 05:36:56:909,-1.07953,1.544,-9.61946,-9.00143,-6.35543,93.974
2023-02-16 05:36:56:919,-1.09742,1.54632,-9.57716,-9.01323,-6.36422,93.9807
2023-02-16 05:36:56:929,-1.0841,1.5401,-9.54245,-9.02602,-6.37016,93.9914
2023-02-16 05:36:56:939,-1.07917,1.53093,-9.53685,-9.03915,-6.37314,94.0018
2023-02-16 05:36:56:949,-1.09013,1.55035,-9.52361,-9.05574,-6.37765,94.0153
2023-02-16 05:36:56:959,-1.10538,1.55279,-9.52826,-9.07045,-6.37668,94.0322
2023-02-16 05:36:56:969,-1.12548,1.55562,-9.5352,-9.08846,-6.37849,94.048
2023-02-16 05:36:56:979,-1.12109,1.56373,-9.53383,-9.10629,-6.37698,94.0637
2023-02-16 05:36:56:989,-1.10342,1.55734,-9.55216,-9.12778,-6.37091,94.0781
2023-02-16 05:36:56:999,-1.1168,1.56342,-9.57404,-9.15217,-6.36538,94.0921
2023-02-16 05:36:57:9,-1.10249,1.56261,-9.58523,-9.17794,-6.36108,94.1033
2023-02-16 05:36:57:19,-1.10021,1.56522,-9.60077,-9.2028,-6.35622,94.1158
2023-02-16 05:36:57:29,-1.10608,1.59812,-9.62862,-9.23051,-6.35131,94.1335
2023-02-16 05:36:57:39,-1.10316,1.63289,-9.67249,-9.25567,-6.34213,94.144
2023-02-16 05:36:57:49,-1.0913,1.6481,-9.68673,-9.27597,-6.33284,94.1504
2023-02-16 05:36:57:59,-1.0853,1.6663,-9.66546,-9.2949,-6.31879,94.1609
2023-02-16 05:36:57:69,-1.07805,1.66255,-9.65448,-9.30906,-6.30661,94.1706
2023-02-16 05:36:57:79,-1.07974,1.65335,-9.6295,-9.32146,-6.29887,94.1809
2023-02-16 05:36:57:89,-1.08297,1.64045,-9.61925,-9.3306,-6.28802,94.1871
2023-02-16 05:36:57:99,-1.08916,1.64689,-9.62539,-9.33899,-6.27879,94.1914
2023-02-16 05:36:57:109,-1.0844,1.66296,-9.63064,-9.34659,-6.27096,94.1914
2023-02-16 05:36:57:119,-1.0612,1.64517,-9.64109,-9.35133,-6.26492,94.1884
2023-02-16 05:36:57:129,-1.03279,1.6344,-9.64718,-9.35153,-6.25897,94.1866
2023-02-16 05:36:57:139,-1.02081,1.65027,-9.66792,-9.34903,-6.25766,94.1816
2023-02-16 05:36:57:149,-1.03556,1.64476,-9.65516,-9.34282,-6.26044,94.1762
2023-02-16 05:36:57:159,-1.06461,1.62401,-9.64055,-9.33344,-6.26382,94.1707
2023-02-16 05:36:57:169,-1.06792,1.61287,-9.61993,-9.32044,-6.26949,94.1686
2023-02-16 05:36:57:179,-1.06496,1.61084,-9.61288,-9.31413,-6.27137,94.1653
2023-02-16 05:36:57:189,-1.05265,1.62086,-9.60364,-9.31007,-6.27067,94.1596
2023-02-16 05:36:57:199,-1.04413,1.62078,-9.60357,-9.3032,-6.26965,94.1634
2023-02-16 05:36:57:209,-1.05335,1.63556,-9.61021,-9.29775,-6.26969,94.165
2023-02-16 05:36:57:219,-1.05346,1.6369,-9.61379,-9.29328,-6.26685,94.1679
2023-02-16 05:36:57:229,-1.05492,1.64302,-9.60966,-9.28508,-6.26555,94.17
2023-02-16 05:36:57:239,-1.06801,1.65585,-9.61795,-9.2751,-6.26284,94.1734
2023-02-16 05:36:57:249,-1.08137,1.64133,-9.60816,-9.26178,-6.25929,94.1748
2023-02-16 05:36:57:259,-1.08214,1.62192,-9.61016,-9.24791,-6.25509,94.1751
2023-02-16 05:36:57:269,-1.0808,1.60834,-9.60378,-9.22955,-6.25451,94.1727
2023-02-16 05:36:57:279,-1.08015,1.5926,-9.61661,-9.21163,-6.25549,94.1704
2023-02-16 05:36:57:289,-1.07033,1.57391,-9.61938,-9.1947,-6.2565,94.1681
2023-02-16 05:36:57:299,-1.04415,1.57573,-9.61325,-9.1725,-6.25229,94.1626
2023-02-16 05:36:57:309,-1.03612,1.55524,-9.6095,-9.15242,-6.25338,94.162
2023-02-16 05:36:57:319,-1.0432,1.54444,-9.58583,-9.13124,-6.25424,94.1601
2023-02-16 05:36:57:329,-1.04822,1.54325,-9.60347,-9.11513,-6.25532,94.1598
2023-02-16 05:36:57:339,-1.04091,1.54615,-9.61338,-9.097,-6.25654,94.1596
2023-02-16 05:36:57:349,-1.04698,1.53627,-9.60507,-9.07538,-6.25724,94.1602
2023-02-16 05:36:57:359,-1.06304,1.52469,-9.58828,-9.05318,-6.25726,94.1598
2023-02-16 05:36:57:369,-1.0867,1.50458,-9.57471,-9.03558,-6.2626,94.1642
2023-02-16 05:36:57:380,-1.10571,1.49735,-9.58519,-9.02128,-6.26655,94.1652
2023-02-16 05:36:57:389,-1.10515,1.50575,-9.5884,-9.00614,-6.26815,94.1665
2023-02-16 05:36:57:399,-1.10536,1.50433,-9.5746,-8.99238,-6.26816,94.165
2023-02-16 05:36:57:409,-1.11114,1.47858,-9.56597,-8.98031,-6.26959,94.164
2023-02-16 05:36:57:420,-1.09378,1.46028,-9.5706,-8.96796,-6.27364,94.162
2023-02-16 05:36:57:429,-1.08441,1.46146,-9.55358,-8.95468,-6.27673,94.1558
2023-02-16 05:36:57:439,-1.07528,1.46069,-9.54848,-8.94855,-6.27856,94.1468
2023-02-16 05:36:57:449,-1.05925,1.46403,-9.55409,-8.9467,-6.27844,94.1416
2023-02-16 05:36:57:459,-1.04828,1.46027,-9.56401,-8.94656,-6.27739,94.1359
2023-02-16 05:36:57:469,-1.04862,1.47631,-9.56239,-8.94988,-6.27638,94.1277
2023-02-16 05:36:57:479,-1.05053,1.48979,-9.5815,-8.95257,-6.2748,94.1225
2023-02-16 05:36:57:490,-1.03483,1.50754,-9.61926,-8.96219,-6.27035,94.1172
2023-02-16 05:36:57:499,-1.02235,1.52628,-9.6233,-8.96869,-6.2679,94.1135
2023-02-16 05:36:57:509,-1.01643,1.51553,-9.6039,-8.9756,-6.2665,94.1099
2023-02-16 05:36:57:519,-1.02105,1.51203,-9.59037,-8.98317,-6.26687,94.1049
2023-02-16 05:36:57:529,-1.02117,1.52078,-9.5883,-8.9877,-6.26669,94.104
2023-02-16 05:36:57:540,-1.02185,1.53639,-9.60103,-8.99532,-6.26788,94.1064
2023-02-16 05:36:57:549,-1.02525,1.54839,-9.60455,-9.00609,-6.2674,94.1072
2023-02-16 05:36:57:559,-1.03256,1.56348,-9.60195,-9.01478,-6.26399,94.1089
2023-02-16 05:36:57:569,-1.03516,1.55579,-9.62217,-9.02208,-6.25953,94.1133
2023-02-16 05:36:57:580,-1.03378,1.5736,-9.66074,-9.02745,-6.25499,94.1187
2023-02-16 05:36:57:589,-1.03603,1.59506,-9.68534,-9.03162,-6.25092,94.1241
2023-02-16 05:36:57:599,-1.04452,1.58952,-9.69634,-9.03298,-6.24774,94.1349
2023-02-16 05:36:57:609,-1.07329,1.57494,-9.65246,-9.02855,-6.24403,94.1436
2023-02-16 05:36:57:619,-1.09849,1.5562,-9.61648,-9.02102,-6.24379,94.1549
2023-02-16 05:36:57:629,-1.10647,1.54739,-9.59403,-9.022,-6.23857,94.1613
2023-02-16 05:36:57:639,-1.10162,1.55163,-9.59654,-9.01474,-6.23687,94.1638
2023-02-16 05:36:57:649,-1.09523,1.56287,-9.59406,-9.01177,-6.23477,94.1625
2023-02-16 05:36:57:659,-1.09057,1.55037,-9.58407,-9.00394,-6.23029,94.1604
2023-02-16 05:36:57:669,-1.07914,1.54594,-9.59715,-8.99665,-6.22822,94.1552
2023-02-16 05:36:57:679,-1.06023,1.55821,-9.63912,-8.99067,-6.22661,94.1467
2023-02-16 05:36:57:690,-1.02406,1.55342,-9.68071,-8.98633,-6.22328,94.1376
2023-02-16 05:36:57:699,-0.990007,1.5379,-9.68829,-8.97818,-6.22352,94.1281
2023-02-16 05:36:57:709,-0.989608,1.53152,-9.68298,-8.97046,-6.23365,94.118
2023-02-16 05:36:57:719,-0.998972,1.52124,-9.68608,-8.95922,-6.24808,94.1063
2023-02-16 05:36:57:729,-1.00551,1.51244,-9.63111,-8.94725,-6.26411,94.0962
2023-02-16 05:36:57:740,-1.02343,1.50513,-9.57991,-8.9367,-6.27686,94.0924
2023-02-16 05:36:57:749,-1.04126,1.4899,-9.54678,-8.92473,-6.29214,94.0945
2023-02-16 05:36:57:759,-1.05379,1.47832,-9.53175,-8.91685,-6.30179,94.097
2023-02-16 05:36:57:769,-1.06702,1.48078,-9.52342,-8.91334,-6.31058,94.1026
2023-02-16 05:36:57:780,-1.08662,1.48329,-9.51877,-8.91312,-6.31752,94.1085
2023-02-16 05:36:57:790,-1.11438,1.50091,-9.5387,-8.916,-6.3228,94.1192
2023-02-16 05:36:57:799,-1.13968,1.50198,-9.5545,-8.91814,-6.32818,94.1287
2023-02-16 05:36:57:809,-1.16385,1.51557,-9.5488,-8.92181,-6.33384,94.141
2023-02-16 05:36:57:820,-1.17254,1.53491,-9.58712,-8.93103,-6.33899,94.1504
2023-02-16 05:36:57:829,-1.18303,1.54681,-9.58227,-8.93742,-6.3423,94.1542
2023-02-16 05:36:57:839,-1.18324,1.53466,-9.58813,-8.9407,-6.34867,94.1527
2023-02-16 05:36:57:849,-1.15567,1.5269,-9.59683,-8.94669,-6.3517,94.1502
2023-02-16 05:36:57:859,-1.12311,1.53587,-9.59129,-8.95011,-6.34975,94.1408
2023-02-16 05:36:57:869,-1.10981,1.53542,-9.59743,-8.95428,-6.34829,94.1304
2023-02-16 05:36:57:879,-1.09115,1.53847,-9.61785,-8.96212,-6.34586,94.1201
2023-02-16 05:36:57:889,-1.08433,1.54709,-9.64531,-8.97093,-6.34515,94.1092
2023-02-16 05:36:57:899,-1.08,1.56611,-9.65317,-8.97904,-6.34412,94.1014
2023-02-16 05:36:57:909,-1.06363,1.57279,-9.60946,-8.98174,-6.34019,94.0927
2023-02-16 05:36:57:919,-1.09025,1.56948,-9.60024,-8.9879,-6.33535,94.0874
2023-02-16 05:36:57:929,-1.11277,1.58512,-9.6082,-8.99169,-6.33375,94.0822
2023-02-16 05:36:57:940,-1.10743,1.57958,-9.64126,-8.99802,-6.32861,94.079
2023-02-16 05:36:57:949,-1.06394,1.59134,-9.63609,-8.99946,-6.32093,94.0726
2023-02-16 05:36:57:959,-1.03786,1.57146,-9.62677,-9.00259,-6.31381,94.0667
2023-02-16 05:36:57:969,-1.04708,1.56267,-9.64254,-8.9972,-6.31242,94.0585
2023-02-16 05:36:57:979,-1.04581,1.55049,-9.63202,-8.99074,-6.31277,94.0477
2023-02-16 05:36:57:989,-1.04264,1.54262,-9.62356,-8.98347,-6.31505,94.042
2023-02-16 05:36:57:999,-1.05039,1.52945,-9.6166,-8.97648,-6.3167,94.034
2023-02-16 05:36:58:9,-1.06188,1.51856,-9.6028,-8.9723,-6.3174,94.0318
2023-02-16 05:36:58:19,-1.03589,1.51246,-9.595,-8.9714,-6.3173,94.0333
2023-02-16 05:36:58:29,-1.0438,1.51043,-9.57811,-8.96784,-6.31529,94.0335
2023-02-16 05:36:58:39,-1.06248,1.5133,-9.56843,-8.97203,-6.31083,94.0333
2023-02-16 05:36:58:49,-1.07719,1.53678,-9.59007,-8.97381,-6.30736,94.0353
2023-02-16 05:36:58:59,-1.09888,1.54645,-9.62332,-8.97564,-6.30192,94.0367
2023-02-16 05:36:58:69,-1.08746,1.55074,-9.61875,-8.97603,-6.29828,94.0354
2023-02-16 05:36:58:79,-1.0834,1.54941,-9.60402,-8.97266,-6.29444,94.0317
2023-02-16 05:36:58:89,-1.06827,1.55282,-9.60956,-8.97273,-6.29245,94.025
2023-02-16 05:36:58:100,-1.06626,1.55184,-9.62159,-8.97192,-6.29449,94.0183
2023-02-16 05:36:58:109,-1.05351,1.53432,-9.61936,-8.9673,-6.30052,94.0085
2023-02-16 05:36:58:119,-1.03263,1.5176,-9.60489,-8.96402,-6.30219,94.003
2023-02-16 05:36:58:129,-1.02048,1.51295,-9.57406,-8.96096,-6.30274,93.9949
2023-02-16 05:36:58:139,-1.02899,1.51884,-9.59032,-8.9598,-6.30723,93.99
2023-02-16 05:36:58:149,-1.03554,1.51743,-9.60696,-8.96071,-6.30887,93.9891
2023-02-16 05:36:58:159,-1.03236,1.52336,-9.6179,-8.96162,-6.31488,93.9878
2023-02-16 05:36:58:169,-1.05856,1.53537,-9.62685,-8.96313,-6.31973,93.9919
2023-02-16 05:36:58:180,-1.07869,1.54283,-9.64632,-8.9617,-6.32409,93.9963
2023-02-16 05:36:58:190,-1.07094,1.55658,-9.652,-8.96241,-6.32526,93.9999
2023-02-16 05:36:58:199,-1.0728,1.55328,-9.63402,-8.96026,-6.32656,94.0046
2023-02-16 05:36:58:209,-1.09466,1.53596,-9.58087,-8.95658,-6.32376,94.0083
2023-02-16 05:36:58:220,-1.11532,1.52299,-9.53572,-8.95506,-6.32179,94.0159
2023-02-16 05:36:58:229,-1.09789,1.5099,-9.5394,-8.95537,-6.32111,94.0165
2023-02-16 05:36:58:239,-1.08574,1.50741,-9.56216,-8.95874,-6.32334,94.0175
2023-02-16 05:36:58:249,-1.0894,1.5155,-9.58269,-8.9619,-6.32722,94.0177
2023-02-16 05:36:58:259,-1.09233,1.53974,-9.59926,-8.96349,-6.32868,94.0171
2023-02-16 05:36:58:269,-1.10302,1.53425,-9.62549,-8.96731,-6.32631,94.0138
2023-02-16 05:36:58:279,-1.08971,1.54332,-9.63371,-8.96872,-6.32554,94.0111
2023-02-16 05:36:58:289,-1.08883,1.55524,-9.65813,-8.96899,-6.32722,94.0035
2023-02-16 05:36:58:300,-1.07714,1.55745,-9.65266,-8.9643,-6.32476,93.9958
2023-02-16 05:36:58:309,-1.07491,1.54979,-9.62806,-8.9647,-6.32471,93.9901
2023-02-16 05:36:58:319,-1.05154,1.53556,-9.60299,-8.96087,-6.32082,93.9845
2023-02-16 05:36:58:329,-1.04334,1.54648,-9.5817,-8.9601,-6.31638,93.981
2023-02-16 05:36:58:340,-1.03028,1.52642,-9.58417,-8.95888,-6.31606,93.9799
2023-02-16 05:36:58:349,-1.03626,1.53219,-9.59388,-8.9597,-6.31427,93.9811
2023-02-16 05:36:58:359,-1.07239,1.53158,-9.61931,-8.96119,-6.31486,93.9783
2023-02-16 05:36:58:369,-1.07198,1.52723,-9.62213,-8.9584,-6.31685,93.9781
2023-02-16 05:36:58:380,-1.07317,1.52781,-9.61936,-8.95337,-6.31894,93.9769
2023-02-16 05:36:58:390,-1.06949,1.51917,-9.59696,-8.94939,-6.32114,93.9737
2023-02-16 05:36:58:399,-1.06498,1.51492,-9.58724,-8.94852,-6.32516,93.9696
2023-02-16 05:36:58:409,-1.05431,1.51166,-9.60422,-8.94589,-6.33099,93.9665
2023-02-16 05:36:58:419,-1.03749,1.5224,-9.62717,-8.9436,-6.33302,93.9623
2023-02-16 05:36:58:429,-1.02832,1.51819,-9.64234,-8.94214,-6.33538,93.9579
2023-02-16 05:36:58:439,-1.05909,1.50145,-9.62847,-8.93733,-6.33903,93.957
2023-02-16 05:36:58:449,-1.07022,1.49053,-9.59875,-8.93464,-6.33984,93.955
2023-02-16 05:36:58:459,-1.07603,1.48963,-9.57028,-8.92752,-6.33742,93.953
2023-02-16 05:36:58:469,-1.09587,1.49394,-9.57237,-8.92323,-6.33626,93.9508
2023-02-16 05:36:58:479,-1.08909,1.49855,-9.57766,-8.92214,-6.33877,93.9481
2023-02-16 05:36:58:489,-1.08767,1.50346,-9.55408,-8.92371,-6.34217,93.9439
2023-02-16 05:36:58:500,-1.10265,1.48673,-9.5497,-8.92223,-6.34573,93.9428
2023-02-16 05:36:58:509,-1.10453,1.48836,-9.60698,-8.92465,-6.3494,93.9409
2023-02-16 05:36:58:519,-1.0758,1.50694,-9.64422,-8.92675,-6.35247,93.9333
2023-02-16 05:36:58:529,-1.04986,1.51182,-9.66676,-8.92747,-6.34946,93.9254
2023-02-16 05:36:58:540,-1.00755,1.51169,-9.66541,-8.92549,-6.35002,93.921
2023-02-16 05:36:58:549,-1.00361,1.49435,-9.64832,-8.92713,-6.35152,93.9135
2023-02-16 05:36:58:559,-1.03104,1.49725,-9.62419,-8.92912,-6.35731,93.9096
2023-02-16 05:36:58:569,-1.05498,1.51211,-9.59772,-8.93522,-6.36515,93.9113
2023-02-16 05:36:58:580,-1.07418,1.51868,-9.56647,-8.94072,-6.36752,93.9122
2023-02-16 05:36:58:589,-1.08845,1.54035,-9.5416,-8.9489,-6.3674,93.9153
2023-02-16 05:36:58:599,-1.0902,1.56037,-9.55491,-8.96396,-6.36732,93.9166
2023-02-16 05:36:58:609,-1.08516,1.56961,-9.5839,-8.97608,-6.3674,93.9192
2023-02-16 05:36:58:620,-1.0694,1.57534,-9.6013,-8.98628,-6.36532,93.9244
2023-02-16 05:36:58:629,-1.08691,1.59931,-9.59977,-8.99191,-6.36656,93.9285
2023-02-16 05:36:58:639,-1.10124,1.59719,-9.59312,-8.99876,-6.36749,93.9319
2023-02-16 05:36:58:649,-1.09531,1.60708,-9.6093,-9.00286,-6.36809,93.9336
2023-02-16 05:36:58:659,-1.09833,1.56913,-9.61347,-9.00678,-6.36783,93.9332
2023-02-16 05:36:58:670,-1.11335,1.55802,-9.58842,-9.01139,-6.37336,93.9374
2023-02-16 05:36:58:679,-1.1138,1.55216,-9.5991,-9.01086,-6.37596,93.9398
2023-02-16 05:36:58:689,-1.09188,1.55277,-9.60387,-9.01186,-6.37964,93.942
2023-02-16 05:36:58:699,-1.08942,1.54733,-9.62386,-9.01656,-6.38403,93.9444
2023-02-16 05:36:58:709,-1.09166,1.55523,-9.6277,-9.02122,-6.38617,93.9475
2023-02-16 05:36:58:719,-1.10694,1.56732,-9.62816,-9.0238,-6.38586,93.949
2023-02-16 05:36:58:730,-1.10665,1.5652,-9.63318,-9.02303,-6.38387,93.9502
2023-02-16 05:36:58:740,-1.10895,1.56822,-9.63755,-9.02407,-6.38109,93.9482
2023-02-16 05:36:58:749,-1.09805,1.5706,-9.62957,-9.02203,-6.38071,93.9461
2023-02-16 05:36:58:759,-1.09909,1.57239,-9.6165,-9.01918,-6.38483,93.9428
2023-02-16 05:36:58:770,-1.13331,1.56465,-9.62008,-9.01807,-6.38947,93.9382
2023-02-16 05:36:58:780,-1.14571,1.5581,-9.61569,-9.01445,-6.39291,93.937
2023-02-16 05:36:58:790,-1.09153,1.55301,-9.62491,-9.00446,-6.39218,93.9343
2023-02-16 05:36:58:799,-1.04234,1.52413,-9.61003,-8.99633,-6.38833,93.9296
2023-02-16 05:36:58:809,-1.0208,1.51768,-9.58409,-8.98655,-6.39133,93.922
2023-02-16 05:36:58:820,-1.02643,1.51881,-9.58315,-8.98007,-6.39572,93.9187
2023-02-16 05:36:58:829,-1.04044,1.52693,-9.59943,-8.97582,-6.40286,93.9174
2023-02-16 05:36:58:839,-1.06682,1.51514,-9.60908,-8.96947,-6.40747,93.9164
2023-02-16 05:36:58:849,-1.08502,1.51873,-9.59958,-8.96812,-6.40975,93.919
2023-02-16 05:36:58:859,-1.07925,1.52694,-9.61753,-8.96738,-6.4132,93.9209
2023-02-16 05:36:58:870,-1.08513,1.53217,-9.62439,-8.96823,-6.41078,93.9249
2023-02-16 05:36:58:879,-1.09356,1.54186,-9.62573,-8.96691,-6.41121,93.9304
2023-02-16 05:36:58:889,-1.1016,1.54968,-9.6291,-8.96386,-6.40917,93.9365
2023-02-16 05:36:58:900,-1.09863,1.57209,-9.6337,-8.95805,-6.40558,93.9401
2023-02-16 05:36:58:909,-1.09866,1.5565,-9.62811,-8.94765,-6.4081,93.9432
2023-02-16 05:36:58:919,-1.11128,1.54289,-9.6051,-8.93794,-6.41323,93.9433
2023-02-16 05:36:58:929,-1.11203,1.52738,-9.59958,-8.9286,-6.42397,93.9403
2023-02-16 05:36:58:939,-1.10915,1.50897,-9.58564,-8.91917,-6.43133,93.9388
2023-02-16 05:36:58:949,-1.10537,1.50179,-9.57039,-8.91314,-6.43868,93.9339
2023-02-16 05:36:58:959,-1.09316,1.5021,-9.57197,-8.90984,-6.44741,93.9293
2023-02-16 05:36:58:969,-1.09043,1.49977,-9.58489,-8.90465,-6.45496,93.9235
2023-02-16 05:36:58:979,-1.09963,1.50158,-9.58846,-8.90129,-6.46297,93.9218
2023-02-16 05:36:58:989,-1.11218,1.51133,-9.61265,-8.89914,-6.47083,93.9205
2023-02-16 05:36:58:999,-1.12248,1.52082,-9.62784,-8.8976,-6.47759,93.9207
2023-02-16 05:36:59:9,-1.13188,1.51672,-9.62959,-8.89838,-6.48082,93.9215
2023-02-16 05:36:59:19,-1.1445,1.51511,-9.61955,-8.89359,-6.48641,93.9253
2023-02-16 05:36:59:29,-1.15268,1.50381,-9.5703,-8.89105,-6.49119,93.9296
2023-02-16 05:36:59:39,-1.15954,1.49709,-9.54764,-8.88689,-6.49829,93.9332
2023-02-16 05:36:59:49,-1.16032,1.50567,-9.536,-8.88644,-6.50509,93.9337
2023-02-16 05:36:59:59,-1.14721,1.50422,-9.5483,-8.88779,-6.50729,93.9317
2023-02-16 05:36:59:69,-1.14848,1.50916,-9.56314,-8.89033,-6.51272,93.9302
2023-02-16 05:36:59:79,-1.13482,1.51947,-9.5889,-8.89741,-6.51307,93.9291
2023-02-16 05:36:59:89,-1.11724,1.53548,-9.62341,-8.90477,-6.50958,93.925
2023-02-16 05:36:59:99,-1.10092,1.54967,-9.63543,-8.91119,-6.5062,93.9205
2023-02-16 05:36:59:109,-1.09265,1.56158,-9.64019,-8.91367,-6.50475,93.9182
2023-02-16 05:36:59:119,-1.08574,1.56632,-9.64881,-8.91538,-6.49861,93.916
2023-02-16 05:36:59:129,-1.08749,1.56797,-9.63298,-8.91405,-6.49652,93.9167
2023-02-16 05:36:59:140,-1.09309,1.55605,-9.62945,-8.91698,-6.49793,93.9189
2023-02-16 05:36:59:149,-1.10805,1.54289,-9.62939,-8.9126,-6.49565,93.9196
2023-02-16 05:36:59:159,-1.12706,1.54222,-9.61174,-8.91003,-6.49655,93.9174
2023-02-16 05:36:59:169,-1.13787,1.54267,-9.60546,-8.91028,-6.49506,93.9186
2023-02-16 05:36:59:179,-1.13161,1.54727,-9.60141,-8.90845,-6.49069,93.9193
2023-02-16 05:36:59:189,-1.12209,1.54117,-9.62453,-8.90379,-6.48644,93.9147
2023-02-16 05:36:59:199,-1.11663,1.54379,-9.64757,-8.89791,-6.48099,93.9122
2023-02-16 05:36:59:209,-1.12152,1.56058,-9.66391,-8.8898,-6.47513,93.907
2023-02-16 05:36:59:219,-1.10406,1.56237,-9.67164,-8.87799,-6.46942,93.9017
2023-02-16 05:36:59:229,-1.09072,1.54625,-9.63162,-8.86536,-6.46225,93.8979
2023-02-16 05:36:59:239,-1.07995,1.52666,-9.59486,-8.84819,-6.4579,93.8961
2023-02-16 05:36:59:249,-1.09121,1.49933,-9.57359,-8.83427,-6.45417,93.8926
2023-02-16 05:36:59:259,-1.09769,1.4979,-9.57052,-8.82013,-6.44623,93.8897
2023-02-16 05:36:59:269,-1.11009,1.49142,-9.58837,-8.80793,-6.44314,93.892
2023-02-16 05:36:59:279,-1.11314,1.47909,-9.58722,-8.79372,-6.43704,93.8932
2023-02-16 05:36:59:289,-1.12158,1.45699,-9.58305,-8.78116,-6.43607,93.8912
2023-02-16 05:36:59:299,-1.13371,1.45417,-9.57252,-8.77495,-6.43053,93.8884
2023-02-16 05:36:59:309,-1.13291,1.44618,-9.56964,-8.76863,-6.42215,93.8828
2023-02-16 05:36:59:319,-1.14164,1.45799,-9.57683,-8.76474,-6.41567,93.8777
2023-02-16 05:36:59:329,-1.12161,1.45421,-9.57986,-8.76151,-6.40832,93.8694
2023-02-16 05:36:59:339,-1.10847,1.46415,-9.61097,-8.75889,-6.3983,93.8597
2023-02-16 05:36:59:349,-1.08617,1.48377,-9.6673,-8.75592,-6.38793,93.8472
2023-02-16 05:36:59:359,-1.0583,1.49638,-9.70661,-8.75182,-6.37917,93.8335
2023-02-16 05:36:59:369,-1.00724,1.46926,-9.69825,-8.74753,-6.37085,93.8227
2023-02-16 05:36:59:379,-0.992625,1.44295,-9.66867,-8.73918,-6.36649,93.8142
2023-02-16 05:36:59:389,-1.0127,1.44113,-9.64468,-8.72981,-6.36499,93.8072
2023-02-16 05:36:59:399,-1.02624,1.44951,-9.60716,-8.72086,-6.36431,93.8028
2023-02-16 05:36:59:409,-1.04631,1.45238,-9.56728,-8.71641,-6.36268,93.7989
2023-02-16 05:36:59:419,-1.04373,1.45949,-9.54925,-8.71787,-6.36211,93.8001
2023-02-16 05:36:59:429,-1.02655,1.46704,-9.56919,-8.71507,-6.3591,93.7976
2023-02-16 05:36:59:439,-1.03437,1.46855,-9.58129,-8.71877,-6.35853,93.7995
2023-02-16 05:36:59:449,-1.04803,1.46477,-9.59135,-8.72248,-6.3597,93.8016
2023-02-16 05:36:59:459,-1.05973,1.47602,-9.60881,-8.72266,-6.36129,93.8024
2023-02-16 05:36:59:469,-1.06772,1.49043,-9.60028,-8.71942,-6.36728,93.8053
2023-02-16 05:36:59:479,-1.07491,1.48685,-9.59678,-8.71674,-6.37141,93.811
2023-02-16 05:36:59:489,-1.06976,1.46911,-9.60024,-8.71345,-6.37625,93.8117
2023-02-16 05:36:59:499,-1.07976,1.45561,-9.58286,-8.71387,-6.38118,93.8139
2023-02-16 05:36:59:509,-1.1095,1.45974,-9.55481,-8.71764,-6.38332,93.8222
2023-02-16 05:36:59:519,-1.11427,1.45221,-9.55334,-8.72358,-6.38299,93.8274
2023-02-16 05:36:59:529,-1.10942,1.45359,-9.58278,-8.7355,-6.37888,93.8324
2023-02-16 05:36:59:539,-1.11229,1.46467,-9.591,-8.74595,-6.37663,93.8371
2023-02-16 05:36:59:549,-1.1148,1.47061,-9.6001,-8.75981,-6.37499,93.8413
2023-02-16 05:36:59:559,-1.11948,1.49399,-9.6039,-8.77767,-6.36989,93.8436
2023-02-16 05:36:59:569,-1.11685,1.51953,-9.61801,-8.79268,-6.368,93.8444
2023-02-16 05:36:59:579,-1.10829,1.54474,-9.62367,-8.80849,-6.36447,93.8416
2023-02-16 05:36:59:589,-1.10125,1.54955,-9.62498,-8.82316,-6.35818,93.8407
2023-02-16 05:36:59:599,-1.11772,1.55827,-9.63744,-8.83697,-6.35412,93.8391
2023-02-16 05:36:59:609,-1.12689,1.58834,-9.6676,-8.85081,-6.35093,93.8358
2023-02-16 05:36:59:619,-1.08362,1.60295,-9.67664,-8.8614,-6.34026,93.8311
2023-02-16 05:36:59:629,-1.02447,1.57761,-9.68193,-8.86553,-6.33195,93.8254
2023-02-16 05:36:59:639,-1.02664,1.57333,-9.67522,-8.86451,-6.32551,93.8166
2023-02-16 05:36:59:649,-1.01933,1.56066,-9.66501,-8.86253,-6.32459,93.808
2023-02-16 05:36:59:659,-1.0319,1.53548,-9.6344,-8.85959,-6.32699,93.8031
2023-02-16 05:36:59:669,-1.04285,1.53007,-9.60788,-8.85671,-6.32979,93.8038
2023-02-16 05:36:59:679,-1.02822,1.53555,-9.60417,-8.8535,-6.32512,93.8024
2023-02-16 05:36:59:689,-1.01733,1.53253,-9.61246,-8.85132,-6.31916,93.8049
2023-02-16 05:36:59:699,-1.04285,1.53457,-9.62674,-8.84908,-6.31473,93.8066
2023-02-16 05:36:59:709,-1.0517,1.54897,-9.63629,-8.85068,-6.30783,93.8126
2023-02-16 05:36:59:719,-1.04589,1.55156,-9.6538,-8.84639,-6.30415,93.8211
2023-02-16 05:36:59:729,-1.05697,1.54972,-9.66341,-8.83972,-6.30498,93.8275
2023-02-16 05:36:59:739,-1.06677,1.54628,-9.64187,-8.83086,-6.30082,93.8293
2023-02-16 05:36:59:749,-1.06099,1.5349,-9.62013,-8.81735,-6.30114,93.832
2023-02-16 05:36:59:759,-1.0579,1.51285,-9.59012,-8.80226,-6.3027,93.8338
2023-02-16 05:36:59:769,-1.05839,1.50177,-9.5916,-8.78909,-6.30504,93.832
2023-02-16 05:36:59:779,-1.04908,1.49337,-9.6112,-8.77659,-6.31484,93.8286
2023-02-16 05:36:59:789,-1.03753,1.47865,-9.62797,-8.76101,-6.31803,93.8221
2023-02-16 05:36:59:799,-1.03742,1.48248,-9.63164,-8.747,-6.32332,93.8179
2023-02-16 05:36:59:809,-1.04162,1.46801,-9.63583,-8.73291,-6.33029,93.8168
2023-02-16 05:36:59:819,-1.03359,1.46365,-9.61966,-8.72212,-6.33883,93.8128
2023-02-16 05:36:59:829,-1.03307,1.4516,-9.60256,-8.70938,-6.34595,93.8124
2023-02-16 05:36:59:839,-1.03944,1.45416,-9.60235,-8.6961,-6.35319,93.8145
2023-02-16 05:36:59:849,-1.04357,1.45897,-9.60184,-8.68801,-6.35397,93.8185
2023-02-16 05:36:59:859,-1.03856,1.46262,-9.59671,-8.68551,-6.36057,93.8234
2023-02-16 05:36:59:869,-1.07133,1.46266,-9.57868,-8.68135,-6.3672,93.8303
2023-02-16 05:36:59:879,-1.09537,1.46275,-9.56667,-8.67841,-6.37776,93.8373
2023-02-16 05:36:59:889,-1.12473,1.47322,-9.56893,-8.67904,-6.38715,93.8437
2023-02-16 05:36:59:899,-1.13994,1.47837,-9.57658,-8.68107,-6.39262,93.8494
2023-02-16 05:36:59:909,-1.15604,1.47631,-9.58127,-8.67883,-6.40273,93.8507
2023-02-16 05:36:59:919,-1.14755,1.48136,-9.59227,-8.68023,-6.41157,93.8488
2023-02-16 05:36:59:929,-1.14604,1.4786,-9.60768,-8.68181,-6.41794,93.8418
2023-02-16 05:36:59:939,-1.13568,1.47133,-9.59485,-8.68339,-6.42159,93.8326
2023-02-16 05:36:59:949,-1.11991,1.48748,-9.59072,-8.68498,-6.42456,93.8259
2023-02-16 05:36:59:959,-1.10604,1.50059,-9.60716,-8.69064,-6.42722,93.8202
2023-02-16 05:36:59:969,-1.11274,1.52144,-9.62643,-8.6937,-6.4269,93.8136
2023-02-16 05:36:59:979,-1.13478,1.54908,-9.66927,-8.69436,-6.42474,93.8065
2023-02-16 05:36:59:989,-1.12657,1.562,-9.6777,-8.69314,-6.42065,93.7953
2023-02-16 05:36:59:999,-1.14267,1.55504,-9.66467,-8.68725,-6.416,93.7855
2023-02-16 05:37:00:9,-1.14683,1.54167,-9.66213,-8.68008,-6.41032,93.7704
2023-02-16 05:37:00:19,-1.12688,1.53798,-9.66467,-8.6721,-6.40928,93.7576
2023-02-16 05:37:00:29,-1.11399,1.53534,-9.66446,-8.66258,-6.40358,93.7442
2023-02-16 05:37:00:39,-1.09489,1.51862,-9.65054,-8.64755,-6.40152,93.7227
2023-02-16 05:37:00:49,-1.07294,1.49426,-9.6388,-8.63216,-6.39962,93.6997
2023-02-16 05:37:00:59,-1.07358,1.48409,-9.64864,-8.6123,-6.40126,93.6785
2023-02-16 05:37:00:69,-1.0648,1.4863,-9.64412,-8.5877,-6.4008,93.6574
2023-02-16 05:37:00:79,-1.05991,1.46774,-9.61787,-8.56585,-6.399,93.633
2023-02-16 05:37:00:89,-1.06875,1.44145,-9.5851,-8.54192,-6.40188,93.6101
2023-02-16 05:37:00:99,-1.07548,1.4201,-9.5669,-8.52062,-6.4026,93.5875
2023-02-16 05:37:00:109,-1.07522,1.41416,-9.55819,-8.50617,-6.40849,93.5672
2023-02-16 05:37:00:119,-1.05807,1.41467,-9.57582,-8.48988,-6.41227,93.5439
2023-02-16 05:37:00:129,-1.05024,1.42035,-9.58859,-8.48032,-6.41778,93.5196
2023-02-16 05:37:00:139,-1.0296,1.41169,-9.60029,-8.46967,-6.42199,93.5061
2023-02-16 05:37:00:149,-1.03086,1.41542,-9.6257,-8.4631,-6.42944,93.494
2023-02-16 05:37:00:159,-1.04191,1.41168,-9.61169,-8.45762,-6.43488,93.481
2023-02-16 05:37:00:169,-1.02969,1.39596,-9.5813,-8.45056,-6.43902,93.4713
2023-02-16 05:37:00:179,-1.03694,1.39676,-9.57133,-8.44497,-6.43974,93.4647
2023-02-16 05:37:00:189,-1.03318,1.4027,-9.59111,-8.44184,-6.43639,93.4632
2023-02-16 05:37:00:199,-1.05248,1.4151,-9.61387,-8.44042,-6.43121,93.4638
2023-02-16 05:37:00:209,-1.07281,1.4206,-9.60629,-8.43705,-6.43068,93.4687
2023-02-16 05:37:00:219,-1.09608,1.425,-9.60583,-8.43811,-6.42934,93.4719
2023-02-16 05:37:00:229,-1.10595,1.44051,-9.63315,-8.43501,-6.42776,93.4764
2023-02-16 05:37:00:239,-1.11808,1.44678,-9.6807,-8.43152,-6.42609,93.4784
2023-02-16 05:37:00:249,-1.09677,1.45251,-9.70821,-8.4269,-6.4253,93.479
2023-02-16 05:37:00:259,-1.0918,1.45395,-9.67752,-8.42089,-6.43018,93.4791
2023-02-16 05:37:00:269,-1.11145,1.43868,-9.66085,-8.41524,-6.43729,93.4763
2023-02-16 05:37:00:279,-1.10867,1.42849,-9.64159,-8.40667,-6.44671,93.4706
2023-02-16 05:37:00:289,-1.11825,1.42324,-9.60437,-8.39959,-6.45865,93.4635
2023-02-16 05:37:00:299,-1.1219,1.40945,-9.54242,-8.39525,-6.46658,93.4611
2023-02-16 05:37:00:309,-1.1105,1.39856,-9.52106,-8.39438,-6.47158,93.4573
2023-02-16 05:37:00:319,-1.08902,1.40784,-9.54576,-8.39751,-6.47611,93.4514
2023-02-16 05:37:00:329,-1.07639,1.42792,-9.57269,-8.40224,-6.47894,93.4467
2023-02-16 05:37:00:339,-1.07531,1.43052,-9.58806,-8.40742,-6.47891,93.4453
2023-02-16 05:37:00:349,-1.09315,1.4453,-9.58397,-8.41212,-6.47998,93.4481
2023-02-16 05:37:00:359,-1.12624,1.44913,-9.57326,-8.41664,-6.48014,93.4513
2023-02-16 05:37:00:369,-1.14894,1.44588,-9.56756,-8.42223,-6.48037,93.4573
2023-02-16 05:37:00:379,-1.15102,1.4333,-9.57681,-8.42814,-6.47465,93.4616
2023-02-16 05:37:00:389,-1.14888,1.42904,-9.57405,-8.43692,-6.4669,93.4662
2023-02-16 05:37:00:399,-1.1559,1.42303,-9.59316,-8.44771,-6.45536,93.4687
2023-02-16 05:37:00:409,-1.15363,1.43892,-9.61136,-8.45455,-6.44454,93.4707
2023-02-16 05:37:00:419,-1.15242,1.45377,-9.61973,-8.46382,-6.43338,93.4692
2023-02-16 05:37:00:429,-1.14,1.45389,-9.62643,-8.47632,-6.41889,93.4687
2023-02-16 05:37:00:439,-1.12604,1.46079,-9.63562,-8.48762,-6.40513,93.4671
2023-02-16 05:37:00:449,-1.10661,1.4823,-9.65492,-8.5,-6.39213,93.4616
2023-02-16 05:37:00:459,-1.07968,1.48383,-9.65521,-8.50936,-6.38012,93.4549
2023-02-16 05:37:00:469,-1.06449,1.45204,-9.62031,-8.5182,-6.37081,93.4495
2023-02-16 05:37:00:479,-1.08436,1.45801,-9.60431,-8.52765,-6.3591,93.4453
2023-02-16 05:37:00:489,-1.08109,1.4829,-9.62037,-8.53801,-6.35064,93.4382
2023-02-16 05:37:00:500,-1.05957,1.47432,-9.63232,-8.54819,-6.33933,93.4359
2023-02-16 05:37:00:509,-0.997851,1.45446,-9.61184,-8.55519,-6.32621,93.432
2023-02-16 05:37:00:519,-0.967219,1.43075,-9.60109,-8.5602,-6.31432,93.4317
2023-02-16 05:37:00:529,-0.976044,1.44431,-9.61949,-8.56733,-6.30984,93.4338
2023-02-16 05:37:00:539,-0.974696,1.42839,-9.63558,-8.57309,-6.30929,93.4377
2023-02-16 05:37:00:549,-0.981578,1.43949,-9.63158,-8.58072,-6.3115,93.4485
2023-02-16 05:37:00:559,-1.01005,1.46528,-9.6427,-8.58838,-6.3093,93.4598
2023-02-16 05:37:00:569,-1.03953,1.46296,-9.63954,-8.59921,-6.30901,93.4739
2023-02-16 05:37:00:580,-1.04455,1.48286,-9.63812,-8.61053,-6.30767,93.4888
2023-02-16 05:37:00:589,-1.06235,1.52153,-9.64284,-8.6186,-6.30662,93.5087
2023-02-16 05:37:00:599,-1.06472,1.5328,-9.63719,-8.62636,-6.30674,93.5291
2023-02-16 05:37:00:609,-1.08547,1.53102,-9.61765,-8.63582,-6.30948,93.5475
2023-02-16 05:37:00:620,-1.10017,1.54144,-9.61649,-8.64428,-6.31136,93.5675
2023-02-16 05:37:00:629,-1.11631,1.55921,-9.62023,-8.64867,-6.31367,93.5841
2023-02-16 05:37:00:639,-1.11897,1.54822,-9.64109,-8.64774,-6.31531,93.5992
2023-02-16 05:37:00:649,-1.12228,1.54345,-9.63623,-8.64479,-6.31782,93.6095
2023-02-16 05:37:00:659,-1.12017,1.53217,-9.64302,-8.63998,-6.32298,93.6171
2023-02-16 05:37:00:670,-1.11454,1.53072,-9.64445,-8.63476,-6.32914,93.6205
2023-02-16 05:37:00:679,-1.1038,1.51892,-9.63679,-8.62922,-6.33106,93.6232
2023-02-16 05:37:00:689,-1.0966,1.50509,-9.63144,-8.61985,-6.33484,93.6272
2023-02-16 05:37:00:700,-1.08574,1.49711,-9.63866,-8.61357,-6.33873,93.6322
2023-02-16 05:37:00:709,-1.08666,1.49264,-9.63603,-8.60409,-6.34169,93.6392
2023-02-16 05:37:00:719,-1.09293,1.49231,-9.62581,-8.59772,-6.34633,93.6415
2023-02-16 05:37:00:729,-1.08954,1.48927,-9.61609,-8.58881,-6.35215,93.6451
2023-02-16 05:37:00:739,-1.10569,1.47558,-9.60163,-8.58227,-6.35743,93.6495
2023-02-16 05:37:00:749,-1.12555,1.47293,-9.57081,-8.57475,-6.36332,93.6546
2023-02-16 05:37:00:759,-1.13227,1.46772,-9.54831,-8.57441,-6.36729,93.6613
2023-02-16 05:37:00:769,-1.14388,1.46011,-9.54882,-8.57334,-6.37104,93.6685
2023-02-16 05:37:00:779,-1.13864,1.46672,-9.56319,-8.57373,-6.37114,93.6701
2023-02-16 05:37:00:789,-1.12299,1.4759,-9.57013,-8.57608,-6.36883,93.6745
2023-02-16 05:37:00:799,-1.10993,1.48068,-9.58449,-8.57812,-6.36403,93.6762
2023-02-16 05:37:00:809,-1.08856,1.48525,-9.61728,-8.58239,-6.35605,93.6766
2023-02-16 05:37:00:819,-1.0616,1.48583,-9.62625,-8.58802,-6.34801,93.6715
2023-02-16 05:37:00:829,-1.03657,1.49733,-9.62372,-8.58827,-6.34223,93.6718
2023-02-16 05:37:00:839,-1.03066,1.4872,-9.62837,-8.58989,-6.33555,93.6693
2023-02-16 05:37:00:849,-1.02136,1.4883,-9.63114,-8.59268,-6.33164,93.6695
2023-02-16 05:37:00:859,-1.0169,1.49326,-9.6429,-8.59309,-6.32639,93.6687
2023-02-16 05:37:00:869,-1.02007,1.51064,-9.64458,-8.59636,-6.32157,93.6695
2023-02-16 05:37:00:879,-1.04097,1.50484,-9.63678,-8.59524,-6.31643,93.6726
2023-02-16 05:37:00:889,-1.05851,1.48901,-9.65162,-8.58934,-6.31162,93.6779
2023-02-16 05:37:00:899,-1.06597,1.4983,-9.65176,-8.58469,-6.30879,93.6827
2023-02-16 05:37:00:909,-1.07471,1.5035,-9.62142,-8.58007,-6.30431,93.6859
2023-02-16 05:37:00:919,-1.07478,1.47892,-9.60733,-8.57273,-6.30286,93.6847
2023-02-16 05:37:00:929,-1.06076,1.47015,-9.61166,-8.56531,-6.30338,93.6841
2023-02-16 05:37:00:939,-1.04369,1.46315,-9.62746,-8.56039,-6.3023,93.684
2023-02-16 05:37:00:949,-1.04148,1.45318,-9.6297,-8.55597,-6.30667,93.6776
2023-02-16 05:37:00:959,-1.03967,1.44913,-9.61582,-8.54928,-6.31004,93.6702
2023-02-16 05:37:00:969,-1.02707,1.45182,-9.65087,-8.54378,-6.31299,93.6597
2023-02-16 05:37:00:980,-1.01611,1.44524,-9.65355,-8.53707,-6.32163,93.6514
2023-02-16 05:37:00:989,-1.0209,1.42543,-9.62231,-8.52719,-6.33076,93.6443
2023-02-16 05:37:00:999,-1.02124,1.41663,-9.6105,-8.52002,-6.34176,93.6403
2023-02-16 05:37:01:9,-1.02203,1.41761,-9.60815,-8.51193,-6.3538,93.6382
2023-02-16 05:37:01:19,-1.03284,1.39759,-9.59454,-8.50324,-6.36442,93.6412
2023-02-16 05:37:01:29,-1.06036,1.39282,-9.56745,-8.49546,-6.37407,93.6464
2023-02-16 05:37:01:39,-1.08046,1.39175,-9.5691,-8.49217,-6.3783,93.6531
2023-02-16 05:37:01:49,-1.09467,1.40056,-9.57946,-8.48957,-6.38173,93.668
2023-02-16 05:37:01:59,-1.10037,1.41136,-9.59155,-8.49046,-6.38355,93.6847
2023-02-16 05:37:01:69,-1.10981,1.41766,-9.6116,-8.49272,-6.38432,93.6996
2023-02-16 05:37:01:79,-1.14199,1.4232,-9.61955,-8.49571,-6.38493,93.7155
2023-02-16 05:37:01:89,-1.16617,1.4408,-9.6331,-8.4947,-6.38374,93.7323
2023-02-16 05:37:01:99,-1.17605,1.44008,-9.62155,-8.49547,-6.37945,93.7474
2023-02-16 05:37:01:109,-1.19327,1.43112,-9.60769,-8.49328,-6.37443,93.7577
2023-02-16 05:37:01:119,-1.207,1.41896,-9.58249,-8.493,-6.374,93.7624
2023-02-16 05:37:01:129,-1.19221,1.42655,-9.57692,-8.49546,-6.3711,93.7655
2023-02-16 05:37:01:139,-1.18668,1.42081,-9.57256,-8.49639,-6.36813,93.757
2023-02-16 05:37:01:149,-1.16386,1.44081,-9.57046,-8.50069,-6.36148,93.747
2023-02-16 05:37:01:159,-1.12521,1.4469,-9.61302,-8.50502,-6.34745,93.7396
2023-02-16 05:37:01:169,-1.09124,1.44619,-9.68625,-8.51154,-6.3326,93.7285
2023-02-16 05:37:01:180,-1.02618,1.45152,-9.70529,-8.51458,-6.31871,93.7148
2023-02-16 05:37:01:189,-1.00426,1.45152,-9.66519,-8.51582,-6.30782,93.703
2023-02-16 05:37:01:199,-1.00634,1.44725,-9.65679,-8.52032,-6.30255,93.6915
2023-02-16 05:37:01:209,-1.01422,1.46146,-9.64436,-8.52351,-6.30019,93.6776
2023-02-16 05:37:01:220,-1.0267,1.45999,-9.62654,-8.52865,-6.2979,93.6671
2023-02-16 05:37:01:229,-1.03206,1.47359,-9.58872,-8.53551,-6.29823,93.6612
2023-02-16 05:37:01:239,-1.03479,1.4849,-9.56652,-8.53827,-6.29914,93.6561
2023-02-16 05:37:01:250,-1.01982,1.48909,-9.58528,-8.54296,-6.29576,93.6507
2023-02-16 05:37:01:259,-1.00233,1.48753,-9.57985,-8.54696,-6.29647,93.6458
2023-02-16 05:37:01:269,-1.01472,1.48495,-9.57265,-8.55152,-6.29548,93.6444
2023-02-16 05:37:01:279,-1.0423,1.48744,-9.58041,-8.5574,-6.30227,93.645
2023-02-16 05:37:01:289,-1.06212,1.48843,-9.5953,-8.56553,-6.3008,93.6457
2023-02-16 05:37:01:299,-1.07257,1.50504,-9.6236,-8.56963,-6.29766,93.6463
2023-02-16 05:37:01:309,-1.06379,1.50893,-9.65146,-8.57292,-6.29615,93.6477
2023-02-16 05:37:01:319,-1.07553,1.50351,-9.64564,-8.57693,-6.29263,93.6482
2023-02-16 05:37:01:329,-1.08251,1.51773,-9.63087,-8.57856,-6.29243,93.6521
2023-02-16 05:37:01:339,-1.08363,1.50096,-9.62289,-8.58103,-6.29163,93.6515
2023-02-16 05:37:01:349,-1.05752,1.49328,-9.61096,-8.58331,-6.2929,93.6506
2023-02-16 05:37:01:359,-1.06033,1.49514,-9.61994,-8.5856,-6.2914,93.6518
2023-02-16 05:37:01:369,-1.10042,1.51155,-9.63146,-8.59191,-6.29021,93.6533
2023-02-16 05:37:01:379,-1.10769,1.51628,-9.63165,-8.59969,-6.29115,93.6512
2023-02-16 05:37:01:389,-1.0998,1.52096,-9.61674,-8.60693,-6.29314,93.6498
2023-02-16 05:37:01:399,-1.10034,1.51285,-9.59819,-8.60919,-6.2946,93.6415
2023-02-16 05:37:01:409,-1.11296,1.52191,-9.61206,-8.61219,-6.2955,93.6321
2023-02-16 05:37:01:419,-1.11331,1.51638,-9.65349,-8.61466,-6.29395,93.6241
2023-02-16 05:37:01:429,-1.10077,1.51653,-9.6649,-8.6136,-6.29058,93.6187
2023-02-16 05:37:01:439,-1.02854,1.49037,-9.632,-8.60909,-6.28238,93.6081
2023-02-16 05:37:01:449,-1.01152,1.46688,-9.61226,-8.60524,-6.2809,93.5997
2023-02-16 05:37:01:459,-1.01607,1.45998,-9.60219,-8.60239,-6.28367,93.5915
2023-02-16 05:37:01:469,-1.00871,1.45592,-9.5891,-8.59682,-6.28812,93.586
2023-02-16 05:37:01:479,-1.02776,1.45398,-9.59993,-8.59111,-6.29173,93.585
2023-02-16 05:37:01:489,-1.06046,1.45739,-9.59238,-8.59172,-6.29298,93.5879
2023-02-16 05:37:01:499,-1.08214,1.47798,-9.61319,-8.59317,-6.29092,93.5946
2023-02-16 05:37:01:509,-1.09123,1.50217,-9.62637,-8.59508,-6.28673,93.599
2023-02-16 05:37:01:519,-1.08694,1.50598,-9.65151,-8.59612,-6.27877,93.6015
2023-02-16 05:37:01:529,-1.09453,1.52054,-9.65492,-8.59855,-6.27378,93.6035
2023-02-16 05:37:01:539,-1.0956,1.51584,-9.64027,-8.59446,-6.27229,93.6053
2023-02-16 05:37:01:549,-1.08798,1.49592,-9.61574,-8.5929,-6.27094,93.6084
2023-02-16 05:37:01:559,-1.06872,1.49685,-9.58884,-8.59183,-6.27439,93.6068
2023-02-16 05:37:01:569,-1.07814,1.48717,-9.59713,-8.58724,-6.27762,93.601
2023-02-16 05:37:01:579,-1.07458,1.48897,-9.60384,-8.58481,-6.28383,93.5929
2023-02-16 05:37:01:590,-1.07662,1.48658,-9.61038,-8.58333,-6.28855,93.5842
2023-02-16 05:37:01:599,-1.06742,1.48718,-9.61599,-8.58029,-6.29477,93.5746
2023-02-16 05:37:01:609,-1.05372,1.49237,-9.63101,-8.58395,-6.29893,93.5677
2023-02-16 05:37:01:620,-1.02193,1.50021,-9.66563,-8.58221,-6.30251,93.5611
2023-02-16 05:37:01:629,-1.01993,1.4969,-9.69031,-8.57815,-6.30743,93.5564
2023-02-16 05:37:01:639,-1.03038,1.48577,-9.68844,-8.57441,-6.31513,93.5559
2023-02-16 05:37:01:649,-1.04933,1.49199,-9.68032,-8.56869,-6.32258,93.5567
2023-02-16 05:37:01:659,-1.07165,1.49647,-9.67021,-8.55896,-6.32845,93.5595
2023-02-16 05:37:01:670,-1.09809,1.49052,-9.62875,-8.55145,-6.33786,93.5666
2023-02-16 05:37:01:679,-1.13011,1.48309,-9.6038,-8.54545,-6.34446,93.5753
2023-02-16 05:37:01:689,-1.14306,1.47856,-9.59641,-8.53757,-6.34745,93.5852
2023-02-16 05:37:01:699,-1.13904,1.4801,-9.59549,-8.52544,-6.35196,93.5902
2023-02-16 05:37:01:709,-1.11163,1.48581,-9.63589,-8.51177,-6.35954,93.5904
2023-02-16 05:37:01:719,-1.08846,1.47476,-9.64574,-8.49591,-6.36771,93.5931
2023-02-16 05:37:01:729,-1.06538,1.45662,-9.63964,-8.4771,-6.37088,93.5985
2023-02-16 05:37:01:739,-1.04645,1.4465,-9.64271,-8.45939,-6.37435,93.6061
2023-02-16 05:37:01:749,-1.08802,1.43912,-9.62536,-8.4396,-6.37491,93.6169
2023-02-16 05:37:01:759,-1.13336,1.42864,-9.60954,-8.41677,-6.37329,93.6292
2023-02-16 05:37:01:769,-1.14731,1.41012,-9.60955,-8.39692,-6.37295,93.6431
2023-02-16 05:37:01:779,-1.16347,1.40568,-9.59061,-8.37601,-6.37022,93.6561
2023-02-16 05:37:01:789,-1.17932,1.39552,-9.58828,-8.35777,-6.36641,93.6659
2023-02-16 05:37:01:799,-1.19563,1.39705,-9.58552,-8.34051,-6.36614,93.6712
2023-02-16 05:37:01:809,-1.21157,1.3851,-9.57523,-8.32687,-6.36813,93.673
2023-02-16 05:37:01:819,-1.219,1.37143,-9.55894,-8.31448,-6.37321,93.6666
2023-02-16 05:37:01:829,-1.20579,1.36178,-9.57493,-8.30719,-6.37533,93.6583
2023-02-16 05:37:01:839,-1.16768,1.37532,-9.59812,-8.29954,-6.37627,93.6421
2023-02-16 05:37:01:849,-1.14807,1.37759,-9.59695,-8.29063,-6.37529,93.6236
2023-02-16 05:37:01:859,-1.12072,1.37476,-9.63213,-8.28073,-6.37671,93.6035
2023-02-16 05:37:01:869,-1.08298,1.37367,-9.62999,-8.27289,-6.37503,93.581
2023-02-16 05:37:01:879,-1.07555,1.37393,-9.63795,-8.26398,-6.37085,93.5572
2023-02-16 05:37:01:889,-1.0637,1.38824,-9.65413,-8.25549,-6.36482,93.5342
2023-02-16 05:37:01:899,-1.03085,1.37733,-9.65782,-8.24663,-6.36095,93.5124
2023-02-16 05:37:01:909,-1.03635,1.37585,-9.62051,-8.23786,-6.35931,93.4934
2023-02-16 05:37:01:919,-1.03566,1.36905,-9.598,-8.23087,-6.35863,93.4735
2023-02-16 05:37:01:929,-1.01625,1.36054,-9.59029,-8.22725,-6.36009,93.4553
2023-02-16 05:37:01:939,-1.0066,1.35918,-9.59128,-8.22307,-6.36108,93.4416
2023-02-16 05:37:01:949,-0.99563,1.36099,-9.57484,-8.2225,-6.35863,93.4294
2023-02-16 05:37:01:959,-0.989991,1.35825,-9.57668,-8.22271,-6.35995,93.4179
2023-02-16 05:37:01:969,-0.993871,1.35951,-9.61121,-8.22659,-6.3564,93.4111
2023-02-16 05:37:01:979,-1.02235,1.39352,-9.65833,-8.23267,-6.35453,93.411
2023-02-16 05:37:01:989,-1.0427,1.4106,-9.656,-8.23363,-6.35352,93.4133
2023-02-16 05:37:01:999,-1.06105,1.40996,-9.63536,-8.23503,-6.35312,93.4191
2023-02-16 05:37:02:9,-1.09469,1.42033,-9.62971,-8.23754,-6.35303,93.4255
2023-02-16 05:37:02:19,-1.08945,1.42179,-9.61702,-8.23816,-6.35133,93.4335
2023-02-16 05:37:02:29,-1.08698,1.4158,-9.61475,-8.2387,-6.35052,93.4392
2023-02-16 05:37:02:39,-1.0888,1.39107,-9.60795,-8.2379,-6.35128,93.4442
2023-02-16 05:37:02:49,-1.10406,1.38979,-9.60672,-8.23716,-6.3498,93.4509
2023-02-16 05:37:02:59,-1.09035,1.41346,-9.63653,-8.23657,-6.34461,93.4526
2023-02-16 05:37:02:69,-1.06154,1.4255,-9.66782,-8.23921,-6.34067,93.454
2023-02-16 05:37:02:79,-1.0563,1.41163,-9.6566,-8.24052,-6.33601,93.4532
2023-02-16 05:37:02:89,-1.06266,1.40071,-9.65534,-8.24027,-6.33455,93.4512
2023-02-16 05:37:02:99,-1.07533,1.41169,-9.69633,-8.2412,-6.33794,93.4504
2023-02-16 05:37:02:109,-1.05779,1.43307,-9.73184,-8.24111,-6.34375,93.4512
2023-02-16 05:37:02:119,-1.05186,1.43146,-9.70268,-8.23582,-6.3494,93.4546
2023-02-16 05:37:02:129,-1.08199,1.41586,-9.6028,-8.23102,-6.35536,93.4609
2023-02-16 05:37:02:139,-1.08444,1.39366,-9.53936,-8.22132,-6.35979,93.4688
2023-02-16 05:37:02:149,-1.11844,1.38513,-9.4996,-8.22052,-6.36303,93.4729
2023-02-16 05:37:02:159,-1.18043,1.38601,-9.49636,-8.2223,-6.36461,93.4823
2023-02-16 05:37:02:169,-1.195,1.39647,-9.52199,-8.22242,-6.36284,93.4864
2023-02-16 05:37:02:179,-1.20296,1.40921,-9.54347,-8.2296,-6.36397,93.4868
2023-02-16 05:37:02:189,-1.17685,1.41409,-9.57664,-8.23766,-6.36034,93.4815
2023-02-16 05:37:02:199,-1.12651,1.42377,-9.61293,-8.2453,-6.35793,93.4718
2023-02-16 05:37:02:209,-1.08065,1.42116,-9.61266,-8.25635,-6.35261,93.4584
2023-02-16 05:37:02:219,-1.07385,1.41393,-9.614,-8.26763,-6.34562,93.4482
2023-02-16 05:37:02:229,-1.07522,1.42167,-9.618,-8.27474,-6.33933,93.4422
2023-02-16 05:37:02:239,-1.09376,1.43759,-9.64247,-8.28558,-6.32928,93.4332
2023-02-16 05:37:02:249,-1.13,1.45769,-9.65388,-8.29873,-6.31344,93.4301
2023-02-16 05:37:02:259,-1.14313,1.47444,-9.63248,-8.30938,-6.29731,93.4241
2023-02-16 05:37:02:269,-1.13454,1.46048,-9.63437,-8.3219,-6.28133,93.4193
2023-02-16 05:37:02:279,-1.10224,1.45296,-9.63483,-8.33374,-6.26605,93.4097
2023-02-16 05:37:02:289,-1.01984,1.46723,-9.6386,-8.34906,-6.25212,93.3991
2023-02-16 05:37:02:299,-0.960705,1.45995,-9.64162,-8.36554,-6.24023,93.3895
2023-02-16 05:37:02:309,-0.970741,1.46882,-9.66469,-8.37763,-6.22908,93.3854
2023-02-16 05:37:02:319,-1.03936,1.48676,-9.68403,-8.38599,-6.21579,93.3844
2023-02-16 05:37:02:329,-1.10816,1.51902,-9.7277,-8.39076,-6.19918,93.386
2023-02-16 05:37:02:340,-1.10968,1.52468,-9.73161,-8.38874,-6.17709,93.3824
2023-02-16 05:37:02:349,-1.09983,1.49191,-9.6676,-8.3767,-6.16137,93.3747
2023-02-16 05:37:02:359,-1.11709,1.45705,-9.58243,-8.36444,-6.15267,93.3606
2023-02-16 05:37:02:369,-1.06798,1.44906,-9.5601,-8.35491,-6.15062,93.3407
2023-02-16 05:37:02:379,-0.975522,1.44478,-9.58011,-8.34796,-6.15071,93.314
2023-02-16 05:37:02:389,-0.927025,1.43156,-9.59192,-8.34161,-6.15366,93.288
2023-02-16 05:37:02:399,-0.897793,1.42193,-9.60597,-8.34244,-6.15492,93.2647
2023-02-16 05:37:02:409,-0.85817,1.44015,-9.60469,-8.34789,-6.15101,93.2511
2023-02-16 05:37:02:420,-0.826918,1.44633,-9.63824,-8.35187,-6.14477,93.2461
2023-02-16 05:37:02:429,-0.829047,1.44938,-9.6728,-8.35368,-6.14022,93.253
2023-02-16 05:37:02:439,-0.883919,1.45093,-9.69704,-8.35383,-6.13633,93.2656
2023-02-16 05:37:02:449,-0.950207,1.45838,-9.71393,-8.3521,-6.13323,93.2873
2023-02-16 05:37:02:460,-0.989624,1.45135,-9.68791,-8.34986,-6.12976,93.3127
2023-02-16 05:37:02:469,-1.02553,1.44568,-9.65309,-8.34335,-6.13623,93.3386
2023-02-16 05:37:02:479,-1.05202,1.42748,-9.64038,-8.33577,-6.14551,93.3639
2023-02-16 05:37:02:489,-1.0314,1.40703,-9.63238,-8.32621,-6.1575,93.3877
2023-02-16 05:37:02:499,-1.04004,1.41968,-9.59227,-8.31931,-6.17768,93.407
2023-02-16 05:37:02:509,-1.01429,1.41228,-9.59712,-8.31234,-6.20072,93.4254
2023-02-16 05:37:02:519,-0.982014,1.41651,-9.6129,-8.30988,-6.22133,93.4462
2023-02-16 05:37:02:529,-1.00023,1.44556,-9.6385,-8.30973,-6.23957,93.4655
2023-02-16 05:37:02:540,-1.05201,1.48225,-9.66987,-8.30653,-6.26096,93.4878
2023-02-16 05:37:02:549,-1.10125,1.50173,-9.67726,-8.30624,-6.28096,93.5118
2023-02-16 05:37:02:559,-1.15085,1.49479,-9.65909,-8.30513,-6.29951,93.5339
2023-02-16 05:37:02:570,-1.15463,1.48167,-9.61516,-8.29698,-6.31886,93.552
2023-02-16 05:37:02:580,-1.15732,1.47163,-9.5857,-8.29287,-6.34083,93.5666
2023-02-16 05:37:02:589,-1.15804,1.48642,-9.58155,-8.28511,-6.36095,93.5756
2023-02-16 05:37:02:599,-1.13528,1.48052,-9.5988,-8.28137,-6.37998,93.5806
2023-02-16 05:37:02:609,-1.11914,1.47332,-9.60859,-8.27668,-6.39643,93.5863
2023-02-16 05:37:02:620,-1.10441,1.46923,-9.59931,-8.26876,-6.41341,93.5885
2023-02-16 05:37:02:629,-1.09945,1.46436,-9.59625,-8.25868,-6.4262,93.5942
2023-02-16 05:37:02:639,-1.08422,1.44698,-9.60557,-8.2519,-6.43508,93.6053
2023-02-16 05:37:02:650,-1.08375,1.45235,-9.62655,-8.23923,-6.44298,93.616
2023-02-16 05:37:02:660,-1.11582,1.44356,-9.64078,-8.22924,-6.44981,93.6311
2023-02-16 05:37:02:670,-1.15748,1.44047,-9.66548,-8.21722,-6.45574,93.6487
2023-02-16 05:37:02:679,-1.19849,1.45087,-9.66674,-8.20541,-6.46455,93.6656
2023-02-16 05:37:02:689,-1.20832,1.43188,-9.67457,-8.19103,-6.47375,93.6733
2023-02-16 05:37:02:699,-1.20886,1.41433,-9.63162,-8.17088,-6.48174,93.6801
2023-02-16 05:37:02:709,-1.19198,1.39595,-9.60444,-8.15542,-6.48817,93.6818
2023-02-16 05:37:02:719,-1.1578,1.38282,-9.60473,-8.1384,-6.49135,93.6828
2023-02-16 05:37:02:729,-1.12637,1.38023,-9.6091,-8.12235,-6.49504,93.6804
2023-02-16 05:37:02:740,-1.10004,1.37938,-9.62829,-8.10518,-6.49713,93.6781
2023-02-16 05:37:02:749,-1.13454,1.37097,-9.64557,-8.08924,-6.4995,93.6758
2023-02-16 05:37:02:759,-1.19882,1.37875,-9.66263,-8.07286,-6.50028,93.6747
2023-02-16 05:37:02:770,-1.25298,1.39061,-9.67893,-8.05281,-6.50083,93.6707
2023-02-16 05:37:02:780,-1.29782,1.38411,-9.62482,-8.03207,-6.50616,93.6583
2023-02-16 05:37:02:790,-1.30836,1.35421,-9.54178,-8.00862,-6.51551,93.6358
2023-02-16 05:37:02:799,-1.34532,1.30982,-9.46391,-7.99254,-6.52717,93.6042
2023-02-16 05:37:02:809,-1.3395,1.28848,-9.44591,-7.98291,-6.53816,93.557
2023-02-16 05:37:02:820,-1.16864,1.29291,-9.51451,-7.98276,-6.55094,93.497
2023-02-16 05:37:02:829,-1.0672,1.28876,-9.56968,-7.98465,-6.56439,93.4328
2023-02-16 05:37:02:839,-1.07705,1.30654,-9.59296,-7.9875,-6.57562,93.3749
2023-02-16 05:37:02:849,-1.06505,1.32447,-9.59626,-7.99258,-6.58429,93.3191
2023-02-16 05:37:02:859,-1.02418,1.32377,-9.62784,-7.99782,-6.59008,93.2672
2023-02-16 05:37:02:869,-0.973948,1.34155,-9.67309,-8.00495,-6.59463,93.2214
2023-02-16 05:37:02:879,-0.990341,1.36478,-9.70632,-8.00717,-6.5976,93.1843
2023-02-16 05:37:02:889,-1.00847,1.35726,-9.68336,-8.0056,-6.59707,93.1578
2023-02-16 05:37:02:900,-1.0482,1.32369,-9.65705,-8.00187,-6.59761,93.139
2023-02-16 05:37:02:909,-1.04089,1.32425,-9.6469,-8.00115,-6.5953,93.1243
2023-02-16 05:37:02:919,-1.02051,1.3122,-9.63082,-7.99973,-6.59575,93.1158
2023-02-16 05:37:02:929,-1.04509,1.31449,-9.61362,-7.99811,-6.5941,93.1089
2023-02-16 05:37:02:940,-1.0531,1.31323,-9.58934,-7.99566,-6.59254,93.1085
2023-02-16 05:37:02:949,-1.02695,1.31525,-9.61941,-7.99379,-6.5904,93.1086
2023-02-16 05:37:02:959,-1.02721,1.32766,-9.64325,-7.99305,-6.58809,93.1126
2023-02-16 05:37:02:970,-1.04623,1.35301,-9.65981,-7.99374,-6.58845,93.1223
2023-02-16 05:37:02:980,-1.04963,1.35587,-9.69429,-7.9934,-6.58953,93.1377
2023-02-16 05:37:02:990,-1.07176,1.36486,-9.72162,-7.9948,-6.59411,93.1514
2023-02-16 05:37:02:999,-1.13594,1.37807,-9.72044,-7.99424,-6.60381,93.1644
2023-02-16 05:37:03:9,-1.18532,1.37534,-9.68858,-7.99021,-6.61726,93.1765
2023-02-16 05:37:03:19,-1.20221,1.35882,-9.62616,-7.98457,-6.63385,93.1832
2023-02-16 05:37:03:29,-1.2153,1.35087,-9.55408,-7.97957,-6.64642,93.1882
2023-02-16 05:37:03:39,-1.18255,1.36487,-9.52893,-7.9782,-6.66006,93.1904
2023-02-16 05:37:03:49,-1.13198,1.35736,-9.54866,-7.98047,-6.67222,93.1907
2023-02-16 05:37:03:59,-1.10314,1.35992,-9.57226,-7.98344,-6.68188,93.1904
2023-02-16 05:37:03:69,-1.11264,1.36901,-9.59931,-7.98811,-6.69211,93.1938
2023-02-16 05:37:03:79,-1.1649,1.36794,-9.61994,-7.98859,-6.70036,93.2031
2023-02-16 05:37:03:89,-1.19325,1.37539,-9.62942,-7.98834,-6.70632,93.2117
2023-02-16 05:37:03:100,-1.21324,1.38824,-9.63537,-7.98635,-6.71278,93.2207
2023-02-16 05:37:03:109,-1.23701,1.38723,-9.60971,-7.98833,-6.71441,93.2322
2023-02-16 05:37:03:119,-1.24441,1.37948,-9.60553,-7.98759,-6.71792,93.2373
2023-02-16 05:37:03:129,-1.23819,1.36078,-9.61784,-7.98857,-6.72065,93.2361
2023-02-16 05:37:03:140,-1.21994,1.36571,-9.61416,-7.99192,-6.72048,93.231
2023-02-16 05:37:03:149,-1.21291,1.35793,-9.60609,-7.99393,-6.71813,93.2273
2023-02-16 05:37:03:159,-1.1816,1.35328,-9.59632,-7.99958,-6.71339,93.2229
2023-02-16 05:37:03:170,-1.15332,1.3606,-9.62603,-8.00521,-6.70738,93.2161
2023-02-16 05:37:03:179,-1.13596,1.35873,-9.64073,-8.01355,-6.69882,93.2088
2023-02-16 05:37:03:189,-1.10187,1.37366,-9.62972,-8.02567,-6.69079,93.202
2023-02-16 05:37:03:199,-1.06373,1.36137,-9.60457,-8.03457,-6.6833,93.1915
2023-02-16 05:37:03:209,-1.07098,1.35006,-9.59437,-8.04433,-6.67694,93.1872
2023-02-16 05:37:03:220,-1.11252,1.3809,-9.62656,-8.05319,-6.67244,93.1866
2023-02-16 05:37:03:229,-1.11618,1.39036,-9.65765,-8.0658,-6.66493,93.1859
2023-02-16 05:37:03:239,-1.10288,1.39064,-9.64302,-8.07281,-6.65245,93.1876
2023-02-16 05:37:03:249,-1.10377,1.39362,-9.61958,-8.07632,-6.64182,93.1868
2023-02-16 05:37:03:259,-1.10476,1.39094,-9.62434,-8.08012,-6.63914,93.1885
2023-02-16 05:37:03:270,-1.10739,1.37273,-9.62544,-8.08304,-6.63584,93.1897
2023-02-16 05:37:03:279,-1.13217,1.38182,-9.61994,-8.08811,-6.63518,93.1912
2023-02-16 05:37:03:289,-1.12564,1.38385,-9.62765,-8.09528,-6.62922,93.1947
2023-02-16 05:37:03:300,-1.10414,1.39841,-9.62138,-8.1028,-6.62813,93.195
2023-02-16 05:37:03:309,-1.1081,1.3963,-9.62563,-8.11165,-6.62884,93.1971
2023-02-16 05:37:03:319,-1.10781,1.40908,-9.64169,-8.11924,-6.63264,93.2027
2023-02-16 05:37:03:329,-1.11024,1.42107,-9.65673,-8.12918,-6.63088,93.2051
2023-02-16 05:37:03:339,-1.13463,1.44613,-9.68071,-8.1333,-6.63356,93.2036
2023-02-16 05:37:03:349,-1.14724,1.44815,-9.67677,-8.1358,-6.63415,93.2072
2023-02-16 05:37:03:359,-1.14254,1.43828,-9.65818,-8.13487,-6.63456,93.208
2023-02-16 05:37:03:369,-1.14402,1.42214,-9.60964,-8.13065,-6.6367,93.205
2023-02-16 05:37:03:380,-1.13372,1.40529,-9.59149,-8.12517,-6.63825,93.2031
2023-02-16 05:37:03:390,-1.11142,1.38983,-9.59082,-8.12269,-6.64016,93.2008
2023-02-16 05:37:03:399,-1.08139,1.37673,-9.58652,-8.1205,-6.6417,93.1988
2023-02-16 05:37:03:409,-1.05736,1.37437,-9.60259,-8.11858,-6.64212,93.1995
2023-02-16 05:37:03:419,-1.0494,1.38066,-9.62982,-8.11954,-6.64535,93.2006
2023-02-16 05:37:03:429,-1.06463,1.38586,-9.6408,-8.12162,-6.65098,93.2031
2023-02-16 05:37:03:439,-1.09254,1.38181,-9.65518,-8.12476,-6.65755,93.212
2023-02-16 05:37:03:449,-1.11879,1.38665,-9.65525,-8.12654,-6.6618,93.2202
2023-02-16 05:37:03:460,-1.14377,1.40118,-9.66126,-8.12696,-6.66719,93.229
2023-02-16 05:37:03:469,-1.1614,1.40562,-9.64698,-8.12783,-6.67193,93.2422
2023-02-16 05:37:03:479,-1.16937,1.40876,-9.61363,-8.12843,-6.67688,93.2517
2023-02-16 05:37:03:489,-1.17295,1.41769,-9.58824,-8.12814,-6.68259,93.2644
2023-02-16 05:37:03:499,-1.16552,1.41659,-9.57492,-8.13359,-6.68982,93.2691
2023-02-16 05:37:03:509,-1.15523,1.41609,-9.58802,-8.13686,-6.69659,93.2736
2023-02-16 05:37:03:519,-1.14618,1.42477,-9.59603,-8.13943,-6.70389,93.2812
2023-02-16 05:37:03:529,-1.15002,1.43183,-9.59562,-8.14273,-6.7099,93.2883
2023-02-16 05:37:03:540,-1.1605,1.43147,-9.6106,-8.14833,-6.71487,93.2948
2023-02-16 05:37:03:549,-1.1728,1.43614,-9.62819,-8.15276,-6.72034,93.3051
2023-02-16 05:37:03:559,-1.19979,1.45333,-9.65283,-8.15585,-6.7267,93.3129
2023-02-16 05:37:03:570,-1.20833,1.47451,-9.70243,-8.15644,-6.73094,93.3178
2023-02-16 05:37:03:580,-1.23284,1.49798,-9.72413,-8.15001,-6.72738,93.3216
2023-02-16 05:37:03:589,-1.25815,1.52357,-9.75215,-8.13777,-6.72308,93.3237
2023-02-16 05:37:03:599,-1.23085,1.58028,-9.84288,-8.11599,-6.71983,93.3228
2023-02-16 05:37:03:609,-1.16867,1.62586,-9.89141,-8.0844,-6.71136,93.3171
2023-02-16 05:37:03:620,-1.1346,1.58886,-9.80619,-8.03901,-6.70631,93.3167
2023-02-16 05:37:03:629,-1.1559,1.52987,-9.67875,-7.98322,-6.70025,93.3168
2023-02-16 05:37:03:639,-1.18323,1.47861,-9.599,-7.92219,-6.6908,93.3204
2023-02-16 05:37:03:649,-1.17789,1.43567,-9.5538,-7.86067,-6.67478,93.3249
2023-02-16 05:37:03:659,-1.18806,1.40942,-9.54796,-7.80359,-6.65889,93.3289
2023-02-16 05:37:03:669,-1.21987,1.37901,-9.55859,-7.74756,-6.63999,93.3317
2023-02-16 05:37:03:679,-1.22702,1.34803,-9.58368,-7.69368,-6.62043,93.3288
2023-02-16 05:37:03:689,-1.22397,1.33188,-9.59962,-7.64064,-6.59997,93.3205
2023-02-16 05:37:03:700,-1.18684,1.32508,-9.62992,-7.58288,-6.57413,93.3105
2023-02-16 05:37:03:709,-1.13522,1.27331,-9.59952,-7.52681,-6.54965,93.2923
2023-02-16 05:37:03:719,-1.09326,1.24307,-9.57319,-7.47565,-6.53191,93.2718
2023-02-16 05:37:03:729,-1.06371,1.21359,-9.56118,-7.43111,-6.52145,93.25
2023-02-16 05:37:03:740,-1.02703,1.21419,-9.54898,-7.3917,-6.51306,93.2271
2023-02-16 05:37:03:749,-1.01318,1.20057,-9.55888,-7.35993,-6.51206,93.2044
2023-02-16 05:37:03:759,-1.0218,1.1844,-9.58451,-7.32882,-6.50909,93.1842
2023-02-16 05:37:03:769,-1.02454,1.16706,-9.57823,-7.30499,-6.50519,93.165
2023-02-16 05:37:03:780,-1.00576,1.17034,-9.56951,-7.287,-6.50275,93.1537
2023-02-16 05:37:03:790,-1.00225,1.17571,-9.58053,-7.27026,-6.49891,93.1469
2023-02-16 05:37:03:799,-1.03891,1.18464,-9.62613,-7.25693,-6.49335,93.1429
2023-02-16 05:37:03:809,-1.04286,1.19994,-9.67965,-7.24564,-6.48741,93.1412
2023-02-16 05:37:03:819,-1.03923,1.19196,-9.68508,-7.22954,-6.48385,93.1439
2023-02-16 05:37:03:829,-1.04604,1.18254,-9.66801,-7.21334,-6.48136,93.146
2023-02-16 05:37:03:839,-1.06209,1.17435,-9.6695,-7.196,-6.47524,93.1561
2023-02-16 05:37:03:849,-1.0826,1.14662,-9.61575,-7.18099,-6.47326,93.1693
2023-02-16 05:37:03:860,-1.10137,1.13409,-9.5758,-7.16473,-6.46677,93.1833
2023-02-16 05:37:03:869,-1.11835,1.13175,-9.53617,-7.15833,-6.46199,93.1968
2023-02-16 05:37:03:879,-1.17447,1.14691,-9.54216,-7.1569,-6.46055,93.2065
2023-02-16 05:37:03:889,-1.17993,1.1685,-9.63156,-7.16056,-6.46004,93.2123
2023-02-16 05:37:03:900,-1.156,1.18126,-9.69242,-7.16476,-6.4591,93.2175
2023-02-16 05:37:03:909,-1.13946,1.19447,-9.71855,-7.16832,-6.45871,93.2203
2023-02-16 05:37:03:919,-1.15184,1.20051,-9.72307,-7.16973,-6.45998,93.2214
2023-02-16 05:37:03:929,-1.14506,1.19724,-9.69074,-7.17138,-6.46667,93.2219
2023-02-16 05:37:03:940,-1.12462,1.19785,-9.65493,-7.17506,-6.47308,93.219
2023-02-16 05:37:03:949,-1.14413,1.18588,-9.59428,-7.17524,-6.48026,93.2216
2023-02-16 05:37:03:959,-1.1616,1.18862,-9.52935,-7.17545,-6.4825,93.2213
2023-02-16 05:37:03:969,-1.13638,1.18723,-9.53431,-7.18078,-6.48082,93.2224
2023-02-16 05:37:03:979,-1.12732,1.20761,-9.55334,-7.18845,-6.47413,93.2215
2023-02-16 05:37:03:989,-1.15105,1.22436,-9.58402,-7.20016,-6.46412,93.2247
2023-02-16 05:37:03:999,-1.16183,1.22522,-9.60655,-7.21018,-6.45447,93.2301
2023-02-16 05:37:04:9,-1.16264,1.24853,-9.63044,-7.22001,-6.44204,93.2356
2023-02-16 05:37:04:20,-1.17719,1.25755,-9.66604,-7.23421,-6.42997,93.2392
2023-02-16 05:37:04:29,-1.1802,1.26356,-9.68657,-7.24721,-6.41751,93.2406
2023-02-16 05:37:04:39,-1.16908,1.27172,-9.70946,-7.25371,-6.40189,93.2359
2023-02-16 05:37:04:50,-1.17045,1.24688,-9.68797,-7.25543,-6.38964,93.2309
2023-02-16 05:37:04:59,-1.16077,1.23305,-9.6518,-7.25825,-6.37236,93.2277
2023-02-16 05:37:04:69,-1.15817,1.23277,-9.62651,-7.25834,-6.35527,93.219
2023-02-16 05:37:04:79,-1.14681,1.22819,-9.62766,-7.26471,-6.33342,93.2086
2023-02-16 05:37:04:89,-1.13617,1.24096,-9.63603,-7.27458,-6.31118,93.1941
2023-02-16 05:37:04:99,-1.12176,1.24491,-9.66412,-7.28623,-6.2877,93.1775
2023-02-16 05:37:04:109,-1.11613,1.26477,-9.65763,-7.29719,-6.26522,93.1599
2023-02-16 05:37:04:119,-1.07692,1.27476,-9.65362,-7.30861,-6.24054,93.1439
2023-02-16 05:37:04:129,-1.05755,1.28477,-9.63634,-7.31902,-6.21612,93.1253
2023-02-16 05:37:04:139,-1.04529,1.28295,-9.65445,-7.33078,-6.19621,93.1061
2023-02-16 05:37:04:149,-1.01332,1.27411,-9.67998,-7.33835,-6.17788,93.0856
2023-02-16 05:37:04:159,-0.961563,1.27692,-9.68166,-7.34627,-6.15437,93.0701
2023-02-16 05:37:04:169,-0.922177,1.26636,-9.65103,-7.34874,-6.13542,93.0541
2023-02-16 05:37:04:179,-0.915799,1.2638,-9.64971,-7.35178,-6.12072,93.0431
2023-02-16 05:37:04:189,-0.904948,1.24372,-9.65613,-7.35519,-6.10653,93.0311
2023-02-16 05:37:04:199,-0.910944,1.23472,-9.63711,-7.36147,-6.09393,93.026
2023-02-16 05:37:04:209,-0.934554,1.24047,-9.6386,-7.36783,-6.0845,93.0276
2023-02-16 05:37:04:219,-0.98137,1.26069,-9.65492,-7.37602,-6.07354,93.0294
2023-02-16 05:37:04:229,-0.985632,1.27076,-9.69032,-7.38382,-6.06315,93.0389
2023-02-16 05:37:04:239,-0.983165,1.27403,-9.70205,-7.39043,-6.04918,93.0485
2023-02-16 05:37:04:249,-0.99842,1.28221,-9.68034,-7.39766,-6.04003,93.0605
2023-02-16 05:37:04:259,-1.01709,1.2667,-9.68453,-7.40213,-6.03697,93.0676
2023-02-16 05:37:04:269,-1.00916,1.27433,-9.6827,-7.40791,-6.03387,93.0785
2023-02-16 05:37:04:279,-0.988722,1.2667,-9.65505,-7.41019,-6.03367,93.087
2023-02-16 05:37:04:289,-0.992565,1.25633,-9.61729,-7.4131,-6.03651,93.0895
2023-02-16 05:37:04:299,-0.983624,1.2553,-9.61609,-7.4175,-6.04184,93.0927
2023-02-16 05:37:04:309,-0.957767,1.26689,-9.61211,-7.42572,-6.04965,93.0937
2023-02-16 05:37:04:319,-0.955345,1.25471,-9.62125,-7.43611,-6.06183,93.0995
2023-02-16 05:37:04:329,-0.960444,1.25822,-9.64394,-7.44221,-6.07443,93.1042
2023-02-16 05:37:04:339,-0.984383,1.2705,-9.65129,-7.45211,-6.08487,93.1137
2023-02-16 05:37:04:349,-0.986001,1.28524,-9.6628,-7.46439,-6.09299,93.1266
2023-02-16 05:37:04:359,-0.972725,1.30348,-9.67869,-7.47285,-6.10065,93.1391
2023-02-16 05:37:04:369,-0.99649,1.29609,-9.66883,-7.48042,-6.11259,93.158
2023-02-16 05:37:04:379,-1.03176,1.27152,-9.65121,-7.48863,-6.12566,93.1772
2023-02-16 05:37:04:389,-1.06005,1.27121,-9.62705,-7.49963,-6.13623,93.2015
2023-02-16 05:37:04:399,-1.07216,1.27795,-9.59507,-7.5097,-6.14726,93.2247
2023-02-16 05:37:04:409,-1.09146,1.28335,-9.59019,-7.524,-6.15947,93.244
2023-02-16 05:37:04:419,-1.10447,1.30377,-9.6024,-7.54371,-6.16957,93.2622
2023-02-16 05:37:04:429,-1.09732,1.32513,-9.64,-7.56349,-6.17859,93.2795
2023-02-16 05:37:04:439,-1.08821,1.33692,-9.66094,-7.58054,-6.18457,93.2939
2023-02-16 05:37:04:449,-1.09727,1.35397,-9.67391,-7.59573,-6.18843,93.3058
2023-02-16 05:37:04:459,-1.09643,1.35578,-9.65769,-7.60639,-6.19367,93.3192
2023-02-16 05:37:04:469,-1.08504,1.35056,-9.63255,-7.615,-6.19955,93.3301
2023-02-16 05:37:04:479,-1.08668,1.35318,-9.63625,-7.62142,-6.20365,93.3412
2023-02-16 05:37:04:489,-1.1142,1.34316,-9.63469,-7.62924,-6.20642,93.354
2023-02-16 05:37:04:499,-1.12945,1.3557,-9.61926,-7.64083,-6.21227,93.3657
2023-02-16 05:37:04:509,-1.11277,1.36218,-9.64251,-7.65064,-6.21009,93.3764
2023-02-16 05:37:04:519,-1.1025,1.37449,-9.67928,-7.65944,-6.20758,93.3823
2023-02-16 05:37:04:529,-1.07398,1.37147,-9.69798,-7.66417,-6.206,93.3837
2023-02-16 05:37:04:539,-1.05527,1.36548,-9.68517,-7.66679,-6.20145,93.3839
2023-02-16 05:37:04:549,-1.04976,1.35842,-9.67602,-7.66629,-6.19682,93.3799
2023-02-16 05:37:04:559,-1.04978,1.35639,-9.65856,-7.66221,-6.19272,93.3781
2023-02-16 05:37:04:569,-1.04222,1.34075,-9.63917,-7.65725,-6.18997,93.3769
2023-02-16 05:37:04:579,-1.02611,1.33595,-9.62932,-7.65535,-6.18555,93.3766
2023-02-16 05:37:04:589,-1.02081,1.33837,-9.61697,-7.65455,-6.18581,93.3747
2023-02-16 05:37:04:599,-1.01326,1.33085,-9.63519,-7.65376,-6.18507,93.3718
2023-02-16 05:37:04:609,-1.01433,1.33703,-9.64495,-7.65337,-6.1807,93.3705
2023-02-16 05:37:04:619,-1.01213,1.33577,-9.64189,-7.65134,-6.17787,93.3687
2023-02-16 05:37:04:629,-1.03085,1.33716,-9.64883,-7.64951,-6.17732,93.3674
2023-02-16 05:37:04:639,-1.03544,1.35393,-9.65732,-7.64774,-6.1726,93.3649
2023-02-16 05:37:04:649,-1.02666,1.33974,-9.66756,-7.6465,-6.17196,93.361
2023-02-16 05:37:04:659,-1.04391,1.33534,-9.66476,-7.64639,-6.17265,93.3597
2023-02-16 05:37:04:669,-1.05482,1.33665,-9.6498,-7.64367,-6.17495,93.3596
2023-02-16 05:37:04:679,-1.04362,1.32547,-9.64621,-7.64278,-6.1743,93.3558
2023-02-16 05:37:04:689,-1.04758,1.3332,-9.61967,-7.64174,-6.17616,93.3556
2023-02-16 05:37:04:699,-1.03982,1.3389,-9.61929,-7.64466,-6.17973,93.355
2023-02-16 05:37:04:709,-1.05502,1.34444,-9.64854,-7.64667,-6.18532,93.3537
2023-02-16 05:37:04:719,-1.08345,1.34423,-9.65376,-7.64552,-6.19014,93.3521
2023-02-16 05:37:04:730,-1.08106,1.3421,-9.67066,-7.64228,-6.19499,93.3493
2023-02-16 05:37:04:739,-1.07538,1.36329,-9.6886,-7.63573,-6.20176,93.3412
2023-02-16 05:37:04:749,-1.08266,1.36267,-9.68422,-7.62852,-6.20807,93.3347
2023-02-16 05:37:04:759,-1.09737,1.33695,-9.672,-7.61718,-6.20758,93.3263
2023-02-16 05:37:04:770,-1.08844,1.32139,-9.65221,-7.60328,-6.21086,93.314
2023-02-16 05:37:04:780,-1.06194,1.29484,-9.62468,-7.58959,-6.21368,93.3036
2023-02-16 05:37:04:789,-1.04986,1.28703,-9.60781,-7.57698,-6.21563,93.2912
2023-02-16 05:37:04:799,-1.04601,1.25331,-9.59437,-7.55977,-6.218,93.2804
2023-02-16 05:37:04:809,-1.04201,1.22964,-9.60679,-7.54767,-6.21933,93.2678
2023-02-16 05:37:04:820,-1.0339,1.24011,-9.64328,-7.53796,-6.2176,93.2566
2023-02-16 05:37:04:829,-0.999014,1.26356,-9.69117,-7.52892,-6.2144,93.248
2023-02-16 05:37:04:839,-0.9817,1.26761,-9.72886,-7.52235,-6.21203,93.2397
2023-02-16 05:37:04:849,-0.99545,1.2576,-9.73711,-7.51272,-6.21593,93.2327
2023-02-16 05:37:04:859,-1.04334,1.25974,-9.70708,-7.50235,-6.22005,93.2326
2023-02-16 05:37:04:869,-1.06359,1.25919,-9.67278,-7.49084,-6.22625,93.2322
2023-02-16 05:37:04:879,-1.05373,1.2666,-9.63818,-7.47603,-6.23068,93.2306
2023-02-16 05:37:04:889,-1.03848,1.24974,-9.58948,-7.46253,-6.2302,93.2347
2023-02-16 05:37:04:899,-1.03483,1.23769,-9.54174,-7.45326,-6.22996,93.2373
2023-02-16 05:37:04:909,-1.04284,1.22998,-9.53302,-7.44542,-6.23219,93.2437
2023-02-16 05:37:04:919,-1.06189,1.2186,-9.5515,-7.44147,-6.2316,93.2494
2023-02-16 05:37:04:929,-1.09223,1.23364,-9.59541,-7.4414,-6.23365,93.2551
2023-02-16 05:37:04:939,-1.11448,1.25348,-9.63034,-7.43974,-6.23132,93.2597
2023-02-16 05:37:04:949,-1.12873,1.25427,-9.6323,-7.43963,-6.23185,93.2627
2023-02-16 05:37:04:959,-1.12059,1.2513,-9.64227,-7.43628,-6.22929,93.2695
2023-02-16 05:37:04:969,-1.10267,1.24072,-9.64298,-7.43455,-6.22897,93.272
2023-02-16 05:37:04:980,-1.09886,1.22357,-9.63246,-7.43657,-6.22535,93.2702
2023-02-16 05:37:04:989,-1.08814,1.2069,-9.62153,-7.43894,-6.22345,93.2704
2023-02-16 05:37:04:999,-1.06931,1.20702,-9.587,-7.44349,-6.21627,93.2674
2023-02-16 05:37:05:9,-1.05483,1.21275,-9.60332,-7.45035,-6.20561,93.2663
2023-02-16 05:37:05:20,-1.03383,1.23891,-9.62283,-7.461,-6.19382,93.2655
2023-02-16 05:37:05:29,-1.04026,1.25351,-9.62105,-7.47482,-6.18266,93.2657
2023-02-16 05:37:05:39,-1.06488,1.26679,-9.64334,-7.48654,-6.17268,93.2658
2023-02-16 05:37:05:49,-1.06207,1.28202,-9.64418,-7.50256,-6.16529,93.2639
2023-02-16 05:37:05:60,-1.06421,1.28198,-9.63913,-7.51642,-6.16116,93.2625
2023-02-16 05:37:05:70,-1.09432,1.28773,-9.67024,-7.53123,-6.15742,93.2574
2023-02-16 05:37:05:79,-1.08378,1.30781,-9.69732,-7.54164,-6.1521,93.2532
2023-02-16 05:37:05:89,-1.06782,1.31174,-9.68866,-7.5504,-6.14449,93.2455
2023-02-16 05:37:05:99,-1.02294,1.29346,-9.64984,-7.55487,-6.13508,93.2381
2023-02-16 05:37:05:109,-0.981346,1.2697,-9.62483,-7.56308,-6.12632,93.2326
2023-02-16 05:37:05:119,-1.01154,1.27959,-9.60891,-7.56946,-6.12042,93.2277
2023-02-16 05:37:05:129,-1.03308,1.28337,-9.62655,-7.57694,-6.11342,93.2272
2023-02-16 05:37:05:139,-1.03038,1.29044,-9.64577,-7.58738,-6.10607,93.2271
2023-02-16 05:37:05:149,-1.03415,1.33113,-9.6543,-7.59988,-6.09923,93.2282
2023-02-16 05:37:05:159,-1.04638,1.33474,-9.69531,-7.60983,-6.08887,93.228
2023-02-16 05:37:05:170,-1.0243,1.34729,-9.70161,-7.62248,-6.07716,93.2322
2023-02-16 05:37:05:179,-1.02885,1.35523,-9.70095,-7.63077,-6.06799,93.2367
2023-02-16 05:37:05:189,-1.0318,1.3496,-9.6922,-7.636,-6.06022,93.2395
2023-02-16 05:37:05:199,-1.03184,1.3491,-9.67524,-7.64276,-6.05231,93.2392
2023-02-16 05:37:05:210,-1.00701,1.34318,-9.67327,-7.64342,-6.04301,93.239
2023-02-16 05:37:05:220,-0.993802,1.34548,-9.65744,-7.64153,-6.03859,93.2369
2023-02-16 05:37:05:229,-1.00457,1.34444,-9.64636,-7.63909,-6.03787,93.2348
2023-02-16 05:37:05:239,-1.01886,1.33301,-9.63025,-7.63594,-6.03782,93.2328
2023-02-16 05:37:05:249,-1.0186,1.31972,-9.63773,-7.63232,-6.03406,93.2299
2023-02-16 05:37:05:260,-1.01526,1.31048,-9.63009,-7.62902,-6.03484,93.2283
2023-02-16 05:37:05:269,-0.996367,1.31266,-9.63931,-7.62634,-6.03417,93.2295
2023-02-16 05:37:05:279,-0.998364,1.3038,-9.64533,-7.62244,-6.03266,93.2279
2023-02-16 05:37:05:289,-1.00257,1.30943,-9.64337,-7.62067,-6.03318,93.2349
2023-02-16 05:37:05:299,-1.00306,1.30288,-9.63935,-7.62034,-6.0322,93.2399
2023-02-16 05:37:05:309,-1.02477,1.29926,-9.63026,-7.62336,-6.03152,93.2473
2023-02-16 05:37:05:319,-1.0495,1.31534,-9.6335,-7.62707,-6.03488,93.2513
2023-02-16 05:37:05:329,-1.04814,1.31508,-9.63529,-7.6322,-6.03604,93.2606
2023-02-16 05:37:05:339,-1.06158,1.33154,-9.63231,-7.6356,-6.03749,93.2673
2023-02-16 05:37:05:349,-1.06691,1.33207,-9.62479,-7.63697,-6.04291,93.2721
2023-02-16 05:37:05:359,-1.0527,1.32585,-9.61071,-7.63571,-6.04525,93.2715
2023-02-16 05:37:05:369,-1.0479,1.33494,-9.60739,-7.64065,-6.04706,93.2694
2023-02-16 05:37:05:380,-1.04409,1.32747,-9.62006,-7.64726,-6.04916,93.2671
2023-02-16 05:37:05:389,-1.02425,1.32696,-9.61402,-7.65313,-6.05212,93.2673
2023-02-16 05:37:05:399,-1.01045,1.33217,-9.62449,-7.65513,-6.0479,93.2667
2023-02-16 05:37:05:409,-0.992753,1.32798,-9.66045,-7.66186,-6.04857,93.2677
2023-02-16 05:37:05:419,-0.988934,1.33931,-9.67881,-7.66715,-6.05046,93.2703
2023-02-16 05:37:05:429,-0.986127,1.34147,-9.71058,-7.67268,-6.05472,93.2706
2023-02-16 05:37:05:439,-1.00813,1.3581,-9.72447,-7.67452,-6.0616,93.2714
2023-02-16 05:37:05:449,-1.00815,1.35042,-9.71145,-7.67244,-6.07131,93.2746
2023-02-16 05:37:05:459,-0.99629,1.34718,-9.6765,-7.6669,-6.07939,93.2825
2023-02-16 05:37:05:469,-0.994795,1.33352,-9.64877,-7.65913,-6.08403,93.2886
2023-02-16 05:37:05:479,-0.981345,1.32064,-9.63537,-7.65427,-6.09066,93.2967
2023-02-16 05:37:05:489,-0.977983,1.30425,-9.63029,-7.64946,-6.09947,93.3033
2023-02-16 05:37:05:499,-0.987666,1.28534,-9.63923,-7.64645,-6.10803,93.3126
2023-02-16 05:37:05:509,-0.99249,1.27944,-9.65555,-7.64509,-6.11987,93.3241
2023-02-16 05:37:05:519,-1.01221,1.29508,-9.65347,-7.64141,-6.1347,93.3365
2023-02-16 05:37:05:529,-1.03471,1.2845,-9.67194,-7.63668,-6.14887,93.3464
2023-02-16 05:37:05:539,-1.02833,1.28607,-9.64604,-7.63113,-6.16175,93.3567
2023-02-16 05:37:05:549,-1.03747,1.27112,-9.62048,-7.62795,-6.17355,93.3687
2023-02-16 05:37:05:559,-1.03187,1.26059,-9.6234,-7.62429,-6.18601,93.3832
2023-02-16 05:37:05:570,-1.027,1.26952,-9.64022,-7.6221,-6.19415,93.3936
2023-02-16 05:37:05:580,-1.05045,1.28417,-9.62219,-7.6217,-6.20798,93.4072
2023-02-16 05:37:05:589,-1.06539,1.2858,-9.60719,-7.62244,-6.21753,93.4204
2023-02-16 05:37:05:599,-1.10478,1.28814,-9.61288,-7.62329,-6.22541,93.4328
2023-02-16 05:37:05:609,-1.15202,1.30018,-9.62867,-7.62465,-6.22992,93.4478
2023-02-16 05:37:05:620,-1.17886,1.31648,-9.64503,-7.62513,-6.23303,93.4647
2023-02-16 05:37:05:629,-1.18496,1.32076,-9.63939,-7.62698,-6.2358,93.4793
2023-02-16 05:37:05:639,-1.19225,1.31975,-9.62519,-7.62635,-6.23544,93.4866
2023-02-16 05:37:05:649,-1.17882,1.30282,-9.61754,-7.62569,-6.23488,93.4913
2023-02-16 05:37:05:660,-1.17922,1.29773,-9.6227,-7.62432,-6.23828,93.4914
2023-02-16 05:37:05:670,-1.15981,1.30583,-9.62262,-7.62085,-6.23325,93.4858
2023-02-16 05:37:05:679,-1.13268,1.29595,-9.61668,-7.61808,-6.23063,93.4803
2023-02-16 05:37:05:689,-1.11338,1.30135,-9.63517,-7.61869,-6.22344,93.4709
2023-02-16 05:37:05:699,-1.10405,1.31652,-9.67576,-7.61682,-6.21123,93.4592
2023-02-16 05:37:05:709,-1.06675,1.3211,-9.70725,-7.61834,-6.19764,93.4453
2023-02-16 05:37:05:719,-1.03041,1.30641,-9.71089,-7.61413,-6.1897,93.4328
2023-02-16 05:37:05:729,-1.04357,1.28289,-9.69448,-7.61164,-6.18137,93.4226
2023-02-16 05:37:05:739,-1.05918,1.29684,-9.6612,-7.60652,-6.17472,93.4115
2023-02-16 05:37:05:749,-1.04874,1.29667,-9.64264,-7.60297,-6.16952,93.4055
2023-02-16 05:37:05:759,-1.03395,1.29305,-9.62435,-7.59982,-6.16291,93.3992
2023-02-16 05:37:05:769,-1.0129,1.29015,-9.58585,-7.59776,-6.15742,93.3925
2023-02-16 05:37:05:779,-0.971737,1.27411,-9.57922,-7.60288,-6.14938,93.3885
2023-02-16 05:37:05:789,-0.960241,1.2808,-9.58546,-7.60523,-6.14067,93.3866
2023-02-16 05:37:05:799,-0.963273,1.29671,-9.59077,-7.60853,-6.1383,93.3893
2023-02-16 05:37:05:809,-0.974514,1.30325,-9.61553,-7.6139,-6.13368,93.3964
2023-02-16 05:37:05:820,-0.989741,1.31207,-9.64479,-7.61929,-6.13302,93.405
2023-02-16 05:37:05:829,-1.00877,1.31895,-9.66711,-7.62032,-6.13238,93.4147
2023-02-16 05:37:05:839,-1.04191,1.31223,-9.66267,-7.62113,-6.13419,93.4252
2023-02-16 05:37:05:849,-1.07877,1.30688,-9.65901,-7.62444,-6.13718,93.4354
2023-02-16 05:37:05:860,-1.08613,1.31238,-9.67179,-7.62816,-6.13719,93.4472
2023-02-16 05:37:05:870,-1.08483,1.31692,-9.66533,-7.62817,-6.1365,93.4551
2023-02-16 05:37:05:879,-1.08127,1.30283,-9.65232,-7.63179,-6.13571,93.4622
2023-02-16 05:37:05:889,-1.04519,1.30572,-9.64435,-7.63253,-6.13648,93.4666
2023-02-16 05:37:05:900,-1.03462,1.3085,-9.6478,-7.63621,-6.13459,93.4708
2023-02-16 05:37:05:909,-1.04205,1.30597,-9.64308,-7.64012,-6.13763,93.4715
2023-02-16 05:37:05:919,-1.05078,1.31269,-9.65422,-7.64528,-6.14007,93.4712
2023-02-16 05:37:05:929,-1.03168,1.31822,-9.64504,-7.65386,-6.13951,93.4706
2023-02-16 05:37:05:939,-1.04848,1.32123,-9.62946,-7.65719,-6.14333,93.4695
2023-02-16 05:37:05:949,-1.0868,1.3435,-9.64937,-7.6623,-6.14702,93.4674
