Timestamp,Acceleration_x,Acceleration_y,Acceleration_z,roll,pitch,yaw
2023-02-15 07:30:11:631,-0.82245,2.82131,-9.36276,-16.9947,-4.52733,93.9678
2023-02-15 07:30:11:639,-0.781615,2.8488,-9.3966,-17.0195,-4.53928,93.9851
2023-02-15 07:30:11:649,-0.763943,2.87694,-9.40869,-17.0454,-4.55491,94.0014
2023-02-15 07:30:11:659,-0.772934,2.90751,-9.42506,-17.0626,-4.57366,94.013
2023-02-15 07:30:11:670,-0.799492,2.91385,-9.44372,-17.0725,-4.59738,94.0268
2023-02-15 07:30:11:679,-0.851313,2.90315,-9.45564,-17.0703,-4.62429,94.0393
2023-02-15 07:30:11:689,-0.849154,2.89281,-9.45527,-17.0601,-4.65084,94.0534
2023-02-15 07:30:11:699,-0.850582,2.88081,-9.46356,-17.043,-4.67318,94.0615
2023-02-15 07:30:11:709,-0.840038,2.87133,-9.47069,-17.0203,-4.69587,94.0658
2023-02-15 07:30:11:719,-0.785558,2.83759,-9.46181,-16.9902,-4.71848,94.0678
2023-02-15 07:30:11:729,-0.727879,2.78231,-9.40898,-16.9575,-4.7363,94.0632
2023-02-15 07:30:11:739,-0.693896,2.73488,-9.34458,-16.9251,-4.75602,94.0578
2023-02-15 07:30:11:749,-0.652904,2.70435,-9.24169,-16.8982,-4.77549,94.0535
2023-02-15 07:30:11:759,-0.638415,2.67454,-9.16776,-16.8784,-4.79155,94.0553
2023-02-15 07:30:11:769,-0.624704,2.69839,-9.17492,-16.8655,-4.80365,94.0637
2023-02-15 07:30:11:779,-0.623046,2.72084,-9.21506,-16.8632,-4.81675,94.0797
2023-02-15 07:30:11:789,-0.619908,2.7265,-9.21025,-16.8665,-4.83074,94.1028
2023-02-15 07:30:11:799,-0.61967,2.72965,-9.18544,-16.8789,-4.84577,94.1328
2023-02-15 07:30:11:809,-0.63559,2.74229,-9.21845,-16.899,-4.86574,94.1701
2023-02-15 07:30:11:819,-0.621591,2.76457,-9.23128,-16.9217,-4.88494,94.2161
2023-02-15 07:30:11:830,-0.582501,2.77435,-9.23401,-16.9515,-4.89954,94.2663
2023-02-15 07:30:11:839,-0.566338,2.77919,-9.24167,-16.9861,-4.91415,94.3257
2023-02-15 07:30:11:849,-0.60756,2.80018,-9.25157,-17.0249,-4.93265,94.3948
2023-02-15 07:30:11:859,-0.678006,2.81718,-9.24638,-17.0705,-4.95478,94.4738
2023-02-15 07:30:11:870,-0.744408,2.81678,-9.25339,-17.1169,-4.98,94.5637
2023-02-15 07:30:11:880,-0.785171,2.84975,-9.28949,-17.1619,-5.00483,94.6571
2023-02-15 07:30:11:890,-0.784005,2.86276,-9.34947,-17.2061,-5.02139,94.7553
2023-02-15 07:30:11:899,-0.800612,2.88518,-9.44476,-17.2435,-5.0287,94.8544
2023-02-15 07:30:11:910,-0.826079,2.91233,-9.56053,-17.2738,-5.03365,94.9495
2023-02-15 07:30:11:919,-0.843889,2.91758,-9.6378,-17.292,-5.03722,95.0481
2023-02-15 07:30:11:930,-0.856983,2.90445,-9.6031,-17.3062,-5.0489,95.1439
2023-02-15 07:30:11:940,-0.898943,2.85472,-9.5103,-17.3083,-5.06142,95.2393
2023-02-15 07:30:11:949,-0.98002,2.81083,-9.43846,-17.3069,-5.08297,95.3311
2023-02-15 07:30:11:959,-1.0357,2.79142,-9.40476,-17.2965,-5.10233,95.4176
2023-02-15 07:30:11:969,-1.05703,2.79875,-9.4208,-17.2819,-5.11446,95.5018
2023-02-15 07:30:11:979,-1.06659,2.78824,-9.4519,-17.2595,-5.11866,95.5783
2023-02-15 07:30:11:989,-1.1054,2.76035,-9.45873,-17.2269,-5.11866,95.6463
2023-02-15 07:30:11:999,-1.12816,2.74534,-9.42855,-17.1834,-5.11863,95.7028
2023-02-15 07:30:12:9,-1.10928,2.70212,-9.37975,-17.1352,-5.11315,95.748
2023-02-15 07:30:12:19,-1.08218,2.65916,-9.3067,-17.0814,-5.10784,95.7809
2023-02-15 07:30:12:29,-1.0221,2.62437,-9.23776,-17.0275,-5.09781,95.8029
2023-02-15 07:30:12:39,-0.951967,2.60642,-9.19799,-16.9799,-5.08295,95.812
2023-02-15 07:30:12:49,-0.912245,2.6028,-9.21331,-16.9351,-5.06705,95.8063
2023-02-15 07:30:12:59,-0.8909,2.61742,-9.26304,-16.8931,-5.05409,95.7911
2023-02-15 07:30:12:69,-0.853562,2.63156,-9.2915,-16.8557,-5.04267,95.7679
2023-02-15 07:30:12:79,-0.812335,2.65203,-9.31118,-16.826,-5.03088,95.7306
2023-02-15 07:30:12:89,-0.8103,2.66794,-9.32736,-16.8068,-5.02315,95.6881
2023-02-15 07:30:12:99,-0.791465,2.68911,-9.29723,-16.7952,-5.02284,95.6402
2023-02-15 07:30:12:109,-0.757606,2.70293,-9.26324,-16.7929,-5.02568,95.5897
2023-02-15 07:30:12:119,-0.726744,2.71811,-9.24196,-16.7919,-5.03202,95.54
2023-02-15 07:30:12:129,-0.682552,2.73832,-9.24188,-16.8038,-5.04592,95.4964
2023-02-15 07:30:12:139,-0.650912,2.74265,-9.24467,-16.8176,-5.05675,95.4529
2023-02-15 07:30:12:149,-0.601982,2.76608,-9.26534,-16.8297,-5.06849,95.4157
2023-02-15 07:30:12:159,-0.561415,2.78314,-9.2906,-16.8457,-5.07831,95.3812
2023-02-15 07:30:12:170,-0.561052,2.81536,-9.3229,-16.8659,-5.09513,95.3598
2023-02-15 07:30:12:179,-0.576285,2.84871,-9.33209,-16.8885,-5.11445,95.3539
2023-02-15 07:30:12:189,-0.624224,2.86006,-9.3344,-16.9136,-5.13664,95.3588
2023-02-15 07:30:12:199,-0.680592,2.88271,-9.34537,-16.9361,-5.16113,95.3784
2023-02-15 07:30:12:210,-0.76147,2.90359,-9.36751,-16.9603,-5.18278,95.4104
2023-02-15 07:30:12:219,-0.811834,2.91363,-9.38286,-16.9834,-5.20681,95.4522
2023-02-15 07:30:12:229,-0.837856,2.92181,-9.37063,-17.0009,-5.23216,95.5027
2023-02-15 07:30:12:239,-0.860154,2.90575,-9.3428,-17.0115,-5.2551,95.56
2023-02-15 07:30:12:249,-0.870211,2.88501,-9.29625,-17.0218,-5.27682,95.6213
2023-02-15 07:30:12:259,-0.868273,2.84617,-9.23975,-17.0302,-5.29824,95.6887
2023-02-15 07:30:12:269,-0.865835,2.84484,-9.19383,-17.0424,-5.31656,95.7593
2023-02-15 07:30:12:279,-0.884129,2.84399,-9.19956,-17.0574,-5.32793,95.8355
2023-02-15 07:30:12:289,-0.890634,2.86997,-9.19833,-17.0778,-5.3417,95.9145
2023-02-15 07:30:12:299,-0.891099,2.8932,-9.24194,-17.1009,-5.35913,95.999
2023-02-15 07:30:12:310,-0.940932,2.92998,-9.28299,-17.1255,-5.37718,96.0873
2023-02-15 07:30:12:320,-1.00711,2.95507,-9.29112,-17.1481,-5.39527,96.1799
2023-02-15 07:30:12:330,-1.0304,2.96589,-9.29994,-17.1727,-5.41881,96.274
2023-02-15 07:30:12:339,-1.05017,2.97993,-9.28731,-17.1926,-5.4391,96.369
2023-02-15 07:30:12:350,-1.0792,2.98074,-9.27442,-17.2117,-5.45824,96.461
2023-02-15 07:30:12:359,-1.11894,2.98023,-9.26443,-17.2313,-5.47704,96.5484
2023-02-15 07:30:12:370,-1.12998,2.98569,-9.27376,-17.2554,-5.49137,96.6325
2023-02-15 07:30:12:379,-1.13364,2.99719,-9.26891,-17.2771,-5.50682,96.7081
2023-02-15 07:30:12:389,-1.14178,3.01236,-9.30266,-17.2976,-5.52038,96.7775
2023-02-15 07:30:12:399,-1.11309,3.02677,-9.3478,-17.3117,-5.53482,96.8388
2023-02-15 07:30:12:409,-1.13272,3.02666,-9.36066,-17.3229,-5.555,96.8943
2023-02-15 07:30:12:419,-1.16087,3.0215,-9.34224,-17.3277,-5.57274,96.9434
2023-02-15 07:30:12:429,-1.15016,2.99015,-9.31257,-17.3269,-5.5865,96.986
2023-02-15 07:30:12:439,-1.12883,2.95776,-9.28301,-17.316,-5.60005,97.0174
2023-02-15 07:30:12:450,-1.11512,2.93692,-9.25221,-17.3034,-5.60572,97.045
2023-02-15 07:30:12:459,-1.11529,2.91674,-9.23798,-17.2882,-5.60598,97.0687
2023-02-15 07:30:12:469,-1.09593,2.88052,-9.24806,-17.2725,-5.60119,97.0855
2023-02-15 07:30:12:479,-1.0415,2.89204,-9.29536,-17.2564,-5.58752,97.0953
2023-02-15 07:30:12:489,-0.994348,2.89004,-9.35971,-17.2425,-5.56813,97.097
2023-02-15 07:30:12:499,-0.937196,2.87785,-9.37429,-17.2257,-5.54462,97.0969
2023-02-15 07:30:12:509,-0.879607,2.85544,-9.38289,-17.2108,-5.52299,97.0911
2023-02-15 07:30:12:519,-0.845033,2.84747,-9.36885,-17.1956,-5.50572,97.0851
2023-02-15 07:30:12:529,-0.812967,2.83367,-9.34054,-17.1796,-5.49178,97.0775
2023-02-15 07:30:12:539,-0.780216,2.82291,-9.31388,-17.1625,-5.48499,97.0684
2023-02-15 07:30:12:550,-0.780318,2.81677,-9.28927,-17.1545,-5.47627,97.0601
2023-02-15 07:30:12:559,-0.787403,2.81759,-9.23425,-17.1438,-5.46878,97.0527
2023-02-15 07:30:12:569,-0.805606,2.82789,-9.2079,-17.1407,-5.46356,97.0511
2023-02-15 07:30:12:579,-0.861134,2.83776,-9.18205,-17.1415,-5.46379,97.0523
2023-02-15 07:30:12:590,-0.915841,2.85596,-9.19017,-17.1455,-5.47013,97.0567
2023-02-15 07:30:12:599,-0.957091,2.87827,-9.22459,-17.1557,-5.47774,97.0652
2023-02-15 07:30:12:609,-0.976005,2.90761,-9.24564,-17.1684,-5.48647,97.0699
2023-02-15 07:30:12:619,-0.957899,2.90843,-9.26547,-17.1771,-5.49844,97.0722
2023-02-15 07:30:12:629,-0.954576,2.91329,-9.26959,-17.1877,-5.51179,97.0724
2023-02-15 07:30:12:639,-0.979925,2.90035,-9.2928,-17.1953,-5.52405,97.0678
2023-02-15 07:30:12:649,-0.979543,2.90259,-9.29403,-17.1988,-5.5305,97.0622
2023-02-15 07:30:12:659,-0.972326,2.91339,-9.27622,-17.2062,-5.53331,97.0559
2023-02-15 07:30:12:670,-0.950674,2.90002,-9.29626,-17.2112,-5.5328,97.0482
2023-02-15 07:30:12:679,-0.929145,2.89764,-9.32375,-17.2159,-5.53223,97.0355
2023-02-15 07:30:12:690,-0.92114,2.90889,-9.34215,-17.2248,-5.52808,97.0264
2023-02-15 07:30:12:699,-0.915088,2.91465,-9.33444,-17.2362,-5.52357,97.0154
2023-02-15 07:30:12:710,-0.92399,2.89435,-9.30358,-17.2486,-5.51966,97.0085
2023-02-15 07:30:12:719,-0.93561,2.90561,-9.28858,-17.2576,-5.51684,97.0036
2023-02-15 07:30:12:729,-0.939793,2.91799,-9.28941,-17.2642,-5.51064,96.9972
2023-02-15 07:30:12:739,-0.917628,2.91635,-9.2733,-17.2686,-5.50023,96.9905
2023-02-15 07:30:12:749,-0.855346,2.89892,-9.26234,-17.2708,-5.48273,96.9861
2023-02-15 07:30:12:759,-0.83121,2.90023,-9.27047,-17.271,-5.46553,96.9763
2023-02-15 07:30:12:769,-0.818088,2.90201,-9.27897,-17.2719,-5.44841,96.9691
2023-02-15 07:30:12:779,-0.791712,2.90839,-9.28447,-17.2737,-5.43326,96.9598
2023-02-15 07:30:12:789,-0.786017,2.90151,-9.29261,-17.2758,-5.41812,96.9558
2023-02-15 07:30:12:799,-0.767926,2.91037,-9.3193,-17.2748,-5.40499,96.9499
2023-02-15 07:30:12:810,-0.761633,2.90747,-9.35303,-17.2757,-5.39831,96.9477
2023-02-15 07:30:12:819,-0.755462,2.92124,-9.36607,-17.2814,-5.39865,96.9491
2023-02-15 07:30:12:829,-0.776938,2.92429,-9.36424,-17.2813,-5.4048,96.955
2023-02-15 07:30:12:839,-0.817998,2.91973,-9.34033,-17.2749,-5.40556,96.9647
2023-02-15 07:30:12:850,-0.850655,2.9069,-9.31899,-17.2707,-5.40973,96.9774
2023-02-15 07:30:12:859,-0.860897,2.89518,-9.27833,-17.2627,-5.41821,96.9895
2023-02-15 07:30:12:869,-0.858634,2.89012,-9.25933,-17.252,-5.42333,96.9998
2023-02-15 07:30:12:879,-0.855827,2.88285,-9.25551,-17.2448,-5.42953,97.0139
2023-02-15 07:30:12:890,-0.844833,2.89209,-9.29463,-17.2395,-5.43494,97.0291
2023-02-15 07:30:12:899,-0.854181,2.89584,-9.32725,-17.2331,-5.44623,97.0432
2023-02-15 07:30:12:910,-0.85739,2.89069,-9.34115,-17.2261,-5.45982,97.0583
2023-02-15 07:30:12:919,-0.884814,2.88301,-9.34732,-17.2194,-5.47366,97.0769
2023-02-15 07:30:12:930,-0.912744,2.86902,-9.3403,-17.2136,-5.48971,97.0965
2023-02-15 07:30:12:939,-0.925445,2.8617,-9.31254,-17.2027,-5.50852,97.1136
2023-02-15 07:30:12:950,-0.94676,2.84419,-9.27279,-17.1931,-5.53107,97.1306
2023-02-15 07:30:12:959,-0.976207,2.82119,-9.2606,-17.1849,-5.54708,97.1492
2023-02-15 07:30:12:970,-0.971405,2.79971,-9.22808,-17.1781,-5.56172,97.1701
2023-02-15 07:30:12:979,-0.940842,2.78813,-9.20488,-17.1756,-5.57163,97.1883
2023-02-15 07:30:12:989,-0.926642,2.79374,-9.2161,-17.1748,-5.58238,97.2085
2023-02-15 07:30:12:999,-0.943072,2.80798,-9.22866,-17.1743,-5.59231,97.2287
2023-02-15 07:30:13:9,-0.94713,2.81826,-9.24628,-17.1787,-5.60361,97.2473
2023-02-15 07:30:13:19,-0.938753,2.83384,-9.26414,-17.1873,-5.61272,97.2667
2023-02-15 07:30:13:29,-0.926363,2.8466,-9.26417,-17.199,-5.61999,97.288
2023-02-15 07:30:13:39,-0.9512,2.86387,-9.24712,-17.212,-5.62472,97.3099
2023-02-15 07:30:13:49,-0.976106,2.87599,-9.24384,-17.2258,-5.63076,97.3367
2023-02-15 07:30:13:59,-0.952453,2.87922,-9.25205,-17.2414,-5.6372,97.3598
2023-02-15 07:30:13:70,-0.918369,2.88224,-9.27352,-17.2603,-5.64048,97.382
2023-02-15 07:30:13:79,-0.92678,2.89381,-9.27058,-17.2799,-5.64756,97.4043
2023-02-15 07:30:13:90,-0.942652,2.90645,-9.26237,-17.3006,-5.65589,97.4302
2023-02-15 07:30:13:99,-0.958811,2.92911,-9.27587,-17.3262,-5.66243,97.4558
2023-02-15 07:30:13:110,-0.978713,2.95737,-9.28985,-17.3526,-5.6734,97.4828
2023-02-15 07:30:13:119,-0.968087,2.98281,-9.27791,-17.3783,-5.68093,97.5079
2023-02-15 07:30:13:129,-0.970656,2.99853,-9.29622,-17.4054,-5.69244,97.5345
2023-02-15 07:30:13:139,-1.01169,3.01107,-9.32053,-17.4296,-5.70437,97.5633
2023-02-15 07:30:13:149,-1.03386,3.02933,-9.31204,-17.4474,-5.71702,97.5904
2023-02-15 07:30:13:159,-1.06194,3.018,-9.32305,-17.4593,-5.73325,97.6169
2023-02-15 07:30:13:169,-1.09014,3.01027,-9.32613,-17.4717,-5.74841,97.6445
2023-02-15 07:30:13:179,-1.09243,3.00347,-9.32534,-17.4788,-5.76416,97.6682
2023-02-15 07:30:13:190,-1.07941,2.98378,-9.3011,-17.4794,-5.77465,97.6906
2023-02-15 07:30:13:199,-1.07696,2.94932,-9.25811,-17.4737,-5.78863,97.7065
2023-02-15 07:30:13:210,-1.08554,2.91757,-9.20519,-17.466,-5.8,97.7206
2023-02-15 07:30:13:219,-1.0726,2.86725,-9.16181,-17.4553,-5.80743,97.7305
2023-02-15 07:30:13:230,-1.0713,2.84492,-9.15676,-17.4476,-5.81026,97.7402
2023-02-15 07:30:13:239,-1.06329,2.84955,-9.21222,-17.4414,-5.80888,97.7451
2023-02-15 07:30:13:250,-1.0327,2.84666,-9.24409,-17.4352,-5.80241,97.7441
2023-02-15 07:30:13:259,-1.00535,2.86207,-9.29526,-17.4292,-5.79241,97.7374
2023-02-15 07:30:13:269,-0.953457,2.87273,-9.35071,-17.4231,-5.7773,97.7264
2023-02-15 07:30:13:279,-0.88981,2.87713,-9.38711,-17.418,-5.75903,97.7117
2023-02-15 07:30:13:289,-0.843199,2.87769,-9.37965,-17.4125,-5.73818,97.6923
2023-02-15 07:30:13:299,-0.793665,2.86391,-9.35997,-17.4097,-5.71792,97.6747
2023-02-15 07:30:13:309,-0.762742,2.84848,-9.34626,-17.4116,-5.69725,97.6594
2023-02-15 07:30:13:319,-0.742203,2.86513,-9.33957,-17.4151,-5.68058,97.6459
2023-02-15 07:30:13:330,-0.760648,2.89051,-9.34373,-17.4248,-5.66635,97.6364
2023-02-15 07:30:13:339,-0.820083,2.91816,-9.35226,-17.4413,-5.66101,97.636
2023-02-15 07:30:13:350,-0.885053,2.95872,-9.35909,-17.4547,-5.6635,97.6406
2023-02-15 07:30:13:359,-0.979092,2.99311,-9.35479,-17.469,-5.67924,97.6493
2023-02-15 07:30:13:369,-1.01713,2.99455,-9.34149,-17.4769,-5.69958,97.6603
2023-02-15 07:30:13:379,-1.01472,2.96985,-9.35276,-17.4753,-5.72514,97.6736
2023-02-15 07:30:13:389,-1.03699,2.95285,-9.32152,-17.4634,-5.7492,97.6839
2023-02-15 07:30:13:399,-1.06344,2.91874,-9.2723,-17.4439,-5.77219,97.6941
2023-02-15 07:30:13:410,-1.05499,2.87831,-9.2299,-17.4143,-5.78706,97.7001
2023-02-15 07:30:13:419,-1.05071,2.82833,-9.20334,-17.3831,-5.79421,97.7047
2023-02-15 07:30:13:429,-1.05216,2.78284,-9.17737,-17.3502,-5.79707,97.7116
2023-02-15 07:30:13:439,-1.04588,2.78307,-9.20877,-17.321,-5.78856,97.7179
2023-02-15 07:30:13:450,-1.05983,2.81607,-9.28524,-17.2959,-5.7766,97.7186
2023-02-15 07:30:13:459,-1.05169,2.84115,-9.34908,-17.273,-5.7582,97.7152
2023-02-15 07:30:13:469,-1.04536,2.86904,-9.39303,-17.2508,-5.73765,97.7113
2023-02-15 07:30:13:479,-1.03404,2.86264,-9.39085,-17.2273,-5.71004,97.703
2023-02-15 07:30:13:489,-0.984586,2.82107,-9.33783,-17.2047,-5.67937,97.6867
2023-02-15 07:30:13:499,-0.954217,2.79413,-9.28859,-17.1799,-5.64298,97.6643
2023-02-15 07:30:13:509,-0.936799,2.79152,-9.27399,-17.158,-5.60806,97.6398
2023-02-15 07:30:13:519,-0.875056,2.79023,-9.27795,-17.143,-5.57523,97.6115
2023-02-15 07:30:13:529,-0.777192,2.78066,-9.26651,-17.1347,-5.54419,97.5776
2023-02-15 07:30:13:539,-0.746886,2.77833,-9.23833,-17.1303,-5.52095,97.5411
2023-02-15 07:30:13:549,-0.755337,2.77503,-9.19829,-17.1317,-5.51183,97.5052
2023-02-15 07:30:13:559,-0.753347,2.76979,-9.14984,-17.1371,-5.51197,97.4707
2023-02-15 07:30:13:570,-0.767489,2.77263,-9.14548,-17.1467,-5.51674,97.4436
2023-02-15 07:30:13:579,-0.775238,2.7992,-9.16039,-17.1572,-5.51981,97.4196
2023-02-15 07:30:13:589,-0.739967,2.83208,-9.21432,-17.1749,-5.52211,97.4013
2023-02-15 07:30:13:599,-0.701975,2.85034,-9.24906,-17.1952,-5.5222,97.391
2023-02-15 07:30:13:609,-0.683748,2.87798,-9.26302,-17.2229,-5.52418,97.3888
2023-02-15 07:30:13:619,-0.686088,2.897,-9.28062,-17.2498,-5.52507,97.399
2023-02-15 07:30:13:629,-0.726807,2.92301,-9.29477,-17.2785,-5.52748,97.419
2023-02-15 07:30:13:639,-0.788637,2.95228,-9.31108,-17.3085,-5.53224,97.4518
2023-02-15 07:30:13:649,-0.858102,2.96825,-9.3157,-17.3409,-5.54171,97.493
2023-02-15 07:30:13:659,-0.944834,2.98641,-9.31456,-17.3718,-5.55153,97.54
2023-02-15 07:30:13:669,-1.00438,3.00603,-9.30333,-17.4007,-5.56385,97.5906
2023-02-15 07:30:13:679,-1.05243,3.02567,-9.29043,-17.4279,-5.57604,97.6375
2023-02-15 07:30:13:689,-1.09194,3.02056,-9.29665,-17.4561,-5.58751,97.6821
2023-02-15 07:30:13:699,-1.09415,3.03601,-9.27966,-17.4787,-5.59979,97.7217
2023-02-15 07:30:13:709,-1.08665,3.03684,-9.2752,-17.4994,-5.60805,97.7547
2023-02-15 07:30:13:719,-1.10015,3.02313,-9.28513,-17.5143,-5.62096,97.7796
2023-02-15 07:30:13:729,-1.10212,3.03269,-9.28288,-17.5247,-5.63648,97.7972
2023-02-15 07:30:13:739,-1.0769,3.00693,-9.27653,-17.5326,-5.65203,97.8067
2023-02-15 07:30:13:749,-1.06631,3.0057,-9.29164,-17.5353,-5.66627,97.8073
2023-02-15 07:30:13:759,-1.03354,3.00614,-9.3195,-17.5372,-5.67696,97.8042
2023-02-15 07:30:13:769,-0.985457,3,-9.34806,-17.5377,-5.68704,97.7966
2023-02-15 07:30:13:779,-0.968338,3.00564,-9.36726,-17.5341,-5.69689,97.7889
2023-02-15 07:30:13:789,-0.944954,3.01233,-9.3642,-17.5291,-5.70741,97.7806
2023-02-15 07:30:13:799,-0.926889,3.0035,-9.36573,-17.516,-5.7173,97.7729
2023-02-15 07:30:13:809,-0.926995,2.98243,-9.37487,-17.4975,-5.72603,97.7653
2023-02-15 07:30:13:819,-0.964743,2.95948,-9.34433,-17.4774,-5.73658,97.7645
2023-02-15 07:30:13:829,-1.00094,2.93754,-9.28671,-17.4505,-5.74582,97.7631
2023-02-15 07:30:13:839,-1.01218,2.89943,-9.22788,-17.4217,-5.74858,97.7642
2023-02-15 07:30:13:849,-1.01791,2.86038,-9.19825,-17.3954,-5.75131,97.7707
2023-02-15 07:30:13:859,-1.02727,2.83986,-9.18669,-17.372,-5.75173,97.778
2023-02-15 07:30:13:869,-1.03122,2.85105,-9.20034,-17.3532,-5.75135,97.7849
2023-02-15 07:30:13:879,-1.02219,2.868,-9.23818,-17.3321,-5.74543,97.7895
2023-02-15 07:30:13:889,-1.00406,2.88287,-9.26498,-17.3166,-5.73617,97.7893
2023-02-15 07:30:13:899,-1.01863,2.87027,-9.27661,-17.3001,-5.7297,97.7897
2023-02-15 07:30:13:909,-1.01815,2.89083,-9.27137,-17.2855,-5.7274,97.7871
2023-02-15 07:30:13:919,-1.00122,2.89216,-9.27609,-17.2745,-5.72211,97.7864
2023-02-15 07:30:13:929,-0.982851,2.88189,-9.27955,-17.2614,-5.71377,97.7847
2023-02-15 07:30:13:939,-0.988106,2.87862,-9.28679,-17.2474,-5.70472,97.7821
2023-02-15 07:30:13:949,-1.00138,2.87764,-9.28827,-17.2352,-5.69667,97.7749
2023-02-15 07:30:13:959,-0.981397,2.8773,-9.27152,-17.2204,-5.68794,97.7685
2023-02-15 07:30:13:969,-0.972357,2.85742,-9.24075,-17.21,-5.67855,97.7632
2023-02-15 07:30:13:979,-0.962429,2.84626,-9.2227,-17.1995,-5.66786,97.7544
2023-02-15 07:30:13:989,-0.945497,2.84074,-9.22163,-17.1928,-5.65873,97.7456
2023-02-15 07:30:13:999,-0.920462,2.84996,-9.2445,-17.1878,-5.64647,97.7347
2023-02-15 07:30:14:9,-0.901547,2.85884,-9.26795,-17.1827,-5.63583,97.7242
2023-02-15 07:30:14:19,-0.886539,2.86518,-9.29939,-17.1814,-5.62637,97.7117
2023-02-15 07:30:14:29,-0.860646,2.89534,-9.33,-17.1801,-5.6199,97.7024
2023-02-15 07:30:14:39,-0.831991,2.91294,-9.3777,-17.1794,-5.61759,97.6942
2023-02-15 07:30:14:49,-0.847634,2.91597,-9.37991,-17.1724,-5.61239,97.6879
2023-02-15 07:30:14:59,-0.858227,2.88704,-9.33623,-17.1655,-5.61262,97.6867
2023-02-15 07:30:14:69,-0.870722,2.87612,-9.3156,-17.1569,-5.61153,97.69
2023-02-15 07:30:14:79,-0.890917,2.8798,-9.3365,-17.1468,-5.61406,97.6932
2023-02-15 07:30:14:89,-0.901784,2.89245,-9.34879,-17.1321,-5.61657,97.6962
2023-02-15 07:30:14:99,-0.908158,2.88275,-9.35866,-17.1187,-5.61982,97.6995
2023-02-15 07:30:14:109,-0.923567,2.88157,-9.35573,-17.1006,-5.62043,97.7042
2023-02-15 07:30:14:119,-0.945484,2.88532,-9.33628,-17.0812,-5.62837,97.7035
2023-02-15 07:30:14:129,-0.988095,2.88629,-9.32254,-17.0638,-5.63631,97.7034
2023-02-15 07:30:14:139,-0.999048,2.8887,-9.2782,-17.0424,-5.64493,97.7062
2023-02-15 07:30:14:149,-0.973413,2.89387,-9.25464,-17.0241,-5.65608,97.7036
2023-02-15 07:30:14:159,-0.966822,2.89395,-9.23369,-17.0104,-5.66213,97.7027
2023-02-15 07:30:14:169,-0.971301,2.90881,-9.23031,-16.9973,-5.66837,97.7037
2023-02-15 07:30:14:179,-0.989428,2.91515,-9.22918,-16.9882,-5.67924,97.7068
2023-02-15 07:30:14:189,-1.02136,2.91472,-9.22998,-16.9787,-5.68466,97.7104
2023-02-15 07:30:14:199,-1.07469,2.92098,-9.24771,-16.9723,-5.69011,97.7164
2023-02-15 07:30:14:209,-1.10444,2.94219,-9.25003,-16.9622,-5.69552,97.7212
2023-02-15 07:30:14:219,-1.13819,2.95858,-9.25397,-16.9521,-5.6971,97.7224
2023-02-15 07:30:14:229,-1.17615,2.96574,-9.2692,-16.9385,-5.69429,97.7237
2023-02-15 07:30:14:239,-1.18192,2.9388,-9.27866,-16.9219,-5.68787,97.7179
2023-02-15 07:30:14:249,-1.15047,2.91439,-9.26612,-16.9031,-5.67585,97.7097
2023-02-15 07:30:14:259,-1.12925,2.89431,-9.25147,-16.8832,-5.662,97.6956
2023-02-15 07:30:14:269,-1.10445,2.85925,-9.25635,-16.8667,-5.64526,97.6784
2023-02-15 07:30:14:279,-1.07962,2.84326,-9.27203,-16.8526,-5.62571,97.6565
2023-02-15 07:30:14:289,-1.0585,2.83146,-9.27624,-16.8465,-5.60721,97.6332
2023-02-15 07:30:14:299,-1.03657,2.78975,-9.22806,-16.844,-5.58466,97.6085
2023-02-15 07:30:14:309,-1.01629,2.76906,-9.18855,-16.8475,-5.55805,97.5908
2023-02-15 07:30:14:319,-0.97672,2.7997,-9.23953,-16.8579,-5.52607,97.5744
2023-02-15 07:30:14:329,-0.967879,2.83477,-9.29839,-16.8688,-5.49656,97.5609
2023-02-15 07:30:14:339,-0.952895,2.84325,-9.34298,-16.8814,-5.461,97.5515
2023-02-15 07:30:14:349,-0.882305,2.84863,-9.40713,-16.8861,-5.42793,97.54
2023-02-15 07:30:14:359,-0.879615,2.83027,-9.42857,-16.8909,-5.39794,97.5322
2023-02-15 07:30:14:369,-0.939104,2.81875,-9.39178,-16.8884,-5.37858,97.5256
2023-02-15 07:30:14:379,-0.960803,2.78956,-9.38093,-16.8815,-5.35487,97.519
2023-02-15 07:30:14:389,-0.950066,2.77113,-9.37966,-16.8615,-5.32496,97.5155
2023-02-15 07:30:14:399,-0.93457,2.74619,-9.38278,-16.8348,-5.2862,97.5055
2023-02-15 07:30:14:409,-0.859468,2.7186,-9.4085,-16.797,-5.23489,97.4948
2023-02-15 07:30:14:419,-0.732943,2.6647,-9.39892,-16.7525,-5.16418,97.4812
2023-02-15 07:30:14:429,-0.617897,2.61853,-9.36718,-16.7031,-5.08589,97.4699
2023-02-15 07:30:14:439,-0.516652,2.57517,-9.36179,-16.6529,-5.00144,97.4586
2023-02-15 07:30:14:449,-0.431287,2.56653,-9.33301,-16.6089,-4.92062,97.4539
2023-02-15 07:30:14:459,-0.412739,2.5491,-9.30803,-16.571,-4.84266,97.4536
2023-02-15 07:30:14:469,-0.463931,2.55532,-9.30843,-16.5399,-4.76343,97.4566
2023-02-15 07:30:14:479,-0.487236,2.55065,-9.30931,-16.5164,-4.6883,97.4636
2023-02-15 07:30:14:489,-0.543042,2.55814,-9.32345,-16.5009,-4.62299,97.4734
2023-02-15 07:30:14:499,-0.565425,2.59818,-9.36878,-16.4905,-4.57214,97.4832
2023-02-15 07:30:14:509,-0.579599,2.64332,-9.39962,-16.4815,-4.52814,97.4879
2023-02-15 07:30:14:519,-0.611736,2.64108,-9.37549,-16.4777,-4.48654,97.4896
2023-02-15 07:30:14:529,-0.629087,2.65104,-9.33097,-16.4766,-4.45288,97.491
2023-02-15 07:30:14:539,-0.625872,2.6605,-9.27895,-16.4805,-4.42748,97.4916
2023-02-15 07:30:14:549,-0.647829,2.66922,-9.23891,-16.4919,-4.40871,97.4879
2023-02-15 07:30:14:559,-0.658912,2.70031,-9.19951,-16.5123,-4.39759,97.4823
2023-02-15 07:30:14:569,-0.654517,2.7249,-9.18207,-16.5355,-4.394,97.4758
2023-02-15 07:30:14:579,-0.681308,2.75423,-9.19112,-16.5668,-4.39702,97.4632
2023-02-15 07:30:14:589,-0.718618,2.80245,-9.21507,-16.6002,-4.40503,97.4483
2023-02-15 07:30:14:599,-0.761113,2.83901,-9.27616,-16.6372,-4.42234,97.4345
2023-02-15 07:30:14:609,-0.750588,2.86286,-9.32314,-16.6721,-4.43946,97.4143
2023-02-15 07:30:14:619,-0.705375,2.85716,-9.34712,-16.7056,-4.4577,97.3907
2023-02-15 07:30:14:629,-0.639309,2.84116,-9.35625,-16.7335,-4.4731,97.3691
2023-02-15 07:30:14:639,-0.58,2.83914,-9.33154,-16.7661,-4.48996,97.3487
2023-02-15 07:30:14:649,-0.533515,2.82272,-9.29152,-16.7989,-4.51443,97.3329
2023-02-15 07:30:14:659,-0.513909,2.81828,-9.25397,-16.8352,-4.53952,97.3279
2023-02-15 07:30:14:669,-0.534985,2.84189,-9.27764,-16.8771,-4.5668,97.3322
2023-02-15 07:30:14:679,-0.560054,2.884,-9.32637,-16.9252,-4.59699,97.3471
2023-02-15 07:30:14:689,-0.63653,2.92019,-9.35992,-16.9758,-4.633,97.3737
2023-02-15 07:30:14:699,-0.711879,2.9605,-9.35706,-17.0249,-4.67067,97.4103
2023-02-15 07:30:14:709,-0.786858,2.99568,-9.38519,-17.0691,-4.70346,97.4477
2023-02-15 07:30:14:719,-0.860171,3.01399,-9.3971,-17.1071,-4.74104,97.4973
2023-02-15 07:30:14:729,-0.926673,3.00746,-9.36764,-17.1356,-4.77187,97.5448
2023-02-15 07:30:14:739,-0.998983,3.02025,-9.36833,-17.1609,-4.80169,97.5945
2023-02-15 07:30:14:749,-1.05277,3.02201,-9.38677,-17.182,-4.83146,97.6388
2023-02-15 07:30:14:759,-1.07055,3.03207,-9.40116,-17.1993,-4.86499,97.6791
2023-02-15 07:30:14:769,-1.06878,3.03192,-9.44541,-17.2038,-4.89703,97.7091
2023-02-15 07:30:14:779,-1.04596,3.02918,-9.4491,-17.2038,-4.92298,97.7329
2023-02-15 07:30:14:789,-0.9958,3.01773,-9.43001,-17.197,-4.94809,97.7488
2023-02-15 07:30:14:799,-0.931272,2.98641,-9.42014,-17.188,-4.96986,97.7578
2023-02-15 07:30:14:809,-0.886882,2.96818,-9.41547,-17.171,-4.98997,97.7642
2023-02-15 07:30:14:819,-0.853333,2.95104,-9.38449,-17.1481,-5.00839,97.7703
2023-02-15 07:30:14:829,-0.847124,2.93187,-9.35476,-17.1273,-5.02783,97.7783
2023-02-15 07:30:14:839,-0.845803,2.90973,-9.33615,-17.1013,-5.04485,97.7887
2023-02-15 07:30:14:849,-0.874831,2.89321,-9.31393,-17.0704,-5.05849,97.7979
2023-02-15 07:30:14:859,-0.919228,2.87544,-9.31809,-17.0343,-5.07551,97.8142
2023-02-15 07:30:14:869,-0.957286,2.87009,-9.31345,-16.995,-5.08777,97.8318
2023-02-15 07:30:14:879,-1.0345,2.84263,-9.30422,-16.9505,-5.09907,97.8484
2023-02-15 07:30:14:889,-1.10699,2.81522,-9.33084,-16.8987,-5.10644,97.8639
2023-02-15 07:30:14:899,-1.14933,2.80441,-9.3564,-16.845,-5.1102,97.8734
2023-02-15 07:30:14:909,-1.14774,2.7681,-9.3667,-16.7856,-5.10644,97.8719
2023-02-15 07:30:14:919,-1.13768,2.72279,-9.34913,-16.7216,-5.0934,97.8629
2023-02-15 07:30:14:929,-1.07839,2.69588,-9.34896,-16.6522,-5.07557,97.8432
2023-02-15 07:30:14:939,-1.00212,2.65543,-9.35824,-16.5824,-5.05198,97.8096
2023-02-15 07:30:14:949,-0.935225,2.62929,-9.3838,-16.511,-5.0275,97.765
2023-02-15 07:30:14:959,-0.87526,2.62516,-9.4025,-16.4414,-5.00219,97.7125
2023-02-15 07:30:14:969,-0.833468,2.61038,-9.40855,-16.3717,-4.97885,97.6541
2023-02-15 07:30:14:979,-0.800698,2.57995,-9.36386,-16.3059,-4.95643,97.5887
2023-02-15 07:30:14:989,-0.788638,2.54836,-9.31415,-16.2416,-4.9368,97.5179
2023-02-15 07:30:14:999,-0.792863,2.5322,-9.26793,-16.1854,-4.92128,97.4515
2023-02-15 07:30:15:9,-0.80868,2.54038,-9.24566,-16.1375,-4.90253,97.3779
2023-02-15 07:30:15:19,-0.790665,2.54031,-9.22474,-16.0977,-4.87906,97.3075
2023-02-15 07:30:15:29,-0.727259,2.54554,-9.2161,-16.0611,-4.85261,97.2356
2023-02-15 07:30:15:39,-0.687594,2.56129,-9.24459,-16.036,-4.82791,97.1635
2023-02-15 07:30:15:49,-0.686758,2.59575,-9.28762,-16.0124,-4.8064,97.0906
2023-02-15 07:30:15:59,-0.679903,2.60221,-9.30233,-15.9955,-4.7885,97.0192
2023-02-15 07:30:15:69,-0.67875,2.61732,-9.31865,-15.9844,-4.77576,96.9519
2023-02-15 07:30:15:79,-0.692969,2.62644,-9.34127,-15.9717,-4.76366,96.8806
2023-02-15 07:30:15:89,-0.710193,2.64006,-9.34173,-15.965,-4.75464,96.8132
2023-02-15 07:30:15:99,-0.721763,2.67627,-9.36435,-15.9578,-4.74893,96.7487
2023-02-15 07:30:15:109,-0.734464,2.68711,-9.37637,-15.9499,-4.74614,96.6863
2023-02-15 07:30:15:119,-0.740217,2.67013,-9.37462,-15.9409,-4.7367,96.6273
2023-02-15 07:30:15:129,-0.761806,2.67936,-9.39327,-15.9338,-4.73317,96.5714
2023-02-15 07:30:15:139,-0.757475,2.68329,-9.41362,-15.9257,-4.7269,96.5202
2023-02-15 07:30:15:149,-0.739279,2.68307,-9.41187,-15.9201,-4.7195,96.4683
2023-02-15 07:30:15:159,-0.72905,2.67673,-9.39247,-15.9155,-4.70859,96.4229
2023-02-15 07:30:15:169,-0.719173,2.66036,-9.36538,-15.9105,-4.6959,96.3796
2023-02-15 07:30:15:179,-0.723211,2.66334,-9.32088,-15.908,-4.68041,96.3419
2023-02-15 07:30:15:189,-0.714321,2.66792,-9.30006,-15.9044,-4.67224,96.309
2023-02-15 07:30:15:199,-0.706897,2.65818,-9.29456,-15.9091,-4.65607,96.2806
2023-02-15 07:30:15:209,-0.666765,2.65626,-9.29635,-15.9157,-4.6349,96.254
2023-02-15 07:30:15:219,-0.640333,2.66552,-9.31364,-15.9226,-4.61409,96.2303
2023-02-15 07:30:15:229,-0.662262,2.6936,-9.33043,-15.9338,-4.59501,96.2106
2023-02-15 07:30:15:239,-0.690321,2.70415,-9.3638,-15.9436,-4.57839,96.1955
2023-02-15 07:30:15:249,-0.710595,2.73793,-9.38014,-15.9595,-4.56759,96.183
2023-02-15 07:30:15:259,-0.7218,2.76339,-9.38275,-15.9719,-4.55127,96.1769
2023-02-15 07:30:15:269,-0.725233,2.76229,-9.36989,-15.9836,-4.53782,96.1669
2023-02-15 07:30:15:279,-0.717415,2.76474,-9.35424,-15.9977,-4.52359,96.1596
2023-02-15 07:30:15:289,-0.712109,2.76846,-9.34092,-16.009,-4.50698,96.1522
2023-02-15 07:30:15:299,-0.722143,2.76832,-9.33789,-16.0177,-4.49066,96.1478
2023-02-15 07:30:15:309,-0.742287,2.77858,-9.36679,-16.025,-4.47548,96.1395
2023-02-15 07:30:15:319,-0.755814,2.81476,-9.41593,-16.0298,-4.46391,96.1302
2023-02-15 07:30:15:329,-0.750232,2.8418,-9.46466,-16.0307,-4.45564,96.1149
2023-02-15 07:30:15:339,-0.745627,2.84463,-9.48201,-16.0283,-4.45056,96.0974
2023-02-15 07:30:15:349,-0.731343,2.83913,-9.46801,-16.0219,-4.44437,96.0745
2023-02-15 07:30:15:359,-0.69933,2.80585,-9.44172,-16.0082,-4.44103,96.049
2023-02-15 07:30:15:369,-0.690441,2.76846,-9.41297,-15.9895,-4.44069,96.0187
2023-02-15 07:30:15:379,-0.690387,2.73643,-9.39942,-15.9646,-4.44096,95.9868
2023-02-15 07:30:15:389,-0.683226,2.71151,-9.38752,-15.9409,-4.44641,95.955
2023-02-15 07:30:15:399,-0.674235,2.71308,-9.42228,-15.9187,-4.4513,95.9229
2023-02-15 07:30:15:409,-0.696874,2.70772,-9.41008,-15.8893,-4.4592,95.8874
2023-02-15 07:30:15:419,-0.712135,2.6717,-9.37143,-15.8625,-4.46941,95.8563
2023-02-15 07:30:15:429,-0.715349,2.66291,-9.3673,-15.8327,-4.47794,95.8262
2023-02-15 07:30:15:439,-0.728585,2.65003,-9.35167,-15.8081,-4.48633,95.7999
2023-02-15 07:30:15:449,-0.737975,2.63857,-9.31549,-15.7826,-4.50011,95.7747
2023-02-15 07:30:15:459,-0.746043,2.63427,-9.29994,-15.7612,-4.51072,95.7532
2023-02-15 07:30:15:469,-0.756691,2.63745,-9.31234,-15.7409,-4.52361,95.7323
2023-02-15 07:30:15:479,-0.776954,2.62704,-9.3107,-15.7251,-4.53115,95.7114
2023-02-15 07:30:15:489,-0.785346,2.62175,-9.34012,-15.7118,-4.53643,95.6894
2023-02-15 07:30:15:499,-0.77656,2.63169,-9.36226,-15.7002,-4.53997,95.6669
2023-02-15 07:30:15:509,-0.763932,2.63089,-9.3632,-15.6851,-4.54198,95.6444
2023-02-15 07:30:15:519,-0.763369,2.62233,-9.36949,-15.6739,-4.54818,95.6223
2023-02-15 07:30:15:529,-0.755835,2.60576,-9.37801,-15.6633,-4.55411,95.6028
2023-02-15 07:30:15:539,-0.730362,2.59743,-9.37791,-15.6522,-4.5579,95.5831
2023-02-15 07:30:15:549,-0.716885,2.59788,-9.38284,-15.6433,-4.56121,95.5598
2023-02-15 07:30:15:559,-0.722694,2.59552,-9.37619,-15.6342,-4.56388,95.5354
2023-02-15 07:30:15:569,-0.733185,2.60857,-9.36917,-15.6242,-4.56787,95.5171
2023-02-15 07:30:15:579,-0.723432,2.61003,-9.38746,-15.6163,-4.57308,95.4981
2023-02-15 07:30:15:589,-0.71193,2.59632,-9.3884,-15.6091,-4.57719,95.4788
2023-02-15 07:30:15:599,-0.733988,2.58726,-9.38756,-15.6044,-4.57694,95.4606
2023-02-15 07:30:15:609,-0.694404,2.57648,-9.38402,-15.595,-4.57603,95.4418
2023-02-15 07:30:15:619,-0.65581,2.56673,-9.38242,-15.5879,-4.57664,95.4208
2023-02-15 07:30:15:629,-0.665423,2.56547,-9.37818,-15.5825,-4.57689,95.4048
2023-02-15 07:30:15:639,-0.67679,2.57036,-9.37792,-15.5773,-4.58185,95.3917
2023-02-15 07:30:15:649,-0.677163,2.5791,-9.38924,-15.576,-4.58888,95.377
2023-02-15 07:30:15:659,-0.686376,2.58429,-9.40086,-15.5763,-4.59714,95.3638
2023-02-15 07:30:15:669,-0.728321,2.60215,-9.38095,-15.5792,-4.60785,95.3508
2023-02-15 07:30:15:679,-0.766031,2.60602,-9.35445,-15.5801,-4.61745,95.3424
2023-02-15 07:30:15:689,-0.813443,2.5855,-9.28876,-15.5795,-4.62665,95.3342
2023-02-15 07:30:15:699,-0.848696,2.56637,-9.24245,-15.581,-4.62638,95.325
2023-02-15 07:30:15:709,-0.818819,2.54841,-9.27465,-15.585,-4.61792,95.3167
2023-02-15 07:30:15:719,-0.794621,2.56411,-9.32886,-15.5909,-4.60529,95.3069
2023-02-15 07:30:15:729,-0.764478,2.59198,-9.4065,-15.599,-4.58677,95.2925
2023-02-15 07:30:15:739,-0.702136,2.61782,-9.45987,-15.6082,-4.57032,95.276
2023-02-15 07:30:15:749,-0.704007,2.63055,-9.46259,-15.6193,-4.55723,95.2594
2023-02-15 07:30:15:759,-0.719553,2.64019,-9.44714,-15.627,-4.55288,95.2448
2023-02-15 07:30:15:769,-0.70224,2.64136,-9.43215,-15.6353,-4.55294,95.2213
2023-02-15 07:30:15:779,-0.691244,2.62587,-9.41498,-15.6412,-4.55501,95.2007
2023-02-15 07:30:15:789,-0.717961,2.63422,-9.42148,-15.6458,-4.55849,95.182
2023-02-15 07:30:15:799,-0.703477,2.65859,-9.4435,-15.6497,-4.56407,95.1639
2023-02-15 07:30:15:809,-0.718726,2.67152,-9.45047,-15.6515,-4.57034,95.1491
2023-02-15 07:30:15:819,-0.718851,2.66631,-9.45012,-15.6514,-4.5805,95.1366
2023-02-15 07:30:15:829,-0.704639,2.67371,-9.45809,-15.6495,-4.58647,95.1266
2023-02-15 07:30:15:839,-0.750938,2.66468,-9.45067,-15.6468,-4.59781,95.1197
2023-02-15 07:30:15:849,-0.799885,2.66399,-9.4026,-15.6432,-4.61289,95.1174
2023-02-15 07:30:15:859,-0.811162,2.65294,-9.3599,-15.6376,-4.6259,95.1168
2023-02-15 07:30:15:869,-0.83797,2.63872,-9.3313,-15.6338,-4.63471,95.1173
2023-02-15 07:30:15:879,-0.840753,2.65609,-9.32324,-15.6292,-4.63948,95.1172
2023-02-15 07:30:15:889,-0.845213,2.66905,-9.33819,-15.6261,-4.64234,95.1196
2023-02-15 07:30:15:899,-0.855753,2.66024,-9.33577,-15.6241,-4.64288,95.1171
2023-02-15 07:30:15:909,-0.855058,2.66118,-9.32767,-15.6162,-4.64296,95.1123
2023-02-15 07:30:15:919,-0.841601,2.66267,-9.32278,-15.609,-4.64034,95.1101
2023-02-15 07:30:15:929,-0.842404,2.65016,-9.33367,-15.5998,-4.63808,95.1002
2023-02-15 07:30:15:939,-0.837002,2.64726,-9.35652,-15.5873,-4.6326,95.0868
2023-02-15 07:30:15:949,-0.802055,2.64746,-9.38366,-15.5719,-4.62616,95.0728
2023-02-15 07:30:15:959,-0.776963,2.62142,-9.39515,-15.5609,-4.61615,95.0587
2023-02-15 07:30:15:969,-0.760556,2.60964,-9.39388,-15.5517,-4.60315,95.0408
2023-02-15 07:30:15:979,-0.737448,2.5979,-9.39009,-15.5412,-4.59305,95.0255
2023-02-15 07:30:15:989,-0.712963,2.59052,-9.40183,-15.5305,-4.58006,95.0152
2023-02-15 07:30:15:999,-0.697059,2.5884,-9.42877,-15.523,-4.56476,95.0028
2023-02-15 07:30:16:9,-0.677519,2.60083,-9.40777,-15.515,-4.54836,94.9906
2023-02-15 07:30:16:19,-0.655514,2.57074,-9.36037,-15.5111,-4.53537,94.9804
2023-02-15 07:30:16:29,-0.678746,2.55906,-9.33687,-15.5081,-4.52713,94.9731
2023-02-15 07:30:16:39,-0.70386,2.56548,-9.33331,-15.5059,-4.51673,94.9642
2023-02-15 07:30:16:49,-0.707201,2.57632,-9.35175,-15.5045,-4.50679,94.9605
2023-02-15 07:30:16:59,-0.672783,2.59721,-9.37932,-15.508,-4.49409,94.9566
2023-02-15 07:30:16:69,-0.673312,2.5907,-9.40176,-15.509,-4.48428,94.9477
2023-02-15 07:30:16:79,-0.707571,2.58658,-9.39351,-15.5129,-4.48268,94.944
2023-02-15 07:30:16:89,-0.72483,2.59879,-9.37943,-15.5146,-4.48407,94.9396
2023-02-15 07:30:16:99,-0.71806,2.58913,-9.37435,-15.5213,-4.48677,94.9321
2023-02-15 07:30:16:109,-0.695815,2.58539,-9.3826,-15.5281,-4.48775,94.9216
2023-02-15 07:30:16:119,-0.681474,2.60108,-9.37624,-15.5414,-4.48388,94.9134
2023-02-15 07:30:16:129,-0.680619,2.6188,-9.36538,-15.5548,-4.48091,94.9032
2023-02-15 07:30:16:139,-0.670458,2.63739,-9.36737,-15.5658,-4.47726,94.8992
2023-02-15 07:30:16:149,-0.670938,2.64135,-9.34207,-15.5813,-4.47582,94.8931
2023-02-15 07:30:16:159,-0.679413,2.64535,-9.3325,-15.5997,-4.47155,94.8912
2023-02-15 07:30:16:169,-0.678706,2.65268,-9.31729,-15.621,-4.46459,94.8912
2023-02-15 07:30:16:179,-0.6861,2.66036,-9.32033,-15.6403,-4.4529,94.8904
2023-02-15 07:30:16:189,-0.681141,2.68354,-9.35954,-15.6599,-4.44209,94.8946
2023-02-15 07:30:16:199,-0.696257,2.69216,-9.37379,-15.6802,-4.43059,94.8928
2023-02-15 07:30:16:209,-0.73393,2.68833,-9.34887,-15.7007,-4.42185,94.8878
2023-02-15 07:30:16:219,-0.731935,2.68855,-9.36204,-15.72,-4.41227,94.8799
2023-02-15 07:30:16:229,-0.726455,2.68662,-9.38367,-15.7393,-4.40522,94.8716
2023-02-15 07:30:16:239,-0.706535,2.65815,-9.35582,-15.7571,-4.39734,94.8622
2023-02-15 07:30:16:249,-0.667601,2.6351,-9.34223,-15.7712,-4.38971,94.8477
2023-02-15 07:30:16:259,-0.597681,2.63158,-9.38579,-15.7858,-4.38459,94.8259
2023-02-15 07:30:16:269,-0.556499,2.62691,-9.43303,-15.7957,-4.37794,94.8049
2023-02-15 07:30:16:279,-0.55134,2.62344,-9.47795,-15.8043,-4.3733,94.7897
2023-02-15 07:30:16:289,-0.578302,2.64815,-9.52591,-15.8068,-4.37376,94.7769
2023-02-15 07:30:16:299,-0.645946,2.64649,-9.54898,-15.8098,-4.37424,94.7681
2023-02-15 07:30:16:309,-0.649357,2.63161,-9.5552,-15.8028,-4.37872,94.7626
2023-02-15 07:30:16:319,-0.682001,2.59002,-9.47933,-15.7888,-4.38913,94.7583
2023-02-15 07:30:16:329,-0.750043,2.5242,-9.36062,-15.7767,-4.40492,94.753
2023-02-15 07:30:16:339,-0.787263,2.48762,-9.26842,-15.7668,-4.42218,94.7488
2023-02-15 07:30:16:349,-0.821031,2.46062,-9.20236,-15.7613,-4.43841,94.7397
2023-02-15 07:30:16:359,-0.847431,2.44827,-9.17044,-15.7688,-4.45174,94.7289
2023-02-15 07:30:16:369,-0.849628,2.48098,-9.21214,-15.7868,-4.45727,94.7102
2023-02-15 07:30:16:379,-0.829321,2.53116,-9.29604,-15.8146,-4.46185,94.687
2023-02-15 07:30:16:389,-0.803987,2.58543,-9.37083,-15.8433,-4.46477,94.6545
2023-02-15 07:30:16:399,-0.782234,2.62902,-9.416,-15.8714,-4.46691,94.6197
2023-02-15 07:30:16:409,-0.764714,2.64369,-9.42818,-15.9001,-4.47029,94.5782
2023-02-15 07:30:16:419,-0.710532,2.64232,-9.41056,-15.9288,-4.4671,94.5333
2023-02-15 07:30:16:429,-0.623851,2.63154,-9.4007,-15.9542,-4.46094,94.4852
2023-02-15 07:30:16:439,-0.532642,2.61224,-9.37201,-15.98,-4.44636,94.4333
2023-02-15 07:30:16:449,-0.46252,2.60227,-9.36011,-16.0054,-4.43022,94.3874
2023-02-15 07:30:16:459,-0.414458,2.59934,-9.35703,-16.0282,-4.41601,94.3525
2023-02-15 07:30:16:469,-0.376966,2.59092,-9.41719,-16.0494,-4.39945,94.3256
2023-02-15 07:30:16:479,-0.326035,2.59246,-9.47914,-16.0683,-4.38568,94.3071
2023-02-15 07:30:16:489,-0.348242,2.56929,-9.47846,-16.08,-4.37775,94.3027
2023-02-15 07:30:16:499,-0.433585,2.54127,-9.42622,-16.0894,-4.37842,94.3135
2023-02-15 07:30:16:509,-0.491165,2.51625,-9.41429,-16.0994,-4.39135,94.3422
2023-02-15 07:30:16:519,-0.552154,2.4949,-9.43473,-16.106,-4.40177,94.3807
2023-02-15 07:30:16:529,-0.597156,2.48023,-9.42112,-16.1157,-4.4112,94.435
2023-02-15 07:30:16:539,-0.611259,2.45529,-9.37979,-16.1224,-4.41294,94.4988
2023-02-15 07:30:16:549,-0.577696,2.45664,-9.34257,-16.1354,-4.41342,94.5733
2023-02-15 07:30:16:559,-0.573341,2.44392,-9.31868,-16.1518,-4.41623,94.6586
2023-02-15 07:30:16:569,-0.60432,2.46569,-9.29088,-16.1733,-4.41684,94.7542
2023-02-15 07:30:16:579,-0.626326,2.4979,-9.28131,-16.2039,-4.4226,94.8622
2023-02-15 07:30:16:589,-0.658139,2.56818,-9.29392,-16.2448,-4.42787,94.9787
2023-02-15 07:30:16:599,-0.711846,2.65317,-9.36074,-16.2925,-4.42989,95.0996
2023-02-15 07:30:16:609,-0.728281,2.73595,-9.44806,-16.3398,-4.43173,95.2251
2023-02-15 07:30:16:619,-0.720729,2.80118,-9.51437,-16.3798,-4.43309,95.352
2023-02-15 07:30:16:629,-0.768367,2.85524,-9.5703,-16.4132,-4.44545,95.4796
2023-02-15 07:30:16:639,-0.845241,2.88935,-9.5506,-16.4408,-4.4762,95.6041
2023-02-15 07:30:16:649,-0.948384,2.86696,-9.46461,-16.4594,-4.53035,95.7201
2023-02-15 07:30:16:659,-1.09832,2.85926,-9.36302,-16.4717,-4.60792,95.8329
2023-02-15 07:30:16:669,-1.26742,2.83637,-9.24557,-16.4885,-4.69399,95.9393
2023-02-15 07:30:16:679,-1.41162,2.83303,-9.17109,-16.5059,-4.77991,96.029
2023-02-15 07:30:16:689,-1.4714,2.85203,-9.1674,-16.5239,-4.8492,96.0994
2023-02-15 07:30:16:699,-1.47962,2.87548,-9.18342,-16.5464,-4.90376,96.1479
2023-02-15 07:30:16:709,-1.33148,2.90116,-9.25009,-16.5714,-4.9424,96.1721
2023-02-15 07:30:16:719,-1.08714,2.89769,-9.30895,-16.5991,-4.97272,96.1702
2023-02-15 07:30:16:729,-0.974162,2.88167,-9.30307,-16.6223,-4.98987,96.1507
2023-02-15 07:30:16:739,-0.934475,2.86302,-9.28188,-16.642,-5.00132,96.1232
2023-02-15 07:30:16:749,-0.826663,2.8247,-9.27632,-16.6593,-5.00679,96.0899
2023-02-15 07:30:16:759,-0.729339,2.79894,-9.26495,-16.6809,-5.00042,96.0512
2023-02-15 07:30:16:769,-0.703036,2.78186,-9.24509,-16.7045,-4.9926,96.0098
2023-02-15 07:30:16:779,-0.673594,2.77325,-9.231,-16.7291,-4.98887,95.9699
2023-02-15 07:30:16:789,-0.661979,2.77192,-9.23809,-16.7592,-4.98895,95.9299
2023-02-15 07:30:16:799,-0.702221,2.76341,-9.21653,-16.7995,-4.99724,95.892
2023-02-15 07:30:16:809,-0.699974,2.76527,-9.20406,-16.8475,-5.0107,95.8584
2023-02-15 07:30:16:819,-0.612008,2.79036,-9.23026,-16.902,-5.01788,95.8274
2023-02-15 07:30:16:829,-0.5764,2.81907,-9.25212,-16.9651,-5.01843,95.8062
2023-02-15 07:30:16:839,-0.571045,2.86583,-9.24941,-17.0319,-5.02734,95.7921
2023-02-15 07:30:16:849,-0.60996,2.89495,-9.24501,-17.1016,-5.03068,95.7889
2023-02-15 07:30:16:859,-0.696716,2.94735,-9.28487,-17.1724,-5.04584,95.7991
2023-02-15 07:30:16:869,-0.79493,2.97941,-9.29155,-17.2508,-5.07013,95.8154
2023-02-15 07:30:16:879,-0.94049,2.98146,-9.26627,-17.3272,-5.10315,95.8394
2023-02-15 07:30:16:889,-1.03059,3.01544,-9.28383,-17.4055,-5.13642,95.8647
2023-02-15 07:30:16:899,-1.08188,3.06899,-9.33308,-17.485,-5.17144,95.8906
2023-02-15 07:30:16:909,-1.0934,3.08654,-9.35431,-17.5594,-5.18965,95.9177
2023-02-15 07:30:16:919,-1.02369,3.10276,-9.36535,-17.6269,-5.19723,95.9419
2023-02-15 07:30:16:929,-0.966995,3.09841,-9.37005,-17.6848,-5.19024,95.9608
2023-02-15 07:30:16:939,-0.882565,3.08133,-9.36549,-17.7348,-5.17311,95.9819
2023-02-15 07:30:16:949,-0.76132,3.07602,-9.37517,-17.7697,-5.14796,95.9992
2023-02-15 07:30:16:959,-0.667488,3.07215,-9.40486,-17.7984,-5.11584,96.0221
2023-02-15 07:30:16:969,-0.599465,3.04528,-9.43019,-17.8139,-5.07942,96.0526
2023-02-15 07:30:16:979,-0.547669,3.02214,-9.45057,-17.8217,-5.04378,96.0912
2023-02-15 07:30:16:989,-0.525561,2.99058,-9.48944,-17.8158,-5.01034,96.1448
2023-02-15 07:30:16:999,-0.561941,2.9702,-9.48855,-17.8027,-4.98028,96.2113
2023-02-15 07:30:17:9,-0.646372,2.92962,-9.47562,-17.781,-4.96029,96.2938
2023-02-15 07:30:17:19,-0.76178,2.89621,-9.40453,-17.7562,-4.93743,96.3946
2023-02-15 07:30:17:29,-0.876803,2.86031,-9.28304,-17.7386,-4.92233,96.5001
2023-02-15 07:30:17:39,-0.964051,2.82298,-9.17075,-17.727,-4.91146,96.6095
2023-02-15 07:30:17:49,-1.02181,2.83355,-9.08629,-17.7247,-4.90437,96.717
2023-02-15 07:30:17:59,-1.04219,2.86392,-9.06513,-17.7362,-4.9038,96.8123
2023-02-15 07:30:17:69,-1.03236,2.90823,-9.07909,-17.7618,-4.90506,96.8989
2023-02-15 07:30:17:79,-1.03065,2.95253,-9.09418,-17.8018,-4.91287,96.9755
2023-02-15 07:30:17:89,-1.04441,3.01277,-9.10903,-17.8512,-4.93252,97.036
2023-02-15 07:30:17:99,-1.03828,3.05894,-9.13262,-17.9087,-4.96051,97.0842
2023-02-15 07:30:17:109,-1.04744,3.09394,-9.12523,-17.9686,-5.00372,97.117
2023-02-15 07:30:17:119,-1.13105,3.14832,-9.13826,-18.0288,-5.05688,97.1394
2023-02-15 07:30:17:129,-1.24736,3.1915,-9.12615,-18.0908,-5.12455,97.1471
2023-02-15 07:30:17:139,-1.39972,3.22691,-9.12085,-18.1518,-5.19573,97.1431
2023-02-15 07:30:17:149,-1.49868,3.26323,-9.13866,-18.2063,-5.26533,97.1235
2023-02-15 07:30:17:159,-1.45665,3.28166,-9.21575,-18.2487,-5.32672,97.0848
2023-02-15 07:30:17:169,-1.31966,3.28299,-9.33129,-18.2768,-5.37332,97.0265
2023-02-15 07:30:17:179,-1.09645,3.2629,-9.42255,-18.2939,-5.40886,96.9512
2023-02-15 07:30:17:189,-0.942465,3.22508,-9.45952,-18.2994,-5.43145,96.8666
2023-02-15 07:30:17:199,-0.865292,3.19886,-9.46514,-18.2964,-5.44685,96.7774
2023-02-15 07:30:17:209,-0.830113,3.16557,-9.47882,-18.2856,-5.44408,96.6904
2023-02-15 07:30:17:219,-0.90713,3.14573,-9.47945,-18.2602,-5.43175,96.6084
2023-02-15 07:30:17:229,-0.928527,3.09148,-9.40373,-18.2237,-5.41037,96.5271
2023-02-15 07:30:17:239,-0.845159,2.98393,-9.23646,-18.181,-5.38491,96.4417
2023-02-15 07:30:17:249,-0.811494,2.87765,-9.08038,-18.1373,-5.37062,96.3454
2023-02-15 07:30:17:259,-0.73034,2.80812,-8.98487,-18.1067,-5.36727,96.2476
2023-02-15 07:30:17:269,-0.566409,2.76741,-8.92964,-18.0921,-5.37165,96.1458
2023-02-15 07:30:17:279,-0.4625,2.77458,-8.89075,-18.0978,-5.38438,96.0506
2023-02-15 07:30:17:289,-0.398984,2.81288,-8.92764,-18.129,-5.41059,95.965
2023-02-15 07:30:17:299,-0.432218,2.90654,-9.04723,-18.178,-5.44563,95.8957
2023-02-15 07:30:17:309,-0.652611,3.07912,-9.24414,-18.2449,-5.48921,95.847
2023-02-15 07:30:17:319,-0.860959,3.24591,-9.42541,-18.3171,-5.54428,95.8119
2023-02-15 07:30:17:329,-0.9409,3.32878,-9.49585,-18.3841,-5.59982,95.7841
2023-02-15 07:30:17:339,-0.994021,3.35791,-9.49942,-18.4395,-5.65845,95.76
2023-02-15 07:30:17:349,-0.964474,3.3566,-9.47367,-18.4799,-5.71823,95.7399
2023-02-15 07:30:17:359,-0.935143,3.32224,-9.44126,-18.5039,-5.78066,95.7228
2023-02-15 07:30:17:369,-0.936202,3.30457,-9.40277,-18.5104,-5.84162,95.7139
2023-02-15 07:30:17:379,-0.937617,3.24379,-9.35173,-18.4996,-5.90021,95.7083
2023-02-15 07:30:17:389,-0.962371,3.18751,-9.32051,-18.4771,-5.94326,95.7142
2023-02-15 07:30:17:399,-0.993635,3.13911,-9.3257,-18.4422,-5.97496,95.7254
2023-02-15 07:30:17:409,-1.0373,3.08683,-9.32474,-18.3928,-5.98798,95.7453
2023-02-15 07:30:17:419,-1.03028,3.04143,-9.32848,-18.3341,-5.98938,95.7667
2023-02-15 07:30:17:429,-0.96746,2.97355,-9.31857,-18.2691,-5.98351,95.7896
2023-02-15 07:30:17:439,-0.932128,2.89641,-9.28178,-18.199,-5.97132,95.8069
2023-02-15 07:30:17:449,-0.923629,2.86468,-9.26929,-18.1282,-5.96281,95.8211
2023-02-15 07:30:17:459,-0.889128,2.81888,-9.26383,-18.0647,-5.95822,95.8343
2023-02-15 07:30:17:469,-0.847289,2.76873,-9.24989,-18.0041,-5.95527,95.8448
2023-02-15 07:30:17:479,-0.826737,2.76428,-9.24781,-17.9494,-5.95993,95.8538
2023-02-15 07:30:17:489,-0.871405,2.7586,-9.20146,-17.906,-5.97132,95.8667
2023-02-15 07:30:17:499,-0.963804,2.77248,-9.12216,-17.8716,-5.99492,95.8771
2023-02-15 07:30:17:509,-0.979824,2.78731,-9.08986,-17.8485,-6.0213,95.8833
2023-02-15 07:30:17:519,-0.895464,2.77896,-9.07697,-17.8403,-6.04796,95.8859
2023-02-15 07:30:17:529,-0.786273,2.78083,-9.06766,-17.8428,-6.07796,95.8907
2023-02-15 07:30:17:539,-0.748477,2.81077,-9.06528,-17.8554,-6.10827,95.8938
2023-02-15 07:30:17:549,-0.757775,2.8421,-9.06753,-17.876,-6.14708,95.9092
2023-02-15 07:30:17:559,-0.780539,2.89508,-9.08826,-17.908,-6.19175,95.9307
2023-02-15 07:30:17:569,-0.857207,2.948,-9.12473,-17.9443,-6.23852,95.9662
2023-02-15 07:30:17:579,-0.966191,3.00771,-9.17307,-17.9848,-6.28472,96.0104
2023-02-15 07:30:17:589,-1.05724,3.05402,-9.23258,-18.027,-6.33366,96.0662
2023-02-15 07:30:17:599,-1.12864,3.08924,-9.26626,-18.0654,-6.38243,96.1306
2023-02-15 07:30:17:609,-1.19264,3.10722,-9.29149,-18.1015,-6.42559,96.1986
2023-02-15 07:30:17:619,-1.26315,3.12762,-9.30375,-18.1345,-6.46355,96.2669
2023-02-15 07:30:17:629,-1.32934,3.15815,-9.33252,-18.1675,-6.49687,96.3368
2023-02-15 07:30:17:639,-1.4009,3.15612,-9.34183,-18.1944,-6.5255,96.404
2023-02-15 07:30:17:649,-1.46594,3.15926,-9.32575,-18.2181,-6.55013,96.4641
2023-02-15 07:30:17:659,-1.48752,3.14119,-9.26684,-18.2343,-6.56623,96.5149
2023-02-15 07:30:17:669,-1.49135,3.10592,-9.19463,-18.2477,-6.57261,96.5545
2023-02-15 07:30:17:679,-1.47575,3.07166,-9.12588,-18.2569,-6.56685,96.5804
2023-02-15 07:30:17:689,-1.44303,3.0878,-9.11445,-18.2656,-6.55431,96.5888
2023-02-15 07:30:17:699,-1.34311,3.0832,-9.10217,-18.2725,-6.53594,96.5874
2023-02-15 07:30:17:709,-1.19702,3.06086,-9.12865,-18.2833,-6.51208,96.5726
2023-02-15 07:30:17:719,-1.06092,3.0614,-9.16968,-18.2898,-6.48566,96.5463
2023-02-15 07:30:17:729,-0.963544,3.05472,-9.20004,-18.2939,-6.46757,96.5137
2023-02-15 07:30:17:739,-0.912598,3.03655,-9.19975,-18.301,-6.45645,96.4827
2023-02-15 07:30:17:749,-0.898932,3.02082,-9.18107,-18.3048,-6.45334,96.4514
2023-02-15 07:30:17:759,-0.921904,3.02463,-9.17435,-18.3121,-6.45534,96.427
2023-02-15 07:30:17:769,-0.955201,3.04212,-9.1913,-18.3268,-6.46158,96.4107
2023-02-15 07:30:17:779,-0.969305,3.0737,-9.21249,-18.3432,-6.46926,96.3998
2023-02-15 07:30:17:789,-1.00884,3.1038,-9.23625,-18.3672,-6.47516,96.3952
2023-02-15 07:30:17:799,-1.04545,3.12271,-9.26656,-18.3916,-6.47895,96.3999
2023-02-15 07:30:17:809,-1.08593,3.13324,-9.24997,-18.416,-6.48838,96.4091
2023-02-15 07:30:17:819,-1.11057,3.1375,-9.21726,-18.441,-6.50017,96.423
2023-02-15 07:30:17:829,-1.1347,3.15183,-9.18299,-18.466,-6.51009,96.44
2023-02-15 07:30:17:839,-1.15157,3.16135,-9.16312,-18.4903,-6.52178,96.4592
2023-02-15 07:30:17:849,-1.18437,3.15918,-9.1514,-18.516,-6.52725,96.4786
2023-02-15 07:30:17:859,-1.20256,3.18086,-9.1773,-18.5418,-6.52811,96.499
2023-02-15 07:30:17:869,-1.23098,3.20484,-9.19481,-18.5667,-6.52631,96.5189
2023-02-15 07:30:17:879,-1.2271,3.20195,-9.21642,-18.5867,-6.51758,96.5335
2023-02-15 07:30:17:889,-1.21122,3.19479,-9.25104,-18.6004,-6.50227,96.5471
2023-02-15 07:30:17:899,-1.20479,3.18076,-9.25169,-18.6088,-6.48969,96.5563
2023-02-15 07:30:17:909,-1.19397,3.17064,-9.2442,-18.6125,-6.47296,96.5604
2023-02-15 07:30:17:919,-1.17641,3.15778,-9.22882,-18.6125,-6.45491,96.563
2023-02-15 07:30:17:929,-1.10876,3.14345,-9.24114,-18.6121,-6.43373,96.5607
2023-02-15 07:30:17:939,-1.05538,3.12569,-9.25856,-18.6116,-6.40742,96.5551
2023-02-15 07:30:17:949,-0.998753,3.1066,-9.27367,-18.605,-6.3827,96.5487
2023-02-15 07:30:17:959,-0.940472,3.09111,-9.2798,-18.5921,-6.36118,96.5433
2023-02-15 07:30:17:969,-0.951134,3.09228,-9.27402,-18.5802,-6.34078,96.5417
2023-02-15 07:30:17:979,-0.988906,3.06374,-9.23988,-18.5625,-6.32604,96.547
2023-02-15 07:30:17:989,-1.01911,3.03861,-9.18035,-18.5469,-6.31119,96.5541
2023-02-15 07:30:17:999,-1.05581,3.03495,-9.16486,-18.534,-6.3002,96.569
2023-02-15 07:30:18:9,-1.09344,3.04188,-9.16832,-18.5254,-6.28687,96.5805
2023-02-15 07:30:18:19,-1.12572,3.04991,-9.16534,-18.5137,-6.27602,96.5868
2023-02-15 07:30:18:29,-1.1666,3.06002,-9.1816,-18.5061,-6.26666,96.5947
2023-02-15 07:30:18:39,-1.18297,3.07102,-9.21014,-18.5006,-6.25914,96.6004
2023-02-15 07:30:18:49,-1.14691,3.06398,-9.17923,-18.4965,-6.24971,96.5979
2023-02-15 07:30:18:59,-1.09157,3.06698,-9.18762,-18.4953,-6.23799,96.5913
2023-02-15 07:30:18:69,-1.0309,3.09623,-9.24577,-18.4938,-6.22477,96.583
2023-02-15 07:30:18:79,-1.00871,3.0941,-9.283,-18.4903,-6.21189,96.572
2023-02-15 07:30:18:89,-1.03718,3.1103,-9.30128,-18.4847,-6.20668,96.5632
2023-02-15 07:30:18:99,-1.06944,3.11706,-9.29604,-18.4791,-6.19908,96.5555
2023-02-15 07:30:18:109,-1.08225,3.12122,-9.2861,-18.4698,-6.19495,96.5474
2023-02-15 07:30:18:119,-1.10404,3.12961,-9.26741,-18.4618,-6.18876,96.5406
2023-02-15 07:30:18:129,-1.09515,3.11338,-9.24219,-18.447,-6.18085,96.5301
2023-02-15 07:30:18:139,-1.08343,3.09161,-9.20754,-18.4296,-6.16985,96.5178
2023-02-15 07:30:18:149,-1.07061,3.0831,-9.19943,-18.4138,-6.16093,96.4998
2023-02-15 07:30:18:159,-1.07046,3.06034,-9.17669,-18.3977,-6.15578,96.4793
2023-02-15 07:30:18:169,-1.10634,3.03681,-9.14405,-18.3819,-6.15388,96.4568
2023-02-15 07:30:18:179,-1.14641,3.07581,-9.19994,-18.3715,-6.15109,96.4304
2023-02-15 07:30:18:189,-1.1886,3.1248,-9.16501,-18.3641,-6.15012,96.3956
2023-02-15 07:30:18:199,-1.1724,3.04762,-9.0282,-18.3553,-6.14256,96.358
2023-02-15 07:30:18:209,-1.1688,3.10266,-9.12616,-18.3504,-6.12917,96.3155
2023-02-15 07:30:18:219,-1.16919,3.17214,-9.25327,-18.3449,-6.11647,96.2624
2023-02-15 07:30:18:229,-1.08248,3.09133,-9.16612,-18.3388,-6.10157,96.2021
2023-02-15 07:30:18:239,-1.05591,3.09336,-9.2155,-18.3278,-6.08777,96.135
2023-02-15 07:30:18:249,-1.04146,3.13777,-9.28941,-18.3202,-6.075,96.0696
2023-02-15 07:30:18:259,-0.990509,3.06703,-9.21264,-18.31,-6.06254,96.0008
2023-02-15 07:30:18:269,-0.939375,3.04576,-9.16746,-18.2977,-6.05052,95.93
2023-02-15 07:30:18:279,-0.88928,3.06721,-9.20575,-18.2872,-6.03724,95.8542
2023-02-15 07:30:18:289,-0.880453,3.06967,-9.28271,-18.2723,-6.02253,95.785
2023-02-15 07:30:18:299,-0.885206,3.11293,-9.40048,-18.2543,-6.01004,95.7215
2023-02-15 07:30:18:309,-0.899424,3.10163,-9.44028,-18.2315,-5.99586,95.6622
2023-02-15 07:30:18:319,-0.95121,3.05951,-9.40982,-18.2039,-5.98158,95.6089
2023-02-15 07:30:18:329,-0.990597,3.05019,-9.34817,-18.1727,-5.97232,95.5547
2023-02-15 07:30:18:339,-1.02336,3.02631,-9.25178,-18.147,-5.96563,95.5024
2023-02-15 07:30:18:349,-1.09825,3.01096,-9.19029,-18.1175,-5.95339,95.4503
2023-02-15 07:30:18:359,-1.16288,3.03211,-9.17861,-18.0923,-5.94003,95.3976
2023-02-15 07:30:18:369,-1.16845,3.03611,-9.21038,-18.0648,-5.92402,95.3332
2023-02-15 07:30:18:379,-1.24871,3.0646,-9.27372,-18.0367,-5.90959,95.2636
2023-02-15 07:30:18:389,-1.31524,3.12462,-9.37803,-18.006,-5.89747,95.1821
2023-02-15 07:30:18:399,-1.27549,3.14479,-9.44582,-17.964,-5.88696,95.0826
2023-02-15 07:30:18:409,-1.18478,3.08363,-9.3778,-17.9147,-5.88155,94.9636
2023-02-15 07:30:18:419,-1.01113,3.00048,-9.3068,-17.8518,-5.88167,94.8359
2023-02-15 07:30:18:429,-0.810075,2.967,-9.31474,-17.7862,-5.88156,94.6989
2023-02-15 07:30:18:439,-0.770426,2.92046,-9.31102,-17.7177,-5.8838,94.561
2023-02-15 07:30:18:449,-0.876478,2.90994,-9.33795,-17.6425,-5.87569,94.4327
2023-02-15 07:30:18:459,-0.965048,2.92453,-9.42596,-17.5596,-5.86307,94.3116
2023-02-15 07:30:18:469,-0.949915,2.91542,-9.46503,-17.4729,-5.84393,94.189
2023-02-15 07:30:18:479,-0.850531,2.8738,-9.49345,-17.3823,-5.81945,94.0657
2023-02-15 07:30:18:489,-0.765586,2.839,-9.48766,-17.2815,-5.79515,93.9457
2023-02-15 07:30:18:499,-0.721034,2.78857,-9.36736,-17.1808,-5.78298,93.8349
2023-02-15 07:30:18:509,-0.722905,2.68573,-9.19461,-17.0838,-5.76807,93.7316
2023-02-15 07:30:18:519,-0.778128,2.62553,-9.06593,-16.9949,-5.75901,93.6336
2023-02-15 07:30:18:529,-0.839478,2.61151,-9.00987,-16.9176,-5.74702,93.5456
2023-02-15 07:30:18:539,-0.831534,2.61265,-8.95639,-16.8574,-5.72908,93.4642
2023-02-15 07:30:18:549,-0.751708,2.61788,-8.96814,-16.8097,-5.70005,93.388
2023-02-15 07:30:18:559,-0.727898,2.65472,-9.03552,-16.7761,-5.66937,93.3134
2023-02-15 07:30:18:569,-0.720431,2.68944,-9.13941,-16.7566,-5.63709,93.2468
2023-02-15 07:30:18:579,-0.706798,2.73632,-9.24676,-16.7433,-5.60573,93.1862
2023-02-15 07:30:18:589,-0.702274,2.78024,-9.34181,-16.7301,-5.58454,93.1302
2023-02-15 07:30:18:599,-0.728253,2.79989,-9.40137,-16.7176,-5.56634,93.0806
2023-02-15 07:30:18:609,-0.720015,2.79629,-9.41086,-16.7018,-5.55103,93.0373
2023-02-15 07:30:18:619,-0.70411,2.78629,-9.38922,-16.6862,-5.53499,92.9961
2023-02-15 07:30:18:629,-0.716167,2.76105,-9.36591,-16.6722,-5.51646,92.9666
2023-02-15 07:30:18:639,-0.755069,2.75849,-9.33149,-16.6597,-5.49931,92.9431
2023-02-15 07:30:18:649,-0.771443,2.77393,-9.31355,-16.651,-5.48358,92.9227
2023-02-15 07:30:18:658,-0.76046,2.76623,-9.32474,-16.6418,-5.46826,92.906
2023-02-15 07:30:18:669,-0.764026,2.77048,-9.33576,-16.6333,-5.45439,92.8952
2023-02-15 07:30:18:679,-0.771945,2.77648,-9.32573,-16.6256,-5.43936,92.8832
2023-02-15 07:30:18:689,-0.74956,2.77427,-9.30201,-16.6173,-5.43123,92.8746
2023-02-15 07:30:18:699,-0.755742,2.76066,-9.26844,-16.6102,-5.42864,92.8662
2023-02-15 07:30:18:709,-0.784851,2.76042,-9.25636,-16.6068,-5.426,92.8613
2023-02-15 07:30:18:719,-0.805472,2.76651,-9.26633,-16.6036,-5.42562,92.8599
2023-02-15 07:30:18:729,-0.812656,2.7742,-9.28585,-16.6036,-5.42865,92.8646
2023-02-15 07:30:18:739,-0.823471,2.77925,-9.28593,-16.605,-5.42907,92.8729
2023-02-15 07:30:18:749,-0.818604,2.78333,-9.26652,-16.6117,-5.428,92.8851
2023-02-15 07:30:18:759,-0.832323,2.78471,-9.30469,-16.6202,-5.42989,92.9016
2023-02-15 07:30:18:769,-0.844523,2.83005,-9.38237,-16.6313,-5.43279,92.9188
2023-02-15 07:30:18:779,-0.861591,2.81807,-9.38466,-16.6366,-5.43739,92.9401
2023-02-15 07:30:18:789,-0.873151,2.80413,-9.39322,-16.6402,-5.44391,92.9659
2023-02-15 07:30:18:799,-0.885749,2.81255,-9.37155,-16.6432,-5.45008,92.9931
2023-02-15 07:30:18:809,-0.905813,2.78712,-9.31059,-16.6471,-5.45687,93.0184
2023-02-15 07:30:18:819,-0.902556,2.75499,-9.27678,-16.6484,-5.46673,93.0428
2023-02-15 07:30:18:829,-0.911836,2.77054,-9.24625,-16.6537,-5.47284,93.0693
2023-02-15 07:30:18:839,-0.92259,2.75162,-9.21487,-16.6652,-5.47909,93.0975
2023-02-15 07:30:18:849,-0.936778,2.74757,-9.23411,-16.6745,-5.4835,93.1236
2023-02-15 07:30:18:859,-0.917212,2.74817,-9.23113,-16.6927,-5.4855,93.1513
2023-02-15 07:30:18:869,-0.900615,2.75563,-9.24165,-16.7128,-5.48406,93.1767
2023-02-15 07:30:18:879,-0.882642,2.78551,-9.26641,-16.7362,-5.48544,93.2026
2023-02-15 07:30:18:889,-0.87092,2.7996,-9.29078,-16.7635,-5.48522,93.2334
2023-02-15 07:30:18:899,-0.852363,2.80651,-9.33143,-16.7874,-5.48619,93.2609
2023-02-15 07:30:18:909,-0.852696,2.83956,-9.35902,-16.8146,-5.48941,93.2895
2023-02-15 07:30:18:919,-0.860531,2.84484,-9.38185,-16.8377,-5.49324,93.318
2023-02-15 07:30:18:929,-0.875801,2.85024,-9.39673,-16.8622,-5.50035,93.3494
2023-02-15 07:30:18:939,-0.88357,2.86455,-9.39128,-16.8813,-5.51372,93.3805
2023-02-15 07:30:18:949,-0.868951,2.84995,-9.35225,-16.8975,-5.52869,93.4115
2023-02-15 07:30:18:959,-0.891186,2.82169,-9.3147,-16.9121,-5.54485,93.4444
2023-02-15 07:30:18:969,-0.914949,2.80107,-9.29398,-16.9295,-5.56238,93.4779
2023-02-15 07:30:18:979,-0.914593,2.7949,-9.28284,-16.947,-5.58051,93.5096
2023-02-15 07:30:18:989,-0.91279,2.79115,-9.25995,-16.9639,-5.60279,93.5444
2023-02-15 07:30:18:999,-0.918017,2.80543,-9.25875,-16.9822,-5.62066,93.5816
2023-02-15 07:30:19:9,-0.913927,2.82453,-9.27731,-17.0064,-5.64001,93.6232
2023-02-15 07:30:19:19,-0.916059,2.84159,-9.29011,-17.0306,-5.65538,93.6636
2023-02-15 07:30:19:29,-0.949516,2.84649,-9.3074,-17.0525,-5.67183,93.7097
2023-02-15 07:30:19:39,-0.962091,2.85727,-9.31268,-17.0714,-5.68617,93.7536
2023-02-15 07:30:19:49,-0.969029,2.85861,-9.31554,-17.0872,-5.69855,93.8022
2023-02-15 07:30:19:59,-0.980778,2.87078,-9.31613,-17.1054,-5.71092,93.8504
2023-02-15 07:30:19:69,-0.986066,2.86612,-9.30728,-17.1189,-5.72408,93.8966
2023-02-15 07:30:19:79,-0.999819,2.86064,-9.2891,-17.1337,-5.73617,93.9422
2023-02-15 07:30:19:89,-0.989874,2.85626,-9.2861,-17.1532,-5.75079,93.9865
2023-02-15 07:30:19:99,-1.00283,2.85228,-9.30184,-17.1668,-5.76106,94.0279
2023-02-15 07:30:19:109,-1.00934,2.87269,-9.31697,-17.1815,-5.7727,94.0702
2023-02-15 07:30:19:119,-1.0132,2.89124,-9.34381,-17.1954,-5.78072,94.1085
2023-02-15 07:30:19:129,-0.996622,2.89213,-9.35324,-17.209,-5.78817,94.1449
2023-02-15 07:30:19:139,-0.994676,2.89384,-9.34994,-17.2189,-5.79662,94.1777
2023-02-15 07:30:19:149,-1.02388,2.90279,-9.3427,-17.2307,-5.80521,94.2102
2023-02-15 07:30:19:159,-1.02546,2.9046,-9.31478,-17.2378,-5.81806,94.2398
2023-02-15 07:30:19:169,-1.00667,2.90315,-9.2653,-17.2456,-5.83112,94.2661
2023-02-15 07:30:19:179,-1.01076,2.88453,-9.22637,-17.2518,-5.84437,94.2903
2023-02-15 07:30:19:189,-1.00651,2.88208,-9.19604,-17.2611,-5.85761,94.3187
2023-02-15 07:30:19:199,-0.983292,2.87916,-9.20201,-17.272,-5.8714,94.3422
2023-02-15 07:30:19:209,-0.97775,2.88568,-9.21955,-17.2879,-5.88285,94.3651
2023-02-15 07:30:19:219,-0.995522,2.90688,-9.24592,-17.3001,-5.89357,94.3872
2023-02-15 07:30:19:229,-0.998704,2.91837,-9.25243,-17.3167,-5.9016,94.4092
2023-02-15 07:30:19:239,-0.981036,2.90947,-9.27473,-17.3327,-5.90841,94.4324
2023-02-15 07:30:19:249,-0.995308,2.92902,-9.28539,-17.3471,-5.91206,94.4535
2023-02-15 07:30:19:259,-0.988497,2.91964,-9.28606,-17.3592,-5.91626,94.4767
2023-02-15 07:30:19:269,-0.971609,2.91021,-9.28287,-17.3722,-5.92053,94.5054
2023-02-15 07:30:19:279,-0.973427,2.89928,-9.27646,-17.3838,-5.92137,94.5292
2023-02-15 07:30:19:289,-0.952835,2.89291,-9.27056,-17.3956,-5.92393,94.5529
2023-02-15 07:30:19:299,-0.958187,2.91167,-9.27117,-17.4067,-5.92376,94.5794
2023-02-15 07:30:19:309,-0.964748,2.90895,-9.28001,-17.4219,-5.92848,94.6081
2023-02-15 07:30:19:319,-0.956748,2.90891,-9.27522,-17.4389,-5.92826,94.6384
2023-02-15 07:30:19:329,-0.943584,2.89663,-9.25655,-17.4559,-5.93291,94.6673
2023-02-15 07:30:19:339,-0.944869,2.89731,-9.22165,-17.4732,-5.93682,94.6981
2023-02-15 07:30:19:349,-1.00158,2.89937,-9.18949,-17.4932,-5.94341,94.7292
2023-02-15 07:30:19:359,-1.04785,2.89464,-9.21772,-17.5143,-5.9505,94.7619
2023-02-15 07:30:19:369,-1.05422,2.93115,-9.2447,-17.5403,-5.95531,94.793
2023-02-15 07:30:19:379,-1.04432,2.95948,-9.26199,-17.568,-5.95236,94.825
2023-02-15 07:30:19:389,-1.0409,2.95581,-9.2603,-17.5897,-5.95478,94.8525
2023-02-15 07:30:19:399,-1.03891,2.95812,-9.27169,-17.6129,-5.95642,94.8788
2023-02-15 07:30:19:409,-1.03588,2.9731,-9.28487,-17.6337,-5.96268,94.904
2023-02-15 07:30:19:419,-1.04377,2.97447,-9.28422,-17.6522,-5.96849,94.9265
2023-02-15 07:30:19:429,-1.05176,2.975,-9.27684,-17.6711,-5.9755,94.9452
2023-02-15 07:30:19:439,-1.02277,2.98367,-9.28758,-17.6943,-5.98088,94.9632
2023-02-15 07:30:19:449,-1.02122,3.00321,-9.28963,-17.7134,-5.98314,94.9772
2023-02-15 07:30:19:459,-1.02005,3.01899,-9.30247,-17.732,-5.98888,94.9902
2023-02-15 07:30:19:469,-1.01899,3.03191,-9.32211,-17.7467,-5.99362,95.0047
2023-02-15 07:30:19:479,-1.0386,3.03601,-9.32833,-17.7593,-5.99719,95.0185
2023-02-15 07:30:19:489,-1.03555,3.02256,-9.30703,-17.7699,-6.00497,95.032
2023-02-15 07:30:19:499,-1.0308,3.01854,-9.27647,-17.7717,-6.01222,95.0395
2023-02-15 07:30:19:509,-1.04784,3.0104,-9.25011,-17.7754,-6.02019,95.0497
2023-02-15 07:30:19:519,-1.05058,2.98345,-9.2411,-17.7755,-6.02809,95.0574
2023-02-15 07:30:19:529,-1.03491,3.00083,-9.23843,-17.7787,-6.03089,95.0637
2023-02-15 07:30:19:539,-1.03766,3.0063,-9.24715,-17.7794,-6.03743,95.0701
2023-02-15 07:30:19:549,-1.03984,2.99693,-9.25511,-17.7806,-6.04139,95.0745
2023-02-15 07:30:19:559,-1.0369,2.99383,-9.26292,-17.7813,-6.04727,95.0788
2023-02-15 07:30:19:569,-1.04242,2.99982,-9.26508,-17.7792,-6.04929,95.0846
2023-02-15 07:30:19:579,-1.02697,3.00008,-9.25348,-17.7817,-6.05112,95.0867
2023-02-15 07:30:19:589,-1.0192,3.00005,-9.26858,-17.7802,-6.05316,95.0882
2023-02-15 07:30:19:599,-1.00934,3.01277,-9.27304,-17.7771,-6.0549,95.0877
2023-02-15 07:30:19:609,-1.0099,3.01583,-9.25991,-17.7724,-6.05709,95.0931
2023-02-15 07:30:19:619,-1.0061,3.0099,-9.24928,-17.7695,-6.05812,95.1009
2023-02-15 07:30:19:629,-1.00171,3.00793,-9.24551,-17.7655,-6.05931,95.1044
2023-02-15 07:30:19:639,-1.01523,3.00356,-9.22919,-17.7602,-6.0586,95.1111
2023-02-15 07:30:19:649,-1.00024,3.00174,-9.23729,-17.7595,-6.06236,95.1185
2023-02-15 07:30:19:659,-1.01505,3.00721,-9.24479,-17.7576,-6.06404,95.1246
2023-02-15 07:30:19:669,-1.03237,3.00177,-9.24183,-17.7514,-6.06509,95.1344
2023-02-15 07:30:19:679,-1.03044,3.00847,-9.24764,-17.7484,-6.06843,95.1406
2023-02-15 07:30:19:689,-1.02866,3.02458,-9.27728,-17.7433,-6.07318,95.1471
2023-02-15 07:30:19:699,-1.04868,3.02354,-9.29768,-17.7337,-6.07819,95.1486
2023-02-15 07:30:19:709,-1.07012,3.00897,-9.28277,-17.7245,-6.08318,95.1531
2023-02-15 07:30:19:719,-1.05646,2.99573,-9.26459,-17.7141,-6.08625,95.1573
2023-02-15 07:30:19:729,-1.05958,2.98607,-9.25858,-17.702,-6.08762,95.1575
2023-02-15 07:30:19:739,-1.04193,2.98371,-9.24423,-17.686,-6.08995,95.1588
2023-02-15 07:30:19:749,-1.00949,2.98431,-9.23013,-17.6739,-6.09174,95.157
2023-02-15 07:30:19:759,-1.01391,2.97632,-9.2371,-17.6606,-6.09027,95.1556
2023-02-15 07:30:19:769,-1.02139,2.96631,-9.26643,-17.6481,-6.0889,95.1527
2023-02-15 07:30:19:779,-1.01387,2.95392,-9.27197,-17.6321,-6.0846,95.1512
2023-02-15 07:30:19:789,-1.02352,2.95998,-9.26638,-17.6192,-6.08173,95.1532
2023-02-15 07:30:19:799,-1.04499,2.96119,-9.2544,-17.6044,-6.08272,95.151
2023-02-15 07:30:19:809,-1.04965,2.93845,-9.23922,-17.5895,-6.07751,95.1472
2023-02-15 07:30:19:819,-1.03712,2.93876,-9.24146,-17.5725,-6.07083,95.144
2023-02-15 07:30:19:829,-1.03214,2.94125,-9.24031,-17.5573,-6.06333,95.1383
2023-02-15 07:30:19:839,-1.03338,2.94324,-9.23194,-17.546,-6.05774,95.1336
2023-02-15 07:30:19:849,-1.02413,2.95114,-9.25886,-17.529,-6.05128,95.1271
2023-02-15 07:30:19:859,-1.01918,2.95472,-9.29334,-17.5165,-6.04318,95.1215
2023-02-15 07:30:19:869,-1.01158,2.94077,-9.29992,-17.502,-6.03795,95.1138
2023-02-15 07:30:19:879,-1.00536,2.92548,-9.27664,-17.4811,-6.03387,95.1025
2023-02-15 07:30:19:889,-0.983564,2.90047,-9.27617,-17.4667,-6.02717,95.0941
2023-02-15 07:30:19:899,-0.974224,2.89976,-9.28576,-17.4479,-6.02207,95.0851
2023-02-15 07:30:19:909,-0.964115,2.88514,-9.29116,-17.4307,-6.01628,95.0738
2023-02-15 07:30:19:919,-0.95376,2.87061,-9.27302,-17.4119,-6.01271,95.0655
2023-02-15 07:30:19:929,-0.945289,2.87218,-9.26816,-17.3909,-6.01,95.0562
2023-02-15 07:30:19:939,-0.946293,2.8593,-9.27336,-17.3748,-6.00638,95.0504
2023-02-15 07:30:19:949,-0.952936,2.85062,-9.27665,-17.3588,-6.00129,95.0436
2023-02-15 07:30:19:959,-0.939002,2.83912,-9.27187,-17.3415,-5.99568,95.0383
2023-02-15 07:30:19:969,-0.936139,2.82868,-9.27461,-17.3272,-5.99163,95.0342
2023-02-15 07:30:19:979,-0.963423,2.84357,-9.26426,-17.3171,-5.98843,95.0324
2023-02-15 07:30:19:989,-0.985333,2.85586,-9.27002,-17.3112,-5.98671,95.0335
2023-02-15 07:30:19:999,-0.978637,2.85445,-9.26813,-17.3043,-5.98694,95.0334
2023-02-15 07:30:20:9,-0.98545,2.86044,-9.27044,-17.3021,-5.98587,95.0337
2023-02-15 07:30:20:19,-0.958204,2.87245,-9.27347,-17.3013,-5.98218,95.035
2023-02-15 07:30:20:29,-0.951043,2.87343,-9.26137,-17.2989,-5.98075,95.0328
2023-02-15 07:30:20:39,-0.964515,2.85063,-9.25421,-17.2972,-5.98053,95.0386
2023-02-15 07:30:20:49,-0.956611,2.85485,-9.24726,-17.2953,-5.98124,95.0413
2023-02-15 07:30:20:59,-0.941842,2.85595,-9.26178,-17.2967,-5.98093,95.0435
2023-02-15 07:30:20:69,-0.950007,2.86526,-9.25931,-17.2977,-5.9823,95.0511
2023-02-15 07:30:20:79,-0.975253,2.88051,-9.26635,-17.2981,-5.98474,95.058
2023-02-15 07:30:20:89,-0.997868,2.88564,-9.26517,-17.2987,-5.98854,95.0646
2023-02-15 07:30:20:99,-1.01765,2.89168,-9.28089,-17.298,-5.98782,95.0731
2023-02-15 07:30:20:109,-1.03243,2.89717,-9.28556,-17.302,-5.98701,95.0837
2023-02-15 07:30:20:119,-1.0466,2.90096,-9.29313,-17.3006,-5.9881,95.0899
2023-02-15 07:30:20:129,-1.05239,2.90659,-9.31079,-17.3005,-5.98903,95.0962
2023-02-15 07:30:20:139,-1.05207,2.89691,-9.29744,-17.2995,-5.99057,95.0988
2023-02-15 07:30:20:149,-1.05281,2.89513,-9.27941,-17.2998,-5.99107,95.0978
2023-02-15 07:30:20:159,-1.03852,2.89156,-9.27523,-17.2981,-5.99326,95.0939
2023-02-15 07:30:20:169,-1.03214,2.88401,-9.24532,-17.2976,-5.98782,95.0902
2023-02-15 07:30:20:179,-1.04182,2.8735,-9.23608,-17.2986,-5.98778,95.0828
2023-02-15 07:30:20:189,-1.03394,2.89447,-9.25136,-17.3008,-5.98495,95.0736
2023-02-15 07:30:20:199,-1.00982,2.90043,-9.28029,-17.3021,-5.98138,95.0646
2023-02-15 07:30:20:209,-0.963256,2.89185,-9.27749,-17.2986,-5.97236,95.0524
2023-02-15 07:30:20:219,-0.938804,2.89178,-9.29899,-17.2967,-5.96221,95.0429
2023-02-15 07:30:20:229,-0.94874,2.90705,-9.32485,-17.2955,-5.95729,95.032
2023-02-15 07:30:20:239,-0.949605,2.89416,-9.32266,-17.2917,-5.95611,95.0252
2023-02-15 07:30:20:249,-0.945702,2.89066,-9.3088,-17.2843,-5.95418,95.0154
2023-02-15 07:30:20:259,-0.965808,2.9055,-9.28488,-17.2758,-5.95059,95.0086
2023-02-15 07:30:20:269,-0.970118,2.90344,-9.28191,-17.2721,-5.94696,95.0012
2023-02-15 07:30:20:279,-0.958527,2.90394,-9.29064,-17.2666,-5.93942,94.9999
2023-02-15 07:30:20:289,-0.96468,2.91882,-9.31507,-17.2617,-5.92835,94.9949
2023-02-15 07:30:20:299,-0.964113,2.91802,-9.32579,-17.2557,-5.9189,94.9926
2023-02-15 07:30:20:309,-0.956247,2.92163,-9.31428,-17.2515,-5.90817,94.9902
2023-02-15 07:30:20:319,-0.947675,2.92072,-9.29773,-17.2466,-5.90105,94.9916
2023-02-15 07:30:20:329,-0.961839,2.9003,-9.28401,-17.236,-5.89257,94.9889
2023-02-15 07:30:20:339,-0.95836,2.87016,-9.2735,-17.2286,-5.88887,94.9873
2023-02-15 07:30:20:349,-0.962396,2.87266,-9.251,-17.2185,-5.88686,94.9837
2023-02-15 07:30:20:359,-0.943457,2.87149,-9.258,-17.2048,-5.88113,94.9802
2023-02-15 07:30:20:369,-0.924111,2.85249,-9.27978,-17.1943,-5.87885,94.9776
2023-02-15 07:30:20:379,-0.921548,2.83498,-9.28451,-17.1832,-5.87639,94.9707
2023-02-15 07:30:20:389,-0.931001,2.83807,-9.28824,-17.1741,-5.87215,94.9682
2023-02-15 07:30:20:399,-0.919823,2.83816,-9.29842,-17.1694,-5.87258,94.9668
2023-02-15 07:30:20:409,-0.916915,2.843,-9.31551,-17.1638,-5.87544,94.9644
2023-02-15 07:30:20:419,-0.931157,2.8421,-9.30603,-17.1568,-5.87788,94.9651
2023-02-15 07:30:20:429,-0.94608,2.83723,-9.27201,-17.1549,-5.88455,94.9686
2023-02-15 07:30:20:439,-0.944813,2.83044,-9.27985,-17.1541,-5.8897,94.9738
2023-02-15 07:30:20:449,-0.961804,2.83718,-9.27761,-17.1542,-5.89535,94.9828
2023-02-15 07:30:20:459,-0.979306,2.84512,-9.25538,-17.1527,-5.90469,94.9895
2023-02-15 07:30:20:469,-1.00131,2.85159,-9.2564,-17.1532,-5.90834,94.9986
2023-02-15 07:30:20:479,-1.02442,2.85372,-9.26933,-17.1554,-5.90932,95.0052
2023-02-15 07:30:20:489,-1.03623,2.87034,-9.27611,-17.1604,-5.9123,95.0164
2023-02-15 07:30:20:499,-1.05319,2.88205,-9.27477,-17.1675,-5.91593,95.0263
2023-02-15 07:30:20:509,-1.04964,2.88699,-9.26923,-17.1712,-5.91875,95.0325
2023-02-15 07:30:20:519,-1.05633,2.89747,-9.27222,-17.1744,-5.91778,95.0353
2023-02-15 07:30:20:529,-1.04619,2.90803,-9.29575,-17.1773,-5.9191,95.0377
2023-02-15 07:30:20:539,-1.02214,2.91843,-9.3204,-17.1786,-5.91608,95.0371
2023-02-15 07:30:20:549,-1.00004,2.91721,-9.32403,-17.1796,-5.91441,95.0298
2023-02-15 07:30:20:559,-0.991304,2.91969,-9.32559,-17.177,-5.91433,95.0227
2023-02-15 07:30:20:569,-0.972367,2.90916,-9.34076,-17.1745,-5.91685,95.0145
2023-02-15 07:30:20:579,-0.99397,2.90991,-9.33493,-17.169,-5.91713,95.0098
2023-02-15 07:30:20:589,-1.0027,2.89124,-9.3242,-17.1598,-5.91582,95.0026
2023-02-15 07:30:20:599,-1.00144,2.87484,-9.29824,-17.1503,-5.91398,94.9951
2023-02-15 07:30:20:609,-0.991342,2.87241,-9.27204,-17.1365,-5.91158,94.9897
2023-02-15 07:30:20:619,-1.01176,2.86507,-9.26513,-17.1274,-5.91104,94.9815
2023-02-15 07:30:20:629,-1.0101,2.87205,-9.27573,-17.1176,-5.91066,94.9741
2023-02-15 07:30:20:639,-0.997848,2.86716,-9.28704,-17.1088,-5.90608,94.9665
2023-02-15 07:30:20:649,-0.97956,2.86186,-9.28736,-17.0978,-5.90057,94.9533
2023-02-15 07:30:20:659,-0.940326,2.85162,-9.29778,-17.0839,-5.89599,94.9377
2023-02-15 07:30:20:669,-0.923938,2.83733,-9.3013,-17.072,-5.88927,94.9236
2023-02-15 07:30:20:679,-0.919066,2.83648,-9.30718,-17.058,-5.88807,94.908
2023-02-15 07:30:20:689,-0.919,2.83922,-9.30614,-17.044,-5.88959,94.8954
2023-02-15 07:30:20:699,-0.917989,2.83926,-9.30064,-17.0323,-5.89138,94.8859
2023-02-15 07:30:20:709,-0.929954,2.83887,-9.30936,-17.0194,-5.89545,94.8798
2023-02-15 07:30:20:719,-0.948302,2.81305,-9.29872,-17.0075,-5.89444,94.8735
2023-02-15 07:30:20:729,-0.973369,2.80757,-9.29,-16.9945,-5.89815,94.8699
2023-02-15 07:30:20:739,-0.981337,2.8125,-9.27476,-16.9814,-5.89947,94.8677
2023-02-15 07:30:20:749,-1.00428,2.82279,-9.29024,-16.9695,-5.89933,94.8678
2023-02-15 07:30:20:759,-1.01798,2.8492,-9.31595,-16.9644,-5.90146,94.8659
2023-02-15 07:30:20:769,-1.01313,2.83697,-9.31229,-16.956,-5.90451,94.8663
2023-02-15 07:30:20:779,-1.00194,2.82916,-9.30653,-16.9455,-5.90418,94.8641
2023-02-15 07:30:20:789,-0.997422,2.82644,-9.28546,-16.9344,-5.90428,94.8619
2023-02-15 07:30:20:799,-0.989619,2.8166,-9.28249,-16.9263,-5.90527,94.8567
2023-02-15 07:30:20:809,-0.981194,2.79739,-9.28987,-16.9168,-5.904,94.8536
2023-02-15 07:30:20:819,-0.980665,2.7946,-9.29732,-16.9068,-5.90186,94.8523
2023-02-15 07:30:20:829,-0.966106,2.81623,-9.31146,-16.8984,-5.90116,94.8486
2023-02-15 07:30:20:839,-0.970099,2.82124,-9.35819,-16.8893,-5.90272,94.8453
2023-02-15 07:30:20:849,-0.979784,2.83022,-9.37688,-16.8801,-5.90383,94.8441
2023-02-15 07:30:20:859,-0.985364,2.81761,-9.3697,-16.8708,-5.9056,94.8452
2023-02-15 07:30:20:869,-1.00582,2.80895,-9.33779,-16.8579,-5.90929,94.8442
2023-02-15 07:30:20:879,-1.03329,2.80189,-9.30557,-16.8511,-5.91474,94.8452
2023-02-15 07:30:20:889,-1.06927,2.79266,-9.28413,-16.843,-5.91849,94.846
2023-02-15 07:30:20:899,-1.07184,2.80389,-9.26363,-16.8337,-5.91885,94.8489
2023-02-15 07:30:20:909,-1.05712,2.81141,-9.26675,-16.8287,-5.91629,94.8463
2023-02-15 07:30:20:919,-1.02353,2.82864,-9.26832,-16.8227,-5.91026,94.8443
2023-02-15 07:30:20:929,-1.01279,2.82352,-9.26702,-16.8174,-5.89903,94.8369
2023-02-15 07:30:20:939,-1.00059,2.82046,-9.26056,-16.8089,-5.89253,94.8335
2023-02-15 07:30:20:949,-0.978278,2.81001,-9.27608,-16.7976,-5.89077,94.8253
2023-02-15 07:30:20:959,-0.971441,2.80193,-9.28382,-16.7924,-5.88619,94.816
2023-02-15 07:30:20:969,-0.952645,2.79205,-9.29703,-16.7845,-5.88055,94.8134
2023-02-15 07:30:20:979,-0.945745,2.80131,-9.30324,-16.7753,-5.87257,94.8093
2023-02-15 07:30:20:989,-0.937625,2.7872,-9.31462,-16.7698,-5.86684,94.8062
2023-02-15 07:30:20:998,-0.935918,2.78996,-9.32114,-16.7625,-5.85934,94.8036
2023-02-15 07:30:21:8,-0.972783,2.78523,-9.32941,-16.7571,-5.85162,94.7975
2023-02-15 07:30:21:19,-0.967426,2.78841,-9.35318,-16.7513,-5.84492,94.7968
2023-02-15 07:30:21:29,-0.985636,2.80612,-9.34205,-16.7464,-5.84023,94.794
2023-02-15 07:30:21:39,-0.990386,2.79829,-9.33838,-16.7425,-5.83137,94.7863
2023-02-15 07:30:21:49,-0.984906,2.80992,-9.34849,-16.7384,-5.81954,94.7872
2023-02-15 07:30:21:58,-0.973313,2.8093,-9.32587,-16.7299,-5.81205,94.7821
2023-02-15 07:30:21:69,-0.952369,2.77492,-9.27407,-16.721,-5.8042,94.7777
2023-02-15 07:30:21:79,-0.95653,2.76961,-9.26498,-16.7097,-5.79532,94.7759
2023-02-15 07:30:21:89,-0.960269,2.79618,-9.30249,-16.7028,-5.78969,94.7683
2023-02-15 07:30:21:99,-0.954944,2.78329,-9.30054,-16.6975,-5.78456,94.76
2023-02-15 07:30:21:109,-0.905665,2.76279,-9.30971,-16.6878,-5.7739,94.75
2023-02-15 07:30:21:119,-0.874547,2.77166,-9.35797,-16.6785,-5.76226,94.7405
2023-02-15 07:30:21:129,-0.879606,2.77004,-9.35912,-16.6714,-5.75813,94.7322
2023-02-15 07:30:21:139,-0.896792,2.75087,-9.33864,-16.6604,-5.76016,94.7243
2023-02-15 07:30:21:149,-0.913461,2.72213,-9.32136,-16.6512,-5.76214,94.7224
2023-02-15 07:30:21:159,-0.908389,2.73643,-9.29754,-16.6425,-5.75965,94.7202
2023-02-15 07:30:21:169,-0.912363,2.74421,-9.30711,-16.6372,-5.75644,94.7202
2023-02-15 07:30:21:179,-0.930908,2.74884,-9.30905,-16.6364,-5.75291,94.7207
2023-02-15 07:30:21:189,-0.935341,2.7581,-9.31319,-16.6338,-5.75022,94.7234
2023-02-15 07:30:21:199,-0.935779,2.76773,-9.33255,-16.6315,-5.74514,94.7264
2023-02-15 07:30:21:209,-0.956703,2.76328,-9.32606,-16.6272,-5.74561,94.7314
2023-02-15 07:30:21:219,-0.958154,2.76675,-9.30253,-16.6214,-5.74271,94.7355
2023-02-15 07:30:21:229,-0.955545,2.74833,-9.29143,-16.6174,-5.74194,94.736
2023-02-15 07:30:21:239,-0.970837,2.72467,-9.29028,-16.6128,-5.74445,94.7361
2023-02-15 07:30:21:249,-0.961744,2.73347,-9.29343,-16.6092,-5.74692,94.7392
2023-02-15 07:30:21:259,-0.92551,2.73836,-9.29521,-16.6079,-5.74797,94.7367
2023-02-15 07:30:21:269,-0.932951,2.74413,-9.30636,-16.6079,-5.75247,94.734
2023-02-15 07:30:21:279,-0.925919,2.74552,-9.32307,-16.6069,-5.75796,94.7303
2023-02-15 07:30:21:289,-0.921263,2.7535,-9.3497,-16.6086,-5.76354,94.7317
2023-02-15 07:30:21:299,-0.923715,2.75693,-9.35213,-16.6102,-5.76838,94.7351
2023-02-15 07:30:21:309,-0.938568,2.75351,-9.32663,-16.6118,-5.77575,94.7357
2023-02-15 07:30:21:319,-0.963606,2.75735,-9.31616,-16.6147,-5.78383,94.7405
2023-02-15 07:30:21:329,-0.984872,2.77537,-9.31668,-16.6181,-5.7887,94.7525
2023-02-15 07:30:21:339,-1.01267,2.76983,-9.28512,-16.6224,-5.79053,94.7665
2023-02-15 07:30:21:349,-1.01379,2.76445,-9.26593,-16.6266,-5.78966,94.7812
2023-02-15 07:30:21:359,-1.02247,2.77705,-9.25324,-16.6366,-5.78619,94.7965
2023-02-15 07:30:21:369,-1.02212,2.7803,-9.25829,-16.6437,-5.78599,94.8095
2023-02-15 07:30:21:379,-1.01254,2.79047,-9.28093,-16.6545,-5.78298,94.823
2023-02-15 07:30:21:389,-1.02154,2.79715,-9.29725,-16.6649,-5.78131,94.8297
2023-02-15 07:30:21:399,-0.990578,2.80458,-9.31288,-16.6776,-5.77535,94.838
2023-02-15 07:30:21:409,-0.970533,2.81944,-9.34172,-16.6879,-5.7706,94.8457
2023-02-15 07:30:21:419,-0.94914,2.8192,-9.35241,-16.6957,-5.76727,94.8485
2023-02-15 07:30:21:429,-0.930415,2.81806,-9.35642,-16.7048,-5.76587,94.8549
2023-02-15 07:30:21:439,-0.909195,2.82129,-9.35447,-16.7112,-5.76463,94.86
2023-02-15 07:30:21:449,-0.907173,2.80929,-9.34209,-16.7135,-5.76428,94.8657
2023-02-15 07:30:21:459,-0.930954,2.79914,-9.32515,-16.717,-5.7637,94.8691
2023-02-15 07:30:21:469,-0.974239,2.80775,-9.29788,-16.7185,-5.76677,94.8745
2023-02-15 07:30:21:479,-1.00336,2.81339,-9.29355,-16.7205,-5.76803,94.8813
2023-02-15 07:30:21:489,-1.00177,2.81335,-9.32887,-16.7202,-5.76658,94.8852
2023-02-15 07:30:21:499,-0.994362,2.82692,-9.31636,-16.7226,-5.76395,94.8895
2023-02-15 07:30:21:509,-0.9912,2.82574,-9.30251,-16.7266,-5.7645,94.8906
2023-02-15 07:30:21:519,-0.987687,2.81604,-9.30339,-16.7266,-5.76007,94.892
2023-02-15 07:30:21:529,-0.994002,2.82269,-9.31455,-16.7276,-5.76024,94.8931
2023-02-15 07:30:21:539,-0.976946,2.81809,-9.32915,-16.7287,-5.75901,94.8923
2023-02-15 07:30:21:549,-0.955017,2.80768,-9.31927,-16.7273,-5.75881,94.8907
2023-02-15 07:30:21:559,-0.93122,2.80615,-9.30027,-16.7274,-5.756,94.8881
2023-02-15 07:30:21:569,-0.923263,2.7849,-9.2858,-16.7246,-5.75084,94.8881
2023-02-15 07:30:21:579,-0.928302,2.77774,-9.2992,-16.7206,-5.74638,94.8872
2023-02-15 07:30:21:589,-0.938678,2.79758,-9.30406,-16.7188,-5.74388,94.8937
2023-02-15 07:30:21:599,-0.953141,2.79693,-9.32444,-16.7193,-5.74008,94.8966
2023-02-15 07:30:21:609,-0.959188,2.80684,-9.32963,-16.7209,-5.73652,94.9028
2023-02-15 07:30:21:619,-0.953673,2.83246,-9.32317,-16.7227,-5.73627,94.9113
2023-02-15 07:30:21:629,-0.964604,2.82447,-9.31806,-16.7203,-5.73329,94.9174
2023-02-15 07:30:21:639,-0.972838,2.82663,-9.30922,-16.7186,-5.7311,94.9252
2023-02-15 07:30:21:649,-0.968105,2.82218,-9.29359,-16.7176,-5.72859,94.9352
2023-02-15 07:30:21:659,-0.966539,2.83489,-9.29926,-16.7163,-5.72972,94.9398
2023-02-15 07:30:21:669,-0.957354,2.83006,-9.31175,-16.7152,-5.72717,94.9454
2023-02-15 07:30:21:679,-0.958531,2.8275,-9.32146,-16.7131,-5.7223,94.9514
2023-02-15 07:30:21:689,-0.966721,2.80444,-9.30625,-16.7106,-5.71821,94.9558
2023-02-15 07:30:21:699,-0.973583,2.80062,-9.32377,-16.7073,-5.71654,94.9605
2023-02-15 07:30:21:709,-0.952688,2.79021,-9.31346,-16.7,-5.71371,94.9685
2023-02-15 07:30:21:719,-0.941096,2.78442,-9.30569,-16.6952,-5.70964,94.9718
2023-02-15 07:30:21:729,-0.932521,2.78351,-9.32087,-16.6892,-5.70786,94.978
2023-02-15 07:30:21:739,-0.950811,2.79103,-9.33045,-16.6804,-5.70672,94.9824
2023-02-15 07:30:21:749,-0.976418,2.8076,-9.35356,-16.6735,-5.70527,94.9886
2023-02-15 07:30:21:759,-0.991838,2.8281,-9.3875,-16.6641,-5.7057,94.9926
2023-02-15 07:30:21:769,-0.979209,2.82632,-9.38917,-16.6537,-5.70447,94.9991
2023-02-15 07:30:21:779,-0.949672,2.80621,-9.34864,-16.6416,-5.69602,94.9997
2023-02-15 07:30:21:789,-0.94472,2.78239,-9.3299,-16.6303,-5.69384,95.0009
2023-02-15 07:30:21:799,-0.950995,2.77061,-9.30738,-16.6147,-5.69593,94.9997
2023-02-15 07:30:21:809,-0.954034,2.75992,-9.26947,-16.6031,-5.69696,95.0008
2023-02-15 07:30:21:819,-0.934628,2.74543,-9.25751,-16.5925,-5.69502,95.0026
2023-02-15 07:30:21:829,-0.918764,2.74473,-9.26563,-16.5854,-5.69443,95.0031
2023-02-15 07:30:21:839,-0.902746,2.77483,-9.28307,-16.5802,-5.69467,95.0013
2023-02-15 07:30:21:849,-0.888505,2.78646,-9.29383,-16.5769,-5.6932,94.9999
2023-02-15 07:30:21:859,-0.898094,2.78739,-9.31799,-16.5729,-5.69246,95.0013
2023-02-15 07:30:21:869,-0.909526,2.79045,-9.31651,-16.5676,-5.69411,95.006
2023-02-15 07:30:21:879,-0.935128,2.77878,-9.31919,-16.5619,-5.69357,95.0103
2023-02-15 07:30:21:889,-0.952245,2.77074,-9.30177,-16.5515,-5.69408,95.0142
2023-02-15 07:30:21:899,-0.965456,2.75554,-9.30642,-16.5425,-5.69415,95.0173
2023-02-15 07:30:21:909,-0.975574,2.7437,-9.30301,-16.5336,-5.69731,95.0242
2023-02-15 07:30:21:919,-0.968975,2.74185,-9.29419,-16.5236,-5.69919,95.0268
2023-02-15 07:30:21:929,-0.981249,2.74745,-9.2846,-16.5133,-5.69863,95.0303
2023-02-15 07:30:21:939,-0.969696,2.75057,-9.29634,-16.509,-5.69894,95.0318
2023-02-15 07:30:21:949,-0.947954,2.76286,-9.31571,-16.5032,-5.69687,95.0383
2023-02-15 07:30:21:958,-0.933799,2.75972,-9.3289,-16.5037,-5.69302,95.0419
2023-02-15 07:30:21:969,-0.927449,2.76648,-9.33509,-16.5025,-5.69315,95.0438
2023-02-15 07:30:21:979,-0.914843,2.768,-9.3474,-16.5027,-5.68772,95.0446
2023-02-15 07:30:21:989,-0.905999,2.77421,-9.3326,-16.5024,-5.68159,95.0472
2023-02-15 07:30:21:999,-0.926362,2.76644,-9.31936,-16.4966,-5.67971,95.0489
2023-02-15 07:30:22:9,-0.936858,2.76697,-9.31333,-16.4936,-5.6808,95.0514
2023-02-15 07:30:22:19,-0.941978,2.7582,-9.30561,-16.4878,-5.67788,95.0539
2023-02-15 07:30:22:29,-0.915708,2.76948,-9.28929,-16.4823,-5.67183,95.0577
2023-02-15 07:30:22:39,-0.903604,2.76089,-9.30277,-16.4771,-5.66527,95.0597
2023-02-15 07:30:22:49,-0.901268,2.76235,-9.32228,-16.4738,-5.66422,95.0659
2023-02-15 07:30:22:59,-0.929084,2.7783,-9.35137,-16.4718,-5.66352,95.0744
2023-02-15 07:30:22:69,-0.977776,2.78276,-9.35169,-16.4674,-5.66463,95.0799
2023-02-15 07:30:22:79,-0.983076,2.7797,-9.35341,-16.4631,-5.66474,95.0828
2023-02-15 07:30:22:89,-0.984021,2.77326,-9.3567,-16.4569,-5.66308,95.0866
2023-02-15 07:30:22:99,-0.960674,2.77193,-9.36545,-16.4467,-5.65999,95.0902
2023-02-15 07:30:22:109,-0.930031,2.7817,-9.36849,-16.4386,-5.65814,95.0912
2023-02-15 07:30:22:119,-0.939765,2.78839,-9.36243,-16.4301,-5.65495,95.092
2023-02-15 07:30:22:129,-0.929657,2.78538,-9.36828,-16.4201,-5.64931,95.0922
2023-02-15 07:30:22:139,-0.934293,2.77388,-9.36379,-16.4048,-5.64468,95.0934
2023-02-15 07:30:22:149,-0.929343,2.76787,-9.35188,-16.3865,-5.63909,95.0936
2023-02-15 07:30:22:159,-0.936385,2.76186,-9.34049,-16.3698,-5.63857,95.092
2023-02-15 07:30:22:169,-0.936903,2.74303,-9.32944,-16.3503,-5.63887,95.0906
2023-02-15 07:30:22:179,-0.941057,2.73144,-9.33518,-16.3319,-5.64134,95.0917
2023-02-15 07:30:22:189,-0.929591,2.72818,-9.33204,-16.3103,-5.6378,95.088
2023-02-15 07:30:22:199,-0.923787,2.7211,-9.3358,-16.2888,-5.63943,95.0834
2023-02-15 07:30:22:209,-0.904064,2.71467,-9.34952,-16.268,-5.64295,95.0783
2023-02-15 07:30:22:219,-0.902007,2.70567,-9.35177,-16.2471,-5.64924,95.0744
2023-02-15 07:30:22:229,-0.903013,2.69861,-9.3523,-16.2214,-5.65712,95.0713
2023-02-15 07:30:22:239,-0.919947,2.68848,-9.36684,-16.2002,-5.66537,95.0673
2023-02-15 07:30:22:249,-0.934502,2.67721,-9.36516,-16.1796,-5.67443,95.0651
2023-02-15 07:30:22:259,-0.959045,2.6672,-9.34155,-16.1584,-5.68198,95.066
2023-02-15 07:30:22:269,-0.987097,2.66406,-9.33175,-16.1356,-5.68416,95.0701
2023-02-15 07:30:22:279,-1.00411,2.6553,-9.32324,-16.1183,-5.68623,95.0777
2023-02-15 07:30:22:289,-1.01412,2.66011,-9.30239,-16.0972,-5.68951,95.0856
2023-02-15 07:30:22:299,-1.00957,2.64532,-9.297,-16.0774,-5.68737,95.0889
2023-02-15 07:30:22:309,-0.998195,2.63108,-9.30395,-16.0596,-5.68727,95.0891
2023-02-15 07:30:22:319,-1.00056,2.63346,-9.31675,-16.0462,-5.68505,95.0914
2023-02-15 07:30:22:329,-0.987283,2.65016,-9.31503,-16.0304,-5.68258,95.0867
2023-02-15 07:30:22:339,-0.972476,2.64952,-9.3259,-16.0167,-5.67973,95.0837
2023-02-15 07:30:22:349,-0.968558,2.63651,-9.33991,-16.0051,-5.682,95.0782
2023-02-15 07:30:22:359,-0.966792,2.63029,-9.34591,-15.9952,-5.68108,95.0723
2023-02-15 07:30:22:369,-0.957178,2.63533,-9.35837,-15.984,-5.68014,95.0695
2023-02-15 07:30:22:379,-0.946187,2.64652,-9.35253,-15.9764,-5.67713,95.066
2023-02-15 07:30:22:389,-0.950902,2.63277,-9.33756,-15.9659,-5.67265,95.0632
2023-02-15 07:30:22:399,-0.956407,2.62837,-9.32466,-15.9588,-5.6708,95.0599
2023-02-15 07:30:22:409,-0.949293,2.63155,-9.33895,-15.9525,-5.66706,95.0545
2023-02-15 07:30:22:419,-0.952106,2.63527,-9.33504,-15.947,-5.6618,95.0503
2023-02-15 07:30:22:429,-0.954726,2.63256,-9.33225,-15.9419,-5.65643,95.0466
2023-02-15 07:30:22:439,-0.952802,2.64603,-9.33339,-15.9389,-5.65323,95.0435
2023-02-15 07:30:22:449,-0.967261,2.63925,-9.34708,-15.9369,-5.64862,95.0377
2023-02-15 07:30:22:459,-0.943938,2.6633,-9.3709,-15.934,-5.64339,95.0296
2023-02-15 07:30:22:469,-0.936001,2.68133,-9.39266,-15.9336,-5.6408,95.0214
2023-02-15 07:30:22:479,-0.931595,2.69083,-9.41873,-15.9304,-5.63609,95.013
2023-02-15 07:30:22:489,-0.919436,2.6798,-9.40491,-15.925,-5.62994,95.0018
2023-02-15 07:30:22:499,-0.899661,2.66907,-9.3933,-15.916,-5.62414,94.9901
2023-02-15 07:30:22:509,-0.897436,2.66374,-9.35792,-15.9037,-5.62052,94.9818
2023-02-15 07:30:22:519,-0.880443,2.62538,-9.34313,-15.8907,-5.61945,94.973
2023-02-15 07:30:22:529,-0.876528,2.61301,-9.34668,-15.8808,-5.61614,94.9657
2023-02-15 07:30:22:539,-0.890225,2.61265,-9.33955,-15.8731,-5.61797,94.958
2023-02-15 07:30:22:549,-0.897296,2.61693,-9.33488,-15.867,-5.62002,94.9536
2023-02-15 07:30:22:559,-0.906642,2.62764,-9.36008,-15.8623,-5.62023,94.9494
2023-02-15 07:30:22:569,-0.916062,2.64069,-9.36232,-15.8583,-5.6204,94.9458
2023-02-15 07:30:22:579,-0.930562,2.64365,-9.35138,-15.8575,-5.6213,94.9419
2023-02-15 07:30:22:589,-0.93638,2.64773,-9.35207,-15.8537,-5.62331,94.9419
2023-02-15 07:30:22:599,-0.938963,2.65683,-9.36759,-15.849,-5.62753,94.9426
2023-02-15 07:30:22:609,-0.938674,2.64978,-9.36634,-15.846,-5.62954,94.9443
2023-02-15 07:30:22:619,-0.941046,2.64716,-9.36297,-15.8404,-5.62782,94.9416
2023-02-15 07:30:22:629,-0.958618,2.63236,-9.36953,-15.8353,-5.62946,94.9409
2023-02-15 07:30:22:639,-0.977747,2.61275,-9.35228,-15.8287,-5.63028,94.9397
2023-02-15 07:30:22:649,-0.990451,2.60114,-9.35046,-15.824,-5.63046,94.9367
2023-02-15 07:30:22:659,-0.991401,2.59971,-9.33852,-15.8173,-5.62699,94.9373
2023-02-15 07:30:22:669,-0.986565,2.59132,-9.32375,-15.8141,-5.62461,94.9343
2023-02-15 07:30:22:679,-0.979561,2.58965,-9.31342,-15.8143,-5.61907,94.9265
2023-02-15 07:30:22:689,-0.960991,2.60393,-9.33439,-15.8138,-5.61071,94.9227
2023-02-15 07:30:22:699,-0.93803,2.63299,-9.37122,-15.817,-5.60063,94.9128
2023-02-15 07:30:22:709,-0.923364,2.65794,-9.41158,-15.8218,-5.59421,94.9062
2023-02-15 07:30:22:719,-0.922758,2.66274,-9.41234,-15.8235,-5.5868,94.8958
2023-02-15 07:30:22:729,-0.917886,2.6444,-9.39981,-15.8282,-5.58323,94.8868
2023-02-15 07:30:22:739,-0.904341,2.65017,-9.39081,-15.8279,-5.58014,94.8785
2023-02-15 07:30:22:749,-0.908118,2.64632,-9.36039,-15.8317,-5.57901,94.8718
2023-02-15 07:30:22:759,-0.920435,2.64356,-9.35343,-15.8307,-5.57628,94.8615
2023-02-15 07:30:22:769,-0.91717,2.63007,-9.33611,-15.8335,-5.57156,94.8534
2023-02-15 07:30:22:779,-0.909157,2.64174,-9.31961,-15.8359,-5.56548,94.8504
2023-02-15 07:30:22:789,-0.892957,2.65308,-9.3166,-15.8425,-5.55988,94.8472
2023-02-15 07:30:22:799,-0.883251,2.66225,-9.31164,-15.85,-5.56018,94.844
2023-02-15 07:30:22:809,-0.90263,2.6529,-9.30822,-15.8564,-5.56081,94.8357
2023-02-15 07:30:22:819,-0.913547,2.67259,-9.32135,-15.8645,-5.56039,94.8374
2023-02-15 07:30:22:829,-0.924309,2.67574,-9.33894,-15.8723,-5.55818,94.8367
2023-02-15 07:30:22:839,-0.926976,2.6779,-9.34997,-15.8815,-5.55899,94.8406
2023-02-15 07:30:22:849,-0.932487,2.67487,-9.35736,-15.8873,-5.55538,94.8413
2023-02-15 07:30:22:859,-0.927656,2.69527,-9.3843,-15.8947,-5.55588,94.8428
2023-02-15 07:30:22:869,-0.941935,2.69095,-9.39297,-15.9008,-5.55489,94.8431
2023-02-15 07:30:22:879,-0.941596,2.6825,-9.3655,-15.9036,-5.55389,94.8422
2023-02-15 07:30:22:889,-0.926131,2.67875,-9.34325,-15.9077,-5.55103,94.8425
2023-02-15 07:30:22:899,-0.918009,2.68158,-9.32963,-15.9105,-5.54678,94.8429
2023-02-15 07:30:22:909,-0.927224,2.69289,-9.34915,-15.9177,-5.54092,94.8441
2023-02-15 07:30:22:919,-0.91024,2.69001,-9.36067,-15.9223,-5.53577,94.8411
2023-02-15 07:30:22:929,-0.902394,2.67752,-9.36426,-15.9268,-5.53155,94.8381
2023-02-15 07:30:22:939,-0.92341,2.66958,-9.35269,-15.9354,-5.52804,94.8381
2023-02-15 07:30:22:949,-0.915155,2.66454,-9.36103,-15.9418,-5.52435,94.836
2023-02-15 07:30:22:959,-0.920792,2.69994,-9.38639,-15.9503,-5.52462,94.8363
2023-02-15 07:30:22:969,-0.913886,2.71558,-9.3863,-15.9574,-5.52067,94.8361
2023-02-15 07:30:22:979,-0.85445,2.69634,-9.35882,-15.9592,-5.51455,94.8267
2023-02-15 07:30:22:989,-0.79971,2.6715,-9.35058,-15.958,-5.51348,94.8206
2023-02-15 07:30:22:999,-0.810154,2.67851,-9.35497,-15.9558,-5.51455,94.8136
2023-02-15 07:30:23:9,-0.825711,2.67654,-9.35999,-15.9538,-5.51862,94.8107
2023-02-15 07:30:23:19,-0.856176,2.67437,-9.35966,-15.9551,-5.52412,94.8075
2023-02-15 07:30:23:29,-0.882827,2.68142,-9.38012,-15.9545,-5.52931,94.8125
2023-02-15 07:30:23:39,-0.923731,2.69958,-9.40307,-15.9523,-5.53803,94.8168
2023-02-15 07:30:23:49,-0.937814,2.7157,-9.40114,-15.9539,-5.54259,94.8259
2023-02-15 07:30:23:59,-0.95324,2.7128,-9.40194,-15.9516,-5.54797,94.8354
2023-02-15 07:30:23:69,-0.948081,2.69353,-9.39475,-15.9472,-5.54997,94.8433
2023-02-15 07:30:23:79,-0.959549,2.66937,-9.3674,-15.9407,-5.55152,94.8514
2023-02-15 07:30:23:89,-0.983069,2.66813,-9.33948,-15.9308,-5.55081,94.8565
2023-02-15 07:30:23:99,-0.986871,2.66529,-9.32303,-15.9237,-5.55307,94.8607
2023-02-15 07:30:23:109,-0.967858,2.64945,-9.31049,-15.9115,-5.55596,94.8606
2023-02-15 07:30:23:119,-0.957267,2.63862,-9.31242,-15.9021,-5.55823,94.8596
2023-02-15 07:30:23:129,-0.944885,2.63652,-9.30296,-15.8945,-5.55793,94.8563
2023-02-15 07:30:23:139,-0.929078,2.63624,-9.30953,-15.8881,-5.55793,94.8522
2023-02-15 07:30:23:149,-0.910454,2.64467,-9.33963,-15.883,-5.5581,94.8467
2023-02-15 07:30:23:159,-0.914253,2.64254,-9.36604,-15.8778,-5.56314,94.8424
2023-02-15 07:30:23:169,-0.917006,2.64921,-9.38487,-15.8749,-5.56402,94.8395
2023-02-15 07:30:23:179,-0.919555,2.66343,-9.40164,-15.87,-5.56678,94.8347
2023-02-15 07:30:23:189,-0.930441,2.66388,-9.39479,-15.868,-5.57019,94.8344
2023-02-15 07:30:23:199,-0.947052,2.65698,-9.3626,-15.8611,-5.5699,94.8335
2023-02-15 07:30:23:209,-0.943499,2.65106,-9.32147,-15.8567,-5.5681,94.8333
2023-02-15 07:30:23:219,-0.938834,2.6467,-9.32514,-15.8485,-5.56704,94.8358
2023-02-15 07:30:23:229,-0.941362,2.65038,-9.31588,-15.8469,-5.56894,94.839
2023-02-15 07:30:23:239,-0.940862,2.64126,-9.33264,-15.8443,-5.56713,94.8386
2023-02-15 07:30:23:249,-0.9337,2.6587,-9.36032,-15.8469,-5.56381,94.8423
2023-02-15 07:30:23:259,-0.928515,2.66622,-9.37177,-15.8459,-5.5617,94.842
2023-02-15 07:30:23:269,-0.936873,2.66166,-9.38562,-15.8481,-5.56189,94.842
2023-02-15 07:30:23:279,-0.945566,2.6573,-9.37824,-15.8445,-5.56215,94.8394
2023-02-15 07:30:23:289,-0.949253,2.63731,-9.37225,-15.8399,-5.56198,94.8411
2023-02-15 07:30:23:299,-0.9409,2.6236,-9.34119,-15.8371,-5.56175,94.8401
2023-02-15 07:30:23:309,-0.95103,2.61336,-9.33811,-15.8328,-5.56215,94.8406
2023-02-15 07:30:23:318,-0.969545,2.62349,-9.34292,-15.8305,-5.56357,94.8413
2023-02-15 07:30:23:329,-0.979992,2.61938,-9.34563,-15.8286,-5.56224,94.8364
2023-02-15 07:30:23:339,-0.970963,2.62094,-9.35207,-15.8279,-5.55706,94.8353
2023-02-15 07:30:23:349,-0.962033,2.63763,-9.36036,-15.829,-5.55368,94.8324
2023-02-15 07:30:23:359,-0.955085,2.64509,-9.37053,-15.8301,-5.54674,94.8273
2023-02-15 07:30:23:369,-0.941898,2.63461,-9.35876,-15.8304,-5.54423,94.8232
2023-02-15 07:30:23:379,-0.922792,2.62296,-9.35176,-15.8319,-5.53986,94.815
2023-02-15 07:30:23:389,-0.90677,2.62549,-9.35747,-15.8306,-5.54264,94.8066
2023-02-15 07:30:23:399,-0.892067,2.62701,-9.37029,-15.8304,-5.5426,94.7991
2023-02-15 07:30:23:409,-0.884072,2.63713,-9.37805,-15.83,-5.54399,94.7888
2023-02-15 07:30:23:419,-0.888352,2.63291,-9.37408,-15.8309,-5.5435,94.7815
2023-02-15 07:30:23:429,-0.878808,2.627,-9.37196,-15.8288,-5.54524,94.775
2023-02-15 07:30:23:439,-0.879063,2.62167,-9.35595,-15.8284,-5.5452,94.7682
2023-02-15 07:30:23:449,-0.877446,2.60741,-9.33398,-15.8281,-5.54713,94.7662
2023-02-15 07:30:23:459,-0.882005,2.61252,-9.33696,-15.8271,-5.5484,94.7648
2023-02-15 07:30:23:469,-0.896705,2.61308,-9.36692,-15.8295,-5.54273,94.7651
2023-02-15 07:30:23:479,-0.907082,2.62573,-9.36769,-15.8329,-5.54366,94.7669
2023-02-15 07:30:23:489,-0.915285,2.63493,-9.37048,-15.8368,-5.54366,94.7708
2023-02-15 07:30:23:499,-0.918738,2.64938,-9.35738,-15.8414,-5.54362,94.7779
2023-02-15 07:30:23:509,-0.930977,2.64872,-9.35993,-15.8432,-5.54547,94.781
2023-02-15 07:30:23:519,-0.927664,2.65019,-9.35672,-15.8468,-5.5494,94.7868
2023-02-15 07:30:23:529,-0.920665,2.64995,-9.34592,-15.85,-5.55055,94.7905
2023-02-15 07:30:23:539,-0.92656,2.64372,-9.33251,-15.8544,-5.55277,94.7954
2023-02-15 07:30:23:549,-0.93243,2.6534,-9.32406,-15.8592,-5.55752,94.7996
2023-02-15 07:30:23:559,-0.92945,2.66236,-9.32641,-15.8645,-5.55724,94.8031
2023-02-15 07:30:23:569,-0.950911,2.66881,-9.34156,-15.8698,-5.55684,94.8086
2023-02-15 07:30:23:579,-0.968227,2.67507,-9.35058,-15.8767,-5.55637,94.8158
2023-02-15 07:30:23:589,-0.984235,2.68239,-9.36547,-15.8825,-5.55101,94.8216
2023-02-15 07:30:23:599,-0.991552,2.6895,-9.33807,-15.8862,-5.54513,94.825
2023-02-15 07:30:23:609,-0.993795,2.6858,-9.33989,-15.8918,-5.54006,94.8248
2023-02-15 07:30:23:619,-0.968584,2.67594,-9.33175,-15.8967,-5.53289,94.824
2023-02-15 07:30:23:629,-0.950937,2.67153,-9.33118,-15.9009,-5.52834,94.8215
2023-02-15 07:30:23:639,-0.945177,2.67457,-9.34384,-15.9059,-5.52405,94.8127
2023-02-15 07:30:23:649,-0.917099,2.66934,-9.34702,-15.9099,-5.51861,94.802
2023-02-15 07:30:23:659,-0.909037,2.65298,-9.3592,-15.9108,-5.51633,94.7882
2023-02-15 07:30:23:669,-0.889455,2.65535,-9.41679,-15.9092,-5.5123,94.7742
2023-02-15 07:30:23:679,-0.836839,2.67231,-9.44413,-15.9091,-5.50645,94.7612
2023-02-15 07:30:23:689,-0.813947,2.66393,-9.42063,-15.909,-5.49863,94.7472
2023-02-15 07:30:23:699,-0.832949,2.65198,-9.38977,-15.9084,-5.49682,94.7372
2023-02-15 07:30:23:709,-0.841599,2.64718,-9.35622,-15.9062,-5.49791,94.729
2023-02-15 07:30:23:719,-0.86796,2.64559,-9.33297,-15.903,-5.49809,94.7232
2023-02-15 07:30:23:729,-0.892398,2.64238,-9.30088,-15.9065,-5.49779,94.7189
2023-02-15 07:30:23:739,-0.902456,2.6397,-9.3045,-15.9112,-5.49705,94.7195
2023-02-15 07:30:23:749,-0.896894,2.65238,-9.3129,-15.9201,-5.49679,94.7194
2023-02-15 07:30:23:759,-0.906098,2.6738,-9.3108,-15.9277,-5.49343,94.7196
2023-02-15 07:30:23:769,-0.913069,2.68431,-9.32068,-15.9394,-5.48937,94.7196
2023-02-15 07:30:23:779,-0.914025,2.68673,-9.32815,-15.9495,-5.48955,94.7225
2023-02-15 07:30:23:789,-0.899104,2.69436,-9.32664,-15.9611,-5.49281,94.7206
2023-02-15 07:30:23:799,-0.897057,2.70899,-9.33201,-15.9703,-5.49385,94.721
2023-02-15 07:30:23:809,-0.878505,2.72196,-9.34623,-15.9785,-5.4958,94.7223
2023-02-15 07:30:23:819,-0.882068,2.7216,-9.37094,-15.9886,-5.49695,94.724
2023-02-15 07:30:23:828,-0.899248,2.71751,-9.38186,-15.997,-5.49673,94.725
2023-02-15 07:30:23:838,-0.917418,2.73275,-9.37891,-16.0051,-5.49775,94.728
2023-02-15 07:30:23:848,-0.936483,2.72677,-9.38372,-16.0127,-5.49576,94.7321
2023-02-15 07:30:23:859,-0.953827,2.72841,-9.36845,-16.0163,-5.49441,94.7325
2023-02-15 07:30:23:869,-0.960605,2.70499,-9.3577,-16.0224,-5.48948,94.735
2023-02-15 07:30:23:879,-0.962929,2.7071,-9.35534,-16.0257,-5.48817,94.7381
2023-02-15 07:30:23:889,-0.966059,2.70671,-9.33266,-16.0281,-5.4837,94.7362
2023-02-15 07:30:23:899,-0.95742,2.69748,-9.31396,-16.032,-5.48093,94.7308
2023-02-15 07:30:23:909,-0.940039,2.68944,-9.29754,-16.0359,-5.47621,94.7265
2023-02-15 07:30:23:918,-0.941396,2.68314,-9.33507,-16.0419,-5.47568,94.7212
2023-02-15 07:30:23:929,-0.939491,2.70173,-9.36659,-16.0443,-5.47352,94.7123
2023-02-15 07:30:23:939,-0.887706,2.71134,-9.37092,-16.0487,-5.46941,94.7029
2023-02-15 07:30:23:949,-0.810207,2.69274,-9.39127,-16.0467,-5.46129,94.6904
2023-02-15 07:30:23:959,-0.791908,2.69287,-9.39557,-16.0455,-5.45548,94.6812
2023-02-15 07:30:23:969,-0.805488,2.69684,-9.36892,-16.042,-5.45654,94.671
2023-02-15 07:30:23:979,-0.81615,2.69221,-9.33575,-16.0386,-5.45932,94.6631
2023-02-15 07:30:23:989,-0.826786,2.67976,-9.34831,-16.0337,-5.46065,94.6591
2023-02-15 07:30:23:999,-0.837219,2.68541,-9.3626,-16.032,-5.46234,94.6567
2023-02-15 07:30:24:8,-0.847075,2.69384,-9.37178,-16.032,-5.46377,94.6566
2023-02-15 07:30:24:19,-0.861867,2.70271,-9.36356,-16.0331,-5.46323,94.6602
2023-02-15 07:30:24:29,-0.883433,2.69583,-9.37085,-16.0346,-5.46553,94.6667
2023-02-15 07:30:24:39,-0.898606,2.69715,-9.35527,-16.0356,-5.46965,94.6732
2023-02-15 07:30:24:49,-0.88848,2.69158,-9.36088,-16.0335,-5.47045,94.6803
2023-02-15 07:30:24:59,-0.91678,2.69102,-9.33777,-16.0347,-5.47758,94.6855
2023-02-15 07:30:24:69,-0.945152,2.69329,-9.32328,-16.0342,-5.48828,94.6916
2023-02-15 07:30:24:79,-0.953712,2.67956,-9.30559,-16.0381,-5.50048,94.6976
2023-02-15 07:30:24:89,-0.965626,2.67969,-9.31846,-16.0391,-5.5073,94.6997
2023-02-15 07:30:24:99,-0.959957,2.68287,-9.33176,-16.0393,-5.51738,94.7028
2023-02-15 07:30:24:109,-0.946939,2.67971,-9.33683,-16.0421,-5.52336,94.7063
2023-02-15 07:30:24:119,-0.933579,2.68183,-9.34477,-16.0464,-5.53193,94.7089
2023-02-15 07:30:24:129,-0.926874,2.69492,-9.35099,-16.0522,-5.53978,94.7093
2023-02-15 07:30:24:139,-0.928053,2.71132,-9.36673,-16.0556,-5.54719,94.7122
2023-02-15 07:30:24:149,-0.934223,2.71747,-9.36873,-16.0615,-5.55566,94.712
2023-02-15 07:30:24:159,-0.965532,2.71704,-9.36126,-16.0639,-5.5639,94.714
2023-02-15 07:30:24:169,-0.971378,2.71497,-9.33765,-16.0683,-5.57078,94.7186
2023-02-15 07:30:24:179,-0.990626,2.71599,-9.32934,-16.0703,-5.57519,94.7218
2023-02-15 07:30:24:189,-1.0169,2.71634,-9.3138,-16.0746,-5.57756,94.7299
2023-02-15 07:30:24:199,-1.01104,2.7135,-9.32935,-16.077,-5.57795,94.7349
2023-02-15 07:30:24:209,-1.00413,2.73615,-9.34341,-16.077,-5.5725,94.7405
2023-02-15 07:30:24:219,-0.994859,2.73924,-9.34953,-16.0805,-5.5665,94.7419
2023-02-15 07:30:24:229,-0.989815,2.73074,-9.36042,-16.0828,-5.55839,94.7431
2023-02-15 07:30:24:239,-0.96753,2.73664,-9.36506,-16.0818,-5.55009,94.7392
2023-02-15 07:30:24:249,-0.956677,2.7331,-9.36881,-16.078,-5.54361,94.7341
2023-02-15 07:30:24:259,-0.940863,2.71356,-9.35606,-16.071,-5.53893,94.7261
2023-02-15 07:30:24:269,-0.927663,2.70712,-9.34927,-16.0627,-5.53287,94.7128
2023-02-15 07:30:24:279,-0.893863,2.69859,-9.3654,-16.057,-5.52833,94.7025
2023-02-15 07:30:24:289,-0.871569,2.68898,-9.36031,-16.0517,-5.52387,94.69
2023-02-15 07:30:24:299,-0.876042,2.68547,-9.35885,-16.0449,-5.51665,94.6785
2023-02-15 07:30:24:309,-0.877682,2.68873,-9.38303,-16.0385,-5.51324,94.6696
2023-02-15 07:30:24:319,-0.881199,2.67987,-9.3767,-16.0294,-5.50774,94.6604
2023-02-15 07:30:24:329,-0.881675,2.69006,-9.35571,-16.0186,-5.50115,94.656
2023-02-15 07:30:24:339,-0.903673,2.67912,-9.3483,-16.0098,-5.49577,94.6506
2023-02-15 07:30:24:348,-0.906465,2.66663,-9.33481,-15.998,-5.49225,94.6452
2023-02-15 07:30:24:358,-0.923058,2.65934,-9.34417,-15.9871,-5.4868,94.6428
2023-02-15 07:30:24:369,-0.910928,2.65875,-9.35883,-15.9747,-5.47817,94.638
2023-02-15 07:30:24:378,-0.895348,2.65446,-9.34452,-15.9663,-5.46929,94.634
2023-02-15 07:30:24:388,-0.887166,2.64984,-9.35099,-15.9535,-5.46229,94.6287
2023-02-15 07:30:24:399,-0.877436,2.64041,-9.3379,-15.9418,-5.45584,94.6252
2023-02-15 07:30:24:409,-0.880763,2.61489,-9.35194,-15.934,-5.44993,94.6133
2023-02-15 07:30:24:418,-0.889235,2.62155,-9.34993,-15.9292,-5.44662,94.6067
2023-02-15 07:30:24:429,-0.887597,2.62432,-9.34404,-15.9238,-5.44382,94.5989
2023-02-15 07:30:24:439,-0.885578,2.63587,-9.3326,-15.9221,-5.44394,94.5904
2023-02-15 07:30:24:449,-0.855127,2.64222,-9.34293,-15.9201,-5.44451,94.582
2023-02-15 07:30:24:459,-0.847451,2.65072,-9.37495,-15.919,-5.44425,94.5743
2023-02-15 07:30:24:469,-0.849953,2.65507,-9.38338,-15.9208,-5.44539,94.5671
2023-02-15 07:30:24:479,-0.860305,2.65,-9.3727,-15.923,-5.44526,94.5598
2023-02-15 07:30:24:489,-0.888706,2.66579,-9.38287,-15.9233,-5.44721,94.5566
2023-02-15 07:30:24:499,-0.922905,2.67399,-9.37777,-15.9198,-5.44942,94.5522
2023-02-15 07:30:24:509,-0.969482,2.65573,-9.3621,-15.9165,-5.44786,94.5474
2023-02-15 07:30:24:519,-1.02501,2.64681,-9.35222,-15.913,-5.44912,94.5438
2023-02-15 07:30:24:529,-1.03904,2.64928,-9.33293,-15.905,-5.44539,94.5347
2023-02-15 07:30:24:539,-1.0362,2.64487,-9.32215,-15.901,-5.44093,94.5183
2023-02-15 07:30:24:549,-1.03519,2.63831,-9.31076,-15.8966,-5.44199,94.4976
2023-02-15 07:30:24:559,-0.998012,2.64172,-9.33803,-15.8951,-5.4429,94.4698
2023-02-15 07:30:24:569,-0.958081,2.64418,-9.36338,-15.8945,-5.4461,94.4354
2023-02-15 07:30:24:579,-0.908073,2.65724,-9.41046,-15.8912,-5.4509,94.3899
2023-02-15 07:30:24:589,-0.865831,2.67146,-9.43978,-15.8885,-5.45234,94.3487
2023-02-15 07:30:24:599,-0.83462,2.66228,-9.42505,-15.8823,-5.45524,94.3021
2023-02-15 07:30:24:609,-0.830249,2.6332,-9.39103,-15.8773,-5.45638,94.2658
2023-02-15 07:30:24:619,-0.839072,2.61687,-9.36773,-15.8692,-5.45773,94.2289
2023-02-15 07:30:24:629,-0.825084,2.61086,-9.34195,-15.8691,-5.45757,94.1952
2023-02-15 07:30:24:639,-0.806389,2.61019,-9.32641,-15.8697,-5.45483,94.1662
2023-02-15 07:30:24:649,-0.789287,2.60171,-9.31503,-15.8733,-5.45396,94.139
2023-02-15 07:30:24:659,-0.775496,2.61417,-9.32213,-15.879,-5.45041,94.1166
2023-02-15 07:30:24:669,-0.802737,2.63935,-9.32929,-15.889,-5.44815,94.1015
2023-02-15 07:30:24:679,-0.813571,2.64928,-9.35097,-15.897,-5.44716,94.0894
2023-02-15 07:30:24:688,-0.824097,2.6676,-9.34544,-15.9039,-5.44831,94.0815
2023-02-15 07:30:24:699,-0.849123,2.6754,-9.34035,-15.9152,-5.44931,94.0773
2023-02-15 07:30:24:709,-0.868762,2.68111,-9.34788,-15.9209,-5.45199,94.077
2023-02-15 07:30:24:719,-0.861351,2.68079,-9.3581,-15.9256,-5.45311,94.076
2023-02-15 07:30:24:729,-0.861265,2.68233,-9.35543,-15.9358,-5.45598,94.077
2023-02-15 07:30:24:739,-0.856091,2.69002,-9.37841,-15.9441,-5.45724,94.0792
2023-02-15 07:30:24:749,-0.87947,2.69679,-9.39135,-15.9554,-5.46023,94.0817
2023-02-15 07:30:24:759,-0.894411,2.70835,-9.37916,-15.9681,-5.46579,94.0867
2023-02-15 07:30:24:769,-0.902477,2.71865,-9.38432,-15.9763,-5.46555,94.0945
2023-02-15 07:30:24:779,-0.917912,2.72792,-9.38615,-15.983,-5.46736,94.0955
2023-02-15 07:30:24:789,-0.940029,2.72186,-9.39084,-15.9913,-5.47046,94.0989
2023-02-15 07:30:24:799,-0.951113,2.71745,-9.35978,-15.998,-5.47001,94.1035
2023-02-15 07:30:24:809,-0.942625,2.71025,-9.32802,-16.0021,-5.47193,94.1066
2023-02-15 07:30:24:819,-0.953256,2.68798,-9.30435,-16.0051,-5.47626,94.1059
2023-02-15 07:30:24:828,-0.965779,2.70928,-9.31666,-16.0081,-5.48313,94.1053
2023-02-15 07:30:24:839,-0.98626,2.71616,-9.3392,-16.0128,-5.48388,94.0997
2023-02-15 07:30:24:849,-0.930437,2.70989,-9.34349,-16.0159,-5.48113,94.0952
2023-02-15 07:30:24:858,-0.85879,2.72014,-9.35962,-16.0155,-5.47782,94.0881
2023-02-15 07:30:24:868,-0.856718,2.70932,-9.37047,-16.016,-5.47682,94.0796
2023-02-15 07:30:24:879,-0.86183,2.68933,-9.38273,-16.015,-5.48015,94.0724
2023-02-15 07:30:24:889,-0.871266,2.69075,-9.38564,-16.0142,-5.48482,94.0682
2023-02-15 07:30:24:898,-0.869049,2.68975,-9.39134,-16.0107,-5.48743,94.0665
2023-02-15 07:30:24:909,-0.873366,2.69356,-9.39578,-16.0103,-5.48669,94.0681
2023-02-15 07:30:24:918,-0.850654,2.70386,-9.38227,-16.0078,-5.48861,94.0689
2023-02-15 07:30:24:929,-0.866458,2.70373,-9.37699,-16.0065,-5.49232,94.0701
2023-02-15 07:30:24:938,-0.885176,2.68359,-9.35803,-16.0037,-5.49071,94.0776
2023-02-15 07:30:24:949,-0.893265,2.6858,-9.341,-15.9975,-5.49043,94.0856
2023-02-15 07:30:24:959,-0.919062,2.6838,-9.33884,-15.9948,-5.48893,94.0909
2023-02-15 07:30:24:969,-0.930994,2.68651,-9.34043,-15.9938,-5.48956,94.098
2023-02-15 07:30:24:979,-0.932418,2.68281,-9.34113,-15.9885,-5.49348,94.102
2023-02-15 07:30:24:989,-0.913418,2.67638,-9.34422,-15.9828,-5.49946,94.1013
2023-02-15 07:30:24:999,-0.895217,2.67335,-9.35438,-15.9827,-5.50494,94.1016
2023-02-15 07:30:25:9,-0.892337,2.67978,-9.36223,-15.9806,-5.51265,94.1033
2023-02-15 07:30:25:19,-0.88935,2.67866,-9.38263,-15.9764,-5.51964,94.0994
2023-02-15 07:30:25:29,-0.891549,2.66897,-9.36162,-15.9712,-5.52704,94.0993
2023-02-15 07:30:25:39,-0.885203,2.66533,-9.3335,-15.9647,-5.53794,94.0974
2023-02-15 07:30:25:49,-0.881292,2.65298,-9.34542,-15.9621,-5.54648,94.0981
2023-02-15 07:30:25:59,-0.870905,2.65387,-9.35486,-15.9575,-5.55649,94.1008
2023-02-15 07:30:25:69,-0.863699,2.64748,-9.34289,-15.9525,-5.56322,94.1034
2023-02-15 07:30:25:79,-0.867138,2.65404,-9.32301,-15.9491,-5.5692,94.1084
2023-02-15 07:30:25:89,-0.902228,2.65343,-9.33757,-15.9475,-5.5825,94.1187
2023-02-15 07:30:25:99,-0.929281,2.66686,-9.34198,-15.947,-5.59613,94.1304
2023-02-15 07:30:25:109,-0.939609,2.66972,-9.36494,-15.947,-5.60775,94.1455
2023-02-15 07:30:25:119,-0.96692,2.67029,-9.37172,-15.9458,-5.61409,94.1597
2023-02-15 07:30:25:129,-0.9861,2.67881,-9.35808,-15.9491,-5.62527,94.175
2023-02-15 07:30:25:139,-1.00118,2.68393,-9.34797,-15.951,-5.63482,94.1865
2023-02-15 07:30:25:149,-1.01303,2.67559,-9.35844,-15.9509,-5.64441,94.1969
2023-02-15 07:30:25:159,-1.01518,2.68326,-9.36073,-15.9489,-5.65352,94.2019
2023-02-15 07:30:25:169,-0.996982,2.67798,-9.3518,-15.9484,-5.66047,94.2083
2023-02-15 07:30:25:179,-0.984761,2.67176,-9.36788,-15.947,-5.66816,94.2142
2023-02-15 07:30:25:189,-0.978934,2.67599,-9.3704,-15.942,-5.67843,94.219
2023-02-15 07:30:25:199,-0.96422,2.67834,-9.35791,-15.939,-5.68418,94.2225
2023-02-15 07:30:25:209,-0.952007,2.66963,-9.3347,-15.9391,-5.68896,94.2253
2023-02-15 07:30:25:219,-0.940116,2.66171,-9.34331,-15.9335,-5.6947,94.2232
2023-02-15 07:30:25:229,-0.944081,2.665,-9.34263,-15.9313,-5.69919,94.2254
2023-02-15 07:30:25:239,-0.948968,2.65936,-9.34555,-15.9298,-5.70307,94.2279
2023-02-15 07:30:25:249,-0.94894,2.66317,-9.36026,-15.9197,-5.70426,94.2298
2023-02-15 07:30:25:259,-0.957955,2.65348,-9.3692,-15.9129,-5.70916,94.2369
2023-02-15 07:30:25:269,-0.963143,2.65561,-9.36275,-15.9126,-5.71293,94.2394
2023-02-15 07:30:25:279,-0.981364,2.66662,-9.34858,-15.9101,-5.71456,94.2457
2023-02-15 07:30:25:289,-0.978107,2.65117,-9.35584,-15.9097,-5.71687,94.253
2023-02-15 07:30:25:298,-0.970097,2.65743,-9.3661,-15.9072,-5.71855,94.2584
2023-02-15 07:30:25:308,-0.969667,2.66493,-9.35503,-15.9017,-5.71977,94.2642
2023-02-15 07:30:25:319,-0.955244,2.66681,-9.36082,-15.8964,-5.72299,94.2662
2023-02-15 07:30:25:329,-0.949423,2.66531,-9.36906,-15.8933,-5.72739,94.2699
2023-02-15 07:30:25:339,-0.95777,2.64991,-9.36882,-15.8872,-5.73105,94.2715
2023-02-15 07:30:25:349,-0.961836,2.63875,-9.32993,-15.8801,-5.73189,94.2734
2023-02-15 07:30:25:359,-0.948466,2.64734,-9.30909,-15.8786,-5.73353,94.276
2023-02-15 07:30:25:369,-0.937859,2.6387,-9.30696,-15.8791,-5.73526,94.279
2023-02-15 07:30:25:378,-0.952469,2.64444,-9.33046,-15.8757,-5.7364,94.2846
2023-02-15 07:30:25:388,-0.950529,2.65218,-9.35625,-15.8791,-5.7409,94.2926
2023-02-15 07:30:25:398,-0.960541,2.67197,-9.38862,-15.878,-5.74291,94.3002
2023-02-15 07:30:25:409,-0.972167,2.66554,-9.41143,-15.8778,-5.7454,94.3078
2023-02-15 07:30:25:418,-0.992279,2.66221,-9.40383,-15.8807,-5.74408,94.3176
2023-02-15 07:30:25:429,-0.984003,2.65657,-9.3879,-15.8756,-5.7456,94.3265
2023-02-15 07:30:25:439,-0.987075,2.64948,-9.35139,-15.8668,-5.74697,94.3329
2023-02-15 07:30:25:449,-0.999432,2.64604,-9.32876,-15.8621,-5.74642,94.3334
2023-02-15 07:30:25:459,-0.985683,2.62837,-9.31201,-15.8578,-5.74975,94.3367
2023-02-15 07:30:25:469,-0.977557,2.61468,-9.32209,-15.8546,-5.74884,94.3362
2023-02-15 07:30:25:479,-0.969055,2.63392,-9.3429,-15.8525,-5.74684,94.338
2023-02-15 07:30:25:489,-0.945541,2.64129,-9.37556,-15.8524,-5.74321,94.333
2023-02-15 07:30:25:499,-0.903679,2.64634,-9.39891,-15.8495,-5.73694,94.3305
2023-02-15 07:30:25:509,-0.889013,2.63708,-9.41443,-15.8494,-5.73801,94.3271
2023-02-15 07:30:25:518,-0.892713,2.63524,-9.39353,-15.8493,-5.73705,94.3284
2023-02-15 07:30:25:529,-0.895553,2.64805,-9.3753,-15.8492,-5.74272,94.3282
2023-02-15 07:30:25:539,-0.913293,2.64742,-9.3825,-15.8508,-5.7451,94.3341
2023-02-15 07:30:25:549,-0.929168,2.65207,-9.36102,-15.8491,-5.74732,94.3406
2023-02-15 07:30:25:559,-0.941824,2.66199,-9.3124,-15.8508,-5.74798,94.3496
2023-02-15 07:30:25:569,-0.932277,2.66278,-9.30415,-15.8545,-5.74519,94.3585
2023-02-15 07:30:25:579,-0.944728,2.6769,-9.31147,-15.8574,-5.74399,94.3676
2023-02-15 07:30:25:589,-0.961212,2.68375,-9.30557,-15.8578,-5.74523,94.3764
2023-02-15 07:30:25:599,-0.972789,2.68399,-9.3263,-15.8612,-5.74339,94.39
2023-02-15 07:30:25:608,-0.971844,2.69155,-9.33366,-15.8648,-5.74732,94.4009
2023-02-15 07:30:25:618,-0.965847,2.68425,-9.34472,-15.8672,-5.74735,94.4111
2023-02-15 07:30:25:629,-0.972113,2.6878,-9.36197,-15.8682,-5.74506,94.4165
2023-02-15 07:30:25:639,-0.969438,2.69734,-9.37332,-15.8697,-5.74594,94.4233
2023-02-15 07:30:25:649,-0.950268,2.69813,-9.38051,-15.8739,-5.74306,94.4258
2023-02-15 07:30:25:659,-0.951488,2.69739,-9.39328,-15.8768,-5.74161,94.4323
2023-02-15 07:30:25:668,-0.969799,2.70055,-9.39798,-15.8771,-5.73675,94.4358
2023-02-15 07:30:25:678,-0.969235,2.69733,-9.38945,-15.8721,-5.73571,94.4391
2023-02-15 07:30:25:689,-0.968866,2.69424,-9.37514,-15.8663,-5.73352,94.439
2023-02-15 07:30:25:699,-0.962014,2.68539,-9.36982,-15.8616,-5.73185,94.4353
2023-02-15 07:30:25:709,-0.958504,2.68198,-9.35425,-15.8586,-5.72995,94.4356
2023-02-15 07:30:25:719,-0.955535,2.67327,-9.3294,-15.8541,-5.72621,94.4345
2023-02-15 07:30:25:729,-0.945907,2.66719,-9.31852,-15.8528,-5.72547,94.4349
2023-02-15 07:30:25:738,-0.93973,2.66918,-9.34091,-15.8492,-5.72226,94.4265
2023-02-15 07:30:25:749,-0.918484,2.67428,-9.36712,-15.8448,-5.7147,94.4191
2023-02-15 07:30:25:759,-0.857571,2.65151,-9.37138,-15.8384,-5.70494,94.413
2023-02-15 07:30:25:769,-0.831118,2.64174,-9.38142,-15.8308,-5.69991,94.4046
2023-02-15 07:30:25:778,-0.838452,2.63607,-9.39926,-15.8223,-5.69982,94.4008
2023-02-15 07:30:25:789,-0.841098,2.63568,-9.38779,-15.8178,-5.70824,94.3981
2023-02-15 07:30:25:798,-0.867078,2.6376,-9.38541,-15.81,-5.71467,94.3984
2023-02-15 07:30:25:809,-0.893959,2.63814,-9.38757,-15.8003,-5.72513,94.3999
2023-02-15 07:30:25:818,-0.887239,2.63608,-9.39437,-15.7946,-5.73131,94.4042
2023-02-15 07:30:25:829,-0.875406,2.63988,-9.40084,-15.7858,-5.74251,94.4125
2023-02-15 07:30:25:838,-0.89668,2.64492,-9.40186,-15.776,-5.74943,94.4231
2023-02-15 07:30:25:849,-0.922641,2.62791,-9.38097,-15.7636,-5.76226,94.4351
2023-02-15 07:30:25:859,-0.942386,2.62964,-9.36389,-15.7564,-5.77006,94.4496
2023-02-15 07:30:25:868,-0.975785,2.62245,-9.32837,-15.7455,-5.78256,94.4608
2023-02-15 07:30:25:878,-0.9819,2.61551,-9.30189,-15.737,-5.79504,94.4741
2023-02-15 07:30:25:888,-0.989729,2.60636,-9.31313,-15.7302,-5.80885,94.4852
2023-02-15 07:30:25:898,-0.99845,2.60211,-9.34401,-15.7231,-5.82642,94.4919
2023-02-15 07:30:25:908,-1.00267,2.60529,-9.35746,-15.7137,-5.84228,94.4997
2023-02-15 07:30:25:918,-0.984355,2.61818,-9.37095,-15.7021,-5.85737,94.5058
2023-02-15 07:30:25:928,-0.988445,2.62688,-9.40593,-15.6956,-5.86881,94.5122
2023-02-15 07:30:25:938,-0.988049,2.61446,-9.39581,-15.6887,-5.88187,94.5196
2023-02-15 07:30:25:948,-0.991728,2.60514,-9.35661,-15.6794,-5.8943,94.5222
2023-02-15 07:30:25:958,-0.993136,2.58954,-9.34214,-15.6702,-5.90803,94.5259
2023-02-15 07:30:25:968,-1.00158,2.57219,-9.33556,-15.6631,-5.92135,94.5322
2023-02-15 07:30:25:978,-1.02819,2.56098,-9.33198,-15.6551,-5.9351,94.5387
2023-02-15 07:30:25:988,-1.04882,2.56461,-9.32294,-15.6533,-5.94695,94.5472
2023-02-15 07:30:25:998,-1.04551,2.57518,-9.32471,-15.6557,-5.95299,94.5575
2023-02-15 07:30:26:8,-1.0487,2.5698,-9.31466,-15.6599,-5.95816,94.5659
2023-02-15 07:30:26:18,-1.04475,2.57619,-9.3179,-15.6636,-5.96233,94.5772
2023-02-15 07:30:26:28,-1.05733,2.59526,-9.34026,-15.668,-5.96741,94.5833
2023-02-15 07:30:26:38,-1.04318,2.60253,-9.34426,-15.6768,-5.97283,94.5913
2023-02-15 07:30:26:48,-1.03807,2.6141,-9.34007,-15.6844,-5.97729,94.5929
2023-02-15 07:30:26:58,-1.0406,2.61932,-9.35087,-15.695,-5.98164,94.5988
2023-02-15 07:30:26:68,-1.0238,2.63124,-9.37504,-15.7019,-5.9852,94.5994
2023-02-15 07:30:26:78,-1.02126,2.64838,-9.36695,-15.7134,-5.9878,94.5979
2023-02-15 07:30:26:88,-1.03297,2.63147,-9.36463,-15.7215,-5.98773,94.598
2023-02-15 07:30:26:98,-1.0314,2.63361,-9.36888,-15.7264,-5.9901,94.5959
2023-02-15 07:30:26:108,-1.0286,2.64044,-9.37609,-15.7347,-5.99279,94.5993
2023-02-15 07:30:26:118,-1.02062,2.64329,-9.37124,-15.7427,-5.99588,94.6007
2023-02-15 07:30:26:128,-1.0149,2.65542,-9.35902,-15.7487,-5.99731,94.6014
2023-02-15 07:30:26:138,-1.02225,2.65352,-9.37598,-15.756,-5.99596,94.6021
2023-02-15 07:30:26:148,-1.01615,2.65916,-9.37307,-15.7606,-5.99754,94.6008
2023-02-15 07:30:26:158,-1.01455,2.65689,-9.37648,-15.767,-6.00102,94.5974
2023-02-15 07:30:26:168,-1.0211,2.65225,-9.3742,-15.7713,-6.00073,94.5974
2023-02-15 07:30:26:178,-1.01455,2.65294,-9.35788,-15.7724,-6.00329,94.5975
2023-02-15 07:30:26:188,-0.997131,2.65536,-9.33746,-15.7781,-6.00537,94.5987
2023-02-15 07:30:26:198,-0.993166,2.64884,-9.3511,-15.7786,-6.00729,94.5987
2023-02-15 07:30:26:208,-0.980954,2.64745,-9.34368,-15.7783,-6.00851,94.5953
2023-02-15 07:30:26:218,-0.978226,2.6406,-9.33863,-15.7808,-6.01216,94.5948
2023-02-15 07:30:26:228,-0.981867,2.65372,-9.34199,-15.7836,-6.01671,94.5943
2023-02-15 07:30:26:238,-0.998391,2.64803,-9.34073,-15.7858,-6.02225,94.5928
2023-02-15 07:30:26:248,-1.00817,2.63629,-9.33473,-15.787,-6.02457,94.5914
2023-02-15 07:30:26:258,-1.01846,2.64539,-9.33816,-15.7929,-6.02737,94.5932
2023-02-15 07:30:26:268,-1.01204,2.6524,-9.345,-15.7996,-6.03342,94.6007
2023-02-15 07:30:26:278,-1.01282,2.65655,-9.33779,-15.8059,-6.03401,94.6072
2023-02-15 07:30:26:289,-1.03857,2.6558,-9.32891,-15.8123,-6.03444,94.6149
2023-02-15 07:30:26:298,-1.04538,2.68357,-9.34595,-15.821,-6.03374,94.6216
2023-02-15 07:30:26:309,-1.04611,2.70259,-9.3634,-15.827,-6.03563,94.6268
2023-02-15 07:30:26:318,-1.04384,2.69834,-9.35293,-15.8329,-6.02942,94.6324
2023-02-15 07:30:26:328,-1.0506,2.691,-9.35948,-15.8366,-6.02417,94.6357
2023-02-15 07:30:26:338,-1.04841,2.68641,-9.36132,-15.8414,-6.02176,94.6379
2023-02-15 07:30:26:348,-1.04312,2.69146,-9.37146,-15.8428,-6.01992,94.6334
2023-02-15 07:30:26:358,-1.02833,2.6868,-9.34327,-15.8442,-6.01783,94.6338
2023-02-15 07:30:26:368,-1.00678,2.68052,-9.33819,-15.8441,-6.01526,94.629
2023-02-15 07:30:26:378,-0.992464,2.68431,-9.34599,-15.8469,-6.01607,94.6285
2023-02-15 07:30:26:388,-0.983015,2.6925,-9.36666,-15.8482,-6.01142,94.6271
2023-02-15 07:30:26:398,-0.961671,2.68712,-9.38845,-15.8469,-6.00694,94.6244
2023-02-15 07:30:26:408,-0.96509,2.68166,-9.39925,-15.8458,-6.00629,94.625
2023-02-15 07:30:26:418,-0.997826,2.68198,-9.38763,-15.8444,-6.00576,94.6273
2023-02-15 07:30:26:428,-1.00427,2.68189,-9.37872,-15.8406,-6.00802,94.6274
2023-02-15 07:30:26:438,-1.02528,2.66598,-9.35156,-15.8384,-6.00875,94.6282
2023-02-15 07:30:26:448,-1.02508,2.66313,-9.33613,-15.8353,-6.0112,94.6338
2023-02-15 07:30:26:458,-0.99927,2.6666,-9.32384,-15.833,-6.00831,94.6384
2023-02-15 07:30:26:468,-0.972685,2.6815,-9.31689,-15.8347,-6.00439,94.64
2023-02-15 07:30:26:478,-0.968321,2.68652,-9.34211,-15.8337,-6.00174,94.6401
2023-02-15 07:30:26:489,-0.983898,2.68984,-9.34668,-15.8313,-5.99745,94.6443
2023-02-15 07:30:26:498,-0.994071,2.67947,-9.34952,-15.825,-5.99382,94.6472
2023-02-15 07:30:26:509,-1.0093,2.66871,-9.33064,-15.8223,-5.99053,94.6523
2023-02-15 07:30:26:518,-1.01399,2.65409,-9.32362,-15.8156,-5.98824,94.6574
2023-02-15 07:30:26:529,-1.01881,2.6382,-9.3252,-15.8129,-5.98423,94.6627
2023-02-15 07:30:26:538,-1.02382,2.63665,-9.3188,-15.8118,-5.97914,94.6661
2023-02-15 07:30:26:549,-1.02367,2.63009,-9.34766,-15.8113,-5.97617,94.6681
2023-02-15 07:30:26:558,-1.01258,2.64016,-9.37331,-15.8091,-5.9699,94.6714
2023-02-15 07:30:26:568,-0.997297,2.64942,-9.38821,-15.8084,-5.96166,94.668
2023-02-15 07:30:26:578,-0.966003,2.63476,-9.39909,-15.808,-5.95579,94.6674
2023-02-15 07:30:26:588,-0.95006,2.63141,-9.37806,-15.8065,-5.95089,94.6672
2023-02-15 07:30:26:598,-0.930315,2.62655,-9.36566,-15.8043,-5.94283,94.6642
2023-02-15 07:30:26:608,-0.929488,2.62416,-9.34228,-15.8069,-5.9388,94.6605
2023-02-15 07:30:26:618,-0.914835,2.62726,-9.30415,-15.8111,-5.93784,94.6595
2023-02-15 07:30:26:628,-0.925759,2.62769,-9.28066,-15.8172,-5.93811,94.6584
2023-02-15 07:30:26:638,-0.94966,2.63975,-9.32673,-15.8236,-5.93818,94.6622
2023-02-15 07:30:26:648,-0.964836,2.65186,-9.3565,-15.8307,-5.94031,94.6678
2023-02-15 07:30:26:658,-0.949359,2.65842,-9.35719,-15.8398,-5.93838,94.6718
2023-02-15 07:30:26:669,-0.928493,2.6725,-9.36348,-15.8451,-5.93546,94.6775
2023-02-15 07:30:26:678,-0.958633,2.67549,-9.39021,-15.8486,-5.94104,94.6828
2023-02-15 07:30:26:688,-0.984317,2.67666,-9.39319,-15.8524,-5.94477,94.6909
2023-02-15 07:30:26:698,-1.01367,2.68617,-9.384,-15.8533,-5.95192,94.6981
2023-02-15 07:30:26:709,-1.02961,2.69162,-9.39295,-15.8542,-5.95725,94.7089
2023-02-15 07:30:26:718,-1.03528,2.70158,-9.40066,-15.8519,-5.95918,94.7207
2023-02-15 07:30:26:729,-1.03704,2.69231,-9.39669,-15.8545,-5.9619,94.7314
2023-02-15 07:30:26:738,-1.03221,2.68847,-9.377,-15.8528,-5.96014,94.7392
2023-02-15 07:30:26:748,-1.04016,2.68639,-9.36392,-15.8492,-5.96086,94.7465
2023-02-15 07:30:26:758,-1.05732,2.67967,-9.33043,-15.8435,-5.95769,94.7512
2023-02-15 07:30:26:768,-1.05851,2.66614,-9.32849,-15.8362,-5.95743,94.7539
2023-02-15 07:30:26:778,-1.0492,2.6604,-9.32467,-15.8266,-5.95598,94.7554
2023-02-15 07:30:26:788,-1.04464,2.66102,-9.30646,-15.82,-5.9549,94.7534
2023-02-15 07:30:26:798,-1.04716,2.64857,-9.32048,-15.8148,-5.95278,94.7512
2023-02-15 07:30:26:808,-1.03647,2.63621,-9.34359,-15.8102,-5.94919,94.7503
2023-02-15 07:30:26:818,-1.0146,2.63524,-9.36661,-15.8039,-5.94604,94.7427
2023-02-15 07:30:26:828,-0.987285,2.63876,-9.38923,-15.8004,-5.94018,94.7325
2023-02-15 07:30:26:838,-0.970501,2.63172,-9.38775,-15.7975,-5.93943,94.7231
2023-02-15 07:30:26:848,-0.958785,2.62155,-9.3668,-15.7863,-5.93623,94.7147
2023-02-15 07:30:26:858,-0.945951,2.59829,-9.35879,-15.7784,-5.93354,94.7065
2023-02-15 07:30:26:868,-0.944212,2.59673,-9.35303,-15.7715,-5.92877,94.7005
2023-02-15 07:30:26:878,-0.948479,2.59205,-9.336,-15.7687,-5.92311,94.6958
2023-02-15 07:30:26:888,-0.958442,2.59077,-9.31414,-15.7656,-5.92009,94.6939
2023-02-15 07:30:26:898,-0.997108,2.60499,-9.29863,-15.7656,-5.91508,94.6956
2023-02-15 07:30:26:908,-1.00054,2.61203,-9.28873,-15.7682,-5.91138,94.702
2023-02-15 07:30:26:918,-1.00809,2.61412,-9.31894,-15.7718,-5.90527,94.7126
2023-02-15 07:30:26:928,-1.01839,2.62362,-9.33454,-15.7787,-5.89866,94.7214
2023-02-15 07:30:26:938,-1.02884,2.62031,-9.35673,-15.7869,-5.88985,94.7289
2023-02-15 07:30:26:948,-1.01494,2.63005,-9.37373,-15.7926,-5.88238,94.7365
2023-02-15 07:30:26:958,-1.00347,2.65689,-9.37666,-15.7958,-5.87197,94.7415
2023-02-15 07:30:26:968,-0.99657,2.65978,-9.37666,-15.8016,-5.86308,94.7443
2023-02-15 07:30:26:978,-0.985121,2.66474,-9.37916,-15.8064,-5.85619,94.7452
2023-02-15 07:30:26:989,-0.982515,2.65775,-9.38062,-15.81,-5.84819,94.7435
2023-02-15 07:30:26:998,-0.977595,2.64938,-9.36464,-15.8134,-5.84172,94.7445
2023-02-15 07:30:27:8,-0.985825,2.64838,-9.36827,-15.8152,-5.83709,94.7434
2023-02-15 07:30:27:18,-0.987126,2.65982,-9.36118,-15.8183,-5.83136,94.741
2023-02-15 07:30:27:29,-0.97469,2.6673,-9.3697,-15.8207,-5.82238,94.7337
2023-02-15 07:30:27:38,-0.980628,2.6649,-9.35883,-15.8253,-5.81281,94.7319
2023-02-15 07:30:27:48,-0.971416,2.65277,-9.35197,-15.8264,-5.80263,94.7283
2023-02-15 07:30:27:58,-0.973228,2.66927,-9.34343,-15.8257,-5.79412,94.7253
2023-02-15 07:30:27:68,-0.975366,2.66316,-9.35612,-15.8305,-5.78729,94.7226
2023-02-15 07:30:27:78,-0.961311,2.65015,-9.37974,-15.8316,-5.7754,94.7212
2023-02-15 07:30:27:88,-0.956231,2.65952,-9.37059,-15.8293,-5.76255,94.7189
2023-02-15 07:30:27:98,-0.933687,2.6507,-9.35252,-15.8293,-5.75146,94.7128
2023-02-15 07:30:27:108,-0.932025,2.65947,-9.34844,-15.8293,-5.74582,94.7085
2023-02-15 07:30:27:118,-0.927791,2.64952,-9.35014,-15.8274,-5.73596,94.7063
2023-02-15 07:30:27:129,-0.923804,2.64416,-9.34837,-15.8282,-5.72957,94.7044
2023-02-15 07:30:27:138,-0.932344,2.65616,-9.3511,-15.8295,-5.72121,94.6989
2023-02-15 07:30:27:149,-0.942251,2.66033,-9.36051,-15.8329,-5.71387,94.6955
2023-02-15 07:30:27:158,-0.940757,2.65457,-9.35961,-15.8359,-5.70893,94.6939
2023-02-15 07:30:27:168,-0.950952,2.65902,-9.36439,-15.8385,-5.70343,94.6904
2023-02-15 07:30:27:178,-0.954713,2.66508,-9.36707,-15.839,-5.69779,94.6901
2023-02-15 07:30:27:189,-0.966374,2.65137,-9.35705,-15.8409,-5.69077,94.6899
2023-02-15 07:30:27:198,-0.961385,2.66251,-9.34726,-15.8405,-5.68333,94.6877
2023-02-15 07:30:27:208,-0.954928,2.66036,-9.33473,-15.8397,-5.67614,94.6844
2023-02-15 07:30:27:218,-0.950055,2.64912,-9.3482,-15.8401,-5.66874,94.6785
2023-02-15 07:30:27:228,-0.951098,2.65008,-9.35851,-15.8462,-5.66079,94.6752
2023-02-15 07:30:27:238,-0.932497,2.64518,-9.37101,-15.8472,-5.65075,94.6683
2023-02-15 07:30:27:249,-0.928563,2.65817,-9.37096,-15.8487,-5.64166,94.6624
2023-02-15 07:30:27:258,-0.921541,2.65223,-9.35152,-15.8445,-5.63242,94.6564
2023-02-15 07:30:27:268,-0.901307,2.65834,-9.35055,-15.8445,-5.62384,94.6499
2023-02-15 07:30:27:278,-0.908293,2.66761,-9.38533,-15.8438,-5.61966,94.6442
2023-02-15 07:30:27:288,-0.907854,2.67368,-9.41929,-15.842,-5.61589,94.6416
2023-02-15 07:30:27:298,-0.882578,2.66339,-9.39239,-15.8426,-5.60801,94.6348
2023-02-15 07:30:27:308,-0.88701,2.64275,-9.38836,-15.8417,-5.6041,94.6333
2023-02-15 07:30:27:318,-0.931436,2.65035,-9.38638,-15.8414,-5.60447,94.6279
2023-02-15 07:30:27:329,-0.963267,2.6665,-9.35886,-15.8414,-5.6056,94.6246
2023-02-15 07:30:27:338,-0.971321,2.65988,-9.32271,-15.8452,-5.60638,94.6194
2023-02-15 07:30:27:348,-0.96871,2.65602,-9.32078,-15.847,-5.60498,94.6135
2023-02-15 07:30:27:358,-0.951871,2.66784,-9.29582,-15.8488,-5.60156,94.6081
2023-02-15 07:30:27:368,-0.937777,2.66561,-9.29474,-15.8518,-5.59808,94.5999
2023-02-15 07:30:27:378,-0.918603,2.69324,-9.31058,-15.8593,-5.59569,94.5879
2023-02-15 07:30:27:388,-0.907892,2.68915,-9.30069,-15.8666,-5.59417,94.5747
2023-02-15 07:30:27:398,-0.906662,2.67101,-9.32455,-15.8728,-5.59165,94.5649
