Timestamp,Acceleration_x,Acceleration_y,Acceleration_z,roll,pitch,yaw
2023-02-16 17:11:50:775,-1.18321,3.44465,-9.22566,-19.9073,-7.19313,5.00333
2023-02-16 17:11:50:783,-1.14749,3.45824,-9.2119,-19.9548,-7.16551,4.99226
2023-02-16 17:11:50:793,-1.18012,3.48461,-9.23165,-19.9959,-7.13298,4.97532
2023-02-16 17:11:50:804,-1.17567,3.48425,-9.22764,-20.0314,-7.10669,4.95884
2023-02-16 17:11:50:813,-1.1113,3.43857,-9.18694,-20.0605,-7.0886,4.9385
2023-02-16 17:11:50:824,-1.06567,3.39644,-9.17511,-20.0934,-7.07497,4.92235
2023-02-16 17:11:50:834,-1.06421,3.41629,-9.17872,-20.1247,-7.06271,4.91156
2023-02-16 17:11:50:844,-1.07432,3.42519,-9.17809,-20.1513,-7.06131,4.90257
2023-02-16 17:11:50:854,-1.06043,3.40079,-9.17064,-20.1783,-7.05901,4.89918
2023-02-16 17:11:50:864,-1.02445,3.39738,-9.16897,-20.2023,-7.05942,4.9005
2023-02-16 17:11:50:874,-1.00786,3.39934,-9.16501,-20.2285,-7.0628,4.90711
2023-02-16 17:11:50:883,-1.04889,3.38514,-9.14439,-20.251,-7.06593,4.92427
2023-02-16 17:11:50:893,-1.11485,3.39123,-9.11881,-20.2728,-7.06614,4.94304
2023-02-16 17:11:50:904,-1.10414,3.41705,-9.16109,-20.2943,-7.06233,4.97025
2023-02-16 17:11:50:914,-1.04732,3.42315,-9.1838,-20.3115,-7.05672,5.00344
2023-02-16 17:11:50:923,-0.983091,3.38742,-9.15271,-20.324,-7.04535,5.04383
2023-02-16 17:11:50:934,-0.946707,3.36757,-9.08953,-20.3338,-7.02962,5.09651
2023-02-16 17:11:50:944,-0.924599,3.33653,-9.05097,-20.3477,-7.01401,5.16504
2023-02-16 17:11:50:954,-0.966306,3.36269,-9.03509,-20.3682,-6.99518,5.24563
2023-02-16 17:11:50:964,-1.01975,3.37881,-9.08152,-20.3913,-6.96862,5.33697
2023-02-16 17:11:50:974,-1.00632,3.37155,-9.13096,-20.415,-6.93389,5.43675
2023-02-16 17:11:50:984,-0.917517,3.326,-9.16859,-20.4335,-6.89324,5.54981
2023-02-16 17:11:50:994,-0.772261,3.27701,-9.18796,-20.456,-6.84762,5.67729
2023-02-16 17:11:51:4,-0.590716,3.25909,-9.21289,-20.4843,-6.7979,5.82906
2023-02-16 17:11:51:14,-0.351171,3.2822,-9.26615,-20.5154,-6.73942,6.01213
2023-02-16 17:11:51:24,-0.193833,3.32617,-9.28116,-20.5494,-6.67809,6.23516
2023-02-16 17:11:51:34,-0.257996,3.35694,-9.19657,-20.5834,-6.61129,6.50229
2023-02-16 17:11:51:44,-0.480783,3.3668,-9.10112,-20.6208,-6.53901,6.8071
2023-02-16 17:11:51:54,-0.626842,3.37062,-9.06504,-20.6636,-6.45031,7.1334
2023-02-16 17:11:51:64,-0.608008,3.35403,-9.04414,-20.7061,-6.33844,7.48275
2023-02-16 17:11:51:74,-0.543196,3.31765,-9.01038,-20.7488,-6.20888,7.85808
2023-02-16 17:11:51:84,-0.574064,3.32478,-8.93622,-20.7986,-6.06388,8.25946
2023-02-16 17:11:51:94,-0.740383,3.37984,-8.85604,-20.8566,-5.91226,8.68147
2023-02-16 17:11:51:104,-0.991608,3.45432,-8.8421,-20.9218,-5.74875,9.11082
2023-02-16 17:11:51:114,-1.16238,3.53653,-8.93033,-20.9892,-5.57322,9.5324
2023-02-16 17:11:51:124,-1.14943,3.56871,-8.98996,-21.0517,-5.38689,9.94501
2023-02-16 17:11:51:134,-1.06657,3.5548,-9.0099,-21.1106,-5.19046,10.3519
2023-02-16 17:11:51:144,-1.01125,3.53843,-9.01486,-21.166,-4.9998,10.7562
2023-02-16 17:11:51:153,-0.997814,3.53861,-9.00364,-21.2234,-4.81139,11.1506
2023-02-16 17:11:51:163,-1.02063,3.56814,-9.01872,-21.2878,-4.63258,11.5404
2023-02-16 17:11:51:173,-1.05563,3.63085,-9.07743,-21.3511,-4.46389,11.9203
2023-02-16 17:11:51:183,-1.10178,3.6948,-9.10812,-21.4097,-4.30257,12.2841
2023-02-16 17:11:51:193,-1.14644,3.71107,-9.08679,-21.4623,-4.14855,12.631
2023-02-16 17:11:51:203,-1.13106,3.70362,-9.04552,-21.5153,-4.00206,12.9585
2023-02-16 17:11:51:213,-1.02451,3.67767,-9.02711,-21.5635,-3.86229,13.268
2023-02-16 17:11:51:223,-0.79571,3.64596,-9.02447,-21.6126,-3.72722,13.5653
2023-02-16 17:11:51:233,-0.561406,3.64115,-9.05911,-21.6615,-3.59914,13.8586
2023-02-16 17:11:51:244,-0.420475,3.66881,-9.09805,-21.7144,-3.48464,14.1575
2023-02-16 17:11:51:253,-0.411074,3.70237,-9.08168,-21.7661,-3.37855,14.4658
2023-02-16 17:11:51:263,-0.49408,3.70638,-9.03555,-21.8197,-3.27242,14.7786
2023-02-16 17:11:51:273,-0.546223,3.71353,-9.0003,-21.8726,-3.16218,15.0922
2023-02-16 17:11:51:283,-0.487555,3.69607,-9.02088,-21.9268,-3.04558,15.4015
2023-02-16 17:11:51:293,-0.340442,3.68089,-9.04359,-21.9821,-2.92275,15.7162
2023-02-16 17:11:51:304,-0.0437109,3.65556,-9.06117,-22.0376,-2.7912,16.0449
2023-02-16 17:11:51:313,0.3272,3.61968,-9.12848,-22.0949,-2.65559,16.4004
2023-02-16 17:11:51:324,0.472024,3.66309,-9.19369,-22.1533,-2.50858,16.8025
2023-02-16 17:11:51:333,0.293876,3.7521,-9.15089,-22.204,-2.35036,17.2451
2023-02-16 17:11:51:343,0.0446286,3.78196,-9.03765,-22.252,-2.18041,17.7115
2023-02-16 17:11:51:354,-0.0587087,3.77187,-8.98888,-22.3014,-1.98262,18.1928
2023-02-16 17:11:51:363,-0.0144003,3.77123,-9.0016,-22.3488,-1.76747,18.6878
2023-02-16 17:11:51:374,0.086405,3.76629,-9.02413,-22.3943,-1.53842,19.2011
2023-02-16 17:11:51:384,0.297016,3.75578,-9.04859,-22.4382,-1.29933,19.7311
2023-02-16 17:11:51:393,0.420295,3.7629,-9.07766,-22.477,-1.0572,20.2933
2023-02-16 17:11:51:403,0.226242,3.86567,-9.10814,-22.5156,-0.81434,20.8816
2023-02-16 17:11:51:413,-0.112988,3.99329,-9.10629,-22.5472,-0.5727,21.4766
2023-02-16 17:11:51:423,-0.401903,4.06535,-9.10204,-22.5704,-0.333556,22.0628
2023-02-16 17:11:51:433,-0.623124,4.08297,-9.07044,-22.5864,-0.0911117,22.6288
2023-02-16 17:11:51:443,-0.75728,4.07154,-9.04765,-22.5941,0.148922,23.1619
2023-02-16 17:11:51:454,-0.766246,4.0232,-9.01712,-22.5981,0.386267,23.6625
2023-02-16 17:11:51:464,-0.685372,3.97406,-9.02088,-22.6029,0.605982,24.1295
2023-02-16 17:11:51:473,-0.571801,3.9628,-9.07339,-22.6049,0.805675,24.5648
2023-02-16 17:11:51:483,-0.510628,3.98901,-9.1097,-22.6067,0.981304,24.9683
2023-02-16 17:11:51:493,-0.548549,4.03316,-9.14069,-22.6019,1.12282,25.3425
2023-02-16 17:11:51:503,-0.634667,4.05542,-9.1089,-22.5914,1.24263,25.683
2023-02-16 17:11:51:513,-0.686599,4.04649,-9.05718,-22.5747,1.34126,25.9823
2023-02-16 17:11:51:523,-0.661792,4.00572,-9.04433,-22.5611,1.42214,26.2346
2023-02-16 17:11:51:533,-0.597639,3.9745,-9.04192,-22.5488,1.47909,26.4496
2023-02-16 17:11:51:544,-0.546297,3.92317,-9.02605,-22.537,1.51448,26.63
2023-02-16 17:11:51:553,-0.473189,3.8924,-8.99753,-22.5285,1.53298,26.7722
2023-02-16 17:11:51:564,-0.405128,3.88405,-9.01345,-22.5264,1.5311,26.8815
2023-02-16 17:11:51:574,-0.384642,3.91638,-9.03282,-22.5271,1.50834,26.9565
2023-02-16 17:11:51:584,-0.407329,3.95139,-8.99282,-22.5318,1.46994,26.9987
2023-02-16 17:11:51:594,-0.417139,3.95873,-8.97604,-22.5407,1.4136,27.0136
2023-02-16 17:11:51:604,-0.427649,3.96471,-9.02125,-22.5518,1.34548,26.9956
2023-02-16 17:11:51:614,-0.425483,3.98711,-9.05904,-22.5662,1.26669,26.9465
2023-02-16 17:11:51:624,-0.364396,3.97055,-9.09976,-22.5798,1.17612,26.8729
2023-02-16 17:11:51:634,-0.326621,3.9348,-9.08927,-22.5887,1.07454,26.7722
2023-02-16 17:11:51:644,-0.293357,3.9477,-9.08311,-22.5955,0.959486,26.6488
2023-02-16 17:11:51:654,-0.267339,3.96145,-9.11072,-22.601,0.832789,26.5038
2023-02-16 17:11:51:664,-0.40942,3.99136,-9.09105,-22.6017,0.696935,26.3403
2023-02-16 17:11:51:674,-0.666557,4.03199,-9.05732,-22.6007,0.539384,26.1449
2023-02-16 17:11:51:684,-0.902076,4.0627,-9.01201,-22.6043,0.368939,25.9084
2023-02-16 17:11:51:694,-1.12593,4.10841,-9.0086,-22.6019,0.18064,25.6216
2023-02-16 17:11:51:704,-1.17417,4.09775,-8.99384,-22.6009,-0.022903,25.2727
2023-02-16 17:11:51:714,-1.01365,4.03305,-8.96322,-22.6028,-0.247524,24.8715
2023-02-16 17:11:51:724,-0.89876,4.0008,-8.94161,-22.6056,-0.499448,24.4309
2023-02-16 17:11:51:734,-0.875161,3.96712,-8.94346,-22.6131,-0.772234,23.9528
2023-02-16 17:11:51:744,-1.02988,4.00345,-8.96378,-22.6202,-1.07464,23.4425
2023-02-16 17:11:51:754,-1.33684,4.08739,-8.98682,-22.6251,-1.39291,22.8836
2023-02-16 17:11:51:764,-1.56046,4.15702,-9.05142,-22.6281,-1.73148,22.2663
2023-02-16 17:11:51:774,-1.53078,4.19274,-9.11959,-22.6173,-2.0847,21.5873
2023-02-16 17:11:51:784,-1.22545,4.13996,-9.15124,-22.5932,-2.44756,20.856
2023-02-16 17:11:51:794,-0.913392,4.04596,-9.1222,-22.557,-2.82274,20.101
2023-02-16 17:11:51:804,-0.705886,3.99508,-9.11032,-22.5148,-3.20529,19.3334
2023-02-16 17:11:51:814,-0.753295,4.00698,-9.07189,-22.469,-3.59631,18.566
2023-02-16 17:11:51:824,-0.949289,4.03306,-9.02591,-22.4182,-3.98809,17.7857
2023-02-16 17:11:51:834,-0.82707,4.00547,-9.04531,-22.3574,-4.36939,16.9952
2023-02-16 17:11:51:844,-0.529371,3.91438,-9.07498,-22.2896,-4.74244,16.2148
2023-02-16 17:11:51:854,-0.285396,3.81385,-9.03555,-22.2135,-5.09882,15.4602
2023-02-16 17:11:51:864,-0.173046,3.70968,-9.00438,-22.1393,-5.44082,14.7459
2023-02-16 17:11:51:874,-0.216649,3.63772,-8.95658,-22.0671,-5.76122,14.068
2023-02-16 17:11:51:884,-0.235133,3.59458,-8.91502,-21.9987,-6.05831,13.4255
2023-02-16 17:11:51:894,-0.205094,3.57923,-8.93319,-21.9371,-6.31785,12.8197
2023-02-16 17:11:51:904,-0.201717,3.59606,-8.98534,-21.8806,-6.54526,12.2535
2023-02-16 17:11:51:914,-0.20469,3.60525,-9.02049,-21.8262,-6.74045,11.7289
2023-02-16 17:11:51:923,-0.248487,3.61169,-9.05456,-21.772,-6.90372,11.2367
2023-02-16 17:11:51:933,-0.266893,3.62064,-9.08915,-21.7186,-7.0339,10.7848
2023-02-16 17:11:51:943,-0.222775,3.60381,-9.15258,-21.6561,-7.13871,10.3691
2023-02-16 17:11:51:953,-0.207468,3.56545,-9.15937,-21.5888,-7.22831,9.99571
2023-02-16 17:11:51:963,-0.263226,3.53518,-9.10004,-21.5272,-7.30758,9.66741
2023-02-16 17:11:51:973,-0.359235,3.50871,-9.07545,-21.4651,-7.37319,9.37661
2023-02-16 17:11:51:983,-0.44087,3.50118,-9.04891,-21.4076,-7.4269,9.12312
2023-02-16 17:11:51:993,-0.567748,3.4956,-9.02719,-21.3558,-7.46974,8.90081
2023-02-16 17:11:52:3,-0.744064,3.51664,-9.03349,-21.3022,-7.49756,8.70194
2023-02-16 17:11:52:13,-0.803174,3.53685,-9.09141,-21.2505,-7.51414,8.51889
2023-02-16 17:11:52:23,-0.788675,3.5157,-9.15143,-21.1931,-7.52677,8.35276
2023-02-16 17:11:52:33,-0.781717,3.46236,-9.13614,-21.1309,-7.53452,8.20928
2023-02-16 17:11:52:43,-0.843694,3.41972,-9.05745,-21.0719,-7.55158,8.08217
2023-02-16 17:11:52:53,-0.91825,3.39446,-8.99187,-21.0194,-7.56553,7.96665
2023-02-16 17:11:52:63,-0.992027,3.3745,-8.96721,-20.9712,-7.57968,7.8646
2023-02-16 17:11:52:73,-1.08107,3.38371,-9.00521,-20.9335,-7.59098,7.76791
2023-02-16 17:11:52:83,-1.10776,3.41458,-9.06474,-20.8942,-7.59852,7.67139
2023-02-16 17:11:52:93,-1.07559,3.4176,-9.08464,-20.8545,-7.60439,7.58707
2023-02-16 17:11:52:103,-1.06948,3.38528,-9.04565,-20.8165,-7.60718,7.51285
2023-02-16 17:11:52:113,-1.12369,3.38348,-9.02706,-20.7815,-7.61141,7.44547
2023-02-16 17:11:52:123,-1.24874,3.40828,-9.04625,-20.7507,-7.61788,7.38324
2023-02-16 17:11:52:133,-1.34182,3.42242,-9.05882,-20.7206,-7.6289,7.31679
2023-02-16 17:11:52:143,-1.38304,3.44011,-9.0394,-20.691,-7.6375,7.24465
2023-02-16 17:11:52:153,-1.39037,3.4246,-9.03227,-20.6651,-7.64725,7.16592
2023-02-16 17:11:52:163,-1.36161,3.40514,-9.03174,-20.6378,-7.65491,7.08248
2023-02-16 17:11:52:173,-1.30586,3.37404,-9.02365,-20.611,-7.66176,6.99888
2023-02-16 17:11:52:183,-1.22906,3.36446,-9.02229,-20.5894,-7.66554,6.91696
2023-02-16 17:11:52:193,-1.14204,3.37232,-9.02673,-20.5707,-7.66595,6.84112
2023-02-16 17:11:52:203,-1.07104,3.34603,-9.02977,-20.5525,-7.66557,6.76786
2023-02-16 17:11:52:213,-1.07322,3.33554,-9.01809,-20.5391,-7.66056,6.70487
2023-02-16 17:11:52:223,-1.18999,3.39076,-9.035,-20.5316,-7.6562,6.64497
2023-02-16 17:11:52:233,-1.31015,3.45368,-9.09169,-20.5212,-7.65237,6.58253
2023-02-16 17:11:52:243,-1.34745,3.48538,-9.10534,-20.5068,-7.6488,6.51839
2023-02-16 17:11:52:253,-1.34608,3.45161,-9.06801,-20.4894,-7.64088,6.44821
2023-02-16 17:11:52:263,-1.33138,3.42029,-9.05389,-20.4697,-7.63616,6.36845
2023-02-16 17:11:52:273,-1.27111,3.39083,-9.04171,-20.4556,-7.63458,6.28741
2023-02-16 17:11:52:283,-1.19436,3.37887,-9.03782,-20.442,-7.63527,6.20706
2023-02-16 17:11:52:293,-1.19587,3.38419,-9.0642,-20.4334,-7.63291,6.12965
2023-02-16 17:11:52:303,-1.22949,3.41739,-9.12359,-20.4234,-7.63786,6.05574
2023-02-16 17:11:52:313,-1.21264,3.43704,-9.14472,-20.4121,-7.63763,5.98198
2023-02-16 17:11:52:323,-1.21942,3.42637,-9.13575,-20.3966,-7.63931,5.91198
2023-02-16 17:11:52:333,-1.22709,3.40367,-9.1255,-20.3789,-7.63903,5.84066
2023-02-16 17:11:52:343,-1.18904,3.39007,-9.08224,-20.3568,-7.63703,5.77352
2023-02-16 17:11:52:353,-1.15482,3.37409,-9.05704,-20.3428,-7.63418,5.71021
2023-02-16 17:11:52:363,-1.18502,3.38548,-9.05336,-20.329,-7.63288,5.64816
2023-02-16 17:11:52:373,-1.26013,3.41127,-9.08461,-20.3176,-7.63197,5.58326
2023-02-16 17:11:52:383,-1.30251,3.43351,-9.12973,-20.3044,-7.63203,5.5196
2023-02-16 17:11:52:393,-1.3085,3.42757,-9.15066,-20.2849,-7.63146,5.45228
2023-02-16 17:11:52:403,-1.28572,3.39364,-9.12353,-20.2598,-7.63339,5.38029
2023-02-16 17:11:52:413,-1.22968,3.35179,-9.10613,-20.2358,-7.63754,5.31307
2023-02-16 17:11:52:423,-1.20957,3.32551,-9.08413,-20.2109,-7.64398,5.24702
2023-02-16 17:11:52:433,-1.23354,3.33518,-9.0664,-20.1903,-7.65644,5.17774
2023-02-16 17:11:52:443,-1.22331,3.31834,-9.07715,-20.1707,-7.67467,5.11073
2023-02-16 17:11:52:453,-1.20592,3.30482,-9.06468,-20.1507,-7.68997,5.04278
2023-02-16 17:11:52:463,-1.21233,3.31709,-9.08406,-20.1394,-7.70645,4.97739
2023-02-16 17:11:52:473,-1.25481,3.34804,-9.11365,-20.121,-7.72251,4.90971
2023-02-16 17:11:52:483,-1.28813,3.34557,-9.10882,-20.1018,-7.74299,4.84478
2023-02-16 17:11:52:493,-1.28749,3.30088,-9.09302,-20.0825,-7.7614,4.77975
2023-02-16 17:11:52:503,-1.26015,3.27153,-9.07425,-20.0644,-7.78112,4.71408
2023-02-16 17:11:52:513,-1.25805,3.25366,-9.07426,-20.0452,-7.80073,4.65043
2023-02-16 17:11:52:523,-1.24087,3.24467,-9.10759,-20.0276,-7.82229,4.58809
2023-02-16 17:11:52:533,-1.2273,3.24304,-9.10034,-20.0104,-7.85107,4.52566
2023-02-16 17:11:52:543,-1.264,3.23864,-9.09766,-19.9935,-7.88185,4.46613
2023-02-16 17:11:52:554,-1.32098,3.25567,-9.13156,-19.9791,-7.91446,4.41275
2023-02-16 17:11:52:564,-1.33174,3.26253,-9.14585,-19.9632,-7.95133,4.36186
2023-02-16 17:11:52:573,-1.30555,3.2317,-9.13177,-19.9488,-7.98822,4.30788
2023-02-16 17:11:52:583,-1.26727,3.2097,-9.11866,-19.9369,-8.02138,4.25839
2023-02-16 17:11:52:594,-1.28969,3.23907,-9.10267,-19.9289,-8.05659,4.21111
2023-02-16 17:11:52:604,-1.34877,3.27265,-9.0907,-19.9231,-8.09296,4.16593
2023-02-16 17:11:52:614,-1.38481,3.29328,-9.10577,-19.9206,-8.1276,4.12512
2023-02-16 17:11:52:623,-1.42031,3.30042,-9.08319,-19.9148,-8.15921,4.08613
2023-02-16 17:11:52:634,-1.46379,3.31012,-9.06989,-19.9107,-8.18213,4.0457
2023-02-16 17:11:52:644,-1.4366,3.29821,-9.04609,-19.9032,-8.20486,4.00446
2023-02-16 17:11:52:654,-1.37304,3.26962,-9.04514,-19.8955,-8.2218,3.96477
2023-02-16 17:11:52:664,-1.31806,3.253,-9.02096,-19.8874,-8.22713,3.92829
2023-02-16 17:11:52:674,-1.29799,3.22927,-8.98031,-19.8847,-8.22819,3.90019
2023-02-16 17:11:52:684,-1.30972,3.22701,-8.99211,-19.8871,-8.23005,3.87632
2023-02-16 17:11:52:694,-1.3423,3.2623,-9.03999,-19.8984,-8.22949,3.85827
2023-02-16 17:11:52:704,-1.36042,3.28694,-9.09819,-19.9072,-8.2244,3.84431
2023-02-16 17:11:52:714,-1.40197,3.32145,-9.13105,-19.9139,-8.21876,3.82562
2023-02-16 17:11:52:724,-1.38075,3.3396,-9.17113,-19.9179,-8.21275,3.80642
2023-02-16 17:11:52:734,-1.31013,3.33752,-9.17348,-19.9215,-8.20903,3.78727
2023-02-16 17:11:52:744,-1.27817,3.29491,-9.1288,-19.9235,-8.2114,3.77614
2023-02-16 17:11:52:754,-1.29141,3.26174,-9.06405,-19.9288,-8.21478,3.76768
2023-02-16 17:11:52:764,-1.2955,3.25015,-9.00666,-19.9403,-8.21905,3.76193
2023-02-16 17:11:52:774,-1.24814,3.25564,-9.02577,-19.9566,-8.222,3.76212
2023-02-16 17:11:52:784,-1.23485,3.26937,-9.05556,-19.9728,-8.22536,3.76728
2023-02-16 17:11:52:794,-1.27454,3.28641,-9.06782,-19.9898,-8.22855,3.77649
2023-02-16 17:11:52:804,-1.31242,3.30527,-9.07352,-20.0095,-8.22564,3.78992
2023-02-16 17:11:52:814,-1.34212,3.30539,-9.09821,-20.0277,-8.22264,3.80849
2023-02-16 17:11:52:824,-1.34198,3.30729,-9.12233,-20.0433,-8.21443,3.82462
2023-02-16 17:11:52:834,-1.37361,3.33548,-9.13423,-20.062,-8.20821,3.8422
2023-02-16 17:11:52:844,-1.39918,3.35258,-9.13974,-20.0784,-8.20358,3.86354
2023-02-16 17:11:52:854,-1.4407,3.37176,-9.11529,-20.0949,-8.19637,3.88435
2023-02-16 17:11:52:864,-1.51749,3.38603,-9.10012,-20.1092,-8.19044,3.90342
2023-02-16 17:11:52:874,-1.57705,3.41468,-9.09258,-20.125,-8.18655,3.91129
2023-02-16 17:11:52:884,-1.58668,3.43453,-9.10572,-20.1388,-8.18431,3.91029
2023-02-16 17:11:52:894,-1.55886,3.45759,-9.12131,-20.1517,-8.18057,3.90089
2023-02-16 17:11:52:903,-1.52023,3.44481,-9.12903,-20.1575,-8.18027,3.88562
2023-02-16 17:11:52:913,-1.46087,3.43999,-9.14342,-20.1659,-8.18597,3.8653
2023-02-16 17:11:52:923,-1.3977,3.439,-9.16088,-20.1674,-8.19649,3.84102
2023-02-16 17:11:52:934,-1.35308,3.42191,-9.14584,-20.167,-8.20476,3.8174
2023-02-16 17:11:52:944,-1.34954,3.39321,-9.11449,-20.1618,-8.21614,3.7962
2023-02-16 17:11:52:953,-1.37537,3.37237,-9.11103,-20.154,-8.22734,3.7756
2023-02-16 17:11:52:963,-1.41799,3.37341,-9.12065,-20.1498,-8.23924,3.75742
2023-02-16 17:11:52:973,-1.4437,3.3748,-9.09426,-20.1447,-8.25521,3.73676
2023-02-16 17:11:52:983,-1.45461,3.34387,-9.0608,-20.141,-8.26874,3.72013
2023-02-16 17:11:52:994,-1.46619,3.34024,-9.05303,-20.1352,-8.28342,3.70037
2023-02-16 17:11:53:4,-1.46287,3.35315,-9.06197,-20.1309,-8.29798,3.67916
2023-02-16 17:11:53:14,-1.45283,3.36162,-9.05652,-20.1272,-8.30661,3.65514
2023-02-16 17:11:53:24,-1.44798,3.34777,-9.04392,-20.1234,-8.31614,3.63352
2023-02-16 17:11:53:34,-1.45081,3.32929,-9.03885,-20.119,-8.32102,3.60868
2023-02-16 17:11:53:44,-1.45023,3.33696,-9.05261,-20.1181,-8.32335,3.58888
2023-02-16 17:11:53:54,-1.42834,3.35272,-9.05859,-20.1156,-8.3259,3.56569
2023-02-16 17:11:53:64,-1.42452,3.32969,-9.05057,-20.1114,-8.32462,3.54388
2023-02-16 17:11:53:74,-1.42372,3.30774,-9.05899,-20.1101,-8.32212,3.52275
2023-02-16 17:11:53:84,-1.40165,3.31955,-9.07738,-20.1125,-8.31582,3.50251
2023-02-16 17:11:53:94,-1.39972,3.32624,-9.08376,-20.1121,-8.31127,3.48335
2023-02-16 17:11:53:104,-1.39425,3.31037,-9.06223,-20.1129,-8.30795,3.46797
2023-02-16 17:11:53:114,-1.36843,3.28582,-9.05093,-20.1128,-8.30232,3.45278
2023-02-16 17:11:53:124,-1.39765,3.30409,-9.07217,-20.1129,-8.30086,3.43789
2023-02-16 17:11:53:134,-1.40575,3.31346,-9.07238,-20.117,-8.30244,3.41774
2023-02-16 17:11:53:144,-1.41834,3.29399,-9.07076,-20.1198,-8.30686,3.40113
2023-02-16 17:11:53:154,-1.42568,3.29444,-9.07434,-20.1253,-8.30929,3.38206
2023-02-16 17:11:53:164,-1.41163,3.31804,-9.091,-20.1317,-8.31284,3.36187
2023-02-16 17:11:53:174,-1.39378,3.32764,-9.10487,-20.1372,-8.31656,3.34134
2023-02-16 17:11:53:184,-1.40626,3.31795,-9.09244,-20.1415,-8.31951,3.32334
2023-02-16 17:11:53:194,-1.41371,3.32524,-9.08242,-20.1505,-8.32186,3.30374
2023-02-16 17:11:53:203,-1.39704,3.3268,-9.09007,-20.1537,-8.32027,3.28269
2023-02-16 17:11:53:213,-1.36825,3.34036,-9.10107,-20.1588,-8.31682,3.26044
2023-02-16 17:11:53:224,-1.3683,3.3591,-9.09207,-20.1602,-8.3174,3.24125
2023-02-16 17:11:53:234,-1.37109,3.35567,-9.06962,-20.1608,-8.31837,3.22112
2023-02-16 17:11:53:244,-1.39733,3.35146,-9.02071,-20.1618,-8.32239,3.20277
2023-02-16 17:11:53:254,-1.40654,3.35529,-8.99109,-20.1654,-8.32398,3.18369
2023-02-16 17:11:53:264,-1.39161,3.36374,-9.03089,-20.1697,-8.32621,3.16625
2023-02-16 17:11:53:274,-1.38004,3.38426,-9.10384,-20.1768,-8.32782,3.14571
2023-02-16 17:11:53:284,-1.35268,3.39692,-9.16758,-20.1837,-8.32794,3.12591
2023-02-16 17:11:53:294,-1.3251,3.39424,-9.20445,-20.1836,-8.32869,3.11039
2023-02-16 17:11:53:304,-1.3472,3.37821,-9.19237,-20.1789,-8.33691,3.09763
2023-02-16 17:11:53:314,-1.38969,3.35043,-9.15396,-20.1745,-8.35239,3.08322
2023-02-16 17:11:53:324,-1.44493,3.36069,-9.13177,-20.1702,-8.36808,3.07086
2023-02-16 17:11:53:334,-1.47942,3.38521,-9.13023,-20.1728,-8.38507,3.05683
2023-02-16 17:11:53:344,-1.50636,3.391,-9.12625,-20.1708,-8.40688,3.03832
2023-02-16 17:11:53:354,-1.50844,3.4062,-9.09969,-20.1705,-8.42421,3.02109
2023-02-16 17:11:53:364,-1.47658,3.4109,-9.09542,-20.1706,-8.43521,3.00016
2023-02-16 17:11:53:374,-1.43039,3.40142,-9.08895,-20.166,-8.44568,2.98185
2023-02-16 17:11:53:384,-1.40753,3.38648,-9.05397,-20.1619,-8.45288,2.96469
2023-02-16 17:11:53:394,-1.42734,3.35967,-9.01541,-20.1568,-8.45433,2.94765
2023-02-16 17:11:53:404,-1.47148,3.37304,-9.03539,-20.1568,-8.4577,2.93489
2023-02-16 17:11:53:414,-1.48776,3.39687,-9.08428,-20.1519,-8.46035,2.91423
2023-02-16 17:11:53:424,-1.47057,3.39564,-9.10003,-20.1458,-8.46093,2.89369
2023-02-16 17:11:53:434,-1.4615,3.37563,-9.07487,-20.1329,-8.45854,2.87335
2023-02-16 17:11:53:444,-1.45585,3.34194,-9.04724,-20.1235,-8.4568,2.85265
2023-02-16 17:11:53:454,-1.44294,3.31494,-9.05406,-20.1134,-8.45198,2.82581
2023-02-16 17:11:53:463,-1.41128,3.31091,-9.06054,-20.1057,-8.44855,2.80244
2023-02-16 17:11:53:474,-1.39455,3.30106,-9.07981,-20.0984,-8.44845,2.7795
2023-02-16 17:11:53:484,-1.38975,3.31483,-9.08285,-20.0914,-8.4478,2.75782
2023-02-16 17:11:53:494,-1.38796,3.32332,-9.08365,-20.0876,-8.45029,2.73634
2023-02-16 17:11:53:504,-1.42155,3.32947,-9.07416,-20.0844,-8.44904,2.71794
2023-02-16 17:11:53:514,-1.46017,3.32091,-9.04928,-20.0805,-8.44979,2.69606
2023-02-16 17:11:53:524,-1.45628,3.31085,-9.04513,-20.0781,-8.44381,2.67185
2023-02-16 17:11:53:534,-1.39182,3.30332,-9.07774,-20.0777,-8.4443,2.64644
2023-02-16 17:11:53:544,-1.32177,3.28381,-9.08462,-20.0738,-8.44371,2.62381
2023-02-16 17:11:53:554,-1.3399,3.27121,-9.05581,-20.0767,-8.44727,2.60698
2023-02-16 17:11:53:564,-1.41478,3.28006,-9.02658,-20.0808,-8.45327,2.59061
2023-02-16 17:11:53:574,-1.45612,3.30084,-9.04224,-20.0878,-8.45972,2.56986
2023-02-16 17:11:53:584,-1.47629,3.33835,-9.08402,-20.0949,-8.46445,2.54615
2023-02-16 17:11:53:594,-1.46633,3.34655,-9.12231,-20.1026,-8.46201,2.52645
2023-02-16 17:11:53:604,-1.47465,3.35934,-9.13811,-20.1078,-8.462,2.50079
2023-02-16 17:11:53:614,-1.43849,3.33737,-9.12945,-20.1058,-8.45886,2.47827
2023-02-16 17:11:53:624,-1.39475,3.31464,-9.10691,-20.1054,-8.45625,2.45425
2023-02-16 17:11:53:634,-1.36858,3.313,-9.10295,-20.1075,-8.45225,2.43313
2023-02-16 17:11:53:644,-1.3637,3.32636,-9.10672,-20.108,-8.44924,2.41589
2023-02-16 17:11:53:654,-1.37318,3.33338,-9.1207,-20.1088,-8.45248,2.40214
2023-02-16 17:11:53:664,-1.40083,3.3655,-9.11359,-20.1079,-8.45635,2.38646
2023-02-16 17:11:53:674,-1.42078,3.3637,-9.10517,-20.1063,-8.45958,2.37274
2023-02-16 17:11:53:684,-1.42283,3.35326,-9.10819,-20.1012,-8.45899,2.35449
2023-02-16 17:11:53:694,-1.40867,3.35134,-9.09793,-20.0955,-8.46007,2.34091
2023-02-16 17:11:53:704,-1.38886,3.32766,-9.0818,-20.0904,-8.45899,2.32394
2023-02-16 17:11:53:714,-1.38327,3.31093,-9.06829,-20.0876,-8.46106,2.31364
2023-02-16 17:11:53:724,-1.38244,3.3179,-9.05868,-20.0871,-8.46458,2.30461
2023-02-16 17:11:53:734,-1.42318,3.33051,-9.05361,-20.0905,-8.47108,2.29947
2023-02-16 17:11:53:744,-1.48783,3.35412,-9.07635,-20.0954,-8.47604,2.29446
2023-02-16 17:11:53:754,-1.49258,3.36926,-9.11923,-20.0961,-8.48158,2.28527
2023-02-16 17:11:53:764,-1.49859,3.37799,-9.13033,-20.0955,-8.48598,2.2757
2023-02-16 17:11:53:774,-1.50198,3.36218,-9.10075,-20.0863,-8.49382,2.26149
2023-02-16 17:11:53:784,-1.46085,3.34675,-9.07692,-20.0803,-8.49571,2.24962
2023-02-16 17:11:53:794,-1.42032,3.32768,-9.07221,-20.0733,-8.49871,2.23363
2023-02-16 17:11:53:804,-1.41946,3.33,-9.06223,-20.0721,-8.50398,2.22238
2023-02-16 17:11:53:814,-1.46112,3.34893,-9.06863,-20.072,-8.50807,2.21122
2023-02-16 17:11:53:824,-1.49156,3.37066,-9.08814,-20.0684,-8.51025,2.19915
2023-02-16 17:11:53:834,-1.52637,3.37832,-9.1012,-20.0656,-8.51242,2.18505
2023-02-16 17:11:53:844,-1.54441,3.38223,-9.10217,-20.0593,-8.50935,2.16734
2023-02-16 17:11:53:854,-1.51154,3.3781,-9.13073,-20.0506,-8.50672,2.14305
2023-02-16 17:11:53:864,-1.44854,3.35662,-9.1019,-20.0364,-8.50264,2.11723
2023-02-16 17:11:53:874,-1.39955,3.32621,-9.06664,-20.0203,-8.50323,2.09185
2023-02-16 17:11:53:884,-1.40542,3.30509,-9.05023,-20.0109,-8.50514,2.06637
2023-02-16 17:11:53:894,-1.42771,3.33096,-9.07326,-20.0047,-8.50899,2.04315
2023-02-16 17:11:53:904,-1.46475,3.35079,-9.12865,-19.9983,-8.51174,2.02017
2023-02-16 17:11:53:914,-1.48936,3.35805,-9.12178,-19.9906,-8.51702,1.99875
2023-02-16 17:11:53:924,-1.47688,3.34284,-9.09984,-19.9826,-8.51862,1.96957
2023-02-16 17:11:53:934,-1.45092,3.31475,-9.10475,-19.9714,-8.52205,1.94141
2023-02-16 17:11:53:944,-1.42955,3.30086,-9.0976,-19.9618,-8.52215,1.91487
2023-02-16 17:11:53:954,-1.42491,3.28318,-9.07257,-19.9508,-8.52625,1.88954
2023-02-16 17:11:53:964,-1.42732,3.30079,-9.04601,-19.943,-8.52769,1.86088
2023-02-16 17:11:53:974,-1.42868,3.33159,-9.06401,-19.9365,-8.5294,1.83409
2023-02-16 17:11:53:984,-1.43662,3.33484,-9.08975,-19.9236,-8.53403,1.8096
2023-02-16 17:11:53:994,-1.4365,3.32423,-9.07176,-19.907,-8.53243,1.78307
2023-02-16 17:11:54:4,-1.3958,3.27191,-9.0492,-19.8899,-8.53163,1.75686
2023-02-16 17:11:54:14,-1.36648,3.22372,-9.03052,-19.8774,-8.53104,1.7343
2023-02-16 17:11:54:24,-1.3491,3.20276,-9.03668,-19.8665,-8.53158,1.71368
2023-02-16 17:11:54:34,-1.34991,3.1946,-9.06487,-19.8617,-8.53365,1.69464
2023-02-16 17:11:54:44,-1.38636,3.23062,-9.10274,-19.8636,-8.53827,1.67776
2023-02-16 17:11:54:54,-1.40693,3.26947,-9.15628,-19.8723,-8.54415,1.66485
2023-02-16 17:11:54:64,-1.41004,3.30523,-9.18687,-19.8762,-8.54627,1.65166
2023-02-16 17:11:54:74,-1.41379,3.32107,-9.19063,-19.8764,-8.54916,1.64051
2023-02-16 17:11:54:84,-1.37699,3.3184,-9.15505,-19.8749,-8.55218,1.62878
2023-02-16 17:11:54:94,-1.3743,3.31103,-9.11219,-19.8734,-8.55253,1.61547
2023-02-16 17:11:54:104,-1.3917,3.30891,-9.0952,-19.8711,-8.5568,1.60823
2023-02-16 17:11:54:114,-1.43625,3.31762,-9.07587,-19.8717,-8.56281,1.60357
2023-02-16 17:11:54:124,-1.48571,3.33293,-9.05246,-19.8727,-8.56781,1.59405
2023-02-16 17:11:54:134,-1.50488,3.34226,-9.04768,-19.8692,-8.5685,1.58449
2023-02-16 17:11:54:144,-1.50519,3.34639,-9.04259,-19.8676,-8.57238,1.56858
2023-02-16 17:11:54:154,-1.50779,3.32764,-9.06243,-19.865,-8.57167,1.55443
2023-02-16 17:11:54:164,-1.5039,3.32864,-9.0783,-19.8594,-8.57235,1.53724
2023-02-16 17:11:54:174,-1.5013,3.31849,-9.09491,-19.8548,-8.57131,1.52029
2023-02-16 17:11:54:184,-1.49669,3.30706,-9.10099,-19.848,-8.57282,1.5002
2023-02-16 17:11:54:194,-1.4656,3.29663,-9.09405,-19.8378,-8.57668,1.47847
2023-02-16 17:11:54:204,-1.43837,3.27966,-9.10195,-19.8291,-8.57816,1.45566
2023-02-16 17:11:54:214,-1.42662,3.27438,-9.12209,-19.8254,-8.58216,1.43885
2023-02-16 17:11:54:224,-1.41375,3.27422,-9.12223,-19.8194,-8.58707,1.41893
2023-02-16 17:11:54:234,-1.40183,3.29054,-9.11765,-19.8126,-8.59017,1.40312
2023-02-16 17:11:54:244,-1.4416,3.29905,-9.09341,-19.8081,-8.59383,1.39042
2023-02-16 17:11:54:254,-1.49147,3.30081,-9.04851,-19.805,-8.59306,1.37625
2023-02-16 17:11:54:264,-1.51379,3.28497,-9.01216,-19.8049,-8.58807,1.35946
2023-02-16 17:11:54:274,-1.46789,3.2918,-9.07606,-19.8061,-8.58015,1.33704
2023-02-16 17:11:54:284,-1.37063,3.31409,-9.15356,-19.8069,-8.57272,1.31722
2023-02-16 17:11:54:294,-1.39296,3.30838,-9.1434,-19.801,-8.57167,1.30179
2023-02-16 17:11:54:304,-1.46576,3.27908,-9.07163,-19.7956,-8.56912,1.29039
2023-02-16 17:11:54:314,-1.45341,3.26051,-9.04765,-19.7901,-8.56918,1.27674
2023-02-16 17:11:54:324,-1.40572,3.25292,-9.09866,-19.7856,-8.56785,1.26186
2023-02-16 17:11:54:334,-1.38626,3.27212,-9.11577,-19.781,-8.56707,1.24771
2023-02-16 17:11:54:344,-1.39193,3.26531,-9.10496,-19.7798,-8.56702,1.23701
2023-02-16 17:11:54:354,-1.42106,3.27391,-9.1103,-19.7801,-8.56703,1.2292
2023-02-16 17:11:54:364,-1.45814,3.29461,-9.14775,-19.7796,-8.56525,1.21858
2023-02-16 17:11:54:374,-1.47332,3.30632,-9.15691,-19.7774,-8.56897,1.20944
2023-02-16 17:11:54:384,-1.47622,3.29164,-9.12653,-19.7726,-8.57185,1.19668
2023-02-16 17:11:54:394,-1.47698,3.29136,-9.11078,-19.7668,-8.57355,1.18254
2023-02-16 17:11:54:404,-1.46185,3.28517,-9.12357,-19.7604,-8.57756,1.16873
2023-02-16 17:11:54:414,-1.45822,3.27947,-9.09476,-19.7503,-8.58009,1.15508
2023-02-16 17:11:54:424,-1.49497,3.26932,-9.03678,-19.7419,-8.58462,1.14313
2023-02-16 17:11:54:434,-1.50173,3.25567,-9.0489,-19.7343,-8.5859,1.12973
2023-02-16 17:11:54:444,-1.48132,3.27476,-9.0898,-19.7259,-8.58812,1.11487
2023-02-16 17:11:54:454,-1.46941,3.29308,-9.10665,-19.7179,-8.58983,1.09908
2023-02-16 17:11:54:464,-1.4791,3.29077,-9.10345,-19.7144,-8.59126,1.08303
2023-02-16 17:11:54:474,-1.46023,3.2916,-9.11712,-19.7083,-8.59336,1.06671
2023-02-16 17:11:54:484,-1.45891,3.30864,-9.15282,-19.7026,-8.59512,1.05199
2023-02-16 17:11:54:494,-1.47307,3.30677,-9.15551,-19.695,-8.59685,1.03839
2023-02-16 17:11:54:504,-1.4939,3.28886,-9.11705,-19.6865,-8.59722,1.02417
2023-02-16 17:11:54:514,-1.5127,3.28542,-9.09403,-19.6814,-8.59878,1.00947
2023-02-16 17:11:54:524,-1.53636,3.2799,-9.10146,-19.673,-8.59997,0.992784
2023-02-16 17:11:54:534,-1.53256,3.28339,-9.12798,-19.6628,-8.59982,0.975168
2023-02-16 17:11:54:544,-1.5158,3.28263,-9.12385,-19.6512,-8.59721,0.952356
2023-02-16 17:11:54:554,-1.50467,3.26613,-9.11041,-19.6416,-8.59163,0.927962
2023-02-16 17:11:54:564,-1.48663,3.26575,-9.11944,-19.6303,-8.58691,0.904454
2023-02-16 17:11:54:574,-1.48747,3.25201,-9.11304,-19.6196,-8.58081,0.880613
2023-02-16 17:11:54:584,-1.46953,3.24307,-9.11025,-19.609,-8.57375,0.856373
2023-02-16 17:11:54:594,-1.42876,3.2526,-9.12388,-19.5989,-8.56565,0.834197
2023-02-16 17:11:54:604,-1.40906,3.25937,-9.13028,-19.5867,-8.55775,0.811704
2023-02-16 17:11:54:614,-1.42669,3.27235,-9.11986,-19.5722,-8.55176,0.78754
2023-02-16 17:11:54:624,-1.4475,3.2688,-9.13204,-19.5608,-8.54311,0.762946
2023-02-16 17:11:54:634,-1.46068,3.26703,-9.14326,-19.5493,-8.53965,0.737666
2023-02-16 17:11:54:644,-1.45808,3.25132,-9.15286,-19.5383,-8.5367,0.712024
2023-02-16 17:11:54:654,-1.44778,3.24496,-9.13565,-19.5252,-8.53387,0.684409
2023-02-16 17:11:54:664,-1.4373,3.22281,-9.11868,-19.5063,-8.52722,0.658143
2023-02-16 17:11:54:674,-1.425,3.21492,-9.07146,-19.4886,-8.52364,0.628679
2023-02-16 17:11:54:684,-1.44221,3.19226,-9.05753,-19.4753,-8.52104,0.602457
2023-02-16 17:11:54:694,-1.41706,3.19199,-9.08311,-19.4685,-8.51783,0.575827
2023-02-16 17:11:54:704,-1.39177,3.22461,-9.12672,-19.4582,-8.51151,0.548425
2023-02-16 17:11:54:714,-1.39514,3.23267,-9.15139,-19.4502,-8.50769,0.521308
2023-02-16 17:11:54:724,-1.42011,3.22173,-9.15636,-19.4393,-8.50514,0.496385
2023-02-16 17:11:54:734,-1.42187,3.22425,-9.13013,-19.4287,-8.50195,0.470635
2023-02-16 17:11:54:744,-1.40616,3.20712,-9.09685,-19.4163,-8.49985,0.446489
2023-02-16 17:11:54:754,-1.38448,3.18815,-9.06315,-19.4053,-8.50053,0.424944
2023-02-16 17:11:54:764,-1.36398,3.18273,-9.08045,-19.3971,-8.49708,0.403004
2023-02-16 17:11:54:774,-1.36341,3.19377,-9.12491,-19.3876,-8.49363,0.382613
2023-02-16 17:11:54:784,-1.37936,3.19518,-9.13814,-19.3774,-8.48945,0.364247
2023-02-16 17:11:54:794,-1.38548,3.20123,-9.14452,-19.3682,-8.48327,0.347829
2023-02-16 17:11:54:804,-1.40305,3.21036,-9.196,-19.3612,-8.48293,0.333822
2023-02-16 17:11:54:814,-1.41542,3.21871,-9.19932,-19.3511,-8.48415,0.322413
2023-02-16 17:11:54:824,-1.40158,3.21019,-9.17226,-19.3426,-8.48507,0.307063
2023-02-16 17:11:54:834,-1.39077,3.20104,-9.1531,-19.335,-8.49033,0.293582
2023-02-16 17:11:54:844,-1.38465,3.2171,-9.16103,-19.3316,-8.49142,0.283768
2023-02-16 17:11:54:854,-1.36504,3.21894,-9.18252,-19.3289,-8.49444,0.274387
2023-02-16 17:11:54:864,-1.36371,3.23246,-9.17691,-19.3236,-8.49384,0.269636
2023-02-16 17:11:54:874,-1.38556,3.22701,-9.14387,-19.3139,-8.49504,0.263703
2023-02-16 17:11:54:884,-1.40658,3.20519,-9.11279,-19.3025,-8.49438,0.259956
2023-02-16 17:11:54:894,-1.41154,3.18926,-9.07897,-19.2923,-8.49128,0.256503
2023-02-16 17:11:54:904,-1.42269,3.17856,-9.06225,-19.2862,-8.4882,0.254709
2023-02-16 17:11:54:914,-1.44556,3.18362,-9.05035,-19.2832,-8.48662,0.252297
2023-02-16 17:11:54:924,-1.45946,3.17684,-9.05423,-19.2823,-8.48793,0.247448
2023-02-16 17:11:54:934,-1.4732,3.17555,-9.0656,-19.2771,-8.49084,0.241128
2023-02-16 17:11:54:944,-1.48759,3.18249,-9.0788,-19.2767,-8.492,0.228634
2023-02-16 17:11:54:954,-1.49058,3.18408,-9.09159,-19.2739,-8.4945,0.215418
2023-02-16 17:11:54:964,-1.46096,3.18959,-9.11676,-19.2708,-8.49567,0.1942
2023-02-16 17:11:54:974,-1.40478,3.16763,-9.14021,-19.2708,-8.49518,0.175269
2023-02-16 17:11:54:984,-1.36244,3.18156,-9.14478,-19.2748,-8.49763,0.161008
2023-02-16 17:11:54:994,-1.32531,3.17984,-9.12933,-19.2771,-8.50361,0.149732
2023-02-16 17:11:55:4,-1.36014,3.18621,-9.10229,-19.2813,-8.51084,0.143396
2023-02-16 17:11:55:14,-1.40702,3.20185,-9.10992,-19.2881,-8.51645,0.138326
2023-02-16 17:11:55:24,-1.47151,3.24465,-9.15816,-19.2983,-8.51368,0.13014
2023-02-16 17:11:55:34,-1.46833,3.2684,-9.19832,-19.3039,-8.51158,0.121682
2023-02-16 17:11:55:44,-1.43578,3.25516,-9.18098,-19.3019,-8.51197,0.110842
2023-02-16 17:11:55:54,-1.43501,3.19054,-9.11866,-19.2954,-8.50427,0.105618
2023-02-16 17:11:55:64,-1.47324,3.1518,-9.04673,-19.2964,-8.50138,0.0980967
2023-02-16 17:11:55:74,-1.4725,3.16957,-9.05007,-19.3021,-8.49935,0.0886125
2023-02-16 17:11:55:84,-1.45021,3.19514,-9.11529,-19.3118,-8.49961,0.078439
2023-02-16 17:11:55:94,-1.46596,3.23593,-9.18877,-19.324,-8.5021,0.0664091
2023-02-16 17:11:55:104,-1.46638,3.27986,-9.23021,-19.33,-8.49872,0.0501973
2023-02-16 17:11:55:114,-1.44014,3.26076,-9.23388,-19.3293,-8.49519,0.0339591
2023-02-16 17:11:55:124,-1.36953,3.22376,-9.22201,-19.3241,-8.49102,0.0209088
2023-02-16 17:11:55:134,-1.3359,3.19646,-9.17784,-19.32,-8.48897,0.00911158
2023-02-16 17:11:55:144,-1.3225,3.18324,-9.12686,-19.3157,-8.48902,0.00414687
2023-02-16 17:11:55:154,-1.34927,3.1995,-9.09006,-19.3165,-8.49,0.00143381
2023-02-16 17:11:55:164,-1.40571,3.21266,-9.08602,-19.3204,-8.49376,0.00106374
2023-02-16 17:11:55:174,-1.45225,3.25523,-9.12381,-19.3232,-8.49928,-0.00269585
2023-02-16 17:11:55:184,-1.47094,3.25324,-9.15144,-19.3186,-8.5016,-0.0108723
2023-02-16 17:11:55:194,-1.44303,3.22349,-9.14387,-19.3154,-8.50222,-0.0162334
2023-02-16 17:11:55:204,-1.40968,3.1805,-9.11803,-19.3153,-8.50407,-0.016961
2023-02-16 17:11:55:214,-1.38952,3.16492,-9.10145,-19.3137,-8.50388,-0.01776
2023-02-16 17:11:55:224,-1.3909,3.16498,-9.08244,-19.3153,-8.50577,-0.0200063
2023-02-16 17:11:55:234,-1.42791,3.16916,-9.06942,-19.3161,-8.51119,-0.0200048
2023-02-16 17:11:55:244,-1.47183,3.20066,-9.1088,-19.3262,-8.51713,-0.0200083
2023-02-16 17:11:55:254,-1.49518,3.23321,-9.13915,-19.3274,-8.5226,-0.0252504
2023-02-16 17:11:55:264,-1.50359,3.22848,-9.13823,-19.327,-8.52429,-0.032949
2023-02-16 17:11:55:274,-1.46709,3.21509,-9.12977,-19.3247,-8.52601,-0.0469203
2023-02-16 17:11:55:284,-1.43658,3.20126,-9.12703,-19.3241,-8.52659,-0.0589727
2023-02-16 17:11:55:294,-1.4126,3.18418,-9.11819,-19.3238,-8.52559,-0.0684487
2023-02-16 17:11:55:304,-1.38021,3.17263,-9.12041,-19.3256,-8.52206,-0.0752847
2023-02-16 17:11:55:314,-1.37816,3.2209,-9.16157,-19.329,-8.52255,-0.0811635
2023-02-16 17:11:55:324,-1.43724,3.26164,-9.1989,-19.3289,-8.52374,-0.0875781
2023-02-16 17:11:55:334,-1.49308,3.26547,-9.18747,-19.3236,-8.52347,-0.0954092
2023-02-16 17:11:55:344,-1.51529,3.24642,-9.16158,-19.3202,-8.52275,-0.104088
2023-02-16 17:11:55:354,-1.48673,3.23684,-9.14729,-19.3114,-8.51927,-0.115707
2023-02-16 17:11:55:364,-1.44466,3.20928,-9.13607,-19.3012,-8.51796,-0.128814
2023-02-16 17:11:55:374,-1.40718,3.18986,-9.12078,-19.2916,-8.51778,-0.135696
2023-02-16 17:11:55:384,-1.38151,3.17505,-9.1088,-19.287,-8.51723,-0.144356
2023-02-16 17:11:55:394,-1.38431,3.1728,-9.11972,-19.2872,-8.52033,-0.151453
2023-02-16 17:11:55:404,-1.4203,3.19597,-9.13829,-19.2885,-8.52273,-0.157821
2023-02-16 17:11:55:414,-1.44817,3.21875,-9.14623,-19.2885,-8.52599,-0.165852
2023-02-16 17:11:55:424,-1.45396,3.20698,-9.13377,-19.2836,-8.52445,-0.174765
2023-02-16 17:11:55:434,-1.44106,3.16838,-9.09744,-19.2823,-8.52221,-0.181684
2023-02-16 17:11:55:444,-1.41636,3.15308,-9.0658,-19.2793,-8.51897,-0.188198
2023-02-16 17:11:55:454,-1.41266,3.14865,-9.06809,-19.2823,-8.51428,-0.189328
2023-02-16 17:11:55:464,-1.43136,3.17037,-9.07863,-19.2896,-8.50548,-0.193767
2023-02-16 17:11:55:474,-1.44025,3.19088,-9.11022,-19.2935,-8.50213,-0.201928
2023-02-16 17:11:55:484,-1.44698,3.21615,-9.14964,-19.302,-8.4982,-0.209958
2023-02-16 17:11:55:494,-1.45526,3.21649,-9.17211,-19.3022,-8.49841,-0.221807
2023-02-16 17:11:55:504,-1.45385,3.21669,-9.16667,-19.2993,-8.49751,-0.234347
2023-02-16 17:11:55:514,-1.46253,3.21124,-9.12525,-19.2975,-8.50079,-0.246185
2023-02-16 17:11:55:524,-1.48164,3.18975,-9.08387,-19.2949,-8.50502,-0.258476
2023-02-16 17:11:55:534,-1.49513,3.16854,-9.05659,-19.2956,-8.50914,-0.27437
2023-02-16 17:11:55:544,-1.46929,3.16543,-9.07746,-19.2963,-8.51301,-0.293079
2023-02-16 17:11:55:554,-1.42384,3.17988,-9.14033,-19.3012,-8.51053,-0.313318
2023-02-16 17:11:55:564,-1.38154,3.18445,-9.18276,-19.3027,-8.50911,-0.332227
2023-02-16 17:11:55:574,-1.37754,3.18897,-9.19061,-19.3026,-8.50926,-0.346591
2023-02-16 17:11:55:584,-1.40351,3.18583,-9.17012,-19.3062,-8.51821,-0.362762
2023-02-16 17:11:55:594,-1.42853,3.19887,-9.1713,-19.3108,-8.52354,-0.376827
2023-02-16 17:11:55:604,-1.40187,3.20657,-9.19345,-19.3204,-8.52849,-0.389334
2023-02-16 17:11:55:614,-1.36637,3.20922,-9.17452,-19.3244,-8.53082,-0.39981
2023-02-16 17:11:55:624,-1.31727,3.20033,-9.13457,-19.3318,-8.52941,-0.402678
2023-02-16 17:11:55:634,-1.31459,3.22223,-9.13293,-19.3461,-8.52939,-0.400911
2023-02-16 17:11:55:644,-1.3774,3.27711,-9.19585,-19.358,-8.52665,-0.397172
2023-02-16 17:11:55:654,-1.4552,3.31422,-9.23345,-19.3603,-8.5254,-0.392382
2023-02-16 17:11:55:664,-1.50589,3.30235,-9.18027,-19.3549,-8.52003,-0.388748
2023-02-16 17:11:55:674,-1.50025,3.25222,-9.11077,-19.3468,-8.51378,-0.387077
2023-02-16 17:11:55:684,-1.47249,3.19821,-9.05835,-19.3393,-8.50786,-0.38629
2023-02-16 17:11:55:694,-1.45372,3.18173,-9.0338,-19.335,-8.50251,-0.389577
2023-02-16 17:11:55:704,-1.48907,3.18166,-9.03019,-19.3337,-8.49962,-0.393815
2023-02-16 17:11:55:714,-1.53499,3.19309,-9.06296,-19.3398,-8.4948,-0.403399
2023-02-16 17:11:55:724,-1.50946,3.21514,-9.10521,-19.3416,-8.4942,-0.414939
2023-02-16 17:11:55:734,-1.46771,3.21314,-9.14889,-19.3394,-8.49264,-0.430879
2023-02-16 17:11:55:744,-1.43929,3.21052,-9.15826,-19.3374,-8.49066,-0.447962
2023-02-16 17:11:55:754,-1.40434,3.18862,-9.14967,-19.3368,-8.49182,-0.466332
2023-02-16 17:11:55:764,-1.37871,3.19137,-9.11766,-19.3361,-8.49238,-0.485062
2023-02-16 17:11:55:774,-1.3743,3.18379,-9.08276,-19.3389,-8.49226,-0.499679
2023-02-16 17:11:55:784,-1.40719,3.18273,-9.07227,-19.3473,-8.494,-0.514283
2023-02-16 17:11:55:794,-1.43122,3.21266,-9.08767,-19.3571,-8.49164,-0.528795
2023-02-16 17:11:55:804,-1.43341,3.24183,-9.15223,-19.3659,-8.48338,-0.543332
2023-02-16 17:11:55:814,-1.38234,3.24754,-9.21463,-19.3689,-8.47564,-0.560614
2023-02-16 17:11:55:824,-1.33499,3.22183,-9.18376,-19.3649,-8.46962,-0.573347
2023-02-16 17:11:55:834,-1.34084,3.18579,-9.1017,-19.3623,-8.46338,-0.580628
2023-02-16 17:11:55:844,-1.40088,3.1617,-9.06235,-19.3644,-8.46177,-0.590419
2023-02-16 17:11:55:854,-1.38225,3.16707,-9.09389,-19.3735,-8.46415,-0.596084
2023-02-16 17:11:55:864,-1.37848,3.2085,-9.13732,-19.3805,-8.46456,-0.605534
2023-02-16 17:11:55:874,-1.41661,3.22734,-9.15544,-19.3911,-8.46651,-0.61114
2023-02-16 17:11:55:884,-1.42833,3.22889,-9.1516,-19.3995,-8.46313,-0.619211
2023-02-16 17:11:55:894,-1.39401,3.20953,-9.15884,-19.4035,-8.45952,-0.628509
2023-02-16 17:11:55:904,-1.35572,3.21793,-9.173,-19.4069,-8.45569,-0.636117
2023-02-16 17:11:55:913,-1.33601,3.2094,-9.15823,-19.4124,-8.45234,-0.63927
2023-02-16 17:11:55:924,-1.33849,3.19305,-9.12654,-19.4174,-8.45225,-0.637925
2023-02-16 17:11:55:934,-1.34706,3.19583,-9.09758,-19.4265,-8.45449,-0.637882
2023-02-16 17:11:55:944,-1.35776,3.23091,-9.11233,-19.4365,-8.45462,-0.636208
2023-02-16 17:11:55:954,-1.38708,3.25971,-9.14918,-19.4468,-8.45587,-0.633995
2023-02-16 17:11:55:964,-1.3958,3.26799,-9.15692,-19.4504,-8.45578,-0.632716
2023-02-16 17:11:55:974,-1.37432,3.26486,-9.15875,-19.4536,-8.45507,-0.630423
2023-02-16 17:11:55:984,-1.3692,3.25274,-9.14,-19.4534,-8.4536,-0.625008
2023-02-16 17:11:55:994,-1.3828,3.24973,-9.14439,-19.4524,-8.454,-0.616534
2023-02-16 17:11:56:4,-1.41462,3.24822,-9.14047,-19.4533,-8.45811,-0.607889
2023-02-16 17:11:56:14,-1.45011,3.25278,-9.1299,-19.4537,-8.46493,-0.597998
2023-02-16 17:11:56:24,-1.47776,3.26578,-9.13706,-19.4562,-8.4668,-0.587441
2023-02-16 17:11:56:34,-1.5072,3.24891,-9.10786,-19.4523,-8.47122,-0.581559
2023-02-16 17:11:56:44,-1.50839,3.23781,-9.0815,-19.4507,-8.47015,-0.57793
2023-02-16 17:11:56:54,-1.51324,3.25126,-9.07421,-19.4508,-8.47468,-0.579717
2023-02-16 17:11:56:64,-1.51685,3.25772,-9.0794,-19.4545,-8.47707,-0.583546
2023-02-16 17:11:56:74,-1.49218,3.25923,-9.10255,-19.4572,-8.47853,-0.591953
2023-02-16 17:11:56:84,-1.46519,3.27516,-9.14877,-19.4607,-8.47999,-0.601384
2023-02-16 17:11:56:94,-1.44664,3.28344,-9.16669,-19.461,-8.48384,-0.611937
2023-02-16 17:11:56:104,-1.44278,3.27425,-9.16417,-19.4615,-8.48503,-0.621688
2023-02-16 17:11:56:114,-1.45049,3.27449,-9.16311,-19.4581,-8.48695,-0.630286
2023-02-16 17:11:56:124,-1.45568,3.26478,-9.15344,-19.4519,-8.49096,-0.637738
2023-02-16 17:11:56:134,-1.45016,3.25862,-9.1309,-19.4437,-8.48964,-0.645463
2023-02-16 17:11:56:144,-1.43699,3.23951,-9.10554,-19.4385,-8.48888,-0.656897
2023-02-16 17:11:56:154,-1.41206,3.22193,-9.09898,-19.431,-8.48563,-0.667431
2023-02-16 17:11:56:164,-1.40018,3.20448,-9.1064,-19.4253,-8.47961,-0.676487
2023-02-16 17:11:56:174,-1.39078,3.19706,-9.0917,-19.4202,-8.47357,-0.684446
2023-02-16 17:11:56:184,-1.35632,3.19251,-9.09121,-19.4157,-8.47103,-0.691494
2023-02-16 17:11:56:194,-1.34101,3.18698,-9.10271,-19.4174,-8.46753,-0.695626
2023-02-16 17:11:56:204,-1.37839,3.21706,-9.14005,-19.4198,-8.46747,-0.697609
2023-02-16 17:11:56:214,-1.39406,3.24561,-9.16884,-19.4198,-8.46967,-0.700485
2023-02-16 17:11:56:224,-1.40863,3.24922,-9.15726,-19.4193,-8.47274,-0.702174
2023-02-16 17:11:56:234,-1.43596,3.22333,-9.1441,-19.4157,-8.47598,-0.705781
2023-02-16 17:11:56:244,-1.4608,3.24392,-9.14541,-19.4156,-8.47686,-0.711441
2023-02-16 17:11:56:254,-1.46619,3.25808,-9.16856,-19.4125,-8.47549,-0.717481
2023-02-16 17:11:56:264,-1.45443,3.24352,-9.15529,-19.4084,-8.48044,-0.724571
2023-02-16 17:11:56:274,-1.46398,3.23557,-9.10484,-19.402,-8.48494,-0.733021
2023-02-16 17:11:56:284,-1.47876,3.203,-9.07563,-19.3922,-8.49214,-0.739797
2023-02-16 17:11:56:294,-1.47758,3.20175,-9.08124,-19.3882,-8.49344,-0.752177
2023-02-16 17:11:56:304,-1.46018,3.21646,-9.10867,-19.3869,-8.49669,-0.764754
2023-02-16 17:11:56:314,-1.44078,3.22971,-9.13848,-19.3845,-8.49773,-0.777251
2023-02-16 17:11:56:324,-1.39291,3.22982,-9.15838,-19.3826,-8.49623,-0.788824
2023-02-16 17:11:56:334,-1.37373,3.23035,-9.14146,-19.3799,-8.50143,-0.799091
2023-02-16 17:11:56:344,-1.3734,3.20279,-9.08752,-19.371,-8.50826,-0.810944
2023-02-16 17:11:56:354,-1.37889,3.16513,-9.03403,-19.3692,-8.51572,-0.819748
2023-02-16 17:11:56:364,-1.41734,3.18229,-9.01002,-19.3736,-8.5232,-0.828032
2023-02-16 17:11:56:374,-1.47565,3.20766,-9.07431,-19.3763,-8.52816,-0.841612
2023-02-16 17:11:56:384,-1.46883,3.20907,-9.15197,-19.3816,-8.53221,-0.857517
2023-02-16 17:11:56:394,-1.38889,3.19632,-9.1878,-19.3807,-8.53665,-0.871662
2023-02-16 17:11:56:404,-1.35396,3.19402,-9.2069,-19.3787,-8.54254,-0.881104
2023-02-16 17:11:56:414,-1.3606,3.17543,-9.18507,-19.3795,-8.54723,-0.887419
2023-02-16 17:11:56:424,-1.33936,3.17884,-9.18117,-19.382,-8.55307,-0.890721
2023-02-16 17:11:56:434,-1.2955,3.18251,-9.17588,-19.3877,-8.56073,-0.889033
2023-02-16 17:11:56:444,-1.31672,3.20311,-9.14354,-19.397,-8.56191,-0.879326
2023-02-16 17:11:56:454,-1.42535,3.23827,-9.12124,-19.4038,-8.56273,-0.866575
2023-02-16 17:11:56:464,-1.47912,3.26676,-9.12496,-19.4118,-8.55911,-0.855707
2023-02-16 17:11:56:474,-1.44814,3.25976,-9.14018,-19.4177,-8.55007,-0.843378
2023-02-16 17:11:56:484,-1.42409,3.2534,-9.13431,-19.4172,-8.53627,-0.831288
2023-02-16 17:11:56:494,-1.45633,3.23527,-9.09258,-19.4139,-8.52125,-0.819324
2023-02-16 17:11:56:504,-1.471,3.22838,-9.04945,-19.4124,-8.50296,-0.806594
2023-02-16 17:11:56:514,-1.43774,3.23066,-9.0628,-19.4139,-8.49007,-0.794304
2023-02-16 17:11:56:524,-1.43902,3.23421,-9.07014,-19.4167,-8.48039,-0.78137
2023-02-16 17:11:56:534,-1.4892,3.2496,-9.09843,-19.4186,-8.47189,-0.771873
2023-02-16 17:11:56:544,-1.50324,3.26631,-9.1141,-19.4225,-8.4662,-0.769616
2023-02-16 17:11:56:554,-1.4904,3.2692,-9.11451,-19.4267,-8.46619,-0.769643
2023-02-16 17:11:56:564,-1.49292,3.2615,-9.12499,-19.4283,-8.4685,-0.774302
2023-02-16 17:11:56:574,-1.49735,3.25859,-9.1285,-19.4303,-8.47381,-0.784585
2023-02-16 17:11:56:584,-1.47508,3.23721,-9.13601,-19.4335,-8.48115,-0.795412
2023-02-16 17:11:56:594,-1.4678,3.23524,-9.1321,-19.4385,-8.49079,-0.806647
2023-02-16 17:11:56:604,-1.44253,3.26368,-9.11659,-19.4436,-8.50146,-0.818255
2023-02-16 17:11:56:614,-1.47,3.28588,-9.11432,-19.4503,-8.50835,-0.831918
2023-02-16 17:11:56:624,-1.51734,3.28798,-9.13015,-19.4507,-8.5127,-0.846234
2023-02-16 17:11:56:634,-1.5084,3.30203,-9.14986,-19.4502,-8.51336,-0.867006
2023-02-16 17:11:56:644,-1.43432,3.27244,-9.18604,-19.4441,-8.51187,-0.886334
2023-02-16 17:11:56:654,-1.37504,3.24336,-9.16533,-19.4315,-8.51144,-0.904814
2023-02-16 17:11:56:664,-1.39,3.22499,-9.11467,-19.4173,-8.51074,-0.920999
2023-02-16 17:11:56:674,-1.42509,3.2093,-9.08843,-19.4099,-8.51376,-0.936478
2023-02-16 17:11:56:684,-1.41554,3.19339,-9.09437,-19.405,-8.51526,-0.947777
2023-02-16 17:11:56:694,-1.40121,3.19493,-9.14517,-19.4038,-8.51434,-0.959873
2023-02-16 17:11:56:704,-1.44753,3.23985,-9.14929,-19.4034,-8.51528,-0.970548
2023-02-16 17:11:56:714,-1.46056,3.26105,-9.16403,-19.4013,-8.51454,-0.98203
2023-02-16 17:11:56:724,-1.44243,3.26511,-9.19014,-19.3956,-8.51207,-0.993382
2023-02-16 17:11:56:734,-1.42383,3.26304,-9.18861,-19.3881,-8.5077,-1.00694
2023-02-16 17:11:56:744,-1.39952,3.248,-9.17589,-19.3758,-8.50442,-1.01856
2023-02-16 17:11:56:754,-1.36486,3.22276,-9.15543,-19.3663,-8.49835,-1.02628
2023-02-16 17:11:56:764,-1.37553,3.21602,-9.13499,-19.3582,-8.49809,-1.03235
2023-02-16 17:11:56:774,-1.4417,3.23901,-9.11202,-19.3539,-8.50033,-1.03474
2023-02-16 17:11:56:784,-1.495,3.25483,-9.12778,-19.3445,-8.50656,-1.03929
2023-02-16 17:11:56:794,-1.49858,3.25792,-9.13141,-19.3371,-8.50971,-1.04785
2023-02-16 17:11:56:804,-1.49167,3.24478,-9.09992,-19.3252,-8.50656,-1.05957
2023-02-16 17:11:56:814,-1.46321,3.21124,-9.07497,-19.3144,-8.50205,-1.07284
2023-02-16 17:11:56:824,-1.418,3.18761,-9.11558,-19.3069,-8.49838,-1.08518
2023-02-16 17:11:56:834,-1.42094,3.1853,-9.14524,-19.301,-8.49301,-1.09247
2023-02-16 17:11:56:844,-1.42549,3.17394,-9.12996,-19.2925,-8.48903,-1.09658
2023-02-16 17:11:56:854,-1.43117,3.18384,-9.10471,-19.2847,-8.48402,-1.10578
2023-02-16 17:11:56:864,-1.41516,3.16973,-9.10586,-19.2761,-8.47923,-1.11513
2023-02-16 17:11:56:874,-1.40834,3.15003,-9.1245,-19.2708,-8.476,-1.1258
2023-02-16 17:11:56:884,-1.39032,3.16649,-9.11106,-19.2681,-8.47086,-1.13055
2023-02-16 17:11:56:894,-1.38072,3.17967,-9.12818,-19.267,-8.46682,-1.13552
2023-02-16 17:11:56:904,-1.4001,3.19732,-9.15623,-19.2692,-8.46567,-1.14171
2023-02-16 17:11:56:914,-1.41378,3.20779,-9.15972,-19.266,-8.46669,-1.14693
2023-02-16 17:11:56:924,-1.43183,3.21405,-9.14755,-19.2667,-8.46368,-1.15043
2023-02-16 17:11:56:934,-1.42415,3.20779,-9.16991,-19.2607,-8.46224,-1.15642
2023-02-16 17:11:56:944,-1.39937,3.19876,-9.17792,-19.2525,-8.45934,-1.16329
2023-02-16 17:11:56:954,-1.38251,3.18586,-9.13647,-19.2438,-8.4598,-1.1671
2023-02-16 17:11:56:964,-1.39167,3.17037,-9.11731,-19.2386,-8.46377,-1.17123
2023-02-16 17:11:56:974,-1.3995,3.17099,-9.1191,-19.2346,-8.46753,-1.17587
2023-02-16 17:11:56:984,-1.39866,3.17796,-9.13091,-19.23,-8.47013,-1.18136
2023-02-16 17:11:56:994,-1.39081,3.18099,-9.1435,-19.2225,-8.47054,-1.18479
2023-02-16 17:11:57:4,-1.4044,3.19245,-9.13328,-19.2158,-8.47068,-1.18876
2023-02-16 17:11:57:14,-1.41684,3.19578,-9.13787,-19.2095,-8.46777,-1.19138
2023-02-16 17:11:57:24,-1.4199,3.19125,-9.15356,-19.2041,-8.46793,-1.19608
2023-02-16 17:11:57:34,-1.41524,3.1877,-9.13492,-19.1994,-8.46685,-1.19864
2023-02-16 17:11:57:44,-1.4082,3.17541,-9.12852,-19.1937,-8.4691,-1.20536
2023-02-16 17:11:57:54,-1.39118,3.15255,-9.11925,-19.1893,-8.46712,-1.20575
2023-02-16 17:11:57:64,-1.38399,3.14437,-9.10111,-19.1872,-8.4652,-1.20537
2023-02-16 17:11:57:74,-1.39329,3.14843,-9.10355,-19.1925,-8.46542,-1.2012
2023-02-16 17:11:57:84,-1.42847,3.1795,-9.1371,-19.1939,-8.46121,-1.19586
2023-02-16 17:11:57:94,-1.44789,3.21195,-9.16863,-19.1977,-8.45903,-1.19191
2023-02-16 17:11:57:104,-1.42985,3.20449,-9.15076,-19.1953,-8.45296,-1.18969
2023-02-16 17:11:57:114,-1.40893,3.20178,-9.10723,-19.196,-8.44556,-1.18612
2023-02-16 17:11:57:124,-1.41355,3.19143,-9.10972,-19.1949,-8.43802,-1.17859
2023-02-16 17:11:57:134,-1.44264,3.20007,-9.12017,-19.1952,-8.42686,-1.17187
2023-02-16 17:11:57:144,-1.47615,3.19096,-9.10306,-19.1974,-8.41645,-1.16406
2023-02-16 17:11:57:154,-1.45714,3.19617,-9.09501,-19.2011,-8.40609,-1.16025
2023-02-16 17:11:57:164,-1.4533,3.20422,-9.11197,-19.2026,-8.39528,-1.15384
2023-02-16 17:11:57:174,-1.47215,3.20499,-9.10463,-19.2042,-8.3842,-1.15005
2023-02-16 17:11:57:184,-1.46701,3.19701,-9.0786,-19.2047,-8.37029,-1.15162
2023-02-16 17:11:57:194,-1.45252,3.1806,-9.08045,-19.2036,-8.35298,-1.15222
2023-02-16 17:11:57:204,-1.41816,3.16456,-9.11487,-19.2105,-8.33247,-1.15559
2023-02-16 17:11:57:214,-1.3621,3.16279,-9.17079,-19.2173,-8.31462,-1.16245
2023-02-16 17:11:57:224,-1.35145,3.19015,-9.23061,-19.224,-8.3019,-1.16441
2023-02-16 17:11:57:234,-1.35298,3.21984,-9.23747,-19.2241,-8.28894,-1.1689
2023-02-16 17:11:57:244,-1.33526,3.20956,-9.22088,-19.2229,-8.28374,-1.17029
2023-02-16 17:11:57:254,-1.36775,3.20197,-9.18415,-19.2232,-8.28203,-1.17149
2023-02-16 17:11:57:264,-1.42132,3.20308,-9.16193,-19.2264,-8.28413,-1.17788
2023-02-16 17:11:57:274,-1.4367,3.21419,-9.16491,-19.2281,-8.28374,-1.18444
2023-02-16 17:11:57:284,-1.42439,3.22526,-9.16525,-19.2373,-8.28809,-1.18835
2023-02-16 17:11:57:294,-1.40557,3.24558,-9.17124,-19.2415,-8.29271,-1.19568
2023-02-16 17:11:57:304,-1.38746,3.24868,-9.18759,-19.2412,-8.29495,-1.20463
2023-02-16 17:11:57:314,-1.37878,3.23965,-9.174,-19.2373,-8.29666,-1.21868
2023-02-16 17:11:57:324,-1.35527,3.23784,-9.13934,-19.2302,-8.29428,-1.22873
2023-02-16 17:11:57:334,-1.34553,3.1997,-9.1373,-19.2216,-8.29464,-1.23792
2023-02-16 17:11:57:344,-1.35469,3.20325,-9.13398,-19.2133,-8.29444,-1.24189
2023-02-16 17:11:57:354,-1.38454,3.20452,-9.12312,-19.2019,-8.29103,-1.2474
2023-02-16 17:11:57:364,-1.38449,3.18778,-9.1206,-19.1935,-8.28848,-1.25044
2023-02-16 17:11:57:374,-1.38209,3.17182,-9.10147,-19.1865,-8.2846,-1.25432
2023-02-16 17:11:57:384,-1.40506,3.15192,-9.0918,-19.1825,-8.2784,-1.25765
2023-02-16 17:11:57:394,-1.39813,3.14507,-9.09679,-19.1782,-8.27277,-1.25981
2023-02-16 17:11:57:404,-1.38705,3.13691,-9.10563,-19.1754,-8.2672,-1.26077
2023-02-16 17:11:57:414,-1.38101,3.14522,-9.12026,-19.1757,-8.26085,-1.26023
2023-02-16 17:11:57:424,-1.35949,3.17841,-9.1523,-19.178,-8.25671,-1.26654
2023-02-16 17:11:57:434,-1.34268,3.18978,-9.19677,-19.1829,-8.25225,-1.26807
2023-02-16 17:11:57:444,-1.33141,3.18625,-9.19735,-19.1835,-8.24964,-1.26943
2023-02-16 17:11:57:454,-1.33123,3.17676,-9.14926,-19.1833,-8.25213,-1.26856
2023-02-16 17:11:57:464,-1.37467,3.16086,-9.11984,-19.184,-8.25188,-1.26897
2023-02-16 17:11:57:474,-1.37955,3.1504,-9.10245,-19.1852,-8.25254,-1.269
2023-02-16 17:11:57:484,-1.31484,3.16111,-9.12038,-19.1891,-8.24732,-1.26666
2023-02-16 17:11:57:494,-1.28353,3.18002,-9.14508,-19.1937,-8.24316,-1.26459
2023-02-16 17:11:57:504,-1.31474,3.1754,-9.16136,-19.1969,-8.24371,-1.25485
2023-02-16 17:11:57:514,-1.39207,3.18172,-9.13794,-19.2,-8.24755,-1.24463
2023-02-16 17:11:57:524,-1.43161,3.2015,-9.12757,-19.2007,-8.25022,-1.24017
2023-02-16 17:11:57:534,-1.44725,3.21887,-9.15119,-19.2029,-8.25215,-1.23846
2023-02-16 17:11:57:544,-1.44852,3.20992,-9.16687,-19.2027,-8.25335,-1.24079
2023-02-16 17:11:57:554,-1.41279,3.19527,-9.17683,-19.2008,-8.25307,-1.2415
2023-02-16 17:11:57:564,-1.3694,3.15911,-9.15892,-19.2014,-8.25086,-1.24046
2023-02-16 17:11:57:574,-1.33968,3.12781,-9.10364,-19.2005,-8.25398,-1.24251
2023-02-16 17:11:57:584,-1.31906,3.14043,-9.08891,-19.2096,-8.2559,-1.24092
2023-02-16 17:11:57:594,-1.33364,3.2158,-9.15942,-19.2216,-8.26287,-1.23646
2023-02-16 17:11:57:604,-1.38419,3.28155,-9.21822,-19.2342,-8.2693,-1.23178
2023-02-16 17:11:57:614,-1.43632,3.28248,-9.2297,-19.2354,-8.27428,-1.22876
2023-02-16 17:11:57:624,-1.42032,3.24693,-9.17279,-19.2333,-8.27815,-1.22704
2023-02-16 17:11:57:634,-1.3988,3.18643,-9.1301,-19.2294,-8.27828,-1.22195
2023-02-16 17:11:57:644,-1.3832,3.13545,-9.08651,-19.229,-8.28252,-1.21641
2023-02-16 17:11:57:654,-1.38402,3.12892,-9.05068,-19.2337,-8.28433,-1.21109
2023-02-16 17:11:57:664,-1.43385,3.16023,-9.06298,-19.2422,-8.28743,-1.20223
2023-02-16 17:11:57:674,-1.45658,3.20398,-9.07554,-19.2573,-8.28952,-1.19409
2023-02-16 17:11:57:684,-1.45618,3.21372,-9.09036,-19.2742,-8.2882,-1.18979
2023-02-16 17:11:57:694,-1.39723,3.20138,-9.12379,-19.2895,-8.28316,-1.18705
2023-02-16 17:11:57:704,-1.34533,3.17295,-9.15469,-19.3047,-8.27546,-1.18
2023-02-16 17:11:57:714,-1.29143,3.14306,-9.14537,-19.3203,-8.26804,-1.16734
2023-02-16 17:11:57:724,-1.26465,3.14871,-9.14202,-19.3367,-8.25955,-1.15047
2023-02-16 17:11:57:734,-1.22441,3.1453,-9.11922,-19.3557,-8.24668,-1.13178
2023-02-16 17:11:57:744,-1.17184,3.14336,-9.09265,-19.3791,-8.23411,-1.10637
2023-02-16 17:11:57:754,-1.15355,3.13511,-9.05117,-19.4102,-8.22179,-1.06924
2023-02-16 17:11:57:764,-1.14538,3.1392,-9.05265,-19.4447,-8.21333,-1.02032
2023-02-16 17:11:57:774,-1.18014,3.21488,-9.13204,-19.485,-8.20456,-0.964691
2023-02-16 17:11:57:784,-1.28355,3.28422,-9.18982,-19.5188,-8.20269,-0.901892
2023-02-16 17:11:57:794,-1.41525,3.2913,-9.16755,-19.5401,-8.19985,-0.837806
2023-02-16 17:11:57:804,-1.47978,3.25005,-9.11798,-19.554,-8.19201,-0.770093
2023-02-16 17:11:57:814,-1.57605,3.20847,-9.089,-19.5711,-8.18297,-0.699698
2023-02-16 17:11:57:824,-1.6746,3.21774,-9.11716,-19.5872,-8.17361,-0.638199
2023-02-16 17:11:57:834,-1.74539,3.19704,-9.15746,-19.6025,-8.16156,-0.584812
2023-02-16 17:11:57:844,-1.79014,3.23118,-9.19815,-19.6205,-8.14981,-0.546305
2023-02-16 17:11:57:854,-1.74963,3.30778,-9.23662,-19.6347,-8.13804,-0.524812
2023-02-16 17:11:57:864,-1.66847,3.33038,-9.1496,-19.6386,-8.12358,-0.512752
2023-02-16 17:11:57:874,-1.66482,3.30194,-9.03888,-19.6449,-8.10712,-0.515648
2023-02-16 17:11:57:884,-1.66503,3.31837,-9.00904,-19.66,-8.10057,-0.529649
2023-02-16 17:11:57:894,-1.5736,3.36402,-9.04967,-19.6811,-8.09678,-0.562758
2023-02-16 17:11:57:904,-1.5123,3.37075,-9.08548,-19.7001,-8.09565,-0.60082
2023-02-16 17:11:57:914,-1.49362,3.40317,-9.155,-19.7258,-8.10158,-0.645613
2023-02-16 17:11:57:924,-1.43713,3.44901,-9.24265,-19.742,-8.10598,-0.698152
2023-02-16 17:11:57:934,-1.3638,3.46773,-9.25203,-19.749,-8.10869,-0.753237
2023-02-16 17:11:57:944,-1.32553,3.42951,-9.22091,-19.7458,-8.10753,-0.805525
2023-02-16 17:11:57:954,-1.31669,3.41587,-9.2228,-19.7366,-8.1043,-0.86205
2023-02-16 17:11:57:964,-1.27184,3.40344,-9.22645,-19.718,-8.09929,-0.918848
2023-02-16 17:11:57:974,-1.2128,3.32774,-9.17962,-19.695,-8.09605,-0.971111
2023-02-16 17:11:57:984,-1.18484,3.27532,-9.11812,-19.6697,-8.09479,-1.01332
2023-02-16 17:11:57:994,-1.18427,3.22362,-9.09556,-19.6433,-8.09309,-1.04917
2023-02-16 17:11:58:4,-1.21681,3.19613,-9.104,-19.6198,-8.09377,-1.08102
2023-02-16 17:11:58:14,-1.23025,3.19222,-9.17299,-19.6013,-8.09897,-1.10996
2023-02-16 17:11:58:24,-1.22673,3.2,-9.22436,-19.578,-8.10643,-1.13421
2023-02-16 17:11:58:34,-1.21551,3.15757,-9.14562,-19.5468,-8.11634,-1.15659
2023-02-16 17:11:58:44,-1.20534,3.0895,-9.01131,-19.5166,-8.12493,-1.17605
2023-02-16 17:11:58:54,-1.20637,3.03139,-8.92733,-19.5024,-8.13562,-1.19266
2023-02-16 17:11:58:64,-1.18613,3.02945,-8.90011,-19.5071,-8.14967,-1.20418
2023-02-16 17:11:58:74,-1.19205,3.06114,-8.97876,-19.5288,-8.16753,-1.20724
2023-02-16 17:11:58:84,-1.23195,3.17334,-9.14732,-19.5578,-8.18544,-1.2074
2023-02-16 17:11:58:94,-1.27885,3.29069,-9.29107,-19.5831,-8.20408,-1.20489
2023-02-16 17:11:58:104,-1.36795,3.31841,-9.31957,-19.5971,-8.2214,-1.19774
2023-02-16 17:11:58:114,-1.4623,3.27404,-9.22536,-19.6003,-8.23697,-1.18837
2023-02-16 17:11:58:124,-1.50562,3.23591,-9.15646,-19.6027,-8.24742,-1.18445
2023-02-16 17:11:58:134,-1.49965,3.25887,-9.12231,-19.6039,-8.25876,-1.18671
2023-02-16 17:11:58:144,-1.49026,3.28059,-9.06311,-19.6024,-8.26381,-1.19311
2023-02-16 17:11:58:154,-1.50769,3.2232,-8.96687,-19.6073,-8.27451,-1.20563
2023-02-16 17:11:58:164,-1.49637,3.21955,-8.96154,-19.619,-8.28192,-1.22173
2023-02-16 17:11:58:174,-1.43846,3.26803,-9.06221,-19.6368,-8.28698,-1.24214
2023-02-16 17:11:58:184,-1.44634,3.33243,-9.17161,-19.6473,-8.2931,-1.26062
2023-02-16 17:11:58:194,-1.47704,3.36001,-9.21201,-19.6495,-8.29798,-1.28553
2023-02-16 17:11:58:204,-1.46061,3.35056,-9.11847,-19.6429,-8.30322,-1.31421
2023-02-16 17:11:58:214,-1.41993,3.22041,-8.89075,-19.6293,-8.3059,-1.34371
2023-02-16 17:11:58:224,-1.4099,3.09976,-8.77758,-19.6441,-8.30068,-1.37142
2023-02-16 17:11:58:234,-1.35801,3.21234,-8.94238,-19.6804,-8.29905,-1.39962
2023-02-16 17:11:58:244,-1.30201,3.36289,-9.20618,-19.7193,-8.29748,-1.42765
2023-02-16 17:11:58:254,-1.31541,3.43256,-9.34046,-19.7422,-8.29609,-1.45272
2023-02-16 17:11:58:264,-1.32864,3.40793,-9.27958,-19.7601,-8.29154,-1.47628
2023-02-16 17:11:58:274,-1.32619,3.36864,-9.20815,-19.7729,-8.28951,-1.49611
2023-02-16 17:11:58:284,-1.34293,3.3662,-9.21201,-19.7846,-8.28822,-1.51243
2023-02-16 17:11:58:294,-1.37172,3.37821,-9.21267,-19.7896,-8.2883,-1.52837
2023-02-16 17:11:58:304,-1.39525,3.36775,-9.18389,-19.7896,-8.28919,-1.54295
2023-02-16 17:11:58:314,-1.37059,3.32428,-9.12574,-19.7816,-8.28975,-1.56065
2023-02-16 17:11:58:324,-1.33865,3.25423,-9.06363,-19.78,-8.29613,-1.57284
2023-02-16 17:11:58:334,-1.39706,3.2612,-9.05997,-19.7795,-8.2999,-1.58384
2023-02-16 17:11:58:344,-1.45019,3.29757,-9.11187,-19.7791,-8.30997,-1.5975
2023-02-16 17:11:58:354,-1.4402,3.31305,-9.15263,-19.7756,-8.32164,-1.61611
2023-02-16 17:11:58:364,-1.41432,3.29322,-9.15953,-19.7692,-8.32811,-1.63836
2023-02-16 17:11:58:374,-1.38797,3.26641,-9.14392,-19.7625,-8.33371,-1.65848
2023-02-16 17:11:58:384,-1.36467,3.25292,-9.13696,-19.7567,-8.34027,-1.67596
2023-02-16 17:11:58:394,-1.36116,3.2617,-9.12243,-19.7519,-8.34754,-1.69385
2023-02-16 17:11:58:404,-1.34166,3.25617,-9.12269,-19.7501,-8.35411,-1.70737
2023-02-16 17:11:58:414,-1.35468,3.24304,-9.10885,-19.7451,-8.3664,-1.72042
2023-02-16 17:11:58:424,-1.39674,3.22989,-9.06542,-19.743,-8.38033,-1.73154
2023-02-16 17:11:58:434,-1.40249,3.23541,-9.06676,-19.744,-8.39458,-1.74111
2023-02-16 17:11:58:444,-1.38175,3.28477,-9.10229,-19.747,-8.40483,-1.75182
2023-02-16 17:11:58:454,-1.4084,3.30626,-9.12071,-19.7478,-8.41226,-1.75949
2023-02-16 17:11:58:464,-1.44333,3.30938,-9.10989,-19.7416,-8.4179,-1.76924
2023-02-16 17:11:58:474,-1.43716,3.27709,-9.10849,-19.7362,-8.41712,-1.78135
2023-02-16 17:11:58:484,-1.43372,3.26602,-9.11918,-19.7311,-8.4193,-1.79167
2023-02-16 17:11:58:494,-1.44335,3.27724,-9.11905,-19.7252,-8.41776,-1.79754
2023-02-16 17:11:58:504,-1.46971,3.26856,-9.08928,-19.7199,-8.4168,-1.80749
2023-02-16 17:11:58:514,-1.4712,3.244,-9.06098,-19.717,-8.41669,-1.81776
2023-02-16 17:11:58:524,-1.43695,3.24593,-9.07327,-19.7166,-8.41577,-1.83625
2023-02-16 17:11:58:534,-1.39863,3.25162,-9.11801,-19.7197,-8.42066,-1.84765
2023-02-16 17:11:58:544,-1.40551,3.27502,-9.13795,-19.7237,-8.42505,-1.86231
2023-02-16 17:11:58:554,-1.40093,3.31363,-9.17009,-19.7229,-8.43204,-1.87601
2023-02-16 17:11:58:564,-1.38625,3.3327,-9.18188,-19.72,-8.44199,-1.88922
2023-02-16 17:11:58:574,-1.38931,3.32366,-9.16882,-19.7137,-8.45101,-1.89992
2023-02-16 17:11:58:584,-1.40771,3.3098,-9.15517,-19.707,-8.45474,-1.91045
2023-02-16 17:11:58:594,-1.40899,3.31215,-9.16305,-19.6998,-8.45934,-1.91805
2023-02-16 17:11:58:604,-1.42747,3.31242,-9.14906,-19.6902,-8.46413,-1.92599
2023-02-16 17:11:58:614,-1.43539,3.26914,-9.1042,-19.6748,-8.4675,-1.93621
2023-02-16 17:11:58:624,-1.41397,3.24419,-9.06624,-19.6609,-8.4723,-1.9455
2023-02-16 17:11:58:634,-1.39589,3.26346,-9.07375,-19.6519,-8.47413,-1.95493
2023-02-16 17:11:58:644,-1.4227,3.28339,-9.12802,-19.6423,-8.47779,-1.96003
2023-02-16 17:11:58:654,-1.44491,3.28686,-9.12456,-19.6313,-8.48483,-1.96497
2023-02-16 17:11:58:664,-1.46875,3.27123,-9.13284,-19.6188,-8.49023,-1.97261
2023-02-16 17:11:58:674,-1.46619,3.30057,-9.16474,-19.6058,-8.49374,-1.98122
2023-02-16 17:11:58:684,-1.46712,3.31585,-9.1903,-19.5909,-8.49573,-1.99044
2023-02-16 17:11:58:694,-1.46833,3.27213,-9.14023,-19.5701,-8.49831,-1.99813
2023-02-16 17:11:58:704,-1.44222,3.22342,-9.06567,-19.5516,-8.50073,-2.00702
2023-02-16 17:11:58:714,-1.42797,3.19562,-9.0432,-19.5364,-8.5029,-2.01778
2023-02-16 17:11:58:724,-1.41008,3.20065,-9.08927,-19.5259,-8.50363,-2.02594
2023-02-16 17:11:58:734,-1.39966,3.24634,-9.13197,-19.5184,-8.50607,-2.03213
2023-02-16 17:11:58:744,-1.42195,3.27341,-9.1645,-19.5069,-8.50958,-2.0394
2023-02-16 17:11:58:754,-1.44123,3.2703,-9.15219,-19.4915,-8.5151,-2.04183
2023-02-16 17:11:58:764,-1.46804,3.23155,-9.11244,-19.4764,-8.51663,-2.04608
2023-02-16 17:11:58:774,-1.46432,3.22454,-9.0954,-19.4646,-8.51703,-2.05176
2023-02-16 17:11:58:784,-1.47585,3.22523,-9.11963,-19.4533,-8.51813,-2.06139
2023-02-16 17:11:58:794,-1.50883,3.23232,-9.12435,-19.4352,-8.51736,-2.07048
2023-02-16 17:11:58:804,-1.52109,3.21462,-9.07966,-19.4175,-8.51747,-2.08226
2023-02-16 17:11:58:814,-1.49096,3.18027,-9.035,-19.4038,-8.51406,-2.09242
2023-02-16 17:11:58:824,-1.43957,3.18187,-9.08959,-19.3954,-8.5117,-2.10337
2023-02-16 17:11:58:834,-1.4136,3.23121,-9.17996,-19.3903,-8.51062,-2.11648
2023-02-16 17:11:58:844,-1.41271,3.23363,-9.16724,-19.3798,-8.50347,-2.124
2023-02-16 17:11:58:854,-1.41713,3.1989,-9.09755,-19.3646,-8.49805,-2.13534
2023-02-16 17:11:58:864,-1.41891,3.1767,-9.085,-19.354,-8.4931,-2.14766
2023-02-16 17:11:58:874,-1.41237,3.19035,-9.11394,-19.3452,-8.48963,-2.15594
2023-02-16 17:11:58:884,-1.40433,3.20544,-9.14438,-19.3359,-8.48441,-2.16771
2023-02-16 17:11:58:894,-1.36684,3.19279,-9.14332,-19.3251,-8.47878,-2.17794
2023-02-16 17:11:58:904,-1.3166,3.16012,-9.13038,-19.3122,-8.47555,-2.18295
2023-02-16 17:11:58:914,-1.29005,3.14529,-9.14259,-19.3019,-8.47278,-2.18145
2023-02-16 17:11:58:924,-1.33893,3.1602,-9.17113,-19.2951,-8.4718,-2.17475
2023-02-16 17:11:58:934,-1.39821,3.18921,-9.18997,-19.2876,-8.47325,-2.17173
2023-02-16 17:11:58:944,-1.45204,3.19892,-9.17517,-19.2822,-8.47317,-2.16647
2023-02-16 17:11:58:954,-1.45958,3.20218,-9.14727,-19.2725,-8.47623,-2.16303
2023-02-16 17:11:58:964,-1.4369,3.20993,-9.1521,-19.2641,-8.47274,-2.16384
2023-02-16 17:11:58:974,-1.41126,3.22186,-9.1758,-19.2589,-8.47078,-2.16379
2023-02-16 17:11:58:984,-1.41115,3.2348,-9.16207,-19.252,-8.46972,-2.16386
2023-02-16 17:11:58:994,-1.40321,3.21945,-9.13504,-19.2429,-8.47087,-2.16152
2023-02-16 17:11:59:4,-1.38151,3.21317,-9.10862,-19.2348,-8.46997,-2.16087
2023-02-16 17:11:59:14,-1.37727,3.20928,-9.11514,-19.2264,-8.47163,-2.15639
2023-02-16 17:11:59:24,-1.41643,3.20492,-9.11723,-19.2159,-8.4725,-2.15125
2023-02-16 17:11:59:34,-1.46368,3.20074,-9.11484,-19.2049,-8.47216,-2.1466
2023-02-16 17:11:59:44,-1.46435,3.22378,-9.12185,-19.1921,-8.47434,-2.14644
2023-02-16 17:11:59:54,-1.47483,3.21545,-9.13062,-19.1794,-8.474,-2.14599
2023-02-16 17:11:59:64,-1.47122,3.20883,-9.11586,-19.1667,-8.47708,-2.15245
2023-02-16 17:11:59:74,-1.43911,3.18643,-9.12193,-19.1569,-8.47592,-2.15701
2023-02-16 17:11:59:84,-1.41931,3.17266,-9.11062,-19.1438,-8.4775,-2.16491
2023-02-16 17:11:59:94,-1.39502,3.14324,-9.09108,-19.1316,-8.47837,-2.17406
2023-02-16 17:11:59:104,-1.37535,3.14361,-9.10614,-19.1274,-8.47924,-2.18439
2023-02-16 17:11:59:114,-1.39322,3.1643,-9.13471,-19.1225,-8.48303,-2.18761
2023-02-16 17:11:59:124,-1.38715,3.21009,-9.13444,-19.123,-8.48715,-2.19182
2023-02-16 17:11:59:134,-1.39237,3.21533,-9.13977,-19.1221,-8.48957,-2.19887
2023-02-16 17:11:59:144,-1.44405,3.21502,-9.15692,-19.1183,-8.48774,-2.2022
2023-02-16 17:11:59:154,-1.43488,3.22704,-9.16925,-19.1092,-8.482,-2.21184
2023-02-16 17:11:59:164,-1.36205,3.2246,-9.17705,-19.0996,-8.4765,-2.22201
2023-02-16 17:11:59:174,-1.3314,3.19405,-9.17893,-19.088,-8.47569,-2.22519
2023-02-16 17:11:59:184,-1.36651,3.1752,-9.14673,-19.0784,-8.472,-2.22745
2023-02-16 17:11:59:194,-1.39261,3.16057,-9.09932,-19.0675,-8.47224,-2.23263
2023-02-16 17:11:59:204,-1.40007,3.16277,-9.09373,-19.0613,-8.46996,-2.23612
2023-02-16 17:11:59:214,-1.38536,3.19784,-9.16304,-19.0601,-8.47323,-2.23952
2023-02-16 17:11:59:224,-1.38968,3.21728,-9.20993,-19.0571,-8.47133,-2.2475
2023-02-16 17:11:59:234,-1.38659,3.20419,-9.2167,-19.0483,-8.46774,-2.25143
2023-02-16 17:11:59:244,-1.38039,3.20251,-9.22818,-19.0363,-8.4655,-2.25591
2023-02-16 17:11:59:254,-1.36975,3.20044,-9.21554,-19.0267,-8.46046,-2.25698
2023-02-16 17:11:59:264,-1.35584,3.19504,-9.19926,-19.0149,-8.45973,-2.25954
2023-02-16 17:11:59:274,-1.35204,3.18224,-9.186,-19.0048,-8.46159,-2.2598
2023-02-16 17:11:59:284,-1.36811,3.1821,-9.17237,-18.9914,-8.46371,-2.26069
2023-02-16 17:11:59:294,-1.37591,3.18929,-9.15478,-18.9793,-8.47245,-2.26154
2023-02-16 17:11:59:304,-1.3647,3.1965,-9.15559,-18.9663,-8.48222,-2.25879
2023-02-16 17:11:59:314,-1.38101,3.19417,-9.16563,-18.9503,-8.49008,-2.25504
2023-02-16 17:11:59:324,-1.38776,3.18627,-9.17169,-18.9336,-8.50083,-2.25074
2023-02-16 17:11:59:334,-1.38077,3.16214,-9.18219,-18.9121,-8.50871,-2.24322
2023-02-16 17:11:59:344,-1.40249,3.1355,-9.17307,-18.8897,-8.51707,-2.23175
2023-02-16 17:11:59:354,-1.43874,3.10995,-9.13668,-18.8632,-8.52669,-2.2198
2023-02-16 17:11:59:364,-1.4767,3.07889,-9.10708,-18.841,-8.53871,-2.20237
2023-02-16 17:11:59:374,-1.47959,3.07246,-9.07869,-18.8236,-8.55032,-2.18696
2023-02-16 17:11:59:384,-1.50454,3.08354,-9.10616,-18.8074,-8.56018,-2.17161
2023-02-16 17:11:59:394,-1.53492,3.09694,-9.13416,-18.7956,-8.5703,-2.1558
2023-02-16 17:11:59:404,-1.5575,3.10734,-9.13487,-18.7868,-8.58193,-2.14737
2023-02-16 17:11:59:414,-1.57293,3.10057,-9.15926,-18.779,-8.58905,-2.14173
2023-02-16 17:11:59:424,-1.54478,3.09855,-9.17399,-18.7661,-8.60042,-2.1403
2023-02-16 17:11:59:434,-1.54034,3.08899,-9.16693,-18.7553,-8.61404,-2.14084
2023-02-16 17:11:59:444,-1.54038,3.08306,-9.15579,-18.7465,-8.62633,-2.13988
2023-02-16 17:11:59:454,-1.53774,3.08869,-9.14245,-18.7386,-8.63588,-2.14108
2023-02-16 17:11:59:464,-1.56983,3.09667,-9.14645,-18.723,-8.64643,-2.14503
2023-02-16 17:11:59:474,-1.58523,3.10428,-9.14528,-18.7115,-8.65548,-2.15232
2023-02-16 17:11:59:484,-1.55886,3.09606,-9.14283,-18.6993,-8.65948,-2.15994
2023-02-16 17:11:59:494,-1.54337,3.08781,-9.1436,-18.6845,-8.65842,-2.17008
2023-02-16 17:11:59:504,-1.52303,3.07345,-9.13498,-18.6723,-8.65802,-2.1804
2023-02-16 17:11:59:514,-1.491,3.05831,-9.1444,-18.6592,-8.65806,-2.18851
2023-02-16 17:11:59:524,-1.47311,3.07756,-9.15614,-18.6502,-8.65745,-2.19767
2023-02-16 17:11:59:534,-1.47935,3.09193,-9.1839,-18.6375,-8.65763,-2.20145
2023-02-16 17:11:59:544,-1.48599,3.09026,-9.18138,-18.6221,-8.65592,-2.20783
2023-02-16 17:11:59:554,-1.48813,3.08893,-9.16691,-18.6116,-8.65331,-2.215
2023-02-16 17:11:59:564,-1.48561,3.09373,-9.14813,-18.599,-8.6528,-2.22192
2023-02-16 17:11:59:574,-1.47492,3.08336,-9.15744,-18.5899,-8.65299,-2.23027
2023-02-16 17:11:59:584,-1.4653,3.07075,-9.14934,-18.5801,-8.6528,-2.2373
2023-02-16 17:11:59:594,-1.45377,3.05723,-9.13657,-18.5679,-8.65579,-2.24466
2023-02-16 17:11:59:604,-1.4482,3.05935,-9.14224,-18.5587,-8.65661,-2.25129
2023-02-16 17:11:59:614,-1.48125,3.07966,-9.15749,-18.5545,-8.65786,-2.25527
2023-02-16 17:11:59:624,-1.49883,3.09937,-9.15822,-18.5442,-8.65563,-2.26137
2023-02-16 17:11:59:634,-1.48591,3.10418,-9.15798,-18.5337,-8.64985,-2.26698
2023-02-16 17:11:59:644,-1.47829,3.10497,-9.17136,-18.5225,-8.64341,-2.27607
2023-02-16 17:11:59:654,-1.47286,3.09354,-9.17761,-18.5086,-8.63519,-2.28095
2023-02-16 17:11:59:664,-1.47355,3.07042,-9.1615,-18.4934,-8.62589,-2.28763
2023-02-16 17:11:59:674,-1.46238,3.0647,-9.134,-18.48,-8.61773,-2.29604
2023-02-16 17:11:59:684,-1.40897,3.06094,-9.14728,-18.468,-8.60705,-2.30513
2023-02-16 17:11:59:694,-1.37195,3.07097,-9.16906,-18.4599,-8.59733,-2.31392
2023-02-16 17:11:59:704,-1.36532,3.10174,-9.17034,-18.453,-8.5924,-2.32237
2023-02-16 17:11:59:714,-1.38236,3.12046,-9.17496,-18.4457,-8.5833,-2.33162
2023-02-16 17:11:59:724,-1.35803,3.10848,-9.16988,-18.4336,-8.57423,-2.34106
2023-02-16 17:11:59:734,-1.3406,3.08234,-9.15029,-18.4181,-8.56182,-2.35184
2023-02-16 17:11:59:744,-1.32909,3.05824,-9.14769,-18.4066,-8.54474,-2.36173
2023-02-16 17:11:59:754,-1.32075,3.05303,-9.18898,-18.3996,-8.53103,-2.36989
2023-02-16 17:11:59:764,-1.27261,3.05938,-9.22124,-18.3941,-8.5144,-2.37758
2023-02-16 17:11:59:774,-1.24621,3.04592,-9.26212,-18.3923,-8.49864,-2.38169
2023-02-16 17:11:59:784,-1.26994,3.08775,-9.33674,-18.397,-8.48567,-2.39054
2023-02-16 17:11:59:794,-1.2637,3.13737,-9.39946,-18.4041,-8.47257,-2.39969
2023-02-16 17:11:59:804,-1.28324,3.20495,-9.4612,-18.4083,-8.45877,-2.41165
2023-02-16 17:11:59:814,-1.31063,3.27941,-9.5026,-18.4121,-8.44348,-2.4227
2023-02-16 17:11:59:824,-1.27662,3.31161,-9.49841,-18.4075,-8.42064,-2.43742
2023-02-16 17:11:59:834,-1.21941,3.31941,-9.46667,-18.398,-8.39617,-2.45436
2023-02-16 17:11:59:844,-1.218,3.3389,-9.47668,-18.3881,-8.36901,-2.46533
2023-02-16 17:11:59:854,-1.25369,3.40172,-9.55153,-18.377,-8.34174,-2.47985
2023-02-16 17:11:59:864,-1.21731,3.45562,-9.6124,-18.3577,-8.31487,-2.50046
2023-02-16 17:11:59:874,-1.12487,3.43881,-9.64574,-18.3307,-8.28709,-2.51999
2023-02-16 17:11:59:884,-1.06443,3.44346,-9.6477,-18.3041,-8.26167,-2.53678
2023-02-16 17:11:59:894,-1.05556,3.49699,-9.64213,-18.2746,-8.24082,-2.5497
2023-02-16 17:11:59:904,-1.11479,3.54898,-9.61337,-18.2455,-8.22696,-2.55934
2023-02-16 17:11:59:914,-1.22606,3.60818,-9.61283,-18.2182,-8.22087,-2.56372
2023-02-16 17:11:59:924,-1.3321,3.6744,-9.63803,-18.1817,-8.2149,-2.56995
2023-02-16 17:11:59:934,-1.39376,3.73702,-9.60207,-18.1412,-8.20829,-2.57652
2023-02-16 17:11:59:944,-1.437,3.79071,-9.53055,-18.0944,-8.19678,-2.5897
2023-02-16 17:11:59:954,-1.49962,3.86331,-9.53083,-18.0391,-8.1828,-2.60947
2023-02-16 17:11:59:964,-1.55882,3.92311,-9.60055,-17.9719,-8.16068,-2.63222
2023-02-16 17:11:59:974,-1.54386,3.96447,-9.67437,-17.8826,-8.13144,-2.66253
2023-02-16 17:11:59:984,-1.4687,3.96719,-9.72216,-17.7755,-8.10383,-2.69267
2023-02-16 17:11:59:994,-1.43158,3.95016,-9.66541,-17.6503,-8.07749,-2.71994
2023-02-16 17:12:00:4,-1.48578,3.90818,-9.53469,-17.5142,-8.05748,-2.74662
2023-02-16 17:12:00:14,-1.58612,3.88352,-9.46372,-17.3682,-8.04476,-2.77234
2023-02-16 17:12:00:24,-1.65118,3.88398,-9.45177,-17.209,-8.03348,-2.80378
2023-02-16 17:12:00:34,-1.75916,3.86874,-9.43701,-17.0306,-8.0261,-2.83762
2023-02-16 17:12:00:44,-1.83932,3.81107,-9.3936,-16.8315,-8.01939,-2.88105
2023-02-16 17:12:00:54,-1.8311,3.68397,-9.33599,-16.6173,-8.00565,-2.93342
2023-02-16 17:12:00:64,-1.79392,3.58035,-9.31184,-16.3952,-7.98695,-2.99811
2023-02-16 17:12:00:74,-1.72526,3.50929,-9.31975,-16.1607,-7.96672,-3.07049
2023-02-16 17:12:00:84,-1.62811,3.39365,-9.30906,-15.922,-7.94476,-3.14335
2023-02-16 17:12:00:94,-1.58972,3.27362,-9.37573,-15.6863,-7.9327,-3.21288
2023-02-16 17:12:00:104,-1.63529,3.25461,-9.50907,-15.449,-7.91995,-3.28403
2023-02-16 17:12:00:114,-1.62129,3.1769,-9.56337,-15.1964,-7.90769,-3.35552
2023-02-16 17:12:00:124,-1.60315,3.02073,-9.51326,-14.928,-7.88903,-3.43145
2023-02-16 17:12:00:134,-1.6206,2.86254,-9.46287,-14.6504,-7.86731,-3.50442
2023-02-16 17:12:00:144,-1.60814,2.7471,-9.45146,-14.3713,-7.84114,-3.57448
2023-02-16 17:12:00:154,-1.58571,2.61151,-9.42552,-14.0935,-7.80751,-3.64607
2023-02-16 17:12:00:164,-1.51779,2.51173,-9.37322,-13.8268,-7.77058,-3.71964
2023-02-16 17:12:00:174,-1.45658,2.46345,-9.33807,-13.5753,-7.73237,-3.79311
2023-02-16 17:12:00:184,-1.41207,2.42495,-9.35376,-13.3365,-7.69329,-3.8673
2023-02-16 17:12:00:194,-1.37314,2.37404,-9.3966,-13.1122,-7.65276,-3.9407
2023-02-16 17:12:00:204,-1.32864,2.34171,-9.44382,-12.9009,-7.61508,-4.00662
2023-02-16 17:12:00:214,-1.27063,2.29489,-9.4368,-12.698,-7.57275,-4.06705
2023-02-16 17:12:00:224,-1.22396,2.2289,-9.36903,-12.4973,-7.53628,-4.12493
2023-02-16 17:12:00:234,-1.17827,2.16426,-9.28071,-12.3073,-7.50214,-4.17547
2023-02-16 17:12:00:244,-1.17414,2.06186,-9.24234,-12.1232,-7.47036,-4.21546
2023-02-16 17:12:00:254,-1.25963,1.99555,-9.24517,-11.9514,-7.44225,-4.24884
2023-02-16 17:12:00:264,-1.32608,1.9874,-9.30889,-11.7869,-7.40994,-4.2862
2023-02-16 17:12:00:274,-1.33221,1.99866,-9.39881,-11.6278,-7.37093,-4.32664
2023-02-16 17:12:00:284,-1.29191,1.9826,-9.44534,-11.4629,-7.32211,-4.36361
2023-02-16 17:12:00:294,-1.23395,1.90363,-9.42826,-11.293,-7.26265,-4.40062
2023-02-16 17:12:00:304,-1.17107,1.78829,-9.39717,-11.1095,-7.19554,-4.43229
2023-02-16 17:12:00:314,-1.09499,1.66216,-9.37371,-10.9195,-7.12296,-4.45783
2023-02-16 17:12:00:324,-1.04355,1.5459,-9.36758,-10.7303,-7.05066,-4.4719
2023-02-16 17:12:00:334,-0.988327,1.43677,-9.36282,-10.5459,-6.97621,-4.47613
2023-02-16 17:12:00:344,-0.900844,1.3207,-9.35503,-10.3671,-6.90185,-4.46314
2023-02-16 17:12:00:354,-0.828756,1.23233,-9.36159,-10.196,-6.84177,-4.43849
2023-02-16 17:12:00:364,-0.838649,1.15401,-9.35063,-10.0272,-6.79752,-4.39651
2023-02-16 17:12:00:374,-0.956224,1.0721,-9.33097,-9.86535,-6.76139,-4.33989
2023-02-16 17:12:00:384,-1.07043,1.01236,-9.32655,-9.706,-6.72968,-4.27795
2023-02-16 17:12:00:394,-1.07795,0.94907,-9.3092,-9.55451,-6.69665,-4.21437
2023-02-16 17:12:00:404,-1.08417,0.878553,-9.25294,-9.40785,-6.66914,-4.14596
2023-02-16 17:12:00:414,-1.11004,0.812128,-9.18392,-9.26965,-6.63853,-4.07972
2023-02-16 17:12:00:424,-1.13461,0.740705,-9.14037,-9.13912,-6.61066,-4.00806
2023-02-16 17:12:00:434,-1.12607,0.673377,-9.10863,-9.02175,-6.58768,-3.94127
2023-02-16 17:12:00:444,-1.11019,0.613963,-9.08895,-8.9126,-6.56257,-3.87405
2023-02-16 17:12:00:454,-1.0852,0.563725,-9.04594,-8.82192,-6.53593,-3.80748
2023-02-16 17:12:00:464,-1.01274,0.535505,-9.0498,-8.75275,-6.51149,-3.74501
2023-02-16 17:12:00:474,-0.912309,0.551166,-9.08347,-8.70421,-6.48909,-3.67532
2023-02-16 17:12:00:484,-0.855335,0.595589,-9.09605,-8.67549,-6.46831,-3.60122
2023-02-16 17:12:00:494,-0.899327,0.642993,-9.09998,-8.66603,-6.44861,-3.51926
2023-02-16 17:12:00:504,-0.953857,0.695252,-9.09861,-8.66421,-6.42871,-3.43903
2023-02-16 17:12:00:514,-0.941344,0.749659,-9.12353,-8.67671,-6.41001,-3.35535
2023-02-16 17:12:00:524,-0.962367,0.8402,-9.17051,-8.70448,-6.39233,-3.26694
2023-02-16 17:12:00:534,-1.02976,0.919706,-9.19017,-8.74139,-6.37378,-3.18163
2023-02-16 17:12:00:544,-1.09654,0.993061,-9.218,-8.78467,-6.35646,-3.09579
2023-02-16 17:12:00:554,-1.14924,1.06318,-9.24994,-8.83379,-6.34098,-3.01044
2023-02-16 17:12:00:564,-1.18427,1.12675,-9.28885,-8.88686,-6.32008,-2.92354
2023-02-16 17:12:00:574,-1.23345,1.18249,-9.3572,-8.93802,-6.29854,-2.84203
2023-02-16 17:12:00:584,-1.24502,1.22529,-9.45014,-8.98777,-6.27646,-2.76667
2023-02-16 17:12:00:594,-1.2618,1.26458,-9.55583,-9.03492,-6.25152,-2.69288
2023-02-16 17:12:00:604,-1.2691,1.29508,-9.59257,-9.07947,-6.22761,-2.62459
2023-02-16 17:12:00:614,-1.26032,1.32294,-9.59954,-9.11943,-6.20057,-2.56533
2023-02-16 17:12:00:624,-1.24096,1.34517,-9.62818,-9.15167,-6.17027,-2.51542
2023-02-16 17:12:00:634,-1.17708,1.34678,-9.57926,-9.18187,-6.13769,-2.47077
2023-02-16 17:12:00:644,-1.13107,1.33964,-9.50958,-9.21976,-6.11149,-2.42744
2023-02-16 17:12:00:654,-1.13883,1.40586,-9.47875,-9.26283,-6.08504,-2.3909
2023-02-16 17:12:00:664,-1.16748,1.50283,-9.54256,-9.3143,-6.05848,-2.36045
2023-02-16 17:12:00:674,-1.16122,1.55976,-9.59494,-9.35998,-6.03439,-2.34185
2023-02-16 17:12:00:684,-1.13367,1.58311,-9.62391,-9.40033,-6.01988,-2.32736
2023-02-16 17:12:00:694,-1.10777,1.62321,-9.67632,-9.4358,-6.00371,-2.31813
2023-02-16 17:12:00:704,-1.05903,1.65282,-9.68502,-9.45499,-5.99344,-2.31344
2023-02-16 17:12:00:714,-1.0121,1.62993,-9.60025,-9.46256,-5.99018,-2.3084
2023-02-16 17:12:00:724,-0.978793,1.56385,-9.49046,-9.46976,-5.99365,-2.29731
2023-02-16 17:12:00:734,-0.997818,1.56551,-9.45107,-9.47819,-6.0039,-2.28687
2023-02-16 17:12:00:744,-1.04755,1.594,-9.48592,-9.48467,-6.01876,-2.27656
2023-02-16 17:12:00:754,-1.06281,1.59546,-9.51433,-9.48735,-6.02722,-2.26814
2023-02-16 17:12:00:764,-1.08525,1.57301,-9.53306,-9.48493,-6.03235,-2.25619
2023-02-16 17:12:00:774,-1.08731,1.55562,-9.53279,-9.47571,-6.03693,-2.24135
2023-02-16 17:12:00:784,-1.05837,1.51924,-9.52236,-9.45986,-6.03405,-2.22425
2023-02-16 17:12:00:794,-1.10008,1.52386,-9.5131,-9.44624,-6.02914,-2.20758
2023-02-16 17:12:00:804,-1.22175,1.55737,-9.56921,-9.43009,-6.02079,-2.18907
2023-02-16 17:12:00:814,-1.28388,1.60364,-9.66701,-9.40945,-6.00576,-2.18094
2023-02-16 17:12:00:824,-1.24379,1.62353,-9.68919,-9.37568,-5.98442,-2.18177
2023-02-16 17:12:00:834,-1.19029,1.56953,-9.64533,-9.32575,-5.95286,-2.1883
2023-02-16 17:12:00:844,-1.17527,1.49418,-9.61362,-9.26945,-5.91499,-2.19313
2023-02-16 17:12:00:854,-1.10237,1.43648,-9.62569,-9.20449,-5.86968,-2.20381
2023-02-16 17:12:00:864,-0.983243,1.39611,-9.66934,-9.13167,-5.82157,-2.21758
2023-02-16 17:12:00:874,-0.924229,1.36112,-9.65753,-9.05432,-5.77334,-2.23473
2023-02-16 17:12:00:884,-0.893916,1.28497,-9.62572,-8.96899,-5.72892,-2.24882
2023-02-16 17:12:00:894,-0.839305,1.21418,-9.58682,-8.87496,-5.68885,-2.26625
2023-02-16 17:12:00:904,-0.799342,1.13539,-9.55616,-8.78617,-5.6541,-2.27611
2023-02-16 17:12:00:914,-0.799493,1.07862,-9.54792,-8.70236,-5.62465,-2.28412
2023-02-16 17:12:00:924,-0.835054,1.04536,-9.52352,-8.62385,-5.60104,-2.29397
2023-02-16 17:12:00:934,-0.842801,1.03327,-9.51575,-8.55223,-5.5764,-2.30745
2023-02-16 17:12:00:944,-0.788882,1.01196,-9.50731,-8.48814,-5.55224,-2.31697
2023-02-16 17:12:00:954,-0.75492,0.981256,-9.50856,-8.43606,-5.53245,-2.32625
2023-02-16 17:12:00:964,-0.73821,0.970905,-9.54195,-8.39345,-5.51697,-2.33309
2023-02-16 17:12:00:974,-0.753844,0.962875,-9.56383,-8.35568,-5.5066,-2.33851
2023-02-16 17:12:00:984,-0.779702,0.95669,-9.55298,-8.32141,-5.49821,-2.34306
2023-02-16 17:12:00:994,-0.753218,0.95649,-9.53913,-8.28889,-5.49337,-2.35093
2023-02-16 17:12:01:4,-0.72418,0.9737,-9.51306,-8.25932,-5.48931,-2.35027
2023-02-16 17:12:01:14,-0.75244,0.978645,-9.45282,-8.23929,-5.48714,-2.35187
2023-02-16 17:12:01:24,-0.740265,0.985304,-9.43196,-8.23189,-5.47879,-2.35205
2023-02-16 17:12:01:34,-0.711045,1.00718,-9.47612,-8.23424,-5.46703,-2.34802
2023-02-16 17:12:01:44,-0.708616,1.06138,-9.54865,-8.24299,-5.45668,-2.3411
2023-02-16 17:12:01:54,-0.710179,1.08535,-9.61026,-8.25061,-5.44791,-2.33514
2023-02-16 17:12:01:64,-0.717112,1.09568,-9.59198,-8.26406,-5.43546,-2.32718
2023-02-16 17:12:01:74,-0.678618,1.10494,-9.5672,-8.28075,-5.42935,-2.31628
2023-02-16 17:12:01:84,-0.592372,1.11906,-9.54041,-8.29796,-5.41972,-2.30153
2023-02-16 17:12:01:94,-0.529392,1.13049,-9.48561,-8.31895,-5.42042,-2.27424
2023-02-16 17:12:01:104,-0.533815,1.12667,-9.35813,-8.34789,-5.43006,-2.23749
2023-02-16 17:12:01:114,-0.58419,1.10432,-9.27009,-8.40029,-5.4481,-2.19208
2023-02-16 17:12:01:124,-0.611121,1.13078,-9.27886,-8.47323,-5.47715,-2.13276
2023-02-16 17:12:01:134,-0.644094,1.21796,-9.30282,-8.5649,-5.51447,-2.06597
2023-02-16 17:12:01:144,-0.686556,1.28027,-9.37078,-8.67082,-5.55479,-1.9924
2023-02-16 17:12:01:154,-0.739709,1.35968,-9.45544,-8.78484,-5.60229,-1.91004
2023-02-16 17:12:01:164,-0.799711,1.42826,-9.55019,-8.91116,-5.654,-1.81343
2023-02-16 17:12:01:174,-0.891587,1.5039,-9.65406,-9.04284,-5.69945,-1.71484
2023-02-16 17:12:01:184,-1.0269,1.61122,-9.73191,-9.1788,-5.74286,-1.61144
2023-02-16 17:12:01:194,-1.11502,1.69075,-9.77976,-9.31078,-5.77791,-1.50488
2023-02-16 17:12:01:204,-1.17921,1.7153,-9.79358,-9.43279,-5.81151,-1.40393
2023-02-16 17:12:01:214,-1.22207,1.73891,-9.83806,-9.54432,-5.83374,-1.30529
2023-02-16 17:12:01:224,-1.23777,1.74781,-9.87779,-9.64345,-5.84886,-1.21084
2023-02-16 17:12:01:234,-1.23828,1.68103,-9.8057,-9.73236,-5.86942,-1.1191
2023-02-16 17:12:01:244,-1.27672,1.6146,-9.69645,-9.82189,-5.89278,-1.03149
2023-02-16 17:12:01:254,-1.35975,1.58794,-9.61357,-9.91978,-5.92071,-0.945995
2023-02-16 17:12:01:264,-1.47816,1.64145,-9.58209,-10.0315,-5.95342,-0.867767
2023-02-16 17:12:01:274,-1.59948,1.71678,-9.63233,-10.1427,-5.97585,-0.807613
2023-02-16 17:12:01:284,-1.64044,1.75543,-9.67897,-10.2511,-5.99213,-0.75991
2023-02-16 17:12:01:294,-1.59452,1.76191,-9.65278,-10.3574,-6.00095,-0.732843
2023-02-16 17:12:01:304,-1.50179,1.78792,-9.66387,-10.4541,-5.99975,-0.724154
2023-02-16 17:12:01:314,-1.38431,1.77818,-9.68591,-10.5378,-5.9901,-0.722382
2023-02-16 17:12:01:324,-1.31547,1.76161,-9.63549,-10.6138,-5.97742,-0.729179
2023-02-16 17:12:01:334,-1.31158,1.74355,-9.51451,-10.6868,-5.96164,-0.743311
2023-02-16 17:12:01:344,-1.26336,1.74169,-9.49902,-10.7639,-5.94055,-0.766689
2023-02-16 17:12:01:354,-1.16326,1.80554,-9.59291,-10.8348,-5.90538,-0.801233
2023-02-16 17:12:01:364,-1.05175,1.86274,-9.59396,-10.9064,-5.86006,-0.840981
2023-02-16 17:12:01:374,-0.897751,1.8691,-9.56954,-10.9742,-5.80503,-0.890035
2023-02-16 17:12:01:384,-0.7273,1.87023,-9.57708,-11.0418,-5.74985,-0.936111
2023-02-16 17:12:01:394,-0.64796,1.91684,-9.59803,-11.1111,-5.7024,-0.977109
2023-02-16 17:12:01:404,-0.640105,1.98779,-9.63994,-11.1758,-5.65138,-1.01459
2023-02-16 17:12:01:414,-0.592322,2.00613,-9.65692,-11.2331,-5.60713,-1.04804
2023-02-16 17:12:01:424,-0.552552,1.99193,-9.60792,-11.2823,-5.56596,-1.07472
2023-02-16 17:12:01:434,-0.591255,1.97278,-9.58356,-11.3302,-5.52238,-1.097
2023-02-16 17:12:01:444,-0.638608,1.98375,-9.59359,-11.378,-5.47875,-1.11558
2023-02-16 17:12:01:454,-0.644988,2.00914,-9.56412,-11.4212,-5.43058,-1.13608
2023-02-16 17:12:01:464,-0.59866,1.99483,-9.52062,-11.4669,-5.38617,-1.15492
2023-02-16 17:12:01:474,-0.558159,2.0171,-9.46305,-11.5172,-5.34629,-1.17562
2023-02-16 17:12:01:484,-0.544215,2.04532,-9.38056,-11.564,-5.3124,-1.19645
2023-02-16 17:12:01:494,-0.580933,2.02883,-9.33383,-11.6211,-5.28526,-1.21659
2023-02-16 17:12:01:504,-0.633083,2.05316,-9.47129,-11.6899,-5.26818,-1.23641
2023-02-16 17:12:01:514,-0.631881,2.11066,-9.68641,-11.7564,-5.26477,-1.25951
2023-02-16 17:12:01:524,-0.633259,2.12255,-9.77688,-11.8177,-5.2757,-1.28609
2023-02-16 17:12:01:534,-0.647621,2.11096,-9.77107,-11.8699,-5.29599,-1.31378
2023-02-16 17:12:01:544,-0.684177,2.12636,-9.64285,-11.9187,-5.3227,-1.34083
2023-02-16 17:12:01:554,-0.755687,2.10795,-9.42849,-11.9577,-5.35208,-1.37076
2023-02-16 17:12:01:564,-0.751521,2.05784,-9.25387,-12.0003,-5.3747,-1.40809
2023-02-16 17:12:01:574,-0.589336,2.02743,-9.29721,-12.0543,-5.39164,-1.44839
2023-02-16 17:12:01:584,-0.425515,2.06979,-9.43848,-12.1179,-5.41944,-1.48142
2023-02-16 17:12:01:594,-0.425467,2.09821,-9.4951,-12.189,-5.45842,-1.50317
2023-02-16 17:12:01:604,-0.503378,2.09505,-9.49428,-12.257,-5.50644,-1.51187
2023-02-16 17:12:01:614,-0.618431,2.11274,-9.49568,-12.3271,-5.5577,-1.50905
2023-02-16 17:12:01:624,-0.75431,2.15282,-9.49948,-12.3954,-5.61365,-1.50487
2023-02-16 17:12:01:634,-0.886837,2.17749,-9.44231,-12.4606,-5.6674,-1.49717
2023-02-16 17:12:01:644,-0.874857,2.1281,-9.50735,-12.5203,-5.71528,-1.49174
2023-02-16 17:12:01:654,-0.483328,2.08923,-9.68264,-12.5874,-5.76666,-1.47093
2023-02-16 17:12:01:664,-0.102961,1.93817,-9.64397,-12.6603,-5.84501,-1.40058
2023-02-16 17:12:01:674,-0.150483,1.85116,-9.55206,-12.7697,-5.97358,-1.26552
2023-02-16 17:12:01:684,-0.485011,2.00463,-9.44684,-12.9117,-6.13877,-1.07359
2023-02-16 17:12:01:694,-1.09574,2.17903,-9.26328,-13.0762,-6.3149,-0.845662
2023-02-16 17:12:01:704,-1.90152,2.44492,-9.25232,-13.2505,-6.47105,-0.615187
2023-02-16 17:12:01:714,-2.43248,2.70891,-9.44062,-13.4033,-6.57248,-0.424486
2023-02-16 17:12:01:724,-2.48481,2.85863,-9.65947,-13.5077,-6.61185,-0.289242
2023-02-16 17:12:01:734,-2.30349,2.83893,-9.78153,-13.5504,-6.59572,-0.202641
2023-02-16 17:12:01:744,-2.04562,2.6845,-9.76819,-13.5334,-6.55093,-0.161805
2023-02-16 17:12:01:754,-1.75812,2.45582,-9.71549,-13.4767,-6.49249,-0.154923
2023-02-16 17:12:01:764,-1.41548,2.23795,-9.69063,-13.3953,-6.43859,-0.179594
2023-02-16 17:12:01:774,-1.07368,2.01229,-9.63447,-13.3122,-6.41032,-0.222332
2023-02-16 17:12:01:784,-0.880657,1.82038,-9.45737,-13.2433,-6.41948,-0.266292
2023-02-16 17:12:01:794,-0.848738,1.74166,-9.273,-13.2039,-6.46145,-0.316249
2023-02-16 17:12:01:804,-0.869402,1.76588,-9.2079,-13.1981,-6.51827,-0.371042
2023-02-16 17:12:01:814,-0.884339,1.83907,-9.20827,-13.2213,-6.57404,-0.431071
2023-02-16 17:12:01:824,-0.869038,1.90962,-9.15676,-13.2691,-6.63436,-0.491296
2023-02-16 17:12:01:834,-0.817352,2.00224,-9.11556,-13.3403,-6.68951,-0.550714
2023-02-16 17:12:01:844,-0.721687,2.12225,-9.20522,-13.4303,-6.7325,-0.603136
2023-02-16 17:12:01:854,-0.658593,2.22061,-9.27048,-13.5272,-6.77702,-0.641191
2023-02-16 17:12:01:864,-0.658265,2.27806,-9.26421,-13.6416,-6.82351,-0.660964
2023-02-16 17:12:01:874,-0.682217,2.35406,-9.26426,-13.7694,-6.87308,-0.660284
2023-02-16 17:12:01:884,-0.758783,2.46354,-9.35686,-13.9083,-6.92251,-0.639388
2023-02-16 17:12:01:894,-0.936046,2.60951,-9.47334,-14.041,-6.97021,-0.601993
2023-02-16 17:12:01:904,-1.10489,2.71497,-9.54109,-14.162,-7.01407,-0.557491
2023-02-16 17:12:01:914,-1.18064,2.74432,-9.55781,-14.2666,-7.05099,-0.505068
2023-02-16 17:12:01:924,-1.22316,2.74046,-9.52464,-14.3559,-7.08153,-0.445706
2023-02-16 17:12:01:934,-1.29041,2.72503,-9.49449,-14.435,-7.10779,-0.373385
2023-02-16 17:12:01:944,-1.35242,2.71323,-9.46164,-14.5051,-7.13366,-0.298843
2023-02-16 17:12:01:954,-1.44273,2.70689,-9.43169,-14.5692,-7.15545,-0.221022
2023-02-16 17:12:01:964,-1.55572,2.71904,-9.41984,-14.6249,-7.17094,-0.14191
2023-02-16 17:12:01:974,-1.68601,2.70954,-9.42752,-14.6665,-7.18113,-0.0765791
2023-02-16 17:12:01:984,-1.76086,2.67952,-9.41685,-14.6951,-7.18399,-0.0245368
2023-02-16 17:12:01:994,-1.72101,2.62135,-9.39473,-14.7112,-7.18324,0.00612978
2023-02-16 17:12:02:4,-1.63867,2.55105,-9.34751,-14.7229,-7.18073,0.0244159
2023-02-16 17:12:02:14,-1.5654,2.47719,-9.32315,-14.7378,-7.18661,0.0318648
2023-02-16 17:12:02:24,-1.5122,2.43924,-9.35038,-14.7568,-7.20354,0.0355723
2023-02-16 17:12:02:34,-1.48493,2.46827,-9.42255,-14.7784,-7.22597,0.0235902
2023-02-16 17:12:02:44,-1.46136,2.48729,-9.50503,-14.7981,-7.25092,0.00716439
2023-02-16 17:12:02:54,-1.4462,2.48393,-9.53593,-14.8128,-7.28175,-0.0136161
2023-02-16 17:12:02:64,-1.40419,2.47285,-9.54078,-14.8231,-7.31129,-0.0399044
2023-02-16 17:12:02:74,-1.34669,2.46029,-9.51948,-14.828,-7.34579,-0.0675154
2023-02-16 17:12:02:84,-1.32098,2.43844,-9.4655,-14.8338,-7.38471,-0.0935138
2023-02-16 17:12:02:94,-1.34096,2.43165,-9.3884,-14.8412,-7.42256,-0.123134
2023-02-16 17:12:02:104,-1.32725,2.43057,-9.37304,-14.8512,-7.46144,-0.152565
2023-02-16 17:12:02:114,-1.29444,2.44445,-9.3948,-14.8659,-7.49926,-0.182045
2023-02-16 17:12:02:124,-1.28445,2.468,-9.42813,-14.8842,-7.53727,-0.205785
2023-02-16 17:12:02:134,-1.28889,2.52186,-9.47202,-14.9048,-7.57195,-0.2317
2023-02-16 17:12:02:144,-1.30279,2.53436,-9.4919,-14.9245,-7.60082,-0.253825
2023-02-16 17:12:02:154,-1.31153,2.51973,-9.44508,-14.9416,-7.62411,-0.274494
2023-02-16 17:12:02:164,-1.29796,2.502,-9.35472,-14.9577,-7.63922,-0.289671
2023-02-16 17:12:02:174,-1.24707,2.46887,-9.29697,-14.9738,-7.64467,-0.308001
2023-02-16 17:12:02:184,-1.21855,2.46539,-9.26195,-14.9947,-7.64432,-0.318631
2023-02-16 17:12:02:194,-1.16944,2.48282,-9.25038,-15.0206,-7.64045,-0.32746
2023-02-16 17:12:02:204,-1.15866,2.48662,-9.25757,-15.0473,-7.6364,-0.33111
2023-02-16 17:12:02:214,-1.18393,2.52698,-9.30336,-15.0814,-7.62954,-0.327266
2023-02-16 17:12:02:224,-1.18515,2.56405,-9.3821,-15.115,-7.62351,-0.325035
2023-02-16 17:12:02:234,-1.17931,2.5911,-9.42993,-15.1449,-7.60822,-0.314793
2023-02-16 17:12:02:244,-1.19543,2.62476,-9.45079,-15.1751,-7.59773,-0.302826
2023-02-16 17:12:02:254,-1.20541,2.63943,-9.46041,-15.2033,-7.59118,-0.286555
2023-02-16 17:12:02:264,-1.20147,2.65042,-9.42918,-15.2254,-7.58421,-0.271877
2023-02-16 17:12:02:274,-1.21196,2.64967,-9.38037,-15.248,-7.57871,-0.256838
2023-02-16 17:12:02:284,-1.28682,2.64154,-9.34969,-15.274,-7.57705,-0.241502
2023-02-16 17:12:02:294,-1.38469,2.66473,-9.34059,-15.2975,-7.57902,-0.229002
2023-02-16 17:12:02:304,-1.43101,2.66457,-9.32769,-15.3215,-7.57578,-0.219907
2023-02-16 17:12:02:314,-1.40927,2.67346,-9.32925,-15.3442,-7.56753,-0.218972
2023-02-16 17:12:02:324,-1.34705,2.65814,-9.33527,-15.3648,-7.56004,-0.215537
2023-02-16 17:12:02:334,-1.34292,2.63608,-9.3055,-15.3816,-7.55505,-0.212662
2023-02-16 17:12:02:344,-1.36429,2.6215,-9.29367,-15.4009,-7.55162,-0.211969
2023-02-16 17:12:02:354,-1.3587,2.65082,-9.28495,-15.4228,-7.53975,-0.210424
2023-02-16 17:12:02:364,-1.34893,2.66499,-9.28943,-15.4512,-7.52314,-0.21469
2023-02-16 17:12:02:374,-1.3464,2.67613,-9.31913,-15.4778,-7.50297,-0.217238
2023-02-16 17:12:02:384,-1.31722,2.69411,-9.36068,-15.5086,-7.47937,-0.221762
2023-02-16 17:12:02:394,-1.31145,2.73626,-9.39366,-15.5361,-7.45154,-0.227072
2023-02-16 17:12:02:404,-1.30906,2.7614,-9.40849,-15.5628,-7.42027,-0.231146
2023-02-16 17:12:02:414,-1.29864,2.78033,-9.41901,-15.5834,-7.3845,-0.238637
2023-02-16 17:12:02:424,-1.28113,2.78767,-9.39334,-15.5996,-7.34745,-0.245113
2023-02-16 17:12:02:434,-1.26629,2.76216,-9.36536,-15.6135,-7.30713,-0.252813
2023-02-16 17:12:02:444,-1.23567,2.74028,-9.37685,-15.6234,-7.26559,-0.257585
2023-02-16 17:12:02:454,-1.19764,2.73801,-9.39209,-15.6315,-7.22711,-0.262454
2023-02-16 17:12:02:464,-1.18458,2.7412,-9.38445,-15.6378,-7.18744,-0.262432
2023-02-16 17:12:02:474,-1.16735,2.72929,-9.38149,-15.6453,-7.15077,-0.262775
2023-02-16 17:12:02:484,-1.13748,2.70805,-9.3403,-15.6511,-7.11364,-0.261322
2023-02-16 17:12:02:494,-1.14291,2.69004,-9.30671,-15.6601,-7.07743,-0.25469
2023-02-16 17:12:02:504,-1.15206,2.69272,-9.31159,-15.6694,-7.03966,-0.250387
2023-02-16 17:12:02:514,-1.14335,2.70902,-9.33976,-15.6791,-7.00304,-0.247617
2023-02-16 17:12:02:524,-1.13903,2.71722,-9.35721,-15.6905,-6.96741,-0.243937
2023-02-16 17:12:02:534,-1.14542,2.73299,-9.37158,-15.7005,-6.93752,-0.245464
2023-02-16 17:12:02:544,-1.15362,2.73039,-9.40493,-15.7046,-6.91076,-0.249933
2023-02-16 17:12:02:554,-1.15834,2.73091,-9.39011,-15.7066,-6.88879,-0.257461
2023-02-16 17:12:02:564,-1.15647,2.72375,-9.39326,-15.7075,-6.8704,-0.268427
2023-02-16 17:12:02:574,-1.12693,2.69878,-9.38987,-15.7043,-6.85397,-0.283763
2023-02-16 17:12:02:584,-1.08142,2.69338,-9.38521,-15.6993,-6.84086,-0.29879
2023-02-16 17:12:02:594,-1.06841,2.67223,-9.37371,-15.6961,-6.83371,-0.309475
2023-02-16 17:12:02:604,-1.06471,2.66708,-9.36601,-15.6929,-6.82786,-0.321453
2023-02-16 17:12:02:614,-1.04649,2.65575,-9.38125,-15.6898,-6.8233,-0.327668
2023-02-16 17:12:02:624,-1.05298,2.65215,-9.36996,-15.6847,-6.81572,-0.326254
2023-02-16 17:12:02:634,-1.06428,2.64351,-9.34975,-15.6781,-6.80989,-0.323104
2023-02-16 17:12:02:644,-1.11777,2.63413,-9.34733,-15.6749,-6.80037,-0.317847
2023-02-16 17:12:02:654,-1.1863,2.66288,-9.37875,-15.671,-6.79103,-0.311928
2023-02-16 17:12:02:664,-1.22705,2.66902,-9.3915,-15.6622,-6.78018,-0.308087
2023-02-16 17:12:02:674,-1.26133,2.6748,-9.37834,-15.6507,-6.76169,-0.30425
2023-02-16 17:12:02:684,-1.27289,2.67078,-9.36716,-15.6397,-6.7405,-0.297774
2023-02-16 17:12:02:694,-1.24552,2.67163,-9.38449,-15.6292,-6.71648,-0.293946
2023-02-16 17:12:02:704,-1.22548,2.65817,-9.39527,-15.614,-6.68636,-0.293556
2023-02-16 17:12:02:714,-1.19933,2.63858,-9.36858,-15.5986,-6.65269,-0.29256
2023-02-16 17:12:02:724,-1.13565,2.60375,-9.33499,-15.579,-6.61839,-0.291439
2023-02-16 17:12:02:734,-1.12976,2.58483,-9.30476,-15.5641,-6.57957,-0.288138
2023-02-16 17:12:02:744,-1.1639,2.58453,-9.32047,-15.5469,-6.53721,-0.276119
2023-02-16 17:12:02:754,-1.1717,2.58145,-9.34585,-15.5357,-6.48852,-0.265856
2023-02-16 17:12:02:764,-1.13133,2.58564,-9.37544,-15.5205,-6.42847,-0.251652
2023-02-16 17:12:02:774,-1.0937,2.55313,-9.39311,-15.5032,-6.36192,-0.232485
2023-02-16 17:12:02:784,-1.06129,2.52572,-9.38414,-15.4833,-6.2919,-0.208998
2023-02-16 17:12:02:794,-1.05844,2.52205,-9.37125,-15.4702,-6.21662,-0.180044
2023-02-16 17:12:02:804,-1.06484,2.53087,-9.38137,-15.4584,-6.14222,-0.150263
2023-02-16 17:12:02:814,-1.10109,2.53991,-9.39159,-15.4458,-6.06457,-0.125325
2023-02-16 17:12:02:824,-1.10395,2.57028,-9.37393,-15.4352,-5.9869,-0.0979708
2023-02-16 17:12:02:834,-1.0646,2.60597,-9.37323,-15.4272,-5.90952,-0.0739078
2023-02-16 17:12:02:844,-1.04732,2.63033,-9.39723,-15.4177,-5.83061,-0.0523637
2023-02-16 17:12:02:854,-1.03226,2.66914,-9.42793,-15.4016,-5.74642,-0.0337594
2023-02-16 17:12:02:864,-0.985345,2.64015,-9.40556,-15.3834,-5.66576,-0.0165159
2023-02-16 17:12:02:874,-0.974646,2.60938,-9.34286,-15.3614,-5.5945,-0.00634558
2023-02-16 17:12:02:884,-0.955517,2.60049,-9.34204,-15.3435,-5.53032,0.00134557
2023-02-16 17:12:02:894,-0.921888,2.6097,-9.38691,-15.3267,-5.46835,0.00575177
2023-02-16 17:12:02:904,-0.92388,2.60211,-9.42467,-15.3079,-5.40943,0.00728513
2023-02-16 17:12:02:914,-0.935981,2.58555,-9.38851,-15.2824,-5.36216,0.000541102
2023-02-16 17:12:02:924,-0.919709,2.55092,-9.34801,-15.2572,-5.31758,-0.0102264
2023-02-16 17:12:02:934,-0.889743,2.53718,-9.35409,-15.2411,-5.28582,-0.0268334
2023-02-16 17:12:02:944,-0.873335,2.5508,-9.37486,-15.2284,-5.26143,-0.0456577
2023-02-16 17:12:02:954,-0.847102,2.54364,-9.40107,-15.2203,-5.24459,-0.0718653
2023-02-16 17:12:02:964,-0.785035,2.53807,-9.40957,-15.2155,-5.23331,-0.0983949
2023-02-16 17:12:02:974,-0.722923,2.52712,-9.3945,-15.2131,-5.2317,-0.12606
2023-02-16 17:12:02:984,-0.722302,2.53453,-9.37926,-15.2127,-5.22935,-0.149315
2023-02-16 17:12:02:994,-0.783791,2.563,-9.40505,-15.2115,-5.22938,-0.168236
2023-02-16 17:12:03:4,-0.819055,2.5798,-9.42855,-15.2122,-5.22882,-0.190262
2023-02-16 17:12:03:14,-0.821553,2.60769,-9.47175,-15.2091,-5.22767,-0.214189
2023-02-16 17:12:03:24,-0.782656,2.59613,-9.50748,-15.1992,-5.22606,-0.235119
2023-02-16 17:12:03:34,-0.797269,2.57785,-9.46439,-15.1852,-5.22433,-0.252309
2023-02-16 17:12:03:44,-0.831755,2.55423,-9.41619,-15.169,-5.22242,-0.268459
2023-02-16 17:12:03:54,-0.822766,2.52851,-9.3845,-15.1516,-5.21869,-0.280067
2023-02-16 17:12:03:64,-0.8161,2.51198,-9.38781,-15.1405,-5.21394,-0.29023
2023-02-16 17:12:03:74,-0.862776,2.52006,-9.3967,-15.1344,-5.20803,-0.299462
2023-02-16 17:12:03:84,-0.872702,2.52092,-9.41031,-15.1297,-5.199,-0.306458
2023-02-16 17:12:03:94,-0.869256,2.5159,-9.39442,-15.1233,-5.18597,-0.31702
2023-02-16 17:12:03:104,-0.842422,2.50153,-9.38862,-15.1212,-5.17321,-0.322062
2023-02-16 17:12:03:114,-0.832124,2.5118,-9.3689,-15.1171,-5.15862,-0.320286
2023-02-16 17:12:03:124,-0.844287,2.52136,-9.36395,-15.1182,-5.14232,-0.315552
2023-02-16 17:12:03:134,-0.887326,2.51924,-9.36617,-15.1175,-5.12561,-0.310999
2023-02-16 17:12:03:144,-0.896408,2.52868,-9.37943,-15.1159,-5.10391,-0.312871
2023-02-16 17:12:03:154,-0.903338,2.54431,-9.38959,-15.1158,-5.07394,-0.314713
2023-02-16 17:12:03:164,-0.900137,2.53009,-9.38289,-15.1106,-5.04089,-0.308876
2023-02-16 17:12:03:174,-0.898082,2.5233,-9.34879,-15.1079,-5.00328,-0.304604
2023-02-16 17:12:03:184,-0.905763,2.51068,-9.33241,-15.1074,-4.95966,-0.298646
2023-02-16 17:12:03:194,-0.945519,2.53572,-9.34722,-15.1095,-4.9122,-0.292152
2023-02-16 17:12:03:204,-0.990418,2.57528,-9.37106,-15.113,-4.85882,-0.293383
2023-02-16 17:12:03:214,-1.01279,2.59678,-9.39901,-15.1162,-4.80274,-0.297891
2023-02-16 17:12:03:224,-1.00139,2.60304,-9.42886,-15.1154,-4.73947,-0.302371
2023-02-16 17:12:03:234,-0.978539,2.60847,-9.45542,-15.1148,-4.66863,-0.313399
2023-02-16 17:12:03:244,-0.904889,2.6003,-9.47774,-15.1079,-4.59016,-0.325447
2023-02-16 17:12:03:254,-0.834694,2.59459,-9.47414,-15.0979,-4.50823,-0.33895
2023-02-16 17:12:03:264,-0.770578,2.59391,-9.4727,-15.0847,-4.41864,-0.349658
2023-02-16 17:12:03:274,-0.710926,2.60172,-9.50209,-15.0647,-4.32591,-0.361894
2023-02-16 17:12:03:284,-0.665659,2.5798,-9.46837,-15.0428,-4.24124,-0.374355
2023-02-16 17:12:03:294,-0.644555,2.55172,-9.39963,-15.0269,-4.16103,-0.38511
2023-02-16 17:12:03:304,-0.61975,2.53957,-9.41662,-15.0127,-4.0856,-0.396822
2023-02-16 17:12:03:314,-0.615185,2.55645,-9.44816,-14.9994,-4.01471,-0.408187
2023-02-16 17:12:03:324,-0.614422,2.56108,-9.46105,-14.9829,-3.94824,-0.420054
2023-02-16 17:12:03:334,-0.609432,2.54899,-9.43856,-14.9667,-3.88205,-0.43167
2023-02-16 17:12:03:344,-0.56029,2.54595,-9.41949,-14.9541,-3.81822,-0.444489
2023-02-16 17:12:03:354,-0.513114,2.5307,-9.41537,-14.9397,-3.76102,-0.456444
2023-02-16 17:12:03:364,-0.493561,2.51757,-9.42459,-14.9303,-3.71375,-0.463465
2023-02-16 17:12:03:374,-0.481552,2.5142,-9.42479,-14.9222,-3.66949,-0.470001
2023-02-16 17:12:03:384,-0.489841,2.5196,-9.43105,-14.9116,-3.62653,-0.481653
2023-02-16 17:12:03:394,-0.530986,2.52308,-9.44534,-14.9005,-3.58684,-0.487941
2023-02-16 17:12:03:404,-0.549419,2.5029,-9.43117,-14.8935,-3.55117,-0.494283
2023-02-16 17:12:03:414,-0.556946,2.49486,-9.41189,-14.8864,-3.51578,-0.49925
2023-02-16 17:12:03:424,-0.562283,2.50119,-9.444,-14.8817,-3.48006,-0.50164
2023-02-16 17:12:03:434,-0.547981,2.50675,-9.44134,-14.8773,-3.44688,-0.508738
2023-02-16 17:12:03:444,-0.576183,2.5042,-9.40646,-14.8685,-3.4142,-0.514248
2023-02-16 17:12:03:454,-0.601385,2.4807,-9.37484,-14.8594,-3.38075,-0.522857
2023-02-16 17:12:03:464,-0.576193,2.46751,-9.36188,-14.8539,-3.34412,-0.534707
2023-02-16 17:12:03:474,-0.528948,2.46173,-9.40593,-14.8488,-3.30222,-0.544002
2023-02-16 17:12:03:484,-0.488718,2.48455,-9.50564,-14.8481,-3.2622,-0.553441
2023-02-16 17:12:03:494,-0.419397,2.47931,-9.55536,-14.8415,-3.21889,-0.557312
2023-02-16 17:12:03:504,-0.400588,2.46858,-9.53277,-14.8335,-3.18324,-0.557989
2023-02-16 17:12:03:514,-0.421963,2.47087,-9.49466,-14.8299,-3.15214,-0.550779
2023-02-16 17:12:03:524,-0.454619,2.4874,-9.46998,-14.8265,-3.12408,-0.542338
2023-02-16 17:12:03:534,-0.486804,2.50262,-9.45933,-14.8259,-3.09733,-0.531598
2023-02-16 17:12:03:544,-0.508384,2.5089,-9.43551,-14.8221,-3.06898,-0.523132
2023-02-16 17:12:03:554,-0.534642,2.52941,-9.43462,-14.8247,-3.0471,-0.513927
2023-02-16 17:12:03:564,-0.536089,2.54489,-9.45424,-14.8294,-3.02299,-0.504549
2023-02-16 17:12:03:574,-0.528812,2.54711,-9.45741,-14.827,-2.99403,-0.500948
2023-02-16 17:12:03:584,-0.5226,2.54151,-9.41573,-14.8251,-2.96671,-0.492999
2023-02-16 17:12:03:594,-0.499157,2.52333,-9.39365,-14.8192,-2.94098,-0.486835
2023-02-16 17:12:03:604,-0.467172,2.49969,-9.37317,-14.8147,-2.91284,-0.485522
2023-02-16 17:12:03:614,-0.446912,2.48856,-9.38322,-14.8107,-2.88711,-0.481242
2023-02-16 17:12:03:624,-0.456064,2.49284,-9.38866,-14.81,-2.8655,-0.478997
2023-02-16 17:12:03:634,-0.490148,2.49719,-9.40449,-14.8093,-2.84516,-0.481052
2023-02-16 17:12:03:644,-0.484466,2.49304,-9.43398,-14.8088,-2.82459,-0.479737
2023-02-16 17:12:03:654,-0.456516,2.48818,-9.44269,-14.8064,-2.80407,-0.48438
2023-02-16 17:12:03:664,-0.428648,2.47128,-9.45231,-14.8039,-2.78594,-0.48928
2023-02-16 17:12:03:674,-0.386448,2.45215,-9.46045,-14.8065,-2.76927,-0.495109
2023-02-16 17:12:03:684,-0.349352,2.45961,-9.45178,-14.8115,-2.75382,-0.496314
2023-02-16 17:12:03:694,-0.360192,2.46464,-9.42312,-14.8177,-2.74517,-0.494082
2023-02-16 17:12:03:704,-0.419196,2.49643,-9.41431,-14.8276,-2.72936,-0.488664
2023-02-16 17:12:03:714,-0.443074,2.51691,-9.43989,-14.8417,-2.7053,-0.483587
2023-02-16 17:12:03:724,-0.433931,2.52864,-9.47738,-14.8541,-2.67107,-0.474236
2023-02-16 17:12:03:734,-0.38442,2.54635,-9.50217,-14.8595,-2.62575,-0.460439
2023-02-16 17:12:03:744,-0.374151,2.5227,-9.48179,-14.8564,-2.57528,-0.44187
2023-02-16 17:12:03:754,-0.428764,2.50123,-9.43493,-14.8476,-2.52466,-0.419227
2023-02-16 17:12:03:764,-0.464539,2.52301,-9.44684,-14.8442,-2.4629,-0.391878
2023-02-16 17:12:03:774,-0.461183,2.53459,-9.49473,-14.8348,-2.39224,-0.360112
2023-02-16 17:12:03:784,-0.438292,2.52071,-9.45546,-14.8224,-2.30871,-0.32363
2023-02-16 17:12:03:794,-0.48889,2.50997,-9.40083,-14.8117,-2.21051,-0.283991
2023-02-16 17:12:03:804,-0.47917,2.52618,-9.40978,-14.8029,-2.10545,-0.240338
2023-02-16 17:12:03:814,-0.444315,2.54624,-9.41064,-14.7912,-1.98804,-0.196232
2023-02-16 17:12:03:824,-0.390133,2.54067,-9.39795,-14.777,-1.85493,-0.150714
2023-02-16 17:12:03:834,-0.338957,2.51707,-9.39277,-14.7652,-1.71031,-0.0984005
2023-02-16 17:12:03:844,-0.311318,2.51295,-9.39953,-14.7538,-1.55252,-0.0428301
2023-02-16 17:12:03:854,-0.354639,2.54795,-9.4318,-14.7404,-1.38382,0.0235145
2023-02-16 17:12:03:864,-0.431177,2.57811,-9.45696,-14.7187,-1.19316,0.0951202
2023-02-16 17:12:03:874,-0.488705,2.56983,-9.45575,-14.689,-0.980626,0.167074
2023-02-16 17:12:03:884,-0.460249,2.53678,-9.40914,-14.6507,-0.744384,0.234755
2023-02-16 17:12:03:894,-0.392321,2.46743,-9.34084,-14.6073,-0.484299,0.303637
2023-02-16 17:12:03:904,-0.418093,2.4303,-9.25719,-14.5595,-0.201241,0.3746
2023-02-16 17:12:03:914,-0.443546,2.41382,-9.21018,-14.5097,0.107942,0.446072
2023-02-16 17:12:03:924,-0.437009,2.37069,-9.18958,-14.4687,0.44874,0.515389
2023-02-16 17:12:03:934,-0.424164,2.35817,-9.20304,-14.4271,0.821316,0.579817
2023-02-16 17:12:03:944,-0.33872,2.3863,-9.21843,-14.3869,1.2327,0.63724
2023-02-16 17:12:03:954,-0.261997,2.38658,-9.18719,-14.3426,1.6729,0.688813
2023-02-16 17:12:03:964,-0.295365,2.37378,-9.11998,-14.2964,2.13898,0.735952
2023-02-16 17:12:03:974,-0.287119,2.34077,-9.07624,-14.2519,2.63533,0.768949
2023-02-16 17:12:03:984,-0.158815,2.31392,-9.05179,-14.2107,3.16179,0.792964
2023-02-16 17:12:03:994,-0.054258,2.27167,-9.03335,-14.1685,3.72319,0.806865
2023-02-16 17:12:04:4,0.0684098,2.20947,-8.98559,-14.1287,4.31317,0.813551
2023-02-16 17:12:04:14,0.185173,2.20388,-8.92697,-14.0962,4.92618,0.809174
2023-02-16 17:12:04:24,0.255283,2.20884,-8.87132,-14.0731,5.56097,0.7936
2023-02-16 17:12:04:34,0.320918,2.22886,-8.9195,-14.063,6.21671,0.761743
2023-02-16 17:12:04:44,0.425508,2.26859,-9.0125,-14.0585,6.8939,0.710898
2023-02-16 17:12:04:54,0.596447,2.23891,-9.04513,-14.0545,7.58578,0.643809
2023-02-16 17:12:04:64,0.818346,2.16934,-8.96229,-14.0501,8.297,0.563534
2023-02-16 17:12:04:74,1.06049,2.08688,-8.81678,-14.0566,9.02983,0.471352
2023-02-16 17:12:04:84,1.35486,2.01952,-8.7213,-14.0758,9.77669,0.377717
2023-02-16 17:12:04:94,1.58977,2.01552,-8.68284,-14.1091,10.5373,0.292693
2023-02-16 17:12:04:104,1.61173,2.02999,-8.62673,-14.1476,11.3168,0.212197
2023-02-16 17:12:04:114,1.4653,2.0792,-8.55817,-14.2045,12.1122,0.127714
2023-02-16 17:12:04:124,1.3952,2.12341,-8.54898,-14.2744,12.9221,0.0257747
2023-02-16 17:12:04:134,1.55507,2.16065,-8.73953,-14.364,13.7509,-0.0924999
2023-02-16 17:12:04:144,1.66133,2.30638,-8.96585,-14.4426,14.604,-0.220899
2023-02-16 17:12:04:154,1.78674,2.32106,-8.97226,-14.5,15.4763,-0.370095
2023-02-16 17:12:04:164,2.1112,2.19721,-8.83397,-14.547,16.3659,-0.539931
2023-02-16 17:12:04:174,2.53891,2.10291,-8.67394,-14.602,17.2646,-0.720731
2023-02-16 17:12:04:184,2.88083,2.07027,-8.4363,-14.6661,18.1667,-0.9016
2023-02-16 17:12:04:194,3.06315,2.01169,-8.24719,-14.745,19.0666,-1.07418
2023-02-16 17:12:04:204,3.19826,2.03816,-8.17089,-14.8478,19.9712,-1.24731
2023-02-16 17:12:04:214,3.26214,2.09059,-8.1121,-14.9607,20.8919,-1.4194
2023-02-16 17:12:04:224,3.30338,2.06569,-8.0375,-15.0923,21.8258,-1.59816
2023-02-16 17:12:04:234,3.53106,1.99026,-8.05969,-15.2435,22.7583,-1.7874
2023-02-16 17:12:04:244,3.96556,1.9761,-8.25626,-15.4269,23.6871,-1.98406
2023-02-16 17:12:04:254,4.33612,2.09051,-8.49427,-15.6093,24.598,-2.17614
2023-02-16 17:12:04:264,4.4623,2.18426,-8.55976,-15.7789,25.4903,-2.35966
2023-02-16 17:12:04:274,4.51155,2.18808,-8.45293,-15.9399,26.3596,-2.54179
2023-02-16 17:12:04:284,4.5137,2.18726,-8.22709,-16.102,27.2039,-2.72208
2023-02-16 17:12:04:294,4.44371,2.18166,-8.01523,-16.2786,28.027,-2.91239
2023-02-16 17:12:04:304,4.36776,2.16498,-7.82388,-16.4899,28.8179,-3.125
2023-02-16 17:12:04:314,4.41122,2.14958,-7.73498,-16.7441,29.5833,-3.36975
2023-02-16 17:12:04:324,4.76041,2.21557,-7.83635,-17.0342,30.3283,-3.64382
2023-02-16 17:12:04:334,5.2816,2.30383,-8.02304,-17.337,31.0545,-3.93137
2023-02-16 17:12:04:344,5.74919,2.38129,-8.03643,-17.6189,31.7553,-4.20198
2023-02-16 17:12:04:354,5.91788,2.42636,-7.80776,-17.8643,32.4394,-4.43919
2023-02-16 17:12:04:364,5.72739,2.43754,-7.40775,-18.0965,33.1195,-4.6539
2023-02-16 17:12:04:374,5.45836,2.43811,-7.13307,-18.3526,33.7916,-4.87052
2023-02-16 17:12:04:384,5.46129,2.53569,-7.1215,-18.65,34.4625,-5.10786
2023-02-16 17:12:04:394,5.77924,2.6386,-7.33959,-18.9762,35.1152,-5.36637
2023-02-16 17:12:04:404,6.13852,2.7751,-7.53004,-19.3102,35.745,-5.63404
2023-02-16 17:12:04:414,6.48275,2.88105,-7.63674,-19.6282,36.34,-5.90085
2023-02-16 17:12:04:424,6.73436,2.95498,-7.69135,-19.9335,36.8993,-6.1632
2023-02-16 17:12:04:434,6.87178,3.04051,-7.71059,-20.2134,37.4239,-6.4155
2023-02-16 17:12:04:444,7.01947,3.09264,-7.696,-20.4639,37.922,-6.65422
2023-02-16 17:12:04:454,7.12587,3.12622,-7.54827,-20.684,38.391,-6.88372
2023-02-16 17:12:04:464,7.14598,3.05476,-7.18048,-20.8848,38.8339,-7.09741
2023-02-16 17:12:04:474,7.24147,2.96856,-6.87791,-21.1034,39.2453,-7.31328
2023-02-16 17:12:04:484,7.56065,2.99912,-6.93544,-21.3404,39.6259,-7.5168
2023-02-16 17:12:04:494,7.79781,3.20054,-7.17258,-21.5694,39.9732,-7.69202
2023-02-16 17:12:04:504,7.89221,3.33712,-7.38819,-21.7639,40.3008,-7.84051
2023-02-16 17:12:04:514,7.98412,3.39404,-7.5179,-21.9042,40.6019,-7.94604
2023-02-16 17:12:04:524,8.00257,3.37909,-7.48353,-21.9942,40.876,-8.01315
2023-02-16 17:12:04:534,7.95555,3.29539,-7.40706,-22.036,41.1302,-8.04192
2023-02-16 17:12:04:544,7.97306,3.26867,-7.40134,-22.0426,41.3664,-8.03912
2023-02-16 17:12:04:554,8.04887,3.30377,-7.40881,-22.0018,41.579,-7.9977
2023-02-16 17:12:04:564,8.0016,3.29842,-7.26764,-21.9041,41.7702,-7.91323
2023-02-16 17:12:04:574,7.74743,3.21104,-7.00387,-21.7704,41.9448,-7.80272
2023-02-16 17:12:04:584,7.59296,3.11598,-6.82778,-21.6354,42.102,-7.68869
2023-02-16 17:12:04:594,7.84845,3.01167,-6.85435,-21.5196,42.2329,-7.57677
2023-02-16 17:12:04:604,8.18853,2.98153,-6.97607,-21.3925,42.3275,-7.43635
2023-02-16 17:12:04:614,8.2584,2.94457,-7.01062,-21.2432,42.376,-7.25561
2023-02-16 17:12:04:624,8.18223,2.91389,-6.97136,-21.0736,42.3741,-7.04544
2023-02-16 17:12:04:634,8.16206,2.8756,-6.93598,-20.8918,42.3251,-6.80845
2023-02-16 17:12:04:644,8.02114,2.86372,-6.86896,-20.7053,42.2311,-6.55467
2023-02-16 17:12:04:654,7.88771,2.891,-6.83622,-20.524,42.0858,-6.29363
2023-02-16 17:12:04:664,7.7424,2.92104,-6.88362,-20.3455,41.8978,-6.028
2023-02-16 17:12:04:674,7.54357,2.9118,-7.01379,-20.1739,41.6647,-5.76019
2023-02-16 17:12:04:684,7.32001,2.93307,-7.11175,-20.0071,41.3863,-5.50386
2023-02-16 17:12:04:694,7.19826,2.89549,-7.18487,-19.8481,41.0692,-5.26993
2023-02-16 17:12:04:704,7.28283,2.85769,-7.29854,-19.6929,40.7154,-5.05445
2023-02-16 17:12:04:714,7.43845,2.86223,-7.3841,-19.5381,40.3277,-4.85078
2023-02-16 17:12:04:724,7.51336,2.8743,-7.39144,-19.3651,39.8914,-4.64595
2023-02-16 17:12:04:734,7.44429,2.85713,-7.35988,-19.1922,39.4069,-4.44518
2023-02-16 17:12:04:744,7.22113,2.83641,-7.3516,-19.0235,38.8573,-4.25322
2023-02-16 17:12:04:754,7.05968,2.80967,-7.38906,-18.8727,38.2373,-4.08453
2023-02-16 17:12:04:764,7.12901,2.76384,-7.47185,-18.7302,37.5569,-3.92694
2023-02-16 17:12:04:774,7.33747,2.70901,-7.5868,-18.5937,36.821,-3.77523
2023-02-16 17:12:04:784,7.42887,2.69822,-7.70059,-18.4524,36.0345,-3.61627
2023-02-16 17:12:04:794,7.2526,2.78511,-7.77604,-18.3004,35.1953,-3.44879
2023-02-16 17:12:04:804,6.87471,2.85418,-7.83162,-18.1413,34.2942,-3.28939
2023-02-16 17:12:04:814,6.50256,2.80319,-7.84257,-17.9724,33.3354,-3.13892
2023-02-16 17:12:04:824,6.17687,2.73644,-7.84979,-17.8055,32.3151,-3.00272
2023-02-16 17:12:04:834,6.12375,2.63165,-7.88889,-17.6401,31.2502,-2.88427
2023-02-16 17:12:04:844,6.36168,2.47549,-7.95356,-17.4684,30.1479,-2.7601
2023-02-16 17:12:04:854,6.4176,2.35944,-7.99381,-17.2806,29.017,-2.59719
2023-02-16 17:12:04:864,6.02736,2.36076,-7.88328,-17.0766,27.843,-2.40643
2023-02-16 17:12:04:874,5.4099,2.33887,-7.67212,-16.864,26.6311,-2.19292
2023-02-16 17:12:04:884,4.66347,2.24278,-7.52053,-16.6579,25.3882,-1.9657
2023-02-16 17:12:04:894,3.86911,2.24047,-7.4947,-16.4799,24.1273,-1.7458
2023-02-16 17:12:04:904,3.28223,2.24171,-7.56983,-16.3349,22.8673,-1.56484
2023-02-16 17:12:04:914,3.15586,2.22263,-7.69802,-16.2285,21.6205,-1.42432
2023-02-16 17:12:04:924,3.37757,2.21358,-7.8639,-16.1463,20.3803,-1.30209
2023-02-16 17:12:04:934,3.4899,2.19875,-8.067,-16.0767,19.1345,-1.1743
2023-02-16 17:12:04:944,3.16046,2.29042,-8.21952,-16.0121,17.8718,-1.03529
2023-02-16 17:12:04:954,2.56729,2.33589,-8.2143,-15.9371,16.5927,-0.887101
2023-02-16 17:12:04:964,1.8247,2.28229,-8.09509,-15.8564,15.3119,-0.735032
2023-02-16 17:12:04:974,1.1103,2.18029,-7.94414,-15.7849,14.0472,-0.608524
2023-02-16 17:12:04:984,0.727397,2.07335,-7.8793,-15.7505,12.8199,-0.527197
2023-02-16 17:12:04:994,0.890215,2.0326,-7.93176,-15.757,11.6353,-0.487809
2023-02-16 17:12:05:4,1.40979,2.04755,-8.07181,-15.8049,10.4754,-0.466764
2023-02-16 17:12:05:14,1.62687,2.21844,-8.32141,-15.8813,9.31526,-0.429499
2023-02-16 17:12:05:24,1.26083,2.43452,-8.58762,-15.9554,8.14673,-0.371012
2023-02-16 17:12:05:34,0.60724,2.52649,-8.75469,-16.0127,6.99365,-0.290705
2023-02-16 17:12:05:44,-0.0652033,2.5074,-8.78946,-16.0549,5.87448,-0.208043
2023-02-16 17:12:05:54,-0.541122,2.38633,-8.75369,-16.0811,4.8151,-0.135166
2023-02-16 17:12:05:64,-0.759963,2.24752,-8.69512,-16.0995,3.82475,-0.0718557
2023-02-16 17:12:05:74,-0.846875,2.18665,-8.56714,-16.1205,2.89924,-0.0275452
2023-02-16 17:12:05:84,-0.789298,2.1655,-8.46586,-16.1596,2.03377,0.00608034
2023-02-16 17:12:05:94,-0.697516,2.26573,-8.46943,-16.2283,1.20911,0.0344742
2023-02-16 17:12:05:104,-0.726802,2.38246,-8.59161,-16.3208,0.417734,0.0714748
2023-02-16 17:12:05:114,-0.960065,2.50755,-8.75091,-16.4268,-0.339372,0.120597
2023-02-16 17:12:05:124,-1.34242,2.61864,-8.88674,-16.5349,-1.05557,0.179212
2023-02-16 17:12:05:134,-1.72268,2.70855,-8.99514,-16.6388,-1.70673,0.235319
2023-02-16 17:12:05:144,-1.92084,2.75661,-9.08275,-16.7277,-2.27977,0.275952
2023-02-16 17:12:05:154,-1.89256,2.77826,-9.11286,-16.8072,-2.77545,0.303787
2023-02-16 17:12:05:164,-1.80125,2.79623,-9.11788,-16.8687,-3.20964,0.316381
2023-02-16 17:12:05:174,-1.6899,2.79705,-9.13276,-16.9207,-3.59664,0.319192
2023-02-16 17:12:05:184,-1.63888,2.83402,-9.1851,-16.9698,-3.94693,0.309772
2023-02-16 17:12:05:194,-1.62562,2.87932,-9.24739,-17.0084,-4.26175,0.294635
2023-02-16 17:12:05:204,-1.63924,2.86985,-9.26944,-17.0285,-4.54099,0.268434
2023-02-16 17:12:05:214,-1.68588,2.82063,-9.2239,-17.0352,-4.7855,0.232388
2023-02-16 17:12:05:224,-1.70133,2.76297,-9.14181,-17.0368,-4.9982,0.191071
2023-02-16 17:12:05:234,-1.62331,2.70456,-9.08048,-17.0373,-5.18192,0.134627
2023-02-16 17:12:05:244,-1.59358,2.68689,-9.04484,-17.045,-5.34513,0.0702286
2023-02-16 17:12:05:254,-1.55369,2.69056,-8.99828,-17.0652,-5.49608,-0.00885235
2023-02-16 17:12:05:264,-1.44696,2.71527,-9.04293,-17.0977,-5.63604,-0.101225
2023-02-16 17:12:05:274,-1.33751,2.79344,-9.1533,-17.1395,-5.76987,-0.200854
2023-02-16 17:12:05:284,-1.24273,2.87146,-9.28007,-17.184,-5.89342,-0.302903
2023-02-16 17:12:05:294,-1.16583,2.90309,-9.37258,-17.2232,-6.0089,-0.401224
2023-02-16 17:12:05:304,-1.16186,2.90367,-9.38,-17.2534,-6.11643,-0.498549
2023-02-16 17:12:05:314,-1.22219,2.87763,-9.31384,-17.2749,-6.21302,-0.591056
2023-02-16 17:12:05:324,-1.31365,2.85541,-9.23592,-17.2945,-6.30275,-0.684717
2023-02-16 17:12:05:334,-1.40002,2.8742,-9.18617,-17.3127,-6.38553,-0.789994
2023-02-16 17:12:05:344,-1.41987,2.88236,-9.1662,-17.3355,-6.46378,-0.904661
2023-02-16 17:12:05:354,-1.37975,2.89485,-9.18997,-17.3661,-6.53846,-1.03095
2023-02-16 17:12:05:364,-1.24046,2.9344,-9.26806,-17.4049,-6.60751,-1.16323
2023-02-16 17:12:05:374,-1.04225,2.9786,-9.37942,-17.4438,-6.6737,-1.29088
2023-02-16 17:12:05:384,-0.895167,3.00402,-9.44877,-17.481,-6.73886,-1.40547
2023-02-16 17:12:05:394,-0.834526,2.98671,-9.4303,-17.5124,-6.80414,-1.50484
2023-02-16 17:12:05:404,-0.928465,2.9667,-9.33768,-17.5384,-6.86748,-1.58733
2023-02-16 17:12:05:414,-1.05699,2.96699,-9.28278,-17.5686,-6.9381,-1.6693
2023-02-16 17:12:05:424,-1.1202,2.99198,-9.31397,-17.6027,-7.0069,-1.7412
2023-02-16 17:12:05:434,-1.16562,3.02933,-9.35443,-17.6319,-7.07362,-1.81255
2023-02-16 17:12:05:444,-1.21828,3.02924,-9.38374,-17.6529,-7.13478,-1.88147
2023-02-16 17:12:05:454,-1.20973,3.05893,-9.40038,-17.665,-7.18529,-1.94794
2023-02-16 17:12:05:464,-1.12738,3.04153,-9.41601,-17.6682,-7.23045,-2.01058
2023-02-16 17:12:05:474,-1.05421,2.97897,-9.36264,-17.6635,-7.27253,-2.06311
2023-02-16 17:12:05:484,-1.06928,2.92904,-9.26606,-17.655,-7.31369,-2.10361
2023-02-16 17:12:05:494,-1.15953,2.91052,-9.2182,-17.6465,-7.35416,-2.14432
2023-02-16 17:12:05:504,-1.29921,2.92937,-9.21968,-17.6461,-7.39912,-2.18322
2023-02-16 17:12:05:514,-1.44157,2.97948,-9.23232,-17.6451,-7.44888,-2.23408
2023-02-16 17:12:05:524,-1.44575,2.99609,-9.2503,-17.6433,-7.49913,-2.2938
2023-02-16 17:12:05:534,-1.3234,2.98397,-9.28032,-17.6351,-7.54962,-2.36302
2023-02-16 17:12:05:544,-1.17936,2.95667,-9.29379,-17.6209,-7.59936,-2.42818
2023-02-16 17:12:05:554,-1.04482,2.91557,-9.28768,-17.6122,-7.64583,-2.4865
2023-02-16 17:12:05:564,-0.987711,2.87029,-9.24852,-17.6059,-7.69385,-2.53128
2023-02-16 17:12:05:574,-1.07357,2.85988,-9.21998,-17.6033,-7.74816,-2.5697
2023-02-16 17:12:05:584,-1.19669,2.91414,-9.22579,-17.6075,-7.81207,-2.60734
2023-02-16 17:12:05:594,-1.28972,2.96672,-9.24261,-17.611,-7.88017,-2.64789
2023-02-16 17:12:05:604,-1.31685,2.9871,-9.21848,-17.6144,-7.94764,-2.6913
2023-02-16 17:12:05:614,-1.30692,2.97957,-9.19769,-17.6166,-8.01523,-2.7357
2023-02-16 17:12:05:624,-1.21882,2.95947,-9.20987,-17.6208,-8.0777,-2.78089
2023-02-16 17:12:05:634,-1.11646,2.91873,-9.22705,-17.6236,-8.13764,-2.81627
2023-02-16 17:12:05:644,-1.06377,2.90297,-9.21656,-17.6278,-8.19692,-2.83803
2023-02-16 17:12:05:654,-1.08681,2.90597,-9.24206,-17.637,-8.2561,-2.84997
2023-02-16 17:12:05:664,-1.20271,2.95205,-9.27875,-17.6514,-8.32079,-2.85057
2023-02-16 17:12:05:674,-1.39311,2.99896,-9.28747,-17.6661,-8.38614,-2.8502
2023-02-16 17:12:05:684,-1.55556,3.02553,-9.27333,-17.6758,-8.45426,-2.85483
2023-02-16 17:12:05:694,-1.60702,3.01263,-9.2603,-17.6781,-8.51966,-2.8712
2023-02-16 17:12:05:704,-1.56631,3.00057,-9.25695,-17.6783,-8.58276,-2.89181
2023-02-16 17:12:05:714,-1.48365,2.99542,-9.24278,-17.6772,-8.64624,-2.91686
2023-02-16 17:12:05:724,-1.43773,2.96721,-9.23492,-17.6755,-8.71159,-2.93947
2023-02-16 17:12:05:734,-1.43039,2.96272,-9.22461,-17.6747,-8.76886,-2.96059
2023-02-16 17:12:05:744,-1.43952,2.99366,-9.22588,-17.6713,-8.82243,-2.97636
2023-02-16 17:12:05:754,-1.46035,2.97952,-9.23801,-17.6612,-8.87462,-2.99369
2023-02-16 17:12:05:764,-1.5138,2.96009,-9.23776,-17.6502,-8.91501,-3.00556
2023-02-16 17:12:05:774,-1.52934,2.95736,-9.22792,-17.6359,-8.94745,-3.01666
2023-02-16 17:12:05:784,-1.53394,2.93451,-9.22801,-17.6183,-8.97121,-3.02564
2023-02-16 17:12:05:794,-1.54093,2.91074,-9.17035,-17.5993,-8.99231,-3.03545
2023-02-16 17:12:05:804,-1.52461,2.87624,-9.10129,-17.5842,-9.01847,-3.04466
2023-02-16 17:12:05:814,-1.49443,2.84151,-9.07505,-17.5743,-9.04301,-3.0551
2023-02-16 17:12:05:824,-1.50831,2.8635,-9.07184,-17.5728,-9.07135,-3.06054
2023-02-16 17:12:05:834,-1.53555,2.89904,-9.15915,-17.5791,-9.1044,-3.06633
2023-02-16 17:12:05:844,-1.52659,2.94912,-9.25591,-17.5854,-9.13504,-3.07346
2023-02-16 17:12:05:854,-1.49249,2.96147,-9.32077,-17.5884,-9.16675,-3.0841
2023-02-16 17:12:05:864,-1.45009,2.94019,-9.32744,-17.5856,-9.19874,-3.09029
2023-02-16 17:12:05:874,-1.39341,2.90601,-9.27202,-17.577,-9.23028,-3.08717
2023-02-16 17:12:05:884,-1.35036,2.88164,-9.20133,-17.5718,-9.26447,-3.08103
2023-02-16 17:12:05:894,-1.35301,2.88383,-9.17697,-17.5735,-9.30269,-3.06279
2023-02-16 17:12:05:904,-1.49055,2.94248,-9.20447,-17.5852,-9.34809,-3.03961
2023-02-16 17:12:05:914,-1.66252,3.01095,-9.24653,-17.594,-9.40192,-3.02289
2023-02-16 17:12:05:924,-1.79021,3.04963,-9.26511,-17.5989,-9.46129,-3.01278
2023-02-16 17:12:05:934,-1.83809,3.05911,-9.2494,-17.5992,-9.52265,-3.01493
2023-02-16 17:12:05:944,-1.79078,3.0219,-9.20199,-17.5849,-9.57946,-3.03113
2023-02-16 17:12:05:954,-1.69874,2.96117,-9.15037,-17.5679,-9.63909,-3.05354
2023-02-16 17:12:05:964,-1.60636,2.91618,-9.12717,-17.5516,-9.6978,-3.07869
2023-02-16 17:12:05:974,-1.53335,2.90747,-9.14891,-17.5402,-9.76489,-3.10537
2023-02-16 17:12:05:984,-1.51059,2.91656,-9.19577,-17.5289,-9.83423,-3.12882
2023-02-16 17:12:05:994,-1.55417,2.92978,-9.23702,-17.5175,-9.90951,-3.15083
2023-02-16 17:12:06:4,-1.5907,2.9366,-9.23473,-17.5009,-9.98393,-3.17264
2023-02-16 17:12:06:14,-1.57305,2.90947,-9.21847,-17.4824,-10.0616,-3.19088
2023-02-16 17:12:06:24,-1.49269,2.87805,-9.20064,-17.4681,-10.1421,-3.21155
2023-02-16 17:12:06:34,-1.41296,2.86239,-9.20959,-17.4598,-10.2255,-3.22693
2023-02-16 17:12:06:44,-1.3553,2.88143,-9.23899,-17.455,-10.3185,-3.23468
2023-02-16 17:12:06:54,-1.36152,2.92261,-9.26242,-17.4505,-10.4193,-3.22832
2023-02-16 17:12:06:64,-1.43157,2.9609,-9.27365,-17.4493,-10.5263,-3.21454
2023-02-16 17:12:06:74,-1.48146,2.95682,-9.28026,-17.4476,-10.639,-3.19627
2023-02-16 17:12:06:84,-1.48202,2.96455,-9.29531,-17.4394,-10.763,-3.18135
2023-02-16 17:12:06:94,-1.46477,2.95031,-9.32349,-17.4263,-10.8956,-3.16115
2023-02-16 17:12:06:104,-1.45607,2.9288,-9.28599,-17.4045,-11.04,-3.13534
2023-02-16 17:12:06:114,-1.41318,2.89094,-9.21888,-17.3871,-11.1988,-3.10741
2023-02-16 17:12:06:124,-1.43374,2.89081,-9.21396,-17.3716,-11.3758,-3.06774
2023-02-16 17:12:06:134,-1.54852,2.93268,-9.24543,-17.3591,-11.5624,-3.02453
2023-02-16 17:12:06:144,-1.65207,2.96002,-9.27055,-17.3449,-11.7568,-2.97485
2023-02-16 17:12:06:154,-1.65134,2.9776,-9.2992,-17.3247,-11.9549,-2.92613
2023-02-16 17:12:06:164,-1.54932,2.98453,-9.30996,-17.3025,-12.1658,-2.87419
2023-02-16 17:12:06:174,-1.51472,2.96836,-9.27811,-17.2745,-12.3887,-2.8131
2023-02-16 17:12:06:184,-1.53743,2.92883,-9.21599,-17.2474,-12.6305,-2.7476
2023-02-16 17:12:06:194,-1.64085,2.91994,-9.17818,-17.2226,-12.894,-2.67568
2023-02-16 17:12:06:204,-1.80549,2.9297,-9.16045,-17.1977,-13.1806,-2.60804
2023-02-16 17:12:06:214,-1.87745,2.90421,-9.13571,-17.1654,-13.4923,-2.54549
2023-02-16 17:12:06:224,-1.87208,2.84396,-9.09009,-17.1345,-13.8184,-2.48163
2023-02-16 17:12:06:234,-1.80406,2.78905,-9.04101,-17.1036,-14.1597,-2.41608
2023-02-16 17:12:06:244,-1.70491,2.73615,-9.03359,-17.0791,-14.5159,-2.34408
2023-02-16 17:12:06:254,-1.66887,2.73131,-9.08101,-17.0643,-14.8897,-2.25904
2023-02-16 17:12:06:264,-1.77114,2.75058,-9.09206,-17.0535,-15.2891,-2.16273
2023-02-16 17:12:06:274,-1.96803,2.76952,-9.0987,-17.0405,-15.7116,-2.05708
2023-02-16 17:12:06:284,-2.12344,2.7735,-9.05303,-17.0282,-16.1537,-1.94645
2023-02-16 17:12:06:294,-2.20619,2.71671,-8.96918,-17.0102,-16.6155,-1.83118
2023-02-16 17:12:06:304,-2.23042,2.64323,-8.88042,-16.9918,-17.0947,-1.71488
2023-02-16 17:12:06:314,-2.14945,2.60248,-8.75429,-16.9819,-17.5911,-1.59033
2023-02-16 17:12:06:324,-2.02202,2.51191,-8.68481,-16.9854,-18.1041,-1.44952
2023-02-16 17:12:06:334,-1.96017,2.46477,-8.66905,-17.0082,-18.6411,-1.28413
2023-02-16 17:12:06:344,-2.13508,2.54564,-8.63055,-17.0558,-19.2123,-1.095
2023-02-16 17:12:06:354,-2.48053,2.65485,-8.65915,-17.1196,-19.8116,-0.890532
2023-02-16 17:12:06:364,-2.7827,2.73732,-8.68733,-17.1901,-20.4384,-0.677207
2023-02-16 17:12:06:374,-2.98066,2.76072,-8.65016,-17.2515,-21.0794,-0.462337
2023-02-16 17:12:06:384,-2.96757,2.73292,-8.55595,-17.3112,-21.7291,-0.244983
2023-02-16 17:12:06:394,-2.77388,2.67199,-8.48421,-17.3748,-22.3891,-0.014325
2023-02-16 17:12:06:404,-2.63447,2.65345,-8.47315,-17.4479,-23.0635,0.239482
2023-02-16 17:12:06:414,-2.67987,2.66494,-8.45772,-17.5344,-23.7675,0.523366
2023-02-16 17:12:06:424,-2.93575,2.65531,-8.38293,-17.6345,-24.5042,0.838873
2023-02-16 17:12:06:434,-3.29089,2.64531,-8.24461,-17.7415,-25.267,1.172
2023-02-16 17:12:06:444,-3.58404,2.60889,-8.07573,-17.8573,-26.0551,1.52202
2023-02-16 17:12:06:454,-3.71312,2.56048,-7.96384,-17.9823,-26.8489,1.88277
2023-02-16 17:12:06:464,-3.62213,2.51311,-7.93639,-18.1176,-27.6544,2.25765
