Timestamp,Acceleration_x,Acceleration_y,Acceleration_z,roll,pitch,yaw
2023-02-16 21:31:20:143,-0.928903,3.0361,-9.15927,-18.5148,-5.89659,102.256
2023-02-16 21:31:20:151,-0.992748,3.07383,-9.19125,-18.5297,-5.89608,102.268
2023-02-16 21:31:20:161,-1.0449,3.09659,-9.20925,-18.5475,-5.89565,102.285
2023-02-16 21:31:20:171,-1.08968,3.1353,-9.22886,-18.5679,-5.89854,102.301
2023-02-16 21:31:20:182,-1.11672,3.12972,-9.23366,-18.5826,-5.90093,102.317
2023-02-16 21:31:20:192,-1.12729,3.11846,-9.25882,-18.5961,-5.90384,102.333
2023-02-16 21:31:20:201,-1.13409,3.10991,-9.30545,-18.605,-5.91055,102.344
2023-02-16 21:31:20:212,-1.16349,3.10686,-9.34611,-18.6119,-5.92454,102.35
2023-02-16 21:31:20:221,-1.21636,3.10244,-9.35527,-18.6122,-5.94234,102.357
2023-02-16 21:31:20:231,-1.25991,3.08741,-9.30662,-18.6087,-5.96238,102.36
2023-02-16 21:31:20:241,-1.26115,3.04836,-9.22363,-18.6004,-5.97928,102.359
2023-02-16 21:31:20:251,-1.25286,3.01557,-9.15254,-18.5913,-5.98605,102.357
2023-02-16 21:31:20:261,-1.20345,2.99281,-9.11244,-18.5844,-5.9845,102.351
2023-02-16 21:31:20:271,-1.1414,2.99827,-9.13601,-18.5808,-5.97706,102.34
2023-02-16 21:31:20:282,-1.08313,3.06211,-9.20762,-18.5839,-5.9672,102.328
2023-02-16 21:31:20:291,-1.06245,3.10987,-9.25312,-18.585,-5.95429,102.318
2023-02-16 21:31:20:302,-1.09253,3.11574,-9.26996,-18.5836,-5.94517,102.309
2023-02-16 21:31:20:311,-1.14535,3.11879,-9.28704,-18.5773,-5.9366,102.303
2023-02-16 21:31:20:321,-1.17375,3.11894,-9.27627,-18.563,-5.91987,102.29
2023-02-16 21:31:20:331,-1.13194,3.07567,-9.1946,-18.5419,-5.89103,102.272
2023-02-16 21:31:20:342,-0.999385,2.99503,-9.06443,-18.5125,-5.85189,102.241
2023-02-16 21:31:20:352,-0.862706,2.93345,-8.98098,-18.4917,-5.80238,102.203
2023-02-16 21:31:20:362,-0.777833,2.93578,-8.97522,-18.4814,-5.75384,102.164
2023-02-16 21:31:20:372,-0.778743,2.98759,-9.03334,-18.4958,-5.70824,102.13
2023-02-16 21:31:20:382,-0.833907,3.10233,-9.12196,-18.5222,-5.67165,102.102
2023-02-16 21:31:20:392,-0.880461,3.19465,-9.22776,-18.5611,-5.64354,102.077
2023-02-16 21:31:20:402,-0.957341,3.27606,-9.32168,-18.5989,-5.62579,102.049
2023-02-16 21:31:20:412,-1.0327,3.31145,-9.31247,-18.6329,-5.61118,102.018
2023-02-16 21:31:20:422,-1.03315,3.29771,-9.23311,-18.6543,-5.59104,101.978
2023-02-16 21:31:20:432,-1.00167,3.25529,-9.15434,-18.6672,-5.56742,101.924
2023-02-16 21:31:20:442,-0.949181,3.20439,-9.05903,-18.6805,-5.54201,101.857
2023-02-16 21:31:20:452,-0.915153,3.18983,-9.01567,-18.698,-5.52035,101.783
2023-02-16 21:31:20:462,-0.9198,3.20734,-9.04193,-18.7202,-5.50391,101.707
2023-02-16 21:31:20:472,-0.941909,3.23166,-9.1302,-18.7523,-5.49318,101.624
2023-02-16 21:31:20:481,-0.971846,3.26523,-9.21389,-18.7832,-5.48639,101.534
2023-02-16 21:31:20:491,-0.985414,3.27466,-9.25803,-18.811,-5.47916,101.435
2023-02-16 21:31:20:501,-0.942787,3.29274,-9.2752,-18.8356,-5.47235,101.328
2023-02-16 21:31:20:511,-0.885895,3.2974,-9.28889,-18.8584,-5.4627,101.21
2023-02-16 21:31:20:521,-0.809713,3.28485,-9.28815,-18.8784,-5.4519,101.089
2023-02-16 21:31:20:531,-0.776409,3.30721,-9.31215,-18.8956,-5.44781,100.968
2023-02-16 21:31:20:542,-0.778659,3.35374,-9.35959,-18.9119,-5.44649,100.848
2023-02-16 21:31:20:552,-0.769657,3.33937,-9.373,-18.9215,-5.44813,100.73
2023-02-16 21:31:20:561,-0.719608,3.27769,-9.3789,-18.9257,-5.45129,100.614
2023-02-16 21:31:20:572,-0.664007,3.23348,-9.33511,-18.9249,-5.44565,100.503
2023-02-16 21:31:20:581,-0.653009,3.16572,-9.27605,-18.9161,-5.44404,100.4
2023-02-16 21:31:20:592,-0.661557,3.11941,-9.23043,-18.909,-5.44293,100.302
2023-02-16 21:31:20:602,-0.657727,3.07832,-9.22516,-18.9082,-5.44778,100.214
2023-02-16 21:31:20:611,-0.678476,3.09491,-9.2553,-18.9033,-5.4535,100.134
2023-02-16 21:31:20:621,-0.71357,3.11751,-9.30609,-18.9026,-5.4596,100.064
2023-02-16 21:31:20:631,-0.731529,3.13571,-9.31566,-18.9016,-5.46208,100.002
2023-02-16 21:31:20:641,-0.736872,3.12043,-9.3324,-18.8956,-5.46501,99.9463
2023-02-16 21:31:20:651,-0.751034,3.12938,-9.31525,-18.8883,-5.46158,99.8993
2023-02-16 21:31:20:661,-0.751854,3.13325,-9.28101,-18.8748,-5.46159,99.8611
2023-02-16 21:31:20:671,-0.774253,3.09352,-9.23327,-18.8544,-5.45979,99.8284
2023-02-16 21:31:20:681,-0.804581,3.04488,-9.18694,-18.8353,-5.45735,99.8051
2023-02-16 21:31:20:692,-0.849825,3.00804,-9.14814,-18.8166,-5.45596,99.7852
2023-02-16 21:31:20:701,-0.88742,2.99767,-9.14007,-18.803,-5.45724,99.7687
2023-02-16 21:31:20:711,-0.914091,2.9909,-9.16345,-18.7922,-5.46249,99.754
2023-02-16 21:31:20:721,-0.936581,3.02106,-9.23194,-18.7855,-5.46279,99.7413
2023-02-16 21:31:20:731,-0.952899,3.07663,-9.28278,-18.7831,-5.46817,99.7278
2023-02-16 21:31:20:742,-0.979033,3.08897,-9.2708,-18.7783,-5.47971,99.7159
2023-02-16 21:31:20:752,-0.984274,3.06816,-9.21399,-18.7686,-5.48876,99.6976
2023-02-16 21:31:20:762,-0.971228,3.06845,-9.18913,-18.764,-5.49688,99.6819
2023-02-16 21:31:20:771,-0.945949,3.06282,-9.19115,-18.7584,-5.50289,99.6635
2023-02-16 21:31:20:782,-0.924716,3.08618,-9.19344,-18.7558,-5.50759,99.6479
2023-02-16 21:31:20:792,-0.922322,3.08334,-9.1868,-18.7509,-5.51027,99.6351
2023-02-16 21:31:20:802,-0.928029,3.07366,-9.19448,-18.75,-5.51485,99.6241
2023-02-16 21:31:20:811,-0.924499,3.08808,-9.23801,-18.7473,-5.51747,99.6179
2023-02-16 21:31:20:822,-0.922649,3.11855,-9.27858,-18.7469,-5.51789,99.6106
2023-02-16 21:31:20:832,-0.92755,3.13912,-9.30355,-18.7409,-5.51549,99.6055
2023-02-16 21:31:20:841,-0.932286,3.1204,-9.297,-18.7346,-5.51577,99.6031
2023-02-16 21:31:20:851,-0.940533,3.09965,-9.26572,-18.7265,-5.517,99.6006
2023-02-16 21:31:20:861,-0.941895,3.07821,-9.22811,-18.7165,-5.51934,99.596
2023-02-16 21:31:20:872,-0.93921,3.04737,-9.18383,-18.7073,-5.52102,99.5932
2023-02-16 21:31:20:881,-0.944123,3.01398,-9.13662,-18.7033,-5.52184,99.5921
2023-02-16 21:31:20:892,-0.946124,2.97494,-9.12529,-18.7046,-5.52894,99.59
2023-02-16 21:31:20:901,-0.928897,2.95933,-9.10283,-18.7095,-5.5337,99.5931
2023-02-16 21:31:20:912,-0.923193,2.92731,-9.06564,-18.7193,-5.53667,99.5933
2023-02-16 21:31:20:922,-0.914196,2.88247,-9.03864,-18.7369,-5.54082,99.594
2023-02-16 21:31:20:931,-0.925198,2.8562,-8.99327,-18.7626,-5.54721,99.5984
2023-02-16 21:31:20:942,-0.945479,2.81885,-8.92852,-18.804,-5.55726,99.6
2023-02-16 21:31:20:952,-0.975812,2.78021,-8.87566,-18.8589,-5.56831,99.6022
2023-02-16 21:31:20:962,-0.980562,2.7636,-8.82415,-18.9315,-5.58152,99.6036
2023-02-16 21:31:20:972,-0.999606,2.74639,-8.74823,-19.0259,-5.59419,99.6025
2023-02-16 21:31:20:981,-1.01273,2.71738,-8.62127,-19.1419,-5.60697,99.6006
2023-02-16 21:31:20:992,-1.02036,2.68195,-8.48531,-19.2853,-5.61722,99.5956
2023-02-16 21:31:21:2,-0.975214,2.7094,-8.52529,-19.4633,-5.62579,99.5843
2023-02-16 21:31:21:12,-0.988895,2.87644,-8.77846,-19.6718,-5.64229,99.5724
2023-02-16 21:31:21:22,-1.00404,3.0534,-8.97047,-19.9012,-5.65885,99.5559
2023-02-16 21:31:21:32,-0.969448,3.16526,-9.07227,-20.1396,-5.67695,99.5298
2023-02-16 21:31:21:42,-0.90137,3.2546,-9.13495,-20.3796,-5.69918,99.4994
2023-02-16 21:31:21:52,-0.853591,3.30844,-9.12079,-20.6253,-5.72587,99.4623
2023-02-16 21:31:21:62,-0.85791,3.33664,-9.06123,-20.8696,-5.76095,99.4262
2023-02-16 21:31:21:72,-0.867137,3.41653,-9.07672,-21.1234,-5.79954,99.396
2023-02-16 21:31:21:82,-0.880013,3.5861,-9.21929,-21.3794,-5.84795,99.3668
2023-02-16 21:31:21:91,-0.886207,3.80867,-9.3928,-21.6333,-5.90183,99.3405
2023-02-16 21:31:21:102,-0.938893,4.00428,-9.54508,-21.8722,-5.95714,99.3197
2023-02-16 21:31:21:112,-1.00594,4.13518,-9.62627,-22.0832,-6.01223,99.307
2023-02-16 21:31:21:122,-1.02282,4.18856,-9.59139,-22.2632,-6.06107,99.2971
2023-02-16 21:31:21:131,-1.02373,4.15115,-9.47277,-22.4076,-6.09686,99.2906
2023-02-16 21:31:21:141,-1.03909,4.09891,-9.37406,-22.5291,-6.13262,99.2887
2023-02-16 21:31:21:152,-1.04503,4.11668,-9.3792,-22.6218,-6.16148,99.2925
2023-02-16 21:31:21:162,-1.035,4.13634,-9.38711,-22.6949,-6.17599,99.2976
2023-02-16 21:31:21:172,-1.01528,4.08574,-9.26484,-22.744,-6.17828,99.3056
2023-02-16 21:31:21:182,-0.990566,4.00001,-9.11486,-22.7803,-6.17397,99.3208
2023-02-16 21:31:21:192,-0.953971,3.97312,-9.03922,-22.8074,-6.16083,99.339
2023-02-16 21:31:21:202,-0.942424,3.95465,-9.00192,-22.8331,-6.13723,99.3643
2023-02-16 21:31:21:212,-0.932087,3.90696,-8.94895,-22.8594,-6.10989,99.394
2023-02-16 21:31:21:222,-0.912962,3.89212,-8.94201,-22.8835,-6.07287,99.4299
2023-02-16 21:31:21:232,-0.905356,3.92837,-8.99219,-22.9092,-6.03859,99.4687
2023-02-16 21:31:21:242,-0.926495,3.9619,-9.03929,-22.9316,-6.00292,99.5107
2023-02-16 21:31:21:252,-0.931647,3.95642,-9.0332,-22.9525,-5.9639,99.5554
2023-02-16 21:31:21:262,-0.926756,3.91155,-9.01882,-22.9684,-5.93179,99.6
2023-02-16 21:31:21:272,-0.940932,3.8821,-9.00279,-22.9774,-5.90117,99.6461
2023-02-16 21:31:21:282,-0.968761,3.83063,-8.97026,-22.9823,-5.87161,99.6903
2023-02-16 21:31:21:292,-0.987674,3.78166,-8.90359,-22.9872,-5.84556,99.7376
2023-02-16 21:31:21:302,-0.987142,3.74317,-8.8638,-22.9972,-5.82107,99.7783
2023-02-16 21:31:21:312,-0.986506,3.69784,-8.83744,-23.0059,-5.80113,99.8179
2023-02-16 21:31:21:321,-0.96156,3.68868,-8.82111,-23.0224,-5.78058,99.8554
2023-02-16 21:31:21:331,-0.955272,3.64893,-8.79817,-23.0431,-5.75854,99.8935
2023-02-16 21:31:21:341,-0.947316,3.59523,-8.74596,-23.0732,-5.73781,99.9307
2023-02-16 21:31:21:351,-0.955029,3.60419,-8.73748,-23.1139,-5.71652,99.9668
2023-02-16 21:31:21:361,-0.991538,3.68748,-8.81917,-23.166,-5.69626,100.003
2023-02-16 21:31:21:372,-1.07806,3.84535,-8.96741,-23.2258,-5.68192,100.037
2023-02-16 21:31:21:382,-1.11964,3.97087,-9.09185,-23.2802,-5.66929,100.058
2023-02-16 21:31:21:392,-1.09777,4.00798,-9.10476,-23.3234,-5.64764,100.071
2023-02-16 21:31:21:402,-1.0525,3.99376,-9.00827,-23.3576,-5.63334,100.075
2023-02-16 21:31:21:412,-1.01354,3.95802,-8.92563,-23.3886,-5.62231,100.074
2023-02-16 21:31:21:422,-0.991389,3.93655,-8.88388,-23.4162,-5.61748,100.069
2023-02-16 21:31:21:432,-0.989822,3.89885,-8.84483,-23.4465,-5.62221,100.061
2023-02-16 21:31:21:442,-0.989321,3.90033,-8.81904,-23.4833,-5.62819,100.047
2023-02-16 21:31:21:451,-0.972466,3.93796,-8.85722,-23.5272,-5.6386,100.029
2023-02-16 21:31:21:461,-0.977021,4.00877,-8.95808,-23.5721,-5.65318,100.011
2023-02-16 21:31:21:472,-0.983537,4.10207,-9.0424,-23.6185,-5.66463,99.9948
2023-02-16 21:31:21:482,-0.978809,4.11842,-9.05333,-23.6578,-5.67977,99.9765
2023-02-16 21:31:21:492,-0.963218,4.08368,-8.98628,-23.687,-5.69036,99.9545
2023-02-16 21:31:21:501,-0.955063,4.04526,-8.92611,-23.7103,-5.70066,99.9308
2023-02-16 21:31:21:512,-0.949718,4.0099,-8.89686,-23.7314,-5.70896,99.9136
2023-02-16 21:31:21:522,-0.929105,3.97785,-8.85471,-23.7544,-5.71675,99.8985
2023-02-16 21:31:21:532,-0.921885,3.93025,-8.82054,-23.7762,-5.72026,99.8877
2023-02-16 21:31:21:542,-0.925286,3.89016,-8.79028,-23.8004,-5.72099,99.8747
2023-02-16 21:31:21:552,-0.940487,3.84911,-8.75932,-23.8287,-5.71827,99.8684
2023-02-16 21:31:21:562,-0.922784,3.83492,-8.75943,-23.8594,-5.71026,99.8655
2023-02-16 21:31:21:572,-0.928622,3.87687,-8.81818,-23.8993,-5.70077,99.862
2023-02-16 21:31:21:582,-0.936987,3.90033,-8.85278,-23.9428,-5.6901,99.8644
2023-02-16 21:31:21:592,-0.914007,3.88548,-8.84596,-23.9899,-5.67693,99.8687
2023-02-16 21:31:21:602,-0.90818,3.88424,-8.79911,-24.0369,-5.66634,99.8762
2023-02-16 21:31:21:612,-0.917875,3.84188,-8.73063,-24.0917,-5.65653,99.8873
2023-02-16 21:31:21:622,-0.93862,3.8288,-8.71996,-24.1522,-5.64742,99.8986
2023-02-16 21:31:21:632,-0.979178,3.92304,-8.80716,-24.2233,-5.63754,99.9098
2023-02-16 21:31:21:642,-1.01004,4.02229,-8.93947,-24.2981,-5.62371,99.9223
2023-02-16 21:31:21:652,-1.01081,4.0608,-8.95556,-24.3654,-5.60656,99.9346
2023-02-16 21:31:21:662,-1.0138,4.05179,-8.87766,-24.4259,-5.58582,99.9464
2023-02-16 21:31:21:672,-1.01895,4.04172,-8.82139,-24.4825,-5.56454,99.9537
2023-02-16 21:31:21:682,-0.996076,4.03983,-8.79629,-24.5428,-5.5357,99.9562
2023-02-16 21:31:21:692,-0.983403,4.00829,-8.76194,-24.6031,-5.50375,99.9568
2023-02-16 21:31:21:702,-0.975147,4.01938,-8.76801,-24.6695,-5.47655,99.9576
2023-02-16 21:31:21:712,-0.991327,4.07984,-8.82803,-24.743,-5.45282,99.9574
2023-02-16 21:31:21:721,-1.01878,4.12528,-8.87051,-24.8155,-5.42989,99.9568
2023-02-16 21:31:21:731,-1.02751,4.13178,-8.84772,-24.8846,-5.40744,99.9543
2023-02-16 21:31:21:742,-1.01983,4.12843,-8.86799,-24.9477,-5.38562,99.944
2023-02-16 21:31:21:752,-0.995876,4.17148,-8.92048,-25.011,-5.35868,99.9323
2023-02-16 21:31:21:762,-0.97346,4.18695,-8.93264,-25.0727,-5.33707,99.9143
2023-02-16 21:31:21:772,-0.929762,4.20135,-8.94957,-25.129,-5.31878,99.8955
2023-02-16 21:31:21:782,-0.894256,4.23849,-8.98964,-25.1823,-5.30946,99.8675
2023-02-16 21:31:21:792,-0.871849,4.28372,-8.99951,-25.2304,-5.30986,99.8424
2023-02-16 21:31:21:802,-0.897998,4.30019,-8.94236,-25.2684,-5.31622,99.8169
2023-02-16 21:31:21:812,-0.929363,4.26391,-8.84186,-25.3039,-5.324,99.7911
2023-02-16 21:31:21:821,-0.920721,4.22019,-8.72113,-25.3362,-5.3285,99.7632
2023-02-16 21:31:21:832,-0.888852,4.18314,-8.68403,-25.3743,-5.33175,99.7358
2023-02-16 21:31:21:842,-0.874348,4.19049,-8.73965,-25.4146,-5.33547,99.7037
2023-02-16 21:31:21:852,-0.886705,4.26798,-8.8885,-25.4548,-5.34223,99.6739
2023-02-16 21:31:21:862,-0.892165,4.34547,-8.976,-25.4923,-5.3488,99.6456
2023-02-16 21:31:21:872,-0.878063,4.32108,-8.91548,-25.5144,-5.35798,99.6202
2023-02-16 21:31:21:881,-0.869,4.25503,-8.79091,-25.5285,-5.36424,99.5949
2023-02-16 21:31:21:892,-0.882691,4.20753,-8.70231,-25.5423,-5.37288,99.571
2023-02-16 21:31:21:902,-0.873562,4.17492,-8.66889,-25.5601,-5.38133,99.5488
2023-02-16 21:31:21:912,-0.86876,4.17128,-8.65342,-25.5834,-5.38491,99.5294
2023-02-16 21:31:21:922,-0.86938,4.21449,-8.74615,-25.6103,-5.38774,99.508
2023-02-16 21:31:21:931,-0.879831,4.36509,-8.95716,-25.6395,-5.39185,99.4885
2023-02-16 21:31:21:942,-0.894777,4.50185,-9.1131,-25.6608,-5.39827,99.4709
2023-02-16 21:31:21:951,-0.899841,4.52388,-9.10496,-25.6666,-5.4005,99.458
2023-02-16 21:31:21:962,-0.898407,4.47714,-8.9813,-25.6537,-5.40005,99.4436
2023-02-16 21:31:21:972,-0.871684,4.40526,-8.86476,-25.6282,-5.39866,99.4269
2023-02-16 21:31:21:982,-0.844237,4.33361,-8.80204,-25.5975,-5.38848,99.4137
2023-02-16 21:31:21:992,-0.831409,4.25139,-8.746,-25.5633,-5.37953,99.4019
2023-02-16 21:31:22:2,-0.811113,4.21603,-8.70619,-25.5346,-5.3736,99.3916
2023-02-16 21:31:22:12,-0.804802,4.2404,-8.79004,-25.51,-5.36694,99.3836
2023-02-16 21:31:22:22,-0.835505,4.30931,-8.92625,-25.4869,-5.36657,99.3784
2023-02-16 21:31:22:32,-0.850124,4.37706,-9.0192,-25.4579,-5.36401,99.3778
2023-02-16 21:31:22:42,-0.844137,4.40732,-9.07672,-25.4192,-5.35959,99.3709
2023-02-16 21:31:22:52,-0.81768,4.39572,-9.05429,-25.3645,-5.35755,99.3689
2023-02-16 21:31:22:62,-0.778771,4.32622,-8.97295,-25.3004,-5.35072,99.3679
2023-02-16 21:31:22:71,-0.741093,4.26612,-8.90892,-25.2281,-5.34479,99.3666
2023-02-16 21:31:22:82,-0.727494,4.25443,-8.90746,-25.1518,-5.33827,99.3672
2023-02-16 21:31:22:92,-0.731333,4.23316,-8.91179,-25.0688,-5.33519,99.3731
2023-02-16 21:31:22:102,-0.758978,4.21645,-8.94419,-24.9805,-5.33027,99.3808
2023-02-16 21:31:22:112,-0.785433,4.22401,-8.97106,-24.8851,-5.329,99.3961
2023-02-16 21:31:22:122,-0.810076,4.19543,-8.94477,-24.7864,-5.3271,99.4162
2023-02-16 21:31:22:132,-0.827004,4.13344,-8.9037,-24.6814,-5.32474,99.4381
2023-02-16 21:31:22:142,-0.827154,4.08789,-8.87556,-24.5696,-5.31818,99.4619
2023-02-16 21:31:22:152,-0.812562,4.03381,-8.85052,-24.4583,-5.31343,99.4855
2023-02-16 21:31:22:162,-0.799922,4.00785,-8.84931,-24.3506,-5.3092,99.5081
2023-02-16 21:31:22:172,-0.79237,3.98904,-8.87664,-24.2417,-5.30591,99.5294
2023-02-16 21:31:22:182,-0.78184,3.97693,-8.8879,-24.135,-5.30644,99.5544
2023-02-16 21:31:22:192,-0.806122,3.97483,-8.88876,-24.0322,-5.30666,99.5837
2023-02-16 21:31:22:202,-0.819404,3.96086,-8.88044,-23.9262,-5.31382,99.6123
2023-02-16 21:31:22:212,-0.829543,3.94762,-8.87077,-23.8271,-5.32117,99.6423
2023-02-16 21:31:22:222,-0.824639,3.91536,-8.84388,-23.7263,-5.32939,99.6706
2023-02-16 21:31:22:232,-0.831189,3.88268,-8.79966,-23.6281,-5.33924,99.6971
2023-02-16 21:31:22:242,-0.853944,3.8358,-8.78466,-23.5345,-5.34983,99.728
2023-02-16 21:31:22:252,-0.880718,3.81353,-8.80189,-23.4463,-5.36908,99.7587
2023-02-16 21:31:22:262,-0.896272,3.80056,-8.82868,-23.3618,-5.3914,99.7843
2023-02-16 21:31:22:272,-0.925045,3.78259,-8.82959,-23.2851,-5.41717,99.8146
2023-02-16 21:31:22:282,-0.932129,3.76935,-8.81979,-23.2166,-5.44534,99.8408
2023-02-16 21:31:22:292,-0.959239,3.74739,-8.81712,-23.1547,-5.47597,99.864
2023-02-16 21:31:22:302,-0.978472,3.75616,-8.83361,-23.0974,-5.51035,99.8845
2023-02-16 21:31:22:312,-1.00441,3.77562,-8.86557,-23.0458,-5.54105,99.901
2023-02-16 21:31:22:322,-1.01516,3.80279,-8.93847,-22.9985,-5.5753,99.9157
2023-02-16 21:31:22:332,-0.995858,3.80602,-8.96815,-22.9515,-5.60708,99.9263
2023-02-16 21:31:22:342,-0.981423,3.79865,-8.93645,-22.905,-5.63281,99.9325
2023-02-16 21:31:22:352,-0.962864,3.7789,-8.87981,-22.8595,-5.6609,99.9418
2023-02-16 21:31:22:362,-0.966002,3.74495,-8.85332,-22.8146,-5.68987,99.9513
2023-02-16 21:31:22:372,-0.979178,3.72729,-8.84513,-22.7758,-5.71374,99.9586
2023-02-16 21:31:22:382,-1.01046,3.73324,-8.86043,-22.7432,-5.74146,99.9687
2023-02-16 21:31:22:391,-1.03103,3.71944,-8.89171,-22.7156,-5.7667,99.9774
2023-02-16 21:31:22:402,-1.04286,3.737,-8.93299,-22.6901,-5.79285,99.9874
2023-02-16 21:31:22:412,-1.04552,3.75761,-9.01405,-22.665,-5.81751,99.9885
2023-02-16 21:31:22:422,-1.01966,3.76102,-9.07277,-22.6332,-5.8327,99.9874
2023-02-16 21:31:22:432,-0.977946,3.74028,-9.06068,-22.5984,-5.84467,99.9851
2023-02-16 21:31:22:442,-0.974376,3.71016,-9.03777,-22.5585,-5.85369,99.9798
2023-02-16 21:31:22:452,-0.959669,3.68783,-8.99333,-22.5193,-5.86603,99.9782
2023-02-16 21:31:22:462,-0.942392,3.63727,-8.93848,-22.4742,-5.87512,99.978
2023-02-16 21:31:22:472,-0.950209,3.61126,-8.95207,-22.435,-5.88161,99.9782
2023-02-16 21:31:22:482,-0.941665,3.61145,-9.02577,-22.3981,-5.88587,99.9831
2023-02-16 21:31:22:492,-0.926971,3.62681,-9.09376,-22.3657,-5.89388,99.9866
2023-02-16 21:31:22:502,-0.925891,3.63563,-9.10348,-22.3281,-5.90269,99.9888
2023-02-16 21:31:22:512,-0.923022,3.62949,-9.07856,-22.2908,-5.9158,99.997
2023-02-16 21:31:22:522,-0.92088,3.61294,-9.04221,-22.2553,-5.92981,100.008
2023-02-16 21:31:22:532,-0.941028,3.59275,-8.98834,-22.2194,-5.94711,100.016
2023-02-16 21:31:22:542,-0.95959,3.57462,-8.93611,-22.1924,-5.96876,100.03
2023-02-16 21:31:22:552,-0.960243,3.57373,-8.92701,-22.1698,-5.99193,100.042
2023-02-16 21:31:22:562,-0.97942,3.6099,-8.94468,-22.1536,-6.01477,100.059
2023-02-16 21:31:22:572,-0.995629,3.62968,-8.96612,-22.1368,-6.03566,100.075
2023-02-16 21:31:22:582,-0.970582,3.62957,-8.96175,-22.1228,-6.05556,100.088
2023-02-16 21:31:22:592,-0.919825,3.61581,-8.95117,-22.1037,-6.07125,100.099
2023-02-16 21:31:22:602,-0.919162,3.59752,-8.94183,-22.088,-6.08704,100.116
2023-02-16 21:31:22:612,-0.952197,3.57294,-8.89462,-22.0742,-6.10164,100.134
2023-02-16 21:31:22:622,-0.939564,3.56514,-8.87767,-22.0683,-6.12089,100.152
2023-02-16 21:31:22:632,-0.923842,3.57735,-8.92757,-22.0644,-6.1454,100.171
2023-02-16 21:31:22:642,-0.949237,3.60708,-9.00942,-22.067,-6.16756,100.196
2023-02-16 21:31:22:652,-1.00516,3.64331,-9.05933,-22.0727,-6.19131,100.22
2023-02-16 21:31:22:662,-1.02416,3.66512,-9.1098,-22.0808,-6.21291,100.248
2023-02-16 21:31:22:672,-1.02231,3.6953,-9.10535,-22.0842,-6.23656,100.276
2023-02-16 21:31:22:681,-1.05945,3.73484,-9.08049,-22.0831,-6.25788,100.303
2023-02-16 21:31:22:691,-1.10509,3.74438,-9.07715,-22.0834,-6.27833,100.334
2023-02-16 21:31:22:702,-1.12319,3.74106,-9.059,-22.0764,-6.29894,100.359
2023-02-16 21:31:22:712,-1.13582,3.72849,-9.0265,-22.0692,-6.32335,100.383
2023-02-16 21:31:22:722,-1.15347,3.70852,-9.02582,-22.0562,-6.34426,100.4
2023-02-16 21:31:22:732,-1.17499,3.70265,-9.02702,-22.0443,-6.36621,100.417
2023-02-16 21:31:22:742,-1.18963,3.68789,-9.01714,-22.03,-6.39076,100.429
2023-02-16 21:31:22:751,-1.20087,3.66814,-9.00937,-22.014,-6.41259,100.434
2023-02-16 21:31:22:762,-1.17799,3.67722,-9.02913,-22.0003,-6.43595,100.436
2023-02-16 21:31:22:772,-1.19027,3.70441,-9.07849,-21.9848,-6.46305,100.433
2023-02-16 21:31:22:781,-1.22429,3.71479,-9.10245,-21.964,-6.48944,100.429
2023-02-16 21:31:22:792,-1.23079,3.70352,-9.07766,-21.9404,-6.51831,100.42
2023-02-16 21:31:22:802,-1.23856,3.68194,-9.01587,-21.9083,-6.54391,100.408
2023-02-16 21:31:22:812,-1.24862,3.65145,-9.00945,-21.8755,-6.56987,100.387
2023-02-16 21:31:22:821,-1.23762,3.61764,-8.97538,-21.8389,-6.59414,100.361
2023-02-16 21:31:22:832,-1.22267,3.5829,-8.92894,-21.8035,-6.61839,100.332
2023-02-16 21:31:22:842,-1.18393,3.56006,-8.90845,-21.7732,-6.64109,100.3
2023-02-16 21:31:22:852,-1.15147,3.5601,-8.9566,-21.7506,-6.66453,100.264
2023-02-16 21:31:22:862,-1.14575,3.59558,-9.01323,-21.7308,-6.69183,100.231
2023-02-16 21:31:22:872,-1.1699,3.62272,-9.05792,-21.7134,-6.72106,100.198
2023-02-16 21:31:22:882,-1.20254,3.6295,-9.07198,-21.688,-6.75517,100.165
2023-02-16 21:31:22:892,-1.21852,3.64185,-9.08064,-21.6649,-6.78579,100.135
2023-02-16 21:31:22:902,-1.2379,3.61677,-9.05758,-21.6402,-6.8158,100.106
2023-02-16 21:31:22:912,-1.23252,3.59588,-9.00064,-21.61,-6.84272,100.074
2023-02-16 21:31:22:922,-1.22366,3.57211,-8.98561,-21.5821,-6.86549,100.042
2023-02-16 21:31:22:932,-1.22504,3.58775,-8.9963,-21.5552,-6.88807,100.011
2023-02-16 21:31:22:942,-1.24569,3.60396,-9.02303,-21.5279,-6.90668,99.9769
2023-02-16 21:31:22:951,-1.25468,3.60162,-9.04451,-21.4995,-6.92198,99.946
2023-02-16 21:31:22:962,-1.26368,3.62025,-9.07202,-21.4665,-6.93398,99.9108
2023-02-16 21:31:22:972,-1.24421,3.61123,-9.0893,-21.4352,-6.94267,99.8758
2023-02-16 21:31:22:982,-1.22602,3.59044,-9.07186,-21.3953,-6.94639,99.8352
2023-02-16 21:31:22:992,-1.20168,3.56252,-9.04471,-21.355,-6.94889,99.7933
2023-02-16 21:31:23:2,-1.16931,3.54759,-9.0082,-21.3136,-6.9481,99.7486
2023-02-16 21:31:23:12,-1.16557,3.53263,-8.99405,-21.2762,-6.94699,99.7071
2023-02-16 21:31:23:22,-1.15374,3.53345,-8.99263,-21.2434,-6.94464,99.6671
2023-02-16 21:31:23:32,-1.1181,3.53033,-8.98333,-21.2124,-6.93846,99.6287
2023-02-16 21:31:23:42,-1.0977,3.52911,-8.98728,-21.1797,-6.93425,99.5935
2023-02-16 21:31:23:52,-1.11104,3.54531,-9.00523,-21.1514,-6.93272,99.5613
2023-02-16 21:31:23:62,-1.12514,3.54543,-9.04144,-21.1251,-6.93347,99.5322
2023-02-16 21:31:23:72,-1.14823,3.54768,-9.05054,-21.099,-6.93313,99.5112
2023-02-16 21:31:23:82,-1.17371,3.55541,-9.05405,-21.0695,-6.93428,99.4909
2023-02-16 21:31:23:92,-1.21708,3.55289,-9.03598,-21.0413,-6.93539,99.4716
2023-02-16 21:31:23:102,-1.2435,3.52242,-9.0241,-21.0115,-6.93768,99.454
2023-02-16 21:31:23:112,-1.26705,3.51154,-9.01991,-20.9784,-6.93626,99.4339
2023-02-16 21:31:23:122,-1.27437,3.49613,-9.01148,-20.9468,-6.9319,99.4122
2023-02-16 21:31:23:131,-1.24663,3.4679,-8.9936,-20.9168,-6.92342,99.3865
2023-02-16 21:31:23:141,-1.23473,3.45476,-8.9931,-20.8876,-6.91723,99.3536
2023-02-16 21:31:23:152,-1.22637,3.46629,-9.01743,-20.8591,-6.90751,99.3208
2023-02-16 21:31:23:162,-1.19275,3.46885,-9.00383,-20.8351,-6.89443,99.2839
2023-02-16 21:31:23:172,-1.12406,3.45091,-9.0064,-20.8122,-6.88678,99.2474
2023-02-16 21:31:23:182,-1.07167,3.46053,-9.07135,-20.7929,-6.87312,99.207
2023-02-16 21:31:23:192,-1.05884,3.49482,-9.13626,-20.7717,-6.86061,99.1704
2023-02-16 21:31:23:202,-1.04671,3.48998,-9.15212,-20.7539,-6.85189,99.1386
2023-02-16 21:31:23:212,-1.03558,3.453,-9.11367,-20.7322,-6.84363,99.1081
2023-02-16 21:31:23:222,-1.04214,3.42552,-9.1107,-20.7105,-6.84038,99.0841
2023-02-16 21:31:23:232,-1.06101,3.44523,-9.11117,-20.6891,-6.83702,99.0659
2023-02-16 21:31:23:242,-1.07411,3.46091,-9.07483,-20.6713,-6.83301,99.049
2023-02-16 21:31:23:252,-1.08524,3.45378,-9.04157,-20.6572,-6.82511,99.037
2023-02-16 21:31:23:262,-1.0948,3.44677,-9.02415,-20.6448,-6.81423,99.024
2023-02-16 21:31:23:272,-1.09482,3.43272,-9.01637,-20.6362,-6.80462,99.0168
2023-02-16 21:31:23:282,-1.0911,3.45015,-9.05423,-20.6298,-6.79262,99.0177
2023-02-16 21:31:23:292,-1.12161,3.48204,-9.08646,-20.6229,-6.78283,99.0151
2023-02-16 21:31:23:302,-1.16011,3.47028,-9.06985,-20.6102,-6.77258,99.0134
2023-02-16 21:31:23:312,-1.19011,3.46293,-9.04425,-20.5958,-6.75937,99.019
2023-02-16 21:31:23:322,-1.20244,3.47072,-9.05195,-20.5811,-6.74627,99.0195
2023-02-16 21:31:23:332,-1.2126,3.46901,-9.05549,-20.5642,-6.73128,99.0166
2023-02-16 21:31:23:342,-1.22634,3.47649,-9.08209,-20.5456,-6.71537,99.014
2023-02-16 21:31:23:352,-1.23815,3.47438,-9.13609,-20.5308,-6.69258,99.0084
2023-02-16 21:31:23:361,-1.2223,3.46567,-9.1543,-20.5135,-6.67387,98.9996
2023-02-16 21:31:23:372,-1.19323,3.44508,-9.14388,-20.4886,-6.64961,98.979
2023-02-16 21:31:23:382,-1.12907,3.39364,-9.10249,-20.4697,-6.62626,98.9616
2023-02-16 21:31:23:392,-1.10328,3.36225,-9.07915,-20.4483,-6.60119,98.9368
2023-02-16 21:31:23:402,-1.11853,3.35984,-9.10973,-20.4277,-6.57923,98.915
2023-02-16 21:31:23:412,-1.12373,3.35994,-9.12762,-20.4104,-6.55794,98.8933
2023-02-16 21:31:23:421,-1.08745,3.3448,-9.10665,-20.3903,-6.53459,98.8665
2023-02-16 21:31:23:432,-1.05585,3.33844,-9.11247,-20.3672,-6.51135,98.8418
2023-02-16 21:31:23:442,-1.06453,3.35706,-9.15078,-20.3446,-6.48853,98.8141
2023-02-16 21:31:23:452,-1.05654,3.34055,-9.13934,-20.3228,-6.46422,98.7847
2023-02-16 21:31:23:462,-1.03237,3.3002,-9.11236,-20.298,-6.44206,98.7561
2023-02-16 21:31:23:472,-1.01657,3.29356,-9.10268,-20.2779,-6.4201,98.7239
2023-02-16 21:31:23:482,-1.00947,3.29899,-9.08436,-20.2599,-6.40244,98.6952
2023-02-16 21:31:23:492,-1.00669,3.29435,-9.09288,-20.2436,-6.38189,98.6706
2023-02-16 21:31:23:502,-0.99782,3.29152,-9.09239,-20.2311,-6.36047,98.646
2023-02-16 21:31:23:512,-0.975137,3.30316,-9.08162,-20.2197,-6.34031,98.6206
2023-02-16 21:31:23:522,-0.956925,3.29553,-9.08388,-20.2107,-6.32062,98.598
2023-02-16 21:31:23:532,-0.970834,3.29342,-9.10718,-20.2058,-6.29799,98.5766
2023-02-16 21:31:23:542,-0.96931,3.31762,-9.10885,-20.1973,-6.27694,98.5584
2023-02-16 21:31:23:552,-0.960895,3.30711,-9.11035,-20.1939,-6.25954,98.5404
2023-02-16 21:31:23:562,-0.963467,3.30106,-9.10501,-20.1915,-6.24441,98.5254
2023-02-16 21:31:23:571,-0.968988,3.31971,-9.11844,-20.1912,-6.23062,98.5097
2023-02-16 21:31:23:582,-0.947848,3.33713,-9.14732,-20.1944,-6.21663,98.4987
2023-02-16 21:31:23:592,-0.941326,3.34819,-9.17009,-20.1938,-6.20403,98.4866
2023-02-16 21:31:23:602,-0.937402,3.35454,-9.18867,-20.1943,-6.19597,98.475
2023-02-16 21:31:23:612,-0.927505,3.3672,-9.18932,-20.193,-6.19237,98.467
2023-02-16 21:31:23:622,-0.925699,3.35419,-9.17271,-20.1875,-6.18778,98.4607
2023-02-16 21:31:23:632,-0.924452,3.33722,-9.13782,-20.1857,-6.18549,98.4579
2023-02-16 21:31:23:642,-0.940536,3.34092,-9.13411,-20.1841,-6.18084,98.4574
2023-02-16 21:31:23:652,-0.947777,3.35076,-9.13765,-20.1826,-6.18177,98.4593
2023-02-16 21:31:23:662,-0.965354,3.35023,-9.12262,-20.176,-6.18645,98.4586
2023-02-16 21:31:23:672,-0.984458,3.34809,-9.10755,-20.1713,-6.18814,98.4631
2023-02-16 21:31:23:682,-1.00823,3.35376,-9.10887,-20.1669,-6.19006,98.4692
2023-02-16 21:31:23:692,-1.03136,3.36248,-9.13034,-20.1694,-6.19406,98.4805
2023-02-16 21:31:23:702,-1.07117,3.36044,-9.15361,-20.168,-6.19755,98.4881
2023-02-16 21:31:23:712,-1.06836,3.35616,-9.13618,-20.1665,-6.19787,98.496
2023-02-16 21:31:23:722,-1.06778,3.34118,-9.11363,-20.1611,-6.19953,98.5038
2023-02-16 21:31:23:732,-1.05726,3.34263,-9.12494,-20.157,-6.19969,98.5078
2023-02-16 21:31:23:742,-1.0606,3.33765,-9.14639,-20.1511,-6.19883,98.5067
2023-02-16 21:31:23:752,-1.04509,3.32482,-9.13813,-20.1448,-6.198,98.5041
2023-02-16 21:31:23:762,-1.03942,3.32351,-9.11083,-20.1389,-6.1979,98.5008
2023-02-16 21:31:23:772,-1.04053,3.33386,-9.0995,-20.1371,-6.19962,98.496
2023-02-16 21:31:23:782,-1.02912,3.33222,-9.11463,-20.1373,-6.19843,98.4895
2023-02-16 21:31:23:792,-1.02564,3.34283,-9.09086,-20.1389,-6.19894,98.483
2023-02-16 21:31:23:802,-1.0192,3.36058,-9.10693,-20.1388,-6.19518,98.4793
2023-02-16 21:31:23:812,-1.02514,3.37171,-9.11885,-20.1401,-6.19109,98.4729
2023-02-16 21:31:23:822,-0.997563,3.35953,-9.13052,-20.1405,-6.18473,98.4671
2023-02-16 21:31:23:832,-0.974959,3.338,-9.12667,-20.142,-6.178,98.4589
2023-02-16 21:31:23:842,-0.968145,3.31755,-9.11317,-20.1416,-6.16921,98.4589
2023-02-16 21:31:23:852,-0.957592,3.30589,-9.06707,-20.1438,-6.16089,98.4569
2023-02-16 21:31:23:862,-0.943339,3.28891,-9.04514,-20.147,-6.15467,98.4502
2023-02-16 21:31:23:872,-0.931244,3.32256,-9.0895,-20.1532,-6.15223,98.4459
2023-02-16 21:31:23:882,-0.924353,3.36066,-9.17004,-20.1666,-6.14731,98.446
2023-02-16 21:31:23:892,-0.896172,3.38182,-9.20338,-20.1739,-6.1443,98.4482
2023-02-16 21:31:23:902,-0.87724,3.37058,-9.18632,-20.1801,-6.14429,98.4476
2023-02-16 21:31:23:912,-0.877266,3.36515,-9.17266,-20.1886,-6.14597,98.4497
2023-02-16 21:31:23:921,-0.924223,3.3758,-9.15087,-20.1925,-6.15472,98.4585
2023-02-16 21:31:23:931,-0.970029,3.37857,-9.1216,-20.2026,-6.16524,98.4728
2023-02-16 21:31:23:942,-0.984908,3.3739,-9.09302,-20.2141,-6.17882,98.4862
2023-02-16 21:31:23:952,-0.991594,3.40252,-9.09237,-20.2316,-6.18818,98.5048
2023-02-16 21:31:23:961,-1.01302,3.45788,-9.12642,-20.246,-6.19431,98.5279
2023-02-16 21:31:23:971,-1.04782,3.485,-9.13187,-20.2613,-6.20025,98.5467
2023-02-16 21:31:23:982,-1.06291,3.48736,-9.13758,-20.269,-6.20688,98.5696
2023-02-16 21:31:23:992,-1.08466,3.47594,-9.14037,-20.2734,-6.21452,98.5848
2023-02-16 21:31:24:2,-1.10617,3.45001,-9.10293,-20.2753,-6.22259,98.5999
2023-02-16 21:31:24:12,-1.11343,3.42581,-9.05989,-20.2747,-6.23321,98.6159
2023-02-16 21:31:24:22,-1.10769,3.40351,-9.03094,-20.272,-6.24125,98.6215
2023-02-16 21:31:24:32,-1.09617,3.40224,-9.05021,-20.2726,-6.25246,98.6274
2023-02-16 21:31:24:42,-1.10351,3.4046,-9.09673,-20.2763,-6.26144,98.6268
2023-02-16 21:31:24:52,-1.09664,3.4122,-9.15178,-20.2773,-6.27002,98.6237
2023-02-16 21:31:24:62,-1.08822,3.44959,-9.18841,-20.2801,-6.27814,98.6207
2023-02-16 21:31:24:72,-1.05027,3.45532,-9.19622,-20.286,-6.2862,98.6167
2023-02-16 21:31:24:82,-1.0532,3.42449,-9.15067,-20.2865,-6.29025,98.6069
2023-02-16 21:31:24:92,-1.06405,3.39256,-9.13189,-20.2879,-6.29741,98.6025
2023-02-16 21:31:24:102,-1.06583,3.39407,-9.1443,-20.2879,-6.30484,98.5952
2023-02-16 21:31:24:112,-1.04713,3.38371,-9.136,-20.2886,-6.30301,98.59
2023-02-16 21:31:24:122,-0.993511,3.35404,-9.10971,-20.2852,-6.30066,98.583
2023-02-16 21:31:24:132,-0.956483,3.32593,-9.11864,-20.2809,-6.30325,98.5763
2023-02-16 21:31:24:142,-0.974662,3.32946,-9.13722,-20.2807,-6.31443,98.5754
2023-02-16 21:31:24:152,-1.01283,3.32559,-9.16983,-20.2816,-6.32483,98.5795
2023-02-16 21:31:24:162,-1.05888,3.32197,-9.17923,-20.2805,-6.33516,98.5827
2023-02-16 21:31:24:172,-1.10548,3.30593,-9.19716,-20.2776,-6.34827,98.588
2023-02-16 21:31:24:182,-1.12958,3.30203,-9.22773,-20.2716,-6.36337,98.5969
2023-02-16 21:31:24:192,-1.11019,3.29559,-9.21148,-20.2614,-6.37576,98.6042
2023-02-16 21:31:24:202,-1.08299,3.25951,-9.16305,-20.2472,-6.38573,98.608
2023-02-16 21:31:24:212,-1.036,3.23222,-9.10684,-20.2371,-6.39249,98.6125
2023-02-16 21:31:24:222,-0.999781,3.23051,-9.06079,-20.2335,-6.39736,98.619
2023-02-16 21:31:24:232,-0.981641,3.23502,-9.02918,-20.231,-6.40117,98.633
2023-02-16 21:31:24:242,-0.99439,3.2836,-9.03757,-20.2315,-6.41065,98.655
2023-02-16 21:31:24:252,-1.05831,3.32786,-9.08484,-20.2413,-6.4164,98.6834
2023-02-16 21:31:24:262,-1.1884,3.37252,-9.14962,-20.2445,-6.42405,98.7152
2023-02-16 21:31:24:272,-1.32307,3.42461,-9.18686,-20.2445,-6.43202,98.7527
2023-02-16 21:31:24:282,-1.35139,3.40275,-9.0984,-20.2321,-6.43017,98.7773
2023-02-16 21:31:24:292,-1.24805,3.32619,-9.00073,-20.2114,-6.41802,98.7879
2023-02-16 21:31:24:302,-1.09843,3.2767,-8.96162,-20.1951,-6.39649,98.7891
2023-02-16 21:31:24:312,-0.996217,3.27819,-8.95069,-20.1892,-6.37851,98.7798
2023-02-16 21:31:24:322,-0.937799,3.31388,-8.99335,-20.1944,-6.36046,98.7708
2023-02-16 21:31:24:331,-0.918986,3.34418,-9.04597,-20.2098,-6.35864,98.7647
2023-02-16 21:31:24:342,-0.951955,3.38319,-9.11042,-20.2311,-6.35619,98.7626
2023-02-16 21:31:24:352,-1.00239,3.42462,-9.14159,-20.2532,-6.35845,98.7626
2023-02-16 21:31:24:362,-1.00856,3.44651,-9.11997,-20.2779,-6.35745,98.7634
2023-02-16 21:31:24:372,-0.956576,3.4345,-9.02728,-20.3006,-6.35028,98.7601
2023-02-16 21:31:24:382,-0.871326,3.39786,-8.9711,-20.3215,-6.33309,98.7566
2023-02-16 21:31:24:392,-0.779807,3.41604,-8.96824,-20.3502,-6.30965,98.7584
2023-02-16 21:31:24:402,-0.718396,3.46957,-9.02588,-20.3825,-6.28697,98.7641
2023-02-16 21:31:24:412,-0.714828,3.52,-9.08899,-20.4233,-6.26927,98.7796
2023-02-16 21:31:24:422,-0.771609,3.5673,-9.13668,-20.4613,-6.25803,98.8058
2023-02-16 21:31:24:432,-0.834577,3.60462,-9.18069,-20.4999,-6.25417,98.8426
2023-02-16 21:31:24:442,-0.892238,3.63153,-9.20002,-20.5357,-6.25635,98.8861
2023-02-16 21:31:24:451,-0.942195,3.65149,-9.21834,-20.5677,-6.2609,98.9368
2023-02-16 21:31:24:462,-0.991917,3.66919,-9.23853,-20.5932,-6.27044,98.9869
2023-02-16 21:31:24:472,-1.04181,3.68156,-9.25365,-20.6112,-6.28897,99.0359
2023-02-16 21:31:24:482,-1.10179,3.69379,-9.28506,-20.6295,-6.31331,99.0854
2023-02-16 21:31:24:492,-1.1749,3.68715,-9.26893,-20.6381,-6.33915,99.1319
2023-02-16 21:31:24:502,-1.21577,3.65382,-9.24382,-20.6341,-6.36862,99.1725
2023-02-16 21:31:24:512,-1.27187,3.62367,-9.22142,-20.6219,-6.3974,99.2073
2023-02-16 21:31:24:521,-1.32379,3.59445,-9.21781,-20.5989,-6.43004,99.2388
2023-02-16 21:31:24:532,-1.3402,3.55072,-9.18972,-20.5733,-6.46122,99.261
2023-02-16 21:31:24:541,-1.34378,3.51123,-9.16351,-20.5403,-6.49348,99.2748
2023-02-16 21:31:24:552,-1.32822,3.46968,-9.12759,-20.5012,-6.52479,99.28
2023-02-16 21:31:24:562,-1.32703,3.40666,-9.09645,-20.4579,-6.55339,99.2748
2023-02-16 21:31:24:572,-1.30258,3.34835,-9.08034,-20.4117,-6.5792,99.2626
2023-02-16 21:31:24:581,-1.28135,3.33891,-9.08936,-20.3672,-6.60118,99.2427
2023-02-16 21:31:24:591,-1.24549,3.31907,-9.11698,-20.3211,-6.61695,99.2139
2023-02-16 21:31:24:601,-1.15165,3.2644,-9.10016,-20.2742,-6.62473,99.1845
2023-02-16 21:31:24:611,-1.07104,3.20963,-9.06648,-20.231,-6.63382,99.1496
2023-02-16 21:31:24:621,-1.01683,3.20182,-9.07381,-20.1943,-6.64293,99.1165
2023-02-16 21:31:24:631,-1.03664,3.22502,-9.07893,-20.1644,-6.65276,99.0915
2023-02-16 21:31:24:641,-1.07165,3.25428,-9.03594,-20.1391,-6.66081,99.0706
2023-02-16 21:31:24:651,-1.07095,3.27048,-9.04568,-20.1217,-6.66788,99.0556
2023-02-16 21:31:24:661,-1.07847,3.29316,-9.07664,-20.1051,-6.66611,99.0479
2023-02-16 21:31:24:671,-1.11707,3.34316,-9.09904,-20.0959,-6.66713,99.0466
2023-02-16 21:31:24:681,-1.16841,3.36351,-9.10738,-20.0851,-6.66592,99.0469
2023-02-16 21:31:24:691,-1.21193,3.35566,-9.11444,-20.0709,-6.66419,99.0478
2023-02-16 21:31:24:701,-1.24618,3.34719,-9.11014,-20.0558,-6.66652,99.0505
2023-02-16 21:31:24:711,-1.27653,3.32432,-9.0899,-20.0388,-6.67189,99.0468
2023-02-16 21:31:24:721,-1.29164,3.29715,-9.05658,-20.0185,-6.68071,99.0397
2023-02-16 21:31:24:731,-1.28486,3.27872,-9.03651,-20.0011,-6.68246,99.0266
2023-02-16 21:31:24:741,-1.26217,3.2759,-9.05873,-19.9892,-6.6867,99.0051
2023-02-16 21:31:24:751,-1.22982,3.25779,-9.06084,-19.9782,-6.68786,98.9802
2023-02-16 21:31:24:761,-1.18068,3.2361,-9.05833,-19.9726,-6.68548,98.9512
2023-02-16 21:31:24:771,-1.09881,3.24395,-9.08437,-19.9715,-6.68165,98.9203
2023-02-16 21:31:24:781,-1.04089,3.26101,-9.10089,-19.9747,-6.67716,98.8891
2023-02-16 21:31:24:791,-1.00258,3.25396,-9.08235,-19.9841,-6.67285,98.8632
2023-02-16 21:31:24:801,-0.997545,3.26303,-9.10094,-19.991,-6.67177,98.8402
2023-02-16 21:31:24:811,-1.00379,3.2919,-9.17163,-20.003,-6.66626,98.8255
2023-02-16 21:31:24:821,-1.0055,3.31633,-9.18505,-20.0142,-6.66344,98.8176
2023-02-16 21:31:24:831,-0.967625,3.30933,-9.15984,-20.0246,-6.65694,98.813
2023-02-16 21:31:24:841,-0.967653,3.29309,-9.15562,-20.034,-6.65423,98.8183
2023-02-16 21:31:24:851,-1.01092,3.29993,-9.15894,-20.0405,-6.65649,98.8273
2023-02-16 21:31:24:861,-1.0704,3.3313,-9.20489,-20.0491,-6.66229,98.8433
2023-02-16 21:31:24:871,-1.16215,3.35879,-9.21136,-20.0539,-6.66952,98.8628
2023-02-16 21:31:24:881,-1.22177,3.34905,-9.19178,-20.0578,-6.6791,98.8827
2023-02-16 21:31:24:891,-1.23237,3.32852,-9.1621,-20.0593,-6.68171,98.9018
2023-02-16 21:31:24:901,-1.20767,3.30258,-9.12759,-20.0568,-6.6835,98.9158
2023-02-16 21:31:24:911,-1.22745,3.29507,-9.12224,-20.0528,-6.68639,98.9284
2023-02-16 21:31:24:921,-1.24148,3.32325,-9.15883,-20.0491,-6.68901,98.94
2023-02-16 21:31:24:931,-1.25246,3.34313,-9.16928,-20.0455,-6.69435,98.9439
2023-02-16 21:31:24:941,-1.26368,3.34292,-9.14344,-20.0409,-6.69654,98.9449
2023-02-16 21:31:24:951,-1.27033,3.34311,-9.13858,-20.0299,-6.70078,98.9413
2023-02-16 21:31:24:961,-1.25751,3.36467,-9.15992,-20.0181,-6.70086,98.9339
2023-02-16 21:31:24:971,-1.22138,3.34785,-9.15112,-20.0022,-6.6983,98.9173
2023-02-16 21:31:24:981,-1.17109,3.30556,-9.11817,-19.9857,-6.69148,98.8954
2023-02-16 21:31:24:991,-1.12856,3.28306,-9.1168,-19.9713,-6.68355,98.8721
2023-02-16 21:31:25:1,-1.10701,3.28016,-9.12016,-19.9575,-6.68102,98.8488
2023-02-16 21:31:25:11,-1.09922,3.28362,-9.11905,-19.9442,-6.6764,98.8228
2023-02-16 21:31:25:21,-1.09211,3.28027,-9.11643,-19.93,-6.67308,98.7997
2023-02-16 21:31:25:31,-1.06728,3.26509,-9.11109,-19.918,-6.67102,98.7794
2023-02-16 21:31:25:41,-1.06653,3.28253,-9.13659,-19.9112,-6.66575,98.7596
2023-02-16 21:31:25:51,-1.0765,3.31415,-9.14192,-19.9043,-6.6615,98.7411
2023-02-16 21:31:25:61,-1.07751,3.32629,-9.13735,-19.8968,-6.65595,98.7221
2023-02-16 21:31:25:71,-1.07071,3.31271,-9.12136,-19.8917,-6.64766,98.7073
2023-02-16 21:31:25:81,-1.07549,3.30001,-9.10453,-19.8856,-6.64328,98.6925
2023-02-16 21:31:25:91,-1.0839,3.28739,-9.09821,-19.8785,-6.63555,98.6778
2023-02-16 21:31:25:101,-1.08654,3.26763,-9.10262,-19.8725,-6.62597,98.6668
2023-02-16 21:31:25:111,-1.08729,3.29091,-9.11913,-19.8687,-6.61762,98.6527
2023-02-16 21:31:25:122,-1.10093,3.32127,-9.13205,-19.8682,-6.61339,98.6424
2023-02-16 21:31:25:132,-1.12914,3.32814,-9.11336,-19.8672,-6.60757,98.6332
2023-02-16 21:31:25:142,-1.12718,3.31437,-9.11096,-19.8676,-6.59999,98.623
2023-02-16 21:31:25:152,-1.11351,3.3376,-9.12396,-19.8662,-6.59345,98.6058
2023-02-16 21:31:25:162,-1.09425,3.35306,-9.1386,-19.8664,-6.58684,98.5886
2023-02-16 21:31:25:172,-1.07913,3.35475,-9.14721,-19.8657,-6.5806,98.5703
2023-02-16 21:31:25:181,-1.06302,3.34737,-9.13995,-19.8663,-6.57371,98.5535
2023-02-16 21:31:25:192,-1.05512,3.3419,-9.13125,-19.8672,-6.57026,98.5348
2023-02-16 21:31:25:202,-1.07564,3.37426,-9.13915,-19.8668,-6.56951,98.5171
2023-02-16 21:31:25:212,-1.10814,3.40708,-9.14451,-19.871,-6.56681,98.5016
2023-02-16 21:31:25:222,-1.10624,3.41357,-9.16542,-19.8687,-6.5598,98.4897
2023-02-16 21:31:25:232,-1.08836,3.43528,-9.19851,-19.8634,-6.55011,98.4752
2023-02-16 21:31:25:242,-1.08801,3.43944,-9.20008,-19.8567,-6.53872,98.4627
2023-02-16 21:31:25:252,-1.07464,3.41002,-9.18018,-19.8426,-6.52901,98.4528
2023-02-16 21:31:25:261,-1.0737,3.38179,-9.13022,-19.829,-6.51571,98.4409
2023-02-16 21:31:25:272,-1.07002,3.35088,-9.12596,-19.8114,-6.49867,98.4295
2023-02-16 21:31:25:282,-1.07815,3.35054,-9.11695,-19.7962,-6.48522,98.4235
2023-02-16 21:31:25:292,-1.08996,3.35409,-9.13486,-19.7844,-6.47288,98.4167
2023-02-16 21:31:25:302,-1.07321,3.34871,-9.13565,-19.7703,-6.45969,98.408
2023-02-16 21:31:25:312,-1.06607,3.32725,-9.11249,-19.7553,-6.45129,98.3969
2023-02-16 21:31:25:321,-1.05608,3.34049,-9.13206,-19.7432,-6.44322,98.3862
2023-02-16 21:31:25:331,-1.02743,3.356,-9.1817,-19.7309,-6.43116,98.3719
2023-02-16 21:31:25:341,-1.00339,3.33605,-9.2217,-19.7199,-6.41839,98.3591
2023-02-16 21:31:25:352,-0.970427,3.30694,-9.20469,-19.7033,-6.41136,98.3432
2023-02-16 21:31:25:362,-0.961612,3.27635,-9.18028,-19.6882,-6.40656,98.3307
2023-02-16 21:31:25:371,-0.978651,3.252,-9.16603,-19.6742,-6.40847,98.3216
2023-02-16 21:31:25:381,-0.998662,3.24436,-9.11619,-19.6629,-6.41088,98.3139
2023-02-16 21:31:25:391,-1.0251,3.21842,-9.058,-19.6552,-6.41702,98.3109
2023-02-16 21:31:25:402,-1.05728,3.23406,-9.03518,-19.6555,-6.41906,98.312
2023-02-16 21:31:25:411,-1.10604,3.27315,-9.03682,-19.663,-6.4218,98.3163
2023-02-16 21:31:25:421,-1.15487,3.30189,-9.07005,-19.6786,-6.42438,98.3195
2023-02-16 21:31:25:431,-1.17137,3.32436,-9.10692,-19.6947,-6.42341,98.3231
2023-02-16 21:31:25:441,-1.17683,3.33178,-9.13327,-19.7056,-6.42307,98.319
2023-02-16 21:31:25:451,-1.14888,3.33514,-9.15558,-19.716,-6.41961,98.3123
2023-02-16 21:31:25:462,-1.12807,3.33308,-9.2048,-19.7212,-6.4169,98.3021
2023-02-16 21:31:25:471,-1.11261,3.32914,-9.22832,-19.7196,-6.41543,98.2879
2023-02-16 21:31:25:481,-1.10787,3.32051,-9.23571,-19.7143,-6.41362,98.2719
2023-02-16 21:31:25:491,-1.1017,3.29895,-9.23444,-19.7039,-6.41801,98.2548
2023-02-16 21:31:25:502,-1.10178,3.29403,-9.22809,-19.6959,-6.42352,98.2349
2023-02-16 21:31:25:511,-1.10637,3.27532,-9.21204,-19.6887,-6.42636,98.2123
2023-02-16 21:31:25:522,-1.0783,3.26405,-9.17762,-19.676,-6.43245,98.1885
2023-02-16 21:31:25:532,-1.05263,3.229,-9.13933,-19.6602,-6.43398,98.1623
2023-02-16 21:31:25:542,-1.03989,3.1926,-9.09968,-19.6472,-6.43152,98.1374
2023-02-16 21:31:25:552,-1.0036,3.18793,-9.12479,-19.6343,-6.42669,98.1106
2023-02-16 21:31:25:562,-0.931386,3.19142,-9.14454,-19.6244,-6.41661,98.0802
2023-02-16 21:31:25:572,-0.855278,3.19423,-9.11646,-19.6181,-6.40186,98.0549
2023-02-16 21:31:25:582,-0.816954,3.20228,-9.12607,-19.6116,-6.38859,98.0336
2023-02-16 21:31:25:592,-0.795753,3.24015,-9.15367,-19.6118,-6.3827,98.0224
2023-02-16 21:31:25:602,-0.840085,3.24502,-9.18504,-19.6124,-6.38064,98.0201
2023-02-16 21:31:25:612,-0.932673,3.28449,-9.19727,-19.614,-6.3808,98.0255
2023-02-16 21:31:25:622,-1.00465,3.28932,-9.17917,-19.6137,-6.38076,98.0412
2023-02-16 21:31:25:632,-1.03806,3.27437,-9.15091,-19.6089,-6.37614,98.0577
2023-02-16 21:31:25:642,-1.04381,3.25296,-9.13094,-19.5982,-6.36448,98.075
2023-02-16 21:31:25:652,-1.00516,3.2369,-9.09523,-19.5849,-6.34704,98.0914
2023-02-16 21:31:25:662,-0.977774,3.22542,-9.08832,-19.5788,-6.33069,98.1057
2023-02-16 21:31:25:672,-0.941544,3.21401,-9.10438,-19.5756,-6.31172,98.121
2023-02-16 21:31:25:682,-0.937628,3.23851,-9.11891,-19.58,-6.29953,98.138
2023-02-16 21:31:25:692,-0.978398,3.27607,-9.16363,-19.5893,-6.29394,98.1547
2023-02-16 21:31:25:702,-1.01923,3.33374,-9.21981,-19.6022,-6.29961,98.1735
2023-02-16 21:31:25:712,-1.04188,3.36859,-9.26302,-19.6132,-6.31067,98.1885
2023-02-16 21:31:25:722,-1.05996,3.37061,-9.25903,-19.618,-6.32427,98.2001
2023-02-16 21:31:25:732,-1.07113,3.35796,-9.22508,-19.6206,-6.33698,98.2125
2023-02-16 21:31:25:742,-1.06477,3.32946,-9.12778,-19.6185,-6.35295,98.2236
2023-02-16 21:31:25:752,-1.03188,3.29335,-9.06106,-19.6195,-6.37023,98.2356
2023-02-16 21:31:25:762,-1.01811,3.28419,-9.04453,-19.6217,-6.38763,98.244
2023-02-16 21:31:25:772,-1.0593,3.299,-9.066,-19.6364,-6.40965,98.2565
2023-02-16 21:31:25:782,-1.19664,3.35452,-9.11354,-19.6611,-6.4382,98.276
2023-02-16 21:31:25:792,-1.35852,3.44407,-9.19889,-19.6932,-6.47474,98.2997
2023-02-16 21:31:25:802,-1.46653,3.50145,-9.20439,-19.7175,-6.50613,98.3193
2023-02-16 21:31:25:812,-1.47898,3.49786,-9.1295,-19.7312,-6.53071,98.327
2023-02-16 21:31:25:822,-1.41695,3.4773,-9.03403,-19.7375,-6.54297,98.3228
2023-02-16 21:31:25:832,-1.33918,3.43179,-8.98446,-19.7462,-6.54854,98.3063
2023-02-16 21:31:25:842,-1.24711,3.41075,-8.98345,-19.7529,-6.54662,98.28
2023-02-16 21:31:25:852,-1.17925,3.40202,-9.03784,-19.7636,-6.54233,98.2432
2023-02-16 21:31:25:862,-1.13655,3.39952,-9.08363,-19.7768,-6.54295,98.2016
2023-02-16 21:31:25:872,-1.09289,3.38893,-9.13874,-19.7906,-6.54538,98.158
2023-02-16 21:31:25:882,-1.08136,3.40229,-9.21043,-19.805,-6.55746,98.1124
2023-02-16 21:31:25:892,-1.08501,3.42595,-9.27181,-19.8097,-6.5711,98.0652
2023-02-16 21:31:25:902,-1.10065,3.433,-9.26,-19.8079,-6.59327,98.0197
2023-02-16 21:31:25:912,-1.08563,3.40977,-9.21694,-19.7981,-6.6141,97.9772
2023-02-16 21:31:25:922,-1.07528,3.38984,-9.19333,-19.7839,-6.63487,97.934
2023-02-16 21:31:25:932,-1.07923,3.36409,-9.18489,-19.7602,-6.65253,97.8925
2023-02-16 21:31:25:942,-1.07505,3.32667,-9.17209,-19.7371,-6.66898,97.8535
2023-02-16 21:31:25:952,-1.04472,3.30589,-9.1658,-19.7149,-6.68916,97.8178
2023-02-16 21:31:25:962,-1.01546,3.2736,-9.16497,-19.6919,-6.71103,97.7835
2023-02-16 21:31:25:972,-1.0397,3.23805,-9.16697,-19.6679,-6.73831,97.7567
2023-02-16 21:31:25:981,-1.07917,3.2136,-9.17488,-19.6461,-6.76885,97.7351
2023-02-16 21:31:25:992,-1.10508,3.18955,-9.18528,-19.624,-6.80217,97.7153
2023-02-16 21:31:26:2,-1.11713,3.18034,-9.19242,-19.6011,-6.83704,97.6969
2023-02-16 21:31:26:12,-1.18585,3.21288,-9.20103,-19.5832,-6.87808,97.6859
2023-02-16 21:31:26:22,-1.25998,3.21385,-9.15377,-19.5572,-6.92485,97.6783
2023-02-16 21:31:26:32,-1.30793,3.19514,-9.07242,-19.5341,-6.96603,97.6708
2023-02-16 21:31:26:42,-1.34265,3.17879,-9.04965,-19.5137,-7.00117,97.6626
2023-02-16 21:31:26:52,-1.36827,3.17508,-9.06041,-19.4963,-7.03203,97.6475
2023-02-16 21:31:26:62,-1.39026,3.18844,-9.06341,-19.4809,-7.06247,97.6267
2023-02-16 21:31:26:72,-1.37609,3.19716,-9.08649,-19.4654,-7.09256,97.5976
2023-02-16 21:31:26:82,-1.35521,3.20665,-9.11572,-19.451,-7.11819,97.5619
2023-02-16 21:31:26:92,-1.35912,3.2273,-9.17073,-19.4368,-7.14069,97.5156
2023-02-16 21:31:26:102,-1.37347,3.27789,-9.25313,-19.4238,-7.16234,97.4661
2023-02-16 21:31:26:112,-1.34463,3.31052,-9.29571,-19.4126,-7.18524,97.4102
2023-02-16 21:31:26:122,-1.28942,3.31413,-9.29833,-19.397,-7.21085,97.3496
2023-02-16 21:31:26:132,-1.27632,3.33398,-9.29354,-19.3808,-7.24236,97.2824
2023-02-16 21:31:26:142,-1.31195,3.35051,-9.25827,-19.3662,-7.27959,97.2168
2023-02-16 21:31:26:152,-1.34055,3.36522,-9.2316,-19.3502,-7.32102,97.1513
2023-02-16 21:31:26:162,-1.36743,3.39569,-9.22782,-19.3352,-7.36349,97.0849
2023-02-16 21:31:26:172,-1.40227,3.38399,-9.19591,-19.3107,-7.39921,97.015
2023-02-16 21:31:26:182,-1.41528,3.35794,-9.1833,-19.2754,-7.43047,96.9404
2023-02-16 21:31:26:192,-1.41838,3.35103,-9.18469,-19.2335,-7.45619,96.8573
2023-02-16 21:31:26:202,-1.42528,3.2804,-9.15416,-19.1814,-7.47621,96.7677
2023-02-16 21:31:26:212,-1.40923,3.18108,-9.11243,-19.1158,-7.48664,96.6724
2023-02-16 21:31:26:222,-1.37594,3.119,-9.12156,-19.0422,-7.4891,96.57
2023-02-16 21:31:26:232,-1.34191,3.08167,-9.13063,-18.9655,-7.48635,96.4558
2023-02-16 21:31:26:242,-1.32897,3.04125,-9.14395,-18.8868,-7.48157,96.3385
2023-02-16 21:31:26:252,-1.33089,3.00648,-9.16136,-18.8066,-7.47345,96.2169
2023-02-16 21:31:26:262,-1.3241,2.98222,-9.17763,-18.7276,-7.46251,96.0815
2023-02-16 21:31:26:272,-1.30598,2.95538,-9.21923,-18.6554,-7.45534,95.9462
2023-02-16 21:31:26:282,-1.2677,2.9406,-9.28642,-18.5854,-7.44911,95.8034
2023-02-16 21:31:26:292,-1.25883,2.94408,-9.30382,-18.5164,-7.44963,95.6536
2023-02-16 21:31:26:302,-1.24727,2.90173,-9.2246,-18.4493,-7.45325,95.5026
2023-02-16 21:31:26:312,-1.23547,2.84915,-9.12926,-18.3832,-7.46318,95.3469
2023-02-16 21:31:26:322,-1.23775,2.8689,-9.13713,-18.3271,-7.47666,95.1902
2023-02-16 21:31:26:332,-1.27699,2.94033,-9.17563,-18.2779,-7.49182,95.035
2023-02-16 21:31:26:342,-1.30985,2.98206,-9.20001,-18.2298,-7.50551,94.8747
2023-02-16 21:31:26:352,-1.29194,2.97704,-9.18637,-18.1791,-7.51595,94.7142
2023-02-16 21:31:26:362,-1.24873,2.96048,-9.16336,-18.1302,-7.52334,94.549
2023-02-16 21:31:26:372,-1.21881,2.94896,-9.16297,-18.0836,-7.53157,94.3866
2023-02-16 21:31:26:382,-1.18402,2.93513,-9.17876,-18.0416,-7.53676,94.2228
2023-02-16 21:31:26:392,-1.18189,2.93282,-9.19801,-17.9992,-7.54287,94.0646
2023-02-16 21:31:26:402,-1.17555,2.93942,-9.20574,-17.9589,-7.55166,93.9102
2023-02-16 21:31:26:412,-1.17527,2.96373,-9.25602,-17.9209,-7.55794,93.758
2023-02-16 21:31:26:422,-1.18019,2.98362,-9.27441,-17.8911,-7.56387,93.6107
2023-02-16 21:31:26:431,-1.18298,3.00396,-9.27659,-17.8559,-7.56492,93.4696
2023-02-16 21:31:26:442,-1.16567,3.01142,-9.27778,-17.8205,-7.56359,93.3307
2023-02-16 21:31:26:452,-1.1419,2.99462,-9.26341,-17.7918,-7.5561,93.1975
2023-02-16 21:31:26:461,-1.12586,2.98346,-9.24616,-17.7612,-7.54873,93.0715
2023-02-16 21:31:26:472,-1.12488,2.98847,-9.24076,-17.7303,-7.54198,92.9522
2023-02-16 21:31:26:482,-1.14934,3.00283,-9.22881,-17.6958,-7.53525,92.8369
2023-02-16 21:31:26:492,-1.19408,3.0081,-9.22885,-17.6617,-7.52996,92.7304
2023-02-16 21:31:26:502,-1.23037,2.99653,-9.23029,-17.6263,-7.52178,92.6224
2023-02-16 21:31:26:512,-1.22627,3.00387,-9.23458,-17.5869,-7.50814,92.5139
2023-02-16 21:31:26:522,-1.18372,2.99476,-9.24269,-17.548,-7.49114,92.4099
2023-02-16 21:31:26:532,-1.14445,2.96641,-9.27323,-17.5052,-7.47892,92.3055
2023-02-16 21:31:26:542,-1.13308,2.96458,-9.2929,-17.4611,-7.47017,92.2042
2023-02-16 21:31:26:552,-1.16987,2.95508,-9.30635,-17.4222,-7.47737,92.1049
2023-02-16 21:31:26:562,-1.20829,2.96808,-9.31283,-17.3869,-7.49096,92.0094
2023-02-16 21:31:26:572,-1.23874,2.98406,-9.3078,-17.3528,-7.51252,91.9223
2023-02-16 21:31:26:582,-1.27286,2.97548,-9.31601,-17.315,-7.53702,91.8398
2023-02-16 21:31:26:592,-1.32722,2.97595,-9.30399,-17.2784,-7.56117,91.7644
2023-02-16 21:31:26:602,-1.357,2.94656,-9.28869,-17.2388,-7.58501,91.6898
2023-02-16 21:31:26:612,-1.35595,2.90358,-9.26836,-17.1936,-7.6048,91.6211
2023-02-16 21:31:26:622,-1.35823,2.88644,-9.25551,-17.1463,-7.61622,91.5521
2023-02-16 21:31:26:632,-1.3886,2.85193,-9.28001,-17.0986,-7.623,91.4881
2023-02-16 21:31:26:642,-1.3826,2.82923,-9.28207,-17.0472,-7.62281,91.4247
2023-02-16 21:31:26:652,-1.35552,2.81349,-9.277,-16.9921,-7.61537,91.3627
2023-02-16 21:31:26:662,-1.33135,2.78846,-9.25918,-16.9383,-7.59657,91.3043
2023-02-16 21:31:26:672,-1.29347,2.77105,-9.26332,-16.8819,-7.57172,91.2433
2023-02-16 21:31:26:682,-1.25492,2.74236,-9.27364,-16.8252,-7.54317,91.1808
2023-02-16 21:31:26:692,-1.23709,2.72912,-9.28706,-16.7717,-7.51312,91.1206
2023-02-16 21:31:26:702,-1.23647,2.69803,-9.29438,-16.7192,-7.48337,91.0622
2023-02-16 21:31:26:712,-1.21632,2.66139,-9.26527,-16.665,-7.45527,91.0036
2023-02-16 21:31:26:722,-1.2057,2.64704,-9.24535,-16.6161,-7.43091,90.9455
2023-02-16 21:31:26:732,-1.1919,2.64162,-9.24237,-16.566,-7.40531,90.8905
2023-02-16 21:31:26:742,-1.18863,2.63536,-9.27419,-16.5199,-7.37947,90.8344
2023-02-16 21:31:26:752,-1.1738,2.63653,-9.29017,-16.4826,-7.36165,90.7776
2023-02-16 21:31:26:762,-1.19155,2.61017,-9.27712,-16.4462,-7.34528,90.7234
2023-02-16 21:31:26:771,-1.19671,2.63201,-9.27133,-16.4098,-7.32967,90.6683
2023-02-16 21:31:26:782,-1.20829,2.65814,-9.28117,-16.3808,-7.32244,90.6158
2023-02-16 21:31:26:792,-1.23207,2.68462,-9.2774,-16.352,-7.31382,90.5627
2023-02-16 21:31:26:802,-1.26257,2.67589,-9.25366,-16.3234,-7.30587,90.5057
2023-02-16 21:31:26:812,-1.24814,2.65971,-9.26347,-16.293,-7.29895,90.4474
2023-02-16 21:31:26:822,-1.24337,2.65682,-9.30546,-16.2657,-7.28984,90.3858
2023-02-16 21:31:26:832,-1.22821,2.66413,-9.30485,-16.2397,-7.28289,90.3204
2023-02-16 21:31:26:842,-1.1873,2.6454,-9.30275,-16.2095,-7.27651,90.254
2023-02-16 21:31:26:851,-1.16809,2.64787,-9.35798,-16.1851,-7.27252,90.1905
2023-02-16 21:31:26:862,-1.14291,2.65916,-9.40188,-16.1603,-7.27238,90.1273
2023-02-16 21:31:26:872,-1.13314,2.65388,-9.40187,-16.1326,-7.27295,90.0616
2023-02-16 21:31:26:882,-1.11937,2.66317,-9.42455,-16.1054,-7.2745,90.0025
2023-02-16 21:31:26:892,-1.08612,2.6374,-9.41989,-16.0721,-7.28339,89.9453
2023-02-16 21:31:26:902,-1.06176,2.60215,-9.35277,-16.0402,-7.29627,89.8931
2023-02-16 21:31:26:912,-1.06764,2.56701,-9.27254,-16.0126,-7.30809,89.8477
2023-02-16 21:31:26:922,-1.07211,2.54857,-9.22979,-15.9916,-7.32196,89.8099
2023-02-16 21:31:26:932,-1.07159,2.56548,-9.22047,-15.9776,-7.3315,89.7769
2023-02-16 21:31:26:942,-1.06239,2.58221,-9.23559,-15.9724,-7.33591,89.7529
2023-02-16 21:31:26:952,-1.06536,2.58213,-9.23483,-15.974,-7.33693,89.7386
2023-02-16 21:31:26:962,-1.05979,2.60973,-9.24169,-15.9785,-7.33922,89.7292
2023-02-16 21:31:26:972,-1.07195,2.62043,-9.26798,-15.9887,-7.34111,89.7303
2023-02-16 21:31:26:982,-1.09951,2.6416,-9.27649,-16.0037,-7.3387,89.737
2023-02-16 21:31:26:992,-1.12021,2.65163,-9.28322,-16.0181,-7.3339,89.7492
2023-02-16 21:31:27:2,-1.12567,2.65302,-9.29079,-16.0311,-7.32721,89.7657
2023-02-16 21:31:27:11,-1.13008,2.6314,-9.28659,-16.0488,-7.31973,89.7841
2023-02-16 21:31:27:22,-1.14272,2.61954,-9.24395,-16.0665,-7.31099,89.8029
2023-02-16 21:31:27:32,-1.15399,2.62067,-9.23256,-16.0906,-7.30118,89.8244
2023-02-16 21:31:27:42,-1.16756,2.6457,-9.22913,-16.1176,-7.29672,89.8459
2023-02-16 21:31:27:52,-1.17653,2.69066,-9.24079,-16.1482,-7.29278,89.8666
2023-02-16 21:31:27:62,-1.20483,2.74517,-9.28207,-16.1863,-7.28848,89.8864
2023-02-16 21:31:27:72,-1.23359,2.80857,-9.34378,-16.2254,-7.28982,89.9052
2023-02-16 21:31:27:82,-1.27811,2.85221,-9.38979,-16.2617,-7.28613,89.9234
2023-02-16 21:31:27:92,-1.29592,2.86822,-9.39163,-16.2886,-7.28124,89.9343
2023-02-16 21:31:27:102,-1.26273,2.87336,-9.41342,-16.3118,-7.27507,89.9383
2023-02-16 21:31:27:112,-1.20121,2.88168,-9.45047,-16.3298,-7.26781,89.9378
2023-02-16 21:31:27:122,-1.16025,2.85995,-9.44324,-16.3406,-7.26352,89.9323
2023-02-16 21:31:27:132,-1.12692,2.8266,-9.42378,-16.344,-7.26027,89.9265
2023-02-16 21:31:27:142,-1.10051,2.80565,-9.43831,-16.348,-7.26448,89.9183
2023-02-16 21:31:27:152,-1.09509,2.79756,-9.429,-16.3466,-7.26655,89.9085
2023-02-16 21:31:27:162,-1.12635,2.80046,-9.4342,-16.3408,-7.27714,89.9037
2023-02-16 21:31:27:172,-1.14223,2.81503,-9.42632,-16.3352,-7.28398,89.9019
2023-02-16 21:31:27:182,-1.15279,2.79405,-9.39194,-16.3214,-7.2904,89.9011
2023-02-16 21:31:27:191,-1.15115,2.76924,-9.34476,-16.305,-7.29732,89.9065
2023-02-16 21:31:27:202,-1.15424,2.738,-9.32055,-16.2872,-7.30119,89.9169
2023-02-16 21:31:27:212,-1.17637,2.71814,-9.31624,-16.2698,-7.305,89.93
2023-02-16 21:31:27:222,-1.18307,2.69713,-9.30552,-16.2501,-7.3043,89.9477
2023-02-16 21:31:27:232,-1.20135,2.69462,-9.28786,-16.2284,-7.30321,89.9687
2023-02-16 21:31:27:242,-1.22053,2.70097,-9.30019,-16.2074,-7.30179,89.9893
2023-02-16 21:31:27:252,-1.23778,2.71633,-9.3355,-16.1849,-7.2981,90.0117
2023-02-16 21:31:27:262,-1.24619,2.71183,-9.35673,-16.1606,-7.2987,90.0301
2023-02-16 21:31:27:272,-1.26577,2.70049,-9.349,-16.129,-7.29927,90.0436
2023-02-16 21:31:27:282,-1.27936,2.68162,-9.32101,-16.0996,-7.30073,90.0612
2023-02-16 21:31:27:292,-1.27268,2.67001,-9.30861,-16.0701,-7.30087,90.0738
2023-02-16 21:31:27:302,-1.27831,2.66146,-9.31654,-16.0418,-7.30066,90.0795
2023-02-16 21:31:27:312,-1.29699,2.66055,-9.31878,-16.013,-7.29877,90.087
2023-02-16 21:31:27:321,-1.30642,2.67382,-9.33343,-15.9847,-7.29872,90.089
2023-02-16 21:31:27:332,-1.29595,2.69569,-9.36668,-15.9572,-7.29884,90.0879
2023-02-16 21:31:27:342,-1.3046,2.71589,-9.38828,-15.9259,-7.29574,90.0839
2023-02-16 21:31:27:352,-1.30363,2.72065,-9.37322,-15.8896,-7.29052,90.077
2023-02-16 21:31:27:362,-1.27555,2.68342,-9.33778,-15.8532,-7.28546,90.0647
2023-02-16 21:31:27:372,-1.23528,2.65938,-9.30724,-15.8172,-7.28022,90.0515
2023-02-16 21:31:27:382,-1.25107,2.63499,-9.28748,-15.7799,-7.26771,90.0378
2023-02-16 21:31:27:392,-1.24516,2.62465,-9.25754,-15.7465,-7.25794,90.0257
2023-02-16 21:31:27:402,-1.22792,2.61113,-9.27583,-15.7165,-7.24947,90.0093
2023-02-16 21:31:27:412,-1.22192,2.62131,-9.32683,-15.6884,-7.23708,89.9909
2023-02-16 21:31:27:421,-1.22928,2.63313,-9.34418,-15.6665,-7.22722,89.9749
2023-02-16 21:31:27:432,-1.22198,2.6056,-9.32715,-15.6384,-7.2185,89.9542
2023-02-16 21:31:27:442,-1.21556,2.56327,-9.28627,-15.6082,-7.21215,89.9302
2023-02-16 21:31:27:452,-1.1848,2.53898,-9.23696,-15.5895,-7.20396,89.9078
2023-02-16 21:31:27:461,-1.17308,2.53597,-9.23164,-15.5766,-7.19479,89.89
2023-02-16 21:31:27:472,-1.17551,2.53676,-9.25474,-15.5661,-7.19107,89.8694
2023-02-16 21:31:27:482,-1.17033,2.54806,-9.29608,-15.5583,-7.1897,89.8494
2023-02-16 21:31:27:492,-1.17864,2.56705,-9.31686,-15.5578,-7.1891,89.8293
2023-02-16 21:31:27:502,-1.19721,2.59279,-9.32654,-15.5562,-7.19056,89.8127
2023-02-16 21:31:27:512,-1.19404,2.61016,-9.36164,-15.5543,-7.18869,89.7973
2023-02-16 21:31:27:521,-1.19464,2.62155,-9.40089,-15.5496,-7.18631,89.7828
2023-02-16 21:31:27:532,-1.20968,2.63365,-9.4115,-15.5427,-7.18219,89.7688
2023-02-16 21:31:27:542,-1.22503,2.62654,-9.39629,-15.5319,-7.17763,89.7557
2023-02-16 21:31:27:552,-1.23994,2.59468,-9.33965,-15.5195,-7.16905,89.7464
2023-02-16 21:31:27:562,-1.23475,2.57537,-9.30577,-15.5067,-7.15386,89.7373
2023-02-16 21:31:27:572,-1.20722,2.57002,-9.29508,-15.4914,-7.13759,89.7251
2023-02-16 21:31:27:582,-1.18732,2.54534,-9.27933,-15.4786,-7.12415,89.7141
2023-02-16 21:31:27:592,-1.17522,2.52827,-9.2781,-15.4687,-7.10765,89.7013
2023-02-16 21:31:27:602,-1.16371,2.51208,-9.28034,-15.4608,-7.08951,89.6891
2023-02-16 21:31:27:612,-1.17618,2.52045,-9.30621,-15.4558,-7.07876,89.6736
2023-02-16 21:31:27:622,-1.17403,2.52581,-9.35861,-15.4546,-7.0667,89.6616
2023-02-16 21:31:27:632,-1.14509,2.54756,-9.41924,-15.454,-7.0605,89.6441
2023-02-16 21:31:27:642,-1.13231,2.5761,-9.45044,-15.4562,-7.05956,89.6279
2023-02-16 21:31:27:652,-1.11916,2.57712,-9.44482,-15.46,-7.06326,89.6125
2023-02-16 21:31:27:662,-1.1501,2.58778,-9.42134,-15.4635,-7.07093,89.5987
2023-02-16 21:31:27:672,-1.1801,2.62819,-9.41937,-15.4636,-7.07633,89.5871
2023-02-16 21:31:27:682,-1.18118,2.64736,-9.40841,-15.4668,-7.08712,89.5801
2023-02-16 21:31:27:692,-1.18297,2.64398,-9.34865,-15.462,-7.08924,89.5754
2023-02-16 21:31:27:702,-1.18822,2.61202,-9.3128,-15.4555,-7.09134,89.5673
2023-02-16 21:31:27:712,-1.16703,2.59706,-9.33145,-15.4528,-7.09142,89.5641
2023-02-16 21:31:27:722,-1.17025,2.6057,-9.32343,-15.4491,-7.08658,89.5627
2023-02-16 21:31:27:732,-1.18702,2.59993,-9.29051,-15.4455,-7.08099,89.5598
2023-02-16 21:31:27:742,-1.19295,2.578,-9.29546,-15.4455,-7.07614,89.5644
2023-02-16 21:31:27:752,-1.21416,2.59236,-9.335,-15.4467,-7.07424,89.5677
2023-02-16 21:31:27:762,-1.22979,2.61958,-9.37011,-15.4501,-7.06892,89.5743
2023-02-16 21:31:27:772,-1.25425,2.61406,-9.38711,-15.4525,-7.06396,89.5786
2023-02-16 21:31:27:782,-1.257,2.59904,-9.35933,-15.4532,-7.05812,89.5811
2023-02-16 21:31:27:791,-1.2372,2.58569,-9.33472,-15.4543,-7.05066,89.579
2023-02-16 21:31:27:802,-1.20569,2.57222,-9.32702,-15.4578,-7.04401,89.5757
2023-02-16 21:31:27:812,-1.19063,2.58049,-9.30515,-15.4627,-7.03811,89.5706
2023-02-16 21:31:27:822,-1.19699,2.58848,-9.27834,-15.4729,-7.03249,89.5616
2023-02-16 21:31:27:832,-1.18247,2.60537,-9.30163,-15.4829,-7.02517,89.5541
2023-02-16 21:31:27:842,-1.1623,2.62253,-9.36604,-15.4935,-7.01594,89.5443
2023-02-16 21:31:27:852,-1.14247,2.65097,-9.40096,-15.504,-7.00161,89.5315
2023-02-16 21:31:27:862,-1.10676,2.64661,-9.39498,-15.5122,-6.98652,89.5176
2023-02-16 21:31:27:872,-1.06027,2.61374,-9.37801,-15.5168,-6.97403,89.5052
2023-02-16 21:31:27:882,-1.03297,2.62941,-9.40467,-15.5226,-6.96792,89.4913
2023-02-16 21:31:27:892,-1.02553,2.6331,-9.42693,-15.5274,-6.96446,89.4851
2023-02-16 21:31:27:902,-1.03671,2.61937,-9.40799,-15.5304,-6.96476,89.4806
2023-02-16 21:31:27:912,-1.07891,2.63569,-9.37866,-15.5299,-6.9654,89.4758
2023-02-16 21:31:27:922,-1.11133,2.67145,-9.37088,-15.5284,-6.9611,89.4745
2023-02-16 21:31:27:932,-1.13125,2.66744,-9.34984,-15.5251,-6.95916,89.4749
2023-02-16 21:31:27:942,-1.14039,2.65692,-9.31017,-15.5228,-6.95841,89.4777
2023-02-16 21:31:27:952,-1.14554,2.65537,-9.31287,-15.523,-6.95548,89.4807
2023-02-16 21:31:27:962,-1.13338,2.66369,-9.33617,-15.5202,-6.95263,89.4851
2023-02-16 21:31:27:972,-1.14759,2.69677,-9.38106,-15.5204,-6.94861,89.4875
2023-02-16 21:31:27:982,-1.18092,2.68405,-9.39607,-15.523,-6.94897,89.4918
2023-02-16 21:31:27:992,-1.21595,2.67506,-9.34388,-15.5202,-6.95134,89.4918
2023-02-16 21:31:28:2,-1.20648,2.64683,-9.29401,-15.5215,-6.95273,89.4888
2023-02-16 21:31:28:12,-1.1507,2.6472,-9.33209,-15.5222,-6.9592,89.4826
2023-02-16 21:31:28:22,-1.10991,2.67223,-9.37451,-15.5242,-6.96516,89.4763
2023-02-16 21:31:28:32,-1.09271,2.63358,-9.36508,-15.5234,-6.97012,89.4716
2023-02-16 21:31:28:41,-1.1009,2.60868,-9.32998,-15.5231,-6.97609,89.4714
2023-02-16 21:31:28:52,-1.11272,2.62691,-9.33498,-15.5282,-6.98405,89.4718
2023-02-16 21:31:28:62,-1.10961,2.65912,-9.38897,-15.5299,-6.99036,89.4731
2023-02-16 21:31:28:72,-1.12738,2.66387,-9.41714,-15.5314,-7.0009,89.4779
2023-02-16 21:31:28:82,-1.1404,2.67783,-9.42575,-15.531,-7.00898,89.4859
2023-02-16 21:31:28:92,-1.15464,2.6867,-9.41843,-15.5286,-7.01844,89.4934
2023-02-16 21:31:28:102,-1.19213,2.68916,-9.43972,-15.5253,-7.02612,89.5035
2023-02-16 21:31:28:112,-1.24482,2.7147,-9.43077,-15.5175,-7.03307,89.5152
2023-02-16 21:31:28:122,-1.29564,2.69476,-9.41392,-15.5046,-7.039,89.5254
2023-02-16 21:31:28:132,-1.32666,2.68584,-9.37419,-15.4881,-7.04444,89.5336
2023-02-16 21:31:28:142,-1.30933,2.66718,-9.34149,-15.4681,-7.05129,89.5355
2023-02-16 21:31:28:152,-1.30274,2.65137,-9.34374,-15.4502,-7.05227,89.5312
2023-02-16 21:31:28:162,-1.29138,2.64099,-9.33886,-15.4311,-7.05445,89.5207
2023-02-16 21:31:28:172,-1.25208,2.60454,-9.30744,-15.4107,-7.06049,89.5043
2023-02-16 21:31:28:182,-1.22619,2.58742,-9.33473,-15.394,-7.06455,89.4874
2023-02-16 21:31:28:192,-1.19965,2.5858,-9.36884,-15.3745,-7.07465,89.4619
2023-02-16 21:31:28:202,-1.19432,2.59163,-9.38199,-15.3535,-7.08755,89.4373
2023-02-16 21:31:28:212,-1.19011,2.62125,-9.4192,-15.3371,-7.09658,89.4141
2023-02-16 21:31:28:222,-1.21291,2.6279,-9.41971,-15.3167,-7.11084,89.3905
2023-02-16 21:31:28:231,-1.1988,2.58085,-9.35576,-15.2939,-7.12698,89.3682
2023-02-16 21:31:28:241,-1.17977,2.54148,-9.31599,-15.2675,-7.1441,89.3503
2023-02-16 21:31:28:252,-1.1945,2.55396,-9.34008,-15.2457,-7.15561,89.3305
2023-02-16 21:31:28:262,-1.23101,2.55253,-9.35228,-15.2196,-7.17152,89.3111
2023-02-16 21:31:28:272,-1.24117,2.50799,-9.3051,-15.1933,-7.18128,89.2927
2023-02-16 21:31:28:281,-1.21353,2.47119,-9.29709,-15.169,-7.1897,89.2742
2023-02-16 21:31:28:291,-1.20562,2.47702,-9.33177,-15.1489,-7.19848,89.2556
2023-02-16 21:31:28:302,-1.25896,2.50351,-9.34481,-15.1312,-7.20579,89.2418
2023-02-16 21:31:28:311,-1.29553,2.51336,-9.35471,-15.112,-7.21143,89.2257
2023-02-16 21:31:28:321,-1.3051,2.52295,-9.35766,-15.0992,-7.21176,89.2114
2023-02-16 21:31:28:332,-1.30435,2.52266,-9.35417,-15.0815,-7.20748,89.1922
2023-02-16 21:31:28:342,-1.28074,2.51587,-9.32055,-15.0603,-7.20387,89.1763
2023-02-16 21:31:28:352,-1.27699,2.47939,-9.28948,-15.0398,-7.19721,89.1546
2023-02-16 21:31:28:362,-1.27847,2.47748,-9.31859,-15.0218,-7.19133,89.1317
2023-02-16 21:31:28:372,-1.27679,2.49923,-9.37804,-15.0039,-7.18325,89.1061
2023-02-16 21:31:28:382,-1.24746,2.50025,-9.41301,-14.9842,-7.17235,89.075
2023-02-16 21:31:28:392,-1.18052,2.49376,-9.43705,-14.9627,-7.15655,89.0399
2023-02-16 21:31:28:402,-1.1415,2.47871,-9.44793,-14.9396,-7.14604,89.0023
2023-02-16 21:31:28:412,-1.14438,2.48018,-9.43419,-14.9166,-7.14352,88.9645
2023-02-16 21:31:28:422,-1.14961,2.45575,-9.41048,-14.8932,-7.14333,88.9333
2023-02-16 21:31:28:431,-1.15784,2.47023,-9.41322,-14.8768,-7.1412,88.9028
2023-02-16 21:31:28:442,-1.17427,2.49175,-9.38736,-14.8637,-7.14182,88.8757
2023-02-16 21:31:28:452,-1.1851,2.46897,-9.33608,-14.8485,-7.14095,88.8537
2023-02-16 21:31:28:462,-1.16883,2.47214,-9.32036,-14.8375,-7.1393,88.8343
2023-02-16 21:31:28:472,-1.16927,2.49542,-9.33808,-14.826,-7.13333,88.8178
2023-02-16 21:31:28:482,-1.17492,2.51484,-9.36717,-14.8168,-7.13258,88.802
2023-02-16 21:31:28:492,-1.20715,2.51224,-9.39985,-14.8031,-7.12946,88.7892
2023-02-16 21:31:28:502,-1.2045,2.50812,-9.3829,-14.7831,-7.12683,88.778
2023-02-16 21:31:28:512,-1.22534,2.48972,-9.37748,-14.7648,-7.12634,88.7643
2023-02-16 21:31:28:522,-1.25058,2.49028,-9.37551,-14.7422,-7.12467,88.7495
2023-02-16 21:31:28:532,-1.27804,2.49863,-9.38354,-14.7208,-7.12043,88.7341
2023-02-16 21:31:28:542,-1.28742,2.48397,-9.38143,-14.6974,-7.12182,88.7195
2023-02-16 21:31:28:551,-1.28188,2.46944,-9.38385,-14.6803,-7.12555,88.7032
2023-02-16 21:31:28:562,-1.25619,2.45877,-9.36621,-14.6619,-7.12671,88.6795
2023-02-16 21:31:28:572,-1.25332,2.451,-9.36539,-14.648,-7.12709,88.6534
2023-02-16 21:31:28:582,-1.24376,2.43574,-9.35794,-14.6344,-7.13339,88.6266
2023-02-16 21:31:28:592,-1.25902,2.43899,-9.36251,-14.6227,-7.13721,88.5987
2023-02-16 21:31:28:602,-1.293,2.46728,-9.38851,-14.6126,-7.13981,88.5743
2023-02-16 21:31:28:612,-1.28664,2.476,-9.39156,-14.6038,-7.13981,88.5437
2023-02-16 21:31:28:622,-1.23153,2.46694,-9.3955,-14.5876,-7.13478,88.5107
2023-02-16 21:31:28:632,-1.20103,2.46857,-9.40313,-14.5811,-7.12518,88.4769
2023-02-16 21:31:28:642,-1.19678,2.46687,-9.37501,-14.5692,-7.11583,88.442
2023-02-16 21:31:28:652,-1.21055,2.43952,-9.34478,-14.5553,-7.11299,88.4075
2023-02-16 21:31:28:661,-1.20117,2.43724,-9.35015,-14.5443,-7.10886,88.373
2023-02-16 21:31:28:672,-1.1985,2.4403,-9.37794,-14.5376,-7.09698,88.3377
2023-02-16 21:31:28:682,-1.18847,2.43624,-9.37494,-14.5304,-7.08264,88.3027
2023-02-16 21:31:28:692,-1.14515,2.4259,-9.3768,-14.5216,-7.06515,88.2655
2023-02-16 21:31:28:702,-1.11898,2.42086,-9.39847,-14.5138,-7.04999,88.2266
2023-02-16 21:31:28:712,-1.10419,2.43593,-9.40982,-14.5081,-7.03713,88.1886
2023-02-16 21:31:28:722,-1.09394,2.44671,-9.41689,-14.5044,-7.02545,88.1532
2023-02-16 21:31:28:732,-1.09626,2.48261,-9.42881,-14.5001,-7.01294,88.118
2023-02-16 21:31:28:742,-1.1059,2.51938,-9.45194,-14.4958,-7.00314,88.0814
2023-02-16 21:31:28:752,-1.1135,2.51853,-9.46784,-14.4837,-6.99586,88.0472
2023-02-16 21:31:28:762,-1.12211,2.51215,-9.45271,-14.4673,-6.98902,88.0136
2023-02-16 21:31:28:772,-1.12644,2.50217,-9.43711,-14.4511,-6.98212,87.9833
2023-02-16 21:31:28:782,-1.13777,2.49217,-9.44473,-14.4292,-6.97501,87.9511
2023-02-16 21:31:28:792,-1.12749,2.47941,-9.44599,-14.4045,-6.96774,87.9205
2023-02-16 21:31:28:801,-1.13816,2.44959,-9.44622,-14.3782,-6.96005,87.8942
2023-02-16 21:31:28:812,-1.14956,2.43862,-9.4742,-14.3525,-6.94875,87.8672
2023-02-16 21:31:28:822,-1.16797,2.42586,-9.48483,-14.324,-6.9391,87.8446
2023-02-16 21:31:28:832,-1.16541,2.41069,-9.47642,-14.2909,-6.92805,87.8168
2023-02-16 21:31:28:842,-1.15906,2.38747,-9.45348,-14.2606,-6.91848,87.7909
2023-02-16 21:31:28:852,-1.13366,2.37102,-9.42534,-14.229,-6.90791,87.764
2023-02-16 21:31:28:862,-1.10266,2.34477,-9.41011,-14.1998,-6.89538,87.7389
2023-02-16 21:31:28:872,-1.11273,2.35718,-9.40146,-14.1682,-6.88917,87.7133
2023-02-16 21:31:28:882,-1.13159,2.35272,-9.36611,-14.1383,-6.87961,87.6882
2023-02-16 21:31:28:892,-1.11855,2.34218,-9.34087,-14.1151,-6.87183,87.6625
2023-02-16 21:31:28:902,-1.09699,2.33363,-9.36012,-14.0921,-6.86161,87.6376
2023-02-16 21:31:28:912,-1.08261,2.34128,-9.37589,-14.0731,-6.85414,87.6146
2023-02-16 21:31:28:922,-1.09851,2.34878,-9.39954,-14.056,-6.84765,87.5912
2023-02-16 21:31:28:932,-1.10019,2.33104,-9.4035,-14.036,-6.84029,87.5692
2023-02-16 21:31:28:942,-1.0963,2.32991,-9.39979,-14.0157,-6.83088,87.5499
2023-02-16 21:31:28:952,-1.09346,2.30267,-9.40865,-13.9942,-6.8255,87.5307
2023-02-16 21:31:28:962,-1.07697,2.29887,-9.42267,-13.9788,-6.82249,87.5086
2023-02-16 21:31:28:972,-1.08525,2.32106,-9.42473,-13.9643,-6.81925,87.493
2023-02-16 21:31:28:982,-1.11088,2.32438,-9.40825,-13.9509,-6.81641,87.478
2023-02-16 21:31:28:992,-1.10473,2.30386,-9.39767,-13.9357,-6.81705,87.4667
2023-02-16 21:31:29:2,-1.12611,2.30461,-9.36312,-13.9265,-6.81869,87.4548
2023-02-16 21:31:29:12,-1.13656,2.29558,-9.36872,-13.9143,-6.8206,87.4414
2023-02-16 21:31:29:22,-1.14924,2.31229,-9.37338,-13.9071,-6.82294,87.4295
2023-02-16 21:31:29:32,-1.16139,2.29815,-9.38698,-13.9,-6.82274,87.4165
2023-02-16 21:31:29:42,-1.16463,2.312,-9.42077,-13.8965,-6.82435,87.4038
2023-02-16 21:31:29:52,-1.18477,2.32412,-9.44903,-13.8949,-6.82538,87.3897
2023-02-16 21:31:29:62,-1.19338,2.29515,-9.45091,-13.8897,-6.81965,87.3749
2023-02-16 21:31:29:71,-1.16049,2.28629,-9.43936,-13.8877,-6.80876,87.3604
2023-02-16 21:31:29:82,-1.12591,2.28365,-9.41933,-13.8808,-6.80169,87.3421
2023-02-16 21:31:29:92,-1.11202,2.26791,-9.41324,-13.8726,-6.7932,87.319
2023-02-16 21:31:29:102,-1.12963,2.24894,-9.41839,-13.8684,-6.78863,87.2979
2023-02-16 21:31:29:111,-1.1396,2.28022,-9.4363,-13.8654,-6.79344,87.2738
2023-02-16 21:31:29:122,-1.11309,2.31125,-9.48892,-13.8632,-6.79915,87.253
2023-02-16 21:31:29:132,-1.08991,2.31409,-9.50703,-13.8612,-6.80375,87.2291
2023-02-16 21:31:29:142,-1.06793,2.2892,-9.4926,-13.8568,-6.80761,87.2046
2023-02-16 21:31:29:152,-1.05157,2.25997,-9.43696,-13.8482,-6.81357,87.1822
2023-02-16 21:31:29:162,-1.08909,2.26075,-9.39664,-13.8473,-6.81981,87.1662
2023-02-16 21:31:29:172,-1.11636,2.27454,-9.38514,-13.8492,-6.83039,87.1545
2023-02-16 21:31:29:182,-1.13177,2.29568,-9.40708,-13.8579,-6.83351,87.1475
2023-02-16 21:31:29:192,-1.13726,2.32654,-9.43818,-13.868,-6.84251,87.1446
2023-02-16 21:31:29:202,-1.14225,2.33695,-9.42024,-13.878,-6.84258,87.1441
2023-02-16 21:31:29:212,-1.16262,2.34394,-9.41698,-13.8832,-6.84353,87.1464
2023-02-16 21:31:29:222,-1.16074,2.35751,-9.43436,-13.8869,-6.83834,87.1526
2023-02-16 21:31:29:232,-1.18728,2.37026,-9.42271,-13.89,-6.83091,87.1581
2023-02-16 21:31:29:242,-1.20654,2.34117,-9.40897,-13.8876,-6.82491,87.1673
2023-02-16 21:31:29:252,-1.19129,2.33163,-9.41094,-13.8882,-6.81313,87.1743
2023-02-16 21:31:29:262,-1.18023,2.32393,-9.42198,-13.883,-6.80066,87.1818
2023-02-16 21:31:29:272,-1.16931,2.2886,-9.39886,-13.8792,-6.78731,87.1906
2023-02-16 21:31:29:282,-1.16739,2.26708,-9.39788,-13.8749,-6.7714,87.1939
2023-02-16 21:31:29:292,-1.14632,2.27272,-9.42593,-13.8711,-6.75629,87.1968
2023-02-16 21:31:29:302,-1.1245,2.30242,-9.46299,-13.8717,-6.74371,87.1984
2023-02-16 21:31:29:311,-1.11195,2.31276,-9.476,-13.8757,-6.73292,87.2044
2023-02-16 21:31:29:322,-1.10336,2.28992,-9.44311,-13.8821,-6.72201,87.2089
2023-02-16 21:31:29:332,-1.10428,2.28644,-9.40606,-13.881,-6.71156,87.2143
2023-02-16 21:31:29:342,-1.08164,2.30536,-9.41801,-13.8855,-6.70476,87.2175
2023-02-16 21:31:29:352,-1.06527,2.27969,-9.40035,-13.8899,-6.69259,87.2198
2023-02-16 21:31:29:362,-1.00385,2.23647,-9.35355,-13.8984,-6.67893,87.2256
2023-02-16 21:31:29:372,-0.946925,2.21359,-9.31904,-13.9064,-6.66657,87.2324
2023-02-16 21:31:29:382,-0.953612,2.18873,-9.31,-13.9228,-6.65488,87.246
2023-02-16 21:31:29:392,-1.00985,2.19614,-9.4053,-13.9503,-6.65304,87.2637
2023-02-16 21:31:29:402,-1.04742,2.24859,-9.51425,-13.9818,-6.65574,87.2858
2023-02-16 21:31:29:412,-1.0519,2.29465,-9.54998,-14.0133,-6.66049,87.3088
2023-02-16 21:31:29:422,-1.09047,2.33395,-9.5768,-14.0449,-6.66254,87.3294
2023-02-16 21:31:29:432,-1.11131,2.35863,-9.54619,-14.0706,-6.66637,87.3505
2023-02-16 21:31:29:442,-1.10624,2.3415,-9.45096,-14.0944,-6.66629,87.3731
2023-02-16 21:31:29:452,-1.10342,2.32531,-9.38801,-14.116,-6.66486,87.4002
2023-02-16 21:31:29:462,-1.09525,2.34288,-9.37658,-14.143,-6.66471,87.4221
2023-02-16 21:31:29:472,-1.07386,2.35015,-9.37043,-14.1705,-6.66227,87.4449
2023-02-16 21:31:29:482,-1.09864,2.36125,-9.38516,-14.1987,-6.66074,87.4682
2023-02-16 21:31:29:492,-1.13214,2.3999,-9.42322,-14.2278,-6.65977,87.4894
2023-02-16 21:31:29:502,-1.12143,2.44499,-9.47104,-14.2544,-6.66381,87.5104
2023-02-16 21:31:29:512,-1.10751,2.44516,-9.46964,-14.2777,-6.66792,87.5251
2023-02-16 21:31:29:522,-1.0997,2.45033,-9.47616,-14.2939,-6.67108,87.5363
2023-02-16 21:31:29:532,-1.07954,2.46554,-9.52101,-14.3044,-6.67758,87.546
2023-02-16 21:31:29:542,-1.06241,2.47926,-9.53115,-14.3094,-6.6807,87.5553
2023-02-16 21:31:29:552,-1.0405,2.4623,-9.47578,-14.3093,-6.67406,87.5657
2023-02-16 21:31:29:562,-1.02723,2.42233,-9.41104,-14.3076,-6.66218,87.5786
2023-02-16 21:31:29:572,-1.00952,2.41655,-9.3811,-14.3058,-6.65063,87.5934
2023-02-16 21:31:29:582,-0.994009,2.4113,-9.38699,-14.3086,-6.63447,87.6126
2023-02-16 21:31:29:592,-0.9706,2.43342,-9.41088,-14.3175,-6.62128,87.6396
2023-02-16 21:31:29:602,-0.970922,2.46799,-9.48069,-14.3232,-6.6109,87.6684
2023-02-16 21:31:29:612,-1.00188,2.50145,-9.50642,-14.3285,-6.60132,87.7013
2023-02-16 21:31:29:622,-1.0307,2.48633,-9.47917,-14.3326,-6.59009,87.7399
2023-02-16 21:31:29:631,-1.04968,2.47876,-9.46279,-14.3313,-6.57899,87.776
2023-02-16 21:31:29:642,-1.07118,2.49002,-9.43568,-14.3287,-6.56935,87.8176
2023-02-16 21:31:29:652,-1.10483,2.47338,-9.4083,-14.3225,-6.56416,87.8583
2023-02-16 21:31:29:662,-1.13229,2.43035,-9.3837,-14.3124,-6.56166,87.9006
2023-02-16 21:31:29:672,-1.16874,2.4204,-9.35162,-14.3026,-6.56151,87.9385
2023-02-16 21:31:29:682,-1.18816,2.43535,-9.36585,-14.2929,-6.56041,87.973
2023-02-16 21:31:29:692,-1.21841,2.43582,-9.3769,-14.289,-6.56032,88.0067
2023-02-16 21:31:29:702,-1.2338,2.43722,-9.39176,-14.2849,-6.56641,88.0342
2023-02-16 21:31:29:712,-1.24438,2.47144,-9.42356,-14.2845,-6.57017,88.0602
2023-02-16 21:31:29:722,-1.24061,2.48029,-9.46073,-14.2818,-6.57377,88.0773
2023-02-16 21:31:29:732,-1.22281,2.46016,-9.44288,-14.2754,-6.58054,88.0885
2023-02-16 21:31:29:742,-1.22192,2.44131,-9.41276,-14.2701,-6.58595,88.0967
2023-02-16 21:31:29:752,-1.2131,2.41564,-9.38456,-14.2629,-6.59529,88.0982
2023-02-16 21:31:29:762,-1.19973,2.39961,-9.3847,-14.2526,-6.60452,88.0968
2023-02-16 21:31:29:772,-1.17393,2.40339,-9.41607,-14.2448,-6.60976,88.0921
2023-02-16 21:31:29:782,-1.15915,2.38264,-9.40411,-14.2347,-6.61313,88.0839
2023-02-16 21:31:29:792,-1.12511,2.38453,-9.39977,-14.2261,-6.61404,88.074
2023-02-16 21:31:29:802,-1.08447,2.38272,-9.39816,-14.2212,-6.61002,88.0622
2023-02-16 21:31:29:811,-1.06343,2.38147,-9.42523,-14.2174,-6.60991,88.0526
2023-02-16 21:31:29:821,-1.07954,2.40101,-9.48928,-14.2128,-6.61141,88.0441
2023-02-16 21:31:29:831,-1.10285,2.4464,-9.56961,-14.2085,-6.61355,88.039
2023-02-16 21:31:29:842,-1.09943,2.44676,-9.59569,-14.1944,-6.61211,88.0336
2023-02-16 21:31:29:852,-1.0559,2.43138,-9.59616,-14.1718,-6.60941,88.0271
2023-02-16 21:31:29:861,-1.0255,2.43688,-9.61289,-14.1422,-6.60548,88.0235
2023-02-16 21:31:29:872,-1.03073,2.42537,-9.54598,-14.1064,-6.6024,88.0239
2023-02-16 21:31:29:881,-1.05704,2.36408,-9.44583,-14.0701,-6.60756,88.0286
2023-02-16 21:31:29:892,-1.0756,2.33039,-9.38501,-14.033,-6.60787,88.0349
2023-02-16 21:31:29:902,-1.09242,2.34207,-9.38772,-14.001,-6.61312,88.0456
2023-02-16 21:31:29:912,-1.08953,2.35394,-9.38741,-13.9744,-6.61789,88.0609
2023-02-16 21:31:29:922,-1.10015,2.35238,-9.38023,-13.9491,-6.62512,88.0754
2023-02-16 21:31:29:931,-1.15574,2.35881,-9.37611,-13.9261,-6.63347,88.09
2023-02-16 21:31:29:942,-1.18578,2.37739,-9.37703,-13.9054,-6.64346,88.106
2023-02-16 21:31:29:952,-1.21013,2.3628,-9.36477,-13.886,-6.65032,88.1193
2023-02-16 21:31:29:962,-1.21055,2.34715,-9.4021,-13.8579,-6.65702,88.1274
2023-02-16 21:31:29:971,-1.21075,2.36789,-9.50996,-13.8323,-6.66431,88.1339
2023-02-16 21:31:29:982,-1.20506,2.39172,-9.55819,-13.8036,-6.67224,88.1368
2023-02-16 21:31:29:992,-1.18911,2.33531,-9.50458,-13.765,-6.67899,88.1355
2023-02-16 21:31:30:2,-1.15962,2.30964,-9.49656,-13.7237,-6.68364,88.1324
2023-02-16 21:31:30:12,-1.12809,2.327,-9.49373,-13.6804,-6.68771,88.1247
2023-02-16 21:31:30:22,-1.10345,2.26519,-9.44319,-13.634,-6.69302,88.1183
2023-02-16 21:31:30:32,-1.08604,2.23235,-9.37812,-13.5887,-6.69837,88.1154
2023-02-16 21:31:30:42,-1.06511,2.2265,-9.34715,-13.5512,-6.70438,88.1124
2023-02-16 21:31:30:52,-1.07019,2.23117,-9.35597,-13.52,-6.71226,88.1122
2023-02-16 21:31:30:62,-1.09767,2.24054,-9.38681,-13.4971,-6.72156,88.1145
2023-02-16 21:31:30:72,-1.11471,2.2489,-9.41305,-13.4763,-6.72755,88.1183
2023-02-16 21:31:30:82,-1.11088,2.28379,-9.45279,-13.4567,-6.73025,88.1215
2023-02-16 21:31:30:92,-1.08861,2.28943,-9.47058,-13.4406,-6.73322,88.1268
2023-02-16 21:31:30:102,-1.07561,2.24925,-9.43221,-13.4194,-6.7366,88.1317
2023-02-16 21:31:30:111,-1.10001,2.23945,-9.44432,-13.3984,-6.74447,88.1382
2023-02-16 21:31:30:122,-1.12766,2.27532,-9.49981,-13.377,-6.75513,88.1474
2023-02-16 21:31:30:132,-1.15347,2.26983,-9.49261,-13.3546,-6.76263,88.1581
2023-02-16 21:31:30:142,-1.18118,2.23762,-9.44801,-13.3304,-6.76779,88.1678
2023-02-16 21:31:30:152,-1.17732,2.22852,-9.40134,-13.3094,-6.77035,88.1765
2023-02-16 21:31:30:162,-1.1521,2.21777,-9.39343,-13.2859,-6.77374,88.1856
2023-02-16 21:31:30:172,-1.14914,2.20226,-9.38714,-13.2663,-6.77569,88.1956
2023-02-16 21:31:30:182,-1.15635,2.2106,-9.39765,-13.2489,-6.77805,88.2038
2023-02-16 21:31:30:191,-1.17072,2.19334,-9.40967,-13.2362,-6.78309,88.2097
2023-02-16 21:31:30:202,-1.16289,2.20419,-9.41808,-13.2269,-6.78676,88.2142
2023-02-16 21:31:30:212,-1.15589,2.22354,-9.43473,-13.2174,-6.78899,88.2177
2023-02-16 21:31:30:222,-1.13066,2.22256,-9.45942,-13.2087,-6.79137,88.223
2023-02-16 21:31:30:231,-1.11161,2.22149,-9.48485,-13.1965,-6.7963,88.226
2023-02-16 21:31:30:242,-1.1045,2.20127,-9.49724,-13.1827,-6.80079,88.2281
2023-02-16 21:31:30:252,-1.09691,2.19559,-9.4761,-13.17,-6.80437,88.2322
2023-02-16 21:31:30:262,-1.10165,2.17197,-9.44104,-13.1522,-6.808,88.2366
2023-02-16 21:31:30:272,-1.11145,2.14819,-9.42686,-13.1419,-6.8117,88.2442
2023-02-16 21:31:30:282,-1.12284,2.1483,-9.41157,-13.1348,-6.81744,88.2553
2023-02-16 21:31:30:292,-1.12706,2.13165,-9.40803,-13.1314,-6.82661,88.2664
2023-02-16 21:31:30:302,-1.13147,2.14801,-9.43631,-13.1307,-6.83394,88.2772
2023-02-16 21:31:30:312,-1.13141,2.18792,-9.47079,-13.1388,-6.84228,88.2922
2023-02-16 21:31:30:322,-1.15086,2.22315,-9.50542,-13.145,-6.84486,88.3063
2023-02-16 21:31:30:332,-1.15773,2.23377,-9.50012,-13.149,-6.84906,88.3223
2023-02-16 21:31:30:341,-1.17646,2.21748,-9.46916,-13.1507,-6.85384,88.3387
2023-02-16 21:31:30:352,-1.18327,2.21219,-9.45949,-13.1493,-6.85699,88.3522
2023-02-16 21:31:30:362,-1.20284,2.21612,-9.43763,-13.145,-6.8632,88.3669
2023-02-16 21:31:30:372,-1.19882,2.19322,-9.42327,-13.1469,-6.86382,88.3816
2023-02-16 21:31:30:382,-1.19687,2.17735,-9.40293,-13.1419,-6.86439,88.3937
2023-02-16 21:31:30:392,-1.19178,2.15592,-9.38567,-13.1425,-6.86266,88.4086
2023-02-16 21:31:30:401,-1.20634,2.16107,-9.3922,-13.1449,-6.8653,88.419
2023-02-16 21:31:30:412,-1.20587,2.16726,-9.41017,-13.1492,-6.86947,88.4265
2023-02-16 21:31:30:422,-1.19185,2.18779,-9.44304,-13.1592,-6.87143,88.43
2023-02-16 21:31:30:432,-1.19816,2.20104,-9.47015,-13.1709,-6.87433,88.4326
2023-02-16 21:31:30:441,-1.17796,2.20291,-9.46639,-13.1819,-6.87408,88.4326
2023-02-16 21:31:30:452,-1.17424,2.21883,-9.46148,-13.1907,-6.87623,88.433
2023-02-16 21:31:30:462,-1.17667,2.21993,-9.46333,-13.1987,-6.87507,88.4336
2023-02-16 21:31:30:472,-1.1744,2.2119,-9.44513,-13.207,-6.87323,88.4328
2023-02-16 21:31:30:482,-1.1471,2.18559,-9.41899,-13.2159,-6.86773,88.4315
2023-02-16 21:31:30:492,-1.12661,2.18218,-9.42438,-13.2271,-6.86052,88.4322
2023-02-16 21:31:30:502,-1.12479,2.19852,-9.45849,-13.2406,-6.85413,88.432
2023-02-16 21:31:30:511,-1.11837,2.22198,-9.46257,-13.256,-6.85091,88.4328
2023-02-16 21:31:30:522,-1.12376,2.22414,-9.47242,-13.2669,-6.84795,88.4292
2023-02-16 21:31:30:531,-1.12683,2.23073,-9.50164,-13.2773,-6.84685,88.4296
2023-02-16 21:31:30:542,-1.11798,2.26975,-9.55549,-13.289,-6.84545,88.4284
2023-02-16 21:31:30:552,-1.09135,2.30648,-9.57697,-13.296,-6.84156,88.4252
2023-02-16 21:31:30:562,-1.0469,2.28663,-9.565,-13.2966,-6.84143,88.4223
2023-02-16 21:31:30:572,-1.02972,2.24525,-9.4951,-13.2946,-6.84364,88.4243
2023-02-16 21:31:30:582,-1.04634,2.22666,-9.45141,-13.2942,-6.85066,88.43
2023-02-16 21:31:30:592,-1.07961,2.222,-9.4297,-13.2922,-6.86071,88.4361
2023-02-16 21:31:30:601,-1.1186,2.21636,-9.40029,-13.2965,-6.86909,88.4473
2023-02-16 21:31:30:611,-1.13227,2.21952,-9.39594,-13.3069,-6.87482,88.4659
2023-02-16 21:31:30:622,-1.13904,2.2416,-9.41214,-13.3192,-6.883,88.4844
2023-02-16 21:31:30:632,-1.14317,2.26778,-9.42748,-13.3317,-6.88922,88.5018
2023-02-16 21:31:30:642,-1.15729,2.28913,-9.44919,-13.3455,-6.89561,88.5177
2023-02-16 21:31:30:652,-1.16962,2.30605,-9.45866,-13.3572,-6.89838,88.5368
2023-02-16 21:31:30:662,-1.20024,2.30967,-9.46509,-13.369,-6.90134,88.5577
2023-02-16 21:31:30:672,-1.22511,2.30909,-9.44527,-13.3735,-6.90635,88.5717
2023-02-16 21:31:30:682,-1.24788,2.2994,-9.42129,-13.3756,-6.91195,88.5848
2023-02-16 21:31:30:692,-1.24158,2.27412,-9.40565,-13.3719,-6.91657,88.5922
2023-02-16 21:31:30:702,-1.23685,2.26086,-9.39817,-13.3692,-6.91906,88.5973
2023-02-16 21:31:30:712,-1.20286,2.25528,-9.40726,-13.3739,-6.92004,88.5998
2023-02-16 21:31:30:722,-1.18841,2.24741,-9.44097,-13.381,-6.91931,88.5991
2023-02-16 21:31:30:732,-1.18713,2.25875,-9.48803,-13.3916,-6.92068,88.5995
2023-02-16 21:31:30:742,-1.16616,2.28358,-9.49235,-13.403,-6.91986,88.5974
2023-02-16 21:31:30:752,-1.14734,2.28521,-9.47891,-13.4105,-6.91859,88.59
2023-02-16 21:31:30:762,-1.17136,2.34071,-9.51644,-13.4218,-6.92073,88.5852
2023-02-16 21:31:30:772,-1.17747,2.347,-9.52193,-13.4253,-6.91956,88.5778
2023-02-16 21:31:30:782,-1.14066,2.3253,-9.50021,-13.4255,-6.91403,88.5671
2023-02-16 21:31:30:791,-1.07542,2.28898,-9.47336,-13.4195,-6.90637,88.5603
2023-02-16 21:31:30:802,-1.0649,2.27245,-9.43467,-13.4145,-6.90218,88.5562
2023-02-16 21:31:30:812,-1.11121,2.25461,-9.43686,-13.4126,-6.90178,88.5498
2023-02-16 21:31:30:822,-1.14456,2.26252,-9.44857,-13.4106,-6.90132,88.5516
2023-02-16 21:31:30:832,-1.15007,2.26376,-9.45378,-13.4089,-6.90569,88.551
2023-02-16 21:31:30:842,-1.15543,2.27081,-9.46497,-13.4065,-6.90925,88.5543
2023-02-16 21:31:30:852,-1.14108,2.28141,-9.46274,-13.4039,-6.9086,88.5539
2023-02-16 21:31:30:862,-1.13198,2.28733,-9.46619,-13.405,-6.90465,88.5566
2023-02-16 21:31:30:872,-1.118,2.30108,-9.49075,-13.4015,-6.90029,88.5566
2023-02-16 21:31:30:882,-1.119,2.29767,-9.48642,-13.3951,-6.89564,88.5585
2023-02-16 21:31:30:892,-1.1135,2.28165,-9.47422,-13.3887,-6.89033,88.564
2023-02-16 21:31:30:902,-1.12498,2.25361,-9.43038,-13.3818,-6.8857,88.569
2023-02-16 21:31:30:912,-1.12582,2.23189,-9.40867,-13.3729,-6.88648,88.5719
2023-02-16 21:31:30:922,-1.11942,2.24703,-9.41134,-13.3663,-6.89041,88.5739
2023-02-16 21:31:30:932,-1.12373,2.21889,-9.41033,-13.3609,-6.89485,88.5758
2023-02-16 21:31:30:942,-1.13614,2.21329,-9.42836,-13.3586,-6.90192,88.5785
2023-02-16 21:31:30:952,-1.12881,2.21965,-9.48771,-13.3566,-6.91096,88.582
2023-02-16 21:31:30:962,-1.13238,2.23445,-9.52289,-13.3511,-6.91966,88.5812
2023-02-16 21:31:30:972,-1.12664,2.2274,-9.49183,-13.3478,-6.92896,88.5827
2023-02-16 21:31:30:982,-1.14611,2.22119,-9.46505,-13.3402,-6.94138,88.5827
2023-02-16 21:31:30:992,-1.15319,2.21481,-9.45936,-13.3336,-6.95185,88.587
2023-02-16 21:31:31:2,-1.1666,2.20426,-9.44398,-13.3281,-6.96123,88.5945
2023-02-16 21:31:31:12,-1.16199,2.19075,-9.41913,-13.3245,-6.97512,88.601
2023-02-16 21:31:31:22,-1.16674,2.20533,-9.42979,-13.3204,-6.98352,88.6111
2023-02-16 21:31:31:32,-1.19977,2.20745,-9.43497,-13.3209,-6.99025,88.6223
2023-02-16 21:31:31:42,-1.21956,2.22961,-9.4494,-13.319,-6.99682,88.6339
2023-02-16 21:31:31:52,-1.2407,2.22656,-9.41744,-13.319,-7.00302,88.6429
2023-02-16 21:31:31:61,-1.23603,2.21956,-9.41128,-13.3158,-7.0062,88.654
2023-02-16 21:31:31:72,-1.2265,2.24168,-9.43211,-13.3149,-7.00668,88.6585
2023-02-16 21:31:31:82,-1.24632,2.24464,-9.44384,-13.3135,-7.00571,88.6656
2023-02-16 21:31:31:92,-1.24059,2.26529,-9.46738,-13.3135,-7.00482,88.6698
2023-02-16 21:31:31:102,-1.24005,2.25245,-9.4605,-13.3126,-7.00796,88.6713
2023-02-16 21:31:31:112,-1.21372,2.23927,-9.44505,-13.3119,-7.00911,88.6705
2023-02-16 21:31:31:121,-1.19341,2.25779,-9.45598,-13.3111,-7.0106,88.6672
2023-02-16 21:31:31:132,-1.19554,2.25518,-9.44223,-13.3085,-7.01206,88.6635
2023-02-16 21:31:31:141,-1.18636,2.25446,-9.43055,-13.3068,-7.00913,88.6594
2023-02-16 21:31:31:152,-1.17333,2.25988,-9.43705,-13.3033,-7.00656,88.6593
2023-02-16 21:31:31:162,-1.17799,2.24478,-9.45965,-13.2991,-7.00177,88.6581
2023-02-16 21:31:31:172,-1.1757,2.25361,-9.46954,-13.2932,-6.99566,88.6572
2023-02-16 21:31:31:182,-1.16666,2.24639,-9.47073,-13.2861,-6.98672,88.6581
2023-02-16 21:31:31:192,-1.1641,2.23717,-9.47039,-13.2803,-6.97617,88.6579
2023-02-16 21:31:31:202,-1.1931,2.23875,-9.45176,-13.2718,-6.96361,88.6555
2023-02-16 21:31:31:212,-1.18182,2.21191,-9.42925,-13.267,-6.95346,88.6529
2023-02-16 21:31:31:222,-1.15258,2.20028,-9.41083,-13.2582,-6.94726,88.65
2023-02-16 21:31:31:232,-1.13271,2.20014,-9.40998,-13.2516,-6.94083,88.6453
2023-02-16 21:31:31:242,-1.14055,2.21111,-9.46157,-13.2468,-6.93473,88.6379
2023-02-16 21:31:31:252,-1.12693,2.23548,-9.52506,-13.2437,-6.92869,88.6346
2023-02-16 21:31:31:262,-1.07579,2.225,-9.53553,-13.2344,-6.92495,88.6255
2023-02-16 21:31:31:272,-1.04075,2.21508,-9.51442,-13.2253,-6.92277,88.6167
2023-02-16 21:31:31:282,-1.05726,2.21021,-9.49953,-13.2177,-6.92696,88.6137
2023-02-16 21:31:31:292,-1.08044,2.19738,-9.4791,-13.2114,-6.93371,88.616
2023-02-16 21:31:31:302,-1.10708,2.21058,-9.44999,-13.21,-6.93711,88.6222
2023-02-16 21:31:31:312,-1.13429,2.21564,-9.41613,-13.2099,-6.94209,88.6326
2023-02-16 21:31:31:322,-1.16239,2.23314,-9.41601,-13.2128,-6.94426,88.6432
2023-02-16 21:31:31:332,-1.15883,2.23875,-9.39736,-13.2164,-6.94972,88.6579
2023-02-16 21:31:31:342,-1.1653,2.24975,-9.40416,-13.2198,-6.95159,88.6712
2023-02-16 21:31:31:351,-1.19556,2.25947,-9.43108,-13.2257,-6.95318,88.6821
2023-02-16 21:31:31:362,-1.21208,2.26539,-9.44149,-13.2274,-6.95367,88.6981
2023-02-16 21:31:31:372,-1.22101,2.25345,-9.43014,-13.2278,-6.9542,88.7083
2023-02-16 21:31:31:382,-1.22961,2.24192,-9.41709,-13.2251,-6.95505,88.7144
2023-02-16 21:31:31:392,-1.22036,2.22798,-9.40657,-13.2231,-6.95482,88.7225
2023-02-16 21:31:31:401,-1.21849,2.21407,-9.43379,-13.2212,-6.9559,88.7244
2023-02-16 21:31:31:412,-1.2162,2.23587,-9.47531,-13.2249,-6.95436,88.7237
2023-02-16 21:31:31:422,-1.20201,2.23648,-9.48033,-13.2223,-6.95711,88.7223
2023-02-16 21:31:31:432,-1.17033,2.21107,-9.44937,-13.2197,-6.95598,88.7129
2023-02-16 21:31:31:442,-1.15009,2.20059,-9.41755,-13.2241,-6.95465,88.708
2023-02-16 21:31:31:452,-1.15938,2.22015,-9.43825,-13.2312,-6.95265,88.7032
2023-02-16 21:31:31:462,-1.19288,2.25232,-9.49447,-13.2379,-6.95319,88.7003
2023-02-16 21:31:31:472,-1.18231,2.271,-9.50668,-13.2449,-6.94814,88.6958
2023-02-16 21:31:31:482,-1.12578,2.25851,-9.49674,-13.2506,-6.94116,88.6909
2023-02-16 21:31:31:492,-1.08099,2.23989,-9.4916,-13.2522,-6.9309,88.6868
2023-02-16 21:31:31:502,-1.06723,2.24178,-9.45661,-13.2572,-6.92421,88.681
2023-02-16 21:31:31:512,-1.07802,2.24239,-9.46818,-13.257,-6.92006,88.6777
2023-02-16 21:31:31:522,-1.0949,2.24078,-9.48967,-13.2567,-6.91649,88.6786
2023-02-16 21:31:31:532,-1.1082,2.24106,-9.4832,-13.2563,-6.92039,88.6801
2023-02-16 21:31:31:542,-1.09965,2.23513,-9.45307,-13.2539,-6.92358,88.6814
2023-02-16 21:31:31:552,-1.10431,2.21264,-9.43716,-13.2523,-6.92247,88.6849
2023-02-16 21:31:31:561,-1.12434,2.20141,-9.43682,-13.2561,-6.92123,88.6931
2023-02-16 21:31:31:572,-1.12221,2.21647,-9.4292,-13.2572,-6.92188,88.6989
2023-02-16 21:31:31:582,-1.12576,2.23031,-9.44222,-13.2622,-6.92277,88.7072
2023-02-16 21:31:31:591,-1.14945,2.22873,-9.4483,-13.2684,-6.92445,88.7155
2023-02-16 21:31:31:602,-1.14642,2.20789,-9.44831,-13.2742,-6.92848,88.7248
2023-02-16 21:31:31:612,-1.1447,2.21438,-9.45955,-13.2793,-6.93402,88.7313
2023-02-16 21:31:31:621,-1.14891,2.24178,-9.47255,-13.2858,-6.93706,88.7387
2023-02-16 21:31:31:632,-1.1434,2.25246,-9.47007,-13.2872,-6.94366,88.7407
2023-02-16 21:31:31:641,-1.13051,2.23241,-9.46117,-13.29,-6.9495,88.7436
2023-02-16 21:31:31:652,-1.12479,2.22725,-9.45422,-13.2933,-6.96216,88.7523
2023-02-16 21:31:31:662,-1.12112,2.24581,-9.4753,-13.2922,-6.97312,88.761
2023-02-16 21:31:31:672,-1.12221,2.25658,-9.48204,-13.2943,-6.98454,88.7716
2023-02-16 21:31:31:682,-1.13132,2.24235,-9.47604,-13.2962,-6.99716,88.7809
2023-02-16 21:31:31:692,-1.15014,2.23041,-9.46368,-13.2971,-7.00849,88.7918
2023-02-16 21:31:31:702,-1.17908,2.2238,-9.45742,-13.2978,-7.02173,88.8053
2023-02-16 21:31:31:712,-1.18756,2.23804,-9.44977,-13.3005,-7.0337,88.8204
2023-02-16 21:31:31:722,-1.184,2.21854,-9.44201,-13.2986,-7.04186,88.834
2023-02-16 21:31:31:732,-1.19575,2.20183,-9.43506,-13.2984,-7.04909,88.8475
2023-02-16 21:31:31:742,-1.19618,2.22293,-9.44336,-13.3013,-7.0576,88.8622
2023-02-16 21:31:31:752,-1.20719,2.23925,-9.42669,-13.3019,-7.06648,88.8768
2023-02-16 21:31:31:761,-1.21156,2.21784,-9.41655,-13.3019,-7.07242,88.8903
2023-02-16 21:31:31:772,-1.21526,2.20881,-9.41298,-13.3064,-7.07808,88.9051
2023-02-16 21:31:31:782,-1.21151,2.21772,-9.44333,-13.3124,-7.08866,88.9183
2023-02-16 21:31:31:792,-1.21906,2.23304,-9.45137,-13.3217,-7.0949,88.9278
2023-02-16 21:31:31:802,-1.2179,2.25067,-9.44287,-13.3297,-7.10512,88.9373
2023-02-16 21:31:31:812,-1.20376,2.26011,-9.44672,-13.3389,-7.1095,88.9454
2023-02-16 21:31:31:822,-1.19187,2.26653,-9.46554,-13.3473,-7.11779,88.9531
2023-02-16 21:31:31:832,-1.20669,2.27384,-9.48409,-13.3529,-7.12064,88.9614
2023-02-16 21:31:31:841,-1.22535,2.2744,-9.47294,-13.3586,-7.1277,88.9673
2023-02-16 21:31:31:852,-1.23534,2.27375,-9.45255,-13.36,-7.13288,88.9761
2023-02-16 21:31:31:862,-1.22368,2.26175,-9.43012,-13.3626,-7.13926,88.9837
2023-02-16 21:31:31:872,-1.22414,2.23272,-9.43046,-13.3643,-7.13779,88.9932
2023-02-16 21:31:31:882,-1.23499,2.24384,-9.44257,-13.3672,-7.13505,89.0003
2023-02-16 21:31:31:892,-1.24232,2.25497,-9.44531,-13.3695,-7.13738,89.0042
2023-02-16 21:31:31:902,-1.2463,2.25146,-9.45304,-13.3707,-7.13522,89.0131
2023-02-16 21:31:31:912,-1.24824,2.24886,-9.44685,-13.3717,-7.13258,89.0172
2023-02-16 21:31:31:921,-1.23785,2.23904,-9.44204,-13.3707,-7.12665,89.0197
2023-02-16 21:31:31:932,-1.24308,2.24105,-9.43006,-13.3721,-7.12232,89.0207
2023-02-16 21:31:31:942,-1.22885,2.23332,-9.41475,-13.3747,-7.11778,89.0232
2023-02-16 21:31:31:952,-1.20625,2.21003,-9.40091,-13.3734,-7.11493,89.0255
2023-02-16 21:31:31:962,-1.20265,2.19889,-9.39075,-13.3717,-7.11129,89.0229
2023-02-16 21:31:31:972,-1.21004,2.21186,-9.44495,-13.3734,-7.10604,89.0199
2023-02-16 21:31:31:982,-1.17091,2.22947,-9.51159,-13.3801,-7.09582,89.0126
2023-02-16 21:31:31:992,-1.12146,2.22059,-9.52147,-13.3811,-7.08662,89.0075
2023-02-16 21:31:32:2,-1.09208,2.20588,-9.49801,-13.3856,-7.08194,89.0015
2023-02-16 21:31:32:12,-1.08339,2.19808,-9.47119,-13.3868,-7.08511,88.997
2023-02-16 21:31:32:22,-1.10856,2.20397,-9.45384,-13.3885,-7.08785,88.9985
2023-02-16 21:31:32:32,-1.16637,2.22808,-9.44224,-13.397,-7.09089,89.0022
2023-02-16 21:31:32:42,-1.19136,2.25585,-9.42646,-13.4088,-7.09832,89.0114
2023-02-16 21:31:32:52,-1.19599,2.27671,-9.42505,-13.4214,-7.10676,89.0217
2023-02-16 21:31:32:62,-1.20088,2.30415,-9.43276,-13.435,-7.11034,89.0336
2023-02-16 21:31:32:71,-1.22102,2.31403,-9.42968,-13.4467,-7.11219,89.0455
2023-02-16 21:31:32:82,-1.24085,2.3117,-9.41859,-13.4535,-7.11256,89.0565
2023-02-16 21:31:32:92,-1.24764,2.29143,-9.3961,-13.4599,-7.11185,89.0654
2023-02-16 21:31:32:102,-1.25769,2.28142,-9.39351,-13.4638,-7.1141,89.0725
2023-02-16 21:31:32:112,-1.22497,2.27835,-9.39838,-13.4648,-7.11228,89.0727
2023-02-16 21:31:32:122,-1.21102,2.25991,-9.38755,-13.4682,-7.1087,89.0755
2023-02-16 21:31:32:132,-1.19448,2.25329,-9.39638,-13.4743,-7.10367,89.0749
2023-02-16 21:31:32:142,-1.18849,2.26412,-9.44657,-13.4814,-7.0988,89.0776
2023-02-16 21:31:32:151,-1.17854,2.27489,-9.47424,-13.4897,-7.09498,89.074
2023-02-16 21:31:32:162,-1.15372,2.2881,-9.48933,-13.5018,-7.09221,89.0718
2023-02-16 21:31:32:172,-1.13361,2.30337,-9.45408,-13.511,-7.09032,89.0651
2023-02-16 21:31:32:181,-1.13618,2.27692,-9.42145,-13.5206,-7.09094,89.0649
2023-02-16 21:31:32:192,-1.16968,2.28783,-9.44079,-13.5336,-7.09038,89.0671
2023-02-16 21:31:32:202,-1.18814,2.31995,-9.48387,-13.5451,-7.09003,89.0721
2023-02-16 21:31:32:212,-1.15927,2.32068,-9.49529,-13.5516,-7.08479,89.0723
2023-02-16 21:31:32:222,-1.11557,2.3167,-9.48306,-13.5573,-7.07964,89.0739
2023-02-16 21:31:32:232,-1.13184,2.30828,-9.47197,-13.5581,-7.07926,89.0759
2023-02-16 21:31:32:242,-1.16394,2.30794,-9.46254,-13.5616,-7.08002,89.0826
2023-02-16 21:31:32:252,-1.18104,2.30151,-9.45333,-13.56,-7.0837,89.0865
2023-02-16 21:31:32:262,-1.20217,2.30363,-9.43786,-13.5599,-7.08751,89.0933
2023-02-16 21:31:32:272,-1.20829,2.29732,-9.44361,-13.5624,-7.08776,89.097
2023-02-16 21:31:32:281,-1.21436,2.29052,-9.42201,-13.5626,-7.08928,89.0984
2023-02-16 21:31:32:292,-1.20118,2.2964,-9.42867,-13.5651,-7.08593,89.1017
2023-02-16 21:31:32:302,-1.19758,2.30363,-9.44716,-13.5657,-7.08168,89.1022
2023-02-16 21:31:32:312,-1.19847,2.29484,-9.43356,-13.5652,-7.07915,89.1019
2023-02-16 21:31:32:322,-1.1884,2.28996,-9.41229,-13.5635,-7.07523,89.1026
2023-02-16 21:31:32:332,-1.16738,2.2891,-9.41129,-13.5627,-7.07044,89.102
2023-02-16 21:31:32:341,-1.16723,2.28623,-9.41396,-13.5632,-7.06869,89.1018
2023-02-16 21:31:32:352,-1.1806,2.26522,-9.42421,-13.5628,-7.06677,89.1005
2023-02-16 21:31:32:362,-1.16327,2.26769,-9.43747,-13.5647,-7.06698,89.0949
2023-02-16 21:31:32:372,-1.15774,2.2767,-9.45478,-13.5644,-7.06536,89.0915
2023-02-16 21:31:32:382,-1.15262,2.28329,-9.45316,-13.5667,-7.06605,89.0867
2023-02-16 21:31:32:391,-1.15927,2.2766,-9.4779,-13.5679,-7.06558,89.0838
2023-02-16 21:31:32:402,-1.14611,2.27028,-9.48733,-13.5681,-7.06706,89.0784
2023-02-16 21:31:32:412,-1.14116,2.26824,-9.46034,-13.5641,-7.06698,89.077
2023-02-16 21:31:32:422,-1.13895,2.25684,-9.44262,-13.5636,-7.06777,89.0789
2023-02-16 21:31:32:432,-1.14214,2.24856,-9.42469,-13.5633,-7.06914,89.0818
2023-02-16 21:31:32:442,-1.1566,2.25536,-9.40494,-13.5633,-7.0678,89.0858
2023-02-16 21:31:32:452,-1.16239,2.25099,-9.39909,-13.5664,-7.06779,89.095
2023-02-16 21:31:32:462,-1.1655,2.26103,-9.39668,-13.5714,-7.06213,89.1014
2023-02-16 21:31:32:472,-1.17375,2.26508,-9.43288,-13.5779,-7.05679,89.1067
2023-02-16 21:31:32:482,-1.17374,2.28129,-9.44092,-13.5822,-7.05509,89.115
2023-02-16 21:31:32:492,-1.1765,2.29547,-9.44153,-13.5883,-7.0538,89.1168
2023-02-16 21:31:32:501,-1.18907,2.2877,-9.4408,-13.5941,-7.05131,89.1231
2023-02-16 21:31:32:512,-1.18319,2.29174,-9.44769,-13.5994,-7.05127,89.1296
2023-02-16 21:31:32:522,-1.19049,2.31942,-9.45433,-13.6035,-7.05452,89.1341
2023-02-16 21:31:32:532,-1.19849,2.31631,-9.44067,-13.6096,-7.05542,89.1349
2023-02-16 21:31:32:542,-1.1853,2.2964,-9.43471,-13.614,-7.05894,89.1359
2023-02-16 21:31:32:552,-1.18314,2.29202,-9.4412,-13.6179,-7.06247,89.1411
2023-02-16 21:31:32:561,-1.18871,2.30838,-9.45121,-13.6194,-7.06617,89.1411
2023-02-16 21:31:32:572,-1.18104,2.30568,-9.44941,-13.6281,-7.0668,89.1432
2023-02-16 21:31:32:581,-1.17528,2.30476,-9.44248,-13.6326,-7.06719,89.1424
2023-02-16 21:31:32:592,-1.17755,2.30885,-9.45311,-13.6367,-7.06527,89.1439
2023-02-16 21:31:32:602,-1.16959,2.31119,-9.45158,-13.6413,-7.06659,89.1451
2023-02-16 21:31:32:611,-1.18101,2.31659,-9.44687,-13.6401,-7.06653,89.1434
2023-02-16 21:31:32:622,-1.20072,2.3065,-9.44491,-13.6443,-7.06622,89.1458
2023-02-16 21:31:32:632,-1.20354,2.29422,-9.44562,-13.6429,-7.06164,89.1458
2023-02-16 21:31:32:642,-1.20331,2.29141,-9.42719,-13.6423,-7.05643,89.1461
2023-02-16 21:31:32:652,-1.20631,2.28567,-9.41252,-13.6395,-7.05131,89.1464
2023-02-16 21:31:32:662,-1.18224,2.28021,-9.40342,-13.6406,-7.04542,89.1453
2023-02-16 21:31:32:672,-1.15892,2.27383,-9.39998,-13.6401,-7.03989,89.1443
2023-02-16 21:31:32:682,-1.15663,2.27095,-9.44088,-13.6376,-7.02988,89.1406
2023-02-16 21:31:32:692,-1.16766,2.29682,-9.48643,-13.6412,-7.02392,89.1395
2023-02-16 21:31:32:702,-1.14621,2.29695,-9.50053,-13.6418,-7.01463,89.1342
2023-02-16 21:31:32:712,-1.09112,2.27827,-9.48316,-13.642,-7.00884,89.1301
2023-02-16 21:31:32:721,-1.07639,2.26936,-9.44545,-13.6399,-7.00709,89.1214
2023-02-16 21:31:32:731,-1.09549,2.26383,-9.4324,-13.6424,-7.00898,89.1167
2023-02-16 21:31:32:741,-1.13082,2.28549,-9.42865,-13.6468,-7.01159,89.1185
2023-02-16 21:31:32:751,-1.15493,2.29689,-9.40556,-13.6529,-7.01896,89.1203
2023-02-16 21:31:32:761,-1.1619,2.30829,-9.39232,-13.6668,-7.02385,89.1268
2023-02-16 21:31:32:771,-1.17009,2.32433,-9.42162,-13.683,-7.02811,89.1316
2023-02-16 21:31:32:781,-1.18688,2.37565,-9.44012,-13.698,-7.03322,89.1373
2023-02-16 21:31:32:791,-1.21676,2.39568,-9.45095,-13.7091,-7.03915,89.1439
2023-02-16 21:31:32:801,-1.23114,2.40505,-9.46237,-13.7161,-7.04241,89.1485
2023-02-16 21:31:32:811,-1.2268,2.39553,-9.45937,-13.7158,-7.04619,89.1525
2023-02-16 21:31:32:821,-1.22512,2.36826,-9.44042,-13.7088,-7.04527,89.1555
2023-02-16 21:31:32:831,-1.20164,2.33697,-9.42443,-13.7012,-7.04539,89.1509
2023-02-16 21:31:32:841,-1.17861,2.32128,-9.3897,-13.6925,-7.04345,89.1458
2023-02-16 21:31:32:851,-1.17346,2.2938,-9.3677,-13.6841,-7.04333,89.1432
2023-02-16 21:31:32:861,-1.16904,2.27725,-9.39436,-13.6794,-7.04608,89.1379
2023-02-16 21:31:32:871,-1.16116,2.30609,-9.45839,-13.6771,-7.04762,89.1296
2023-02-16 21:31:32:881,-1.15181,2.33741,-9.49394,-13.6787,-7.0483,89.1235
2023-02-16 21:31:32:891,-1.145,2.32295,-9.45612,-13.6798,-7.04881,89.1161
2023-02-16 21:31:32:901,-1.15051,2.30736,-9.43034,-13.6792,-7.05584,89.1123
2023-02-16 21:31:32:911,-1.17994,2.31831,-9.4632,-13.6806,-7.05697,89.1091
2023-02-16 21:31:32:921,-1.19411,2.31934,-9.45469,-13.6801,-7.05234,89.1071
2023-02-16 21:31:32:931,-1.15659,2.29964,-9.43275,-13.6828,-7.0495,89.1068
2023-02-16 21:31:32:941,-1.1083,2.27678,-9.42592,-13.6788,-7.04215,89.1023
2023-02-16 21:31:32:951,-1.11204,2.27917,-9.40698,-13.6756,-7.03911,89.0988
2023-02-16 21:31:32:961,-1.14056,2.28024,-9.40231,-13.6764,-7.03925,89.098
2023-02-16 21:31:32:971,-1.15899,2.28675,-9.39858,-13.6771,-7.04099,89.0987
2023-02-16 21:31:32:981,-1.19077,2.2969,-9.39083,-13.6782,-7.03807,89.0992
2023-02-16 21:31:32:991,-1.2127,2.30368,-9.41482,-13.6848,-7.03926,89.1008
2023-02-16 21:31:33:1,-1.21697,2.31142,-9.44103,-13.6908,-7.03852,89.1012
2023-02-16 21:31:33:11,-1.2177,2.31987,-9.44658,-13.6942,-7.03337,89.1044
2023-02-16 21:31:33:21,-1.21268,2.33109,-9.45327,-13.6995,-7.02612,89.0993
2023-02-16 21:31:33:31,-1.21622,2.33592,-9.46017,-13.7042,-7.01848,89.1014
2023-02-16 21:31:33:41,-1.20557,2.33579,-9.45663,-13.7052,-7.00871,89.1005
2023-02-16 21:31:33:51,-1.20326,2.33464,-9.46054,-13.7033,-6.99839,89.0977
2023-02-16 21:31:33:61,-1.18919,2.32077,-9.46224,-13.7037,-6.98677,89.094
2023-02-16 21:31:33:71,-1.16905,2.32605,-9.47417,-13.7023,-6.97679,89.0855
2023-02-16 21:31:33:81,-1.15802,2.3267,-9.48395,-13.6972,-6.9686,89.0762
2023-02-16 21:31:33:91,-1.15911,2.31739,-9.47569,-13.6901,-6.96341,89.0653
2023-02-16 21:31:33:101,-1.1375,2.30019,-9.46139,-13.6822,-6.95879,89.0515
2023-02-16 21:31:33:111,-1.12159,2.29535,-9.45633,-13.6728,-6.95243,89.043
2023-02-16 21:31:33:121,-1.11276,2.29848,-9.47657,-13.6672,-6.94649,89.0347
2023-02-16 21:31:33:131,-1.09934,2.29928,-9.48896,-13.6584,-6.94497,89.0281
2023-02-16 21:31:33:141,-1.08782,2.28212,-9.47909,-13.6478,-6.94239,89.0227
2023-02-16 21:31:33:151,-1.08637,2.28083,-9.45898,-13.6354,-6.94159,89.0201
2023-02-16 21:31:33:161,-1.09242,2.28033,-9.44041,-13.6238,-6.94113,89.0236
2023-02-16 21:31:33:171,-1.11142,2.27185,-9.42718,-13.6121,-6.93725,89.0295
2023-02-16 21:31:33:181,-1.11542,2.24557,-9.42409,-13.6016,-6.93186,89.0355
2023-02-16 21:31:33:191,-1.12606,2.2461,-9.43786,-13.5918,-6.92704,89.0443
2023-02-16 21:31:33:201,-1.14638,2.2833,-9.46787,-13.5829,-6.92359,89.0535
2023-02-16 21:31:33:211,-1.1549,2.30555,-9.48225,-13.5753,-6.92514,89.0641
2023-02-16 21:31:33:221,-1.16131,2.30317,-9.46919,-13.5619,-6.92377,89.0699
2023-02-16 21:31:33:231,-1.16318,2.29258,-9.44809,-13.5468,-6.92456,89.0737
2023-02-16 21:31:33:241,-1.16261,2.29397,-9.42481,-13.5379,-6.92221,89.0775
2023-02-16 21:31:33:251,-1.15261,2.27819,-9.42362,-13.5244,-6.92733,89.0788
2023-02-16 21:31:33:261,-1.15142,2.24913,-9.4075,-13.5143,-6.9346,89.0812
2023-02-16 21:31:33:271,-1.14713,2.2294,-9.3986,-13.5079,-6.93585,89.0853
2023-02-16 21:31:33:281,-1.14807,2.24193,-9.41659,-13.5008,-6.93997,89.0862
2023-02-16 21:31:33:291,-1.14514,2.25462,-9.4446,-13.497,-6.94473,89.086
2023-02-16 21:31:33:302,-1.14854,2.25274,-9.45917,-13.4921,-6.94959,89.0875
2023-02-16 21:31:33:311,-1.14882,2.25415,-9.44261,-13.4859,-6.95488,89.0922
2023-02-16 21:31:33:321,-1.14409,2.26819,-9.4321,-13.4792,-6.95752,89.0974
2023-02-16 21:31:33:331,-1.14513,2.26497,-9.43394,-13.4759,-6.95911,89.1014
2023-02-16 21:31:33:341,-1.17104,2.26074,-9.44006,-13.4677,-6.9627,89.1024
2023-02-16 21:31:33:352,-1.18782,2.27253,-9.43711,-13.4626,-6.96133,89.1105
2023-02-16 21:31:33:361,-1.17853,2.24598,-9.42019,-13.452,-6.95914,89.1154
2023-02-16 21:31:33:372,-1.18552,2.23428,-9.40788,-13.4466,-6.95392,89.1205
2023-02-16 21:31:33:382,-1.1815,2.23661,-9.41735,-13.4449,-6.95116,89.1243
2023-02-16 21:31:33:392,-1.162,2.24118,-9.42001,-13.4388,-6.94533,89.1257
2023-02-16 21:31:33:402,-1.1433,2.23759,-9.4395,-13.435,-6.94052,89.125
2023-02-16 21:31:33:412,-1.15684,2.25544,-9.48262,-13.4289,-6.93595,89.1229
2023-02-16 21:31:33:422,-1.1526,2.27001,-9.51699,-13.4235,-6.93371,89.1175
2023-02-16 21:31:33:431,-1.09126,2.27565,-9.52659,-13.4185,-6.93757,89.1103
2023-02-16 21:31:33:442,-1.04346,2.25232,-9.50887,-13.4128,-6.93618,89.1011
2023-02-16 21:31:33:452,-1.04482,2.22378,-9.4885,-13.4038,-6.94394,89.0933
2023-02-16 21:31:33:462,-1.07637,2.21763,-9.46315,-13.3981,-6.95406,89.0912
2023-02-16 21:31:33:472,-1.11208,2.21392,-9.42226,-13.3954,-6.96672,89.0934
2023-02-16 21:31:33:482,-1.12989,2.23857,-9.40605,-13.3973,-6.98039,89.1014
2023-02-16 21:31:33:492,-1.1486,2.24859,-9.41629,-13.4012,-6.98969,89.1103
2023-02-16 21:31:33:502,-1.15501,2.26982,-9.4169,-13.4061,-6.99504,89.1246
2023-02-16 21:31:33:512,-1.17531,2.28091,-9.40205,-13.4113,-6.99826,89.1388
2023-02-16 21:31:33:522,-1.20871,2.28144,-9.41542,-13.4182,-7.00156,89.155
2023-02-16 21:31:33:531,-1.24361,2.29184,-9.41577,-13.419,-7.0032,89.1743
2023-02-16 21:31:33:542,-1.25968,2.26458,-9.39362,-13.4217,-7.00388,89.1932
2023-02-16 21:31:33:552,-1.26974,2.24764,-9.37648,-13.4195,-7.00541,89.2064
2023-02-16 21:31:33:562,-1.25299,2.24905,-9.37113,-13.4198,-7.00811,89.2143
2023-02-16 21:31:33:572,-1.23812,2.2404,-9.39113,-13.4206,-7.00812,89.2168
2023-02-16 21:31:33:582,-1.22747,2.23123,-9.41733,-13.4233,-7.0121,89.2155
2023-02-16 21:31:33:592,-1.23311,2.25202,-9.45454,-13.4295,-7.01438,89.2091
2023-02-16 21:31:33:602,-1.21389,2.25824,-9.44975,-13.435,-7.02153,89.2054
2023-02-16 21:31:33:612,-1.18556,2.2594,-9.44559,-13.4426,-7.02063,89.1977
2023-02-16 21:31:33:622,-1.14759,2.26887,-9.43694,-13.4508,-7.02364,89.1881
2023-02-16 21:31:33:632,-1.16257,2.27053,-9.43922,-13.4622,-7.02278,89.1824
2023-02-16 21:31:33:642,-1.17413,2.2874,-9.45412,-13.4741,-7.02266,89.178
2023-02-16 21:31:33:652,-1.14675,2.29882,-9.47208,-13.4861,-7.01755,89.1719
2023-02-16 21:31:33:662,-1.10361,2.30047,-9.47886,-13.4927,-7.01181,89.166
2023-02-16 21:31:33:671,-1.08328,2.28385,-9.48337,-13.4972,-7.00243,89.1613
2023-02-16 21:31:33:681,-1.088,2.28282,-9.47025,-13.4999,-7.00103,89.1584
2023-02-16 21:31:33:692,-1.12876,2.28752,-9.45224,-13.499,-7.00059,89.1594
2023-02-16 21:31:33:702,-1.16246,2.28422,-9.45634,-13.5014,-6.99984,89.1609
2023-02-16 21:31:33:712,-1.17562,2.28764,-9.46999,-13.5021,-7.00273,89.1635
2023-02-16 21:31:33:721,-1.19141,2.29534,-9.45688,-13.5018,-7.00231,89.1658
2023-02-16 21:31:33:732,-1.19546,2.28322,-9.44931,-13.5013,-7.00343,89.1677
2023-02-16 21:31:33:742,-1.17279,2.27088,-9.44957,-13.4987,-7.003,89.1696
2023-02-16 21:31:33:752,-1.18208,2.26672,-9.45894,-13.4973,-6.9978,89.1691
2023-02-16 21:31:33:762,-1.1801,2.27629,-9.44424,-13.4975,-6.99629,89.1693
2023-02-16 21:31:33:772,-1.16884,2.28145,-9.44064,-13.4961,-6.99483,89.171
2023-02-16 21:31:33:781,-1.16416,2.27593,-9.4509,-13.4937,-6.99309,89.1697
2023-02-16 21:31:33:792,-1.15937,2.27837,-9.47619,-13.4888,-6.99376,89.1653
2023-02-16 21:31:33:801,-1.15503,2.29226,-9.47509,-13.484,-6.99655,89.1649
2023-02-16 21:31:33:811,-1.13501,2.26556,-9.46583,-13.4788,-7.00054,89.1607
2023-02-16 21:31:33:822,-1.12895,2.26093,-9.44372,-13.4709,-7.00737,89.1577
2023-02-16 21:31:33:832,-1.12771,2.26362,-9.44845,-13.4695,-7.01463,89.1597
2023-02-16 21:31:33:842,-1.12938,2.26307,-9.43504,-13.4625,-7.01644,89.1633
2023-02-16 21:31:33:852,-1.12469,2.23374,-9.42439,-13.4586,-7.01977,89.1692
2023-02-16 21:31:33:862,-1.13379,2.22848,-9.44058,-13.4567,-7.02339,89.1767
2023-02-16 21:31:33:871,-1.14367,2.23865,-9.44119,-13.4559,-7.02488,89.1849
2023-02-16 21:31:33:881,-1.1705,2.2448,-9.42186,-13.4544,-7.02285,89.1958
2023-02-16 21:31:33:892,-1.17418,2.23764,-9.42454,-13.4515,-7.02502,89.206
2023-02-16 21:31:33:902,-1.18122,2.24785,-9.42128,-13.451,-7.02402,89.2168
2023-02-16 21:31:33:911,-1.18726,2.25268,-9.4188,-13.451,-7.02491,89.2288
2023-02-16 21:31:33:922,-1.20134,2.25524,-9.4276,-13.455,-7.02468,89.2406
2023-02-16 21:31:33:931,-1.20799,2.25092,-9.41647,-13.4585,-7.02334,89.2529
2023-02-16 21:31:33:942,-1.20838,2.25754,-9.39954,-13.4616,-7.02629,89.259
2023-02-16 21:31:33:952,-1.21008,2.2631,-9.4174,-13.4675,-7.02518,89.2664
2023-02-16 21:31:33:962,-1.19453,2.27272,-9.43847,-13.4749,-7.02284,89.2715
2023-02-16 21:31:33:972,-1.18452,2.27597,-9.45352,-13.4806,-7.02051,89.2756
2023-02-16 21:31:33:982,-1.16538,2.29043,-9.46272,-13.4876,-7.01809,89.2791
2023-02-16 21:31:33:992,-1.162,2.29993,-9.4878,-13.4925,-7.01811,89.2787
2023-02-16 21:31:34:2,-1.15437,2.30953,-9.48079,-13.4993,-7.02042,89.2801
2023-02-16 21:31:34:11,-1.14709,2.30111,-9.471,-13.5078,-7.02644,89.282
2023-02-16 21:31:34:22,-1.14445,2.29078,-9.45904,-13.5096,-7.02961,89.2834
2023-02-16 21:31:34:31,-1.14159,2.28751,-9.45703,-13.5119,-7.03143,89.2869
2023-02-16 21:31:34:42,-1.15956,2.29834,-9.45138,-13.5103,-7.0322,89.2929
2023-02-16 21:31:34:52,-1.18223,2.28938,-9.4361,-13.5117,-7.03266,89.2998
2023-02-16 21:31:34:62,-1.19551,2.28347,-9.43228,-13.5114,-7.03175,89.313
2023-02-16 21:31:34:72,-1.19829,2.28876,-9.43285,-13.5153,-7.03044,89.3235
2023-02-16 21:31:34:82,-1.22164,2.27662,-9.44668,-13.5179,-7.02493,89.3348
2023-02-16 21:31:34:92,-1.22759,2.28065,-9.44338,-13.5175,-7.01891,89.3401
2023-02-16 21:31:34:102,-1.23855,2.27264,-9.43098,-13.5195,-7.01368,89.3474
2023-02-16 21:31:34:112,-1.20962,2.25973,-9.42302,-13.5213,-7.00609,89.3512
2023-02-16 21:31:34:121,-1.19821,2.25286,-9.40013,-13.521,-6.99841,89.3511
2023-02-16 21:31:34:131,-1.18472,2.23509,-9.39702,-13.5201,-6.99516,89.3486
2023-02-16 21:31:34:141,-1.17245,2.2394,-9.43174,-13.5229,-6.99223,89.3445
2023-02-16 21:31:34:151,-1.1383,2.26388,-9.49049,-13.5246,-6.99075,89.3345
2023-02-16 21:31:34:161,-1.09218,2.25336,-9.50618,-13.5237,-6.98504,89.3251
2023-02-16 21:31:34:172,-1.04449,2.23232,-9.5034,-13.5234,-6.97725,89.3142
2023-02-16 21:31:34:181,-1.0459,2.23601,-9.47224,-13.5229,-6.98213,89.3104
2023-02-16 21:31:34:192,-1.06954,2.24561,-9.45321,-13.5266,-6.98938,89.3057
2023-02-16 21:31:34:201,-1.11662,2.26379,-9.44146,-13.5345,-7.00096,89.3055
2023-02-16 21:31:34:212,-1.14375,2.28733,-9.43464,-13.546,-7.01243,89.3099
2023-02-16 21:31:34:222,-1.17716,2.3197,-9.42373,-13.5582,-7.02282,89.3172
2023-02-16 21:31:34:232,-1.19108,2.33962,-9.42913,-13.5718,-7.03151,89.3259
2023-02-16 21:31:34:242,-1.18769,2.35109,-9.41835,-13.5853,-7.03725,89.3354
2023-02-16 21:31:34:252,-1.18923,2.35657,-9.40391,-13.5952,-7.04687,89.3456
2023-02-16 21:31:34:261,-1.21144,2.35059,-9.38856,-13.6027,-7.05558,89.3558
2023-02-16 21:31:34:271,-1.22373,2.34003,-9.38505,-13.6059,-7.06672,89.3657
2023-02-16 21:31:34:281,-1.22897,2.3263,-9.3975,-13.6069,-7.07782,89.3699
2023-02-16 21:31:34:291,-1.21772,2.31241,-9.40031,-13.6052,-7.08668,89.3734
2023-02-16 21:31:34:301,-1.22188,2.3029,-9.42757,-13.6077,-7.09661,89.3732
2023-02-16 21:31:34:312,-1.22753,2.29415,-9.44905,-13.6094,-7.10739,89.3656
2023-02-16 21:31:34:322,-1.22133,2.30303,-9.47261,-13.6088,-7.11877,89.361
2023-02-16 21:31:34:332,-1.22054,2.32358,-9.47963,-13.6087,-7.12717,89.3516
2023-02-16 21:31:34:342,-1.21008,2.34135,-9.46335,-13.6113,-7.13593,89.342
2023-02-16 21:31:34:351,-1.1971,2.32704,-9.43866,-13.6154,-7.14446,89.3342
2023-02-16 21:31:34:362,-1.22273,2.31472,-9.42316,-13.6175,-7.15077,89.325
2023-02-16 21:31:34:372,-1.2444,2.34063,-9.46112,-13.6198,-7.15047,89.3202
2023-02-16 21:31:34:382,-1.23807,2.36049,-9.46948,-13.6183,-7.14978,89.3181
2023-02-16 21:31:34:392,-1.18888,2.32015,-9.45273,-13.6148,-7.14228,89.3113
2023-02-16 21:31:34:402,-1.15352,2.29531,-9.41304,-13.6068,-7.13771,89.3037
2023-02-16 21:31:34:412,-1.1618,2.274,-9.41902,-13.6012,-7.13425,89.2977
2023-02-16 21:31:34:422,-1.18853,2.28365,-9.41432,-13.5941,-7.13254,89.2938
2023-02-16 21:31:34:432,-1.20692,2.29077,-9.41595,-13.5906,-7.12913,89.2927
2023-02-16 21:31:34:442,-1.23086,2.30087,-9.41421,-13.5895,-7.12231,89.2903
2023-02-16 21:31:34:452,-1.22451,2.31039,-9.40678,-13.59,-7.11706,89.2868
2023-02-16 21:31:34:462,-1.21764,2.29421,-9.41683,-13.5893,-7.1093,89.2837
2023-02-16 21:31:34:472,-1.2165,2.29639,-9.43381,-13.5895,-7.09812,89.2796
2023-02-16 21:31:34:482,-1.19441,2.31299,-9.44581,-13.5924,-7.08892,89.2753
2023-02-16 21:31:34:492,-1.18365,2.30756,-9.45304,-13.5911,-7.07956,89.2678
2023-02-16 21:31:34:501,-1.18974,2.30187,-9.44353,-13.5884,-7.06798,89.2571
2023-02-16 21:31:34:512,-1.16,2.29573,-9.42969,-13.5838,-7.05679,89.2483
2023-02-16 21:31:34:522,-1.14323,2.27956,-9.4375,-13.5805,-7.04776,89.2369
2023-02-16 21:31:34:531,-1.13103,2.2768,-9.44337,-13.5747,-7.04209,89.2237
2023-02-16 21:31:34:542,-1.12621,2.27227,-9.44859,-13.5699,-7.03581,89.2113
2023-02-16 21:31:34:552,-1.10999,2.26032,-9.46023,-13.5658,-7.03057,89.2043
2023-02-16 21:31:34:562,-1.11262,2.24969,-9.45625,-13.5631,-7.02974,89.1983
2023-02-16 21:31:34:572,-1.1209,2.25688,-9.4489,-13.559,-7.03071,89.1966
2023-02-16 21:31:34:582,-1.13118,2.26939,-9.44796,-13.5566,-7.03273,89.1949
2023-02-16 21:31:34:592,-1.13915,2.26035,-9.44532,-13.5561,-7.03238,89.1972
2023-02-16 21:31:34:602,-1.14789,2.27368,-9.45187,-13.5569,-7.03376,89.2013
2023-02-16 21:31:34:612,-1.15605,2.27807,-9.44344,-13.5546,-7.03709,89.2055
2023-02-16 21:31:34:622,-1.15928,2.26289,-9.43578,-13.5509,-7.0386,89.2086
2023-02-16 21:31:34:632,-1.15268,2.25637,-9.43022,-13.5485,-7.04151,89.2136
2023-02-16 21:31:34:642,-1.14408,2.24589,-9.42774,-13.5479,-7.0393,89.2233
2023-02-16 21:31:34:652,-1.16541,2.24288,-9.41152,-13.5461,-7.03795,89.2292
2023-02-16 21:31:34:662,-1.17143,2.24604,-9.40709,-13.5446,-7.03772,89.2348
2023-02-16 21:31:34:672,-1.15698,2.25868,-9.42191,-13.5446,-7.04013,89.2422
2023-02-16 21:31:34:681,-1.15307,2.26493,-9.44235,-13.5471,-7.0392,89.2499
2023-02-16 21:31:34:691,-1.18515,2.26015,-9.45709,-13.5472,-7.04046,89.2533
2023-02-16 21:31:34:701,-1.16366,2.27447,-9.46339,-13.545,-7.04303,89.2583
2023-02-16 21:31:34:711,-1.14423,2.28501,-9.44888,-13.5443,-7.04766,89.2604
2023-02-16 21:31:34:722,-1.17205,2.29044,-9.45438,-13.5465,-7.0503,89.2615
2023-02-16 21:31:34:731,-1.19813,2.29421,-9.45349,-13.5459,-7.05482,89.2654
2023-02-16 21:31:34:741,-1.19509,2.2871,-9.43977,-13.5466,-7.05925,89.2697
2023-02-16 21:31:34:752,-1.17934,2.2871,-9.42013,-13.5483,-7.06261,89.274
2023-02-16 21:31:34:762,-1.17681,2.28142,-9.41917,-13.5494,-7.06474,89.275
2023-02-16 21:31:34:772,-1.18564,2.2873,-9.45701,-13.5516,-7.06494,89.2771
2023-02-16 21:31:34:782,-1.20767,2.29173,-9.46183,-13.5513,-7.06178,89.2814
2023-02-16 21:31:34:792,-1.2126,2.26745,-9.41953,-13.5478,-7.05963,89.2812
2023-02-16 21:31:34:802,-1.2019,2.25641,-9.40717,-13.5463,-7.05847,89.2838
2023-02-16 21:31:34:812,-1.20677,2.2666,-9.4161,-13.5435,-7.05557,89.2884
2023-02-16 21:31:34:822,-1.21289,2.27466,-9.40958,-13.54,-7.04891,89.2901
2023-02-16 21:31:34:832,-1.20362,2.25268,-9.40299,-13.5359,-7.04517,89.2911
2023-02-16 21:31:34:842,-1.20414,2.25697,-9.42728,-13.5317,-7.03937,89.29
2023-02-16 21:31:34:852,-1.18174,2.28894,-9.48269,-13.5304,-7.03528,89.29
2023-02-16 21:31:34:862,-1.13792,2.28426,-9.50975,-13.5283,-7.02849,89.2848
2023-02-16 21:31:34:872,-1.10236,2.26074,-9.49539,-13.522,-7.01919,89.2779
2023-02-16 21:31:34:882,-1.10312,2.21966,-9.45769,-13.5142,-7.01595,89.2719
2023-02-16 21:31:34:892,-1.11681,2.23287,-9.43878,-13.5123,-7.01875,89.2696
2023-02-16 21:31:34:901,-1.13945,2.25951,-9.43348,-13.516,-7.02236,89.2695
2023-02-16 21:31:34:912,-1.16067,2.25921,-9.40949,-13.5213,-7.02441,89.2724
2023-02-16 21:31:34:922,-1.18031,2.26961,-9.38117,-13.5326,-7.02413,89.2785
2023-02-16 21:31:34:932,-1.18078,2.27502,-9.38582,-13.544,-7.02615,89.284
2023-02-16 21:31:34:942,-1.18972,2.2955,-9.39111,-13.5548,-7.02568,89.2911
2023-02-16 21:31:34:952,-1.19933,2.30488,-9.41061,-13.5644,-7.02343,89.2996
2023-02-16 21:31:34:962,-1.20346,2.30889,-9.41035,-13.5712,-7.02009,89.3029
2023-02-16 21:31:34:972,-1.22499,2.29768,-9.40697,-13.5745,-7.01813,89.308
2023-02-16 21:31:34:982,-1.21976,2.29287,-9.38729,-13.575,-7.01573,89.3096
2023-02-16 21:31:34:992,-1.20802,2.28472,-9.38517,-13.5779,-7.01311,89.3074
2023-02-16 21:31:35:1,-1.2093,2.27142,-9.39427,-13.5798,-7.00697,89.3051
2023-02-16 21:31:35:11,-1.21388,2.27415,-9.42426,-13.5838,-7.00458,89.3028
2023-02-16 21:31:35:22,-1.21826,2.29933,-9.46354,-13.5926,-7.00063,89.2999
2023-02-16 21:31:35:32,-1.18704,2.31032,-9.50661,-13.6041,-6.99597,89.2938
2023-02-16 21:31:35:42,-1.16519,2.34322,-9.51479,-13.6132,-6.98706,89.288
2023-02-16 21:31:35:51,-1.14061,2.34652,-9.48317,-13.6214,-6.97947,89.2826
2023-02-16 21:31:35:62,-1.17292,2.34488,-9.46116,-13.6261,-6.97401,89.2794
2023-02-16 21:31:35:72,-1.19378,2.37694,-9.48101,-13.6326,-6.969,89.2784
2023-02-16 21:31:35:82,-1.18578,2.37513,-9.49845,-13.6359,-6.95832,89.2742
2023-02-16 21:31:35:92,-1.13147,2.35524,-9.49113,-13.6329,-6.94431,89.2664
2023-02-16 21:31:35:102,-1.092,2.33388,-9.46774,-13.6301,-6.93334,89.259
2023-02-16 21:31:35:112,-1.0846,2.31146,-9.44336,-13.6226,-6.93258,89.2549
2023-02-16 21:31:35:122,-1.11198,2.29528,-9.45094,-13.6131,-6.93124,89.2485
2023-02-16 21:31:35:132,-1.142,2.28073,-9.44366,-13.6037,-6.92896,89.2428
2023-02-16 21:31:35:142,-1.1521,2.27971,-9.41888,-13.5952,-6.92418,89.2401
2023-02-16 21:31:35:152,-1.15214,2.25822,-9.41974,-13.5878,-6.92498,89.2377
2023-02-16 21:31:35:162,-1.11682,2.26405,-9.43508,-13.5828,-6.92404,89.236
2023-02-16 21:31:35:172,-1.12586,2.27232,-9.43292,-13.5794,-6.92214,89.2326
2023-02-16 21:31:35:182,-1.13876,2.25631,-9.41793,-13.5739,-6.91869,89.233
2023-02-16 21:31:35:192,-1.12411,2.27868,-9.41917,-13.5712,-6.91463,89.2326
2023-02-16 21:31:35:202,-1.13542,2.30411,-9.43679,-13.5721,-6.91796,89.2359
2023-02-16 21:31:35:212,-1.15863,2.30518,-9.44304,-13.5711,-6.91686,89.2414
2023-02-16 21:31:35:221,-1.15023,2.28473,-9.44408,-13.5638,-6.91779,89.2433
2023-02-16 21:31:35:232,-1.13719,2.277,-9.43875,-13.5551,-6.91937,89.2451
2023-02-16 21:31:35:242,-1.15996,2.26545,-9.43779,-13.5473,-6.92007,89.2479
2023-02-16 21:31:35:252,-1.16902,2.25764,-9.44131,-13.5402,-6.92208,89.2487
2023-02-16 21:31:35:262,-1.15705,2.26441,-9.44813,-13.5352,-6.92429,89.253
2023-02-16 21:31:35:272,-1.14914,2.25991,-9.46036,-13.5324,-6.92704,89.2554
2023-02-16 21:31:35:282,-1.15128,2.2735,-9.45407,-13.5298,-6.93061,89.2612
2023-02-16 21:31:35:292,-1.17012,2.25953,-9.43572,-13.5291,-6.93268,89.264
2023-02-16 21:31:35:302,-1.17111,2.25306,-9.42309,-13.5256,-6.93251,89.264
2023-02-16 21:31:35:312,-1.16355,2.26177,-9.41623,-13.5263,-6.93227,89.2662
2023-02-16 21:31:35:322,-1.17316,2.26819,-9.42599,-13.5261,-6.93093,89.2712
2023-02-16 21:31:35:332,-1.18473,2.27625,-9.42891,-13.5263,-6.9283,89.2753
2023-02-16 21:31:35:342,-1.17383,2.27783,-9.42238,-13.525,-6.92781,89.2768
2023-02-16 21:31:35:352,-1.17873,2.27397,-9.42401,-13.5283,-6.92487,89.2815
2023-02-16 21:31:35:362,-1.19334,2.28786,-9.45193,-13.5299,-6.92131,89.2887
2023-02-16 21:31:35:372,-1.18992,2.30782,-9.4519,-13.5276,-6.9164,89.2887
2023-02-16 21:31:35:382,-1.17026,2.27552,-9.44164,-13.5268,-6.91341,89.2905
2023-02-16 21:31:35:392,-1.18047,2.26916,-9.4346,-13.526,-6.90949,89.2931
2023-02-16 21:31:35:402,-1.17937,2.24396,-9.42775,-13.5256,-6.90867,89.2895
2023-02-16 21:31:35:412,-1.17374,2.25493,-9.43987,-13.5232,-6.9072,89.2873
2023-02-16 21:31:35:422,-1.17474,2.27667,-9.44793,-13.524,-6.90657,89.2839
2023-02-16 21:31:35:432,-1.16548,2.28024,-9.44325,-13.5264,-6.90865,89.2807
2023-02-16 21:31:35:442,-1.16203,2.29362,-9.45472,-13.525,-6.90692,89.2779
2023-02-16 21:31:35:452,-1.16648,2.29891,-9.44423,-13.5241,-6.9057,89.2748
2023-02-16 21:31:35:462,-1.17575,2.27913,-9.44103,-13.527,-6.9001,89.2714
2023-02-16 21:31:35:472,-1.18493,2.29065,-9.45406,-13.5261,-6.89325,89.2711
2023-02-16 21:31:35:482,-1.1953,2.31031,-9.47084,-13.5264,-6.88407,89.2695
2023-02-16 21:31:35:492,-1.19008,2.28078,-9.47554,-13.5229,-6.87338,89.2685
2023-02-16 21:31:35:502,-1.16985,2.28278,-9.44606,-13.5193,-6.86386,89.2663
2023-02-16 21:31:35:512,-1.15923,2.27747,-9.42812,-13.513,-6.85404,89.2615
2023-02-16 21:31:35:522,-1.1665,2.25101,-9.37655,-13.5099,-6.84657,89.2558
2023-02-16 21:31:35:532,-1.16182,2.22819,-9.36236,-13.5074,-6.83669,89.2498
2023-02-16 21:31:35:542,-1.15264,2.25086,-9.41832,-13.5022,-6.82931,89.2387
2023-02-16 21:31:35:552,-1.12801,2.26787,-9.51053,-13.4995,-6.82276,89.2242
2023-02-16 21:31:35:562,-1.07572,2.27508,-9.52345,-13.4989,-6.8153,89.2136
2023-02-16 21:31:35:572,-1.03778,2.23484,-9.47471,-13.4921,-6.81144,89.203
2023-02-16 21:31:35:582,-1.04773,2.19864,-9.43693,-13.4903,-6.81294,89.1944
2023-02-16 21:31:35:592,-1.06363,2.21471,-9.46241,-13.4889,-6.8144,89.1905
2023-02-16 21:31:35:601,-1.10846,2.23975,-9.44624,-13.4972,-6.81576,89.1906
2023-02-16 21:31:35:612,-1.12557,2.27125,-9.40572,-13.5099,-6.81378,89.1917
2023-02-16 21:31:35:622,-1.13545,2.29773,-9.40259,-13.5232,-6.81213,89.1974
2023-02-16 21:31:35:632,-1.15058,2.32916,-9.42142,-13.538,-6.81106,89.2016
2023-02-16 21:31:35:642,-1.18394,2.35248,-9.43125,-13.5498,-6.81294,89.2088
2023-02-16 21:31:35:652,-1.19851,2.33553,-9.39295,-13.5556,-6.80903,89.2129
2023-02-16 21:31:35:662,-1.20495,2.32383,-9.37123,-13.5593,-6.80306,89.2202
2023-02-16 21:31:35:672,-1.19843,2.30414,-9.37697,-13.5612,-6.7941,89.2233
2023-02-16 21:31:35:682,-1.19421,2.28022,-9.3807,-13.5608,-6.78825,89.2245
2023-02-16 21:31:35:692,-1.17448,2.28404,-9.40706,-13.5658,-6.7791,89.2247
2023-02-16 21:31:35:702,-1.17814,2.27101,-9.42246,-13.5715,-6.776,89.221
2023-02-16 21:31:35:712,-1.17755,2.25441,-9.41272,-13.5789,-6.77152,89.216
2023-02-16 21:31:35:722,-1.15625,2.26399,-9.46104,-13.5884,-6.76569,89.209
2023-02-16 21:31:35:732,-1.13922,2.30744,-9.50363,-13.5995,-6.75811,89.2013
2023-02-16 21:31:35:741,-1.14406,2.3393,-9.48881,-13.6126,-6.75231,89.1937
2023-02-16 21:31:35:752,-1.12718,2.32383,-9.44825,-13.6236,-6.74678,89.1872
2023-02-16 21:31:35:762,-1.15141,2.3229,-9.46236,-13.6337,-6.73788,89.1826
2023-02-16 21:31:35:772,-1.18062,2.35191,-9.48436,-13.6427,-6.73059,89.176
2023-02-16 21:31:35:782,-1.16862,2.34193,-9.47989,-13.6486,-6.71687,89.166
2023-02-16 21:31:35:792,-1.10104,2.31255,-9.4363,-13.6474,-6.69923,89.1575
2023-02-16 21:31:35:802,-1.05323,2.29349,-9.43581,-13.6447,-6.68544,89.1495
2023-02-16 21:31:35:812,-1.08121,2.30501,-9.46909,-13.6489,-6.67238,89.1399
2023-02-16 21:31:35:822,-1.1239,2.31622,-9.48915,-13.647,-6.66438,89.1331
2023-02-16 21:31:35:832,-1.14224,2.32323,-9.48437,-13.6439,-6.65715,89.1261
2023-02-16 21:31:35:842,-1.15049,2.32027,-9.48159,-13.6403,-6.65065,89.1206
2023-02-16 21:31:35:852,-1.15707,2.30062,-9.44117,-13.6315,-6.6453,89.1098
2023-02-16 21:31:35:862,-1.11771,2.26994,-9.40936,-13.6232,-6.64114,89.0944
2023-02-16 21:31:35:872,-1.06949,2.27879,-9.42867,-13.6176,-6.63405,89.0797
2023-02-16 21:31:35:882,-1.05171,2.30921,-9.44589,-13.6159,-6.62273,89.0687
2023-02-16 21:31:35:892,-1.06577,2.30189,-9.44911,-13.6135,-6.61437,89.0555
2023-02-16 21:31:35:902,-1.07099,2.30036,-9.44962,-13.6099,-6.60809,89.0476
2023-02-16 21:31:35:912,-1.05919,2.3122,-9.44233,-13.6038,-6.60035,89.037
2023-02-16 21:31:35:922,-1.05381,2.29751,-9.45594,-13.5959,-6.59177,89.026
2023-02-16 21:31:35:932,-1.05013,2.30015,-9.47799,-13.5881,-6.58393,89.021
2023-02-16 21:31:35:942,-1.04207,2.28282,-9.47945,-13.579,-6.57768,89.0188
2023-02-16 21:31:35:952,-1.04346,2.2753,-9.45692,-13.5654,-6.57234,89.0183
2023-02-16 21:31:35:962,-1.06492,2.2674,-9.46079,-13.5557,-6.57125,89.0208
2023-02-16 21:31:35:972,-1.07048,2.25802,-9.46028,-13.5442,-6.57331,89.0222
2023-02-16 21:31:35:982,-1.08119,2.2606,-9.44752,-13.5356,-6.57674,89.0286
2023-02-16 21:31:35:992,-1.0906,2.2797,-9.45474,-13.53,-6.57745,89.0319
2023-02-16 21:31:36:2,-1.09749,2.27159,-9.45706,-13.5237,-6.57786,89.0348
2023-02-16 21:31:36:12,-1.10212,2.27146,-9.43112,-13.5158,-6.57823,89.0401
2023-02-16 21:31:36:22,-1.09402,2.25524,-9.40443,-13.5101,-6.57711,89.0452
2023-02-16 21:31:36:32,-1.08989,2.24099,-9.4014,-13.5061,-6.57854,89.0529
