Timestamp,Acceleration_x,Acceleration_y,Acceleration_z,roll,pitch,yaw
2023-03-10 00:00:11:815,-1.63366,2.45573,-9.43943,-14.1964,-10.0363,78.6103
2023-03-10 00:00:11:823,-1.77267,2.46661,-9.41295,-14.1829,-10.0337,78.6384
2023-03-10 00:00:11:833,-1.86544,2.46833,-9.38262,-14.1647,-10.0214,78.6686
2023-03-10 00:00:11:843,-1.92632,2.43411,-9.34683,-14.145,-9.998,78.7
2023-03-10 00:00:11:853,-1.95045,2.40926,-9.33469,-14.1214,-9.96762,78.7308
2023-03-10 00:00:11:863,-1.98288,2.40308,-9.35396,-14.0985,-9.92977,78.7531
2023-03-10 00:00:11:873,-2.0067,2.38409,-9.37245,-14.0732,-9.89239,78.7725
2023-03-10 00:00:11:883,-2.02824,2.36539,-9.36352,-14.0459,-9.85332,78.7804
2023-03-10 00:00:11:893,-2.04091,2.32227,-9.34078,-14.0102,-9.81925,78.775
2023-03-10 00:00:11:903,-2.04489,2.2753,-9.29684,-13.9694,-9.78716,78.7512
2023-03-10 00:00:11:913,-2.03845,2.24169,-9.23863,-13.9282,-9.75826,78.7141
2023-03-10 00:00:11:923,-1.99407,2.2084,-9.1697,-13.888,-9.72763,78.6557
2023-03-10 00:00:11:933,-1.88641,2.18255,-9.12947,-13.8514,-9.69105,78.5801
2023-03-10 00:00:11:943,-1.73916,2.16034,-9.11685,-13.8227,-9.65466,78.4948
2023-03-10 00:00:11:953,-1.62443,2.16077,-9.10012,-13.8041,-9.61801,78.4023
2023-03-10 00:00:11:963,-1.5658,2.18894,-9.13105,-13.7983,-9.57982,78.3103
2023-03-10 00:00:11:973,-1.55489,2.25164,-9.19163,-13.8047,-9.54266,78.2189
2023-03-10 00:00:11:983,-1.54705,2.29306,-9.22722,-13.815,-9.50995,78.1222
2023-03-10 00:00:11:993,-1.53335,2.3151,-9.2493,-13.8297,-9.48087,78.0265
2023-03-10 00:00:12:3,-1.51618,2.34112,-9.27549,-13.851,-9.45523,77.9349
2023-03-10 00:00:12:13,-1.52309,2.35232,-9.32003,-13.8768,-9.4345,77.844
2023-03-10 00:00:12:23,-1.52792,2.38546,-9.33728,-13.9077,-9.41515,77.7519
2023-03-10 00:00:12:33,-1.52077,2.41578,-9.36647,-13.9391,-9.3959,77.6607
2023-03-10 00:00:12:43,-1.50294,2.43656,-9.38559,-13.9734,-9.37834,77.5683
2023-03-10 00:00:12:53,-1.48679,2.47301,-9.38983,-14.0072,-9.36328,77.477
2023-03-10 00:00:12:63,-1.47829,2.51285,-9.39175,-14.0398,-9.35013,77.3877
2023-03-10 00:00:12:73,-1.4809,2.5378,-9.4192,-14.0727,-9.33735,77.296
2023-03-10 00:00:12:83,-1.45309,2.57149,-9.45975,-14.1033,-9.32112,77.2057
2023-03-10 00:00:12:93,-1.4261,2.5826,-9.46495,-14.124,-9.30188,77.1158
2023-03-10 00:00:12:103,-1.41768,2.5581,-9.43505,-14.1378,-9.28011,77.0263
2023-03-10 00:00:12:113,-1.38823,2.50516,-9.36879,-14.1434,-9.26062,76.9383
2023-03-10 00:00:12:123,-1.36025,2.46106,-9.31879,-14.1487,-9.23798,76.8464
2023-03-10 00:00:12:133,-1.32677,2.41643,-9.29773,-14.1508,-9.20843,76.7553
2023-03-10 00:00:12:143,-1.27291,2.39302,-9.30011,-14.1557,-9.17644,76.6666
2023-03-10 00:00:12:153,-1.20588,2.38543,-9.31181,-14.1644,-9.14476,76.5815
2023-03-10 00:00:12:163,-1.16901,2.37545,-9.33917,-14.1744,-9.11339,76.4963
2023-03-10 00:00:12:173,-1.18365,2.38931,-9.3705,-14.1876,-9.08822,76.4175
2023-03-10 00:00:12:183,-1.23822,2.40391,-9.35515,-14.2046,-9.06778,76.3438
2023-03-10 00:00:12:193,-1.27961,2.39232,-9.32812,-14.221,-9.04679,76.2726
2023-03-10 00:00:12:203,-1.27276,2.35376,-9.34804,-14.2364,-9.03091,76.1987
2023-03-10 00:00:12:213,-1.26192,2.33558,-9.38759,-14.2472,-9.01093,76.1251
2023-03-10 00:00:12:223,-1.26276,2.30788,-9.39369,-14.2587,-9.00667,76.0537
2023-03-10 00:00:12:233,-1.26721,2.26794,-9.3441,-14.2699,-9.00353,75.979
2023-03-10 00:00:12:243,-1.25593,2.20717,-9.28305,-14.2854,-9.00924,75.9077
2023-03-10 00:00:12:253,-1.28313,2.17706,-9.25648,-14.3085,-9.02203,75.8403
2023-03-10 00:00:12:263,-1.32383,2.22687,-9.2912,-14.3399,-9.04341,75.7748
2023-03-10 00:00:12:273,-1.36977,2.28149,-9.37913,-14.3753,-9.07152,75.708
2023-03-10 00:00:12:283,-1.4094,2.34996,-9.43887,-14.41,-9.10256,75.6449
2023-03-10 00:00:12:293,-1.43674,2.36972,-9.43228,-14.4392,-9.13614,75.5762
2023-03-10 00:00:12:303,-1.44543,2.37803,-9.3931,-14.4623,-9.16792,75.507
2023-03-10 00:00:12:313,-1.43862,2.3745,-9.32151,-14.4837,-9.2046,75.4365
2023-03-10 00:00:12:323,-1.40542,2.3699,-9.31679,-14.5082,-9.24132,75.367
2023-03-10 00:00:12:333,-1.38616,2.3989,-9.34189,-14.5362,-9.28515,75.3029
2023-03-10 00:00:12:343,-1.44511,2.44462,-9.31424,-14.5654,-9.33225,75.2476
2023-03-10 00:00:12:353,-1.48325,2.47976,-9.2986,-14.5974,-9.37537,75.1933
2023-03-10 00:00:12:363,-1.43809,2.49256,-9.34661,-14.6269,-9.41756,75.1398
2023-03-10 00:00:12:373,-1.39569,2.52128,-9.40814,-14.6626,-9.45933,75.0953
2023-03-10 00:00:12:383,-1.38624,2.55834,-9.43773,-14.6972,-9.50562,75.0614
2023-03-10 00:00:12:393,-1.38958,2.5678,-9.47888,-14.7297,-9.55259,75.0371
2023-03-10 00:00:12:403,-1.41502,2.59428,-9.52549,-14.762,-9.60989,75.0233
2023-03-10 00:00:12:413,-1.48386,2.62998,-9.53908,-14.7939,-9.67492,75.0319
2023-03-10 00:00:12:423,-1.59112,2.65933,-9.53186,-14.8189,-9.74347,75.0499
2023-03-10 00:00:12:433,-1.6942,2.66988,-9.5409,-14.8396,-9.80643,75.0804
2023-03-10 00:00:12:443,-1.79615,2.68309,-9.51523,-14.85,-9.87012,75.1183
2023-03-10 00:00:12:453,-1.90543,2.68082,-9.47097,-14.8545,-9.92993,75.1609
2023-03-10 00:00:12:463,-1.99552,2.64795,-9.42369,-14.8419,-9.9834,75.1988
2023-03-10 00:00:12:473,-1.98458,2.61368,-9.40886,-14.8197,-10.0321,75.2337
2023-03-10 00:00:12:483,-1.99956,2.57881,-9.38619,-14.7901,-10.0753,75.2612
2023-03-10 00:00:12:493,-2.05966,2.53814,-9.32441,-14.7535,-10.1214,75.2827
2023-03-10 00:00:12:503,-2.06968,2.49142,-9.2391,-14.7145,-10.1641,75.2963
2023-03-10 00:00:12:513,-2.05638,2.4568,-9.15499,-14.6747,-10.2039,75.2976
2023-03-10 00:00:12:523,-2.04659,2.43937,-9.10778,-14.6405,-10.2363,75.2876
2023-03-10 00:00:12:533,-2.01938,2.41972,-9.1112,-14.6098,-10.2663,75.2694
2023-03-10 00:00:12:543,-1.973,2.4444,-9.12561,-14.5864,-10.2941,75.2433
2023-03-10 00:00:12:553,-1.88111,2.46116,-9.17145,-14.5643,-10.3134,75.2058
2023-03-10 00:00:12:563,-1.7976,2.45103,-9.22056,-14.5461,-10.3299,75.1688
2023-03-10 00:00:12:573,-1.7486,2.45826,-9.23336,-14.5286,-10.3416,75.132
2023-03-10 00:00:12:583,-1.72302,2.45067,-9.26191,-14.5152,-10.3475,75.0985
2023-03-10 00:00:12:593,-1.65481,2.44448,-9.29878,-14.4981,-10.3492,75.0681
2023-03-10 00:00:12:603,-1.57874,2.4553,-9.32365,-14.4903,-10.35,75.0466
2023-03-10 00:00:12:613,-1.56599,2.45159,-9.28741,-14.4791,-10.3488,75.0332
2023-03-10 00:00:12:623,-1.61512,2.419,-9.22635,-14.4745,-10.3533,75.0345
2023-03-10 00:00:12:633,-1.65047,2.40329,-9.22445,-14.4774,-10.3593,75.0462
2023-03-10 00:00:12:643,-1.69724,2.43445,-9.24611,-14.4893,-10.3592,75.0702
2023-03-10 00:00:12:653,-1.71747,2.4567,-9.32189,-14.5011,-10.358,75.0962
2023-03-10 00:00:12:663,-1.73344,2.47962,-9.38498,-14.5125,-10.3529,75.1267
2023-03-10 00:00:12:673,-1.76414,2.4875,-9.40953,-14.5214,-10.3494,75.1608
2023-03-10 00:00:12:683,-1.82137,2.49528,-9.38625,-14.5223,-10.3455,75.199
2023-03-10 00:00:12:693,-1.87748,2.47666,-9.354,-14.522,-10.3434,75.2358
2023-03-10 00:00:12:703,-1.903,2.45985,-9.3388,-14.5203,-10.3399,75.2716
2023-03-10 00:00:12:713,-1.88735,2.4762,-9.31981,-14.5134,-10.3338,75.3017
2023-03-10 00:00:12:723,-1.87978,2.48356,-9.31165,-14.5087,-10.3316,75.3249
2023-03-10 00:00:12:733,-1.88081,2.48688,-9.30686,-14.5037,-10.3271,75.3436
2023-03-10 00:00:12:743,-1.86076,2.48337,-9.31679,-14.4972,-10.3219,75.3583
2023-03-10 00:00:12:753,-1.84218,2.49128,-9.32133,-14.4888,-10.3189,75.3665
2023-03-10 00:00:12:763,-1.81724,2.48452,-9.33657,-14.48,-10.3134,75.3659
2023-03-10 00:00:12:773,-1.77662,2.47873,-9.34111,-14.466,-10.3073,75.3664
2023-03-10 00:00:12:784,-1.73432,2.46801,-9.33987,-14.4484,-10.3024,75.3651
2023-03-10 00:00:12:793,-1.69332,2.46091,-9.35904,-14.4377,-10.2935,75.3614
2023-03-10 00:00:12:803,-1.66523,2.45764,-9.36954,-14.4179,-10.2875,75.3612
2023-03-10 00:00:12:813,-1.62685,2.435,-9.3652,-14.3936,-10.2818,75.3606
2023-03-10 00:00:12:823,-1.61264,2.39797,-9.3335,-14.3658,-10.2777,75.3621
2023-03-10 00:00:12:833,-1.6456,2.37806,-9.29394,-14.3435,-10.2752,75.3688
2023-03-10 00:00:12:843,-1.65832,2.36457,-9.27492,-14.3219,-10.2733,75.3761
2023-03-10 00:00:12:853,-1.67693,2.34889,-9.2809,-14.306,-10.2737,75.3857
2023-03-10 00:00:12:863,-1.70557,2.33659,-9.28272,-14.2916,-10.2763,75.3965
2023-03-10 00:00:12:873,-1.71946,2.34203,-9.27344,-14.2777,-10.2772,75.4079
2023-03-10 00:00:12:883,-1.71276,2.35955,-9.28788,-14.2693,-10.2797,75.4159
2023-03-10 00:00:12:893,-1.67775,2.35708,-9.29853,-14.2611,-10.2826,75.4204
2023-03-10 00:00:12:903,-1.65641,2.34745,-9.29197,-14.2578,-10.2853,75.4259
2023-03-10 00:00:12:913,-1.67429,2.35152,-9.30309,-14.2566,-10.2923,75.4379
2023-03-10 00:00:12:923,-1.71306,2.37224,-9.29662,-14.2548,-10.3,75.4483
2023-03-10 00:00:12:933,-1.71106,2.37795,-9.3043,-14.2565,-10.3105,75.4634
2023-03-10 00:00:12:943,-1.69923,2.37706,-9.32698,-14.2593,-10.3175,75.4771
2023-03-10 00:00:12:953,-1.70867,2.38775,-9.33286,-14.2612,-10.3239,75.4906
2023-03-10 00:00:12:963,-1.72094,2.38262,-9.32069,-14.2625,-10.3296,75.5099
2023-03-10 00:00:12:973,-1.73498,2.37912,-9.31809,-14.2694,-10.3376,75.5282
2023-03-10 00:00:12:983,-1.75944,2.39336,-9.32027,-14.277,-10.341,75.5482
2023-03-10 00:00:12:993,-1.77259,2.39807,-9.33192,-14.2801,-10.342,75.5678
2023-03-10 00:00:13:3,-1.76465,2.39032,-9.31987,-14.281,-10.3421,75.5857
2023-03-10 00:00:13:13,-1.77108,2.37112,-9.30218,-14.2811,-10.3394,75.6052
2023-03-10 00:00:13:23,-1.77427,2.38148,-9.28929,-14.2892,-10.3366,75.6257
2023-03-10 00:00:13:33,-1.77256,2.41731,-9.33234,-14.2976,-10.3342,75.6423
2023-03-10 00:00:13:43,-1.78852,2.44064,-9.37262,-14.3016,-10.3315,75.6572
2023-03-10 00:00:13:53,-1.75827,2.43171,-9.3677,-14.3034,-10.3282,75.669
2023-03-10 00:00:13:63,-1.72521,2.41666,-9.3364,-14.3045,-10.3228,75.6796
2023-03-10 00:00:13:73,-1.72999,2.41848,-9.31802,-14.3074,-10.3166,75.6933
2023-03-10 00:00:13:83,-1.75802,2.44344,-9.32346,-14.3071,-10.3108,75.7049
2023-03-10 00:00:13:93,-1.74213,2.44154,-9.33108,-14.3073,-10.305,75.7181
2023-03-10 00:00:13:103,-1.73109,2.44302,-9.34881,-14.3042,-10.3002,75.7296
2023-03-10 00:00:13:113,-1.73238,2.44066,-9.35194,-14.3029,-10.2965,75.7393
2023-03-10 00:00:13:123,-1.72165,2.43789,-9.35951,-14.3002,-10.294,75.7498
2023-03-10 00:00:13:133,-1.70754,2.42889,-9.35195,-14.2941,-10.2891,75.7595
2023-03-10 00:00:13:143,-1.70485,2.42557,-9.32632,-14.2861,-10.2858,75.7686
2023-03-10 00:00:13:153,-1.71012,2.42366,-9.32382,-14.2799,-10.2847,75.7814
2023-03-10 00:00:13:163,-1.72919,2.42767,-9.33225,-14.2758,-10.2848,75.7885
2023-03-10 00:00:13:173,-1.75569,2.43472,-9.34183,-14.2705,-10.2851,75.7991
2023-03-10 00:00:13:183,-1.75671,2.43119,-9.33166,-14.2658,-10.2861,75.8094
2023-03-10 00:00:13:193,-1.7566,2.43236,-9.3255,-14.2606,-10.2887,75.8174
2023-03-10 00:00:13:203,-1.76397,2.43069,-9.33393,-14.2551,-10.2924,75.8274
2023-03-10 00:00:13:213,-1.74901,2.4098,-9.32993,-14.2478,-10.291,75.834
2023-03-10 00:00:13:223,-1.73801,2.3977,-9.32,-14.2379,-10.2946,75.8376
2023-03-10 00:00:13:233,-1.71943,2.38592,-9.3095,-14.2299,-10.2984,75.8452
2023-03-10 00:00:13:243,-1.71375,2.38534,-9.30185,-14.2199,-10.2988,75.8554
2023-03-10 00:00:13:253,-1.68945,2.37714,-9.29654,-14.2126,-10.2998,75.8635
2023-03-10 00:00:13:263,-1.68326,2.35771,-9.29083,-14.2088,-10.303,75.8756
2023-03-10 00:00:13:273,-1.70425,2.35674,-9.25928,-14.2033,-10.307,75.8903
2023-03-10 00:00:13:283,-1.74368,2.35687,-9.26155,-14.2025,-10.311,75.9103
2023-03-10 00:00:13:293,-1.75462,2.3796,-9.29685,-14.2017,-10.3148,75.9303
2023-03-10 00:00:13:303,-1.74708,2.40277,-9.34768,-14.203,-10.3194,75.9492
2023-03-10 00:00:13:313,-1.73547,2.40488,-9.38596,-14.2028,-10.3251,75.9646
2023-03-10 00:00:13:323,-1.72554,2.40896,-9.40962,-14.2049,-10.3363,75.9806
2023-03-10 00:00:13:333,-1.76037,2.43105,-9.39159,-14.203,-10.3507,75.9991
2023-03-10 00:00:13:343,-1.86023,2.44219,-9.34492,-14.2026,-10.3659,76.0155
2023-03-10 00:00:13:353,-1.8698,2.42969,-9.32333,-14.2014,-10.3759,76.0286
2023-03-10 00:00:13:363,-1.81456,2.41826,-9.31136,-14.1981,-10.3846,76.0327
2023-03-10 00:00:13:373,-1.78732,2.43091,-9.29409,-14.1986,-10.3919,76.038
2023-03-10 00:00:13:383,-1.81221,2.4395,-9.30159,-14.1927,-10.4,76.0449
2023-03-10 00:00:13:393,-1.84339,2.46386,-9.31104,-14.1903,-10.4054,76.0488
2023-03-10 00:00:13:403,-1.85748,2.45835,-9.30713,-14.1825,-10.4065,76.0506
2023-03-10 00:00:13:413,-1.85374,2.44614,-9.30094,-14.1717,-10.4077,76.049
2023-03-10 00:00:13:423,-1.83273,2.41923,-9.29875,-14.1598,-10.4076,76.0426
2023-03-10 00:00:13:433,-1.8019,2.40507,-9.29632,-14.1482,-10.4081,76.036
2023-03-10 00:00:13:443,-1.80337,2.39263,-9.27733,-14.1341,-10.4085,76.0261
2023-03-10 00:00:13:453,-1.80808,2.37837,-9.29612,-14.1244,-10.4089,76.0136
2023-03-10 00:00:13:463,-1.79653,2.3795,-9.32206,-14.1139,-10.4077,76.0015
2023-03-10 00:00:13:473,-1.77538,2.36855,-9.31932,-14.1011,-10.408,75.9878
2023-03-10 00:00:13:483,-1.76801,2.37328,-9.30911,-14.0921,-10.4051,75.9732
2023-03-10 00:00:13:493,-1.77533,2.36779,-9.33473,-14.0869,-10.4011,75.9596
2023-03-10 00:00:13:503,-1.75898,2.37378,-9.33843,-14.0846,-10.3926,75.9472
2023-03-10 00:00:13:513,-1.72086,2.37646,-9.33665,-14.0795,-10.3833,75.9354
2023-03-10 00:00:13:523,-1.71086,2.36697,-9.33038,-14.0771,-10.3761,75.9251
2023-03-10 00:00:13:533,-1.72426,2.36959,-9.30112,-14.073,-10.3706,75.9204
2023-03-10 00:00:13:543,-1.74722,2.36334,-9.28924,-14.0714,-10.3659,75.9142
2023-03-10 00:00:13:553,-1.7668,2.38008,-9.28052,-14.0676,-10.3586,75.9106
2023-03-10 00:00:13:563,-1.75627,2.38588,-9.27636,-14.0657,-10.3498,75.9033
2023-03-10 00:00:13:573,-1.6918,2.3745,-9.30108,-14.0648,-10.3357,75.8968
2023-03-10 00:00:13:583,-1.64908,2.36161,-9.33205,-14.0644,-10.3253,75.8893
2023-03-10 00:00:13:593,-1.65336,2.36045,-9.34702,-14.0681,-10.3212,75.887
2023-03-10 00:00:13:603,-1.68879,2.37686,-9.33805,-14.0672,-10.3197,75.8884
2023-03-10 00:00:13:613,-1.72034,2.3607,-9.32165,-14.0672,-10.3169,75.8885
2023-03-10 00:00:13:623,-1.71307,2.36072,-9.32943,-14.0668,-10.3172,75.8905
2023-03-10 00:00:13:633,-1.69491,2.35755,-9.34584,-14.0713,-10.319,75.8899
2023-03-10 00:00:13:643,-1.70136,2.36754,-9.35004,-14.076,-10.3182,75.8896
2023-03-10 00:00:13:653,-1.69988,2.39185,-9.35829,-14.0758,-10.3202,75.8918
2023-03-10 00:00:13:663,-1.72716,2.38908,-9.37301,-14.0779,-10.3214,75.8955
2023-03-10 00:00:13:673,-1.74261,2.39456,-9.34796,-14.0765,-10.3239,75.8991
2023-03-10 00:00:13:683,-1.76124,2.38548,-9.32873,-14.0756,-10.3253,75.906
2023-03-10 00:00:13:693,-1.75787,2.38603,-9.32991,-14.075,-10.3287,75.9082
2023-03-10 00:00:13:703,-1.7639,2.39595,-9.33233,-14.0737,-10.3309,75.9145
2023-03-10 00:00:13:713,-1.78275,2.3922,-9.32895,-14.0726,-10.333,75.9196
2023-03-10 00:00:13:723,-1.78724,2.37642,-9.30666,-14.0648,-10.3348,75.9229
2023-03-10 00:00:13:733,-1.76591,2.35007,-9.2833,-14.0578,-10.3361,75.9256
2023-03-10 00:00:13:743,-1.73958,2.31769,-9.2736,-14.0565,-10.3369,75.9268
2023-03-10 00:00:13:753,-1.72848,2.31672,-9.26437,-14.0548,-10.3399,75.9252
2023-03-10 00:00:13:763,-1.7417,2.30144,-9.28055,-14.0543,-10.3435,75.9283
2023-03-10 00:00:13:773,-1.75488,2.31596,-9.28941,-14.061,-10.3502,75.9347
2023-03-10 00:00:13:783,-1.78298,2.33519,-9.29919,-14.0709,-10.3527,75.9387
2023-03-10 00:00:13:793,-1.8002,2.35921,-9.31293,-14.0829,-10.3532,75.9436
2023-03-10 00:00:13:803,-1.77606,2.36152,-9.33015,-14.0925,-10.3566,75.9458
2023-03-10 00:00:13:813,-1.76777,2.36984,-9.32337,-14.1052,-10.3553,75.9479
2023-03-10 00:00:13:823,-1.76981,2.39315,-9.29547,-14.1167,-10.3532,75.952
2023-03-10 00:00:13:833,-1.74741,2.37891,-9.3018,-14.1271,-10.3525,75.9533
2023-03-10 00:00:13:843,-1.73225,2.37807,-9.29805,-14.1412,-10.3475,75.957
2023-03-10 00:00:13:853,-1.72341,2.39325,-9.28508,-14.1568,-10.3441,75.9609
2023-03-10 00:00:13:863,-1.72332,2.39567,-9.29239,-14.1713,-10.3429,75.9645
2023-03-10 00:00:13:873,-1.73458,2.41244,-9.30088,-14.1903,-10.3421,75.9688
2023-03-10 00:00:13:883,-1.75679,2.45261,-9.32073,-14.2064,-10.3383,75.9732
2023-03-10 00:00:13:893,-1.75404,2.45429,-9.37149,-14.2251,-10.3365,75.9768
2023-03-10 00:00:13:903,-1.73786,2.47327,-9.37557,-14.2364,-10.3333,75.9776
2023-03-10 00:00:13:913,-1.74136,2.46775,-9.36382,-14.2464,-10.3309,75.9787
2023-03-10 00:00:13:923,-1.71568,2.44714,-9.34499,-14.2514,-10.3264,75.978
2023-03-10 00:00:13:933,-1.70798,2.42397,-9.32458,-14.2566,-10.3226,75.9783
2023-03-10 00:00:13:943,-1.70768,2.42395,-9.31712,-14.262,-10.3204,75.9756
2023-03-10 00:00:13:953,-1.71755,2.42503,-9.31167,-14.2729,-10.3214,75.9758
2023-03-10 00:00:13:963,-1.71846,2.43129,-9.322,-14.2817,-10.3208,75.9795
2023-03-10 00:00:13:973,-1.73081,2.44407,-9.31714,-14.2886,-10.319,75.9796
2023-03-10 00:00:13:983,-1.72443,2.44578,-9.32273,-14.2942,-10.3174,75.9805
2023-03-10 00:00:13:993,-1.71644,2.43735,-9.32546,-14.2994,-10.3155,75.9847
2023-03-10 00:00:14:3,-1.73032,2.43794,-9.33197,-14.304,-10.3113,75.9879
2023-03-10 00:00:14:13,-1.74267,2.45968,-9.31896,-14.3091,-10.3081,75.9878
2023-03-10 00:00:14:23,-1.72949,2.46483,-9.31702,-14.3119,-10.3026,75.9873
2023-03-10 00:00:14:33,-1.73009,2.46311,-9.30053,-14.315,-10.3018,75.9872
2023-03-10 00:00:14:43,-1.73257,2.44609,-9.30342,-14.3176,-10.2971,75.9865
2023-03-10 00:00:14:53,-1.73477,2.44107,-9.30029,-14.3257,-10.2948,75.9852
2023-03-10 00:00:14:63,-1.71289,2.43577,-9.29213,-14.3315,-10.2946,75.9846
2023-03-10 00:00:14:73,-1.7044,2.43565,-9.28687,-14.3364,-10.2932,75.9855
2023-03-10 00:00:14:83,-1.70218,2.42586,-9.29836,-14.3438,-10.2966,75.9861
2023-03-10 00:00:14:93,-1.70197,2.43987,-9.30152,-14.3505,-10.2981,75.9878
2023-03-10 00:00:14:103,-1.7132,2.43981,-9.30887,-14.3575,-10.3003,75.9927
2023-03-10 00:00:14:113,-1.72907,2.44783,-9.31775,-14.3703,-10.3041,75.999
2023-03-10 00:00:14:123,-1.74384,2.47261,-9.32543,-14.3792,-10.3069,75.9997
2023-03-10 00:00:14:133,-1.74746,2.47921,-9.35302,-14.3864,-10.3095,75.9964
2023-03-10 00:00:14:143,-1.73416,2.4912,-9.36004,-14.3952,-10.3137,75.9979
2023-03-10 00:00:14:153,-1.73594,2.50602,-9.37149,-14.3992,-10.3162,75.9967
2023-03-10 00:00:14:163,-1.72769,2.49123,-9.36567,-14.3989,-10.322,75.9932
2023-03-10 00:00:14:173,-1.71911,2.47315,-9.34164,-14.3955,-10.3311,75.9946
2023-03-10 00:00:14:183,-1.74098,2.46347,-9.33749,-14.3913,-10.3351,75.9987
2023-03-10 00:00:14:193,-1.75666,2.45991,-9.32951,-14.3874,-10.3372,76.004
2023-03-10 00:00:14:203,-1.75597,2.45278,-9.32964,-14.3842,-10.3417,76.0083
2023-03-10 00:00:14:213,-1.7734,2.45877,-9.32064,-14.3781,-10.341,76.014
2023-03-10 00:00:14:223,-1.77111,2.45243,-9.32129,-14.3711,-10.3443,76.0181
2023-03-10 00:00:14:233,-1.77803,2.45945,-9.32652,-14.3685,-10.3455,76.0251
2023-03-10 00:00:14:243,-1.78652,2.45736,-9.34656,-14.3599,-10.3442,76.03
2023-03-10 00:00:14:253,-1.78374,2.44354,-9.32939,-14.3487,-10.3401,76.0348
2023-03-10 00:00:14:263,-1.75647,2.41308,-9.30014,-14.3341,-10.3403,76.039
2023-03-10 00:00:14:273,-1.74549,2.40725,-9.27685,-14.326,-10.3415,76.0423
2023-03-10 00:00:14:283,-1.73307,2.42286,-9.28039,-14.3196,-10.3468,76.0493
2023-03-10 00:00:14:293,-1.75868,2.43669,-9.30559,-14.3154,-10.3566,76.0547
2023-03-10 00:00:14:303,-1.77673,2.4318,-9.3255,-14.3068,-10.3617,76.0587
2023-03-10 00:00:14:313,-1.77659,2.41677,-9.32024,-14.2954,-10.3673,76.0598
2023-03-10 00:00:14:323,-1.76805,2.39904,-9.31123,-14.2838,-10.3697,76.0619
2023-03-10 00:00:14:333,-1.76794,2.38939,-9.32636,-14.2776,-10.3761,76.0665
2023-03-10 00:00:14:343,-1.74615,2.38929,-9.34956,-14.2672,-10.379,76.0693
2023-03-10 00:00:14:353,-1.72404,2.37285,-9.34248,-14.2571,-10.3804,76.0719
2023-03-10 00:00:14:363,-1.72508,2.36261,-9.31839,-14.2499,-10.3829,76.0787
2023-03-10 00:00:14:373,-1.75402,2.36642,-9.30123,-14.2462,-10.3901,76.0859
2023-03-10 00:00:14:383,-1.77439,2.36704,-9.28106,-14.2394,-10.3958,76.0872
2023-03-10 00:00:14:393,-1.79016,2.3855,-9.26711,-14.2355,-10.4035,76.0885
2023-03-10 00:00:14:403,-1.7914,2.39781,-9.27203,-14.2342,-10.4109,76.0907
2023-03-10 00:00:14:413,-1.79639,2.42328,-9.28452,-14.2362,-10.4182,76.0919
2023-03-10 00:00:14:423,-1.80059,2.44545,-9.3108,-14.2349,-10.4263,76.0898
2023-03-10 00:00:14:433,-1.78853,2.46277,-9.3309,-14.2317,-10.4293,76.0879
2023-03-10 00:00:14:444,-1.77098,2.44748,-9.31883,-14.2289,-10.4334,76.0864
2023-03-10 00:00:14:453,-1.74527,2.44062,-9.29585,-14.2228,-10.4368,76.0847
2023-03-10 00:00:14:463,-1.73764,2.41554,-9.27406,-14.2164,-10.4414,76.0829
2023-03-10 00:00:14:473,-1.72007,2.40067,-9.26994,-14.2085,-10.4431,76.0891
2023-03-10 00:00:14:483,-1.70451,2.4,-9.29989,-14.2072,-10.4424,76.0968
2023-03-10 00:00:14:493,-1.69467,2.42875,-9.32454,-14.2049,-10.4415,76.1091
2023-03-10 00:00:14:503,-1.70874,2.42568,-9.34864,-14.2048,-10.4416,76.1231
2023-03-10 00:00:14:513,-1.73592,2.42277,-9.33965,-14.205,-10.4414,76.1404
2023-03-10 00:00:14:523,-1.77356,2.41872,-9.33218,-14.2036,-10.4408,76.1623
2023-03-10 00:00:14:533,-1.80486,2.40505,-9.32488,-14.2026,-10.4398,76.181
2023-03-10 00:00:14:543,-1.80577,2.39002,-9.31919,-14.2005,-10.4378,76.1982
2023-03-10 00:00:14:553,-1.81232,2.38482,-9.31724,-14.1981,-10.4334,76.216
2023-03-10 00:00:14:563,-1.82273,2.39073,-9.30856,-14.1959,-10.4336,76.2281
2023-03-10 00:00:14:573,-1.80441,2.41615,-9.28874,-14.1959,-10.4337,76.2413
2023-03-10 00:00:14:583,-1.81114,2.41342,-9.28923,-14.1976,-10.4378,76.2488
2023-03-10 00:00:14:593,-1.82265,2.38567,-9.26958,-14.1978,-10.4425,76.2559
2023-03-10 00:00:14:603,-1.82037,2.38432,-9.25702,-14.1947,-10.4422,76.2621
2023-03-10 00:00:14:613,-1.79886,2.38904,-9.28096,-14.1964,-10.4378,76.267
2023-03-10 00:00:14:623,-1.76153,2.40536,-9.30797,-14.1948,-10.4359,76.2682
2023-03-10 00:00:14:633,-1.74065,2.39588,-9.34247,-14.1903,-10.4345,76.269
2023-03-10 00:00:14:643,-1.75407,2.39413,-9.33063,-14.186,-10.4377,76.269
2023-03-10 00:00:14:653,-1.78029,2.37362,-9.30526,-14.1802,-10.443,76.262
2023-03-10 00:00:14:663,-1.79338,2.35638,-9.29489,-14.1794,-10.4475,76.2571
2023-03-10 00:00:14:673,-1.77625,2.34879,-9.32393,-14.1789,-10.4518,76.2501
2023-03-10 00:00:14:683,-1.7564,2.37475,-9.34788,-14.1809,-10.4556,76.2421
2023-03-10 00:00:14:693,-1.72916,2.39781,-9.36353,-14.183,-10.4585,76.2326
2023-03-10 00:00:14:703,-1.72547,2.4078,-9.35697,-14.1854,-10.4627,76.2245
2023-03-10 00:00:14:713,-1.7205,2.41383,-9.35478,-14.1908,-10.4644,76.2186
2023-03-10 00:00:14:723,-1.70743,2.42825,-9.35775,-14.196,-10.4614,76.2153
2023-03-10 00:00:14:733,-1.70891,2.43467,-9.35719,-14.194,-10.4637,76.2136
2023-03-10 00:00:14:743,-1.72421,2.43376,-9.33836,-14.1914,-10.4617,76.2106
2023-03-10 00:00:14:753,-1.7158,2.42599,-9.3178,-14.1862,-10.4584,76.2077
2023-03-10 00:00:14:763,-1.70254,2.41469,-9.30677,-14.1836,-10.4544,76.211
2023-03-10 00:00:14:773,-1.70927,2.40748,-9.29667,-14.1768,-10.4543,76.215
2023-03-10 00:00:14:783,-1.71082,2.40148,-9.29517,-14.1748,-10.4543,76.2201
2023-03-10 00:00:14:793,-1.70402,2.38829,-9.311,-14.17,-10.4577,76.2262
2023-03-10 00:00:14:803,-1.70201,2.38845,-9.29975,-14.1662,-10.4591,76.2321
2023-03-10 00:00:14:813,-1.69808,2.3903,-9.30052,-14.1601,-10.4655,76.2374
2023-03-10 00:00:14:823,-1.71692,2.40121,-9.3046,-14.1625,-10.4718,76.2465
2023-03-10 00:00:14:833,-1.71586,2.41832,-9.31005,-14.1639,-10.481,76.2596
2023-03-10 00:00:14:843,-1.73444,2.41323,-9.31307,-14.169,-10.4883,76.2709
2023-03-10 00:00:14:853,-1.7611,2.41617,-9.30616,-14.1749,-10.498,76.283
2023-03-10 00:00:14:863,-1.76853,2.4334,-9.31722,-14.1805,-10.5053,76.2983
2023-03-10 00:00:14:873,-1.79069,2.44906,-9.32113,-14.1883,-10.5096,76.313
2023-03-10 00:00:14:883,-1.81321,2.44196,-9.31631,-14.1949,-10.517,76.3263
2023-03-10 00:00:14:893,-1.82498,2.44216,-9.32057,-14.1953,-10.5243,76.34
2023-03-10 00:00:14:903,-1.79819,2.42597,-9.31079,-14.1992,-10.5302,76.3492
2023-03-10 00:00:14:913,-1.78121,2.41519,-9.29662,-14.1995,-10.5387,76.3574
2023-03-10 00:00:14:923,-1.78171,2.40954,-9.27054,-14.1999,-10.5514,76.363
2023-03-10 00:00:14:933,-1.80031,2.39795,-9.28449,-14.2022,-10.5622,76.3681
2023-03-10 00:00:14:943,-1.79488,2.39446,-9.29159,-14.2061,-10.5717,76.3717
2023-03-10 00:00:14:953,-1.77095,2.38879,-9.29044,-14.2087,-10.5802,76.3757
2023-03-10 00:00:14:963,-1.7735,2.38397,-9.29078,-14.2119,-10.5915,76.3824
2023-03-10 00:00:14:973,-1.79089,2.39306,-9.29617,-14.2175,-10.6057,76.3892
2023-03-10 00:00:14:983,-1.79736,2.3981,-9.3087,-14.2238,-10.6151,76.3968
2023-03-10 00:00:14:993,-1.80984,2.40249,-9.32986,-14.2303,-10.6244,76.4049
2023-03-10 00:00:15:3,-1.81273,2.40742,-9.33537,-14.2342,-10.6311,76.4095
2023-03-10 00:00:15:13,-1.83195,2.41694,-9.33758,-14.2362,-10.6383,76.4159
2023-03-10 00:00:15:23,-1.84504,2.42792,-9.33741,-14.24,-10.6439,76.424
2023-03-10 00:00:15:33,-1.83609,2.43658,-9.34786,-14.2404,-10.6477,76.4307
2023-03-10 00:00:15:43,-1.8263,2.42421,-9.33986,-14.2394,-10.6525,76.4353
2023-03-10 00:00:15:53,-1.81171,2.41321,-9.32211,-14.2357,-10.6564,76.4395
2023-03-10 00:00:15:63,-1.80711,2.40057,-9.30894,-14.2291,-10.6613,76.443
2023-03-10 00:00:15:73,-1.8219,2.3909,-9.30533,-14.2239,-10.6647,76.4505
2023-03-10 00:00:15:83,-1.80985,2.39759,-9.30078,-14.2199,-10.6691,76.4585
2023-03-10 00:00:15:93,-1.80306,2.38995,-9.30414,-14.2176,-10.6749,76.4631
2023-03-10 00:00:15:103,-1.81957,2.40178,-9.29714,-14.213,-10.6761,76.4697
2023-03-10 00:00:15:113,-1.82847,2.39833,-9.307,-14.2089,-10.677,76.4775
2023-03-10 00:00:15:123,-1.83026,2.39557,-9.31111,-14.2039,-10.6795,76.4847
2023-03-10 00:00:15:133,-1.81075,2.38829,-9.31095,-14.1993,-10.6851,76.491
2023-03-10 00:00:15:143,-1.79585,2.38703,-9.29763,-14.1939,-10.6876,76.4932
2023-03-10 00:00:15:153,-1.8001,2.37647,-9.29559,-14.191,-10.6937,76.4975
2023-03-10 00:00:15:163,-1.80966,2.38375,-9.28749,-14.1839,-10.6989,76.5011
2023-03-10 00:00:15:173,-1.77606,2.36681,-9.2818,-14.179,-10.7004,76.5046
2023-03-10 00:00:15:183,-1.75583,2.35895,-9.28286,-14.1739,-10.7065,76.5094
2023-03-10 00:00:15:193,-1.75753,2.36143,-9.29316,-14.1712,-10.7108,76.5151
2023-03-10 00:00:15:203,-1.74792,2.3618,-9.28849,-14.1707,-10.7167,76.5218
2023-03-10 00:00:15:213,-1.75345,2.37094,-9.28807,-14.174,-10.721,76.5319
2023-03-10 00:00:15:223,-1.77961,2.38179,-9.29386,-14.1754,-10.7288,76.5451
2023-03-10 00:00:15:233,-1.79385,2.39001,-9.28661,-14.1764,-10.7361,76.562
2023-03-10 00:00:15:243,-1.81481,2.38666,-9.28378,-14.181,-10.7365,76.5782
2023-03-10 00:00:15:253,-1.83189,2.37774,-9.29557,-14.1854,-10.7427,76.5959
2023-03-10 00:00:15:263,-1.83712,2.39072,-9.28584,-14.1912,-10.7488,76.6087
2023-03-10 00:00:15:273,-1.8435,2.3831,-9.30602,-14.2016,-10.7505,76.6274
2023-03-10 00:00:15:283,-1.8385,2.40514,-9.3074,-14.2118,-10.7558,76.6414
2023-03-10 00:00:15:293,-1.83607,2.43678,-9.32162,-14.2189,-10.7623,76.6551
2023-03-10 00:00:15:303,-1.83129,2.45303,-9.31493,-14.2241,-10.7659,76.6658
2023-03-10 00:00:15:313,-1.82721,2.42639,-9.30754,-14.2271,-10.7718,76.6742
2023-03-10 00:00:15:323,-1.81211,2.41073,-9.29057,-14.2293,-10.776,76.6778
2023-03-10 00:00:15:333,-1.80134,2.40897,-9.29263,-14.2341,-10.7819,76.6865
2023-03-10 00:00:15:343,-1.81095,2.41988,-9.28999,-14.2376,-10.7859,76.6951
2023-03-10 00:00:15:353,-1.82994,2.41737,-9.29269,-14.241,-10.7901,76.7038
2023-03-10 00:00:15:363,-1.83573,2.41728,-9.31438,-14.2475,-10.7893,76.7131
2023-03-10 00:00:15:373,-1.8191,2.42169,-9.34607,-14.2487,-10.787,76.7211
2023-03-10 00:00:15:383,-1.80031,2.44063,-9.35529,-14.2512,-10.7845,76.7301
2023-03-10 00:00:15:393,-1.78521,2.42713,-9.34897,-14.2514,-10.7862,76.7384
2023-03-10 00:00:15:403,-1.79154,2.41716,-9.343,-14.2502,-10.7853,76.7444
2023-03-10 00:00:15:413,-1.80486,2.42308,-9.33324,-14.2476,-10.7847,76.7526
2023-03-10 00:00:15:423,-1.8299,2.42966,-9.32084,-14.247,-10.7873,76.7634
2023-03-10 00:00:15:433,-1.8631,2.42289,-9.31348,-14.2472,-10.7904,76.7768
2023-03-10 00:00:15:443,-1.86526,2.4454,-9.29336,-14.2483,-10.7883,76.7872
2023-03-10 00:00:15:453,-1.86252,2.46284,-9.2994,-14.245,-10.788,76.7937
2023-03-10 00:00:15:463,-1.85553,2.4647,-9.28715,-14.2392,-10.7854,76.7947
2023-03-10 00:00:15:473,-1.85222,2.44825,-9.2785,-14.2329,-10.7823,76.7959
2023-03-10 00:00:15:483,-1.82644,2.43824,-9.25859,-14.2254,-10.7781,76.7992
2023-03-10 00:00:15:493,-1.81129,2.41996,-9.25849,-14.2175,-10.7765,76.7987
2023-03-10 00:00:15:503,-1.79738,2.41193,-9.25616,-14.2085,-10.7721,76.7951
2023-03-10 00:00:15:513,-1.79751,2.41212,-9.26199,-14.2029,-10.7701,76.7939
2023-03-10 00:00:15:523,-1.80447,2.41981,-9.29458,-14.203,-10.7657,76.796
2023-03-10 00:00:15:533,-1.81729,2.43306,-9.34296,-14.2,-10.7669,76.7999
2023-03-10 00:00:15:543,-1.82061,2.4486,-9.36385,-14.1989,-10.7668,76.8023
2023-03-10 00:00:15:553,-1.82411,2.44566,-9.36154,-14.1941,-10.7646,76.8048
2023-03-10 00:00:15:563,-1.81379,2.43293,-9.36912,-14.1889,-10.7624,76.8072
2023-03-10 00:00:15:573,-1.79607,2.41232,-9.36206,-14.1834,-10.7613,76.8116
2023-03-10 00:00:15:583,-1.79911,2.41195,-9.35716,-14.1752,-10.7585,76.8178
2023-03-10 00:00:15:593,-1.81875,2.4221,-9.33923,-14.1655,-10.7559,76.8242
2023-03-10 00:00:15:603,-1.86536,2.42431,-9.32148,-14.1572,-10.7519,76.8315
2023-03-10 00:00:15:613,-1.86927,2.42191,-9.30957,-14.1447,-10.7474,76.8375
2023-03-10 00:00:15:623,-1.86419,2.40507,-9.27781,-14.1313,-10.7438,76.8392
2023-03-10 00:00:15:633,-1.88732,2.39801,-9.26812,-14.1165,-10.7394,76.843
2023-03-10 00:00:15:643,-1.88344,2.39882,-9.28691,-14.1081,-10.7343,76.8463
2023-03-10 00:00:15:653,-1.82825,2.3862,-9.30601,-14.0975,-10.7215,76.8439
2023-03-10 00:00:15:663,-1.74837,2.38567,-9.33654,-14.0888,-10.7065,76.8373
2023-03-10 00:00:15:673,-1.72212,2.37667,-9.35154,-14.0721,-10.6957,76.8324
2023-03-10 00:00:15:683,-1.75682,2.36711,-9.33084,-14.0585,-10.6901,76.833
2023-03-10 00:00:15:693,-1.80628,2.3567,-9.30706,-14.0403,-10.6903,76.831
2023-03-10 00:00:15:703,-1.79378,2.33706,-9.29744,-14.0228,-10.6923,76.831
2023-03-10 00:00:15:713,-1.78533,2.3202,-9.30011,-14.0108,-10.6918,76.8316
2023-03-10 00:00:15:723,-1.81407,2.32523,-9.32167,-14.0004,-10.6889,76.8363
2023-03-10 00:00:15:733,-1.81746,2.35249,-9.32251,-13.9945,-10.6884,76.8449
2023-03-10 00:00:15:743,-1.79995,2.36868,-9.3231,-13.9867,-10.6811,76.8516
2023-03-10 00:00:15:753,-1.81063,2.36548,-9.31177,-13.9765,-10.6745,76.8587
2023-03-10 00:00:15:763,-1.83647,2.36561,-9.31458,-13.968,-10.671,76.8651
2023-03-10 00:00:15:773,-1.83288,2.36364,-9.30885,-13.9595,-10.6659,76.8671
2023-03-10 00:00:15:783,-1.83485,2.36037,-9.31757,-13.9508,-10.6649,76.87
2023-03-10 00:00:15:793,-1.8437,2.3639,-9.327,-13.9441,-10.6636,76.8688
2023-03-10 00:00:15:803,-1.82591,2.36273,-9.32434,-13.9344,-10.6616,76.8616
2023-03-10 00:00:15:813,-1.77696,2.34375,-9.33384,-13.9201,-10.6606,76.8534
2023-03-10 00:00:15:823,-1.76273,2.31577,-9.31527,-13.9018,-10.6648,76.8404
2023-03-10 00:00:15:833,-1.70737,2.29341,-9.28611,-13.8857,-10.6682,76.8302
2023-03-10 00:00:15:843,-1.69247,2.27833,-9.27312,-13.8758,-10.673,76.826
2023-03-10 00:00:15:853,-1.73486,2.28766,-9.28797,-13.8725,-10.6802,76.8279
2023-03-10 00:00:15:863,-1.75478,2.30265,-9.31697,-13.8698,-10.6835,76.8327
2023-03-10 00:00:15:873,-1.77696,2.31638,-9.31365,-13.8683,-10.6883,76.8389
2023-03-10 00:00:15:883,-1.79013,2.32325,-9.32629,-13.8685,-10.6934,76.8487
2023-03-10 00:00:15:893,-1.82041,2.33392,-9.32417,-13.8673,-10.6922,76.8588
2023-03-10 00:00:15:903,-1.84197,2.33819,-9.32056,-13.8684,-10.6865,76.8715
2023-03-10 00:00:15:913,-1.83639,2.35427,-9.32459,-13.8706,-10.6843,76.8825
2023-03-10 00:00:15:923,-1.85727,2.36018,-9.31539,-13.8696,-10.6778,76.8913
2023-03-10 00:00:15:933,-1.85986,2.33936,-9.30219,-13.8669,-10.6745,76.901
2023-03-10 00:00:15:943,-1.84338,2.32324,-9.28363,-13.8665,-10.6703,76.9072
2023-03-10 00:00:15:953,-1.83574,2.33073,-9.2787,-13.8648,-10.6676,76.9073
2023-03-10 00:00:15:963,-1.84212,2.34329,-9.29266,-13.8626,-10.6628,76.9044
2023-03-10 00:00:15:973,-1.84502,2.34731,-9.31156,-13.8641,-10.6597,76.9023
2023-03-10 00:00:15:983,-1.82017,2.34683,-9.32399,-13.8677,-10.6553,76.8973
2023-03-10 00:00:15:993,-1.80977,2.35459,-9.33623,-13.8695,-10.6513,76.8893
2023-03-10 00:00:16:3,-1.78694,2.35282,-9.34977,-13.8716,-10.6479,76.8842
2023-03-10 00:00:16:13,-1.78575,2.36554,-9.36259,-13.8698,-10.6424,76.8799
2023-03-10 00:00:16:23,-1.769,2.36758,-9.3588,-13.8674,-10.6358,76.8722
2023-03-10 00:00:16:33,-1.7618,2.35523,-9.32976,-13.8617,-10.6329,76.8654
2023-03-10 00:00:16:43,-1.75497,2.34247,-9.32035,-13.86,-10.6306,76.8628
2023-03-10 00:00:16:53,-1.74669,2.34433,-9.3189,-13.8622,-10.6314,76.8601
2023-03-10 00:00:16:63,-1.73868,2.35648,-9.33462,-13.864,-10.629,76.8588
2023-03-10 00:00:16:73,-1.76101,2.36552,-9.35579,-13.8678,-10.6272,76.8596
2023-03-10 00:00:16:83,-1.77797,2.37425,-9.35727,-13.8679,-10.6278,76.8594
2023-03-10 00:00:16:93,-1.78285,2.36435,-9.32983,-13.8643,-10.6284,76.8648
2023-03-10 00:00:16:103,-1.77651,2.35935,-9.31412,-13.8624,-10.6277,76.8695
2023-03-10 00:00:16:113,-1.76743,2.34926,-9.31295,-13.8569,-10.628,76.8747
2023-03-10 00:00:16:123,-1.77256,2.337,-9.33174,-13.8586,-10.6299,76.881
2023-03-10 00:00:16:133,-1.78979,2.34158,-9.33054,-13.8579,-10.6321,76.885
2023-03-10 00:00:16:143,-1.7937,2.34516,-9.31281,-13.8566,-10.633,76.8931
2023-03-10 00:00:16:153,-1.79109,2.33665,-9.31483,-13.8533,-10.6325,76.9011
2023-03-10 00:00:16:163,-1.78177,2.31737,-9.31085,-13.8545,-10.6357,76.9082
2023-03-10 00:00:16:173,-1.78761,2.3257,-9.30978,-13.8556,-10.637,76.9147
2023-03-10 00:00:16:183,-1.78674,2.32686,-9.31142,-13.8581,-10.6389,76.9203
2023-03-10 00:00:16:193,-1.78564,2.3253,-9.31599,-13.8621,-10.6427,76.9291
2023-03-10 00:00:16:203,-1.78332,2.33626,-9.30902,-13.8691,-10.645,76.9387
2023-03-10 00:00:16:213,-1.77864,2.33781,-9.30485,-13.8739,-10.648,76.9449
2023-03-10 00:00:16:223,-1.78984,2.34069,-9.30589,-13.8794,-10.6561,76.9534
2023-03-10 00:00:16:233,-1.79146,2.34866,-9.32166,-13.8825,-10.6591,76.9635
2023-03-10 00:00:16:243,-1.78907,2.35274,-9.33339,-13.8895,-10.6618,76.9763
2023-03-10 00:00:16:253,-1.82091,2.37315,-9.34745,-13.8961,-10.662,76.9903
2023-03-10 00:00:16:263,-1.83984,2.39126,-9.35683,-13.9017,-10.6647,77.0041
2023-03-10 00:00:16:273,-1.83804,2.40178,-9.34448,-13.901,-10.6654,77.0141
2023-03-10 00:00:16:283,-1.81796,2.36846,-9.33228,-13.9006,-10.6658,77.0198
2023-03-10 00:00:16:293,-1.80939,2.34431,-9.32494,-13.8987,-10.6671,77.0258
2023-03-10 00:00:16:303,-1.79294,2.34598,-9.31611,-13.8985,-10.6687,77.0305
2023-03-10 00:00:16:313,-1.78294,2.34537,-9.29219,-13.8977,-10.6747,77.0309
2023-03-10 00:00:16:323,-1.75948,2.33657,-9.28079,-13.8982,-10.6805,77.033
2023-03-10 00:00:16:333,-1.74613,2.32908,-9.27642,-13.9008,-10.685,77.036
2023-03-10 00:00:16:343,-1.75228,2.33362,-9.31063,-13.901,-10.6909,77.0363
2023-03-10 00:00:16:353,-1.76058,2.35681,-9.36966,-13.9056,-10.6936,77.0416
2023-03-10 00:00:16:363,-1.7793,2.39391,-9.40098,-13.9111,-10.6974,77.0448
2023-03-10 00:00:16:373,-1.78418,2.40135,-9.41419,-13.9146,-10.7076,77.0489
2023-03-10 00:00:16:383,-1.79134,2.36916,-9.40755,-13.9126,-10.7164,77.0522
2023-03-10 00:00:16:393,-1.81213,2.33105,-9.36924,-13.9064,-10.7223,77.0592
2023-03-10 00:00:16:403,-1.83398,2.34586,-9.31966,-13.9027,-10.7322,77.0633
2023-03-10 00:00:16:413,-1.83634,2.34832,-9.30074,-13.9007,-10.7439,77.0631
2023-03-10 00:00:16:423,-1.80825,2.33659,-9.29683,-13.8953,-10.7557,77.0633
2023-03-10 00:00:16:433,-1.79147,2.33455,-9.30114,-13.8928,-10.7649,77.0626
2023-03-10 00:00:16:443,-1.77978,2.35281,-9.31596,-13.8899,-10.7733,77.0638
2023-03-10 00:00:16:453,-1.76739,2.365,-9.30446,-13.8871,-10.776,77.0665
2023-03-10 00:00:16:463,-1.76968,2.35925,-9.28201,-13.8823,-10.7841,77.072
2023-03-10 00:00:16:473,-1.78279,2.32972,-9.26281,-13.8783,-10.7901,77.0813
2023-03-10 00:00:16:483,-1.76256,2.31816,-9.2555,-13.8791,-10.7945,77.095
2023-03-10 00:00:16:493,-1.7905,2.3253,-9.25387,-13.8813,-10.7994,77.1141
2023-03-10 00:00:16:503,-1.79426,2.34385,-9.27989,-13.8851,-10.8007,77.1326
2023-03-10 00:00:16:513,-1.81595,2.34306,-9.29857,-13.8898,-10.7991,77.1521
2023-03-10 00:00:16:523,-1.80132,2.33889,-9.31339,-13.8978,-10.7975,77.1714
2023-03-10 00:00:16:533,-1.78279,2.33578,-9.31222,-13.9066,-10.7945,77.1925
2023-03-10 00:00:16:543,-1.79117,2.34181,-9.31972,-13.9132,-10.7947,77.2155
2023-03-10 00:00:16:553,-1.76922,2.3564,-9.33097,-13.9218,-10.7948,77.2396
2023-03-10 00:00:16:563,-1.74697,2.3629,-9.36238,-13.9314,-10.8012,77.2625
2023-03-10 00:00:16:573,-1.74149,2.36308,-9.37144,-13.9459,-10.807,77.2919
2023-03-10 00:00:16:583,-1.68911,2.3732,-9.38097,-13.9546,-10.8109,77.3223
2023-03-10 00:00:16:593,-1.65012,2.3683,-9.34491,-13.9642,-10.813,77.3618
2023-03-10 00:00:16:603,-1.69469,2.36237,-9.29978,-13.9729,-10.8155,77.4131
2023-03-10 00:00:16:613,-1.74976,2.35414,-9.29299,-13.9856,-10.8203,77.4657
2023-03-10 00:00:16:623,-1.75105,2.35777,-9.30063,-13.9972,-10.8226,77.5264
2023-03-10 00:00:16:633,-1.72492,2.35817,-9.30172,-14.0096,-10.8165,77.5858
2023-03-10 00:00:16:643,-1.67476,2.35252,-9.30936,-14.0206,-10.8098,77.652
2023-03-10 00:00:16:653,-1.65628,2.3321,-9.31837,-14.0323,-10.8051,77.723
2023-03-10 00:00:16:663,-1.71002,2.3432,-9.32176,-14.0433,-10.8066,77.8044
2023-03-10 00:00:16:673,-1.77965,2.34859,-9.30409,-14.0539,-10.8085,77.887
2023-03-10 00:00:16:683,-1.81737,2.33785,-9.29181,-14.0672,-10.8039,77.9705
2023-03-10 00:00:16:693,-1.81693,2.34457,-9.30312,-14.0842,-10.8012,78.0531
2023-03-10 00:00:16:703,-1.79646,2.35381,-9.33252,-14.1008,-10.7982,78.1368
2023-03-10 00:00:16:713,-1.80127,2.3523,-9.34252,-14.1193,-10.7943,78.2231
2023-03-10 00:00:16:723,-1.8047,2.35047,-9.32908,-14.1348,-10.79,78.313
2023-03-10 00:00:16:733,-1.81024,2.35677,-9.3125,-14.1526,-10.7853,78.4035
2023-03-10 00:00:16:743,-1.81823,2.35667,-9.29335,-14.1755,-10.7822,78.4921
2023-03-10 00:00:16:753,-1.83553,2.36611,-9.286,-14.1958,-10.7775,78.5771
2023-03-10 00:00:16:763,-1.84923,2.38115,-9.27797,-14.2183,-10.7707,78.6592
2023-03-10 00:00:16:773,-1.8429,2.38508,-9.28877,-14.2338,-10.7691,78.7421
2023-03-10 00:00:16:783,-1.84024,2.36419,-9.28383,-14.2519,-10.7684,78.8259
2023-03-10 00:00:16:793,-1.84975,2.35692,-9.25974,-14.2717,-10.7668,78.9043
2023-03-10 00:00:16:803,-1.84275,2.35192,-9.24259,-14.2931,-10.7659,78.9832
2023-03-10 00:00:16:813,-1.83972,2.34457,-9.24056,-14.3182,-10.7654,79.0605
2023-03-10 00:00:16:823,-1.83269,2.36516,-9.26257,-14.3456,-10.7634,79.1366
2023-03-10 00:00:16:833,-1.8448,2.39059,-9.27994,-14.3747,-10.7646,79.2124
2023-03-10 00:00:16:843,-1.88594,2.41618,-9.30763,-14.4008,-10.7658,79.2856
2023-03-10 00:00:16:853,-1.9024,2.43419,-9.31063,-14.4283,-10.7635,79.3588
2023-03-10 00:00:16:863,-1.90968,2.44508,-9.29617,-14.4534,-10.7563,79.4289
2023-03-10 00:00:16:873,-1.8893,2.44181,-9.29447,-14.4811,-10.7488,79.4988
2023-03-10 00:00:16:883,-1.89336,2.457,-9.30976,-14.5094,-10.7381,79.5656
2023-03-10 00:00:16:893,-1.89439,2.47833,-9.28875,-14.5323,-10.7287,79.631
2023-03-10 00:00:16:903,-1.88361,2.47963,-9.27726,-14.5594,-10.7191,79.6964
2023-03-10 00:00:16:913,-1.87158,2.48081,-9.28072,-14.5815,-10.7056,79.7566
2023-03-10 00:00:16:923,-1.86196,2.48207,-9.28294,-14.6027,-10.6925,79.8133
2023-03-10 00:00:16:933,-1.85761,2.49612,-9.29206,-14.6283,-10.6774,79.8711
2023-03-10 00:00:16:943,-1.8481,2.49953,-9.28739,-14.6489,-10.6617,79.9244
2023-03-10 00:00:16:953,-1.83796,2.49157,-9.27058,-14.6665,-10.6475,79.9799
2023-03-10 00:00:16:963,-1.82088,2.48798,-9.24833,-14.6849,-10.6295,80.0291
2023-03-10 00:00:16:973,-1.79079,2.48703,-9.24808,-14.7042,-10.6112,80.0745
2023-03-10 00:00:16:983,-1.76557,2.50782,-9.25672,-14.7278,-10.5973,80.1208
2023-03-10 00:00:16:993,-1.76098,2.50886,-9.27779,-14.7503,-10.5811,80.1672
2023-03-10 00:00:17:3,-1.75113,2.52295,-9.28171,-14.7811,-10.5671,80.2113
2023-03-10 00:00:17:13,-1.73156,2.5446,-9.30239,-14.8055,-10.5506,80.2563
2023-03-10 00:00:17:23,-1.73514,2.56294,-9.31534,-14.8351,-10.5378,80.3069
2023-03-10 00:00:17:33,-1.74031,2.57742,-9.33881,-14.8614,-10.523,80.3528
2023-03-10 00:00:17:43,-1.74315,2.59256,-9.34032,-14.8833,-10.5087,80.4005
2023-03-10 00:00:17:53,-1.7239,2.59535,-9.32317,-14.9047,-10.4964,80.4472
2023-03-10 00:00:17:63,-1.71975,2.58789,-9.33454,-14.9267,-10.4851,80.4938
2023-03-10 00:00:17:73,-1.69437,2.58658,-9.32847,-14.944,-10.4776,80.5432
2023-03-10 00:00:17:83,-1.68022,2.57513,-9.32718,-14.9572,-10.4714,80.5907
2023-03-10 00:00:17:93,-1.67652,2.57328,-9.31828,-14.9703,-10.4631,80.6415
2023-03-10 00:00:17:103,-1.70087,2.56619,-9.31085,-14.9835,-10.4594,80.6955
2023-03-10 00:00:17:113,-1.71492,2.5721,-9.3027,-14.9958,-10.4553,80.751
2023-03-10 00:00:17:123,-1.72956,2.5837,-9.32581,-15.0099,-10.4492,80.8116
2023-03-10 00:00:17:133,-1.74878,2.57426,-9.32232,-15.0184,-10.4442,80.8729
2023-03-10 00:00:17:143,-1.75431,2.56711,-9.29301,-15.0244,-10.4385,80.9313
2023-03-10 00:00:17:153,-1.76274,2.55575,-9.25796,-15.0314,-10.4293,80.9926
2023-03-10 00:00:17:163,-1.76093,2.54788,-9.26963,-15.0408,-10.4166,81.0569
2023-03-10 00:00:17:173,-1.75244,2.54165,-9.2679,-15.0534,-10.403,81.1186
2023-03-10 00:00:17:183,-1.74906,2.53189,-9.26579,-15.0622,-10.3923,81.184
2023-03-10 00:00:17:193,-1.7487,2.54816,-9.2459,-15.0727,-10.3788,81.247
2023-03-10 00:00:17:203,-1.72935,2.5493,-9.26039,-15.0892,-10.3678,81.3095
2023-03-10 00:00:17:213,-1.72131,2.56018,-9.28431,-15.1041,-10.3557,81.3739
2023-03-10 00:00:17:223,-1.70424,2.56303,-9.30138,-15.114,-10.342,81.4379
2023-03-10 00:00:17:233,-1.6742,2.56841,-9.29133,-15.1276,-10.3288,81.5068
2023-03-10 00:00:17:243,-1.66798,2.56505,-9.2905,-15.1387,-10.3138,81.5784
2023-03-10 00:00:17:253,-1.66852,2.55685,-9.2838,-15.1476,-10.3032,81.652
2023-03-10 00:00:17:263,-1.67085,2.54531,-9.27147,-15.16,-10.2948,81.7247
2023-03-10 00:00:17:273,-1.68482,2.55678,-9.28055,-15.1715,-10.2835,81.803
2023-03-10 00:00:17:283,-1.6942,2.56487,-9.29048,-15.1848,-10.2717,81.8792
2023-03-10 00:00:17:293,-1.69902,2.57409,-9.29169,-15.1932,-10.2606,81.9594
2023-03-10 00:00:17:303,-1.69744,2.57558,-9.29577,-15.206,-10.2533,82.0396
2023-03-10 00:00:17:313,-1.68949,2.5567,-9.29121,-15.2137,-10.2425,82.1189
2023-03-10 00:00:17:323,-1.67603,2.55972,-9.28455,-15.2211,-10.2298,82.1946
2023-03-10 00:00:17:333,-1.66727,2.56052,-9.28489,-15.2289,-10.222,82.2728
2023-03-10 00:00:17:343,-1.65978,2.55441,-9.27731,-15.2395,-10.2169,82.3546
2023-03-10 00:00:17:353,-1.66232,2.54162,-9.27365,-15.2506,-10.2123,82.4389
2023-03-10 00:00:17:363,-1.67696,2.56039,-9.28033,-15.2634,-10.2076,82.5246
2023-03-10 00:00:17:373,-1.72083,2.56971,-9.27602,-15.2746,-10.2065,82.6125
2023-03-10 00:00:17:383,-1.77714,2.5729,-9.2649,-15.2875,-10.2039,82.6968
2023-03-10 00:00:17:393,-1.78251,2.58599,-9.2718,-15.2984,-10.2011,82.781
2023-03-10 00:00:17:403,-1.77203,2.59311,-9.27454,-15.3105,-10.196,82.8633
2023-03-10 00:00:17:413,-1.78393,2.57681,-9.26598,-15.3162,-10.1911,82.9426
2023-03-10 00:00:17:423,-1.78267,2.56453,-9.2583,-15.3262,-10.1843,83.0162
2023-03-10 00:00:17:433,-1.77178,2.57336,-9.26804,-15.3382,-10.1808,83.0855
2023-03-10 00:00:17:443,-1.7887,2.59227,-9.27778,-15.3534,-10.1787,83.1517
2023-03-10 00:00:17:453,-1.8317,2.62132,-9.28242,-15.3679,-10.1767,83.2118
2023-03-10 00:00:17:463,-1.8693,2.64901,-9.28631,-15.3817,-10.1722,83.2679
2023-03-10 00:00:17:473,-1.89678,2.67612,-9.2929,-15.3941,-10.1712,83.3155
2023-03-10 00:00:17:483,-1.90185,2.70468,-9.30102,-15.4034,-10.1685,83.3543
2023-03-10 00:00:17:493,-1.89286,2.70894,-9.3,-15.4077,-10.1678,83.3858
2023-03-10 00:00:17:503,-1.89779,2.68391,-9.28067,-15.4054,-10.1702,83.4065
2023-03-10 00:00:17:513,-1.96334,2.678,-9.25366,-15.4022,-10.1765,83.4178
2023-03-10 00:00:17:523,-2.02196,2.67557,-9.24363,-15.3963,-10.1825,83.4171
2023-03-10 00:00:17:533,-2.0042,2.66741,-9.23135,-15.3848,-10.1898,83.4007
2023-03-10 00:00:17:543,-1.91294,2.64755,-9.23976,-15.3726,-10.1994,83.3755
2023-03-10 00:00:17:553,-1.84315,2.62902,-9.23611,-15.362,-10.2106,83.3413
2023-03-10 00:00:17:563,-1.81803,2.62066,-9.23958,-15.3518,-10.2247,83.3034
2023-03-10 00:00:17:573,-1.83866,2.61527,-9.26084,-15.3444,-10.2399,83.2621
2023-03-10 00:00:17:583,-1.871,2.63161,-9.28137,-15.3371,-10.2542,83.2182
2023-03-10 00:00:17:593,-1.93182,2.65868,-9.28274,-15.3274,-10.2704,83.1712
2023-03-10 00:00:17:603,-1.94101,2.67035,-9.28505,-15.3149,-10.2844,83.1159
2023-03-10 00:00:17:613,-1.88202,2.64976,-9.29782,-15.3054,-10.2954,83.0494
2023-03-10 00:00:17:623,-1.83181,2.63616,-9.30825,-15.2904,-10.3078,82.9754
2023-03-10 00:00:17:633,-1.79199,2.61529,-9.31311,-15.2745,-10.3241,82.9041
2023-03-10 00:00:17:643,-1.76037,2.62532,-9.31381,-15.2543,-10.3447,82.8265
2023-03-10 00:00:17:653,-1.75366,2.57236,-9.31005,-15.2309,-10.3653,82.7487
2023-03-10 00:00:17:663,-1.76557,2.54234,-9.28226,-15.1992,-10.3823,82.6678
2023-03-10 00:00:17:673,-1.77313,2.52483,-9.27593,-15.1709,-10.3994,82.5889
2023-03-10 00:00:17:683,-1.72212,2.50632,-9.3098,-15.1405,-10.4115,82.5078
2023-03-10 00:00:17:693,-1.65076,2.46683,-9.32942,-15.1028,-10.4208,82.4236
2023-03-10 00:00:17:703,-1.5775,2.40354,-9.30625,-15.0612,-10.43,82.3399
2023-03-10 00:00:17:713,-1.55383,2.35899,-9.2536,-15.0234,-10.4414,82.2641
2023-03-10 00:00:17:723,-1.53502,2.34149,-9.22693,-14.989,-10.453,82.1934
2023-03-10 00:00:17:733,-1.51549,2.34126,-9.20628,-14.9633,-10.4648,82.1301
2023-03-10 00:00:17:743,-1.51993,2.35697,-9.20623,-14.9501,-10.4766,82.075
2023-03-10 00:00:17:753,-1.51234,2.374,-9.24308,-14.9425,-10.4847,82.0271
2023-03-10 00:00:17:763,-1.47528,2.39149,-9.29557,-14.9394,-10.4892,81.9838
2023-03-10 00:00:17:773,-1.47656,2.42633,-9.31002,-14.9398,-10.4913,81.9475
2023-03-10 00:00:17:783,-1.46651,2.41568,-9.31964,-14.9393,-10.4957,81.9205
2023-03-10 00:00:17:793,-1.45656,2.41662,-9.33233,-14.9444,-10.5012,81.9008
2023-03-10 00:00:17:803,-1.45005,2.42704,-9.33456,-14.9535,-10.5084,81.8883
2023-03-10 00:00:17:813,-1.45273,2.41765,-9.34617,-14.9593,-10.5226,81.8836
2023-03-10 00:00:17:823,-1.46503,2.42541,-9.32726,-14.9645,-10.5351,81.8873
2023-03-10 00:00:17:833,-1.49984,2.4288,-9.30094,-14.9701,-10.5547,81.9004
2023-03-10 00:00:17:843,-1.53077,2.42286,-9.26853,-14.9823,-10.5752,81.9162
2023-03-10 00:00:17:853,-1.56165,2.41973,-9.22624,-14.9941,-10.5928,81.939
2023-03-10 00:00:17:863,-1.60216,2.43176,-9.19122,-15.01,-10.6113,81.9702
2023-03-10 00:00:17:873,-1.61829,2.44285,-9.18786,-15.0297,-10.635,82.0044
2023-03-10 00:00:17:883,-1.64019,2.45507,-9.19183,-15.0551,-10.6579,82.0412
2023-03-10 00:00:17:893,-1.6688,2.46032,-9.19549,-15.0847,-10.6814,82.0856
2023-03-10 00:00:17:903,-1.71189,2.48187,-9.17445,-15.1187,-10.7073,82.1343
2023-03-10 00:00:17:913,-1.75991,2.51831,-9.14533,-15.1604,-10.7336,82.1879
2023-03-10 00:00:17:923,-1.81875,2.55551,-9.15236,-15.2038,-10.7593,82.2399
2023-03-10 00:00:17:933,-1.85078,2.59693,-9.16424,-15.2544,-10.7814,82.2947
2023-03-10 00:00:17:943,-1.87838,2.64523,-9.17904,-15.3052,-10.8065,82.3492
2023-03-10 00:00:17:953,-1.93324,2.67317,-9.20102,-15.36,-10.8306,82.4064
2023-03-10 00:00:17:963,-1.96702,2.71109,-9.22082,-15.4156,-10.855,82.4594
2023-03-10 00:00:17:973,-1.99334,2.74961,-9.23518,-15.4691,-10.8778,82.5104
2023-03-10 00:00:17:983,-2.00354,2.78678,-9.2786,-15.5192,-10.9029,82.5542
2023-03-10 00:00:17:993,-2.00042,2.79756,-9.30442,-15.565,-10.9252,82.5925
2023-03-10 00:00:18:3,-1.98199,2.80032,-9.31168,-15.6057,-10.9476,82.6265
2023-03-10 00:00:18:13,-1.96341,2.80469,-9.30767,-15.641,-10.974,82.657
2023-03-10 00:00:18:23,-1.96894,2.80197,-9.29616,-15.6715,-11.0006,82.6863
2023-03-10 00:00:18:33,-1.96427,2.79044,-9.29429,-15.7014,-11.0263,82.7153
2023-03-10 00:00:18:43,-1.95149,2.79586,-9.30045,-15.726,-11.0527,82.7399
2023-03-10 00:00:18:53,-1.94354,2.81084,-9.30198,-15.7442,-11.0766,82.7607
2023-03-10 00:00:18:63,-1.92787,2.80809,-9.30498,-15.7588,-11.0989,82.7853
2023-03-10 00:00:18:73,-1.93043,2.78052,-9.2941,-15.7678,-11.1159,82.8076
2023-03-10 00:00:18:83,-1.9059,2.74215,-9.26073,-15.7749,-11.1342,82.8316
2023-03-10 00:00:18:93,-1.88904,2.71763,-9.21907,-15.7797,-11.1501,82.8539
2023-03-10 00:00:18:103,-1.88073,2.71781,-9.20609,-15.7863,-11.1642,82.8782
2023-03-10 00:00:18:113,-1.8628,2.72064,-9.21433,-15.7935,-11.176,82.9069
2023-03-10 00:00:18:123,-1.87783,2.71564,-9.22826,-15.802,-11.1912,82.9375
2023-03-10 00:00:18:133,-1.91881,2.70911,-9.24014,-15.8076,-11.2059,82.9664
2023-03-10 00:00:18:143,-1.93971,2.69742,-9.23718,-15.8118,-11.2175,83.0022
2023-03-10 00:00:18:153,-1.93031,2.70815,-9.23985,-15.8126,-11.2296,83.0318
2023-03-10 00:00:18:163,-1.92836,2.69856,-9.22465,-15.8172,-11.2396,83.0634
2023-03-10 00:00:18:173,-1.92123,2.67798,-9.22226,-15.8208,-11.2487,83.0961
2023-03-10 00:00:18:183,-1.92098,2.65759,-9.2056,-15.8237,-11.2558,83.1302
2023-03-10 00:00:18:193,-1.91882,2.64774,-9.1943,-15.8265,-11.2621,83.1684
2023-03-10 00:00:18:203,-1.92219,2.64241,-9.19781,-15.8322,-11.2665,83.2051
2023-03-10 00:00:18:213,-1.93388,2.65334,-9.21454,-15.8406,-11.272,83.2438
2023-03-10 00:00:18:223,-1.97473,2.65872,-9.22112,-15.8502,-11.2752,83.2846
2023-03-10 00:00:18:233,-1.97044,2.66859,-9.23031,-15.8571,-11.2775,83.3238
2023-03-10 00:00:18:243,-1.95201,2.66861,-9.23999,-15.867,-11.2765,83.3626
2023-03-10 00:00:18:253,-1.95835,2.67984,-9.23901,-15.8742,-11.2796,83.4028
2023-03-10 00:00:18:263,-1.963,2.66033,-9.23172,-15.8804,-11.2779,83.4382
2023-03-10 00:00:18:273,-1.95307,2.64626,-9.22753,-15.8818,-11.2753,83.4711
2023-03-10 00:00:18:283,-1.9278,2.63322,-9.21515,-15.883,-11.2709,83.4994
2023-03-10 00:00:18:293,-1.92459,2.61588,-9.20804,-15.8877,-11.2694,83.5336
2023-03-10 00:00:18:303,-1.92123,2.62183,-9.2163,-15.8884,-11.2672,83.5609
2023-03-10 00:00:18:313,-1.91087,2.6381,-9.22752,-15.8956,-11.263,83.5889
2023-03-10 00:00:18:323,-1.9049,2.64266,-9.21942,-15.8994,-11.2556,83.6148
2023-03-10 00:00:18:333,-1.90036,2.62883,-9.21485,-15.9018,-11.2485,83.636
2023-03-10 00:00:18:344,-1.89137,2.62065,-9.21482,-15.9056,-11.2453,83.6623
2023-03-10 00:00:18:353,-1.8891,2.64873,-9.23267,-15.9089,-11.2413,83.6873
2023-03-10 00:00:18:363,-1.88114,2.65728,-9.24782,-15.9108,-11.2383,83.7092
2023-03-10 00:00:18:373,-1.87191,2.64243,-9.24021,-15.9132,-11.2354,83.731
2023-03-10 00:00:18:383,-1.88719,2.62896,-9.2283,-15.9124,-11.2367,83.7543
2023-03-10 00:00:18:393,-1.91273,2.62689,-9.21545,-15.9133,-11.2342,83.7694
2023-03-10 00:00:18:403,-1.9003,2.61912,-9.20555,-15.911,-11.2391,83.7881
2023-03-10 00:00:18:413,-1.89055,2.60124,-9.18528,-15.9083,-11.2388,83.8012
2023-03-10 00:00:18:423,-1.88988,2.57224,-9.17247,-15.9117,-11.2412,83.814
2023-03-10 00:00:18:433,-1.88642,2.59619,-9.18578,-15.9203,-11.2429,83.8277
2023-03-10 00:00:18:443,-1.85207,2.62725,-9.24489,-15.9269,-11.2415,83.8386
2023-03-10 00:00:18:453,-1.83181,2.63193,-9.26346,-15.9364,-11.24,83.8499
2023-03-10 00:00:18:463,-1.82357,2.60203,-9.26332,-15.9417,-11.2409,83.8596
2023-03-10 00:00:18:473,-1.82951,2.60494,-9.25897,-15.9522,-11.2429,83.8781
2023-03-10 00:00:18:483,-1.85196,2.64001,-9.25315,-15.9632,-11.2472,83.8952
2023-03-10 00:00:18:493,-1.87119,2.67002,-9.25001,-15.9743,-11.2505,83.9133
2023-03-10 00:00:18:503,-1.85683,2.67629,-9.23794,-15.9894,-11.2514,83.9343
2023-03-10 00:00:18:513,-1.85852,2.69274,-9.22469,-16.0013,-11.2501,83.9538
2023-03-10 00:00:18:523,-1.84857,2.70145,-9.19823,-16.0117,-11.2488,83.9765
2023-03-10 00:00:18:533,-1.85355,2.69879,-9.17828,-16.021,-11.2468,83.9981
2023-03-10 00:00:18:543,-1.87396,2.69904,-9.18602,-16.0284,-11.2413,84.0206
2023-03-10 00:00:18:553,-1.86872,2.70131,-9.18349,-16.0343,-11.2367,84.0437
2023-03-10 00:00:18:563,-1.86569,2.69825,-9.16711,-16.0399,-11.2283,84.0684
2023-03-10 00:00:18:573,-1.87195,2.68341,-9.15574,-16.0492,-11.2213,84.0958
2023-03-10 00:00:18:583,-1.85191,2.67569,-9.16013,-16.06,-11.2131,84.1238
2023-03-10 00:00:18:593,-1.84581,2.67729,-9.17116,-16.0718,-11.2055,84.1512
2023-03-10 00:00:18:603,-1.85463,2.69353,-9.19745,-16.0891,-11.1998,84.1821
2023-03-10 00:00:18:613,-1.85038,2.70213,-9.22473,-16.108,-11.1933,84.2159
2023-03-10 00:00:18:623,-1.85987,2.71091,-9.23993,-16.1271,-11.1886,84.2504
2023-03-10 00:00:18:633,-1.86996,2.74596,-9.24738,-16.1481,-11.1854,84.2839
2023-03-10 00:00:18:643,-1.88768,2.76865,-9.25681,-16.1691,-11.1796,84.3226
2023-03-10 00:00:18:653,-1.91605,2.7723,-9.23949,-16.1851,-11.1733,84.3533
2023-03-10 00:00:18:663,-1.93285,2.77189,-9.23866,-16.1986,-11.1647,84.3888
2023-03-10 00:00:18:673,-1.9318,2.78473,-9.22689,-16.2094,-11.1629,84.4211
2023-03-10 00:00:18:683,-1.93364,2.77572,-9.20021,-16.2198,-11.1594,84.4533
2023-03-10 00:00:18:693,-1.94403,2.75199,-9.17952,-16.2293,-11.1528,84.4805
2023-03-10 00:00:18:703,-1.94502,2.77085,-9.1551,-16.2384,-11.1438,84.5052
2023-03-10 00:00:18:713,-1.91211,2.75515,-9.16641,-16.2466,-11.1337,84.5261
2023-03-10 00:00:18:724,-1.86298,2.75514,-9.20084,-16.2517,-11.1263,84.5384
2023-03-10 00:00:18:733,-1.82378,2.75478,-9.22949,-16.2565,-11.1212,84.5542
2023-03-10 00:00:18:743,-1.82943,2.74434,-9.23116,-16.259,-11.1236,84.5668
2023-03-10 00:00:18:753,-1.87215,2.74754,-9.21881,-16.2625,-11.1275,84.5777
2023-03-10 00:00:18:763,-1.87369,2.73271,-9.1994,-16.264,-11.1301,84.5897
2023-03-10 00:00:18:773,-1.86245,2.72768,-9.21734,-16.2684,-11.1408,84.5971
2023-03-10 00:00:18:783,-1.85665,2.74107,-9.23727,-16.2779,-11.1482,84.6072
2023-03-10 00:00:18:793,-1.8603,2.76604,-9.25311,-16.2842,-11.1581,84.6167
2023-03-10 00:00:18:803,-1.84554,2.7514,-9.26041,-16.2896,-11.1711,84.6206
2023-03-10 00:00:18:813,-1.83203,2.7394,-9.23784,-16.2909,-11.1842,84.6299
2023-03-10 00:00:18:823,-1.83563,2.71862,-9.208,-16.2946,-11.1958,84.6424
2023-03-10 00:00:18:833,-1.84887,2.70308,-9.18546,-16.3012,-11.2106,84.6558
2023-03-10 00:00:18:843,-1.86104,2.6912,-9.16605,-16.3067,-11.2275,84.6719
2023-03-10 00:00:18:853,-1.88563,2.67815,-9.15209,-16.3108,-11.2427,84.6888
2023-03-10 00:00:18:863,-1.89331,2.66641,-9.14602,-16.3192,-11.2594,84.7051
2023-03-10 00:00:18:873,-1.88599,2.64682,-9.12969,-16.3267,-11.2773,84.7191
2023-03-10 00:00:18:883,-1.87238,2.6366,-9.103,-16.3402,-11.2911,84.7382
2023-03-10 00:00:18:893,-1.88503,2.63586,-9.0954,-16.3568,-11.3107,84.7572
2023-03-10 00:00:18:903,-1.90224,2.64104,-9.11375,-16.3809,-11.3273,84.7748
2023-03-10 00:00:18:913,-1.91377,2.65939,-9.13407,-16.4064,-11.3439,84.796
2023-03-10 00:00:18:923,-1.93389,2.68187,-9.13965,-16.4343,-11.3599,84.8203
2023-03-10 00:00:18:933,-1.9537,2.70967,-9.15061,-16.4681,-11.3759,84.8449
2023-03-10 00:00:18:943,-1.96209,2.74519,-9.18097,-16.5047,-11.387,84.8692
2023-03-10 00:00:18:953,-1.99668,2.77841,-9.1962,-16.5392,-11.3975,84.8899
2023-03-10 00:00:18:963,-2.01531,2.80166,-9.20497,-16.5739,-11.4059,84.9173
2023-03-10 00:00:18:973,-2.00333,2.80818,-9.22208,-16.6075,-11.4116,84.9379
2023-03-10 00:00:18:983,-1.99807,2.81597,-9.21106,-16.6343,-11.4152,84.9558
2023-03-10 00:00:18:993,-2.01504,2.80903,-9.20558,-16.6558,-11.4184,84.9745
2023-03-10 00:00:19:3,-2.02596,2.81477,-9.19859,-16.6789,-11.4231,84.9859
2023-03-10 00:00:19:13,-2.02841,2.82942,-9.19142,-16.6991,-11.4232,84.9947
2023-03-10 00:00:19:23,-1.99558,2.80824,-9.18541,-16.7157,-11.4275,84.996
2023-03-10 00:00:19:33,-1.98504,2.80155,-9.18987,-16.7334,-11.4296,84.9975
2023-03-10 00:00:19:43,-1.97187,2.81314,-9.21586,-16.748,-11.4333,84.9965
2023-03-10 00:00:19:53,-1.96506,2.83925,-9.1987,-16.7637,-11.437,84.9902
2023-03-10 00:00:19:63,-1.94683,2.81182,-9.18074,-16.7749,-11.4351,84.9866
2023-03-10 00:00:19:73,-1.91542,2.79252,-9.15881,-16.7815,-11.4318,84.9783
2023-03-10 00:00:19:83,-1.90094,2.79859,-9.15275,-16.7942,-11.4293,84.9768
2023-03-10 00:00:19:93,-1.88435,2.81071,-9.17156,-16.8096,-11.4277,84.9752
2023-03-10 00:00:19:103,-1.85055,2.82752,-9.17696,-16.8251,-11.424,84.9694
2023-03-10 00:00:19:113,-1.81716,2.80779,-9.18029,-16.8386,-11.4191,84.9671
2023-03-10 00:00:19:123,-1.77826,2.77568,-9.16738,-16.8488,-11.415,84.9679
2023-03-10 00:00:19:133,-1.75077,2.76148,-9.1495,-16.8652,-11.4128,84.9742
2023-03-10 00:00:19:143,-1.71987,2.73587,-9.10311,-16.8788,-11.4092,84.9849
2023-03-10 00:00:19:153,-1.70991,2.70701,-9.07434,-16.9013,-11.4071,85.0033
2023-03-10 00:00:19:163,-1.74941,2.71038,-9.05057,-16.931,-11.407,85.0282
2023-03-10 00:00:19:173,-1.80679,2.7583,-9.07091,-16.9703,-11.4097,85.0601
2023-03-10 00:00:19:183,-1.85344,2.80907,-9.13772,-17.0132,-11.4086,85.0937
2023-03-10 00:00:19:193,-1.90286,2.83432,-9.17644,-17.0553,-11.4132,85.1297
2023-03-10 00:00:19:203,-1.94045,2.87073,-9.19294,-17.0977,-11.42,85.1646
2023-03-10 00:00:19:213,-1.95655,2.89717,-9.18366,-17.1386,-11.4304,85.1991
2023-03-10 00:00:19:223,-1.96679,2.91555,-9.17075,-17.1777,-11.4421,85.2271
2023-03-10 00:00:19:233,-1.96667,2.91502,-9.17658,-17.212,-11.4531,85.2522
2023-03-10 00:00:19:243,-1.97582,2.92911,-9.16309,-17.2467,-11.4661,85.2736
2023-03-10 00:00:19:253,-1.99126,2.91959,-9.1597,-17.2784,-11.4851,85.2917
2023-03-10 00:00:19:264,-1.9938,2.90809,-9.14306,-17.3131,-11.5055,85.3085
2023-03-10 00:00:19:273,-1.99437,2.9055,-9.15675,-17.343,-11.5219,85.3224
2023-03-10 00:00:19:283,-1.98867,2.92549,-9.16348,-17.3732,-11.5368,85.333
2023-03-10 00:00:19:293,-1.99038,2.90958,-9.1577,-17.4039,-11.5507,85.3408
2023-03-10 00:00:19:303,-1.99316,2.91898,-9.14579,-17.4303,-11.5677,85.3486
2023-03-10 00:00:19:313,-2.01765,2.93789,-9.14474,-17.4544,-11.5818,85.355
2023-03-10 00:00:19:323,-2.02134,2.95234,-9.1636,-17.4799,-11.5926,85.3577
2023-03-10 00:00:19:333,-2.00519,2.96522,-9.17788,-17.498,-11.598,85.3573
2023-03-10 00:00:19:343,-2.00486,2.95628,-9.15162,-17.5137,-11.6051,85.3584
2023-03-10 00:00:19:353,-2.00077,2.93869,-9.13526,-17.5324,-11.6086,85.3584
2023-03-10 00:00:19:363,-1.96294,2.92558,-9.15377,-17.5464,-11.6089,85.3561
2023-03-10 00:00:19:373,-1.94262,2.95177,-9.17773,-17.5632,-11.6084,85.3532
2023-03-10 00:00:19:383,-1.94003,2.97186,-9.21397,-17.5773,-11.608,85.3524
2023-03-10 00:00:19:393,-1.93385,2.97444,-9.21315,-17.5873,-11.6108,85.3503
2023-03-10 00:00:19:403,-1.94949,2.95181,-9.19397,-17.5933,-11.6156,85.3506
2023-03-10 00:00:19:413,-1.96855,2.94439,-9.1573,-17.5995,-11.6209,85.3536
2023-03-10 00:00:19:423,-1.99041,2.95014,-9.13859,-17.6021,-11.6239,85.353
2023-03-10 00:00:19:433,-2.0209,2.94521,-9.1212,-17.6094,-11.629,85.3566
2023-03-10 00:00:19:443,-2.02386,2.94764,-9.11762,-17.6128,-11.6312,85.3577
2023-03-10 00:00:19:453,-2.02153,2.96862,-9.10062,-17.6181,-11.6329,85.3556
2023-03-10 00:00:19:463,-2.03488,2.98419,-9.08709,-17.6229,-11.6352,85.35
2023-03-10 00:00:19:473,-2.03671,2.98057,-9.09817,-17.6253,-11.6348,85.3483
2023-03-10 00:00:19:483,-2.03701,2.98117,-9.09403,-17.6282,-11.6345,85.3442
2023-03-10 00:00:19:493,-2.03176,2.97248,-9.08788,-17.6253,-11.6308,85.3382
2023-03-10 00:00:19:504,-2.02276,2.97449,-9.0866,-17.6239,-11.626,85.3277
2023-03-10 00:00:19:513,-2.02568,2.97738,-9.07676,-17.621,-11.6255,85.3181
2023-03-10 00:00:19:523,-2.01956,2.9844,-9.08149,-17.6223,-11.6216,85.3085
2023-03-10 00:00:19:533,-2.00595,2.97586,-9.11802,-17.6247,-11.6186,85.2979
2023-03-10 00:00:19:543,-2.01944,2.98563,-9.14025,-17.6254,-11.6153,85.2865
2023-03-10 00:00:19:553,-2.03284,2.99105,-9.14298,-17.6248,-11.6156,85.2733
2023-03-10 00:00:19:563,-2.0521,2.99641,-9.14321,-17.6258,-11.6134,85.2595
2023-03-10 00:00:19:573,-2.08521,3.00061,-9.15903,-17.624,-11.6098,85.2398
2023-03-10 00:00:19:583,-2.09697,3.01764,-9.15697,-17.6188,-11.6094,85.2134
2023-03-10 00:00:19:593,-2.10789,3.0037,-9.15579,-17.6105,-11.6084,85.1793
2023-03-10 00:00:19:603,-2.15612,3.00549,-9.12875,-17.6023,-11.6134,85.1415
2023-03-10 00:00:19:613,-2.22865,3.01217,-9.11123,-17.5929,-11.6194,85.0953
2023-03-10 00:00:19:623,-2.3006,3.01969,-9.12049,-17.5798,-11.6345,85.0358
2023-03-10 00:00:19:633,-2.37135,3.03918,-9.13512,-17.5623,-11.6489,84.9591
2023-03-10 00:00:19:643,-2.39969,3.04801,-9.15272,-17.5386,-11.6658,84.8583
2023-03-10 00:00:19:653,-2.35184,3.03584,-9.16289,-17.5047,-11.6909,84.7367
2023-03-10 00:00:19:663,-2.25926,3.01162,-9.13939,-17.4615,-11.7266,84.5889
2023-03-10 00:00:19:673,-2.19886,2.95818,-9.09739,-17.4144,-11.767,84.4262
2023-03-10 00:00:19:683,-2.12684,2.9313,-9.11472,-17.3698,-11.8074,84.2503
2023-03-10 00:00:19:693,-2.0853,2.91004,-9.16074,-17.3242,-11.8577,84.067
2023-03-10 00:00:19:703,-2.25689,2.92726,-9.15173,-17.2865,-11.9191,83.8802
2023-03-10 00:00:19:713,-2.43475,2.95052,-9.17109,-17.242,-11.9887,83.6773
2023-03-10 00:00:19:724,-2.67616,2.98788,-9.17858,-17.1913,-12.0634,83.4538
2023-03-10 00:00:19:733,-3.0782,3.09209,-9.17694,-17.1393,-12.151,83.2021
2023-03-10 00:00:19:743,-3.44187,3.19381,-9.25214,-17.0691,-12.2511,82.8929
2023-03-10 00:00:19:753,-3.59987,3.29825,-9.25717,-16.9725,-12.3778,82.5021
2023-03-10 00:00:19:763,-3.50998,3.21428,-9.24519,-16.8405,-12.536,82.0228
2023-03-10 00:00:19:773,-3.58095,3.10078,-9.24737,-16.694,-12.7335,81.4787
2023-03-10 00:00:19:783,-4.12076,3.25307,-9.29315,-16.5391,-12.9771,80.8703
2023-03-10 00:00:19:793,-4.94539,3.54849,-9.35136,-16.362,-13.2839,80.1654
2023-03-10 00:00:19:803,-5.49798,3.8398,-9.3637,-16.1324,-13.657,79.2972
2023-03-10 00:00:19:813,-5.08905,3.82819,-9.32416,-15.8157,-14.0745,78.2174
2023-03-10 00:00:19:824,-3.77176,3.46603,-9.24901,-15.4245,-14.5076,76.9608
2023-03-10 00:00:19:833,-2.47209,3.04504,-9.16956,-14.9985,-14.9517,75.6201
2023-03-10 00:00:19:843,-1.48882,2.65205,-9.1009,-14.5705,-15.3975,74.2723
2023-03-10 00:00:19:853,-0.722856,2.32834,-9.09128,-14.164,-15.829,72.9732
2023-03-10 00:00:19:863,-0.11917,2.10562,-9.14791,-13.7907,-16.2226,71.7747
2023-03-10 00:00:19:873,0.322184,1.94492,-9.1668,-13.4537,-16.5593,70.7119
2023-03-10 00:00:19:883,0.654482,1.76083,-9.09598,-13.1565,-16.8198,69.8144
2023-03-10 00:00:19:893,0.881696,1.55577,-8.97291,-12.9045,-16.9949,69.1098
2023-03-10 00:00:19:903,0.987324,1.41038,-8.82939,-12.7174,-17.0792,68.617
2023-03-10 00:00:19:913,0.987518,1.34098,-8.75211,-12.5978,-17.0689,68.3442
2023-03-10 00:00:19:923,0.999157,1.24787,-8.65924,-12.563,-16.9758,68.2851
2023-03-10 00:00:19:933,0.957342,1.25721,-8.67206,-12.6114,-16.8102,68.4425
2023-03-10 00:00:19:943,0.769273,1.51123,-8.80114,-12.7454,-16.5874,68.8033
2023-03-10 00:00:19:953,0.510439,1.65169,-8.8273,-12.9391,-16.3166,69.3523
2023-03-10 00:00:19:963,0.252852,1.75703,-8.82311,-13.1854,-15.9906,70.069
2023-03-10 00:00:19:973,0.256172,1.92805,-8.90484,-13.4805,-15.6125,70.9259
2023-03-10 00:00:19:983,0.474535,2.09135,-9.08307,-13.8205,-15.1887,71.9199
2023-03-10 00:00:19:993,0.456012,2.32684,-9.18209,-14.1916,-14.732,73.0643
2023-03-10 00:00:20:3,0.0927391,2.55321,-9.17457,-14.5934,-14.2465,74.348
2023-03-10 00:00:20:13,-0.303867,2.77996,-9.14974,-15.0121,-13.7294,75.7417
2023-03-10 00:00:20:23,-0.586754,2.99446,-9.14705,-15.4453,-13.1779,77.223
2023-03-10 00:00:20:33,-0.956807,3.20089,-9.13774,-15.8842,-12.6027,78.7781
2023-03-10 00:00:20:43,-1.59236,3.42824,-9.092,-16.3226,-12.0009,80.3865
2023-03-10 00:00:20:53,-2.40787,3.65745,-9.13788,-16.752,-11.3784,82.008
2023-03-10 00:00:20:63,-3.10383,3.84454,-9.26758,-17.1615,-10.7596,83.5911
2023-03-10 00:00:20:73,-3.4596,4.04033,-9.51318,-17.5311,-10.1429,85.0934
2023-03-10 00:00:20:83,-3.4905,4.16861,-9.79048,-17.8362,-9.54106,86.4898
2023-03-10 00:00:20:93,-3.3675,4.10856,-9.86986,-18.0718,-8.97536,87.7805
2023-03-10 00:00:20:103,-3.32977,3.98522,-9.73265,-18.2547,-8.46911,88.9753
2023-03-10 00:00:20:113,-3.449,3.91331,-9.58107,-18.3978,-8.02664,90.0772
2023-03-10 00:00:20:123,-3.60891,3.84648,-9.4217,-18.5123,-7.65027,91.0771
2023-03-10 00:00:20:133,-3.7283,3.79417,-9.32736,-18.6054,-7.33402,91.9632
2023-03-10 00:00:20:143,-3.84371,3.76332,-9.29905,-18.6748,-7.06983,92.7305
2023-03-10 00:00:20:153,-3.91975,3.73897,-9.26998,-18.7157,-6.85196,93.3658
2023-03-10 00:00:20:163,-3.84234,3.6704,-9.26817,-18.7375,-6.68228,93.8664
2023-03-10 00:00:20:173,-3.65639,3.59055,-9.2478,-18.7401,-6.56564,94.2372
2023-03-10 00:00:20:183,-3.464,3.5154,-9.1996,-18.7291,-6.50362,94.483
2023-03-10 00:00:20:193,-3.29307,3.42445,-9.13227,-18.7093,-6.50083,94.6151
2023-03-10 00:00:20:203,-3.1281,3.36632,-9.09076,-18.6865,-6.54514,94.6405
2023-03-10 00:00:20:213,-2.9313,3.32658,-9.04693,-18.6551,-6.63086,94.5685
2023-03-10 00:00:20:223,-2.62619,3.26668,-9.00396,-18.6223,-6.74602,94.403
2023-03-10 00:00:20:233,-2.30751,3.1445,-8.95003,-18.5832,-6.8963,94.1683
2023-03-10 00:00:20:243,-2.1316,3.06889,-8.88996,-18.5586,-7.0671,93.8879
2023-03-10 00:00:20:253,-2.06925,3.10337,-8.90215,-18.5418,-7.24826,93.5591
2023-03-10 00:00:20:263,-1.97275,3.10731,-8.93231,-18.5341,-7.43876,93.1911
2023-03-10 00:00:20:273,-1.81704,3.10898,-8.97436,-18.5271,-7.62901,92.791
2023-03-10 00:00:20:283,-1.67954,3.12044,-9.04621,-18.5223,-7.8112,92.3619
2023-03-10 00:00:20:293,-1.56101,3.15118,-9.10003,-18.5184,-7.9891,91.9159
2023-03-10 00:00:20:303,-1.45423,3.21901,-9.18711,-18.5102,-8.15552,91.458
2023-03-10 00:00:20:313,-1.35131,3.21804,-9.2247,-18.4951,-8.31357,91.0018
2023-03-10 00:00:20:323,-1.23355,3.17238,-9.21694,-18.4706,-8.46481,90.5467
2023-03-10 00:00:20:333,-1.11608,3.13812,-9.20719,-18.4465,-8.60942,90.0982
2023-03-10 00:00:20:343,-1.03379,3.12472,-9.18201,-18.4256,-8.74287,89.6719
2023-03-10 00:00:20:353,-0.993524,3.13736,-9.20822,-18.405,-8.86493,89.2622
2023-03-10 00:00:20:363,-0.980823,3.12776,-9.21683,-18.3881,-8.97751,88.8747
2023-03-10 00:00:20:373,-0.976163,3.11437,-9.20716,-18.3745,-9.08015,88.5131
2023-03-10 00:00:20:383,-1.00638,3.16655,-9.23648,-18.3647,-9.16983,88.1758
2023-03-10 00:00:20:393,-1.01869,3.18501,-9.27556,-18.3547,-9.25315,87.8629
2023-03-10 00:00:20:403,-1.03284,3.17953,-9.24739,-18.3398,-9.33033,87.5726
2023-03-10 00:00:20:413,-1.08281,3.17126,-9.22507,-18.3289,-9.39382,87.3086
2023-03-10 00:00:20:423,-1.1379,3.14615,-9.20295,-18.3174,-9.44837,87.0718
2023-03-10 00:00:20:433,-1.15976,3.13295,-9.17823,-18.3053,-9.49703,86.8517
2023-03-10 00:00:20:443,-1.16258,3.1168,-9.18249,-18.2914,-9.54141,86.654
2023-03-10 00:00:20:453,-1.19323,3.11072,-9.18912,-18.2773,-9.57681,86.483
2023-03-10 00:00:20:463,-1.24377,3.10205,-9.17833,-18.2614,-9.60923,86.3244
2023-03-10 00:00:20:473,-1.29364,3.0554,-9.1525,-18.2415,-9.63426,86.1842
2023-03-10 00:00:20:483,-1.34325,3.02304,-9.13534,-18.2274,-9.6541,86.0585
2023-03-10 00:00:20:493,-1.40344,3.0204,-9.15255,-18.2141,-9.66943,85.9461
2023-03-10 00:00:20:503,-1.45568,3.03227,-9.17009,-18.2045,-9.68148,85.8479
2023-03-10 00:00:20:513,-1.50377,3.02369,-9.17669,-18.1953,-9.68975,85.758
2023-03-10 00:00:20:523,-1.55305,3.03345,-9.1763,-18.1799,-9.694,85.6747
2023-03-10 00:00:20:533,-1.57585,3.03785,-9.16618,-18.173,-9.6964,85.5956
2023-03-10 00:00:20:543,-1.57293,3.01948,-9.14738,-18.1603,-9.696,85.5169
2023-03-10 00:00:20:553,-1.58225,2.96665,-9.1251,-18.1475,-9.69153,85.4394
2023-03-10 00:00:20:563,-1.57802,2.94156,-9.09516,-18.1408,-9.68611,85.3637
2023-03-10 00:00:20:573,-1.56106,2.95108,-9.08856,-18.1406,-9.68307,85.2916
2023-03-10 00:00:20:583,-1.52128,2.96269,-9.08238,-18.1402,-9.68015,85.2192
2023-03-10 00:00:20:593,-1.53893,2.9794,-9.10736,-18.1458,-9.67565,85.1528
2023-03-10 00:00:20:603,-1.58481,3.01113,-9.13942,-18.1544,-9.66274,85.0906
2023-03-10 00:00:20:613,-1.56519,3.02832,-9.13668,-18.1635,-9.65105,85.0275
2023-03-10 00:00:20:623,-1.51981,3.02658,-9.13584,-18.1676,-9.63799,84.9614
2023-03-10 00:00:20:633,-1.49876,3.0318,-9.15589,-18.1774,-9.6271,84.8973
2023-03-10 00:00:20:643,-1.48795,3.02851,-9.18707,-18.1837,-9.61654,84.8358
2023-03-10 00:00:20:653,-1.50212,3.04076,-9.20071,-18.1886,-9.61024,84.7812
2023-03-10 00:00:20:663,-1.5246,3.04917,-9.2204,-18.1907,-9.60519,84.7298
2023-03-10 00:00:20:673,-1.52407,3.06905,-9.23,-18.1929,-9.59668,84.6748
2023-03-10 00:00:20:683,-1.54876,3.0755,-9.24462,-18.1935,-9.59113,84.623
2023-03-10 00:00:20:693,-1.56567,3.11129,-9.23968,-18.1972,-9.58554,84.5719
2023-03-10 00:00:20:703,-1.56347,3.10745,-9.24991,-18.1949,-9.57818,84.5224
2023-03-10 00:00:20:713,-1.5599,3.10119,-9.24975,-18.1857,-9.57122,84.4669
2023-03-10 00:00:20:723,-1.57898,3.09755,-9.24409,-18.1744,-9.56327,84.4167
2023-03-10 00:00:20:733,-1.58612,3.11216,-9.24109,-18.1617,-9.55735,84.3655
2023-03-10 00:00:20:743,-1.56058,3.11552,-9.22182,-18.1472,-9.55246,84.3103
2023-03-10 00:00:20:753,-1.54454,3.08026,-9.16979,-18.1258,-9.54787,84.2528
2023-03-10 00:00:20:763,-1.5589,3.04845,-9.11543,-18.1031,-9.54531,84.1997
2023-03-10 00:00:20:773,-1.58255,3.01141,-9.09211,-18.0839,-9.54789,84.144
2023-03-10 00:00:20:783,-1.60048,3.01398,-9.09039,-18.063,-9.55187,84.0836
2023-03-10 00:00:20:793,-1.60495,3.0045,-9.09355,-18.0492,-9.55982,84.0228
2023-03-10 00:00:20:803,-1.60491,2.99825,-9.10349,-18.0306,-9.56491,83.9554
2023-03-10 00:00:20:813,-1.58975,2.9908,-9.10451,-18.0196,-9.57863,83.8944
2023-03-10 00:00:20:823,-1.57701,2.98526,-9.11582,-18.0076,-9.59179,83.8278
2023-03-10 00:00:20:833,-1.56566,2.97381,-9.13462,-18.0006,-9.60931,83.7601
2023-03-10 00:00:20:843,-1.56447,2.98743,-9.13649,-17.9991,-9.63083,83.699
2023-03-10 00:00:20:853,-1.58732,3.00436,-9.12286,-17.9992,-9.65532,83.6396
2023-03-10 00:00:20:863,-1.6092,3.01337,-9.12787,-18.0008,-9.68182,83.5819
2023-03-10 00:00:20:873,-1.63709,3.0287,-9.14462,-18.0039,-9.70693,83.5245
2023-03-10 00:00:20:883,-1.64668,3.04143,-9.14726,-18.0063,-9.72872,83.4696
2023-03-10 00:00:20:893,-1.64352,3.06024,-9.15023,-18.0061,-9.74778,83.4153
2023-03-10 00:00:20:903,-1.63553,3.05947,-9.14771,-18.0071,-9.76224,83.3629
2023-03-10 00:00:20:913,-1.61567,3.03914,-9.15455,-18.0071,-9.77259,83.3076
2023-03-10 00:00:20:923,-1.60364,3.04395,-9.15519,-18.0059,-9.77899,83.2563
2023-03-10 00:00:20:933,-1.5937,3.04279,-9.15951,-18.004,-9.78364,83.206
2023-03-10 00:00:20:943,-1.6011,3.04604,-9.15717,-18.0013,-9.78257,83.1625
2023-03-10 00:00:20:953,-1.59654,3.03165,-9.15216,-17.9973,-9.77769,83.1246
2023-03-10 00:00:20:963,-1.58924,3.03857,-9.15941,-17.9979,-9.77249,83.0845
2023-03-10 00:00:20:973,-1.58073,3.0413,-9.18077,-17.996,-9.7615,83.0481
2023-03-10 00:00:20:983,-1.56512,3.04011,-9.1805,-17.993,-9.75549,83.0164
2023-03-10 00:00:20:993,-1.57065,3.03931,-9.18961,-17.9918,-9.74254,82.9865
2023-03-10 00:00:21:3,-1.58214,3.05602,-9.19541,-17.99,-9.7325,82.9616
2023-03-10 00:00:21:13,-1.5881,3.05165,-9.18916,-17.9879,-9.72573,82.9426
2023-03-10 00:00:21:23,-1.58131,3.0416,-9.18342,-17.9836,-9.7148,82.9226
2023-03-10 00:00:21:33,-1.57944,3.02606,-9.18198,-17.975,-9.70364,82.9042
2023-03-10 00:00:21:43,-1.55499,3.01155,-9.18338,-17.9696,-9.69356,82.8879
2023-03-10 00:00:21:53,-1.55524,3.00751,-9.16639,-17.9648,-9.68076,82.8738
2023-03-10 00:00:21:63,-1.56016,2.99161,-9.16001,-17.9564,-9.67201,82.8593
2023-03-10 00:00:21:73,-1.58327,2.99157,-9.1528,-17.9536,-9.66398,82.8498
2023-03-10 00:00:21:83,-1.57729,2.99766,-9.15386,-17.9484,-9.65795,82.8395
2023-03-10 00:00:21:93,-1.56974,3.00983,-9.14475,-17.9437,-9.65042,82.8312
2023-03-10 00:00:21:103,-1.58932,2.99367,-9.11923,-17.9357,-9.64356,82.8216
2023-03-10 00:00:21:113,-1.59773,2.98127,-9.11502,-17.9313,-9.63597,82.8123
2023-03-10 00:00:21:123,-1.5496,2.98673,-9.12748,-17.9277,-9.63212,82.7997
2023-03-10 00:00:21:133,-1.51448,2.98574,-9.14342,-17.9253,-9.62551,82.7878
2023-03-10 00:00:21:143,-1.50839,2.9708,-9.1482,-17.9249,-9.62163,82.7782
2023-03-10 00:00:21:153,-1.51898,2.97517,-9.15144,-17.9288,-9.62372,82.7708
2023-03-10 00:00:21:163,-1.53829,2.99339,-9.16902,-17.9342,-9.63234,82.7646
2023-03-10 00:00:21:173,-1.53663,3.00071,-9.16664,-17.9382,-9.63965,82.7596
2023-03-10 00:00:21:183,-1.56389,2.99632,-9.18167,-17.9418,-9.64541,82.7604
2023-03-10 00:00:21:193,-1.58655,2.99665,-9.179,-17.9423,-9.64758,82.761
2023-03-10 00:00:21:203,-1.59094,3.00355,-9.16827,-17.9465,-9.65511,82.7661
2023-03-10 00:00:21:213,-1.58259,3.00014,-9.17355,-17.9517,-9.65936,82.769
2023-03-10 00:00:21:223,-1.57953,3.00693,-9.16679,-17.9551,-9.66397,82.772
2023-03-10 00:00:21:233,-1.599,3.00337,-9.17096,-17.9582,-9.66636,82.7796
2023-03-10 00:00:21:243,-1.61102,3.00211,-9.1778,-17.9612,-9.66829,82.786
2023-03-10 00:00:21:253,-1.62058,3.00422,-9.19491,-17.9615,-9.67016,82.791
2023-03-10 00:00:21:263,-1.63988,3.00647,-9.1931,-17.9595,-9.67304,82.7959
2023-03-10 00:00:21:273,-1.64778,3.01144,-9.19207,-17.9578,-9.67371,82.8006
2023-03-10 00:00:21:283,-1.64715,3.00617,-9.18685,-17.9537,-9.6758,82.8047
2023-03-10 00:00:21:293,-1.64093,2.98983,-9.18536,-17.9511,-9.6789,82.8077
2023-03-10 00:00:21:303,-1.64613,2.98914,-9.16234,-17.9477,-9.68489,82.806
2023-03-10 00:00:21:313,-1.64322,2.97988,-9.15615,-17.9445,-9.6892,82.8003
2023-03-10 00:00:21:323,-1.60887,2.98466,-9.15108,-17.9401,-9.69493,82.7946
2023-03-10 00:00:21:333,-1.59892,2.98045,-9.1471,-17.9408,-9.69871,82.7906
2023-03-10 00:00:21:343,-1.6119,2.97001,-9.1487,-17.9386,-9.70243,82.7889
2023-03-10 00:00:21:353,-1.6092,2.95965,-9.1516,-17.939,-9.70666,82.7847
2023-03-10 00:00:21:363,-1.58878,2.97456,-9.16333,-17.9392,-9.70806,82.7822
2023-03-10 00:00:21:373,-1.56731,3.001,-9.19728,-17.9438,-9.71321,82.7819
2023-03-10 00:00:21:383,-1.55149,2.99589,-9.21625,-17.9488,-9.71485,82.7824
2023-03-10 00:00:21:393,-1.57534,2.99682,-9.18874,-17.9503,-9.71852,82.7834
2023-03-10 00:00:21:403,-1.60991,3.00175,-9.15984,-17.9527,-9.72766,82.787
2023-03-10 00:00:21:413,-1.62257,3.00591,-9.15088,-17.9584,-9.73619,82.7915
2023-03-10 00:00:21:423,-1.61428,3.01891,-9.17035,-17.967,-9.74321,82.7956
2023-03-10 00:00:21:433,-1.61776,3.05243,-9.16886,-17.9714,-9.75259,82.7963
2023-03-10 00:00:21:443,-1.62365,3.05612,-9.16735,-17.9763,-9.76339,82.7965
2023-03-10 00:00:21:453,-1.61236,3.05456,-9.16348,-17.9838,-9.77425,82.7979
2023-03-10 00:00:21:463,-1.62641,3.06836,-9.14978,-17.9905,-9.78863,82.7998
2023-03-10 00:00:21:473,-1.63608,3.05665,-9.1406,-17.9884,-9.79942,82.8001
2023-03-10 00:00:21:483,-1.62348,3.03517,-9.14047,-17.9866,-9.81091,82.7995
2023-03-10 00:00:21:493,-1.60684,3.01969,-9.12117,-17.9784,-9.82901,82.7977
2023-03-10 00:00:21:503,-1.59733,2.99859,-9.09276,-17.979,-9.84766,82.8004
2023-03-10 00:00:21:513,-1.61874,2.9972,-9.09521,-17.9856,-9.86834,82.8093
2023-03-10 00:00:21:523,-1.66016,2.99644,-9.1295,-17.9943,-9.88762,82.82
2023-03-10 00:00:21:533,-1.68521,2.99121,-9.16013,-18.0017,-9.90952,82.832
2023-03-10 00:00:21:543,-1.70642,3.0172,-9.16881,-18.01,-9.9259,82.8447
2023-03-10 00:00:21:553,-1.7256,3.03859,-9.18893,-18.0208,-9.94255,82.8565
2023-03-10 00:00:21:563,-1.74376,3.02698,-9.19671,-18.0302,-9.9508,82.8697
2023-03-10 00:00:21:573,-1.76213,3.04421,-9.18679,-18.0365,-9.95841,82.8808
2023-03-10 00:00:21:583,-1.76664,3.05735,-9.18656,-18.0421,-9.96447,82.8891
2023-03-10 00:00:21:593,-1.76386,3.06127,-9.17809,-18.0495,-9.97215,82.896
2023-03-10 00:00:21:603,-1.76401,3.05895,-9.16753,-18.0535,-9.97875,82.9001
2023-03-10 00:00:21:613,-1.78915,3.05568,-9.14306,-18.053,-9.98678,82.9048
2023-03-10 00:00:21:623,-1.79997,3.05415,-9.12826,-18.054,-9.99006,82.902
2023-03-10 00:00:21:633,-1.74607,3.0295,-9.12591,-18.052,-9.98874,82.8944
2023-03-10 00:00:21:643,-1.67179,3.02432,-9.14549,-18.0513,-9.98922,82.8835
2023-03-10 00:00:21:653,-1.62289,3.01926,-9.17097,-18.0465,-9.99331,82.8746
2023-03-10 00:00:21:663,-1.62165,3.00202,-9.17154,-18.0404,-9.9991,82.8715
2023-03-10 00:00:21:673,-1.6388,2.99717,-9.15552,-18.0349,-10.0055,82.866
2023-03-10 00:00:21:683,-1.66393,2.99431,-9.12959,-18.0291,-10.0143,82.8648
2023-03-10 00:00:21:693,-1.66685,2.98355,-9.13113,-18.0258,-10.0201,82.8629
2023-03-10 00:00:21:703,-1.67961,2.96936,-9.14123,-18.0272,-10.0277,82.8648
2023-03-10 00:00:21:713,-1.68283,2.97937,-9.14246,-18.0326,-10.028,82.864
2023-03-10 00:00:21:723,-1.69343,2.99349,-9.1619,-18.0376,-10.0291,82.8681
2023-03-10 00:00:21:733,-1.69184,3.00113,-9.16877,-18.0422,-10.0259,82.8743
2023-03-10 00:00:21:743,-1.67615,2.99702,-9.16088,-18.0479,-10.0249,82.8786
2023-03-10 00:00:21:753,-1.67106,2.99133,-9.15134,-18.0538,-10.0226,82.8852
2023-03-10 00:00:21:763,-1.68757,3.00833,-9.13858,-18.0602,-10.0225,82.8899
2023-03-10 00:00:21:773,-1.68608,3.00869,-9.14453,-18.0662,-10.0255,82.8952
2023-03-10 00:00:21:783,-1.68504,3.00539,-9.1373,-18.0714,-10.0292,82.903
2023-03-10 00:00:21:793,-1.71118,3.00997,-9.13356,-18.0773,-10.0359,82.9086
2023-03-10 00:00:21:803,-1.71552,3.02757,-9.11753,-18.0877,-10.0447,82.9137
2023-03-10 00:00:21:813,-1.71818,3.01513,-9.12938,-18.0914,-10.0492,82.9189
2023-03-10 00:00:21:823,-1.7145,3.02124,-9.13683,-18.0983,-10.055,82.922
2023-03-10 00:00:21:833,-1.69952,3.01764,-9.13673,-18.1037,-10.0612,82.9261
2023-03-10 00:00:21:843,-1.70403,3.00803,-9.1359,-18.1113,-10.0685,82.9275
2023-03-10 00:00:21:853,-1.70762,3.00983,-9.14228,-18.1203,-10.0749,82.9323
2023-03-10 00:00:21:863,-1.70816,3.02809,-9.15462,-18.1278,-10.0811,82.9399
2023-03-10 00:00:21:873,-1.72111,3.04809,-9.14947,-18.1362,-10.0854,82.9477
2023-03-10 00:00:21:883,-1.73513,3.06749,-9.15827,-18.1423,-10.0885,82.9555
2023-03-10 00:00:21:893,-1.74559,3.07822,-9.14961,-18.1535,-10.0875,82.9632
2023-03-10 00:00:21:903,-1.74966,3.08445,-9.1621,-18.1602,-10.0876,82.968
2023-03-10 00:00:21:913,-1.74773,3.09057,-9.1796,-18.1653,-10.0858,82.9706
2023-03-10 00:00:21:923,-1.75771,3.07806,-9.17991,-18.1704,-10.0808,82.9725
2023-03-10 00:00:21:933,-1.76739,3.07311,-9.15553,-18.1729,-10.0771,82.9729
2023-03-10 00:00:21:943,-1.75608,3.05607,-9.15182,-18.1748,-10.0771,82.9674
2023-03-10 00:00:21:953,-1.73508,3.05036,-9.14382,-18.1736,-10.0775,82.9592
2023-03-10 00:00:21:963,-1.71649,3.03361,-9.13452,-18.1706,-10.0751,82.9458
2023-03-10 00:00:21:973,-1.69039,3.02003,-9.11968,-18.1676,-10.0806,82.9283
2023-03-10 00:00:21:983,-1.66023,3.02295,-9.12771,-18.1667,-10.0824,82.9099
2023-03-10 00:00:21:993,-1.64708,3.02919,-9.14971,-18.1721,-10.0828,82.8919
2023-03-10 00:00:22:3,-1.62493,3.04464,-9.16553,-18.1734,-10.081,82.8747
2023-03-10 00:00:22:13,-1.6323,3.05265,-9.1655,-18.1725,-10.08,82.8613
2023-03-10 00:00:22:23,-1.62761,3.04042,-9.16045,-18.1719,-10.0776,82.8497
2023-03-10 00:00:22:33,-1.61594,3.04205,-9.13721,-18.1707,-10.0747,82.8432
2023-03-10 00:00:22:43,-1.605,3.02311,-9.12002,-18.1692,-10.0718,82.8362
2023-03-10 00:00:22:53,-1.60587,3.01643,-9.11292,-18.1715,-10.0725,82.8386
2023-03-10 00:00:22:63,-1.61427,3.02461,-9.12261,-18.1757,-10.0746,82.8419
2023-03-10 00:00:22:73,-1.62599,3.04446,-9.13581,-18.1766,-10.0708,82.8477
2023-03-10 00:00:22:83,-1.6495,3.0567,-9.1388,-18.1861,-10.0684,82.8521
2023-03-10 00:00:22:93,-1.68658,3.06361,-9.14453,-18.1893,-10.065,82.8602
2023-03-10 00:00:22:103,-1.69462,3.07175,-9.13816,-18.1959,-10.0624,82.87
2023-03-10 00:00:22:113,-1.6982,3.06154,-9.14148,-18.2022,-10.0626,82.8768
2023-03-10 00:00:22:123,-1.69132,3.06523,-9.1311,-18.2072,-10.0659,82.881
2023-03-10 00:00:22:133,-1.67776,3.06909,-9.13199,-18.211,-10.0716,82.8868
2023-03-10 00:00:22:143,-1.67371,3.0637,-9.13387,-18.2176,-10.0773,82.893
2023-03-10 00:00:22:153,-1.68793,3.07307,-9.14522,-18.2249,-10.0837,82.8951
2023-03-10 00:00:22:163,-1.71547,3.08947,-9.14777,-18.2318,-10.0896,82.8993
2023-03-10 00:00:22:173,-1.72679,3.08141,-9.17252,-18.2367,-10.0951,82.907
2023-03-10 00:00:22:183,-1.73253,3.07347,-9.18419,-18.2352,-10.0997,82.916
2023-03-10 00:00:22:193,-1.73006,3.07531,-9.16354,-18.2369,-10.1089,82.924
2023-03-10 00:00:22:203,-1.72792,3.07198,-9.14828,-18.2373,-10.114,82.9294
2023-03-10 00:00:22:213,-1.73893,3.06941,-9.14888,-18.236,-10.1218,82.9342
2023-03-10 00:00:22:223,-1.73639,3.0647,-9.12502,-18.2345,-10.1277,82.9379
2023-03-10 00:00:22:233,-1.73622,3.04584,-9.10684,-18.2328,-10.1329,82.9397
2023-03-10 00:00:22:243,-1.7099,3.01733,-9.09529,-18.2326,-10.1351,82.9428
2023-03-10 00:00:22:253,-1.69345,3.01697,-9.09034,-18.2373,-10.1391,82.9483
2023-03-10 00:00:22:263,-1.72044,3.03343,-9.10491,-18.241,-10.14,82.953
2023-03-10 00:00:22:273,-1.72398,3.03755,-9.11252,-18.2425,-10.1422,82.9574
2023-03-10 00:00:22:283,-1.73345,3.03595,-9.12199,-18.2489,-10.1472,82.9648
2023-03-10 00:00:22:293,-1.76246,3.02224,-9.13039,-18.2519,-10.1528,82.9723
2023-03-10 00:00:22:303,-1.76972,3.03867,-9.1308,-18.2572,-10.1508,82.9762
2023-03-10 00:00:22:313,-1.75765,3.05151,-9.14089,-18.2619,-10.154,82.9798
2023-03-10 00:00:22:323,-1.74536,3.03826,-9.13276,-18.2679,-10.1527,82.9833
2023-03-10 00:00:22:333,-1.75359,3.01534,-9.11048,-18.268,-10.1552,82.9833
2023-03-10 00:00:22:343,-1.757,3.02193,-9.0992,-18.2711,-10.1576,82.983
2023-03-10 00:00:22:353,-1.75347,3.03353,-9.12242,-18.276,-10.1573,82.9828
2023-03-10 00:00:22:363,-1.76204,3.02652,-9.13625,-18.2786,-10.1562,82.9759
2023-03-10 00:00:22:373,-1.77633,3.04374,-9.13879,-18.2833,-10.1537,82.9702
2023-03-10 00:00:22:383,-1.73849,3.03798,-9.15887,-18.2874,-10.1497,82.9659
2023-03-10 00:00:22:393,-1.70385,3.03805,-9.19462,-18.2868,-10.1429,82.9579
2023-03-10 00:00:22:403,-1.66914,3.05739,-9.20384,-18.288,-10.138,82.9469
2023-03-10 00:00:22:413,-1.64123,3.04272,-9.19489,-18.2855,-10.1354,82.9394
2023-03-10 00:00:22:423,-1.66329,3.0389,-9.15796,-18.2902,-10.133,82.9354
2023-03-10 00:00:22:433,-1.71835,3.0553,-9.14951,-18.2922,-10.1329,82.9309
2023-03-10 00:00:22:443,-1.73702,3.08375,-9.14971,-18.2945,-10.1328,82.9256
2023-03-10 00:00:22:453,-1.7421,3.09632,-9.14128,-18.293,-10.1313,82.918
2023-03-10 00:00:22:463,-1.76738,3.09,-9.11648,-18.2947,-10.1277,82.9076
2023-03-10 00:00:22:473,-1.7963,3.08108,-9.10809,-18.2956,-10.1252,82.8971
2023-03-10 00:00:22:483,-1.82206,3.09596,-9.11057,-18.2985,-10.123,82.8844
2023-03-10 00:00:22:493,-1.86994,3.12061,-9.10387,-18.296,-10.1259,82.8658
2023-03-10 00:00:22:503,-1.93094,3.12433,-9.09595,-18.292,-10.1257,82.8406
2023-03-10 00:00:22:513,-2.01647,3.11377,-9.10929,-18.2906,-10.1267,82.804
2023-03-10 00:00:22:523,-2.13733,3.13552,-9.10927,-18.2821,-10.1331,82.7567
2023-03-10 00:00:22:533,-2.35253,3.16165,-9.10716,-18.2741,-10.1513,82.6887
2023-03-10 00:00:22:543,-2.70864,3.25275,-9.09384,-18.2607,-10.1829,82.5936
2023-03-10 00:00:22:553,-2.99165,3.2821,-9.02416,-18.2387,-10.2299,82.4443
2023-03-10 00:00:22:563,-2.78227,3.23617,-9.05744,-18.2019,-10.2775,82.2248
2023-03-10 00:00:22:573,-2.3836,3.1521,-9.09648,-18.1572,-10.3433,81.9482
2023-03-10 00:00:22:583,-2.25106,3.07272,-9.05453,-18.1137,-10.4283,81.6498
2023-03-10 00:00:22:593,-2.28683,3.05895,-8.99745,-18.0725,-10.5233,81.3274
2023-03-10 00:00:22:603,-2.22765,3.07387,-9.03076,-18.0357,-10.6213,80.9841
2023-03-10 00:00:22:613,-2.0322,3.10926,-9.13028,-17.9979,-10.7182,80.6155
2023-03-10 00:00:22:623,-1.87567,3.12209,-9.18197,-17.9551,-10.8068,80.24
2023-03-10 00:00:22:633,-1.82617,3.07504,-9.15101,-17.905,-10.8855,79.8679
2023-03-10 00:00:22:643,-1.84954,3.05622,-9.10693,-17.8526,-10.9552,79.5014
2023-03-10 00:00:22:653,-1.80675,3.05679,-9.12925,-17.8021,-11.0118,79.1348
2023-03-10 00:00:22:663,-1.7143,3.0592,-9.16472,-17.7474,-11.0529,78.7726
2023-03-10 00:00:22:673,-1.6452,3.05093,-9.19193,-17.688,-11.0892,78.4208
2023-03-10 00:00:22:683,-1.62774,3.03092,-9.20818,-17.6328,-11.1244,78.0813
2023-03-10 00:00:22:693,-1.67387,3.01964,-9.21372,-17.5769,-11.1556,77.755
2023-03-10 00:00:22:703,-1.68618,3.01567,-9.21723,-17.5175,-11.1856,77.4401
2023-03-10 00:00:22:713,-1.67273,3.00109,-9.21624,-17.4563,-11.209,77.1373
2023-03-10 00:00:22:723,-1.63222,2.97149,-9.22252,-17.393,-11.2211,76.849
2023-03-10 00:00:22:733,-1.59267,2.93357,-9.2238,-17.3342,-11.2329,76.5738
2023-03-10 00:00:22:743,-1.60401,2.90897,-9.21162,-17.2775,-11.2424,76.3215
2023-03-10 00:00:22:753,-1.66234,2.90433,-9.18592,-17.2222,-11.2458,76.0825
2023-03-10 00:00:22:763,-1.70595,2.89728,-9.16222,-17.1668,-11.2439,75.8551
2023-03-10 00:00:22:773,-1.71007,2.89243,-9.1576,-17.1124,-11.2361,75.6352
2023-03-10 00:00:22:783,-1.68349,2.8778,-9.1531,-17.0567,-11.2288,75.425
2023-03-10 00:00:22:793,-1.66739,2.85506,-9.16046,-17.0024,-11.2139,75.2247
2023-03-10 00:00:22:803,-1.71765,2.84367,-9.15826,-16.9484,-11.2006,75.0405
2023-03-10 00:00:22:813,-1.78952,2.84399,-9.16441,-16.8983,-11.189,74.8659
2023-03-10 00:00:22:823,-1.80568,2.83851,-9.16819,-16.8453,-11.1729,74.6934
2023-03-10 00:00:22:833,-1.79986,2.81853,-9.17042,-16.7919,-11.158,74.5206
2023-03-10 00:00:22:843,-1.75306,2.7857,-9.16693,-16.7375,-11.1401,74.352
2023-03-10 00:00:22:853,-1.70457,2.76572,-9.15216,-16.6878,-11.1272,74.1873
2023-03-10 00:00:22:863,-1.65599,2.75469,-9.17119,-16.6378,-11.1134,74.0251
2023-03-10 00:00:22:873,-1.64822,2.74319,-9.18598,-16.5935,-11.1018,73.8731
2023-03-10 00:00:22:883,-1.67585,2.73088,-9.17971,-16.548,-11.096,73.7329
2023-03-10 00:00:22:893,-1.71994,2.73165,-9.18145,-16.5077,-11.0886,73.5986
2023-03-10 00:00:22:903,-1.75803,2.73634,-9.18448,-16.4727,-11.0833,73.473
2023-03-10 00:00:22:913,-1.81192,2.74493,-9.18956,-16.4362,-11.0785,73.3512
2023-03-10 00:00:22:923,-1.86064,2.75566,-9.19917,-16.4018,-11.0715,73.2288
2023-03-10 00:00:22:933,-1.85552,2.73418,-9.19912,-16.3647,-11.0677,73.1055
2023-03-10 00:00:22:943,-1.79948,2.73637,-9.18836,-16.3296,-11.061,72.9838
2023-03-10 00:00:22:953,-1.71254,2.7109,-9.22176,-16.2924,-11.0483,72.8635
2023-03-10 00:00:22:963,-1.66823,2.70308,-9.2604,-16.2547,-11.0389,72.7517
2023-03-10 00:00:22:973,-1.70192,2.68685,-9.26313,-16.2202,-11.0316,72.6495
2023-03-10 00:00:22:983,-1.71193,2.67565,-9.24568,-16.1814,-11.0246,72.5515
2023-03-10 00:00:22:993,-1.70317,2.66421,-9.22194,-16.148,-11.0115,72.4622
2023-03-10 00:00:23:3,-1.70601,2.64844,-9.22857,-16.1222,-10.9955,72.3781
2023-03-10 00:00:23:13,-1.70843,2.64682,-9.22017,-16.0949,-10.9763,72.3018
2023-03-10 00:00:23:23,-1.72326,2.63364,-9.22403,-16.0678,-10.9576,72.2345
2023-03-10 00:00:23:33,-1.74006,2.63074,-9.21507,-16.0436,-10.9397,72.1707
2023-03-10 00:00:23:43,-1.73333,2.63104,-9.19704,-16.0194,-10.9183,72.1079
2023-03-10 00:00:23:53,-1.7125,2.6075,-9.19455,-15.9961,-10.8977,72.0536
2023-03-10 00:00:23:63,-1.68843,2.61149,-9.19856,-15.9779,-10.8727,72.0069
2023-03-10 00:00:23:73,-1.68081,2.6234,-9.20315,-15.965,-10.8504,71.9637
2023-03-10 00:00:23:83,-1.64921,2.60122,-9.20151,-15.9517,-10.8264,71.9262
2023-03-10 00:00:23:93,-1.62645,2.57866,-9.17631,-15.9404,-10.7955,71.8953
2023-03-10 00:00:23:103,-1.60903,2.56977,-9.16647,-15.9311,-10.7657,71.8719
2023-03-10 00:00:23:113,-1.59394,2.58312,-9.21319,-15.9274,-10.7369,71.8564
2023-03-10 00:00:23:123,-1.57802,2.61667,-9.22984,-15.9307,-10.7066,71.8488
2023-03-10 00:00:23:133,-1.60453,2.61942,-9.23453,-15.9323,-10.6803,71.847
2023-03-10 00:00:23:143,-1.63997,2.62661,-9.23566,-15.9341,-10.65,71.8503
2023-03-10 00:00:23:153,-1.64015,2.62944,-9.22373,-15.9379,-10.6222,71.8558
2023-03-10 00:00:23:163,-1.61111,2.62002,-9.19883,-15.9405,-10.5921,71.8658
2023-03-10 00:00:23:173,-1.57681,2.60991,-9.18023,-15.9469,-10.5648,71.8793
2023-03-10 00:00:23:183,-1.52866,2.60589,-9.17528,-15.9602,-10.5406,71.8963
2023-03-10 00:00:23:193,-1.48643,2.60743,-9.20648,-15.9821,-10.517,71.9227
2023-03-10 00:00:23:203,-1.42534,2.61991,-9.23348,-16.0021,-10.4964,71.9527
2023-03-10 00:00:23:213,-1.34187,2.63839,-9.26357,-16.0263,-10.4772,71.9965
2023-03-10 00:00:23:223,-1.25981,2.65313,-9.27043,-16.0548,-10.4598,72.0538
2023-03-10 00:00:23:233,-1.19937,2.65708,-9.27132,-16.0823,-10.4432,72.1285
2023-03-10 00:00:23:243,-1.13626,2.64886,-9.25993,-16.1132,-10.4259,72.2228
2023-03-10 00:00:23:253,-1.02709,2.64725,-9.25635,-16.1527,-10.4056,72.34
2023-03-10 00:00:23:263,-0.940681,2.64231,-9.26721,-16.1949,-10.3806,72.4848
2023-03-10 00:00:23:273,-0.895308,2.62984,-9.266,-16.2424,-10.3577,72.6644
2023-03-10 00:00:23:283,-0.889146,2.62659,-9.25103,-16.2953,-10.3316,72.8773
2023-03-10 00:00:23:293,-0.882552,2.64128,-9.22748,-16.3559,-10.3041,73.1279
2023-03-10 00:00:23:303,-0.941251,2.64071,-9.21518,-16.423,-10.2695,73.4118
2023-03-10 00:00:23:313,-1.04621,2.65665,-9.19022,-16.4986,-10.2293,73.7348
2023-03-10 00:00:23:323,-1.10757,2.68284,-9.16942,-16.5807,-10.1832,74.0865
2023-03-10 00:00:23:333,-1.16945,2.7237,-9.15933,-16.6681,-10.1264,74.4617
2023-03-10 00:00:23:343,-1.29322,2.7464,-9.15052,-16.7579,-10.072,74.8592
2023-03-10 00:00:23:353,-1.42039,2.78352,-9.14305,-16.856,-10.0135,75.274
2023-03-10 00:00:23:363,-1.49289,2.79635,-9.13878,-16.9544,-9.94732,75.699
2023-03-10 00:00:23:374,-1.55655,2.82348,-9.12057,-17.0532,-9.88028,76.1295
2023-03-10 00:00:23:383,-1.6635,2.85605,-9.11158,-17.1584,-9.80885,76.5618
2023-03-10 00:00:23:393,-1.79214,2.90734,-9.10725,-17.2635,-9.73865,76.9921
2023-03-10 00:00:23:403,-1.87739,2.95545,-9.11042,-17.372,-9.66914,77.4116
2023-03-10 00:00:23:413,-1.92983,2.96398,-9.12493,-17.4763,-9.60152,77.82
2023-03-10 00:00:23:423,-1.95334,2.98176,-9.14531,-17.5814,-9.53455,78.2144
2023-03-10 00:00:23:433,-1.93439,3.0027,-9.1758,-17.6863,-9.47276,78.5902
2023-03-10 00:00:23:443,-1.90087,3.03529,-9.19473,-17.7912,-9.41847,78.9493
2023-03-10 00:00:23:453,-1.88661,3.05378,-9.19798,-17.8876,-9.36959,79.2958
2023-03-10 00:00:23:463,-1.91039,3.0434,-9.18104,-17.9826,-9.32667,79.6252
2023-03-10 00:00:23:473,-1.9496,3.04658,-9.17253,-18.0759,-9.29368,79.9413
2023-03-10 00:00:23:483,-1.97128,3.06693,-9.15164,-18.1705,-9.26315,80.2411
2023-03-10 00:00:23:493,-1.97747,3.10987,-9.12517,-18.2614,-9.2374,80.5236
2023-03-10 00:00:23:503,-1.98198,3.12736,-9.1123,-18.3465,-9.21138,80.7882
2023-03-10 00:00:23:513,-1.97407,3.14571,-9.11305,-18.4304,-9.19261,81.0336
2023-03-10 00:00:23:523,-1.94841,3.1738,-9.1227,-18.5138,-9.1731,81.259
2023-03-10 00:00:23:533,-1.92877,3.18601,-9.11972,-18.5897,-9.15813,81.472
2023-03-10 00:00:23:543,-1.89754,3.19001,-9.08088,-18.6587,-9.14495,81.6717
2023-03-10 00:00:23:553,-1.87611,3.1737,-9.06665,-18.7244,-9.13637,81.8556
2023-03-10 00:00:23:563,-1.86325,3.17483,-9.056,-18.791,-9.13226,82.0269
2023-03-10 00:00:23:573,-1.86421,3.1855,-9.03502,-18.858,-9.12469,82.184
2023-03-10 00:00:23:583,-1.87598,3.1906,-9.04669,-18.9282,-9.11692,82.3318
2023-03-10 00:00:23:593,-1.86774,3.21799,-9.07329,-18.9973,-9.11388,82.468
2023-03-10 00:00:23:603,-1.8379,3.25623,-9.10561,-19.067,-9.11002,82.5917
2023-03-10 00:00:23:613,-1.84847,3.28094,-9.12274,-19.1329,-9.10819,82.7035
2023-03-10 00:00:23:623,-1.84285,3.30263,-9.13866,-19.1961,-9.10836,82.8008
2023-03-10 00:00:23:633,-1.79942,3.32201,-9.15479,-19.2572,-9.10815,82.8847
2023-03-10 00:00:23:643,-1.75084,3.33268,-9.15567,-19.3151,-9.11099,82.9566
2023-03-10 00:00:23:653,-1.71505,3.33165,-9.14614,-19.3684,-9.11632,83.0206
2023-03-10 00:00:23:663,-1.71176,3.34258,-9.12659,-19.4168,-9.12745,83.075
2023-03-10 00:00:23:673,-1.69818,3.37929,-9.09751,-19.4681,-9.13575,83.124
2023-03-10 00:00:23:683,-1.68529,3.37415,-9.0998,-19.5152,-9.14515,83.1643
2023-03-10 00:00:23:693,-1.66985,3.37762,-9.10729,-19.5576,-9.15276,83.197
2023-03-10 00:00:23:703,-1.62545,3.3745,-9.10919,-19.5971,-9.15396,83.2218
2023-03-10 00:00:23:713,-1.54087,3.37798,-9.10993,-19.6326,-9.15467,83.2451
2023-03-10 00:00:23:723,-1.45346,3.38921,-9.14629,-19.6654,-9.15427,83.2617
2023-03-10 00:00:23:733,-1.412,3.36998,-9.16739,-19.6975,-9.15716,83.2846
2023-03-10 00:00:23:743,-1.43214,3.38697,-9.14674,-19.7294,-9.16521,83.3142
2023-03-10 00:00:23:753,-1.48025,3.38558,-9.12732,-19.7546,-9.17541,83.3403
2023-03-10 00:00:23:763,-1.49747,3.36458,-9.12541,-19.7745,-9.18663,83.3699
2023-03-10 00:00:23:773,-1.50944,3.36023,-9.11577,-19.7917,-9.1968,83.4035
2023-03-10 00:00:23:783,-1.51572,3.3673,-9.14431,-19.8134,-9.20505,83.4424
2023-03-10 00:00:23:793,-1.50248,3.38608,-9.15346,-19.8363,-9.21002,83.4839
2023-03-10 00:00:23:803,-1.49045,3.37815,-9.14316,-19.8532,-9.21813,83.5237
2023-03-10 00:00:23:813,-1.50466,3.34671,-9.12338,-19.8713,-9.22331,83.5713
2023-03-10 00:00:23:823,-1.53012,3.35788,-9.08673,-19.8819,-9.22562,83.623
2023-03-10 00:00:23:833,-1.53497,3.36125,-9.07566,-19.8961,-9.22572,83.6748
2023-03-10 00:00:23:843,-1.52348,3.34834,-9.05656,-19.9105,-9.22324,83.7306
2023-03-10 00:00:23:853,-1.49904,3.33464,-9.02591,-19.9223,-9.21638,83.7882
2023-03-10 00:00:23:863,-1.4871,3.31461,-9.00411,-19.9367,-9.20618,83.853
2023-03-10 00:00:23:873,-1.48836,3.32238,-9.0146,-19.9542,-9.19724,83.9222
2023-03-10 00:00:23:883,-1.51336,3.34002,-9.04356,-19.9706,-9.18159,83.9927
2023-03-10 00:00:23:893,-1.51906,3.33924,-9.0525,-19.9868,-9.16919,84.0668
2023-03-10 00:00:23:903,-1.52136,3.32812,-9.0685,-20.0025,-9.15227,84.146
2023-03-10 00:00:23:913,-1.52635,3.34885,-9.07325,-20.0205,-9.13643,84.2267
2023-03-10 00:00:23:923,-1.54326,3.35664,-9.09081,-20.0393,-9.12164,84.3117
2023-03-10 00:00:23:933,-1.57533,3.35808,-9.1102,-20.0572,-9.1089,84.3991
2023-03-10 00:00:23:943,-1.60219,3.37341,-9.10716,-20.0736,-9.09908,84.4836
2023-03-10 00:00:23:953,-1.62076,3.38946,-9.09324,-20.0896,-9.08757,84.568
2023-03-10 00:00:23:963,-1.62631,3.41109,-9.08543,-20.1037,-9.07603,84.6484
2023-03-10 00:00:23:973,-1.63323,3.4014,-9.09423,-20.1176,-9.06162,84.7274
2023-03-10 00:00:23:983,-1.63347,3.38792,-9.10456,-20.1281,-9.04858,84.8028
2023-03-10 00:00:23:993,-1.63882,3.37627,-9.08764,-20.133,-9.02948,84.8742
2023-03-10 00:00:24:3,-1.65764,3.38469,-9.07044,-20.1346,-9.01168,84.9452
2023-03-10 00:00:24:13,-1.63898,3.37181,-9.04763,-20.1328,-8.99432,85.0122
2023-03-10 00:00:24:23,-1.62518,3.35718,-9.04308,-20.1361,-8.97769,85.0707
2023-03-10 00:00:24:33,-1.61888,3.34623,-9.03797,-20.1386,-8.96061,85.1287
2023-03-10 00:00:24:43,-1.60702,3.35396,-9.01534,-20.1389,-8.94371,85.1802
2023-03-10 00:00:24:53,-1.58325,3.35096,-9.00064,-20.1449,-8.92646,85.2263
2023-03-10 00:00:24:63,-1.56147,3.34779,-9.02714,-20.151,-8.91203,85.2673
2023-03-10 00:00:24:73,-1.55817,3.35431,-9.06487,-20.1596,-8.89701,85.3079
2023-03-10 00:00:24:83,-1.54156,3.35646,-9.07885,-20.1662,-8.88627,85.3422
2023-03-10 00:00:24:93,-1.53488,3.36309,-9.0723,-20.1724,-8.87763,85.3739
2023-03-10 00:00:24:103,-1.53037,3.35599,-9.07774,-20.1775,-8.87065,85.4024
2023-03-10 00:00:24:113,-1.5186,3.36529,-9.07807,-20.1831,-8.86343,85.4284
2023-03-10 00:00:24:123,-1.53432,3.37461,-9.0752,-20.1884,-8.85521,85.4505
2023-03-10 00:00:24:133,-1.55106,3.36386,-9.06434,-20.1923,-8.85028,85.4721
2023-03-10 00:00:24:143,-1.52928,3.35306,-9.04236,-20.1937,-8.84131,85.489
2023-03-10 00:00:24:153,-1.49991,3.34496,-9.02444,-20.1974,-8.8365,85.5047
2023-03-10 00:00:24:163,-1.50319,3.34037,-9.00475,-20.2052,-8.83095,85.5177
2023-03-10 00:00:24:173,-1.51397,3.34036,-9.01608,-20.2134,-8.82842,85.5298
2023-03-10 00:00:24:183,-1.52242,3.36172,-9.04191,-20.2221,-8.82573,85.5407
2023-03-10 00:00:24:193,-1.52508,3.37042,-9.05791,-20.2317,-8.82168,85.5458
2023-03-10 00:00:24:203,-1.50339,3.37323,-9.05847,-20.2384,-8.81849,85.5447
2023-03-10 00:00:24:213,-1.49887,3.38035,-9.06091,-20.2462,-8.81762,85.5428
2023-03-10 00:00:24:223,-1.5073,3.38245,-9.05751,-20.2577,-8.82168,85.5388
2023-03-10 00:00:24:233,-1.51457,3.38266,-9.0507,-20.2667,-8.82384,85.5323
2023-03-10 00:00:24:243,-1.4938,3.37955,-9.04002,-20.276,-8.82689,85.5246
2023-03-10 00:00:24:253,-1.45799,3.37781,-9.05021,-20.2863,-8.82653,85.5167
2023-03-10 00:00:24:263,-1.45574,3.39014,-9.07196,-20.2963,-8.83027,85.5085
2023-03-10 00:00:24:273,-1.48186,3.41049,-9.0627,-20.3031,-8.83324,85.5009
2023-03-10 00:00:24:283,-1.48191,3.40856,-9.09483,-20.3107,-8.83652,85.4935
2023-03-10 00:00:24:293,-1.46879,3.40745,-9.09309,-20.3181,-8.83961,85.4849
2023-03-10 00:00:24:303,-1.45605,3.40184,-9.08265,-20.3257,-8.84462,85.4784
2023-03-10 00:00:24:313,-1.46983,3.40117,-9.06521,-20.3306,-8.84899,85.4735
2023-03-10 00:00:24:323,-1.48108,3.41152,-9.0434,-20.3324,-8.8552,85.4695
2023-03-10 00:00:24:333,-1.48585,3.40382,-9.05345,-20.338,-8.85765,85.4638
2023-03-10 00:00:24:343,-1.49293,3.3966,-9.05968,-20.343,-8.86022,85.4608
2023-03-10 00:00:24:353,-1.50412,3.39682,-9.05024,-20.3453,-8.86097,85.4564
2023-03-10 00:00:24:363,-1.52079,3.39245,-9.03431,-20.3494,-8.86016,85.4513
2023-03-10 00:00:24:373,-1.52894,3.39854,-9.05486,-20.349,-8.86104,85.4426
2023-03-10 00:00:24:383,-1.51317,3.39396,-9.04657,-20.3508,-8.8592,85.4307
2023-03-10 00:00:24:393,-1.48857,3.39024,-9.03131,-20.353,-8.8611,85.42
2023-03-10 00:00:24:403,-1.47032,3.38622,-9.03554,-20.3536,-8.86126,85.4071
2023-03-10 00:00:24:413,-1.48298,3.39078,-9.02447,-20.3509,-8.86372,85.3921
2023-03-10 00:00:24:423,-1.47874,3.37246,-9.05145,-20.3527,-8.86234,85.3792
2023-03-10 00:00:24:433,-1.44578,3.37818,-9.07057,-20.3535,-8.86115,85.3643
2023-03-10 00:00:24:443,-1.41359,3.39071,-9.09985,-20.3557,-8.85731,85.3504
2023-03-10 00:00:24:453,-1.40414,3.39187,-9.09476,-20.3579,-8.85987,85.3376
2023-03-10 00:00:24:463,-1.41214,3.39168,-9.07796,-20.3627,-8.85814,85.3274
2023-03-10 00:00:24:473,-1.43074,3.39254,-9.06901,-20.3655,-8.8624,85.3177
2023-03-10 00:00:24:483,-1.44738,3.41183,-9.06228,-20.3718,-8.86784,85.311
2023-03-10 00:00:24:493,-1.4803,3.42759,-9.06364,-20.3767,-8.87295,85.3067
2023-03-10 00:00:24:503,-1.50547,3.45146,-9.07583,-20.3817,-8.876,85.3015
2023-03-10 00:00:24:513,-1.5077,3.4481,-9.07474,-20.3815,-8.88011,85.2944
2023-03-10 00:00:24:523,-1.49017,3.43746,-9.06318,-20.3837,-8.88063,85.2842
2023-03-10 00:00:24:533,-1.4963,3.4297,-9.05017,-20.3869,-8.88322,85.2742
2023-03-10 00:00:24:543,-1.49714,3.4262,-9.03668,-20.3815,-8.88959,85.2623
2023-03-10 00:00:24:553,-1.50583,3.41079,-9.02774,-20.3809,-8.89837,85.2549
2023-03-10 00:00:24:564,-1.5092,3.41242,-9.0239,-20.3757,-8.90512,85.2428
2023-03-10 00:00:24:573,-1.50314,3.41712,-9.01717,-20.3728,-8.91004,85.2341
2023-03-10 00:00:24:583,-1.50069,3.40321,-9.01274,-20.3677,-8.91342,85.2237
2023-03-10 00:00:24:593,-1.48839,3.40327,-9.03689,-20.3646,-8.91591,85.2129
2023-03-10 00:00:24:603,-1.48685,3.40868,-9.0522,-20.3647,-8.9202,85.2017
2023-03-10 00:00:24:613,-1.49914,3.41644,-9.05471,-20.365,-8.91794,85.192
2023-03-10 00:00:24:623,-1.49935,3.41219,-9.05297,-20.3646,-8.9197,85.1888
2023-03-10 00:00:24:633,-1.49096,3.41657,-9.06858,-20.3646,-8.92169,85.1792
2023-03-10 00:00:24:643,-1.48304,3.41492,-9.08554,-20.3629,-8.92436,85.1692
2023-03-10 00:00:24:653,-1.48524,3.40698,-9.07566,-20.3598,-8.92523,85.1606
2023-03-10 00:00:24:663,-1.49747,3.41925,-9.06415,-20.36,-8.92946,85.1473
2023-03-10 00:00:24:673,-1.48707,3.42121,-9.04917,-20.3596,-8.93158,85.136
2023-03-10 00:00:24:683,-1.49685,3.42527,-9.04138,-20.3596,-8.94027,85.1309
2023-03-10 00:00:24:693,-1.53691,3.43557,-9.04527,-20.3586,-8.94336,85.1231
2023-03-10 00:00:24:703,-1.51574,3.43093,-9.05578,-20.3551,-8.94511,85.108
2023-03-10 00:00:24:713,-1.45868,3.41491,-9.08802,-20.347,-8.94125,85.0896
2023-03-10 00:00:24:723,-1.41254,3.39781,-9.09368,-20.3379,-8.94225,85.074
2023-03-10 00:00:24:733,-1.41285,3.39113,-9.07603,-20.3299,-8.94569,85.061
2023-03-10 00:00:24:743,-1.44452,3.403,-9.07446,-20.3245,-8.9501,85.0513
2023-03-10 00:00:24:753,-1.4568,3.40124,-9.0727,-20.3166,-8.95988,85.0456
2023-03-10 00:00:24:763,-1.46645,3.3926,-9.05876,-20.308,-8.96746,85.0366
2023-03-10 00:00:24:773,-1.48942,3.39673,-9.06155,-20.298,-8.97545,85.0295
2023-03-10 00:00:24:783,-1.46591,3.39362,-9.08271,-20.2871,-8.98187,85.0225
2023-03-10 00:00:24:793,-1.45623,3.4005,-9.09526,-20.2782,-8.98745,85.0151
2023-03-10 00:00:24:803,-1.45087,3.40251,-9.07383,-20.2687,-8.99462,85.0079
2023-03-10 00:00:24:813,-1.43642,3.37756,-9.05567,-20.2558,-8.99912,85.0008
2023-03-10 00:00:24:823,-1.43891,3.36538,-9.05502,-20.2468,-9.00525,84.9964
2023-03-10 00:00:24:833,-1.46853,3.38141,-9.05397,-20.2373,-9.01348,84.9948
2023-03-10 00:00:24:843,-1.51527,3.38468,-9.0643,-20.2294,-9.02086,84.9963
2023-03-10 00:00:24:853,-1.53032,3.38038,-9.07004,-20.2196,-9.03341,84.9927
2023-03-10 00:00:24:863,-1.51235,3.36493,-9.06756,-20.2068,-9.04676,84.9902
2023-03-10 00:00:24:873,-1.49535,3.34868,-9.04526,-20.1922,-9.06406,84.9847
2023-03-10 00:00:24:883,-1.48524,3.33205,-9.02904,-20.1798,-9.08237,84.9816
2023-03-10 00:00:24:893,-1.49866,3.31497,-9.00934,-20.1641,-9.10188,84.9784
2023-03-10 00:00:24:903,-1.52736,3.30359,-9.01734,-20.1542,-9.12115,84.9783
2023-03-10 00:00:24:913,-1.5531,3.31172,-9.03303,-20.1452,-9.14101,84.9748
2023-03-10 00:00:24:924,-1.54438,3.3098,-9.04122,-20.1396,-9.1608,84.9724
2023-03-10 00:00:24:933,-1.57497,3.33164,-9.04701,-20.1358,-9.18176,84.9716
2023-03-10 00:00:24:943,-1.61271,3.3399,-9.04358,-20.1307,-9.20056,84.9731
2023-03-10 00:00:24:953,-1.62303,3.34511,-9.0426,-20.1257,-9.2168,84.9718
2023-03-10 00:00:24:963,-1.61136,3.33756,-9.03571,-20.1182,-9.23059,84.9693
2023-03-10 00:00:24:973,-1.6092,3.33214,-9.04252,-20.1152,-9.23684,84.9658
2023-03-10 00:00:24:983,-1.59449,3.32924,-9.0244,-20.1108,-9.24193,84.9607
2023-03-10 00:00:24:993,-1.58886,3.33222,-9.02245,-20.1042,-9.24754,84.9566
2023-03-10 00:00:25:3,-1.58473,3.32725,-9.04373,-20.1025,-9.25148,84.9533
2023-03-10 00:00:25:13,-1.58816,3.33508,-9.05607,-20.1031,-9.25223,84.9507
2023-03-10 00:00:25:24,-1.59253,3.33377,-9.04944,-20.1005,-9.25726,84.9445
2023-03-10 00:00:25:33,-1.57558,3.33068,-9.06603,-20.0979,-9.26034,84.9405
2023-03-10 00:00:25:43,-1.5747,3.34286,-9.07754,-20.0925,-9.26256,84.9342
2023-03-10 00:00:25:53,-1.57823,3.33205,-9.08597,-20.0887,-9.26538,84.9265
2023-03-10 00:00:25:63,-1.57073,3.33902,-9.06513,-20.0821,-9.26914,84.9189
2023-03-10 00:00:25:73,-1.56103,3.33254,-9.06463,-20.0804,-9.26919,84.9098
2023-03-10 00:00:25:83,-1.56591,3.3199,-9.06063,-20.0764,-9.27353,84.9017
2023-03-10 00:00:25:93,-1.55336,3.31958,-9.06221,-20.0711,-9.27724,84.891
2023-03-10 00:00:25:103,-1.52804,3.30755,-9.0535,-20.069,-9.28263,84.8796
2023-03-10 00:00:25:113,-1.53558,3.31733,-9.04243,-20.0689,-9.28521,84.872
2023-03-10 00:00:25:123,-1.54177,3.31612,-9.04389,-20.0693,-9.28892,84.8628
2023-03-10 00:00:25:133,-1.54625,3.31857,-9.0476,-20.0702,-9.29033,84.8552
2023-03-10 00:00:25:143,-1.55278,3.32541,-9.04488,-20.0685,-9.29259,84.851
2023-03-10 00:00:25:153,-1.54746,3.31226,-9.05453,-20.0678,-9.29064,84.8434
2023-03-10 00:00:25:163,-1.54145,3.32855,-9.04274,-20.0679,-9.29024,84.8407
2023-03-10 00:00:25:173,-1.55246,3.32532,-9.04456,-20.0693,-9.29046,84.8343
2023-03-10 00:00:25:183,-1.55959,3.3272,-9.03988,-20.0726,-9.28878,84.8331
2023-03-10 00:00:25:193,-1.56016,3.33494,-9.05525,-20.0726,-9.28687,84.8272
2023-03-10 00:00:25:203,-1.55028,3.34315,-9.05085,-20.0763,-9.28739,84.826
2023-03-10 00:00:25:213,-1.5482,3.32709,-9.05419,-20.0787,-9.28672,84.8193
2023-03-10 00:00:25:223,-1.55761,3.32426,-9.05822,-20.0745,-9.28595,84.8173
2023-03-10 00:00:25:233,-1.54364,3.31537,-9.04696,-20.0815,-9.28535,84.8164
2023-03-10 00:00:25:243,-1.54029,3.32036,-9.03476,-20.0878,-9.28472,84.8148
2023-03-10 00:00:25:253,-1.54372,3.32344,-9.03897,-20.0952,-9.28542,84.8142
2023-03-10 00:00:25:263,-1.56139,3.32813,-9.0539,-20.1075,-9.28408,84.8097
2023-03-10 00:00:25:273,-1.58905,3.33329,-9.07092,-20.1183,-9.28547,84.8088
2023-03-10 00:00:25:283,-1.58603,3.34559,-9.06549,-20.1243,-9.28611,84.8066
2023-03-10 00:00:25:293,-1.57528,3.34685,-9.05815,-20.1303,-9.283,84.8051
2023-03-10 00:00:25:303,-1.56913,3.33044,-9.06543,-20.1378,-9.28206,84.7993
2023-03-10 00:00:25:313,-1.57238,3.35099,-9.06283,-20.1452,-9.2796,84.7923
2023-03-10 00:00:25:323,-1.56016,3.35816,-9.05852,-20.1478,-9.27572,84.7881
2023-03-10 00:00:25:333,-1.54446,3.34385,-9.02347,-20.1523,-9.27243,84.778
2023-03-10 00:00:25:343,-1.54557,3.32652,-9.02525,-20.1586,-9.26847,84.7695
2023-03-10 00:00:25:353,-1.53112,3.32448,-9.03148,-20.1648,-9.26538,84.7608
2023-03-10 00:00:25:363,-1.5154,3.33439,-9.05035,-20.1703,-9.2602,84.7485
2023-03-10 00:00:25:373,-1.51495,3.34123,-9.03751,-20.1753,-9.25611,84.7391
2023-03-10 00:00:25:383,-1.51337,3.33087,-9.01872,-20.1821,-9.25005,84.7308
2023-03-10 00:00:25:393,-1.48749,3.32425,-9.04793,-20.1919,-9.24175,84.7214
2023-03-10 00:00:25:403,-1.46992,3.34743,-9.06788,-20.2038,-9.23638,84.714
2023-03-10 00:00:25:413,-1.46501,3.36575,-9.08385,-20.2161,-9.2324,84.7118
2023-03-10 00:00:25:423,-1.47005,3.36222,-9.08297,-20.2315,-9.23123,84.7125
2023-03-10 00:00:25:433,-1.49939,3.3632,-9.08031,-20.2436,-9.23471,84.7129
2023-03-10 00:00:25:443,-1.52097,3.38132,-9.06825,-20.2618,-9.23426,84.7129
2023-03-10 00:00:25:453,-1.53406,3.39109,-9.07903,-20.2795,-9.23315,84.712
2023-03-10 00:00:25:463,-1.55194,3.40307,-9.0832,-20.2942,-9.23254,84.711
2023-03-10 00:00:25:473,-1.54311,3.41645,-9.07566,-20.3069,-9.23289,84.71
2023-03-10 00:00:25:483,-1.54642,3.42001,-9.04018,-20.3176,-9.23561,84.7059
2023-03-10 00:00:25:493,-1.53571,3.42333,-9.01433,-20.3253,-9.23848,84.7008
2023-03-10 00:00:25:503,-1.52823,3.42133,-9.0045,-20.331,-9.23875,84.6926
2023-03-10 00:00:25:513,-1.50952,3.39718,-8.99695,-20.336,-9.23944,84.6841
2023-03-10 00:00:25:523,-1.49553,3.39155,-9.01241,-20.3425,-9.24107,84.6731
2023-03-10 00:00:25:533,-1.5019,3.39297,-9.0138,-20.354,-9.24273,84.6648
2023-03-10 00:00:25:543,-1.48677,3.3975,-9.03029,-20.365,-9.24517,84.6569
2023-03-10 00:00:25:553,-1.48402,3.39573,-9.0618,-20.3783,-9.24979,84.653
2023-03-10 00:00:25:563,-1.50169,3.40929,-9.07037,-20.3926,-9.25428,84.6537
2023-03-10 00:00:25:573,-1.50988,3.41898,-9.07123,-20.407,-9.25841,84.6545
2023-03-10 00:00:25:583,-1.50224,3.42889,-9.09522,-20.4241,-9.26374,84.6579
2023-03-10 00:00:25:593,-1.50567,3.43643,-9.1061,-20.4332,-9.2682,84.6615
2023-03-10 00:00:25:603,-1.5158,3.45224,-9.08253,-20.4438,-9.27632,84.6651
2023-03-10 00:00:25:613,-1.53808,3.44666,-9.08657,-20.4565,-9.28511,84.6724
2023-03-10 00:00:25:623,-1.54595,3.45546,-9.07826,-20.4683,-9.29592,84.6829
2023-03-10 00:00:25:633,-1.5531,3.45846,-9.06408,-20.4755,-9.30685,84.6955
2023-03-10 00:00:25:643,-1.58851,3.4544,-9.03699,-20.4816,-9.3197,84.706
2023-03-10 00:00:25:653,-1.64449,3.44269,-9.02499,-20.4823,-9.32794,84.7145
2023-03-10 00:00:25:663,-1.63286,3.42895,-9.01936,-20.4834,-9.33182,84.723
2023-03-10 00:00:25:674,-1.56616,3.4453,-9.03457,-20.4834,-9.335,84.7268
2023-03-10 00:00:25:683,-1.51012,3.42222,-9.05631,-20.4835,-9.33722,84.7303
2023-03-10 00:00:25:693,-1.52534,3.40583,-9.03951,-20.4808,-9.34778,84.734
2023-03-10 00:00:25:703,-1.56531,3.41058,-9.03563,-20.4781,-9.35497,84.744
2023-03-10 00:00:25:713,-1.58681,3.40958,-9.02866,-20.4813,-9.36423,84.7529
2023-03-10 00:00:25:723,-1.57457,3.4087,-9.03885,-20.4816,-9.37424,84.7609
2023-03-10 00:00:25:733,-1.56117,3.39705,-9.05378,-20.4838,-9.38251,84.7701
2023-03-10 00:00:25:743,-1.56279,3.41671,-9.07116,-20.4842,-9.38643,84.7809
2023-03-10 00:00:25:753,-1.57438,3.43452,-9.07859,-20.4879,-9.38893,84.7953
2023-03-10 00:00:25:763,-1.59981,3.4378,-9.07834,-20.4853,-9.3929,84.811
2023-03-10 00:00:25:773,-1.62084,3.41896,-9.06691,-20.4822,-9.39526,84.8294
2023-03-10 00:00:25:783,-1.62859,3.4003,-9.05407,-20.4769,-9.39805,84.8457
2023-03-10 00:00:25:793,-1.6287,3.39125,-9.03211,-20.4679,-9.40164,84.8573
2023-03-10 00:00:25:803,-1.6349,3.36552,-8.99978,-20.462,-9.40445,84.8639
2023-03-10 00:00:25:813,-1.64175,3.35873,-8.97565,-20.4569,-9.41087,84.8704
2023-03-10 00:00:25:823,-1.6383,3.36244,-8.97311,-20.4574,-9.41515,84.8759
2023-03-10 00:00:25:833,-1.63152,3.35011,-8.99243,-20.4543,-9.42343,84.8836
2023-03-10 00:00:25:843,-1.63779,3.34608,-8.99446,-20.4525,-9.43423,84.892
2023-03-10 00:00:25:853,-1.63256,3.33818,-8.97914,-20.4494,-9.43911,84.8984
2023-03-10 00:00:25:863,-1.61972,3.33469,-8.98616,-20.4506,-9.4482,84.903
2023-03-10 00:00:25:873,-1.61756,3.35767,-8.98938,-20.4559,-9.45287,84.9053
2023-03-10 00:00:25:883,-1.63832,3.37653,-9.00727,-20.464,-9.45581,84.911
2023-03-10 00:00:25:893,-1.634,3.3844,-9.01555,-20.4742,-9.45833,84.9148
2023-03-10 00:00:25:903,-1.63416,3.3823,-9.02779,-20.4789,-9.45714,84.9174
2023-03-10 00:00:25:913,-1.63213,3.39199,-9.04004,-20.4884,-9.45628,84.921
2023-03-10 00:00:25:923,-1.6542,3.40261,-9.03401,-20.5009,-9.44941,84.9239
2023-03-10 00:00:25:933,-1.67386,3.40659,-9.04722,-20.5131,-9.44344,84.9264
2023-03-10 00:00:25:943,-1.66529,3.42972,-9.04296,-20.5214,-9.437,84.926
2023-03-10 00:00:25:953,-1.66264,3.43802,-9.03735,-20.5269,-9.42641,84.9186
2023-03-10 00:00:25:964,-1.65109,3.43387,-9.04435,-20.53,-9.42009,84.9103
2023-03-10 00:00:25:973,-1.64112,3.43542,-9.03204,-20.5345,-9.41458,84.8976
2023-03-10 00:00:25:983,-1.62243,3.42618,-9.03616,-20.5399,-9.40492,84.8833
2023-03-10 00:00:25:993,-1.58408,3.42561,-9.03933,-20.542,-9.39571,84.8626
2023-03-10 00:00:26:3,-1.53256,3.40746,-9.03588,-20.543,-9.38879,84.842
2023-03-10 00:00:26:13,-1.52301,3.40502,-9.02979,-20.5394,-9.38515,84.8232
2023-03-10 00:00:26:23,-1.51849,3.406,-9.03813,-20.539,-9.38323,84.8046
2023-03-10 00:00:26:33,-1.49481,3.42258,-9.05185,-20.5419,-9.38159,84.7924
2023-03-10 00:00:26:43,-1.46804,3.42868,-9.05905,-20.5427,-9.37199,84.7753
2023-03-10 00:00:26:53,-1.46514,3.43529,-9.05306,-20.5438,-9.36417,84.7647
2023-03-10 00:00:26:64,-1.47823,3.4212,-9.05156,-20.5462,-9.35769,84.7556
2023-03-10 00:00:26:73,-1.48911,3.42133,-9.04308,-20.5485,-9.35086,84.7487
2023-03-10 00:00:26:83,-1.49848,3.4167,-9.03087,-20.5472,-9.34642,84.7422
2023-03-10 00:00:26:93,-1.49371,3.40269,-9.02809,-20.5441,-9.34391,84.7403
2023-03-10 00:00:26:103,-1.49911,3.39759,-9.01324,-20.5455,-9.33846,84.7376
2023-03-10 00:00:26:113,-1.51148,3.4064,-9.01364,-20.5493,-9.33452,84.7385
2023-03-10 00:00:26:123,-1.51724,3.39998,-9.02483,-20.5519,-9.33067,84.7399
2023-03-10 00:00:26:133,-1.51748,3.41426,-9.02368,-20.5544,-9.33337,84.7404
2023-03-10 00:00:26:143,-1.51216,3.42936,-9.01878,-20.56,-9.33397,84.7447
2023-03-10 00:00:26:153,-1.51986,3.42914,-9.01676,-20.5644,-9.33619,84.7454
2023-03-10 00:00:26:163,-1.53315,3.42911,-9.00939,-20.5712,-9.3407,84.7494
2023-03-10 00:00:26:173,-1.53255,3.42988,-9.01411,-20.5755,-9.34174,84.748
2023-03-10 00:00:26:183,-1.534,3.42996,-9.00387,-20.5792,-9.34735,84.75
2023-03-10 00:00:26:193,-1.53198,3.43336,-9.02031,-20.5879,-9.3505,84.7527
2023-03-10 00:00:26:203,-1.54025,3.44861,-9.02743,-20.5961,-9.35261,84.7549
2023-03-10 00:00:26:213,-1.55473,3.46375,-9.03775,-20.6039,-9.35261,84.7571
2023-03-10 00:00:26:223,-1.55063,3.46027,-9.06302,-20.6118,-9.35135,84.7581
2023-03-10 00:00:26:233,-1.52377,3.44916,-9.0608,-20.615,-9.35327,84.758
2023-03-10 00:00:26:243,-1.52518,3.43073,-9.04941,-20.6175,-9.35492,84.7565
2023-03-10 00:00:26:253,-1.53961,3.4348,-9.05058,-20.6181,-9.35803,84.7582
2023-03-10 00:00:26:263,-1.53206,3.44488,-9.04357,-20.6193,-9.36097,84.7572
2023-03-10 00:00:26:273,-1.51471,3.4422,-9.03903,-20.6232,-9.36558,84.7592
2023-03-10 00:00:26:283,-1.5039,3.42973,-9.04468,-20.6218,-9.37162,84.7579
2023-03-10 00:00:26:293,-1.52698,3.41069,-9.03785,-20.6224,-9.37916,84.7607
2023-03-10 00:00:26:303,-1.54637,3.40978,-9.04065,-20.6228,-9.38447,84.7644
2023-03-10 00:00:26:313,-1.52254,3.42296,-9.05897,-20.6233,-9.3918,84.7678
2023-03-10 00:00:26:323,-1.50714,3.41624,-9.04814,-20.621,-9.39555,84.7752
2023-03-10 00:00:26:333,-1.50779,3.37786,-9.00412,-20.6191,-9.39974,84.7872
2023-03-10 00:00:26:343,-1.54501,3.36139,-8.99473,-20.6228,-9.40771,84.798
2023-03-10 00:00:26:353,-1.58904,3.37497,-9.00976,-20.6298,-9.41422,84.8129
2023-03-10 00:00:26:363,-1.62183,3.41088,-9.01966,-20.6397,-9.42041,84.8269
2023-03-10 00:00:26:373,-1.63359,3.43642,-9.01203,-20.6479,-9.42813,84.839
2023-03-10 00:00:26:383,-1.62897,3.44918,-8.99591,-20.6542,-9.43707,84.848
2023-03-10 00:00:26:393,-1.61987,3.45856,-8.9969,-20.661,-9.44268,84.8541
2023-03-10 00:00:26:403,-1.62183,3.45553,-9.00433,-20.665,-9.45006,84.8601
2023-03-10 00:00:26:413,-1.62772,3.45228,-8.99881,-20.6671,-9.45494,84.8643
2023-03-10 00:00:26:423,-1.64796,3.44022,-8.98231,-20.6674,-9.46172,84.8664
2023-03-10 00:00:26:433,-1.65582,3.42136,-8.97362,-20.6663,-9.46945,84.8658
2023-03-10 00:00:26:443,-1.62402,3.41794,-8.96159,-20.6641,-9.47539,84.8635
2023-03-10 00:00:26:453,-1.58699,3.40782,-8.9763,-20.6686,-9.47795,84.8623
2023-03-10 00:00:26:463,-1.572,3.42051,-8.97351,-20.6745,-9.48266,84.8612
2023-03-10 00:00:26:473,-1.57434,3.42003,-8.99499,-20.6814,-9.48705,84.8582
2023-03-10 00:00:26:483,-1.56917,3.43052,-9.01693,-20.6877,-9.49243,84.8613
2023-03-10 00:00:26:493,-1.57546,3.44794,-9.01493,-20.6991,-9.49328,84.8657
2023-03-10 00:00:26:503,-1.5789,3.43793,-9.03277,-20.7071,-9.49457,84.87
2023-03-10 00:00:26:513,-1.59344,3.44964,-9.04128,-20.7176,-9.4966,84.8751
2023-03-10 00:00:26:523,-1.61326,3.45386,-9.0549,-20.7268,-9.50022,84.8831
2023-03-10 00:00:26:533,-1.60392,3.46325,-9.04384,-20.7374,-9.50363,84.8879
2023-03-10 00:00:26:543,-1.60289,3.47791,-9.04611,-20.745,-9.50527,84.8872
2023-03-10 00:00:26:553,-1.61553,3.46491,-9.03585,-20.752,-9.51191,84.891
2023-03-10 00:00:26:563,-1.65117,3.46384,-9.00561,-20.7554,-9.51773,84.8932
2023-03-10 00:00:26:573,-1.63443,3.45911,-8.98677,-20.7605,-9.51795,84.8935
2023-03-10 00:00:26:583,-1.58335,3.45002,-8.99261,-20.7624,-9.51875,84.8937
2023-03-10 00:00:26:593,-1.52087,3.44301,-9.01214,-20.7632,-9.51989,84.8893
2023-03-10 00:00:26:603,-1.49685,3.418,-9.0035,-20.7637,-9.52089,84.8916
2023-03-10 00:00:26:613,-1.53165,3.41639,-8.98016,-20.7675,-9.52311,84.8969
2023-03-10 00:00:26:623,-1.56631,3.41518,-8.96843,-20.7724,-9.53101,84.9054
2023-03-10 00:00:26:633,-1.58154,3.40094,-8.97437,-20.7808,-9.53689,84.9115
2023-03-10 00:00:26:643,-1.5841,3.40757,-8.9889,-20.789,-9.54501,84.9188
2023-03-10 00:00:26:653,-1.58837,3.43909,-9.01758,-20.8014,-9.5467,84.9238
2023-03-10 00:00:26:663,-1.5884,3.46841,-9.05165,-20.817,-9.55098,84.9338
2023-03-10 00:00:26:673,-1.59459,3.48414,-9.05962,-20.8327,-9.55451,84.941
2023-03-10 00:00:26:683,-1.61311,3.48418,-9.063,-20.8417,-9.55493,84.953
2023-03-10 00:00:26:693,-1.6134,3.47996,-9.02832,-20.8516,-9.55988,84.961
2023-03-10 00:00:26:703,-1.59311,3.47927,-9.01473,-20.8544,-9.56498,84.9681
2023-03-10 00:00:26:713,-1.5934,3.45517,-9.02103,-20.8543,-9.57057,84.9731
2023-03-10 00:00:26:723,-1.58655,3.45166,-8.98894,-20.857,-9.57697,84.9743
2023-03-10 00:00:26:733,-1.55016,3.44097,-8.98272,-20.8563,-9.58405,84.9746
2023-03-10 00:00:26:743,-1.53003,3.4239,-8.98292,-20.8559,-9.59246,84.9764
2023-03-10 00:00:26:753,-1.5485,3.42249,-8.95813,-20.8607,-9.6005,84.9828
2023-03-10 00:00:26:763,-1.56022,3.42089,-8.95637,-20.8669,-9.61163,84.9922
2023-03-10 00:00:26:773,-1.55321,3.42187,-8.96497,-20.8728,-9.62017,85.0002
2023-03-10 00:00:26:783,-1.55506,3.44163,-8.98006,-20.8828,-9.627,85.0113
2023-03-10 00:00:26:793,-1.57072,3.43898,-9.00155,-20.8924,-9.63335,85.0259
2023-03-10 00:00:26:803,-1.60791,3.45384,-9.00464,-20.9064,-9.63982,85.0422
2023-03-10 00:00:26:813,-1.62889,3.46612,-9.00311,-20.9213,-9.64646,85.0597
2023-03-10 00:00:26:823,-1.65754,3.47842,-9.00734,-20.9388,-9.6557,85.0784
2023-03-10 00:00:26:833,-1.65592,3.5015,-9.00682,-20.9542,-9.66179,85.0929
2023-03-10 00:00:26:843,-1.65851,3.5052,-9.00568,-20.9643,-9.66549,85.1093
2023-03-10 00:00:26:853,-1.6563,3.48967,-9.00294,-20.9757,-9.66762,85.1214
2023-03-10 00:00:26:863,-1.65213,3.49289,-8.99075,-20.9851,-9.67096,85.1296
2023-03-10 00:00:26:873,-1.65594,3.47923,-8.97449,-20.9895,-9.67793,85.136
2023-03-10 00:00:26:883,-1.65264,3.4736,-8.96736,-20.9979,-9.68474,85.1433
2023-03-10 00:00:26:893,-1.64957,3.47304,-8.95627,-21.0068,-9.69196,85.1461
2023-03-10 00:00:26:903,-1.64423,3.46994,-8.95347,-21.0189,-9.69602,85.1508
2023-03-10 00:00:26:913,-1.64518,3.47874,-8.96608,-21.0334,-9.70414,85.1543
2023-03-10 00:00:26:923,-1.62547,3.48657,-8.99156,-21.049,-9.71198,85.1588
2023-03-10 00:00:26:933,-1.62554,3.48737,-9.01104,-21.0621,-9.71804,85.1592
2023-03-10 00:00:26:943,-1.60062,3.49803,-9.01403,-21.0727,-9.72203,85.1616
2023-03-10 00:00:26:953,-1.59295,3.51974,-9.02623,-21.0854,-9.72649,85.1671
2023-03-10 00:00:26:963,-1.61043,3.53769,-9.03653,-21.0986,-9.73084,85.17
2023-03-10 00:00:26:973,-1.60814,3.54429,-9.00307,-21.1101,-9.73234,85.1763
2023-03-10 00:00:26:983,-1.60291,3.52632,-8.99492,-21.1192,-9.73222,85.1827
2023-03-10 00:00:26:993,-1.61936,3.52213,-9.0056,-21.1296,-9.73614,85.1905
2023-03-10 00:00:27:3,-1.63536,3.52109,-8.9952,-21.1371,-9.73692,85.1969
2023-03-10 00:00:27:13,-1.65596,3.52147,-8.98574,-21.1442,-9.73925,85.2054
2023-03-10 00:00:27:23,-1.64692,3.51305,-8.9767,-21.1488,-9.74325,85.2123
2023-03-10 00:00:27:33,-1.64799,3.50528,-8.98599,-21.155,-9.74836,85.2155
2023-03-10 00:00:27:43,-1.63883,3.51189,-8.98198,-21.1625,-9.7519,85.2218
2023-03-10 00:00:27:53,-1.63923,3.50375,-8.97803,-21.1704,-9.75578,85.2296
2023-03-10 00:00:27:63,-1.63691,3.50108,-8.95921,-21.1805,-9.76114,85.2333
2023-03-10 00:00:27:73,-1.62692,3.49488,-8.9528,-21.191,-9.7661,85.2405
2023-03-10 00:00:27:83,-1.62198,3.49943,-8.97657,-21.2039,-9.77123,85.2434
2023-03-10 00:00:27:93,-1.63157,3.51119,-8.99016,-21.2149,-9.77649,85.2512
2023-03-10 00:00:27:103,-1.63381,3.52266,-8.97876,-21.2252,-9.78162,85.2582
2023-03-10 00:00:27:113,-1.6291,3.50924,-8.96226,-21.2361,-9.78746,85.267
2023-03-10 00:00:27:123,-1.61877,3.51259,-8.95508,-21.2486,-9.79048,85.2749
2023-03-10 00:00:27:133,-1.62751,3.52156,-8.96607,-21.2601,-9.7965,85.2861
2023-03-10 00:00:27:143,-1.63981,3.52583,-8.98365,-21.2721,-9.80195,85.2966
2023-03-10 00:00:27:153,-1.63979,3.53321,-8.96243,-21.2844,-9.80347,85.3066
2023-03-10 00:00:27:163,-1.64138,3.52014,-8.97201,-21.2921,-9.80558,85.3129
2023-03-10 00:00:27:173,-1.65793,3.5108,-8.97739,-21.3035,-9.81188,85.3244
2023-03-10 00:00:27:183,-1.68177,3.53479,-8.9732,-21.3133,-9.81469,85.3381
2023-03-10 00:00:27:193,-1.67058,3.54377,-8.97352,-21.3245,-9.81764,85.3467
2023-03-10 00:00:27:203,-1.65504,3.52942,-8.97418,-21.3348,-9.82295,85.3537
2023-03-10 00:00:27:213,-1.64257,3.5129,-8.95443,-21.3469,-9.82841,85.3613
2023-03-10 00:00:27:223,-1.62775,3.51383,-8.96035,-21.3575,-9.83261,85.3672
2023-03-10 00:00:27:233,-1.61337,3.53107,-8.9597,-21.367,-9.84127,85.3741
2023-03-10 00:00:27:243,-1.62307,3.51909,-8.95369,-21.3811,-9.8526,85.3824
2023-03-10 00:00:27:253,-1.63526,3.51767,-8.95056,-21.3918,-9.86194,85.3956
2023-03-10 00:00:27:263,-1.61772,3.53082,-8.96087,-21.4055,-9.86803,85.4046
2023-03-10 00:00:27:273,-1.58673,3.53633,-8.99586,-21.4156,-9.87734,85.4165
2023-03-10 00:00:27:283,-1.59918,3.53884,-9.00257,-21.4283,-9.88391,85.429
2023-03-10 00:00:27:293,-1.62448,3.53476,-8.98029,-21.4397,-9.89417,85.4451
2023-03-10 00:00:27:303,-1.66932,3.54721,-8.96341,-21.4562,-9.90573,85.4627
2023-03-10 00:00:27:313,-1.69756,3.56493,-8.9615,-21.4684,-9.91036,85.4779
2023-03-10 00:00:27:323,-1.70595,3.58612,-8.96858,-21.4834,-9.91729,85.4924
2023-03-10 00:00:27:333,-1.7164,3.58378,-8.9704,-21.4963,-9.92379,85.5084
2023-03-10 00:00:27:343,-1.70665,3.58735,-8.96477,-21.5049,-9.92817,85.5202
2023-03-10 00:00:27:353,-1.682,3.6,-8.94861,-21.5154,-9.92859,85.5314
2023-03-10 00:00:27:363,-1.66924,3.58474,-8.94274,-21.5216,-9.93186,85.5381
2023-03-10 00:00:27:373,-1.68187,3.58377,-8.91177,-21.5275,-9.94097,85.5445
2023-03-10 00:00:27:383,-1.69732,3.5727,-8.8898,-21.5351,-9.94605,85.5535
2023-03-10 00:00:27:393,-1.69546,3.58506,-8.8993,-21.5446,-9.95019,85.5603
2023-03-10 00:00:27:403,-1.68925,3.60032,-8.91681,-21.555,-9.95186,85.5639
2023-03-10 00:00:27:413,-1.69107,3.60397,-8.94196,-21.5637,-9.95652,85.5675
2023-03-10 00:00:27:423,-1.70065,3.6116,-8.95951,-21.5752,-9.96035,85.57
2023-03-10 00:00:27:433,-1.68782,3.60519,-8.97032,-21.5865,-9.9654,85.5714
2023-03-10 00:00:27:443,-1.67235,3.60886,-8.97392,-21.5974,-9.96852,85.5755
2023-03-10 00:00:27:453,-1.66718,3.60655,-8.96235,-21.6059,-9.9686,85.5794
2023-03-10 00:00:27:463,-1.65461,3.60142,-8.96359,-21.6154,-9.96831,85.5796
2023-03-10 00:00:27:473,-1.66377,3.60909,-8.95485,-21.622,-9.97216,85.5804
2023-03-10 00:00:27:483,-1.66369,3.63778,-8.95589,-21.6327,-9.97398,85.5813
2023-03-10 00:00:27:493,-1.66461,3.62702,-8.94763,-21.6413,-9.97925,85.5841
2023-03-10 00:00:27:503,-1.66688,3.61943,-8.94553,-21.6508,-9.98411,85.5889
2023-03-10 00:00:27:513,-1.69132,3.62395,-8.94003,-21.6577,-9.98904,85.5908
2023-03-10 00:00:27:523,-1.72552,3.64028,-8.94073,-21.6658,-9.99582,85.5934
2023-03-10 00:00:27:533,-1.70053,3.64374,-8.95148,-21.6722,-9.99807,85.5953
2023-03-10 00:00:27:543,-1.64789,3.63185,-8.96755,-21.6756,-9.99709,85.5908
2023-03-10 00:00:27:553,-1.59572,3.61201,-8.96556,-21.6748,-10.0018,85.5903
2023-03-10 00:00:27:563,-1.6016,3.59467,-8.94804,-21.6746,-10.0058,85.5935
2023-03-10 00:00:27:573,-1.64146,3.58016,-8.94456,-21.6753,-10.0113,85.5952
2023-03-10 00:00:27:583,-1.64633,3.57179,-8.94851,-21.6741,-10.0183,85.5999
2023-03-10 00:00:27:593,-1.63754,3.57755,-8.95116,-21.6775,-10.025,85.6015
2023-03-10 00:00:27:603,-1.63994,3.58892,-8.98406,-21.684,-10.0279,85.6081
2023-03-10 00:00:27:613,-1.6458,3.61635,-9.00231,-21.6868,-10.0281,85.6183
2023-03-10 00:00:27:623,-1.6589,3.61805,-8.99917,-21.6901,-10.0314,85.6283
2023-03-10 00:00:27:633,-1.70237,3.60622,-8.98211,-21.6937,-10.0336,85.643
2023-03-10 00:00:27:643,-1.73147,3.59558,-8.95709,-21.6914,-10.0311,85.6551
2023-03-10 00:00:27:653,-1.75086,3.59437,-8.93569,-21.6884,-10.0306,85.6684
2023-03-10 00:00:27:663,-1.76199,3.59328,-8.9307,-21.6868,-10.03,85.6773
2023-03-10 00:00:27:673,-1.77415,3.61207,-8.9163,-21.6834,-10.0319,85.6835
2023-03-10 00:00:27:683,-1.7638,3.60986,-8.92224,-21.6786,-10.0346,85.6781
2023-03-10 00:00:27:693,-1.74896,3.59079,-8.93253,-21.6711,-10.0418,85.6708
2023-03-10 00:00:27:703,-1.71965,3.58245,-8.92419,-21.6656,-10.0466,85.6624
2023-03-10 00:00:27:713,-1.69463,3.55544,-8.93511,-21.658,-10.0481,85.6518
2023-03-10 00:00:27:723,-1.66198,3.55731,-8.94373,-21.6528,-10.056,85.6443
2023-03-10 00:00:27:733,-1.63982,3.55454,-8.94128,-21.6444,-10.0591,85.6352
2023-03-10 00:00:27:743,-1.64344,3.53881,-8.93296,-21.6417,-10.0638,85.6323
