Timestamp,Acceleration_x,Acceleration_y,Acceleration_z,roll,pitch,yaw
2023-02-17 00:35:06:979,-0.269335,1.94292,-9.351,-12.2656,-3.36992,-61.333
2023-02-17 00:35:06:987,-0.255857,1.94876,-9.38339,-12.1992,-3.32684,-61.402
2023-02-17 00:35:06:997,-0.251962,1.94289,-9.42788,-12.1376,-3.28521,-61.4557
2023-02-17 00:35:07:7,-0.276287,1.9429,-9.48809,-12.0813,-3.24837,-61.5008
2023-02-17 00:35:07:17,-0.290348,1.94845,-9.53593,-12.0294,-3.20989,-61.5345
2023-02-17 00:35:07:27,-0.337901,1.94832,-9.57114,-11.9794,-3.17281,-61.5631
2023-02-17 00:35:07:37,-0.381343,1.94334,-9.62195,-11.9287,-3.14285,-61.588
2023-02-17 00:35:07:47,-0.43146,1.92878,-9.63492,-11.876,-3.11843,-61.6135
2023-02-17 00:35:07:57,-0.457243,1.92701,-9.64356,-11.8208,-3.09076,-61.6409
2023-02-17 00:35:07:67,-0.466554,1.92785,-9.61823,-11.7637,-3.06807,-61.6714
2023-02-17 00:35:07:77,-0.473984,1.89266,-9.60751,-11.7049,-3.04302,-61.7053
2023-02-17 00:35:07:87,-0.46702,1.88723,-9.57371,-11.6429,-3.01999,-61.738
2023-02-17 00:35:07:97,-0.461882,1.85061,-9.55061,-11.5826,-3.00064,-61.778
2023-02-17 00:35:07:107,-0.434502,1.82075,-9.50538,-11.5184,-2.98593,-61.8169
2023-02-17 00:35:07:117,-0.405404,1.7947,-9.45381,-11.467,-2.97422,-61.8553
2023-02-17 00:35:07:127,-0.397453,1.78712,-9.4287,-11.4244,-2.9693,-61.897
2023-02-17 00:35:07:137,-0.443755,1.80512,-9.41028,-11.3915,-2.97088,-61.9434
2023-02-17 00:35:07:147,-0.511429,1.83514,-9.42238,-11.3677,-2.9737,-61.9966
2023-02-17 00:35:07:157,-0.555198,1.87971,-9.46272,-11.3477,-2.97672,-62.0569
2023-02-17 00:35:07:167,-0.5404,1.93164,-9.51736,-11.3308,-2.97894,-62.1265
2023-02-17 00:35:07:177,-0.512549,1.95826,-9.59115,-11.3151,-2.97633,-62.2
2023-02-17 00:35:07:187,-0.463259,1.97561,-9.63208,-11.3001,-2.97301,-62.2733
2023-02-17 00:35:07:197,-0.411568,1.98171,-9.67395,-11.2816,-2.96872,-62.3465
2023-02-17 00:35:07:207,-0.346495,1.97579,-9.67736,-11.2562,-2.96103,-62.4139
2023-02-17 00:35:07:217,-0.316214,1.95279,-9.63683,-11.2292,-2.95475,-62.476
2023-02-17 00:35:07:227,-0.313636,1.94233,-9.58981,-11.1989,-2.95149,-62.5284
2023-02-17 00:35:07:237,-0.32146,1.92858,-9.59388,-11.1721,-2.94696,-62.5781
2023-02-17 00:35:07:247,-0.351126,1.92212,-9.61934,-11.1421,-2.94276,-62.628
2023-02-17 00:35:07:257,-0.388309,1.90141,-9.64101,-11.1067,-2.93558,-62.671
2023-02-17 00:35:07:267,-0.40824,1.88454,-9.67545,-11.0617,-2.9198,-62.7126
2023-02-17 00:35:07:277,-0.383421,1.85436,-9.65064,-11.0128,-2.89662,-62.7507
2023-02-17 00:35:07:287,-0.345777,1.80945,-9.622,-10.9619,-2.86343,-62.7858
2023-02-17 00:35:07:297,-0.300118,1.77695,-9.59894,-10.9075,-2.82637,-62.814
2023-02-17 00:35:07:308,-0.256567,1.75112,-9.58279,-10.8534,-2.79135,-62.8374
2023-02-17 00:35:07:317,-0.255333,1.74108,-9.55402,-10.8052,-2.7567,-62.8584
2023-02-17 00:35:07:327,-0.269221,1.73336,-9.54588,-10.7625,-2.72874,-62.8766
2023-02-17 00:35:07:337,-0.266747,1.72495,-9.55625,-10.7222,-2.70333,-62.8957
2023-02-17 00:35:07:347,-0.253712,1.71058,-9.57873,-10.6873,-2.68561,-62.9142
2023-02-17 00:35:07:357,-0.27993,1.7238,-9.61082,-10.6539,-2.67783,-62.9326
2023-02-17 00:35:07:367,-0.320077,1.74296,-9.61844,-10.6235,-2.67752,-62.9504
2023-02-17 00:35:07:377,-0.368347,1.74154,-9.64342,-10.5879,-2.68059,-62.9743
2023-02-17 00:35:07:387,-0.436053,1.73942,-9.66518,-10.551,-2.68545,-62.9997
2023-02-17 00:35:07:397,-0.47603,1.72527,-9.67792,-10.514,-2.69392,-63.0337
2023-02-17 00:35:07:407,-0.496591,1.71786,-9.69138,-10.4746,-2.70533,-63.0761
2023-02-17 00:35:07:417,-0.508539,1.70805,-9.69414,-10.434,-2.71661,-63.1238
2023-02-17 00:35:07:427,-0.515858,1.68271,-9.69458,-10.3919,-2.73106,-63.1767
2023-02-17 00:35:07:437,-0.49868,1.67084,-9.69746,-10.3505,-2.74688,-63.2293
2023-02-17 00:35:07:447,-0.496282,1.64516,-9.69954,-10.3024,-2.76371,-63.2875
2023-02-17 00:35:07:457,-0.516413,1.62764,-9.68472,-10.2554,-2.7826,-63.3512
2023-02-17 00:35:07:467,-0.549636,1.5908,-9.71729,-10.2075,-2.80184,-63.4185
2023-02-17 00:35:07:477,-0.566084,1.58454,-9.72789,-10.1552,-2.81593,-63.4908
2023-02-17 00:35:07:487,-0.537384,1.55912,-9.73009,-10.102,-2.82486,-63.5671
2023-02-17 00:35:07:497,-0.478035,1.53108,-9.71036,-10.0449,-2.83499,-63.6373
2023-02-17 00:35:07:507,-0.436483,1.51189,-9.66541,-9.98574,-2.84197,-63.7035
2023-02-17 00:35:07:517,-0.449652,1.49305,-9.61235,-9.92734,-2.85527,-63.7715
2023-02-17 00:35:07:527,-0.45064,1.47814,-9.57087,-9.87484,-2.86134,-63.8354
2023-02-17 00:35:07:537,-0.441367,1.46534,-9.55744,-9.83106,-2.86198,-63.8983
2023-02-17 00:35:07:547,-0.438372,1.45827,-9.54963,-9.78847,-2.86254,-63.9557
2023-02-17 00:35:07:557,-0.414355,1.46607,-9.55812,-9.74779,-2.85625,-64.0146
2023-02-17 00:35:07:567,-0.384351,1.44963,-9.57167,-9.7132,-2.8522,-64.0672
2023-02-17 00:35:07:577,-0.353125,1.42288,-9.58013,-9.67926,-2.84071,-64.1144
2023-02-17 00:35:07:587,-0.330997,1.43855,-9.56576,-9.64873,-2.8263,-64.1608
2023-02-17 00:35:07:597,-0.307703,1.43202,-9.5309,-9.61877,-2.80952,-64.2011
2023-02-17 00:35:07:607,-0.301745,1.45075,-9.52513,-9.59478,-2.79121,-64.2386
2023-02-17 00:35:07:617,-0.274059,1.45562,-9.51904,-9.5744,-2.77173,-64.2698
2023-02-17 00:35:07:627,-0.260907,1.456,-9.50149,-9.55717,-2.75277,-64.2961
2023-02-17 00:35:07:637,-0.254771,1.45917,-9.49613,-9.546,-2.73396,-64.3128
2023-02-17 00:35:07:647,-0.248438,1.4852,-9.52043,-9.54284,-2.716,-64.3269
2023-02-17 00:35:07:657,-0.250191,1.49376,-9.54399,-9.54147,-2.70319,-64.3361
2023-02-17 00:35:07:667,-0.284661,1.49996,-9.59942,-9.54198,-2.68797,-64.339
2023-02-17 00:35:07:677,-0.323126,1.5333,-9.64057,-9.54467,-2.67451,-64.3395
2023-02-17 00:35:07:687,-0.307728,1.52624,-9.65205,-9.54433,-2.66279,-64.3385
2023-02-17 00:35:07:697,-0.308435,1.50382,-9.66858,-9.54106,-2.65034,-64.3247
2023-02-17 00:35:07:707,-0.326364,1.48278,-9.64183,-9.53942,-2.63432,-64.3103
2023-02-17 00:35:07:717,-0.340313,1.47977,-9.58397,-9.54146,-2.62394,-64.2913
2023-02-17 00:35:07:727,-0.342705,1.4698,-9.55622,-9.54413,-2.61103,-64.2732
2023-02-17 00:35:07:737,-0.357531,1.47123,-9.56921,-9.5504,-2.60319,-64.251
2023-02-17 00:35:07:747,-0.386608,1.50053,-9.57263,-9.56575,-2.59896,-64.2283
2023-02-17 00:35:07:757,-0.439965,1.53064,-9.58448,-9.58117,-2.59786,-64.2055
2023-02-17 00:35:07:767,-0.495009,1.55582,-9.61081,-9.60618,-2.59759,-64.1881
2023-02-17 00:35:07:777,-0.549185,1.59277,-9.61936,-9.62901,-2.5963,-64.1725
2023-02-17 00:35:07:787,-0.605616,1.63432,-9.63456,-9.65063,-2.58864,-64.1638
2023-02-17 00:35:07:797,-0.608793,1.64338,-9.64366,-9.66924,-2.58238,-64.1614
2023-02-17 00:35:07:807,-0.610556,1.65033,-9.63654,-9.68771,-2.57512,-64.1647
2023-02-17 00:35:07:817,-0.608809,1.65829,-9.64471,-9.7047,-2.56411,-64.1747
2023-02-17 00:35:07:827,-0.582621,1.66198,-9.64468,-9.71831,-2.54962,-64.1881
2023-02-17 00:35:07:837,-0.533431,1.66237,-9.65972,-9.73157,-2.53264,-64.2112
2023-02-17 00:35:07:847,-0.456055,1.66443,-9.65729,-9.74451,-2.51369,-64.2361
2023-02-17 00:35:07:857,-0.380495,1.65265,-9.64049,-9.75413,-2.49056,-64.26
2023-02-17 00:35:07:867,-0.327081,1.64872,-9.63315,-9.765,-2.46856,-64.2774
2023-02-17 00:35:07:877,-0.288842,1.63764,-9.6167,-9.77361,-2.45599,-64.2945
2023-02-17 00:35:07:887,-0.249799,1.62997,-9.59564,-9.78521,-2.44156,-64.3045
2023-02-17 00:35:07:897,-0.256823,1.62687,-9.58062,-9.80001,-2.43039,-64.3122
2023-02-17 00:35:07:907,-0.23782,1.63336,-9.58264,-9.81636,-2.41819,-64.3134
2023-02-17 00:35:07:917,-0.236879,1.63317,-9.58548,-9.83493,-2.40855,-64.3075
2023-02-17 00:35:07:927,-0.257438,1.65374,-9.61987,-9.85329,-2.39645,-64.2986
2023-02-17 00:35:07:937,-0.262281,1.68172,-9.6305,-9.87299,-2.38429,-64.2841
2023-02-17 00:35:07:947,-0.264818,1.69352,-9.65927,-9.88986,-2.37333,-64.2667
2023-02-17 00:35:07:957,-0.293068,1.70663,-9.67291,-9.90548,-2.36367,-64.2451
2023-02-17 00:35:07:967,-0.351112,1.71954,-9.65875,-9.92231,-2.3553,-64.2272
2023-02-17 00:35:07:977,-0.41421,1.7127,-9.65902,-9.93957,-2.34881,-64.2104
2023-02-17 00:35:07:987,-0.454989,1.71221,-9.62687,-9.95308,-2.34462,-64.1937
2023-02-17 00:35:07:997,-0.495597,1.7131,-9.59195,-9.96574,-2.34147,-64.1784
2023-02-17 00:35:08:7,-0.522642,1.69984,-9.58455,-9.98062,-2.33421,-64.1693
2023-02-17 00:35:08:17,-0.532961,1.71159,-9.57825,-9.99378,-2.32822,-64.1699
2023-02-17 00:35:08:27,-0.525151,1.72789,-9.58539,-10.0091,-2.32143,-64.1756
2023-02-17 00:35:08:37,-0.499614,1.73835,-9.60291,-10.0257,-2.31381,-64.1849
2023-02-17 00:35:08:47,-0.484208,1.74525,-9.61302,-10.0385,-2.30459,-64.1993
2023-02-17 00:35:08:57,-0.455854,1.7311,-9.6194,-10.052,-2.29244,-64.2129
2023-02-17 00:35:08:67,-0.437012,1.72969,-9.60636,-10.0654,-2.27917,-64.2307
2023-02-17 00:35:08:77,-0.413931,1.7255,-9.59976,-10.0789,-2.26487,-64.2505
2023-02-17 00:35:08:87,-0.400609,1.71734,-9.5997,-10.0936,-2.25184,-64.274
2023-02-17 00:35:08:97,-0.378343,1.73065,-9.59035,-10.1111,-2.2409,-64.2954
2023-02-17 00:35:08:107,-0.349235,1.73967,-9.60538,-10.1287,-2.23177,-64.3181
2023-02-17 00:35:08:117,-0.327802,1.76005,-9.61496,-10.1486,-2.2213,-64.3396
2023-02-17 00:35:08:127,-0.300022,1.77066,-9.62341,-10.1664,-2.21066,-64.3614
2023-02-17 00:35:08:137,-0.276335,1.77136,-9.63933,-10.1834,-2.20197,-64.3755
2023-02-17 00:35:08:147,-0.272882,1.78224,-9.65273,-10.1996,-2.19263,-64.3891
2023-02-17 00:35:08:157,-0.264735,1.79687,-9.63714,-10.2142,-2.18531,-64.4023
2023-02-17 00:35:08:167,-0.2722,1.79503,-9.62586,-10.2292,-2.1729,-64.4091
2023-02-17 00:35:08:177,-0.280208,1.79377,-9.63299,-10.2437,-2.16506,-64.4182
2023-02-17 00:35:08:187,-0.275901,1.79026,-9.64114,-10.2559,-2.15718,-64.4211
2023-02-17 00:35:08:197,-0.26437,1.79142,-9.64735,-10.2663,-2.15063,-64.4247
2023-02-17 00:35:08:207,-0.257933,1.78078,-9.64485,-10.2767,-2.14581,-64.4223
2023-02-17 00:35:08:217,-0.263034,1.78857,-9.64232,-10.2891,-2.14514,-64.4171
2023-02-17 00:35:08:227,-0.288856,1.78397,-9.61378,-10.2971,-2.14336,-64.4149
2023-02-17 00:35:08:237,-0.322268,1.77667,-9.58134,-10.3089,-2.14238,-64.4049
2023-02-17 00:35:08:247,-0.366287,1.7829,-9.61256,-10.3173,-2.13978,-64.4028
2023-02-17 00:35:08:257,-0.356885,1.79128,-9.63948,-10.3249,-2.13644,-64.3992
2023-02-17 00:35:08:267,-0.313445,1.76622,-9.63762,-10.3315,-2.13369,-64.3925
2023-02-17 00:35:08:277,-0.278298,1.75147,-9.65016,-10.3356,-2.13288,-64.3841
2023-02-17 00:35:08:287,-0.29026,1.75012,-9.64768,-10.3336,-2.13671,-64.3714
2023-02-17 00:35:08:297,-0.336195,1.74317,-9.59012,-10.3389,-2.1421,-64.3571
2023-02-17 00:35:08:307,-0.370053,1.74351,-9.52346,-10.347,-2.15127,-64.3427
2023-02-17 00:35:08:317,-0.386379,1.74212,-9.54673,-10.3617,-2.15896,-64.3288
2023-02-17 00:35:08:327,-0.379933,1.73955,-9.55799,-10.3778,-2.16972,-64.3168
2023-02-17 00:35:08:337,-0.364174,1.74771,-9.55105,-10.3972,-2.17924,-64.3022
2023-02-17 00:35:08:347,-0.36819,1.75108,-9.5701,-10.4211,-2.19212,-64.2919
2023-02-17 00:35:08:357,-0.391638,1.75174,-9.59762,-10.4455,-2.20685,-64.2817
2023-02-17 00:35:08:367,-0.414241,1.76118,-9.57819,-10.4687,-2.22629,-64.2775
2023-02-17 00:35:08:377,-0.390485,1.72841,-9.52585,-10.4924,-2.24199,-64.2745
2023-02-17 00:35:08:387,-0.340119,1.68782,-9.48081,-10.514,-2.25338,-64.2708
2023-02-17 00:35:08:397,-0.303908,1.65026,-9.46655,-10.5384,-2.2627,-64.2636
2023-02-17 00:35:08:407,-0.23236,1.60025,-9.44708,-10.5617,-2.26499,-64.2536
2023-02-17 00:35:08:417,-0.130275,1.54509,-9.38189,-10.5849,-2.26255,-64.229
2023-02-17 00:35:08:427,-0.0330992,1.48613,-9.30826,-10.6198,-2.25346,-64.1914
2023-02-17 00:35:08:437,0.0252983,1.46265,-9.22865,-10.6624,-2.24268,-64.1336
2023-02-17 00:35:08:447,0.0672451,1.45537,-9.23993,-10.7239,-2.2298,-64.0579
2023-02-17 00:35:08:457,0.137397,1.50298,-9.29568,-10.8025,-2.21443,-63.9668
2023-02-17 00:35:08:467,0.176971,1.55827,-9.30286,-10.8987,-2.20451,-63.8568
2023-02-17 00:35:08:477,0.136311,1.63467,-9.33185,-11.011,-2.19796,-63.7314
2023-02-17 00:35:08:487,0.074917,1.71946,-9.38422,-11.1374,-2.18957,-63.5929
2023-02-17 00:35:08:497,0.0119923,1.82651,-9.42849,-11.2752,-2.18321,-63.4457
2023-02-17 00:35:08:507,-0.052112,1.93859,-9.49827,-11.4251,-2.17845,-63.2917
2023-02-17 00:35:08:517,-0.0734187,2.05681,-9.58362,-11.5732,-2.17269,-63.1308
2023-02-17 00:35:08:527,-0.105925,2.14977,-9.62659,-11.7272,-2.16411,-62.9658
2023-02-17 00:35:08:537,-0.178034,2.23205,-9.65142,-11.8752,-2.15649,-62.7957
2023-02-17 00:35:08:547,-0.277092,2.31577,-9.70485,-12.0197,-2.15108,-62.6292
2023-02-17 00:35:08:557,-0.362925,2.39514,-9.76059,-12.155,-2.1406,-62.4674
2023-02-17 00:35:08:567,-0.437156,2.48336,-9.78437,-12.279,-2.13201,-62.3162
2023-02-17 00:35:08:577,-0.507949,2.53817,-9.78415,-12.393,-2.12017,-62.1761
2023-02-17 00:35:08:587,-0.56251,2.57861,-9.78687,-12.4926,-2.10799,-62.0484
2023-02-17 00:35:08:597,-0.581397,2.59943,-9.78832,-12.5794,-2.09383,-61.9337
2023-02-17 00:35:08:607,-0.593535,2.61976,-9.77084,-12.655,-2.08028,-61.8329
2023-02-17 00:35:08:617,-0.601725,2.62406,-9.76462,-12.7186,-2.06879,-61.7465
2023-02-17 00:35:08:627,-0.610095,2.59887,-9.77584,-12.771,-2.06134,-61.6786
2023-02-17 00:35:08:637,-0.611983,2.58996,-9.78892,-12.8094,-2.06104,-61.6233
2023-02-17 00:35:08:647,-0.616701,2.57665,-9.81892,-12.8364,-2.06143,-61.5799
2023-02-17 00:35:08:657,-0.643769,2.55166,-9.84529,-12.8528,-2.06971,-61.551
2023-02-17 00:35:08:667,-0.677458,2.51947,-9.82814,-12.8565,-2.08428,-61.5412
2023-02-17 00:35:08:677,-0.681489,2.47858,-9.78675,-12.8446,-2.10156,-61.5488
2023-02-17 00:35:08:687,-0.692212,2.43049,-9.7334,-12.8255,-2.1211,-61.569
2023-02-17 00:35:08:697,-0.678251,2.372,-9.68894,-12.7949,-2.14485,-61.6056
2023-02-17 00:35:08:707,-0.649257,2.32995,-9.65373,-12.762,-2.16469,-61.6566
2023-02-17 00:35:08:717,-0.604975,2.32292,-9.65285,-12.7244,-2.18683,-61.7165
2023-02-17 00:35:08:727,-0.570282,2.32215,-9.67163,-12.6792,-2.21138,-61.7854
2023-02-17 00:35:08:737,-0.550841,2.30173,-9.65859,-12.627,-2.23626,-61.8613
2023-02-17 00:35:08:747,-0.530754,2.26059,-9.6521,-12.5684,-2.25663,-61.9417
2023-02-17 00:35:08:757,-0.530977,2.22616,-9.64624,-12.5002,-2.27339,-62.0277
2023-02-17 00:35:08:767,-0.507459,2.16815,-9.58216,-12.4279,-2.28324,-62.1162
2023-02-17 00:35:08:777,-0.470671,2.11158,-9.52724,-12.353,-2.29182,-62.2075
2023-02-17 00:35:08:787,-0.411426,2.06699,-9.492,-12.273,-2.29427,-62.2997
2023-02-17 00:35:08:797,-0.349984,2.01169,-9.4298,-12.193,-2.28914,-62.3871
2023-02-17 00:35:08:807,-0.281786,1.96451,-9.38279,-12.1175,-2.28058,-62.4718
2023-02-17 00:35:08:817,-0.22189,1.92902,-9.36172,-12.0473,-2.27075,-62.5527
2023-02-17 00:35:08:827,-0.160536,1.91346,-9.37664,-11.9806,-2.26727,-62.6258
2023-02-17 00:35:08:837,-0.114468,1.90506,-9.41871,-11.926,-2.26544,-62.6917
2023-02-17 00:35:08:847,-0.0980322,1.89669,-9.45438,-11.8755,-2.27289,-62.7483
2023-02-17 00:35:08:857,-0.121894,1.90976,-9.48398,-11.8261,-2.28307,-62.7967
2023-02-17 00:35:08:867,-0.133595,1.92196,-9.5116,-11.782,-2.29702,-62.8394
2023-02-17 00:35:08:877,-0.158468,1.90926,-9.53652,-11.7447,-2.3185,-62.877
2023-02-17 00:35:08:887,-0.199013,1.90001,-9.54797,-11.703,-2.34353,-62.9029
2023-02-17 00:35:08:897,-0.252504,1.87561,-9.55898,-11.6642,-2.37022,-62.9227
2023-02-17 00:35:08:907,-0.3336,1.87014,-9.58838,-11.6239,-2.39952,-62.9409
2023-02-17 00:35:08:917,-0.40104,1.86627,-9.59732,-11.5834,-2.42954,-62.9566
2023-02-17 00:35:08:927,-0.452829,1.82399,-9.57781,-11.5443,-2.46285,-62.9703
2023-02-17 00:35:08:937,-0.526918,1.79837,-9.56855,-11.5059,-2.49329,-62.9838
2023-02-17 00:35:08:947,-0.58431,1.76976,-9.54428,-11.4663,-2.52211,-62.998
2023-02-17 00:35:08:957,-0.601112,1.75782,-9.53227,-11.4279,-2.54559,-63.0164
2023-02-17 00:35:08:967,-0.594736,1.76687,-9.55349,-11.3924,-2.56772,-63.0335
2023-02-17 00:35:08:977,-0.549096,1.76539,-9.56061,-11.3621,-2.58841,-63.045
2023-02-17 00:35:08:987,-0.499901,1.76096,-9.53538,-11.3326,-2.61194,-63.0487
2023-02-17 00:35:08:997,-0.484063,1.75725,-9.53934,-11.306,-2.64208,-63.0464
2023-02-17 00:35:09:7,-0.530101,1.77325,-9.53033,-11.2905,-2.68027,-63.0394
2023-02-17 00:35:09:17,-0.615196,1.79187,-9.48182,-11.2797,-2.72376,-63.035
2023-02-17 00:35:09:27,-0.677245,1.82173,-9.47361,-11.2732,-2.76454,-63.0317
2023-02-17 00:35:09:37,-0.703397,1.88019,-9.49035,-11.2705,-2.8003,-63.028
2023-02-17 00:35:09:47,-0.728525,1.9195,-9.49564,-11.2692,-2.83039,-63.0331
2023-02-17 00:35:09:57,-0.716924,1.95202,-9.53107,-11.2731,-2.85828,-63.0405
2023-02-17 00:35:09:67,-0.691722,1.98101,-9.57847,-11.2757,-2.88306,-63.0518
2023-02-17 00:35:09:77,-0.691472,2.00488,-9.60123,-11.2816,-2.90531,-63.0639
2023-02-17 00:35:09:87,-0.701464,2.01859,-9.57052,-11.281,-2.92385,-63.0772
2023-02-17 00:35:09:97,-0.735616,2.03572,-9.55142,-11.2779,-2.93967,-63.0962
2023-02-17 00:35:09:107,-0.728578,2.04495,-9.56071,-11.2764,-2.95029,-63.1242
2023-02-17 00:35:09:117,-0.726395,2.04359,-9.55975,-11.2725,-2.9616,-63.1615
2023-02-17 00:35:09:127,-0.717704,2.04303,-9.57031,-11.2643,-2.96941,-63.2051
2023-02-17 00:35:09:137,-0.702552,2.0428,-9.63271,-11.2462,-2.97451,-63.2614
2023-02-17 00:35:09:147,-0.677907,2.03899,-9.67475,-11.2244,-2.98038,-63.3272
2023-02-17 00:35:09:157,-0.621932,2.0194,-9.7133,-11.1952,-2.98084,-63.3961
2023-02-17 00:35:09:167,-0.560265,1.98931,-9.71988,-11.1582,-2.97916,-63.4734
2023-02-17 00:35:09:177,-0.481201,1.95789,-9.69165,-11.1153,-2.97671,-63.5504
2023-02-17 00:35:09:187,-0.402386,1.92503,-9.64352,-11.0662,-2.97232,-63.6331
2023-02-17 00:35:09:197,-0.346504,1.87012,-9.61551,-11.0178,-2.97143,-63.7104
2023-02-17 00:35:09:207,-0.299868,1.83917,-9.58775,-10.9709,-2.96546,-63.7865
2023-02-17 00:35:09:217,-0.234718,1.79379,-9.56029,-10.9212,-2.96197,-63.8529
2023-02-17 00:35:09:227,-0.213204,1.7616,-9.51628,-10.8757,-2.95657,-63.9095
2023-02-17 00:35:09:237,-0.226321,1.75665,-9.51109,-10.8322,-2.94798,-63.9614
2023-02-17 00:35:09:247,-0.237432,1.75625,-9.48045,-10.7927,-2.94265,-64.0082
2023-02-17 00:35:09:257,-0.261251,1.75406,-9.45041,-10.7597,-2.93221,-64.0523
2023-02-17 00:35:09:267,-0.284614,1.77805,-9.4683,-10.7314,-2.92401,-64.0908
2023-02-17 00:35:09:277,-0.305587,1.817,-9.50999,-10.7098,-2.91921,-64.1271
2023-02-17 00:35:09:287,-0.373485,1.84631,-9.50943,-10.6915,-2.91102,-64.1638
2023-02-17 00:35:09:297,-0.420202,1.87067,-9.51913,-10.6793,-2.90599,-64.1995
2023-02-17 00:35:09:307,-0.455678,1.89654,-9.52027,-10.6717,-2.89911,-64.2315
2023-02-17 00:35:09:317,-0.486754,1.91386,-9.48774,-10.6667,-2.89137,-64.2694
2023-02-17 00:35:09:327,-0.548442,1.94665,-9.49334,-10.6663,-2.88336,-64.3078
2023-02-17 00:35:09:337,-0.589698,1.98269,-9.49512,-10.6703,-2.87519,-64.3516
2023-02-17 00:35:09:347,-0.578898,2.00193,-9.48673,-10.6747,-2.86292,-64.3976
2023-02-17 00:35:09:357,-0.576659,2.04717,-9.4938,-10.6845,-2.84438,-64.4496
2023-02-17 00:35:09:367,-0.586823,2.10119,-9.49583,-10.6965,-2.82281,-64.5064
2023-02-17 00:35:09:377,-0.588303,2.15726,-9.56264,-10.7066,-2.79328,-64.5682
2023-02-17 00:35:09:387,-0.574423,2.20778,-9.67691,-10.7135,-2.7601,-64.641
2023-02-17 00:35:09:397,-0.503542,2.26476,-9.74602,-10.7167,-2.72282,-64.7168
2023-02-17 00:35:09:407,-0.377685,2.27895,-9.83505,-10.7088,-2.68617,-64.7917
2023-02-17 00:35:09:417,-0.314829,2.26591,-9.96046,-10.6861,-2.65231,-64.863
2023-02-17 00:35:09:427,-0.269179,2.24441,-10.0154,-10.6421,-2.63035,-64.9285
2023-02-17 00:35:09:437,-0.243175,2.15766,-9.98769,-10.5816,-2.6248,-64.9863
2023-02-17 00:35:09:447,-0.258468,2.05335,-9.93588,-10.5036,-2.62293,-65.043
2023-02-17 00:35:09:457,-0.269851,1.94509,-9.83604,-10.4151,-2.63057,-65.0934
2023-02-17 00:35:09:467,-0.273262,1.83322,-9.70487,-10.3162,-2.64209,-65.1397
2023-02-17 00:35:09:477,-0.285177,1.73538,-9.61481,-10.212,-2.6585,-65.1857
2023-02-17 00:35:09:487,-0.260974,1.68747,-9.53473,-10.1142,-2.68014,-65.2263
2023-02-17 00:35:09:497,-0.254077,1.63415,-9.4956,-10.0196,-2.7033,-65.2644
2023-02-17 00:35:09:507,-0.250222,1.60163,-9.50262,-9.93371,-2.73028,-65.2973
2023-02-17 00:35:09:517,-0.243078,1.58967,-9.53599,-9.8563,-2.7597,-65.3211
2023-02-17 00:35:09:527,-0.229622,1.5834,-9.54949,-9.78182,-2.79351,-65.3351
2023-02-17 00:35:09:537,-0.237503,1.55538,-9.58377,-9.71024,-2.83251,-65.339
2023-02-17 00:35:09:547,-0.266937,1.5414,-9.61755,-9.64378,-2.86999,-65.3346
2023-02-17 00:35:09:557,-0.311941,1.52704,-9.636,-9.58054,-2.90994,-65.3253
2023-02-17 00:35:09:567,-0.37567,1.52303,-9.63378,-9.51638,-2.94902,-65.3048
2023-02-17 00:35:09:577,-0.442123,1.52371,-9.62514,-9.45634,-2.99002,-65.2767
2023-02-17 00:35:09:587,-0.477083,1.5343,-9.60104,-9.39916,-3.02968,-65.2445
2023-02-17 00:35:09:597,-0.5093,1.52756,-9.58006,-9.3431,-3.06286,-65.2115
2023-02-17 00:35:09:607,-0.549926,1.53722,-9.56207,-9.29396,-3.09771,-65.1777
2023-02-17 00:35:09:617,-0.591316,1.54231,-9.56476,-9.24742,-3.12561,-65.1362
2023-02-17 00:35:09:627,-0.625526,1.56719,-9.5586,-9.20422,-3.14779,-65.0936
2023-02-17 00:35:09:637,-0.666514,1.56864,-9.58674,-9.16124,-3.1683,-65.056
2023-02-17 00:35:09:647,-0.69342,1.58123,-9.63611,-9.12376,-3.18066,-65.0139
2023-02-17 00:35:09:657,-0.684198,1.5941,-9.68375,-9.08365,-3.18354,-64.9734
2023-02-17 00:35:09:667,-0.655594,1.58858,-9.71421,-9.04096,-3.18051,-64.932
2023-02-17 00:35:09:677,-0.644205,1.5666,-9.73759,-8.9958,-3.17361,-64.8864
2023-02-17 00:35:09:687,-0.662441,1.53782,-9.72581,-8.95193,-3.16383,-64.8447
2023-02-17 00:35:09:697,-0.678783,1.52459,-9.68427,-8.90071,-3.14872,-64.7996
2023-02-17 00:35:09:707,-0.699761,1.50507,-9.65562,-8.84873,-3.13314,-64.7591
2023-02-17 00:35:09:717,-0.719001,1.4711,-9.63221,-8.79319,-3.11362,-64.7233
2023-02-17 00:35:09:727,-0.711614,1.44117,-9.62589,-8.73719,-3.08641,-64.6938
2023-02-17 00:35:09:737,-0.679014,1.40232,-9.63341,-8.68442,-3.05651,-64.6645
2023-02-17 00:35:09:747,-0.645296,1.36702,-9.61785,-8.62704,-3.02789,-64.6399
2023-02-17 00:35:09:757,-0.640902,1.31876,-9.59687,-8.56988,-2.99706,-64.6181
2023-02-17 00:35:09:767,-0.637471,1.2738,-9.5953,-8.51549,-2.96475,-64.6005
2023-02-17 00:35:09:777,-0.630336,1.26692,-9.61523,-8.45987,-2.93534,-64.589
2023-02-17 00:35:09:787,-0.568408,1.23887,-9.62807,-8.40671,-2.90524,-64.5836
2023-02-17 00:35:09:797,-0.500923,1.20673,-9.61035,-8.35256,-2.87216,-64.5744
2023-02-17 00:35:09:807,-0.468415,1.17426,-9.59145,-8.29899,-2.84376,-64.5675
2023-02-17 00:35:09:817,-0.45681,1.15572,-9.57224,-8.25007,-2.8223,-64.5586
2023-02-17 00:35:09:827,-0.463347,1.14212,-9.55361,-8.20726,-2.80407,-64.5513
2023-02-17 00:35:09:837,-0.503107,1.1462,-9.53165,-8.17174,-2.79126,-64.5468
2023-02-17 00:35:09:847,-0.535009,1.14325,-9.49778,-8.14415,-2.77707,-64.5473
2023-02-17 00:35:09:857,-0.538238,1.15517,-9.5,-8.12712,-2.75903,-64.5523
2023-02-17 00:35:09:867,-0.519222,1.18916,-9.53211,-8.12135,-2.74393,-64.563
2023-02-17 00:35:09:877,-0.496746,1.22058,-9.54426,-8.12131,-2.72679,-64.578
2023-02-17 00:35:09:887,-0.46491,1.24979,-9.5647,-8.12747,-2.70368,-64.5934
2023-02-17 00:35:09:897,-0.423103,1.26953,-9.60477,-8.13516,-2.67894,-64.6067
2023-02-17 00:35:09:907,-0.403794,1.27993,-9.64008,-8.14515,-2.65774,-64.6204
2023-02-17 00:35:09:917,-0.399605,1.28583,-9.655,-8.15301,-2.63441,-64.6334
2023-02-17 00:35:09:927,-0.369404,1.29717,-9.6514,-8.15964,-2.60929,-64.6423
2023-02-17 00:35:09:937,-0.357158,1.29349,-9.65159,-8.16606,-2.57802,-64.6487
2023-02-17 00:35:09:947,-0.328642,1.29396,-9.65562,-8.17035,-2.553,-64.6476
2023-02-17 00:35:09:957,-0.317384,1.30863,-9.66563,-8.17724,-2.52256,-64.6462
2023-02-17 00:35:09:967,-0.313948,1.32924,-9.69499,-8.18524,-2.49002,-64.6425
2023-02-17 00:35:09:977,-0.299749,1.33776,-9.71539,-8.19128,-2.45693,-64.6338
2023-02-17 00:35:09:987,-0.292544,1.34628,-9.71266,-8.19605,-2.4243,-64.6168
2023-02-17 00:35:09:997,-0.28751,1.33818,-9.72331,-8.20085,-2.39207,-64.5976
2023-02-17 00:35:10:7,-0.286658,1.33225,-9.74447,-8.20403,-2.36077,-64.5741
2023-02-17 00:35:10:17,-0.273972,1.32506,-9.74164,-8.20114,-2.32857,-64.5486
2023-02-17 00:35:10:27,-0.259738,1.30264,-9.72837,-8.20117,-2.29704,-64.5212
2023-02-17 00:35:10:37,-0.25356,1.30076,-9.74344,-8.19835,-2.27186,-64.4912
2023-02-17 00:35:10:47,-0.236021,1.29835,-9.75586,-8.1951,-2.24622,-64.46
2023-02-17 00:35:10:57,-0.2398,1.29918,-9.72174,-8.19068,-2.22762,-64.4244
2023-02-17 00:35:10:67,-0.234809,1.30403,-9.70535,-8.18714,-2.214,-64.3882
2023-02-17 00:35:10:77,-0.234271,1.3082,-9.69523,-8.1839,-2.20487,-64.3494
2023-02-17 00:35:10:87,-0.267638,1.32077,-9.71564,-8.18288,-2.20011,-64.3054
2023-02-17 00:35:10:97,-0.330583,1.32406,-9.76361,-8.17861,-2.19331,-64.2636
2023-02-17 00:35:10:107,-0.388175,1.31691,-9.81411,-8.16954,-2.1892,-64.2243
2023-02-17 00:35:10:117,-0.424034,1.31529,-9.81364,-8.15361,-2.1913,-64.19
2023-02-17 00:35:10:127,-0.436508,1.30069,-9.77278,-8.13726,-2.18724,-64.1623
2023-02-17 00:35:10:137,-0.426407,1.29166,-9.6972,-8.11741,-2.18694,-64.1361
2023-02-17 00:35:10:147,-0.431706,1.25952,-9.6349,-8.09407,-2.19076,-64.1091
2023-02-17 00:35:10:157,-0.439401,1.25012,-9.57407,-8.07133,-2.19961,-64.0841
2023-02-17 00:35:10:167,-0.478963,1.24413,-9.5117,-8.05157,-2.20926,-64.0649
2023-02-17 00:35:10:177,-0.555778,1.23081,-9.44723,-8.03915,-2.22222,-64.0509
2023-02-17 00:35:10:187,-0.62844,1.2297,-9.41019,-8.03594,-2.23691,-64.0432
2023-02-17 00:35:10:197,-0.688473,1.22683,-9.37344,-8.04264,-2.25189,-64.0463
2023-02-17 00:35:10:207,-0.752565,1.25247,-9.37233,-8.06466,-2.26469,-64.0639
2023-02-17 00:35:10:217,-0.801022,1.31797,-9.4314,-8.10087,-2.27427,-64.099
2023-02-17 00:35:10:227,-0.78968,1.39902,-9.51616,-8.14882,-2.28147,-64.1482
2023-02-17 00:35:10:237,-0.754746,1.47929,-9.608,-8.20404,-2.28346,-64.2151
2023-02-17 00:35:10:247,-0.690759,1.54116,-9.67617,-8.26131,-2.27964,-64.2921
2023-02-17 00:35:10:257,-0.608526,1.61907,-9.70364,-8.32005,-2.27748,-64.381
2023-02-17 00:35:10:267,-0.543466,1.68466,-9.73686,-8.37889,-2.27357,-64.4817
2023-02-17 00:35:10:277,-0.478258,1.73072,-9.77656,-8.4392,-2.26782,-64.5922
2023-02-17 00:35:10:287,-0.385734,1.75306,-9.78616,-8.49452,-2.25792,-64.7084
2023-02-17 00:35:10:297,-0.283763,1.77325,-9.78172,-8.54374,-2.24572,-64.8273
2023-02-17 00:35:10:307,-0.17601,1.78385,-9.77584,-8.58246,-2.22837,-64.9463
2023-02-17 00:35:10:317,-0.0662775,1.77368,-9.79147,-8.61668,-2.21056,-65.0616
2023-02-17 00:35:10:327,0.0352769,1.76473,-9.8243,-8.64425,-2.19288,-65.1648
2023-02-17 00:35:10:337,0.125371,1.7601,-9.85848,-8.66048,-2.16818,-65.2542
2023-02-17 00:35:10:347,0.206109,1.72906,-9.87548,-8.66762,-2.14676,-65.3256
2023-02-17 00:35:10:357,0.27167,1.68989,-9.8741,-8.66492,-2.12924,-65.3783
2023-02-17 00:35:10:367,0.327685,1.63164,-9.86376,-8.65112,-2.10937,-65.4126
2023-02-17 00:35:10:377,0.349292,1.5662,-9.82495,-8.62642,-2.09594,-65.4234
2023-02-17 00:35:10:387,0.356645,1.50883,-9.75916,-8.59666,-2.08917,-65.4127
2023-02-17 00:35:10:397,0.308462,1.47391,-9.68041,-8.56299,-2.09061,-65.3867
2023-02-17 00:35:10:407,0.238233,1.44662,-9.6289,-8.53014,-2.09537,-65.3431
2023-02-17 00:35:10:417,0.173342,1.42071,-9.616,-8.49273,-2.10564,-65.2844
2023-02-17 00:35:10:427,0.0965617,1.41119,-9.59827,-8.45881,-2.11889,-65.2182
2023-02-17 00:35:10:437,0.0293661,1.38379,-9.56108,-8.42031,-2.13484,-65.1426
2023-02-17 00:35:10:447,-0.059907,1.35739,-9.53899,-8.38671,-2.15317,-65.06
2023-02-17 00:35:10:457,-0.141732,1.34192,-9.51315,-8.35301,-2.17377,-64.9676
2023-02-17 00:35:10:467,-0.216533,1.31656,-9.49138,-8.32623,-2.1975,-64.8708
2023-02-17 00:35:10:477,-0.280946,1.32251,-9.49561,-8.30795,-2.21735,-64.77
2023-02-17 00:35:10:487,-0.364396,1.33978,-9.48736,-8.29556,-2.2398,-64.6664
2023-02-17 00:35:10:497,-0.434562,1.34456,-9.47643,-8.2938,-2.26252,-64.5635
2023-02-17 00:35:10:507,-0.501567,1.38017,-9.50293,-8.30111,-2.28032,-64.4623
2023-02-17 00:35:10:517,-0.569295,1.41917,-9.50306,-8.31055,-2.29846,-64.3677
2023-02-17 00:35:10:527,-0.64721,1.44464,-9.51196,-8.3286,-2.31451,-64.2826
2023-02-17 00:35:10:537,-0.697505,1.46158,-9.5788,-8.34853,-2.32685,-64.2089
2023-02-17 00:35:10:547,-0.690531,1.51105,-9.6821,-8.37162,-2.33085,-64.145
2023-02-17 00:35:10:557,-0.639568,1.55643,-9.74617,-8.39227,-2.33449,-64.0931
2023-02-17 00:35:10:567,-0.555119,1.57179,-9.77675,-8.4092,-2.33956,-64.0457
2023-02-17 00:35:10:577,-0.489709,1.60369,-9.79073,-8.42498,-2.34802,-64.0038
2023-02-17 00:35:10:587,-0.465835,1.62177,-9.76633,-8.43982,-2.36202,-63.9626
2023-02-17 00:35:10:597,-0.463075,1.64198,-9.73521,-8.45082,-2.37799,-63.9301
2023-02-17 00:35:10:607,-0.472187,1.66117,-9.71095,-8.46529,-2.39362,-63.9029
2023-02-17 00:35:10:617,-0.486989,1.66116,-9.7,-8.47731,-2.41413,-63.8867
2023-02-17 00:35:10:627,-0.494333,1.67621,-9.70154,-8.48823,-2.43215,-63.8784
2023-02-17 00:35:10:637,-0.467695,1.66978,-9.72727,-8.50287,-2.44842,-63.8739
2023-02-17 00:35:10:647,-0.404075,1.65939,-9.75791,-8.50703,-2.46277,-63.8768
2023-02-17 00:35:10:657,-0.346964,1.66184,-9.77581,-8.50752,-2.478,-63.8824
2023-02-17 00:35:10:667,-0.316678,1.67004,-9.78501,-8.50055,-2.49596,-63.8913
2023-02-17 00:35:10:677,-0.306943,1.63261,-9.7837,-8.48884,-2.51564,-63.8975
2023-02-17 00:35:10:687,-0.324336,1.60145,-9.76948,-8.47176,-2.54156,-63.9016
2023-02-17 00:35:10:697,-0.336642,1.5675,-9.74273,-8.4466,-2.56921,-63.9087
2023-02-17 00:35:10:707,-0.368272,1.52632,-9.72621,-8.41384,-2.59892,-63.9159
2023-02-17 00:35:10:717,-0.391776,1.49726,-9.70958,-8.37892,-2.63089,-63.9205
2023-02-17 00:35:10:727,-0.390399,1.45226,-9.70271,-8.34245,-2.66157,-63.9283
2023-02-17 00:35:10:737,-0.369669,1.40077,-9.71639,-8.30451,-2.69586,-63.9314
2023-02-17 00:35:10:747,-0.37617,1.3924,-9.70005,-8.26316,-2.72809,-63.9353
2023-02-17 00:35:10:757,-0.381334,1.36545,-9.68168,-8.22251,-2.76246,-63.9335
2023-02-17 00:35:10:767,-0.411052,1.33659,-9.68967,-8.17914,-2.80203,-63.924
2023-02-17 00:35:10:777,-0.458712,1.31247,-9.70585,-8.13354,-2.83842,-63.9121
2023-02-17 00:35:10:787,-0.477098,1.28749,-9.71137,-8.08453,-2.86872,-63.8981
2023-02-17 00:35:10:797,-0.508577,1.25469,-9.71096,-8.03633,-2.89554,-63.8792
2023-02-17 00:35:10:807,-0.542912,1.24492,-9.69602,-7.99117,-2.92181,-63.8541
2023-02-17 00:35:10:817,-0.577932,1.21253,-9.67286,-7.9436,-2.9476,-63.8285
2023-02-17 00:35:10:827,-0.633177,1.21319,-9.61645,-7.89824,-2.96672,-63.8019
2023-02-17 00:35:10:837,-0.677862,1.22337,-9.60394,-7.86076,-2.98608,-63.7771
2023-02-17 00:35:10:847,-0.711892,1.23068,-9.62034,-7.82774,-2.9992,-63.7568
2023-02-17 00:35:10:857,-0.734581,1.27309,-9.66182,-7.79891,-3.00356,-63.74
2023-02-17 00:35:10:867,-0.726149,1.3151,-9.66122,-7.77294,-3.00648,-63.7325
2023-02-17 00:35:10:877,-0.689843,1.35549,-9.65515,-7.74824,-3.00336,-63.7322
2023-02-17 00:35:10:887,-0.649478,1.39799,-9.69773,-7.72614,-2.99698,-63.7325
2023-02-17 00:35:10:897,-0.600002,1.42528,-9.72671,-7.69875,-2.99217,-63.7328
2023-02-17 00:35:10:907,-0.542745,1.4211,-9.73159,-7.66501,-2.98644,-63.7353
2023-02-17 00:35:10:917,-0.512868,1.42786,-9.70921,-7.62852,-2.97853,-63.7344
2023-02-17 00:35:10:927,-0.52327,1.40345,-9.69356,-7.58672,-2.97155,-63.7312
2023-02-17 00:35:10:937,-0.522784,1.3912,-9.68149,-7.54397,-2.97002,-63.7267
2023-02-17 00:35:10:947,-0.515202,1.37735,-9.65796,-7.50055,-2.96518,-63.7193
2023-02-17 00:35:10:957,-0.509998,1.36774,-9.64669,-7.45757,-2.96435,-63.7128
2023-02-17 00:35:10:967,-0.539225,1.34098,-9.65274,-7.41078,-2.96496,-63.7034
2023-02-17 00:35:10:977,-0.557896,1.33774,-9.65667,-7.36335,-2.9638,-63.6952
2023-02-17 00:35:10:987,-0.555265,1.34094,-9.65768,-7.31861,-2.96062,-63.688
2023-02-17 00:35:10:997,-0.578117,1.35173,-9.67106,-7.27304,-2.95943,-63.6832
2023-02-17 00:35:11:7,-0.597563,1.34076,-9.6678,-7.22625,-2.9589,-63.6794
2023-02-17 00:35:11:17,-0.613661,1.33042,-9.65605,-7.17969,-2.95542,-63.6775
2023-02-17 00:35:11:27,-0.637343,1.33787,-9.67629,-7.133,-2.95307,-63.6787
2023-02-17 00:35:11:37,-0.645332,1.33558,-9.68164,-7.08981,-2.94729,-63.6855
2023-02-17 00:35:11:47,-0.651749,1.32761,-9.66506,-7.04634,-2.94083,-63.6926
2023-02-17 00:35:11:57,-0.639548,1.31898,-9.64217,-7.00304,-2.93019,-63.702
2023-02-17 00:35:11:67,-0.625272,1.31249,-9.63142,-6.95608,-2.91799,-63.7106
2023-02-17 00:35:11:77,-0.615443,1.30371,-9.65833,-6.91495,-2.90421,-63.7179
2023-02-17 00:35:11:87,-0.62919,1.28983,-9.65796,-6.869,-2.88993,-63.7256
2023-02-17 00:35:11:97,-0.644603,1.27615,-9.63274,-6.82362,-2.8766,-63.7318
2023-02-17 00:35:11:107,-0.667789,1.24918,-9.61596,-6.78014,-2.86078,-63.7393
2023-02-17 00:35:11:117,-0.691058,1.23672,-9.61858,-6.73709,-2.84085,-63.7513
2023-02-17 00:35:11:127,-0.691988,1.22835,-9.65351,-6.6912,-2.81783,-63.7703
2023-02-17 00:35:11:137,-0.662694,1.23845,-9.69761,-6.65214,-2.78883,-63.788
2023-02-17 00:35:11:147,-0.62752,1.24792,-9.71912,-6.61411,-2.75355,-63.8039
2023-02-17 00:35:11:157,-0.581249,1.23682,-9.74616,-6.57374,-2.71238,-63.8216
2023-02-17 00:35:11:167,-0.510484,1.23917,-9.76826,-6.52975,-2.67126,-63.8418
2023-02-17 00:35:11:177,-0.444395,1.22359,-9.79574,-6.48545,-2.6251,-63.8565
2023-02-17 00:35:11:187,-0.388277,1.18155,-9.83392,-6.43131,-2.58049,-63.8613
2023-02-17 00:35:11:197,-0.367847,1.14566,-9.85336,-6.36556,-2.53249,-63.8618
2023-02-17 00:35:11:207,-0.362374,1.10292,-9.83356,-6.29734,-2.48472,-63.8543
2023-02-17 00:35:11:217,-0.325905,1.05402,-9.79369,-6.22629,-2.43231,-63.8358
2023-02-17 00:35:11:227,-0.312651,1.02304,-9.74644,-6.15773,-2.37924,-63.8048
2023-02-17 00:35:11:237,-0.286899,0.985915,-9.6979,-6.0902,-2.32279,-63.7671
2023-02-17 00:35:11:247,-0.268997,0.964745,-9.68841,-6.02329,-2.26301,-63.7162
2023-02-17 00:35:11:257,-0.273197,0.960849,-9.71577,-5.96227,-2.20512,-63.6619
2023-02-17 00:35:11:267,-0.25041,0.966296,-9.72813,-5.90555,-2.14217,-63.599
2023-02-17 00:35:11:277,-0.228149,0.965978,-9.69777,-5.85066,-2.08535,-63.534
2023-02-17 00:35:11:287,-0.219639,0.954126,-9.65519,-5.79907,-2.03838,-63.4656
2023-02-17 00:35:11:297,-0.260531,0.951977,-9.62951,-5.75267,-2.00124,-63.391
2023-02-17 00:35:11:307,-0.328811,0.938258,-9.59683,-5.7106,-1.97138,-63.3184
2023-02-17 00:35:11:317,-0.394258,0.927786,-9.54781,-5.67342,-1.94638,-63.2508
2023-02-17 00:35:11:327,-0.486061,0.941756,-9.51828,-5.64416,-1.92495,-63.1931
2023-02-17 00:35:11:337,-0.539365,0.970237,-9.50244,-5.62586,-1.90545,-63.1487
2023-02-17 00:35:11:347,-0.52947,0.996209,-9.52426,-5.61932,-1.88681,-63.1176
2023-02-17 00:35:11:357,-0.503726,1.01895,-9.59176,-5.62071,-1.86584,-63.0971
2023-02-17 00:35:11:367,-0.493151,1.06727,-9.67668,-5.62871,-1.84832,-63.09
2023-02-17 00:35:11:377,-0.465551,1.11859,-9.70839,-5.63834,-1.8287,-63.0942
2023-02-17 00:35:11:387,-0.431542,1.16336,-9.72643,-5.64707,-1.81064,-63.1068
2023-02-17 00:35:11:397,-0.413417,1.19469,-9.76142,-5.65378,-1.79494,-63.1346
2023-02-17 00:35:11:407,-0.399612,1.19126,-9.79036,-5.6515,-1.77405,-63.1737
2023-02-17 00:35:11:417,-0.344532,1.18279,-9.81053,-5.64224,-1.75508,-63.22
2023-02-17 00:35:11:427,-0.275957,1.16754,-9.82756,-5.62789,-1.73913,-63.276
2023-02-17 00:35:11:437,-0.214177,1.12264,-9.86344,-5.60108,-1.72353,-63.3361
2023-02-17 00:35:11:447,-0.155066,1.0881,-9.9267,-5.56656,-1.71297,-63.3985
2023-02-17 00:35:11:457,-0.0742812,1.0204,-9.95691,-5.51885,-1.70472,-63.4608
2023-02-17 00:35:11:467,-0.00552694,0.958709,-9.93443,-5.46547,-1.70504,-63.511
2023-02-17 00:35:11:477,0.00899459,0.889707,-9.92149,-5.40602,-1.71643,-63.5558
2023-02-17 00:35:11:487,-0.0266535,0.836921,-9.90309,-5.34036,-1.73411,-63.5952
2023-02-17 00:35:11:497,-0.0737176,0.787373,-9.87004,-5.27064,-1.75279,-63.6313
2023-02-17 00:35:11:507,-0.121931,0.744906,-9.81293,-5.20045,-1.77356,-63.6643
2023-02-17 00:35:11:517,-0.156707,0.697842,-9.7909,-5.12985,-1.79274,-63.6922
2023-02-17 00:35:11:527,-0.212309,0.677792,-9.75694,-5.06047,-1.81252,-63.7171
2023-02-17 00:35:11:537,-0.235007,0.660439,-9.71941,-4.99119,-1.83046,-63.7413
2023-02-17 00:35:11:547,-0.247572,0.638155,-9.70765,-4.92413,-1.84496,-63.761
2023-02-17 00:35:11:557,-0.251174,0.642924,-9.71283,-4.85828,-1.85677,-63.7797
2023-02-17 00:35:11:567,-0.256394,0.639548,-9.71415,-4.79781,-1.8644,-63.796
2023-02-17 00:35:11:577,-0.259838,0.634805,-9.69437,-4.73561,-1.87208,-63.8099
2023-02-17 00:35:11:587,-0.27162,0.62872,-9.67263,-4.679,-1.87873,-63.8249
2023-02-17 00:35:11:597,-0.262791,0.642993,-9.662,-4.62298,-1.88499,-63.8433
2023-02-17 00:35:11:607,-0.253028,0.665473,-9.66887,-4.57048,-1.89239,-63.8604
2023-02-17 00:35:11:617,-0.256537,0.666785,-9.68604,-4.51803,-1.89951,-63.8778
2023-02-17 00:35:11:627,-0.266562,0.669216,-9.72336,-4.46361,-1.9122,-63.8955
2023-02-17 00:35:11:637,-0.252109,0.656434,-9.7491,-4.40732,-1.91818,-63.9133
2023-02-17 00:35:11:647,-0.239379,0.631863,-9.75503,-4.34901,-1.92689,-63.9259
2023-02-17 00:35:11:657,-0.240261,0.607184,-9.73185,-4.28785,-1.92815,-63.936
2023-02-17 00:35:11:667,-0.244819,0.580915,-9.70741,-4.22807,-1.93192,-63.9435
2023-02-17 00:35:11:677,-0.245268,0.563865,-9.6841,-4.17186,-1.93487,-63.9509
2023-02-17 00:35:11:687,-0.242135,0.53644,-9.67474,-4.11249,-1.93127,-63.9532
2023-02-17 00:35:11:697,-0.231842,0.500862,-9.67281,-4.05443,-1.92719,-63.9551
2023-02-17 00:35:11:707,-0.244985,0.484295,-9.65798,-3.999,-1.92302,-63.9514
2023-02-17 00:35:11:717,-0.261192,0.481831,-9.644,-3.94898,-1.91341,-63.9444
2023-02-17 00:35:11:727,-0.276205,0.500486,-9.64604,-3.90081,-1.8999,-63.9343
2023-02-17 00:35:11:737,-0.277794,0.502283,-9.63111,-3.85936,-1.88464,-63.9249
2023-02-17 00:35:11:747,-0.263944,0.493277,-9.62528,-3.82416,-1.86827,-63.9105
2023-02-17 00:35:11:757,-0.250147,0.495578,-9.65044,-3.79271,-1.84962,-63.8962
2023-02-17 00:35:11:767,-0.244625,0.494021,-9.64432,-3.76838,-1.82381,-63.8768
2023-02-17 00:35:11:777,-0.230969,0.49272,-9.62628,-3.74781,-1.8028,-63.856
2023-02-17 00:35:11:787,-0.222873,0.505448,-9.62951,-3.73287,-1.78133,-63.8355
2023-02-17 00:35:11:797,-0.205519,0.540594,-9.65722,-3.72668,-1.76167,-63.8155
2023-02-17 00:35:11:807,-0.206742,0.561944,-9.67475,-3.72098,-1.74379,-63.7911
2023-02-17 00:35:11:817,-0.205233,0.60411,-9.69649,-3.72258,-1.72637,-63.7698
2023-02-17 00:35:11:827,-0.207658,0.632074,-9.75025,-3.72668,-1.71241,-63.7485
2023-02-17 00:35:11:837,-0.195218,0.655918,-9.77769,-3.73133,-1.7054,-63.724
2023-02-17 00:35:11:847,-0.194293,0.667167,-9.78465,-3.73546,-1.69981,-63.6977
2023-02-17 00:35:11:857,-0.200294,0.674607,-9.80743,-3.73657,-1.69089,-63.6727
2023-02-17 00:35:11:867,-0.21854,0.688762,-9.81583,-3.7336,-1.68505,-63.6529
2023-02-17 00:35:11:877,-0.215437,0.666794,-9.81635,-3.72889,-1.67865,-63.6306
2023-02-17 00:35:11:887,-0.243133,0.639327,-9.81073,-3.7184,-1.66634,-63.6062
2023-02-17 00:35:11:897,-0.257299,0.619785,-9.79659,-3.71239,-1.6531,-63.5807
2023-02-17 00:35:11:907,-0.253753,0.594085,-9.7513,-3.7021,-1.63836,-63.5571
2023-02-17 00:35:11:917,-0.240375,0.560084,-9.72189,-3.6919,-1.61891,-63.5318
2023-02-17 00:35:11:927,-0.236509,0.527488,-9.74937,-3.68468,-1.59865,-63.5047
2023-02-17 00:35:11:937,-0.221543,0.502093,-9.74793,-3.67471,-1.57526,-63.4778
2023-02-17 00:35:11:947,-0.182121,0.498992,-9.69444,-3.66764,-1.55419,-63.4523
2023-02-17 00:35:11:957,-0.162617,0.468173,-9.63792,-3.66351,-1.53296,-63.4225
2023-02-17 00:35:11:967,-0.18316,0.469177,-9.64178,-3.66898,-1.51333,-63.3983
2023-02-17 00:35:11:977,-0.169189,0.466906,-9.62519,-3.67968,-1.49175,-63.3777
2023-02-17 00:35:11:987,-0.167217,0.479442,-9.65279,-3.69952,-1.4739,-63.3564
2023-02-17 00:35:11:997,-0.133307,0.537893,-9.68435,-3.72478,-1.45313,-63.3396
2023-02-17 00:35:12:7,-0.0696906,0.536874,-9.69588,-3.74883,-1.43374,-63.3252
2023-02-17 00:35:12:17,-0.0369538,0.560842,-9.70844,-3.78026,-1.42418,-63.3066
2023-02-17 00:35:12:27,-0.0417839,0.60326,-9.7276,-3.81716,-1.42424,-63.2903
2023-02-17 00:35:12:37,-0.0311262,0.622601,-9.70565,-3.85454,-1.42905,-63.275
2023-02-17 00:35:12:47,-0.0593935,0.678869,-9.69525,-3.89974,-1.43983,-63.2561
2023-02-17 00:35:12:57,-0.0939264,0.71802,-9.69914,-3.94762,-1.45689,-63.2433
2023-02-17 00:35:12:67,-0.123436,0.743669,-9.70935,-3.99945,-1.47673,-63.229
2023-02-17 00:35:12:77,-0.123137,0.792772,-9.70391,-4.05356,-1.49518,-63.2143
2023-02-17 00:35:12:87,-0.109131,0.840978,-9.65002,-4.11388,-1.51646,-63.1995
2023-02-17 00:35:12:97,-0.0999478,0.886031,-9.58817,-4.18205,-1.53837,-63.1786
2023-02-17 00:35:12:107,-0.0902693,0.988473,-9.52946,-4.26453,-1.56004,-63.1573
2023-02-17 00:35:12:117,-0.0893412,1.11284,-9.49504,-4.37021,-1.58285,-63.1366
2023-02-17 00:35:12:127,-0.0702368,1.2233,-9.57078,-4.49074,-1.60455,-63.1147
2023-02-17 00:35:12:137,-0.0697903,1.31095,-9.77469,-4.62322,-1.62835,-63.093
2023-02-17 00:35:12:147,-0.0614282,1.38586,-10.0192,-4.75358,-1.6559,-63.0611
2023-02-17 00:35:12:157,-0.119423,1.42239,-10.1748,-4.86954,-1.68272,-63.0279
2023-02-17 00:35:12:167,-0.184049,1.39945,-10.2338,-4.96426,-1.70337,-62.9856
2023-02-17 00:35:12:177,-0.215271,1.39321,-10.2413,-5.03298,-1.71697,-62.9361
2023-02-17 00:35:12:187,-0.255637,1.36554,-10.2299,-5.07889,-1.72344,-62.8852
2023-02-17 00:35:12:197,-0.271948,1.30806,-10.1781,-5.09637,-1.72619,-62.8273
2023-02-17 00:35:12:207,-0.271377,1.22,-10.0993,-5.09112,-1.72917,-62.7654
2023-02-17 00:35:12:217,-0.28315,1.12625,-10.0505,-5.05799,-1.73052,-62.699
2023-02-17 00:35:12:227,-0.311042,1.03833,-10.0139,-5.00577,-1.72771,-62.6324
2023-02-17 00:35:12:237,-0.323497,0.940446,-9.93078,-4.93666,-1.72778,-62.5632
2023-02-17 00:35:12:247,-0.312162,0.834391,-9.85684,-4.85546,-1.73056,-62.4922
2023-02-17 00:35:12:257,-0.301206,0.736676,-9.7736,-4.76396,-1.7356,-62.4205
2023-02-17 00:35:12:267,-0.289239,0.634262,-9.67607,-4.66568,-1.74591,-62.3474
2023-02-17 00:35:12:277,-0.28227,0.559079,-9.58008,-4.56547,-1.7625,-62.2781
2023-02-17 00:35:12:287,-0.28051,0.503199,-9.50848,-4.46862,-1.78237,-62.2111
2023-02-17 00:35:12:297,-0.306856,0.443611,-9.47853,-4.37828,-1.81398,-62.1448
2023-02-17 00:35:12:307,-0.348757,0.393596,-9.45381,-4.29556,-1.85292,-62.0855
2023-02-17 00:35:12:317,-0.404501,0.366859,-9.45651,-4.22727,-1.89223,-62.0275
2023-02-17 00:35:12:327,-0.470071,0.354601,-9.51314,-4.1645,-1.93126,-61.9753
2023-02-17 00:35:12:337,-0.485665,0.36998,-9.57661,-4.11437,-1.96904,-61.9304
2023-02-17 00:35:12:347,-0.497025,0.373252,-9.61919,-4.06539,-2.00473,-61.8911
2023-02-17 00:35:12:357,-0.504051,0.387801,-9.64475,-4.02176,-2.03481,-61.8593
2023-02-17 00:35:12:367,-0.480384,0.387903,-9.67414,-3.98084,-2.05799,-61.8317
2023-02-17 00:35:12:377,-0.466913,0.388123,-9.64661,-3.94191,-2.08087,-61.8087
2023-02-17 00:35:12:387,-0.46541,0.405949,-9.58073,-3.90688,-2.10316,-61.7845
2023-02-17 00:35:12:397,-0.471947,0.398053,-9.52381,-3.87914,-2.12686,-61.7667
2023-02-17 00:35:12:407,-0.489765,0.415434,-9.48272,-3.86108,-2.15054,-61.7494
2023-02-17 00:35:12:417,-0.509969,0.463635,-9.52099,-3.85565,-2.1766,-61.7348
2023-02-17 00:35:12:427,-0.533071,0.568446,-9.60932,-3.86114,-2.19995,-61.7317
2023-02-17 00:35:12:437,-0.529368,0.677317,-9.71347,-3.87177,-2.22183,-61.7355
2023-02-17 00:35:12:447,-0.527045,0.741985,-9.75813,-3.88544,-2.24627,-61.7483
2023-02-17 00:35:12:457,-0.544879,0.801829,-9.81424,-3.89841,-2.26724,-61.7656
2023-02-17 00:35:12:467,-0.538771,0.841983,-9.8365,-3.90826,-2.28612,-61.7875
2023-02-17 00:35:12:477,-0.521426,0.872945,-9.83554,-3.91559,-2.29647,-61.8079
2023-02-17 00:35:12:487,-0.530114,0.877067,-9.83165,-3.9151,-2.30019,-61.8253
2023-02-17 00:35:12:497,-0.521571,0.888452,-9.84202,-3.91811,-2.30408,-61.8485
2023-02-17 00:35:12:507,-0.486092,0.90121,-9.8733,-3.91654,-2.30419,-61.8674
2023-02-17 00:35:12:517,-0.470905,0.920067,-9.90301,-3.91131,-2.2992,-61.889
2023-02-17 00:35:12:527,-0.490266,0.923131,-9.91995,-3.89846,-2.29564,-61.9095
2023-02-17 00:35:12:537,-0.480871,0.911164,-9.9651,-3.87647,-2.28707,-61.9288
2023-02-17 00:35:12:547,-0.46052,0.929867,-10.0247,-3.84921,-2.27248,-61.9474
2023-02-17 00:35:12:557,-0.446022,0.916414,-10.0231,-3.81334,-2.25236,-61.9622
2023-02-17 00:35:12:567,-0.420094,0.877276,-9.98565,-3.76523,-2.23154,-61.9746
2023-02-17 00:35:12:577,-0.39535,0.829841,-9.94209,-3.71052,-2.21015,-61.9874
2023-02-17 00:35:12:587,-0.363469,0.775447,-9.91811,-3.64634,-2.18456,-61.9962
2023-02-17 00:35:12:597,-0.334654,0.725563,-9.88059,-3.57747,-2.16078,-62.0005
2023-02-17 00:35:12:607,-0.317915,0.684622,-9.82676,-3.50563,-2.13804,-62.0009
2023-02-17 00:35:12:617,-0.315889,0.627535,-9.79695,-3.42865,-2.11891,-61.9982
2023-02-17 00:35:12:627,-0.310818,0.572435,-9.76921,-3.34892,-2.1004,-61.9962
2023-02-17 00:35:12:637,-0.304392,0.528152,-9.73132,-3.27105,-2.08587,-61.9942
2023-02-17 00:35:12:647,-0.306252,0.482016,-9.70542,-3.19106,-2.07119,-61.9879
2023-02-17 00:35:12:657,-0.295786,0.443715,-9.69251,-3.11472,-2.06546,-61.9812
2023-02-17 00:35:12:667,-0.2726,0.401638,-9.69222,-3.03686,-2.06203,-61.9724
2023-02-17 00:35:12:677,-0.273209,0.368359,-9.68272,-2.96182,-2.05757,-61.9599
2023-02-17 00:35:12:687,-0.25725,0.323964,-9.66107,-2.88844,-2.05566,-61.9448
2023-02-17 00:35:12:697,-0.248596,0.289175,-9.63007,-2.81335,-2.0536,-61.9279
2023-02-17 00:35:12:707,-0.277606,0.26129,-9.59578,-2.74643,-2.05847,-61.9106
2023-02-17 00:35:12:717,-0.297983,0.240043,-9.58434,-2.68276,-2.06254,-61.8934
2023-02-17 00:35:12:727,-0.31362,0.241682,-9.62038,-2.62304,-2.06802,-61.8779
2023-02-17 00:35:12:737,-0.328,0.2206,-9.68026,-2.56783,-2.07761,-61.859
2023-02-17 00:35:12:747,-0.30266,0.20294,-9.71647,-2.51676,-2.08733,-61.8419
2023-02-17 00:35:12:757,-0.250157,0.19979,-9.74289,-2.46601,-2.10028,-61.8205
2023-02-17 00:35:12:767,-0.241768,0.211419,-9.77396,-2.4208,-2.11709,-61.7932
2023-02-17 00:35:12:777,-0.269813,0.224515,-9.74817,-2.3741,-2.14092,-61.7703
2023-02-17 00:35:12:787,-0.298029,0.22559,-9.69026,-2.33313,-2.16985,-61.7433
2023-02-17 00:35:12:797,-0.356524,0.217649,-9.64603,-2.29467,-2.2004,-61.7155
2023-02-17 00:35:12:807,-0.385206,0.20817,-9.60543,-2.26161,-2.23035,-61.6921
2023-02-17 00:35:12:817,-0.39141,0.198972,-9.57123,-2.24248,-2.25891,-61.6696
2023-02-17 00:35:12:827,-0.394759,0.197229,-9.5474,-2.23191,-2.29095,-61.6457
2023-02-17 00:35:12:837,-0.409565,0.206983,-9.54024,-2.23085,-2.3187,-61.6192
2023-02-17 00:35:12:847,-0.429638,0.233303,-9.54577,-2.24556,-2.34882,-61.5992
2023-02-17 00:35:12:857,-0.465263,0.2545,-9.5713,-2.26649,-2.38173,-61.5767
2023-02-17 00:35:12:867,-0.476895,0.292102,-9.61138,-2.29521,-2.41182,-61.559
2023-02-17 00:35:12:877,-0.485926,0.3244,-9.65357,-2.32876,-2.44077,-61.5411
2023-02-17 00:35:12:887,-0.509137,0.358502,-9.67428,-2.37122,-2.46512,-61.5222
2023-02-17 00:35:12:897,-0.513325,0.389297,-9.6936,-2.4119,-2.49087,-61.5053
2023-02-17 00:35:12:907,-0.504151,0.402853,-9.71365,-2.45584,-2.51098,-61.4914
2023-02-17 00:35:12:917,-0.514413,0.410049,-9.74717,-2.50102,-2.5293,-61.4769
2023-02-17 00:35:12:927,-0.545887,0.420087,-9.75331,-2.54907,-2.54774,-61.4582
2023-02-17 00:35:12:937,-0.543322,0.45316,-9.74814,-2.59418,-2.56362,-61.4443
2023-02-17 00:35:12:947,-0.557346,0.451342,-9.76495,-2.63844,-2.5765,-61.4327
2023-02-17 00:35:12:957,-0.580759,0.478169,-9.78732,-2.68201,-2.58264,-61.421
2023-02-17 00:35:12:967,-0.572847,0.48416,-9.81113,-2.72329,-2.58519,-61.4124
2023-02-17 00:35:12:977,-0.546531,0.462815,-9.81633,-2.75919,-2.58385,-61.4082
2023-02-17 00:35:12:987,-0.49457,0.447509,-9.82799,-2.79132,-2.57882,-61.3996
2023-02-17 00:35:12:997,-0.462294,0.449818,-9.80099,-2.82634,-2.5754,-61.3926
2023-02-17 00:35:13:7,-0.466426,0.441247,-9.77932,-2.85491,-2.57421,-61.3839
2023-02-17 00:35:13:17,-0.465308,0.434718,-9.74294,-2.88845,-2.57558,-61.3753
2023-02-17 00:35:13:27,-0.468839,0.437719,-9.71679,-2.9231,-2.5761,-61.3701
2023-02-17 00:35:13:37,-0.47369,0.444154,-9.6826,-2.96518,-2.57378,-61.366
2023-02-17 00:35:13:47,-0.468168,0.439464,-9.66745,-3.00919,-2.57431,-61.364
2023-02-17 00:35:13:57,-0.439529,0.458349,-9.69431,-3.05562,-2.57083,-61.3635
2023-02-17 00:35:13:67,-0.412929,0.48697,-9.71721,-3.10294,-2.56387,-61.3596
2023-02-17 00:35:13:77,-0.389841,0.519973,-9.73198,-3.15148,-2.55627,-61.3522
2023-02-17 00:35:13:87,-0.386193,0.55372,-9.74307,-3.20009,-2.5519,-61.3505
2023-02-17 00:35:13:97,-0.385797,0.593794,-9.76551,-3.25061,-2.54871,-61.3497
2023-02-17 00:35:13:107,-0.403019,0.618051,-9.76837,-3.30426,-2.55017,-61.3479
2023-02-17 00:35:13:117,-0.425254,0.615191,-9.77478,-3.35123,-2.55395,-61.3444
2023-02-17 00:35:13:127,-0.448582,0.630972,-9.78468,-3.39779,-2.55203,-61.3437
2023-02-17 00:35:13:137,-0.452497,0.653344,-9.7841,-3.44183,-2.5506,-61.3433
2023-02-17 00:35:13:147,-0.46126,0.667378,-9.79366,-3.48733,-2.54491,-61.3435
2023-02-17 00:35:13:157,-0.452425,0.703813,-9.83029,-3.53172,-2.54047,-61.3472
2023-02-17 00:35:13:167,-0.433723,0.741849,-9.86826,-3.57478,-2.53682,-61.3523
2023-02-17 00:35:13:177,-0.435077,0.782432,-9.89766,-3.6108,-2.5303,-61.3588
2023-02-17 00:35:13:187,-0.442611,0.820109,-9.91741,-3.63796,-2.52226,-61.3629
2023-02-17 00:35:13:197,-0.431546,0.82356,-9.90804,-3.66119,-2.51122,-61.3671
2023-02-17 00:35:13:207,-0.433966,0.810978,-9.88629,-3.675,-2.49862,-61.3683
2023-02-17 00:35:13:217,-0.431663,0.802493,-9.84293,-3.68516,-2.48327,-61.3732
2023-02-17 00:35:13:227,-0.435771,0.786089,-9.80279,-3.69179,-2.46872,-61.3799
2023-02-17 00:35:13:237,-0.448869,0.759559,-9.77998,-3.69849,-2.45599,-61.3866
2023-02-17 00:35:13:247,-0.428672,0.760074,-9.76681,-3.70185,-2.44561,-61.3957
2023-02-17 00:35:13:257,-0.417799,0.734423,-9.79812,-3.70107,-2.42862,-61.4026
2023-02-17 00:35:13:267,-0.395574,0.742035,-9.82104,-3.69935,-2.41452,-61.4131
2023-02-17 00:35:13:277,-0.382358,0.749878,-9.84378,-3.69564,-2.39968,-61.4241
2023-02-17 00:35:13:287,-0.362495,0.748984,-9.86702,-3.68663,-2.38316,-61.4373
2023-02-17 00:35:13:297,-0.330064,0.735792,-9.86421,-3.67506,-2.36766,-61.4463
2023-02-17 00:35:13:307,-0.320972,0.711601,-9.86208,-3.65431,-2.35455,-61.4566
2023-02-17 00:35:13:317,-0.313618,0.685271,-9.83662,-3.62828,-2.33938,-61.4681
2023-02-17 00:35:13:327,-0.297415,0.643945,-9.80088,-3.60291,-2.32802,-61.4782
2023-02-17 00:35:13:337,-0.296605,0.599681,-9.76024,-3.57526,-2.32158,-61.4846
2023-02-17 00:35:13:347,-0.312456,0.57113,-9.73023,-3.54717,-2.31076,-61.4885
2023-02-17 00:35:13:357,-0.308079,0.557785,-9.69344,-3.5195,-2.3024,-61.4936
2023-02-17 00:35:13:367,-0.302574,0.546943,-9.67559,-3.49551,-2.29195,-61.4965
2023-02-17 00:35:13:377,-0.317329,0.53601,-9.6792,-3.47268,-2.28386,-61.4999
2023-02-17 00:35:13:387,-0.304374,0.539072,-9.68739,-3.45495,-2.2724,-61.4989
2023-02-17 00:35:13:397,-0.296391,0.542079,-9.71443,-3.4364,-2.25978,-61.4983
2023-02-17 00:35:13:407,-0.280537,0.52538,-9.73886,-3.41913,-2.25002,-61.4934
2023-02-17 00:35:13:417,-0.267245,0.514288,-9.72222,-3.40206,-2.23918,-61.4897
2023-02-17 00:35:13:427,-0.278708,0.52191,-9.70055,-3.38662,-2.23208,-61.4848
2023-02-17 00:35:13:437,-0.292042,0.517568,-9.70128,-3.37594,-2.22658,-61.4804
2023-02-17 00:35:13:447,-0.298999,0.515669,-9.70826,-3.37201,-2.21999,-61.4726
2023-02-17 00:35:13:457,-0.311611,0.522443,-9.72326,-3.36721,-2.20996,-61.4634
2023-02-17 00:35:13:467,-0.294622,0.5265,-9.72808,-3.36041,-2.20319,-61.4559
2023-02-17 00:35:13:477,-0.240566,0.530646,-9.73443,-3.36263,-2.19768,-61.4488
2023-02-17 00:35:13:487,-0.246118,0.525394,-9.73897,-3.36459,-2.19201,-61.4371
2023-02-17 00:35:13:497,-0.263812,0.52266,-9.71865,-3.36668,-2.19516,-61.4244
2023-02-17 00:35:13:507,-0.287503,0.530751,-9.70732,-3.37121,-2.19961,-61.4089
2023-02-17 00:35:13:517,-0.308059,0.551341,-9.70786,-3.37683,-2.20485,-61.3927
2023-02-17 00:35:13:527,-0.310123,0.582513,-9.69931,-3.38747,-2.21244,-61.3773
2023-02-17 00:35:13:537,-0.335774,0.57993,-9.68929,-3.39962,-2.21744,-61.3637
2023-02-17 00:35:13:547,-0.331489,0.61116,-9.71473,-3.41572,-2.22325,-61.3523
2023-02-17 00:35:13:557,-0.307087,0.630154,-9.7383,-3.43341,-2.22852,-61.3409
2023-02-17 00:35:13:567,-0.315194,0.643347,-9.75816,-3.4542,-2.24064,-61.3235
2023-02-17 00:35:13:577,-0.370937,0.676169,-9.74093,-3.47543,-2.25213,-61.3127
2023-02-17 00:35:13:587,-0.424607,0.705808,-9.71998,-3.49777,-2.26304,-61.3065
2023-02-17 00:35:13:597,-0.455067,0.732674,-9.71622,-3.52158,-2.27236,-61.3044
2023-02-17 00:35:13:607,-0.468166,0.74688,-9.73474,-3.54697,-2.28362,-61.3061
2023-02-17 00:35:13:617,-0.492001,0.750543,-9.74693,-3.57083,-2.29028,-61.3135
2023-02-17 00:35:13:627,-0.526661,0.734956,-9.75947,-3.59137,-2.29061,-61.3266
2023-02-17 00:35:13:637,-0.512412,0.732556,-9.77065,-3.60503,-2.2835,-61.3419
2023-02-17 00:35:13:647,-0.462568,0.735049,-9.79236,-3.62143,-2.27062,-61.3593
2023-02-17 00:35:13:657,-0.407275,0.721226,-9.7996,-3.63646,-2.2522,-61.3759
2023-02-17 00:35:13:667,-0.369329,0.710595,-9.78793,-3.64447,-2.22899,-61.3952
2023-02-17 00:35:13:677,-0.336932,0.702038,-9.78709,-3.6526,-2.20923,-61.414
2023-02-17 00:35:13:687,-0.310666,0.678304,-9.77921,-3.65954,-2.19152,-61.4315
2023-02-17 00:35:13:697,-0.285731,0.669128,-9.76449,-3.67183,-2.17888,-61.4514
2023-02-17 00:35:13:707,-0.26524,0.691462,-9.78,-3.68179,-2.16828,-61.4676
2023-02-17 00:35:13:717,-0.252692,0.701793,-9.78237,-3.69099,-2.16085,-61.4845
2023-02-17 00:35:13:727,-0.275652,0.699161,-9.78974,-3.70324,-2.15513,-61.5022
2023-02-17 00:35:13:737,-0.287825,0.707347,-9.78747,-3.71258,-2.15695,-61.5194
2023-02-17 00:35:13:747,-0.277006,0.697475,-9.77926,-3.71752,-2.15754,-61.5344
2023-02-17 00:35:13:757,-0.294216,0.683524,-9.75766,-3.72345,-2.16111,-61.5475
2023-02-17 00:35:13:767,-0.293453,0.673321,-9.73944,-3.72708,-2.16326,-61.5582
2023-02-17 00:35:13:777,-0.279628,0.657433,-9.74283,-3.73111,-2.16608,-61.5644
2023-02-17 00:35:13:787,-0.275732,0.658116,-9.74823,-3.73442,-2.16761,-61.5673
2023-02-17 00:35:13:797,-0.273371,0.673066,-9.75288,-3.73657,-2.16947,-61.5635
2023-02-17 00:35:13:807,-0.294233,0.677775,-9.76486,-3.74091,-2.171,-61.5632
2023-02-17 00:35:13:817,-0.304811,0.676842,-9.78154,-3.74212,-2.17609,-61.5591
2023-02-17 00:35:13:827,-0.323876,0.679323,-9.78038,-3.74425,-2.1828,-61.553
2023-02-17 00:35:13:837,-0.349723,0.672677,-9.76847,-3.74436,-2.1867,-61.5447
2023-02-17 00:35:13:847,-0.36816,0.662324,-9.76856,-3.74403,-2.19169,-61.5395
2023-02-17 00:35:13:857,-0.38297,0.644799,-9.76336,-3.74536,-2.19729,-61.5347
2023-02-17 00:35:13:867,-0.388558,0.63226,-9.74684,-3.74389,-2.20069,-61.5262
2023-02-17 00:35:13:877,-0.397304,0.62446,-9.73933,-3.74225,-2.20435,-61.5214
2023-02-17 00:35:13:887,-0.385277,0.624095,-9.74465,-3.74133,-2.20854,-61.5168
2023-02-17 00:35:13:897,-0.37249,0.641603,-9.75201,-3.7416,-2.21554,-61.51
2023-02-17 00:35:13:907,-0.36404,0.642464,-9.76086,-3.74331,-2.22166,-61.5059
2023-02-17 00:35:13:917,-0.370357,0.657819,-9.76483,-3.74801,-2.23011,-61.4998
2023-02-17 00:35:13:927,-0.372331,0.669548,-9.78239,-3.75208,-2.24172,-61.496
2023-02-17 00:35:13:937,-0.384119,0.670611,-9.78885,-3.75137,-2.25179,-61.4963
2023-02-17 00:35:13:947,-0.39226,0.662683,-9.79781,-3.7527,-2.26461,-61.4946
2023-02-17 00:35:13:957,-0.393909,0.656103,-9.79816,-3.75244,-2.27541,-61.4886
2023-02-17 00:35:13:967,-0.382476,0.664452,-9.7666,-3.74946,-2.2835,-61.4843
2023-02-17 00:35:13:977,-0.378089,0.641185,-9.7589,-3.74523,-2.29098,-61.4772
2023-02-17 00:35:13:987,-0.372983,0.622289,-9.7354,-3.74445,-2.29621,-61.4687
2023-02-17 00:35:13:997,-0.360397,0.621615,-9.72003,-3.74121,-2.30153,-61.4588
2023-02-17 00:35:14:7,-0.363425,0.607767,-9.70645,-3.73852,-2.30798,-61.4488
2023-02-17 00:35:14:17,-0.374724,0.610306,-9.70919,-3.73516,-2.3168,-61.4365
2023-02-17 00:35:14:27,-0.373445,0.629411,-9.72674,-3.7372,-2.32347,-61.4214
2023-02-17 00:35:14:37,-0.376712,0.635883,-9.76066,-3.73994,-2.33109,-61.407
2023-02-17 00:35:14:47,-0.392833,0.636957,-9.76537,-3.74265,-2.34256,-61.3937
2023-02-17 00:35:14:57,-0.400523,0.633504,-9.7863,-3.74511,-2.35087,-61.3786
2023-02-17 00:35:14:67,-0.405894,0.630861,-9.79604,-3.74682,-2.36108,-61.3626
2023-02-17 00:35:14:77,-0.410806,0.626582,-9.77934,-3.74368,-2.37425,-61.3498
2023-02-17 00:35:14:87,-0.417347,0.617287,-9.75763,-3.73989,-2.38617,-61.3361
2023-02-17 00:35:14:97,-0.438454,0.623953,-9.72426,-3.73935,-2.3991,-61.3264
2023-02-17 00:35:14:107,-0.439295,0.60561,-9.72221,-3.73894,-2.41533,-61.317
2023-02-17 00:35:14:117,-0.456249,0.610292,-9.72692,-3.74034,-2.43075,-61.3087
2023-02-17 00:35:14:127,-0.465235,0.613614,-9.72205,-3.73958,-2.44314,-61.3006
2023-02-17 00:35:14:137,-0.452417,0.61817,-9.73495,-3.74474,-2.45629,-61.2917
2023-02-17 00:35:14:147,-0.446575,0.640649,-9.7417,-3.75022,-2.46583,-61.285
2023-02-17 00:35:14:157,-0.467332,0.644419,-9.74028,-3.75478,-2.47468,-61.2791
2023-02-17 00:35:14:167,-0.484837,0.635789,-9.77625,-3.75733,-2.48394,-61.2731
2023-02-17 00:35:14:177,-0.47614,0.637972,-9.8055,-3.75881,-2.48946,-61.2691
2023-02-17 00:35:14:187,-0.414827,0.635445,-9.81497,-3.75635,-2.49319,-61.2626
2023-02-17 00:35:14:197,-0.357398,0.616516,-9.79867,-3.75315,-2.50053,-61.2522
2023-02-17 00:35:14:207,-0.350393,0.603878,-9.76419,-3.7475,-2.5113,-61.2375
2023-02-17 00:35:14:217,-0.374728,0.597306,-9.72089,-3.74217,-2.52834,-61.226
2023-02-17 00:35:14:227,-0.435764,0.578825,-9.6812,-3.74214,-2.5447,-61.2157
2023-02-17 00:35:14:237,-0.48721,0.592561,-9.66491,-3.74624,-2.56376,-61.2072
2023-02-17 00:35:14:247,-0.521726,0.594746,-9.67609,-3.75432,-2.5806,-61.2036
2023-02-17 00:35:14:257,-0.523957,0.60492,-9.69789,-3.76448,-2.59797,-61.2019
2023-02-17 00:35:14:267,-0.490498,0.630658,-9.71971,-3.779,-2.61165,-61.2025
2023-02-17 00:35:14:277,-0.463825,0.644675,-9.73345,-3.79718,-2.62474,-61.1992
2023-02-17 00:35:14:287,-0.452822,0.653304,-9.73841,-3.81484,-2.63168,-61.1935
2023-02-17 00:35:14:297,-0.450322,0.679045,-9.72647,-3.83296,-2.6366,-61.1877
2023-02-17 00:35:14:307,-0.450914,0.681282,-9.71788,-3.84846,-2.63962,-61.1791
2023-02-17 00:35:14:317,-0.467973,0.700297,-9.71454,-3.8667,-2.64453,-61.1725
2023-02-17 00:35:14:327,-0.484507,0.705079,-9.73777,-3.88218,-2.64425,-61.166
2023-02-17 00:35:14:337,-0.48344,0.720823,-9.75506,-3.89791,-2.6412,-61.1593
2023-02-17 00:35:14:347,-0.482127,0.728905,-9.76704,-3.91523,-2.63612,-61.1567
2023-02-17 00:35:14:357,-0.495808,0.741878,-9.77858,-3.92646,-2.6316,-61.1505
2023-02-17 00:35:14:367,-0.47913,0.745628,-9.79265,-3.9359,-2.62905,-61.1471
2023-02-17 00:35:14:377,-0.4622,0.746558,-9.78633,-3.94252,-2.6264,-61.1466
2023-02-17 00:35:14:387,-0.463901,0.738239,-9.77353,-3.94991,-2.62408,-61.1479
2023-02-17 00:35:14:397,-0.47103,0.713579,-9.76928,-3.95562,-2.61838,-61.1515
2023-02-17 00:35:14:407,-0.469696,0.699033,-9.77449,-3.95672,-2.61402,-61.1577
2023-02-17 00:35:14:417,-0.448191,0.694544,-9.78516,-3.95811,-2.61423,-61.1664
2023-02-17 00:35:14:427,-0.4205,0.68765,-9.7769,-3.9567,-2.61372,-61.1769
2023-02-17 00:35:14:437,-0.373285,0.681939,-9.7927,-3.95614,-2.61178,-61.1863
2023-02-17 00:35:14:447,-0.360794,0.682456,-9.77765,-3.95826,-2.61252,-61.1908
2023-02-17 00:35:14:457,-0.364992,0.67713,-9.75064,-3.95798,-2.61687,-61.1941
2023-02-17 00:35:14:467,-0.386062,0.683253,-9.74607,-3.96037,-2.62368,-61.1957
2023-02-17 00:35:14:477,-0.400353,0.680215,-9.73365,-3.96369,-2.62988,-61.1981
2023-02-17 00:35:14:487,-0.41338,0.677068,-9.71467,-3.96595,-2.63489,-61.1976
2023-02-17 00:35:14:497,-0.409196,0.674743,-9.71543,-3.97213,-2.63781,-61.1978
2023-02-17 00:35:14:507,-0.397476,0.667455,-9.71455,-3.98306,-2.64421,-61.1956
2023-02-17 00:35:14:517,-0.399167,0.66858,-9.72444,-3.99324,-2.64256,-61.1871
2023-02-17 00:35:14:527,-0.410546,0.677021,-9.71121,-4.00141,-2.64156,-61.1762
2023-02-17 00:35:14:537,-0.428519,0.687527,-9.73048,-4.01127,-2.63891,-61.1667
2023-02-17 00:35:14:547,-0.426982,0.701071,-9.76123,-4.02067,-2.6381,-61.1578
2023-02-17 00:35:14:557,-0.419732,0.728442,-9.76851,-4.03051,-2.63394,-61.1492
2023-02-17 00:35:14:567,-0.425237,0.733547,-9.80289,-4.03857,-2.63145,-61.1351
2023-02-17 00:35:14:577,-0.442525,0.740559,-9.80753,-4.04349,-2.63147,-61.1259
2023-02-17 00:35:14:587,-0.446574,0.747222,-9.80517,-4.04419,-2.63026,-61.1196
2023-02-17 00:35:14:597,-0.433901,0.730256,-9.8021,-4.04257,-2.63004,-61.1172
2023-02-17 00:35:14:607,-0.426367,0.700235,-9.78734,-4.03693,-2.63132,-61.1131
2023-02-17 00:35:14:617,-0.432021,0.690699,-9.7555,-4.02926,-2.63034,-61.1106
2023-02-17 00:35:14:627,-0.429781,0.689254,-9.72509,-4.02691,-2.63316,-61.1108
2023-02-17 00:35:14:637,-0.419993,0.680524,-9.71387,-4.02501,-2.63627,-61.1069
2023-02-17 00:35:14:647,-0.422848,0.677092,-9.71155,-4.02456,-2.64075,-61.105
2023-02-17 00:35:14:657,-0.410873,0.672809,-9.73754,-4.02848,-2.6485,-61.1022
2023-02-17 00:35:14:667,-0.40175,0.676782,-9.74195,-4.03093,-2.65486,-61.098
2023-02-17 00:35:14:677,-0.413392,0.696413,-9.73333,-4.03326,-2.66103,-61.0929
2023-02-17 00:35:14:687,-0.408965,0.685598,-9.75313,-4.03615,-2.66679,-61.0896
2023-02-17 00:35:14:697,-0.402287,0.689721,-9.74892,-4.0411,-2.66817,-61.0807
2023-02-17 00:35:14:707,-0.404205,0.706507,-9.74427,-4.046,-2.66958,-61.0721
2023-02-17 00:35:14:717,-0.416434,0.697465,-9.73079,-4.0506,-2.67707,-61.0606
2023-02-17 00:35:14:727,-0.430869,0.701301,-9.73203,-4.05343,-2.68175,-61.0479
2023-02-17 00:35:14:737,-0.447255,0.712529,-9.73095,-4.058,-2.68606,-61.0392
2023-02-17 00:35:14:747,-0.46163,0.701651,-9.72628,-4.06151,-2.68859,-61.032
2023-02-17 00:35:14:757,-0.475662,0.693625,-9.71611,-4.06897,-2.69144,-61.025
2023-02-17 00:35:14:767,-0.488731,0.702222,-9.7032,-4.0764,-2.6932,-61.0196
2023-02-17 00:35:14:777,-0.479867,0.709815,-9.71672,-4.08367,-2.69771,-61.0188
2023-02-17 00:35:14:787,-0.479654,0.73351,-9.72155,-4.09314,-2.70222,-61.0188
2023-02-17 00:35:14:797,-0.468747,0.735487,-9.73619,-4.10027,-2.70346,-61.0209
2023-02-17 00:35:14:807,-0.473908,0.740481,-9.73276,-4.11013,-2.71057,-61.0249
2023-02-17 00:35:14:817,-0.463793,0.731667,-9.73225,-4.11846,-2.71665,-61.0301
2023-02-17 00:35:14:827,-0.45548,0.730737,-9.72917,-4.12616,-2.72325,-61.0348
2023-02-17 00:35:14:837,-0.470007,0.717367,-9.73577,-4.13899,-2.7332,-61.045
2023-02-17 00:35:14:847,-0.484134,0.729813,-9.73276,-4.1538,-2.74217,-61.054
2023-02-17 00:35:14:857,-0.484934,0.744421,-9.73047,-4.16945,-2.75049,-61.0675
2023-02-17 00:35:14:867,-0.453105,0.734329,-9.73132,-4.18364,-2.75902,-61.0775
2023-02-17 00:35:14:877,-0.43486,0.730292,-9.72597,-4.19983,-2.76515,-61.0845
2023-02-17 00:35:14:887,-0.446978,0.740235,-9.72484,-4.21575,-2.76834,-61.0877
2023-02-17 00:35:14:897,-0.455049,0.751484,-9.75176,-4.22759,-2.77214,-61.0897
2023-02-17 00:35:14:907,-0.48343,0.783899,-9.78872,-4.2438,-2.77687,-61.0942
2023-02-17 00:35:14:917,-0.496659,0.811032,-9.80365,-4.25333,-2.78053,-61.1047
2023-02-17 00:35:14:927,-0.496083,0.814959,-9.80911,-4.25605,-2.78624,-61.1159
2023-02-17 00:35:14:937,-0.525092,0.818519,-9.79183,-4.26123,-2.79288,-61.1262
2023-02-17 00:35:14:947,-0.550485,0.805877,-9.76683,-4.26367,-2.79816,-61.1419
2023-02-17 00:35:14:957,-0.551,0.783569,-9.79042,-4.2609,-2.80105,-61.1656
2023-02-17 00:35:14:967,-0.520802,0.777153,-9.81261,-4.25415,-2.79926,-61.1923
2023-02-17 00:35:14:977,-0.465565,0.760145,-9.79678,-4.24388,-2.79726,-61.2204
2023-02-17 00:35:14:987,-0.405059,0.739399,-9.7775,-4.23593,-2.79883,-61.2443
2023-02-17 00:35:14:997,-0.367571,0.721684,-9.75857,-4.22197,-2.80811,-61.264
2023-02-17 00:35:15:7,-0.373373,0.724106,-9.7354,-4.21321,-2.82375,-61.2815
2023-02-17 00:35:15:17,-0.398036,0.713078,-9.70838,-4.20669,-2.8391,-61.2994
2023-02-17 00:35:15:27,-0.441621,0.735743,-9.68832,-4.20243,-2.85726,-61.3164
2023-02-17 00:35:15:37,-0.461222,0.7372,-9.7162,-4.20021,-2.87287,-61.3355
2023-02-17 00:35:15:47,-0.460359,0.746298,-9.72186,-4.19965,-2.8845,-61.3498
2023-02-17 00:35:15:57,-0.433836,0.744507,-9.73747,-4.19986,-2.89357,-61.3622
2023-02-17 00:35:15:67,-0.41168,0.753018,-9.74732,-4.20339,-2.90241,-61.3667
2023-02-17 00:35:15:77,-0.414602,0.763234,-9.75269,-4.20862,-2.90678,-61.3656
2023-02-17 00:35:15:87,-0.428588,0.776871,-9.75132,-4.21338,-2.90487,-61.3629
2023-02-17 00:35:15:97,-0.455541,0.781292,-9.73816,-4.21533,-2.90445,-61.3548
2023-02-17 00:35:15:107,-0.486338,0.791373,-9.74965,-4.21848,-2.90217,-61.3446
2023-02-17 00:35:15:117,-0.51174,0.805481,-9.7583,-4.21763,-2.89961,-61.3356
2023-02-17 00:35:15:127,-0.514863,0.806531,-9.76696,-4.21259,-2.89488,-61.3288
2023-02-17 00:35:15:137,-0.529404,0.801775,-9.77969,-4.20425,-2.8881,-61.3225
2023-02-17 00:35:15:147,-0.52868,0.793555,-9.78566,-4.19544,-2.88324,-61.3194
2023-02-17 00:35:15:157,-0.528568,0.796648,-9.77935,-4.18014,-2.87809,-61.3194
2023-02-17 00:35:15:167,-0.512554,0.77981,-9.76004,-4.16616,-2.87449,-61.3199
2023-02-17 00:35:15:177,-0.519821,0.753168,-9.75325,-4.14957,-2.87474,-61.3261
2023-02-17 00:35:15:187,-0.53851,0.724169,-9.74941,-4.12978,-2.87244,-61.3371
2023-02-17 00:35:15:197,-0.53729,0.703127,-9.75395,-4.10907,-2.87619,-61.3524
2023-02-17 00:35:15:207,-0.523283,0.688632,-9.73147,-4.08847,-2.87902,-61.3711
2023-02-17 00:35:15:217,-0.49599,0.664794,-9.72619,-4.07078,-2.88231,-61.3897
2023-02-17 00:35:15:227,-0.454653,0.657708,-9.73243,-4.05243,-2.88434,-61.4129
2023-02-17 00:35:15:237,-0.425241,0.661078,-9.74428,-4.03788,-2.893,-61.437
2023-02-17 00:35:15:247,-0.424473,0.650319,-9.73603,-4.02236,-2.90214,-61.4547
2023-02-17 00:35:15:257,-0.431468,0.656135,-9.71976,-4.01295,-2.91128,-61.4702
2023-02-17 00:35:15:267,-0.438149,0.652497,-9.72398,-3.99954,-2.92272,-61.484
2023-02-17 00:35:15:277,-0.437149,0.640031,-9.69717,-3.99092,-2.93335,-61.496
2023-02-17 00:35:15:287,-0.44752,0.644076,-9.68134,-3.98187,-2.93985,-61.5061
2023-02-17 00:35:15:297,-0.446277,0.660008,-9.67437,-3.97953,-2.94186,-61.5113
2023-02-17 00:35:15:307,-0.454606,0.648816,-9.68997,-3.97813,-2.94342,-61.5139
2023-02-17 00:35:15:317,-0.470874,0.656368,-9.6977,-3.97936,-2.94019,-61.51
2023-02-17 00:35:15:327,-0.481339,0.678538,-9.70233,-3.98282,-2.93456,-61.5028
2023-02-17 00:35:15:337,-0.496944,0.694577,-9.7218,-3.98587,-2.93047,-61.4969
2023-02-17 00:35:15:347,-0.509233,0.694569,-9.75243,-3.98993,-2.92705,-61.4944
2023-02-17 00:35:15:357,-0.513208,0.709132,-9.76667,-3.99422,-2.92146,-61.4913
2023-02-17 00:35:15:367,-0.525555,0.725772,-9.79121,-3.99703,-2.9184,-61.4871
2023-02-17 00:35:15:377,-0.53181,0.737637,-9.8115,-3.9981,-2.91673,-61.4881
2023-02-17 00:35:15:387,-0.534518,0.736519,-9.83079,-3.99393,-2.9154,-61.4913
2023-02-17 00:35:15:397,-0.536613,0.733541,-9.82214,-3.98816,-2.91539,-61.4995
2023-02-17 00:35:15:407,-0.527775,0.739268,-9.80733,-3.97857,-2.9148,-61.5107
2023-02-17 00:35:15:417,-0.517473,0.731296,-9.80253,-3.96295,-2.91538,-61.5198
2023-02-17 00:35:15:427,-0.509865,0.702801,-9.77642,-3.94535,-2.91125,-61.53
2023-02-17 00:35:15:437,-0.512527,0.690955,-9.7433,-3.92702,-2.9103,-61.5401
2023-02-17 00:35:15:447,-0.498268,0.654443,-9.71664,-3.90567,-2.90744,-61.5498
2023-02-17 00:35:15:457,-0.478275,0.636427,-9.71497,-3.88933,-2.90079,-61.5561
2023-02-17 00:35:15:467,-0.465248,0.631114,-9.709,-3.87416,-2.89517,-61.5589
2023-02-17 00:35:15:477,-0.454312,0.633623,-9.69622,-3.86188,-2.88749,-61.5596
2023-02-17 00:35:15:487,-0.443922,0.636953,-9.71209,-3.8527,-2.87835,-61.5582
2023-02-17 00:35:15:497,-0.446335,0.639126,-9.71037,-3.84574,-2.87035,-61.551
2023-02-17 00:35:15:507,-0.449059,0.629129,-9.7176,-3.84031,-2.86217,-61.5431
2023-02-17 00:35:15:517,-0.458938,0.634288,-9.73391,-3.83462,-2.85285,-61.5362
2023-02-17 00:35:15:527,-0.470047,0.642026,-9.71793,-3.83657,-2.84572,-61.5262
2023-02-17 00:35:15:537,-0.469386,0.631881,-9.70198,-3.83355,-2.83691,-61.5121
2023-02-17 00:35:15:547,-0.473325,0.619453,-9.71243,-3.8343,-2.82875,-61.4948
2023-02-17 00:35:15:557,-0.477779,0.62685,-9.70941,-3.83556,-2.8193,-61.4825
2023-02-17 00:35:15:567,-0.46464,0.629463,-9.71483,-3.84185,-2.81224,-61.4718
2023-02-17 00:35:15:577,-0.469713,0.645501,-9.73499,-3.84704,-2.80222,-61.464
2023-02-17 00:35:15:587,-0.463688,0.667116,-9.73938,-3.85382,-2.79972,-61.456
2023-02-17 00:35:15:597,-0.465191,0.69005,-9.74882,-3.86071,-2.79959,-61.4485
2023-02-17 00:35:15:607,-0.496895,0.688122,-9.7527,-3.86516,-2.79913,-61.4457
2023-02-17 00:35:15:617,-0.504556,0.689221,-9.76564,-3.87164,-2.80071,-61.445
2023-02-17 00:35:15:627,-0.510605,0.690335,-9.76704,-3.87713,-2.80308,-61.4486
2023-02-17 00:35:15:637,-0.52122,0.691459,-9.75484,-3.87961,-2.80548,-61.4509
2023-02-17 00:35:15:647,-0.520654,0.67331,-9.74843,-3.88402,-2.80495,-61.4533
2023-02-17 00:35:15:657,-0.519936,0.663467,-9.73597,-3.88608,-2.80255,-61.4571
2023-02-17 00:35:15:667,-0.498321,0.639676,-9.71458,-3.88701,-2.79716,-61.4596
2023-02-17 00:35:15:677,-0.494077,0.637647,-9.69667,-3.88979,-2.78764,-61.4619
2023-02-17 00:35:15:687,-0.495608,0.639007,-9.7077,-3.89129,-2.7806,-61.4681
2023-02-17 00:35:15:697,-0.469348,0.641392,-9.73241,-3.89555,-2.76978,-61.4668
2023-02-17 00:35:15:707,-0.461022,0.646273,-9.74445,-3.89806,-2.75464,-61.4687
2023-02-17 00:35:15:717,-0.469715,0.656994,-9.74734,-3.90477,-2.74516,-61.4702
2023-02-17 00:35:15:727,-0.475461,0.663973,-9.74602,-3.90999,-2.73628,-61.469
2023-02-17 00:35:15:737,-0.497071,0.657124,-9.75931,-3.91353,-2.72449,-61.4719
2023-02-17 00:35:15:747,-0.506562,0.654613,-9.78338,-3.91758,-2.71231,-61.4776
2023-02-17 00:35:15:757,-0.475346,0.659305,-9.78957,-3.91821,-2.69779,-61.4828
2023-02-17 00:35:15:767,-0.433196,0.637313,-9.77481,-3.91602,-2.67982,-61.4906
2023-02-17 00:35:15:777,-0.402604,0.627051,-9.72468,-3.91773,-2.66757,-61.4934
2023-02-17 00:35:15:787,-0.434911,0.635865,-9.71302,-3.92294,-2.66317,-61.4984
2023-02-17 00:35:15:797,-0.486413,0.63421,-9.67499,-3.92846,-2.66392,-61.5057
2023-02-17 00:35:15:807,-0.530888,0.642284,-9.63447,-3.94044,-2.6621,-61.5155
2023-02-17 00:35:15:817,-0.563666,0.659003,-9.63786,-3.96103,-2.65412,-61.5324
2023-02-17 00:35:15:827,-0.531233,0.679112,-9.67206,-3.98179,-2.64795,-61.5543
2023-02-17 00:35:15:837,-0.50107,0.712995,-9.70833,-4.00504,-2.64221,-61.5833
2023-02-17 00:35:15:847,-0.455863,0.743905,-9.74711,-4.03163,-2.63513,-61.6105
2023-02-17 00:35:15:857,-0.44302,0.778884,-9.77558,-4.05836,-2.62599,-61.6379
2023-02-17 00:35:15:867,-0.423871,0.804382,-9.78638,-4.08047,-2.61841,-61.6647
2023-02-17 00:35:15:877,-0.419128,0.805351,-9.78529,-4.10234,-2.6091,-61.6969
2023-02-17 00:35:15:887,-0.41651,0.802979,-9.78117,-4.12099,-2.60053,-61.7253
2023-02-17 00:35:15:897,-0.405289,0.8077,-9.77263,-4.137,-2.5931,-61.7536
2023-02-17 00:35:15:907,-0.372971,0.789883,-9.77751,-4.14946,-2.58073,-61.7807
2023-02-17 00:35:15:917,-0.367445,0.780504,-9.76721,-4.15929,-2.57208,-61.8026
2023-02-17 00:35:15:927,-0.368313,0.768498,-9.7647,-4.17052,-2.56264,-61.8256
2023-02-17 00:35:15:937,-0.336104,0.765639,-9.77297,-4.18061,-2.55151,-61.8504
2023-02-17 00:35:15:947,-0.33445,0.761184,-9.75942,-4.18879,-2.54281,-61.8671
2023-02-17 00:35:15:957,-0.340444,0.760247,-9.75501,-4.19776,-2.53753,-61.8847
2023-02-17 00:35:15:967,-0.345379,0.75828,-9.76007,-4.20703,-2.53183,-61.8984
2023-02-17 00:35:15:977,-0.366923,0.749809,-9.76573,-4.21072,-2.52188,-61.906
2023-02-17 00:35:15:987,-0.372694,0.743373,-9.76905,-4.21234,-2.51502,-61.915
2023-02-17 00:35:15:997,-0.378578,0.72432,-9.76508,-4.21541,-2.5076,-61.9248
2023-02-17 00:35:16:7,-0.36126,0.721614,-9.75275,-4.21794,-2.49622,-61.9299
2023-02-17 00:35:16:17,-0.367352,0.710186,-9.73721,-4.21953,-2.48386,-61.9358
2023-02-17 00:35:16:27,-0.37292,0.705569,-9.72284,-4.22727,-2.47859,-61.9413
2023-02-17 00:35:16:37,-0.387318,0.720324,-9.72139,-4.2344,-2.47055,-61.949
2023-02-17 00:35:16:47,-0.403901,0.740148,-9.7179,-4.24451,-2.46418,-61.9541
2023-02-17 00:35:16:57,-0.403403,0.766533,-9.73679,-4.2583,-2.45764,-61.963
2023-02-17 00:35:16:67,-0.414633,0.788565,-9.76884,-4.27126,-2.44691,-61.9685
2023-02-17 00:35:16:77,-0.410446,0.793165,-9.78643,-4.2811,-2.43867,-61.9768
2023-02-17 00:35:16:87,-0.403009,0.806033,-9.79218,-4.29005,-2.43116,-61.9869
2023-02-17 00:35:16:97,-0.387056,0.816866,-9.80141,-4.29674,-2.42228,-61.9955
2023-02-17 00:35:16:107,-0.364811,0.815004,-9.78475,-4.30068,-2.41376,-62.0048
2023-02-17 00:35:16:117,-0.352987,0.787102,-9.77565,-4.30054,-2.40596,-62.0113
2023-02-17 00:35:16:127,-0.346048,0.778095,-9.75863,-4.29668,-2.39752,-62.0197
2023-02-17 00:35:16:137,-0.335852,0.762189,-9.75322,-4.29231,-2.39232,-62.0205
2023-02-17 00:35:16:147,-0.325729,0.744363,-9.75794,-4.29402,-2.39028,-62.0227
2023-02-17 00:35:16:157,-0.345886,0.747602,-9.75223,-4.2936,-2.38648,-62.0241
2023-02-17 00:35:16:167,-0.334935,0.737294,-9.74832,-4.29146,-2.3843,-62.0224
2023-02-17 00:35:16:177,-0.352002,0.730417,-9.74485,-4.29039,-2.38245,-62.021
2023-02-17 00:35:16:187,-0.375254,0.72145,-9.73191,-4.28912,-2.37847,-62.0178
2023-02-17 00:35:16:197,-0.389008,0.714273,-9.71525,-4.28342,-2.37446,-62.0135
2023-02-17 00:35:16:207,-0.381853,0.713388,-9.69536,-4.27866,-2.36656,-62.0082
2023-02-17 00:35:16:217,-0.396515,0.698129,-9.66802,-4.27883,-2.36051,-62.0038
2023-02-17 00:35:16:227,-0.395403,0.684643,-9.65896,-4.28277,-2.35449,-61.9936
2023-02-17 00:35:16:237,-0.396909,0.688707,-9.66294,-4.2873,-2.34279,-61.9857
2023-02-17 00:35:16:247,-0.403932,0.698187,-9.68077,-4.29371,-2.33824,-61.9808
2023-02-17 00:35:16:257,-0.423918,0.727242,-9.70545,-4.30394,-2.33129,-61.9753
2023-02-17 00:35:16:267,-0.419648,0.763953,-9.72817,-4.3172,-2.32225,-61.9782
2023-02-17 00:35:16:277,-0.41536,0.785427,-9.7396,-4.32916,-2.31474,-61.9767
2023-02-17 00:35:16:287,-0.415883,0.803568,-9.76208,-4.33998,-2.31042,-61.9815
2023-02-17 00:35:16:297,-0.40585,0.794029,-9.7837,-4.34952,-2.3042,-61.9881
2023-02-17 00:35:16:307,-0.408766,0.794642,-9.77597,-4.36018,-2.29982,-61.9947
2023-02-17 00:35:16:317,-0.40083,0.791481,-9.77092,-4.37001,-2.29217,-62.0034
2023-02-17 00:35:16:327,-0.385911,0.789121,-9.75629,-4.37876,-2.28548,-62.0132
2023-02-17 00:35:16:337,-0.367014,0.792027,-9.74359,-4.38497,-2.27929,-62.0203
2023-02-17 00:35:16:347,-0.351562,0.780913,-9.74086,-4.39348,-2.27355,-62.0297
2023-02-17 00:35:16:357,-0.344042,0.791202,-9.7375,-4.40374,-2.27222,-62.0374
2023-02-17 00:35:16:367,-0.344581,0.79243,-9.73409,-4.40935,-2.26649,-62.0442
2023-02-17 00:35:16:377,-0.330356,0.804128,-9.74688,-4.41619,-2.25712,-62.0503
2023-02-17 00:35:16:387,-0.323789,0.813371,-9.77539,-4.42743,-2.25115,-62.0511
2023-02-17 00:35:16:397,-0.315912,0.816346,-9.78467,-4.4347,-2.246,-62.0536
2023-02-17 00:35:16:407,-0.30316,0.818888,-9.79934,-4.44076,-2.23763,-62.0512
2023-02-17 00:35:16:417,-0.306028,0.805131,-9.77408,-4.44428,-2.22784,-62.0409
2023-02-17 00:35:16:427,-0.331174,0.788624,-9.75085,-4.4425,-2.2198,-62.0341
2023-02-17 00:35:16:437,-0.36477,0.775001,-9.72706,-4.44341,-2.21241,-62.0213
2023-02-17 00:35:16:447,-0.364635,0.778044,-9.73819,-4.43977,-2.20615,-62.0148
2023-02-17 00:35:16:457,-0.365836,0.778445,-9.75904,-4.4388,-2.19047,-62.0068
2023-02-17 00:35:16:467,-0.338326,0.764568,-9.78133,-4.43475,-2.18173,-61.9988
2023-02-17 00:35:16:477,-0.287608,0.758424,-9.79149,-4.42975,-2.17199,-61.9867
2023-02-17 00:35:16:487,-0.277398,0.756898,-9.77194,-4.42663,-2.16536,-61.9782
2023-02-17 00:35:16:497,-0.3041,0.754952,-9.76209,-4.4218,-2.16531,-61.9655
2023-02-17 00:35:16:507,-0.340075,0.756141,-9.73144,-4.41551,-2.16496,-61.9576
2023-02-17 00:35:16:517,-0.379937,0.752458,-9.69773,-4.41047,-2.1665,-61.9529
2023-02-17 00:35:16:527,-0.412888,0.772644,-9.67687,-4.41246,-2.17003,-61.9545
2023-02-17 00:35:16:537,-0.402974,0.77524,-9.69403,-4.41648,-2.17228,-61.9566
2023-02-17 00:35:16:547,-0.376337,0.770422,-9.71718,-4.42147,-2.17248,-61.962
2023-02-17 00:35:16:557,-0.344332,0.764531,-9.72389,-4.42738,-2.16946,-61.9602
2023-02-17 00:35:16:567,-0.340924,0.784811,-9.73547,-4.43832,-2.16409,-61.9584
2023-02-17 00:35:16:577,-0.331052,0.807951,-9.73966,-4.44718,-2.16101,-61.9598
2023-02-17 00:35:16:587,-0.338805,0.822599,-9.73179,-4.45835,-2.15838,-61.9566
2023-02-17 00:35:16:597,-0.35146,0.824009,-9.74554,-4.46742,-2.15379,-61.958
2023-02-17 00:35:16:607,-0.346124,0.827016,-9.75056,-4.47394,-2.14783,-61.9583
2023-02-17 00:35:16:617,-0.343211,0.834874,-9.75145,-4.47643,-2.14247,-61.959
2023-02-17 00:35:16:627,-0.348185,0.834274,-9.75041,-4.4791,-2.13451,-61.9576
2023-02-17 00:35:16:637,-0.34451,0.818201,-9.75648,-4.47984,-2.12554,-61.9594
2023-02-17 00:35:16:647,-0.336147,0.831916,-9.75599,-4.47833,-2.11622,-61.9628
2023-02-17 00:35:16:657,-0.329811,0.826341,-9.7411,-4.47839,-2.11095,-61.9667
2023-02-17 00:35:16:667,-0.313838,0.806314,-9.74044,-4.47269,-2.10801,-61.9711
2023-02-17 00:35:16:677,-0.326237,0.809588,-9.75121,-4.46765,-2.10555,-61.9764
2023-02-17 00:35:16:687,-0.325484,0.809054,-9.75827,-4.46342,-2.09981,-61.9873
2023-02-17 00:35:16:697,-0.306532,0.780555,-9.76482,-4.45665,-2.0964,-61.9956
2023-02-17 00:35:16:707,-0.267333,0.775776,-9.77267,-4.45221,-2.09348,-62.0003
2023-02-17 00:35:16:717,-0.220286,0.778779,-9.78072,-4.44687,-2.09422,-62.0017
2023-02-17 00:35:16:727,-0.208312,0.778518,-9.81509,-4.44123,-2.0948,-62.001
2023-02-17 00:35:16:737,-0.192532,0.786761,-9.83859,-4.42955,-2.0956,-61.9948
2023-02-17 00:35:16:747,-0.19995,0.77795,-9.82695,-4.41652,-2.09754,-61.9833
2023-02-17 00:35:16:757,-0.212432,0.77771,-9.77487,-4.40315,-2.1002,-61.9661
2023-02-17 00:35:16:767,-0.223573,0.751071,-9.7153,-4.39181,-2.10011,-61.9462
2023-02-17 00:35:16:777,-0.2491,0.737559,-9.68745,-4.38061,-2.0992,-61.923
2023-02-17 00:35:16:787,-0.268537,0.741631,-9.66893,-4.3676,-2.09578,-61.8968
2023-02-17 00:35:16:797,-0.27337,0.737903,-9.67316,-4.35896,-2.09338,-61.8681
2023-02-17 00:35:16:807,-0.284115,0.743002,-9.69709,-4.35397,-2.09203,-61.84
2023-02-17 00:35:16:817,-0.303696,0.753526,-9.70424,-4.35066,-2.09085,-61.8114
2023-02-17 00:35:16:827,-0.311059,0.75975,-9.72758,-4.35026,-2.0887,-61.7831
2023-02-17 00:35:16:837,-0.327598,0.764531,-9.74123,-4.35073,-2.09164,-61.7554
2023-02-17 00:35:16:847,-0.33565,0.765233,-9.76419,-4.34955,-2.09496,-61.7287
2023-02-17 00:35:16:857,-0.344543,0.748889,-9.76199,-4.34457,-2.09685,-61.7113
2023-02-17 00:35:16:867,-0.359445,0.734591,-9.73319,-4.34126,-2.10001,-61.6921
2023-02-17 00:35:16:877,-0.369759,0.734984,-9.72424,-4.33733,-2.10665,-61.6771
2023-02-17 00:35:16:887,-0.375282,0.73766,-9.71933,-4.33764,-2.11615,-61.6627
2023-02-17 00:35:16:897,-0.379466,0.728462,-9.73734,-4.33908,-2.12624,-61.6545
2023-02-17 00:35:16:907,-0.379055,0.733456,-9.74394,-4.3415,-2.13819,-61.6494
2023-02-17 00:35:16:917,-0.379931,0.743482,-9.73399,-4.34652,-2.14755,-61.6409
2023-02-17 00:35:16:927,-0.386632,0.745946,-9.73572,-4.35162,-2.15579,-61.6349
2023-02-17 00:35:16:937,-0.395964,0.743765,-9.73773,-4.358,-2.16637,-61.6319
2023-02-17 00:35:16:947,-0.388672,0.733574,-9.73913,-4.365,-2.17989,-61.6283
2023-02-17 00:35:16:957,-0.390193,0.739953,-9.7329,-4.36993,-2.18891,-61.6279
2023-02-17 00:35:16:967,-0.398354,0.743466,-9.73494,-4.37666,-2.19758,-61.6305
2023-02-17 00:35:16:977,-0.372171,0.740946,-9.73066,-4.38209,-2.20233,-61.6292
2023-02-17 00:35:16:987,-0.366288,0.733773,-9.73523,-4.38771,-2.20778,-61.6303
2023-02-17 00:35:16:997,-0.375495,0.737447,-9.7371,-4.39177,-2.20939,-61.6317
2023-02-17 00:35:17:7,-0.372571,0.743935,-9.71712,-4.39876,-2.21545,-61.6328
2023-02-17 00:35:17:17,-0.354411,0.744409,-9.70798,-4.40479,-2.21831,-61.6331
2023-02-17 00:35:17:27,-0.350262,0.73937,-9.71716,-4.4087,-2.21786,-61.633
2023-02-17 00:35:17:37,-0.365966,0.750472,-9.73231,-4.4165,-2.22024,-61.6327
2023-02-17 00:35:17:47,-0.367195,0.764893,-9.73351,-4.42379,-2.2218,-61.6332
2023-02-17 00:35:17:57,-0.34539,0.776451,-9.7333,-4.4324,-2.22371,-61.6326
2023-02-17 00:35:17:67,-0.333493,0.768051,-9.74135,-4.43974,-2.22652,-61.629
2023-02-17 00:35:17:77,-0.307024,0.778068,-9.76448,-4.44965,-2.22728,-61.6222
2023-02-17 00:35:17:87,-0.294168,0.788054,-9.79071,-4.45891,-2.23104,-61.6132
2023-02-17 00:35:17:97,-0.277789,0.790461,-9.79146,-4.46349,-2.23644,-61.6041
2023-02-17 00:35:17:107,-0.284914,0.788067,-9.78959,-4.46763,-2.2425,-61.5891
2023-02-17 00:35:17:117,-0.30176,0.786092,-9.76343,-4.47264,-2.2475,-61.5793
2023-02-17 00:35:17:127,-0.315609,0.782128,-9.74671,-4.47233,-2.25406,-61.5682
2023-02-17 00:35:17:137,-0.325832,0.780179,-9.74919,-4.47805,-2.26332,-61.5543
2023-02-17 00:35:17:147,-0.324739,0.779505,-9.73313,-4.48327,-2.26816,-61.541
2023-02-17 00:35:17:157,-0.343568,0.772964,-9.71781,-4.48865,-2.27664,-61.5203
2023-02-17 00:35:17:167,-0.358165,0.78598,-9.73338,-4.49524,-2.28481,-61.5049
2023-02-17 00:35:17:177,-0.360675,0.787398,-9.76728,-4.50141,-2.29229,-61.4884
2023-02-17 00:35:17:187,-0.374075,0.808968,-9.76661,-4.5083,-2.29907,-61.4724
2023-02-17 00:35:17:197,-0.392513,0.805798,-9.75033,-4.51599,-2.30601,-61.4571
2023-02-17 00:35:17:207,-0.417922,0.787645,-9.75403,-4.52025,-2.31362,-61.4428
2023-02-17 00:35:17:217,-0.44143,0.800989,-9.77893,-4.52242,-2.32141,-61.4352
2023-02-17 00:35:17:227,-0.430132,0.808847,-9.79962,-4.5227,-2.32612,-61.4279
2023-02-17 00:35:17:237,-0.377022,0.804465,-9.79958,-4.52166,-2.33115,-61.4217
2023-02-17 00:35:17:247,-0.339773,0.808525,-9.78449,-4.51856,-2.33727,-61.4127
2023-02-17 00:35:17:257,-0.349588,0.778917,-9.76639,-4.51493,-2.34988,-61.405
2023-02-17 00:35:17:267,-0.371298,0.76837,-9.72959,-4.51073,-2.37462,-61.3969
2023-02-17 00:35:17:277,-0.417975,0.774225,-9.68539,-4.5089,-2.39705,-61.3906
2023-02-17 00:35:17:287,-0.469511,0.77583,-9.68137,-4.50869,-2.42263,-61.3887
2023-02-17 00:35:17:297,-0.487753,0.766148,-9.69923,-4.50818,-2.44479,-61.3922
2023-02-17 00:35:17:307,-0.476378,0.776472,-9.71758,-4.51214,-2.46807,-61.3967
2023-02-17 00:35:17:317,-0.439992,0.802564,-9.74606,-4.51903,-2.48285,-61.3982
2023-02-17 00:35:17:327,-0.416316,0.814137,-9.76454,-4.52554,-2.49348,-61.3929
2023-02-17 00:35:17:337,-0.410153,0.819108,-9.75392,-4.53003,-2.5007,-61.3846
2023-02-17 00:35:17:347,-0.425892,0.819548,-9.7277,-4.53384,-2.50704,-61.3699
2023-02-17 00:35:17:357,-0.455115,0.834186,-9.71992,-4.5384,-2.5074,-61.3525
2023-02-17 00:35:17:367,-0.494061,0.8415,-9.70486,-4.54155,-2.50601,-61.3373
2023-02-17 00:35:17:377,-0.517618,0.836002,-9.70873,-4.54389,-2.50834,-61.3235
2023-02-17 00:35:17:387,-0.529508,0.841254,-9.71399,-4.54708,-2.50591,-61.3141
2023-02-17 00:35:17:397,-0.531558,0.832328,-9.72731,-4.55119,-2.50306,-61.3091
2023-02-17 00:35:17:407,-0.502157,0.840699,-9.73512,-4.55208,-2.50121,-61.3093
2023-02-17 00:35:17:417,-0.472039,0.847675,-9.75682,-4.55234,-2.49405,-61.3091
2023-02-17 00:35:17:427,-0.451986,0.839553,-9.77184,-4.55079,-2.49177,-61.3088
2023-02-17 00:35:17:437,-0.438392,0.83142,-9.75652,-4.54918,-2.49192,-61.3104
2023-02-17 00:35:17:447,-0.447103,0.824144,-9.7335,-4.54581,-2.48993,-61.3123
2023-02-17 00:35:17:457,-0.459196,0.818306,-9.73084,-4.53941,-2.48711,-61.3148
2023-02-17 00:35:17:467,-0.450226,0.808664,-9.75482,-4.53768,-2.48733,-61.3231
2023-02-17 00:35:17:477,-0.432913,0.801182,-9.7587,-4.53422,-2.48302,-61.3305
2023-02-17 00:35:17:487,-0.416128,0.803579,-9.76067,-4.52982,-2.47866,-61.3365
2023-02-17 00:35:17:497,-0.389703,0.798238,-9.75792,-4.52966,-2.47688,-61.342
2023-02-17 00:35:17:507,-0.390156,0.796017,-9.7342,-4.52745,-2.47918,-61.3461
2023-02-17 00:35:17:517,-0.40092,0.78797,-9.7282,-4.52487,-2.48229,-61.3535
2023-02-17 00:35:17:527,-0.419047,0.797282,-9.72449,-4.52224,-2.48367,-61.356
2023-02-17 00:35:17:537,-0.435631,0.794038,-9.71903,-4.52475,-2.48672,-61.363
2023-02-17 00:35:17:547,-0.443124,0.795221,-9.7308,-4.52999,-2.48908,-61.3698
2023-02-17 00:35:17:557,-0.420939,0.801995,-9.73692,-4.53259,-2.48905,-61.3746
2023-02-17 00:35:17:567,-0.415469,0.804015,-9.73593,-4.5339,-2.49063,-61.3781
2023-02-17 00:35:17:577,-0.424649,0.804317,-9.74735,-4.53788,-2.48968,-61.3786
2023-02-17 00:35:17:587,-0.411858,0.815375,-9.74933,-4.54312,-2.49026,-61.3816
2023-02-17 00:35:17:597,-0.431431,0.829132,-9.75269,-4.54619,-2.49277,-61.3847
2023-02-17 00:35:17:607,-0.43945,0.834149,-9.75587,-4.55003,-2.49454,-61.3859
2023-02-17 00:35:17:617,-0.443604,0.84627,-9.7748,-4.55366,-2.49471,-61.3882
2023-02-17 00:35:17:627,-0.444897,0.837392,-9.77231,-4.55081,-2.49471,-61.3918
2023-02-17 00:35:17:637,-0.446443,0.836482,-9.77562,-4.54768,-2.49687,-61.3998
2023-02-17 00:35:17:647,-0.42981,0.819497,-9.76986,-4.54031,-2.49744,-61.406
2023-02-17 00:35:17:657,-0.44394,0.802666,-9.7587,-4.53113,-2.49929,-61.4088
2023-02-17 00:35:17:667,-0.441684,0.787994,-9.74883,-4.52453,-2.50228,-61.4158
2023-02-17 00:35:17:677,-0.42467,0.767881,-9.73746,-4.51587,-2.50475,-61.4218
2023-02-17 00:35:17:687,-0.436958,0.756766,-9.72349,-4.50889,-2.50445,-61.4255
2023-02-17 00:35:17:697,-0.430317,0.756258,-9.71674,-4.50019,-2.50637,-61.4278
2023-02-17 00:35:17:707,-0.429099,0.760469,-9.71158,-4.49664,-2.50751,-61.4295
2023-02-17 00:35:17:717,-0.436761,0.758096,-9.72764,-4.49336,-2.50701,-61.432
2023-02-17 00:35:17:727,-0.424629,0.766453,-9.7459,-4.48849,-2.50691,-61.4336
2023-02-17 00:35:17:737,-0.422694,0.780651,-9.75541,-4.48286,-2.50861,-61.4359
2023-02-17 00:35:17:747,-0.431053,0.783638,-9.75266,-4.47948,-2.50808,-61.4354
2023-02-17 00:35:17:757,-0.438333,0.789411,-9.7419,-4.47386,-2.50687,-61.4355
2023-02-17 00:35:17:767,-0.428343,0.782479,-9.75682,-4.47005,-2.50063,-61.4334
2023-02-17 00:35:17:777,-0.421654,0.767094,-9.74585,-4.46286,-2.49532,-61.4325
2023-02-17 00:35:17:787,-0.414406,0.771315,-9.71917,-4.45646,-2.49505,-61.429
2023-02-17 00:35:17:797,-0.412236,0.752844,-9.70246,-4.44668,-2.49485,-61.4259
2023-02-17 00:35:17:807,-0.415087,0.763863,-9.69754,-4.44314,-2.4931,-61.424
2023-02-17 00:35:17:817,-0.410717,0.755168,-9.71304,-4.44018,-2.49818,-61.426
2023-02-17 00:35:17:827,-0.409512,0.748873,-9.72884,-4.43389,-2.50086,-61.423
2023-02-17 00:35:17:837,-0.428878,0.76816,-9.73272,-4.42761,-2.50209,-61.4228
2023-02-17 00:35:17:847,-0.457931,0.777003,-9.74894,-4.42398,-2.50777,-61.4266
2023-02-17 00:35:17:857,-0.459705,0.777954,-9.77035,-4.41996,-2.5098,-61.4304
2023-02-17 00:35:17:867,-0.469854,0.778575,-9.77211,-4.41648,-2.51247,-61.4363
2023-02-17 00:35:17:877,-0.483366,0.776553,-9.76312,-4.40787,-2.50894,-61.4398
2023-02-17 00:35:17:887,-0.477143,0.761017,-9.7618,-4.40068,-2.5112,-61.4446
2023-02-17 00:35:17:897,-0.469173,0.743211,-9.75295,-4.38701,-2.50934,-61.449
2023-02-17 00:35:17:907,-0.453994,0.725681,-9.76089,-4.37558,-2.50556,-61.452
2023-02-17 00:35:17:917,-0.441437,0.712324,-9.7371,-4.3636,-2.50134,-61.456
2023-02-17 00:35:17:927,-0.417089,0.695862,-9.71089,-4.35194,-2.49234,-61.4595
2023-02-17 00:35:17:937,-0.426182,0.707729,-9.67864,-4.34633,-2.48563,-61.4623
2023-02-17 00:35:17:947,-0.452418,0.688744,-9.66472,-4.34102,-2.47824,-61.4695
2023-02-17 00:35:17:957,-0.448746,0.689832,-9.70039,-4.33461,-2.46889,-61.4763
2023-02-17 00:35:17:967,-0.431855,0.686356,-9.73649,-4.33087,-2.46085,-61.4801
2023-02-17 00:35:17:977,-0.383748,0.697906,-9.76903,-4.32752,-2.4491,-61.4875
2023-02-17 00:35:17:987,-0.314893,0.69076,-9.78473,-4.32409,-2.44143,-61.4928
2023-02-17 00:35:17:997,-0.282524,0.687517,-9.76006,-4.31995,-2.43748,-61.4947
2023-02-17 00:35:18:7,-0.321952,0.680966,-9.7351,-4.31539,-2.43601,-61.4938
2023-02-17 00:35:18:17,-0.35961,0.677961,-9.68559,-4.31471,-2.43976,-61.4941
2023-02-17 00:35:18:27,-0.394512,0.679978,-9.66089,-4.31719,-2.44755,-61.4923
2023-02-17 00:35:18:37,-0.440939,0.676306,-9.64587,-4.32539,-2.45396,-61.4924
2023-02-17 00:35:18:47,-0.44993,0.695757,-9.67038,-4.33536,-2.45507,-61.4937
2023-02-17 00:35:18:57,-0.410491,0.715551,-9.70432,-4.35035,-2.45534,-61.4952
2023-02-17 00:35:18:67,-0.378692,0.751644,-9.7356,-4.37189,-2.4522,-61.4932
2023-02-17 00:35:18:77,-0.374601,0.789535,-9.75984,-4.39104,-2.44851,-61.4922
2023-02-17 00:35:18:87,-0.401581,0.827165,-9.77607,-4.41088,-2.44525,-61.4909
2023-02-17 00:35:18:97,-0.414555,0.838174,-9.78159,-4.43096,-2.4426,-61.4897
2023-02-17 00:35:18:107,-0.437879,0.842206,-9.77763,-4.44722,-2.43584,-61.4877
2023-02-17 00:35:18:117,-0.432761,0.843143,-9.7807,-4.45849,-2.4265,-61.4865
2023-02-17 00:35:18:127,-0.425839,0.832909,-9.767,-4.46592,-2.41894,-61.4859
2023-02-17 00:35:18:137,-0.430017,0.827102,-9.76083,-4.47082,-2.4107,-61.49
2023-02-17 00:35:18:147,-0.417943,0.823818,-9.76216,-4.474,-2.39986,-61.4943
2023-02-17 00:35:18:157,-0.406046,0.805904,-9.75652,-4.47243,-2.39122,-61.4988
2023-02-17 00:35:18:167,-0.388699,0.803972,-9.72796,-4.47356,-2.38534,-61.5068
2023-02-17 00:35:18:177,-0.390844,0.796326,-9.73131,-4.47363,-2.3785,-61.5144
2023-02-17 00:35:18:187,-0.390127,0.774773,-9.75085,-4.47251,-2.37151,-61.5222
2023-02-17 00:35:18:197,-0.395351,0.777028,-9.76988,-4.4683,-2.36567,-61.5315
2023-02-17 00:35:18:207,-0.370193,0.789279,-9.78351,-4.46817,-2.35862,-61.5415
2023-02-17 00:35:18:217,-0.345385,0.791827,-9.77615,-4.46667,-2.35032,-61.5524
2023-02-17 00:35:18:227,-0.303143,0.770482,-9.79182,-4.46568,-2.3461,-61.5582
2023-02-17 00:35:18:237,-0.292194,0.748875,-9.78744,-4.46113,-2.34338,-61.5614
2023-02-17 00:35:18:247,-0.319489,0.734251,-9.73815,-4.46011,-2.34295,-61.5651
2023-02-17 00:35:18:257,-0.350785,0.725134,-9.70289,-4.46051,-2.34172,-61.5657
2023-02-17 00:35:18:267,-0.359168,0.733815,-9.6987,-4.46127,-2.34045,-61.5651
2023-02-17 00:35:18:277,-0.375026,0.748716,-9.70981,-4.46293,-2.34141,-61.5678
2023-02-17 00:35:18:287,-0.364577,0.784692,-9.72341,-4.46726,-2.34012,-61.572
2023-02-17 00:35:18:297,-0.367298,0.81624,-9.72824,-4.47256,-2.33456,-61.5758
2023-02-17 00:35:18:307,-0.358759,0.812456,-9.76232,-4.4786,-2.32903,-61.5747
2023-02-17 00:35:18:317,-0.362461,0.827943,-9.76041,-4.4836,-2.3262,-61.578
2023-02-17 00:35:18:327,-0.359483,0.825206,-9.74095,-4.48426,-2.32007,-61.5805
2023-02-17 00:35:18:337,-0.364015,0.814366,-9.73203,-4.48557,-2.31794,-61.5828
2023-02-17 00:35:18:347,-0.355137,0.789244,-9.7264,-4.48507,-2.31665,-61.5862
2023-02-17 00:35:18:357,-0.35616,0.762565,-9.71392,-4.48616,-2.31507,-61.5912
2023-02-17 00:35:18:367,-0.372802,0.744895,-9.7272,-4.48841,-2.31305,-61.5967
2023-02-17 00:35:18:377,-0.372648,0.755055,-9.71946,-4.49258,-2.31312,-61.6042
2023-02-17 00:35:18:387,-0.347342,0.761887,-9.7291,-4.49603,-2.31397,-61.6109
2023-02-17 00:35:18:397,-0.343987,0.769685,-9.73664,-4.50319,-2.31476,-61.6175
2023-02-17 00:35:18:407,-0.329861,0.775148,-9.74647,-4.50825,-2.31265,-61.6212
2023-02-17 00:35:18:416,-0.324482,0.769898,-9.75258,-4.51329,-2.3133,-61.6204
2023-02-17 00:35:18:427,-0.325604,0.762077,-9.75797,-4.51979,-2.31564,-61.6174
2023-02-17 00:35:18:437,-0.332019,0.761284,-9.7351,-4.52478,-2.31771,-61.6108
2023-02-17 00:35:18:447,-0.329983,0.762053,-9.70866,-4.53132,-2.31845,-61.6058
2023-02-17 00:35:18:457,-0.346458,0.757631,-9.68924,-4.54179,-2.3186,-61.6009
2023-02-17 00:35:18:467,-0.354188,0.739878,-9.67251,-4.55132,-2.32018,-61.5946
2023-02-17 00:35:18:477,-0.369014,0.752911,-9.66528,-4.56254,-2.3203,-61.5832
2023-02-17 00:35:18:487,-0.372943,0.771311,-9.68026,-4.57708,-2.32409,-61.5722
2023-02-17 00:35:18:497,-0.37569,0.787022,-9.71245,-4.59676,-2.32597,-61.5607
2023-02-17 00:35:18:507,-0.385707,0.820102,-9.74587,-4.61575,-2.32232,-61.5542
2023-02-17 00:35:18:517,-0.394076,0.854703,-9.76,-4.63447,-2.32012,-61.5482
2023-02-17 00:35:18:527,-0.39428,0.870629,-9.77427,-4.65395,-2.32361,-61.5414
2023-02-17 00:35:18:537,-0.411715,0.865876,-9.77683,-4.6691,-2.32458,-61.5409
2023-02-17 00:35:18:547,-0.414584,0.853232,-9.77276,-4.68336,-2.32352,-61.5408
2023-02-17 00:35:18:557,-0.394363,0.840056,-9.75756,-4.69563,-2.32567,-61.5392
2023-02-17 00:35:18:567,-0.393266,0.840693,-9.71668,-4.70449,-2.32918,-61.5346
2023-02-17 00:35:18:577,-0.402299,0.835174,-9.7142,-4.71824,-2.33021,-61.5342
2023-02-17 00:35:18:587,-0.410515,0.84,-9.72266,-4.73086,-2.33267,-61.5379
2023-02-17 00:35:18:597,-0.41018,0.833542,-9.73773,-4.74286,-2.33406,-61.5403
2023-02-17 00:35:18:607,-0.406254,0.860548,-9.7603,-4.75798,-2.3377,-61.5421
2023-02-17 00:35:18:617,-0.395859,0.86774,-9.79542,-4.76896,-2.33703,-61.5501
2023-02-17 00:35:18:627,-0.386647,0.88553,-9.7965,-4.78255,-2.33856,-61.5546
2023-02-17 00:35:18:637,-0.387062,0.898428,-9.80874,-4.7922,-2.3387,-61.5585
2023-02-17 00:35:18:647,-0.366915,0.882822,-9.81601,-4.79652,-2.33833,-61.5609
2023-02-17 00:35:18:657,-0.347304,0.877428,-9.77854,-4.80165,-2.33637,-61.5603
2023-02-17 00:35:18:667,-0.363907,0.868613,-9.73668,-4.80474,-2.336,-61.5631
2023-02-17 00:35:18:677,-0.381514,0.834658,-9.70922,-4.80518,-2.33847,-61.5683
2023-02-17 00:35:18:687,-0.408288,0.829566,-9.72344,-4.80755,-2.33808,-61.5691
2023-02-17 00:35:18:697,-0.385664,0.831199,-9.76264,-4.80876,-2.33185,-61.5701
2023-02-17 00:35:18:707,-0.362897,0.840085,-9.77624,-4.8093,-2.32168,-61.5722
2023-02-17 00:35:18:717,-0.317025,0.85094,-9.77466,-4.80975,-2.31354,-61.5712
2023-02-17 00:35:18:727,-0.301486,0.840467,-9.78134,-4.81056,-2.31218,-61.569
2023-02-17 00:35:18:737,-0.324588,0.845448,-9.75799,-4.80535,-2.31404,-61.5644
2023-02-17 00:35:18:747,-0.36698,0.844647,-9.7147,-4.80658,-2.32043,-61.5635
2023-02-17 00:35:18:757,-0.400781,0.844859,-9.68537,-4.80836,-2.3258,-61.5626
2023-02-17 00:35:18:767,-0.407296,0.854212,-9.68803,-4.81484,-2.33092,-61.5632
2023-02-17 00:35:18:777,-0.399397,0.849073,-9.68971,-4.81848,-2.33188,-61.5658
2023-02-17 00:35:18:787,-0.360705,0.859102,-9.69122,-4.83063,-2.33209,-61.5687
2023-02-17 00:35:18:797,-0.340616,0.863834,-9.71223,-4.83943,-2.33057,-61.5741
2023-02-17 00:35:18:807,-0.334581,0.899829,-9.71337,-4.84589,-2.33212,-61.5755
2023-02-17 00:35:18:817,-0.35028,0.920043,-9.72142,-4.85957,-2.33386,-61.5767
2023-02-17 00:35:18:827,-0.374518,0.932991,-9.73568,-4.87348,-2.33355,-61.5776
2023-02-17 00:35:18:837,-0.388303,0.94512,-9.75183,-4.88309,-2.33844,-61.5816
2023-02-17 00:35:18:847,-0.380829,0.945525,-9.76303,-4.88787,-2.33998,-61.5838
2023-02-17 00:35:18:857,-0.381956,0.936959,-9.77117,-4.89446,-2.33905,-61.585
2023-02-17 00:35:18:867,-0.383079,0.928886,-9.7884,-4.89448,-2.33986,-61.5886
2023-02-17 00:35:18:877,-0.37729,0.922521,-9.78332,-4.89501,-2.33641,-61.5916
2023-02-17 00:35:18:887,-0.37237,0.907137,-9.77201,-4.89006,-2.33626,-61.5926
2023-02-17 00:35:18:897,-0.377726,0.909272,-9.74348,-4.88704,-2.33683,-61.5921
2023-02-17 00:35:18:907,-0.380472,0.887005,-9.72045,-4.88071,-2.34211,-61.5929
2023-02-17 00:35:18:917,-0.413012,0.871615,-9.73935,-4.87296,-2.34672,-61.5935
2023-02-17 00:35:18:927,-0.437034,0.866374,-9.75238,-4.86755,-2.35132,-61.5995
2023-02-17 00:35:18:937,-0.410635,0.857208,-9.74612,-4.86332,-2.35375,-61.6084
2023-02-17 00:35:18:947,-0.382223,0.850705,-9.7601,-4.85796,-2.35894,-61.6102
2023-02-17 00:35:18:957,-0.36681,0.84293,-9.77012,-4.85079,-2.3634,-61.6091
2023-02-17 00:35:18:967,-0.376593,0.846682,-9.74123,-4.84499,-2.36838,-61.6104
2023-02-17 00:35:18:977,-0.395713,0.859687,-9.71683,-4.84274,-2.37644,-61.6114
2023-02-17 00:35:18:987,-0.416984,0.854636,-9.72607,-4.83888,-2.38213,-61.6117
2023-02-17 00:35:18:997,-0.425288,0.85551,-9.70611,-4.83745,-2.39028,-61.6137
2023-02-17 00:35:19:7,-0.432479,0.863148,-9.70339,-4.83416,-2.39546,-61.6188
2023-02-17 00:35:19:17,-0.422607,0.855139,-9.702,-4.83279,-2.39996,-61.625
2023-02-17 00:35:19:27,-0.40449,0.848314,-9.70491,-4.82989,-2.40219,-61.6255
2023-02-17 00:35:19:37,-0.386818,0.85475,-9.70334,-4.82887,-2.40679,-61.6257
2023-02-17 00:35:19:47,-0.375892,0.859174,-9.72239,-4.82628,-2.40948,-61.6239
2023-02-17 00:35:19:57,-0.38415,0.86814,-9.74451,-4.82368,-2.41328,-61.6215
2023-02-17 00:35:19:67,-0.402308,0.882658,-9.7624,-4.82557,-2.418,-61.623
2023-02-17 00:35:19:77,-0.420976,0.887807,-9.78074,-4.82317,-2.42231,-61.6244
2023-02-17 00:35:19:87,-0.432972,0.879008,-9.78795,-4.81638,-2.42869,-61.6249
2023-02-17 00:35:19:97,-0.443568,0.864584,-9.78647,-4.80915,-2.43735,-61.628
2023-02-17 00:35:19:107,-0.466726,0.859656,-9.76884,-4.79911,-2.44504,-61.6328
2023-02-17 00:35:19:117,-0.466537,0.846617,-9.75417,-4.78781,-2.44927,-61.6393
2023-02-17 00:35:19:127,-0.472244,0.826703,-9.74857,-4.77813,-2.45558,-61.6478
2023-02-17 00:35:19:137,-0.458124,0.817086,-9.7283,-4.76522,-2.46372,-61.6547
2023-02-17 00:35:19:147,-0.472966,0.815269,-9.70257,-4.75569,-2.46962,-61.6641
2023-02-17 00:35:19:157,-0.476417,0.80309,-9.7015,-4.74694,-2.47638,-61.6737
2023-02-17 00:35:19:167,-0.45576,0.795998,-9.69771,-4.7417,-2.4835,-61.6855
2023-02-17 00:35:19:177,-0.45767,0.796901,-9.6951,-4.73689,-2.491,-61.6923
2023-02-17 00:35:19:187,-0.464167,0.797883,-9.7025,-4.72984,-2.49117,-61.6994
2023-02-17 00:35:19:197,-0.467421,0.810347,-9.70763,-4.72445,-2.48691,-61.7061
2023-02-17 00:35:19:207,-0.47229,0.818918,-9.71785,-4.71863,-2.48308,-61.7124
2023-02-17 00:35:19:217,-0.469358,0.813711,-9.73888,-4.71443,-2.47625,-61.7191
2023-02-17 00:35:19:227,-0.461557,0.809352,-9.74299,-4.70982,-2.46857,-61.7256
2023-02-17 00:35:19:237,-0.460619,0.821031,-9.72594,-4.70651,-2.46029,-61.7313
2023-02-17 00:35:19:247,-0.456822,0.820565,-9.73418,-4.70571,-2.45142,-61.7415
2023-02-17 00:35:19:257,-0.44981,0.822677,-9.73117,-4.70442,-2.4378,-61.7487
2023-02-17 00:35:19:267,-0.43681,0.821214,-9.72432,-4.70214,-2.42658,-61.7582
2023-02-17 00:35:19:277,-0.413842,0.815859,-9.73411,-4.69873,-2.41529,-61.7657
2023-02-17 00:35:19:287,-0.406289,0.809396,-9.74049,-4.69511,-2.40628,-61.7743
2023-02-17 00:35:19:297,-0.383284,0.810132,-9.74009,-4.69201,-2.39531,-61.7827
2023-02-17 00:35:19:307,-0.358406,0.823486,-9.74593,-4.69184,-2.38611,-61.7919
2023-02-17 00:35:19:317,-0.348994,0.822763,-9.7573,-4.68827,-2.37822,-61.799
2023-02-17 00:35:19:327,-0.334412,0.810846,-9.76478,-4.68625,-2.3719,-61.8036
2023-02-17 00:35:19:337,-0.332217,0.829914,-9.7666,-4.68262,-2.36473,-61.8053
2023-02-17 00:35:19:347,-0.333441,0.829355,-9.78104,-4.676,-2.35352,-61.8099
2023-02-17 00:35:19:357,-0.308568,0.816643,-9.77779,-4.67035,-2.34463,-61.8033
2023-02-17 00:35:19:367,-0.325255,0.793449,-9.75956,-4.66153,-2.33665,-61.7961
2023-02-17 00:35:19:377,-0.332541,0.788487,-9.72652,-4.65279,-2.32827,-61.7882
2023-02-17 00:35:19:387,-0.346907,0.78344,-9.70418,-4.6441,-2.31867,-61.7808
2023-02-17 00:35:19:397,-0.347827,0.771776,-9.73024,-4.6365,-2.30796,-61.7696
2023-02-17 00:35:19:407,-0.321481,0.783273,-9.77927,-4.62843,-2.29828,-61.7599
2023-02-17 00:35:19:417,-0.297485,0.796289,-9.80799,-4.62049,-2.28808,-61.7472
2023-02-17 00:35:19:427,-0.252764,0.792199,-9.80016,-4.61408,-2.28812,-61.732
2023-02-17 00:35:19:437,-0.263532,0.787779,-9.79159,-4.60571,-2.29152,-61.7146
2023-02-17 00:35:19:447,-0.317647,0.780756,-9.76363,-4.59722,-2.30161,-61.6988
2023-02-17 00:35:19:457,-0.383692,0.769999,-9.70892,-4.59126,-2.30974,-61.6869
2023-02-17 00:35:19:467,-0.437964,0.789446,-9.69011,-4.58403,-2.32177,-61.6759
2023-02-17 00:35:19:477,-0.467188,0.781264,-9.67865,-4.57914,-2.33525,-61.6729
2023-02-17 00:35:19:487,-0.464815,0.78074,-9.6846,-4.58106,-2.34559,-61.6704
2023-02-17 00:35:19:497,-0.437747,0.795724,-9.68739,-4.58324,-2.35114,-61.6682
2023-02-17 00:35:19:507,-0.441246,0.813975,-9.71074,-4.58985,-2.35344,-61.6673
2023-02-17 00:35:19:517,-0.445538,0.831284,-9.72213,-4.59988,-2.35852,-61.6663
2023-02-17 00:35:19:527,-0.466179,0.849533,-9.73491,-4.6069,-2.36074,-61.6684
2023-02-17 00:35:19:537,-0.48086,0.855845,-9.75736,-4.61471,-2.35995,-61.6722
2023-02-17 00:35:19:547,-0.476321,0.876608,-9.76855,-4.61762,-2.35733,-61.6807
2023-02-17 00:35:19:557,-0.465327,0.880465,-9.76852,-4.61636,-2.35109,-61.6885
2023-02-17 00:35:19:567,-0.477446,0.870073,-9.76306,-4.61519,-2.34658,-61.7032
2023-02-17 00:35:19:577,-0.457206,0.852552,-9.75937,-4.60976,-2.33607,-61.7186
2023-02-17 00:35:19:587,-0.420236,0.848203,-9.74439,-4.60531,-2.3275,-61.7338
2023-02-17 00:35:19:597,-0.395171,0.837931,-9.74615,-4.59788,-2.31792,-61.7471
2023-02-17 00:35:19:607,-0.384571,0.819523,-9.75331,-4.59119,-2.31374,-61.7618
2023-02-17 00:35:19:617,-0.367155,0.808358,-9.7463,-4.5808,-2.30968,-61.775
2023-02-17 00:35:19:627,-0.38478,0.8052,-9.75031,-4.57162,-2.30543,-61.7894
2023-02-17 00:35:19:637,-0.390792,0.797946,-9.77554,-4.56205,-2.29549,-61.8033
2023-02-17 00:35:19:647,-0.368038,0.811647,-9.79832,-4.55076,-2.28615,-61.8194
2023-02-17 00:35:19:657,-0.322799,0.805818,-9.80875,-4.53954,-2.27673,-61.8288
2023-02-17 00:35:19:667,-0.280069,0.799485,-9.80039,-4.52765,-2.26526,-61.8369
2023-02-17 00:35:19:677,-0.256718,0.791709,-9.78063,-4.51647,-2.25369,-61.8394
2023-02-17 00:35:19:687,-0.264125,0.781438,-9.73514,-4.50607,-2.24644,-61.8354
2023-02-17 00:35:19:697,-0.290557,0.782264,-9.73124,-4.49484,-2.24033,-61.8301
2023-02-17 00:35:19:707,-0.301143,0.778913,-9.70726,-4.4864,-2.23761,-61.8219
2023-02-17 00:35:19:717,-0.341731,0.771095,-9.70022,-4.47711,-2.23546,-61.817
2023-02-17 00:35:19:727,-0.346203,0.784429,-9.71656,-4.47026,-2.23212,-61.8078
2023-02-17 00:35:19:737,-0.338039,0.8019,-9.70789,-4.46578,-2.22729,-61.8005
2023-02-17 00:35:19:747,-0.335394,0.794062,-9.72654,-4.46062,-2.2221,-61.7926
2023-02-17 00:35:19:757,-0.325946,0.797331,-9.72958,-4.45383,-2.21629,-61.7804
2023-02-17 00:35:19:767,-0.342835,0.79972,-9.74029,-4.44699,-2.21572,-61.7725
2023-02-17 00:35:19:777,-0.354047,0.797906,-9.7568,-4.43838,-2.21303,-61.7667
2023-02-17 00:35:19:787,-0.356669,0.790835,-9.76948,-4.42932,-2.21073,-61.762
2023-02-17 00:35:19:797,-0.348961,0.776778,-9.77273,-4.42239,-2.21247,-61.7604
2023-02-17 00:35:19:807,-0.340601,0.777595,-9.77202,-4.41217,-2.21579,-61.761
2023-02-17 00:35:19:817,-0.341744,0.769022,-9.76044,-4.40155,-2.21957,-61.7602
2023-02-17 00:35:19:827,-0.335665,0.755045,-9.75434,-4.39206,-2.22541,-61.7583
2023-02-17 00:35:19:837,-0.334442,0.748931,-9.74694,-4.38244,-2.23178,-61.7568
2023-02-17 00:35:19:847,-0.346432,0.741018,-9.732,-4.37215,-2.23742,-61.7543
2023-02-17 00:35:19:857,-0.350308,0.738497,-9.73698,-4.36124,-2.24586,-61.752
2023-02-17 00:35:19:867,-0.356066,0.729097,-9.7398,-4.35015,-2.25355,-61.751
2023-02-17 00:35:19:877,-0.361518,0.723147,-9.73135,-4.3452,-2.26235,-61.7472
2023-02-17 00:35:19:887,-0.365604,0.712582,-9.72809,-4.34214,-2.27554,-61.7431
2023-02-17 00:35:19:897,-0.366628,0.717206,-9.73143,-4.33474,-2.28194,-61.7344
2023-02-17 00:35:19:907,-0.363755,0.719366,-9.72206,-4.33117,-2.28812,-61.7239
2023-02-17 00:35:19:917,-0.373863,0.720763,-9.70605,-4.32712,-2.29479,-61.7131
2023-02-17 00:35:19:927,-0.387175,0.719994,-9.7124,-4.32223,-2.3004,-61.7064
2023-02-17 00:35:19:937,-0.385133,0.72598,-9.72568,-4.32123,-2.30388,-61.6955
2023-02-17 00:35:19:947,-0.38735,0.720049,-9.72588,-4.32156,-2.30699,-61.6848
2023-02-17 00:35:19:957,-0.409948,0.716807,-9.7283,-4.31947,-2.31098,-61.6768
2023-02-17 00:35:19:967,-0.414002,0.734285,-9.72891,-4.3211,-2.31309,-61.6699
2023-02-17 00:35:19:977,-0.41785,0.73099,-9.72959,-4.32423,-2.31883,-61.6634
2023-02-17 00:35:19:987,-0.4264,0.73749,-9.72799,-4.32369,-2.32413,-61.6583
2023-02-17 00:35:19:997,-0.438878,0.749892,-9.7405,-4.32421,-2.33191,-61.66
2023-02-17 00:35:20:7,-0.429987,0.750266,-9.74498,-4.32461,-2.33874,-61.661
2023-02-17 00:35:20:17,-0.417387,0.752179,-9.7473,-4.32723,-2.34347,-61.6639
2023-02-17 00:35:20:27,-0.418153,0.744423,-9.74913,-4.32638,-2.34926,-61.6647
2023-02-17 00:35:20:37,-0.401572,0.7426,-9.74777,-4.324,-2.35183,-61.6649
2023-02-17 00:35:20:47,-0.401749,0.738548,-9.74328,-4.32261,-2.35421,-61.6654
2023-02-17 00:35:20:57,-0.383919,0.739744,-9.7451,-4.32357,-2.35926,-61.6655
2023-02-17 00:35:20:67,-0.381392,0.757362,-9.73645,-4.32614,-2.36307,-61.6647
2023-02-17 00:35:20:77,-0.377235,0.754914,-9.74225,-4.32648,-2.36238,-61.6645
2023-02-17 00:35:20:87,-0.369203,0.743858,-9.74243,-4.32632,-2.36259,-61.6613
2023-02-17 00:35:20:97,-0.382841,0.751302,-9.74249,-4.33011,-2.36924,-61.6582
2023-02-17 00:35:20:107,-0.394034,0.746272,-9.76045,-4.33096,-2.37243,-61.6529
2023-02-17 00:35:20:117,-0.395589,0.751486,-9.77012,-4.33112,-2.37439,-61.6472
2023-02-17 00:35:20:127,-0.396127,0.744654,-9.76188,-4.33172,-2.37347,-61.6398
2023-02-17 00:35:20:137,-0.399425,0.747641,-9.75927,-4.32819,-2.37302,-61.6307
2023-02-17 00:35:20:147,-0.411048,0.755264,-9.73629,-4.32405,-2.37319,-61.6241
2023-02-17 00:35:20:157,-0.444297,0.760149,-9.71511,-4.31962,-2.37603,-61.6157
2023-02-17 00:35:20:167,-0.45649,0.745239,-9.75558,-4.31756,-2.37532,-61.6098
2023-02-17 00:35:20:177,-0.449413,0.748933,-9.7861,-4.31505,-2.37216,-61.6132
2023-02-17 00:35:20:187,-0.408926,0.750515,-9.79157,-4.31021,-2.37053,-61.612
2023-02-17 00:35:20:197,-0.34707,0.732801,-9.7836,-4.3054,-2.36972,-61.6081
2023-02-17 00:35:20:207,-0.325317,0.720921,-9.77695,-4.30046,-2.36972,-61.6032
2023-02-17 00:35:20:217,-0.356725,0.709666,-9.74848,-4.29125,-2.3783,-61.5989
2023-02-17 00:35:20:227,-0.405529,0.701199,-9.70954,-4.2862,-2.39069,-61.5943
2023-02-17 00:35:20:237,-0.443683,0.706641,-9.69863,-4.28162,-2.40544,-61.593
2023-02-17 00:35:20:247,-0.46758,0.715742,-9.69152,-4.28161,-2.41527,-61.5925
2023-02-17 00:35:20:257,-0.452219,0.72494,-9.70577,-4.2842,-2.42283,-61.5959
2023-02-17 00:35:20:267,-0.426208,0.742971,-9.71903,-4.28664,-2.4306,-61.598
2023-02-17 00:35:20:277,-0.396191,0.761297,-9.73454,-4.29884,-2.4358,-61.5953
2023-02-17 00:35:20:287,-0.392291,0.786105,-9.75109,-4.30528,-2.43733,-61.5902
2023-02-17 00:35:20:297,-0.431069,0.801721,-9.75109,-4.31252,-2.44189,-61.5856
2023-02-17 00:35:20:307,-0.452806,0.804039,-9.74041,-4.31849,-2.44107,-61.5811
2023-02-17 00:35:20:317,-0.452084,0.811063,-9.73493,-4.31973,-2.43933,-61.5762
2023-02-17 00:35:20:327,-0.457557,0.79726,-9.73602,-4.32038,-2.43682,-61.5708
2023-02-17 00:35:20:337,-0.460798,0.792392,-9.73231,-4.31912,-2.42876,-61.5702
2023-02-17 00:35:20:347,-0.454232,0.781065,-9.73597,-4.31639,-2.41956,-61.5691
2023-02-17 00:35:20:357,-0.419262,0.763237,-9.73146,-4.30946,-2.41579,-61.5677
2023-02-17 00:35:20:367,-0.406677,0.755909,-9.74243,-4.30612,-2.41006,-61.5677
2023-02-17 00:35:20:377,-0.403171,0.763375,-9.75155,-4.30489,-2.40616,-61.5717
2023-02-17 00:35:20:387,-0.397192,0.763481,-9.75875,-4.30328,-2.40545,-61.5763
2023-02-17 00:35:20:397,-0.406076,0.765692,-9.76272,-4.30194,-2.40668,-61.5809
2023-02-17 00:35:20:407,-0.409785,0.767051,-9.77381,-4.29993,-2.40813,-61.5893
2023-02-17 00:35:20:417,-0.414163,0.770078,-9.77582,-4.29485,-2.41024,-61.5994
2023-02-17 00:35:20:427,-0.394246,0.760214,-9.78774,-4.29084,-2.40677,-61.6049
2023-02-17 00:35:20:437,-0.369135,0.74428,-9.76626,-4.28699,-2.40395,-61.6112
2023-02-17 00:35:20:447,-0.357658,0.742062,-9.76336,-4.28396,-2.4032,-61.6132
2023-02-17 00:35:20:457,-0.348464,0.738233,-9.74031,-4.28251,-2.40464,-61.6141
2023-02-17 00:35:20:467,-0.370352,0.744177,-9.73703,-4.28149,-2.40413,-61.6113
2023-02-17 00:35:20:477,-0.405047,0.753644,-9.73419,-4.28084,-2.40775,-61.6048
2023-02-17 00:35:20:487,-0.424352,0.757676,-9.7414,-4.28199,-2.40969,-61.6032
2023-02-17 00:35:20:497,-0.427336,0.772104,-9.74152,-4.27851,-2.40497,-61.5985
2023-02-17 00:35:20:507,-0.416249,0.785488,-9.7426,-4.27964,-2.39789,-61.5994
2023-02-17 00:35:20:517,-0.410908,0.794792,-9.7414,-4.27883,-2.39359,-61.5955
2023-02-17 00:35:20:527,-0.414584,0.787074,-9.74416,-4.27682,-2.39029,-61.5916
2023-02-17 00:35:20:537,-0.432364,0.788272,-9.74382,-4.27602,-2.3849,-61.5895
2023-02-17 00:35:20:547,-0.464284,0.782544,-9.73673,-4.27344,-2.37699,-61.5908
2023-02-17 00:35:20:557,-0.459129,0.774886,-9.74193,-4.27019,-2.37077,-61.5979
2023-02-17 00:35:20:567,-0.443772,0.759154,-9.74591,-4.26701,-2.36762,-61.6046
2023-02-17 00:35:20:577,-0.437714,0.739897,-9.76901,-4.25821,-2.3618,-61.6113
2023-02-17 00:35:20:587,-0.429365,0.751818,-9.77199,-4.247,-2.35795,-61.6195
2023-02-17 00:35:20:597,-0.411031,0.749734,-9.76316,-4.23752,-2.35918,-61.6314
2023-02-17 00:35:20:607,-0.412823,0.7318,-9.75924,-4.22809,-2.35759,-61.6433
2023-02-17 00:35:20:617,-0.404446,0.724478,-9.75296,-4.21697,-2.35775,-61.6549
2023-02-17 00:35:20:627,-0.376523,0.722572,-9.74221,-4.20412,-2.35909,-61.6622
2023-02-17 00:35:20:637,-0.36581,0.719535,-9.7311,-4.19523,-2.35886,-61.6719
2023-02-17 00:35:20:647,-0.363567,0.706455,-9.74356,-4.18376,-2.35462,-61.6785
2023-02-17 00:35:20:657,-0.357199,0.700744,-9.74628,-4.17548,-2.35123,-61.6875
2023-02-17 00:35:20:667,-0.334923,0.699302,-9.72629,-4.17197,-2.35034,-61.6942
2023-02-17 00:35:20:677,-0.329667,0.698929,-9.73349,-4.16538,-2.3464,-61.6948
2023-02-17 00:35:20:687,-0.339078,0.712156,-9.73313,-4.15972,-2.3442,-61.6938
2023-02-17 00:35:20:697,-0.342521,0.722168,-9.74426,-4.15639,-2.34179,-61.6888
2023-02-17 00:35:20:707,-0.339039,0.719777,-9.74323,-4.15312,-2.34209,-61.6841
2023-02-17 00:35:20:717,-0.36157,0.721765,-9.74353,-4.15101,-2.34422,-61.6794
2023-02-17 00:35:20:727,-0.375741,0.725536,-9.74226,-4.14897,-2.34331,-61.678
2023-02-17 00:35:20:737,-0.384201,0.734473,-9.7367,-4.14527,-2.34554,-61.6727
2023-02-17 00:35:20:747,-0.392243,0.73431,-9.74748,-4.13785,-2.34648,-61.6691
2023-02-17 00:35:20:757,-0.399449,0.72296,-9.7424,-4.13297,-2.35077,-61.6638
2023-02-17 00:35:20:767,-0.395777,0.716412,-9.72925,-4.12883,-2.34858,-61.6589
2023-02-17 00:35:20:777,-0.391498,0.713029,-9.73083,-4.12298,-2.35114,-61.6556
2023-02-17 00:35:20:787,-0.394046,0.695017,-9.74783,-4.12211,-2.35665,-61.6557
2023-02-17 00:35:20:797,-0.395934,0.706918,-9.74316,-4.12258,-2.36112,-61.6513
2023-02-17 00:35:20:807,-0.396853,0.69536,-9.74594,-4.12061,-2.36202,-61.6505
2023-02-17 00:35:20:817,-0.399685,0.694359,-9.75004,-4.11397,-2.36098,-61.6495
2023-02-17 00:35:20:827,-0.404414,0.702049,-9.74061,-4.11066,-2.36282,-61.6497
2023-02-17 00:35:20:837,-0.404067,0.704735,-9.73471,-4.10967,-2.36234,-61.6494
2023-02-17 00:35:20:847,-0.404626,0.696112,-9.73077,-4.10617,-2.36168,-61.6491
2023-02-17 00:35:20:857,-0.406961,0.69321,-9.733,-4.10277,-2.36198,-61.6505
2023-02-17 00:35:20:867,-0.403048,0.694138,-9.7371,-4.102,-2.36094,-61.6504
2023-02-17 00:35:20:877,-0.398392,0.689554,-9.71911,-4.10132,-2.3574,-61.6518
2023-02-17 00:35:20:887,-0.411258,0.679626,-9.70586,-4.10165,-2.35949,-61.6503
2023-02-17 00:35:20:897,-0.421392,0.659373,-9.70143,-4.10072,-2.35853,-61.6484
2023-02-17 00:35:20:907,-0.419747,0.646665,-9.69619,-4.10158,-2.35722,-61.6461
2023-02-17 00:35:20:917,-0.412325,0.663309,-9.70074,-4.10562,-2.3569,-61.6448
2023-02-17 00:35:20:927,-0.418553,0.680688,-9.71268,-4.1121,-2.35398,-61.6458
2023-02-17 00:35:20:937,-0.417112,0.690117,-9.72785,-4.11785,-2.34995,-61.6439
2023-02-17 00:35:20:947,-0.3978,0.685459,-9.71901,-4.12271,-2.34722,-61.6453
2023-02-17 00:35:20:957,-0.407355,0.696201,-9.70833,-4.13412,-2.34246,-61.6452
2023-02-17 00:35:20:967,-0.421371,0.702241,-9.69427,-4.14404,-2.34176,-61.65
2023-02-17 00:35:20:977,-0.4369,0.684958,-9.70984,-4.15429,-2.33615,-61.6552
2023-02-17 00:35:20:987,-0.432547,0.696403,-9.76448,-4.16401,-2.32582,-61.6588
2023-02-17 00:35:20:997,-0.401513,0.690814,-9.81461,-4.17278,-2.31325,-61.6663
2023-02-17 00:35:21:7,-0.35323,0.681902,-9.80833,-4.18468,-2.30032,-61.6705
2023-02-17 00:35:21:17,-0.299822,0.692419,-9.79871,-4.19045,-2.2944,-61.6752
2023-02-17 00:35:21:27,-0.295442,0.705217,-9.783,-4.19511,-2.29166,-61.6755
2023-02-17 00:35:21:37,-0.340147,0.695958,-9.72292,-4.20779,-2.29411,-61.6766
2023-02-17 00:35:21:47,-0.394124,0.718848,-9.7047,-4.22531,-2.29563,-61.6825
2023-02-17 00:35:21:57,-0.421496,0.751786,-9.71415,-4.24104,-2.29334,-61.6937
2023-02-17 00:35:21:67,-0.405643,0.766892,-9.73217,-4.25678,-2.29789,-61.7017
2023-02-17 00:35:21:77,-0.369879,0.784695,-9.75365,-4.27542,-2.29522,-61.7082
2023-02-17 00:35:21:87,-0.347737,0.791423,-9.7669,-4.29849,-2.28982,-61.7141
2023-02-17 00:35:21:97,-0.336853,0.795967,-9.75941,-4.31795,-2.2862,-61.7222
2023-02-17 00:35:21:107,-0.329743,0.807074,-9.73405,-4.33565,-2.28208,-61.7253
2023-02-17 00:35:21:117,-0.358509,0.82,-9.71929,-4.35609,-2.27664,-61.726
2023-02-17 00:35:21:127,-0.37805,0.840965,-9.72365,-4.37288,-2.27401,-61.734
2023-02-17 00:35:21:137,-0.371648,0.838911,-9.74051,-4.38614,-2.27023,-61.7414
2023-02-17 00:35:21:147,-0.379755,0.836405,-9.77368,-4.39372,-2.26557,-61.746
2023-02-17 00:35:21:157,-0.387128,0.852875,-9.79991,-4.40426,-2.26022,-61.7532
2023-02-17 00:35:21:167,-0.367509,0.838197,-9.82317,-4.40959,-2.25737,-61.7582
2023-02-17 00:35:21:177,-0.361399,0.82246,-9.82599,-4.415,-2.25432,-61.763
2023-02-17 00:35:21:187,-0.347396,0.814095,-9.81035,-4.41576,-2.24804,-61.7694
2023-02-17 00:35:21:197,-0.337923,0.807389,-9.78631,-4.41529,-2.24231,-61.772
2023-02-17 00:35:21:207,-0.350283,0.771119,-9.75849,-4.41431,-2.24066,-61.7713
2023-02-17 00:35:21:217,-0.370822,0.758821,-9.75124,-4.41052,-2.2373,-61.7761
2023-02-17 00:35:21:227,-0.37353,0.747309,-9.75756,-4.40765,-2.23619,-61.7782
2023-02-17 00:35:21:237,-0.34435,0.75675,-9.75086,-4.40549,-2.23171,-61.7852
2023-02-17 00:35:21:247,-0.32467,0.749726,-9.72724,-4.40345,-2.22537,-61.7895
2023-02-17 00:35:21:257,-0.297633,0.74774,-9.72687,-4.40274,-2.22481,-61.7886
2023-02-17 00:35:21:267,-0.297138,0.743396,-9.70802,-4.40363,-2.22265,-61.7863
2023-02-17 00:35:21:277,-0.312136,0.746424,-9.69944,-4.4068,-2.22687,-61.7845
2023-02-17 00:35:21:287,-0.347839,0.752225,-9.69325,-4.41119,-2.22934,-61.7866
2023-02-17 00:35:21:297,-0.36413,0.75919,-9.69311,-4.41819,-2.23129,-61.7858
2023-02-17 00:35:21:307,-0.372102,0.771685,-9.69504,-4.42479,-2.23194,-61.7886
2023-02-17 00:35:21:317,-0.354808,0.784024,-9.70657,-4.43498,-2.2358,-61.789
2023-02-17 00:35:21:327,-0.353776,0.799334,-9.72767,-4.44502,-2.23704,-61.7875
2023-02-17 00:35:21:337,-0.352583,0.809809,-9.74243,-4.45574,-2.23422,-61.7824
2023-02-17 00:35:21:347,-0.346862,0.811821,-9.75102,-4.46704,-2.23586,-61.7745
2023-02-17 00:35:21:357,-0.355108,0.816374,-9.774,-4.47652,-2.23828,-61.7699
2023-02-17 00:35:21:367,-0.371824,0.835976,-9.77863,-4.48413,-2.23798,-61.7684
2023-02-17 00:35:21:377,-0.378399,0.837695,-9.76242,-4.49165,-2.23897,-61.7646
2023-02-17 00:35:21:387,-0.389332,0.8437,-9.7677,-4.49784,-2.2429,-61.7634
2023-02-17 00:35:21:397,-0.392107,0.832765,-9.77234,-4.50106,-2.24553,-61.7662
2023-02-17 00:35:21:407,-0.401551,0.819901,-9.75506,-4.50254,-2.24964,-61.7683
2023-02-17 00:35:21:417,-0.401309,0.802328,-9.74726,-4.50674,-2.2527,-61.7756
2023-02-17 00:35:21:427,-0.391126,0.79238,-9.74878,-4.51065,-2.25808,-61.7828
2023-02-17 00:35:21:437,-0.37675,0.801316,-9.74459,-4.51748,-2.26127,-61.7871
2023-02-17 00:35:21:447,-0.373529,0.808914,-9.72689,-4.52351,-2.26858,-61.7959
2023-02-17 00:35:21:457,-0.369896,0.814658,-9.73037,-4.52875,-2.27325,-61.801
2023-02-17 00:35:21:467,-0.378121,0.811487,-9.7353,-4.52936,-2.27807,-61.8023
2023-02-17 00:35:21:477,-0.39326,0.822112,-9.73933,-4.53059,-2.28523,-61.8084
2023-02-17 00:35:21:487,-0.377502,0.826463,-9.74861,-4.53352,-2.28664,-61.8109
2023-02-17 00:35:21:497,-0.380392,0.832031,-9.75372,-4.53773,-2.28789,-61.8097
2023-02-17 00:35:21:507,-0.380846,0.829884,-9.75192,-4.53892,-2.28789,-61.8097
2023-02-17 00:35:21:517,-0.392413,0.834171,-9.74597,-4.54323,-2.28873,-61.8108
2023-02-17 00:35:21:527,-0.406404,0.837465,-9.75413,-4.542,-2.28827,-61.812
2023-02-17 00:35:21:537,-0.405841,0.83134,-9.74802,-4.54144,-2.28588,-61.8102
2023-02-17 00:35:21:547,-0.413426,0.834066,-9.73772,-4.54156,-2.28626,-61.8094
2023-02-17 00:35:21:557,-0.423542,0.840779,-9.74017,-4.54045,-2.28497,-61.8132
2023-02-17 00:35:21:567,-0.420901,0.827764,-9.74313,-4.53943,-2.28348,-61.8172
2023-02-17 00:35:21:577,-0.419533,0.831799,-9.7499,-4.53916,-2.28159,-61.821
2023-02-17 00:35:21:587,-0.399195,0.821304,-9.74998,-4.53787,-2.27896,-61.8287
2023-02-17 00:35:21:597,-0.376373,0.801944,-9.75694,-4.53629,-2.27595,-61.8368
2023-02-17 00:35:21:607,-0.37981,0.798982,-9.74618,-4.5327,-2.27293,-61.8474
2023-02-17 00:35:21:617,-0.377802,0.805443,-9.71879,-4.53085,-2.27122,-61.8566
2023-02-17 00:35:21:627,-0.36626,0.792816,-9.73517,-4.52807,-2.26986,-61.8618
2023-02-17 00:35:21:637,-0.367291,0.790165,-9.73531,-4.52341,-2.26944,-61.8729
2023-02-17 00:35:21:647,-0.368765,0.773931,-9.73042,-4.52086,-2.26564,-61.8804
2023-02-17 00:35:21:657,-0.370543,0.784081,-9.7238,-4.51771,-2.26521,-61.8869
2023-02-17 00:35:21:667,-0.361946,0.787708,-9.7218,-4.51877,-2.26463,-61.8947
2023-02-17 00:35:21:677,-0.35528,0.795533,-9.71622,-4.51833,-2.26216,-61.9006
2023-02-17 00:35:21:687,-0.357994,0.799335,-9.7322,-4.52176,-2.25981,-61.9049
2023-02-17 00:35:21:697,-0.363068,0.805212,-9.74946,-4.51972,-2.25789,-61.9095
2023-02-17 00:35:21:707,-0.352702,0.822227,-9.75834,-4.52249,-2.25494,-61.9133
2023-02-17 00:35:21:717,-0.34804,0.803992,-9.75246,-4.52193,-2.2507,-61.9161
2023-02-17 00:35:21:727,-0.351183,0.793796,-9.73988,-4.52217,-2.24618,-61.9176
2023-02-17 00:35:21:737,-0.373882,0.79547,-9.7081,-4.51802,-2.2446,-61.9142
2023-02-17 00:35:21:747,-0.383361,0.782234,-9.7292,-4.51285,-2.24036,-61.914
2023-02-17 00:35:21:757,-0.387362,0.775958,-9.75323,-4.51073,-2.23489,-61.9153
2023-02-17 00:35:21:767,-0.376672,0.761504,-9.76659,-4.50461,-2.22807,-61.9195
2023-02-17 00:35:21:777,-0.311914,0.75896,-9.76765,-4.50094,-2.22085,-61.9199
2023-02-17 00:35:21:787,-0.27105,0.765841,-9.76097,-4.49762,-2.21962,-61.9183
2023-02-17 00:35:21:797,-0.267253,0.757241,-9.75439,-4.49637,-2.22349,-61.9138
2023-02-17 00:35:21:807,-0.30314,0.756672,-9.73243,-4.49159,-2.22941,-61.9093
2023-02-17 00:35:21:817,-0.336963,0.759046,-9.70296,-4.49207,-2.23689,-61.9053
2023-02-17 00:35:21:827,-0.388903,0.769774,-9.70254,-4.49499,-2.24744,-61.9047
2023-02-17 00:35:21:837,-0.391631,0.785827,-9.70999,-4.50153,-2.25673,-61.9077
2023-02-17 00:35:21:847,-0.36511,0.787907,-9.73283,-4.50904,-2.26058,-61.908
2023-02-17 00:35:21:857,-0.331469,0.786323,-9.74275,-4.51536,-2.26265,-61.9009
2023-02-17 00:35:21:867,-0.317816,0.819703,-9.74972,-4.5267,-2.266,-61.8957
2023-02-17 00:35:21:877,-0.339764,0.834866,-9.75816,-4.53529,-2.26901,-61.886
2023-02-17 00:35:21:887,-0.37071,0.857949,-9.74676,-4.54272,-2.27025,-61.8765
2023-02-17 00:35:21:897,-0.3902,0.861458,-9.74747,-4.54779,-2.27053,-61.868
2023-02-17 00:35:21:907,-0.408838,0.856145,-9.76032,-4.55186,-2.26978,-61.8624
2023-02-17 00:35:21:917,-0.429353,0.858385,-9.76952,-4.55544,-2.26823,-61.8564
2023-02-17 00:35:21:927,-0.438696,0.870299,-9.77257,-4.55722,-2.2654,-61.85
2023-02-17 00:35:21:937,-0.437313,0.861214,-9.76653,-4.55149,-2.26034,-61.8528
2023-02-17 00:35:21:947,-0.43085,0.855659,-9.77932,-4.54477,-2.25566,-61.8527
2023-02-17 00:35:21:957,-0.42232,0.827681,-9.77991,-4.53567,-2.25541,-61.8551
2023-02-17 00:35:21:967,-0.411365,0.819973,-9.76165,-4.52779,-2.25541,-61.8623
2023-02-17 00:35:21:977,-0.410233,0.806598,-9.73944,-4.52093,-2.25478,-61.8673
2023-02-17 00:35:21:987,-0.424189,0.788878,-9.73879,-4.5098,-2.2558,-61.8766
2023-02-17 00:35:21:997,-0.428934,0.785075,-9.75285,-4.49969,-2.2604,-61.8904
2023-02-17 00:35:22:7,-0.409243,0.767806,-9.74802,-4.49109,-2.26041,-61.9051
2023-02-17 00:35:22:17,-0.357705,0.758468,-9.73512,-4.48343,-2.25821,-61.9181
2023-02-17 00:35:22:27,-0.321454,0.762403,-9.74703,-4.4791,-2.25779,-61.9298
2023-02-17 00:35:22:37,-0.285384,0.747859,-9.75286,-4.4723,-2.25878,-61.9353
2023-02-17 00:35:22:47,-0.2988,0.744332,-9.73201,-4.46373,-2.25841,-61.9375
2023-02-17 00:35:22:57,-0.32449,0.737592,-9.71044,-4.4581,-2.26133,-61.9372
2023-02-17 00:35:22:67,-0.345841,0.7384,-9.70365,-4.45492,-2.26358,-61.9379
2023-02-17 00:35:22:77,-0.362664,0.726287,-9.69337,-4.45488,-2.26331,-61.9369
2023-02-17 00:35:22:87,-0.363282,0.733901,-9.69405,-4.45204,-2.2663,-61.9335
2023-02-17 00:35:22:97,-0.365332,0.748774,-9.69865,-4.45315,-2.26512,-61.9299
2023-02-17 00:35:22:107,-0.357718,0.767779,-9.71872,-4.45604,-2.26019,-61.9243
2023-02-17 00:35:22:117,-0.361959,0.771258,-9.73508,-4.46057,-2.25515,-61.9186
2023-02-17 00:35:22:127,-0.363024,0.784312,-9.73676,-4.46446,-2.25202,-61.9131
2023-02-17 00:35:22:137,-0.376044,0.797528,-9.75819,-4.4675,-2.245,-61.913
2023-02-17 00:35:22:147,-0.370697,0.796419,-9.77797,-4.47095,-2.24328,-61.911
2023-02-17 00:35:22:157,-0.368873,0.800183,-9.7677,-4.47222,-2.23869,-61.9097
2023-02-17 00:35:22:167,-0.375585,0.795386,-9.76558,-4.47045,-2.23611,-61.9121
2023-02-17 00:35:22:177,-0.363545,0.795219,-9.75742,-4.46824,-2.23455,-61.9149
2023-02-17 00:35:22:187,-0.352307,0.764376,-9.76526,-4.46499,-2.23377,-61.9168
2023-02-17 00:35:22:197,-0.340842,0.756204,-9.75486,-4.46138,-2.23158,-61.9196
2023-02-17 00:35:22:207,-0.332049,0.765273,-9.73317,-4.45857,-2.2318,-61.9233
2023-02-17 00:35:22:217,-0.331164,0.755111,-9.73037,-4.45823,-2.23374,-61.9266
2023-02-17 00:35:22:227,-0.341034,0.753758,-9.73952,-4.45679,-2.23309,-61.9264
2023-02-17 00:35:22:237,-0.332672,0.751092,-9.75306,-4.45829,-2.23505,-61.9254
2023-02-17 00:35:22:247,-0.333288,0.76032,-9.74182,-4.45841,-2.23974,-61.923
2023-02-17 00:35:22:257,-0.312837,0.760112,-9.73829,-4.45583,-2.24244,-61.9181
2023-02-17 00:35:22:267,-0.330381,0.751791,-9.73572,-4.45453,-2.24432,-61.911
2023-02-17 00:35:22:277,-0.341095,0.759018,-9.74327,-4.45168,-2.2485,-61.9021
2023-02-17 00:35:22:287,-0.335112,0.764544,-9.73371,-4.44969,-2.2522,-61.8935
2023-02-17 00:35:22:297,-0.358711,0.762806,-9.72988,-4.44978,-2.25291,-61.8828
2023-02-17 00:35:22:307,-0.365886,0.751484,-9.73089,-4.44985,-2.25461,-61.8751
2023-02-17 00:35:22:317,-0.372549,0.762874,-9.73006,-4.45107,-2.25535,-61.8669
2023-02-17 00:35:22:327,-0.380411,0.77628,-9.73816,-4.45348,-2.25922,-61.858
2023-02-17 00:35:22:337,-0.390339,0.776479,-9.74227,-4.45547,-2.26074,-61.851
2023-02-17 00:35:22:347,-0.399383,0.784827,-9.76162,-4.45746,-2.26306,-61.8459
2023-02-17 00:35:22:357,-0.392741,0.78527,-9.76673,-4.46154,-2.26503,-61.8407
