Timestamp,Acceleration_x,Acceleration_y,Acceleration_z,roll,pitch,yaw
2023-02-16 00:39:45:346,-2.63657,1.56208,-9.31474,-9.41128,-15.5315,94.1169
2023-02-16 00:39:45:355,-2.66898,1.56248,-9.32463,-9.39118,-15.529,94.112
2023-02-16 00:39:45:365,-2.71845,1.56913,-9.31051,-9.36689,-15.5223,94.1075
2023-02-16 00:39:45:375,-2.68484,1.55495,-9.31169,-9.34443,-15.5117,94.095
2023-02-16 00:39:45:385,-2.57843,1.5328,-9.34101,-9.31777,-15.5034,94.0772
2023-02-16 00:39:45:395,-2.52055,1.52126,-9.34343,-9.28529,-15.4969,94.0565
2023-02-16 00:39:45:405,-2.51926,1.48062,-9.32376,-9.24956,-15.489,94.0441
2023-02-16 00:39:45:415,-2.54349,1.46302,-9.28559,-9.2168,-15.4837,94.0382
2023-02-16 00:39:45:425,-2.57796,1.44302,-9.28798,-9.18572,-15.4797,94.0335
2023-02-16 00:39:45:435,-2.60962,1.44673,-9.33546,-9.15614,-15.4744,94.0253
2023-02-16 00:39:45:445,-2.55963,1.45598,-9.36598,-9.12906,-15.4697,94.0187
2023-02-16 00:39:45:455,-2.51594,1.42005,-9.31707,-9.098,-15.4671,94.0152
2023-02-16 00:39:45:465,-2.49672,1.36184,-9.25716,-9.06853,-15.4651,94.0114
2023-02-16 00:39:45:475,-2.49383,1.34628,-9.24811,-9.04446,-15.4642,94.0159
2023-02-16 00:39:45:485,-2.5024,1.37907,-9.25923,-9.02624,-15.4629,94.0202
2023-02-16 00:39:45:495,-2.50917,1.41219,-9.27734,-9.01056,-15.4625,94.023
2023-02-16 00:39:45:505,-2.47239,1.41827,-9.30274,-8.9959,-15.4652,94.0275
2023-02-16 00:39:45:515,-2.44764,1.4156,-9.30689,-8.98553,-15.4702,94.0331
2023-02-16 00:39:45:525,-2.44189,1.3933,-9.29831,-8.96999,-15.4797,94.0449
2023-02-16 00:39:45:535,-2.41027,1.36775,-9.26484,-8.95788,-15.4901,94.0622
2023-02-16 00:39:45:545,-2.36887,1.34414,-9.24234,-8.95165,-15.5021,94.0878
2023-02-16 00:39:45:555,-2.34052,1.33796,-9.27677,-8.95234,-15.5139,94.1226
2023-02-16 00:39:45:565,-2.34848,1.354,-9.29438,-8.95944,-15.525,94.1694
2023-02-16 00:39:45:575,-2.38519,1.3741,-9.31569,-8.96776,-15.5299,94.2247
2023-02-16 00:39:45:585,-2.39696,1.41174,-9.35235,-8.98032,-15.536,94.2905
2023-02-16 00:39:45:595,-2.38599,1.44347,-9.376,-8.98921,-15.543,94.3635
2023-02-16 00:39:45:605,-2.3832,1.467,-9.38175,-9.00256,-15.5415,94.4489
2023-02-16 00:39:45:615,-2.36315,1.47251,-9.3746,-9.01333,-15.5386,94.545
2023-02-16 00:39:45:625,-2.32685,1.47604,-9.35584,-9.0264,-15.5324,94.6554
2023-02-16 00:39:45:635,-2.30497,1.47718,-9.35494,-9.03957,-15.5268,94.7804
2023-02-16 00:39:45:645,-2.32589,1.47523,-9.35683,-9.056,-15.5231,94.9168
2023-02-16 00:39:45:655,-2.3946,1.49228,-9.34605,-9.07649,-15.5191,95.0684
2023-02-16 00:39:45:665,-2.45519,1.5124,-9.33213,-9.09254,-15.5158,95.2264
2023-02-16 00:39:45:675,-2.54925,1.51828,-9.32282,-9.11137,-15.5099,95.3876
2023-02-16 00:39:45:685,-2.60227,1.53018,-9.33645,-9.13066,-15.5002,95.5557
2023-02-16 00:39:45:695,-2.6619,1.54577,-9.33842,-9.14522,-15.4914,95.7236
2023-02-16 00:39:45:705,-2.69625,1.54625,-9.30642,-9.15472,-15.4817,95.8829
2023-02-16 00:39:45:715,-2.71305,1.5227,-9.27114,-9.1663,-15.4749,96.0411
2023-02-16 00:39:45:725,-2.74408,1.50481,-9.27227,-9.17802,-15.4737,96.1913
2023-02-16 00:39:45:735,-2.80421,1.53344,-9.26635,-9.19069,-15.4733,96.3325
2023-02-16 00:39:45:745,-2.83269,1.55819,-9.2682,-9.20255,-15.4715,96.4642
2023-02-16 00:39:45:755,-2.82039,1.57181,-9.28998,-9.21676,-15.4736,96.5852
2023-02-16 00:39:45:765,-2.8264,1.59837,-9.2985,-9.22454,-15.4796,96.6897
2023-02-16 00:39:45:775,-2.85053,1.60538,-9.28059,-9.23195,-15.4904,96.7835
2023-02-16 00:39:45:785,-2.848,1.5997,-9.25851,-9.23533,-15.5043,96.8617
2023-02-16 00:39:45:795,-2.85018,1.58575,-9.23902,-9.24048,-15.5218,96.9339
2023-02-16 00:39:45:805,-2.86937,1.5416,-9.21758,-9.24157,-15.5381,96.9886
2023-02-16 00:39:45:815,-2.85216,1.52588,-9.23064,-9.24666,-15.5563,97.0323
2023-02-16 00:39:45:825,-2.80305,1.54022,-9.24437,-9.25545,-15.5751,97.0635
2023-02-16 00:39:45:835,-2.75656,1.54952,-9.23655,-9.2603,-15.5959,97.0871
2023-02-16 00:39:45:845,-2.78052,1.54782,-9.21631,-9.26769,-15.6194,97.1042
2023-02-16 00:39:45:855,-2.80892,1.56578,-9.24573,-9.27733,-15.6461,97.1124
2023-02-16 00:39:45:865,-2.79328,1.59163,-9.29536,-9.28819,-15.6678,97.1114
2023-02-16 00:39:45:875,-2.73771,1.5922,-9.31713,-9.29406,-15.6883,97.1061
2023-02-16 00:39:45:885,-2.67931,1.59049,-9.31384,-9.29695,-15.703,97.0947
2023-02-16 00:39:45:895,-2.63911,1.59669,-9.32224,-9.29834,-15.718,97.0878
2023-02-16 00:39:45:905,-2.63053,1.58441,-9.31383,-9.29739,-15.7295,97.0825
2023-02-16 00:39:45:915,-2.61852,1.57106,-9.2897,-9.2977,-15.7387,97.0775
2023-02-16 00:39:45:925,-2.61754,1.55197,-9.26973,-9.29575,-15.7484,97.0748
2023-02-16 00:39:45:935,-2.6948,1.5439,-9.27359,-9.29343,-15.7531,97.0786
2023-02-16 00:39:45:945,-2.76412,1.56009,-9.29056,-9.28925,-15.7527,97.0803
2023-02-16 00:39:45:955,-2.73726,1.54694,-9.31269,-9.28704,-15.7548,97.0758
2023-02-16 00:39:45:965,-2.68349,1.51399,-9.33573,-9.28427,-15.7576,97.075
2023-02-16 00:39:45:975,-2.66386,1.53152,-9.35135,-9.28536,-15.761,97.0662
2023-02-16 00:39:45:985,-2.66676,1.5516,-9.33536,-9.28692,-15.7716,97.0587
2023-02-16 00:39:45:995,-2.67754,1.54991,-9.31568,-9.28945,-15.7903,97.0514
2023-02-16 00:39:46:5,-2.69709,1.56821,-9.30128,-9.28943,-15.8084,97.0457
2023-02-16 00:39:46:15,-2.76757,1.60317,-9.29642,-9.29192,-15.8279,97.038
2023-02-16 00:39:46:25,-2.81299,1.60051,-9.2853,-9.28883,-15.8449,97.0321
2023-02-16 00:39:46:35,-2.85491,1.60655,-9.23799,-9.28387,-15.8631,97.0212
2023-02-16 00:39:46:45,-2.86655,1.59407,-9.21297,-9.27265,-15.8819,97.001
2023-02-16 00:39:46:55,-2.85242,1.57026,-9.21519,-9.25683,-15.8976,96.9706
2023-02-16 00:39:46:65,-2.86639,1.54843,-9.18604,-9.2433,-15.918,96.9329
2023-02-16 00:39:46:75,-2.90983,1.52241,-9.18789,-9.23065,-15.9376,96.8898
2023-02-16 00:39:46:85,-2.89932,1.54408,-9.23834,-9.22221,-15.9503,96.8387
2023-02-16 00:39:46:95,-2.86268,1.57186,-9.30745,-9.21392,-15.9655,96.777
2023-02-16 00:39:46:105,-2.8036,1.59676,-9.33506,-9.19721,-15.9829,96.7075
2023-02-16 00:39:46:115,-2.68865,1.58143,-9.32376,-9.17929,-15.9958,96.6373
2023-02-16 00:39:46:125,-2.62054,1.5557,-9.33626,-9.16059,-16.0112,96.5658
2023-02-16 00:39:46:135,-2.61988,1.54741,-9.3411,-9.14046,-16.0277,96.5014
2023-02-16 00:39:46:145,-2.62349,1.52459,-9.32601,-9.1216,-16.0475,96.4449
2023-02-16 00:39:46:155,-2.59909,1.51989,-9.29215,-9.10307,-16.0588,96.3922
2023-02-16 00:39:46:165,-2.60572,1.52308,-9.27334,-9.0921,-16.0686,96.3507
2023-02-16 00:39:46:175,-2.60337,1.51591,-9.29833,-9.0802,-16.0724,96.3157
2023-02-16 00:39:46:185,-2.57809,1.51634,-9.32803,-9.06613,-16.0694,96.2854
2023-02-16 00:39:46:195,-2.56051,1.51325,-9.31311,-9.0509,-16.0631,96.2604
2023-02-16 00:39:46:205,-2.5312,1.47885,-9.30513,-9.03432,-16.0542,96.2431
2023-02-16 00:39:46:215,-2.47713,1.46203,-9.32654,-9.0179,-16.0494,96.232
2023-02-16 00:39:46:225,-2.50746,1.45563,-9.32263,-9.00321,-16.0442,96.2317
2023-02-16 00:39:46:235,-2.58831,1.47092,-9.29086,-8.98667,-16.0378,96.2426
2023-02-16 00:39:46:245,-2.64477,1.47647,-9.26457,-8.97392,-16.0311,96.2566
2023-02-16 00:39:46:255,-2.67919,1.47291,-9.25648,-8.96739,-16.0268,96.2725
2023-02-16 00:39:46:265,-2.69656,1.47063,-9.30206,-8.95989,-16.0229,96.2868
2023-02-16 00:39:46:275,-2.71065,1.48068,-9.31698,-8.95391,-16.0209,96.3007
2023-02-16 00:39:46:285,-2.72609,1.49358,-9.32776,-8.94751,-16.0226,96.3153
2023-02-16 00:39:46:295,-2.75069,1.48956,-9.3188,-8.93555,-16.02,96.3283
2023-02-16 00:39:46:305,-2.72972,1.48027,-9.30736,-8.92471,-16.0158,96.3349
2023-02-16 00:39:46:315,-2.70167,1.48042,-9.32032,-8.91533,-16.0183,96.3385
2023-02-16 00:39:46:325,-2.67007,1.4743,-9.30568,-8.90263,-16.0231,96.3404
2023-02-16 00:39:46:335,-2.65301,1.45673,-9.29725,-8.88898,-16.0295,96.341
2023-02-16 00:39:46:345,-2.67748,1.4413,-9.26965,-8.87194,-16.0364,96.3379
2023-02-16 00:39:46:355,-2.70772,1.41945,-9.24318,-8.85875,-16.049,96.3352
2023-02-16 00:39:46:365,-2.74499,1.41722,-9.24959,-8.84591,-16.06,96.3319
2023-02-16 00:39:46:375,-2.78247,1.453,-9.27397,-8.83305,-16.0692,96.3261
2023-02-16 00:39:46:385,-2.77457,1.47028,-9.31172,-8.81748,-16.0782,96.3128
2023-02-16 00:39:46:395,-2.71338,1.4531,-9.31819,-8.79811,-16.0848,96.2952
2023-02-16 00:39:46:405,-2.65094,1.40792,-9.27585,-8.77812,-16.0896,96.276
2023-02-16 00:39:46:415,-2.63849,1.35499,-9.24707,-8.75889,-16.0962,96.2622
2023-02-16 00:39:46:425,-2.63406,1.34074,-9.21433,-8.74802,-16.103,96.2545
2023-02-16 00:39:46:435,-2.65493,1.36029,-9.23434,-8.73922,-16.1071,96.2493
2023-02-16 00:39:46:445,-2.6904,1.37647,-9.26522,-8.73366,-16.1132,96.2459
2023-02-16 00:39:46:455,-2.69809,1.38545,-9.26486,-8.73078,-16.1164,96.2427
2023-02-16 00:39:46:465,-2.70171,1.409,-9.26754,-8.73134,-16.1172,96.2411
2023-02-16 00:39:46:475,-2.70645,1.42949,-9.28163,-8.73026,-16.1148,96.2419
2023-02-16 00:39:46:485,-2.71607,1.45078,-9.28065,-8.73138,-16.1101,96.2386
2023-02-16 00:39:46:495,-2.71748,1.44905,-9.27644,-8.73152,-16.1076,96.2362
2023-02-16 00:39:46:505,-2.71362,1.43382,-9.23492,-8.7305,-16.1006,96.2337
2023-02-16 00:39:46:515,-2.69003,1.41233,-9.20642,-8.73207,-16.0884,96.2326
2023-02-16 00:39:46:525,-2.64099,1.39707,-9.22277,-8.73752,-16.0798,96.2295
2023-02-16 00:39:46:535,-2.6398,1.41851,-9.2392,-8.74878,-16.0707,96.2317
2023-02-16 00:39:46:545,-2.68671,1.46233,-9.29314,-8.7632,-16.0605,96.2365
2023-02-16 00:39:46:555,-2.68607,1.48747,-9.34918,-8.775,-16.0527,96.2421
2023-02-16 00:39:46:565,-2.69602,1.52636,-9.38912,-8.78585,-16.0475,96.247
2023-02-16 00:39:46:575,-2.69353,1.53199,-9.40712,-8.78851,-16.045,96.2525
2023-02-16 00:39:46:585,-2.66157,1.49565,-9.4011,-8.78863,-16.041,96.2538
2023-02-16 00:39:46:595,-2.63384,1.48841,-9.3654,-8.78575,-16.0413,96.2587
2023-02-16 00:39:46:605,-2.65341,1.47813,-9.34469,-8.78171,-16.0431,96.2626
2023-02-16 00:39:46:615,-2.65507,1.47106,-9.3362,-8.77911,-16.047,96.2663
2023-02-16 00:39:46:625,-2.66316,1.47708,-9.31489,-8.77673,-16.0524,96.2732
2023-02-16 00:39:46:635,-2.66625,1.46664,-9.29645,-8.77286,-16.0608,96.2761
2023-02-16 00:39:46:645,-2.66599,1.46715,-9.29265,-8.77158,-16.067,96.2811
2023-02-16 00:39:46:655,-2.67517,1.47172,-9.31181,-8.76959,-16.0738,96.2883
2023-02-16 00:39:46:665,-2.66693,1.47546,-9.32676,-8.76535,-16.0766,96.2999
2023-02-16 00:39:46:675,-2.65443,1.47744,-9.32074,-8.75786,-16.0834,96.3122
2023-02-16 00:39:46:685,-2.63721,1.44222,-9.29323,-8.7484,-16.0902,96.3266
2023-02-16 00:39:46:695,-2.64013,1.41898,-9.26127,-8.7392,-16.0932,96.3429
2023-02-16 00:39:46:705,-2.64798,1.40724,-9.2453,-8.73464,-16.0975,96.3631
2023-02-16 00:39:46:715,-2.66074,1.40612,-9.26416,-8.72989,-16.0997,96.3874
2023-02-16 00:39:46:725,-2.67655,1.41299,-9.29835,-8.72973,-16.1041,96.4121
2023-02-16 00:39:46:735,-2.67268,1.43589,-9.32156,-8.72619,-16.1028,96.4381
2023-02-16 00:39:46:745,-2.66457,1.45153,-9.32074,-8.72411,-16.1067,96.4674
2023-02-16 00:39:46:755,-2.66799,1.46135,-9.30607,-8.72567,-16.11,96.5012
2023-02-16 00:39:46:765,-2.64481,1.43014,-9.31021,-8.72241,-16.1151,96.5381
2023-02-16 00:39:46:775,-2.64484,1.40787,-9.29906,-8.71755,-16.1187,96.5739
2023-02-16 00:39:46:785,-2.67301,1.40436,-9.29412,-8.71368,-16.1195,96.61
2023-02-16 00:39:46:795,-2.68846,1.41522,-9.32981,-8.71161,-16.1201,96.6505
2023-02-16 00:39:46:805,-2.67105,1.42349,-9.34001,-8.71103,-16.1214,96.6928
2023-02-16 00:39:46:815,-2.64904,1.39499,-9.34529,-8.70661,-16.1205,96.7399
2023-02-16 00:39:46:825,-2.64326,1.39718,-9.32289,-8.70375,-16.1248,96.7881
2023-02-16 00:39:46:835,-2.66229,1.38962,-9.3042,-8.70321,-16.1324,96.8381
2023-02-16 00:39:46:845,-2.70112,1.38545,-9.26036,-8.7069,-16.1413,96.8965
2023-02-16 00:39:46:855,-2.72728,1.38849,-9.23948,-8.71356,-16.15,96.953
2023-02-16 00:39:46:865,-2.73614,1.41977,-9.24727,-8.7254,-16.1627,97.0131
2023-02-16 00:39:46:875,-2.75255,1.44743,-9.24635,-8.73761,-16.174,97.0722
2023-02-16 00:39:46:885,-2.77407,1.46681,-9.26789,-8.74681,-16.1834,97.1299
2023-02-16 00:39:46:895,-2.78955,1.50218,-9.27683,-8.75155,-16.1954,97.1829
2023-02-16 00:39:46:905,-2.79204,1.49806,-9.29058,-8.75257,-16.2075,97.2345
2023-02-16 00:39:46:915,-2.79395,1.49525,-9.27992,-8.7497,-16.2173,97.2852
2023-02-16 00:39:46:925,-2.83377,1.49218,-9.26123,-8.74587,-16.2307,97.3321
2023-02-16 00:39:46:935,-2.88229,1.49697,-9.27065,-8.74452,-16.2472,97.3757
2023-02-16 00:39:46:945,-2.92255,1.5211,-9.2895,-8.74467,-16.2658,97.4136
2023-02-16 00:39:46:955,-2.94136,1.53456,-9.28832,-8.74374,-16.2848,97.4452
2023-02-16 00:39:46:965,-2.96172,1.55713,-9.29333,-8.73965,-16.3011,97.4724
2023-02-16 00:39:46:975,-2.96299,1.58529,-9.33095,-8.73784,-16.3132,97.4928
2023-02-16 00:39:46:985,-2.9324,1.57209,-9.32958,-8.73262,-16.3301,97.5037
2023-02-16 00:39:46:995,-2.90278,1.58199,-9.306,-8.72861,-16.3534,97.5109
2023-02-16 00:39:47:5,-2.9022,1.61555,-9.3091,-8.72774,-16.3748,97.5175
2023-02-16 00:39:47:15,-2.92167,1.61452,-9.27667,-8.72194,-16.3976,97.5186
2023-02-16 00:39:47:25,-2.93607,1.57292,-9.19191,-8.71663,-16.4258,97.5136
2023-02-16 00:39:47:35,-2.96816,1.58662,-9.19116,-8.7054,-16.4406,97.5069
2023-02-16 00:39:47:45,-2.99963,1.61993,-9.28684,-8.69458,-16.4331,97.4996
2023-02-16 00:39:47:55,-2.91547,1.63745,-9.43186,-8.6682,-16.4081,97.4832
2023-02-16 00:39:47:65,-2.77517,1.6017,-9.47981,-8.62895,-16.3768,97.4606
2023-02-16 00:39:47:75,-2.66733,1.4745,-9.35929,-8.58829,-16.3611,97.4355
2023-02-16 00:39:47:85,-2.61696,1.37624,-9.23247,-8.55939,-16.352,97.4079
2023-02-16 00:39:47:95,-2.64689,1.47403,-9.35739,-8.53869,-16.3353,97.3879
2023-02-16 00:39:47:105,-2.60106,1.5906,-9.55721,-8.50725,-16.3005,97.3692
2023-02-16 00:39:47:115,-2.47951,1.56455,-9.55315,-8.46083,-16.2659,97.3514
2023-02-16 00:39:47:125,-2.40701,1.49608,-9.4647,-8.39831,-16.2378,97.3439
2023-02-16 00:39:47:135,-2.45653,1.44442,-9.34145,-8.33563,-16.221,97.3427
2023-02-16 00:39:47:145,-2.54876,1.40008,-9.24401,-8.27609,-16.2159,97.3463
2023-02-16 00:39:47:155,-2.61364,1.39202,-9.21449,-8.22412,-16.2174,97.3521
2023-02-16 00:39:47:165,-2.67868,1.39068,-9.22289,-8.17446,-16.2223,97.3599
2023-02-16 00:39:47:175,-2.74703,1.35686,-9.22807,-8.13058,-16.2264,97.3694
2023-02-16 00:39:47:185,-2.77126,1.35948,-9.22921,-8.08787,-16.2271,97.3704
2023-02-16 00:39:47:195,-2.74244,1.38919,-9.27649,-8.04792,-16.2216,97.3713
2023-02-16 00:39:47:205,-2.71601,1.421,-9.34249,-8.01073,-16.2186,97.3725
2023-02-16 00:39:47:215,-2.72997,1.43401,-9.39118,-7.97143,-16.2116,97.3738
2023-02-16 00:39:47:225,-2.74998,1.47765,-9.40751,-7.9263,-16.2024,97.3754
2023-02-16 00:39:47:235,-2.75744,1.51685,-9.45875,-7.87444,-16.1815,97.3754
2023-02-16 00:39:47:245,-2.73988,1.50091,-9.43825,-7.81547,-16.1566,97.3742
2023-02-16 00:39:47:255,-2.70375,1.46279,-9.40224,-7.75054,-16.1335,97.3687
2023-02-16 00:39:47:265,-2.6649,1.4258,-9.37795,-7.68479,-16.115,97.3622
2023-02-16 00:39:47:275,-2.68994,1.41004,-9.34092,-7.62064,-16.108,97.3582
2023-02-16 00:39:47:285,-2.74734,1.41311,-9.31347,-7.56183,-16.1092,97.3536
2023-02-16 00:39:47:295,-2.79237,1.44335,-9.37232,-7.50639,-16.1152,97.3432
2023-02-16 00:39:47:305,-2.83566,1.48135,-9.43268,-7.4473,-16.1243,97.3307
2023-02-16 00:39:47:315,-2.89527,1.49858,-9.41909,-7.38293,-16.1318,97.3129
2023-02-16 00:39:47:325,-2.92021,1.48391,-9.36648,-7.31115,-16.139,97.2899
2023-02-16 00:39:47:335,-2.86097,1.43824,-9.35511,-7.23235,-16.1351,97.261
2023-02-16 00:39:47:345,-2.77743,1.40508,-9.38746,-7.14762,-16.1337,97.2258
2023-02-16 00:39:47:355,-2.73594,1.35169,-9.38998,-7.06324,-16.1357,97.1904
2023-02-16 00:39:47:365,-2.76792,1.30726,-9.36849,-6.97527,-16.1447,97.1537
2023-02-16 00:39:47:375,-2.79182,1.31038,-9.36752,-6.88972,-16.1585,97.1207
2023-02-16 00:39:47:385,-2.79352,1.31826,-9.40609,-6.80351,-16.1707,97.0881
2023-02-16 00:39:47:395,-2.78663,1.3049,-9.46445,-6.71217,-16.1806,97.0537
2023-02-16 00:39:47:405,-2.77361,1.30978,-9.52881,-6.61443,-16.1887,97.018
2023-02-16 00:39:47:415,-2.76201,1.27504,-9.53329,-6.50547,-16.1956,96.9818
2023-02-16 00:39:47:425,-2.75546,1.18346,-9.47463,-6.38591,-16.2035,96.9541
2023-02-16 00:39:47:435,-2.75405,1.08433,-9.36629,-6.25798,-16.2152,96.9281
2023-02-16 00:39:47:445,-2.79862,1.00383,-9.27266,-6.13361,-16.2272,96.9018
2023-02-16 00:39:47:455,-2.81512,0.986539,-9.27792,-6.01505,-16.235,96.8769
2023-02-16 00:39:47:465,-2.81705,0.958296,-9.28044,-5.89917,-16.2446,96.8538
2023-02-16 00:39:47:475,-2.80595,0.90781,-9.25774,-5.78995,-16.2577,96.8275
2023-02-16 00:39:47:485,-2.75647,0.903804,-9.3023,-5.6847,-16.2758,96.7971
2023-02-16 00:39:47:495,-2.72765,0.889944,-9.35398,-5.57375,-16.2924,96.7665
2023-02-16 00:39:47:505,-2.71237,0.862353,-9.37762,-5.46075,-16.3172,96.7366
2023-02-16 00:39:47:515,-2.69672,0.793193,-9.35358,-5.34384,-16.3403,96.7122
2023-02-16 00:39:47:525,-2.72713,0.739452,-9.32417,-5.22678,-16.3665,96.6885
2023-02-16 00:39:47:535,-2.78449,0.697259,-9.26267,-5.11415,-16.3862,96.6716
2023-02-16 00:39:47:545,-2.79482,0.688946,-9.17575,-5.00362,-16.402,96.6569
2023-02-16 00:39:47:555,-2.6847,0.643213,-9.1249,-4.89766,-16.4079,96.6435
2023-02-16 00:39:47:565,-2.556,0.56167,-9.23709,-4.79882,-16.4151,96.6339
2023-02-16 00:39:47:575,-2.60115,0.553331,-9.37958,-4.70454,-16.4241,96.6406
2023-02-16 00:39:47:585,-2.7463,0.512868,-9.37835,-4.60257,-16.4292,96.6595
2023-02-16 00:39:47:595,-2.82405,0.412519,-9.32923,-4.49869,-16.421,96.6823
2023-02-16 00:39:47:605,-2.83828,0.335434,-9.27148,-4.3945,-16.4018,96.707
2023-02-16 00:39:47:615,-2.83312,0.312247,-9.19172,-4.29434,-16.372,96.7308
2023-02-16 00:39:47:625,-2.84156,0.298229,-9.14774,-4.21014,-16.3366,96.7522
2023-02-16 00:39:47:635,-2.86655,0.304879,-9.10524,-4.13718,-16.2973,96.7663
2023-02-16 00:39:47:645,-2.82679,0.322532,-9.06516,-4.08073,-16.2633,96.7669
2023-02-16 00:39:47:655,-2.68303,0.364725,-9.10119,-4.03417,-16.2271,96.7511
2023-02-16 00:39:47:665,-2.56093,0.387966,-9.23334,-4.00016,-16.2038,96.7278
2023-02-16 00:39:47:675,-2.52691,0.406255,-9.31688,-3.96501,-16.197,96.7022
2023-02-16 00:39:47:685,-2.46866,0.424291,-9.3205,-3.92936,-16.1957,96.667
2023-02-16 00:39:47:695,-2.28634,0.374602,-9.474,-3.88609,-16.2037,96.6389
2023-02-16 00:39:47:705,-2.24912,0.3307,-9.67852,-3.83307,-16.2262,96.6259
2023-02-16 00:39:47:715,-2.47634,0.275239,-9.70468,-3.76584,-16.2546,96.6355
2023-02-16 00:39:47:725,-2.66051,0.175294,-9.51487,-3.68403,-16.2752,96.665
2023-02-16 00:39:47:735,-2.60951,0.0690211,-9.28584,-3.60526,-16.2859,96.7042
2023-02-16 00:39:47:745,-2.5381,-0.00476087,-9.06547,-3.54149,-16.2856,96.7595
2023-02-16 00:39:47:755,-2.65326,0.0109315,-8.90634,-3.51726,-16.2829,96.8358
2023-02-16 00:39:47:765,-2.80105,0.116133,-8.81337,-3.52549,-16.2839,96.9152
2023-02-16 00:39:47:775,-2.84091,0.307916,-8.7778,-3.57518,-16.2806,96.995
2023-02-16 00:39:47:785,-2.75265,0.533855,-8.99744,-3.64263,-16.2582,97.0736
2023-02-16 00:39:47:795,-2.80215,0.620429,-9.19238,-3.71727,-16.2397,97.1497
2023-02-16 00:39:47:805,-2.93169,0.688738,-9.35969,-3.7915,-16.2258,97.2177
2023-02-16 00:39:47:815,-2.96599,0.779373,-9.5187,-3.86141,-16.2109,97.2733
2023-02-16 00:39:47:825,-2.90936,0.838173,-9.60967,-3.91589,-16.199,97.3147
2023-02-16 00:39:47:835,-2.83565,0.80376,-9.5132,-3.95079,-16.1972,97.3426
2023-02-16 00:39:47:845,-2.77697,0.745525,-9.36987,-3.98602,-16.1996,97.362
2023-02-16 00:39:47:855,-2.72463,0.785417,-9.29519,-4.02754,-16.2017,97.3766
2023-02-16 00:39:47:865,-2.70837,0.848039,-9.29422,-4.06995,-16.2053,97.3897
2023-02-16 00:39:47:875,-2.71342,0.881287,-9.31835,-4.10815,-16.2084,97.3984
2023-02-16 00:39:47:885,-2.70244,0.899128,-9.38567,-4.14267,-16.204,97.4006
2023-02-16 00:39:47:895,-2.69095,0.909079,-9.4988,-4.17649,-16.2022,97.4038
2023-02-16 00:39:47:905,-2.64288,0.900014,-9.54382,-4.19622,-16.2016,97.4006
2023-02-16 00:39:47:915,-2.56466,0.812183,-9.51295,-4.20663,-16.202,97.4012
2023-02-16 00:39:47:925,-2.53177,0.72601,-9.39875,-4.20997,-16.2069,97.4052
2023-02-16 00:39:47:935,-2.57011,0.695645,-9.31168,-4.22137,-16.2168,97.4221
2023-02-16 00:39:47:945,-2.66083,0.688601,-9.29528,-4.24025,-16.2309,97.4435
2023-02-16 00:39:47:955,-2.7461,0.706447,-9.30438,-4.26233,-16.2432,97.4615
2023-02-16 00:39:47:965,-2.78616,0.734578,-9.31385,-4.29183,-16.2552,97.4828
2023-02-16 00:39:47:975,-2.8055,0.752173,-9.35902,-4.32414,-16.2646,97.5021
2023-02-16 00:39:47:985,-2.83494,0.820641,-9.3989,-4.36002,-16.2719,97.5196
2023-02-16 00:39:47:995,-2.8427,0.87003,-9.42869,-4.39057,-16.2765,97.532
2023-02-16 00:39:48:5,-2.80932,0.852295,-9.44364,-4.41326,-16.2835,97.5407
2023-02-16 00:39:48:15,-2.77885,0.831096,-9.40839,-4.43161,-16.2919,97.547
2023-02-16 00:39:48:25,-2.75771,0.816668,-9.36803,-4.4524,-16.2998,97.5535
2023-02-16 00:39:48:35,-2.76362,0.835657,-9.35768,-4.4759,-16.3139,97.5566
2023-02-16 00:39:48:45,-2.78785,0.862818,-9.36958,-4.49823,-16.3281,97.5589
2023-02-16 00:39:48:55,-2.77369,0.878545,-9.38864,-4.52182,-16.3394,97.5572
2023-02-16 00:39:48:65,-2.7407,0.884135,-9.40385,-4.5431,-16.3521,97.5539
2023-02-16 00:39:48:75,-2.7536,0.875148,-9.3941,-4.55777,-16.3653,97.5521
2023-02-16 00:39:48:85,-2.7468,0.852376,-9.38465,-4.57171,-16.376,97.5501
2023-02-16 00:39:48:95,-2.72311,0.819767,-9.35194,-4.58624,-16.3862,97.547
2023-02-16 00:39:48:105,-2.7037,0.811261,-9.33408,-4.60002,-16.3996,97.5434
2023-02-16 00:39:48:115,-2.68903,0.815726,-9.36867,-4.61769,-16.4172,97.5427
2023-02-16 00:39:48:125,-2.69497,0.830399,-9.39879,-4.63006,-16.4388,97.545
2023-02-16 00:39:48:135,-2.72894,0.82883,-9.39324,-4.64049,-16.4594,97.553
2023-02-16 00:39:48:145,-2.76249,0.794602,-9.39036,-4.64812,-16.4753,97.5645
2023-02-16 00:39:48:155,-2.79087,0.779018,-9.39209,-4.65196,-16.4926,97.5745
2023-02-16 00:39:48:165,-2.78683,0.755263,-9.37594,-4.65118,-16.5054,97.5842
2023-02-16 00:39:48:175,-2.78511,0.720295,-9.32515,-4.65022,-16.5178,97.596
2023-02-16 00:39:48:185,-2.79575,0.657296,-9.24048,-4.64684,-16.5279,97.6049
2023-02-16 00:39:48:195,-2.823,0.596108,-9.17924,-4.65066,-16.5386,97.6152
2023-02-16 00:39:48:205,-2.81091,0.582916,-9.15479,-4.6605,-16.5448,97.6254
2023-02-16 00:39:48:215,-2.79696,0.61215,-9.21173,-4.68231,-16.551,97.6335
2023-02-16 00:39:48:225,-2.80629,0.662438,-9.30125,-4.70764,-16.5604,97.6392
2023-02-16 00:39:48:235,-2.81687,0.710042,-9.35405,-4.73469,-16.5695,97.6465
2023-02-16 00:39:48:245,-2.80251,0.736698,-9.38128,-4.75508,-16.5812,97.6512
2023-02-16 00:39:48:255,-2.77112,0.734968,-9.3893,-4.76888,-16.5919,97.6503
2023-02-16 00:39:48:265,-2.75068,0.722706,-9.36884,-4.78301,-16.6012,97.6536
2023-02-16 00:39:48:275,-2.72242,0.717597,-9.34712,-4.79724,-16.6096,97.6567
2023-02-16 00:39:48:285,-2.70432,0.698816,-9.34096,-4.81262,-16.6169,97.6615
2023-02-16 00:39:48:295,-2.7129,0.677547,-9.32218,-4.83148,-16.6235,97.6726
2023-02-16 00:39:48:305,-2.74028,0.679678,-9.34625,-4.85056,-16.6316,97.687
2023-02-16 00:39:48:315,-2.7388,0.719203,-9.3972,-4.87866,-16.6401,97.7054
2023-02-16 00:39:48:325,-2.75872,0.742683,-9.43947,-4.90307,-16.6468,97.7269
2023-02-16 00:39:48:335,-2.78872,0.753394,-9.46185,-4.9218,-16.6499,97.754
2023-02-16 00:39:48:345,-2.8074,0.766013,-9.47762,-4.94178,-16.6527,97.7827
2023-02-16 00:39:48:355,-2.82448,0.778873,-9.49261,-4.9544,-16.6556,97.8118
2023-02-16 00:39:48:365,-2.85915,0.765651,-9.44852,-4.96161,-16.6573,97.845
2023-02-16 00:39:48:375,-2.87205,0.730586,-9.30756,-4.96157,-16.6541,97.8813
2023-02-16 00:39:48:385,-2.83428,0.650536,-9.14913,-4.96188,-16.6469,97.9146
2023-02-16 00:39:48:395,-2.81878,0.626521,-9.06299,-4.9773,-16.637,97.9583
2023-02-16 00:39:48:405,-2.84068,0.626228,-9.08856,-5.00729,-16.6252,98.0059
2023-02-16 00:39:48:415,-2.89551,0.67757,-9.17412,-5.0461,-16.616,98.0528
2023-02-16 00:39:48:425,-2.9899,0.73359,-9.26479,-5.08539,-16.6072,98.098
2023-02-16 00:39:48:435,-3.02339,0.753923,-9.33897,-5.12236,-16.5975,98.138
2023-02-16 00:39:48:445,-3.02565,0.711481,-9.3225,-5.14502,-16.5834,98.1722
2023-02-16 00:39:48:455,-3.00699,0.659575,-9.25556,-5.16901,-16.5685,98.2025
2023-02-16 00:39:48:465,-2.93758,0.662841,-9.23082,-5.2011,-16.5468,98.2321
2023-02-16 00:39:48:475,-2.91283,0.716879,-9.23248,-5.2436,-16.5237,98.2612
2023-02-16 00:39:48:485,-2.92346,0.800757,-9.25008,-5.29235,-16.4988,98.2912
2023-02-16 00:39:48:495,-2.91492,0.871359,-9.27487,-5.34327,-16.4717,98.3131
2023-02-16 00:39:48:505,-2.88687,0.900534,-9.287,-5.38874,-16.4385,98.3306
2023-02-16 00:39:48:515,-2.85346,0.924792,-9.29372,-5.43533,-16.4013,98.3452
2023-02-16 00:39:48:525,-2.80815,0.933428,-9.29424,-5.48044,-16.3581,98.3563
2023-02-16 00:39:48:535,-2.73198,0.90251,-9.26454,-5.52356,-16.3111,98.3623
2023-02-16 00:39:48:545,-2.61729,0.891507,-9.26284,-5.57438,-16.2638,98.3681
2023-02-16 00:39:48:555,-2.57171,0.941592,-9.29936,-5.63772,-16.2147,98.3785
2023-02-16 00:39:48:565,-2.60431,1.01897,-9.35817,-5.70861,-16.1692,98.3913
2023-02-16 00:39:48:575,-2.60455,1.09251,-9.40601,-5.78031,-16.1238,98.3965
2023-02-16 00:39:48:585,-2.50249,1.15965,-9.48029,-5.85014,-16.0833,98.4029
2023-02-16 00:39:48:595,-2.32472,1.18972,-9.56078,-5.91606,-16.0461,98.4061
2023-02-16 00:39:48:605,-2.18102,1.16747,-9.61686,-5.97561,-16.0185,98.4196
2023-02-16 00:39:48:615,-2.11743,1.19302,-9.66529,-6.0303,-16.0026,98.4489
2023-02-16 00:39:48:625,-2.11855,1.21448,-9.66759,-6.08112,-16.0036,98.4994
2023-02-16 00:39:48:635,-2.2196,1.20386,-9.62549,-6.12343,-16.0189,98.5688
2023-02-16 00:39:48:645,-2.39417,1.18827,-9.56832,-6.16038,-16.0487,98.6587
2023-02-16 00:39:48:655,-2.55493,1.21223,-9.44706,-6.18479,-16.0837,98.7564
2023-02-16 00:39:48:665,-2.66656,1.18902,-9.29077,-6.2021,-16.1234,98.8559
2023-02-16 00:39:48:675,-2.78927,1.13087,-9.18345,-6.2142,-16.16,98.9538
2023-02-16 00:39:48:685,-2.88652,1.10531,-9.19683,-6.22597,-16.1995,99.0454
2023-02-16 00:39:48:695,-2.91034,1.06703,-9.24184,-6.22727,-16.2313,99.123
2023-02-16 00:39:48:705,-2.87768,1.01374,-9.22033,-6.22106,-16.2572,99.188
2023-02-16 00:39:48:715,-2.79204,0.923138,-9.11233,-6.21721,-16.2787,99.2432
2023-02-16 00:39:48:725,-2.74666,0.873037,-9.01038,-6.22471,-16.2975,99.2969
2023-02-16 00:39:48:735,-2.81346,0.904365,-8.96829,-6.25116,-16.3124,99.3514
2023-02-16 00:39:48:745,-2.93226,0.981404,-9.03423,-6.29822,-16.3182,99.405
2023-02-16 00:39:48:755,-2.96839,1.08877,-9.15459,-6.35858,-16.3148,99.4511
2023-02-16 00:39:48:765,-2.91074,1.17295,-9.24927,-6.42126,-16.3062,99.4842
2023-02-16 00:39:48:775,-2.83891,1.23782,-9.32582,-6.48672,-16.2965,99.5077
2023-02-16 00:39:48:785,-2.81362,1.31165,-9.38952,-6.55414,-16.2806,99.5237
2023-02-16 00:39:48:795,-2.83555,1.36842,-9.46976,-6.61814,-16.2702,99.5353
2023-02-16 00:39:48:805,-2.82979,1.42993,-9.52011,-6.67634,-16.2599,99.5346
2023-02-16 00:39:48:815,-2.80143,1.46805,-9.56832,-6.72259,-16.253,99.5261
2023-02-16 00:39:48:825,-2.82074,1.4864,-9.61967,-6.75616,-16.247,99.5049
2023-02-16 00:39:48:835,-2.84574,1.48115,-9.66523,-6.77508,-16.2454,99.4686
2023-02-16 00:39:48:845,-2.81575,1.45265,-9.70241,-6.7795,-16.2498,99.4209
2023-02-16 00:39:48:855,-2.70758,1.39776,-9.70569,-6.77137,-16.2607,99.3643
2023-02-16 00:39:48:865,-2.63511,1.31799,-9.66336,-6.75332,-16.2819,99.2998
2023-02-16 00:39:48:875,-2.58409,1.22562,-9.61688,-6.72497,-16.3133,99.2328
2023-02-16 00:39:48:885,-2.5242,1.14634,-9.55631,-6.6941,-16.3602,99.1721
2023-02-16 00:39:48:895,-2.51503,1.08425,-9.479,-6.66822,-16.4098,99.1218
2023-02-16 00:39:48:905,-2.60326,1.06376,-9.4185,-6.64429,-16.468,99.0861
2023-02-16 00:39:48:915,-2.71971,1.09348,-9.40355,-6.6258,-16.5286,99.0655
2023-02-16 00:39:48:925,-2.80579,1.1153,-9.3772,-6.59967,-16.5882,99.0502
2023-02-16 00:39:48:935,-2.87836,1.08728,-9.30488,-6.56936,-16.6384,99.0466
2023-02-16 00:39:48:945,-2.94092,1.05986,-9.26075,-6.53726,-16.6779,99.0468
2023-02-16 00:39:48:955,-2.97574,1.07678,-9.28969,-6.50357,-16.7099,99.0465
2023-02-16 00:39:48:965,-2.99787,1.05457,-9.27767,-6.45817,-16.7332,99.044
2023-02-16 00:39:48:975,-3.02971,1.0166,-9.22098,-6.40884,-16.7458,99.0453
2023-02-16 00:39:48:985,-3.06881,0.978839,-9.15675,-6.35483,-16.7552,99.0368
2023-02-16 00:39:48:995,-3.09908,0.953322,-9.11622,-6.3007,-16.7584,99.0215
2023-02-16 00:39:49:5,-3.11168,0.91979,-9.10715,-6.24617,-16.7585,98.9924
2023-02-16 00:39:49:15,-3.06588,0.88355,-9.10063,-6.19324,-16.7525,98.949
2023-02-16 00:39:49:25,-2.95466,0.844934,-9.11337,-6.144,-16.7424,98.8924
2023-02-16 00:39:49:35,-2.8493,0.83006,-9.11488,-6.10287,-16.7317,98.8338
2023-02-16 00:39:49:45,-2.80574,0.84747,-9.11591,-6.07148,-16.7246,98.7721
2023-02-16 00:39:49:55,-2.80691,0.859279,-9.14388,-6.05114,-16.7111,98.7105
2023-02-16 00:39:49:65,-2.79997,0.881235,-9.15518,-6.03629,-16.705,98.6465
2023-02-16 00:39:49:75,-2.76765,0.916701,-9.23588,-6.02849,-16.6994,98.5826
2023-02-16 00:39:49:85,-2.7423,0.972428,-9.32991,-6.02579,-16.6894,98.5192
2023-02-16 00:39:49:95,-2.72692,0.996884,-9.37183,-6.02415,-16.683,98.4575
2023-02-16 00:39:49:105,-2.72047,1.00641,-9.4053,-6.02149,-16.6788,98.3965
2023-02-16 00:39:49:115,-2.74901,0.999375,-9.43101,-6.01784,-16.6751,98.3427
2023-02-16 00:39:49:125,-2.78988,0.991209,-9.39621,-6.01209,-16.6762,98.2966
2023-02-16 00:39:49:135,-2.80898,0.986197,-9.32896,-6.00312,-16.6784,98.2528
2023-02-16 00:39:49:145,-2.84975,0.994185,-9.27793,-5.99852,-16.6772,98.2157
2023-02-16 00:39:49:155,-2.98077,1.02081,-9.2896,-6.00095,-16.6799,98.1792
2023-02-16 00:39:49:165,-3.13116,1.0894,-9.32814,-5.99904,-16.6808,98.1423
2023-02-16 00:39:49:175,-3.1857,1.11371,-9.35253,-5.99407,-16.683,98.0954
2023-02-16 00:39:49:185,-3.14917,1.0927,-9.33472,-5.98479,-16.6723,98.0316
2023-02-16 00:39:49:195,-3.08325,1.08004,-9.31699,-5.96715,-16.6636,97.9542
2023-02-16 00:39:49:205,-3.04041,1.07167,-9.31724,-5.95031,-16.656,97.8738
2023-02-16 00:39:49:215,-2.96019,1.04014,-9.27344,-5.93019,-16.6479,97.786
2023-02-16 00:39:49:225,-2.89578,1.00217,-9.25314,-5.91114,-16.6432,97.6959
2023-02-16 00:39:49:235,-2.91223,0.999695,-9.27066,-5.89147,-16.6368,97.6055
2023-02-16 00:39:49:245,-2.9836,1.06066,-9.33456,-5.87423,-16.6286,97.5123
2023-02-16 00:39:49:255,-2.98838,1.11641,-9.43315,-5.8552,-16.6236,97.4083
2023-02-16 00:39:49:265,-2.90635,1.12837,-9.46783,-5.82773,-16.6173,97.298
2023-02-16 00:39:49:275,-2.84787,1.09057,-9.45583,-5.79354,-16.6154,97.1841
2023-02-16 00:39:49:285,-2.8328,1.07249,-9.43099,-5.75923,-16.6149,97.0717
2023-02-16 00:39:49:295,-2.83055,1.06878,-9.44462,-5.72414,-16.6183,96.962
2023-02-16 00:39:49:305,-2.81193,1.05665,-9.42723,-5.68502,-16.6256,96.8516
2023-02-16 00:39:49:315,-2.79718,1.02451,-9.38558,-5.64361,-16.6296,96.7407
2023-02-16 00:39:49:325,-2.81573,1.03478,-9.39485,-5.60025,-16.6377,96.6364
2023-02-16 00:39:49:335,-2.85887,1.06045,-9.43154,-5.55522,-16.6465,96.5359
2023-02-16 00:39:49:345,-2.88966,1.06198,-9.44957,-5.49842,-16.652,96.4283
2023-02-16 00:39:49:355,-2.91371,1.05206,-9.42501,-5.43588,-16.6569,96.3196
2023-02-16 00:39:49:365,-2.92113,1.03122,-9.39236,-5.3688,-16.6622,96.2116
2023-02-16 00:39:49:375,-2.90161,1.00775,-9.37062,-5.29939,-16.6657,96.0982
2023-02-16 00:39:49:385,-2.85321,0.94234,-9.31999,-5.2246,-16.6649,95.9797
2023-02-16 00:39:49:395,-2.81192,0.870289,-9.27883,-5.14952,-16.6615,95.8602
2023-02-16 00:39:49:405,-2.79714,0.825522,-9.25189,-5.07889,-16.6636,95.7442
2023-02-16 00:39:49:415,-2.80711,0.797052,-9.23233,-5.01276,-16.6639,95.6327
2023-02-16 00:39:49:425,-2.80097,0.759408,-9.21793,-4.94862,-16.6671,95.5202
2023-02-16 00:39:49:435,-2.77307,0.704799,-9.22143,-4.89194,-16.6677,95.4079
2023-02-16 00:39:49:445,-2.74732,0.683766,-9.23596,-4.84168,-16.6679,95.3003
2023-02-16 00:39:49:455,-2.72459,0.690189,-9.26804,-4.79941,-16.6719,95.2012
2023-02-16 00:39:49:465,-2.67951,0.692743,-9.27201,-4.76155,-16.6703,95.1075
2023-02-16 00:39:49:475,-2.63753,0.65622,-9.2592,-4.72858,-16.6671,95.0212
2023-02-16 00:39:49:485,-2.63432,0.622585,-9.23415,-4.6986,-16.6682,94.9452
2023-02-16 00:39:49:495,-2.68823,0.613193,-9.2221,-4.67307,-16.6626,94.8792
2023-02-16 00:39:49:505,-2.7385,0.634441,-9.23913,-4.65325,-16.6539,94.8172
2023-02-16 00:39:49:515,-2.73673,0.654676,-9.26603,-4.63681,-16.6413,94.7593
2023-02-16 00:39:49:525,-2.71735,0.656942,-9.29611,-4.6211,-16.6261,94.7099
2023-02-16 00:39:49:535,-2.68902,0.65559,-9.30606,-4.60896,-16.6079,94.6677
2023-02-16 00:39:49:545,-2.6754,0.639859,-9.31529,-4.59487,-16.5875,94.6291
2023-02-16 00:39:49:555,-2.6746,0.648635,-9.33095,-4.5871,-16.5674,94.5979
2023-02-16 00:39:49:565,-2.67141,0.662224,-9.36693,-4.58137,-16.5473,94.5717
2023-02-16 00:39:49:575,-2.66188,0.680813,-9.40072,-4.57524,-16.5303,94.5519
2023-02-16 00:39:49:585,-2.70362,0.708617,-9.43045,-4.57149,-16.5121,94.5349
2023-02-16 00:39:49:595,-2.75975,0.714495,-9.42397,-4.55975,-16.4976,94.5212
2023-02-16 00:39:49:605,-2.75872,0.721514,-9.39846,-4.55002,-16.4771,94.507
2023-02-16 00:39:49:615,-2.68748,0.714096,-9.39721,-4.53909,-16.456,94.4924
2023-02-16 00:39:49:625,-2.63042,0.702872,-9.39045,-4.52854,-16.4381,94.4792
2023-02-16 00:39:49:635,-2.60952,0.689085,-9.36073,-4.51905,-16.4248,94.4713
2023-02-16 00:39:49:645,-2.57893,0.672768,-9.31609,-4.51244,-16.4097,94.4657
2023-02-16 00:39:49:655,-2.55758,0.678534,-9.32851,-4.5108,-16.3996,94.4641
2023-02-16 00:39:49:665,-2.60054,0.713825,-9.35479,-4.516,-16.3907,94.4703
2023-02-16 00:39:49:675,-2.64628,0.737534,-9.38535,-4.5206,-16.3873,94.4779
2023-02-16 00:39:49:685,-2.63402,0.762014,-9.40345,-4.52252,-16.3786,94.4865
2023-02-16 00:39:49:695,-2.57891,0.757451,-9.41585,-4.5232,-16.3678,94.4954
2023-02-16 00:39:49:705,-2.51563,0.735921,-9.41551,-4.52385,-16.3646,94.5106
2023-02-16 00:39:49:715,-2.46988,0.705261,-9.41137,-4.52348,-16.3618,94.5322
2023-02-16 00:39:49:725,-2.47294,0.702937,-9.39103,-4.52909,-16.362,94.5598
2023-02-16 00:39:49:735,-2.49094,0.719408,-9.37527,-4.53878,-16.3635,94.5983
2023-02-16 00:39:49:745,-2.53895,0.750042,-9.37046,-4.55114,-16.3685,94.643
2023-02-16 00:39:49:755,-2.61665,0.804513,-9.43404,-4.56792,-16.3731,94.6961
2023-02-16 00:39:49:765,-2.66821,0.842231,-9.45812,-4.58235,-16.3775,94.7533
2023-02-16 00:39:49:775,-2.69326,0.83702,-9.4562,-4.59209,-16.3832,94.8139
2023-02-16 00:39:49:785,-2.69663,0.811694,-9.43389,-4.60138,-16.3942,94.8729
2023-02-16 00:39:49:795,-2.71424,0.778893,-9.37267,-4.6077,-16.4003,94.9303
2023-02-16 00:39:49:805,-2.76827,0.741716,-9.3358,-4.61251,-16.4058,94.9923
2023-02-16 00:39:49:815,-2.88263,0.772323,-9.34151,-4.61814,-16.4121,95.0488
2023-02-16 00:39:49:825,-2.96753,0.806505,-9.37382,-4.62259,-16.422,95.0953
2023-02-16 00:39:49:835,-2.96409,0.80834,-9.36519,-4.62389,-16.4292,95.1329
2023-02-16 00:39:49:845,-2.90815,0.789619,-9.36308,-4.62489,-16.4358,95.1583
2023-02-16 00:39:49:855,-2.84293,0.812297,-9.39982,-4.62241,-16.4434,95.171
2023-02-16 00:39:49:865,-2.81962,0.860671,-9.45939,-4.61853,-16.4583,95.1816
2023-02-16 00:39:49:875,-2.83808,0.892229,-9.50318,-4.61015,-16.4792,95.187
2023-02-16 00:39:49:885,-2.86799,0.895329,-9.4899,-4.59393,-16.5003,95.1906
2023-02-16 00:39:49:895,-2.86502,0.862025,-9.45237,-4.5664,-16.525,95.1915
2023-02-16 00:39:49:905,-2.88386,0.822485,-9.41212,-4.53791,-16.5468,95.1861
2023-02-16 00:39:49:915,-2.88874,0.821531,-9.45249,-4.50207,-16.5571,95.1814
2023-02-16 00:39:49:925,-2.87172,0.754819,-9.38295,-4.45682,-16.5701,95.1708
2023-02-16 00:39:49:935,-2.81851,0.611539,-9.2014,-4.41815,-16.5934,95.1545
2023-02-16 00:39:49:945,-2.76818,0.60922,-9.17253,-4.39757,-16.6126,95.1453
2023-02-16 00:39:49:955,-2.81382,0.678417,-9.24113,-4.38006,-16.6258,95.1402
2023-02-16 00:39:49:965,-2.82523,0.649147,-9.21077,-4.36249,-16.634,95.1346
2023-02-16 00:39:49:975,-2.73163,0.603614,-9.16338,-4.34962,-16.6337,95.1284
2023-02-16 00:39:49:985,-2.65177,0.634673,-9.21534,-4.34801,-16.6183,95.129
2023-02-16 00:39:49:995,-2.66661,0.689301,-9.2622,-4.35202,-16.6014,95.1383
2023-02-16 00:39:50:5,-2.69162,0.717855,-9.25925,-4.36072,-16.5863,95.1491
2023-02-16 00:39:50:15,-2.64781,0.741559,-9.26534,-4.36967,-16.5715,95.161
2023-02-16 00:39:50:25,-2.60382,0.740021,-9.31116,-4.38494,-16.556,95.1807
2023-02-16 00:39:50:35,-2.60942,0.751494,-9.33973,-4.40234,-16.5422,95.2055
2023-02-16 00:39:50:45,-2.64865,0.760117,-9.37402,-4.42506,-16.5291,95.2355
2023-02-16 00:39:50:55,-2.65117,0.756206,-9.41301,-4.44526,-16.5214,95.2637
2023-02-16 00:39:50:65,-2.65361,0.767749,-9.48486,-4.46655,-16.5244,95.2905
2023-02-16 00:39:50:75,-2.66188,0.797823,-9.55586,-4.4817,-16.5356,95.3199
2023-02-16 00:39:50:85,-2.70207,0.820651,-9.56586,-4.49153,-16.5569,95.3522
2023-02-16 00:39:50:95,-2.75614,0.810217,-9.51258,-4.49643,-16.5837,95.3859
2023-02-16 00:39:50:105,-2.78426,0.767602,-9.42361,-4.49214,-16.6124,95.4184
2023-02-16 00:39:50:115,-2.8051,0.732858,-9.33402,-4.49231,-16.6452,95.4486
2023-02-16 00:39:50:125,-2.81855,0.72406,-9.27808,-4.49474,-16.6786,95.4792
2023-02-16 00:39:50:135,-2.82294,0.709996,-9.24145,-4.49866,-16.7073,95.5106
2023-02-16 00:39:50:145,-2.82671,0.696137,-9.20863,-4.50895,-16.7324,95.5385
2023-02-16 00:39:50:155,-2.83598,0.700085,-9.18485,-4.52328,-16.7534,95.5739
2023-02-16 00:39:50:165,-2.8739,0.7246,-9.22581,-4.5423,-16.7683,95.6105
2023-02-16 00:39:50:175,-2.91803,0.77308,-9.27883,-4.56128,-16.7843,95.6467
2023-02-16 00:39:50:185,-2.93198,0.800448,-9.30464,-4.57373,-16.7937,95.6774
2023-02-16 00:39:50:195,-2.9216,0.786743,-9.31587,-4.58493,-16.7965,95.7078
2023-02-16 00:39:50:205,-2.89993,0.783627,-9.32517,-4.59765,-16.8021,95.7356
2023-02-16 00:39:50:215,-2.90049,0.790415,-9.32934,-4.60535,-16.8044,95.7625
2023-02-16 00:39:50:225,-2.90333,0.787202,-9.3237,-4.61289,-16.8035,95.7821
2023-02-16 00:39:50:235,-2.89509,0.766762,-9.314,-4.62112,-16.8061,95.7984
2023-02-16 00:39:50:245,-2.89175,0.74977,-9.32353,-4.63062,-16.8066,95.818
2023-02-16 00:39:50:255,-2.89182,0.741459,-9.35091,-4.64302,-16.8061,95.831
2023-02-16 00:39:50:265,-2.86923,0.762354,-9.35694,-4.65556,-16.8092,95.8403
2023-02-16 00:39:50:275,-2.87455,0.781055,-9.35356,-4.6655,-16.8116,95.8571
2023-02-16 00:39:50:285,-2.89736,0.794958,-9.34763,-4.67279,-16.8138,95.8674
2023-02-16 00:39:50:295,-2.89801,0.795513,-9.34868,-4.68233,-16.8158,95.8756
2023-02-16 00:39:50:305,-2.80789,0.797047,-9.37292,-4.69147,-16.8134,95.8795
2023-02-16 00:39:50:315,-2.70873,0.796363,-9.38451,-4.69435,-16.8119,95.8791
2023-02-16 00:39:50:325,-2.69992,0.7756,-9.37402,-4.6984,-16.8171,95.8851
2023-02-16 00:39:50:335,-2.75261,0.791229,-9.36186,-4.70155,-16.8222,95.8958
2023-02-16 00:39:50:345,-2.78826,0.809016,-9.34982,-4.70613,-16.8289,95.9091
2023-02-16 00:39:50:355,-2.80134,0.79437,-9.33565,-4.71109,-16.8343,95.9239
2023-02-16 00:39:50:365,-2.82282,0.7962,-9.3468,-4.71912,-16.8416,95.9375
2023-02-16 00:39:50:375,-2.8452,0.808518,-9.35993,-4.72461,-16.8497,95.954
2023-02-16 00:39:50:385,-2.90646,0.910181,-9.47885,-4.7275,-16.8333,95.9768
2023-02-16 00:39:50:395,-2.85266,1.01675,-9.69615,-4.70465,-16.795,96.0098
2023-02-16 00:39:50:405,-2.79228,0.730234,-9.2739,-4.67415,-16.7985,96.0206
2023-02-16 00:39:50:415,-2.71657,0.673325,-9.13205,-4.66756,-16.8013,96.0355
2023-02-16 00:39:50:425,-2.77457,0.798508,-9.30032,-4.67218,-16.7998,96.0652
2023-02-16 00:39:50:435,-2.92715,0.82875,-9.32071,-4.67572,-16.8182,96.0898
2023-02-16 00:39:50:445,-2.93578,0.816297,-9.29175,-4.682,-16.8358,96.1079
2023-02-16 00:39:50:455,-2.90777,0.870011,-9.4069,-4.68826,-16.8445,96.1262
2023-02-16 00:39:50:465,-2.9284,0.915993,-9.48288,-4.68569,-16.8533,96.1389
2023-02-16 00:39:50:475,-2.93045,0.862826,-9.42351,-4.66972,-16.8663,96.1468
2023-02-16 00:39:50:485,-2.89922,0.794733,-9.32448,-4.65449,-16.8803,96.149
2023-02-16 00:39:50:495,-2.84935,0.766057,-9.29369,-4.64288,-16.8971,96.1481
2023-02-16 00:39:50:505,-2.84922,0.773041,-9.3029,-4.63729,-16.9141,96.1509
2023-02-16 00:39:50:515,-2.88112,0.762093,-9.29667,-4.62654,-16.9328,96.1533
2023-02-16 00:39:50:525,-2.88682,0.745801,-9.28793,-4.61902,-16.9522,96.1526
2023-02-16 00:39:50:535,-2.88966,0.751035,-9.26463,-4.61473,-16.9691,96.1567
2023-02-16 00:39:50:545,-2.94744,0.869248,-9.43156,-4.60763,-16.9531,96.1717
2023-02-16 00:39:50:555,-2.92192,0.886978,-9.55519,-4.57418,-16.9339,96.183
2023-02-16 00:39:50:565,-2.87169,0.578255,-9.11137,-4.54606,-16.945,96.1773
2023-02-16 00:39:50:575,-2.80735,0.572994,-9.03865,-4.54766,-16.9532,96.1777
2023-02-16 00:39:50:585,-2.88547,0.771596,-9.31152,-4.55748,-16.9543,96.187
2023-02-16 00:39:50:595,-3.00847,0.836497,-9.4026,-4.55945,-16.9647,96.1884
2023-02-16 00:39:50:605,-2.94678,0.783062,-9.33902,-4.55744,-16.9709,96.1835
2023-02-16 00:39:50:615,-2.85485,0.780277,-9.36171,-4.55037,-16.9652,96.1812
2023-02-16 00:39:50:625,-2.86711,0.792967,-9.38932,-4.54223,-16.9609,96.1801
2023-02-16 00:39:50:635,-2.90621,0.779468,-9.36986,-4.52916,-16.9583,96.1772
2023-02-16 00:39:50:645,-2.88991,0.755336,-9.34004,-4.51859,-16.9615,96.1672
2023-02-16 00:39:50:655,-2.84285,0.744168,-9.32547,-4.50748,-16.9684,96.1583
2023-02-16 00:39:50:665,-2.82087,0.749837,-9.3504,-4.4959,-16.9748,96.1508
2023-02-16 00:39:50:675,-2.86361,0.744786,-9.34757,-4.48495,-16.9768,96.1462
2023-02-16 00:39:50:685,-2.88213,0.72411,-9.31472,-4.47151,-16.9842,96.1382
2023-02-16 00:39:50:695,-2.87276,0.723516,-9.29843,-4.45872,-16.9901,96.1292
2023-02-16 00:39:50:705,-2.86308,0.725897,-9.31307,-4.44814,-16.9899,96.1224
2023-02-16 00:39:50:715,-2.86736,0.732636,-9.34276,-4.43657,-16.9895,96.1184
2023-02-16 00:39:50:725,-2.88533,0.750661,-9.34348,-4.42774,-16.9859,96.1129
2023-02-16 00:39:50:735,-2.88359,0.733854,-9.33984,-4.41331,-16.9805,96.1054
2023-02-16 00:39:50:745,-2.85365,0.718409,-9.32822,-4.39663,-16.9775,96.0989
2023-02-16 00:39:50:755,-2.85813,0.718355,-9.3143,-4.38105,-16.9727,96.0907
2023-02-16 00:39:50:765,-2.8626,0.699502,-9.31497,-4.3678,-16.9686,96.0806
2023-02-16 00:39:50:775,-2.89014,0.675672,-9.28478,-4.35718,-16.9661,96.0752
2023-02-16 00:39:50:785,-2.89733,0.855196,-9.52006,-4.33348,-16.9189,96.0788
2023-02-16 00:39:50:795,-2.81192,0.770133,-9.50463,-4.28879,-16.894,96.0706
2023-02-16 00:39:50:805,-2.72041,0.487753,-9.06681,-4.25509,-16.8965,96.0501
2023-02-16 00:39:50:815,-2.65417,0.529035,-9.10317,-4.25253,-16.9019,96.0421
2023-02-16 00:39:50:825,-2.77806,0.718405,-9.36334,-4.25629,-16.9003,96.0416
2023-02-16 00:39:50:835,-2.87146,0.732437,-9.43013,-4.25457,-16.9103,96.0324
2023-02-16 00:39:50:845,-2.8107,0.700066,-9.42094,-4.24697,-16.9162,96.0217
2023-02-16 00:39:50:855,-2.7249,0.682426,-9.42654,-4.23574,-16.9126,96.0163
2023-02-16 00:39:50:865,-2.74197,0.664664,-9.37895,-4.22446,-16.9143,96.0179
2023-02-16 00:39:50:875,-2.7949,0.625705,-9.30418,-4.2155,-16.9239,96.0217
2023-02-16 00:39:50:885,-2.80993,0.618469,-9.27445,-4.21238,-16.9382,96.0261
2023-02-16 00:39:50:895,-2.80877,0.649304,-9.29873,-4.21467,-16.9511,96.0353
2023-02-16 00:39:50:905,-2.83232,0.673414,-9.31037,-4.21555,-16.9627,96.0461
2023-02-16 00:39:50:915,-2.87235,0.695946,-9.27736,-4.21774,-16.9764,96.0599
2023-02-16 00:39:50:925,-2.8724,0.701078,-9.24548,-4.22325,-16.9831,96.072
2023-02-16 00:39:50:935,-2.86759,0.723644,-9.27259,-4.23132,-16.9904,96.085
2023-02-16 00:39:50:945,-2.87969,0.756738,-9.31484,-4.23784,-16.9966,96.0984
2023-02-16 00:39:50:955,-2.90992,0.763753,-9.32924,-4.24118,-17.002,96.1115
2023-02-16 00:39:50:965,-2.92295,0.723409,-9.32031,-4.23774,-17.0034,96.121
2023-02-16 00:39:50:975,-2.91512,0.709653,-9.28469,-4.23185,-17.001,96.1309
2023-02-16 00:39:50:985,-2.91385,0.703828,-9.29198,-4.23044,-16.9995,96.141
2023-02-16 00:39:50:995,-2.91711,0.679649,-9.29742,-4.23074,-17.0009,96.147
2023-02-16 00:39:51:5,-2.9039,0.662346,-9.29666,-4.23734,-17.0028,96.1521
2023-02-16 00:39:51:15,-2.89618,0.663313,-9.29715,-4.24214,-17.0052,96.1538
2023-02-16 00:39:51:25,-2.89611,0.698554,-9.31169,-4.24776,-17.0079,96.1529
2023-02-16 00:39:51:35,-2.91473,0.758506,-9.35392,-4.25628,-17.0046,96.1536
2023-02-16 00:39:51:45,-2.95299,0.805441,-9.38825,-4.26343,-16.9975,96.1537
2023-02-16 00:39:51:55,-2.94324,0.816514,-9.37729,-4.2681,-16.9975,96.148
2023-02-16 00:39:51:65,-2.95137,0.785377,-9.36009,-4.26466,-16.997,96.1432
2023-02-16 00:39:51:75,-2.97996,0.773404,-9.33108,-4.26204,-16.992,96.1364
2023-02-16 00:39:51:85,-2.96146,0.745593,-9.29956,-4.25057,-16.9803,96.1234
2023-02-16 00:39:51:95,-2.8616,0.72881,-9.31911,-4.24599,-16.9659,96.1044
2023-02-16 00:39:51:105,-2.74993,0.72405,-9.3506,-4.23606,-16.95,96.0848
2023-02-16 00:39:51:115,-2.72276,0.711208,-9.36412,-4.22792,-16.9445,96.0698
2023-02-16 00:39:51:125,-2.76089,0.70368,-9.36109,-4.22423,-16.9453,96.059
2023-02-16 00:39:51:135,-2.78651,0.68831,-9.3463,-4.21756,-16.9444,96.0484
2023-02-16 00:39:51:145,-2.79294,0.674358,-9.346,-4.20881,-16.9473,96.0397
2023-02-16 00:39:51:155,-2.83035,0.665612,-9.34501,-4.20233,-16.9538,96.0367
2023-02-16 00:39:51:165,-2.85034,0.686538,-9.35423,-4.202,-16.9556,96.0349
2023-02-16 00:39:51:175,-2.84817,0.699994,-9.36617,-4.19651,-16.9567,96.0279
2023-02-16 00:39:51:185,-2.84909,0.712877,-9.35851,-4.19554,-16.9565,96.0268
2023-02-16 00:39:51:195,-2.86426,0.727665,-9.35405,-4.18685,-16.9559,96.0225
2023-02-16 00:39:51:205,-2.85816,0.731374,-9.35097,-4.1786,-16.9534,96.0175
2023-02-16 00:39:51:215,-2.84337,0.722166,-9.35067,-4.16656,-16.9512,96.0157
2023-02-16 00:39:51:225,-2.85209,0.709232,-9.3329,-4.15539,-16.953,96.0096
2023-02-16 00:39:51:235,-2.85588,0.705359,-9.3257,-4.14377,-16.9556,96.0034
2023-02-16 00:39:51:245,-2.85242,0.711362,-9.33267,-4.13094,-16.9596,95.9949
2023-02-16 00:39:51:255,-2.8514,0.721092,-9.35969,-4.12054,-16.9654,95.9837
2023-02-16 00:39:51:265,-2.83887,0.708014,-9.37266,-4.10671,-16.9719,95.9735
2023-02-16 00:39:51:275,-2.82848,0.673907,-9.35669,-4.09214,-16.981,95.9635
2023-02-16 00:39:51:285,-2.81721,0.661524,-9.32096,-4.0772,-16.9899,95.9565
2023-02-16 00:39:51:295,-2.83643,0.653528,-9.31642,-4.06759,-17.0003,95.9524
2023-02-16 00:39:51:305,-2.86142,0.659171,-9.33234,-4.05823,-17.0091,95.9509
2023-02-16 00:39:51:315,-2.88952,0.655259,-9.32756,-4.0479,-17.0137,95.949
2023-02-16 00:39:51:325,-2.90459,0.6624,-9.31567,-4.03767,-17.0213,95.9483
2023-02-16 00:39:51:335,-2.89749,0.669947,-9.29387,-4.03116,-17.0248,95.9453
2023-02-16 00:39:51:345,-2.90081,0.665247,-9.29041,-4.02814,-17.0264,95.9471
2023-02-16 00:39:51:355,-2.9062,0.670967,-9.28664,-4.02431,-17.0318,95.9467
2023-02-16 00:39:51:365,-2.89203,0.666314,-9.27686,-4.01706,-17.0342,95.9404
2023-02-16 00:39:51:375,-2.8667,0.656318,-9.2856,-4.01153,-17.0287,95.9356
2023-02-16 00:39:51:385,-2.85924,0.649273,-9.30521,-4.01134,-17.0263,95.9333
2023-02-16 00:39:51:395,-2.85751,0.663911,-9.31017,-4.00886,-17.0248,95.9298
2023-02-16 00:39:51:405,-2.84867,0.656893,-9.31671,-4.00653,-17.0252,95.9244
2023-02-16 00:39:51:415,-2.85975,0.651825,-9.30692,-4.00245,-17.0272,95.9219
2023-02-16 00:39:51:425,-2.86395,0.650102,-9.31197,-4.00415,-17.0257,95.9199
2023-02-16 00:39:51:435,-2.85854,0.662225,-9.33124,-4.00726,-17.0226,95.9164
2023-02-16 00:39:51:445,-2.83727,0.692433,-9.36602,-4.00812,-17.024,95.9132
2023-02-16 00:39:51:455,-2.83644,0.703251,-9.39702,-4.00718,-17.023,95.9083
2023-02-16 00:39:51:465,-2.82827,0.700878,-9.40422,-4.00067,-17.0235,95.9022
2023-02-16 00:39:51:475,-2.83042,0.699776,-9.39114,-3.99516,-17.0258,95.8997
2023-02-16 00:39:51:485,-2.82267,0.693199,-9.38071,-3.98984,-17.0304,95.8972
2023-02-16 00:39:51:495,-2.83038,0.682493,-9.34454,-3.98424,-17.0368,95.8955
2023-02-16 00:39:51:505,-2.84838,0.657271,-9.30917,-3.97826,-17.0382,95.8919
2023-02-16 00:39:51:515,-2.82429,0.632227,-9.29314,-3.97384,-17.0432,95.893
2023-02-16 00:39:51:525,-2.81019,0.628316,-9.29189,-3.97478,-17.0437,95.8966
2023-02-16 00:39:51:535,-2.81824,0.649282,-9.29678,-3.97873,-17.047,95.9029
2023-02-16 00:39:51:545,-2.84929,0.680222,-9.33712,-3.9834,-17.048,95.9123
2023-02-16 00:39:51:555,-2.88585,0.701285,-9.36898,-3.98543,-17.0465,95.9207
2023-02-16 00:39:51:565,-2.92205,0.695119,-9.37579,-3.98558,-17.0479,95.9267
2023-02-16 00:39:51:575,-2.90961,0.690342,-9.3625,-3.97693,-17.0474,95.9315
2023-02-16 00:39:51:585,-2.88665,0.687092,-9.34795,-3.97167,-17.0479,95.9349
2023-02-16 00:39:51:595,-2.88888,0.674948,-9.30129,-3.96251,-17.0501,95.9355
2023-02-16 00:39:51:605,-2.92964,0.821856,-9.47,-3.95122,-17.014,95.951
2023-02-16 00:39:51:615,-2.91056,0.79676,-9.57566,-3.9064,-16.9878,95.9572
2023-02-16 00:39:51:625,-2.85551,0.421028,-9.05746,-3.87619,-16.9936,95.9461
2023-02-16 00:39:51:635,-2.73042,0.470457,-9.11047,-3.87461,-16.9943,95.9381
2023-02-16 00:39:51:645,-2.79635,0.700696,-9.45017,-3.88537,-16.9944,95.9412
2023-02-16 00:39:51:655,-2.90911,0.724257,-9.50697,-3.88377,-17.0067,95.9387
2023-02-16 00:39:51:665,-2.85083,0.650011,-9.39716,-3.8749,-17.0201,95.9292
2023-02-16 00:39:51:675,-2.82651,0.656831,-9.37691,-3.86234,-17.0212,95.932
2023-02-16 00:39:51:685,-2.86317,0.685156,-9.37246,-3.8505,-17.0269,95.9401
2023-02-16 00:39:51:695,-2.9016,0.674198,-9.3246,-3.84025,-17.0358,95.9439
2023-02-16 00:39:51:705,-2.89337,0.664803,-9.29607,-3.83004,-17.045,95.9406
2023-02-16 00:39:51:715,-2.8616,0.669646,-9.3142,-3.82344,-17.0533,95.9416
2023-02-16 00:39:51:725,-2.83746,0.671856,-9.32023,-3.82075,-17.0609,95.9468
2023-02-16 00:39:51:735,-2.8579,0.645482,-9.27809,-3.81356,-17.0696,95.9561
2023-02-16 00:39:51:745,-2.88351,0.620285,-9.22803,-3.81086,-17.0812,95.9606
2023-02-16 00:39:51:755,-2.87107,0.615006,-9.24688,-3.80917,-17.0883,95.9635
2023-02-16 00:39:51:765,-2.85696,0.620593,-9.28203,-3.80941,-17.0907,95.9674
2023-02-16 00:39:51:775,-2.86416,0.62523,-9.28336,-3.80722,-17.0912,95.9705
2023-02-16 00:39:51:785,-2.87901,0.605407,-9.30664,-3.81035,-17.0916,95.9745
2023-02-16 00:39:51:795,-2.86994,0.595296,-9.32925,-3.81185,-17.0911,95.981
2023-02-16 00:39:51:805,-2.82436,0.600042,-9.34987,-3.813,-17.0902,95.9874
2023-02-16 00:39:51:815,-2.82438,0.6047,-9.33804,-3.817,-17.0885,95.9953
2023-02-16 00:39:51:825,-2.83164,0.6067,-9.31834,-3.82473,-17.0926,96.0036
2023-02-16 00:39:51:835,-2.85866,0.642573,-9.35282,-3.83592,-17.0957,96.0138
2023-02-16 00:39:51:845,-2.86756,0.693971,-9.40345,-3.84547,-17.1005,96.0253
2023-02-16 00:39:51:855,-2.90005,0.725507,-9.37642,-3.84649,-17.1075,96.0361
2023-02-16 00:39:51:865,-2.95999,0.703139,-9.32195,-3.84884,-17.1142,96.0505
2023-02-16 00:39:51:875,-3.01759,0.681005,-9.3197,-3.8481,-17.1183,96.0585
2023-02-16 00:39:51:885,-3.02736,0.675801,-9.32874,-3.84365,-17.1175,96.0595
2023-02-16 00:39:51:895,-2.96034,0.680269,-9.35494,-3.8354,-17.115,96.052
2023-02-16 00:39:51:905,-2.871,0.637794,-9.33838,-3.82203,-17.114,96.041
2023-02-16 00:39:51:915,-2.82146,0.598613,-9.31752,-3.81193,-17.1163,96.031
2023-02-16 00:39:51:925,-2.83797,0.597772,-9.31101,-3.7992,-17.1222,96.024
2023-02-16 00:39:51:935,-2.8873,0.593041,-9.31867,-3.78693,-17.1324,96.0166
2023-02-16 00:39:51:945,-2.90289,0.595391,-9.3151,-3.78045,-17.1397,96.008
2023-02-16 00:39:51:955,-2.90285,0.61704,-9.33535,-3.77932,-17.1423,96.0055
2023-02-16 00:39:51:965,-2.88969,0.630474,-9.36046,-3.77805,-17.1448,96.0036
2023-02-16 00:39:51:975,-2.89058,0.632173,-9.33758,-3.7743,-17.144,96.0019
2023-02-16 00:39:51:985,-2.89136,0.633739,-9.32216,-3.77131,-17.1422,96.0033
2023-02-16 00:39:51:995,-2.87473,0.62397,-9.32171,-3.76747,-17.1348,96.0047
2023-02-16 00:39:52:5,-2.85636,0.626994,-9.30463,-3.76403,-17.1269,96.0061
2023-02-16 00:39:52:15,-2.85755,0.614506,-9.30253,-3.75776,-17.1226,96.0074
2023-02-16 00:39:52:25,-2.86223,0.619966,-9.31168,-3.75667,-17.1166,96.0116
2023-02-16 00:39:52:35,-2.87314,0.630069,-9.32029,-3.75234,-17.1138,96.0148
2023-02-16 00:39:52:45,-2.86681,0.629166,-9.32442,-3.75089,-17.1103,96.0167
2023-02-16 00:39:52:55,-2.85529,0.609906,-9.31665,-3.74722,-17.109,96.0162
2023-02-16 00:39:52:65,-2.82997,0.594251,-9.32097,-3.74256,-17.106,96.0178
2023-02-16 00:39:52:75,-2.80085,0.597403,-9.32925,-3.7415,-17.1031,96.0211
2023-02-16 00:39:52:85,-2.80381,0.595816,-9.32783,-3.741,-17.1014,96.03
2023-02-16 00:39:52:95,-2.82589,0.594235,-9.33416,-3.74075,-17.0987,96.0385
2023-02-16 00:39:52:105,-2.8566,0.613498,-9.3501,-3.7446,-17.0975,96.0515
2023-02-16 00:39:52:115,-2.87967,0.63399,-9.35231,-3.74479,-17.0943,96.0623
2023-02-16 00:39:52:125,-2.89382,0.650861,-9.34689,-3.74875,-17.0949,96.0727
2023-02-16 00:39:52:135,-2.90017,0.653109,-9.35714,-3.7535,-17.0923,96.0853
2023-02-16 00:39:52:145,-2.90124,0.657516,-9.37752,-3.75312,-17.0907,96.0912
2023-02-16 00:39:52:155,-2.88766,0.668479,-9.39176,-3.75111,-17.0905,96.0948
2023-02-16 00:39:52:165,-2.87125,0.665977,-9.39435,-3.74802,-17.0954,96.0956
2023-02-16 00:39:52:175,-2.87526,0.655752,-9.37876,-3.74373,-17.0989,96.0977
2023-02-16 00:39:52:185,-2.87914,0.647106,-9.36674,-3.72897,-17.1036,96.0951
2023-02-16 00:39:52:195,-2.89827,0.625264,-9.31823,-3.71282,-17.1056,96.0936
2023-02-16 00:39:52:205,-2.88332,0.793919,-9.54987,-3.69207,-17.0559,96.1102
2023-02-16 00:39:52:215,-2.79664,0.624738,-9.45497,-3.64591,-17.0453,96.1111
2023-02-16 00:39:52:225,-2.75814,0.33469,-8.95862,-3.62692,-17.0558,96.1039
2023-02-16 00:39:52:235,-2.73479,0.485497,-9.14548,-3.63749,-17.0592,96.115
2023-02-16 00:39:52:245,-2.87803,0.680942,-9.41838,-3.64992,-17.0616,96.1333
2023-02-16 00:39:52:255,-2.95029,0.642578,-9.38813,-3.65157,-17.0704,96.1356
2023-02-16 00:39:52:265,-2.84076,0.588079,-9.29421,-3.65036,-17.0726,96.1423
2023-02-16 00:39:52:275,-2.80847,0.57199,-9.30391,-3.64813,-17.0643,96.1539
2023-02-16 00:39:52:285,-2.87965,0.579953,-9.30645,-3.64706,-17.0619,96.1678
2023-02-16 00:39:52:295,-2.90459,0.58574,-9.28196,-3.64393,-17.0652,96.1731
2023-02-16 00:39:52:305,-2.88354,0.581617,-9.28784,-3.64703,-17.0703,96.1762
2023-02-16 00:39:52:315,-2.86583,0.599846,-9.32618,-3.6541,-17.0726,96.1772
2023-02-16 00:39:52:325,-2.85919,0.612815,-9.32964,-3.65611,-17.0783,96.1814
2023-02-16 00:39:52:335,-2.85256,0.595913,-9.30698,-3.66481,-17.0871,96.1826
2023-02-16 00:39:52:345,-2.84273,0.591901,-9.31859,-3.67463,-17.0933,96.186
2023-02-16 00:39:52:355,-2.84456,0.612304,-9.36493,-3.68084,-17.0992,96.189
2023-02-16 00:39:52:365,-2.84916,0.633664,-9.3809,-3.68726,-17.0986,96.1973
2023-02-16 00:39:52:375,-2.87192,0.622543,-9.33564,-3.69102,-17.0983,96.2098
2023-02-16 00:39:52:385,-2.92691,0.592071,-9.30278,-3.69421,-17.0972,96.2258
2023-02-16 00:39:52:395,-2.97649,0.600722,-9.29038,-3.70247,-17.0916,96.2396
2023-02-16 00:39:52:405,-2.98481,0.614732,-9.2824,-3.71236,-17.0849,96.251
2023-02-16 00:39:52:415,-2.96704,0.634793,-9.31094,-3.72054,-17.0764,96.2587
2023-02-16 00:39:52:425,-2.94542,0.651074,-9.34249,-3.73303,-17.073,96.2607
2023-02-16 00:39:52:435,-2.94906,0.659517,-9.33909,-3.74045,-17.0705,96.2586
2023-02-16 00:39:52:445,-2.96851,0.677689,-9.33159,-3.74361,-17.0736,96.2545
2023-02-16 00:39:52:455,-2.98002,0.669267,-9.34116,-3.74373,-17.0764,96.2462
2023-02-16 00:39:52:465,-2.94747,0.64925,-9.36072,-3.74698,-17.0781,96.2346
2023-02-16 00:39:52:475,-2.89321,0.652125,-9.40626,-3.74697,-17.0772,96.2188
2023-02-16 00:39:52:485,-2.84449,0.665421,-9.45244,-3.7451,-17.0762,96.1993
2023-02-16 00:39:52:495,-2.8125,0.666067,-9.44361,-3.73682,-17.0777,96.184
2023-02-16 00:39:52:505,-2.81956,0.65263,-9.40841,-3.7272,-17.0798,96.1725
2023-02-16 00:39:52:515,-2.84347,0.633251,-9.35214,-3.71852,-17.0824,96.1629
2023-02-16 00:39:52:525,-2.81515,0.623438,-9.3265,-3.71085,-17.0869,96.1598
2023-02-16 00:39:52:535,-2.79773,0.633993,-9.33169,-3.70581,-17.0891,96.1593
2023-02-16 00:39:52:545,-2.80943,0.649015,-9.3469,-3.7017,-17.0921,96.1675
2023-02-16 00:39:52:555,-2.82928,0.652994,-9.3403,-3.69912,-17.0923,96.1774
2023-02-16 00:39:52:565,-2.82189,0.642101,-9.32905,-3.69213,-17.0918,96.1881
2023-02-16 00:39:52:575,-2.82175,0.640468,-9.30095,-3.68744,-17.0921,96.2014
2023-02-16 00:39:52:585,-2.8208,0.640466,-9.29163,-3.6817,-17.0966,96.2139
2023-02-16 00:39:52:595,-2.83322,0.623634,-9.3001,-3.6751,-17.1027,96.2275
2023-02-16 00:39:52:605,-2.85586,0.598552,-9.27126,-3.66786,-17.1074,96.2397
2023-02-16 00:39:52:615,-2.8503,0.591549,-9.26476,-3.6671,-17.1141,96.254
2023-02-16 00:39:52:625,-2.82868,0.600176,-9.27054,-3.6708,-17.1185,96.2726
2023-02-16 00:39:52:635,-2.8476,0.605376,-9.28093,-3.67667,-17.1195,96.2937
2023-02-16 00:39:52:645,-2.87349,0.617553,-9.30116,-3.68597,-17.1195,96.314
2023-02-16 00:39:52:655,-2.84707,0.625582,-9.32258,-3.69725,-17.1161,96.3347
2023-02-16 00:39:52:665,-2.84374,0.654159,-9.35935,-3.70876,-17.1154,96.3559
2023-02-16 00:39:52:675,-2.85424,0.678693,-9.39954,-3.7211,-17.1138,96.3764
2023-02-16 00:39:52:685,-2.86418,0.703319,-9.41814,-3.73217,-17.1078,96.3966
2023-02-16 00:39:52:695,-2.84849,0.730128,-9.40383,-3.73926,-17.1057,96.4156
2023-02-16 00:39:52:705,-2.81229,0.737665,-9.3644,-3.74722,-17.1048,96.4298
2023-02-16 00:39:52:715,-2.81526,0.738982,-9.32884,-3.75433,-17.1046,96.4477
2023-02-16 00:39:52:725,-2.84605,0.728248,-9.32651,-3.75649,-17.1042,96.4612
2023-02-16 00:39:52:735,-2.82973,0.713893,-9.33821,-3.76517,-17.1056,96.4737
2023-02-16 00:39:52:745,-2.7874,0.717389,-9.36481,-3.76925,-17.1094,96.4863
2023-02-16 00:39:52:755,-2.76495,0.715788,-9.38719,-3.76965,-17.116,96.4976
2023-02-16 00:39:52:765,-2.84691,0.728017,-9.37682,-3.76803,-17.1214,96.5109
2023-02-16 00:39:52:775,-2.91895,0.902361,-9.67552,-3.74688,-17.0773,96.5456
2023-02-16 00:39:52:785,-2.897,0.643933,-9.41385,-3.70303,-17.0818,96.5567
2023-02-16 00:39:52:795,-2.78686,0.462477,-9.12339,-3.68055,-17.0842,96.5691
2023-02-16 00:39:52:805,-2.71659,0.493184,-9.18993,-3.68292,-17.104,96.5815
2023-02-16 00:39:52:815,-2.85758,0.668345,-9.37933,-3.69136,-17.1226,96.6004
2023-02-16 00:39:52:825,-2.92767,0.692043,-9.4318,-3.69523,-17.1463,96.6138
2023-02-16 00:39:52:835,-2.94487,0.7086,-9.4037,-3.68612,-17.1533,96.6287
2023-02-16 00:39:52:845,-2.88832,0.766754,-9.51739,-3.6644,-17.1325,96.6546
2023-02-16 00:39:52:855,-2.87608,0.564479,-9.23943,-3.63584,-17.1398,96.6734
2023-02-16 00:39:52:865,-2.85632,0.425737,-8.99774,-3.6301,-17.157,96.6905
2023-02-16 00:39:52:875,-2.87689,0.546843,-9.16686,-3.63852,-17.1688,96.7169
2023-02-16 00:39:52:885,-2.98689,0.638633,-9.33734,-3.64693,-17.1818,96.7389
2023-02-16 00:39:52:895,-3.01155,0.577598,-9.30756,-3.64429,-17.1991,96.7536
2023-02-16 00:39:52:905,-3.0021,0.55005,-9.2938,-3.6343,-17.2102,96.7641
2023-02-16 00:39:52:915,-3.05598,0.6788,-9.46756,-3.61929,-17.1889,96.7898
2023-02-16 00:39:52:925,-3.06796,0.656805,-9.57372,-3.57393,-17.1733,96.8064
2023-02-16 00:39:52:935,-3.03264,0.312226,-9.14174,-3.53741,-17.1881,96.7976
2023-02-16 00:39:52:945,-2.93897,0.297118,-9.126,-3.51994,-17.2051,96.7859
2023-02-16 00:39:52:955,-3.01214,0.46906,-9.39404,-3.50895,-17.2132,96.7809
2023-02-16 00:39:52:965,-3.13383,0.479566,-9.40734,-3.48937,-17.2286,96.7625
2023-02-16 00:39:52:975,-3.0458,0.397582,-9.28432,-3.47091,-17.2399,96.7358
2023-02-16 00:39:52:985,-2.91294,0.384174,-9.26431,-3.45394,-17.2377,96.705
2023-02-16 00:39:52:995,-2.83891,0.404417,-9.25195,-3.43919,-17.2316,96.6807
2023-02-16 00:39:53:5,-2.77643,0.389136,-9.20034,-3.43181,-17.2229,96.6556
2023-02-16 00:39:53:15,-2.70925,0.406602,-9.20527,-3.43322,-17.2103,96.6347
2023-02-16 00:39:53:25,-2.6672,0.482415,-9.26282,-3.44235,-17.194,96.6241
2023-02-16 00:39:53:35,-2.67181,0.529735,-9.29199,-3.45231,-17.1757,96.6245
2023-02-16 00:39:53:45,-2.71568,0.544671,-9.30661,-3.46706,-17.1597,96.6363
2023-02-16 00:39:53:55,-2.76687,0.55339,-9.32665,-3.48574,-17.148,96.6515
2023-02-16 00:39:53:65,-2.76645,0.580422,-9.35544,-3.50505,-17.1388,96.6735
2023-02-16 00:39:53:75,-2.78946,0.602095,-9.39305,-3.5165,-17.1254,96.6956
2023-02-16 00:39:53:85,-2.80973,0.611263,-9.41878,-3.52867,-17.1189,96.7209
2023-02-16 00:39:53:95,-2.86049,0.612782,-9.38595,-3.53647,-17.1149,96.7442
2023-02-16 00:39:53:105,-2.88073,0.579749,-9.34362,-3.54403,-17.1156,96.7636
2023-02-16 00:39:53:115,-2.89191,0.545866,-9.32913,-3.54921,-17.1209,96.781
2023-02-16 00:39:53:125,-2.94344,0.550134,-9.33308,-3.55608,-17.1329,96.7933
2023-02-16 00:39:53:135,-2.99504,0.5792,-9.31459,-3.5669,-17.1498,96.802
2023-02-16 00:39:53:145,-3.0134,0.577153,-9.29758,-3.57961,-17.1705,96.8075
2023-02-16 00:39:53:155,-2.99231,0.584209,-9.28908,-3.59354,-17.1875,96.809
2023-02-16 00:39:53:165,-2.97069,0.60598,-9.29477,-3.6098,-17.2028,96.808
2023-02-16 00:39:53:175,-2.93425,0.633498,-9.30413,-3.61789,-17.2146,96.8012
2023-02-16 00:39:53:185,-2.90752,0.643878,-9.30097,-3.63067,-17.2224,96.7936
2023-02-16 00:39:53:195,-2.93761,0.657639,-9.33474,-3.64386,-17.2312,96.7896
2023-02-16 00:39:53:205,-2.97028,0.685809,-9.39061,-3.65533,-17.2365,96.785
2023-02-16 00:39:53:215,-2.97013,0.658535,-9.39307,-3.65453,-17.2349,96.7766
2023-02-16 00:39:53:225,-2.92139,0.610734,-9.34611,-3.65268,-17.2346,96.7727
2023-02-16 00:39:53:235,-2.87391,0.562242,-9.29604,-3.65111,-17.2307,96.7701
2023-02-16 00:39:53:245,-2.85247,0.549001,-9.26739,-3.65337,-17.2271,96.7702
2023-02-16 00:39:53:255,-2.85603,0.545353,-9.26279,-3.66056,-17.2252,96.7769
2023-02-16 00:39:53:265,-2.90483,0.569943,-9.27288,-3.67226,-17.2211,96.7902
2023-02-16 00:39:53:275,-2.96678,0.606349,-9.29952,-3.68633,-17.2128,96.8032
2023-02-16 00:39:53:285,-2.97529,0.61551,-9.30077,-3.69966,-17.2027,96.8146
2023-02-16 00:39:53:295,-2.94903,0.617599,-9.28115,-3.71103,-17.1937,96.8203
2023-02-16 00:39:53:305,-2.93418,0.620721,-9.26102,-3.72241,-17.1852,96.8263
2023-02-16 00:39:53:315,-2.91211,0.613499,-9.26317,-3.7368,-17.1721,96.8286
2023-02-16 00:39:53:325,-2.87372,0.629997,-9.27866,-3.75054,-17.1622,96.8262
2023-02-16 00:39:53:335,-2.84558,0.628139,-9.30304,-3.76468,-17.1523,96.8261
2023-02-16 00:39:53:345,-2.85417,0.635004,-9.3271,-3.77551,-17.1454,96.8225
2023-02-16 00:39:53:355,-2.85722,0.657169,-9.35217,-3.79179,-17.1428,96.8199
2023-02-16 00:39:53:365,-2.86056,0.66091,-9.37593,-3.80909,-17.1386,96.8167
2023-02-16 00:39:53:375,-2.83502,0.629748,-9.37491,-3.82265,-17.1376,96.8148
2023-02-16 00:39:53:385,-2.82173,0.604442,-9.36177,-3.84073,-17.1374,96.8203
2023-02-16 00:39:53:395,-2.85706,0.597563,-9.34781,-3.86071,-17.1383,96.8262
2023-02-16 00:39:53:405,-2.91595,0.627271,-9.36853,-3.88531,-17.1422,96.8344
2023-02-16 00:39:53:415,-2.93782,0.658399,-9.38518,-3.91009,-17.1415,96.8446
2023-02-16 00:39:53:425,-2.92027,0.685762,-9.40376,-3.93036,-17.136,96.8536
2023-02-16 00:39:53:435,-2.86357,0.720966,-9.39593,-3.95011,-17.1313,96.8618
2023-02-16 00:39:53:445,-2.82932,0.708788,-9.38599,-3.96282,-17.1276,96.8687
2023-02-16 00:39:53:455,-2.79979,0.694803,-9.34119,-3.97059,-17.1241,96.8734
2023-02-16 00:39:53:465,-2.76915,0.652494,-9.27792,-3.9768,-17.1213,96.8812
2023-02-16 00:39:53:475,-2.79171,0.619867,-9.22428,-3.99168,-17.119,96.8963
2023-02-16 00:39:53:485,-2.84074,0.63584,-9.2503,-4.00617,-17.1188,96.9078
2023-02-16 00:39:53:495,-2.87441,0.677365,-9.34187,-4.02366,-17.1214,96.9195
2023-02-16 00:39:53:505,-2.88336,0.732727,-9.40835,-4.03767,-17.1225,96.9312
2023-02-16 00:39:53:515,-2.89726,0.754353,-9.41003,-4.04673,-17.1258,96.9408
2023-02-16 00:39:53:525,-2.88005,0.711797,-9.34766,-4.04988,-17.132,96.9519
2023-02-16 00:39:53:535,-2.87843,0.677858,-9.30952,-4.05403,-17.1359,96.9632
2023-02-16 00:39:53:545,-2.88281,0.682264,-9.28864,-4.0576,-17.1386,96.9701
2023-02-16 00:39:53:555,-2.87841,0.663512,-9.30832,-4.06699,-17.1456,96.9788
2023-02-16 00:39:53:565,-2.89088,0.659724,-9.28959,-4.07543,-17.1543,96.983
2023-02-16 00:39:53:575,-2.8857,0.617024,-9.23416,-4.09011,-17.163,96.9897
2023-02-16 00:39:53:585,-2.85836,0.585692,-9.13024,-4.10851,-17.1647,96.9912
2023-02-16 00:39:53:595,-2.8113,0.56413,-9.10149,-4.13658,-17.162,96.9998
2023-02-16 00:39:53:605,-2.81366,0.596742,-9.18716,-4.17842,-17.1594,97.0096
2023-02-16 00:39:53:615,-2.83379,0.667717,-9.30653,-4.22331,-17.1507,97.0189
2023-02-16 00:39:53:625,-2.82971,0.754126,-9.4117,-4.2682,-17.1422,97.0266
2023-02-16 00:39:53:635,-2.77831,0.785106,-9.49282,-4.30439,-17.131,97.0351
2023-02-16 00:39:53:645,-2.73368,0.78584,-9.4941,-4.33263,-17.1242,97.0501
2023-02-16 00:39:53:655,-2.75438,0.728882,-9.4148,-4.3506,-17.1235,97.0673
2023-02-16 00:39:53:665,-2.82111,0.720838,-9.34215,-4.36878,-17.1312,97.0869
2023-02-16 00:39:53:675,-2.87152,0.741985,-9.33215,-4.3867,-17.1374,97.11
2023-02-16 00:39:53:685,-2.89861,0.782707,-9.36154,-4.40877,-17.1449,97.1292
2023-02-16 00:39:53:695,-2.90155,0.815804,-9.3943,-4.42664,-17.1523,97.1433
2023-02-16 00:39:53:705,-2.88401,0.823136,-9.42138,-4.44187,-17.165,97.1561
2023-02-16 00:39:53:715,-2.88722,0.83574,-9.4193,-4.45703,-17.1768,97.1707
2023-02-16 00:39:53:725,-2.87387,0.838086,-9.39625,-4.46954,-17.1916,97.1826
2023-02-16 00:39:53:735,-2.85744,0.828043,-9.36925,-4.47743,-17.2049,97.1951
2023-02-16 00:39:53:745,-2.85211,0.797104,-9.32728,-4.48648,-17.219,97.2122
2023-02-16 00:39:53:755,-2.86258,0.748716,-9.28115,-4.49416,-17.237,97.2275
2023-02-16 00:39:53:765,-2.87768,0.733576,-9.25787,-4.50226,-17.2537,97.2482
2023-02-16 00:39:53:775,-2.87414,0.73881,-9.27611,-4.51458,-17.2714,97.2671
2023-02-16 00:39:53:785,-2.87477,0.743986,-9.27013,-4.5255,-17.2867,97.2878
2023-02-16 00:39:53:795,-2.84532,0.714809,-9.26039,-4.53667,-17.3019,97.3101
2023-02-16 00:39:53:805,-2.82378,0.691732,-9.24987,-4.55308,-17.3142,97.3361
2023-02-16 00:39:53:815,-2.83169,0.689527,-9.24417,-4.57354,-17.3277,97.3666
2023-02-16 00:39:53:825,-2.85258,0.728504,-9.2724,-4.60136,-17.3383,97.4032
2023-02-16 00:39:53:835,-2.85545,0.749719,-9.31694,-4.6297,-17.3532,97.451
2023-02-16 00:39:53:845,-2.87678,0.762039,-9.30932,-4.65534,-17.3628,97.4982
2023-02-16 00:39:53:855,-2.88986,0.75548,-9.22386,-4.6819,-17.371,97.5531
2023-02-16 00:39:53:865,-2.8696,0.686623,-9.14037,-4.70822,-17.3755,97.6081
2023-02-16 00:39:53:875,-2.87043,0.66669,-9.11689,-4.74796,-17.3741,97.6717
2023-02-16 00:39:53:885,-2.90822,0.706579,-9.1804,-4.79183,-17.3721,97.7365
2023-02-16 00:39:53:895,-2.93936,0.730014,-9.22784,-4.83798,-17.3762,97.8035
2023-02-16 00:39:53:905,-2.94595,0.729859,-9.22687,-4.89103,-17.3751,97.8743
2023-02-16 00:39:53:915,-2.94455,0.780937,-9.26715,-4.94401,-17.3709,97.9462
2023-02-16 00:39:53:925,-2.95834,0.841281,-9.34157,-5.00291,-17.3706,98.0202
2023-02-16 00:39:53:935,-2.97997,0.887417,-9.32486,-5.05714,-17.3688,98.0935
2023-02-16 00:39:53:945,-2.97698,0.785984,-9.26514,-5.10457,-17.3644,98.1692
2023-02-16 00:39:53:955,-3.05681,0.818185,-9.40901,-5.1666,-17.3653,98.249
2023-02-16 00:39:53:965,-3.06742,1.01452,-9.5485,-5.2167,-17.3702,98.3188
2023-02-16 00:39:53:975,-3.01378,0.947956,-9.40863,-5.25812,-17.3764,98.3879
2023-02-16 00:39:53:985,-3.00017,0.852991,-9.15736,-5.29931,-17.3776,98.4602
2023-02-16 00:39:53:995,-2.97032,0.831101,-9.06568,-5.35969,-17.379,98.5411
2023-02-16 00:39:54:5,-3.00974,0.845808,-9.17329,-5.43939,-17.3809,98.6287
2023-02-16 00:39:54:15,-3.13972,0.948947,-9.46031,-5.53781,-17.3861,98.7151
2023-02-16 00:39:54:25,-3.25609,1.09024,-9.81138,-5.6231,-17.3932,98.7895
2023-02-16 00:39:54:35,-3.31156,1.15727,-10.0034,-5.67454,-17.3999,98.8523
2023-02-16 00:39:54:45,-3.27483,1.12318,-9.92448,-5.68465,-17.3962,98.8982
2023-02-16 00:39:54:55,-3.08843,0.956212,-9.63269,-5.65726,-17.3806,98.9323
2023-02-16 00:39:54:65,-2.86928,0.67844,-9.301,-5.61677,-17.3484,98.9657
2023-02-16 00:39:54:75,-2.77278,0.52932,-9.11062,-5.58947,-17.3201,98.9964
2023-02-16 00:39:54:85,-2.75943,0.587874,-9.13864,-5.58966,-17.2986,99.0303
2023-02-16 00:39:54:95,-2.80962,0.742522,-9.24992,-5.60583,-17.2824,99.0732
2023-02-16 00:39:54:105,-2.94303,0.838084,-9.2525,-5.61869,-17.2721,99.1188
2023-02-16 00:39:54:115,-3.02497,0.86438,-9.1957,-5.62695,-17.2528,99.1681
2023-02-16 00:39:54:125,-3.0091,0.846884,-9.07574,-5.63345,-17.2314,99.2059
2023-02-16 00:39:54:135,-2.89686,0.914982,-9.09868,-5.63925,-17.1914,99.2324
2023-02-16 00:39:54:145,-2.7898,0.890216,-9.0419,-5.63852,-17.1588,99.2557
2023-02-16 00:39:54:155,-2.70815,0.846835,-8.92347,-5.64667,-17.1217,99.2763
2023-02-16 00:39:54:165,-2.62138,0.921033,-9.02579,-5.65808,-17.0812,99.3037
2023-02-16 00:39:54:175,-2.70462,0.86513,-8.94145,-5.68181,-17.0758,99.3273
2023-02-16 00:39:54:185,-2.74443,0.885296,-8.92409,-5.7102,-17.0704,99.3532
2023-02-16 00:39:54:195,-2.76552,0.916782,-8.97687,-5.74386,-17.059,99.3801
2023-02-16 00:39:54:205,-2.75597,0.974228,-9.10646,-5.77598,-17.0275,99.41
2023-02-16 00:39:54:215,-2.68568,0.926323,-9.11539,-5.8076,-17.0019,99.4297
2023-02-16 00:39:54:225,-2.63472,0.765683,-8.97106,-5.85126,-17.0076,99.4495
2023-02-16 00:39:54:235,-2.64093,0.737853,-8.94066,-5.91812,-17.0262,99.4677
2023-02-16 00:39:54:245,-2.71957,0.816312,-8.99169,-6.01457,-17.0661,99.487
2023-02-16 00:39:54:255,-2.85079,1.01045,-9.21643,-6.12986,-17.0932,99.5144
2023-02-16 00:39:54:265,-2.9065,1.21997,-9.52935,-6.23338,-17.1008,99.5414
2023-02-16 00:39:54:275,-2.83142,1.23092,-9.54764,-6.32076,-17.1091,99.5612
2023-02-16 00:39:54:285,-2.67709,1.14634,-9.41265,-6.40883,-17.1265,99.5846
2023-02-16 00:39:54:295,-2.71029,1.15591,-9.32454,-6.51284,-17.1579,99.6264
2023-02-16 00:39:54:305,-2.9299,1.34293,-9.47933,-6.6245,-17.1879,99.687
2023-02-16 00:39:54:315,-3.09866,1.47645,-9.6201,-6.72295,-17.2178,99.7489
2023-02-16 00:39:54:325,-3.14334,1.4705,-9.60889,-6.80254,-17.24,99.8087
2023-02-16 00:39:54:335,-3.09309,1.4006,-9.50713,-6.86847,-17.2618,99.8695
2023-02-16 00:39:54:345,-3.10953,1.37153,-9.481,-6.91852,-17.27,99.9296
2023-02-16 00:39:54:355,-3.10478,1.33752,-9.44339,-6.95916,-17.2734,99.9893
2023-02-16 00:39:54:365,-3.07717,1.27746,-9.40418,-6.98683,-17.2688,100.047
2023-02-16 00:39:54:375,-3.11871,1.1876,-9.30899,-7.00844,-17.2706,100.106
2023-02-16 00:39:54:385,-3.23292,1.13362,-9.24357,-7.039,-17.2721,100.155
2023-02-16 00:39:54:395,-3.16799,1.11799,-9.31852,-7.06684,-17.2688,100.199
2023-02-16 00:39:54:405,-3.09003,1.10373,-9.42524,-7.0902,-17.2534,100.251
2023-02-16 00:39:54:415,-3.11346,1.04797,-9.3774,-7.10615,-17.2464,100.308
2023-02-16 00:39:54:425,-3.21501,0.996927,-9.28503,-7.12041,-17.2445,100.357
2023-02-16 00:39:54:435,-3.26668,0.981941,-9.29189,-7.13502,-17.2458,100.399
2023-02-16 00:39:54:445,-3.22689,1.002,-9.35432,-7.14659,-17.2457,100.428
2023-02-16 00:39:54:455,-3.2039,1.01866,-9.4087,-7.14342,-17.2341,100.451
2023-02-16 00:39:54:465,-3.16578,0.947474,-9.34941,-7.12088,-17.215,100.465
2023-02-16 00:39:54:475,-3.10308,0.818055,-9.21047,-7.09212,-17.2001,100.471
2023-02-16 00:39:54:485,-3.01403,0.746607,-9.09418,-7.06639,-17.1851,100.465
2023-02-16 00:39:54:495,-2.98243,0.723171,-9.00568,-7.04982,-17.1774,100.454
2023-02-16 00:39:54:505,-3.01938,0.737582,-8.96488,-7.04567,-17.1685,100.441
2023-02-16 00:39:54:515,-3.07805,0.790257,-8.99213,-7.04875,-17.1512,100.414
2023-02-16 00:39:54:525,-3.03014,0.863714,-9.08495,-7.05759,-17.1213,100.372
2023-02-16 00:39:54:535,-2.91249,0.919932,-9.17191,-7.06637,-17.0876,100.31
2023-02-16 00:39:54:545,-2.75016,0.912768,-9.20603,-7.07013,-17.0501,100.235
2023-02-16 00:39:54:555,-2.54255,0.837803,-9.13591,-7.07746,-17.0212,100.148
2023-02-16 00:39:54:565,-2.38435,0.804828,-9.08659,-7.10176,-17.0007,100.066
2023-02-16 00:39:54:575,-2.32114,0.86646,-9.13366,-7.15186,-16.9848,99.9914
2023-02-16 00:39:54:585,-2.29336,1.0011,-9.24484,-7.21904,-16.9721,99.9357
2023-02-16 00:39:54:595,-2.30713,1.13828,-9.28442,-7.30227,-16.9622,99.9003
2023-02-16 00:39:54:605,-2.32651,1.25411,-9.30639,-7.39232,-16.9611,99.8803
2023-02-16 00:39:54:615,-2.37973,1.36757,-9.37189,-7.49071,-16.9656,99.8816
2023-02-16 00:39:54:625,-2.47037,1.48496,-9.46771,-7.58559,-16.9771,99.8987
2023-02-16 00:39:54:635,-2.57619,1.5676,-9.51571,-7.67316,-16.9949,99.9277
2023-02-16 00:39:54:645,-2.65914,1.61343,-9.52401,-7.75298,-17.0187,99.965
2023-02-16 00:39:54:655,-2.71749,1.64097,-9.49545,-7.82509,-17.0469,100.009
2023-02-16 00:39:54:665,-2.77291,1.63394,-9.44753,-7.88763,-17.0807,100.054
2023-02-16 00:39:54:675,-2.84756,1.61914,-9.42947,-7.94821,-17.118,100.104
2023-02-16 00:39:54:685,-2.93721,1.61873,-9.40395,-7.99538,-17.1501,100.146
2023-02-16 00:39:54:695,-2.97613,1.61641,-9.36124,-8.03785,-17.1818,100.19
2023-02-16 00:39:54:705,-2.98574,1.58476,-9.30474,-8.06936,-17.2084,100.229
2023-02-16 00:39:54:715,-2.99893,1.54323,-9.27405,-8.09555,-17.2323,100.263
2023-02-16 00:39:54:725,-2.98796,1.54534,-9.27157,-8.12229,-17.2472,100.299
2023-02-16 00:39:54:735,-2.99773,1.51594,-9.23643,-8.13888,-17.2516,100.323
2023-02-16 00:39:54:745,-3.01778,1.47615,-9.20769,-8.15225,-17.2528,100.352
2023-02-16 00:39:54:755,-3.02016,1.44111,-9.17722,-8.16176,-17.2454,100.37
2023-02-16 00:39:54:765,-2.99906,1.40841,-9.1574,-8.17162,-17.2365,100.385
2023-02-16 00:39:54:775,-2.98348,1.40362,-9.19754,-8.18456,-17.2243,100.397
2023-02-16 00:39:54:785,-2.98826,1.43252,-9.22174,-8.19412,-17.2105,100.399
2023-02-16 00:39:54:795,-2.97996,1.43304,-9.20763,-8.20327,-17.2004,100.399
2023-02-16 00:39:54:805,-2.98649,1.40423,-9.16936,-8.20813,-17.1968,100.394
2023-02-16 00:39:54:815,-3.00526,1.37872,-9.11814,-8.21381,-17.1929,100.379
2023-02-16 00:39:54:825,-3.03194,1.37761,-9.09481,-8.22861,-17.1868,100.358
2023-02-16 00:39:54:835,-3.02842,1.40493,-9.10724,-8.24594,-17.1852,100.328
2023-02-16 00:39:54:845,-3.05944,1.46011,-9.15565,-8.26705,-17.1871,100.287
2023-02-16 00:39:54:855,-3.16538,1.50748,-9.1715,-8.28675,-17.188,100.238
2023-02-16 00:39:54:865,-3.2666,1.5252,-9.19593,-8.30062,-17.1914,100.172
2023-02-16 00:39:54:875,-3.29683,1.53535,-9.22894,-8.30891,-17.1943,100.083
2023-02-16 00:39:54:885,-3.27452,1.55765,-9.23837,-8.30801,-17.1934,99.9733
2023-02-16 00:39:54:895,-3.22576,1.52139,-9.2447,-8.30069,-17.1912,99.8436
2023-02-16 00:39:54:905,-3.15768,1.47621,-9.21265,-8.2888,-17.1959,99.6877
2023-02-16 00:39:54:915,-3.19856,1.49505,-9.22149,-8.28184,-17.2078,99.5157
2023-02-16 00:39:54:925,-3.29802,1.54607,-9.30413,-8.27137,-17.2204,99.3241
2023-02-16 00:39:54:935,-3.37118,1.54969,-9.29876,-8.2463,-17.2362,99.1091
2023-02-16 00:39:54:945,-3.3545,1.5024,-9.2358,-8.21714,-17.2598,98.8617
2023-02-16 00:39:54:955,-3.26799,1.45541,-9.19086,-8.18948,-17.2928,98.588
2023-02-16 00:39:54:965,-3.17967,1.48116,-9.2458,-8.16519,-17.3313,98.2928
2023-02-16 00:39:54:975,-3.12587,1.51913,-9.35627,-8.13625,-17.3806,97.9815
2023-02-16 00:39:54:985,-3.15783,1.50605,-9.33932,-8.1057,-17.44,97.6588
2023-02-16 00:39:54:995,-3.16453,1.4682,-9.33099,-8.06619,-17.4986,97.3192
2023-02-16 00:39:55:5,-3.09923,1.4296,-9.30883,-8.02299,-17.5558,96.9709
2023-02-16 00:39:55:15,-3.00733,1.39339,-9.31067,-7.97277,-17.6151,96.6193
2023-02-16 00:39:55:25,-2.89738,1.35551,-9.32128,-7.91445,-17.6705,96.2656
2023-02-16 00:39:55:35,-2.76167,1.30099,-9.30878,-7.86219,-17.7255,95.9172
2023-02-16 00:39:55:45,-2.65867,1.24785,-9.31333,-7.8089,-17.7799,95.5844
2023-02-16 00:39:55:55,-2.61678,1.22785,-9.28875,-7.75155,-17.8371,95.2692
2023-02-16 00:39:55:65,-2.61505,1.21055,-9.2774,-7.69754,-17.8899,94.9757
2023-02-16 00:39:55:75,-2.64818,1.18755,-9.28376,-7.64575,-17.9375,94.711
2023-02-16 00:39:55:85,-2.67142,1.17852,-9.26878,-7.59294,-17.9764,94.4658
2023-02-16 00:39:55:95,-2.65217,1.15533,-9.26237,-7.54182,-18.0012,94.2404
2023-02-16 00:39:55:105,-2.63081,1.10836,-9.22048,-7.4912,-18.0223,94.0376
2023-02-16 00:39:55:115,-2.68118,1.07856,-9.18344,-7.44911,-18.0361,93.8593
2023-02-16 00:39:55:125,-2.71703,1.09905,-9.19656,-7.41215,-18.0421,93.7036
2023-02-16 00:39:55:135,-2.70435,1.10194,-9.19655,-7.37715,-18.0432,93.5674
2023-02-16 00:39:55:145,-2.70744,1.07156,-9.18444,-7.34542,-18.0433,93.4455
2023-02-16 00:39:55:155,-2.7408,1.06819,-9.19527,-7.32515,-18.0411,93.3418
2023-02-16 00:39:55:165,-2.7553,1.09056,-9.25586,-7.31417,-18.036,93.256
2023-02-16 00:39:55:175,-2.75401,1.12772,-9.32228,-7.30633,-18.027,93.1836
2023-02-16 00:39:55:185,-2.73636,1.11687,-9.32679,-7.29633,-18.0173,93.1274
2023-02-16 00:39:55:195,-2.76137,1.10316,-9.30528,-7.29084,-18.0063,93.09
2023-02-16 00:39:55:205,-2.80719,1.12279,-9.28428,-7.29013,-17.9937,93.0643
2023-02-16 00:39:55:215,-2.85707,1.15783,-9.26869,-7.29218,-17.9794,93.0505
2023-02-16 00:39:55:225,-2.91871,1.18158,-9.25291,-7.29692,-17.9671,93.048
2023-02-16 00:39:55:235,-2.9658,1.18243,-9.21297,-7.30241,-17.9592,93.0531
2023-02-16 00:39:55:245,-3.01794,1.17683,-9.15584,-7.30843,-17.9449,93.0562
2023-02-16 00:39:55:255,-3.08658,1.18187,-9.12268,-7.3192,-17.9301,93.0622
2023-02-16 00:39:55:265,-3.10309,1.19038,-9.13002,-7.33573,-17.9201,93.062
2023-02-16 00:39:55:275,-3.05773,1.19023,-9.1636,-7.34823,-17.9097,93.0589
2023-02-16 00:39:55:285,-3.00665,1.18147,-9.1688,-7.36175,-17.9043,93.05
2023-02-16 00:39:55:295,-2.98955,1.1404,-9.1312,-7.37947,-17.9015,93.0439
2023-02-16 00:39:55:305,-2.98307,1.11053,-9.08543,-7.40031,-17.8999,93.0348
2023-02-16 00:39:55:315,-2.95675,1.0842,-9.06138,-7.42754,-17.9007,93.0276
2023-02-16 00:39:55:325,-2.88159,1.07628,-9.0842,-7.46642,-17.9005,93.0215
2023-02-16 00:39:55:335,-2.85184,1.08354,-9.09039,-7.51538,-17.9084,93.0208
2023-02-16 00:39:55:345,-2.87698,1.18354,-9.19873,-7.57189,-17.9042,93.0309
2023-02-16 00:39:55:355,-2.8457,1.22571,-9.262,-7.62542,-17.8989,93.0468
2023-02-16 00:39:55:365,-2.73622,1.2003,-9.24703,-7.68126,-17.8836,93.0668
2023-02-16 00:39:55:375,-2.66161,1.17838,-9.22586,-7.7452,-17.8711,93.1001
2023-02-16 00:39:55:385,-2.62484,1.18705,-9.17362,-7.82051,-17.8596,93.152
2023-02-16 00:39:55:395,-2.59165,1.20642,-9.1386,-7.90279,-17.8456,93.2251
2023-02-16 00:39:55:405,-2.57288,1.18784,-9.07467,-7.99809,-17.8309,93.3149
2023-02-16 00:39:55:415,-2.61068,1.17944,-9.04981,-8.10314,-17.8142,93.4268
2023-02-16 00:39:55:425,-2.65586,1.2068,-9.03397,-8.22184,-17.7946,93.5568
2023-02-16 00:39:55:435,-2.63094,1.2127,-9.0194,-8.35523,-17.7669,93.7057
2023-02-16 00:39:55:445,-2.59181,1.201,-8.97958,-8.49619,-17.733,93.8734
2023-02-16 00:39:55:455,-2.62316,1.18173,-8.9398,-8.64927,-17.69,94.0661
2023-02-16 00:39:55:465,-2.71148,1.26434,-9.01307,-8.82467,-17.6424,94.2733
2023-02-16 00:39:55:475,-2.83255,1.39577,-9.16763,-9.00826,-17.5887,94.4943
2023-02-16 00:39:55:485,-2.94168,1.50862,-9.26842,-9.19102,-17.5296,94.7228
2023-02-16 00:39:55:495,-3.01627,1.5626,-9.27108,-9.36262,-17.4624,94.9552
2023-02-16 00:39:55:505,-3.10382,1.59077,-9.23103,-9.52891,-17.3892,95.1894
2023-02-16 00:39:55:515,-3.17452,1.61929,-9.23003,-9.68868,-17.3103,95.4128
2023-02-16 00:39:55:525,-3.18796,1.68742,-9.31489,-9.84442,-17.2265,95.6232
2023-02-16 00:39:55:535,-3.15866,1.80712,-9.45042,-9.98875,-17.1493,95.8178
2023-02-16 00:39:55:545,-3.14788,1.90364,-9.56538,-10.1201,-17.0852,95.9972
2023-02-16 00:39:55:555,-3.17819,1.99824,-9.61561,-10.2233,-17.0268,96.1603
2023-02-16 00:39:55:565,-3.19479,2.02233,-9.58837,-10.3015,-16.9817,96.3043
2023-02-16 00:39:55:575,-3.23868,2.02221,-9.50765,-10.3598,-16.9497,96.4284
2023-02-16 00:39:55:585,-3.25188,1.99117,-9.41589,-10.4015,-16.9265,96.5364
2023-02-16 00:39:55:595,-3.23098,1.93844,-9.34182,-10.4298,-16.9088,96.6201
2023-02-16 00:39:55:605,-3.21959,1.92053,-9.30574,-10.4518,-16.8931,96.6834
2023-02-16 00:39:55:615,-3.2281,1.92559,-9.3547,-10.4653,-16.8878,96.7326
2023-02-16 00:39:55:625,-3.25832,1.91631,-9.37057,-10.4724,-16.8962,96.7593
2023-02-16 00:39:55:635,-3.26364,1.90931,-9.32275,-10.4687,-16.9138,96.7681
2023-02-16 00:39:55:645,-3.24292,1.92454,-9.325,-10.4557,-16.9299,96.7644
2023-02-16 00:39:55:655,-3.22733,1.88639,-9.27221,-10.4314,-16.9475,96.7427
2023-02-16 00:39:55:665,-3.20182,1.83648,-9.18093,-10.3969,-16.9638,96.7087
2023-02-16 00:39:55:675,-3.14409,1.77593,-9.15708,-10.3558,-16.9733,96.6596
2023-02-16 00:39:55:685,-3.0959,1.75006,-9.16605,-10.3157,-16.9811,96.6048
2023-02-16 00:39:55:695,-3.05752,1.75299,-9.19455,-10.2726,-16.9835,96.5437
2023-02-16 00:39:55:705,-3.04556,1.74618,-9.18312,-10.2275,-16.9876,96.4738
2023-02-16 00:39:55:715,-3.07279,1.75654,-9.16868,-10.18,-16.9911,96.4063
2023-02-16 00:39:55:725,-3.117,1.77203,-9.17503,-10.1322,-16.9948,96.3284
2023-02-16 00:39:55:735,-3.12724,1.77725,-9.19435,-10.0807,-16.9963,96.2435
2023-02-16 00:39:55:745,-3.13692,1.78736,-9.20169,-10.0237,-16.9941,96.1481
2023-02-16 00:39:55:755,-3.17519,1.78711,-9.21224,-9.96176,-16.9899,96.0408
2023-02-16 00:39:55:765,-3.20111,1.76786,-9.23159,-9.89423,-16.9885,95.9171
2023-02-16 00:39:55:775,-3.13054,1.75809,-9.24518,-9.8257,-16.984,95.7797
2023-02-16 00:39:55:785,-3.0467,1.71515,-9.25599,-9.74989,-16.9862,95.6283
2023-02-16 00:39:55:795,-2.95511,1.67637,-9.25804,-9.6721,-16.9907,95.4679
2023-02-16 00:39:55:805,-2.86834,1.66477,-9.28089,-9.59411,-16.996,95.3015
2023-02-16 00:39:55:815,-2.78411,1.649,-9.32429,-9.51412,-17.0009,95.1328
2023-02-16 00:39:55:825,-2.73591,1.64267,-9.33726,-9.43297,-17.003,94.9657
2023-02-16 00:39:55:835,-2.71011,1.60098,-9.31849,-9.34655,-17.0061,94.8063
