Timestamp,Acceleration_x,Acceleration_y,Acceleration_z,roll,pitch,yaw
2023-02-16 21:06:29:497,-1.28785,2.91188,-9.33777,-17.2504,-8.12592,-7.58823
2023-02-16 21:06:29:506,-1.26782,2.89882,-9.35828,-17.2161,-8.14048,-7.66353
2023-02-16 21:06:29:515,-1.26166,2.86166,-9.38446,-17.1795,-8.15839,-7.73044
2023-02-16 21:06:29:526,-1.25204,2.82518,-9.36425,-17.1396,-8.17818,-7.78682
2023-02-16 21:06:29:536,-1.26765,2.77774,-9.3507,-17.0968,-8.20231,-7.83317
2023-02-16 21:06:29:546,-1.33376,2.75215,-9.32894,-17.0551,-8.23081,-7.86705
2023-02-16 21:06:29:556,-1.38832,2.72645,-9.31072,-17.0133,-8.25455,-7.88785
2023-02-16 21:06:29:566,-1.43058,2.701,-9.29237,-16.9772,-8.27625,-7.9002
2023-02-16 21:06:29:576,-1.47765,2.68202,-9.24585,-16.9388,-8.30035,-7.90821
2023-02-16 21:06:29:586,-1.57136,2.67133,-9.19239,-16.8997,-8.31461,-7.90833
2023-02-16 21:06:29:596,-1.67607,2.67921,-9.1614,-16.8575,-8.31614,-7.9124
2023-02-16 21:06:29:606,-1.66947,2.66496,-9.12909,-16.8107,-8.3005,-7.92482
2023-02-16 21:06:29:616,-1.5806,2.63813,-9.11949,-16.7647,-8.27008,-7.94641
2023-02-16 21:06:29:625,-1.45941,2.61057,-9.13466,-16.7222,-8.23226,-7.96819
2023-02-16 21:06:29:635,-1.37093,2.62031,-9.14578,-16.6863,-8.19661,-7.99295
2023-02-16 21:06:29:646,-1.29433,2.63313,-9.14047,-16.6576,-8.16199,-8.01933
2023-02-16 21:06:29:656,-1.2548,2.63624,-9.14496,-16.6379,-8.13089,-8.04357
2023-02-16 21:06:29:666,-1.24749,2.65237,-9.14284,-16.6297,-8.10323,-8.06206
2023-02-16 21:06:29:675,-1.24348,2.69744,-9.18247,-16.628,-8.07874,-8.08439
2023-02-16 21:06:29:685,-1.18362,2.71169,-9.19932,-16.6324,-8.05784,-8.10306
2023-02-16 21:06:29:696,-1.12257,2.726,-9.19872,-16.6426,-8.0384,-8.12079
2023-02-16 21:06:29:706,-1.08867,2.74233,-9.2227,-16.6554,-8.02244,-8.12839
2023-02-16 21:06:29:716,-1.07905,2.76386,-9.19783,-16.6748,-8.01189,-8.1334
2023-02-16 21:06:29:726,-1.0895,2.76547,-9.19627,-16.6967,-8.01078,-8.12925
2023-02-16 21:06:29:736,-1.09186,2.7817,-9.26296,-16.7249,-8.0106,-8.11961
2023-02-16 21:06:29:746,-1.12704,2.82534,-9.32977,-16.7552,-8.01553,-8.10552
2023-02-16 21:06:29:756,-1.15364,2.84445,-9.41853,-16.7869,-8.02158,-8.08427
2023-02-16 21:06:29:766,-1.14585,2.85675,-9.48717,-16.8109,-8.03029,-8.05587
2023-02-16 21:06:29:776,-1.16438,2.84082,-9.48251,-16.8314,-8.0461,-8.01759
2023-02-16 21:06:29:786,-1.20742,2.82499,-9.45423,-16.8493,-8.06829,-7.9718
2023-02-16 21:06:29:796,-1.29982,2.8282,-9.42812,-16.8646,-8.09792,-7.91851
2023-02-16 21:06:29:806,-1.39782,2.85014,-9.42534,-16.8804,-8.12487,-7.86063
2023-02-16 21:06:29:816,-1.48758,2.85383,-9.37841,-16.8895,-8.14231,-7.79908
2023-02-16 21:06:29:826,-1.57007,2.84118,-9.31962,-16.8954,-8.15554,-7.73929
2023-02-16 21:06:29:836,-1.62549,2.84471,-9.2853,-16.8962,-8.15333,-7.68048
2023-02-16 21:06:29:846,-1.67877,2.83451,-9.24298,-16.8904,-8.13836,-7.62774
2023-02-16 21:06:29:856,-1.7172,2.79276,-9.15578,-16.8796,-8.11538,-7.58466
2023-02-16 21:06:29:866,-1.68208,2.76317,-9.08668,-16.8656,-8.07835,-7.55403
2023-02-16 21:06:29:876,-1.61904,2.74399,-9.0827,-16.8548,-8.03329,-7.53557
2023-02-16 21:06:29:886,-1.56681,2.74799,-9.09731,-16.849,-7.9869,-7.52534
2023-02-16 21:06:29:895,-1.52206,2.76182,-9.12511,-16.8473,-7.94168,-7.52507
2023-02-16 21:06:29:905,-1.49061,2.78125,-9.17342,-16.8503,-7.90104,-7.53602
2023-02-16 21:06:29:915,-1.45477,2.81186,-9.22855,-16.8586,-7.86491,-7.55349
2023-02-16 21:06:29:925,-1.39907,2.8183,-9.26073,-16.8705,-7.83153,-7.58018
2023-02-16 21:06:29:936,-1.36981,2.83184,-9.27304,-16.8855,-7.80507,-7.61451
2023-02-16 21:06:29:946,-1.37459,2.85633,-9.28948,-16.8983,-7.77972,-7.65476
2023-02-16 21:06:29:956,-1.38238,2.86083,-9.32854,-16.9071,-7.75872,-7.69676
2023-02-16 21:06:29:966,-1.37873,2.88247,-9.34995,-16.9161,-7.73715,-7.74656
2023-02-16 21:06:29:976,-1.33072,2.88466,-9.35963,-16.9196,-7.71306,-7.79837
2023-02-16 21:06:29:986,-1.23579,2.85601,-9.33816,-16.919,-7.68987,-7.85432
2023-02-16 21:06:29:996,-1.16033,2.81937,-9.31166,-16.9163,-7.66915,-7.90827
2023-02-16 21:06:30:6,-1.14168,2.79494,-9.27788,-16.9133,-7.6506,-7.95894
2023-02-16 21:06:30:16,-1.11266,2.7798,-9.21684,-16.9109,-7.62966,-8.00575
2023-02-16 21:06:30:26,-1.07761,2.76545,-9.18751,-16.9159,-7.61135,-8.04484
2023-02-16 21:06:30:36,-1.08071,2.76831,-9.19009,-16.9262,-7.59956,-8.07415
2023-02-16 21:06:30:45,-1.07831,2.80251,-9.18567,-16.9393,-7.58944,-8.09926
2023-02-16 21:06:30:55,-1.09321,2.8278,-9.2,-16.9594,-7.5791,-8.11833
2023-02-16 21:06:30:65,-1.13425,2.84196,-9.20159,-16.9838,-7.57213,-8.12781
2023-02-16 21:06:30:76,-1.18887,2.87322,-9.19898,-17.0102,-7.56965,-8.13728
2023-02-16 21:06:30:85,-1.21532,2.89985,-9.21694,-17.0394,-7.56484,-8.14153
2023-02-16 21:06:30:96,-1.25061,2.91936,-9.21058,-17.0702,-7.56307,-8.14936
2023-02-16 21:06:30:106,-1.2921,2.94518,-9.20833,-17.1035,-7.55832,-8.15649
2023-02-16 21:06:30:115,-1.31414,2.98081,-9.22265,-17.1363,-7.55445,-8.16842
2023-02-16 21:06:30:126,-1.31249,3.00699,-9.22774,-17.1724,-7.55047,-8.17991
2023-02-16 21:06:30:136,-1.30661,3.03828,-9.25483,-17.2074,-7.54502,-8.19448
2023-02-16 21:06:30:146,-1.28802,3.05637,-9.28173,-17.2395,-7.53939,-8.21037
2023-02-16 21:06:30:156,-1.26756,3.07286,-9.29583,-17.2677,-7.53327,-8.23026
2023-02-16 21:06:30:166,-1.25529,3.09121,-9.31852,-17.2913,-7.52523,-8.25102
2023-02-16 21:06:30:176,-1.23709,3.10181,-9.33808,-17.3118,-7.51687,-8.27035
2023-02-16 21:06:30:186,-1.216,3.0974,-9.33991,-17.3262,-7.51031,-8.28852
2023-02-16 21:06:30:196,-1.21077,3.07771,-9.33556,-17.3349,-7.5007,-8.30315
2023-02-16 21:06:30:206,-1.2143,3.06515,-9.31168,-17.3443,-7.49137,-8.31641
2023-02-16 21:06:30:216,-1.19393,3.04728,-9.27966,-17.3457,-7.48299,-8.3291
2023-02-16 21:06:30:226,-1.17685,3.02531,-9.27202,-17.3518,-7.47347,-8.33538
2023-02-16 21:06:30:236,-1.16726,3.0155,-9.2444,-17.3557,-7.46263,-8.34096
2023-02-16 21:06:30:246,-1.14978,2.99412,-9.22702,-17.3588,-7.45043,-8.34229
2023-02-16 21:06:30:256,-1.12635,2.98189,-9.22288,-17.3665,-7.44328,-8.33742
2023-02-16 21:06:30:266,-1.1146,2.97804,-9.20374,-17.374,-7.43686,-8.32667
2023-02-16 21:06:30:276,-1.12535,2.99154,-9.20995,-17.3837,-7.43494,-8.31257
2023-02-16 21:06:30:286,-1.15971,2.99658,-9.24021,-17.3983,-7.43628,-8.2915
2023-02-16 21:06:30:296,-1.195,3.00085,-9.23491,-17.408,-7.43912,-8.26617
2023-02-16 21:06:30:306,-1.20955,2.989,-9.22237,-17.4218,-7.44535,-8.24163
2023-02-16 21:06:30:316,-1.22032,2.95577,-9.20561,-17.4298,-7.45167,-8.21462
2023-02-16 21:06:30:326,-1.24358,2.93406,-9.1922,-17.4379,-7.45522,-8.18417
2023-02-16 21:06:30:336,-1.25306,2.91042,-9.21089,-17.4499,-7.45856,-8.15043
2023-02-16 21:06:30:346,-1.25508,2.89822,-9.22217,-17.4603,-7.46522,-8.1157
2023-02-16 21:06:30:355,-1.27104,2.87944,-9.26484,-17.4713,-7.47012,-8.07687
2023-02-16 21:06:30:365,-1.26345,2.85945,-9.29022,-17.4815,-7.4776,-8.04182
2023-02-16 21:06:30:375,-1.28257,2.82905,-9.30163,-17.4915,-7.47918,-8.00809
2023-02-16 21:06:30:385,-1.28451,2.82265,-9.35092,-17.4974,-7.48484,-7.97483
2023-02-16 21:06:30:395,-1.29243,2.85895,-9.42471,-17.5018,-7.48928,-7.94446
2023-02-16 21:06:30:406,-1.31799,2.86637,-9.44907,-17.5001,-7.49526,-7.91823
2023-02-16 21:06:30:416,-1.31656,2.84321,-9.43818,-17.4891,-7.49882,-7.89399
2023-02-16 21:06:30:426,-1.30007,2.81476,-9.41767,-17.4681,-7.49189,-7.87723
2023-02-16 21:06:30:436,-1.26024,2.79277,-9.39103,-17.437,-7.47967,-7.86387
2023-02-16 21:06:30:445,-1.16734,2.74639,-9.31995,-17.4004,-7.46271,-7.85549
2023-02-16 21:06:30:455,-1.07396,2.70525,-9.23323,-17.3641,-7.44054,-7.8497
2023-02-16 21:06:30:465,-0.99933,2.67295,-9.15293,-17.3313,-7.4211,-7.84282
2023-02-16 21:06:30:475,-0.937389,2.65747,-9.05433,-17.3097,-7.40597,-7.83042
2023-02-16 21:06:30:485,-0.917444,2.67969,-8.99158,-17.3016,-7.39525,-7.80865
2023-02-16 21:06:30:495,-0.909551,2.71585,-8.99242,-17.3107,-7.39391,-7.78237
2023-02-16 21:06:30:505,-0.918299,2.77642,-9.03743,-17.3368,-7.39916,-7.75374
2023-02-16 21:06:30:515,-0.963427,2.85478,-9.10317,-17.3797,-7.41239,-7.7163
2023-02-16 21:06:30:525,-1.0188,2.9314,-9.1856,-17.4284,-7.43215,-7.67014
2023-02-16 21:06:30:535,-1.09047,3.00056,-9.21628,-17.4765,-7.45477,-7.62274
2023-02-16 21:06:30:545,-1.17403,3.05805,-9.22033,-17.5269,-7.47836,-7.57327
2023-02-16 21:06:30:555,-1.26435,3.10819,-9.21111,-17.5793,-7.51162,-7.52504
2023-02-16 21:06:30:565,-1.33685,3.15257,-9.23289,-17.634,-7.55006,-7.47967
2023-02-16 21:06:30:576,-1.391,3.19106,-9.25817,-17.6806,-7.59527,-7.44117
2023-02-16 21:06:30:586,-1.43386,3.19818,-9.26238,-17.7242,-7.64326,-7.40159
2023-02-16 21:06:30:596,-1.49087,3.21769,-9.28736,-17.7669,-7.69496,-7.36142
2023-02-16 21:06:30:606,-1.56093,3.26103,-9.33951,-17.8031,-7.74952,-7.32628
2023-02-16 21:06:30:616,-1.60938,3.27048,-9.37987,-17.8283,-7.80378,-7.30088
2023-02-16 21:06:30:626,-1.65305,3.25135,-9.37274,-17.8392,-7.85078,-7.28255
2023-02-16 21:06:30:636,-1.69609,3.24624,-9.35806,-17.8446,-7.89482,-7.26913
2023-02-16 21:06:30:646,-1.71249,3.22704,-9.35147,-17.8386,-7.93548,-7.26656
2023-02-16 21:06:30:655,-1.70852,3.18022,-9.32092,-17.8192,-7.97127,-7.27274
2023-02-16 21:06:30:666,-1.68015,3.12175,-9.25316,-17.7901,-7.99824,-7.28899
2023-02-16 21:06:30:676,-1.65125,3.06977,-9.19541,-17.7588,-8.01938,-7.31445
2023-02-16 21:06:30:685,-1.62158,3.0214,-9.16026,-17.7229,-8.03042,-7.34419
2023-02-16 21:06:30:696,-1.57716,2.99676,-9.16669,-17.6846,-8.03265,-7.38129
2023-02-16 21:06:30:705,-1.53155,2.97458,-9.18515,-17.6476,-8.03145,-7.4231
2023-02-16 21:06:30:716,-1.50911,2.96513,-9.2268,-17.6102,-8.02711,-7.46809
2023-02-16 21:06:30:725,-1.47073,2.955,-9.24387,-17.5693,-8.01827,-7.51493
2023-02-16 21:06:30:736,-1.43813,2.9356,-9.23502,-17.5257,-8.00755,-7.56553
2023-02-16 21:06:30:746,-1.3989,2.90994,-9.23741,-17.4847,-7.99786,-7.61587
2023-02-16 21:06:30:756,-1.33141,2.87829,-9.23975,-17.4394,-7.98452,-7.66454
2023-02-16 21:06:30:766,-1.29036,2.83324,-9.22022,-17.396,-7.97381,-7.71083
2023-02-16 21:06:30:776,-1.26576,2.81453,-9.21544,-17.3559,-7.96401,-7.75523
2023-02-16 21:06:30:786,-1.242,2.81611,-9.20896,-17.3232,-7.95635,-7.79863
2023-02-16 21:06:30:796,-1.21925,2.82539,-9.20284,-17.2928,-7.94535,-7.83737
2023-02-16 21:06:30:806,-1.18899,2.80825,-9.18131,-17.2652,-7.93616,-7.8741
2023-02-16 21:06:30:816,-1.17119,2.79829,-9.17544,-17.2435,-7.92937,-7.90809
2023-02-16 21:06:30:826,-1.16987,2.7984,-9.18138,-17.2255,-7.92069,-7.93444
2023-02-16 21:06:30:836,-1.18334,2.79214,-9.21327,-17.2153,-7.91708,-7.95421
2023-02-16 21:06:30:846,-1.20341,2.8078,-9.2391,-17.2081,-7.91653,-7.97026
2023-02-16 21:06:30:856,-1.23812,2.83257,-9.2581,-17.2032,-7.92118,-7.98247
2023-02-16 21:06:30:865,-1.28852,2.8316,-9.28752,-17.1971,-7.92737,-7.98799
2023-02-16 21:06:30:875,-1.30484,2.82456,-9.31555,-17.1914,-7.93134,-7.99184
2023-02-16 21:06:30:885,-1.30765,2.83441,-9.31663,-17.1856,-7.92783,-7.99264
2023-02-16 21:06:30:895,-1.30803,2.84428,-9.2946,-17.1773,-7.92579,-7.99468
2023-02-16 21:06:30:905,-1.30262,2.83683,-9.25348,-17.1635,-7.91757,-7.99501
2023-02-16 21:06:30:915,-1.30114,2.80921,-9.21748,-17.1502,-7.9007,-7.99736
2023-02-16 21:06:30:925,-1.27217,2.81054,-9.20424,-17.1436,-7.88554,-7.99649
2023-02-16 21:06:30:935,-1.27909,2.83498,-9.19362,-17.1367,-7.86887,-7.99656
2023-02-16 21:06:30:945,-1.2868,2.87619,-9.24512,-17.1345,-7.85163,-7.99691
2023-02-16 21:06:30:955,-1.29104,2.90699,-9.31503,-17.1302,-7.83572,-7.99564
2023-02-16 21:06:30:965,-1.30713,2.91769,-9.35071,-17.1254,-7.81654,-7.99394
2023-02-16 21:06:30:975,-1.32048,2.92682,-9.3313,-17.1138,-7.79672,-7.99666
2023-02-16 21:06:30:985,-1.3013,2.90532,-9.32263,-17.0946,-7.77862,-8.00293
2023-02-16 21:06:30:995,-1.25403,2.86645,-9.30369,-17.0716,-7.75342,-8.0115
2023-02-16 21:06:31:5,-1.21465,2.83675,-9.27937,-17.0448,-7.72463,-8.01497
2023-02-16 21:06:31:15,-1.15199,2.8014,-9.25176,-17.0165,-7.69548,-8.01821
2023-02-16 21:06:31:25,-1.11496,2.7641,-9.22518,-16.9934,-7.66892,-8.0194
2023-02-16 21:06:31:35,-1.11425,2.76239,-9.2393,-16.9731,-7.65,-8.01157
2023-02-16 21:06:31:45,-1.16232,2.7861,-9.25953,-16.9552,-7.63152,-8.0013
2023-02-16 21:06:31:55,-1.1838,2.7964,-9.29507,-16.94,-7.60751,-7.98967
2023-02-16 21:06:31:65,-1.17854,2.7973,-9.33449,-16.9278,-7.58823,-7.97622
2023-02-16 21:06:31:75,-1.20342,2.81485,-9.32279,-16.9162,-7.56662,-7.96066
2023-02-16 21:06:31:85,-1.21115,2.81058,-9.30532,-16.9039,-7.54298,-7.93872
2023-02-16 21:06:31:95,-1.18605,2.79584,-9.28514,-16.8894,-7.51822,-7.91807
2023-02-16 21:06:31:105,-1.16653,2.78996,-9.24847,-16.8783,-7.49356,-7.89898
2023-02-16 21:06:31:115,-1.15973,2.77532,-9.25455,-16.8684,-7.47471,-7.87621
2023-02-16 21:06:31:125,-1.13926,2.79454,-9.3094,-16.8568,-7.45114,-7.85014
2023-02-16 21:06:31:135,-1.10893,2.82294,-9.32966,-16.8493,-7.42961,-7.82184
2023-02-16 21:06:31:145,-1.05591,2.81428,-9.31183,-16.8372,-7.41796,-7.7948
2023-02-16 21:06:31:155,-1.05836,2.80983,-9.2867,-16.8265,-7.41302,-7.76128
2023-02-16 21:06:31:165,-1.12589,2.80741,-9.27462,-16.818,-7.42024,-7.72662
2023-02-16 21:06:31:175,-1.15479,2.8115,-9.25187,-16.8143,-7.4273,-7.68968
2023-02-16 21:06:31:185,-1.16969,2.79775,-9.24547,-16.8132,-7.43989,-7.64349
2023-02-16 21:06:31:195,-1.2067,2.80208,-9.23326,-16.8167,-7.45783,-7.595
2023-02-16 21:06:31:205,-1.26739,2.82297,-9.24401,-16.8253,-7.48006,-7.54615
2023-02-16 21:06:31:215,-1.31655,2.84278,-9.25179,-16.8322,-7.50023,-7.49661
2023-02-16 21:06:31:225,-1.35169,2.85827,-9.2472,-16.8409,-7.51526,-7.44984
2023-02-16 21:06:31:235,-1.40624,2.87225,-9.23842,-16.8497,-7.53302,-7.40908
2023-02-16 21:06:31:245,-1.44177,2.87607,-9.22111,-16.8593,-7.5456,-7.37353
2023-02-16 21:06:31:255,-1.45203,2.87786,-9.23741,-16.8669,-7.55996,-7.34533
2023-02-16 21:06:31:265,-1.43691,2.88153,-9.2457,-16.8686,-7.57372,-7.3201
2023-02-16 21:06:31:275,-1.4067,2.87085,-9.2696,-16.8693,-7.58834,-7.30341
2023-02-16 21:06:31:285,-1.3791,2.88546,-9.33236,-16.8655,-7.60559,-7.28634
2023-02-16 21:06:31:295,-1.37001,2.88754,-9.39513,-16.8593,-7.61977,-7.26926
2023-02-16 21:06:31:305,-1.32386,2.85914,-9.41154,-16.8492,-7.63505,-7.25009
2023-02-16 21:06:31:315,-1.28463,2.81776,-9.38326,-16.8322,-7.649,-7.22854
2023-02-16 21:06:31:325,-1.2982,2.78481,-9.33101,-16.8135,-7.66434,-7.20007
2023-02-16 21:06:31:335,-1.34589,2.76498,-9.24885,-16.7952,-7.67838,-7.16896
2023-02-16 21:06:31:345,-1.40666,2.75458,-9.20101,-16.7834,-7.68974,-7.13544
2023-02-16 21:06:31:355,-1.42128,2.75023,-9.19223,-16.7776,-7.69543,-7.10191
2023-02-16 21:06:31:365,-1.40312,2.75153,-9.19243,-16.7714,-7.6947,-7.07229
2023-02-16 21:06:31:375,-1.36252,2.76344,-9.23941,-16.7656,-7.69346,-7.04862
2023-02-16 21:06:31:385,-1.35769,2.79358,-9.32296,-16.7641,-7.69411,-7.02204
2023-02-16 21:06:31:395,-1.39632,2.8162,-9.33964,-16.7566,-7.69569,-7.00013
2023-02-16 21:06:31:405,-1.44267,2.82303,-9.30437,-16.7499,-7.6938,-6.98213
2023-02-16 21:06:31:415,-1.44934,2.81078,-9.27113,-16.7404,-7.6916,-6.96799
2023-02-16 21:06:31:425,-1.42655,2.81253,-9.2536,-16.7332,-7.68429,-6.95911
2023-02-16 21:06:31:435,-1.39911,2.80689,-9.26855,-16.7236,-7.67485,-6.95751
2023-02-16 21:06:31:445,-1.38473,2.81019,-9.26798,-16.7175,-7.66397,-6.96039
2023-02-16 21:06:31:455,-1.36635,2.80566,-9.22173,-16.7082,-7.65699,-6.96594
2023-02-16 21:06:31:465,-1.33681,2.81185,-9.18036,-16.7016,-7.64771,-6.97806
2023-02-16 21:06:31:475,-1.34767,2.82684,-9.18981,-16.7012,-7.64104,-6.98988
2023-02-16 21:06:31:486,-1.3749,2.83461,-9.18965,-16.6999,-7.63625,-7.01116
2023-02-16 21:06:31:495,-1.37584,2.84674,-9.18702,-16.7001,-7.62563,-7.03755
2023-02-16 21:06:31:505,-1.36992,2.86574,-9.21834,-16.7053,-7.61447,-7.06546
2023-02-16 21:06:31:516,-1.34948,2.85753,-9.23459,-16.7126,-7.60297,-7.0984
2023-02-16 21:06:31:526,-1.29113,2.86111,-9.28221,-16.7169,-7.57941,-7.13446
2023-02-16 21:06:31:536,-1.21874,2.84549,-9.31615,-16.715,-7.55909,-7.17183
2023-02-16 21:06:31:546,-1.18455,2.81857,-9.30542,-16.7095,-7.541,-7.20461
2023-02-16 21:06:31:556,-1.15759,2.80063,-9.27412,-16.709,-7.52244,-7.23584
2023-02-16 21:06:31:566,-1.16252,2.79778,-9.25758,-16.711,-7.50618,-7.26351
2023-02-16 21:06:31:576,-1.13655,2.80165,-9.26639,-16.7136,-7.48687,-7.28978
2023-02-16 21:06:31:586,-1.08612,2.827,-9.28896,-16.7133,-7.46277,-7.30974
2023-02-16 21:06:31:596,-1.05546,2.85671,-9.3257,-16.7164,-7.4293,-7.3284
2023-02-16 21:06:31:606,-1.03606,2.8784,-9.36172,-16.7172,-7.39582,-7.33874
2023-02-16 21:06:31:615,-1.01218,2.8826,-9.40131,-16.7108,-7.3557,-7.3384
2023-02-16 21:06:31:625,-0.980386,2.89108,-9.43544,-16.6991,-7.31564,-7.32876
2023-02-16 21:06:31:636,-0.957983,2.89008,-9.45174,-16.6838,-7.27462,-7.31523
2023-02-16 21:06:31:646,-0.950521,2.86667,-9.45274,-16.6644,-7.23805,-7.29218
2023-02-16 21:06:31:656,-0.969488,2.84699,-9.44563,-16.64,-7.20888,-7.25296
2023-02-16 21:06:31:665,-0.990548,2.83789,-9.42946,-16.611,-7.18135,-7.20922
2023-02-16 21:06:31:675,-1.00581,2.83201,-9.44234,-16.579,-7.15914,-7.16083
2023-02-16 21:06:31:686,-1.04487,2.82991,-9.45222,-16.5453,-7.13742,-7.10809
2023-02-16 21:06:31:696,-1.068,2.82083,-9.45462,-16.5093,-7.12557,-7.0499
2023-02-16 21:06:31:706,-1.08604,2.80322,-9.4192,-16.4672,-7.1177,-6.99397
2023-02-16 21:06:31:716,-1.12997,2.79214,-9.38671,-16.4235,-7.1179,-6.93379
2023-02-16 21:06:31:726,-1.18057,2.76027,-9.33741,-16.3771,-7.12609,-6.87067
2023-02-16 21:06:31:736,-1.26812,2.72729,-9.26353,-16.3268,-7.14033,-6.81723
2023-02-16 21:06:31:745,-1.36739,2.70566,-9.17425,-16.2884,-7.1648,-6.76723
2023-02-16 21:06:31:756,-1.45813,2.69418,-9.11944,-16.2559,-7.19217,-6.7282
2023-02-16 21:06:31:766,-1.46904,2.70943,-9.11494,-16.2225,-7.21892,-6.70449
2023-02-16 21:06:31:775,-1.45167,2.73767,-9.14594,-16.1985,-7.247,-6.69393
2023-02-16 21:06:31:786,-1.4666,2.76276,-9.20735,-16.1788,-7.27598,-6.69635
2023-02-16 21:06:31:795,-1.44251,2.78263,-9.25161,-16.158,-7.30259,-6.70922
2023-02-16 21:06:31:806,-1.39805,2.7847,-9.30792,-16.1351,-7.32621,-6.73469
2023-02-16 21:06:31:816,-1.31916,2.76243,-9.39254,-16.1039,-7.35025,-6.76601
2023-02-16 21:06:31:826,-1.22827,2.75372,-9.48693,-16.0668,-7.36904,-6.7995
2023-02-16 21:06:31:836,-1.1467,2.72762,-9.52977,-16.0215,-7.38382,-6.82963
2023-02-16 21:06:31:846,-1.09541,2.69004,-9.49815,-15.9699,-7.39839,-6.8544
2023-02-16 21:06:31:856,-1.06419,2.62637,-9.4295,-15.9142,-7.41362,-6.87026
2023-02-16 21:06:31:865,-1.06038,2.58335,-9.3635,-15.8572,-7.43195,-6.87586
2023-02-16 21:06:31:875,-1.07884,2.56839,-9.31616,-15.8105,-7.45218,-6.87712
2023-02-16 21:06:31:885,-1.10568,2.56616,-9.28227,-15.7667,-7.4793,-6.87301
2023-02-16 21:06:31:895,-1.14343,2.58006,-9.28576,-15.7291,-7.51009,-6.85701
2023-02-16 21:06:31:905,-1.19279,2.58822,-9.28618,-15.7002,-7.53893,-6.84103
2023-02-16 21:06:31:915,-1.22811,2.58666,-9.27801,-15.6673,-7.56778,-6.81402
2023-02-16 21:06:31:925,-1.25923,2.5764,-9.26538,-15.6334,-7.58764,-6.786
2023-02-16 21:06:31:935,-1.30287,2.57434,-9.2503,-15.5986,-7.60805,-6.75637
2023-02-16 21:06:31:946,-1.31338,2.56839,-9.24164,-15.5659,-7.62677,-6.72809
2023-02-16 21:06:31:956,-1.30015,2.54609,-9.24419,-15.5341,-7.64258,-6.6998
2023-02-16 21:06:31:965,-1.29208,2.5258,-9.22461,-15.5059,-7.66491,-6.67104
2023-02-16 21:06:31:976,-1.28347,2.51153,-9.22544,-15.4859,-7.6908,-6.64022
2023-02-16 21:06:31:986,-1.30149,2.52069,-9.27189,-15.4715,-7.71983,-6.61015
2023-02-16 21:06:31:996,-1.32726,2.55071,-9.31746,-15.4595,-7.74632,-6.58053
2023-02-16 21:06:32:6,-1.35258,2.56345,-9.33868,-15.4473,-7.77145,-6.55308
2023-02-16 21:06:32:16,-1.36664,2.56113,-9.33747,-15.4417,-7.79421,-6.52644
2023-02-16 21:06:32:26,-1.40338,2.57922,-9.32866,-15.434,-7.8169,-6.50225
2023-02-16 21:06:32:36,-1.44705,2.58492,-9.33432,-15.4298,-7.83638,-6.48111
2023-02-16 21:06:32:46,-1.45601,2.59028,-9.34651,-15.4253,-7.84954,-6.46564
2023-02-16 21:06:32:56,-1.41132,2.59746,-9.3436,-15.4177,-7.85916,-6.45542
2023-02-16 21:06:32:66,-1.37134,2.58064,-9.31188,-15.4099,-7.87121,-6.44576
2023-02-16 21:06:32:76,-1.38742,2.56411,-9.30302,-15.4076,-7.88116,-6.44005
2023-02-16 21:06:32:86,-1.4242,2.57278,-9.28897,-15.3992,-7.89469,-6.436
2023-02-16 21:06:32:96,-1.45284,2.57711,-9.29786,-15.3942,-7.90456,-6.43393
2023-02-16 21:06:32:105,-1.45654,2.56646,-9.30669,-15.3913,-7.91426,-6.43896
2023-02-16 21:06:32:115,-1.43381,2.57102,-9.3188,-15.3887,-7.91777,-6.44519
2023-02-16 21:06:32:126,-1.39905,2.5667,-9.33043,-15.3857,-7.91858,-6.45688
2023-02-16 21:06:32:136,-1.38954,2.54978,-9.32119,-15.3813,-7.92075,-6.47165
2023-02-16 21:06:32:146,-1.35563,2.54413,-9.3177,-15.3783,-7.91917,-6.48666
2023-02-16 21:06:32:156,-1.32501,2.54606,-9.30853,-15.3759,-7.91794,-6.50333
2023-02-16 21:06:32:166,-1.31093,2.54196,-9.27887,-15.3738,-7.91732,-6.51944
2023-02-16 21:06:32:176,-1.27631,2.52419,-9.27801,-15.3739,-7.91631,-6.53462
2023-02-16 21:06:32:186,-1.25514,2.5263,-9.29626,-15.3791,-7.91645,-6.54771
2023-02-16 21:06:32:196,-1.22937,2.52175,-9.31598,-15.3805,-7.91639,-6.5571
2023-02-16 21:06:32:206,-1.21691,2.53617,-9.33834,-15.3854,-7.91644,-6.5603
2023-02-16 21:06:32:216,-1.22525,2.5382,-9.37673,-15.3904,-7.92265,-6.56122
2023-02-16 21:06:32:226,-1.23037,2.53765,-9.38535,-15.3965,-7.9258,-6.55829
2023-02-16 21:06:32:236,-1.24623,2.55619,-9.38147,-15.4063,-7.93026,-6.55109
2023-02-16 21:06:32:246,-1.26406,2.56508,-9.37167,-15.4189,-7.93217,-6.54466
2023-02-16 21:06:32:256,-1.2947,2.57355,-9.36401,-15.4266,-7.93466,-6.53194
2023-02-16 21:06:32:266,-1.30862,2.58151,-9.37941,-15.4337,-7.93548,-6.51833
2023-02-16 21:06:32:276,-1.32085,2.60256,-9.38409,-15.4408,-7.93578,-6.50604
2023-02-16 21:06:32:286,-1.34277,2.61767,-9.3776,-15.4491,-7.93543,-6.49508
2023-02-16 21:06:32:296,-1.33654,2.61731,-9.38335,-15.4532,-7.93749,-6.4836
2023-02-16 21:06:32:305,-1.3343,2.61205,-9.36842,-15.4515,-7.93824,-6.47388
2023-02-16 21:06:32:315,-1.35472,2.60238,-9.36426,-15.4497,-7.93774,-6.46991
2023-02-16 21:06:32:326,-1.34954,2.60289,-9.36983,-15.445,-7.93653,-6.46532
2023-02-16 21:06:32:336,-1.33363,2.61709,-9.35944,-15.4417,-7.93231,-6.46516
2023-02-16 21:06:32:346,-1.31615,2.60197,-9.33544,-15.4356,-7.93113,-6.46587
2023-02-16 21:06:32:355,-1.31805,2.56698,-9.32973,-15.4281,-7.92776,-6.4674
2023-02-16 21:06:32:366,-1.30202,2.55306,-9.31628,-15.4209,-7.9256,-6.46781
2023-02-16 21:06:32:376,-1.28037,2.53825,-9.29402,-15.4118,-7.92676,-6.46613
2023-02-16 21:06:32:386,-1.27199,2.52433,-9.2813,-15.41,-7.93,-6.464
2023-02-16 21:06:32:395,-1.27198,2.52167,-9.29297,-15.4068,-7.93114,-6.4604
2023-02-16 21:06:32:406,-1.26704,2.53235,-9.31167,-15.41,-7.93599,-6.45449
2023-02-16 21:06:32:416,-1.27087,2.54447,-9.33027,-15.4138,-7.93892,-6.44533
2023-02-16 21:06:32:426,-1.2887,2.54835,-9.34561,-15.4206,-7.93602,-6.43749
2023-02-16 21:06:32:436,-1.27928,2.5661,-9.3733,-15.4242,-7.93441,-6.42856
2023-02-16 21:06:32:446,-1.27715,2.57372,-9.38326,-15.4296,-7.92651,-6.41905
2023-02-16 21:06:32:456,-1.27885,2.58468,-9.38655,-15.4347,-7.91676,-6.40808
2023-02-16 21:06:32:466,-1.27731,2.58987,-9.35818,-15.4358,-7.90392,-6.39909
2023-02-16 21:06:32:476,-1.2549,2.57146,-9.34574,-15.4352,-7.89261,-6.39073
2023-02-16 21:06:32:486,-1.23929,2.56961,-9.35669,-15.4378,-7.88498,-6.38281
2023-02-16 21:06:32:496,-1.2435,2.5982,-9.40143,-15.4365,-7.87821,-6.37403
2023-02-16 21:06:32:506,-1.25738,2.63572,-9.45325,-15.4393,-7.874,-6.36462
2023-02-16 21:06:32:515,-1.24166,2.63051,-9.46467,-15.4363,-7.87392,-6.35525
2023-02-16 21:06:32:526,-1.20945,2.60671,-9.42301,-15.427,-7.8781,-6.34535
2023-02-16 21:06:32:536,-1.22138,2.59863,-9.36831,-15.4156,-7.88665,-6.33357
2023-02-16 21:06:32:546,-1.26892,2.58143,-9.34062,-15.4054,-7.9035,-6.32277
2023-02-16 21:06:32:556,-1.29832,2.56703,-9.31501,-15.399,-7.92003,-6.30686
2023-02-16 21:06:32:566,-1.31319,2.56905,-9.3009,-15.3952,-7.93669,-6.2908
2023-02-16 21:06:32:576,-1.31222,2.57124,-9.29775,-15.3949,-7.95376,-6.27388
2023-02-16 21:06:32:586,-1.32257,2.57439,-9.30366,-15.3979,-7.96812,-6.25616
2023-02-16 21:06:32:596,-1.33127,2.58793,-9.30503,-15.4005,-7.98296,-6.23708
2023-02-16 21:06:32:606,-1.35346,2.59955,-9.29333,-15.4022,-8.00006,-6.22054
2023-02-16 21:06:32:615,-1.37449,2.59765,-9.28896,-15.4066,-8.0106,-6.20402
2023-02-16 21:06:32:626,-1.37695,2.58929,-9.28126,-15.4108,-8.01924,-6.18618
2023-02-16 21:06:32:636,-1.38662,2.59041,-9.28198,-15.4149,-8.03224,-6.17053
2023-02-16 21:06:32:646,-1.39533,2.59174,-9.30616,-15.4188,-8.04431,-6.15776
2023-02-16 21:06:32:656,-1.4079,2.57936,-9.31044,-15.4233,-8.05871,-6.14279
2023-02-16 21:06:32:665,-1.42576,2.57959,-9.30919,-15.4321,-8.07137,-6.12683
2023-02-16 21:06:32:675,-1.41868,2.59291,-9.31963,-15.4423,-8.08444,-6.11512
2023-02-16 21:06:32:686,-1.39725,2.59868,-9.31007,-15.4528,-8.09962,-6.10416
2023-02-16 21:06:32:696,-1.3944,2.59042,-9.29042,-15.4623,-8.11193,-6.09835
2023-02-16 21:06:32:706,-1.41662,2.59959,-9.30638,-15.4763,-8.12663,-6.08882
2023-02-16 21:06:32:716,-1.43251,2.63008,-9.33283,-15.4902,-8.14035,-6.08347
2023-02-16 21:06:32:726,-1.42993,2.64566,-9.35062,-15.505,-8.14824,-6.08005
2023-02-16 21:06:32:736,-1.40363,2.62906,-9.35293,-15.5165,-8.15398,-6.07443
2023-02-16 21:06:32:745,-1.37044,2.6292,-9.35668,-15.5289,-8.15904,-6.0679
2023-02-16 21:06:32:756,-1.3666,2.62233,-9.3545,-15.5396,-8.16463,-6.06059
2023-02-16 21:06:32:766,-1.39172,2.63069,-9.33935,-15.5465,-8.17202,-6.05406
2023-02-16 21:06:32:776,-1.39884,2.64209,-9.33689,-15.5537,-8.17598,-6.0457
2023-02-16 21:06:32:786,-1.40539,2.62616,-9.33317,-15.5619,-8.17871,-6.03499
2023-02-16 21:06:32:795,-1.38207,2.61681,-9.32014,-15.5655,-8.17842,-6.02541
2023-02-16 21:06:32:806,-1.38134,2.624,-9.31321,-15.5722,-8.17751,-6.02003
2023-02-16 21:06:32:815,-1.3981,2.61904,-9.32153,-15.58,-8.17198,-6.01138
2023-02-16 21:06:32:825,-1.41164,2.61998,-9.32431,-15.5862,-8.16825,-6.00227
2023-02-16 21:06:32:836,-1.40457,2.60505,-9.30443,-15.5891,-8.16473,-5.99622
2023-02-16 21:06:32:846,-1.38214,2.60837,-9.29218,-15.5935,-8.15953,-5.99093
2023-02-16 21:06:32:856,-1.38085,2.60336,-9.30702,-15.6006,-8.15483,-5.98445
2023-02-16 21:06:32:866,-1.36313,2.61195,-9.30749,-15.6115,-8.15409,-5.98073
2023-02-16 21:06:32:876,-1.35191,2.60958,-9.31441,-15.6202,-8.15463,-5.98013
2023-02-16 21:06:32:885,-1.35079,2.62344,-9.3261,-15.6313,-8.16118,-5.97684
2023-02-16 21:06:32:896,-1.34971,2.63613,-9.34265,-15.6398,-8.16426,-5.97578
2023-02-16 21:06:32:906,-1.3499,2.64875,-9.3699,-15.6476,-8.16581,-5.96958
2023-02-16 21:06:32:916,-1.33882,2.65768,-9.39709,-15.6539,-8.172,-5.96581
2023-02-16 21:06:32:926,-1.3295,2.65703,-9.3988,-15.6573,-8.17637,-5.95953
2023-02-16 21:06:32:936,-1.31385,2.63636,-9.38806,-15.6609,-8.18211,-5.95331
2023-02-16 21:06:32:945,-1.3074,2.62527,-9.33979,-15.6621,-8.18986,-5.94071
2023-02-16 21:06:32:956,-1.30948,2.62319,-9.30875,-15.6652,-8.19845,-5.92465
2023-02-16 21:06:32:965,-1.34363,2.621,-9.29451,-15.6725,-8.20561,-5.90401
2023-02-16 21:06:32:976,-1.37269,2.62508,-9.29418,-15.679,-8.21311,-5.88498
2023-02-16 21:06:32:986,-1.38266,2.62475,-9.29456,-15.6833,-8.21988,-5.86858
2023-02-16 21:06:32:995,-1.40454,2.62902,-9.29127,-15.6868,-8.22839,-5.85185
2023-02-16 21:06:33:6,-1.41789,2.6244,-9.30644,-15.6956,-8.23166,-5.83413
2023-02-16 21:06:33:16,-1.41256,2.62781,-9.31115,-15.703,-8.23783,-5.81738
2023-02-16 21:06:33:26,-1.43466,2.63661,-9.31324,-15.7086,-8.24417,-5.80288
2023-02-16 21:06:33:36,-1.43637,2.64547,-9.30709,-15.7149,-8.25061,-5.78823
2023-02-16 21:06:33:46,-1.44106,2.63898,-9.29662,-15.7242,-8.25737,-5.77479
2023-02-16 21:06:33:56,-1.45377,2.63962,-9.2848,-15.7311,-8.2624,-5.76278
2023-02-16 21:06:33:66,-1.43052,2.64213,-9.27249,-15.7383,-8.26382,-5.75075
2023-02-16 21:06:33:76,-1.42801,2.64297,-9.28939,-15.7474,-8.26343,-5.74169
2023-02-16 21:06:33:86,-1.44374,2.64902,-9.31353,-15.7583,-8.26825,-5.73421
2023-02-16 21:06:33:96,-1.461,2.66898,-9.32432,-15.7659,-8.2667,-5.72661
2023-02-16 21:06:33:106,-1.45923,2.67131,-9.32329,-15.7764,-8.2631,-5.7209
2023-02-16 21:06:33:115,-1.45331,2.67984,-9.30961,-15.783,-8.25809,-5.7194
2023-02-16 21:06:33:126,-1.43814,2.67183,-9.29828,-15.7902,-8.25435,-5.72078
2023-02-16 21:06:33:136,-1.43296,2.68092,-9.29651,-15.7993,-8.24757,-5.71761
2023-02-16 21:06:33:146,-1.43685,2.67877,-9.31342,-15.805,-8.24356,-5.72485
2023-02-16 21:06:33:156,-1.42636,2.69606,-9.34916,-15.8158,-8.23914,-5.73164
2023-02-16 21:06:33:165,-1.39885,2.7067,-9.39431,-15.8236,-8.23765,-5.74125
2023-02-16 21:06:33:176,-1.35413,2.71939,-9.39402,-15.8288,-8.23803,-5.75272
2023-02-16 21:06:33:186,-1.31681,2.70376,-9.38589,-15.8284,-8.24469,-5.76411
2023-02-16 21:06:33:196,-1.30993,2.69245,-9.36684,-15.8274,-8.25352,-5.77265
2023-02-16 21:06:33:206,-1.32494,2.68353,-9.32695,-15.8232,-8.26454,-5.77881
2023-02-16 21:06:33:215,-1.34813,2.65438,-9.30107,-15.8243,-8.2763,-5.78523
2023-02-16 21:06:33:226,-1.37639,2.6696,-9.28016,-15.8245,-8.28395,-5.78872
2023-02-16 21:06:33:236,-1.39303,2.68662,-9.27554,-15.828,-8.29197,-5.78845
2023-02-16 21:06:33:246,-1.3995,2.69876,-9.28121,-15.8302,-8.30101,-5.79548
2023-02-16 21:06:33:256,-1.40827,2.70142,-9.27943,-15.833,-8.3059,-5.80122
2023-02-16 21:06:33:265,-1.41092,2.70246,-9.27916,-15.8381,-8.31116,-5.80002
2023-02-16 21:06:33:276,-1.41937,2.70504,-9.28793,-15.8409,-8.31656,-5.79897
2023-02-16 21:06:33:286,-1.41728,2.69922,-9.2932,-15.8393,-8.32261,-5.79855
2023-02-16 21:06:33:295,-1.39568,2.67194,-9.29807,-15.8387,-8.32866,-5.79918
2023-02-16 21:06:33:306,-1.3805,2.66001,-9.30182,-15.8402,-8.33131,-5.79952
2023-02-16 21:06:33:316,-1.38378,2.65462,-9.30384,-15.8377,-8.33518,-5.80025
2023-02-16 21:06:33:325,-1.39488,2.65002,-9.30728,-15.8385,-8.34248,-5.80282
2023-02-16 21:06:33:335,-1.41922,2.65673,-9.30851,-15.8407,-8.35067,-5.80085
2023-02-16 21:06:33:345,-1.40863,2.66486,-9.30485,-15.8462,-8.35795,-5.79943
2023-02-16 21:06:33:355,-1.40891,2.68097,-9.2848,-15.852,-8.36902,-5.79789
2023-02-16 21:06:33:366,-1.43791,2.68469,-9.27851,-15.8596,-8.37756,-5.79914
2023-02-16 21:06:33:376,-1.45452,2.68028,-9.32019,-15.8656,-8.38724,-5.7996
2023-02-16 21:06:33:385,-1.46274,2.69461,-9.36254,-15.8724,-8.39926,-5.80235
2023-02-16 21:06:33:396,-1.45611,2.68812,-9.35268,-15.8745,-8.40781,-5.80874
2023-02-16 21:06:33:406,-1.44145,2.66848,-9.31247,-15.8738,-8.4128,-5.81653
2023-02-16 21:06:33:416,-1.41896,2.65193,-9.29688,-15.8718,-8.41633,-5.82059
2023-02-16 21:06:33:426,-1.44123,2.64936,-9.2654,-15.8736,-8.42128,-5.82522
2023-02-16 21:06:33:436,-1.45541,2.63562,-9.27897,-15.8755,-8.42641,-5.8312
2023-02-16 21:06:33:446,-1.47246,2.62849,-9.30797,-15.8756,-8.42963,-5.83549
2023-02-16 21:06:33:455,-1.44939,2.64687,-9.31643,-15.8811,-8.43091,-5.84056
2023-02-16 21:06:33:466,-1.45744,2.6496,-9.32633,-15.8831,-8.42619,-5.84733
2023-02-16 21:06:33:476,-1.44748,2.63967,-9.31414,-15.8845,-8.42446,-5.85448
2023-02-16 21:06:33:485,-1.43737,2.62474,-9.29672,-15.887,-8.41789,-5.85981
2023-02-16 21:06:33:496,-1.44513,2.60769,-9.2942,-15.8861,-8.4121,-5.8671
2023-02-16 21:06:33:506,-1.43175,2.60232,-9.27394,-15.887,-8.41013,-5.87506
2023-02-16 21:06:33:516,-1.41649,2.60062,-9.26581,-15.8881,-8.40611,-5.88272
2023-02-16 21:06:33:526,-1.41209,2.59784,-9.27315,-15.8907,-8.40184,-5.89043
2023-02-16 21:06:33:536,-1.40186,2.59148,-9.28718,-15.8985,-8.40002,-5.89725
2023-02-16 21:06:33:545,-1.37588,2.6023,-9.28913,-15.9029,-8.39953,-5.90569
2023-02-16 21:06:33:556,-1.3876,2.5987,-9.28818,-15.9157,-8.4005,-5.90828
2023-02-16 21:06:33:566,-1.40296,2.61273,-9.28801,-15.9276,-8.40286,-5.90872
2023-02-16 21:06:33:576,-1.40013,2.6279,-9.305,-15.944,-8.40641,-5.91158
2023-02-16 21:06:33:585,-1.39448,2.64583,-9.31999,-15.9607,-8.41144,-5.91569
2023-02-16 21:06:33:595,-1.40305,2.6607,-9.32509,-15.9792,-8.4154,-5.91528
2023-02-16 21:06:33:606,-1.42205,2.66649,-9.33214,-15.9956,-8.42098,-5.91382
2023-02-16 21:06:33:616,-1.42853,2.67621,-9.31914,-16.0134,-8.42488,-5.91381
2023-02-16 21:06:33:625,-1.40466,2.69104,-9.30997,-16.0293,-8.42714,-5.91106
2023-02-16 21:06:33:636,-1.4067,2.70424,-9.30247,-16.043,-8.4282,-5.91408
2023-02-16 21:06:33:646,-1.4211,2.71077,-9.297,-16.0636,-8.43151,-5.91492
2023-02-16 21:06:33:655,-1.42014,2.71762,-9.31367,-16.0784,-8.43575,-5.91639
2023-02-16 21:06:33:666,-1.42194,2.72266,-9.31474,-16.0918,-8.43842,-5.91344
2023-02-16 21:06:33:676,-1.40616,2.72784,-9.31931,-16.1062,-8.43634,-5.91295
2023-02-16 21:06:33:685,-1.40464,2.73535,-9.32359,-16.1182,-8.4336,-5.91251
2023-02-16 21:06:33:696,-1.39868,2.72389,-9.3326,-16.1279,-8.43177,-5.90909
2023-02-16 21:06:33:706,-1.40346,2.71491,-9.31262,-16.1335,-8.43213,-5.90964
2023-02-16 21:06:33:716,-1.42039,2.71382,-9.29766,-16.1397,-8.42912,-5.90885
2023-02-16 21:06:33:726,-1.41796,2.72328,-9.28711,-16.1486,-8.42575,-5.9101
2023-02-16 21:06:33:736,-1.41412,2.72432,-9.27701,-16.1564,-8.42069,-5.9102
2023-02-16 21:06:33:746,-1.42031,2.72343,-9.27791,-16.1636,-8.41651,-5.90941
2023-02-16 21:06:33:756,-1.40827,2.72606,-9.30086,-16.1713,-8.41138,-5.90908
2023-02-16 21:06:33:765,-1.42329,2.73746,-9.3096,-16.1771,-8.40308,-5.90904
2023-02-16 21:06:33:775,-1.43138,2.72973,-9.30218,-16.1836,-8.39636,-5.91221
2023-02-16 21:06:33:786,-1.40956,2.70944,-9.29297,-16.192,-8.38669,-5.91726
2023-02-16 21:06:33:796,-1.39433,2.71781,-9.27028,-16.2004,-8.37665,-5.92189
2023-02-16 21:06:33:805,-1.37486,2.72032,-9.26766,-16.2106,-8.37244,-5.92987
2023-02-16 21:06:33:815,-1.36279,2.7204,-9.27858,-16.2188,-8.36804,-5.93505
2023-02-16 21:06:33:826,-1.35077,2.72681,-9.31193,-16.2285,-8.36619,-5.94405
2023-02-16 21:06:33:835,-1.37453,2.74827,-9.37526,-16.2357,-8.36519,-5.94778
2023-02-16 21:06:33:845,-1.3978,2.7841,-9.43581,-16.24,-8.36506,-5.95027
2023-02-16 21:06:33:856,-1.38176,2.80641,-9.44478,-16.2382,-8.36439,-5.95643
2023-02-16 21:06:33:865,-1.34163,2.77264,-9.39771,-16.2314,-8.36629,-5.96352
2023-02-16 21:06:33:875,-1.34686,2.73459,-9.331,-16.2239,-8.36889,-5.96874
2023-02-16 21:06:33:885,-1.36812,2.71498,-9.27435,-16.2171,-8.37592,-5.9695
2023-02-16 21:06:33:895,-1.37784,2.70815,-9.2351,-16.2117,-8.38397,-5.97191
2023-02-16 21:06:33:906,-1.4043,2.69154,-9.20479,-16.2077,-8.39342,-5.97204
2023-02-16 21:06:33:916,-1.40953,2.69976,-9.20941,-16.2125,-8.3972,-5.97185
2023-02-16 21:06:33:926,-1.42721,2.72855,-9.22739,-16.2182,-8.40365,-5.97336
2023-02-16 21:06:33:936,-1.45296,2.75716,-9.24836,-16.2228,-8.40685,-5.97385
2023-02-16 21:06:33:945,-1.46194,2.75757,-9.26612,-16.2259,-8.40952,-5.97241
2023-02-16 21:06:33:956,-1.47776,2.7538,-9.26538,-16.2294,-8.41168,-5.97339
2023-02-16 21:06:33:966,-1.47546,2.74651,-9.25513,-16.2314,-8.40995,-5.976
2023-02-16 21:06:33:976,-1.45477,2.74663,-9.25154,-16.2327,-8.40534,-5.9806
2023-02-16 21:06:33:986,-1.43199,2.74754,-9.25917,-16.2322,-8.3988,-5.98531
2023-02-16 21:06:33:995,-1.43484,2.73661,-9.26297,-16.2306,-8.3931,-5.99121
2023-02-16 21:06:34:5,-1.43698,2.73784,-9.27992,-16.2315,-8.38877,-5.99848
2023-02-16 21:06:34:16,-1.42445,2.75226,-9.30309,-16.2365,-8.38542,-6.00763
2023-02-16 21:06:34:26,-1.39697,2.76644,-9.31595,-16.2386,-8.38222,-6.01897
2023-02-16 21:06:34:36,-1.39227,2.76592,-9.3112,-16.2418,-8.37734,-6.02664
2023-02-16 21:06:34:45,-1.42623,2.76904,-9.29918,-16.244,-8.37204,-6.03397
2023-02-16 21:06:34:56,-1.45498,2.78106,-9.32913,-16.2492,-8.36858,-6.04168
2023-02-16 21:06:34:66,-1.45852,2.82355,-9.37102,-16.251,-8.3565,-6.05221
2023-02-16 21:06:34:76,-1.41722,2.82424,-9.38688,-16.2442,-8.34484,-6.06347
2023-02-16 21:06:34:86,-1.37597,2.77168,-9.34444,-16.2341,-8.33285,-6.07035
2023-02-16 21:06:34:95,-1.39053,2.76482,-9.31755,-16.2198,-8.32011,-6.07821
2023-02-16 21:06:34:105,-1.41619,2.76545,-9.30754,-16.2069,-8.31006,-6.08771
2023-02-16 21:06:34:115,-1.43339,2.76367,-9.31856,-16.1893,-8.30005,-6.09611
2023-02-16 21:06:34:126,-1.40946,2.74405,-9.31798,-16.1729,-8.28906,-6.10761
2023-02-16 21:06:34:135,-1.3785,2.72244,-9.31446,-16.1568,-8.27745,-6.11554
2023-02-16 21:06:34:146,-1.36788,2.7147,-9.31064,-16.137,-8.26866,-6.12812
2023-02-16 21:06:34:156,-1.36105,2.71171,-9.31345,-16.1208,-8.26281,-6.13911
2023-02-16 21:06:34:166,-1.35064,2.68764,-9.29647,-16.1002,-8.25916,-6.15406
2023-02-16 21:06:34:176,-1.33461,2.66759,-9.26627,-16.0813,-8.25705,-6.16373
2023-02-16 21:06:34:186,-1.3236,2.65259,-9.25877,-16.0633,-8.2558,-6.17032
2023-02-16 21:06:34:195,-1.32963,2.63637,-9.26113,-16.0479,-8.25607,-6.17833
2023-02-16 21:06:34:206,-1.34358,2.62334,-9.26588,-16.0311,-8.25931,-6.18014
2023-02-16 21:06:34:215,-1.3431,2.62867,-9.25146,-16.02,-8.26269,-6.18469
2023-02-16 21:06:34:225,-1.35554,2.63506,-9.25339,-16.0129,-8.26484,-6.18586
2023-02-16 21:06:34:235,-1.35411,2.62875,-9.27131,-16.0088,-8.27023,-6.1822
2023-02-16 21:06:34:245,-1.35525,2.63172,-9.29177,-16.0063,-8.27437,-6.1779
2023-02-16 21:06:34:255,-1.36922,2.64543,-9.31044,-16.0045,-8.27813,-6.17678
2023-02-16 21:06:34:266,-1.37087,2.65312,-9.33277,-16.0043,-8.28468,-6.17117
2023-02-16 21:06:34:275,-1.3687,2.66805,-9.33003,-16.0052,-8.29144,-6.16347
2023-02-16 21:06:34:286,-1.382,2.67827,-9.31396,-16.0068,-8.2983,-6.15739
2023-02-16 21:06:34:295,-1.39659,2.68654,-9.31198,-16.0099,-8.30226,-6.14926
2023-02-16 21:06:34:305,-1.39908,2.69292,-9.31702,-16.0089,-8.30567,-6.14471
2023-02-16 21:06:34:315,-1.38553,2.67885,-9.29144,-16.0108,-8.30735,-6.14181
2023-02-16 21:06:34:326,-1.41174,2.66354,-9.24784,-16.0127,-8.31473,-6.13462
2023-02-16 21:06:34:335,-1.42825,2.67722,-9.26088,-16.0154,-8.31599,-6.12889
2023-02-16 21:06:34:345,-1.43511,2.68355,-9.29136,-16.0178,-8.31742,-6.12485
2023-02-16 21:06:34:355,-1.4248,2.68897,-9.2962,-16.0243,-8.3176,-6.12059
2023-02-16 21:06:34:365,-1.43773,2.70512,-9.30125,-16.028,-8.31561,-6.11918
2023-02-16 21:06:34:375,-1.43215,2.71667,-9.31046,-16.0292,-8.31397,-6.11948
2023-02-16 21:06:34:386,-1.42334,2.71955,-9.32339,-16.0325,-8.31013,-6.12401
2023-02-16 21:06:34:395,-1.41693,2.71243,-9.31117,-16.037,-8.31047,-6.12694
2023-02-16 21:06:34:405,-1.40248,2.71491,-9.31271,-16.0411,-8.30905,-6.13083
2023-02-16 21:06:34:415,-1.39599,2.71126,-9.31876,-16.0421,-8.30645,-6.13551
2023-02-16 21:06:34:426,-1.38731,2.69956,-9.30776,-16.044,-8.30459,-6.14214
2023-02-16 21:06:34:435,-1.37917,2.68942,-9.3039,-16.0444,-8.30414,-6.14543
2023-02-16 21:06:34:446,-1.38312,2.69418,-9.28846,-16.0424,-8.3026,-6.14786
2023-02-16 21:06:34:456,-1.38768,2.68251,-9.28446,-16.0411,-8.29714,-6.1494
2023-02-16 21:06:34:465,-1.39539,2.69219,-9.29652,-16.039,-8.29046,-6.14902
2023-02-16 21:06:34:475,-1.39126,2.70011,-9.32006,-16.0385,-8.27994,-6.15142
2023-02-16 21:06:34:485,-1.38848,2.69668,-9.33849,-16.0343,-8.27209,-6.15123
2023-02-16 21:06:34:495,-1.37776,2.68502,-9.33311,-16.0298,-8.26353,-6.15087
2023-02-16 21:06:34:505,-1.37598,2.67107,-9.3122,-16.0284,-8.25846,-6.15398
2023-02-16 21:06:34:515,-1.36842,2.65117,-9.29538,-16.0224,-8.25244,-6.15765
2023-02-16 21:06:34:525,-1.36413,2.64676,-9.29459,-16.0168,-8.24719,-6.16176
2023-02-16 21:06:34:536,-1.37048,2.65134,-9.32433,-16.0113,-8.24174,-6.16408
2023-02-16 21:06:34:546,-1.35227,2.65813,-9.37998,-16.0096,-8.2386,-6.16689
2023-02-16 21:06:34:556,-1.32202,2.66138,-9.36522,-16.0077,-8.23562,-6.16948
2023-02-16 21:06:34:566,-1.30569,2.63351,-9.32184,-16.0019,-8.23567,-6.17005
2023-02-16 21:06:34:576,-1.31781,2.63733,-9.29307,-16.001,-8.23651,-6.16688
2023-02-16 21:06:34:586,-1.34846,2.65175,-9.29283,-16.0016,-8.2389,-6.16281
2023-02-16 21:06:34:596,-1.38327,2.65321,-9.27884,-16.0055,-8.24605,-6.15746
2023-02-16 21:06:34:606,-1.39849,2.67796,-9.26038,-16.0091,-8.24883,-6.15284
2023-02-16 21:06:34:615,-1.40099,2.68327,-9.25713,-16.0167,-8.25042,-6.14553
2023-02-16 21:06:34:625,-1.41612,2.69714,-9.25745,-16.0256,-8.2531,-6.1369
2023-02-16 21:06:34:635,-1.42958,2.71613,-9.26739,-16.0381,-8.25358,-6.12802
2023-02-16 21:06:34:645,-1.44522,2.71301,-9.28621,-16.0454,-8.25389,-6.11979
2023-02-16 21:06:34:655,-1.4622,2.70703,-9.27,-16.0477,-8.25318,-6.11162
2023-02-16 21:06:34:666,-1.46417,2.68248,-9.25177,-16.0512,-8.25005,-6.10425
2023-02-16 21:06:34:675,-1.45276,2.68512,-9.26367,-16.0564,-8.24629,-6.09968
2023-02-16 21:06:34:685,-1.46447,2.69573,-9.28137,-16.0615,-8.24517,-6.0977
2023-02-16 21:06:34:696,-1.46894,2.69389,-9.29016,-16.0679,-8.24526,-6.10007
2023-02-16 21:06:34:706,-1.45562,2.70112,-9.29902,-16.073,-8.24356,-6.1051
2023-02-16 21:06:34:715,-1.4372,2.71621,-9.31852,-16.0819,-8.2407,-6.11068
2023-02-16 21:06:34:725,-1.41693,2.72309,-9.31187,-16.0939,-8.24227,-6.11638
2023-02-16 21:06:34:735,-1.42425,2.71768,-9.28474,-16.1032,-8.24351,-6.12496
2023-02-16 21:06:34:746,-1.44383,2.72701,-9.27996,-16.1155,-8.24413,-6.13273
2023-02-16 21:06:34:755,-1.44854,2.74172,-9.29459,-16.1285,-8.24573,-6.14412
2023-02-16 21:06:34:766,-1.43436,2.75683,-9.32233,-16.1401,-8.23628,-6.15334
2023-02-16 21:06:34:775,-1.38387,2.76909,-9.32665,-16.1473,-8.22731,-6.16438
2023-02-16 21:06:34:785,-1.33963,2.75017,-9.32912,-16.154,-8.21874,-6.1748
2023-02-16 21:06:34:795,-1.34013,2.74215,-9.31805,-16.1607,-8.21096,-6.18072
2023-02-16 21:06:34:805,-1.36828,2.73706,-9.31139,-16.1646,-8.2057,-6.18741
2023-02-16 21:06:34:815,-1.3785,2.7302,-9.29526,-16.1669,-8.20061,-6.1949
2023-02-16 21:06:34:825,-1.37601,2.73811,-9.29955,-16.1694,-8.19431,-6.20111
2023-02-16 21:06:34:835,-1.35535,2.7385,-9.32298,-16.1677,-8.18437,-6.20618
2023-02-16 21:06:34:845,-1.34056,2.73285,-9.31848,-16.1636,-8.17819,-6.21101
2023-02-16 21:06:34:855,-1.34484,2.72807,-9.31362,-16.162,-8.17059,-6.2129
2023-02-16 21:06:34:865,-1.35549,2.71916,-9.31477,-16.162,-8.16415,-6.21447
2023-02-16 21:06:34:875,-1.34647,2.71982,-9.31259,-16.1606,-8.15866,-6.21648
2023-02-16 21:06:34:885,-1.34049,2.71865,-9.30964,-16.1595,-8.15565,-6.21418
2023-02-16 21:06:34:895,-1.34054,2.7223,-9.30341,-16.153,-8.15213,-6.21762
2023-02-16 21:06:34:905,-1.34691,2.7123,-9.30175,-16.1482,-8.15232,-6.21698
2023-02-16 21:06:34:915,-1.34873,2.70513,-9.30454,-16.1456,-8.14825,-6.21568
2023-02-16 21:06:34:925,-1.34273,2.7035,-9.29858,-16.1434,-8.14898,-6.21947
2023-02-16 21:06:34:935,-1.33838,2.68172,-9.28448,-16.1406,-8.14983,-6.21773
2023-02-16 21:06:34:945,-1.32619,2.6771,-9.2927,-16.144,-8.14955,-6.21663
2023-02-16 21:06:34:955,-1.31697,2.70377,-9.29545,-16.1467,-8.14989,-6.21305
2023-02-16 21:06:34:965,-1.33064,2.69609,-9.31353,-16.1474,-8.15155,-6.20934
2023-02-16 21:06:34:975,-1.33612,2.69043,-9.32026,-16.1495,-8.15129,-6.20353
2023-02-16 21:06:34:985,-1.35106,2.6824,-9.30115,-16.1479,-8.15698,-6.19349
2023-02-16 21:06:34:995,-1.35592,2.68921,-9.2901,-16.1483,-8.16358,-6.18553
2023-02-16 21:06:35:5,-1.38136,2.68527,-9.29542,-16.1504,-8.16717,-6.17523
2023-02-16 21:06:35:15,-1.40691,2.69262,-9.29716,-16.1506,-8.16686,-6.16366
2023-02-16 21:06:35:25,-1.41377,2.67324,-9.28417,-16.1529,-8.16674,-6.15479
2023-02-16 21:06:35:35,-1.43096,2.689,-9.26703,-16.1561,-8.17014,-6.14842
2023-02-16 21:06:35:45,-1.44565,2.69571,-9.2588,-16.1566,-8.16779,-6.14447
2023-02-16 21:06:35:55,-1.44309,2.70183,-9.266,-16.1574,-8.16302,-6.14065
2023-02-16 21:06:35:65,-1.43816,2.6995,-9.28738,-16.1576,-8.16285,-6.14253
2023-02-16 21:06:35:75,-1.42207,2.70709,-9.29059,-16.1626,-8.16497,-6.14558
2023-02-16 21:06:35:85,-1.42267,2.71756,-9.28561,-16.1703,-8.16418,-6.15394
2023-02-16 21:06:35:95,-1.40963,2.71958,-9.29467,-16.1746,-8.16414,-6.1601
2023-02-16 21:06:35:105,-1.39272,2.71154,-9.29798,-16.1795,-8.15927,-6.1717
2023-02-16 21:06:35:115,-1.37151,2.71227,-9.28919,-16.1857,-8.15637,-6.18106
2023-02-16 21:06:35:125,-1.34791,2.69384,-9.26768,-16.1924,-8.15108,-6.18971
2023-02-16 21:06:35:135,-1.31785,2.69973,-9.25447,-16.2005,-8.14831,-6.19719
2023-02-16 21:06:35:145,-1.31972,2.6964,-9.27059,-16.2129,-8.14325,-6.20256
2023-02-16 21:06:35:155,-1.32385,2.6931,-9.33367,-16.2233,-8.13619,-6.20249
2023-02-16 21:06:35:165,-1.33491,2.73202,-9.34884,-16.2333,-8.12931,-6.19922
2023-02-16 21:06:35:175,-1.33176,2.74067,-9.34015,-16.2394,-8.12351,-6.2025
2023-02-16 21:06:35:185,-1.32526,2.73509,-9.32534,-16.2461,-8.11738,-6.20323
2023-02-16 21:06:35:195,-1.34308,2.73859,-9.32801,-16.2513,-8.11258,-6.20425
2023-02-16 21:06:35:205,-1.35523,2.75432,-9.30483,-16.2553,-8.10973,-6.20292
2023-02-16 21:06:35:215,-1.35935,2.75091,-9.29901,-16.2581,-8.11056,-6.20295
2023-02-16 21:06:35:225,-1.36362,2.7538,-9.31919,-16.2624,-8.10791,-6.20607
2023-02-16 21:06:35:235,-1.35339,2.77898,-9.36106,-16.2635,-8.10246,-6.21359
2023-02-16 21:06:35:245,-1.32679,2.77944,-9.38479,-16.2626,-8.09816,-6.21589
2023-02-16 21:06:35:255,-1.29806,2.74994,-9.36554,-16.2586,-8.10111,-6.22162
2023-02-16 21:06:35:265,-1.2924,2.72725,-9.34642,-16.2521,-8.10612,-6.22179
2023-02-16 21:06:35:275,-1.29056,2.72289,-9.31906,-16.2482,-8.11555,-6.21931
2023-02-16 21:06:35:285,-1.32045,2.70702,-9.28548,-16.2418,-8.12557,-6.21912
2023-02-16 21:06:35:295,-1.34716,2.71735,-9.24418,-16.2417,-8.13288,-6.21781
2023-02-16 21:06:35:305,-1.34068,2.71828,-9.2488,-16.2396,-8.13539,-6.2116
2023-02-16 21:06:35:315,-1.34279,2.72028,-9.2703,-16.2423,-8.13936,-6.20652
2023-02-16 21:06:35:325,-1.35708,2.71957,-9.279,-16.2436,-8.14387,-6.20166
2023-02-16 21:06:35:335,-1.38228,2.73777,-9.27728,-16.248,-8.15056,-6.19298
2023-02-16 21:06:35:345,-1.39379,2.72783,-9.26559,-16.249,-8.15209,-6.18833
2023-02-16 21:06:35:355,-1.3942,2.72404,-9.24779,-16.2516,-8.1483,-6.18259
2023-02-16 21:06:35:365,-1.38667,2.7216,-9.23203,-16.2568,-8.14471,-6.18102
2023-02-16 21:06:35:375,-1.38563,2.71851,-9.26863,-16.2599,-8.14635,-6.17851
2023-02-16 21:06:35:385,-1.38371,2.726,-9.28532,-16.2623,-8.14655,-6.17687
2023-02-16 21:06:35:395,-1.36997,2.71726,-9.29541,-16.2659,-8.14907,-6.17969
2023-02-16 21:06:35:405,-1.37014,2.72598,-9.28847,-16.2675,-8.14982,-6.18403
2023-02-16 21:06:35:415,-1.34447,2.74172,-9.30651,-16.2727,-8.15799,-6.18848
2023-02-16 21:06:35:425,-1.30889,2.74751,-9.30698,-16.2793,-8.16905,-6.19036
2023-02-16 21:06:35:435,-1.30092,2.75518,-9.30013,-16.2874,-8.17918,-6.1922
2023-02-16 21:06:35:445,-1.32572,2.7607,-9.31036,-16.2981,-8.19301,-6.19246
2023-02-16 21:06:35:455,-1.35148,2.79574,-9.33916,-16.3097,-8.20013,-6.18986
2023-02-16 21:06:35:465,-1.33786,2.80029,-9.36319,-16.3152,-8.20352,-6.18663
2023-02-16 21:06:35:475,-1.30416,2.78716,-9.35293,-16.3169,-8.20775,-6.18125
2023-02-16 21:06:35:485,-1.30495,2.76839,-9.32288,-16.3215,-8.21466,-6.17357
2023-02-16 21:06:35:495,-1.33718,2.76656,-9.29867,-16.3227,-8.2213,-6.16112
2023-02-16 21:06:35:505,-1.3901,2.78218,-9.29746,-16.3214,-8.2324,-6.14819
2023-02-16 21:06:35:515,-1.40726,2.78165,-9.31295,-16.3175,-8.23739,-6.13687
2023-02-16 21:06:35:525,-1.40579,2.7653,-9.32294,-16.3133,-8.24419,-6.12553
2023-02-16 21:06:35:535,-1.41229,2.77031,-9.31674,-16.3109,-8.2469,-6.11401
2023-02-16 21:06:35:545,-1.41528,2.76611,-9.32123,-16.3053,-8.25032,-6.10407
2023-02-16 21:06:35:555,-1.40154,2.74955,-9.31732,-16.2966,-8.25825,-6.09508
2023-02-16 21:06:35:565,-1.39239,2.73761,-9.30647,-16.2884,-8.2611,-6.08828
2023-02-16 21:06:35:575,-1.40396,2.73336,-9.28637,-16.2797,-8.26834,-6.08077
2023-02-16 21:06:35:585,-1.39657,2.72375,-9.27374,-16.2703,-8.2773,-6.07466
2023-02-16 21:06:35:595,-1.4122,2.71701,-9.28482,-16.2643,-8.28885,-6.06974
2023-02-16 21:06:35:605,-1.42569,2.70227,-9.27145,-16.2548,-8.29893,-6.06502
2023-02-16 21:06:35:615,-1.41866,2.71061,-9.26086,-16.2478,-8.31041,-6.06026
2023-02-16 21:06:35:625,-1.41416,2.70465,-9.26639,-16.2425,-8.32262,-6.05373
2023-02-16 21:06:35:635,-1.42234,2.70136,-9.26532,-16.238,-8.33757,-6.04683
2023-02-16 21:06:35:645,-1.42298,2.70393,-9.28513,-16.2331,-8.35062,-6.0429
2023-02-16 21:06:35:655,-1.42064,2.69805,-9.30021,-16.2298,-8.36124,-6.03727
2023-02-16 21:06:35:665,-1.43775,2.70217,-9.30485,-16.2253,-8.37106,-6.03191
2023-02-16 21:06:35:675,-1.44017,2.69807,-9.29661,-16.2197,-8.38194,-6.03098
2023-02-16 21:06:35:685,-1.44462,2.69489,-9.28242,-16.2186,-8.39325,-6.02702
2023-02-16 21:06:35:695,-1.44594,2.6776,-9.27867,-16.2151,-8.40537,-6.02198
2023-02-16 21:06:35:705,-1.4551,2.68292,-9.29539,-16.2136,-8.41237,-6.01471
2023-02-16 21:06:35:715,-1.47415,2.68502,-9.29253,-16.2099,-8.4186,-6.01025
2023-02-16 21:06:35:725,-1.47414,2.68778,-9.26617,-16.2073,-8.42352,-6.00614
2023-02-16 21:06:35:735,-1.45401,2.68071,-9.26959,-16.2091,-8.42714,-6.00276
2023-02-16 21:06:35:745,-1.46529,2.68254,-9.27119,-16.2122,-8.43071,-5.99802
2023-02-16 21:06:35:755,-1.45197,2.67566,-9.28022,-16.2126,-8.43175,-5.99219
2023-02-16 21:06:35:765,-1.43617,2.67531,-9.27421,-16.216,-8.43361,-5.98825
2023-02-16 21:06:35:775,-1.45518,2.67851,-9.25342,-16.2169,-8.43785,-5.98296
2023-02-16 21:06:35:785,-1.44896,2.68701,-9.25328,-16.2246,-8.44019,-5.98157
2023-02-16 21:06:35:795,-1.44837,2.70042,-9.28168,-16.2314,-8.43632,-5.97614
2023-02-16 21:06:35:805,-1.43997,2.71917,-9.29403,-16.2375,-8.43624,-5.97146
2023-02-16 21:06:35:815,-1.43731,2.71973,-9.31558,-16.2444,-8.43698,-5.96618
2023-02-16 21:06:35:825,-1.42386,2.71668,-9.31537,-16.2513,-8.43458,-5.96278
2023-02-16 21:06:35:835,-1.40233,2.7124,-9.31111,-16.2537,-8.43116,-5.95662
2023-02-16 21:06:35:845,-1.40416,2.71235,-9.29762,-16.2565,-8.42717,-5.94837
2023-02-16 21:06:35:855,-1.39805,2.71315,-9.29785,-16.257,-8.41967,-5.93983
2023-02-16 21:06:35:865,-1.41565,2.71533,-9.30425,-16.2595,-8.41251,-5.93125
2023-02-16 21:06:35:875,-1.42744,2.70777,-9.29614,-16.2612,-8.40595,-5.92396
2023-02-16 21:06:35:885,-1.441,2.70821,-9.29153,-16.2636,-8.40165,-5.91953
2023-02-16 21:06:35:895,-1.46217,2.71432,-9.27739,-16.2677,-8.39528,-5.91562
2023-02-16 21:06:35:905,-1.46741,2.7057,-9.24165,-16.2676,-8.39275,-5.91493
2023-02-16 21:06:35:915,-1.45558,2.69167,-9.24147,-16.2697,-8.38913,-5.92055
2023-02-16 21:06:35:925,-1.45354,2.68362,-9.26677,-16.2695,-8.38199,-5.92684
2023-02-16 21:06:35:935,-1.44338,2.70895,-9.31838,-16.277,-8.38096,-5.9361
2023-02-16 21:06:35:945,-1.40903,2.73341,-9.36187,-16.2806,-8.37927,-5.94834
2023-02-16 21:06:35:955,-1.34234,2.72514,-9.35725,-16.2818,-8.37888,-5.95971
2023-02-16 21:06:35:965,-1.31059,2.6941,-9.33024,-16.2811,-8.38077,-5.97208
2023-02-16 21:06:35:975,-1.31615,2.695,-9.27565,-16.2801,-8.38094,-5.97693
2023-02-16 21:06:35:985,-1.33886,2.68754,-9.25386,-16.2853,-8.38482,-5.97945
2023-02-16 21:06:35:995,-1.345,2.6855,-9.22677,-16.2921,-8.3883,-5.97866
2023-02-16 21:06:36:5,-1.36825,2.70969,-9.20733,-16.3061,-8.39014,-5.972
2023-02-16 21:06:36:15,-1.38566,2.73369,-9.2239,-16.3226,-8.38665,-5.9627
2023-02-16 21:06:36:25,-1.37408,2.74351,-9.24988,-16.3402,-8.37969,-5.9516
2023-02-16 21:06:36:35,-1.39655,2.75212,-9.25562,-16.3577,-8.37323,-5.93696
2023-02-16 21:06:36:45,-1.42959,2.77493,-9.26878,-16.3765,-8.36825,-5.92661
2023-02-16 21:06:36:55,-1.44866,2.79323,-9.27565,-16.3924,-8.3644,-5.91618
2023-02-16 21:06:36:65,-1.45461,2.80484,-9.27646,-16.4039,-8.36146,-5.90883
2023-02-16 21:06:36:75,-1.45027,2.79943,-9.29205,-16.4153,-8.36042,-5.90694
2023-02-16 21:06:36:85,-1.4405,2.81907,-9.31474,-16.4256,-8.36217,-5.9087
2023-02-16 21:06:36:95,-1.44106,2.82155,-9.33454,-16.434,-8.36189,-5.91374
2023-02-16 21:06:36:105,-1.45013,2.79745,-9.33019,-16.4391,-8.36594,-5.91667
2023-02-16 21:06:36:115,-1.44687,2.80637,-9.31704,-16.4445,-8.36854,-5.92443
2023-02-16 21:06:36:125,-1.433,2.8028,-9.30329,-16.4502,-8.36877,-5.93265
2023-02-16 21:06:36:135,-1.434,2.7805,-9.28337,-16.4565,-8.36985,-5.93907
2023-02-16 21:06:36:145,-1.46282,2.77966,-9.26692,-16.4613,-8.36824,-5.94744
2023-02-16 21:06:36:155,-1.50349,2.79498,-9.29319,-16.4653,-8.36631,-5.95767
2023-02-16 21:06:36:165,-1.48784,2.81117,-9.31558,-16.4699,-8.35921,-5.97316
2023-02-16 21:06:36:175,-1.45131,2.79668,-9.30583,-16.4656,-8.35071,-5.99026
2023-02-16 21:06:36:185,-1.41635,2.77676,-9.2815,-16.4646,-8.34678,-6.0056
2023-02-16 21:06:36:195,-1.42659,2.77729,-9.26395,-16.4619,-8.34065,-6.02348
2023-02-16 21:06:36:205,-1.44052,2.77768,-9.25447,-16.4602,-8.33482,-6.04364
2023-02-16 21:06:36:215,-1.4254,2.78246,-9.24897,-16.4571,-8.32889,-6.06458
2023-02-16 21:06:36:225,-1.3947,2.77049,-9.27431,-16.4578,-8.32044,-6.08526
2023-02-16 21:06:36:235,-1.35926,2.77387,-9.27519,-16.4595,-8.30929,-6.10374
2023-02-16 21:06:36:245,-1.3326,2.79238,-9.29788,-16.4582,-8.30078,-6.11882
2023-02-16 21:06:36:255,-1.30616,2.77156,-9.30738,-16.4548,-8.28568,-6.13331
2023-02-16 21:06:36:265,-1.29974,2.77276,-9.29755,-16.4525,-8.27168,-6.14585
2023-02-16 21:06:36:275,-1.30047,2.7813,-9.30156,-16.4506,-8.25781,-6.15401
2023-02-16 21:06:36:285,-1.31655,2.77395,-9.31832,-16.4499,-8.24911,-6.16257
2023-02-16 21:06:36:295,-1.32511,2.77691,-9.29828,-16.4469,-8.23891,-6.16681
2023-02-16 21:06:36:305,-1.32931,2.77551,-9.29206,-16.4449,-8.22861,-6.17092
2023-02-16 21:06:36:315,-1.34422,2.77476,-9.29579,-16.4405,-8.22385,-6.17163
2023-02-16 21:06:36:325,-1.35841,2.77205,-9.3027,-16.4394,-8.22153,-6.17319
2023-02-16 21:06:36:335,-1.35232,2.77348,-9.30553,-16.4382,-8.2199,-6.17572
2023-02-16 21:06:36:345,-1.3552,2.76292,-9.30122,-16.4361,-8.21967,-6.18012
2023-02-16 21:06:36:355,-1.35697,2.75073,-9.31275,-16.4332,-8.2248,-6.1826
2023-02-16 21:06:36:365,-1.3575,2.7492,-9.3185,-16.434,-8.2302,-6.18699
2023-02-16 21:06:36:375,-1.36267,2.7319,-9.31565,-16.4294,-8.23672,-6.18616
2023-02-16 21:06:36:385,-1.37198,2.74146,-9.2816,-16.423,-8.2432,-6.18729
2023-02-16 21:06:36:395,-1.38551,2.73345,-9.2591,-16.4193,-8.24959,-6.18418
2023-02-16 21:06:36:405,-1.40776,2.72274,-9.25353,-16.4131,-8.25026,-6.17873
2023-02-16 21:06:36:415,-1.41679,2.72183,-9.24588,-16.4108,-8.25276,-6.17426
2023-02-16 21:06:36:425,-1.43009,2.72737,-9.22321,-16.4092,-8.25256,-6.17512
2023-02-16 21:06:36:435,-1.43392,2.74022,-9.23086,-16.4089,-8.25146,-6.17148
2023-02-16 21:06:36:445,-1.43557,2.74225,-9.25853,-16.4096,-8.25127,-6.17259
2023-02-16 21:06:36:455,-1.4269,2.73523,-9.25535,-16.4126,-8.24468,-6.172
2023-02-16 21:06:36:465,-1.44097,2.73755,-9.27453,-16.4126,-8.24186,-6.17626
2023-02-16 21:06:36:475,-1.43336,2.75179,-9.29967,-16.416,-8.23774,-6.18368
2023-02-16 21:06:36:485,-1.42354,2.76423,-9.29894,-16.4164,-8.23749,-6.18914
2023-02-16 21:06:36:495,-1.40832,2.76587,-9.30568,-16.4198,-8.23527,-6.19317
2023-02-16 21:06:36:505,-1.39938,2.77143,-9.32228,-16.4191,-8.23177,-6.19863
2023-02-16 21:06:36:515,-1.38198,2.76639,-9.31188,-16.4184,-8.22705,-6.20546
2023-02-16 21:06:36:525,-1.39564,2.76076,-9.29378,-16.4166,-8.22333,-6.2076
2023-02-16 21:06:36:535,-1.38356,2.7562,-9.2714,-16.4118,-8.21537,-6.20994
2023-02-16 21:06:36:545,-1.36882,2.73501,-9.26553,-16.4092,-8.21187,-6.21068
2023-02-16 21:06:36:555,-1.36602,2.73718,-9.25485,-16.4089,-8.21123,-6.2111
2023-02-16 21:06:36:565,-1.37645,2.74544,-9.25438,-16.409,-8.20614,-6.21269
2023-02-16 21:06:36:575,-1.40235,2.77049,-9.28905,-16.411,-8.20284,-6.21069
2023-02-16 21:06:36:585,-1.42002,2.77098,-9.31841,-16.4077,-8.19649,-6.21016
2023-02-16 21:06:36:595,-1.40325,2.769,-9.32571,-16.4062,-8.19137,-6.21238
2023-02-16 21:06:36:605,-1.39171,2.75801,-9.30663,-16.406,-8.18858,-6.21269
2023-02-16 21:06:36:615,-1.40172,2.75329,-9.29521,-16.4063,-8.18298,-6.21388
2023-02-16 21:06:36:625,-1.39336,2.75484,-9.26074,-16.4061,-8.18014,-6.21402
2023-02-16 21:06:36:635,-1.38711,2.73217,-9.2387,-16.4004,-8.17678,-6.21728
2023-02-16 21:06:36:645,-1.36798,2.70641,-9.26246,-16.4,-8.16732,-6.218
2023-02-16 21:06:36:655,-1.36314,2.73124,-9.31693,-16.3971,-8.1607,-6.22029
2023-02-16 21:06:36:665,-1.34717,2.75073,-9.34901,-16.395,-8.15474,-6.22103
2023-02-16 21:06:36:675,-1.32408,2.74673,-9.32878,-16.394,-8.14966,-6.22068
2023-02-16 21:06:36:685,-1.33401,2.73225,-9.30304,-16.3876,-8.14853,-6.22005
2023-02-16 21:06:36:695,-1.35864,2.73595,-9.27968,-16.3849,-8.15144,-6.22006
2023-02-16 21:06:36:705,-1.3999,2.74246,-9.26378,-16.3884,-8.15633,-6.22085
2023-02-16 21:06:36:715,-1.42572,2.74746,-9.23821,-16.3942,-8.15978,-6.22249
2023-02-16 21:06:36:725,-1.43827,2.74399,-9.23003,-16.4018,-8.1609,-6.22741
2023-02-16 21:06:36:735,-1.42052,2.76712,-9.23601,-16.4111,-8.16297,-6.23065
2023-02-16 21:06:36:745,-1.39898,2.78373,-9.25701,-16.4211,-8.16072,-6.236
2023-02-16 21:06:36:755,-1.39939,2.77564,-9.26541,-16.4266,-8.1594,-6.24386
2023-02-16 21:06:36:765,-1.38048,2.77213,-9.23362,-16.4317,-8.15302,-6.2544
2023-02-16 21:06:36:775,-1.36914,2.75746,-9.22408,-16.4357,-8.15126,-6.2644
2023-02-16 21:06:36:785,-1.35716,2.7551,-9.25958,-16.4414,-8.14986,-6.27162
2023-02-16 21:06:36:795,-1.33762,2.78735,-9.30985,-16.4467,-8.14807,-6.27669
2023-02-16 21:06:36:805,-1.30883,2.78728,-9.33133,-16.4475,-8.14414,-6.28293
2023-02-16 21:06:36:815,-1.29745,2.78337,-9.32973,-16.4467,-8.13716,-6.28086
2023-02-16 21:06:36:825,-1.30152,2.79873,-9.32441,-16.4481,-8.13146,-6.27832
2023-02-16 21:06:36:835,-1.30801,2.79149,-9.32723,-16.4492,-8.12364,-6.26953
2023-02-16 21:06:36:845,-1.32835,2.78285,-9.31123,-16.4502,-8.11568,-6.25694
2023-02-16 21:06:36:855,-1.3818,2.77143,-9.29357,-16.4487,-8.10751,-6.2439
2023-02-16 21:06:36:865,-1.43258,2.76895,-9.28888,-16.4507,-8.10009,-6.23351
2023-02-16 21:06:36:875,-1.46589,2.7936,-9.31383,-16.4507,-8.09212,-6.22863
2023-02-16 21:06:36:885,-1.45072,2.81802,-9.32911,-16.4529,-8.08464,-6.23349
2023-02-16 21:06:36:895,-1.40511,2.80103,-9.32123,-16.4515,-8.08085,-6.24078
2023-02-16 21:06:36:905,-1.37132,2.76676,-9.30639,-16.4453,-8.08092,-6.24965
2023-02-16 21:06:36:915,-1.37011,2.74806,-9.28821,-16.4392,-8.08054,-6.26012
2023-02-16 21:06:36:925,-1.39134,2.73081,-9.27931,-16.4321,-8.08392,-6.27328
2023-02-16 21:06:36:935,-1.37982,2.72712,-9.25847,-16.4255,-8.08375,-6.2867
2023-02-16 21:06:36:945,-1.34419,2.71649,-9.25644,-16.422,-8.08089,-6.29901
2023-02-16 21:06:36:955,-1.3117,2.71125,-9.26194,-16.4178,-8.07771,-6.30793
2023-02-16 21:06:36:965,-1.31402,2.70563,-9.25362,-16.4165,-8.07264,-6.31976
2023-02-16 21:06:36:975,-1.31838,2.70068,-9.26052,-16.4128,-8.06586,-6.33214
2023-02-16 21:06:36:985,-1.30656,2.71206,-9.26241,-16.4151,-8.05721,-6.34066
2023-02-16 21:06:36:995,-1.30625,2.71697,-9.27006,-16.4206,-8.05051,-6.34483
2023-02-16 21:06:37:5,-1.29707,2.73358,-9.28786,-16.4261,-8.05292,-6.35154
2023-02-16 21:06:37:15,-1.30577,2.74865,-9.30975,-16.4335,-8.05305,-6.35513
2023-02-16 21:06:37:25,-1.32624,2.75069,-9.32464,-16.4411,-8.05491,-6.35932
2023-02-16 21:06:37:35,-1.32058,2.76354,-9.32063,-16.4434,-8.05862,-6.36334
2023-02-16 21:06:37:45,-1.3119,2.74976,-9.3217,-16.4456,-8.06187,-6.36682
2023-02-16 21:06:37:55,-1.31493,2.73034,-9.32381,-16.4456,-8.06592,-6.36809
2023-02-16 21:06:37:65,-1.31197,2.72355,-9.31067,-16.4481,-8.06919,-6.36865
2023-02-16 21:06:37:75,-1.29332,2.71381,-9.29693,-16.4553,-8.07448,-6.36787
2023-02-16 21:06:37:85,-1.2613,2.70705,-9.29059,-16.4573,-8.07887,-6.3639
2023-02-16 21:06:37:95,-1.23384,2.70652,-9.30888,-16.4605,-8.08098,-6.35067
2023-02-16 21:06:37:105,-1.26376,2.70376,-9.3222,-16.4646,-8.0846,-6.33453
2023-02-16 21:06:37:115,-1.31538,2.72885,-9.30977,-16.4731,-8.0853,-6.31235
2023-02-16 21:06:37:125,-1.35582,2.73998,-9.29877,-16.4762,-8.09031,-6.28611
2023-02-16 21:06:37:135,-1.40259,2.75581,-9.28043,-16.4835,-8.09535,-6.26014
2023-02-16 21:06:37:145,-1.44249,2.75919,-9.24473,-16.4897,-8.10231,-6.24017
2023-02-16 21:06:37:155,-1.47454,2.76035,-9.23912,-16.497,-8.10742,-6.22287
2023-02-16 21:06:37:165,-1.50571,2.76441,-9.25197,-16.505,-8.11481,-6.21127
2023-02-16 21:06:37:175,-1.51221,2.78137,-9.23568,-16.515,-8.12253,-6.20574
2023-02-16 21:06:37:185,-1.5043,2.77986,-9.23355,-16.5246,-8.12703,-6.21028
2023-02-16 21:06:37:195,-1.48031,2.77449,-9.24466,-16.5304,-8.13494,-6.21967
2023-02-16 21:06:37:205,-1.46441,2.789,-9.24676,-16.5383,-8.14302,-6.23135
2023-02-16 21:06:37:215,-1.44404,2.80821,-9.26135,-16.5486,-8.14892,-6.24705
2023-02-16 21:06:37:225,-1.39831,2.8081,-9.28853,-16.5602,-8.15456,-6.26559
2023-02-16 21:06:37:235,-1.37098,2.81713,-9.30411,-16.5672,-8.15962,-6.28756
2023-02-16 21:06:37:245,-1.35193,2.83164,-9.30479,-16.5721,-8.16225,-6.30376
2023-02-16 21:06:37:255,-1.32828,2.83312,-9.30213,-16.5782,-8.16265,-6.31746
2023-02-16 21:06:37:265,-1.32736,2.82274,-9.30671,-16.5827,-8.15661,-6.32941
2023-02-16 21:06:37:275,-1.33506,2.8205,-9.31676,-16.5835,-8.15377,-6.34053
2023-02-16 21:06:37:285,-1.34357,2.82478,-9.32221,-16.5827,-8.14922,-6.34895
2023-02-16 21:06:37:295,-1.33066,2.81951,-9.3194,-16.5836,-8.14275,-6.35361
2023-02-16 21:06:37:305,-1.32397,2.82317,-9.30431,-16.5841,-8.13865,-6.35581
2023-02-16 21:06:37:315,-1.35659,2.82352,-9.27735,-16.5826,-8.13371,-6.35581
2023-02-16 21:06:37:325,-1.35444,2.80898,-9.26018,-16.5798,-8.13012,-6.35888
2023-02-16 21:06:37:335,-1.3381,2.79747,-9.26703,-16.5809,-8.12612,-6.35924
2023-02-16 21:06:37:345,-1.36303,2.80962,-9.31179,-16.5798,-8.12553,-6.35486
2023-02-16 21:06:37:355,-1.35687,2.83787,-9.36994,-16.5804,-8.12673,-6.35683
2023-02-16 21:06:37:365,-1.34116,2.86009,-9.39051,-16.5762,-8.12461,-6.3612
2023-02-16 21:06:37:375,-1.3144,2.84727,-9.3598,-16.5687,-8.12594,-6.36277
2023-02-16 21:06:37:385,-1.30183,2.81584,-9.32967,-16.5599,-8.12847,-6.36115
2023-02-16 21:06:37:395,-1.33301,2.80924,-9.31016,-16.547,-8.13646,-6.36157
2023-02-16 21:06:37:405,-1.34373,2.79763,-9.26722,-16.5333,-8.14233,-6.36035
2023-02-16 21:06:37:415,-1.35984,2.788,-9.24679,-16.5213,-8.14692,-6.35767
2023-02-16 21:06:37:425,-1.37314,2.79064,-9.23684,-16.5128,-8.15099,-6.35181
2023-02-16 21:06:37:435,-1.39711,2.82555,-9.25032,-16.505,-8.1516,-6.34539
2023-02-16 21:06:37:445,-1.44571,2.84358,-9.25997,-16.4976,-8.14893,-6.33973
2023-02-16 21:06:37:455,-1.4574,2.82782,-9.24476,-16.4906,-8.14632,-6.33405
2023-02-16 21:06:37:465,-1.4773,2.81284,-9.24073,-16.4818,-8.14172,-6.33315
2023-02-16 21:06:37:475,-1.47624,2.81705,-9.23598,-16.4688,-8.13404,-6.33441
2023-02-16 21:06:37:485,-1.46768,2.80105,-9.24346,-16.4542,-8.1267,-6.33975
2023-02-16 21:06:37:495,-1.44467,2.76862,-9.26009,-16.4427,-8.1229,-6.34378
2023-02-16 21:06:37:505,-1.41373,2.75893,-9.27075,-16.4305,-8.12113,-6.34973
2023-02-16 21:06:37:515,-1.41378,2.75371,-9.2713,-16.416,-8.11718,-6.35749
2023-02-16 21:06:37:525,-1.39548,2.74635,-9.26106,-16.4065,-8.11726,-6.36696
2023-02-16 21:06:37:535,-1.38013,2.73802,-9.25972,-16.3997,-8.11629,-6.376
2023-02-16 21:06:37:545,-1.35465,2.72366,-9.25196,-16.3938,-8.11469,-6.382
2023-02-16 21:06:37:555,-1.36109,2.71875,-9.25568,-16.3907,-8.11492,-6.39038
2023-02-16 21:06:37:565,-1.38078,2.72576,-9.28099,-16.3895,-8.11549,-6.39553
2023-02-16 21:06:37:575,-1.37644,2.76268,-9.3063,-16.388,-8.11468,-6.40338
2023-02-16 21:06:37:585,-1.34317,2.77855,-9.32848,-16.3841,-8.10616,-6.41165
2023-02-16 21:06:37:595,-1.2982,2.7556,-9.32404,-16.3804,-8.10128,-6.41487
2023-02-16 21:06:37:605,-1.29864,2.73992,-9.29896,-16.3752,-8.09608,-6.41576
2023-02-16 21:06:37:615,-1.31283,2.73706,-9.28435,-16.3697,-8.0934,-6.41281
2023-02-16 21:06:37:625,-1.34348,2.7314,-9.26786,-16.3627,-8.09281,-6.41069
2023-02-16 21:06:37:635,-1.37154,2.71769,-9.25719,-16.3552,-8.0919,-6.40517
2023-02-16 21:06:37:645,-1.36111,2.71121,-9.2765,-16.3479,-8.09237,-6.40724
2023-02-16 21:06:37:655,-1.32955,2.73044,-9.29965,-16.3441,-8.09261,-6.40303
2023-02-16 21:06:37:665,-1.34529,2.72723,-9.29866,-16.3417,-8.08899,-6.39859
2023-02-16 21:06:37:675,-1.35018,2.71282,-9.28685,-16.34,-8.08947,-6.39047
2023-02-16 21:06:37:685,-1.33943,2.72642,-9.26868,-16.338,-8.08818,-6.38636
2023-02-16 21:06:37:695,-1.34827,2.72377,-9.26963,-16.339,-8.08577,-6.3787
2023-02-16 21:06:37:705,-1.35927,2.72435,-9.27716,-16.3396,-8.08829,-6.37397
2023-02-16 21:06:37:715,-1.34846,2.73842,-9.28269,-16.3409,-8.09044,-6.37152
2023-02-16 21:06:37:725,-1.36344,2.74263,-9.29278,-16.3423,-8.09544,-6.37044
2023-02-16 21:06:37:735,-1.35362,2.75141,-9.31783,-16.3417,-8.09905,-6.37017
2023-02-16 21:06:37:745,-1.35464,2.7641,-9.32502,-16.343,-8.10591,-6.36615
2023-02-16 21:06:37:755,-1.36697,2.75924,-9.32162,-16.3404,-8.1111,-6.3636
2023-02-16 21:06:37:765,-1.35703,2.76768,-9.31884,-16.3368,-8.11804,-6.36124
2023-02-16 21:06:37:775,-1.35625,2.74425,-9.3098,-16.3313,-8.12347,-6.35883
2023-02-16 21:06:37:785,-1.35281,2.74287,-9.31324,-16.3262,-8.13013,-6.35352
2023-02-16 21:06:37:795,-1.34901,2.73282,-9.30722,-16.3187,-8.13689,-6.35154
2023-02-16 21:06:37:805,-1.36378,2.71816,-9.29466,-16.3106,-8.14039,-6.34792
2023-02-16 21:06:37:815,-1.36544,2.72278,-9.28679,-16.302,-8.1472,-6.34058
2023-02-16 21:06:37:825,-1.37761,2.70146,-9.28616,-16.2959,-8.15258,-6.32814
2023-02-16 21:06:37:835,-1.38228,2.70193,-9.27621,-16.2883,-8.15757,-6.31816
2023-02-16 21:06:37:845,-1.39369,2.69767,-9.26714,-16.2815,-8.15829,-6.3103
2023-02-16 21:06:37:855,-1.40456,2.6991,-9.26834,-16.2779,-8.16226,-6.30743
2023-02-16 21:06:37:865,-1.41376,2.70537,-9.26648,-16.276,-8.16554,-6.3042
2023-02-16 21:06:37:875,-1.4191,2.71073,-9.26613,-16.2718,-8.1671,-6.30047
2023-02-16 21:06:37:885,-1.42358,2.7093,-9.27484,-16.2673,-8.16904,-6.2983
2023-02-16 21:06:37:895,-1.42334,2.69995,-9.27171,-16.2689,-8.17306,-6.29559
2023-02-16 21:06:37:905,-1.42602,2.69485,-9.26825,-16.2663,-8.17748,-6.29521
2023-02-16 21:06:37:915,-1.42471,2.70534,-9.27911,-16.2655,-8.17798,-6.2987
2023-02-16 21:06:37:925,-1.42129,2.70419,-9.26356,-16.2641,-8.17731,-6.30127
2023-02-16 21:06:37:935,-1.41513,2.70303,-9.25761,-16.2677,-8.17963,-6.30719
2023-02-16 21:06:37:945,-1.41455,2.6999,-9.25752,-16.272,-8.17959,-6.31113
2023-02-16 21:06:37:955,-1.40576,2.69442,-9.29289,-16.277,-8.18255,-6.31317
2023-02-16 21:06:37:965,-1.41206,2.71851,-9.31915,-16.2843,-8.18072,-6.31749
2023-02-16 21:06:37:975,-1.42807,2.74309,-9.33194,-16.2919,-8.17491,-6.32411
2023-02-16 21:06:37:985,-1.40191,2.72755,-9.32109,-16.2959,-8.16725,-6.3283
2023-02-16 21:06:37:995,-1.38314,2.72897,-9.32584,-16.2974,-8.15942,-6.33466
2023-02-16 21:06:38:5,-1.38227,2.72855,-9.32885,-16.3025,-8.15645,-6.33997
2023-02-16 21:06:38:15,-1.36956,2.72259,-9.31109,-16.3029,-8.15289,-6.34641
2023-02-16 21:06:38:25,-1.36686,2.71087,-9.28283,-16.2998,-8.14807,-6.3534
2023-02-16 21:06:38:35,-1.35944,2.71703,-9.27425,-16.3016,-8.14706,-6.361
2023-02-16 21:06:38:45,-1.35593,2.73111,-9.30925,-16.3039,-8.14381,-6.36774
2023-02-16 21:06:38:55,-1.32876,2.73271,-9.33332,-16.3041,-8.14361,-6.37965
2023-02-16 21:06:38:65,-1.27684,2.71978,-9.34808,-16.3,-8.14771,-6.39185
2023-02-16 21:06:38:75,-1.24806,2.72333,-9.33634,-16.2983,-8.15662,-6.39692
2023-02-16 21:06:38:85,-1.27124,2.71234,-9.31608,-16.2999,-8.166,-6.39606
2023-02-16 21:06:38:95,-1.32578,2.71159,-9.29506,-16.3023,-8.17866,-6.39182
2023-02-16 21:06:38:105,-1.35557,2.71947,-9.26938,-16.3083,-8.19098,-6.38457
2023-02-16 21:06:38:115,-1.36876,2.74495,-9.2606,-16.3169,-8.20177,-6.37971
2023-02-16 21:06:38:125,-1.36515,2.77229,-9.26029,-16.3219,-8.2074,-6.3722
2023-02-16 21:06:38:135,-1.38129,2.78409,-9.25766,-16.3273,-8.21193,-6.36242
2023-02-16 21:06:38:145,-1.41929,2.77711,-9.24579,-16.3332,-8.21553,-6.35187
2023-02-16 21:06:38:155,-1.44355,2.77174,-9.21337,-16.3365,-8.21651,-6.34373
2023-02-16 21:06:38:165,-1.44741,2.76173,-9.22164,-16.3413,-8.21388,-6.33338
2023-02-16 21:06:38:175,-1.45917,2.76009,-9.23587,-16.3478,-8.21244,-6.32495
2023-02-16 21:06:38:185,-1.46787,2.76926,-9.25238,-16.3514,-8.21151,-6.32026
2023-02-16 21:06:38:195,-1.49153,2.77165,-9.26351,-16.3593,-8.212,-6.31736
2023-02-16 21:06:38:205,-1.5018,2.78723,-9.28093,-16.3629,-8.21311,-6.32039
2023-02-16 21:06:38:215,-1.4874,2.78191,-9.28348,-16.3672,-8.21094,-6.32889
2023-02-16 21:06:38:225,-1.46188,2.77387,-9.29946,-16.3718,-8.20815,-6.34319
2023-02-16 21:06:38:235,-1.42906,2.79874,-9.28743,-16.3762,-8.20575,-6.35835
2023-02-16 21:06:38:245,-1.40927,2.79506,-9.26846,-16.3798,-8.20278,-6.37479
2023-02-16 21:06:38:255,-1.4016,2.77775,-9.2889,-16.3853,-8.19888,-6.38945
2023-02-16 21:06:38:265,-1.40561,2.77805,-9.32117,-16.3902,-8.19526,-6.40221
2023-02-16 21:06:38:275,-1.38595,2.79108,-9.34846,-16.3947,-8.18913,-6.41769
2023-02-16 21:06:38:285,-1.33055,2.78818,-9.35284,-16.3944,-8.18082,-6.43279
2023-02-16 21:06:38:295,-1.30553,2.77039,-9.31284,-16.392,-8.17185,-6.44508
2023-02-16 21:06:38:305,-1.32196,2.75746,-9.29443,-16.3888,-8.16526,-6.45155
2023-02-16 21:06:38:315,-1.34145,2.74985,-9.29223,-16.3848,-8.15812,-6.45645
2023-02-16 21:06:38:325,-1.35388,2.74762,-9.28901,-16.3762,-8.15175,-6.46004
2023-02-16 21:06:38:335,-1.36741,2.7468,-9.27077,-16.3716,-8.14182,-6.4617
2023-02-16 21:06:38:345,-1.34563,2.73258,-9.28529,-16.3658,-8.13462,-6.46208
2023-02-16 21:06:38:355,-1.34294,2.74674,-9.30056,-16.3654,-8.12381,-6.46271
2023-02-16 21:06:38:365,-1.35674,2.74991,-9.28266,-16.3645,-8.11712,-6.46204
2023-02-16 21:06:38:375,-1.34476,2.73984,-9.248,-16.3606,-8.10924,-6.46509
2023-02-16 21:06:38:385,-1.33871,2.73188,-9.25208,-16.359,-8.10266,-6.46847
2023-02-16 21:06:38:395,-1.34152,2.73679,-9.26993,-16.3588,-8.09876,-6.4698
2023-02-16 21:06:38:405,-1.33915,2.74607,-9.2786,-16.3563,-8.09682,-6.47384
2023-02-16 21:06:38:415,-1.34762,2.7503,-9.29991,-16.3563,-8.0987,-6.47617
2023-02-16 21:06:38:425,-1.35181,2.75633,-9.31855,-16.3551,-8.10039,-6.48041
2023-02-16 21:06:38:435,-1.34194,2.76182,-9.31552,-16.3534,-8.10133,-6.48267
2023-02-16 21:06:38:445,-1.33657,2.75333,-9.30442,-16.3502,-8.10611,-6.48536
2023-02-16 21:06:38:455,-1.3347,2.73464,-9.29469,-16.3471,-8.10624,-6.48659
2023-02-16 21:06:38:465,-1.32934,2.7418,-9.2813,-16.3465,-8.11066,-6.48704
2023-02-16 21:06:38:475,-1.33196,2.73199,-9.27433,-16.3468,-8.11015,-6.48705
2023-02-16 21:06:38:485,-1.34152,2.72225,-9.25974,-16.345,-8.11089,-6.48319
2023-02-16 21:06:38:495,-1.36259,2.7278,-9.26604,-16.347,-8.11349,-6.4803
2023-02-16 21:06:38:505,-1.37141,2.72621,-9.26351,-16.3477,-8.11251,-6.4736
2023-02-16 21:06:38:515,-1.3992,2.73108,-9.26478,-16.3517,-8.11454,-6.46452
2023-02-16 21:06:38:525,-1.39976,2.72623,-9.26921,-16.3583,-8.1159,-6.45815
2023-02-16 21:06:38:535,-1.40897,2.75258,-9.25123,-16.3629,-8.1147,-6.45629
2023-02-16 21:06:38:545,-1.41932,2.75307,-9.27012,-16.3697,-8.10957,-6.45667
2023-02-16 21:06:38:555,-1.41046,2.76526,-9.2917,-16.3745,-8.10488,-6.45802
2023-02-16 21:06:38:565,-1.40921,2.76595,-9.30599,-16.3766,-8.10147,-6.46053
2023-02-16 21:06:38:575,-1.39967,2.77472,-9.30225,-16.3809,-8.09787,-6.46581
2023-02-16 21:06:38:585,-1.37461,2.7822,-9.29037,-16.3846,-8.09089,-6.4718
2023-02-16 21:06:38:595,-1.36392,2.76597,-9.29438,-16.3864,-8.08701,-6.47951
2023-02-16 21:06:38:605,-1.35875,2.7648,-9.28136,-16.3869,-8.08309,-6.48483
2023-02-16 21:06:38:615,-1.36209,2.7529,-9.27493,-16.3897,-8.07656,-6.49428
2023-02-16 21:06:38:625,-1.32625,2.75417,-9.26777,-16.3897,-8.07378,-6.50072
2023-02-16 21:06:38:635,-1.31381,2.74892,-9.26414,-16.3896,-8.06862,-6.50807
2023-02-16 21:06:38:645,-1.31925,2.74491,-9.27445,-16.3927,-8.06786,-6.51591
2023-02-16 21:06:38:655,-1.31238,2.74945,-9.27747,-16.3977,-8.06817,-6.51906
2023-02-16 21:06:38:665,-1.32299,2.7547,-9.30408,-16.4063,-8.06454,-6.52377
2023-02-16 21:06:38:675,-1.33026,2.76449,-9.32305,-16.4107,-8.05824,-6.527
2023-02-16 21:06:38:685,-1.3117,2.7611,-9.31706,-16.4106,-8.0541,-6.52722
2023-02-16 21:06:38:695,-1.30827,2.76574,-9.31744,-16.4134,-8.05472,-6.52574
2023-02-16 21:06:38:705,-1.3151,2.7644,-9.29431,-16.4109,-8.0532,-6.52378
2023-02-16 21:06:38:715,-1.32234,2.74423,-9.27952,-16.4118,-8.05183,-6.5203
2023-02-16 21:06:38:725,-1.33738,2.73907,-9.25118,-16.4111,-8.05129,-6.5186
2023-02-16 21:06:38:735,-1.339,2.74082,-9.27349,-16.4099,-8.05095,-6.51552
2023-02-16 21:06:38:745,-1.33755,2.75931,-9.32359,-16.4112,-8.04844,-6.51476
2023-02-16 21:06:38:755,-1.32941,2.76649,-9.39094,-16.412,-8.04854,-6.51104
2023-02-16 21:06:38:765,-1.31274,2.76127,-9.38241,-16.4107,-8.04657,-6.51048
2023-02-16 21:06:38:775,-1.30996,2.74899,-9.34228,-16.4075,-8.04914,-6.50655
2023-02-16 21:06:38:785,-1.332,2.75772,-9.32327,-16.4054,-8.05454,-6.5017
2023-02-16 21:06:38:795,-1.36504,2.76666,-9.30447,-16.4014,-8.06088,-6.49861
2023-02-16 21:06:38:805,-1.387,2.77046,-9.25743,-16.4023,-8.06803,-6.49727
2023-02-16 21:06:38:815,-1.37952,2.77798,-9.25097,-16.4046,-8.07321,-6.49645
2023-02-16 21:06:38:825,-1.37691,2.7939,-9.25433,-16.4071,-8.08121,-6.4958
2023-02-16 21:06:38:835,-1.37262,2.79022,-9.25297,-16.405,-8.08629,-6.49728
2023-02-16 21:06:38:845,-1.36611,2.78595,-9.23622,-16.4044,-8.086,-6.49782
2023-02-16 21:06:38:855,-1.36956,2.78831,-9.21022,-16.4028,-8.08554,-6.49966
2023-02-16 21:06:38:865,-1.38552,2.77326,-9.21778,-16.4037,-8.08631,-6.50398
2023-02-16 21:06:38:875,-1.36894,2.76384,-9.2554,-16.4017,-8.08116,-6.50356
2023-02-16 21:06:38:885,-1.35187,2.7619,-9.27878,-16.3992,-8.07902,-6.50738
2023-02-16 21:06:38:895,-1.3677,2.7457,-9.27796,-16.3968,-8.07764,-6.50606
2023-02-16 21:06:38:905,-1.37513,2.7513,-9.28871,-16.3966,-8.07162,-6.51298
2023-02-16 21:06:38:915,-1.36299,2.75515,-9.32026,-16.3952,-8.06824,-6.5158
2023-02-16 21:06:38:925,-1.36833,2.76756,-9.31264,-16.3988,-8.06428,-6.51546
2023-02-16 21:06:38:935,-1.34114,2.78791,-9.29517,-16.4051,-8.06418,-6.51734
2023-02-16 21:06:38:945,-1.35563,2.79733,-9.29994,-16.413,-8.06324,-6.51811
2023-02-16 21:06:38:955,-1.40392,2.79913,-9.30227,-16.4213,-8.06508,-6.51862
2023-02-16 21:06:38:965,-1.42533,2.81499,-9.31293,-16.427,-8.06486,-6.5224
2023-02-16 21:06:38:975,-1.40548,2.83449,-9.33215,-16.4287,-8.05993,-6.5324
2023-02-16 21:06:38:985,-1.3498,2.82178,-9.36179,-16.4256,-8.05521,-6.54075
2023-02-16 21:06:38:995,-1.33141,2.81774,-9.34655,-16.4198,-8.05395,-6.5498
2023-02-16 21:06:39:5,-1.33809,2.79708,-9.32162,-16.4087,-8.05507,-6.5579
2023-02-16 21:06:39:15,-1.35032,2.76056,-9.28617,-16.3981,-8.053,-6.56341
2023-02-16 21:06:39:25,-1.33856,2.7401,-9.25819,-16.3861,-8.05126,-6.56616
2023-02-16 21:06:39:35,-1.32461,2.72134,-9.2692,-16.3716,-8.04798,-6.57033
2023-02-16 21:06:39:45,-1.31565,2.72281,-9.28553,-16.3632,-8.04065,-6.57077
2023-02-16 21:06:39:55,-1.29896,2.71303,-9.27665,-16.3546,-8.03712,-6.57145
2023-02-16 21:06:39:65,-1.29508,2.71224,-9.27481,-16.3472,-8.03485,-6.57025
2023-02-16 21:06:39:75,-1.30543,2.71315,-9.2705,-16.3394,-8.03149,-6.56434
2023-02-16 21:06:39:85,-1.32271,2.69925,-9.25799,-16.3333,-8.02726,-6.56156
2023-02-16 21:06:39:95,-1.3165,2.70289,-9.25358,-16.3325,-8.02772,-6.55795
2023-02-16 21:06:39:105,-1.32672,2.72273,-9.25933,-16.3312,-8.02765,-6.55487
2023-02-16 21:06:39:115,-1.34334,2.73137,-9.28087,-16.328,-8.03189,-6.55389
2023-02-16 21:06:39:125,-1.33926,2.73893,-9.28866,-16.3322,-8.03462,-6.55162
2023-02-16 21:06:39:135,-1.34264,2.74877,-9.30157,-16.3341,-8.03882,-6.5532
2023-02-16 21:06:39:145,-1.33441,2.76299,-9.3195,-16.3307,-8.04405,-6.5532
2023-02-16 21:06:39:155,-1.32265,2.76204,-9.3292,-16.3285,-8.04865,-6.55391
2023-02-16 21:06:39:165,-1.33365,2.75334,-9.33391,-16.3226,-8.05308,-6.55479
2023-02-16 21:06:39:175,-1.33286,2.74648,-9.31936,-16.3185,-8.06186,-6.55351
2023-02-16 21:06:39:185,-1.32367,2.73336,-9.29447,-16.3118,-8.07071,-6.54924
2023-02-16 21:06:39:195,-1.33595,2.72766,-9.28571,-16.3088,-8.07695,-6.5404
2023-02-16 21:06:39:205,-1.35843,2.72342,-9.27272,-16.3084,-8.08322,-6.52924
2023-02-16 21:06:39:215,-1.35152,2.70986,-9.26315,-16.3074,-8.09182,-6.52161
2023-02-16 21:06:39:225,-1.37766,2.71308,-9.24966,-16.3068,-8.09595,-6.51128
2023-02-16 21:06:39:235,-1.39391,2.71888,-9.25634,-16.3075,-8.10046,-6.50184
2023-02-16 21:06:39:245,-1.41296,2.73662,-9.28317,-16.3105,-8.10277,-6.49533
2023-02-16 21:06:39:255,-1.41206,2.74793,-9.27163,-16.3144,-8.10913,-6.49217
2023-02-16 21:06:39:265,-1.40202,2.7297,-9.26709,-16.3132,-8.10793,-6.4931
2023-02-16 21:06:39:275,-1.40194,2.71348,-9.26969,-16.3123,-8.11185,-6.49274
2023-02-16 21:06:39:285,-1.40512,2.72691,-9.26413,-16.3119,-8.11221,-6.49488
2023-02-16 21:06:39:295,-1.39562,2.75632,-9.34862,-16.3136,-8.11374,-6.49764
2023-02-16 21:06:39:305,-1.39611,2.76417,-9.28811,-16.3143,-8.11499,-6.50397
2023-02-16 21:06:39:315,-1.36021,2.68128,-9.13443,-16.3151,-8.1161,-6.50905
2023-02-16 21:06:39:325,-1.3573,2.724,-9.23849,-16.3245,-8.11595,-6.51595
2023-02-16 21:06:39:335,-1.38825,2.78091,-9.33185,-16.3328,-8.11524,-6.5194
2023-02-16 21:06:39:345,-1.39744,2.77831,-9.29304,-16.3385,-8.11433,-6.525
2023-02-16 21:06:39:355,-1.38125,2.77295,-9.29343,-16.3439,-8.11148,-6.53014
2023-02-16 21:06:39:365,-1.3658,2.7832,-9.32756,-16.351,-8.10488,-6.5371
2023-02-16 21:06:39:375,-1.37844,2.79431,-9.32042,-16.3544,-8.09928,-6.54409
2023-02-16 21:06:39:385,-1.38955,2.803,-9.32579,-16.3578,-8.09384,-6.55535
2023-02-16 21:06:39:395,-1.38885,2.79428,-9.31317,-16.3544,-8.08756,-6.56435
2023-02-16 21:06:39:405,-1.36802,2.75913,-9.27791,-16.3489,-8.0811,-6.57464
2023-02-16 21:06:39:415,-1.35455,2.74556,-9.26134,-16.3478,-8.07694,-6.58272
2023-02-16 21:06:39:425,-1.3319,2.73859,-9.27186,-16.3431,-8.07049,-6.59473
2023-02-16 21:06:39:435,-1.31178,2.73391,-9.32885,-16.3405,-8.06488,-6.60469
2023-02-16 21:06:39:445,-1.27167,2.73679,-9.35225,-16.3385,-8.06211,-6.61612
2023-02-16 21:06:39:455,-1.22523,2.70427,-9.31986,-16.3335,-8.06069,-6.62786
2023-02-16 21:06:39:465,-1.22339,2.70588,-9.29846,-16.3291,-8.06411,-6.63369
2023-02-16 21:06:39:475,-1.24048,2.71899,-9.29194,-16.331,-8.07308,-6.63315
2023-02-16 21:06:39:485,-1.27971,2.73819,-9.27369,-16.3344,-8.08588,-6.63218
2023-02-16 21:06:39:495,-1.29529,2.74984,-9.26003,-16.3375,-8.09389,-6.62792
2023-02-16 21:06:39:505,-1.32232,2.7561,-9.27869,-16.3445,-8.1035,-6.62341
2023-02-16 21:06:39:515,-1.34419,2.77246,-9.28593,-16.3509,-8.11095,-6.61326
2023-02-16 21:06:39:525,-1.36583,2.7876,-9.30713,-16.3592,-8.11907,-6.60452
2023-02-16 21:06:39:535,-1.3809,2.79033,-9.28588,-16.3638,-8.12571,-6.59641
2023-02-16 21:06:39:545,-1.3982,2.78177,-9.26139,-16.3655,-8.13217,-6.5887
2023-02-16 21:06:39:555,-1.39402,2.77572,-9.24631,-16.366,-8.13788,-6.58259
2023-02-16 21:06:39:565,-1.41452,2.78323,-9.24816,-16.3667,-8.14177,-6.57944
2023-02-16 21:06:39:575,-1.43108,2.76733,-9.26057,-16.3664,-8.14815,-6.57996
2023-02-16 21:06:39:585,-1.44962,2.75855,-9.2747,-16.3687,-8.15224,-6.57782
2023-02-16 21:06:39:595,-1.447,2.7582,-9.27976,-16.3739,-8.15495,-6.57968
2023-02-16 21:06:39:605,-1.43875,2.76559,-9.29895,-16.3745,-8.15592,-6.582
2023-02-16 21:06:39:615,-1.42504,2.77838,-9.30533,-16.3783,-8.15711,-6.58511
2023-02-16 21:06:39:625,-1.41834,2.78429,-9.29658,-16.382,-8.16056,-6.59078
2023-02-16 21:06:39:635,-1.42632,2.77548,-9.28533,-16.3831,-8.16218,-6.59746
2023-02-16 21:06:39:645,-1.43694,2.77201,-9.29843,-16.3819,-8.16599,-6.6098
2023-02-16 21:06:39:655,-1.44044,2.78542,-9.31591,-16.383,-8.16463,-6.62055
2023-02-16 21:06:39:665,-1.39886,2.79292,-9.34301,-16.3771,-8.16253,-6.63055
2023-02-16 21:06:39:675,-1.35006,2.78228,-9.33324,-16.368,-8.15908,-6.64119
2023-02-16 21:06:39:685,-1.33313,2.75331,-9.30633,-16.3617,-8.15985,-6.65136
2023-02-16 21:06:39:695,-1.33607,2.7348,-9.27455,-16.3527,-8.15573,-6.65853
2023-02-16 21:06:39:705,-1.33278,2.72179,-9.27614,-16.3441,-8.15217,-6.66667
2023-02-16 21:06:39:715,-1.32999,2.7271,-9.28537,-16.3355,-8.14671,-6.67266
2023-02-16 21:06:39:725,-1.31658,2.71966,-9.28433,-16.3288,-8.14191,-6.67655
2023-02-16 21:06:39:735,-1.31185,2.71698,-9.27755,-16.3217,-8.13811,-6.67785
2023-02-16 21:06:39:745,-1.29708,2.70559,-9.27984,-16.3136,-8.13552,-6.67895
2023-02-16 21:06:39:755,-1.30584,2.70688,-9.27765,-16.3092,-8.13183,-6.67482
2023-02-16 21:06:39:765,-1.30635,2.71472,-9.27524,-16.3059,-8.13173,-6.6717
2023-02-16 21:06:39:775,-1.33156,2.72235,-9.2615,-16.3048,-8.13361,-6.66633
2023-02-16 21:06:39:785,-1.34549,2.73265,-9.26692,-16.3045,-8.13342,-6.66559
2023-02-16 21:06:39:795,-1.35619,2.72569,-9.2955,-16.3047,-8.13472,-6.66403
2023-02-16 21:06:39:805,-1.35619,2.74368,-9.30128,-16.3032,-8.14027,-6.66205
2023-02-16 21:06:39:815,-1.35583,2.74758,-9.30431,-16.3016,-8.14715,-6.6616
2023-02-16 21:06:39:825,-1.35651,2.74263,-9.31337,-16.3014,-8.1512,-6.66322
2023-02-16 21:06:39:835,-1.35315,2.7393,-9.30794,-16.2962,-8.15553,-6.66486
2023-02-16 21:06:39:845,-1.36033,2.72106,-9.28246,-16.297,-8.16151,-6.66148
2023-02-16 21:06:39:855,-1.36925,2.71533,-9.27568,-16.296,-8.16787,-6.65941
2023-02-16 21:06:39:865,-1.37571,2.70796,-9.28539,-16.2982,-8.17634,-6.65781
2023-02-16 21:06:39:875,-1.37544,2.70718,-9.29253,-16.2991,-8.1814,-6.65575
2023-02-16 21:06:39:885,-1.37458,2.71481,-9.3011,-16.2996,-8.18337,-6.65203
2023-02-16 21:06:39:895,-1.39048,2.71017,-9.27916,-16.2972,-8.18676,-6.64612
2023-02-16 21:06:39:905,-1.38539,2.70044,-9.26286,-16.2979,-8.18705,-6.64571
2023-02-16 21:06:39:915,-1.38714,2.70215,-9.25903,-16.2986,-8.18909,-6.64287
2023-02-16 21:06:39:925,-1.40846,2.71302,-9.26155,-16.3015,-8.19206,-6.64053
2023-02-16 21:06:39:935,-1.4069,2.71871,-9.27328,-16.3069,-8.19482,-6.63965
2023-02-16 21:06:39:945,-1.40893,2.73981,-9.29065,-16.314,-8.19538,-6.63755
2023-02-16 21:06:39:955,-1.40386,2.74651,-9.29609,-16.3193,-8.1975,-6.64405
2023-02-16 21:06:39:965,-1.38791,2.73606,-9.27949,-16.322,-8.20005,-6.6472
2023-02-16 21:06:39:975,-1.38995,2.73427,-9.26298,-16.3278,-8.19924,-6.65244
2023-02-16 21:06:39:985,-1.37843,2.71614,-9.25393,-16.3331,-8.19964,-6.65804
2023-02-16 21:06:39:995,-1.37092,2.7202,-9.24737,-16.3373,-8.20293,-6.65893
2023-02-16 21:06:40:5,-1.35122,2.71423,-9.26385,-16.3468,-8.20767,-6.66102
2023-02-16 21:06:40:15,-1.33852,2.72463,-9.27767,-16.3533,-8.21094,-6.65999
2023-02-16 21:06:40:25,-1.35951,2.7335,-9.27011,-16.3639,-8.2123,-6.65964
2023-02-16 21:06:40:35,-1.37246,2.73156,-9.27118,-16.3733,-8.21604,-6.65635
2023-02-16 21:06:40:45,-1.38176,2.74304,-9.27902,-16.3834,-8.21803,-6.65407
2023-02-16 21:06:40:55,-1.4066,2.76843,-9.30104,-16.392,-8.22056,-6.65018
2023-02-16 21:06:40:65,-1.41762,2.77368,-9.30631,-16.4015,-8.21768,-6.64883
2023-02-16 21:06:40:75,-1.40875,2.78257,-9.31895,-16.4113,-8.21874,-6.64958
2023-02-16 21:06:40:85,-1.39673,2.79181,-9.32723,-16.4215,-8.21654,-6.64864
2023-02-16 21:06:40:95,-1.38941,2.77052,-9.30147,-16.429,-8.21591,-6.65194
2023-02-16 21:06:40:105,-1.3724,2.7728,-9.28283,-16.4353,-8.2104,-6.65281
2023-02-16 21:06:40:115,-1.38012,2.78335,-9.30726,-16.44,-8.21286,-6.65857
2023-02-16 21:06:40:125,-1.37358,2.79773,-9.34554,-16.4423,-8.21141,-6.66438
2023-02-16 21:06:40:135,-1.3487,2.78534,-9.34192,-16.4431,-8.21103,-6.66945
2023-02-16 21:06:40:145,-1.29966,2.77107,-9.34529,-16.4436,-8.21553,-6.6737
2023-02-16 21:06:40:155,-1.25465,2.74719,-9.3368,-16.4427,-8.22214,-6.67222
2023-02-16 21:06:40:165,-1.27006,2.73519,-9.30005,-16.4394,-8.23108,-6.66916
2023-02-16 21:06:40:175,-1.31599,2.73704,-9.28716,-16.4374,-8.24152,-6.6659
2023-02-16 21:06:40:185,-1.35149,2.74135,-9.25557,-16.4362,-8.251,-6.65767
2023-02-16 21:06:40:195,-1.37365,2.74406,-9.23604,-16.44,-8.26285,-6.64667
2023-02-16 21:06:40:205,-1.38427,2.75237,-9.24035,-16.4438,-8.27233,-6.63668
2023-02-16 21:06:40:215,-1.39413,2.78352,-9.24333,-16.4516,-8.27664,-6.6271
2023-02-16 21:06:40:225,-1.41635,2.7897,-9.2622,-16.4593,-8.28665,-6.61518
2023-02-16 21:06:40:235,-1.45325,2.78236,-9.24482,-16.4706,-8.28987,-6.60353
2023-02-16 21:06:40:245,-1.46266,2.7784,-9.24818,-16.4791,-8.29349,-6.59222
2023-02-16 21:06:40:255,-1.44762,2.79422,-9.25564,-16.4858,-8.29602,-6.58423
2023-02-16 21:06:40:265,-1.46583,2.79926,-9.25661,-16.489,-8.30138,-6.5829
2023-02-16 21:06:40:275,-1.46883,2.79003,-9.26758,-16.4935,-8.30417,-6.58168
2023-02-16 21:06:40:285,-1.46701,2.78606,-9.27407,-16.4979,-8.30883,-6.57878
2023-02-16 21:06:40:295,-1.45334,2.78112,-9.29195,-16.4982,-8.30909,-6.58097
2023-02-16 21:06:40:305,-1.43309,2.78111,-9.29347,-16.5028,-8.31019,-6.5811
2023-02-16 21:06:40:315,-1.41388,2.78909,-9.28916,-16.5084,-8.31127,-6.58637
2023-02-16 21:06:40:325,-1.39015,2.77331,-9.27878,-16.5126,-8.31447,-6.59172
2023-02-16 21:06:40:335,-1.38461,2.76942,-9.28393,-16.5181,-8.31608,-6.59469
2023-02-16 21:06:40:345,-1.39759,2.77471,-9.28398,-16.5222,-8.31783,-6.59853
2023-02-16 21:06:40:355,-1.39591,2.77799,-9.30406,-16.5299,-8.3152,-6.59862
2023-02-16 21:06:40:365,-1.37475,2.77509,-9.34874,-16.5322,-8.30963,-6.60156
2023-02-16 21:06:40:375,-1.32394,2.76889,-9.33439,-16.5315,-8.30283,-6.59661
2023-02-16 21:06:40:385,-1.3206,2.77338,-9.32504,-16.5297,-8.2929,-6.59338
2023-02-16 21:06:40:395,-1.34222,2.77501,-9.31086,-16.53,-8.2799,-6.5909
2023-02-16 21:06:40:405,-1.33191,2.77179,-9.32215,-16.5248,-8.26206,-6.58475
2023-02-16 21:06:40:415,-1.34254,2.76871,-9.32713,-16.5199,-8.24453,-6.57542
2023-02-16 21:06:40:425,-1.34639,2.77073,-9.32451,-16.5115,-8.22854,-6.5685
2023-02-16 21:06:40:435,-1.36393,2.77606,-9.30869,-16.503,-8.21137,-6.56378
2023-02-16 21:06:40:445,-1.37931,2.77219,-9.29366,-16.4932,-8.19095,-6.55828
2023-02-16 21:06:40:455,-1.35276,2.7735,-9.28086,-16.4839,-8.17161,-6.55043
2023-02-16 21:06:40:465,-1.35385,2.79147,-9.25992,-16.4721,-8.15397,-6.54878
2023-02-16 21:06:40:475,-1.34764,2.7731,-9.24065,-16.4607,-8.14315,-6.54775
2023-02-16 21:06:40:485,-1.35868,2.77354,-9.27503,-16.4553,-8.13722,-6.54582
2023-02-16 21:06:40:495,-1.37864,2.79368,-9.27249,-16.4497,-8.13316,-6.54278
2023-02-16 21:06:40:504,-1.36349,2.77938,-9.24588,-16.4424,-8.13479,-6.53911
2023-02-16 21:06:40:515,-1.33883,2.74935,-9.23299,-16.4363,-8.13905,-6.53248
2023-02-16 21:06:40:525,-1.33173,2.743,-9.22573,-16.4337,-8.14458,-6.52739
2023-02-16 21:06:40:535,-1.32861,2.75353,-9.26388,-16.4347,-8.15193,-6.51784
2023-02-16 21:06:40:545,-1.347,2.77224,-9.31036,-16.4355,-8.16228,-6.50764
2023-02-16 21:06:40:555,-1.38482,2.77614,-9.34229,-16.4356,-8.17939,-6.49435
2023-02-16 21:06:40:565,-1.38991,2.79177,-9.32138,-16.4317,-8.19488,-6.48197
2023-02-16 21:06:40:575,-1.4127,2.78142,-9.31167,-16.4298,-8.2074,-6.47332
2023-02-16 21:06:40:585,-1.42871,2.79118,-9.29297,-16.4275,-8.21904,-6.46229
2023-02-16 21:06:40:595,-1.43224,2.78054,-9.27795,-16.4206,-8.22858,-6.45324
2023-02-16 21:06:40:605,-1.42113,2.76846,-9.27646,-16.4136,-8.23617,-6.44357
2023-02-16 21:06:40:615,-1.43065,2.76165,-9.27511,-16.4069,-8.24266,-6.43457
2023-02-16 21:06:40:625,-1.44315,2.7475,-9.25982,-16.4017,-8.2517,-6.42706
2023-02-16 21:06:40:635,-1.43646,2.73705,-9.23216,-16.3975,-8.25945,-6.42064
2023-02-16 21:06:40:645,-1.42689,2.73794,-9.23194,-16.3944,-8.26587,-6.41704
2023-02-16 21:06:40:655,-1.41818,2.72916,-9.24765,-16.3933,-8.27036,-6.41024
2023-02-16 21:06:40:665,-1.40219,2.73126,-9.2471,-16.393,-8.27097,-6.40355
2023-02-16 21:06:40:675,-1.41307,2.74284,-9.26254,-16.3928,-8.27274,-6.3994
2023-02-16 21:06:40:685,-1.42189,2.76132,-9.27577,-16.3927,-8.27829,-6.39498
2023-02-16 21:06:40:694,-1.4186,2.75672,-9.28114,-16.3924,-8.28351,-6.39059
2023-02-16 21:06:40:704,-1.4266,2.75482,-9.28819,-16.3921,-8.28922,-6.38605
2023-02-16 21:06:40:714,-1.43491,2.75827,-9.28779,-16.396,-8.29156,-6.38356
2023-02-16 21:06:40:725,-1.40824,2.76968,-9.2951,-16.3977,-8.29313,-6.38318
2023-02-16 21:06:40:734,-1.39831,2.76851,-9.30169,-16.4006,-8.2931,-6.37995
2023-02-16 21:06:40:745,-1.39053,2.76253,-9.29752,-16.4028,-8.29067,-6.37804
2023-02-16 21:06:40:755,-1.3736,2.77121,-9.30716,-16.4062,-8.29372,-6.37554
2023-02-16 21:06:40:765,-1.37329,2.7754,-9.30435,-16.4051,-8.29161,-6.37366
2023-02-16 21:06:40:775,-1.39247,2.75477,-9.30575,-16.406,-8.29035,-6.36999
2023-02-16 21:06:40:785,-1.39472,2.73908,-9.31839,-16.406,-8.29293,-6.36687
2023-02-16 21:06:40:794,-1.40461,2.75852,-9.31331,-16.4055,-8.29021,-6.36093
2023-02-16 21:06:40:805,-1.4206,2.76223,-9.31909,-16.4029,-8.28902,-6.35643
2023-02-16 21:06:40:815,-1.42254,2.74513,-9.30162,-16.4013,-8.2868,-6.35398
2023-02-16 21:06:40:825,-1.42179,2.72621,-9.27036,-16.3968,-8.28777,-6.35185
2023-02-16 21:06:40:835,-1.40457,2.70405,-9.23383,-16.3961,-8.28686,-6.34966
2023-02-16 21:06:40:845,-1.40492,2.7012,-9.22968,-16.3945,-8.28972,-6.34846
2023-02-16 21:06:40:854,-1.39392,2.71327,-9.27644,-16.395,-8.28756,-6.34605
2023-02-16 21:06:40:865,-1.35773,2.71666,-9.32755,-16.3982,-8.28667,-6.3486
2023-02-16 21:06:40:875,-1.31414,2.70941,-9.3343,-16.3992,-8.28586,-6.35062
2023-02-16 21:06:40:885,-1.29,2.72339,-9.33243,-16.4,-8.29156,-6.35097
2023-02-16 21:06:40:894,-1.29821,2.73588,-9.3225,-16.399,-8.29771,-6.34511
2023-02-16 21:06:40:905,-1.32675,2.74806,-9.32219,-16.4023,-8.30549,-6.34051
2023-02-16 21:06:40:915,-1.34152,2.7402,-9.29173,-16.4047,-8.31284,-6.32635
2023-02-16 21:06:40:925,-1.36418,2.72829,-9.23243,-16.4026,-8.31927,-6.31243
2023-02-16 21:06:40:935,-1.38087,2.74205,-9.20513,-16.4104,-8.32631,-6.29288
2023-02-16 21:06:40:945,-1.39394,2.76409,-9.23636,-16.4238,-8.3312,-6.27274
2023-02-16 21:06:40:954,-1.43103,2.79605,-9.30982,-16.4346,-8.33485,-6.25276
2023-02-16 21:06:40:965,-1.45597,2.82265,-9.34215,-16.4394,-8.3371,-6.23274
2023-02-16 21:06:40:975,-1.44173,2.82057,-9.33247,-16.4367,-8.33293,-6.21705
2023-02-16 21:06:40:985,-1.39857,2.81651,-9.32917,-16.4323,-8.32887,-6.19793
2023-02-16 21:06:40:995,-1.4055,2.80667,-9.30648,-16.4228,-8.32051,-6.1768
2023-02-16 21:06:41:5,-1.42684,2.78388,-9.30745,-16.412,-8.31113,-6.15473
2023-02-16 21:06:41:15,-1.42896,2.77723,-9.33887,-16.4003,-8.30307,-6.13446
2023-02-16 21:06:41:24,-1.42808,2.74762,-9.33087,-16.3868,-8.29537,-6.11765
2023-02-16 21:06:41:34,-1.43965,2.72949,-9.30193,-16.3742,-8.28922,-6.0987
2023-02-16 21:06:41:45,-1.41899,2.69195,-9.19142,-16.3609,-8.27959,-6.08445
2023-02-16 21:06:41:55,-1.35811,2.61263,-9.09565,-16.3513,-8.27022,-6.06685
2023-02-16 21:06:41:65,-1.37179,2.60665,-9.07973,-16.3534,-8.26191,-6.04197
2023-02-16 21:06:41:75,-1.42251,2.72726,-9.09466,-16.3739,-8.25739,-6.01824
2023-02-16 21:06:41:84,-1.42872,2.65081,-9.00746,-16.3987,-8.25012,-6.00295
2023-02-16 21:06:41:95,-1.38398,2.75755,-9.23156,-16.4356,-8.24195,-5.99115
2023-02-16 21:06:41:105,-1.3747,2.92216,-9.61359,-16.4726,-8.23717,-5.97482
2023-02-16 21:06:41:115,-1.40364,2.96939,-9.69217,-16.488,-8.24215,-5.96146
2023-02-16 21:06:41:125,-1.39557,2.88478,-9.52034,-16.4842,-8.24158,-5.95398
2023-02-16 21:06:41:135,-1.37118,2.79875,-9.32669,-16.4712,-8.23715,-5.94527
2023-02-16 21:06:41:145,-1.40839,2.74808,-9.19116,-16.458,-8.23282,-5.93582
2023-02-16 21:06:41:155,-1.4263,2.72665,-9.17212,-16.4501,-8.23286,-5.92632
2023-02-16 21:06:41:165,-1.38923,2.71591,-9.19388,-16.4461,-8.22763,-5.91691
2023-02-16 21:06:41:175,-1.37051,2.73599,-9.22241,-16.445,-8.22348,-5.90594
2023-02-16 21:06:41:185,-1.39212,2.75002,-9.26235,-16.448,-8.21771,-5.89406
2023-02-16 21:06:41:195,-1.43058,2.77071,-9.27958,-16.4515,-8.21561,-5.88569
2023-02-16 21:06:41:205,-1.41773,2.79739,-9.29235,-16.4559,-8.21794,-5.87932
2023-02-16 21:06:41:215,-1.40547,2.80323,-9.31596,-16.4536,-8.219,-5.87837
2023-02-16 21:06:41:225,-1.38474,2.8104,-9.30217,-16.4506,-8.2201,-5.87431
2023-02-16 21:06:41:234,-1.36818,2.80308,-9.26482,-16.4456,-8.22146,-5.872
2023-02-16 21:06:41:244,-1.40017,2.79066,-9.26231,-16.4416,-8.22194,-5.87009
2023-02-16 21:06:41:255,-1.42039,2.7919,-9.29709,-16.4361,-8.22301,-5.8712
2023-02-16 21:06:41:265,-1.41635,2.79885,-9.31136,-16.4332,-8.22462,-5.87412
2023-02-16 21:06:41:275,-1.40868,2.78912,-9.29419,-16.4283,-8.225,-5.87486
2023-02-16 21:06:41:285,-1.40818,2.77971,-9.27775,-16.4222,-8.22719,-5.87609
2023-02-16 21:06:41:295,-1.40006,2.78292,-9.29806,-16.4127,-8.22948,-5.87729
2023-02-16 21:06:41:305,-1.38145,2.7757,-9.31104,-16.4049,-8.22726,-5.87872
2023-02-16 21:06:41:315,-1.37294,2.76506,-9.28819,-16.3974,-8.22466,-5.88109
2023-02-16 21:06:41:325,-1.37913,2.74869,-9.28026,-16.3893,-8.22459,-5.88193
2023-02-16 21:06:41:335,-1.39045,2.72974,-9.2617,-16.3825,-8.22242,-5.88089
2023-02-16 21:06:41:344,-1.39319,2.72297,-9.25547,-16.3755,-8.22773,-5.87918
2023-02-16 21:06:41:354,-1.40582,2.72925,-9.25131,-16.3679,-8.22839,-5.87534
2023-02-16 21:06:41:365,-1.40284,2.72927,-9.23885,-16.3607,-8.23116,-5.8785
2023-02-16 21:06:41:375,-1.41779,2.70766,-9.21269,-16.3558,-8.23058,-5.87972
2023-02-16 21:06:41:385,-1.40412,2.69146,-9.2151,-16.3549,-8.22901,-5.88306
2023-02-16 21:06:41:394,-1.42036,2.72031,-9.23538,-16.3554,-8.22864,-5.88792
2023-02-16 21:06:41:405,-1.4395,2.72829,-9.22831,-16.362,-8.23058,-5.89336
2023-02-16 21:06:41:415,-1.40634,2.72986,-9.25561,-16.3718,-8.23123,-5.90183
2023-02-16 21:06:41:425,-1.39538,2.76084,-9.29272,-16.3782,-8.2315,-5.91098
2023-02-16 21:06:41:435,-1.40012,2.76971,-9.31674,-16.3832,-8.23683,-5.9257
2023-02-16 21:06:41:445,-1.38588,2.76206,-9.31182,-16.3899,-8.24069,-5.93823
2023-02-16 21:06:41:454,-1.36186,2.75512,-9.28883,-16.3949,-8.24587,-5.94866
2023-02-16 21:06:41:465,-1.34298,2.76153,-9.27469,-16.4031,-8.2495,-5.95628
2023-02-16 21:06:41:475,-1.33867,2.76068,-9.29172,-16.4119,-8.25139,-5.96427
2023-02-16 21:06:41:484,-1.33306,2.75946,-9.28326,-16.4172,-8.25706,-5.96984
2023-02-16 21:06:41:494,-1.3232,2.775,-9.2862,-16.4275,-8.2621,-5.97104
2023-02-16 21:06:41:504,-1.33161,2.79107,-9.3008,-16.4319,-8.26737,-5.97015
2023-02-16 21:06:41:515,-1.35843,2.79699,-9.32246,-16.4359,-8.26795,-5.96681
2023-02-16 21:06:41:524,-1.38963,2.80408,-9.32656,-16.4385,-8.27009,-5.96034
2023-02-16 21:06:41:534,-1.41131,2.80637,-9.33048,-16.44,-8.27165,-5.95236
2023-02-16 21:06:41:545,-1.40263,2.78071,-9.32119,-16.4376,-8.27179,-5.94681
2023-02-16 21:06:41:555,-1.40796,2.77922,-9.3152,-16.4315,-8.27304,-5.94175
2023-02-16 21:06:41:565,-1.4311,2.76748,-9.28796,-16.4235,-8.27225,-5.9387
2023-02-16 21:06:41:575,-1.42391,2.73704,-9.2443,-16.4192,-8.27189,-5.93731
2023-02-16 21:06:41:585,-1.4056,2.71517,-9.21241,-16.4137,-8.27228,-5.93797
2023-02-16 21:06:41:595,-1.40883,2.71966,-9.24258,-16.411,-8.27109,-5.93857
2023-02-16 21:06:41:605,-1.40969,2.73169,-9.28411,-16.4096,-8.26973,-5.9414
2023-02-16 21:06:41:615,-1.38226,2.73774,-9.32199,-16.4064,-8.26854,-5.94621
2023-02-16 21:06:41:625,-1.37152,2.7444,-9.32198,-16.4076,-8.27206,-5.95263
2023-02-16 21:06:41:635,-1.36863,2.74093,-9.31493,-16.4064,-8.28139,-5.95824
2023-02-16 21:06:41:645,-1.36206,2.73099,-9.29369,-16.4013,-8.29163,-5.96342
2023-02-16 21:06:41:655,-1.36678,2.71587,-9.24812,-16.3996,-8.29689,-5.96759
2023-02-16 21:06:41:665,-1.37081,2.71733,-9.20393,-16.4037,-8.30234,-5.96669
2023-02-16 21:06:41:675,-1.37396,2.71692,-9.19537,-16.4102,-8.30842,-5.9632
2023-02-16 21:06:41:684,-1.37396,2.73908,-9.22081,-16.4215,-8.31024,-5.96005
2023-02-16 21:06:41:694,-1.38757,2.77341,-9.26977,-16.4301,-8.31341,-5.95647
2023-02-16 21:06:41:705,-1.40749,2.794,-9.29272,-16.4405,-8.31393,-5.9492
2023-02-16 21:06:41:714,-1.41479,2.79401,-9.29012,-16.4499,-8.31469,-5.94729
2023-02-16 21:06:41:725,-1.41654,2.8101,-9.26243,-16.4561,-8.31012,-5.9449
2023-02-16 21:06:41:734,-1.42165,2.81577,-9.26452,-16.4616,-8.30967,-5.9429
2023-02-16 21:06:41:745,-1.43298,2.79802,-9.27835,-16.4654,-8.3104,-5.94093
2023-02-16 21:06:41:755,-1.44319,2.79769,-9.31022,-16.466,-8.30628,-5.94411
2023-02-16 21:06:41:765,-1.45269,2.80977,-9.30248,-16.4685,-8.30632,-5.94954
2023-02-16 21:06:41:774,-1.4556,2.8117,-9.29044,-16.4678,-8.30728,-5.95817
2023-02-16 21:06:41:785,-1.43395,2.80456,-9.27277,-16.4676,-8.30439,-5.96421
2023-02-16 21:06:41:795,-1.4264,2.79269,-9.26257,-16.4672,-8.30146,-5.97527
2023-02-16 21:06:41:805,-1.42904,2.79044,-9.27357,-16.4663,-8.30118,-5.98461
2023-02-16 21:06:41:815,-1.44508,2.79282,-9.2877,-16.4682,-8.29731,-5.99469
2023-02-16 21:06:41:825,-1.48043,2.8209,-9.31368,-16.4708,-8.29116,-6.00562
2023-02-16 21:06:41:835,-1.45401,2.83184,-9.33016,-16.4692,-8.28748,-6.02362
2023-02-16 21:06:41:845,-1.43314,2.81535,-9.32949,-16.4621,-8.28444,-6.04737
2023-02-16 21:06:41:855,-1.43492,2.80713,-9.29291,-16.4543,-8.28142,-6.06878
2023-02-16 21:06:41:865,-1.43112,2.78433,-9.26638,-16.4493,-8.28101,-6.0957
2023-02-16 21:06:41:875,-1.39725,2.77402,-9.26319,-16.4438,-8.27534,-6.1253
2023-02-16 21:06:41:885,-1.39712,2.76488,-9.25324,-16.4365,-8.26977,-6.15701
2023-02-16 21:06:41:895,-1.39054,2.75373,-9.26429,-16.4324,-8.2654,-6.18665
2023-02-16 21:06:41:905,-1.35629,2.75735,-9.28528,-16.4224,-8.26137,-6.21971
2023-02-16 21:06:41:915,-1.32897,2.76258,-9.29451,-16.4166,-8.25749,-6.25295
2023-02-16 21:06:41:925,-1.32864,2.75332,-9.29033,-16.4096,-8.25638,-6.28213
2023-02-16 21:06:41:935,-1.32135,2.75597,-9.28045,-16.4024,-8.25391,-6.31135
2023-02-16 21:06:41:944,-1.31979,2.76414,-9.29178,-16.3966,-8.25528,-6.33886
2023-02-16 21:06:41:955,-1.31551,2.76068,-9.2931,-16.3903,-8.25421,-6.36138
2023-02-16 21:06:41:964,-1.29843,2.74338,-9.3027,-16.3836,-8.25314,-6.37918
2023-02-16 21:06:41:974,-1.29409,2.75692,-9.31441,-16.3759,-8.24898,-6.39714
2023-02-16 21:06:41:985,-1.295,2.74819,-9.31273,-16.3679,-8.25208,-6.41261
2023-02-16 21:06:41:995,-1.30028,2.72659,-9.29561,-16.3581,-8.25294,-6.42575
2023-02-16 21:06:42:5,-1.29609,2.7233,-9.29677,-16.3516,-8.25367,-6.43265
2023-02-16 21:06:42:15,-1.2935,2.72308,-9.29461,-16.344,-8.25426,-6.43824
2023-02-16 21:06:42:25,-1.30485,2.71378,-9.29371,-16.3379,-8.25448,-6.43981
2023-02-16 21:06:42:35,-1.32495,2.70556,-9.27763,-16.3321,-8.25693,-6.43911
2023-02-16 21:06:42:45,-1.3224,2.70182,-9.27342,-16.3274,-8.26091,-6.43622
2023-02-16 21:06:42:55,-1.32466,2.69941,-9.26414,-16.3218,-8.26621,-6.4321
2023-02-16 21:06:42:65,-1.36508,2.70119,-9.25877,-16.3237,-8.27378,-6.42704
2023-02-16 21:06:42:75,-1.38602,2.71172,-9.27533,-16.3255,-8.28173,-6.41838
2023-02-16 21:06:42:85,-1.41439,2.71108,-9.27365,-16.3272,-8.2876,-6.41007
2023-02-16 21:06:42:95,-1.4204,2.71821,-9.26404,-16.3281,-8.29717,-6.40475
2023-02-16 21:06:42:105,-1.44462,2.73028,-9.26636,-16.3298,-8.30298,-6.39763
2023-02-16 21:06:42:115,-1.46099,2.72725,-9.26399,-16.3345,-8.30626,-6.39258
2023-02-16 21:06:42:125,-1.4622,2.73346,-9.25824,-16.3397,-8.30836,-6.38869
2023-02-16 21:06:42:135,-1.45699,2.73247,-9.26275,-16.3439,-8.31226,-6.39175
2023-02-16 21:06:42:145,-1.44892,2.73436,-9.26854,-16.3502,-8.31371,-6.39435
2023-02-16 21:06:42:155,-1.44273,2.73492,-9.26844,-16.3547,-8.31635,-6.39655
2023-02-16 21:06:42:164,-1.43789,2.73074,-9.28032,-16.3598,-8.31794,-6.39884
2023-02-16 21:06:42:174,-1.43577,2.75536,-9.2889,-16.3651,-8.32185,-6.40393
2023-02-16 21:06:42:185,-1.41818,2.76624,-9.29376,-16.3698,-8.32478,-6.4091
2023-02-16 21:06:42:195,-1.40695,2.75774,-9.30479,-16.3759,-8.32871,-6.41135
2023-02-16 21:06:42:205,-1.41982,2.76265,-9.31199,-16.3753,-8.33282,-6.41683
2023-02-16 21:06:42:215,-1.42515,2.76787,-9.3204,-16.3743,-8.33474,-6.42218
2023-02-16 21:06:42:225,-1.42698,2.76168,-9.30161,-16.372,-8.33512,-6.42897
2023-02-16 21:06:42:235,-1.42383,2.75485,-9.29454,-16.3699,-8.33218,-6.43515
2023-02-16 21:06:42:244,-1.42866,2.75179,-9.27532,-16.3657,-8.32909,-6.43931
2023-02-16 21:06:42:254,-1.4154,2.74258,-9.28483,-16.361,-8.32356,-6.44588
2023-02-16 21:06:42:265,-1.42151,2.73911,-9.27728,-16.3585,-8.31559,-6.45183
2023-02-16 21:06:42:275,-1.41928,2.73297,-9.27289,-16.3561,-8.30843,-6.4562
2023-02-16 21:06:42:285,-1.38241,2.73278,-9.27977,-16.3538,-8.30138,-6.46354
2023-02-16 21:06:42:295,-1.38176,2.71252,-9.28649,-16.3509,-8.29667,-6.46784
2023-02-16 21:06:42:305,-1.38576,2.70706,-9.27628,-16.3526,-8.29043,-6.47199
2023-02-16 21:06:42:315,-1.38285,2.70305,-9.25665,-16.3549,-8.2825,-6.47492
2023-02-16 21:06:42:325,-1.36918,2.70605,-9.24293,-16.3578,-8.2752,-6.47662
2023-02-16 21:06:42:335,-1.36266,2.71033,-9.25974,-16.3566,-8.27203,-6.48109
2023-02-16 21:06:42:345,-1.35583,2.7249,-9.30378,-16.3604,-8.26723,-6.48337
2023-02-16 21:06:42:355,-1.3376,2.72583,-9.33978,-16.3654,-8.26004,-6.48258
2023-02-16 21:06:42:365,-1.32354,2.73235,-9.34782,-16.371,-8.25662,-6.48309
2023-02-16 21:06:42:374,-1.33907,2.72671,-9.31931,-16.3765,-8.26101,-6.48369
2023-02-16 21:06:42:385,-1.35951,2.74123,-9.29774,-16.3821,-8.2637,-6.4827
2023-02-16 21:06:42:395,-1.36578,2.75244,-9.27712,-16.3859,-8.26928,-6.47956
2023-02-16 21:06:42:405,-1.38285,2.76364,-9.25899,-16.3931,-8.2757,-6.47787
2023-02-16 21:06:42:414,-1.40009,2.78063,-9.2485,-16.4014,-8.28153,-6.47792
2023-02-16 21:06:42:425,-1.4023,2.79179,-9.24504,-16.4115,-8.28599,-6.47576
2023-02-16 21:06:42:435,-1.39064,2.80698,-9.25295,-16.4205,-8.28908,-6.47669
2023-02-16 21:06:42:445,-1.38512,2.81418,-9.28469,-16.4279,-8.29181,-6.47541
2023-02-16 21:06:42:455,-1.38632,2.81023,-9.28751,-16.4307,-8.29276,-6.46964
2023-02-16 21:06:42:465,-1.38844,2.79093,-9.2744,-16.4325,-8.29049,-6.46687
2023-02-16 21:06:42:475,-1.37656,2.79198,-9.26471,-16.4319,-8.28896,-6.46164
2023-02-16 21:06:42:485,-1.38402,2.78169,-9.27246,-16.4326,-8.28777,-6.45638
2023-02-16 21:06:42:495,-1.39241,2.77924,-9.28892,-16.4327,-8.28729,-6.44937
2023-02-16 21:06:42:505,-1.39547,2.78189,-9.30928,-16.4304,-8.28395,-6.44094
2023-02-16 21:06:42:515,-1.41142,2.79661,-9.3216,-16.4314,-8.28187,-6.43597
2023-02-16 21:06:42:525,-1.40684,2.80557,-9.32552,-16.4347,-8.28105,-6.42978
2023-02-16 21:06:42:535,-1.39302,2.79225,-9.31699,-16.4332,-8.28237,-6.42566
2023-02-16 21:06:42:545,-1.40475,2.81945,-9.30223,-16.4319,-8.27999,-6.4228
2023-02-16 21:06:42:554,-1.44146,2.81393,-9.28973,-16.4284,-8.27723,-6.41966
2023-02-16 21:06:42:564,-1.43831,2.81595,-9.3073,-16.4255,-8.26886,-6.42185
2023-02-16 21:06:42:574,-1.40669,2.82065,-9.33476,-16.4203,-8.26121,-6.42484
2023-02-16 21:06:42:585,-1.38498,2.82089,-9.33499,-16.412,-8.2543,-6.42833
2023-02-16 21:06:42:595,-1.38788,2.80493,-9.3154,-16.4031,-8.25042,-6.43202
2023-02-16 21:06:42:605,-1.40151,2.79101,-9.3104,-16.3885,-8.24895,-6.43391
2023-02-16 21:06:42:615,-1.40476,2.7763,-9.2952,-16.3688,-8.24628,-6.43477
2023-02-16 21:06:42:625,-1.40766,2.76815,-9.28117,-16.3493,-8.23983,-6.43852
2023-02-16 21:06:42:635,-1.38535,2.76076,-9.29362,-16.3318,-8.23679,-6.44318
2023-02-16 21:06:42:645,-1.37359,2.75022,-9.31049,-16.3113,-8.23552,-6.44452
2023-02-16 21:06:42:655,-1.35906,2.72544,-9.29169,-16.2878,-8.23103,-6.44603
2023-02-16 21:06:42:665,-1.33886,2.72547,-9.26804,-16.2654,-8.2284,-6.44514
2023-02-16 21:06:42:675,-1.3557,2.71366,-9.27024,-16.2465,-8.22219,-6.44361
2023-02-16 21:06:42:685,-1.36036,2.68963,-9.26853,-16.223,-8.21948,-6.44119
2023-02-16 21:06:42:694,-1.35846,2.68168,-9.26924,-16.2045,-8.21755,-6.43979
2023-02-16 21:06:42:704,-1.36467,2.68763,-9.27756,-16.1862,-8.21763,-6.43602
2023-02-16 21:06:42:714,-1.37091,2.6929,-9.29018,-16.1696,-8.21496,-6.43611
2023-02-16 21:06:42:724,-1.38215,2.6938,-9.29689,-16.1541,-8.21617,-6.43043
2023-02-16 21:06:42:735,-1.37492,2.68274,-9.3081,-16.1372,-8.21533,-6.42802
2023-02-16 21:06:42:745,-1.38117,2.67518,-9.28934,-16.1222,-8.21624,-6.42537
2023-02-16 21:06:42:754,-1.37434,2.64388,-9.27359,-16.11,-8.22032,-6.42211
2023-02-16 21:06:42:765,-1.36874,2.62917,-9.26822,-16.0982,-8.22456,-6.41311
2023-02-16 21:06:42:775,-1.34761,2.6315,-9.26951,-16.09,-8.22879,-6.4031
2023-02-16 21:06:42:785,-1.35212,2.63003,-9.27148,-16.0823,-8.23281,-6.39346
2023-02-16 21:06:42:795,-1.3659,2.61775,-9.25261,-16.0806,-8.23778,-6.38316
2023-02-16 21:06:42:805,-1.3587,2.6287,-9.23691,-16.0803,-8.24368,-6.37071
2023-02-16 21:06:42:814,-1.36293,2.63509,-9.23893,-16.0825,-8.25131,-6.3587
2023-02-16 21:06:42:825,-1.37647,2.64578,-9.25475,-16.085,-8.25866,-6.34706
2023-02-16 21:06:42:835,-1.41448,2.68242,-9.28497,-16.0881,-8.26615,-6.33455
2023-02-16 21:06:42:845,-1.43447,2.69138,-9.30566,-16.0931,-8.27591,-6.32447
2023-02-16 21:06:42:855,-1.43239,2.70113,-9.32107,-16.1019,-8.28338,-6.31667
2023-02-16 21:06:42:865,-1.4406,2.71103,-9.32485,-16.1113,-8.28971,-6.31051
2023-02-16 21:06:42:875,-1.43991,2.71303,-9.3161,-16.118,-8.29565,-6.30507
2023-02-16 21:06:42:885,-1.44196,2.72389,-9.30023,-16.1199,-8.3025,-6.3013
2023-02-16 21:06:42:895,-1.42725,2.72493,-9.31224,-16.1237,-8.30403,-6.30451
2023-02-16 21:06:42:905,-1.40424,2.72929,-9.3099,-16.127,-8.3115,-6.30625
2023-02-16 21:06:42:914,-1.40422,2.72139,-9.31449,-16.1294,-8.31912,-6.30671
2023-02-16 21:06:42:925,-1.40921,2.73551,-9.3029,-16.1336,-8.32678,-6.30625
2023-02-16 21:06:42:934,-1.40252,2.73601,-9.29007,-16.1337,-8.33261,-6.30887
2023-02-16 21:06:42:944,-1.41785,2.74144,-9.30252,-16.1344,-8.33928,-6.3082
2023-02-16 21:06:42:955,-1.42637,2.74604,-9.30845,-16.1337,-8.34704,-6.30845
2023-02-16 21:06:42:965,-1.41414,2.7408,-9.32341,-16.1348,-8.35072,-6.30963
2023-02-16 21:06:42:975,-1.40809,2.72073,-9.32759,-16.1316,-8.35274,-6.31077
2023-02-16 21:06:42:985,-1.41196,2.7058,-9.30881,-16.1237,-8.35429,-6.31209
2023-02-16 21:06:42:995,-1.40199,2.69662,-9.28347,-16.1177,-8.3554,-6.31285
2023-02-16 21:06:43:5,-1.39505,2.6881,-9.28706,-16.1094,-8.35397,-6.30972
2023-02-16 21:06:43:15,-1.39662,2.68515,-9.27364,-16.1053,-8.35297,-6.30777
2023-02-16 21:06:43:25,-1.37634,2.67436,-9.27072,-16.0993,-8.35409,-6.30752
2023-02-16 21:06:43:35,-1.36207,2.67238,-9.27832,-16.0944,-8.35481,-6.30517
2023-02-16 21:06:43:45,-1.3643,2.67312,-9.29721,-16.0901,-8.35749,-6.30291
2023-02-16 21:06:43:55,-1.37097,2.68683,-9.33901,-16.0877,-8.35623,-6.2981
2023-02-16 21:06:43:64,-1.35411,2.70236,-9.3417,-16.0834,-8.35967,-6.29165
2023-02-16 21:06:43:74,-1.32428,2.68778,-9.32172,-16.0809,-8.36587,-6.28612
2023-02-16 21:06:43:84,-1.32459,2.68474,-9.31067,-16.0787,-8.37804,-6.27582
2023-02-16 21:06:43:94,-1.34773,2.68604,-9.28649,-16.0727,-8.39233,-6.27069
2023-02-16 21:06:43:104,-1.37482,2.68646,-9.26122,-16.0721,-8.40778,-6.26173
2023-02-16 21:06:43:115,-1.39692,2.6843,-9.2497,-16.0762,-8.42419,-6.25591
2023-02-16 21:06:43:125,-1.41351,2.69008,-9.23673,-16.0821,-8.43812,-6.24873
2023-02-16 21:06:43:134,-1.43508,2.71828,-9.24809,-16.0877,-8.45338,-6.24053
2023-02-16 21:06:43:145,-1.4635,2.74073,-9.27704,-16.0951,-8.46571,-6.23198
2023-02-16 21:06:43:155,-1.48171,2.75222,-9.3049,-16.1019,-8.47913,-6.23071
2023-02-16 21:06:43:165,-1.48055,2.75855,-9.30503,-16.1043,-8.48872,-6.22706
2023-02-16 21:06:43:175,-1.47775,2.75757,-9.28634,-16.1059,-8.4978,-6.22621
2023-02-16 21:06:43:185,-1.47453,2.75855,-9.28475,-16.1032,-8.50475,-6.22624
2023-02-16 21:06:43:194,-1.45663,2.74335,-9.29136,-16.0991,-8.51284,-6.22772
2023-02-16 21:06:43:204,-1.43446,2.73631,-9.30137,-16.0918,-8.52076,-6.23438
2023-02-16 21:06:43:215,-1.43639,2.73057,-9.31715,-16.0844,-8.53025,-6.23765
2023-02-16 21:06:43:225,-1.45646,2.74053,-9.31406,-16.0788,-8.5381,-6.24064
2023-02-16 21:06:43:235,-1.45159,2.74928,-9.32267,-16.0734,-8.55042,-6.24825
2023-02-16 21:06:43:245,-1.42584,2.75116,-9.33034,-16.0659,-8.56893,-6.25655
2023-02-16 21:06:43:255,-1.42225,2.75701,-9.34079,-16.0544,-8.58625,-6.26884
2023-02-16 21:06:43:264,-1.42604,2.75103,-9.3576,-16.0424,-8.60715,-6.27642
2023-02-16 21:06:43:275,-1.41362,2.75065,-9.36496,-16.0312,-8.62094,-6.28725
2023-02-16 21:06:43:285,-1.37826,2.74453,-9.34063,-16.0149,-8.63828,-6.29376
2023-02-16 21:06:43:295,-1.36084,2.71483,-9.32523,-15.9958,-8.65639,-6.29958
2023-02-16 21:06:43:304,-1.39115,2.71361,-9.31478,-15.9762,-8.6748,-6.2976
2023-02-16 21:06:43:315,-1.43881,2.71031,-9.31353,-15.9513,-8.69639,-6.29948
2023-02-16 21:06:43:325,-1.46961,2.69169,-9.3054,-15.9271,-8.71906,-6.29931
2023-02-16 21:06:43:334,-1.47464,2.6801,-9.30001,-15.9057,-8.74367,-6.3007
2023-02-16 21:06:43:344,-1.46824,2.66167,-9.2879,-15.8779,-8.76714,-6.30232
2023-02-16 21:06:43:355,-1.45975,2.64019,-9.28877,-15.8541,-8.78878,-6.30173
2023-02-16 21:06:43:365,-1.47998,2.63321,-9.27886,-15.8282,-8.81345,-6.30203
2023-02-16 21:06:43:375,-1.49207,2.6139,-9.25462,-15.8046,-8.8373,-6.30118
2023-02-16 21:06:43:385,-1.49957,2.61001,-9.24982,-15.7834,-8.85934,-6.29882
2023-02-16 21:06:43:394,-1.51052,2.61169,-9.24988,-15.7665,-8.88043,-6.29508
2023-02-16 21:06:43:404,-1.52524,2.60546,-9.26649,-15.7481,-8.9016,-6.29315
2023-02-16 21:06:43:415,-1.54362,2.60928,-9.26866,-15.7321,-8.92514,-6.28961
2023-02-16 21:06:43:425,-1.54721,2.61019,-9.27586,-15.7187,-8.94259,-6.28698
2023-02-16 21:06:43:434,-1.55736,2.59822,-9.28884,-15.7097,-8.95712,-6.28061
2023-02-16 21:06:43:444,-1.5672,2.59957,-9.27941,-15.6975,-8.97365,-6.27193
2023-02-16 21:06:43:455,-1.56304,2.5981,-9.28351,-15.6892,-8.98621,-6.26416
2023-02-16 21:06:43:465,-1.58115,2.60768,-9.27728,-15.6811,-9.00033,-6.25946
2023-02-16 21:06:43:475,-1.5965,2.58929,-9.28059,-15.675,-9.01516,-6.25414
2023-02-16 21:06:43:485,-1.58815,2.5988,-9.26272,-15.6703,-9.02535,-6.24977
2023-02-16 21:06:43:494,-1.58507,2.6052,-9.26538,-15.665,-9.03154,-6.24509
2023-02-16 21:06:43:504,-1.59312,2.60809,-9.26506,-15.6624,-9.03888,-6.24085
2023-02-16 21:06:43:515,-1.60031,2.61444,-9.25236,-15.6616,-9.04265,-6.23847
2023-02-16 21:06:43:525,-1.58899,2.61014,-9.26925,-15.6613,-9.04254,-6.23207
2023-02-16 21:06:43:534,-1.595,2.61548,-9.27279,-15.661,-9.04049,-6.22848
2023-02-16 21:06:43:545,-1.60509,2.61875,-9.26402,-15.6619,-9.03672,-6.22539
2023-02-16 21:06:43:555,-1.59508,2.61525,-9.27206,-15.6603,-9.03059,-6.22443
2023-02-16 21:06:43:565,-1.5996,2.61974,-9.28209,-15.6589,-9.02336,-6.22344
2023-02-16 21:06:43:574,-1.59876,2.61816,-9.26781,-15.6609,-9.01728,-6.22591
2023-02-16 21:06:43:584,-1.59347,2.61099,-9.26288,-15.6618,-9.00955,-6.23046
2023-02-16 21:06:43:594,-1.58145,2.61981,-9.27392,-15.6613,-9.00076,-6.23523
2023-02-16 21:06:43:604,-1.57566,2.63005,-9.28637,-15.6617,-8.9903,-6.23913
2023-02-16 21:06:43:615,-1.55704,2.63906,-9.28475,-15.6658,-8.97952,-6.245
2023-02-16 21:06:43:625,-1.54549,2.63935,-9.28861,-15.669,-8.97071,-6.25479
2023-02-16 21:06:43:634,-1.53277,2.6325,-9.31434,-15.6727,-8.95716,-6.26355
2023-02-16 21:06:43:644,-1.51798,2.63596,-9.32434,-15.6719,-8.94189,-6.27191
2023-02-16 21:06:43:655,-1.52579,2.6375,-9.32289,-15.6717,-8.92963,-6.27919
2023-02-16 21:06:43:665,-1.53178,2.64212,-9.32447,-15.6719,-8.91639,-6.28576
2023-02-16 21:06:43:675,-1.51653,2.64437,-9.31595,-15.6693,-8.89715,-6.29148
2023-02-16 21:06:43:685,-1.49943,2.64418,-9.33041,-15.6672,-8.87954,-6.29552
2023-02-16 21:06:43:695,-1.51188,2.64587,-9.34952,-15.6604,-8.85966,-6.30171
2023-02-16 21:06:43:705,-1.50286,2.63684,-9.34536,-15.6575,-8.84089,-6.30353
2023-02-16 21:06:43:715,-1.48387,2.61841,-9.29425,-15.6485,-8.82405,-6.30674
2023-02-16 21:06:43:725,-1.47884,2.61315,-9.27009,-15.6426,-8.80531,-6.31328
2023-02-16 21:06:43:735,-1.46412,2.61565,-9.30053,-15.6398,-8.79309,-6.32045
2023-02-16 21:06:43:744,-1.45475,2.61801,-9.33725,-15.6345,-8.77687,-6.32918
2023-02-16 21:06:43:755,-1.42481,2.62039,-9.35299,-15.6291,-8.76102,-6.33365
2023-02-16 21:06:43:764,-1.39041,2.60747,-9.35636,-15.6206,-8.75215,-6.33841
2023-02-16 21:06:43:774,-1.39,2.58893,-9.33842,-15.6153,-8.74913,-6.33827
2023-02-16 21:06:43:785,-1.39405,2.57027,-9.31499,-15.6102,-8.74423,-6.33664
2023-02-16 21:06:43:795,-1.42406,2.57236,-9.28134,-15.6075,-8.74074,-6.33191
2023-02-16 21:06:43:805,-1.44951,2.57822,-9.2587,-15.6035,-8.73648,-6.32554
2023-02-16 21:06:43:815,-1.46284,2.58808,-9.24782,-15.6103,-8.72913,-6.31317
2023-02-16 21:06:43:825,-1.46214,2.59637,-9.24349,-15.6184,-8.72083,-6.30411
2023-02-16 21:06:43:834,-1.46424,2.61804,-9.26021,-15.6274,-8.71227,-6.29475
2023-02-16 21:06:43:844,-1.49368,2.62972,-9.2727,-15.6337,-8.70377,-6.28739
2023-02-16 21:06:43:854,-1.50306,2.6291,-9.26927,-15.6421,-8.69163,-6.27965
2023-02-16 21:06:43:865,-1.50748,2.62022,-9.28687,-15.6495,-8.68012,-6.27429
2023-02-16 21:06:43:875,-1.52201,2.62605,-9.28984,-15.6573,-8.66702,-6.2697
2023-02-16 21:06:43:885,-1.51328,2.64295,-9.30194,-15.6673,-8.65715,-6.27196
2023-02-16 21:06:43:895,-1.5261,2.65639,-9.31559,-15.6779,-8.64868,-6.27349
2023-02-16 21:06:43:905,-1.53507,2.65237,-9.31556,-15.6857,-8.63619,-6.27937
2023-02-16 21:06:43:915,-1.51598,2.64467,-9.31775,-15.695,-8.62527,-6.28498
2023-02-16 21:06:43:925,-1.49247,2.64727,-9.32506,-15.7035,-8.61308,-6.29446
2023-02-16 21:06:43:935,-1.47986,2.67283,-9.31664,-15.7121,-8.59868,-6.30806
2023-02-16 21:06:43:944,-1.49147,2.68554,-9.32129,-15.7222,-8.58607,-6.31627
2023-02-16 21:06:43:954,-1.47954,2.68774,-9.33725,-15.7278,-8.5707,-6.33086
2023-02-16 21:06:43:965,-1.46468,2.69676,-9.36513,-15.7316,-8.55348,-6.34335
2023-02-16 21:06:43:975,-1.43463,2.70004,-9.37756,-15.7324,-8.53475,-6.35584
2023-02-16 21:06:43:985,-1.40846,2.6809,-9.35622,-15.7271,-8.515,-6.36988
2023-02-16 21:06:43:995,-1.40229,2.64467,-9.32502,-15.7224,-8.50134,-6.38229
2023-02-16 21:06:44:5,-1.39533,2.63335,-9.30604,-15.7185,-8.48138,-6.39503
2023-02-16 21:06:44:15,-1.40803,2.62568,-9.31188,-15.7123,-8.45854,-6.40615
2023-02-16 21:06:44:25,-1.40708,2.63091,-9.31971,-15.7078,-8.44011,-6.41172
2023-02-16 21:06:44:35,-1.40953,2.61424,-9.32958,-15.7041,-8.41781,-6.42073
2023-02-16 21:06:44:44,-1.40568,2.60296,-9.31682,-15.7011,-8.39507,-6.42901
2023-02-16 21:06:44:54,-1.41163,2.60618,-9.29324,-15.6962,-8.37445,-6.43318
2023-02-16 21:06:44:64,-1.40659,2.61125,-9.29137,-15.6928,-8.35532,-6.44091
2023-02-16 21:06:44:75,-1.40433,2.59829,-9.2678,-15.6934,-8.33557,-6.44909
2023-02-16 21:06:44:84,-1.40634,2.59586,-9.26062,-15.697,-8.31792,-6.45601
2023-02-16 21:06:44:94,-1.41325,2.59876,-9.27874,-15.6965,-8.30335,-6.46691
2023-02-16 21:06:44:104,-1.40335,2.61353,-9.28687,-15.6941,-8.28815,-6.4794
2023-02-16 21:06:44:114,-1.38655,2.60498,-9.30575,-15.7003,-8.2754,-6.49043
2023-02-16 21:06:44:124,-1.36664,2.60995,-9.31718,-15.7044,-8.26412,-6.50301
2023-02-16 21:06:44:134,-1.33898,2.63398,-9.33082,-15.7087,-8.25475,-6.51344
2023-02-16 21:06:44:144,-1.33988,2.64153,-9.35033,-15.7166,-8.24611,-6.52602
2023-02-16 21:06:44:154,-1.32666,2.65867,-9.35291,-15.7248,-8.24385,-6.53447
2023-02-16 21:06:44:164,-1.31387,2.67086,-9.36349,-15.732,-8.24205,-6.54322
2023-02-16 21:06:44:174,-1.31528,2.67478,-9.3544,-15.7367,-8.23817,-6.54792
2023-02-16 21:06:44:184,-1.31386,2.67036,-9.34068,-15.7424,-8.23483,-6.54906
2023-02-16 21:06:44:194,-1.33132,2.66067,-9.3391,-15.746,-8.23435,-6.54909
2023-02-16 21:06:44:204,-1.34929,2.65828,-9.32502,-15.7487,-8.23219,-6.54754
2023-02-16 21:06:44:215,-1.36607,2.65,-9.31677,-15.7494,-8.22799,-6.54428
2023-02-16 21:06:44:224,-1.38699,2.64757,-9.30761,-15.7509,-8.22686,-6.53769
2023-02-16 21:06:44:234,-1.40943,2.64715,-9.30958,-15.7525,-8.22225,-6.53383
2023-02-16 21:06:44:244,-1.41829,2.6715,-9.31228,-15.7529,-8.22,-6.52949
2023-02-16 21:06:44:254,-1.43215,2.67542,-9.31199,-15.7544,-8.21733,-6.52845
2023-02-16 21:06:44:264,-1.43461,2.68514,-9.31932,-15.7566,-8.2133,-6.5311
2023-02-16 21:06:44:274,-1.43569,2.69462,-9.32723,-15.7547,-8.21115,-6.53258
2023-02-16 21:06:44:284,-1.41676,2.68097,-9.31153,-15.7522,-8.20844,-6.53697
2023-02-16 21:06:44:294,-1.39172,2.67656,-9.31177,-15.7548,-8.20407,-6.54628
2023-02-16 21:06:44:304,-1.3964,2.68549,-9.32897,-15.7553,-8.20231,-6.55271
2023-02-16 21:06:44:315,-1.40225,2.66156,-9.29179,-15.7521,-8.19754,-6.56119
2023-02-16 21:06:44:325,-1.37948,2.649,-9.27889,-15.7484,-8.19017,-6.56744
2023-02-16 21:06:44:335,-1.37647,2.65105,-9.28397,-15.7479,-8.18353,-6.56988
2023-02-16 21:06:44:345,-1.37612,2.65374,-9.30971,-15.747,-8.17485,-6.57381
2023-02-16 21:06:44:354,-1.38722,2.6638,-9.34519,-15.7497,-8.16526,-6.57739
2023-02-16 21:06:44:364,-1.40174,2.66213,-9.36353,-15.7448,-8.15538,-6.58221
2023-02-16 21:06:44:375,-1.3932,2.649,-9.35065,-15.7404,-8.15011,-6.58643
2023-02-16 21:06:44:385,-1.37521,2.63786,-9.34121,-15.7357,-8.14293,-6.59374
2023-02-16 21:06:44:394,-1.37641,2.61793,-9.34783,-15.7298,-8.13426,-6.60039
2023-02-16 21:06:44:404,-1.36834,2.60661,-9.29819,-15.7253,-8.12657,-6.60632
2023-02-16 21:06:44:415,-1.34803,2.59393,-9.26953,-15.7188,-8.12129,-6.61384
2023-02-16 21:06:44:424,-1.33163,2.58835,-9.31926,-15.7161,-8.11254,-6.62178
2023-02-16 21:06:44:434,-1.31161,2.60681,-9.34846,-15.7151,-8.10561,-6.63022
2023-02-16 21:06:44:445,-1.27117,2.61109,-9.34679,-15.7129,-8.10066,-6.63489
2023-02-16 21:06:44:454,-1.24346,2.61905,-9.34549,-15.713,-8.09732,-6.63283
2023-02-16 21:06:44:464,-1.26352,2.61037,-9.33648,-15.714,-8.10198,-6.62861
2023-02-16 21:06:44:475,-1.29378,2.61527,-9.3124,-15.7181,-8.10817,-6.62409
2023-02-16 21:06:44:485,-1.34342,2.63202,-9.30013,-15.7261,-8.11483,-6.61369
2023-02-16 21:06:44:495,-1.37447,2.64121,-9.28102,-15.738,-8.11731,-6.60248
2023-02-16 21:06:44:504,-1.37893,2.66246,-9.28035,-15.7499,-8.11953,-6.59433
2023-02-16 21:06:44:515,-1.40193,2.67399,-9.29121,-15.7602,-8.12027,-6.58971
2023-02-16 21:06:44:525,-1.41937,2.68811,-9.30018,-15.7732,-8.11881,-6.5815
2023-02-16 21:06:44:535,-1.43809,2.68682,-9.28813,-15.7824,-8.11565,-6.5768
2023-02-16 21:06:44:545,-1.44443,2.6724,-9.27655,-15.7892,-8.10882,-6.57327
2023-02-16 21:06:44:555,-1.45756,2.67947,-9.2947,-15.7937,-8.10197,-6.57097
2023-02-16 21:06:44:564,-1.44108,2.67147,-9.31424,-15.7995,-8.09834,-6.57125
2023-02-16 21:06:44:575,-1.43484,2.67523,-9.30466,-15.8018,-8.09293,-6.57333
2023-02-16 21:06:44:585,-1.42224,2.67949,-9.32599,-15.8045,-8.08605,-6.5807
2023-02-16 21:06:44:594,-1.42715,2.67399,-9.3415,-15.8066,-8.07835,-6.59035
2023-02-16 21:06:44:604,-1.40738,2.68592,-9.34477,-15.8088,-8.07507,-6.59708
2023-02-16 21:06:44:614,-1.3716,2.69101,-9.34159,-15.811,-8.0694,-6.60248
2023-02-16 21:06:44:624,-1.35065,2.67758,-9.34808,-15.8134,-8.06373,-6.6147
2023-02-16 21:06:44:634,-1.35462,2.66457,-9.32939,-15.8149,-8.05787,-6.62763
2023-02-16 21:06:44:644,-1.34303,2.66136,-9.33136,-15.8211,-8.05181,-6.63732
2023-02-16 21:06:44:654,-1.30741,2.6733,-9.34502,-15.8237,-8.04009,-6.64313
2023-02-16 21:06:44:664,-1.27085,2.67028,-9.36397,-15.8203,-8.03081,-6.65103
2023-02-16 21:06:44:674,-1.27526,2.66506,-9.36511,-15.8148,-8.02655,-6.65559
2023-02-16 21:06:44:684,-1.29265,2.66931,-9.34215,-15.8118,-8.01732,-6.65908
2023-02-16 21:06:44:694,-1.31934,2.65842,-9.33954,-15.8076,-8.01179,-6.65766
2023-02-16 21:06:44:704,-1.33971,2.66816,-9.34433,-15.8019,-8.00736,-6.65591
2023-02-16 21:06:44:714,-1.3244,2.66698,-9.34132,-15.7982,-8.00035,-6.65209
2023-02-16 21:06:44:724,-1.31464,2.64684,-9.33337,-15.7937,-7.99275,-6.64698
2023-02-16 21:06:44:734,-1.30878,2.6362,-9.32176,-15.791,-7.98729,-6.64203
2023-02-16 21:06:44:744,-1.30069,2.61488,-9.3112,-15.7827,-7.98113,-6.63398
2023-02-16 21:06:44:754,-1.29858,2.61055,-9.27938,-15.7768,-7.97979,-6.62821
2023-02-16 21:06:44:764,-1.30739,2.6214,-9.26603,-15.772,-7.97934,-6.62119
2023-02-16 21:06:44:774,-1.31822,2.614,-9.27855,-15.7695,-7.98286,-6.61831
2023-02-16 21:06:44:784,-1.33479,2.63149,-9.30743,-15.769,-7.98489,-6.61206
2023-02-16 21:06:44:794,-1.35828,2.64098,-9.33328,-15.7723,-7.98653,-6.60972
2023-02-16 21:06:44:804,-1.35154,2.64596,-9.33241,-15.7719,-7.99047,-6.60733
2023-02-16 21:06:44:814,-1.35496,2.64438,-9.33878,-15.775,-7.99187,-6.60723
2023-02-16 21:06:44:824,-1.36156,2.6442,-9.36184,-15.7727,-7.99853,-6.60412
2023-02-16 21:06:44:834,-1.35818,2.63581,-9.36849,-15.7679,-7.99927,-6.59925
2023-02-16 21:06:44:844,-1.35301,2.61988,-9.34582,-15.7621,-7.99574,-6.59466
2023-02-16 21:06:44:854,-1.34491,2.60793,-9.30469,-15.7559,-7.98854,-6.59107
2023-02-16 21:06:44:864,-1.35691,2.59139,-9.27714,-15.7528,-7.98403,-6.58471
2023-02-16 21:06:44:874,-1.3808,2.58684,-9.29325,-15.751,-7.98133,-6.57675
2023-02-16 21:06:44:884,-1.38137,2.60386,-9.30097,-15.7533,-7.97954,-6.57218
2023-02-16 21:06:44:894,-1.3873,2.60791,-9.2954,-15.7538,-7.97584,-6.56954
2023-02-16 21:06:44:904,-1.38947,2.60937,-9.2923,-15.7557,-7.96882,-6.56664
2023-02-16 21:06:44:914,-1.38415,2.63463,-9.30287,-15.7593,-7.96559,-6.56728
2023-02-16 21:06:44:924,-1.37185,2.64526,-9.31734,-15.763,-7.96141,-6.565
2023-02-16 21:06:44:934,-1.3599,2.65338,-9.32563,-15.7675,-7.95708,-6.56414
2023-02-16 21:06:44:944,-1.33856,2.66074,-9.31785,-15.7745,-7.95089,-6.56637
2023-02-16 21:06:44:954,-1.35456,2.65567,-9.32058,-15.7777,-7.94823,-6.56616
2023-02-16 21:06:44:964,-1.35863,2.65206,-9.34113,-15.785,-7.94246,-6.56616
2023-02-16 21:06:44:974,-1.34732,2.64551,-9.31784,-15.7896,-7.94319,-6.56409
2023-02-16 21:06:44:984,-1.35,2.67241,-9.34237,-15.7976,-7.94298,-6.56615
2023-02-16 21:06:44:994,-1.34792,2.68538,-9.35529,-15.8018,-7.93736,-6.57197
2023-02-16 21:06:45:4,-1.36051,2.67672,-9.32419,-15.802,-7.93272,-6.57431
2023-02-16 21:06:45:14,-1.35791,2.66384,-9.32099,-15.8027,-7.92565,-6.57723
2023-02-16 21:06:45:24,-1.36666,2.68037,-9.34922,-15.8018,-7.92085,-6.57926
2023-02-16 21:06:45:34,-1.35543,2.68882,-9.35693,-15.801,-7.91357,-6.58405
2023-02-16 21:06:45:44,-1.34475,2.67227,-9.35144,-15.7978,-7.9077,-6.58791
2023-02-16 21:06:45:54,-1.34199,2.66746,-9.34073,-15.7896,-7.9025,-6.59038
2023-02-16 21:06:45:64,-1.36021,2.66298,-9.31763,-15.7871,-7.89361,-6.59428
2023-02-16 21:06:45:74,-1.36353,2.64949,-9.29919,-15.7819,-7.88433,-6.59899
2023-02-16 21:06:45:84,-1.36191,2.62708,-9.30591,-15.7761,-7.87196,-6.60383
2023-02-16 21:06:45:94,-1.33717,2.61641,-9.31829,-15.771,-7.85656,-6.60862
2023-02-16 21:06:45:104,-1.32075,2.63269,-9.36975,-15.7716,-7.84189,-6.61215
2023-02-16 21:06:45:114,-1.31266,2.63508,-9.39322,-15.7659,-7.83253,-6.61458
2023-02-16 21:06:45:124,-1.31626,2.60229,-9.36307,-15.7577,-7.82564,-6.61538
2023-02-16 21:06:45:134,-1.30359,2.57637,-9.31503,-15.7445,-7.81533,-6.6216
2023-02-16 21:06:45:144,-1.3068,2.55913,-9.28342,-15.7385,-7.80941,-6.62551
2023-02-16 21:06:45:154,-1.31669,2.55164,-9.25666,-15.7319,-7.8044,-6.63035
2023-02-16 21:06:45:164,-1.32121,2.5571,-9.24438,-15.7343,-7.80111,-6.63594
2023-02-16 21:06:45:174,-1.32886,2.58363,-9.24404,-15.7377,-7.79466,-6.64274
2023-02-16 21:06:45:184,-1.30709,2.61499,-9.26503,-15.7541,-7.79006,-6.64373
2023-02-16 21:06:45:194,-1.29356,2.64162,-9.29501,-15.7694,-7.78072,-6.64445
2023-02-16 21:06:45:204,-1.3014,2.66517,-9.32329,-15.7834,-7.77188,-6.64704
2023-02-16 21:06:45:214,-1.3049,2.6718,-9.34606,-15.7945,-7.76838,-6.65141
