Timestamp,Acceleration_x,Acceleration_y,Acceleration_z,roll,pitch,yaw
2023-02-15 05:24:50:891,-0.700658,1.21141,-9.87834,-6.73401,-3.6064,94.6185
2023-02-15 05:24:50:918,-0.773429,1.16108,-9.81963,-6.68863,-3.61827,94.6146
2023-02-15 05:24:50:928,-1.01685,1.09714,-9.771,-6.43582,-3.69209,94.5262
2023-02-15 05:24:50:968,-1.0884,1.09237,-9.77128,-6.26368,-3.72749,94.4086
2023-02-15 05:24:50:988,-1.03254,1.03743,-9.75682,-6.16316,-3.7339,94.3238
2023-02-15 05:24:50:998,-0.942171,0.971304,-9.71945,-6.04995,-3.71964,94.2234
2023-02-15 05:24:51:8,-0.804072,0.920012,-9.64191,-5.92911,-3.68994,94.1083
2023-02-15 05:24:51:18,-0.607235,0.829165,-9.58255,-5.80605,-3.6432,93.98
2023-02-15 05:24:51:28,-0.41406,0.755521,-9.53745,-5.68478,-3.5783,93.8426
2023-02-15 05:24:51:38,-0.323816,0.698412,-9.45379,-5.57231,-3.50618,93.7068
2023-02-15 05:24:51:48,-0.325984,0.685446,-9.41986,-5.47763,-3.43664,93.5749
2023-02-15 05:24:51:58,-0.23114,0.695091,-9.44265,-5.40402,-3.37021,93.4528
2023-02-15 05:24:51:68,-0.174509,0.701506,-9.43524,-5.35169,-3.31346,93.3277
2023-02-15 05:24:51:78,-0.322089,0.729748,-9.46549,-5.32042,-3.26893,93.2073
2023-02-15 05:24:51:88,-0.550315,0.832015,-9.52838,-5.31092,-3.24084,93.0996
2023-02-15 05:24:51:98,-0.61323,0.898665,-9.5839,-5.31443,-3.22822,92.9878
2023-02-15 05:24:51:108,-0.590762,0.919012,-9.61824,-5.32649,-3.22152,92.8663
2023-02-15 05:24:51:118,-0.592697,0.964081,-9.6677,-5.36518,-3.24443,92.6102
2023-02-15 05:24:51:138,-0.559312,0.97946,-9.69816,-5.38561,-3.2653,92.4689
2023-02-15 05:24:51:148,-0.506612,0.970699,-9.71395,-5.40545,-3.29476,92.3287
2023-02-15 05:24:51:158,-0.371676,0.907988,-9.70345,-5.48698,-3.41946,91.7834
2023-02-15 05:24:51:198,-0.464466,0.977169,-9.71922,-5.53559,-3.48198,91.5831
2023-02-15 05:24:51:218,-0.501473,0.975696,-9.69017,-5.59241,-3.53542,91.437
2023-02-15 05:24:51:238,-0.515237,0.998978,-9.71587,-5.61883,-3.55263,91.384
2023-02-15 05:24:51:248,-0.491529,1.01777,-9.71346,-5.64432,-3.56696,91.3435
2023-02-15 05:24:51:258,-0.45893,1.00837,-9.71789,-5.6677,-3.57365,91.3147
2023-02-15 05:24:51:268,-0.441982,1.00246,-9.71504,-5.69041,-3.57501,91.2969
2023-02-15 05:24:51:278,-0.465103,0.999847,-9.68906,-5.70902,-3.57024,91.2893
2023-02-15 05:24:51:288,-0.55271,1.01309,-9.70371,-5.75067,-3.55483,91.3158
2023-02-15 05:24:51:308,-0.64245,1.08855,-9.77871,-5.81183,-3.48079,91.4657
2023-02-15 05:24:51:348,-0.650605,1.08633,-9.77455,-5.82191,-3.4558,91.5055
2023-02-15 05:24:51:358,-0.625842,1.07311,-9.76484,-5.82312,-3.43429,91.5446
2023-02-15 05:24:51:368,-0.60459,1.05192,-9.75863,-5.82381,-3.40909,91.5788
2023-02-15 05:24:51:378,-0.583159,1.04344,-9.72748,-5.82314,-3.38823,91.6076
2023-02-15 05:24:51:388,-0.547588,1.02702,-9.71689,-5.81806,-3.36913,91.6318
2023-02-15 05:24:51:398,-0.503836,1.02268,-9.71027,-5.81494,-3.35224,91.654
2023-02-15 05:24:51:408,-0.468605,1.00027,-9.72798,-5.81201,-3.34041,91.6762
2023-02-15 05:24:51:418,-0.449777,1.00755,-9.73129,-5.80803,-3.33485,91.6969
2023-02-15 05:24:51:428,-0.474807,1.00171,-9.72816,-5.80398,-3.33606,91.7153
2023-02-15 05:24:51:438,-0.514846,0.998239,-9.7287,-5.79817,-3.34264,91.735
2023-02-15 05:24:51:448,-0.533472,0.988997,-9.69948,-5.78491,-3.35448,91.787
2023-02-15 05:24:51:468,-0.513549,0.976959,-9.70223,-5.77719,-3.35783,91.8122
2023-02-15 05:24:51:478,-0.532454,0.991137,-9.71314,-5.77016,-3.3614,91.8408
2023-02-15 05:24:51:488,-0.528982,0.994056,-9.70889,-5.76116,-3.36394,91.871
2023-02-15 05:24:51:498,-0.514694,0.99049,-9.70423,-5.7549,-3.37227,91.9017
2023-02-15 05:24:51:508,-0.535154,0.987795,-9.71018,-5.7484,-3.37656,91.9337
2023-02-15 05:24:51:518,-0.516176,0.992632,-9.72841,-5.74327,-3.3882,91.9681
2023-02-15 05:24:51:528,-0.516912,0.977201,-9.73263,-5.7347,-3.39682,92.0043
2023-02-15 05:24:51:538,-0.528761,0.964364,-9.69243,-5.7248,-3.41183,92.0397
2023-02-15 05:24:51:548,-0.526364,0.96477,-9.6608,-5.71217,-3.42426,92.0807
2023-02-15 05:24:51:558,-0.512991,0.96025,-9.71749,-5.70292,-3.43432,92.1229
2023-02-15 05:24:51:568,-0.495153,0.960375,-9.76418,-5.69372,-3.44275,92.1681
2023-02-15 05:24:51:578,-0.498374,0.970457,-9.77718,-5.68275,-3.45499,92.2153
2023-02-15 05:24:51:588,-0.473753,0.979096,-9.79128,-5.67418,-3.46952,92.2617
2023-02-15 05:24:51:598,-0.493073,0.978671,-9.77225,-5.66194,-3.48726,92.311
2023-02-15 05:24:51:608,-0.514106,0.968228,-9.73172,-5.64642,-3.50883,92.3673
2023-02-15 05:24:51:618,-0.53302,0.960495,-9.6737,-5.6356,-3.53515,92.4217
2023-02-15 05:24:51:628,-0.5817,0.949106,-9.62031,-5.62299,-3.56331,92.4779
2023-02-15 05:24:51:638,-0.595591,0.95759,-9.60007,-5.61283,-3.5896,92.5368
2023-02-15 05:24:51:648,-0.588619,0.970806,-9.60208,-5.61179,-3.61892,92.5965
2023-02-15 05:24:51:658,-0.616928,0.963118,-9.63113,-5.60966,-3.64376,92.6556
2023-02-15 05:24:51:668,-0.674379,0.962721,-9.66818,-5.61058,-3.6734,92.72
2023-02-15 05:24:51:678,-0.691938,0.981721,-9.69828,-5.60954,-3.70164,92.7799
2023-02-15 05:24:51:688,-0.699366,0.995555,-9.70201,-5.60773,-3.73015,92.8397
2023-02-15 05:24:51:698,-0.69966,1.00051,-9.70455,-5.60362,-3.75299,92.896
2023-02-15 05:24:51:708,-0.722795,0.979391,-9.69762,-5.5985,-3.77485,92.9508
2023-02-15 05:24:51:718,-0.74296,0.971417,-9.70111,-5.59355,-3.79507,93.0054
2023-02-15 05:24:51:728,-0.728639,0.977631,-9.71719,-5.58617,-3.81112,93.0545
2023-02-15 05:24:51:738,-0.733582,0.952254,-9.73284,-5.57808,-3.82339,93.1009
2023-02-15 05:24:51:748,-0.760581,0.958554,-9.72447,-5.57028,-3.83678,93.1508
2023-02-15 05:24:51:758,-0.751769,0.968368,-9.7316,-5.56296,-3.84612,93.1976
2023-02-15 05:24:51:768,-0.736837,0.969742,-9.70052,-5.56212,-3.84957,93.2357
2023-02-15 05:24:51:778,-0.732506,0.960151,-9.64492,-5.56074,-3.85445,93.2686
2023-02-15 05:24:51:788,-0.741664,0.95604,-9.63653,-5.55652,-3.85678,93.2999
2023-02-15 05:24:51:798,-0.77214,0.9687,-9.63538,-5.55881,-3.85832,93.328
2023-02-15 05:24:51:808,-0.762876,0.980729,-9.65607,-5.55944,-3.85398,93.3515
2023-02-15 05:24:51:818,-0.723152,0.977188,-9.67099,-5.56299,-3.84646,93.3706
2023-02-15 05:24:51:828,-0.678986,0.986409,-9.6838,-5.56176,-3.84073,93.3794
2023-02-15 05:24:51:838,-0.69297,0.990676,-9.71192,-5.56328,-3.83768,93.3836
2023-02-15 05:24:51:848,-0.702692,0.972042,-9.71546,-5.56341,-3.84245,93.378
2023-02-15 05:24:51:858,-0.68537,0.980808,-9.70312,-5.56106,-3.85106,93.3667
2023-02-15 05:24:51:868,-0.64848,0.971437,-9.70337,-5.55693,-3.85838,93.3531
2023-02-15 05:24:51:878,-0.603717,0.96174,-9.70606,-5.55764,-3.86763,93.3349
2023-02-15 05:24:51:888,-0.590896,0.95654,-9.68433,-5.55736,-3.88133,93.3132
2023-02-15 05:24:51:898,-0.585282,0.938934,-9.69072,-5.55859,-3.8954,93.291
2023-02-15 05:24:51:908,-0.56482,0.959382,-9.71197,-5.56392,-3.90951,93.271
2023-02-15 05:24:51:918,-0.561836,0.972516,-9.76547,-5.56714,-3.93951,93.2433
2023-02-15 05:24:51:938,-0.579113,0.981733,-9.74496,-5.56661,-3.95586,93.2405
2023-02-15 05:24:51:948,-0.600462,0.969522,-9.71563,-5.56306,-3.97151,93.242
2023-02-15 05:24:51:958,-0.643727,0.96774,-9.69456,-5.55751,-3.98971,93.2455
2023-02-15 05:24:51:968,-0.674839,0.964848,-9.68407,-5.54885,-4.00849,93.2565
2023-02-15 05:24:51:978,-0.691446,0.964544,-9.6908,-5.54404,-4.0233,93.2711
2023-02-15 05:24:51:988,-0.710808,0.96955,-9.71651,-5.53684,-4.04037,93.2878
2023-02-15 05:24:51:998,-0.741182,0.966009,-9.72681,-5.53095,-4.05577,93.3083
2023-02-15 05:24:52:8,-0.770621,0.980438,-9.72536,-5.52115,-4.06849,93.327
2023-02-15 05:24:52:18,-0.782064,0.977102,-9.7309,-5.51174,-4.07876,93.3441
2023-02-15 05:24:52:28,-0.777475,0.957105,-9.7147,-5.50073,-4.08795,93.3597
2023-02-15 05:24:52:38,-0.777257,0.954259,-9.69893,-5.48971,-4.09585,93.3756
2023-02-15 05:24:52:48,-0.765382,0.943429,-9.70047,-5.47785,-4.10419,93.386
2023-02-15 05:24:52:58,-0.748641,0.951275,-9.70255,-5.46574,-4.11193,93.3946
2023-02-15 05:24:52:68,-0.730918,0.94874,-9.68997,-5.45075,-4.12058,93.4021
2023-02-15 05:24:52:78,-0.747248,0.942201,-9.67452,-5.43561,-4.12719,93.4065
2023-02-15 05:24:52:88,-0.761008,0.924771,-9.65708,-5.42175,-4.13214,93.4126
2023-02-15 05:24:52:98,-0.770898,0.925983,-9.6552,-5.41028,-4.13181,93.4212
2023-02-15 05:24:52:109,-0.757476,0.913864,-9.66802,-5.40133,-4.13052,93.4247
2023-02-15 05:24:52:118,-0.758985,0.920413,-9.69214,-5.39267,-4.12873,93.4296
2023-02-15 05:24:52:129,-0.766608,0.929373,-9.69332,-5.38629,-4.1246,93.4337
2023-02-15 05:24:52:138,-0.746043,0.919933,-9.68204,-5.36604,-4.11658,93.4373
2023-02-15 05:24:52:158,-0.728983,0.91369,-9.68609,-5.3559,-4.10983,93.434
2023-02-15 05:24:52:168,-0.712597,0.914879,-9.69974,-5.35102,-4.10473,93.4292
2023-02-15 05:24:52:178,-0.674965,0.919976,-9.68547,-5.34266,-4.09841,93.4187
2023-02-15 05:24:52:188,-0.61765,0.910368,-9.68707,-5.33735,-4.08952,93.4089
2023-02-15 05:24:52:198,-0.557539,0.901638,-9.68967,-5.334,-4.08156,93.3985
2023-02-15 05:24:52:208,-0.570915,0.893382,-9.67765,-5.33018,-4.077,93.3912
2023-02-15 05:24:52:218,-0.584192,0.896519,-9.67581,-5.32755,-4.07728,93.3894
2023-02-15 05:24:52:228,-0.567532,0.897005,-9.69652,-5.32908,-4.0765,93.3894
2023-02-15 05:24:52:238,-0.575712,0.901714,-9.68851,-5.33124,-4.0724,93.3907
2023-02-15 05:24:52:248,-0.589132,0.898896,-9.67919,-5.33507,-4.07277,93.3953
2023-02-15 05:24:52:258,-0.750547,0.983356,-9.72694,-5.37146,-4.11191,93.4663
2023-02-15 05:24:52:298,-0.770994,0.942751,-9.6991,-5.38943,-4.1493,93.524
2023-02-15 05:24:52:328,-0.75385,0.891101,-9.64148,-5.3983,-4.17053,93.5486
2023-02-15 05:24:52:348,-0.720369,0.877743,-9.61774,-5.4018,-4.17965,93.5512
2023-02-15 05:24:52:358,-0.694021,0.857832,-9.5723,-5.41497,-4.19189,93.56
2023-02-15 05:24:52:368,-0.679123,0.869143,-9.5721,-5.43176,-4.20423,93.5672
2023-02-15 05:24:52:378,-0.734374,0.931414,-9.72628,-5.48214,-4.23021,93.6011
2023-02-15 05:24:52:398,-0.746477,0.975692,-9.82628,-5.50888,-4.24027,93.6205
2023-02-15 05:24:52:408,-0.732195,1.00685,-9.91375,-5.52953,-4.24259,93.6394
2023-02-15 05:24:52:418,-0.717429,1.00535,-9.95277,-5.54038,-4.24146,93.6584
2023-02-15 05:24:52:428,-0.71977,0.991157,-9.91137,-5.53881,-4.2428,93.6744
2023-02-15 05:24:52:438,-0.728552,0.952457,-9.83601,-5.52967,-4.24085,93.6892
2023-02-15 05:24:52:448,-0.74181,0.924009,-9.77105,-5.51017,-4.24072,93.699
2023-02-15 05:24:52:458,-0.733917,0.895003,-9.7283,-5.48223,-4.23792,93.7042
2023-02-15 05:24:52:468,-0.679124,0.85965,-9.69988,-5.44817,-4.23167,93.7056
2023-02-15 05:24:52:478,-0.607589,0.813981,-9.67978,-5.40579,-4.21957,93.7032
2023-02-15 05:24:52:488,-0.526121,0.776105,-9.65837,-5.36589,-4.20236,93.7014
2023-02-15 05:24:52:498,-0.458905,0.748119,-9.6621,-5.3271,-4.18081,93.6961
2023-02-15 05:24:52:508,-0.413286,0.74041,-9.65567,-5.2937,-4.1621,93.6913
2023-02-15 05:24:52:518,-0.418039,0.727098,-9.62496,-5.26156,-4.15163,93.6905
2023-02-15 05:24:52:528,-0.425301,0.724583,-9.60839,-5.23968,-4.14658,93.7004
2023-02-15 05:24:52:538,-0.435267,0.737012,-9.61759,-5.226,-4.14853,93.7129
2023-02-15 05:24:52:548,-0.448686,0.748541,-9.63967,-5.22217,-4.15559,93.7297
2023-02-15 05:24:52:558,-0.453505,0.765545,-9.67955,-5.22824,-4.17541,93.7498
2023-02-15 05:24:52:568,-0.522231,0.797417,-9.69076,-5.23825,-4.20493,93.7793
2023-02-15 05:24:52:578,-0.630772,0.833388,-9.68728,-5.25371,-4.24218,93.8151
2023-02-15 05:24:52:588,-0.674546,0.835529,-9.66671,-5.27536,-4.29056,93.8601
2023-02-15 05:24:52:598,-0.67692,0.823976,-9.60569,-5.29786,-4.34485,93.9063
2023-02-15 05:24:52:608,-0.723001,0.834626,-9.56346,-5.32527,-4.40498,93.9658
2023-02-15 05:24:52:618,-0.806753,0.85274,-9.51861,-5.36062,-4.46553,94.0318
2023-02-15 05:24:52:628,-0.861696,0.86989,-9.51617,-5.40536,-4.52074,94.1093
2023-02-15 05:24:52:638,-0.864534,0.908419,-9.5195,-5.45501,-4.56984,94.1938
2023-02-15 05:24:52:648,-0.9119,0.926712,-9.54702,-5.51198,-4.61353,94.2864
2023-02-15 05:24:52:658,-0.9729,0.959133,-9.57998,-5.5711,-4.65406,94.386
2023-02-15 05:24:52:668,-1.07465,1.19794,-9.79437,-6.26685,-4.55342,95.4182
2023-02-15 05:24:52:789,-0.961673,1.18488,-9.8312,-6.31522,-4.46097,95.4276
2023-02-15 05:24:52:809,-0.842383,1.17785,-9.835,-6.32603,-4.42008,95.4051
2023-02-15 05:24:52:819,-0.523392,1.05862,-9.72585,-6.27382,-4.19657,95.1309
2023-02-15 05:24:52:879,-0.489738,1.04455,-9.73303,-6.2535,-4.16062,95.0899
2023-02-15 05:24:52:889,-0.469116,1.04629,-9.71621,-6.2319,-4.12306,95.0528
2023-02-15 05:24:52:899,-0.452272,1.03917,-9.69501,-6.21092,-4.09033,95.0208
2023-02-15 05:24:52:909,-0.431862,1.02546,-9.66496,-6.19267,-4.0576,94.9965
2023-02-15 05:24:52:919,-0.436249,1.01437,-9.65821,-6.17467,-4.02649,94.9726
2023-02-15 05:24:52:929,-0.549251,0.962649,-9.64759,-5.88757,-4.01054,94.7911
2023-02-15 05:24:53:189,-0.723784,1.13229,-9.6908,-6.02532,-4.20473,94.9766
2023-02-15 05:24:53:278,-0.842176,1.18933,-9.70828,-6.12126,-4.36805,95.1512
2023-02-15 05:24:53:338,-1.00917,1.16226,-9.75721,-6.07724,-4.56641,95.2141
2023-02-15 05:24:53:408,-0.796139,0.869522,-9.6031,-5.37544,-4.73354,94.9212
2023-02-15 05:24:53:618,-0.807434,0.872206,-9.62832,-5.34813,-4.74609,94.9214
2023-02-15 05:24:53:628,-0.832963,0.888524,-9.67309,-5.31891,-4.75688,94.9243
2023-02-15 05:24:53:638,-0.839937,0.888698,-9.7024,-5.29453,-4.7682,94.9287
2023-02-15 05:24:53:648,-0.8665,0.881876,-9.70096,-5.27027,-4.77704,94.9328
2023-02-15 05:24:53:658,-0.904257,0.885059,-9.69181,-5.24271,-4.78326,94.9381
2023-02-15 05:24:53:668,-0.910449,0.876587,-9.6887,-5.21134,-4.78572,94.9433
2023-02-15 05:24:53:678,-0.880334,0.848403,-9.68547,-5.18357,-4.7878,94.944
2023-02-15 05:24:53:688,-0.852476,0.837408,-9.66809,-5.15887,-4.78141,94.9454
2023-02-15 05:24:53:698,-0.877576,0.825205,-9.65803,-5.13368,-4.77441,94.9453
2023-02-15 05:24:53:708,-0.875572,0.813905,-9.65783,-5.10797,-4.76425,94.9411
2023-02-15 05:24:53:718,-0.815278,0.806238,-9.67838,-5.08364,-4.7541,94.9339
2023-02-15 05:24:53:728,-0.761842,0.820157,-9.69533,-5.06184,-4.7463,94.9218
2023-02-15 05:24:53:738,-0.793586,0.838964,-9.69736,-5.04548,-4.74247,94.9121
2023-02-15 05:24:53:748,-0.853008,0.860811,-9.71048,-5.03403,-4.74742,94.9017
2023-02-15 05:24:53:758,-0.889544,0.886484,-9.75731,-5.02179,-4.75275,94.8883
2023-02-15 05:24:53:768,-0.917592,0.909221,-9.79064,-5.00573,-4.75396,94.8741
2023-02-15 05:24:53:778,-0.924094,0.918975,-9.83485,-4.98145,-4.75674,94.8567
2023-02-15 05:24:53:788,-0.890294,0.901025,-9.82546,-4.9494,-4.75313,94.8309
2023-02-15 05:24:53:798,-0.841749,0.839892,-9.7725,-4.90981,-4.74715,94.8017
2023-02-15 05:24:53:808,-0.793055,0.814957,-9.73409,-4.86727,-4.7371,94.7682
2023-02-15 05:24:53:818,-0.759326,0.795244,-9.72428,-4.81727,-4.72816,94.7318
2023-02-15 05:24:53:829,-0.747782,0.783196,-9.69626,-4.76955,-4.71856,94.6944
2023-02-15 05:24:53:839,-0.746604,0.772297,-9.67593,-4.71926,-4.71073,94.6532
2023-02-15 05:24:53:849,-0.721893,0.746668,-9.67354,-4.63103,-4.70427,94.5758
2023-02-15 05:24:53:869,-0.702239,0.751126,-9.70923,-4.58626,-4.70383,94.539
2023-02-15 05:24:53:879,-0.715606,0.741016,-9.72073,-4.54257,-4.70102,94.506
2023-02-15 05:24:53:889,-0.724227,0.736858,-9.78043,-4.4983,-4.69705,94.477
2023-02-15 05:24:53:899,-0.765672,0.766307,-9.85732,-4.4485,-4.69418,94.4522
2023-02-15 05:24:53:909,-0.688417,0.610069,-9.6435,-4.20397,-4.66074,94.373
2023-02-15 05:24:53:949,-0.740521,0.577731,-9.58128,-4.13951,-4.66239,94.3586
2023-02-15 05:24:53:959,-0.803186,0.555362,-9.54724,-4.08669,-4.66503,94.3437
2023-02-15 05:24:53:969,-0.841196,0.556672,-9.54214,-4.03838,-4.66907,94.3344
2023-02-15 05:24:53:979,-0.837741,0.551642,-9.58037,-3.99944,-4.6768,94.3209
2023-02-15 05:24:53:989,-0.851844,0.585554,-9.64192,-3.96687,-4.67819,94.3078
2023-02-15 05:24:53:999,-0.854975,0.626033,-9.68348,-3.94262,-4.67633,94.2959
2023-02-15 05:24:54:9,-0.79955,0.619689,-9.68816,-3.92284,-4.67274,94.2827
2023-02-15 05:24:54:19,-0.73557,0.617907,-9.68419,-3.90275,-4.66708,94.2691
2023-02-15 05:24:54:29,-0.700732,0.600836,-9.6753,-3.86457,-4.6469,94.2427
2023-02-15 05:24:54:48,-0.68695,0.599026,-9.66108,-3.85378,-4.63952,94.2344
2023-02-15 05:24:54:58,-0.67125,0.608731,-9.66202,-3.84891,-4.63035,94.233
2023-02-15 05:24:54:68,-0.647811,0.611734,-9.70983,-3.84662,-4.62161,94.2351
2023-02-15 05:24:54:79,-0.668925,0.655077,-9.7336,-3.84641,-4.6174,94.2435
2023-02-15 05:24:54:89,-0.740517,0.682457,-9.74485,-3.84656,-4.61849,94.2536
2023-02-15 05:24:54:99,-0.80578,0.685458,-9.74661,-3.84847,-4.62895,94.2752
2023-02-15 05:24:54:109,-0.866208,0.71122,-9.73946,-3.85236,-4.64079,94.3008
2023-02-15 05:24:54:119,-0.919425,0.732119,-9.72968,-3.85696,-4.64952,94.3268
2023-02-15 05:24:54:129,-0.95877,0.736772,-9.71615,-3.85722,-4.65646,94.3472
2023-02-15 05:24:54:139,-0.964923,0.723184,-9.70051,-3.85473,-4.65631,94.3659
2023-02-15 05:24:54:149,-0.921018,0.695029,-9.71495,-3.84679,-4.65057,94.378
2023-02-15 05:24:54:159,-0.885192,0.691123,-9.73486,-3.8384,-4.64169,94.386
2023-02-15 05:24:54:169,-0.885934,0.666829,-9.71403,-3.82601,-4.63295,94.3885
2023-02-15 05:24:54:179,-0.886062,0.624709,-9.64647,-3.79591,-4.61002,94.3895
2023-02-15 05:24:54:199,-0.86248,0.624933,-9.645,-3.78541,-4.59585,94.3793
2023-02-15 05:24:54:209,-0.813614,0.603799,-9.63379,-3.77753,-4.57527,94.3658
2023-02-15 05:24:54:219,-0.743083,0.587027,-9.67088,-3.77414,-4.54766,94.3502
2023-02-15 05:24:54:229,-0.702353,0.609057,-9.77879,-3.77425,-4.51767,94.3347
2023-02-15 05:24:54:239,-0.722404,0.644663,-9.82869,-3.77009,-4.48966,94.3184
2023-02-15 05:24:54:249,-0.770133,0.636407,-9.76379,-3.76571,-4.46347,94.3004
2023-02-15 05:24:54:259,-0.791558,0.626219,-9.71101,-3.76234,-4.43658,94.2842
2023-02-15 05:24:54:269,-0.833725,0.626115,-9.64929,-3.75678,-4.41179,94.2668
2023-02-15 05:24:54:279,-0.943934,0.625024,-9.58735,-3.75145,-4.38878,94.244
2023-02-15 05:24:54:289,-0.992863,0.63112,-9.55311,-3.74564,-4.36471,94.2171
2023-02-15 05:24:54:299,-0.897924,0.62836,-9.58379,-3.74223,-4.32526,94.1814
2023-02-15 05:24:54:309,-0.587165,0.661792,-9.96352,-3.72691,-4.15353,93.9712
2023-02-15 05:24:54:348,-0.635815,0.658818,-9.9104,-3.71215,-4.12919,93.9099
2023-02-15 05:24:54:358,-0.725181,0.613662,-9.77372,-3.69349,-4.116,93.8469
2023-02-15 05:24:54:369,-0.7868,0.552129,-9.63025,-3.67771,-4.10431,93.7912
2023-02-15 05:24:54:378,-0.822956,0.519601,-9.52186,-3.66485,-4.09122,93.7316
2023-02-15 05:24:54:389,-0.794782,0.507484,-9.48435,-3.66154,-4.06741,93.6769
2023-02-15 05:24:54:399,-0.664968,0.5252,-9.51266,-3.66713,-4.03065,93.6175
2023-02-15 05:24:54:409,-0.491974,0.574199,-9.59237,-3.68721,-3.97948,93.5583
2023-02-15 05:24:54:419,-0.308228,0.608262,-9.67724,-3.70967,-3.92218,93.5037
2023-02-15 05:24:54:429,-0.159544,0.637835,-9.8316,-3.7347,-3.86611,93.458
2023-02-15 05:24:54:439,-0.182157,0.682519,-9.98165,-3.75869,-3.82944,93.4304
2023-02-15 05:24:54:449,-0.404933,0.676964,-9.93036,-3.77209,-3.81655,93.4167
2023-02-15 05:24:54:459,-0.708299,0.619969,-9.72572,-3.77618,-3.81947,93.4155
2023-02-15 05:24:54:469,-0.920684,0.583586,-9.54575,-3.78418,-3.83599,93.4239
2023-02-15 05:24:54:479,-0.990867,0.550795,-9.45973,-3.79877,-3.84546,93.433
2023-02-15 05:24:54:489,-0.893901,0.573301,-9.49972,-3.82525,-3.83778,93.431
2023-02-15 05:24:54:499,-0.721992,0.6313,-9.57696,-3.86458,-3.81715,93.4173
2023-02-15 05:24:54:509,-0.626333,0.679961,-9.6958,-3.9159,-3.78983,93.4008
2023-02-15 05:24:54:519,-0.594327,0.779627,-9.84133,-3.97129,-3.76004,93.3871
2023-02-15 05:24:54:529,-0.56581,0.825813,-9.95021,-4.05917,-3.68886,93.3755
2023-02-15 05:24:54:549,-0.608304,0.825939,-9.93161,-4.09224,-3.65811,93.3762
2023-02-15 05:24:54:559,-0.702885,0.7815,-9.82685,-4.11369,-3.6361,93.3754
2023-02-15 05:24:54:569,-0.759447,0.741262,-9.68776,-4.12939,-3.61966,93.3721
2023-02-15 05:24:54:579,-0.74412,0.714737,-9.59438,-4.14778,-3.6074,93.3601
2023-02-15 05:24:54:589,-0.747829,0.692729,-9.51608,-4.17267,-3.59745,93.3356
2023-02-15 05:24:54:599,-0.746916,0.711091,-9.48526,-4.20658,-3.59103,93.3022
2023-02-15 05:24:54:609,-0.713281,0.727162,-9.51313,-4.25257,-3.58448,93.2552
2023-02-15 05:24:54:619,-0.626017,0.754675,-9.58908,-4.30499,-3.57228,93.1985
2023-02-15 05:24:54:629,-0.496118,0.796161,-9.67439,-4.36315,-3.55881,93.1341
2023-02-15 05:24:54:639,-0.362719,0.823665,-9.75294,-4.42232,-3.53903,93.065
2023-02-15 05:24:54:649,-0.282132,0.839651,-9.81619,-4.47337,-3.51921,92.9982
2023-02-15 05:24:54:659,-0.274459,0.829897,-9.86427,-4.51861,-3.50804,92.936
2023-02-15 05:24:54:669,-0.290243,0.827121,-9.87002,-4.55383,-3.50631,92.883
2023-02-15 05:24:54:679,-0.301147,0.805722,-9.82775,-4.5843,-3.51903,92.8391
2023-02-15 05:24:54:689,-0.3337,0.764374,-9.75083,-4.61035,-3.5354,92.8061
2023-02-15 05:24:54:699,-0.402167,0.748688,-9.70159,-4.64174,-3.55743,92.7841
2023-02-15 05:24:54:709,-0.437821,0.770518,-9.68672,-4.67474,-3.58139,92.7704
2023-02-15 05:24:54:719,-0.441834,0.787783,-9.68206,-4.70962,-3.60439,92.7688
2023-02-15 05:24:54:729,-0.440094,0.810338,-9.6994,-4.75004,-3.62466,92.7763
2023-02-15 05:24:54:739,-0.456273,0.82217,-9.72347,-4.79103,-3.64421,92.7952
2023-02-15 05:24:54:749,-0.506251,0.821628,-9.72871,-4.82424,-3.66845,92.823
2023-02-15 05:24:54:759,-0.605754,0.825363,-9.72712,-4.8547,-3.70302,92.8588
2023-02-15 05:24:54:769,-0.764209,0.843199,-9.70292,-4.88618,-3.74194,92.8978
2023-02-15 05:24:54:779,-0.898066,0.852248,-9.66594,-4.9178,-3.78739,92.9424
2023-02-15 05:24:54:789,-0.987802,0.848446,-9.62287,-4.95469,-3.82882,92.9839
2023-02-15 05:24:54:799,-1.02846,0.85276,-9.59236,-4.99843,-3.86707,93.0187
2023-02-15 05:24:54:809,-1.03523,0.864139,-9.5615,-5.04376,-3.89242,93.0417
2023-02-15 05:24:54:819,-0.972622,0.882177,-9.5857,-5.0966,-3.90302,93.054
2023-02-15 05:24:54:829,-0.855739,0.924577,-9.64572,-5.15753,-3.90481,93.0558
2023-02-15 05:24:54:838,-0.772534,0.966432,-9.68073,-5.21558,-3.89631,93.047
2023-02-15 05:24:54:849,-0.713138,0.992212,-9.7193,-5.27227,-3.88041,93.0318
2023-02-15 05:24:54:859,-0.628556,1.03212,-9.78814,-5.32734,-3.86209,93.0121
2023-02-15 05:24:54:869,-0.55911,1.05604,-9.83947,-5.3756,-3.8391,92.9899
2023-02-15 05:24:54:879,-0.498399,1.04012,-9.86526,-5.41621,-3.81651,92.9656
2023-02-15 05:24:54:889,-0.45331,1.02171,-9.86309,-5.44848,-3.79512,92.9489
2023-02-15 05:24:54:899,-0.462542,1.0214,-9.86146,-5.47694,-3.78086,92.9307
2023-02-15 05:24:54:909,-0.518148,1.01643,-9.68279,-5.53814,-3.74359,92.9109
2023-02-15 05:24:54:949,-0.526013,1.01556,-9.67005,-5.5493,-3.73867,92.9099
2023-02-15 05:24:54:959,-0.539144,1.0307,-9.68191,-5.55951,-3.7355,92.9108
2023-02-15 05:24:54:969,-0.548454,1.03958,-9.68308,-5.56918,-3.73524,92.9161
2023-02-15 05:24:54:979,-0.55104,1.04753,-9.73325,-5.57744,-3.73373,92.9231
2023-02-15 05:24:54:989,-0.571712,1.04249,-9.78161,-5.58478,-3.73556,92.9324
2023-02-15 05:24:54:999,-0.614773,1.03929,-9.80972,-5.58872,-3.74,92.9449
2023-02-15 05:24:55:9,-0.621907,1.03446,-9.82276,-5.58219,-3.74528,92.9611
2023-02-15 05:24:55:19,-0.648319,1.02643,-9.81206,-5.57448,-3.74638,92.9721
2023-02-15 05:24:55:29,-0.661021,0.993555,-9.72898,-5.56318,-3.75103,92.9863
2023-02-15 05:24:55:39,-0.651626,0.98992,-9.7233,-5.52622,-3.73956,93.0097
2023-02-15 05:24:55:59,-0.652655,0.972858,-9.66997,-5.50934,-3.73225,93.0162
2023-02-15 05:24:55:69,-0.645524,0.97131,-9.64219,-5.49386,-3.72542,93.0218
2023-02-15 05:24:55:79,-0.619961,0.969054,-9.64513,-5.48434,-3.72092,93.0261
2023-02-15 05:24:55:89,-0.57116,0.965015,-9.65146,-5.47296,-3.71552,93.0233
2023-02-15 05:24:55:99,-0.539085,0.970898,-9.68096,-5.46232,-3.71029,93.021
2023-02-15 05:24:55:109,-0.535371,0.977923,-9.70571,-5.45353,-3.70731,93.0172
2023-02-15 05:24:55:119,-0.52409,0.975762,-9.70508,-5.44397,-3.70502,93.0169
2023-02-15 05:24:55:129,-0.566541,0.947306,-9.66132,-5.41814,-3.72683,93.043
2023-02-15 05:24:55:169,-0.592657,0.95891,-9.71427,-5.41792,-3.71753,93.073
2023-02-15 05:24:55:179,-0.587505,0.95043,-9.75412,-5.41716,-3.70212,93.1086
2023-02-15 05:24:55:189,-0.601893,1.00299,-9.85017,-5.41754,-3.67809,93.1911
2023-02-15 05:24:55:209,-0.626992,0.936,-9.67838,-5.36707,-3.61974,93.3943
2023-02-15 05:24:55:249,-0.679347,0.942622,-9.63916,-5.35035,-3.60717,93.4897
2023-02-15 05:24:55:269,-0.665948,0.949593,-9.68121,-5.33661,-3.60288,93.5644
2023-02-15 05:24:55:289,-0.696387,0.974774,-9.70942,-5.3346,-3.6041,93.5898
2023-02-15 05:24:55:299,-0.683621,0.944255,-9.75915,-5.32107,-3.61165,93.6124
2023-02-15 05:24:55:319,-0.654919,0.946928,-9.73601,-5.31096,-3.62382,93.6121
2023-02-15 05:24:55:329,-0.546606,0.910504,-9.69371,-5.26623,-3.67068,93.5721
2023-02-15 05:24:55:359,-0.614363,0.861814,-9.63099,-5.19892,-3.73614,93.5137
2023-02-15 05:24:55:399,-0.637963,0.873312,-9.64687,-5.19078,-3.75451,93.5062
2023-02-15 05:24:55:409,-0.69809,0.88942,-9.70581,-5.18163,-3.78081,93.5019
2023-02-15 05:24:55:429,-0.6994,0.883744,-9.71445,-5.17096,-3.79386,93.4988
2023-02-15 05:24:55:449,-0.710773,0.845099,-9.64151,-5.14932,-3.81472,93.4696
2023-02-15 05:24:55:479,-0.591076,0.866624,-9.67484,-5.1504,-3.82305,93.4188
2023-02-15 05:24:55:509,-0.597511,0.892474,-9.75274,-5.15651,-3.83017,93.3991
2023-02-15 05:24:55:519,-0.646962,0.914391,-9.78642,-5.16334,-3.83519,93.3887
2023-02-15 05:24:55:529,-0.687635,0.912615,-9.79628,-5.16506,-3.83961,93.3805
2023-02-15 05:24:55:539,-0.66799,0.862729,-9.67115,-5.14545,-3.8262,93.3425
2023-02-15 05:24:55:579,-0.505585,0.855702,-9.71802,-5.10877,-3.77852,93.3046
2023-02-15 05:24:55:609,-0.446051,0.850178,-9.73102,-5.09688,-3.76654,93.2986
2023-02-15 05:24:55:619,-0.452013,0.850225,-9.77681,-5.08206,-3.76317,93.2984
2023-02-15 05:24:55:629,-0.551743,0.870823,-9.78148,-5.0664,-3.76802,93.3085
2023-02-15 05:24:55:639,-0.677973,0.884274,-9.80733,-5.02867,-3.77972,93.3389
2023-02-15 05:24:55:659,-0.70301,0.840265,-9.67165,-4.97785,-3.7749,93.3713
2023-02-15 05:24:55:679,-0.686742,0.827951,-9.65772,-4.95518,-3.77415,93.3864
2023-02-15 05:24:55:689,-0.675442,0.825409,-9.66513,-4.93451,-3.77385,93.4004
2023-02-15 05:24:55:699,-0.647235,0.830642,-9.67519,-4.91631,-3.77552,93.4067
2023-02-15 05:24:55:709,-0.601833,0.844001,-9.7021,-4.89966,-3.77612,93.4126
2023-02-15 05:24:55:719,-0.595955,0.863998,-9.73952,-4.88811,-3.77742,93.422
2023-02-15 05:24:55:729,-0.604422,0.885655,-9.76786,-4.87648,-3.78245,93.4296
2023-02-15 05:24:55:739,-0.641579,0.886378,-9.73428,-4.86274,-3.78521,93.4366
2023-02-15 05:24:55:749,-0.692349,0.842827,-9.62056,-4.83321,-3.77876,93.457
2023-02-15 05:24:55:769,-0.709708,0.834457,-9.59266,-4.81586,-3.76732,93.4658
2023-02-15 05:24:55:779,-0.704146,0.82743,-9.6512,-4.80508,-3.7559,93.4692
2023-02-15 05:24:55:789,-0.713225,0.846692,-9.68919,-4.79446,-3.74512,93.4715
2023-02-15 05:24:55:799,-0.696074,0.817874,-9.62275,-4.78386,-3.73317,93.467
2023-02-15 05:24:55:809,-0.62307,0.815774,-9.64931,-4.77495,-3.71692,93.4598
2023-02-15 05:24:55:819,-0.587935,0.828984,-9.71678,-4.76767,-3.6961,93.4522
2023-02-15 05:24:55:829,-0.606192,0.846296,-9.75733,-4.76329,-3.68011,93.4452
2023-02-15 05:24:55:839,-0.58947,0.827489,-9.78468,-4.75901,-3.66606,93.4357
2023-02-15 05:24:55:849,-0.560387,0.834165,-9.78324,-4.75579,-3.65259,93.4245
2023-02-15 05:24:55:859,-0.547146,0.824073,-9.74185,-4.7487,-3.63851,93.4118
2023-02-15 05:24:55:869,-0.5704,0.813009,-9.71948,-4.74285,-3.62681,93.4003
2023-02-15 05:24:55:879,-0.620585,0.794922,-9.70223,-4.73775,-3.61759,93.3871
2023-02-15 05:24:55:889,-0.635205,0.79633,-9.66524,-4.73451,-3.61219,93.3738
2023-02-15 05:24:55:899,-0.618087,0.778791,-9.63749,-4.7319,-3.60284,93.358
2023-02-15 05:24:55:909,-0.573421,0.784242,-9.65078,-4.73419,-3.59736,93.3369
2023-02-15 05:24:55:919,-0.567678,0.805802,-9.67188,-4.7372,-3.59485,93.3143
2023-02-15 05:24:55:929,-0.553688,0.817807,-9.69587,-4.74616,-3.59814,93.2903
2023-02-15 05:24:55:939,-0.524536,0.815666,-9.73625,-4.75986,-3.6014,93.2658
2023-02-15 05:24:55:949,-0.51067,0.826102,-9.75544,-4.77204,-3.60413,93.2443
2023-02-15 05:24:55:959,-0.512833,0.831345,-9.77216,-4.78517,-3.60974,93.2248
2023-02-15 05:24:55:969,-0.526586,0.840223,-9.75332,-4.79223,-3.60875,93.2109
2023-02-15 05:24:55:979,-0.670276,0.770405,-9.66681,-4.6578,-3.97735,93.5885
2023-02-15 05:24:56:279,-0.609235,0.797266,-9.73203,-4.67727,-3.90986,93.6063
2023-02-15 05:24:56:369,-0.564878,0.807168,-9.75032,-4.67997,-3.89023,93.6046
2023-02-15 05:24:56:379,-0.525123,0.796628,-9.767,-4.68132,-3.86744,93.608
2023-02-15 05:24:56:389,-0.483616,0.795279,-9.77862,-4.67946,-3.84213,93.6166
2023-02-15 05:24:56:399,-0.476933,0.802953,-9.79253,-4.67648,-3.82084,93.6263
2023-02-15 05:24:56:409,-0.477598,0.782855,-9.75761,-4.66158,-3.79182,93.6591
2023-02-15 05:24:56:429,-0.535924,0.7654,-9.72023,-4.65383,-3.78659,93.6757
2023-02-15 05:24:56:439,-0.597138,0.764093,-9.66837,-4.64606,-3.78688,93.6962
2023-02-15 05:24:56:449,-0.658759,0.756471,-9.67613,-4.63959,-3.80277,93.7332
2023-02-15 05:24:56:469,-0.648758,0.799328,-9.70128,-4.65388,-3.8521,93.7529
2023-02-15 05:24:56:499,-0.716339,0.776072,-9.62629,-4.67907,-3.92246,93.7531
2023-02-15 05:24:56:529,-0.747992,0.778927,-9.60763,-4.71093,-3.96066,93.7443
2023-02-15 05:24:56:549,-0.716408,0.82752,-9.70129,-4.78382,-3.97686,93.7333
2023-02-15 05:24:56:579,-0.705802,0.845822,-9.71999,-4.81263,-3.97613,93.7283
2023-02-15 05:24:56:589,-0.667307,0.891864,-9.73954,-4.87215,-3.97378,93.7111
2023-02-15 05:24:56:609,-0.649229,0.917993,-9.74164,-4.90558,-3.9701,93.7003
2023-02-15 05:24:56:619,-0.654356,0.925203,-9.72134,-4.93645,-3.96781,93.688
2023-02-15 05:24:56:629,-0.676049,0.920455,-9.71208,-4.96476,-3.96242,93.6732
2023-02-15 05:24:56:639,-0.668322,0.966926,-9.72668,-5.02037,-3.95406,93.6379
2023-02-15 05:24:56:659,-0.621195,0.96404,-9.73924,-5.04175,-3.94652,93.6167
2023-02-15 05:24:56:669,-0.545751,0.947534,-9.74222,-5.05504,-3.93531,93.5929
2023-02-15 05:24:56:679,-0.532112,0.928308,-9.752,-5.08802,-3.9335,93.5263
2023-02-15 05:24:56:709,-0.574714,0.934994,-9.76579,-5.09742,-3.93761,93.5115
2023-02-15 05:24:56:719,-0.67864,0.961299,-9.78903,-5.11571,-3.952,93.4814
2023-02-15 05:24:56:749,-0.692354,0.947313,-9.76235,-5.11435,-3.95471,93.4774
2023-02-15 05:24:56:759,-0.712637,0.915692,-9.69293,-5.09132,-3.95648,93.4703
2023-02-15 05:24:56:789,-0.69676,0.891619,-9.68705,-5.082,-3.95636,93.4656
2023-02-15 05:24:56:799,-0.671662,0.872994,-9.69143,-5.07249,-3.95392,93.4628
2023-02-15 05:24:56:809,-0.675238,0.872873,-9.69594,-5.06006,-3.95712,93.4573
2023-02-15 05:24:56:819,-0.679292,0.866149,-9.69538,-5.04884,-3.9601,93.4544
2023-02-15 05:24:56:829,-0.672472,0.85137,-9.6776,-5.03351,-3.96051,93.4527
2023-02-15 05:24:56:839,-0.660803,0.849538,-9.68802,-5.02068,-3.95678,93.4495
2023-02-15 05:24:56:849,-0.633865,0.840008,-9.7191,-5.00808,-3.95477,93.4472
2023-02-15 05:24:56:859,-0.637384,0.834121,-9.74386,-4.99597,-3.95283,93.4509
2023-02-15 05:24:56:869,-0.63384,0.831149,-9.73488,-4.9854,-3.9521,93.4541
2023-02-15 05:24:56:879,-0.63851,0.832453,-9.70091,-4.97476,-3.95024,93.4589
2023-02-15 05:24:56:889,-0.645167,0.829085,-9.69011,-4.9661,-3.95063,93.4669
2023-02-15 05:24:56:899,-0.667898,0.833132,-9.69404,-4.96113,-3.95165,93.4799
2023-02-15 05:24:56:909,-0.736216,0.825235,-9.69494,-4.93194,-3.95096,93.5201
2023-02-15 05:24:56:939,-0.7407,0.822673,-9.69431,-4.92538,-3.94733,93.5268
2023-02-15 05:24:56:949,-0.743566,0.827383,-9.68651,-4.91633,-3.94449,93.5338
2023-02-15 05:24:56:959,-0.742123,0.83182,-9.68257,-4.91213,-3.94197,93.5389
2023-02-15 05:24:56:969,-0.739202,0.824091,-9.69692,-4.90998,-3.9417,93.542
2023-02-15 05:24:56:979,-0.724829,0.813995,-9.70822,-4.90875,-3.93847,93.5438
2023-02-15 05:24:56:989,-0.718022,0.814618,-9.67908,-4.9047,-3.93544,93.5448
2023-02-15 05:24:56:999,-0.721754,0.816601,-9.68253,-4.9049,-3.93333,93.5413
2023-02-15 05:24:57:9,-0.723485,0.818161,-9.68723,-4.90675,-3.92849,93.538
2023-02-15 05:24:57:19,-0.696646,0.816697,-9.68125,-4.91063,-3.92562,93.5326
2023-02-15 05:24:57:29,-0.661067,0.82829,-9.68818,-4.91427,-3.91228,93.5266
2023-02-15 05:24:57:39,-0.623779,0.831413,-9.70067,-4.92705,-3.88831,93.5111
2023-02-15 05:24:57:59,-0.614083,0.83574,-9.69089,-4.93179,-3.8794,93.5022
2023-02-15 05:24:57:69,-0.610409,0.839442,-9.65833,-4.94118,-3.8745,93.4937
2023-02-15 05:24:57:79,-0.614774,0.835871,-9.66419,-4.95381,-3.86623,93.4847
2023-02-15 05:24:57:89,-0.616194,0.84903,-9.6937,-4.96436,-3.85539,93.4772
2023-02-15 05:24:57:99,-0.613592,0.865986,-9.70866,-4.98092,-3.84417,93.4717
2023-02-15 05:24:57:109,-0.602054,0.871753,-9.72034,-4.99376,-3.836,93.4651
2023-02-15 05:24:57:119,-0.594929,0.889794,-9.72042,-5.00667,-3.82531,93.4564
2023-02-15 05:24:57:129,-0.599723,0.896607,-9.71026,-5.01989,-3.81867,93.4475
2023-02-15 05:24:57:139,-0.596871,0.901798,-9.72305,-5.03282,-3.81467,93.4419
2023-02-15 05:24:57:149,-0.591041,0.912329,-9.71985,-5.05661,-3.80458,93.4342
2023-02-15 05:24:57:179,-0.607434,0.926052,-9.72786,-5.06281,-3.80545,93.4329
2023-02-15 05:24:57:189,-0.63065,0.91299,-9.75718,-5.07061,-3.80754,93.4335
2023-02-15 05:24:57:199,-0.625716,0.914384,-9.76315,-5.07614,-3.80735,93.4362
2023-02-15 05:24:57:209,-0.627283,0.913943,-9.76898,-5.07954,-3.81023,93.4381
2023-02-15 05:24:57:219,-0.659286,0.916857,-9.74269,-5.08429,-3.81611,93.4388
2023-02-15 05:24:57:230,-0.677129,0.935176,-9.72604,-5.08863,-3.82005,93.4375
2023-02-15 05:24:57:239,-0.677721,0.936359,-9.72856,-5.09031,-3.82854,93.438
2023-02-15 05:24:57:249,-0.656306,0.930668,-9.70886,-5.08831,-3.83137,93.4358
2023-02-15 05:24:57:259,-0.653274,0.939319,-9.69417,-5.08831,-3.83306,93.4356
2023-02-15 05:24:57:269,-0.654538,0.939106,-9.68033,-5.08248,-3.8322,93.4359
2023-02-15 05:24:57:279,-0.655831,0.929178,-9.67872,-5.07993,-3.83915,93.4355
2023-02-15 05:24:57:289,-0.682961,0.928488,-9.68258,-5.07433,-3.84731,93.4364
2023-02-15 05:24:57:299,-0.697913,0.905095,-9.69017,-5.06999,-3.85354,93.4378
2023-02-15 05:24:57:309,-0.700258,0.897817,-9.70894,-5.06136,-3.85826,93.4364
2023-02-15 05:24:57:319,-0.685576,0.888906,-9.71043,-5.05307,-3.86005,93.4338
2023-02-15 05:24:57:330,-0.695101,0.884998,-9.71835,-5.0465,-3.8632,93.4319
2023-02-15 05:24:57:339,-0.705535,0.880975,-9.71919,-5.04154,-3.8611,93.4307
2023-02-15 05:24:57:350,-0.710761,0.880982,-9.72887,-5.03697,-3.85855,93.4324
2023-02-15 05:24:57:359,-0.694171,0.893835,-9.73698,-5.02965,-3.84866,93.4303
2023-02-15 05:24:57:369,-0.690061,0.894075,-9.73662,-5.02412,-3.84237,93.4311
2023-02-15 05:24:57:379,-0.674534,0.906598,-9.7254,-5.01868,-3.83323,93.4276
2023-02-15 05:24:57:389,-0.656395,0.893662,-9.71903,-5.01241,-3.82542,93.4242
2023-02-15 05:24:57:399,-0.635386,0.876121,-9.6876,-5.00613,-3.81524,93.4182
2023-02-15 05:24:57:409,-0.636485,0.862612,-9.65108,-4.99918,-3.80525,93.4092
2023-02-15 05:24:57:419,-0.661025,0.870245,-9.66855,-4.99531,-3.79584,93.4044
2023-02-15 05:24:57:429,-0.683441,0.864369,-9.67015,-4.98911,-3.7912,93.3972
2023-02-15 05:24:57:439,-0.646244,0.83441,-9.67948,-4.98259,-3.78316,93.3879
2023-02-15 05:24:57:449,-0.576928,0.835871,-9.70213,-4.97864,-3.77568,93.3767
2023-02-15 05:24:57:459,-0.553677,0.839106,-9.72007,-4.97331,-3.76745,93.366
2023-02-15 05:24:57:469,-0.583804,0.836537,-9.73947,-4.96813,-3.76405,93.3574
2023-02-15 05:24:57:479,-0.585044,0.847158,-9.73513,-4.96299,-3.75776,93.3485
2023-02-15 05:24:57:489,-0.566595,0.841943,-9.75696,-4.96471,-3.75115,93.3422
2023-02-15 05:24:57:499,-0.578935,0.866502,-9.76345,-4.96469,-3.74432,93.334
2023-02-15 05:24:57:509,-0.596979,0.883889,-9.77366,-4.9603,-3.74219,93.3297
2023-02-15 05:24:57:519,-0.597835,0.877396,-9.75325,-4.95273,-3.74032,93.3262
2023-02-15 05:24:57:529,-0.589247,0.863754,-9.72348,-4.94685,-3.74021,93.3239
2023-02-15 05:24:57:539,-0.583857,0.850458,-9.69125,-4.94041,-3.73895,93.3196
2023-02-15 05:24:57:549,-0.57502,0.831019,-9.67615,-4.92838,-3.73942,93.3151
2023-02-15 05:24:57:559,-0.581519,0.829996,-9.66349,-4.92069,-3.74412,93.3093
2023-02-15 05:24:57:569,-0.593201,0.822226,-9.66172,-4.91192,-3.75037,93.3052
2023-02-15 05:24:57:579,-0.615337,0.824285,-9.67358,-4.90721,-3.76189,93.3044
2023-02-15 05:24:57:589,-0.630316,0.825541,-9.69729,-4.90089,-3.77291,93.3043
2023-02-15 05:24:57:599,-0.635166,0.839821,-9.72191,-4.90187,-3.78074,93.3077
2023-02-15 05:24:57:609,-0.645661,0.838962,-9.73878,-4.90238,-3.78814,93.3153
2023-02-15 05:24:57:619,-0.664312,0.837664,-9.75002,-4.90441,-3.79599,93.3276
2023-02-15 05:24:57:629,-0.680996,0.841352,-9.7291,-4.90186,-3.80065,93.3374
2023-02-15 05:24:57:639,-0.689497,0.813726,-9.6831,-4.89799,-3.80369,93.3476
2023-02-15 05:24:57:649,-0.676336,0.821347,-9.70308,-4.89686,-3.80741,93.3567
2023-02-15 05:24:57:659,-0.700783,0.843369,-9.69441,-4.89644,-3.81154,93.3643
2023-02-15 05:24:57:669,-0.711604,0.841719,-9.66897,-4.89845,-3.81259,93.3729
2023-02-15 05:24:57:679,-0.722469,0.845906,-9.66636,-4.9015,-3.80943,93.3805
2023-02-15 05:24:57:690,-0.703746,0.841453,-9.67344,-4.90391,-3.81209,93.3837
2023-02-15 05:24:57:699,-0.702414,0.852302,-9.69079,-4.91054,-3.81553,93.3856
2023-02-15 05:24:57:709,-0.70592,0.87572,-9.70929,-4.91866,-3.81099,93.3831
2023-02-15 05:24:57:719,-0.680262,0.875076,-9.74299,-4.92437,-3.80782,93.381
2023-02-15 05:24:57:730,-0.662538,0.874462,-9.75048,-4.93087,-3.80309,93.3785
2023-02-15 05:24:57:739,-0.624117,0.88462,-9.74517,-4.93381,-3.79946,93.3716
2023-02-15 05:24:57:750,-0.608891,0.877709,-9.74789,-4.93164,-3.79186,93.3681
2023-02-15 05:24:57:759,-0.613589,0.871469,-9.73572,-4.92907,-3.78501,93.3635
2023-02-15 05:24:57:769,-0.583,0.853526,-9.73618,-4.92384,-3.77898,93.3569
2023-02-15 05:24:57:779,-0.573619,0.844873,-9.7149,-4.9195,-3.77028,93.3546
2023-02-15 05:24:57:789,-0.582017,0.837027,-9.68183,-4.91398,-3.76431,93.3473
2023-02-15 05:24:57:799,-0.594435,0.832967,-9.66795,-4.91151,-3.75969,93.3439
2023-02-15 05:24:57:809,-0.591001,0.838739,-9.68831,-4.912,-3.75472,93.3409
2023-02-15 05:24:57:819,-0.586146,0.85449,-9.71465,-4.91318,-3.75048,93.3374
2023-02-15 05:24:57:830,-0.588212,0.855879,-9.7316,-4.91749,-3.74987,93.3332
2023-02-15 05:24:57:839,-0.581575,0.868994,-9.73693,-4.91866,-3.75198,93.333
2023-02-15 05:24:57:849,-0.572577,0.869221,-9.73841,-4.92282,-3.7529,93.3348
2023-02-15 05:24:57:859,-0.590004,0.8652,-9.74956,-4.9247,-3.75879,93.3347
2023-02-15 05:24:57:870,-0.606725,0.868435,-9.74575,-4.9236,-3.76205,93.3382
2023-02-15 05:24:57:879,-0.610488,0.867001,-9.73305,-4.92243,-3.76253,93.3402
2023-02-15 05:24:57:889,-0.606265,0.851154,-9.71954,-4.91871,-3.76157,93.3446
2023-02-15 05:24:57:899,-0.603252,0.847973,-9.70592,-4.91092,-3.76129,93.3489
2023-02-15 05:24:57:909,-0.621146,0.854223,-9.6949,-4.90323,-3.76546,93.3553
2023-02-15 05:24:57:919,-0.634537,0.856189,-9.70961,-4.89986,-3.76858,93.362
2023-02-15 05:24:57:930,-0.655611,0.851248,-9.72528,-4.89644,-3.77008,93.3702
2023-02-15 05:24:57:939,-0.66451,0.848491,-9.72412,-4.89455,-3.7712,93.381
2023-02-15 05:24:57:950,-0.654996,0.857164,-9.71227,-4.88662,-3.77309,93.3884
2023-02-15 05:24:57:959,-0.653942,0.846349,-9.73202,-4.87775,-3.7735,93.3909
2023-02-15 05:24:57:970,-0.652053,0.859209,-9.75898,-4.87259,-3.77264,93.3942
2023-02-15 05:24:57:979,-0.65349,0.856637,-9.74897,-4.86629,-3.77929,93.3972
2023-02-15 05:24:57:990,-0.643042,0.836952,-9.73412,-4.85509,-3.77742,93.3943
2023-02-15 05:24:57:999,-0.643716,0.837819,-9.72641,-4.84512,-3.77892,93.3921
2023-02-15 05:24:58:10,-0.647553,0.812752,-9.71188,-4.83577,-3.78122,93.3918
2023-02-15 05:24:58:19,-0.615046,0.846842,-9.70087,-4.80335,-3.79492,93.3961
2023-02-15 05:24:58:90,-0.629005,0.845107,-9.69723,-4.79665,-3.79689,93.3981
2023-02-15 05:24:58:99,-0.635669,0.842371,-9.69836,-4.78557,-3.79813,93.4026
2023-02-15 05:24:58:110,-0.669672,0.845836,-9.70395,-4.78115,-3.80224,93.4105
2023-02-15 05:24:58:119,-0.70814,0.844759,-9.69648,-4.77639,-3.79984,93.4159
2023-02-15 05:24:58:130,-0.712653,0.849987,-9.69313,-4.77232,-3.79887,93.417
2023-02-15 05:24:58:139,-0.729088,0.84817,-9.70975,-4.77036,-3.79541,93.4163
2023-02-15 05:24:58:149,-0.739709,0.852827,-9.72882,-4.77207,-3.78794,93.4158
2023-02-15 05:24:58:159,-0.735349,0.857432,-9.76645,-4.77059,-3.7837,93.4137
2023-02-15 05:24:58:170,-0.711181,0.86185,-9.74579,-4.76826,-3.77692,93.4071
2023-02-15 05:24:58:180,-0.6721,0.858647,-9.70544,-4.76448,-3.76668,93.3964
2023-02-15 05:24:58:190,-0.64088,0.841832,-9.67428,-4.76353,-3.75752,93.3827
2023-02-15 05:24:58:199,-0.629657,0.838003,-9.6829,-4.7611,-3.74638,93.3658
2023-02-15 05:24:58:210,-0.63444,0.847796,-9.6906,-4.75967,-3.73689,93.3545
2023-02-15 05:24:58:220,-0.618211,0.853664,-9.71028,-4.75718,-3.72486,93.341
2023-02-15 05:24:58:230,-0.556019,0.845977,-9.72372,-4.7547,-3.70985,93.3268
2023-02-15 05:24:58:240,-0.532334,0.841734,-9.74407,-4.74709,-3.6952,93.3081
2023-02-15 05:24:58:250,-0.533364,0.834563,-9.76983,-4.739,-3.68332,93.2938
2023-02-15 05:24:58:260,-0.529961,0.810464,-9.77616,-4.72312,-3.67028,93.2688
2023-02-15 05:24:58:280,-0.536153,0.812448,-9.74234,-4.71075,-3.6679,93.2599
2023-02-15 05:24:58:290,-0.54631,0.810337,-9.72432,-4.70009,-3.66521,93.2531
2023-02-15 05:24:58:300,-0.567526,0.799788,-9.69864,-4.69193,-3.6588,93.2485
2023-02-15 05:24:58:310,-0.585507,0.784337,-9.67419,-4.68363,-3.65737,93.245
2023-02-15 05:24:58:320,-0.587306,0.798422,-9.67749,-4.67783,-3.6545,93.2475
2023-02-15 05:24:58:330,-0.592184,0.806913,-9.67748,-4.67198,-3.6545,93.2492
2023-02-15 05:24:58:340,-0.626356,0.796258,-9.6744,-4.66814,-3.65277,93.2503
2023-02-15 05:24:58:350,-0.644895,0.798957,-9.68752,-4.66364,-3.65148,93.2496
2023-02-15 05:24:58:360,-0.644425,0.811594,-9.7117,-4.66205,-3.6517,93.2458
2023-02-15 05:24:58:369,-0.622803,0.802564,-9.72048,-4.64917,-3.65499,93.2342
2023-02-15 05:24:58:390,-0.596918,0.760621,-9.70301,-4.62925,-3.65913,93.2092
2023-02-15 05:24:58:420,-0.577115,0.760234,-9.72253,-4.62464,-3.65854,93.2034
2023-02-15 05:24:58:430,-0.567502,0.766317,-9.74563,-4.62741,-3.65541,93.2021
2023-02-15 05:24:58:440,-0.580203,0.793345,-9.74263,-4.62669,-3.65447,93.201
2023-02-15 05:24:58:450,-0.605436,0.803995,-9.76352,-4.62813,-3.65624,93.2018
2023-02-15 05:24:58:460,-0.62793,0.76724,-9.7261,-4.61415,-3.65874,93.2105
2023-02-15 05:24:58:490,-0.644266,0.764487,-9.70814,-4.60615,-3.66606,93.2135
2023-02-15 05:24:58:500,-0.675554,0.766159,-9.72819,-4.59776,-3.67475,93.2225
2023-02-15 05:24:58:540,-0.650023,0.773865,-9.72825,-4.59644,-3.65429,93.2116
2023-02-15 05:24:58:570,-0.614015,0.758233,-9.67928,-4.59251,-3.63742,93.1965
2023-02-15 05:24:58:590,-0.586429,0.757847,-9.67851,-4.5919,-3.62743,93.188
2023-02-15 05:24:58:600,-0.580152,0.764857,-9.69444,-4.60468,-3.59441,93.1757
2023-02-15 05:24:58:630,-0.582774,0.761016,-9.69407,-4.61193,-3.58603,93.1705
2023-02-15 05:24:58:640,-0.590364,0.772352,-9.72075,-4.6189,-3.57478,93.1672
2023-02-15 05:24:58:650,-0.580783,0.802856,-9.72636,-4.6315,-3.56338,93.1601
2023-02-15 05:24:58:659,-0.573779,0.816494,-9.7248,-4.64483,-3.55463,93.1576
2023-02-15 05:24:58:669,-0.574382,0.830402,-9.72072,-4.70923,-3.50767,93.1212
2023-02-15 05:24:58:750,-0.579808,0.834712,-9.72304,-4.71001,-3.50411,93.1042
2023-02-15 05:24:58:780,-0.582814,0.847983,-9.74767,-4.71046,-3.4985,93.0973
2023-02-15 05:24:58:790,-0.603258,0.817155,-9.72141,-4.69993,-3.48597,93.0688
2023-02-15 05:24:58:829,-0.606081,0.8248,-9.71679,-4.69977,-3.48722,93.0572
2023-02-15 05:24:58:839,-0.557483,0.83953,-9.72329,-4.69572,-3.48869,93.0465
2023-02-15 05:24:58:849,-0.523956,0.856967,-9.70953,-4.69406,-3.48935,93.0328
2023-02-15 05:24:58:860,-0.533968,0.897406,-9.74607,-4.69194,-3.48621,93.0156
2023-02-15 05:24:58:879,-0.561505,0.906313,-9.74331,-4.67637,-3.49255,92.9966
2023-02-15 05:24:58:899,-0.557762,0.917176,-9.72742,-4.66768,-3.49683,92.9903
2023-02-15 05:24:58:910,-0.627728,0.865108,-9.74899,-4.57126,-3.49822,92.9786
2023-02-15 05:24:58:959,-0.623542,0.793417,-9.70055,-4.46474,-3.48164,92.9629
2023-02-15 05:24:59:0,-0.521457,0.741833,-9.73138,-4.31821,-3.43462,92.8916
2023-02-15 05:24:59:60,-0.499917,0.652612,-9.71037,-4.21613,-3.39999,92.8217
2023-02-15 05:24:59:99,-0.513207,0.647673,-9.70567,-4.19539,-3.39669,92.8066
2023-02-15 05:24:59:110,-0.537445,0.642546,-9.7148,-4.1769,-3.39549,92.7934
2023-02-15 05:24:59:120,-0.522305,0.645074,-9.70954,-4.15769,-3.39338,92.7827
2023-02-15 05:24:59:130,-0.511772,0.657099,-9.7102,-4.1446,-3.3898,92.7715
2023-02-15 05:24:59:140,-0.526236,0.646538,-9.70715,-4.13334,-3.39167,92.7653
2023-02-15 05:24:59:150,-0.529098,0.624223,-9.69995,-4.12269,-3.39487,92.756
2023-02-15 05:24:59:160,-0.506957,0.612727,-9.70564,-4.11315,-3.39925,92.7456
2023-02-15 05:24:59:170,-0.519486,0.615144,-9.71299,-4.10373,-3.40334,92.7373
2023-02-15 05:24:59:180,-0.512194,0.606343,-9.69014,-4.09718,-3.41154,92.7278
2023-02-15 05:24:59:190,-0.507833,0.609194,-9.67526,-4.09557,-3.42018,92.7177
2023-02-15 05:24:59:200,-0.51786,0.610011,-9.68206,-4.0946,-3.43249,92.7118
2023-02-15 05:24:59:210,-0.536893,0.60503,-9.69328,-4.09378,-3.44581,92.7095
2023-02-15 05:24:59:219,-0.548517,0.63951,-9.6913,-4.09729,-3.45652,92.7088
2023-02-15 05:24:59:230,-0.558157,0.642979,-9.70866,-4.1031,-3.46599,92.7141
2023-02-15 05:24:59:240,-0.593548,0.652804,-9.71183,-4.11253,-3.4781,92.7241
2023-02-15 05:24:59:250,-0.632039,0.653958,-9.69521,-4.12525,-3.48646,92.7346
2023-02-15 05:24:59:260,-0.664012,0.681567,-9.68885,-4.13892,-3.49213,92.7461
2023-02-15 05:24:59:270,-0.681441,0.702554,-9.71117,-4.15749,-3.50014,92.757
2023-02-15 05:24:59:280,-0.691073,0.726917,-9.74309,-4.17378,-3.50473,92.7674
2023-02-15 05:24:59:290,-0.698691,0.733787,-9.75562,-4.18602,-3.50933,92.7755
2023-02-15 05:24:59:299,-0.689605,0.741457,-9.74901,-4.19786,-3.51188,92.7802
2023-02-15 05:24:59:310,-0.673524,0.73719,-9.73191,-4.21156,-3.51296,92.7827
2023-02-15 05:24:59:320,-0.660179,0.732273,-9.72586,-4.2238,-3.5164,92.7812
2023-02-15 05:24:59:330,-0.647449,0.729241,-9.72508,-4.23623,-3.51293,92.7773
2023-02-15 05:24:59:340,-0.551667,0.720167,-9.72189,-4.31965,-3.46502,92.7175
2023-02-15 05:24:59:470,-0.535421,0.726461,-9.71689,-4.32439,-3.46615,92.7137
2023-02-15 05:24:59:480,-0.534896,0.738603,-9.72239,-4.32971,-3.47007,92.7111
2023-02-15 05:24:59:490,-0.54554,0.763012,-9.72776,-4.33782,-3.47451,92.7107
2023-02-15 05:24:59:500,-0.555404,0.773435,-9.73761,-4.34594,-3.48007,92.7112
2023-02-15 05:24:59:510,-0.573712,0.768304,-9.72588,-4.35353,-3.48364,92.7191
2023-02-15 05:24:59:520,-0.574452,0.771362,-9.70462,-4.36098,-3.48864,92.727
2023-02-15 05:24:59:530,-0.565863,0.77393,-9.70464,-4.36726,-3.49072,92.7326
2023-02-15 05:24:59:540,-0.604107,0.794843,-9.71343,-4.37313,-3.49248,92.7404
2023-02-15 05:24:59:550,-0.631214,0.821432,-9.73593,-4.38177,-3.49605,92.7499
2023-02-15 05:24:59:560,-0.629787,0.842855,-9.7647,-4.38831,-3.50175,92.7575
2023-02-15 05:24:59:570,-0.646816,0.858039,-9.77077,-4.3933,-3.50202,92.7627
2023-02-15 05:24:59:580,-0.653839,0.876088,-9.75813,-4.39597,-3.50447,92.7685
2023-02-15 05:24:59:590,-0.652789,0.887218,-9.75974,-4.39618,-3.50752,92.7719
2023-02-15 05:24:59:600,-0.656236,0.875546,-9.75647,-4.39341,-3.50966,92.7735
2023-02-15 05:24:59:610,-0.627705,0.864233,-9.75825,-4.38689,-3.51216,92.7718
2023-02-15 05:24:59:620,-0.597096,0.878971,-9.7834,-4.37547,-3.51327,92.7621
2023-02-15 05:24:59:630,-0.572551,0.901076,-9.82865,-4.36057,-3.51238,92.7547
2023-02-15 05:24:59:640,-0.55065,0.924207,-9.87103,-4.34189,-3.50838,92.7476
2023-02-15 05:24:59:650,-0.523384,0.923248,-9.88229,-4.31221,-3.50931,92.7348
2023-02-15 05:24:59:660,-0.540852,0.953229,-9.89199,-4.24318,-3.51985,92.7174
2023-02-15 05:24:59:680,-0.581011,0.996326,-9.92458,-4.13914,-3.53703,92.7069
2023-02-15 05:24:59:700,-0.595124,1.01516,-9.91407,-4.07551,-3.54813,92.7018
2023-02-15 05:24:59:710,-0.612331,1.02848,-9.91257,-3.99847,-3.55947,92.693
2023-02-15 05:24:59:720,-0.674237,1.0005,-9.8467,-3.81102,-3.58719,92.6749
2023-02-15 05:24:59:740,-0.708979,0.991628,-9.83128,-3.69865,-3.60076,92.6605
2023-02-15 05:24:59:749,-0.733532,0.986975,-9.87133,-3.57631,-3.61309,92.6457
2023-02-15 05:24:59:760,-0.679467,0.964339,-9.87738,-3.44337,-3.62746,92.6249
2023-02-15 05:24:59:770,-0.653208,0.961705,-9.93989,-3.30529,-3.64197,92.596
2023-02-15 05:24:59:780,-0.669218,0.991419,-10.0363,-3.15389,-3.65867,92.5638
2023-02-15 05:24:59:790,-0.672886,0.996665,-10.0938,-2.98605,-3.67401,92.5304
2023-02-15 05:24:59:800,-0.664599,1.0073,-10.1603,-2.79785,-3.69134,92.4926
2023-02-15 05:24:59:810,-0.668027,1.07534,-10.2961,-2.58474,-3.70738,92.452
2023-02-15 05:24:59:820,-0.721955,1.09446,-10.3296,-2.34525,-3.72476,92.4052
2023-02-15 05:24:59:830,-0.74767,1.05523,-10.2388,-2.07782,-3.74725,92.3553
2023-02-15 05:24:59:840,-0.72514,0.990901,-10.1824,-1.77834,-3.76359,92.2978
2023-02-15 05:24:59:850,-0.719452,0.985615,-10.2235,-1.45076,-3.78174,92.2354
2023-02-15 05:24:59:860,-0.733754,0.998041,-10.2329,-1.0979,-3.80588,92.1619
2023-02-15 05:24:59:870,-0.707109,0.879626,-10.2975,0.161832,-3.87978,91.8902
2023-02-15 05:24:59:900,-0.66824,0.794407,-10.2789,0.652816,-3.9067,91.7785
2023-02-15 05:24:59:910,-0.632007,0.770871,-10.3588,1.18252,-3.93614,91.6579
2023-02-15 05:24:59:920,-0.518155,-0.87213,-9.30439,10.434,-4.29917,89.9333
2023-02-15 05:25:00:40,-0.458864,-1.05196,-9.25704,11.3969,-4.32254,89.7881
2023-02-15 05:25:00:50,-0.430966,-1.25345,-9.19975,12.3818,-4.34655,89.6437
2023-02-15 05:25:00:60,-0.443764,-1.45787,-9.16645,13.3833,-4.37719,89.5002
2023-02-15 05:25:00:70,-0.484559,-1.66771,-9.10629,14.4061,-4.40598,89.3619
2023-02-15 05:25:00:80,-0.613993,-2.22943,-8.89761,16.5107,-4.4723,89.0947
2023-02-15 05:25:00:100,-0.649786,-2.48158,-8.79412,17.5844,-4.4996,88.9706
2023-02-15 05:25:00:110,-0.588444,-2.68307,-8.74919,18.6689,-4.5234,88.8441
2023-02-15 05:25:00:120,-0.482585,-2.89053,-8.63824,19.7609,-4.54225,88.7185
2023-02-15 05:25:00:130,-0.480216,-3.18986,-8.43857,20.8673,-4.56425,88.5967
2023-02-15 05:25:00:140,-0.427517,-3.44628,-8.28095,21.9777,-4.58771,88.4813
2023-02-15 05:25:00:150,-0.640991,-3.64615,-8.12394,23.0841,-4.61437,88.3772
2023-02-15 05:25:00:160,-0.846671,-3.75923,-8.17973,24.1848,-4.64597,88.2734
2023-02-15 05:25:00:170,-0.962821,-3.94553,-8.10998,25.2889,-4.6517,88.2055
2023-02-15 05:25:00:180,-0.953798,-4.23566,-7.87172,26.3966,-4.65284,88.1266
2023-02-15 05:25:00:190,-0.843899,-4.44232,-7.82362,27.4978,-4.64145,88.0483
2023-02-15 05:25:00:200,-0.752968,-4.56796,-7.71616,28.5896,-4.62397,87.9751
2023-02-15 05:25:00:210,-0.730116,-4.69954,-7.59587,29.6707,-4.59929,87.907
2023-02-15 05:25:00:220,-0.693675,-4.92107,-7.48696,30.7444,-4.56866,87.8391
2023-02-15 05:25:00:230,-0.655574,-5.11224,-7.42269,31.8086,-4.54164,87.7652
2023-02-15 05:25:00:240,-0.628189,-5.26883,-7.35336,32.8584,-4.51488,87.6913
2023-02-15 05:25:00:250,-0.731508,-5.64239,-6.8987,35.9324,-4.45858,87.4801
2023-02-15 05:25:00:280,-0.689226,-5.76008,-6.85992,36.9336,-4.44439,87.4191
2023-02-15 05:25:00:290,-0.647898,-5.83237,-6.90097,37.9142,-4.43174,87.3595
2023-02-15 05:25:00:300,-0.712343,-5.91948,-7.1198,39.8395,-4.42394,87.257
2023-02-15 05:25:00:320,-0.811648,-5.917,-7.20284,40.7967,-4.42432,87.214
2023-02-15 05:25:00:330,-0.870931,-6.02954,-7.11341,41.7741,-4.4349,87.1644
2023-02-15 05:25:00:340,-0.81872,-6.33412,-6.7779,43.7956,-4.42868,87.0853
2023-02-15 05:25:00:360,-0.993289,-8.75642,-4.78508,53.2187,-4.28593,86.6713
2023-02-15 05:25:00:450,-0.952141,-9.05766,-4.60707,54.1854,-4.26194,86.6059
2023-02-15 05:25:00:460,-0.764605,-9.60118,-4.30407,56.776,-4.13427,86.4048
2023-02-15 05:25:00:490,-0.675812,-9.75256,-4.11417,57.5506,-4.07514,86.3471
2023-02-15 05:25:00:500,-0.589985,-9.96248,-3.88628,58.2885,-4.01296,86.3063
2023-02-15 05:25:00:510,-0.525617,-10.1662,-3.69392,58.9797,-3.95256,86.2785
2023-02-15 05:25:00:520,-0.461085,-10.3448,-3.56709,59.6134,-3.89423,86.2549
2023-02-15 05:25:00:530,-0.392378,-10.4398,-3.52489,60.1782,-3.84642,86.2282
2023-02-15 05:25:00:540,-0.353992,-10.4424,-3.5234,60.6706,-3.80838,86.1999
2023-02-15 05:25:00:550,-0.391138,-10.3774,-3.52115,61.0919,-3.77937,86.1735
2023-02-15 05:25:00:560,-0.499052,-10.332,-3.3047,61.7546,-3.76707,86.1209
2023-02-15 05:25:00:580,-0.598243,-10.2101,-3.15998,62.1743,-3.78437,86.0743
2023-02-15 05:25:00:600,-0.655578,-10.0889,-3.24237,62.2787,-3.79912,86.0579
2023-02-15 05:25:00:610,-0.716289,-9.93928,-3.38808,62.317,-3.81714,86.0533
2023-02-15 05:25:00:620,-0.74498,-9.77121,-3.54858,62.2926,-3.83529,86.0493
2023-02-15 05:25:00:630,-0.755946,-9.62823,-3.74892,62.2196,-3.84799,86.0505
2023-02-15 05:25:00:640,-0.732674,-9.50653,-3.92677,62.1089,-3.85445,86.0523
2023-02-15 05:25:00:650,-0.722302,-9.40842,-4.0741,61.9687,-3.86244,86.0504
2023-02-15 05:25:00:660,-0.581374,-9.2144,-4.15911,61.202,-3.84983,86.0097
2023-02-15 05:25:00:700,-0.592947,-9.26722,-4.11523,60.9648,-3.85659,85.9936
2023-02-15 05:25:00:710,-0.646657,-9.30774,-4.15813,60.6983,-3.86338,85.983
2023-02-15 05:25:00:720,-0.736029,-9.28506,-4.19594,60.3987,-3.87504,85.974
2023-02-15 05:25:00:730,-0.752578,-9.25925,-4.22641,60.0603,-3.89151,85.9646
2023-02-15 05:25:00:740,-0.37275,-9.28071,-4.34802,59.2832,-3.90661,85.9508
2023-02-15 05:25:00:760,-0.562565,-9.27258,-4.37498,58.3651,-3.94119,85.9331
2023-02-15 05:25:00:780,-0.815363,-9.29396,-4.25277,57.8597,-3.976,85.9364
2023-02-15 05:25:00:790,-0.916605,-9.34613,-4.15155,57.312,-4.01168,85.9532
2023-02-15 05:25:00:800,-0.872027,-9.31721,-4.14664,56.7142,-4.03839,85.9744
2023-02-15 05:25:00:810,-0.723871,-9.22151,-4.26139,56.0478,-4.05741,85.9979
2023-02-15 05:25:00:820,-0.490044,-8.82667,-4.65699,54.5074,-4.0764,86.0515
2023-02-15 05:25:00:840,-0.702113,-8.42018,-4.89023,52.744,-4.11955,86.115
2023-02-15 05:25:00:860,-0.636752,-8.23401,-5.11908,51.7864,-4.14243,86.1615
2023-02-15 05:25:00:870,-0.425384,-8.02794,-5.43729,50.7823,-4.15518,86.2127
2023-02-15 05:25:00:880,-0.208774,-7.45639,-6.09995,48.654,-4.20241,86.3195
2023-02-15 05:25:00:900,-0.350003,-7.23249,-6.24925,47.5627,-4.26059,86.3669
2023-02-15 05:25:00:910,-0.545384,-7.03287,-6.27986,46.4677,-4.34455,86.418
2023-02-15 05:25:00:920,-0.708384,-6.84512,-6.29258,45.366,-4.43463,86.4754
2023-02-15 05:25:00:930,-0.858464,-6.64191,-6.31696,44.2486,-4.53225,86.5361
2023-02-15 05:25:00:940,-0.940985,-6.41044,-6.3726,43.113,-4.63214,86.607
2023-02-15 05:25:00:950,-0.959298,-6.15202,-6.53334,41.9514,-4.72072,86.6815
2023-02-15 05:25:00:960,-0.932192,-5.90156,-6.77016,40.7616,-4.80009,86.7546
2023-02-15 05:25:00:970,-0.934717,-5.65863,-7.01718,39.5492,-4.87662,86.8239
2023-02-15 05:25:00:980,-1.06612,-5.40303,-7.21405,38.3258,-4.94964,86.8863
2023-02-15 05:25:00:990,-1.255,-5.15055,-7.34499,37.0953,-5.01578,86.9522
2023-02-15 05:25:01:0,-1.03314,-4.61677,-7.80613,34.6295,-5.09351,87.1026
2023-02-15 05:25:01:20,-0.630801,-4.22905,-8.10664,32.2106,-5.10388,87.2487
2023-02-15 05:25:01:40,-0.754667,-4.13273,-7.97094,31.0413,-5.11952,87.3327
2023-02-15 05:25:01:50,-0.911846,-4.05385,-7.79798,29.8961,-5.14209,87.426
2023-02-15 05:25:01:60,-0.956203,-3.90046,-7.75007,28.7537,-5.16618,87.5271
2023-02-15 05:25:01:70,-0.839529,-3.63332,-7.9212,27.5961,-5.17914,87.635
2023-02-15 05:25:01:80,-0.681121,-3.1293,-8.41784,25.246,-5.20172,87.8627
2023-02-15 05:25:01:100,-0.794983,-2.96047,-8.55668,24.0803,-5.22113,87.9797
2023-02-15 05:25:01:110,-0.955694,-2.7632,-8.66572,22.9236,-5.24675,88.103
2023-02-15 05:25:01:120,-1.09965,-2.06437,-9.14452,19.5331,-5.31221,88.4462
2023-02-15 05:25:01:150,-0.985934,-1.93878,-9.30183,18.456,-5.31778,88.5524
2023-02-15 05:25:01:160,-0.682469,-1.67104,-9.64282,16.4056,-5.31243,88.7361
2023-02-15 05:25:01:180,-0.770309,-1.52339,-9.67259,15.4317,-5.31801,88.8117
2023-02-15 05:25:01:190,-0.915144,-1.38411,-9.64013,14.4947,-5.3353,88.8832
2023-02-15 05:25:01:200,-0.973385,-1.28305,-9.59953,13.5945,-5.35007,88.9526
2023-02-15 05:25:01:210,-0.978827,-1.21976,-9.55272,12.7309,-5.36088,89.0181
2023-02-15 05:25:01:220,-0.908736,-1.15581,-9.57074,11.8915,-5.37164,89.0767
2023-02-15 05:25:01:230,-0.980302,-0.780236,-9.80804,9.48738,-5.41995,89.2428
2023-02-15 05:25:01:260,-0.877599,0.53187,-10.1293,0.686363,-5.29738,90.0132
2023-02-15 05:25:01:400,-0.885633,0.597648,-10.0725,0.209736,-5.27303,90.0706
2023-02-15 05:25:01:410,-0.909399,0.647645,-10.0024,-0.240571,-5.24895,90.1271
2023-02-15 05:25:01:420,-0.922924,0.691685,-9.956,-0.663846,-5.2245,90.1854
2023-02-15 05:25:01:430,-0.91378,0.746612,-9.92449,-1.07367,-5.19808,90.2426
2023-02-15 05:25:01:440,-0.974115,0.813626,-9.90155,-1.46666,-5.17169,90.3014
2023-02-15 05:25:01:450,-1.06696,0.887065,-9.85396,-1.83757,-5.14259,90.3614
2023-02-15 05:25:01:460,-1.11871,0.943808,-9.83317,-2.19708,-5.10985,90.4212
2023-02-15 05:25:01:470,-1.11557,1.0123,-9.82876,-2.53814,-5.06608,90.4787
2023-02-15 05:25:01:480,-1.06196,1.04383,-9.83938,-2.86641,-5.00847,90.5259
2023-02-15 05:25:01:490,-1.01762,1.04475,-9.87897,-3.17533,-4.94311,90.5651
2023-02-15 05:25:01:500,-0.999703,1.05584,-9.93829,-3.47005,-4.87585,90.5992
2023-02-15 05:25:01:510,-0.959175,1.09336,-9.95139,-3.74501,-4.8021,90.6255
2023-02-15 05:25:01:520,-0.941392,1.09218,-9.90767,-4.0034,-4.72586,90.6421
2023-02-15 05:25:01:530,-0.936129,1.07617,-9.88346,-4.24726,-4.65002,90.6463
2023-02-15 05:25:01:540,-0.92402,1.08391,-9.8489,-4.47517,-4.56986,90.6462
2023-02-15 05:25:01:550,-0.884254,1.10156,-9.81831,-4.69139,-4.48903,90.6384
2023-02-15 05:25:01:560,-0.815963,1.11991,-9.82375,-4.89914,-4.40767,90.6199
2023-02-15 05:25:01:570,-0.750103,1.15689,-9.80416,-5.09988,-4.32784,90.5973
2023-02-15 05:25:01:580,-0.697607,1.18634,-9.78189,-5.28849,-4.24941,90.5696
2023-02-15 05:25:01:590,-0.656148,1.21609,-9.76333,-5.47398,-4.17091,90.5435
2023-02-15 05:25:01:600,-0.614104,1.22843,-9.76585,-5.65386,-4.09299,90.5161
2023-02-15 05:25:01:610,-0.574293,1.29071,-9.81187,-5.826,-4.02021,90.4879
2023-02-15 05:25:01:620,-0.522101,1.3437,-9.86641,-5.98928,-3.95322,90.4587
2023-02-15 05:25:01:630,-0.493408,1.40088,-9.89702,-6.14296,-3.88815,90.4356
2023-02-15 05:25:01:640,-0.473239,1.42765,-9.93096,-6.28023,-3.8268,90.4145
2023-02-15 05:25:01:650,-0.477602,1.4606,-9.9607,-6.40358,-3.77095,90.3967
2023-02-15 05:25:01:660,-0.496551,1.46998,-9.95966,-6.50775,-3.72032,90.3794
2023-02-15 05:25:01:670,-0.495632,1.48462,-9.94278,-6.59748,-3.67236,90.3651
2023-02-15 05:25:01:680,-0.444264,1.47439,-9.9115,-6.73318,-3.58919,90.3407
2023-02-15 05:25:01:700,-0.451835,1.45086,-9.84435,-6.81657,-3.53057,90.3189
2023-02-15 05:25:01:720,-0.471216,1.45279,-9.83158,-6.87858,-3.46879,90.3114
2023-02-15 05:25:01:750,-0.470164,1.44627,-9.81444,-6.8829,-3.45669,90.3199
2023-02-15 05:25:01:760,-0.514622,1.43056,-9.79183,-6.86036,-3.43718,90.349
2023-02-15 05:25:01:780,-0.559423,1.4135,-9.80685,-6.80486,-3.42719,90.3877
2023-02-15 05:25:01:800,-0.550611,1.40032,-9.81175,-6.76729,-3.42839,90.4073
2023-02-15 05:25:01:810,-0.552832,1.37697,-9.78361,-6.72071,-3.42969,90.4298
2023-02-15 05:25:01:820,-0.543165,1.31156,-9.76114,-6.59797,-3.43536,90.468
2023-02-15 05:25:01:840,-0.543857,1.28022,-9.74986,-6.53152,-3.44134,90.4871
2023-02-15 05:25:01:850,-0.582499,1.24886,-9.75961,-6.3887,-3.45375,90.5249
2023-02-15 05:25:01:870,-0.608227,1.12015,-9.67088,-5.95939,-3.48301,90.6184
2023-02-15 05:25:01:920,-0.608776,1.09524,-9.66791,-5.87334,-3.49003,90.6343
2023-02-15 05:25:01:930,-0.605449,1.06542,-9.67786,-5.78337,-3.49998,90.6468
2023-02-15 05:25:01:940,-0.60994,1.01816,-9.66223,-5.60582,-3.51926,90.6616
2023-02-15 05:25:01:960,-0.651297,0.983911,-9.68232,-5.42876,-3.53194,90.679
2023-02-15 05:25:01:980,-0.670037,0.957207,-9.67193,-5.34265,-3.53692,90.6838
2023-02-15 05:25:01:990,-0.660059,0.928024,-9.65225,-5.25397,-3.53724,90.6848
2023-02-15 05:25:02:0,-0.665388,0.908719,-9.6396,-5.16742,-3.53432,90.6879
2023-02-15 05:25:02:10,-0.677968,0.895194,-9.66627,-5.08162,-3.53114,90.6866
2023-02-15 05:25:02:20,-0.649201,0.888833,-9.70743,-4.99528,-3.52891,90.6833
2023-02-15 05:25:02:30,-0.621203,0.881243,-9.74646,-4.91196,-3.52679,90.6768
2023-02-15 05:25:02:40,-0.575619,0.883026,-9.74695,-4.82583,-3.52093,90.6657
2023-02-15 05:25:02:50,-0.589673,0.863206,-9.71781,-4.74051,-3.51903,90.6541
2023-02-15 05:25:02:60,-0.628656,0.851359,-9.70216,-4.65228,-3.51691,90.6427
2023-02-15 05:25:02:70,-0.634726,0.81639,-9.69348,-4.39549,-3.49096,90.6045
2023-02-15 05:25:02:100,-0.594045,0.82697,-9.7381,-4.31017,-3.47267,90.5883
2023-02-15 05:25:02:110,-0.559072,0.835185,-9.76627,-4.22677,-3.45841,90.5701
2023-02-15 05:25:02:120,-0.50953,0.851476,-9.81881,-4.13594,-3.44553,90.5567
2023-02-15 05:25:02:130,-0.471521,0.864908,-9.87713,-4.04132,-3.43661,90.5456
2023-02-15 05:25:02:140,-0.541919,0.891944,-9.91216,-3.57753,-3.44305,90.517
2023-02-15 05:25:02:180,-0.566225,0.879011,-9.91395,-3.43309,-3.44677,90.5133
2023-02-15 05:25:02:190,-0.641345,0.863007,-9.89572,-3.2775,-3.45233,90.5129
2023-02-15 05:25:02:200,-0.677128,0.851056,-9.89375,-3.10922,-3.457,90.5145
2023-02-15 05:25:02:210,-0.675256,0.828408,-9.89942,-2.9308,-3.46328,90.5167
2023-02-15 05:25:02:220,-0.655683,0.795618,-9.90075,-2.74308,-3.47283,90.5102
2023-02-15 05:25:02:230,-0.615455,0.800622,-9.96052,-2.54113,-3.47747,90.5042
2023-02-15 05:25:02:240,-0.579912,0.827529,-10.0596,-2.3292,-3.48576,90.492
2023-02-15 05:25:02:250,-0.566824,0.832646,-10.1238,-2.09971,-3.49856,90.4744
2023-02-15 05:25:02:260,-0.576779,0.830072,-10.1559,-1.85252,-3.5157,90.454
2023-02-15 05:25:02:270,-0.632507,0.801906,-10.1563,-1.286,-3.5605,90.4172
2023-02-15 05:25:02:290,-0.66047,0.762408,-10.1101,-0.964658,-3.58976,90.3961
2023-02-15 05:25:02:300,-0.650002,0.587536,-9.89547,-0.248492,-3.64496,90.3421
2023-02-15 05:25:02:320,-0.658621,0.487045,-9.80682,0.143201,-3.66983,90.3135
2023-02-15 05:25:02:330,-0.64506,0.424502,-9.78822,0.545952,-3.69578,90.2798
2023-02-15 05:25:02:340,-0.630631,0.410886,-9.85006,0.962518,-3.72636,90.2424
2023-02-15 05:25:02:350,-0.681782,0.35609,-9.92895,1.84,-3.78714,90.1716
2023-02-15 05:25:02:370,-0.697044,0.300119,-9.91911,2.31202,-3.81619,90.1326
2023-02-15 05:25:02:380,-0.732319,0.242463,-9.90854,2.80743,-3.84099,90.0975
2023-02-15 05:25:02:390,-0.774323,0.176179,-9.92457,3.3248,-3.86631,90.0609
2023-02-15 05:25:02:400,-0.777975,0.10154,-9.89362,3.86787,-3.88739,90.0237
2023-02-15 05:25:02:410,-0.749635,0.00608891,-9.8605,4.43465,-3.90287,89.9806
2023-02-15 05:25:02:420,-0.756513,-0.0813978,-9.84205,5.02604,-3.91955,89.9389
2023-02-15 05:25:02:430,-0.77348,-0.162559,-9.83424,5.63869,-3.92992,89.8935
2023-02-15 05:25:02:440,-0.837466,-0.40407,-9.76321,6.93978,-3.93603,89.7946
2023-02-15 05:25:02:460,-0.86662,-0.597699,-9.70204,7.62836,-3.92745,89.7435
2023-02-15 05:25:02:470,-0.870439,-0.962355,-9.6449,9.07008,-3.89232,89.6221
2023-02-15 05:25:02:490,-0.861027,-1.17487,-9.55101,9.81372,-3.85735,89.5507
2023-02-15 05:25:02:500,-0.767826,-1.44368,-9.42038,10.5759,-3.81182,89.4717
2023-02-15 05:25:02:510,-0.646898,-1.66756,-9.3198,11.3502,-3.76476,89.3779
2023-02-15 05:25:02:520,-0.540009,-1.80424,-9.30375,12.1258,-3.7194,89.2725
2023-02-15 05:25:02:530,-0.457176,-1.89974,-9.34179,12.906,-3.68286,89.1543
2023-02-15 05:25:02:540,-0.434356,-2.01955,-9.35872,13.6837,-3.65344,89.0319
2023-02-15 05:25:02:550,-0.46517,-2.17831,-9.28732,14.4737,-3.63007,88.9095
2023-02-15 05:25:02:560,-0.48786,-2.59728,-8.97568,16.8734,-3.55426,88.5502
2023-02-15 05:25:02:590,-0.511962,-2.73695,-8.89301,17.6732,-3.52874,88.4395
2023-02-15 05:25:02:600,-0.52645,-2.84942,-8.87063,18.4684,-3.50009,88.3303
2023-02-15 05:25:02:610,-0.491129,-2.93512,-8.82081,19.2646,-3.47402,88.2278
2023-02-15 05:25:02:620,-0.412203,-3.06299,-8.80476,20.058,-3.44832,88.1219
2023-02-15 05:25:02:630,-0.495602,-3.14819,-8.94233,21.642,-3.41453,87.9077
2023-02-15 05:25:02:650,-0.522113,-3.19287,-8.9441,22.4415,-3.40255,87.795
2023-02-15 05:25:02:660,-0.507612,-3.27991,-8.81688,23.2628,-3.37807,87.6936
2023-02-15 05:25:02:670,-0.63899,-3.37019,-8.61363,24.1014,-3.3537,87.6049
2023-02-15 05:25:02:680,-0.760589,-3.37536,-8.50829,24.951,-3.32239,87.5259
2023-02-15 05:25:02:690,-0.736714,-3.34211,-8.48119,25.8181,-3.28866,87.4486
2023-02-15 05:25:02:700,-0.600012,-3.32691,-8.5042,26.6977,-3.24998,87.3707
2023-02-15 05:25:02:710,-0.664714,-3.30952,-8.7694,28.5316,-3.17081,87.2137
2023-02-15 05:25:02:730,-0.643616,-3.60969,-8.47271,30.5292,-3.07316,87.073
2023-02-15 05:25:02:750,-0.562067,-3.92009,-8.30952,31.6044,-3.00541,86.997
2023-02-15 05:25:02:760,-0.518733,-4.15099,-8.17856,32.7171,-2.93902,86.9144
2023-02-15 05:25:02:770,-0.530966,-4.41074,-7.91864,33.8638,-2.86384,86.8294
2023-02-15 05:25:02:780,-0.465893,-4.75372,-7.57252,35.0512,-2.77478,86.7442
2023-02-15 05:25:02:790,-0.291028,-5.06023,-7.32666,36.2731,-2.67108,86.6581
2023-02-15 05:25:02:800,-0.199352,-5.40164,-7.03771,37.5175,-2.5619,86.5623
2023-02-15 05:25:02:810,-0.2696,-5.74208,-6.70674,38.7717,-2.46352,86.4541
2023-02-15 05:25:02:820,-0.424484,-6.02817,-6.47597,40.0314,-2.37534,86.3457
2023-02-15 05:25:02:830,-0.474481,-6.30965,-6.36025,41.2796,-2.28855,86.2373
2023-02-15 05:25:02:840,-0.164965,-6.83516,-6.40815,43.7371,-2.07826,86.0361
2023-02-15 05:25:02:860,0.073696,-7.06729,-6.43675,44.9385,-1.96536,85.9285
2023-02-15 05:25:02:870,0.141604,-7.2318,-6.43013,46.1259,-1.85996,85.8192
2023-02-15 05:25:02:880,0.0976317,-7.45922,-6.27004,47.3042,-1.76112,85.7151
2023-02-15 05:25:02:890,0.133755,-7.73623,-5.9444,48.487,-1.67434,85.593
2023-02-15 05:25:02:900,0.110133,-8.07165,-5.5797,49.6735,-1.59389,85.48
2023-02-15 05:25:02:910,-0.106881,-8.7573,-4.79407,52.0238,-1.46203,85.2811
2023-02-15 05:25:02:930,0.00937565,-9.137,-4.42063,53.1654,-1.40544,85.1824
2023-02-15 05:25:02:940,0.0267749,-9.40736,-4.20836,54.2605,-1.33975,85.1045
2023-02-15 05:25:02:950,-0.0137191,-9.70877,-3.9434,55.3053,-1.28034,85.0236
2023-02-15 05:25:02:960,0.0154853,-10.0098,-3.6614,56.2894,-1.22371,84.9412
2023-02-15 05:25:02:970,0.0489907,-10.2999,-3.38639,57.2051,-1.16816,84.8622
2023-02-15 05:25:02:980,0.0102024,-10.5146,-3.19815,58.0413,-1.1191,84.7957
2023-02-15 05:25:02:990,-0.0362565,-10.6869,-3.07767,58.7903,-1.0764,84.7475
2023-02-15 05:25:03:0,-0.0512854,-10.8217,-3.01573,59.4482,-1.0366,84.7152
2023-02-15 05:25:03:10,-0.0177963,-10.9186,-2.94108,60.0171,-1.00661,84.6925
2023-02-15 05:25:03:20,0.0922248,-10.9963,-2.8533,60.4952,-0.979822,84.6805
2023-02-15 05:25:03:30,0.142639,-11.0814,-2.71949,60.8836,-0.95931,84.6749
2023-02-15 05:25:03:40,0.12557,-11.1377,-2.59446,61.1747,-0.954655,84.6669
2023-02-15 05:25:03:50,0.0381683,-11.085,-2.60084,61.3574,-0.960778,84.6589
2023-02-15 05:25:03:60,-0.0515349,-10.888,-2.81044,61.4293,-0.98053,84.6594
2023-02-15 05:25:03:70,-0.005569,-10.4735,-3.29604,61.2904,-1.02359,84.7027
2023-02-15 05:25:03:90,0.0412689,-10.3583,-3.40302,61.1188,-1.04938,84.7346
2023-02-15 05:25:03:100,0.0334487,-10.2468,-3.43126,60.8868,-1.07833,84.7671
2023-02-15 05:25:03:110,-0.00702832,-10.1301,-3.45617,60.5942,-1.11881,84.8057
2023-02-15 05:25:03:120,-0.0545443,-10.0204,-3.50216,60.2389,-1.16422,84.8426
2023-02-15 05:25:03:130,-0.103334,-9.90889,-3.54685,59.8196,-1.21405,84.8708
2023-02-15 05:25:03:140,-0.121858,-9.79085,-3.64618,59.3324,-1.2685,84.8963
2023-02-15 05:25:03:150,-0.130004,-9.65986,-3.79096,58.7772,-1.32946,84.9157
2023-02-15 05:25:03:160,-0.0906915,-9.53474,-3.97242,58.1552,-1.39394,84.9361
2023-02-15 05:25:03:170,-0.0249256,-9.45259,-4.11367,57.4757,-1.45991,84.9545
2023-02-15 05:25:03:180,0.0371405,-9.41573,-4.13991,56.7499,-1.53559,84.9744
2023-02-15 05:25:03:190,0.135505,-9.393,-4.12068,55.9713,-1.61631,84.9992
2023-02-15 05:25:03:200,0.182231,-9.25605,-4.22379,55.1333,-1.70608,85.0311
2023-02-15 05:25:03:210,0.124449,-8.96671,-4.49845,54.2161,-1.81355,85.0669
2023-02-15 05:25:03:220,-0.0490466,-8.60796,-4.84158,53.2313,-1.94008,85.1111
2023-02-15 05:25:03:230,-0.259855,-8.28872,-5.08762,52.1996,-2.08387,85.1616
2023-02-15 05:25:03:240,-0.403726,-8.09827,-5.208,51.1363,-2.23717,85.2181
2023-02-15 05:25:03:250,-0.492676,-7.90908,-5.28812,50.0481,-2.38426,85.2914
2023-02-15 05:25:03:260,-0.512421,-7.66652,-5.41598,48.9298,-2.52718,85.3789
2023-02-15 05:25:03:270,-0.493548,-7.40309,-5.62445,47.7726,-2.65987,85.4704
2023-02-15 05:25:03:280,-0.460813,-7.09133,-5.95034,46.5782,-2.78556,85.5636
2023-02-15 05:25:03:290,-0.439392,-6.76209,-6.33641,45.3511,-2.91106,85.6573
2023-02-15 05:25:03:300,-0.486427,-6.4738,-6.59309,44.1048,-3.03555,85.7441
2023-02-15 05:25:03:310,-0.52528,-6.27091,-6.71771,42.8617,-3.15884,85.8302
2023-02-15 05:25:03:321,-0.54648,-6.13029,-6.73613,41.6328,-3.27921,85.9122
2023-02-15 05:25:03:330,-0.566939,-5.96336,-6.7852,40.4017,-3.39674,85.9976
2023-02-15 05:25:03:341,-0.630133,-5.69185,-7.01169,39.1553,-3.51261,86.0815
2023-02-15 05:25:03:350,-0.720444,-5.39352,-7.31577,37.8909,-3.63032,86.1657
2023-02-15 05:25:03:361,-0.819799,-5.14112,-7.5555,36.6206,-3.74419,86.2469
2023-02-15 05:25:03:370,-0.869012,-5.00183,-7.59959,35.3682,-3.85434,86.3322
2023-02-15 05:25:03:381,-0.804545,-4.96775,-7.48843,34.1408,-3.94801,86.4179
2023-02-15 05:25:03:390,-0.705205,-4.90506,-7.42226,32.9181,-4.02311,86.5069
2023-02-15 05:25:03:400,-0.636816,-4.70008,-7.54087,31.683,-4.09296,86.5936
2023-02-15 05:25:03:410,-0.654211,-4.34414,-7.82247,30.4132,-4.16945,86.675
2023-02-15 05:25:03:421,-0.685061,-3.95664,-8.16795,29.1199,-4.26095,86.7582
2023-02-15 05:25:03:430,-0.651353,-3.63955,-8.45678,27.8225,-4.34869,86.8432
2023-02-15 05:25:03:441,-0.629723,-3.50711,-8.52033,26.5504,-4.43437,86.9328
2023-02-15 05:25:03:450,-0.652155,-3.50766,-8.28953,25.3176,-4.51167,87.0291
2023-02-15 05:25:03:460,-0.586983,-3.42942,-7.70393,22.91,-4.65407,87.251
2023-02-15 05:25:03:480,-0.563611,-3.07863,-7.77223,21.6691,-4.72772,87.3769
2023-02-15 05:25:03:490,-0.643573,-2.13241,-8.51613,19.0725,-4.89139,87.6674
2023-02-15 05:25:03:510,-0.682053,-1.62847,-9.16687,17.7459,-4.98046,87.8422
2023-02-15 05:25:03:521,-0.708486,-1.11218,-9.96371,16.4317,-5.07303,88.031
2023-02-15 05:25:03:530,-0.8103,-0.630745,-10.6279,15.1713,-5.17293,88.2291
2023-02-15 05:25:03:540,-0.986058,-0.386756,-10.8625,14.0132,-5.27046,88.4371
2023-02-15 05:25:03:550,-1.18141,-0.431505,-10.6149,12.9776,-5.35615,88.6411
2023-02-15 05:25:03:560,-1.28633,-0.55338,-10.1868,12.0481,-5.41936,88.8381
2023-02-15 05:25:03:570,-1.27085,-0.614419,-9.86036,11.1968,-5.46002,89.0246
2023-02-15 05:25:03:580,-1.22528,-0.566061,-9.76815,10.4015,-5.48428,89.1993
2023-02-15 05:25:03:590,-1.18223,-0.466104,-9.84466,9.64542,-5.49912,89.3586
2023-02-15 05:25:03:601,-1.1796,-0.379594,-9.89617,8.92127,-5.50765,89.5078
2023-02-15 05:25:03:610,-1.14552,-0.342726,-9.87837,8.23324,-5.5139,89.6408
2023-02-15 05:25:03:620,-1.10382,-0.314092,-9.85858,7.57948,-5.51574,89.7622
2023-02-15 05:25:03:630,-1.1132,-0.25866,-9.86379,6.95527,-5.51391,89.8733
2023-02-15 05:25:03:640,-1.1399,-0.211795,-9.87705,6.36056,-5.51551,89.9781
2023-02-15 05:25:03:650,-1.28035,-0.255443,-9.6664,4.23307,-5.46532,90.3115
2023-02-15 05:25:03:690,-1.08722,0.0685429,-9.73793,1.90531,-5.24366,90.5031
2023-02-15 05:25:03:740,-0.610064,0.879352,-9.87295,-2.93659,-4.53909,90.5074
2023-02-15 05:25:03:860,-0.807912,1.53267,-9.78855,-6.40753,-4.23812,90.8291
2023-02-15 05:25:04:1,-0.796087,1.56606,-9.81449,-6.56589,-4.21104,90.8625
2023-02-15 05:25:04:10,-0.788372,1.58212,-9.80142,-6.71404,-4.18071,90.8914
2023-02-15 05:25:04:21,-0.777723,1.57104,-9.75189,-6.8494,-4.1482,90.9201
2023-02-15 05:25:04:30,-0.785831,1.57245,-9.70473,-6.97433,-4.11528,90.9451
2023-02-15 05:25:04:41,-0.769188,1.5852,-9.6941,-7.09208,-4.08086,90.9659
2023-02-15 05:25:04:51,-0.767714,1.59379,-9.68385,-7.2085,-4.04706,90.9841
2023-02-15 05:25:04:61,-0.703046,1.61781,-9.72855,-7.52218,-3.93984,91.0114
2023-02-15 05:25:04:90,-0.681068,1.63197,-9.70264,-7.61444,-3.90857,91.0127
2023-02-15 05:25:04:100,-0.668917,1.67632,-9.75194,-7.86202,-3.83553,90.987
2023-02-15 05:25:04:130,-0.656211,1.66302,-9.74138,-7.92922,-3.81024,90.9722
2023-02-15 05:25:04:140,-0.613186,1.63481,-9.71141,-7.98668,-3.78406,90.9542
2023-02-15 05:25:04:150,-0.586289,1.61689,-9.67816,-8.03828,-3.75889,90.9341
2023-02-15 05:25:04:160,-0.591225,1.60659,-9.71223,-8.08612,-3.73731,90.9161
2023-02-15 05:25:04:170,-0.587891,1.61049,-9.73752,-8.13131,-3.71991,90.9002
2023-02-15 05:25:04:181,-0.568869,1.60909,-9.74356,-8.17173,-3.70314,90.8849
2023-02-15 05:25:04:191,-0.549719,1.60452,-9.7245,-8.2071,-3.68487,90.8693
2023-02-15 05:25:04:200,-0.527662,1.59713,-9.72794,-8.23334,-3.66643,90.8564
2023-02-15 05:25:04:210,-0.526466,1.60398,-9.71321,-8.25627,-3.64956,90.8419
2023-02-15 05:25:04:221,-0.552831,1.61196,-9.7043,-8.27772,-3.62975,90.8323
2023-02-15 05:25:04:231,-0.566941,1.61257,-9.69742,-8.29355,-3.61521,90.8275
2023-02-15 05:25:04:241,-0.580004,1.59286,-9.66407,-8.3049,-3.60168,90.8231
2023-02-15 05:25:04:250,-0.595205,1.56431,-9.64437,-8.31214,-3.5842,90.8209
2023-02-15 05:25:04:261,-0.592342,1.54532,-9.64292,-8.31794,-3.56578,90.8197
2023-02-15 05:25:04:271,-0.585545,1.52384,-9.62236,-8.31868,-3.55095,90.8203
2023-02-15 05:25:04:280,-0.587543,1.49707,-9.60012,-8.3151,-3.53084,90.8206
2023-02-15 05:25:04:291,-0.59778,1.48989,-9.57556,-8.31502,-3.51182,90.8203
2023-02-15 05:25:04:301,-0.579435,1.49319,-9.5838,-8.31331,-3.49275,90.8204
2023-02-15 05:25:04:310,-0.597659,1.49256,-9.62369,-8.31545,-3.47419,90.8212
2023-02-15 05:25:04:320,-0.631248,1.50078,-9.65618,-8.31922,-3.45275,90.8219
2023-02-15 05:25:04:330,-0.647281,1.50631,-9.67729,-8.32292,-3.42933,90.8165
2023-02-15 05:25:04:341,-0.644396,1.50154,-9.6825,-8.32128,-3.40193,90.813
2023-02-15 05:25:04:351,-0.588568,1.48794,-9.6822,-8.31583,-3.37573,90.806
2023-02-15 05:25:04:360,-0.566338,1.46548,-9.68508,-8.31398,-3.35253,90.7971
2023-02-15 05:25:04:371,-0.568687,1.4599,-9.68113,-8.30625,-3.33109,90.7834
2023-02-15 05:25:04:381,-0.574014,1.45333,-9.68948,-8.29659,-3.31651,90.7734
2023-02-15 05:25:04:391,-0.571641,1.42951,-9.67145,-8.28665,-3.29662,90.763
2023-02-15 05:25:04:401,-0.529492,1.40364,-9.66008,-8.25887,-3.25489,90.7356
2023-02-15 05:25:04:421,-0.497465,1.3752,-9.64817,-8.23095,-3.2111,90.7066
2023-02-15 05:25:04:441,-0.442699,1.36682,-9.65706,-8.1268,-3.06324,90.651
2023-02-15 05:25:04:511,-0.454413,1.36387,-9.62211,-8.1036,-3.02943,90.6322
2023-02-15 05:25:04:531,-0.449097,1.38726,-9.67804,-8.07716,-2.98836,90.6097
2023-02-15 05:25:04:560,-0.462926,1.41628,-9.70766,-8.06821,-2.97958,90.6095
2023-02-15 05:25:04:571,-0.46755,1.41882,-9.72167,-8.05879,-2.97129,90.6065
2023-02-15 05:25:04:581,-0.475565,1.41101,-9.72495,-8.04195,-2.96117,90.6054
2023-02-15 05:25:04:591,-0.482676,1.41647,-9.71322,-8.02285,-2.95294,90.6031
2023-02-15 05:25:04:601,-0.496582,1.4047,-9.70068,-8.00422,-2.94989,90.6017
2023-02-15 05:25:04:611,-0.502094,1.40563,-9.69446,-7.98019,-2.94878,90.5986
2023-02-15 05:25:04:621,-0.503655,1.39648,-9.68514,-7.95681,-2.9408,90.5963
2023-02-15 05:25:04:631,-0.491257,1.38834,-9.67995,-7.93224,-2.93533,90.5915
2023-02-15 05:25:04:641,-0.4529,1.35432,-9.66557,-7.90027,-2.92827,90.5856
2023-02-15 05:25:04:650,-0.442154,1.33583,-9.66316,-7.87004,-2.92104,90.5775
2023-02-15 05:25:04:660,-0.436942,1.33458,-9.71044,-7.80729,-2.9076,90.5621
2023-02-15 05:25:04:681,-0.430155,1.33357,-9.71765,-7.74927,-2.90514,90.5575
2023-02-15 05:25:04:701,-0.458695,1.33285,-9.68359,-7.72051,-2.9079,90.5571
2023-02-15 05:25:04:711,-0.512339,1.34285,-9.64241,-7.69724,-2.90936,90.5585
2023-02-15 05:25:04:721,-0.539034,1.34489,-9.58461,-7.64771,-2.91197,90.5639
2023-02-15 05:25:04:741,-0.52902,1.34373,-9.56961,-7.62888,-2.91094,90.5666
2023-02-15 05:25:04:751,-0.531028,1.35099,-9.57369,-7.61037,-2.90757,90.5687
2023-02-15 05:25:04:761,-0.519768,1.37251,-9.61108,-7.59069,-2.90612,90.5694
2023-02-15 05:25:04:771,-0.53434,1.42611,-9.69804,-7.557,-2.89774,90.5721
2023-02-15 05:25:04:791,-0.531243,1.44566,-9.73071,-7.53323,-2.89119,90.574
2023-02-15 05:25:04:801,-0.537264,1.47558,-9.75913,-7.50849,-2.88471,90.5741
2023-02-15 05:25:04:811,-0.546206,1.48491,-9.78553,-7.47667,-2.87533,90.5737
2023-02-15 05:25:04:821,-0.56674,1.49818,-9.79943,-7.43415,-2.87174,90.5708
2023-02-15 05:25:04:831,-0.578035,1.49208,-9.81031,-7.38738,-2.86274,90.5672
2023-02-15 05:25:04:841,-0.557528,1.49288,-9.8421,-7.33231,-2.85371,90.5591
2023-02-15 05:25:04:851,-0.521599,1.50594,-9.84498,-7.26995,-2.84198,90.5484
2023-02-15 05:25:04:861,-0.520983,1.49118,-9.7954,-7.20141,-2.82662,90.5298
2023-02-15 05:25:04:871,-0.505885,1.45746,-9.751,-7.12508,-2.81357,90.5122
2023-02-15 05:25:04:881,-0.479647,1.44004,-9.8071,-6.85587,-2.7718,90.4451
2023-02-15 05:25:04:911,-0.451675,1.43357,-9.8154,-6.74805,-2.75649,90.4208
2023-02-15 05:25:04:921,-0.428951,1.41418,-9.83575,-6.63277,-2.73999,90.3961
2023-02-15 05:25:04:931,-0.416481,1.40305,-9.85668,-6.50645,-2.72464,90.3702
2023-02-15 05:25:04:941,-0.439928,1.38121,-9.84788,-6.36614,-2.71483,90.3453
2023-02-15 05:25:04:951,-0.430214,1.34781,-9.83434,-6.06148,-2.69734,90.2966
2023-02-15 05:25:04:971,-0.426241,1.33123,-9.84388,-5.89482,-2.68808,90.2732
2023-02-15 05:25:04:981,-0.444155,1.3168,-9.84289,-5.7171,-2.67525,90.2504
2023-02-15 05:25:04:991,-0.4358,1.28226,-9.84094,-5.52902,-2.66374,90.2256
2023-02-15 05:25:05:1,-0.43233,1.22927,-9.87284,-5.11862,-2.6414,90.1801
2023-02-15 05:25:05:21,-0.465257,1.19186,-9.8874,-4.89559,-2.63569,90.1559
2023-02-15 05:25:05:31,-0.468283,1.16751,-9.91468,-4.66331,-2.62907,90.1342
2023-02-15 05:25:05:41,-0.472883,1.1519,-9.95245,-4.41869,-2.62324,90.1115
2023-02-15 05:25:05:51,-0.4652,1.13226,-9.96372,-4.158,-2.62057,90.0883
2023-02-15 05:25:05:61,-0.472133,1.10886,-9.95233,-3.87986,-2.62087,90.0593
2023-02-15 05:25:05:71,-0.460642,0.77146,-9.8239,-1.47295,-2.60883,89.7973
2023-02-15 05:25:05:141,-0.353627,-0.532301,-9.72052,6.17395,-2.62342,88.9725
2023-02-15 05:25:05:281,-0.34019,-0.719606,-9.71444,6.88237,-2.63638,88.8905
2023-02-15 05:25:05:291,-0.354521,-0.891209,-9.70807,7.61295,-2.64961,88.8071
2023-02-15 05:25:05:301,-0.379938,-1.08007,-9.69354,8.36003,-2.66614,88.7196
2023-02-15 05:25:05:311,-0.397371,-1.2927,-9.66454,9.12095,-2.68433,88.6279
2023-02-15 05:25:05:321,-0.469175,-1.52794,-9.62081,9.89218,-2.70657,88.5342
2023-02-15 05:25:05:331,-0.589046,-1.7796,-9.53195,10.6827,-2.72311,88.4375
2023-02-15 05:25:05:341,-0.733361,-2.02898,-9.39674,11.4753,-2.73982,88.3468
2023-02-15 05:25:05:351,-0.684968,-2.72046,-8.9354,13.8595,-2.72676,88.0815
2023-02-15 05:25:05:381,-0.360595,-3.02545,-8.66675,15.3971,-2.64568,87.9122
2023-02-15 05:25:05:401,-0.352831,-3.09937,-8.63611,16.1336,-2.60879,87.8356
2023-02-15 05:25:05:411,-0.453421,-3.14846,-8.67474,16.8444,-2.57639,87.7637
2023-02-15 05:25:05:421,-0.432346,-3.18518,-8.7277,17.5319,-2.54076,87.7014
2023-02-15 05:25:05:431,-0.275514,-3.26087,-8.72675,18.2036,-2.49462,87.6404
2023-02-15 05:25:05:441,-0.120414,-3.35891,-8.66229,18.8615,-2.44604,87.5708
2023-02-15 05:25:05:451,-0.327475,-3.96783,-8.56081,28.714,-2.14145,86.3762
2023-02-15 05:25:05:601,-0.148733,-4.08304,-8.46803,29.5001,-2.10379,86.2801
2023-02-15 05:25:05:611,-0.0872821,-4.17365,-8.41278,30.3105,-2.06698,86.1781
2023-02-15 05:25:05:621,-0.440224,-5.9416,-7.34211,38.9669,-1.69223,85.2292
2023-02-15 05:25:05:711,-0.457721,-6.15643,-7.21302,40.0741,-1.61909,85.1137
2023-02-15 05:25:05:721,-0.436254,-6.36135,-7.07028,41.1854,-1.54187,84.9886
2023-02-15 05:25:05:731,-0.223302,-6.84452,-6.57363,43.4332,-1.35156,84.7226
2023-02-15 05:25:05:751,0.00889505,-7.20687,-6.20181,44.5712,-1.2372,84.5873
2023-02-15 05:25:05:761,0.208357,-7.65066,-5.79994,45.7071,-1.11875,84.4528
2023-02-15 05:25:05:771,0.247159,-7.96936,-5.48439,46.8198,-1.01084,84.3218
2023-02-15 05:25:05:781,0.224413,-8.19241,-5.31009,47.8873,-0.912883,84.2009
2023-02-15 05:25:05:791,0.274766,-8.39132,-5.106,48.9037,-0.824292,84.0851
2023-02-15 05:25:05:801,0.309202,-8.54571,-4.95048,49.8609,-0.751131,83.9682
2023-02-15 05:25:05:811,0.175999,-8.75481,-4.79011,51.5937,-0.63327,83.7806
2023-02-15 05:25:05:831,0.26981,-8.88747,-4.67948,52.3794,-0.580536,83.7009
2023-02-15 05:25:05:841,0.336823,-9.04429,-4.55896,53.1107,-0.538901,83.6369
2023-02-15 05:25:05:851,0.24262,-9.20917,-4.39508,53.7917,-0.512348,83.5883
2023-02-15 05:25:05:861,0.211671,-9.37297,-4.29103,54.4032,-0.49847,83.5458
2023-02-15 05:25:05:871,0.253889,-9.4733,-4.26743,54.9503,-0.497829,83.5168
2023-02-15 05:25:05:881,0.217331,-9.51362,-4.2744,55.416,-0.511877,83.4908
2023-02-15 05:25:05:891,0.121835,-9.50977,-4.35221,55.8081,-0.543863,83.4734
2023-02-15 05:25:05:901,0.0743714,-9.54449,-4.36104,56.1355,-0.581441,83.4565
2023-02-15 05:25:05:911,0.10932,-9.6205,-4.34341,56.405,-0.624891,83.4401
2023-02-15 05:25:05:921,0.125035,-9.6383,-4.3542,56.6175,-0.6766,83.4378
2023-02-15 05:25:05:931,0.0462379,-9.64339,-4.35514,56.7769,-0.739472,83.4491
2023-02-15 05:25:05:941,-0.0644244,-9.60769,-4.34564,56.8771,-0.810809,83.4662
2023-02-15 05:25:05:951,-0.151615,-9.54241,-4.36844,56.9248,-0.888036,83.488
2023-02-15 05:25:05:961,-0.215064,-9.46307,-4.41005,56.9208,-0.970235,83.5212
2023-02-15 05:25:05:971,-0.201208,-9.36029,-4.4831,56.8624,-1.05124,83.5631
2023-02-15 05:25:05:981,-0.153235,-9.24944,-4.5921,56.7549,-1.13177,83.6075
2023-02-15 05:25:05:991,-0.121911,-9.14552,-4.68562,56.6086,-1.21288,83.6541
2023-02-15 05:25:06:1,-0.152958,-9.05835,-4.73241,56.4283,-1.3038,83.7013
2023-02-15 05:25:06:11,-0.215397,-8.99075,-4.77737,56.2136,-1.39865,83.7526
2023-02-15 05:25:06:21,-0.282475,-8.94659,-4.83874,55.9753,-1.49391,83.8057
2023-02-15 05:25:06:31,-0.323748,-8.93356,-4.85087,55.7031,-1.59443,83.8605
2023-02-15 05:25:06:41,-0.0245881,-8.92662,-4.91465,54.7024,-1.88029,84.0201
2023-02-15 05:25:06:71,-0.121256,-8.87512,-4.92535,54.2936,-1.9882,84.0634
2023-02-15 05:25:06:81,-0.544884,-8.79997,-4.90751,53.3664,-2.24457,84.1481
2023-02-15 05:25:06:101,-0.61436,-8.73682,-4.91725,52.8397,-2.37673,84.1976
2023-02-15 05:25:06:111,-0.549915,-8.64363,-4.98883,52.2663,-2.499,84.2532
2023-02-15 05:25:06:121,-0.418236,-8.51368,-5.18279,51.6382,-2.60959,84.315
2023-02-15 05:25:06:131,-0.399814,-8.36078,-5.32715,50.9628,-2.71673,84.3789
2023-02-15 05:25:06:141,-0.524674,-8.21753,-5.35262,50.2514,-2.82686,84.4421
2023-02-15 05:25:06:151,-0.646501,-8.09419,-5.31042,49.5072,-2.93842,84.5127
2023-02-15 05:25:06:161,-0.654145,-7.97361,-5.34025,48.7171,-3.04794,84.5801
2023-02-15 05:25:06:171,-0.582317,-7.8102,-5.48538,47.8832,-3.14687,84.649
2023-02-15 05:25:06:181,-0.537022,-7.60462,-5.70292,46.9967,-3.23724,84.7173
2023-02-15 05:25:06:191,-0.521617,-7.40211,-5.94132,46.0642,-3.32283,84.7907
2023-02-15 05:25:06:201,-0.515444,-7.22751,-6.19133,45.0984,-3.40489,84.8659
2023-02-15 05:25:06:211,-0.520985,-7.02319,-6.43261,44.0997,-3.48842,84.9409
2023-02-15 05:25:06:221,-0.623265,-6.86062,-6.53331,43.0817,-3.57636,85.0133
2023-02-15 05:25:06:231,-0.754415,-6.68963,-6.5587,42.0437,-3.66402,85.0792
2023-02-15 05:25:06:241,-0.871191,-6.50166,-6.60696,40.9879,-3.75156,85.1434
2023-02-15 05:25:06:251,-0.918533,-6.28293,-6.74601,39.9089,-3.82894,85.2072
2023-02-15 05:25:06:261,-0.914951,-6.03088,-6.95313,38.8051,-3.89792,85.268
2023-02-15 05:25:06:271,-0.817929,-5.80082,-7.15981,37.682,-3.95708,85.3251
2023-02-15 05:25:06:281,-0.619743,-5.39115,-7.5228,35.4241,-4.05792,85.4172
2023-02-15 05:25:06:301,-0.649705,-4.98021,-7.77096,33.147,-4.18431,85.4938
2023-02-15 05:25:06:321,-0.647452,-3.80524,-8.52603,26.3711,-4.64831,85.75
2023-02-15 05:25:06:381,-0.476694,-3.5313,-8.76422,25.2556,-4.71877,85.8118
2023-02-15 05:25:06:391,-0.618495,-3.06112,-8.91313,23.0688,-4.89272,85.9715
2023-02-15 05:25:06:411,-0.940585,-2.25306,-9.05699,18.0135,-5.35306,86.6236
2023-02-15 05:25:06:461,-0.911039,-1.871,-9.36331,16.1116,-5.47227,86.9743
2023-02-15 05:25:06:481,-0.862802,-1.65496,-9.52292,15.189,-5.51488,87.1666
2023-02-15 05:25:06:491,-0.906226,-1.31935,-9.65294,13.4317,-5.59311,87.5791
2023-02-15 05:25:06:511,-0.994211,-1.21856,-9.67663,12.6064,-5.61864,87.8108
2023-02-15 05:25:06:521,-1.13294,-1.04759,-9.7047,11.0489,-5.6268,88.3116
2023-02-15 05:25:06:541,-1.08916,-0.976961,-9.69625,10.3133,-5.60399,88.5703
2023-02-15 05:25:06:551,-1.01788,-0.907445,-9.68915,9.60097,-5.56601,88.8259
2023-02-15 05:25:06:561,-1.00103,-0.826873,-9.65897,8.90953,-5.52384,89.0752
2023-02-15 05:25:06:570,-0.983905,-0.736979,-9.62625,8.23622,-5.48192,89.3128
2023-02-15 05:25:06:580,-0.949817,-0.616001,-9.67923,7.57754,-5.44236,89.5403
2023-02-15 05:25:06:590,-0.923446,-0.484376,-9.7653,6.93442,-5.40313,89.7557
2023-02-15 05:25:06:600,-0.937229,-0.399411,-9.80794,6.30648,-5.3699,89.9549
2023-02-15 05:25:06:610,-1.01299,-0.353929,-9.79018,5.70207,-5.33663,90.1419
2023-02-15 05:25:06:621,-1.11842,-0.343376,-9.74677,5.11881,-5.30871,90.3193
2023-02-15 05:25:06:631,-1.24624,-0.221527,-9.66839,3.98591,-5.25085,90.6366
2023-02-15 05:25:06:651,-1.2369,-0.120441,-9.69057,3.43015,-5.21488,90.7738
2023-02-15 05:25:06:661,-1.17525,-0.0045475,-9.73927,2.8838,-5.17023,90.8954
2023-02-15 05:25:06:671,-1.10102,0.114859,-9.80209,2.34643,-5.12034,91.0054
2023-02-15 05:25:06:681,-1.0467,0.208546,-9.86099,1.81936,-5.06884,91.0938
2023-02-15 05:25:06:691,-1.05374,0.298831,-9.8897,1.31174,-5.01706,91.1686
2023-02-15 05:25:06:701,-1.06186,0.362078,-9.89033,0.819944,-4.96409,91.2312
2023-02-15 05:25:06:711,-1.03763,0.422225,-9.85778,0.351272,-4.91031,91.2825
2023-02-15 05:25:06:721,-1.00897,0.488988,-9.84087,-0.102773,-4.853,91.3231
2023-02-15 05:25:06:731,-0.943041,0.557476,-9.85214,-0.542109,-4.79066,91.3534
2023-02-15 05:25:06:741,-0.850508,0.627003,-9.88591,-0.970586,-4.72661,91.3743
2023-02-15 05:25:06:751,-0.757238,0.718559,-9.9431,-1.38423,-4.66656,91.3877
2023-02-15 05:25:06:761,-0.7197,0.810505,-9.97707,-1.77845,-4.60544,91.403
2023-02-15 05:25:06:771,-0.71131,0.905245,-9.98103,-2.15507,-4.54507,91.4201
2023-02-15 05:25:06:781,-0.719542,0.981214,-9.96454,-2.5107,-4.48531,91.4412
2023-02-15 05:25:06:791,-0.698346,1.01816,-9.90485,-2.85195,-4.42402,91.462
2023-02-15 05:25:06:801,-0.686634,1.02616,-9.80349,-3.17233,-4.36138,91.4841
2023-02-15 05:25:06:811,-0.678055,1.0503,-9.73115,-3.48062,-4.30407,91.5028
2023-02-15 05:25:06:821,-0.62518,1.09378,-9.7006,-3.78313,-4.24789,91.5206
2023-02-15 05:25:06:831,-0.622544,1.13594,-9.71147,-4.07986,-4.19786,91.5383
2023-02-15 05:25:06:841,-0.620094,1.18728,-9.72823,-4.37355,-4.15525,91.5506
2023-02-15 05:25:06:851,-0.634048,1.22555,-9.74524,-4.66304,-4.11978,91.5637
2023-02-15 05:25:06:861,-0.670238,1.35557,-9.7757,-5.49194,-4.04431,91.6078
2023-02-15 05:25:06:891,-0.693325,1.36411,-9.75749,-5.7531,-4.02631,91.6217
2023-02-15 05:25:06:901,-0.705953,1.39922,-9.71712,-6.00585,-4.0055,91.6334
2023-02-15 05:25:06:911,-0.750432,1.4461,-9.6557,-6.72352,-3.94353,91.6493
2023-02-15 05:25:06:941,-0.735366,1.47751,-9.65788,-6.95526,-3.91651,91.6473
2023-02-15 05:25:06:951,-0.729279,1.50918,-9.67863,-7.18045,-3.89077,91.6435
2023-02-15 05:25:06:961,-0.634903,1.61935,-9.73373,-7.83659,-3.79767,91.6092
2023-02-15 05:25:06:991,-0.613949,1.66071,-9.74707,-8.04322,-3.77172,91.5921
2023-02-15 05:25:07:1,-0.609579,1.69301,-9.72658,-8.24267,-3.74783,91.5752
2023-02-15 05:25:07:11,-0.627302,1.71994,-9.66428,-8.43559,-3.72304,91.5565
2023-02-15 05:25:07:21,-0.633729,1.72157,-9.63963,-8.62203,-3.70014,91.5379
2023-02-15 05:25:07:31,-0.62773,1.74656,-9.62294,-8.80315,-3.67698,91.5144
2023-02-15 05:25:07:41,-0.632249,1.78138,-9.62851,-8.97779,-3.6506,91.4908
2023-02-15 05:25:07:51,-0.634319,1.84205,-9.68316,-9.15224,-3.62273,91.4631
2023-02-15 05:25:07:61,-0.607676,1.89222,-9.75893,-9.47715,-3.57343,91.401
2023-02-15 05:25:07:81,-0.57087,1.94795,-9.77055,-9.62689,-3.54798,91.3684
2023-02-15 05:25:07:91,-0.541529,1.99545,-9.7982,-9.76187,-3.52823,91.3303
2023-02-15 05:25:07:101,-0.53012,1.99496,-9.82112,-9.88352,-3.5084,91.2936
2023-02-15 05:25:07:111,-0.484972,1.99126,-9.79966,-10.0888,-3.4777,91.2196
2023-02-15 05:25:07:131,-0.477538,1.98035,-9.77071,-10.1736,-3.46526,91.1839
2023-02-15 05:25:07:141,-0.448431,1.97591,-9.76515,-10.2444,-3.45033,91.1506
2023-02-15 05:25:07:151,-0.425617,1.96236,-9.74632,-10.3088,-3.43184,91.1185
2023-02-15 05:25:07:161,-0.413125,1.95644,-9.70457,-10.3667,-3.41433,91.0934
2023-02-15 05:25:07:171,-0.390664,1.94445,-9.69021,-10.4233,-3.39716,91.0743
2023-02-15 05:25:07:181,-0.462098,1.98998,-9.69667,-10.515,-3.3679,91.0533
2023-02-15 05:25:07:201,-0.508096,2.00354,-9.67281,-10.554,-3.35552,91.0474
2023-02-15 05:25:07:211,-0.519513,1.99751,-9.64352,-10.5867,-3.34289,91.0453
2023-02-15 05:25:07:221,-0.524372,1.99312,-9.63005,-10.6136,-3.33017,91.0474
2023-02-15 05:25:07:231,-0.526613,1.98821,-9.61078,-10.6362,-3.31881,91.0494
2023-02-15 05:25:07:241,-0.524038,1.9729,-9.60163,-10.6503,-3.30342,91.0524
2023-02-15 05:25:07:251,-0.524576,1.95236,-9.59357,-10.657,-3.29288,91.0539
2023-02-15 05:25:07:261,-0.526788,1.95239,-9.57773,-10.6625,-3.27713,91.0594
2023-02-15 05:25:07:271,-0.52428,1.94798,-9.57879,-10.6685,-3.26416,91.0642
2023-02-15 05:25:07:281,-0.518885,1.94572,-9.60196,-10.6714,-3.25329,91.068
2023-02-15 05:25:07:291,-0.514139,1.93642,-9.65422,-10.67,-3.21875,91.0824
2023-02-15 05:25:07:321,-0.516914,1.93339,-9.67277,-10.6646,-3.20555,91.0871
2023-02-15 05:25:07:331,-0.532629,1.93182,-9.67844,-10.6565,-3.19612,91.091
2023-02-15 05:25:07:341,-0.551504,1.92096,-9.64094,-10.6492,-3.18759,91.0957
2023-02-15 05:25:07:351,-0.569263,1.89655,-9.57197,-10.6377,-3.17703,91.0992
2023-02-15 05:25:07:361,-0.567203,1.89783,-9.54181,-10.6223,-3.1687,91.1002
2023-02-15 05:25:07:371,-0.594565,1.89625,-9.5562,-10.6122,-3.16184,91.0989
2023-02-15 05:25:07:381,-0.60405,1.89342,-9.56932,-10.5993,-3.15184,91.0992
2023-02-15 05:25:07:391,-0.57009,1.88499,-9.57369,-10.5861,-3.14183,91.0935
2023-02-15 05:25:07:401,-0.558698,1.87827,-9.57215,-10.5673,-3.13046,91.0878
2023-02-15 05:25:07:411,-0.545456,1.88025,-9.58594,-10.5466,-3.116,91.0801
2023-02-15 05:25:07:421,-0.536678,1.88543,-9.61194,-10.5256,-3.1057,91.0717
2023-02-15 05:25:07:431,-0.541841,1.89435,-9.64001,-10.5019,-3.09542,91.0609
2023-02-15 05:25:07:441,-0.561739,1.88833,-9.64927,-10.4811,-3.08613,91.0508
2023-02-15 05:25:07:451,-0.552845,1.87587,-9.65385,-10.4562,-3.07391,91.0414
2023-02-15 05:25:07:461,-0.540137,1.87297,-9.66622,-10.4262,-3.0606,91.0323
2023-02-15 05:25:07:471,-0.511788,1.86826,-9.65507,-10.3889,-3.04283,91.0193
2023-02-15 05:25:07:481,-0.469445,1.85098,-9.65356,-10.3499,-3.02693,91.0063
2023-02-15 05:25:07:491,-0.461685,1.81842,-9.65389,-10.3068,-3.00922,90.9909
2023-02-15 05:25:07:501,-0.466183,1.81852,-9.64118,-10.2635,-2.99279,90.9803
2023-02-15 05:25:07:511,-0.470241,1.78421,-9.62099,-10.2178,-2.98326,90.9677
2023-02-15 05:25:07:521,-0.462882,1.76676,-9.59761,-10.1674,-2.9732,90.9545
2023-02-15 05:25:07:531,-0.459736,1.75088,-9.58815,-10.1218,-2.96606,90.9467
2023-02-15 05:25:07:541,-0.460887,1.72129,-9.59814,-10.0732,-2.95766,90.9403
2023-02-15 05:25:07:551,-0.456143,1.71347,-9.62622,-10.0211,-2.9492,90.9344
2023-02-15 05:25:07:561,-0.468473,1.71349,-9.65223,-9.97114,-2.94076,90.9302
2023-02-15 05:25:07:571,-0.490528,1.70549,-9.65009,-9.92048,-2.9345,90.9267
2023-02-15 05:25:07:581,-0.497181,1.67954,-9.62562,-9.86955,-2.93154,90.9263
2023-02-15 05:25:07:591,-0.483758,1.65502,-9.6142,-9.8183,-2.9276,90.925
2023-02-15 05:25:07:601,-0.487667,1.64028,-9.61222,-9.76905,-2.9247,90.9247
2023-02-15 05:25:07:611,-0.474573,1.62891,-9.60101,-9.71953,-2.92354,90.9259
2023-02-15 05:25:07:621,-0.457151,1.60662,-9.5924,-9.67129,-2.92179,90.926
2023-02-15 05:25:07:631,-0.464095,1.58884,-9.58915,-9.62044,-2.92323,90.9281
2023-02-15 05:25:07:641,-0.468387,1.59744,-9.60684,-9.57252,-2.926,90.9279
2023-02-15 05:25:07:651,-0.497513,1.58965,-9.64838,-9.52657,-2.93182,90.9348
2023-02-15 05:25:07:661,-0.52421,1.58714,-9.64996,-9.48007,-2.93937,90.9423
2023-02-15 05:25:07:671,-0.518929,1.57574,-9.64135,-9.43254,-2.93906,90.9517
2023-02-15 05:25:07:681,-0.529093,1.55862,-9.62679,-9.38522,-2.94246,90.9608
2023-02-15 05:25:07:691,-0.55221,1.5088,-9.63028,-9.03172,-2.94611,91.0138
2023-02-15 05:25:07:771,-0.550469,1.50174,-9.64041,-8.98963,-2.94723,91.0107
2023-02-15 05:25:07:781,-0.533479,1.51613,-9.64674,-8.91164,-2.94813,91.0033
2023-02-15 05:25:07:801,-0.53597,1.51298,-9.6497,-8.87193,-2.94862,90.9939
2023-02-15 05:25:07:811,-0.502957,1.4758,-9.58794,-8.79471,-2.9463,90.9822
2023-02-15 05:25:07:831,-0.50871,1.45679,-9.58795,-8.7542,-2.94647,90.9779
2023-02-15 05:25:07:841,-0.499168,1.46401,-9.61859,-8.71878,-2.94637,90.9732
2023-02-15 05:25:07:851,-0.508661,1.46885,-9.61463,-8.68536,-2.9423,90.9668
2023-02-15 05:25:07:861,-0.514206,1.4528,-9.60685,-8.65172,-2.93728,90.9627
2023-02-15 05:25:07:871,-0.517742,1.44246,-9.62617,-8.59216,-2.92311,90.9563
2023-02-15 05:25:07:891,-0.519863,1.45945,-9.63751,-8.56239,-2.91485,90.9506
2023-02-15 05:25:07:901,-0.499009,1.45993,-9.68902,-8.50411,-2.90281,90.9319
2023-02-15 05:25:07:921,-0.508012,1.45518,-9.69207,-8.47429,-2.89728,90.9214
2023-02-15 05:25:07:931,-0.496515,1.45452,-9.71605,-8.43999,-2.89017,90.9079
2023-02-15 05:25:07:941,-0.46461,1.46071,-9.74652,-8.40319,-2.88416,90.8945
2023-02-15 05:25:07:951,-0.431859,1.45534,-9.73848,-8.36385,-2.87673,90.879
2023-02-15 05:25:07:961,-0.40984,1.42653,-9.7319,-8.31971,-2.87322,90.8632
2023-02-15 05:25:07:971,-0.410278,1.40312,-9.70224,-8.27684,-2.86828,90.8482
2023-02-15 05:25:07:981,-0.420142,1.38339,-9.68248,-8.23012,-2.87027,90.8347
2023-02-15 05:25:07:991,-0.417243,1.37204,-9.62588,-8.18554,-2.88093,90.8203
2023-02-15 05:25:08:1,-0.419102,1.35228,-9.58901,-8.14303,-2.88882,90.8106
2023-02-15 05:25:08:11,-0.435592,1.32945,-9.58604,-8.10403,-2.8982,90.803
2023-02-15 05:25:08:21,-0.450032,1.32858,-9.60358,-8.06466,-2.90904,90.7954
2023-02-15 05:25:08:31,-0.451295,1.34031,-9.60135,-8.03051,-2.91496,90.7903
2023-02-15 05:25:08:41,-0.534987,1.32568,-9.65324,-7.79971,-2.98059,90.8039
2023-02-15 05:25:08:111,-0.536252,1.33254,-9.66697,-7.77004,-2.98735,90.8072
2023-02-15 05:25:08:121,-0.530599,1.36749,-9.71071,-7.73811,-2.99135,90.8097
2023-02-15 05:25:08:131,-0.566569,1.36555,-9.70396,-7.55863,-3.00699,90.8057
2023-02-15 05:25:08:181,-0.549244,1.36382,-9.71159,-7.51354,-3.00769,90.802
2023-02-15 05:25:08:191,-0.520791,1.34735,-9.72837,-7.30554,-3.01802,90.7552
2023-02-15 05:25:08:231,-0.520599,1.3405,-9.75171,-7.2509,-3.02505,90.7399
2023-02-15 05:25:08:241,-0.520405,1.34682,-9.78542,-7.19022,-3.03632,90.7245
2023-02-15 05:25:08:251,-0.524993,1.35955,-9.81936,-7.12518,-3.04825,90.7087
2023-02-15 05:25:08:261,-0.531036,1.37034,-9.82324,-7.0541,-3.05607,90.6979
2023-02-15 05:25:08:271,-0.531332,1.36424,-9.81347,-6.9736,-3.06544,90.685
2023-02-15 05:25:08:281,-0.545206,1.35903,-9.81274,-6.88351,-3.07111,90.6688
2023-02-15 05:25:08:291,-0.571151,1.37277,-9.81748,-6.78785,-3.07754,90.6529
2023-02-15 05:25:08:301,-0.557972,1.36058,-9.80823,-6.68164,-3.08556,90.6349
2023-02-15 05:25:08:311,-0.54161,1.34894,-9.79114,-6.569,-3.08898,90.6122
2023-02-15 05:25:08:321,-0.559551,1.35078,-9.79022,-6.44689,-3.09857,90.593
2023-02-15 05:25:08:331,-0.563982,1.35067,-9.82394,-6.3183,-3.11046,90.57
2023-02-15 05:25:08:341,-0.553672,1.3677,-9.85197,-6.18043,-3.12164,90.5473
2023-02-15 05:25:08:351,-0.547476,1.35818,-9.85953,-6.03605,-3.13587,90.5214
2023-02-15 05:25:08:361,-0.523463,1.373,-9.87292,-5.88007,-3.14828,90.4948
2023-02-15 05:25:08:371,-0.520623,1.39345,-9.83077,-5.54655,-3.1826,90.4319
2023-02-15 05:25:08:391,-0.522636,1.39046,-9.83399,-5.36656,-3.20147,90.4026
2023-02-15 05:25:08:402,-0.532705,1.39768,-9.8848,-5.17472,-3.22177,90.3689
2023-02-15 05:25:08:411,-0.555539,1.35982,-9.93729,-4.96731,-3.24774,90.3323
2023-02-15 05:25:08:421,-0.58228,1.32507,-9.96199,-4.74265,-3.27053,90.2966
2023-02-15 05:25:08:431,-0.57806,1.28185,-9.98235,-4.50174,-3.29226,90.2574
2023-02-15 05:25:08:441,-0.572553,1.22931,-9.96624,-4.24278,-3.31649,90.2172
2023-02-15 05:25:08:451,-0.554014,1.16079,-9.96414,-3.9632,-3.3431,90.1758
2023-02-15 05:25:08:461,-0.5425,1.09248,-9.9545,-3.66384,-3.36821,90.1316
2023-02-15 05:25:08:471,-0.671938,0.184307,-9.78789,0.462882,-3.64965,89.5629
2023-02-15 05:25:08:581,-0.641298,0.0397812,-9.71428,1.34554,-3.65798,89.4389
2023-02-15 05:25:08:601,-0.618594,-0.0315018,-9.71725,1.80116,-3.65666,89.3698
2023-02-15 05:25:08:611,-0.621336,-0.0626547,-9.72307,2.26108,-3.65934,89.2991
2023-02-15 05:25:08:621,-0.549038,-0.111182,-9.70938,4.15269,-3.65428,88.9975
2023-02-15 05:25:08:661,-0.546571,-0.0720649,-9.6687,4.63802,-3.66031,88.9177
2023-02-15 05:25:08:671,-0.593259,-0.0345805,-9.94993,6.71302,-3.73395,88.5749
2023-02-15 05:25:08:711,-0.680627,-0.0833435,-10.072,7.29785,-3.76338,88.4931
2023-02-15 05:25:08:721,-0.715901,-0.357872,-10.1354,8.61898,-3.80429,88.32
2023-02-15 05:25:08:742,-0.628153,-0.895243,-9.88024,10.1616,-3.82587,88.137
2023-02-15 05:25:08:762,-0.489614,-1.70779,-9.26048,12.7783,-3.83304,87.807
2023-02-15 05:25:08:791,-0.491337,-1.88989,-9.25444,13.6902,-3.84805,87.6828
2023-02-15 05:25:08:801,-0.558953,-2.03382,-9.2535,14.6139,-3.8706,87.5541
2023-02-15 05:25:08:811,-0.63249,-2.38573,-9.16113,16.5157,-3.92919,87.2785
2023-02-15 05:25:08:831,-0.680923,-2.5719,-9.03632,17.4914,-3.95413,87.1336
2023-02-15 05:25:08:841,-0.727339,-2.75926,-8.87916,18.4866,-3.97527,86.9869
2023-02-15 05:25:08:851,-0.693738,-2.94724,-8.73443,19.496,-3.98929,86.8364
2023-02-15 05:25:08:861,-0.5879,-3.31328,-8.54135,21.5446,-3.9952,86.5208
2023-02-15 05:25:08:882,-0.596132,-3.42212,-8.47377,22.574,-4.00128,86.3575
2023-02-15 05:25:08:891,-0.750055,-3.468,-8.48857,23.6038,-4.0063,86.184
2023-02-15 05:25:08:901,-0.758043,-3.54664,-8.58069,24.64,-3.99959,86.0077
2023-02-15 05:25:08:911,-0.589266,-3.7078,-8.60314,25.695,-3.97404,85.836
2023-02-15 05:25:08:921,-0.442937,-3.87461,-8.58761,26.7666,-3.93604,85.662
2023-02-15 05:25:08:931,-0.440429,-4.03589,-8.49203,27.8635,-3.90679,85.4785
2023-02-15 05:25:08:941,-0.540741,-4.14303,-8.36603,28.9703,-3.88329,85.2868
2023-02-15 05:25:08:951,-0.63346,-4.25374,-8.18443,30.1011,-3.85947,85.0982
2023-02-15 05:25:08:961,-0.631923,-4.41448,-7.92507,31.2604,-3.82688,84.9088
2023-02-15 05:25:08:971,-0.586712,-4.58844,-7.70944,32.4429,-3.7792,84.7267
2023-02-15 05:25:08:982,-0.46361,-4.75542,-7.54935,33.6372,-3.71861,84.5452
2023-02-15 05:25:08:992,-0.298059,-4.89751,-7.5007,34.8437,-3.65166,84.3619
2023-02-15 05:25:09:2,-0.202285,-5.03353,-7.56416,36.0599,-3.58445,84.1724
2023-02-15 05:25:09:12,-0.208497,-5.25442,-7.55681,37.2852,-3.52014,83.9832
2023-02-15 05:25:09:22,-0.30058,-5.55231,-7.40405,38.5374,-3.46383,83.7877
2023-02-15 05:25:09:31,-0.43418,-5.82216,-7.24005,39.8052,-3.41232,83.6016
2023-02-15 05:25:09:41,-0.608972,-6.08511,-6.92948,41.0978,-3.36083,83.4251
2023-02-15 05:25:09:51,-0.661137,-6.36843,-6.60581,42.4144,-3.29884,83.2582
2023-02-15 05:25:09:61,-0.555173,-6.75413,-6.2595,43.7476,-3.21887,83.1055
2023-02-15 05:25:09:71,-0.37313,-7.1484,-5.87669,45.0864,-3.12536,82.951
2023-02-15 05:25:09:81,-0.241981,-7.49894,-5.59784,46.4199,-3.02674,82.8117
2023-02-15 05:25:09:91,-0.119807,-8.1819,-5.15873,49.015,-2.82713,82.5588
2023-02-15 05:25:09:112,-0.0826168,-8.47839,-4.97787,50.2524,-2.73561,82.4379
2023-02-15 05:25:09:122,-0.00796182,-8.76716,-4.8265,51.4461,-2.65043,82.3333
2023-02-15 05:25:09:132,-0.0622261,-9.035,-4.50215,52.598,-2.58184,82.2263
2023-02-15 05:25:09:142,-0.0343439,-10.075,-3.48276,55.7511,-2.4251,81.9634
2023-02-15 05:25:09:172,0.016726,-10.3623,-3.32035,56.6587,-2.38747,81.9043
2023-02-15 05:25:09:182,-0.0172931,-10.6416,-3.15222,57.4617,-2.36707,81.8594
2023-02-15 05:25:09:191,-0.155463,-10.8306,-3.01592,58.1581,-2.36295,81.8213
2023-02-15 05:25:09:202,-0.310487,-10.9181,-2.98611,58.7408,-2.37271,81.797
2023-02-15 05:25:09:212,-0.371498,-10.9539,-3.01305,59.2103,-2.39257,81.792
2023-02-15 05:25:09:222,-0.317537,-10.9689,-3.03707,59.5766,-2.41563,81.8085
2023-02-15 05:25:09:231,-0.233468,-10.9564,-3.02299,59.844,-2.44439,81.8393
2023-02-15 05:25:09:242,-0.203575,-10.8983,-3.0215,60.0136,-2.48016,81.8807
2023-02-15 05:25:09:252,-0.287101,-10.7831,-3.07151,60.0933,-2.53139,81.9286
2023-02-15 05:25:09:262,-0.414063,-10.5956,-3.22638,60.0704,-2.59343,81.9793
2023-02-15 05:25:09:271,-0.445867,-10.3888,-3.41602,59.9587,-2.66396,82.0411
2023-02-15 05:25:09:281,-0.335833,-10.2606,-3.49272,59.7789,-2.73538,82.1106
2023-02-15 05:25:09:291,-0.133253,-10.2403,-3.45664,59.5373,-2.80447,82.1848
2023-02-15 05:25:09:302,-0.0515125,-10.1935,-3.43394,59.2341,-2.87746,82.2601
2023-02-15 05:25:09:311,-0.13242,-10.0597,-3.48498,58.8482,-2.97019,82.3306
2023-02-15 05:25:09:321,-0.288397,-9.87299,-3.61552,58.3791,-3.07972,82.3933
2023-02-15 05:25:09:331,-0.374928,-9.65715,-3.82508,57.8315,-3.20042,82.4506
2023-02-15 05:25:09:342,-0.396039,-9.4245,-4.09369,57.2044,-3.32554,82.5076
2023-02-15 05:25:09:352,-0.382811,-9.23431,-4.29889,56.5196,-3.4515,82.5638
2023-02-15 05:25:09:362,-0.37283,-9.12811,-4.40519,55.7901,-3.58875,82.6158
2023-02-15 05:25:09:371,-0.50732,-9.03761,-4.45083,55.0136,-3.73653,82.6669
2023-02-15 05:25:09:381,-1.01233,-8.77149,-4.51004,53.3116,-4.05342,82.7727
2023-02-15 05:25:09:402,-1.03778,-8.63015,-4.58206,52.3825,-4.20262,82.847
2023-02-15 05:25:09:411,-0.829879,-8.5205,-4.74165,51.3977,-4.32891,82.9347
2023-02-15 05:25:09:421,-0.669652,-8.33554,-4.98781,50.3483,-4.43847,83.0324
2023-02-15 05:25:09:432,-0.656523,-8.04305,-5.2737,49.2326,-4.54982,83.1331
2023-02-15 05:25:09:442,-0.740682,-7.76877,-5.49447,48.0621,-4.66538,83.237
2023-02-15 05:25:09:452,-0.887987,-7.58522,-5.58515,46.8552,-4.79299,83.3415
2023-02-15 05:25:09:462,-0.955857,-7.46079,-5.62077,45.6235,-4.91635,83.4595
2023-02-15 05:25:09:472,-0.900727,-7.26505,-5.71218,44.3461,-5.03155,83.5932
2023-02-15 05:25:09:481,-0.769079,-6.98791,-5.9382,43.0191,-5.13768,83.7341
2023-02-15 05:25:09:492,-0.782748,-5.95575,-6.78299,38.7544,-5.47723,84.1964
2023-02-15 05:25:09:521,-0.783631,-2.24472,-8.70442,21.6912,-6.57156,87.1251
2023-02-15 05:25:09:631,-1.23389,-1.51684,-8.95513,18.687,-6.68505,87.7713
2023-02-15 05:25:09:651,-1.47086,-1.21716,-9.05464,17.2541,-6.74672,88.0934
2023-02-15 05:25:09:662,-1.55349,-0.947888,-9.28042,15.8673,-6.7839,88.4169
2023-02-15 05:25:09:672,-1.50252,-0.689124,-9.55567,14.5388,-6.79791,88.7365
2023-02-15 05:25:09:682,-1.41878,-0.488916,-9.70209,13.2666,-6.78037,89.05
2023-02-15 05:25:09:691,-1.36108,-0.39044,-9.71227,12.0596,-6.73949,89.3416
2023-02-15 05:25:09:702,-1.3588,-0.312772,-9.64273,10.9131,-6.68075,89.6201
2023-02-15 05:25:09:712,-1.39852,-0.164899,-9.6347,9.81359,-6.61647,89.8758
2023-02-15 05:25:09:722,-1.36663,0.345526,-9.88723,6.76235,-6.37507,90.5402
2023-02-15 05:25:09:752,-1.287,0.402113,-9.91464,5.84146,-6.27057,90.718
2023-02-15 05:25:09:761,-1.2532,0.399936,-9.80477,4.96776,-6.15355,90.8781
2023-02-15 05:25:09:771,-1.18996,0.425588,-9.74599,4.13084,-6.0341,91.0218
2023-02-15 05:25:09:781,-1.03058,0.67651,-9.94288,2.5487,-5.79051,91.2486
2023-02-15 05:25:09:802,-1.06621,0.790203,-10.0638,1.80242,-5.67353,91.3422
2023-02-15 05:25:09:812,-1.19406,0.91977,-10.1375,1.09078,-5.55966,91.4221
2023-02-15 05:25:09:822,-1.32954,1.01629,-10.2241,0.420869,-5.44597,91.4883
2023-02-15 05:25:09:832,-0.571391,0.983338,-9.78685,-1.83102,-4.92389,91.4934
2023-02-15 05:25:09:871,-0.512796,0.935165,-9.58116,-2.3136,-4.81191,91.4405
2023-02-15 05:25:09:881,-0.567213,0.982248,-9.50341,-2.79232,-4.7225,91.3852
2023-02-15 05:25:09:891,-0.540579,1.13919,-9.65283,-3.74159,-4.56615,91.2809
2023-02-15 05:25:09:912,-0.497599,1.23569,-9.73119,-4.20206,-4.49808,91.2271
2023-02-15 05:25:09:922,-0.482432,1.3284,-9.80112,-4.65666,-4.43441,91.1809
2023-02-15 05:25:09:932,-0.497229,1.42485,-9.86052,-5.09699,-4.37403,91.1371
2023-02-15 05:25:09:942,-0.496586,1.51746,-9.87017,-5.52045,-4.32042,91.1007
2023-02-15 05:25:09:952,-0.460794,1.56299,-9.82046,-5.92934,-4.27279,91.0701
2023-02-15 05:25:09:962,-0.441233,1.59411,-9.74713,-6.31744,-4.22744,91.041
2023-02-15 05:25:09:971,-0.424744,1.61858,-9.69361,-6.69879,-4.1853,91.0228
2023-02-15 05:25:09:981,-0.429173,1.65819,-9.68297,-7.06941,-4.14504,91.0134
2023-02-15 05:25:09:991,-0.448952,1.7103,-9.71378,-7.43165,-4.10732,91.0144
2023-02-15 05:25:10:2,-0.589638,1.85904,-9.75413,-8.13189,-4.04324,91.0314
2023-02-15 05:25:10:22,-0.681335,1.95166,-9.79746,-8.46787,-4.01734,91.0474
2023-02-15 05:25:10:32,-0.752645,2.04683,-9.8334,-8.79046,-3.99427,91.0633
2023-02-15 05:25:10:42,-0.794163,2.10746,-9.83846,-9.10224,-3.9756,91.0769
2023-02-15 05:25:10:51,-0.77131,2.15168,-9.8334,-9.39169,-3.96098,91.0843
2023-02-15 05:25:10:62,-0.712033,2.17376,-9.7809,-9.66609,-3.94073,91.0839
2023-02-15 05:25:10:72,-0.668411,2.15329,-9.67315,-9.9239,-3.92137,91.0785
2023-02-15 05:25:10:82,-0.652038,2.1304,-9.57671,-10.1712,-3.90075,91.0644
2023-02-15 05:25:10:91,-0.640576,2.14836,-9.56653,-10.4133,-3.88107,91.0498
2023-02-15 05:25:10:102,-0.622632,2.19969,-9.55521,-10.6485,-3.86227,91.0302
2023-02-15 05:25:10:112,-0.593105,2.34495,-9.66061,-11.1086,-3.83641,90.9867
2023-02-15 05:25:10:132,-0.610427,2.40329,-9.72516,-11.3294,-3.82761,90.9668
2023-02-15 05:25:10:142,-0.550778,2.56784,-9.66531,-12.7586,-3.739,90.8156
2023-02-15 05:25:10:232,-0.640359,2.67102,-9.78386,-12.973,-3.72855,90.8071
2023-02-15 05:25:10:252,-0.798355,2.66804,-9.74689,-13.055,-3.72992,90.8043
2023-02-15 05:25:10:262,-0.847007,2.57942,-9.60247,-13.1683,-3.72391,90.7801
2023-02-15 05:25:10:282,-0.793208,2.53832,-9.57182,-13.2087,-3.71886,90.7556
2023-02-15 05:25:10:292,-0.749099,2.52668,-9.55469,-13.24,-3.711,90.7192
2023-02-15 05:25:10:302,-0.707007,2.51099,-9.55407,-13.2629,-3.70566,90.6789
2023-02-15 05:25:10:312,-0.677608,2.50773,-9.5835,-13.2816,-3.69884,90.6374
2023-02-15 05:25:10:322,-0.659754,2.49982,-9.60134,-13.2907,-3.69209,90.5908
2023-02-15 05:25:10:332,-0.679358,2.49928,-9.57735,-13.2931,-3.68341,90.5445
2023-02-15 05:25:10:342,-0.686266,2.47985,-9.54886,-13.2882,-3.67144,90.495
2023-02-15 05:25:10:352,-0.478297,2.30564,-9.45739,-13.2193,-3.58482,90.2992
2023-02-15 05:25:10:392,-0.47684,2.27678,-9.43746,-13.1998,-3.56093,90.2598
2023-02-15 05:25:10:402,-0.471007,2.26125,-9.45594,-13.1793,-3.541,90.2275
2023-02-15 05:25:10:412,-0.467591,2.29168,-9.5015,-13.1628,-3.51679,90.201
2023-02-15 05:25:10:422,-0.442952,2.31734,-9.5746,-13.1436,-3.49066,90.1786
2023-02-15 05:25:10:432,-0.410307,2.30645,-9.60613,-13.1225,-3.46669,90.1667
2023-02-15 05:25:10:441,-0.385962,2.3041,-9.60053,-13.0965,-3.44354,90.1599
2023-02-15 05:25:10:452,-0.383314,2.27836,-9.59029,-13.0687,-3.42448,90.1597
2023-02-15 05:25:10:462,-0.538205,2.27203,-9.55049,-13.01,-3.4062,90.1729
2023-02-15 05:25:10:482,-0.557905,2.28794,-9.5141,-12.979,-3.40648,90.1813
2023-02-15 05:25:10:492,-0.547508,2.25999,-9.47982,-12.9471,-3.40616,90.1942
2023-02-15 05:25:10:502,-0.540819,2.24307,-9.4496,-12.9151,-3.40917,90.2021
2023-02-15 05:25:10:512,-0.541677,2.20833,-9.43165,-12.8775,-3.4095,90.2115
2023-02-15 05:25:10:522,-0.559978,2.20118,-9.43231,-12.8437,-3.41162,90.2223
2023-02-15 05:25:10:532,-0.572967,2.20532,-9.46743,-12.811,-3.41787,90.2368
2023-02-15 05:25:10:542,-0.596165,2.20622,-9.48252,-12.7784,-3.42253,90.2497
2023-02-15 05:25:10:552,-0.572019,2.20198,-9.49395,-12.7461,-3.42118,90.2654
2023-02-15 05:25:10:561,-0.555938,2.1998,-9.50718,-12.7119,-3.4175,90.2815
2023-02-15 05:25:10:572,-0.566295,2.1877,-9.52632,-12.6785,-3.41525,90.2983
2023-02-15 05:25:10:582,-0.583895,2.15115,-9.54495,-12.6089,-3.40903,90.3393
2023-02-15 05:25:10:602,-0.601815,2.1432,-9.53538,-12.5747,-3.40285,90.3581
2023-02-15 05:25:10:612,-0.619102,2.13142,-9.5237,-12.5409,-3.39563,90.3728
2023-02-15 05:25:10:622,-0.62433,2.11375,-9.51658,-12.5065,-3.3894,90.3878
2023-02-15 05:25:10:632,-0.618066,2.11328,-9.48531,-12.4768,-3.38297,90.4015
2023-02-15 05:25:10:642,-0.6177,2.09487,-9.46129,-12.4471,-3.37398,90.4115
2023-02-15 05:25:10:652,-0.62786,2.09991,-9.48263,-12.3979,-3.36331,90.4254
2023-02-15 05:25:10:672,-0.605238,2.1076,-9.49516,-12.3751,-3.35303,90.427
2023-02-15 05:25:10:682,-0.556953,2.08729,-9.54207,-12.2928,-3.33547,90.4143
2023-02-15 05:25:10:712,-0.592708,2.09844,-9.56026,-12.2672,-3.33359,90.407
2023-02-15 05:25:10:722,-0.576208,2.08643,-9.57992,-12.2419,-3.33199,90.3966
2023-02-15 05:25:10:732,-0.542094,2.08823,-9.58816,-12.218,-3.32714,90.3889
2023-02-15 05:25:10:742,-0.517131,2.0898,-9.59241,-12.19,-3.32301,90.3828
2023-02-15 05:25:10:752,-0.506679,2.05118,-9.54947,-12.1296,-3.31782,90.3733
2023-02-15 05:25:10:772,-0.488713,2.03234,-9.53966,-12.0996,-3.31571,90.3732
2023-02-15 05:25:10:782,-0.505406,2.01786,-9.53536,-12.0407,-3.31719,90.3741
2023-02-15 05:25:10:802,-0.502279,2.01358,-9.54056,-11.9777,-3.31841,90.3859
2023-02-15 05:25:10:822,-0.519985,1.99443,-9.54734,-11.9448,-3.31639,90.3959
2023-02-15 05:25:10:832,-0.56086,2.00463,-9.55265,-11.9103,-3.31725,90.4046
2023-02-15 05:25:10:842,-0.608497,2.00136,-9.54799,-11.8773,-3.32445,90.4154
2023-02-15 05:25:10:852,-0.666503,1.96567,-9.5365,-11.8021,-3.33726,90.4285
2023-02-15 05:25:10:872,-0.641797,1.94295,-9.52073,-11.7601,-3.33911,90.4296
2023-02-15 05:25:10:882,-0.605244,1.92785,-9.50627,-11.7259,-3.34283,90.426
2023-02-15 05:25:10:891,-0.578303,1.90834,-9.50167,-11.6969,-3.34965,90.4227
2023-02-15 05:25:10:902,-0.58879,1.90887,-9.49449,-11.6714,-3.35702,90.4179
2023-02-15 05:25:10:912,-0.594887,1.92074,-9.50342,-11.6495,-3.36706,90.4146
2023-02-15 05:25:10:922,-0.591155,1.94343,-9.51372,-11.6309,-3.37575,90.4085
2023-02-15 05:25:10:932,-0.593027,1.93782,-9.545,-11.5989,-3.39267,90.3965
2023-02-15 05:25:10:952,-0.602683,1.95425,-9.56518,-11.5818,-3.40043,90.3909
2023-02-15 05:25:10:962,-0.611135,1.95222,-9.56793,-11.5686,-3.40587,90.3846
2023-02-15 05:25:10:972,-0.624223,1.93749,-9.54394,-11.5531,-3.41132,90.3774
2023-02-15 05:25:10:982,-0.585167,1.91578,-9.52274,-11.5326,-3.41813,90.3706
2023-02-15 05:25:10:992,-0.523325,1.89757,-9.52872,-11.4979,-3.41682,90.3613
2023-02-15 05:25:11:12,-0.55142,1.8964,-9.53338,-11.4734,-3.42238,90.3516
2023-02-15 05:25:11:32,-0.587075,1.92627,-9.56578,-11.4618,-3.4253,90.353
2023-02-15 05:25:11:42,-0.643749,1.95619,-9.60226,-11.4502,-3.43039,90.3568
2023-02-15 05:25:11:52,-0.692217,1.96999,-9.60897,-11.429,-3.44198,90.3575
2023-02-15 05:25:11:72,-0.679323,1.96479,-9.57612,-11.4097,-3.44716,90.3522
2023-02-15 05:25:11:82,-0.656744,1.95447,-9.54417,-11.388,-3.45181,90.3406
2023-02-15 05:25:11:92,-0.627709,1.93263,-9.52984,-11.3674,-3.45497,90.327
2023-02-15 05:25:11:102,-0.595568,1.93068,-9.52489,-11.345,-3.45406,90.3131
2023-02-15 05:25:11:112,-0.553033,1.90115,-9.52957,-11.3108,-3.4492,90.2833
2023-02-15 05:25:11:132,-0.534228,1.89487,-9.51529,-11.2892,-3.44669,90.2675
2023-02-15 05:25:11:142,-0.515401,1.88374,-9.54472,-11.272,-3.44186,90.2571
2023-02-15 05:25:11:152,-0.51769,1.88674,-9.5702,-11.2609,-3.43864,90.2492
2023-02-15 05:25:11:162,-0.53553,1.88223,-9.5829,-11.2341,-3.43807,90.2353
2023-02-15 05:25:11:182,-0.53832,1.87708,-9.59501,-11.2208,-3.43806,90.2292
2023-02-15 05:25:11:192,-0.548166,1.8639,-9.59931,-11.2077,-3.44223,90.2225
2023-02-15 05:25:11:202,-0.560735,1.85995,-9.60597,-11.1936,-3.44373,90.2201
2023-02-15 05:25:11:212,-0.554297,1.85385,-9.58789,-11.1788,-3.4449,90.2202
2023-02-15 05:25:11:222,-0.549873,1.83425,-9.57193,-11.1634,-3.44823,90.2188
2023-02-15 05:25:11:232,-0.563535,1.81119,-9.56778,-11.1512,-3.45419,90.2215
2023-02-15 05:25:11:242,-0.554693,1.79151,-9.55227,-11.1398,-3.46082,90.2193
2023-02-15 05:25:11:252,-0.553028,1.77076,-9.5189,-11.1322,-3.46999,90.2215
2023-02-15 05:25:11:262,-0.556122,1.7592,-9.49057,-11.125,-3.47937,90.2222
2023-02-15 05:25:11:272,-0.548267,1.69757,-9.44733,-11.1374,-3.51399,90.2325
2023-02-15 05:25:11:302,-0.564964,1.70266,-9.46049,-11.1536,-3.52782,90.241
2023-02-15 05:25:11:312,-0.629172,1.72156,-9.47063,-11.2313,-3.56183,90.2796
2023-02-15 05:25:11:342,-0.649805,1.69143,-9.45784,-11.3583,-3.58364,90.3343
2023-02-15 05:25:11:372,-0.649213,1.68476,-9.43809,-11.6225,-3.60627,90.3868
2023-02-15 05:25:11:412,-0.625984,1.67842,-9.39002,-11.7098,-3.60977,90.4001
2023-02-15 05:25:11:422,-0.657959,1.63675,-9.32211,-11.915,-3.61494,90.4265
2023-02-15 05:25:11:442,-0.587013,1.62319,-9.25608,-12.4735,-3.60521,90.4673
2023-02-15 05:25:11:482,-0.601857,1.61203,-9.2269,-12.6478,-3.60076,90.4729
2023-02-15 05:25:11:492,-0.533959,1.68736,-9.1719,-13.5223,-3.61889,90.5117
2023-02-15 05:25:11:532,-0.551754,1.81889,-9.00857,-14.7123,-3.66868,90.6056
2023-02-15 05:25:11:572,-0.580861,1.85207,-8.95633,-15.063,-3.68292,90.6361
2023-02-15 05:25:11:582,-0.62005,1.88224,-8.87914,-15.4332,-3.69601,90.6746
2023-02-15 05:25:11:592,-0.638477,1.91911,-8.82736,-15.8271,-3.70976,90.7141
2023-02-15 05:25:11:602,-0.639589,1.98795,-8.79953,-16.2483,-3.72495,90.7545
2023-02-15 05:25:11:612,-0.633327,2.03764,-8.78127,-16.6943,-3.73726,90.7924
2023-02-15 05:25:11:622,-0.525368,2.23982,-8.58165,-18.7544,-3.81251,90.9667
2023-02-15 05:25:11:662,-0.539638,2.36633,-8.25947,-19.9516,-3.86085,91.0803
2023-02-15 05:25:11:682,-0.541545,2.44313,-8.15724,-20.6042,-3.87958,91.1431
2023-02-15 05:25:11:692,-0.530039,3.42936,-7.58084,-25.3496,-3.99573,91.6192
2023-02-15 05:25:11:752,-0.59905,4.09447,-7.74009,-28.2562,-4.05604,91.926
2023-02-15 05:25:11:782,-0.702532,4.37445,-7.7504,-30.3021,-4.07745,92.1735
2023-02-15 05:25:11:802,-0.739299,4.4482,-7.48071,-31.3356,-4.08182,92.2947
2023-02-15 05:25:11:812,-0.771315,7.48171,-7.99408,-40.6219,-4.05587,93.4338
2023-02-15 05:25:11:892,-0.881327,7.41782,-7.70675,-41.6964,-4.00605,93.5988
2023-02-15 05:25:11:902,-1.03142,7.26135,-7.24991,-42.7132,-3.92909,93.7461
2023-02-15 05:25:11:912,-1.11562,7.10182,-6.75845,-43.6858,-3.84127,93.8753
2023-02-15 05:25:11:922,-1.11682,6.94635,-6.22237,-44.6384,-3.74437,93.9774
2023-02-15 05:25:11:932,-1.04826,6.79052,-5.79006,-45.5821,-3.64113,94.0509
2023-02-15 05:25:11:942,-0.875729,6.75315,-5.14988,-47.5171,-3.42024,94.1319
2023-02-15 05:25:11:962,-0.0112131,8.28404,-4.89293,-51.845,-3.02015,94.1265
2023-02-15 05:25:12:2,-0.149914,8.78146,-5.38644,-53.0287,-2.9255,94.1637
2023-02-15 05:25:12:12,-0.477696,9.32685,-5.77158,-57.3122,-2.46353,94.2911
2023-02-15 05:25:12:52,-0.366664,9.19029,-4.84086,-59.1121,-2.20774,94.2622
2023-02-15 05:25:12:72,-0.290426,10.0665,-4.22813,-61.6951,-1.86842,94.1839
2023-02-15 05:25:12:102,-0.355018,11.4365,-5.64152,-64.0823,-1.59267,94.1099
2023-02-15 05:25:12:132,-0.306087,11.5406,-5.73475,-64.7195,-1.53691,94.0826
2023-02-15 05:25:12:142,-0.289208,11.5189,-5.56828,-65.2609,-1.48983,94.0529
2023-02-15 05:25:12:152,-0.302697,11.4214,-5.12177,-65.7102,-1.46553,94.0205
2023-02-15 05:25:12:162,-0.306952,11.369,-4.70424,-66.0802,-1.43906,93.9722
2023-02-15 05:25:12:172,-0.14728,11.3286,-4.3194,-66.3991,-1.42245,93.9189
2023-02-15 05:25:12:182,-0.0084111,11.4461,-4.29985,-66.6851,-1.40998,93.8749
2023-02-15 05:25:12:192,-0.299062,11.79,-4.99244,-67.2378,-1.34719,93.8035
2023-02-15 05:25:12:222,-0.320441,11.622,-4.89162,-67.278,-1.32715,93.7835
2023-02-15 05:25:12:232,-0.287379,11.3091,-4.56529,-67.2393,-1.31104,93.754
2023-02-15 05:25:12:242,-0.214861,10.9801,-4.16899,-67.1449,-1.29131,93.7152
2023-02-15 05:25:12:252,-0.167264,10.7025,-3.93583,-67.0138,-1.27171,93.6708
2023-02-15 05:25:12:262,-0.158732,10.4939,-3.87002,-66.8528,-1.24865,93.6313
2023-02-15 05:25:12:272,-0.195423,10.3733,-3.97511,-66.6656,-1.22993,93.598
2023-02-15 05:25:12:282,-0.251489,10.3115,-4.08361,-66.4513,-1.219,93.5616
2023-02-15 05:25:12:292,-0.237568,10.2045,-4.15155,-66.2036,-1.22091,93.5264
2023-02-15 05:25:12:302,-0.0800494,10.0137,-4.24354,-65.6086,-1.25869,93.4557
2023-02-15 05:25:12:322,-0.0991019,9.97421,-4.2752,-65.2624,-1.28068,93.4263
2023-02-15 05:25:12:332,-0.0864008,9.95389,-4.41514,-64.4938,-1.35029,93.3731
2023-02-15 05:25:12:352,-0.110662,9.93491,-4.50342,-64.0729,-1.40082,93.3574
2023-02-15 05:25:12:362,-0.147204,9.9141,-4.59058,-63.6229,-1.45778,93.3489
2023-02-15 05:25:12:372,-0.178633,9.95606,-4.73954,-63.1424,-1.51022,93.3401
2023-02-15 05:25:12:382,-0.240657,9.99918,-4.91336,-62.6268,-1.55526,93.3317
2023-02-15 05:25:12:392,-0.305561,10.0288,-5.04154,-62.0732,-1.60473,93.3162
2023-02-15 05:25:12:402,-0.275875,10.0871,-5.2314,-61.4775,-1.66816,93.2998
2023-02-15 05:25:12:412,-0.357964,10.1881,-5.50358,-60.1483,-1.84706,93.2819
2023-02-15 05:25:12:432,-0.421182,10.0674,-5.50775,-59.4126,-1.96311,93.2746
2023-02-15 05:25:12:442,-0.453468,9.91148,-5.47019,-58.6299,-2.09042,93.2611
2023-02-15 05:25:12:452,-0.545096,8.45522,-5.99918,-49.76,-3.36604,92.8619
2023-02-15 05:25:12:542,-0.469182,8.10199,-6.35561,-47.399,-3.65737,92.7122
2023-02-15 05:25:12:562,-0.433983,7.69628,-6.66134,-44.9394,-3.96367,92.5487
2023-02-15 05:25:12:582,-0.45253,5.9909,-6.34059,-38.555,-4.59039,92.0693
2023-02-15 05:25:12:632,-0.384383,5.65679,-6.93929,-36.0774,-4.78087,91.8506
2023-02-15 05:25:12:652,-0.767466,4.49811,-7.05973,-31.2241,-5.04077,91.5116
2023-02-15 05:25:12:692,-0.834468,3.1998,-7.84654,-23.7864,-5.10772,91.1328
2023-02-15 05:25:12:762,-0.869723,2.83833,-8.0918,-21.9565,-5.10642,91.1278
2023-02-15 05:25:12:782,-0.871307,2.79334,-8.43347,-20.2244,-5.06278,91.1341
2023-02-15 05:25:12:802,-0.938227,2.61714,-8.57342,-18.5694,-5.0079,91.1627
2023-02-15 05:25:12:822,-0.985113,2.24886,-8.57887,-16.9798,-4.93281,91.2017
2023-02-15 05:25:12:842,-0.956814,2.17927,-8.68367,-16.2159,-4.87826,91.2209
2023-02-15 05:25:12:852,-0.933053,2.21435,-8.9791,-15.4668,-4.82434,91.2447
2023-02-15 05:25:12:862,-1.00696,2.21551,-9.21774,-14.7238,-4.77009,91.2713
2023-02-15 05:25:12:872,-1.13207,2.09244,-9.26371,-13.9809,-4.71282,91.3021
2023-02-15 05:25:12:882,-0.76322,1.1615,-8.81394,-11.0095,-4.3119,91.3449
2023-02-15 05:25:12:922,-0.738247,1.21005,-9.51353,-9.01491,-4.06889,91.2992
2023-02-15 05:25:12:952,-0.814806,1.15179,-9.49604,-8.3798,-4.01636,91.277
2023-02-15 05:25:12:962,-0.764548,0.942801,-9.28013,-7.74092,-3.96083,91.2528
2023-02-15 05:25:12:972,-0.642552,0.677771,-9.04699,-7.10776,-3.89992,91.2181
2023-02-15 05:25:12:982,-0.536542,0.48838,-8.96428,-6.49789,-3.8531,91.1775
2023-02-15 05:25:12:992,-0.512528,0.492863,-9.15219,-5.91577,-3.81707,91.1335
2023-02-15 05:25:13:2,-0.611696,0.569044,-9.35053,-5.35926,-3.78615,91.0893
2023-02-15 05:25:13:12,-0.663221,0.534194,-9.37603,-4.81485,-3.76252,91.0461
2023-02-15 05:25:13:22,-0.591174,0.423294,-9.34158,-4.28136,-3.74744,90.9968
2023-02-15 05:25:13:32,-0.558758,0.336675,-9.34805,-3.75964,-3.72746,90.9464
2023-02-15 05:25:13:42,-0.61977,0.259717,-9.35474,-3.24686,-3.70566,90.9024
2023-02-15 05:25:13:52,-0.683398,0.145692,-9.34368,-2.75135,-3.67721,90.8595
2023-02-15 05:25:13:62,-0.660307,0.012285,-9.34544,-2.26958,-3.65252,90.814
2023-02-15 05:25:13:72,-0.644425,-0.103457,-9.38471,-1.80466,-3.62888,90.7665
2023-02-15 05:25:13:82,-0.664792,-0.188213,-9.4374,-1.35593,-3.60173,90.7169
2023-02-15 05:25:13:92,-0.646258,-0.276594,-9.45281,-0.920301,-3.57092,90.6685
2023-02-15 05:25:13:102,-0.598496,-0.383132,-9.4027,-0.505462,-3.541,90.6119
2023-02-15 05:25:13:112,-0.569484,-0.472654,-9.3386,-0.101373,-3.50754,90.5535
2023-02-15 05:25:13:122,-0.563997,-0.541922,-9.32905,0.281307,-3.4748,90.4955
2023-02-15 05:25:13:132,-0.561309,-0.614089,-9.33108,0.643943,-3.44155,90.4413
2023-02-15 05:25:13:142,-0.495913,-0.680203,-9.32112,0.987306,-3.4063,90.3856
2023-02-15 05:25:13:152,-0.394701,-0.745799,-9.32875,1.31342,-3.37149,90.3222
2023-02-15 05:25:13:162,-0.386062,-0.787645,-9.35971,1.61618,-3.341,90.2594
2023-02-15 05:25:13:172,-0.400966,-0.827537,-9.4069,1.89689,-3.31219,90.1955
2023-02-15 05:25:13:182,-0.391625,-0.899019,-9.43416,2.15837,-3.29038,90.1335
2023-02-15 05:25:13:192,-0.380649,-0.949479,-9.43905,2.39973,-3.26926,90.0703
2023-02-15 05:25:13:202,-0.386232,-1.00131,-9.44376,2.62043,-3.25446,90.0071
2023-02-15 05:25:13:212,-0.388635,-1.03889,-9.43064,2.82066,-3.24253,89.9426
2023-02-15 05:25:13:222,-0.394357,-1.09504,-9.41431,3.00228,-3.23395,89.8777
2023-02-15 05:25:13:232,-0.37739,-1.09833,-9.39508,3.16361,-3.22603,89.8165
2023-02-15 05:25:13:242,-0.331564,-1.1132,-9.38826,3.42367,-3.23639,89.691
2023-02-15 05:25:13:262,-0.336227,-1.07831,-9.47911,3.52381,-3.24896,89.6341
2023-02-15 05:25:13:272,-0.307097,-1.04671,-9.59273,3.67612,-3.26815,89.5243
2023-02-15 05:25:13:292,-0.335856,-1.05322,-9.57161,3.73654,-3.29404,89.4732
2023-02-15 05:25:13:302,-0.480829,-1.01751,-9.5909,3.82058,-3.37293,89.3836
2023-02-15 05:25:13:322,-0.498057,-1.01952,-9.54867,3.84925,-3.40897,89.3472
2023-02-15 05:25:13:332,-0.49055,-1.02489,-9.52819,3.86949,-3.44354,89.3173
2023-02-15 05:25:13:342,-0.485579,-1.00716,-9.55884,3.87668,-3.47448,89.2954
2023-02-15 05:25:13:352,-0.468698,-0.968395,-9.63639,3.87068,-3.49741,89.2788
2023-02-15 05:25:13:362,-0.477081,-0.909231,-9.69836,3.85777,-3.52783,89.27
2023-02-15 05:25:13:372,-0.519459,-0.834399,-9.7431,3.81367,-3.59038,89.2697
2023-02-15 05:25:13:392,-0.579957,-0.784738,-9.7148,3.76069,-3.66444,89.2849
2023-02-15 05:25:13:412,-0.620128,-0.790726,-9.62621,3.69871,-3.73331,89.3223
2023-02-15 05:25:13:432,-0.617475,-0.771371,-9.64257,3.66982,-3.76797,89.3449
2023-02-15 05:25:13:442,-0.615621,-0.753485,-9.69332,3.63482,-3.79596,89.3688
