Timestamp,Acceleration_x,Acceleration_y,Acceleration_z,roll,pitch,yaw
2023-02-15 05:40:54:356,-0.428921,0.843714,-9.70117,-4.67833,-2.84958,90.8947
2023-02-15 05:40:54:364,-0.41562,0.86801,-9.74194,-4.69881,-2.84073,90.8894
2023-02-15 05:40:54:374,-0.389405,0.870025,-9.77314,-4.71919,-2.83296,90.8861
2023-02-15 05:40:54:384,-0.368366,0.870886,-9.77725,-4.73442,-2.82518,90.8817
2023-02-15 05:40:54:394,-0.352429,0.879214,-9.76903,-4.75285,-2.8197,90.8805
2023-02-15 05:40:54:404,-0.361911,0.879783,-9.77753,-4.76973,-2.81483,90.883
2023-02-15 05:40:54:414,-0.365459,0.881721,-9.76614,-4.78405,-2.80785,90.8896
2023-02-15 05:40:54:424,-0.382471,0.897499,-9.78098,-4.79396,-2.81141,90.9015
2023-02-15 05:40:54:434,-0.456534,0.922631,-9.82393,-4.80368,-2.81603,90.9156
2023-02-15 05:40:54:444,-0.545417,0.920412,-9.80457,-4.80908,-2.82794,90.9278
2023-02-15 05:40:54:454,-0.590168,0.917296,-9.79061,-4.80709,-2.84519,90.9324
2023-02-15 05:40:54:464,-0.62053,0.906268,-9.78381,-4.80138,-2.86456,90.9356
2023-02-15 05:40:54:474,-0.631058,0.886693,-9.74392,-4.78623,-2.88245,90.9281
2023-02-15 05:40:54:483,-0.59281,0.856935,-9.69701,-4.77058,-2.89511,90.9155
2023-02-15 05:40:54:494,-0.54531,0.815623,-9.67093,-4.76,-2.90679,90.8939
2023-02-15 05:40:54:504,-0.487213,0.791102,-9.64155,-4.7493,-2.91708,90.8681
2023-02-15 05:40:54:514,-0.434865,0.792734,-9.64121,-4.7439,-2.92542,90.839
2023-02-15 05:40:54:523,-0.414695,0.806039,-9.63239,-4.74366,-2.93428,90.8129
2023-02-15 05:40:54:534,-0.39652,0.835477,-9.66219,-4.751,-2.94204,90.7891
2023-02-15 05:40:54:544,-0.406305,0.859123,-9.70408,-4.76464,-2.94958,90.7717
2023-02-15 05:40:54:554,-0.474821,0.911273,-9.7464,-4.77855,-2.95361,90.7594
2023-02-15 05:40:54:564,-0.568762,0.947753,-9.78237,-4.79303,-2.96078,90.7547
2023-02-15 05:40:54:574,-0.65029,0.971048,-9.8025,-4.80357,-2.96966,90.7512
2023-02-15 05:40:54:584,-0.677484,0.984098,-9.80333,-4.80538,-2.97183,90.7452
2023-02-15 05:40:54:594,-0.643445,0.953715,-9.80531,-4.80201,-2.96759,90.7358
2023-02-15 05:40:54:604,-0.579227,0.927492,-9.78979,-4.79644,-2.95754,90.721
2023-02-15 05:40:54:614,-0.52808,0.896785,-9.7508,-4.78887,-2.94461,90.6999
2023-02-15 05:40:54:624,-0.464605,0.881203,-9.70667,-4.78118,-2.92811,90.6747
2023-02-15 05:40:54:634,-0.442948,0.891147,-9.72796,-4.77304,-2.91187,90.6504
2023-02-15 05:40:54:644,-0.489236,0.904783,-9.7769,-4.76193,-2.90025,90.6297
2023-02-15 05:40:54:654,-0.568617,0.908121,-9.79629,-4.74399,-2.89292,90.6066
2023-02-15 05:40:54:664,-0.563431,0.919343,-9.89054,-4.72447,-2.88822,90.5844
2023-02-15 05:40:54:674,-0.477282,0.887685,-9.89396,-4.69836,-2.87919,90.5565
2023-02-15 05:40:54:684,-0.447116,0.823354,-9.827,-4.66323,-2.8676,90.526
2023-02-15 05:40:54:694,-0.429314,0.772752,-9.78936,-4.6246,-2.85488,90.4925
2023-02-15 05:40:54:704,-0.442,0.710032,-9.71936,-4.57713,-2.84414,90.4588
2023-02-15 05:40:54:714,-0.473448,0.690341,-9.69321,-4.53112,-2.83489,90.4286
2023-02-15 05:40:54:724,-0.443655,0.681761,-9.69525,-4.48874,-2.82472,90.3989
2023-02-15 05:40:54:734,-0.428649,0.670527,-9.67645,-4.44917,-2.81113,90.3655
2023-02-15 05:40:54:744,-0.453531,0.682327,-9.71382,-4.4076,-2.79508,90.338
2023-02-15 05:40:54:754,-0.432934,0.674829,-9.74175,-4.36153,-2.77789,90.3132
2023-02-15 05:40:54:763,-0.404431,0.651265,-9.73577,-4.31554,-2.75514,90.286
2023-02-15 05:40:54:773,-0.35972,0.642804,-9.73298,-4.27053,-2.73385,90.2594
2023-02-15 05:40:54:784,-0.333579,0.623235,-9.70524,-4.22225,-2.70786,90.2323
2023-02-15 05:40:54:794,-0.352667,0.607794,-9.68905,-4.17758,-2.68601,90.2068
2023-02-15 05:40:54:804,-0.392265,0.610807,-9.69082,-4.131,-2.66337,90.1873
2023-02-15 05:40:54:814,-0.355533,0.592999,-9.64258,-4.08259,-2.6397,90.1669
2023-02-15 05:40:54:824,-0.304058,0.564977,-9.60029,-4.03681,-2.61753,90.1457
2023-02-15 05:40:54:834,-0.270703,0.555111,-9.62298,-4.00002,-2.59098,90.122
2023-02-15 05:40:54:844,-0.260382,0.580117,-9.69675,-3.97033,-2.56537,90.1019
2023-02-15 05:40:54:854,-0.268836,0.613331,-9.74552,-3.94493,-2.54581,90.0812
2023-02-15 05:40:54:864,-0.315826,0.627716,-9.7585,-3.92555,-2.52944,90.0637
2023-02-15 05:40:54:874,-0.349247,0.639993,-9.77622,-3.90319,-2.52048,90.0441
2023-02-15 05:40:54:884,-0.343104,0.651888,-9.77286,-3.88283,-2.51868,90.0265
2023-02-15 05:40:54:894,-0.343176,0.636094,-9.7524,-3.86107,-2.51934,90.0089
2023-02-15 05:40:54:904,-0.363538,0.637044,-9.73159,-3.83866,-2.52664,89.9893
2023-02-15 05:40:54:914,-0.391636,0.632835,-9.68396,-3.82168,-2.53536,89.9694
2023-02-15 05:40:54:924,-0.396816,0.622409,-9.64214,-3.80884,-2.54822,89.9504
2023-02-15 05:40:54:934,-0.3581,0.639547,-9.67809,-3.80139,-2.56387,89.9308
2023-02-15 05:40:54:944,-0.340662,0.644941,-9.68617,-3.80012,-2.58303,89.9103
2023-02-15 05:40:54:954,-0.375342,0.648457,-9.68639,-3.80099,-2.61287,89.8936
2023-02-15 05:40:54:964,-0.40464,0.67139,-9.73563,-3.80618,-2.65252,89.8755
2023-02-15 05:40:54:974,-0.451976,0.670421,-9.75364,-3.8161,-2.70098,89.8638
2023-02-15 05:40:54:984,-0.493323,0.658711,-9.75306,-3.82423,-2.75025,89.8565
2023-02-15 05:40:54:994,-0.530045,0.658718,-9.75974,-3.83079,-2.79975,89.8501
2023-02-15 05:40:55:4,-0.584605,0.671971,-9.77393,-3.83564,-2.8525,89.8448
2023-02-15 05:40:55:14,-0.610383,0.666921,-9.77306,-3.83937,-2.90242,89.8494
2023-02-15 05:40:55:24,-0.620977,0.668719,-9.75746,-3.84294,-2.95106,89.8529
2023-02-15 05:40:55:34,-0.613144,0.646567,-9.75045,-3.84286,-2.99169,89.8583
2023-02-15 05:40:55:44,-0.626424,0.659872,-9.75079,-3.84632,-3.02622,89.8688
2023-02-15 05:40:55:54,-0.666012,0.66169,-9.74057,-3.84985,-3.0555,89.8802
2023-02-15 05:40:55:64,-0.659969,0.647188,-9.72952,-3.85001,-3.07877,89.8969
2023-02-15 05:40:55:74,-0.638851,0.642737,-9.71584,-3.8515,-3.09258,89.914
2023-02-15 05:40:55:84,-0.620689,0.630956,-9.69503,-3.85036,-3.09875,89.9316
2023-02-15 05:40:55:94,-0.611591,0.629517,-9.69585,-3.85031,-3.10508,89.9498
2023-02-15 05:40:55:104,-0.593147,0.621789,-9.72059,-3.84565,-3.10623,89.9666
2023-02-15 05:40:55:114,-0.5748,0.621331,-9.71895,-3.84472,-3.10535,89.9782
2023-02-15 05:40:55:124,-0.560462,0.600223,-9.71209,-3.84223,-3.10547,89.9885
2023-02-15 05:40:55:134,-0.567528,0.591925,-9.70719,-3.83734,-3.10723,90.0042
2023-02-15 05:40:55:144,-0.614112,0.593024,-9.68641,-3.8372,-3.11592,90.0135
2023-02-15 05:40:55:154,-0.675321,0.609766,-9.68407,-3.84064,-3.1242,90.0262
2023-02-15 05:40:55:164,-0.740765,0.637844,-9.6892,-3.84931,-3.13455,90.0365
2023-02-15 05:40:55:174,-0.775651,0.6551,-9.70451,-3.864,-3.13767,90.0442
2023-02-15 05:40:55:184,-0.730921,0.692203,-9.72984,-3.87713,-3.14006,90.0434
2023-02-15 05:40:55:194,-0.661216,0.719234,-9.74327,-3.89163,-3.13126,90.0302
2023-02-15 05:40:55:204,-0.597083,0.72831,-9.77483,-3.90453,-3.11742,90.0181
2023-02-15 05:40:55:214,-0.537187,0.731304,-9.7749,-3.91453,-3.10002,90.0042
2023-02-15 05:40:55:224,-0.486437,0.727138,-9.76746,-3.92414,-3.08329,89.986
2023-02-15 05:40:55:234,-0.42712,0.717445,-9.75959,-3.93231,-3.06793,89.9654
2023-02-15 05:40:55:244,-0.385218,0.713352,-9.75189,-3.93864,-3.05195,89.9497
2023-02-15 05:40:55:254,-0.355822,0.704043,-9.75467,-3.93887,-3.03741,89.9372
2023-02-15 05:40:55:264,-0.353322,0.70808,-9.76121,-3.94155,-3.02778,89.9267
2023-02-15 05:40:55:274,-0.380052,0.7153,-9.75902,-3.94059,-3.02017,89.9227
2023-02-15 05:40:55:284,-0.416221,0.712326,-9.7686,-3.93309,-3.01243,89.9271
2023-02-15 05:40:55:294,-0.433623,0.69285,-9.7676,-3.92531,-3.00487,89.9352
2023-02-15 05:40:55:304,-0.479097,0.675462,-9.73206,-3.91702,-2.99962,89.9428
2023-02-15 05:40:55:314,-0.501103,0.659515,-9.72996,-3.90665,-2.99331,89.9551
2023-02-15 05:40:55:324,-0.509296,0.658711,-9.74002,-3.89831,-2.98761,89.9691
2023-02-15 05:40:55:334,-0.502829,0.664708,-9.74239,-3.89257,-2.9803,89.9819
2023-02-15 05:40:55:344,-0.470204,0.671473,-9.75145,-3.8868,-2.97195,89.991
2023-02-15 05:40:55:354,-0.454872,0.662662,-9.76179,-3.88107,-2.96542,89.9977
2023-02-15 05:40:55:364,-0.434007,0.659385,-9.77132,-3.87657,-2.95895,90.0072
2023-02-15 05:40:55:374,-0.411373,0.659665,-9.78852,-3.87243,-2.95764,90.0138
2023-02-15 05:40:55:384,-0.419657,0.659903,-9.77796,-3.86311,-2.95628,90.0228
2023-02-15 05:40:55:394,-0.420539,0.65951,-9.75596,-3.85399,-2.95607,90.0373
2023-02-15 05:40:55:404,-0.425181,0.648809,-9.73995,-3.84283,-2.95567,90.0519
2023-02-15 05:40:55:414,-0.452572,0.623513,-9.72314,-3.82897,-2.95558,90.0656
2023-02-15 05:40:55:424,-0.471176,0.630187,-9.70959,-3.81702,-2.95254,90.0822
2023-02-15 05:40:55:434,-0.49187,0.645717,-9.72163,-3.80354,-2.95041,90.101
2023-02-15 05:40:55:444,-0.537324,0.641855,-9.72706,-3.79433,-2.95189,90.1207
2023-02-15 05:40:55:454,-0.586592,0.635425,-9.69566,-3.78485,-2.94807,90.1363
2023-02-15 05:40:55:464,-0.609842,0.625336,-9.68205,-3.77635,-2.94571,90.1496
2023-02-15 05:40:55:474,-0.571909,0.631202,-9.70317,-3.77105,-2.94204,90.157
2023-02-15 05:40:55:484,-0.546218,0.63753,-9.7366,-3.76557,-2.93671,90.1594
2023-02-15 05:40:55:494,-0.532059,0.646641,-9.76195,-3.76388,-2.92808,90.159
2023-02-15 05:40:55:504,-0.522174,0.654138,-9.76746,-3.75787,-2.92308,90.1534
2023-02-15 05:40:55:514,-0.512773,0.654869,-9.73541,-3.74723,-2.91625,90.1455
2023-02-15 05:40:55:524,-0.52326,0.64025,-9.69733,-3.74162,-2.9095,90.1359
2023-02-15 05:40:55:534,-0.522301,0.618384,-9.69431,-3.73673,-2.90537,90.1271
2023-02-15 05:40:55:544,-0.526201,0.630278,-9.69044,-3.7304,-2.89953,90.1148
2023-02-15 05:40:55:554,-0.532779,0.627388,-9.70042,-3.72712,-2.89574,90.1023
2023-02-15 05:40:55:564,-0.518774,0.63975,-9.7003,-3.72665,-2.88783,90.0909
2023-02-15 05:40:55:574,-0.488772,0.643392,-9.70721,-3.72746,-2.8781,90.0756
2023-02-15 05:40:55:584,-0.462716,0.638732,-9.70031,-3.7341,-2.86676,90.0564
2023-02-15 05:40:55:594,-0.450794,0.651169,-9.6988,-3.74176,-2.85242,90.0386
2023-02-15 05:40:55:604,-0.414132,0.666409,-9.73107,-3.74866,-2.84297,90.0199
2023-02-15 05:40:55:614,-0.403777,0.671469,-9.75157,-3.75544,-2.83348,90.0035
2023-02-15 05:40:55:624,-0.399355,0.682438,-9.75354,-3.76343,-2.82268,89.9921
2023-02-15 05:40:55:634,-0.387594,0.687861,-9.76846,-3.7717,-2.80883,89.9794
2023-02-15 05:40:55:644,-0.37594,0.696968,-9.78324,-3.77698,-2.79368,89.9679
2023-02-15 05:40:55:654,-0.381256,0.713179,-9.76054,-3.78158,-2.78331,89.9622
2023-02-15 05:40:55:664,-0.395393,0.705046,-9.75321,-3.78238,-2.77458,89.9599
2023-02-15 05:40:55:674,-0.39528,0.720472,-9.77998,-3.78631,-2.76655,89.9591
2023-02-15 05:40:55:684,-0.411375,0.736909,-9.80027,-3.78432,-2.76049,89.9605
2023-02-15 05:40:55:694,-0.456706,0.730624,-9.80123,-3.78296,-2.75733,89.9634
2023-02-15 05:40:55:704,-0.472892,0.731162,-9.80366,-3.77713,-2.75662,89.9699
2023-02-15 05:40:55:714,-0.487816,0.724093,-9.79357,-3.7678,-2.75501,89.9723
2023-02-15 05:40:55:724,-0.493232,0.720202,-9.76809,-3.75593,-2.75531,89.971
2023-02-15 05:40:55:734,-0.488163,0.702867,-9.76002,-3.73661,-2.75524,89.9719
2023-02-15 05:40:55:744,-0.485075,0.697334,-9.76132,-3.71715,-2.75675,89.9652
2023-02-15 05:40:55:754,-0.481611,0.665466,-9.77613,-3.69515,-2.7538,89.9606
2023-02-15 05:40:55:764,-0.464357,0.660421,-9.81824,-3.66893,-2.75277,89.9551
2023-02-15 05:40:55:774,-0.437045,0.661281,-9.82291,-3.64489,-2.7493,89.9458
2023-02-15 05:40:55:784,-0.409952,0.632912,-9.79359,-3.61857,-2.74599,89.9351
2023-02-15 05:40:55:794,-0.391492,0.596982,-9.79639,-3.5883,-2.74371,89.9241
2023-02-15 05:40:55:804,-0.42189,0.590943,-9.75685,-3.55706,-2.74447,89.9148
2023-02-15 05:40:55:814,-0.464259,0.582898,-9.70621,-3.53003,-2.74798,89.9092
2023-02-15 05:40:55:824,-0.471908,0.574004,-9.70424,-3.50529,-2.7485,89.9049
2023-02-15 05:40:55:834,-0.467872,0.567734,-9.69646,-3.47719,-2.7491,89.9017
2023-02-15 05:40:55:844,-0.446144,0.565184,-9.67509,-3.45126,-2.7461,89.8968
2023-02-15 05:40:55:854,-0.420908,0.565322,-9.69994,-3.42892,-2.73945,89.8933
2023-02-15 05:40:55:864,-0.382328,0.544171,-9.73165,-3.40739,-2.7337,89.8852
2023-02-15 05:40:55:874,-0.367744,0.541865,-9.73065,-3.3837,-2.73076,89.882
2023-02-15 05:40:55:884,-0.360589,0.53743,-9.72388,-3.36255,-2.72579,89.8789
2023-02-15 05:40:55:894,-0.364504,0.512682,-9.72997,-3.34167,-2.72373,89.8779
2023-02-15 05:40:55:904,-0.381748,0.513295,-9.72257,-3.32068,-2.72659,89.8798
2023-02-15 05:40:55:914,-0.419594,0.507592,-9.70096,-3.30443,-2.72945,89.8824
2023-02-15 05:40:55:924,-0.433066,0.501258,-9.70047,-3.29146,-2.72923,89.8875
2023-02-15 05:40:55:934,-0.456356,0.512636,-9.73063,-3.27824,-2.7271,89.8941
2023-02-15 05:40:55:944,-0.475279,0.521073,-9.7489,-3.26864,-2.72532,89.9007
2023-02-15 05:40:55:953,-0.481181,0.524992,-9.74959,-3.25871,-2.72305,89.9049
2023-02-15 05:40:55:963,-0.484942,0.526216,-9.75629,-3.25361,-2.72151,89.9107
2023-02-15 05:40:55:974,-0.494053,0.533452,-9.76394,-3.24819,-2.71725,89.9082
2023-02-15 05:40:55:984,-0.501094,0.537583,-9.7785,-3.24192,-2.71246,89.9045
2023-02-15 05:40:55:993,-0.502215,0.536171,-9.72305,-3.23387,-2.7113,89.9006
2023-02-15 05:40:56:4,-0.48274,0.519581,-9.68146,-3.22482,-2.70669,89.894
2023-02-15 05:40:56:14,-0.458761,0.516535,-9.69281,-3.21763,-2.70152,89.8839
2023-02-15 05:40:56:24,-0.453413,0.526884,-9.73365,-3.21078,-2.69351,89.8741
2023-02-15 05:40:56:34,-0.400504,0.526965,-9.74695,-3.20518,-2.68532,89.8601
2023-02-15 05:40:56:44,-0.335041,0.508842,-9.74097,-3.20167,-2.67103,89.8448
2023-02-15 05:40:56:54,-0.33556,0.489533,-9.72918,-3.19778,-2.66446,89.8302
2023-02-15 05:40:56:64,-0.363236,0.488229,-9.73091,-3.19516,-2.65979,89.8214
2023-02-15 05:40:56:74,-0.38379,0.506406,-9.72154,-3.19853,-2.66187,89.815
2023-02-15 05:40:56:84,-0.412241,0.50061,-9.70287,-3.20452,-2.66259,89.8098
2023-02-15 05:40:56:94,-0.417207,0.496595,-9.71391,-3.21212,-2.66633,89.8058
2023-02-15 05:40:56:103,-0.419602,0.52951,-9.73873,-3.22346,-2.66504,89.8055
2023-02-15 05:40:56:113,-0.440532,0.543181,-9.76268,-3.23471,-2.66442,89.8044
2023-02-15 05:40:56:123,-0.466861,0.553415,-9.76871,-3.24937,-2.66094,89.8058
2023-02-15 05:40:56:133,-0.476788,0.561455,-9.76597,-3.26292,-2.65976,89.8097
2023-02-15 05:40:56:143,-0.443334,0.564056,-9.74264,-3.27867,-2.65293,89.8092
2023-02-15 05:40:56:153,-0.416244,0.564462,-9.73302,-3.29027,-2.64774,89.8105
2023-02-15 05:40:56:163,-0.369825,0.554733,-9.71818,-3.30381,-2.64636,89.8088
2023-02-15 05:40:56:173,-0.331353,0.533812,-9.71044,-3.32036,-2.65201,89.8049
2023-02-15 05:40:56:183,-0.340895,0.529404,-9.6992,-3.33558,-2.66121,89.7987
2023-02-15 05:40:56:193,-0.327633,0.513262,-9.70258,-3.35491,-2.6731,89.7943
2023-02-15 05:40:56:203,-0.309532,0.510624,-9.71315,-3.37834,-2.68792,89.7931
2023-02-15 05:40:56:213,-0.326442,0.518256,-9.73119,-3.40231,-2.70781,89.7947
2023-02-15 05:40:56:223,-0.343515,0.509598,-9.71985,-3.42964,-2.72634,89.8004
2023-02-15 05:40:56:233,-0.340431,0.505839,-9.71897,-3.45849,-2.74484,89.8132
2023-02-15 05:40:56:243,-0.335877,0.491613,-9.70256,-3.48653,-2.76241,89.8314
2023-02-15 05:40:56:253,-0.342507,0.484407,-9.69125,-3.5224,-2.7799,89.8551
2023-02-15 05:40:56:263,-0.35001,0.494705,-9.69674,-3.56387,-2.79699,89.8842
2023-02-15 05:40:56:273,-0.385812,0.525802,-9.70569,-3.60702,-2.8185,89.9167
2023-02-15 05:40:56:283,-0.435625,0.559222,-9.73529,-3.65076,-2.8443,89.954
2023-02-15 05:40:56:293,-0.441647,0.56567,-9.7721,-3.69152,-2.86812,89.9943
2023-02-15 05:40:56:303,-0.443836,0.572016,-9.80173,-3.72814,-2.886,90.0387
2023-02-15 05:40:56:313,-0.505128,0.56375,-9.78831,-3.75658,-2.89364,90.0839
2023-02-15 05:40:56:323,-0.455788,0.523737,-9.762,-3.77541,-2.88592,90.1268
2023-02-15 05:40:56:333,-0.302601,0.463152,-9.67468,-3.78303,-2.86145,90.1693
2023-02-15 05:40:56:343,-0.184757,0.410895,-9.59676,-3.79464,-2.82534,90.21
2023-02-15 05:40:56:353,-0.124179,0.391521,-9.5447,-3.80968,-2.78682,90.2552
2023-02-15 05:40:56:363,-0.0979954,0.392231,-9.52729,-3.83945,-2.75585,90.3038
2023-02-15 05:40:56:374,-0.110477,0.419965,-9.51691,-3.88361,-2.73159,90.3608
2023-02-15 05:40:56:384,-0.150335,0.45842,-9.58956,-3.93811,-2.71861,90.425
2023-02-15 05:40:56:394,-0.215824,0.554787,-9.74065,-4.01068,-2.71598,90.4965
2023-02-15 05:40:56:404,-0.27439,0.625548,-9.81392,-4.0919,-2.72203,90.5754
2023-02-15 05:40:56:414,-0.338004,0.691247,-9.85627,-4.17412,-2.74014,90.6586
2023-02-15 05:40:56:424,-0.450435,0.748254,-9.85003,-4.25807,-2.7699,90.7457
2023-02-15 05:40:56:434,-0.545222,0.779236,-9.81828,-4.33897,-2.80775,90.8367
2023-02-15 05:40:56:443,-0.601466,0.817913,-9.81171,-4.42004,-2.85558,90.9318
2023-02-15 05:40:56:454,-0.680918,0.848057,-9.80641,-4.49447,-2.90792,91.0252
2023-02-15 05:40:56:464,-0.769879,0.864207,-9.74981,-4.56318,-2.96315,91.1181
2023-02-15 05:40:56:474,-0.811011,0.868385,-9.68477,-4.63363,-3.02273,91.2077
2023-02-15 05:40:56:484,-0.857136,0.895184,-9.66819,-4.70194,-3.07835,91.2922
2023-02-15 05:40:56:494,-0.904341,0.907123,-9.65599,-4.77027,-3.1341,91.37
2023-02-15 05:40:56:504,-0.93572,0.912119,-9.60967,-4.83705,-3.18917,91.4414
2023-02-15 05:40:56:514,-0.930922,0.931777,-9.60827,-4.90735,-3.23949,91.5069
2023-02-15 05:40:56:524,-0.927731,0.967236,-9.64688,-4.97907,-3.28183,91.563
2023-02-15 05:40:56:534,-0.908237,0.974758,-9.65929,-5.0532,-3.31924,91.6148
2023-02-15 05:40:56:544,-0.896439,0.990624,-9.68205,-5.12794,-3.35038,91.6621
2023-02-15 05:40:56:554,-0.886396,1.01287,-9.71895,-5.20473,-3.37901,91.7034
2023-02-15 05:40:56:564,-0.906436,1.04568,-9.73644,-5.28329,-3.39684,91.7379
2023-02-15 05:40:56:574,-0.902632,1.08821,-9.75219,-5.35158,-3.40797,91.7696
2023-02-15 05:40:56:584,-0.882307,1.10336,-9.77464,-5.41529,-3.41146,91.7959
2023-02-15 05:40:56:594,-0.846512,1.0961,-9.79129,-5.47279,-3.41008,91.8154
2023-02-15 05:40:56:604,-0.808076,1.09119,-9.7967,-5.52136,-3.39943,91.8248
2023-02-15 05:40:56:614,-0.774761,1.08735,-9.79776,-5.56171,-3.37881,91.8247
2023-02-15 05:40:56:624,-0.726968,1.0865,-9.79622,-5.5946,-3.35012,91.8158
2023-02-15 05:40:56:634,-0.659668,1.08063,-9.79284,-5.62394,-3.32168,91.8029
2023-02-15 05:40:56:644,-0.591634,1.08041,-9.80409,-5.64527,-3.28764,91.7831
2023-02-15 05:40:56:654,-0.55911,1.07479,-9.82721,-5.65696,-3.25557,91.7506
2023-02-15 05:40:56:664,-0.526071,1.06533,-9.84877,-5.66714,-3.22486,91.7163
2023-02-15 05:40:56:674,-0.497653,1.05811,-9.85089,-5.6686,-3.19621,91.676
2023-02-15 05:40:56:684,-0.520419,1.08543,-9.88358,-5.66559,-3.17358,91.6386
2023-02-15 05:40:56:694,-0.537341,1.08078,-9.92405,-5.65455,-3.15129,91.5962
2023-02-15 05:40:56:704,-0.523811,1.05758,-9.90848,-5.63253,-3.1275,91.5509
2023-02-15 05:40:56:714,-0.470872,1.02545,-9.86789,-5.60025,-3.09932,91.5057
2023-02-15 05:40:56:724,-0.451803,0.992731,-9.82856,-5.56267,-3.06822,91.4544
2023-02-15 05:40:56:734,-0.454587,0.981654,-9.76777,-5.5168,-3.03865,91.4045
2023-02-15 05:40:56:744,-0.425544,0.954912,-9.73475,-5.46912,-3.00895,91.3541
2023-02-15 05:40:56:754,-0.367364,0.930933,-9.71795,-5.418,-2.97736,91.3036
2023-02-15 05:40:56:764,-0.353403,0.909935,-9.69697,-5.36838,-2.9442,91.2531
2023-02-15 05:40:56:774,-0.342382,0.906657,-9.66598,-5.3168,-2.91341,91.2046
2023-02-15 05:40:56:784,-0.337953,0.907382,-9.6757,-5.26882,-2.88576,91.1595
2023-02-15 05:40:56:794,-0.34104,0.90316,-9.67232,-5.21797,-2.85868,91.1215
2023-02-15 05:40:56:804,-0.326835,0.889302,-9.6775,-5.16787,-2.83562,91.0841
2023-02-15 05:40:56:814,-0.298985,0.887957,-9.6865,-5.1233,-2.81092,91.0501
2023-02-15 05:40:56:824,-0.294881,0.885051,-9.68962,-5.07721,-2.78603,91.02
2023-02-15 05:40:56:834,-0.271447,0.846939,-9.68439,-5.03081,-2.76051,90.9959
2023-02-15 05:40:56:844,-0.259745,0.806726,-9.68059,-4.98582,-2.73273,90.977
2023-02-15 05:40:56:854,-0.263305,0.784119,-9.66988,-4.94843,-2.70819,90.9652
2023-02-15 05:40:56:864,-0.295092,0.780788,-9.67472,-4.91605,-2.68578,90.9629
2023-02-15 05:40:56:874,-0.299794,0.76719,-9.65919,-4.8863,-2.66524,90.9647
2023-02-15 05:40:56:884,-0.324958,0.771966,-9.63185,-4.86147,-2.64512,90.9741
2023-02-15 05:40:56:894,-0.369423,0.780579,-9.65497,-4.84362,-2.62335,90.9905
2023-02-15 05:40:56:904,-0.412523,0.79767,-9.66207,-4.82818,-2.60652,91.0104
2023-02-15 05:40:56:914,-0.429334,0.810338,-9.62909,-4.82054,-2.58736,91.0349
2023-02-15 05:40:56:924,-0.443326,0.80035,-9.59326,-4.8174,-2.57163,91.0577
2023-02-15 05:40:56:934,-0.465852,0.800571,-9.60463,-4.81948,-2.55808,91.0808
2023-02-15 05:40:56:944,-0.51345,0.821199,-9.63994,-4.82711,-2.54568,91.0963
2023-02-15 05:40:56:954,-0.523967,0.844764,-9.66089,-4.83468,-2.53607,91.108
2023-02-15 05:40:56:964,-0.476064,0.868766,-9.72206,-4.84486,-2.52425,91.1153
2023-02-15 05:40:56:974,-0.442793,0.894224,-9.75946,-4.85339,-2.51503,91.1145
2023-02-15 05:40:56:984,-0.434514,0.899059,-9.78822,-4.85861,-2.50668,91.1071
2023-02-15 05:40:56:994,-0.42488,0.879109,-9.80761,-4.86491,-2.50139,91.0927
2023-02-15 05:40:57:4,-0.43117,0.890143,-9.8115,-4.86481,-2.50229,91.0725
2023-02-15 05:40:57:14,-0.438319,0.896666,-9.83743,-4.86213,-2.50725,91.0505
2023-02-15 05:40:57:24,-0.442273,0.899632,-9.84844,-4.85541,-2.52239,91.0244
2023-02-15 05:40:57:34,-0.437349,0.892475,-9.84115,-4.84517,-2.53322,90.9946
2023-02-15 05:40:57:44,-0.432039,0.872234,-9.83599,-4.83327,-2.53842,90.9645
2023-02-15 05:40:57:54,-0.428822,0.867576,-9.79591,-4.81349,-2.5405,90.9316
2023-02-15 05:40:57:64,-0.395808,0.851032,-9.76014,-4.79049,-2.54411,90.8959
2023-02-15 05:40:57:74,-0.357618,0.840309,-9.73849,-4.7651,-2.53999,90.8621
2023-02-15 05:40:57:84,-0.342547,0.821319,-9.70706,-4.73718,-2.53398,90.8296
2023-02-15 05:40:57:94,-0.31282,0.793726,-9.69059,-4.70428,-2.5215,90.7992
2023-02-15 05:40:57:104,-0.26982,0.781456,-9.67248,-4.67192,-2.50833,90.7781
2023-02-15 05:40:57:114,-0.238602,0.763494,-9.66436,-4.64323,-2.49169,90.7592
2023-02-15 05:40:57:124,-0.228942,0.752473,-9.64931,-4.61568,-2.47994,90.746
2023-02-15 05:40:57:134,-0.232154,0.753031,-9.64862,-4.58914,-2.46873,90.7379
2023-02-15 05:40:57:144,-0.24628,0.748045,-9.67052,-4.57004,-2.46006,90.739
2023-02-15 05:40:57:154,-0.265519,0.776805,-9.70423,-4.55753,-2.45509,90.7506
2023-02-15 05:40:57:164,-0.305607,0.778528,-9.7173,-4.54736,-2.45318,90.7641
2023-02-15 05:40:57:173,-0.332749,0.782014,-9.72052,-4.54441,-2.45314,90.7788
2023-02-15 05:40:57:183,-0.378352,0.795296,-9.75216,-4.53744,-2.45407,90.8002
2023-02-15 05:40:57:193,-0.461785,0.814419,-9.77347,-4.53195,-2.45825,90.8225
2023-02-15 05:40:57:203,-0.525421,0.811073,-9.75672,-4.52348,-2.46539,90.8442
2023-02-15 05:40:57:213,-0.560415,0.814675,-9.74444,-4.51198,-2.47216,90.8658
2023-02-15 05:40:57:223,-0.572862,0.811795,-9.75412,-4.49792,-2.47847,90.8833
2023-02-15 05:40:57:233,-0.5727,0.803082,-9.75099,-4.4805,-2.48403,90.8927
2023-02-15 05:40:57:243,-0.576409,0.789037,-9.73141,-4.46196,-2.48447,90.8989
2023-02-15 05:40:57:253,-0.553578,0.77065,-9.7158,-4.44266,-2.4862,90.8973
2023-02-15 05:40:57:263,-0.532781,0.757892,-9.69762,-4.41839,-2.48567,90.8883
2023-02-15 05:40:57:273,-0.526524,0.751106,-9.69464,-4.39511,-2.48014,90.8728
2023-02-15 05:40:57:283,-0.496613,0.741743,-9.7044,-4.37109,-2.46996,90.8515
2023-02-15 05:40:57:293,-0.437367,0.741251,-9.71906,-4.35069,-2.45911,90.8286
2023-02-15 05:40:57:303,-0.400019,0.736618,-9.7299,-4.32951,-2.44531,90.7974
2023-02-15 05:40:57:313,-0.380665,0.739103,-9.72078,-4.311,-2.43215,90.7633
2023-02-15 05:40:57:323,-0.375943,0.72051,-9.74046,-4.29573,-2.42236,90.7256
2023-02-15 05:40:57:333,-0.359085,0.719032,-9.75637,-4.27502,-2.41054,90.6881
2023-02-15 05:40:57:343,-0.322001,0.700745,-9.74936,-4.25488,-2.39939,90.6481
2023-02-15 05:40:57:353,-0.287141,0.676516,-9.75374,-4.23926,-2.39053,90.6144
2023-02-15 05:40:57:363,-0.27446,0.664396,-9.73515,-4.21889,-2.38561,90.5778
2023-02-15 05:40:57:373,-0.258204,0.656353,-9.7192,-4.2018,-2.37847,90.5433
2023-02-15 05:40:57:383,-0.253409,0.658006,-9.74377,-4.18979,-2.37171,90.5147
2023-02-15 05:40:57:393,-0.272404,0.666358,-9.77177,-4.17648,-2.37197,90.4903
2023-02-15 05:40:57:403,-0.305651,0.678092,-9.78691,-4.16331,-2.37116,90.4735
2023-02-15 05:40:57:413,-0.33697,0.697331,-9.77564,-4.15259,-2.37316,90.4607
2023-02-15 05:40:57:423,-0.389086,0.673589,-9.76305,-4.14011,-2.38076,90.4485
2023-02-15 05:40:57:433,-0.453902,0.652203,-9.74644,-4.12402,-2.39684,90.4393
2023-02-15 05:40:57:443,-0.539299,0.658156,-9.73957,-4.1082,-2.41667,90.429
2023-02-15 05:40:57:453,-0.590243,0.629249,-9.68071,-4.093,-2.43777,90.4185
2023-02-15 05:40:57:463,-0.595474,0.591598,-9.60353,-4.08389,-2.4566,90.4078
2023-02-15 05:40:57:473,-0.591365,0.564208,-9.54849,-4.07567,-2.47015,90.3939
2023-02-15 05:40:57:483,-0.571668,0.564806,-9.54943,-4.07696,-2.47599,90.3809
2023-02-15 05:40:57:493,-0.499017,0.606458,-9.61002,-4.08622,-2.46762,90.3674
2023-02-15 05:40:57:503,-0.442357,0.652476,-9.68583,-4.10035,-2.45553,90.3508
2023-02-15 05:40:57:513,-0.422249,0.710049,-9.77901,-4.12025,-2.43831,90.3375
2023-02-15 05:40:57:523,-0.432062,0.762846,-9.85513,-4.13506,-2.41798,90.3189
2023-02-15 05:40:57:533,-0.457884,0.784281,-9.89181,-4.14372,-2.39805,90.3016
2023-02-15 05:40:57:543,-0.436236,0.788337,-9.86543,-4.14334,-2.37693,90.2793
2023-02-15 05:40:57:553,-0.406165,0.753984,-9.84123,-4.13795,-2.35253,90.2506
2023-02-15 05:40:57:563,-0.36316,0.73432,-9.79524,-4.12696,-2.32793,90.2187
2023-02-15 05:40:57:573,-0.311266,0.704611,-9.75246,-4.11108,-2.29832,90.1819
2023-02-15 05:40:57:583,-0.223647,0.690583,-9.73699,-4.09281,-2.27056,90.1435
2023-02-15 05:40:57:593,-0.165438,0.68645,-9.77653,-4.0753,-2.24827,90.1039
2023-02-15 05:40:57:603,-0.158425,0.715639,-9.8377,-4.05956,-2.23156,90.0637
2023-02-15 05:40:57:613,-0.171681,0.722089,-9.87395,-4.04277,-2.22065,90.0274
2023-02-15 05:40:57:623,-0.141609,0.70701,-9.87695,-4.01912,-2.20901,89.9978
2023-02-15 05:40:57:633,-0.122675,0.701084,-9.86681,-3.99004,-2.19691,89.9715
2023-02-15 05:40:57:643,-0.150606,0.680034,-9.79913,-3.96054,-2.18742,89.9461
2023-02-15 05:40:57:653,-0.181493,0.643903,-9.7208,-3.92538,-2.18134,89.9257
2023-02-15 05:40:57:663,-0.211917,0.616699,-9.68091,-3.89177,-2.18061,89.9108
2023-02-15 05:40:57:674,-0.258273,0.62407,-9.67883,-3.86256,-2.18326,89.9017
2023-02-15 05:40:57:683,-0.307452,0.635541,-9.68568,-3.83787,-2.19495,89.8944
2023-02-15 05:40:57:693,-0.340366,0.646319,-9.68962,-3.81251,-2.20922,89.8862
2023-02-15 05:40:57:704,-0.377896,0.63664,-9.71563,-3.78845,-2.22665,89.8764
2023-02-15 05:40:57:714,-0.406723,0.631258,-9.74663,-3.7681,-2.24768,89.8684
2023-02-15 05:40:57:724,-0.410542,0.631851,-9.76315,-3.74513,-2.27103,89.8555
2023-02-15 05:40:57:734,-0.394866,0.617093,-9.76511,-3.72268,-2.29553,89.8417
2023-02-15 05:40:57:744,-0.3884,0.58091,-9.75858,-3.70019,-2.31892,89.8298
2023-02-15 05:40:57:754,-0.387909,0.555358,-9.73525,-3.67446,-2.33881,89.8187
2023-02-15 05:40:57:764,-0.432079,0.542581,-9.71573,-3.65216,-2.36146,89.8099
2023-02-15 05:40:57:774,-0.493321,0.557113,-9.71979,-3.63134,-2.38249,89.809
2023-02-15 05:40:57:784,-0.542187,0.571983,-9.7015,-3.61325,-2.40165,89.806
2023-02-15 05:40:57:794,-0.578729,0.587749,-9.69203,-3.59671,-2.41323,89.8024
2023-02-15 05:40:57:804,-0.614605,0.600325,-9.68198,-3.58412,-2.4213,89.7977
2023-02-15 05:40:57:814,-0.60162,0.6073,-9.67119,-3.57214,-2.42032,89.7889
2023-02-15 05:40:57:824,-0.557038,0.596655,-9.666,-3.56331,-2.40952,89.77
2023-02-15 05:40:57:834,-0.49877,0.587546,-9.61428,-3.55247,-2.39696,89.743
2023-02-15 05:40:57:844,-0.431083,0.569242,-9.59063,-3.54803,-2.37689,89.7172
2023-02-15 05:40:57:854,-0.374167,0.578895,-9.64053,-3.54775,-2.35581,89.6891
2023-02-15 05:40:57:864,-0.340135,0.595694,-9.66904,-3.5525,-2.33119,89.6635
2023-02-15 05:40:57:874,-0.293036,0.615278,-9.68936,-3.56333,-2.30584,89.6352
2023-02-15 05:40:57:884,-0.224927,0.6181,-9.73285,-3.57346,-2.27809,89.6106
2023-02-15 05:40:57:894,-0.193588,0.627181,-9.77266,-3.58463,-2.24648,89.5904
2023-02-15 05:40:57:904,-0.218089,0.638804,-9.79171,-3.59688,-2.22336,89.5746
2023-02-15 05:40:57:914,-0.251231,0.639835,-9.79128,-3.60567,-2.20746,89.5628
2023-02-15 05:40:57:924,-0.264154,0.656962,-9.7845,-3.61493,-2.19404,89.5566
2023-02-15 05:40:57:934,-0.272843,0.669391,-9.78415,-3.62382,-2.17862,89.5488
2023-02-15 05:40:57:944,-0.269004,0.671782,-9.77527,-3.63262,-2.16621,89.5467
2023-02-15 05:40:57:954,-0.257658,0.667932,-9.76595,-3.63901,-2.1555,89.5486
2023-02-15 05:40:57:964,-0.264001,0.679954,-9.76603,-3.64425,-2.1452,89.5481
2023-02-15 05:40:57:974,-0.283409,0.685243,-9.77583,-3.64919,-2.14395,89.5529
2023-02-15 05:40:57:984,-0.266268,0.682595,-9.78761,-3.65525,-2.14382,89.557
2023-02-15 05:40:57:994,-0.231541,0.662679,-9.76271,-3.65709,-2.14488,89.5625
2023-02-15 05:40:58:3,-0.219853,0.64522,-9.72988,-3.65918,-2.15254,89.5654
2023-02-15 05:40:58:13,-0.2348,0.657727,-9.73961,-3.66003,-2.16338,89.5758
2023-02-15 05:40:58:23,-0.280471,0.661658,-9.74621,-3.66579,-2.17971,89.5923
2023-02-15 05:40:58:33,-0.331135,0.666157,-9.77379,-3.66856,-2.20282,89.6136
2023-02-15 05:40:58:44,-0.38256,0.663435,-9.78013,-3.67031,-2.22949,89.6407
2023-02-15 05:40:58:54,-0.446448,0.655802,-9.75767,-3.67278,-2.25589,89.669
2023-02-15 05:40:58:63,-0.496617,0.666771,-9.7469,-3.67323,-2.2759,89.7037
2023-02-15 05:40:58:73,-0.532557,0.670876,-9.76302,-3.67363,-2.29553,89.7401
2023-02-15 05:40:58:83,-0.552334,0.688299,-9.75884,-3.67473,-2.31158,89.7792
2023-02-15 05:40:58:94,-0.556456,0.686586,-9.75174,-3.67216,-2.32755,89.8136
2023-02-15 05:40:58:104,-0.566543,0.680898,-9.75046,-3.66561,-2.33854,89.8431
2023-02-15 05:40:58:114,-0.552648,0.685091,-9.75947,-3.65505,-2.34597,89.8667
2023-02-15 05:40:58:124,-0.553084,0.664639,-9.76051,-3.63957,-2.35334,89.8815
2023-02-15 05:40:58:134,-0.569444,0.662595,-9.73362,-3.62693,-2.35755,89.8913
2023-02-15 05:40:58:144,-0.539054,0.642193,-9.73002,-3.60963,-2.35964,89.8973
2023-02-15 05:40:58:154,-0.487246,0.638589,-9.74223,-3.59327,-2.35605,89.8958
2023-02-15 05:40:58:164,-0.424328,0.628324,-9.7477,-3.5738,-2.3494,89.8945
2023-02-15 05:40:58:174,-0.334528,0.608239,-9.73817,-3.55801,-2.33905,89.8878
2023-02-15 05:40:58:184,-0.245796,0.590316,-9.72838,-3.54423,-2.32746,89.8798
2023-02-15 05:40:58:194,-0.203541,0.586168,-9.72774,-3.53348,-2.3209,89.8781
2023-02-15 05:40:58:204,-0.194991,0.582733,-9.72662,-3.52491,-2.3209,89.8811
2023-02-15 05:40:58:214,-0.241975,0.575121,-9.7023,-3.51762,-2.3229,89.8881
2023-02-15 05:40:58:224,-0.318461,0.56944,-9.70732,-3.51277,-2.32941,89.903
2023-02-15 05:40:58:234,-0.361885,0.608859,-9.72809,-3.5101,-2.33046,89.9243
2023-02-15 05:40:58:244,-0.371646,0.629553,-9.74732,-3.5104,-2.33722,89.9462
2023-02-15 05:40:58:253,-0.362971,0.631812,-9.74604,-3.50754,-2.34256,89.9742
2023-02-15 05:40:58:263,-0.370155,0.641129,-9.7642,-3.50941,-2.34283,89.9965
2023-02-15 05:40:58:273,-0.407078,0.636019,-9.76923,-3.50525,-2.34875,90.0205
2023-02-15 05:40:58:283,-0.448711,0.630298,-9.77047,-3.49989,-2.36105,90.0454
2023-02-15 05:40:58:293,-0.493081,0.627261,-9.73664,-3.49622,-2.3786,90.0626
2023-02-15 05:40:58:303,-0.53617,0.618887,-9.6971,-3.48774,-2.3965,90.0784
2023-02-15 05:40:58:313,-0.565195,0.632596,-9.69517,-3.48694,-2.41721,90.0876
2023-02-15 05:40:58:323,-0.577891,0.632776,-9.68213,-3.49142,-2.43521,90.0912
2023-02-15 05:40:58:333,-0.573413,0.639293,-9.65851,-3.49833,-2.4475,90.0847
2023-02-15 05:40:58:343,-0.500387,0.663583,-9.72522,-3.50862,-2.45596,90.075
2023-02-15 05:40:58:354,-0.441252,0.686895,-9.81311,-3.51783,-2.46118,90.0617
2023-02-15 05:40:58:363,-0.417182,0.682404,-9.83509,-3.52515,-2.46579,90.0442
2023-02-15 05:40:58:374,-0.367993,0.665528,-9.84315,-3.5232,-2.46759,90.0298
2023-02-15 05:40:58:384,-0.35526,0.660323,-9.84382,-3.51302,-2.47516,90.0199
2023-02-15 05:40:58:394,-0.399723,0.642994,-9.79101,-3.49858,-2.48268,90.0103
2023-02-15 05:40:58:404,-0.468452,0.596327,-9.70492,-3.47983,-2.49757,90.0035
2023-02-15 05:40:58:414,-0.541045,0.566833,-9.62724,-3.46244,-2.51422,89.9956
2023-02-15 05:40:58:424,-0.620279,0.551882,-9.58681,-3.45231,-2.527,89.9878
2023-02-15 05:40:58:434,-0.671517,0.565955,-9.61906,-3.44727,-2.53675,89.9774
2023-02-15 05:40:58:444,-0.654346,0.608001,-9.68754,-3.45026,-2.54199,89.9575
2023-02-15 05:40:58:454,-0.589842,0.637628,-9.70629,-3.453,-2.53812,89.9271
2023-02-15 05:40:58:464,-0.426522,0.619098,-9.74889,-3.45524,-2.52544,89.8874
2023-02-15 05:40:58:474,-0.215552,0.620916,-9.88761,-3.4543,-2.50883,89.8429
2023-02-15 05:40:58:484,-0.128592,0.609828,-9.91719,-3.44597,-2.49393,89.7976
2023-02-15 05:40:58:494,-0.106409,0.533713,-9.80886,-3.43071,-2.48809,89.7578
2023-02-15 05:40:58:504,-0.118494,0.466517,-9.74801,-3.4113,-2.49311,89.7278
2023-02-15 05:40:58:514,-0.25602,0.434233,-9.6642,-3.39178,-2.51479,89.7065
2023-02-15 05:40:58:524,-0.452316,0.435808,-9.60486,-3.37766,-2.5522,89.6928
2023-02-15 05:40:58:534,-0.573874,0.434827,-9.62144,-3.37388,-2.58838,89.6846
2023-02-15 05:40:58:544,-0.614006,0.466258,-9.64878,-3.37729,-2.61769,89.6738
2023-02-15 05:40:58:554,-0.603758,0.490327,-9.68951,-3.39299,-2.63489,89.6598
2023-02-15 05:40:58:564,-0.539188,0.533562,-9.72115,-3.41293,-2.64535,89.63
2023-02-15 05:40:58:574,-0.431893,0.552472,-9.75913,-3.43282,-2.64519,89.5927
2023-02-15 05:40:58:584,-0.299109,0.578484,-9.82395,-3.45246,-2.64413,89.549
2023-02-15 05:40:58:594,-0.245453,0.595265,-9.89593,-3.46374,-2.64992,89.5013
2023-02-15 05:40:58:603,-0.33704,0.588972,-9.85542,-3.46698,-2.66895,89.4558
2023-02-15 05:40:58:614,-0.456342,0.550546,-9.72738,-3.46393,-2.69717,89.4187
2023-02-15 05:40:58:624,-0.539888,0.498226,-9.60491,-3.46022,-2.72741,89.3833
2023-02-15 05:40:58:634,-0.631976,0.485958,-9.53759,-3.46032,-2.75527,89.3483
2023-02-15 05:40:58:644,-0.662825,0.492016,-9.5506,-3.46554,-2.77971,89.3083
2023-02-15 05:40:58:654,-0.6467,0.525838,-9.61449,-3.47762,-2.79681,89.2623
2023-02-15 05:40:58:664,-0.599025,0.565722,-9.71517,-3.49248,-2.80848,89.2089
2023-02-15 05:40:58:674,-0.556862,0.585988,-9.77195,-3.51383,-2.81131,89.1511
2023-02-15 05:40:58:684,-0.49619,0.581683,-9.78296,-3.53249,-2.80769,89.0842
2023-02-15 05:40:58:694,-0.41,0.594187,-9.80867,-3.55049,-2.79759,89.0193
2023-02-15 05:40:58:704,-0.345297,0.599008,-9.8316,-3.56845,-2.78428,88.958
2023-02-15 05:40:58:714,-0.320539,0.571741,-9.81396,-3.58162,-2.77079,88.9014
2023-02-15 05:40:58:724,-0.295112,0.562427,-9.77587,-3.59106,-2.75794,88.8494
2023-02-15 05:40:58:734,-0.289284,0.561193,-9.73908,-3.60186,-2.74992,88.8069
2023-02-15 05:40:58:744,-0.337388,0.554888,-9.69034,-3.61286,-2.7409,88.7716
2023-02-15 05:40:58:754,-0.384648,0.558787,-9.65001,-3.62963,-2.7286,88.7456
2023-02-15 05:40:58:764,-0.415167,0.563902,-9.66108,-3.6462,-2.71892,88.7255
2023-02-15 05:40:58:774,-0.453007,0.608105,-9.71715,-3.66565,-2.70713,88.7097
2023-02-15 05:40:58:784,-0.485015,0.654042,-9.78733,-3.68658,-2.69172,88.6934
2023-02-15 05:40:58:794,-0.47065,0.688122,-9.82888,-3.70308,-2.67578,88.68
2023-02-15 05:40:58:804,-0.43143,0.680702,-9.82722,-3.71394,-2.65797,88.6621
2023-02-15 05:40:58:814,-0.417286,0.680368,-9.81892,-3.72293,-2.63998,88.6423
2023-02-15 05:40:58:824,-0.415919,0.661177,-9.80172,-3.72813,-2.63078,88.6229
2023-02-15 05:40:58:834,-0.409209,0.632668,-9.77722,-3.72822,-2.62139,88.6017
2023-02-15 05:40:58:844,-0.420915,0.617935,-9.77442,-3.72612,-2.6103,88.5794
2023-02-15 05:40:58:854,-0.443698,0.612809,-9.79318,-3.7251,-2.60848,88.5595
2023-02-15 05:40:58:864,-0.477786,0.607095,-9.77332,-3.72607,-2.60429,88.5393
2023-02-15 05:40:58:874,-0.459835,0.605994,-9.7503,-3.72461,-2.59841,88.5205
2023-02-15 05:40:58:884,-0.449471,0.616567,-9.72131,-3.72533,-2.58956,88.4983
2023-02-15 05:40:58:894,-0.410802,0.623453,-9.66299,-3.72744,-2.57411,88.4742
2023-02-15 05:40:58:904,-0.352849,0.601837,-9.6419,-3.73,-2.55876,88.4488
2023-02-15 05:40:58:914,-0.314534,0.59607,-9.64268,-3.73812,-2.54453,88.422
2023-02-15 05:40:58:924,-0.28959,0.61206,-9.67078,-3.74637,-2.53143,88.3961
2023-02-15 05:40:58:934,-0.27757,0.625722,-9.70879,-3.75808,-2.52377,88.3761
2023-02-15 05:40:58:944,-0.289132,0.633385,-9.7328,-3.76509,-2.52111,88.3549
2023-02-15 05:40:58:954,-0.343417,0.629332,-9.74602,-3.77379,-2.52402,88.3374
2023-02-15 05:40:58:964,-0.405707,0.633382,-9.73744,-3.78671,-2.52711,88.3252
2023-02-15 05:40:58:974,-0.463071,0.643018,-9.73218,-3.80078,-2.53204,88.3122
2023-02-15 05:40:58:983,-0.47628,0.648317,-9.71925,-3.8166,-2.53019,88.3015
2023-02-15 05:40:58:994,-0.46496,0.663246,-9.68713,-3.83716,-2.53131,88.2869
2023-02-15 05:40:59:4,-0.4206,0.678722,-9.67843,-3.85957,-2.53067,88.2669
2023-02-15 05:40:59:14,-0.370062,0.695944,-9.69324,-3.8851,-2.52212,88.2422
2023-02-15 05:40:59:24,-0.330832,0.705604,-9.74255,-3.91241,-2.52455,88.2195
2023-02-15 05:40:59:34,-0.292641,0.733506,-9.77523,-3.94054,-2.52775,88.1966
2023-02-15 05:40:59:44,-0.290414,0.74461,-9.79122,-3.96859,-2.53247,88.175
2023-02-15 05:40:59:54,-0.287422,0.750116,-9.79493,-3.99645,-2.53655,88.1589
2023-02-15 05:40:59:64,-0.300237,0.749365,-9.77709,-4.01675,-2.5448,88.1517
2023-02-15 05:40:59:74,-0.35278,0.743271,-9.76402,-4.03801,-2.55294,88.1518
2023-02-15 05:40:59:84,-0.398677,0.749346,-9.73265,-4.05337,-2.55988,88.1621
2023-02-15 05:40:59:94,-0.430894,0.74178,-9.724,-4.07093,-2.56398,88.1786
2023-02-15 05:40:59:104,-0.44859,0.738859,-9.73743,-4.08445,-2.56038,88.2014
2023-02-15 05:40:59:113,-0.457134,0.7498,-9.75322,-4.10129,-2.55508,88.2309
2023-02-15 05:40:59:123,-0.468015,0.782531,-9.75036,-4.12144,-2.54863,88.2685
2023-02-15 05:40:59:134,-0.488839,0.791804,-9.74175,-4.13999,-2.54433,88.3027
2023-02-15 05:40:59:144,-0.551859,0.803586,-9.74894,-4.15948,-2.54475,88.3371
2023-02-15 05:40:59:154,-0.594369,0.82451,-9.73667,-4.18049,-2.54453,88.3667
2023-02-15 05:40:59:164,-0.589543,0.829842,-9.72052,-4.20017,-2.54125,88.3936
2023-02-15 05:40:59:174,-0.542298,0.816022,-9.7172,-4.2146,-2.53225,88.4143
2023-02-15 05:40:59:184,-0.461282,0.815824,-9.76918,-4.22666,-2.51859,88.4273
2023-02-15 05:40:59:194,-0.37357,0.821121,-9.83509,-4.23357,-2.50228,88.4344
2023-02-15 05:40:59:204,-0.336519,0.805456,-9.8522,-4.23173,-2.48985,88.4432
2023-02-15 05:40:59:214,-0.320132,0.787694,-9.8587,-4.23033,-2.47781,88.4549
2023-02-15 05:40:59:224,-0.291323,0.7762,-9.83306,-4.21894,-2.46899,88.4727
2023-02-15 05:40:59:234,-0.313885,0.769787,-9.77915,-4.20683,-2.46169,88.4942
2023-02-15 05:40:59:244,-0.386341,0.744387,-9.71139,-4.19177,-2.45805,88.522
2023-02-15 05:40:59:254,-0.42782,0.743435,-9.68766,-4.18092,-2.45398,88.5525
2023-02-15 05:40:59:264,-0.482534,0.76567,-9.64962,-4.17175,-2.4533,88.583
2023-02-15 05:40:59:274,-0.510744,0.754782,-9.65642,-4.16399,-2.4504,88.6056
2023-02-15 05:40:59:284,-0.471352,0.774118,-9.71909,-4.15995,-2.44701,88.6266
2023-02-15 05:40:59:294,-0.400441,0.77344,-9.79985,-4.15053,-2.43926,88.6413
2023-02-15 05:40:59:304,-0.304573,0.769821,-9.85886,-4.13701,-2.42785,88.6542
2023-02-15 05:40:59:314,-0.173257,0.750408,-9.8887,-4.12005,-2.42127,88.6661
2023-02-15 05:40:59:324,-0.0947105,0.687004,-9.87102,-4.0939,-2.41618,88.6835
2023-02-15 05:40:59:334,-0.10967,0.636046,-9.79375,-4.06271,-2.41769,88.7095
2023-02-15 05:40:59:344,-0.18695,0.626543,-9.71231,-4.0345,-2.42837,88.7544
2023-02-15 05:40:59:354,-0.29828,0.606013,-9.63346,-4.0025,-2.44635,88.8104
2023-02-15 05:40:59:364,-0.411392,0.595225,-9.58117,-3.98391,-2.45761,88.8745
2023-02-15 05:40:59:374,-0.504395,0.623152,-9.58246,-3.9714,-2.46943,88.9437
2023-02-15 05:40:59:384,-0.547104,0.6636,-9.64763,-3.96665,-2.47844,89.0118
2023-02-15 05:40:59:394,-0.551828,0.682538,-9.73849,-3.96339,-2.48071,89.0768
2023-02-15 05:40:59:404,-0.513332,0.707023,-9.8084,-3.9507,-2.48091,89.1353
2023-02-15 05:40:59:414,-0.47069,0.720342,-9.86094,-3.93523,-2.47898,89.1908
2023-02-15 05:40:59:424,-0.440466,0.715733,-9.87803,-3.91512,-2.47812,89.2396
2023-02-15 05:40:59:434,-0.414684,0.66498,-9.86026,-3.88664,-2.47967,89.2866
2023-02-15 05:40:59:444,-0.413577,0.613187,-9.79834,-3.85407,-2.47942,89.3342
2023-02-15 05:40:59:454,-0.445413,0.581831,-9.74623,-3.82053,-2.48435,89.3775
2023-02-15 05:40:59:464,-0.486213,0.550108,-9.69858,-3.78906,-2.49358,89.4233
2023-02-15 05:40:59:474,-0.534926,0.549574,-9.65189,-3.75738,-2.49922,89.4657
2023-02-15 05:40:59:484,-0.552658,0.564777,-9.62273,-3.73091,-2.50326,89.5095
2023-02-15 05:40:59:494,-0.567746,0.570362,-9.63583,-3.71056,-2.5096,89.5498
2023-02-15 05:40:59:504,-0.583404,0.602148,-9.67088,-3.6954,-2.51339,89.5846
2023-02-15 05:40:59:514,-0.583003,0.605204,-9.70093,-3.68016,-2.51655,89.6119
2023-02-15 05:40:59:523,-0.580641,0.610485,-9.70342,-3.66522,-2.51735,89.6307
2023-02-15 05:40:59:534,-0.541642,0.596456,-9.69503,-3.64979,-2.51809,89.6421
2023-02-15 05:40:59:543,-0.498494,0.569741,-9.68959,-3.63745,-2.51789,89.6467
2023-02-15 05:40:59:554,-0.471619,0.517824,-9.65609,-3.62375,-2.51761,89.6453
2023-02-15 05:40:59:564,-0.442806,0.510117,-9.64841,-3.61576,-2.51481,89.6414
2023-02-15 05:40:59:574,-0.414231,0.513946,-9.65311,-3.61313,-2.51468,89.6334
2023-02-15 05:40:59:584,-0.397002,0.493565,-9.64605,-3.61904,-2.51666,89.6231
2023-02-15 05:40:59:594,-0.367707,0.478993,-9.6453,-3.63169,-2.51462,89.6117
2023-02-15 05:40:59:604,-0.355639,0.506036,-9.63209,-3.65259,-2.50977,89.6011
2023-02-15 05:40:59:614,-0.339925,0.525193,-9.62326,-3.68169,-2.50611,89.5918
2023-02-15 05:40:59:623,-0.33507,0.563632,-9.60833,-3.71519,-2.50245,89.5845
2023-02-15 05:40:59:633,-0.335527,0.598096,-9.62976,-3.76153,-2.50046,89.5775
2023-02-15 05:40:59:643,-0.326991,0.640776,-9.65823,-3.81503,-2.49986,89.5731
2023-02-15 05:40:59:654,-0.336861,0.67669,-9.64719,-3.86888,-2.50396,89.5692
2023-02-15 05:40:59:664,-0.33427,0.709124,-9.69299,-3.92707,-2.51445,89.5664
2023-02-15 05:40:59:674,-0.347317,0.766343,-9.76813,-3.98666,-2.52288,89.5643
2023-02-15 05:40:59:684,-0.361441,0.815483,-9.8093,-4.04556,-2.53,89.5664
2023-02-15 05:40:59:694,-0.345551,0.827872,-9.81422,-4.10254,-2.53898,89.571
2023-02-15 05:40:59:704,-0.348469,0.828014,-9.79561,-4.14961,-2.54619,89.5783
2023-02-15 05:40:59:714,-0.401007,0.838466,-9.7896,-4.19297,-2.55993,89.5885
2023-02-15 05:40:59:724,-0.45371,0.848506,-9.78333,-4.2337,-2.57436,89.6062
2023-02-15 05:40:59:734,-0.512645,0.86601,-9.77737,-4.26805,-2.58874,89.6284
2023-02-15 05:40:59:744,-0.560428,0.874124,-9.79331,-4.30229,-2.59792,89.6529
2023-02-15 05:40:59:754,-0.574318,0.88825,-9.80021,-4.32949,-2.60683,89.6747
2023-02-15 05:40:59:764,-0.558663,0.901372,-9.8148,-4.35354,-2.60892,89.6924
2023-02-15 05:40:59:774,-0.569696,0.917556,-9.83644,-4.37168,-2.6089,89.7091
2023-02-15 05:40:59:784,-0.57033,0.933858,-9.8435,-4.38548,-2.60527,89.7241
2023-02-15 05:40:59:794,-0.561787,0.935011,-9.83946,-4.39554,-2.6001,89.729
2023-02-15 05:40:59:804,-0.550636,0.916603,-9.81514,-4.39748,-2.597,89.7337
2023-02-15 05:40:59:814,-0.545673,0.898352,-9.80162,-4.3886,-2.59197,89.7357
2023-02-15 05:40:59:824,-0.528797,0.868191,-9.77389,-4.3745,-2.58814,89.7309
2023-02-15 05:40:59:834,-0.512466,0.853352,-9.77537,-4.35633,-2.58069,89.7195
2023-02-15 05:40:59:844,-0.481505,0.834409,-9.77989,-4.33055,-2.57323,89.7059
2023-02-15 05:40:59:854,-0.466288,0.800319,-9.76332,-4.30017,-2.56547,89.6927
2023-02-15 05:40:59:864,-0.437281,0.773889,-9.74516,-4.26669,-2.55508,89.6754
2023-02-15 05:40:59:874,-0.404782,0.753994,-9.72849,-4.23048,-2.54023,89.658
2023-02-15 05:40:59:884,-0.366037,0.752377,-9.72231,-4.19866,-2.52113,89.6382
2023-02-15 05:40:59:894,-0.335106,0.738068,-9.73863,-4.16714,-2.50177,89.6193
2023-02-15 05:40:59:904,-0.314177,0.731879,-9.74198,-4.13697,-2.48608,89.6011
2023-02-15 05:40:59:914,-0.30925,0.744407,-9.73934,-4.10513,-2.4728,89.5861
2023-02-15 05:40:59:924,-0.29168,0.748013,-9.73086,-4.07311,-2.46116,89.5716
2023-02-15 05:40:59:934,-0.309461,0.732026,-9.72336,-4.04262,-2.45037,89.5588
2023-02-15 05:40:59:944,-0.326683,0.706609,-9.69124,-4.01341,-2.446,89.5537
2023-02-15 05:40:59:954,-0.332885,0.686689,-9.66584,-3.98289,-2.44488,89.5504
2023-02-15 05:40:59:964,-0.356047,0.682565,-9.65836,-3.95894,-2.44566,89.5496
2023-02-15 05:40:59:974,-0.373622,0.687844,-9.65868,-3.93812,-2.44507,89.5514
2023-02-15 05:40:59:984,-0.386516,0.69247,-9.70231,-3.92095,-2.44239,89.5513
2023-02-15 05:40:59:994,-0.406297,0.708985,-9.75356,-3.9046,-2.43789,89.5538
2023-02-15 05:41:00:4,-0.413572,0.714163,-9.79783,-3.88457,-2.43729,89.5572
2023-02-15 05:41:00:14,-0.404862,0.71467,-9.8165,-3.86534,-2.44063,89.5573
2023-02-15 05:41:00:24,-0.387432,0.707639,-9.81437,-3.84463,-2.44778,89.5551
2023-02-15 05:41:00:34,-0.395718,0.676577,-9.79725,-3.82248,-2.4568,89.5514
2023-02-15 05:41:00:44,-0.411766,0.668148,-9.77708,-3.79711,-2.47083,89.5428
2023-02-15 05:41:00:54,-0.423242,0.65778,-9.74932,-3.77245,-2.48146,89.5384
2023-02-15 05:41:00:64,-0.415051,0.625496,-9.7356,-3.74475,-2.48933,89.534
2023-02-15 05:41:00:74,-0.418795,0.635869,-9.7219,-3.72046,-2.49477,89.5297
2023-02-15 05:41:00:84,-0.440809,0.636625,-9.68483,-3.69477,-2.50025,89.5237
2023-02-15 05:41:00:94,-0.439254,0.618668,-9.67445,-3.66722,-2.50634,89.513
2023-02-15 05:41:00:104,-0.482288,0.62404,-9.69294,-3.64191,-2.50926,89.5
2023-02-15 05:41:00:114,-0.521548,0.649405,-9.72723,-3.6156,-2.51571,89.489
2023-02-15 05:41:00:124,-0.36913,0.588734,-9.73452,-3.58451,-2.51816,89.4688
2023-02-15 05:41:00:134,-0.266375,0.51101,-9.68334,-3.54937,-2.52061,89.4433
2023-02-15 05:41:00:143,-0.318482,0.514382,-9.69012,-3.51866,-2.52192,89.4261
2023-02-15 05:41:00:153,-0.344872,0.505149,-9.72112,-3.49422,-2.5233,89.4188
2023-02-15 05:41:00:164,-0.322664,0.464666,-9.7115,-3.4712,-2.52569,89.4184
2023-02-15 05:41:00:174,-0.336622,0.459613,-9.71052,-3.44911,-2.52287,89.4265
2023-02-15 05:41:00:184,-0.391476,0.496202,-9.73464,-3.43234,-2.51676,89.4478
2023-02-15 05:41:00:194,-0.47836,0.523494,-9.72478,-3.42034,-2.51004,89.4699
2023-02-15 05:41:00:204,-0.575268,0.539005,-9.68829,-3.41734,-2.50253,89.4946
2023-02-15 05:41:00:214,-0.663849,0.541216,-9.63679,-3.41547,-2.49178,89.5174
2023-02-15 05:41:00:224,-0.727917,0.532176,-9.65028,-3.41935,-2.48229,89.5332
2023-02-15 05:41:00:234,-0.719005,0.561917,-9.69248,-3.42581,-2.46842,89.5379
2023-02-15 05:41:00:244,-0.675214,0.568012,-9.70505,-3.43489,-2.45049,89.5318
2023-02-15 05:41:00:254,-0.622179,0.57315,-9.72885,-3.445,-2.42695,89.5174
2023-02-15 05:41:00:264,-0.592612,0.598052,-9.73342,-3.45579,-2.39321,89.4924
2023-02-15 05:41:00:274,-0.539563,0.611603,-9.72633,-3.4657,-2.35324,89.4628
2023-02-15 05:41:00:284,-0.469246,0.611404,-9.72446,-3.47044,-2.30587,89.4279
2023-02-15 05:41:00:294,-0.407767,0.619783,-9.71241,-3.47733,-2.25748,89.387
2023-02-15 05:41:00:304,-0.329216,0.613738,-9.72106,-3.47882,-2.20542,89.3382
2023-02-15 05:41:00:314,-0.26656,0.616978,-9.7624,-3.47563,-2.15482,89.2877
2023-02-15 05:41:00:324,-0.206341,0.613582,-9.8113,-3.47859,-2.11,89.2321
2023-02-15 05:41:00:334,-0.13205,0.592848,-9.8325,-3.47768,-2.06522,89.1745
2023-02-15 05:41:00:344,-0.0345107,0.57632,-9.84926,-3.47463,-2.02671,89.1215
2023-02-15 05:41:00:354,0.0109384,0.568923,-9.86568,-3.47033,-1.9941,89.0719
2023-02-15 05:41:00:364,-0.020669,0.575368,-9.84931,-3.46503,-1.97411,89.0298
2023-02-15 05:41:00:374,-0.046871,0.567725,-9.80956,-3.45803,-1.95901,88.9968
2023-02-15 05:41:00:384,-0.0659325,0.564271,-9.76804,-3.44842,-1.95224,88.9723
2023-02-15 05:41:00:394,-0.116254,0.566628,-9.73012,-3.43634,-1.95021,88.957
2023-02-15 05:41:00:404,-0.189062,0.594087,-9.73112,-3.42775,-1.95386,88.9523
2023-02-15 05:41:00:414,-0.245461,0.595093,-9.73272,-3.41858,-1.96127,88.9568
2023-02-15 05:41:00:424,-0.291053,0.59403,-9.73265,-3.40693,-1.96983,88.9657
2023-02-15 05:41:00:434,-0.317641,0.606802,-9.72813,-3.39597,-1.97829,88.9762
2023-02-15 05:41:00:444,-0.34693,0.612485,-9.74726,-3.38519,-1.99086,88.9908
2023-02-15 05:41:00:454,-0.362879,0.596146,-9.77549,-3.36978,-2.00386,89.0075
2023-02-15 05:41:00:464,-0.385153,0.609134,-9.775,-3.35598,-2.0196,89.0211
2023-02-15 05:41:00:474,-0.422308,0.60033,-9.78139,-3.34131,-2.03169,89.0341
2023-02-15 05:41:00:484,-0.458784,0.598746,-9.75583,-3.32241,-2.04725,89.0485
2023-02-15 05:41:00:494,-0.473864,0.577894,-9.73496,-3.30402,-2.05605,89.06
2023-02-15 05:41:00:503,-0.454711,0.572981,-9.74926,-3.28373,-2.06222,89.0707
2023-02-15 05:41:00:514,-0.448716,0.587712,-9.75207,-3.26336,-2.07197,89.0778
2023-02-15 05:41:00:524,-0.461128,0.575667,-9.74425,-3.24503,-2.07509,89.0817
2023-02-15 05:41:00:534,-0.42822,0.566168,-9.74009,-3.22296,-2.07858,89.0809
2023-02-15 05:41:00:544,-0.422649,0.553903,-9.72466,-3.20548,-2.08292,89.0783
2023-02-15 05:41:00:554,-0.416027,0.540389,-9.68917,-3.18738,-2.08713,89.0685
2023-02-15 05:41:00:564,-0.382986,0.51436,-9.63598,-3.17217,-2.08801,89.0579
2023-02-15 05:41:00:574,-0.369294,0.495753,-9.62767,-3.16275,-2.087,89.0443
2023-02-15 05:41:00:584,-0.394857,0.517832,-9.67344,-3.15618,-2.08681,89.0324
2023-02-15 05:41:00:594,-0.398936,0.545424,-9.72305,-3.15214,-2.08234,89.0178
2023-02-15 05:41:00:604,-0.336215,0.555032,-9.75004,-3.15,-2.07511,89.0025
2023-02-15 05:41:00:614,-0.275399,0.547717,-9.77613,-3.14404,-2.06621,88.9833
2023-02-15 05:41:00:624,-0.308933,0.552284,-9.78497,-3.13877,-2.05824,88.968
2023-02-15 05:41:00:634,-0.342965,0.554606,-9.76214,-3.13069,-2.05248,88.9537
2023-02-15 05:41:00:644,-0.3314,0.532831,-9.7176,-3.12087,-2.04783,88.9384
2023-02-15 05:41:00:654,-0.315323,0.522835,-9.69427,-3.11337,-2.04529,88.9237
2023-02-15 05:41:00:663,-0.312836,0.517435,-9.69905,-3.10777,-2.04456,88.9115
2023-02-15 05:41:00:674,-0.279697,0.520977,-9.73967,-3.1044,-2.04239,88.8971
2023-02-15 05:41:00:684,-0.266398,0.533259,-9.791,-3.10641,-2.04324,88.8814
2023-02-15 05:41:00:694,-0.284692,0.568604,-9.82134,-3.10509,-2.04378,88.8688
2023-02-15 05:41:00:703,-0.289574,0.565494,-9.81997,-3.10152,-2.04859,88.8568
2023-02-15 05:41:00:714,-0.304637,0.533267,-9.81811,-3.09299,-2.0507,88.8466
2023-02-15 05:41:00:723,-0.303105,0.537557,-9.79193,-3.08179,-2.05597,88.8347
2023-02-15 05:41:00:734,-0.306129,0.519379,-9.74807,-3.07324,-2.06176,88.8297
2023-02-15 05:41:00:744,-0.29827,0.509214,-9.71572,-3.05659,-2.06864,88.8226
2023-02-15 05:41:00:754,-0.313791,0.493879,-9.70664,-3.04149,-2.0776,88.8166
2023-02-15 05:41:00:764,-0.33047,0.500054,-9.71631,-3.03066,-2.08902,88.8136
2023-02-15 05:41:00:774,-0.342864,0.484632,-9.70888,-3.02073,-2.10086,88.8113
2023-02-15 05:41:00:784,-0.361708,0.490979,-9.69622,-3.0124,-2.11304,88.8129
2023-02-15 05:41:00:794,-0.400983,0.484391,-9.71606,-3.00535,-2.12397,88.8155
2023-02-15 05:41:00:804,-0.417123,0.494084,-9.72633,-3.00224,-2.13763,88.8188
2023-02-15 05:41:00:814,-0.422887,0.49692,-9.7529,-3.00011,-2.14858,88.8219
2023-02-15 05:41:00:823,-0.41457,0.504296,-9.76415,-2.99602,-2.15634,88.8254
2023-02-15 05:41:00:834,-0.40837,0.515027,-9.78732,-2.99608,-2.16053,88.8283
2023-02-15 05:41:00:844,-0.411697,0.518938,-9.80978,-2.98956,-2.16081,88.8318
2023-02-15 05:41:00:854,-0.419882,0.516534,-9.79824,-2.97991,-2.15956,88.8331
2023-02-15 05:41:00:864,-0.433459,0.501956,-9.7753,-2.96764,-2.15411,88.838
2023-02-15 05:41:00:874,-0.427562,0.496107,-9.74474,-2.95262,-2.14487,88.8397
2023-02-15 05:41:00:884,-0.419224,0.481609,-9.72795,-2.93724,-2.13573,88.8388
2023-02-15 05:41:00:894,-0.431546,0.485567,-9.6929,-2.92353,-2.12726,88.8346
2023-02-15 05:41:00:904,-0.419066,0.471058,-9.68184,-2.91475,-2.11986,88.8293
2023-02-15 05:41:00:914,-0.384732,0.467751,-9.70807,-2.90302,-2.10926,88.8177
2023-02-15 05:41:00:924,-0.374041,0.479684,-9.72065,-2.89514,-2.0976,88.8055
2023-02-15 05:41:00:934,-0.356945,0.473523,-9.72989,-2.89141,-2.08802,88.7947
2023-02-15 05:41:00:944,-0.319405,0.479075,-9.73932,-2.88842,-2.08074,88.7827
2023-02-15 05:41:00:954,-0.301199,0.488954,-9.74938,-2.88467,-2.07164,88.7691
2023-02-15 05:41:00:964,-0.312927,0.486871,-9.7581,-2.88283,-2.06364,88.7573
2023-02-15 05:41:00:974,-0.320431,0.487585,-9.7383,-2.88128,-2.05409,88.7467
2023-02-15 05:41:00:984,-0.304538,0.490075,-9.70764,-2.87951,-2.04338,88.7402
2023-02-15 05:41:00:994,-0.28967,0.483375,-9.70378,-2.87989,-2.03256,88.7328
2023-02-15 05:41:01:4,-0.299646,0.482799,-9.70481,-2.88227,-2.01971,88.7266
2023-02-15 05:41:01:14,-0.296868,0.491076,-9.71348,-2.88492,-2.00525,88.7246
2023-02-15 05:41:01:24,-0.281442,0.499926,-9.74104,-2.89071,-1.9933,88.724
2023-02-15 05:41:01:34,-0.269858,0.508305,-9.76734,-2.89459,-1.97926,88.7205
2023-02-15 05:41:01:44,-0.277022,0.52967,-9.78262,-2.89845,-1.96899,88.7155
2023-02-15 05:41:01:54,-0.270022,0.535235,-9.78865,-2.90206,-1.9639,88.7123
2023-02-15 05:41:01:64,-0.273367,0.531468,-9.81992,-2.90356,-1.95968,88.709
2023-02-15 05:41:01:74,-0.261891,0.524838,-9.80687,-2.9011,-1.95548,88.7039
2023-02-15 05:41:01:84,-0.261668,0.504827,-9.77163,-2.89737,-1.9568,88.6979
2023-02-15 05:41:01:93,-0.259808,0.481142,-9.72454,-2.89484,-1.95885,88.6901
2023-02-15 05:41:01:104,-0.258175,0.475766,-9.70424,-2.88948,-1.96333,88.684
2023-02-15 05:41:01:114,-0.250688,0.469243,-9.7197,-2.88954,-1.97141,88.6772
2023-02-15 05:41:01:124,-0.245891,0.477362,-9.72694,-2.89449,-1.97538,88.6772
2023-02-15 05:41:01:134,-0.277418,0.481703,-9.73483,-2.9003,-1.98211,88.6752
2023-02-15 05:41:01:144,-0.300098,0.498547,-9.75301,-2.90773,-1.99129,88.6796
2023-02-15 05:41:01:154,-0.322189,0.51501,-9.76837,-2.91461,-1.99821,88.688
2023-02-15 05:41:01:164,-0.341471,0.518011,-9.76306,-2.91847,-2.00343,88.6945
2023-02-15 05:41:01:173,-0.365287,0.525241,-9.76959,-2.92243,-2.01151,88.6999
2023-02-15 05:41:01:183,-0.391031,0.530866,-9.77689,-2.92312,-2.02429,88.7069
2023-02-15 05:41:01:193,-0.408498,0.536913,-9.76181,-2.92011,-2.03251,88.7129
2023-02-15 05:41:01:203,-0.423991,0.524361,-9.72458,-2.91668,-2.03965,88.7179
2023-02-15 05:41:01:214,-0.418366,0.487899,-9.72372,-2.91236,-2.04456,88.7231
2023-02-15 05:41:01:224,-0.443195,0.473354,-9.7109,-2.90524,-2.04657,88.729
2023-02-15 05:41:01:234,-0.504775,0.47974,-9.69084,-2.9001,-2.04714,88.7319
2023-02-15 05:41:01:244,-0.503575,0.47127,-9.67701,-2.897,-2.04529,88.7337
2023-02-15 05:41:01:254,-0.450315,0.468148,-9.68891,-2.89658,-2.03951,88.733
2023-02-15 05:41:01:264,-0.422829,0.487085,-9.74059,-2.8997,-2.02412,88.7229
2023-02-15 05:41:01:274,-0.400598,0.50928,-9.80561,-2.90544,-2.01369,88.7136
2023-02-15 05:41:01:284,-0.381267,0.538839,-9.83056,-2.91429,-2.00163,88.6994
2023-02-15 05:41:01:294,-0.348579,0.543648,-9.83263,-2.9156,-1.98513,88.6828
2023-02-15 05:41:01:304,-0.337796,0.547375,-9.81783,-2.9178,-1.97389,88.6622
2023-02-15 05:41:01:314,-0.368649,0.531117,-9.75128,-2.91587,-1.96997,88.6329
2023-02-15 05:41:01:324,-0.396952,0.527432,-9.69781,-2.91644,-1.97164,88.5991
2023-02-15 05:41:01:334,-0.349623,0.539172,-9.7167,-2.91505,-1.97251,88.5574
2023-02-15 05:41:01:343,-0.262839,0.524034,-9.74017,-2.91132,-1.97226,88.5096
2023-02-15 05:41:01:353,-0.175588,0.510514,-9.75254,-2.90963,-1.96624,88.4633
2023-02-15 05:41:01:363,-0.12878,0.504471,-9.76891,-2.90699,-1.96132,88.4207
2023-02-15 05:41:01:374,-0.10763,0.51206,-9.77404,-2.90705,-1.96291,88.3811
2023-02-15 05:41:01:384,-0.13212,0.522578,-9.77074,-2.90707,-1.96559,88.3494
2023-02-15 05:41:01:394,-0.156592,0.512627,-9.77076,-2.90391,-1.96704,88.3266
2023-02-15 05:41:01:404,-0.177512,0.506464,-9.77798,-2.89679,-1.96778,88.3124
2023-02-15 05:41:01:414,-0.219708,0.498891,-9.78059,-2.8935,-1.97258,88.2999
2023-02-15 05:41:01:424,-0.260187,0.49901,-9.77254,-2.88339,-1.97673,88.2946
2023-02-15 05:41:01:434,-0.299464,0.492033,-9.77112,-2.87322,-1.97776,88.2943
2023-02-15 05:41:01:444,-0.349025,0.479334,-9.76178,-2.86313,-1.97986,88.2977
2023-02-15 05:41:01:454,-0.355204,0.470469,-9.75728,-2.85193,-1.98173,88.3049
2023-02-15 05:41:01:464,-0.342316,0.484288,-9.76422,-2.84062,-1.98242,88.315
2023-02-15 05:41:01:473,-0.343845,0.48122,-9.7672,-2.8323,-1.97938,88.3207
2023-02-15 05:41:01:484,-0.365995,0.471581,-9.7575,-2.82362,-1.97814,88.3287
2023-02-15 05:41:01:494,-0.358984,0.487168,-9.74321,-2.81457,-1.97631,88.3369
2023-02-15 05:41:01:504,-0.335363,0.4937,-9.72969,-2.8038,-1.97119,88.3455
2023-02-15 05:41:01:513,-0.344253,0.475998,-9.70646,-2.7962,-1.96885,88.3506
2023-02-15 05:41:01:524,-0.349997,0.47257,-9.70354,-2.78902,-1.96775,88.3574
2023-02-15 05:41:01:534,-0.378791,0.476661,-9.72193,-2.78269,-1.9634,88.3649
2023-02-15 05:41:01:544,-0.40319,0.477914,-9.71405,-2.78205,-1.95744,88.3667
2023-02-15 05:41:01:554,-0.343169,0.463044,-9.71233,-2.77933,-1.95177,88.3673
2023-02-15 05:41:01:564,-0.294576,0.454282,-9.72919,-2.77587,-1.9444,88.3692
2023-02-15 05:41:01:574,-0.28997,0.47351,-9.73111,-2.77639,-1.93931,88.3677
2023-02-15 05:41:01:584,-0.291005,0.472141,-9.75261,-2.77496,-1.93688,88.3691
2023-02-15 05:41:01:594,-0.269339,0.48354,-9.79346,-2.7788,-1.93703,88.3685
2023-02-15 05:41:01:604,-0.270005,0.490355,-9.80267,-2.78007,-1.93458,88.3654
2023-02-15 05:41:01:614,-0.290613,0.474046,-9.79652,-2.78157,-1.93505,88.3646
2023-02-15 05:41:01:624,-0.290619,0.475325,-9.79629,-2.78506,-1.93382,88.364
2023-02-15 05:41:01:634,-0.298939,0.478915,-9.79809,-2.78105,-1.93576,88.3642
2023-02-15 05:41:01:644,-0.317598,0.477147,-9.76704,-2.77817,-1.939,88.3663
2023-02-15 05:41:01:654,-0.340934,0.478332,-9.75699,-2.77405,-1.94059,88.3693
2023-02-15 05:41:01:664,-0.365687,0.471984,-9.73697,-2.76693,-1.94678,88.3718
2023-02-15 05:41:01:674,-0.365941,0.458498,-9.72911,-2.75682,-1.9498,88.3726
2023-02-15 05:41:01:683,-0.352933,0.47147,-9.7423,-2.74901,-1.95365,88.3723
2023-02-15 05:41:01:693,-0.335681,0.473687,-9.75661,-2.7403,-1.9571,88.3707
2023-02-15 05:41:01:703,-0.312535,0.482721,-9.76209,-2.73181,-1.96048,88.362
2023-02-15 05:41:01:714,-0.295533,0.461621,-9.75445,-2.72193,-1.96578,88.3553
2023-02-15 05:41:01:723,-0.278864,0.447284,-9.75301,-2.71094,-1.96819,88.3475
2023-02-15 05:41:01:733,-0.2628,0.438247,-9.73073,-2.70401,-1.97313,88.3403
2023-02-15 05:41:01:744,-0.260376,0.423995,-9.70781,-2.69663,-1.97898,88.3373
2023-02-15 05:41:01:754,-0.283559,0.422591,-9.70097,-2.69037,-1.98524,88.3383
2023-02-15 05:41:01:764,-0.306813,0.421353,-9.71517,-2.68729,-1.98866,88.343
2023-02-15 05:41:01:774,-0.342344,0.441446,-9.7171,-2.68662,-1.99148,88.3506
2023-02-15 05:41:01:784,-0.35152,0.458847,-9.74671,-2.6892,-1.99345,88.3597
2023-02-15 05:41:01:794,-0.36309,0.479007,-9.77282,-2.69583,-1.99857,88.3692
2023-02-15 05:41:01:804,-0.387832,0.490001,-9.77002,-2.70265,-2.00373,88.3784
2023-02-15 05:41:01:814,-0.410427,0.497734,-9.78436,-2.70772,-2.00501,88.3848
2023-02-15 05:41:01:824,-0.423164,0.503671,-9.76185,-2.70481,-2.00747,88.3876
2023-02-15 05:41:01:834,-0.42599,0.509569,-9.74627,-2.70371,-2.00844,88.3895
2023-02-15 05:41:01:843,-0.415997,0.496274,-9.74452,-2.7043,-2.01142,88.3886
2023-02-15 05:41:01:854,-0.403144,0.503213,-9.72992,-2.70314,-2.00738,88.3844
2023-02-15 05:41:01:864,-0.382601,0.491073,-9.74598,-2.70575,-2.00455,88.3751
2023-02-15 05:41:01:873,-0.370437,0.48141,-9.75215,-2.70521,-2.00169,88.3606
2023-02-15 05:41:01:883,-0.338238,0.477018,-9.74126,-2.70455,-1.99681,88.3481
2023-02-15 05:41:01:894,-0.329875,0.473307,-9.74409,-2.70306,-1.99312,88.3332
2023-02-15 05:41:01:904,-0.317981,0.470588,-9.75929,-2.69987,-1.98549,88.3186
2023-02-15 05:41:01:914,-0.301725,0.473984,-9.78753,-2.69914,-1.97842,88.3033
2023-02-15 05:41:01:923,-0.303931,0.476935,-9.77876,-2.69573,-1.9698,88.2926
2023-02-15 05:41:01:933,-0.293088,0.482897,-9.76535,-2.68758,-1.95995,88.2811
2023-02-15 05:41:01:943,-0.269054,0.478371,-9.78213,-2.68041,-1.95418,88.2694
2023-02-15 05:41:01:953,-0.279582,0.462488,-9.77252,-2.66926,-1.94972,88.2568
2023-02-15 05:41:01:964,-0.280318,0.45425,-9.759,-2.66101,-1.94522,88.2461
2023-02-15 05:41:01:973,-0.284523,0.437771,-9.75392,-2.64949,-1.94262,88.2383
2023-02-15 05:41:01:984,-0.290261,0.437664,-9.75768,-2.64122,-1.93542,88.2307
2023-02-15 05:41:01:994,-0.272692,0.446499,-9.76675,-2.63129,-1.92933,88.2229
2023-02-15 05:41:02:3,-0.245113,0.438431,-9.78502,-2.62268,-1.9258,88.2178
2023-02-15 05:41:02:13,-0.215388,0.448398,-9.80388,-2.60926,-1.92223,88.214
2023-02-15 05:41:02:23,-0.228701,0.448186,-9.80975,-2.59485,-1.91983,88.2105
2023-02-15 05:41:02:34,-0.255099,0.434137,-9.79057,-2.58004,-1.9257,88.2099
2023-02-15 05:41:02:44,-0.26779,0.439394,-9.7843,-2.56364,-1.92738,88.2107
2023-02-15 05:41:02:54,-0.272677,0.431903,-9.77715,-2.54666,-1.93255,88.2124
2023-02-15 05:41:02:64,-0.304398,0.423399,-9.74528,-2.52724,-1.93881,88.2169
2023-02-15 05:41:02:74,-0.331544,0.417232,-9.72241,-2.51094,-1.94661,88.2227
2023-02-15 05:41:02:84,-0.342467,0.413937,-9.70199,-2.49556,-1.95579,88.2337
2023-02-15 05:41:02:94,-0.348698,0.398327,-9.69868,-2.47904,-1.96368,88.2389
2023-02-15 05:41:02:103,-0.342951,0.396106,-9.71642,-2.46228,-1.97097,88.2464
2023-02-15 05:41:02:114,-0.34748,0.411721,-9.72952,-2.45314,-1.98087,88.2574
2023-02-15 05:41:02:124,-0.361296,0.418332,-9.75457,-2.44589,-1.99047,88.2663
2023-02-15 05:41:02:134,-0.370387,0.42647,-9.7804,-2.44001,-1.99874,88.2738
2023-02-15 05:41:02:143,-0.395388,0.426463,-9.80043,-2.43349,-2.00661,88.2812
2023-02-15 05:41:02:154,-0.401994,0.41088,-9.78276,-2.42486,-2.0098,88.2867
2023-02-15 05:41:02:164,-0.38121,0.405375,-9.74991,-2.41324,-2.01285,88.2926
2023-02-15 05:41:02:174,-0.379498,0.406864,-9.73371,-2.40376,-2.01628,88.2964
2023-02-15 05:41:02:184,-0.369426,0.411646,-9.71728,-2.39127,-2.01829,88.3007
2023-02-15 05:41:02:194,-0.378134,0.408404,-9.71084,-2.38462,-2.02099,88.3036
2023-02-15 05:41:02:203,-0.378525,0.4022,-9.70399,-2.37653,-2.01951,88.3029
2023-02-15 05:41:02:213,-0.380081,0.393368,-9.72698,-2.3686,-2.01709,88.2995
2023-02-15 05:41:02:223,-0.398148,0.400393,-9.77106,-2.36355,-2.01337,88.2981
2023-02-15 05:41:02:234,-0.414831,0.41412,-9.81981,-2.35786,-2.01174,88.3009
2023-02-15 05:41:02:243,-0.388529,0.41401,-9.84094,-2.34904,-2.01037,88.3015
2023-02-15 05:41:02:253,-0.34582,0.410236,-9.83336,-2.33806,-2.00742,88.2971
2023-02-15 05:41:02:264,-0.347123,0.392717,-9.82806,-2.32949,-2.00293,88.2913
2023-02-15 05:41:02:274,-0.384598,0.391925,-9.78384,-2.3216,-1.99924,88.2853
2023-02-15 05:41:02:284,-0.386261,0.386399,-9.74152,-2.31373,-1.99774,88.2809
2023-02-15 05:41:02:294,-0.356884,0.371451,-9.68624,-2.30131,-1.99596,88.2762
2023-02-15 05:41:02:304,-0.34598,0.353844,-9.66152,-2.28936,-1.98979,88.2686
2023-02-15 05:41:02:314,-0.334211,0.352666,-9.65904,-2.28082,-1.98465,88.2613
2023-02-15 05:41:02:324,-0.325163,0.356186,-9.66118,-2.27827,-1.98171,88.2565
2023-02-15 05:41:02:334,-0.355289,0.36821,-9.68998,-2.27892,-1.97848,88.2521
2023-02-15 05:41:02:344,-0.364121,0.369658,-9.71968,-2.28079,-1.97389,88.2514
2023-02-15 05:41:02:354,-0.370584,0.386318,-9.73219,-2.28085,-1.96801,88.2486
2023-02-15 05:41:02:364,-0.356034,0.376954,-9.7521,-2.28417,-1.95562,88.2453
2023-02-15 05:41:02:374,-0.334984,0.370479,-9.7815,-2.28675,-1.94392,88.2382
2023-02-15 05:41:02:384,-0.315166,0.375025,-9.79609,-2.29032,-1.93378,88.2301
2023-02-15 05:41:02:394,-0.304788,0.384228,-9.79836,-2.29135,-1.92203,88.2219
2023-02-15 05:41:02:404,-0.318738,0.38524,-9.78094,-2.2952,-1.9106,88.2158
2023-02-15 05:41:02:414,-0.311957,0.376573,-9.75175,-2.29625,-1.90175,88.21
2023-02-15 05:41:02:424,-0.307234,0.367274,-9.75175,-2.29656,-1.89548,88.1998
2023-02-15 05:41:02:434,-0.322841,0.376058,-9.75568,-2.30258,-1.88834,88.1938
2023-02-15 05:41:02:444,-0.335932,0.39302,-9.73867,-2.30809,-1.8815,88.1901
2023-02-15 05:41:02:454,-0.322408,0.406427,-9.72605,-2.31321,-1.87435,88.1806
2023-02-15 05:41:02:464,-0.317614,0.412628,-9.70196,-2.32069,-1.86874,88.1716
2023-02-15 05:41:02:474,-0.337585,0.408732,-9.6872,-2.32694,-1.86267,88.1609
2023-02-15 05:41:02:484,-0.366451,0.421612,-9.71951,-2.3351,-1.85645,88.1482
2023-02-15 05:41:02:494,-0.374582,0.439584,-9.73851,-2.3497,-1.85144,88.1365
2023-02-15 05:41:02:503,-0.315287,0.435343,-9.77156,-2.36527,-1.83772,88.1237
2023-02-15 05:41:02:514,-0.265628,0.438462,-9.77559,-2.37351,-1.8275,88.1075
2023-02-15 05:41:02:523,-0.305563,0.442357,-9.77746,-2.38557,-1.81717,88.0897
2023-02-15 05:41:02:534,-0.33614,0.459646,-9.8312,-2.39567,-1.81073,88.0703
2023-02-15 05:41:02:544,-0.282542,0.467926,-9.84113,-2.40095,-1.80767,88.0475
2023-02-15 05:41:02:553,-0.230289,0.438494,-9.81475,-2.40541,-1.80038,88.0214
2023-02-15 05:41:02:564,-0.230277,0.436507,-9.78138,-2.40717,-1.7936,87.9959
2023-02-15 05:41:02:574,-0.233573,0.447559,-9.78318,-2.40771,-1.79111,87.9763
2023-02-15 05:41:02:584,-0.205072,0.470222,-9.79358,-2.41081,-1.78772,87.9578
2023-02-15 05:41:02:594,-0.175287,0.45445,-9.7914,-2.41015,-1.77843,87.9424
2023-02-15 05:41:02:603,-0.197405,0.467186,-9.79172,-2.40755,-1.77573,87.9301
2023-02-15 05:41:02:613,-0.239748,0.456885,-9.79471,-2.40515,-1.77163,87.9235
2023-02-15 05:41:02:623,-0.236419,0.461349,-9.79843,-2.39778,-1.77051,87.9158
2023-02-15 05:41:02:633,-0.226732,0.439777,-9.77846,-2.38832,-1.76899,87.9087
2023-02-15 05:41:02:643,-0.232995,0.418586,-9.75093,-2.37737,-1.77417,87.9052
2023-02-15 05:41:02:654,-0.254675,0.419985,-9.74487,-2.36618,-1.77526,87.9001
2023-02-15 05:41:02:663,-0.250078,0.409261,-9.75298,-2.351,-1.78172,87.8988
2023-02-15 05:41:02:674,-0.234554,0.403613,-9.77957,-2.3363,-1.78473,87.8991
2023-02-15 05:41:02:683,-0.220783,0.395474,-9.79534,-2.31954,-1.78894,87.897
2023-02-15 05:41:02:693,-0.227069,0.397244,-9.78481,-2.30719,-1.79954,87.893
2023-02-15 05:41:02:703,-0.245001,0.37442,-9.75992,-2.29604,-1.80613,87.8944
2023-02-15 05:41:02:713,-0.267982,0.3804,-9.76287,-2.28375,-1.81663,87.8987
2023-02-15 05:41:02:723,-0.303468,0.395046,-9.76339,-2.27035,-1.82908,87.9103
2023-02-15 05:41:02:733,-0.325154,0.390803,-9.74107,-2.25783,-1.84011,87.9189
2023-02-15 05:41:02:743,-0.335341,0.382687,-9.72209,-2.24694,-1.84972,87.9297
2023-02-15 05:41:02:753,-0.351422,0.37534,-9.72733,-2.23453,-1.85967,87.9408
2023-02-15 05:41:02:763,-0.378126,0.370639,-9.74325,-2.22641,-1.8677,87.9529
2023-02-15 05:41:02:773,-0.3867,0.385511,-9.7585,-2.21316,-1.87637,87.9619
2023-02-15 05:41:02:783,-0.373929,0.382101,-9.76397,-2.20303,-1.88086,87.9664
2023-02-15 05:41:02:794,-0.355552,0.385784,-9.76621,-2.19421,-1.88309,87.9732
2023-02-15 05:41:02:803,-0.35332,0.379721,-9.75233,-2.18544,-1.88832,87.978
2023-02-15 05:41:02:813,-0.353392,0.37125,-9.7591,-2.17492,-1.89285,87.9779
2023-02-15 05:41:02:823,-0.338408,0.3658,-9.76012,-2.16468,-1.8955,87.9768
2023-02-15 05:41:02:833,-0.325859,0.356528,-9.75712,-2.15428,-1.89477,87.9696
2023-02-15 05:41:02:843,-0.326231,0.354463,-9.75443,-2.14611,-1.89356,87.9632
2023-02-15 05:41:02:853,-0.330038,0.343864,-9.75556,-2.13729,-1.89125,87.9595
2023-02-15 05:41:02:863,-0.313621,0.33315,-9.75331,-2.1293,-1.89054,87.9527
2023-02-15 05:41:02:873,-0.287437,0.33588,-9.74452,-2.11691,-1.88586,87.9452
2023-02-15 05:41:02:883,-0.277357,0.327918,-9.74799,-2.10549,-1.88158,87.9401
2023-02-15 05:41:02:893,-0.260437,0.332308,-9.76199,-2.09717,-1.88009,87.9386
2023-02-15 05:41:02:903,-0.264646,0.336621,-9.78355,-2.09118,-1.87977,87.9368
2023-02-15 05:41:02:913,-0.27618,0.345865,-9.78047,-2.08286,-1.87785,87.9372
2023-02-15 05:41:02:923,-0.28658,0.350673,-9.78988,-2.07235,-1.87708,87.9391
2023-02-15 05:41:02:933,-0.291044,0.344492,-9.79073,-2.06612,-1.87745,87.9419
2023-02-15 05:41:02:943,-0.273277,0.33328,-9.78988,-2.05498,-1.87885,87.9403
2023-02-15 05:41:02:953,-0.285071,0.333145,-9.77508,-2.04314,-1.87835,87.9425
2023-02-15 05:41:02:963,-0.298359,0.329097,-9.76931,-2.03031,-1.87888,87.944
2023-02-15 05:41:02:973,-0.291784,0.317302,-9.76055,-2.01632,-1.88197,87.9468
2023-02-15 05:41:02:983,-0.278291,0.288576,-9.7547,-2.00527,-1.88732,87.9468
2023-02-15 05:41:02:993,-0.280665,0.280791,-9.72388,-1.99324,-1.89182,87.9485
2023-02-15 05:41:03:3,-0.298319,0.271233,-9.72568,-1.98325,-1.89938,87.9517
2023-02-15 05:41:03:13,-0.319313,0.269049,-9.71652,-1.97573,-1.91181,87.9568
2023-02-15 05:41:03:23,-0.310287,0.257944,-9.71226,-1.96904,-1.92159,87.9604
2023-02-15 05:41:03:33,-0.312316,0.262195,-9.71152,-1.96476,-1.93149,87.9686
2023-02-15 05:41:03:43,-0.329629,0.282733,-9.72995,-1.96438,-1.9395,87.9749
2023-02-15 05:41:03:53,-0.344992,0.289417,-9.75636,-1.96765,-1.94595,87.9804
2023-02-15 05:41:03:63,-0.355082,0.305094,-9.77078,-1.96757,-1.94832,87.9884
2023-02-15 05:41:03:73,-0.355374,0.331898,-9.78772,-1.96972,-1.9554,87.9984
2023-02-15 05:41:03:83,-0.362353,0.329654,-9.77618,-1.9682,-1.95756,88.0038
2023-02-15 05:41:03:93,-0.365383,0.315498,-9.7515,-1.96805,-1.96078,88.0126
2023-02-15 05:41:03:103,-0.367607,0.312543,-9.73985,-1.96627,-1.96204,88.0213
2023-02-15 05:41:03:113,-0.382384,0.302894,-9.72211,-1.96489,-1.96329,88.0246
2023-02-15 05:41:03:123,-0.357685,0.292337,-9.73036,-1.9654,-1.96456,88.0274
2023-02-15 05:41:03:134,-0.341173,0.311321,-9.74394,-1.96877,-1.96633,88.0262
2023-02-15 05:41:03:143,-0.315956,0.327326,-9.77975,-1.9738,-1.96624,88.0242
2023-02-15 05:41:03:153,-0.294296,0.339614,-9.809,-1.9831,-1.96729,88.0226
2023-02-15 05:41:03:163,-0.276715,0.336345,-9.82808,-1.98733,-1.97088,88.0176
2023-02-15 05:41:03:173,-0.280226,0.341221,-9.81947,-1.98902,-1.97588,88.0127
2023-02-15 05:41:03:183,-0.321604,0.356183,-9.8006,-1.9883,-1.98515,88.0072
2023-02-15 05:41:03:193,-0.348676,0.355816,-9.76396,-1.98752,-1.99611,88.0086
2023-02-15 05:41:03:203,-0.365785,0.357293,-9.73733,-1.98517,-2.00538,88.0088
2023-02-15 05:41:03:213,-0.352028,0.348103,-9.7238,-1.98758,-2.01365,88.0079
2023-02-15 05:41:03:223,-0.336205,0.333586,-9.70555,-1.98653,-2.01805,88.0069
2023-02-15 05:41:03:233,-0.313347,0.339037,-9.6762,-1.98709,-2.01828,88.0082
2023-02-15 05:41:03:243,-0.307394,0.326122,-9.69802,-1.99121,-2.02282,88.0076
2023-02-15 05:41:03:253,-0.324685,0.324964,-9.72153,-1.99435,-2.02719,88.0094
2023-02-15 05:41:03:263,-0.327057,0.33721,-9.74932,-1.99896,-2.0348,88.0147
2023-02-15 05:41:03:274,-0.341152,0.345407,-9.76737,-2.00683,-2.0421,88.0194
2023-02-15 05:41:03:283,-0.340531,0.351027,-9.77681,-2.01564,-2.04601,88.0221
2023-02-15 05:41:03:293,-0.362823,0.362141,-9.77923,-2.02224,-2.05213,88.029
2023-02-15 05:41:03:303,-0.37502,0.369911,-9.76884,-2.02956,-2.05592,88.0354
2023-02-15 05:41:03:313,-0.384347,0.370563,-9.74594,-2.0402,-2.05785,88.0407
2023-02-15 05:41:03:323,-0.390682,0.378727,-9.7481,-2.05402,-2.05828,88.047
2023-02-15 05:41:03:333,-0.377998,0.382577,-9.74777,-2.06778,-2.06144,88.0506
2023-02-15 05:41:03:343,-0.360892,0.381254,-9.76441,-2.07719,-2.06265,88.0507
2023-02-15 05:41:03:353,-0.356822,0.380661,-9.77931,-2.09015,-2.06246,88.0493
2023-02-15 05:41:03:363,-0.355562,0.386274,-9.77878,-2.10381,-2.06407,88.0463
2023-02-15 05:41:03:374,-0.348587,0.392888,-9.75373,-2.11404,-2.06549,88.0408
2023-02-15 05:41:03:383,-0.314822,0.367731,-9.7335,-2.12195,-2.06706,88.0341
2023-02-15 05:41:03:393,-0.340356,0.399209,-9.75571,-2.13478,-2.07068,88.0296
2023-02-15 05:41:03:403,-0.374506,0.405344,-9.77916,-2.14247,-2.07373,88.0213
2023-02-15 05:41:03:413,-0.332809,0.413625,-9.77858,-2.15447,-2.07145,88.0183
2023-02-15 05:41:03:423,-0.27532,0.394604,-9.7644,-2.16284,-2.0709,88.0111
2023-02-15 05:41:03:433,-0.267292,0.396364,-9.78632,-2.16995,-2.07117,88.0047
2023-02-15 05:41:03:443,-0.292104,0.399608,-9.81124,-2.1747,-2.07539,87.9987
2023-02-15 05:41:03:453,-0.335675,0.406556,-9.7911,-2.18105,-2.08316,87.9987
2023-02-15 05:41:03:463,-0.36082,0.414889,-9.78001,-2.18461,-2.09128,87.9975
2023-02-15 05:41:03:473,-0.35639,0.411496,-9.78279,-2.1851,-2.0984,87.9954
2023-02-15 05:41:03:483,-0.350335,0.416611,-9.77533,-2.18441,-2.10275,87.9973
2023-02-15 05:41:03:494,-0.365141,0.410066,-9.77052,-2.18394,-2.10213,88.0003
2023-02-15 05:41:03:503,-0.381249,0.413112,-9.77053,-2.18208,-2.10441,88.004
2023-02-15 05:41:03:513,-0.382212,0.409308,-9.79582,-2.18343,-2.10268,88.008
2023-02-15 05:41:03:523,-0.377754,0.401283,-9.7757,-2.17729,-2.1061,88.0087
2023-02-15 05:41:03:533,-0.377433,0.377811,-9.77372,-2.17146,-2.108,88.0071
2023-02-15 05:41:03:543,-0.371461,0.375087,-9.77393,-2.16364,-2.11217,88.005
2023-02-15 05:41:03:553,-0.3813,0.370136,-9.76009,-2.15163,-2.11687,87.998
2023-02-15 05:41:03:563,-0.363465,0.338918,-9.7451,-2.13735,-2.12165,87.9909
2023-02-15 05:41:03:573,-0.34452,0.329142,-9.72504,-2.12742,-2.12298,87.9828
2023-02-15 05:41:03:583,-0.345846,0.324743,-9.71308,-2.11742,-2.127,87.9766
2023-02-15 05:41:03:594,-0.345968,0.312353,-9.72868,-2.10418,-2.13077,87.9722
2023-02-15 05:41:03:603,-0.348316,0.322682,-9.74437,-2.09958,-2.13527,87.9685
2023-02-15 05:41:03:613,-0.347976,0.329805,-9.73565,-2.09456,-2.13929,87.9666
2023-02-15 05:41:03:623,-0.350041,0.320622,-9.76156,-2.08815,-2.14235,87.9656
2023-02-15 05:41:03:633,-0.350754,0.320545,-9.77145,-2.08181,-2.14699,87.9665
2023-02-15 05:41:03:643,-0.363111,0.327686,-9.75008,-2.07897,-2.15259,87.9686
2023-02-15 05:41:03:653,-0.374682,0.327849,-9.73803,-2.07433,-2.15818,87.9725
2023-02-15 05:41:03:663,-0.380447,0.322722,-9.72772,-2.07364,-2.16558,87.9797
2023-02-15 05:41:03:673,-0.391889,0.323585,-9.72956,-2.07626,-2.17049,87.985
2023-02-15 05:41:03:683,-0.404078,0.324969,-9.72611,-2.08244,-2.17339,87.9901
2023-02-15 05:41:03:694,-0.411081,0.339145,-9.74761,-2.08604,-2.17559,87.9955
2023-02-15 05:41:03:703,-0.413941,0.33684,-9.75519,-2.08704,-2.17879,87.998
2023-02-15 05:41:03:714,-0.412653,0.333773,-9.75827,-2.08844,-2.18108,88.0004
2023-02-15 05:41:03:723,-0.409473,0.34851,-9.75043,-2.09113,-2.18099,88.0029
2023-02-15 05:41:03:733,-0.403441,0.352707,-9.75709,-2.09703,-2.17904,88.0057
2023-02-15 05:41:03:743,-0.396357,0.336261,-9.74848,-2.09887,-2.17492,88.006
2023-02-15 05:41:03:753,-0.384585,0.338074,-9.7431,-2.10209,-2.16785,88.0062
2023-02-15 05:41:03:763,-0.377251,0.340827,-9.7496,-2.10617,-2.15927,88.0054
2023-02-15 05:41:03:773,-0.365726,0.345943,-9.73132,-2.1094,-2.1536,87.9997
2023-02-15 05:41:03:784,-0.360221,0.342993,-9.74021,-2.11608,-2.14438,87.995
2023-02-15 05:41:03:793,-0.338203,0.352653,-9.76784,-2.12526,-2.13896,87.9905
2023-02-15 05:41:03:803,-0.341224,0.363582,-9.77459,-2.13338,-2.13269,87.9886
2023-02-15 05:41:03:813,-0.319963,0.377649,-9.77059,-2.14099,-2.12453,87.984
2023-02-15 05:41:03:823,-0.287466,0.385172,-9.78492,-2.14735,-2.11338,87.9811
2023-02-15 05:41:03:834,-0.288879,0.390612,-9.77633,-2.15622,-2.11246,87.9773
2023-02-15 05:41:03:843,-0.295326,0.393015,-9.78585,-2.1644,-2.11082,87.9715
2023-02-15 05:41:03:853,-0.295547,0.393588,-9.80525,-2.1687,-2.10688,87.9687
2023-02-15 05:41:03:863,-0.305637,0.389434,-9.81332,-2.16958,-2.10657,87.9649
2023-02-15 05:41:03:873,-0.307975,0.384505,-9.79703,-2.1709,-2.10325,87.9624
2023-02-15 05:41:03:883,-0.30015,0.372687,-9.77077,-2.16749,-2.10109,87.9622
2023-02-15 05:41:03:893,-0.293004,0.3626,-9.75853,-2.16456,-2.0987,87.962
2023-02-15 05:41:03:903,-0.293205,0.371603,-9.74616,-2.16143,-2.09983,87.9641
2023-02-15 05:41:03:913,-0.286371,0.376287,-9.74211,-2.1624,-2.10399,87.9658
2023-02-15 05:41:03:923,-0.284349,0.372265,-9.74358,-2.16493,-2.10749,87.9654
2023-02-15 05:41:03:933,-0.296421,0.360638,-9.73268,-2.16567,-2.11158,87.9695
2023-02-15 05:41:03:943,-0.334663,0.362327,-9.72539,-2.16729,-2.11726,87.9758
2023-02-15 05:41:03:954,-0.333459,0.374496,-9.73717,-2.16967,-2.12002,87.9853
2023-02-15 05:41:03:963,-0.344963,0.371737,-9.75189,-2.17511,-2.12619,87.995
2023-02-15 05:41:03:973,-0.369562,0.366081,-9.75534,-2.17837,-2.1315,88.0051
2023-02-15 05:41:03:983,-0.37681,0.377937,-9.74648,-2.1829,-2.13536,88.0109
2023-02-15 05:41:03:993,-0.37906,0.391089,-9.74531,-2.18494,-2.13554,88.0196
2023-02-15 05:41:04:3,-0.358691,0.370535,-9.77163,-2.18737,-2.13714,88.0236
2023-02-15 05:41:04:13,-0.346055,0.371357,-9.78028,-2.18917,-2.14567,88.0292
2023-02-15 05:41:04:23,-0.346954,0.391008,-9.7988,-2.19287,-2.14883,88.0309
2023-02-15 05:41:04:33,-0.359492,0.394652,-9.79349,-2.19071,-2.15455,88.0322
2023-02-15 05:41:04:43,-0.380045,0.384604,-9.77586,-2.18596,-2.16073,88.0326
2023-02-15 05:41:04:53,-0.382878,0.372879,-9.78786,-2.18034,-2.16436,88.0356
2023-02-15 05:41:04:63,-0.381999,0.37246,-9.80077,-2.17036,-2.16571,88.0381
2023-02-15 05:41:04:74,-0.373116,0.366551,-9.77819,-2.16314,-2.16538,88.0418
2023-02-15 05:41:04:83,-0.376625,0.35085,-9.76615,-2.15337,-2.16692,88.0447
2023-02-15 05:41:04:93,-0.375115,0.351405,-9.75643,-2.14317,-2.17052,88.0482
2023-02-15 05:41:04:103,-0.385883,0.350431,-9.75663,-2.13814,-2.17895,88.0492
2023-02-15 05:41:04:113,-0.383635,0.352381,-9.74401,-2.13675,-2.18632,88.0491
2023-02-15 05:41:04:123,-0.380225,0.353626,-9.72774,-2.13118,-2.18724,88.0513
2023-02-15 05:41:04:133,-0.367763,0.35734,-9.72562,-2.12946,-2.18958,88.0528
2023-02-15 05:41:04:143,-0.365172,0.35729,-9.71168,-2.12685,-2.18709,88.0587
2023-02-15 05:41:04:153,-0.379853,0.364982,-9.71108,-2.12559,-2.18807,88.0604
2023-02-15 05:41:04:163,-0.385563,0.382236,-9.7077,-2.12795,-2.19161,88.0669
2023-02-15 05:41:04:173,-0.403875,0.383866,-9.72423,-2.13216,-2.19625,88.0714
2023-02-15 05:41:04:183,-0.410391,0.37845,-9.75116,-2.13016,-2.2001,88.0746
2023-02-15 05:41:04:194,-0.431315,0.376799,-9.76538,-2.12838,-2.19834,88.0759
2023-02-15 05:41:04:203,-0.425029,0.385445,-9.77872,-2.12825,-2.19526,88.0756
2023-02-15 05:41:04:213,-0.416959,0.38732,-9.78458,-2.12833,-2.19349,88.0736
2023-02-15 05:41:04:223,-0.416643,0.384984,-9.77564,-2.12766,-2.19187,88.0733
2023-02-15 05:41:04:233,-0.413134,0.378666,-9.77411,-2.12766,-2.18691,88.0699
2023-02-15 05:41:04:243,-0.377012,0.371348,-9.77964,-2.12835,-2.18509,88.066
2023-02-15 05:41:04:253,-0.361894,0.357241,-9.78005,-2.12794,-2.18228,88.059
2023-02-15 05:41:04:263,-0.363736,0.362485,-9.77486,-2.12916,-2.17847,88.0527
2023-02-15 05:41:04:273,-0.342464,0.370123,-9.77366,-2.1303,-2.17219,88.0451
2023-02-15 05:41:04:283,-0.321997,0.380585,-9.77044,-2.1344,-2.17174,88.0363
2023-02-15 05:41:04:294,-0.303604,0.366307,-9.74212,-2.13665,-2.16901,88.0281
2023-02-15 05:41:04:303,-0.303786,0.372644,-9.75124,-2.13709,-2.17095,88.023
2023-02-15 05:41:04:313,-0.318721,0.375308,-9.78965,-2.13723,-2.17033,88.0204
2023-02-15 05:41:04:323,-0.328839,0.388554,-9.78678,-2.13304,-2.17213,88.0201
2023-02-15 05:41:04:333,-0.291518,0.375267,-9.76494,-2.12976,-2.16722,88.0206
2023-02-15 05:41:04:343,-0.298972,0.358201,-9.74335,-2.12442,-2.1606,88.024
2023-02-15 05:41:04:353,-0.355508,0.355198,-9.73358,-2.11841,-2.16145,88.0298
2023-02-15 05:41:04:363,-0.411301,0.360778,-9.7245,-2.11676,-2.16539,88.0345
2023-02-15 05:41:04:373,-0.425262,0.368077,-9.72375,-2.11961,-2.16301,88.0399
2023-02-15 05:41:04:383,-0.412044,0.383906,-9.76113,-2.12323,-2.15985,88.0447
2023-02-15 05:41:04:393,-0.393826,0.392162,-9.79278,-2.12776,-2.15151,88.0482
2023-02-15 05:41:04:403,-0.387961,0.402967,-9.80629,-2.1345,-2.14486,88.0521
2023-02-15 05:41:04:413,-0.386677,0.411192,-9.81064,-2.13762,-2.13602,88.051
2023-02-15 05:41:04:423,-0.365986,0.407346,-9.811,-2.13752,-2.12869,88.0483
2023-02-15 05:41:04:433,-0.342874,0.403762,-9.79969,-2.13368,-2.12534,88.0444
2023-02-15 05:41:04:443,-0.329894,0.408812,-9.76942,-2.1279,-2.11852,88.0438
2023-02-15 05:41:04:453,-0.319028,0.402783,-9.75149,-2.11999,-2.11098,88.0371
2023-02-15 05:41:04:463,-0.316266,0.388213,-9.73813,-2.11139,-2.10704,88.0284
2023-02-15 05:41:04:473,-0.319193,0.373187,-9.73243,-2.10122,-2.10257,88.0196
2023-02-15 05:41:04:483,-0.31749,0.377857,-9.77118,-2.09027,-2.1015,88.0098
2023-02-15 05:41:04:493,-0.308288,0.38345,-9.79435,-2.08025,-2.09873,88.0046
2023-02-15 05:41:04:503,-0.304823,0.383936,-9.80462,-2.0705,-2.0952,87.9987
2023-02-15 05:41:04:513,-0.294826,0.377512,-9.81703,-2.06334,-2.09277,87.9963
2023-02-15 05:41:04:523,-0.289863,0.388049,-9.82272,-2.05206,-2.09278,87.9916
2023-02-15 05:41:04:533,-0.292115,0.392584,-9.80715,-2.03915,-2.09196,87.9881
2023-02-15 05:41:04:543,-0.32248,0.384863,-9.79795,-2.0254,-2.09532,87.9868
2023-02-15 05:41:04:553,-0.356429,0.400338,-9.76423,-2.00909,-2.10005,87.9885
2023-02-15 05:41:04:563,-0.364986,0.386909,-9.76903,-1.98933,-2.10492,87.991
2023-02-15 05:41:04:573,-0.377745,0.382902,-9.75799,-1.97132,-2.10756,87.9912
2023-02-15 05:41:04:583,-0.384071,0.374299,-9.7501,-1.95346,-2.11074,87.9943
2023-02-15 05:41:04:593,-0.408625,0.379027,-9.73859,-1.93031,-2.11583,87.9999
2023-02-15 05:41:04:603,-0.402723,0.360261,-9.7504,-1.90597,-2.11951,88.0039
2023-02-15 05:41:04:613,-0.399832,0.348566,-9.74916,-1.88015,-2.12094,88.0042
2023-02-15 05:41:04:623,-0.419755,0.330983,-9.75105,-1.85557,-2.12364,88.005
2023-02-15 05:41:04:633,-0.426513,0.31695,-9.75148,-1.83141,-2.12363,88.0075
2023-02-15 05:41:04:643,-0.4074,0.307409,-9.75333,-1.80755,-2.12055,88.008
2023-02-15 05:41:04:653,-0.383897,0.291463,-9.76348,-1.78294,-2.11422,88.0019
2023-02-15 05:41:04:663,-0.369172,0.283959,-9.78096,-1.76073,-2.10297,87.9974
2023-02-15 05:41:04:673,-0.338466,0.269767,-9.77261,-1.73842,-2.09461,87.9889
2023-02-15 05:41:04:683,-0.331837,0.25287,-9.7493,-1.71477,-2.08529,87.9806
2023-02-15 05:41:04:693,-0.34197,0.237142,-9.73062,-1.69112,-2.07965,87.9686
2023-02-15 05:41:04:703,-0.345932,0.218572,-9.72634,-1.66847,-2.07317,87.9621
2023-02-15 05:41:04:713,-0.324405,0.202568,-9.74386,-1.64632,-2.06357,87.9559
2023-02-15 05:41:04:723,-0.311952,0.212241,-9.73779,-1.62634,-2.05655,87.9515
2023-02-15 05:41:04:733,-0.310705,0.224962,-9.73178,-1.61036,-2.04947,87.943
2023-02-15 05:41:04:743,-0.309241,0.216824,-9.73702,-1.5945,-2.04412,87.9384
2023-02-15 05:41:04:753,-0.31074,0.211685,-9.74777,-1.57948,-2.04121,87.9398
2023-02-15 05:41:04:763,-0.297879,0.213138,-9.73688,-1.56716,-2.03304,87.9336
2023-02-15 05:41:04:773,-0.292357,0.203107,-9.73916,-1.5574,-2.03121,87.9315
2023-02-15 05:41:04:783,-0.306156,0.214844,-9.73437,-1.54993,-2.03055,87.9303
2023-02-15 05:41:04:793,-0.312889,0.218564,-9.7292,-1.5443,-2.02721,87.933
2023-02-15 05:41:04:803,-0.316911,0.21179,-9.74479,-1.5394,-2.02603,87.935
2023-02-15 05:41:04:813,-0.322782,0.24397,-9.7405,-1.53823,-2.02575,87.9345
2023-02-15 05:41:04:823,-0.343317,0.263046,-9.74972,-1.53929,-2.02473,87.9346
2023-02-15 05:41:04:833,-0.339422,0.270415,-9.77131,-1.53988,-2.02575,87.9365
2023-02-15 05:41:04:843,-0.340519,0.260369,-9.77522,-1.5391,-2.02512,87.9389
2023-02-15 05:41:04:853,-0.343667,0.280686,-9.77083,-1.53987,-2.0216,87.941
2023-02-15 05:41:04:863,-0.350526,0.292434,-9.77463,-1.53622,-2.02149,87.9428
2023-02-15 05:41:04:873,-0.369158,0.31253,-9.78687,-1.5336,-2.02,87.9437
2023-02-15 05:41:04:883,-0.365181,0.336603,-9.80497,-1.53314,-2.01581,87.9457
2023-02-15 05:41:04:893,-0.368729,0.352966,-9.81476,-1.52917,-2.01463,87.9461
2023-02-15 05:41:04:903,-0.350949,0.362246,-9.82822,-1.52154,-2.01196,87.944
2023-02-15 05:41:04:913,-0.335737,0.386223,-9.83863,-1.51084,-2.00846,87.9413
2023-02-15 05:41:04:923,-0.324117,0.413201,-9.85439,-1.4982,-2.00996,87.9367
2023-02-15 05:41:04:933,-0.332551,0.436506,-9.88835,-1.47755,-2.00971,87.9295
2023-02-15 05:41:04:943,-0.343048,0.448479,-9.89455,-1.45304,-2.00899,87.9245
2023-02-15 05:41:04:953,-0.332434,0.460098,-9.88578,-1.41704,-2.01155,87.9208
2023-02-15 05:41:04:963,-0.318051,0.486422,-9.91999,-1.37035,-2.00869,87.9166
2023-02-15 05:41:04:973,-0.30391,0.517773,-9.9609,-1.32164,-2.01098,87.9125
2023-02-15 05:41:04:983,-0.304796,0.532208,-9.98085,-1.26171,-2.01265,87.9074
2023-02-15 05:41:04:993,-0.288593,0.521504,-10.0077,-1.19171,-2.01255,87.9037
2023-02-15 05:41:05:3,-0.301621,0.509173,-9.99546,-1.10697,-2.0191,87.8941
2023-02-15 05:41:05:13,-0.3294,0.506636,-9.96968,-1.0078,-2.02956,87.89
2023-02-15 05:41:05:23,-0.366644,0.509592,-9.96793,-0.897331,-2.03754,87.8867
2023-02-15 05:41:05:33,-0.386145,0.512692,-9.9705,-0.777113,-2.04395,87.88
2023-02-15 05:41:05:43,-0.390415,0.500268,-9.94896,-0.644891,-2.04965,87.8743
2023-02-15 05:41:05:53,-0.390501,0.497187,-9.98522,-0.497436,-2.05086,87.865
2023-02-15 05:41:05:63,-0.408034,0.508941,-10.0193,-0.336435,-2.05574,87.8555
2023-02-15 05:41:05:73,-0.478391,0.490211,-10.0221,-0.158126,-2.05826,87.8421
2023-02-15 05:41:05:83,-0.499483,0.457191,-10.0192,0.0428044,-2.05876,87.8294
2023-02-15 05:41:05:93,-0.442569,0.407399,-10.0441,0.261799,-2.05124,87.8079
2023-02-15 05:41:05:103,-0.424722,0.355545,-10.0116,0.49851,-2.03506,87.7831
2023-02-15 05:41:05:113,-0.409437,0.307257,-9.95405,0.751953,-2.01624,87.7523
2023-02-15 05:41:05:123,-0.39684,0.251974,-9.95033,1.01867,-2.00159,87.7185
2023-02-15 05:41:05:133,-0.37434,0.21792,-9.95973,1.30368,-1.98963,87.6774
2023-02-15 05:41:05:143,-0.338479,0.176607,-9.97441,1.60103,-1.97916,87.6341
2023-02-15 05:41:05:153,-0.327833,0.120565,-10.0177,1.90982,-1.97085,87.5877
2023-02-15 05:41:05:163,-0.321119,0.0711404,-10.0335,2.23661,-1.96275,87.5431
2023-02-15 05:41:05:173,-0.33285,0.0233289,-9.99529,2.58157,-1.95298,87.4985
2023-02-15 05:41:05:183,-0.359707,-0.0199164,-9.99805,2.94136,-1.94201,87.4549
2023-02-15 05:41:05:193,-0.370957,-0.0284807,-10.0369,3.31877,-1.92728,87.4123
2023-02-15 05:41:05:203,-0.355535,-0.0745384,-9.991,3.71945,-1.91515,87.3682
2023-02-15 05:41:05:213,-0.344031,-0.17413,-9.92196,4.14693,-1.89634,87.3229
2023-02-15 05:41:05:223,-0.365982,-0.285185,-9.84042,4.5944,-1.87537,87.2766
2023-02-15 05:41:05:233,-0.372997,-0.35369,-9.83472,5.06126,-1.8537,87.2309
2023-02-15 05:41:05:243,-0.303957,-0.399808,-9.91362,5.54208,-1.82348,87.1795
2023-02-15 05:41:05:253,-0.266412,-0.421199,-9.94531,6.04506,-1.79609,87.1262
2023-02-15 05:41:05:263,-0.256129,-0.495003,-9.90016,6.57289,-1.77416,87.0722
2023-02-15 05:41:05:273,-0.279034,-0.582582,-9.86183,7.12366,-1.75657,87.0115
2023-02-15 05:41:05:283,-0.324531,-0.666862,-9.82067,7.7005,-1.73922,86.9521
2023-02-15 05:41:05:293,-0.358619,-0.747283,-9.7782,8.29676,-1.72675,86.8941
2023-02-15 05:41:05:303,-0.338119,-0.825475,-9.72511,8.91575,-1.71088,86.8362
2023-02-15 05:41:05:313,-0.313564,-0.94627,-9.68223,9.55909,-1.68976,86.7757
2023-02-15 05:41:05:323,-0.306532,-1.04433,-9.68328,10.2232,-1.6621,86.7135
2023-02-15 05:41:05:333,-0.304101,-1.11875,-9.6348,10.9104,-1.63363,86.652
2023-02-15 05:41:05:343,-0.259643,-1.20794,-9.5706,11.623,-1.59827,86.5963
2023-02-15 05:41:05:353,-0.195307,-1.3365,-9.57062,12.3636,-1.56434,86.5368
2023-02-15 05:41:05:363,-0.159238,-1.46794,-9.55663,13.1312,-1.53067,86.4742
2023-02-15 05:41:05:373,-0.179482,-1.63536,-9.4547,13.9275,-1.49755,86.4067
2023-02-15 05:41:05:383,-0.156638,-1.9006,-9.26548,14.7515,-1.46908,86.341
2023-02-15 05:41:05:393,-0.267665,-1.98039,-9.25102,15.5962,-1.44448,86.2742
2023-02-15 05:41:05:403,-0.300301,-2.19492,-9.14516,16.4611,-1.41401,86.2065
2023-02-15 05:41:05:413,-0.116494,-2.43301,-9.09207,17.3472,-1.36981,86.1358
2023-02-15 05:41:05:423,-0.0397757,-2.64423,-9.02007,18.2584,-1.31746,86.0753
2023-02-15 05:41:05:433,-0.0636528,-2.82345,-8.91974,19.1735,-1.27499,86.0125
2023-02-15 05:41:05:443,-0.113334,-2.96707,-8.81852,20.1028,-1.22931,85.954
2023-02-15 05:41:05:453,-0.175804,-3.15668,-8.67002,21.0425,-1.18838,85.8992
2023-02-15 05:41:05:463,-0.142174,-3.39538,-8.54248,21.9928,-1.14127,85.8502
2023-02-15 05:41:05:473,-0.0294105,-3.60868,-8.48213,22.9507,-1.08722,85.8046
2023-02-15 05:41:05:483,0.127789,-3.86101,-8.36158,23.9088,-1.03948,85.7565
2023-02-15 05:41:05:493,0.0960046,-3.96913,-8.35689,24.8597,-0.993383,85.7155
2023-02-15 05:41:05:503,0.0588354,-4.1677,-8.18727,25.8124,-0.952834,85.6711
2023-02-15 05:41:05:513,0.130861,-4.36705,-7.9894,26.7618,-0.9274,85.6178
2023-02-15 05:41:05:523,0.156032,-4.51226,-7.84991,27.7096,-0.903191,85.5665
2023-02-15 05:41:05:533,0.0986027,-4.6101,-7.74697,28.6501,-0.885944,85.522
2023-02-15 05:41:05:543,0.00440446,-4.73615,-7.71395,29.5778,-0.876589,85.4805
2023-02-15 05:41:05:553,-0.00234539,-4.89406,-7.80349,30.4874,-0.873284,85.4416
2023-02-15 05:41:05:563,-0.0260816,-4.97128,-7.96996,31.3835,-0.87484,85.4057
2023-02-15 05:41:05:573,-0.116093,-5.04698,-8.1014,32.2744,-0.873658,85.3785
2023-02-15 05:41:05:583,-0.10436,-5.22943,-8.00607,33.1664,-0.876735,85.3511
2023-02-15 05:41:05:593,-0.0716731,-5.38958,-7.80807,34.0711,-0.873165,85.3262
2023-02-15 05:41:05:603,-0.0353253,-5.533,-7.60167,34.9837,-0.868439,85.2957
2023-02-15 05:41:05:613,0.0144423,-5.68602,-7.39464,35.8948,-0.865526,85.2581
2023-02-15 05:41:05:623,0.0414982,-5.84079,-7.23628,36.8016,-0.866859,85.217
2023-02-15 05:41:05:633,0.0330031,-5.97674,-7.15055,37.6997,-0.872991,85.1759
2023-02-15 05:41:05:643,0.0141169,-6.10376,-7.13624,38.5875,-0.884592,85.1327
2023-02-15 05:41:05:653,-0.116465,-6.16873,-7.16541,39.4606,-0.910997,85.0896
2023-02-15 05:41:05:663,-0.291849,-6.25083,-7.17631,40.3253,-0.945629,85.0484
2023-02-15 05:41:05:673,-0.397117,-6.40452,-7.12947,41.1919,-0.975046,85.0163
2023-02-15 05:41:05:683,-0.406999,-6.58089,-7.00374,42.0659,-0.995363,84.9881
2023-02-15 05:41:05:693,-0.399322,-6.78029,-6.87191,42.9459,-1.00335,84.9733
2023-02-15 05:41:05:703,-0.365241,-6.96546,-6.72607,43.8279,-1.00198,84.9577
2023-02-15 05:41:05:713,-0.308461,-7.16253,-6.58616,44.7053,-0.994147,84.9402
2023-02-15 05:41:05:723,-0.28298,-7.39157,-6.41144,45.5817,-0.979051,84.9213
2023-02-15 05:41:05:733,-0.256781,-7.66086,-6.21534,46.4559,-0.960909,84.9078
2023-02-15 05:41:05:743,-0.179997,-7.96666,-5.98615,47.3165,-0.935088,84.8962
2023-02-15 05:41:05:753,-0.103115,-8.27938,-5.76983,48.1634,-0.901681,84.8891
2023-02-15 05:41:05:763,-0.0300515,-8.53489,-5.59904,48.9801,-0.863167,84.8865
2023-02-15 05:41:05:773,-0.0114015,-8.7444,-5.43822,49.7585,-0.827635,84.8885
2023-02-15 05:41:05:783,-0.06457,-8.9345,-5.27107,50.5049,-0.794974,84.8932
2023-02-15 05:41:05:793,-0.0958734,-9.07958,-5.10048,51.204,-0.764564,84.9041
2023-02-15 05:41:05:803,-0.0826959,-9.2486,-4.92788,51.8574,-0.740947,84.9198
2023-02-15 05:41:05:813,-0.0549214,-9.39885,-4.73451,52.459,-0.721304,84.9389
2023-02-15 05:41:05:823,-0.0943017,-9.5408,-4.50078,53.0009,-0.710235,84.9555
2023-02-15 05:41:05:833,-0.203444,-9.63702,-4.33061,53.4786,-0.704457,84.9665
2023-02-15 05:41:05:843,-0.231149,-9.72617,-4.25796,53.8782,-0.70284,84.9794
2023-02-15 05:41:05:853,-0.18544,-9.73791,-4.27485,54.1979,-0.695731,84.9965
2023-02-15 05:41:05:863,-0.106544,-9.70629,-4.3471,54.4332,-0.685955,85.0117
2023-02-15 05:41:05:873,-0.0511017,-9.64287,-4.43272,54.5915,-0.67181,85.0279
2023-02-15 05:41:05:883,-0.0102809,-9.56145,-4.53175,54.6827,-0.656823,85.0426
2023-02-15 05:41:05:893,0.0293928,-9.50474,-4.64502,54.7161,-0.641625,85.0546
2023-02-15 05:41:05:903,0.0902564,-9.42542,-4.77792,54.6939,-0.629388,85.0698
2023-02-15 05:41:05:913,0.134716,-9.30704,-4.88854,54.6216,-0.620711,85.0769
2023-02-15 05:41:05:923,0.0708396,-9.22827,-4.91116,54.5083,-0.617909,85.0829
2023-02-15 05:41:05:933,-0.0153738,-9.18868,-4.8771,54.3582,-0.623329,85.0896
2023-02-15 05:41:05:943,-0.0501464,-9.12371,-4.86985,54.1646,-0.631867,85.0999
2023-02-15 05:41:05:953,-0.0663101,-9.03483,-4.92531,53.9188,-0.639802,85.1059
2023-02-15 05:41:05:963,-0.075898,-8.94791,-4.96355,53.6234,-0.648708,85.1068
2023-02-15 05:41:05:973,-0.0048546,-8.84873,-5.01843,53.2842,-0.657835,85.1015
2023-02-15 05:41:05:983,0.0245558,-8.76972,-5.0972,52.9007,-0.669447,85.0921
2023-02-15 05:41:05:993,-0.0411261,-8.72918,-5.18974,52.475,-0.688462,85.0767
2023-02-15 05:41:06:3,-0.173474,-8.61969,-5.2677,52.0056,-0.71692,85.0609
2023-02-15 05:41:06:13,-0.316063,-8.47909,-5.35579,51.4962,-0.74967,85.0458
2023-02-15 05:41:06:23,-0.372086,-8.37523,-5.47056,50.9465,-0.777472,85.0318
2023-02-15 05:41:06:33,-0.341931,-8.29411,-5.56689,50.3598,-0.800963,85.0255
2023-02-15 05:41:06:43,-0.349924,-8.22083,-5.60734,49.7369,-0.814386,85.0207
2023-02-15 05:41:06:53,-0.406073,-8.10326,-5.62999,49.0732,-0.823218,85.0209
2023-02-15 05:41:06:63,-0.368972,-7.95231,-5.717,48.3708,-0.822923,85.0272
2023-02-15 05:41:06:73,-0.250822,-7.74379,-5.88971,47.6189,-0.807448,85.0385
2023-02-15 05:41:06:83,-0.178351,-7.47483,-6.13245,46.8241,-0.783849,85.0531
2023-02-15 05:41:06:93,-0.188907,-7.13742,-6.37369,45.9941,-0.758314,85.0616
2023-02-15 05:41:06:103,-0.253118,-6.80111,-6.60795,45.1388,-0.733112,85.07
2023-02-15 05:41:06:113,-0.324307,-6.52234,-6.77709,44.2699,-0.703783,85.073
2023-02-15 05:41:06:123,-0.233819,-6.39892,-6.89105,43.4041,-0.665373,85.0691
2023-02-15 05:41:06:133,0.0372013,-6.33457,-7.00385,42.544,-0.615254,85.0587
2023-02-15 05:41:06:143,0.307086,-6.24555,-7.11878,41.6858,-0.557981,85.0337
2023-02-15 05:41:06:153,0.402919,-6.117,-7.22309,40.8188,-0.51039,84.9951
2023-02-15 05:41:06:163,0.325341,-5.9848,-7.28089,39.9473,-0.486073,84.941
2023-02-15 05:41:06:173,0.173262,-5.81541,-7.36626,39.0614,-0.488865,84.8765
2023-02-15 05:41:06:183,0.101675,-5.64924,-7.49985,38.166,-0.510891,84.8018
2023-02-15 05:41:06:193,0.00723282,-5.48538,-7.68148,37.2644,-0.544987,84.7274
2023-02-15 05:41:06:203,-0.130296,-5.3403,-7.84309,36.3536,-0.592697,84.6574
2023-02-15 05:41:06:213,-0.269981,-5.20648,-7.96769,35.447,-0.649173,84.596
2023-02-15 05:41:06:223,-0.354752,-5.06708,-8.05759,34.5427,-0.705241,84.545
2023-02-15 05:41:06:233,-0.368943,-4.95833,-8.13427,33.6483,-0.751449,84.5066
2023-02-15 05:41:06:243,-0.334484,-4.86027,-8.13432,32.7649,-0.794488,84.4734
2023-02-15 05:41:06:253,-0.3329,-4.7533,-8.10119,31.8883,-0.827598,84.445
2023-02-15 05:41:06:263,-0.327812,-4.64082,-8.10075,31.0206,-0.851231,84.4232
2023-02-15 05:41:06:273,-0.188836,-4.51451,-8.10357,30.1527,-0.866651,84.4068
2023-02-15 05:41:06:283,0.0178682,-4.40594,-8.16446,29.2796,-0.87523,84.3909
2023-02-15 05:41:06:293,0.0756275,-4.27947,-8.30724,28.3958,-0.88984,84.367
2023-02-15 05:41:06:303,-0.0433576,-4.08659,-8.5092,27.5031,-0.92148,84.346
2023-02-15 05:41:06:313,-0.233083,-3.85806,-8.69885,26.606,-0.970712,84.3286
2023-02-15 05:41:06:323,-0.300855,-3.64309,-8.84067,25.7141,-1.0228,84.3172
2023-02-15 05:41:06:333,-0.292174,-3.48557,-8.90586,24.8398,-1.06879,84.3073
2023-02-15 05:41:06:343,-0.248506,-3.37494,-8.87708,23.9922,-1.1094,84.2977
2023-02-15 05:41:06:353,-0.225297,-3.34453,-8.82367,23.1702,-1.14382,84.2953
2023-02-15 05:41:06:363,-0.192662,-3.27554,-8.77835,22.3641,-1.17563,84.2959
2023-02-15 05:41:06:373,-0.172052,-3.15505,-8.74946,21.5671,-1.20545,84.3024
2023-02-15 05:41:06:383,-0.157436,-2.98405,-8.76118,20.7756,-1.23842,84.3126
2023-02-15 05:41:06:393,-0.125652,-2.74971,-8.86609,19.983,-1.2728,84.3306
2023-02-15 05:41:06:403,-0.0774768,-2.48332,-9.06708,19.1949,-1.31327,84.3541
2023-02-15 05:41:06:413,-0.0841129,-2.24621,-9.29869,18.4152,-1.35951,84.3853
2023-02-15 05:41:06:423,-0.0781943,-2.07229,-9.60583,17.6596,-1.41257,84.4302
2023-02-15 05:41:06:433,-0.0220517,-1.9651,-9.90837,16.9375,-1.46698,84.4824
2023-02-15 05:41:06:443,-0.0121226,-1.91146,-10.0112,16.2518,-1.52069,84.5476
2023-02-15 05:41:06:453,-0.0750896,-1.89376,-9.90721,15.6077,-1.57913,84.6236
2023-02-15 05:41:06:463,-0.193713,-1.89825,-9.73479,15.001,-1.63496,84.7116
2023-02-15 05:41:06:473,-0.341738,-1.88311,-9.55145,14.4263,-1.69105,84.8091
2023-02-15 05:41:06:483,-0.493726,-1.83767,-9.41099,13.8721,-1.75373,84.9074
2023-02-15 05:41:06:493,-0.57362,-1.7802,-9.37717,13.3276,-1.81548,85.0036
2023-02-15 05:41:06:503,-0.602662,-1.72696,-9.50844,12.7852,-1.87149,85.1029
2023-02-15 05:41:06:513,-0.599581,-1.65981,-9.67899,12.2457,-1.9172,85.1999
2023-02-15 05:41:06:523,-0.604046,-1.60195,-9.73353,11.7168,-1.95368,85.2931
2023-02-15 05:41:06:533,-0.573239,-1.58658,-9.67599,11.1959,-1.98422,85.3834
2023-02-15 05:41:06:543,-0.558124,-1.53498,-9.56693,10.6871,-2.00583,85.467
2023-02-15 05:41:06:553,-0.577792,-1.45449,-9.48272,10.1826,-2.02075,85.5468
2023-02-15 05:41:06:563,-0.61288,-1.36795,-9.44481,9.68363,-2.03225,85.624
2023-02-15 05:41:06:573,-0.617667,-1.24787,-9.42613,9.18403,-2.03904,85.6957
2023-02-15 05:41:06:583,-0.544646,-1.14888,-9.47373,8.69261,-2.04059,85.7611
2023-02-15 05:41:06:593,-0.431193,-1.04723,-9.52306,8.20204,-2.02857,85.8215
2023-02-15 05:41:06:603,-0.353513,-0.964463,-9.57501,7.717,-2.01202,85.8778
2023-02-15 05:41:06:613,-0.300829,-0.873404,-9.66245,7.23735,-1.99424,85.9319
2023-02-15 05:41:06:623,-0.248458,-0.758371,-9.77078,6.76402,-1.9828,85.9832
2023-02-15 05:41:06:633,-0.225188,-0.639329,-9.90747,6.3012,-1.97492,86.0359
2023-02-15 05:41:06:643,-0.261496,-0.48762,-10.0577,5.84964,-1.96825,86.0905
2023-02-15 05:41:06:653,-0.327002,-0.371222,-10.1273,5.41652,-1.96699,86.1515
2023-02-15 05:41:06:663,-0.41623,-0.285265,-10.1365,5.00998,-1.97328,86.2114
2023-02-15 05:41:06:673,-0.47209,-0.236595,-10.1115,4.62947,-1.97654,86.2713
2023-02-15 05:41:06:683,-0.413099,-0.209797,-10.0501,4.27604,-1.96799,86.3334
2023-02-15 05:41:06:693,-0.311715,-0.213051,-9.92725,3.94707,-1.94904,86.3876
2023-02-15 05:41:06:703,-0.266368,-0.22526,-9.82922,3.63747,-1.92687,86.436
2023-02-15 05:41:06:713,-0.271852,-0.181225,-9.816,3.33557,-1.90706,86.4824
2023-02-15 05:41:06:723,-0.294353,-0.0968506,-9.85133,3.04563,-1.89048,86.5265
2023-02-15 05:41:06:733,-0.331338,-0.0181375,-9.89256,2.76862,-1.88171,86.5707
2023-02-15 05:41:06:743,-0.385414,0.0522323,-9.9335,2.50128,-1.87143,86.6149
2023-02-15 05:41:06:753,-0.404974,0.0967209,-9.97434,2.2459,-1.86078,86.6581
2023-02-15 05:41:06:763,-0.396143,0.0972621,-9.99838,2.00625,-1.85139,86.7024
2023-02-15 05:41:06:773,-0.359991,0.0816027,-9.96199,1.78859,-1.83505,86.7384
2023-02-15 05:41:06:783,-0.298002,0.0636418,-9.91434,1.58579,-1.81371,86.7746
2023-02-15 05:41:06:793,-0.268099,0.0911585,-9.89256,1.39455,-1.79856,86.8065
2023-02-15 05:41:06:803,-0.292784,0.12245,-9.90966,1.21308,-1.78508,86.8354
2023-02-15 05:41:06:813,-0.320406,0.158863,-9.91564,1.04437,-1.77398,86.859
2023-02-15 05:41:06:823,-0.328879,0.202062,-9.93801,0.888937,-1.75969,86.881
2023-02-15 05:41:06:833,-0.307686,0.233704,-9.99381,0.741993,-1.74441,86.9021
2023-02-15 05:41:06:843,-0.315274,0.269791,-10.0649,0.609817,-1.73054,86.9199
2023-02-15 05:41:06:853,-0.348676,0.286117,-10.0766,0.490282,-1.71641,86.9381
2023-02-15 05:41:06:863,-0.375774,0.268652,-9.99125,0.384647,-1.70435,86.9569
2023-02-15 05:41:06:873,-0.369685,0.254857,-9.91935,0.292582,-1.68496,86.9708
2023-02-15 05:41:06:883,-0.380512,0.256847,-9.85829,0.213496,-1.66077,86.9841
2023-02-15 05:41:06:893,-0.390104,0.243373,-9.81795,0.148702,-1.62663,86.9954
2023-02-15 05:41:06:903,-0.346401,0.235194,-9.81991,0.0894409,-1.59369,87.0035
2023-02-15 05:41:06:913,-0.292384,0.23526,-9.83508,0.0379965,-1.55701,87.0109
2023-02-15 05:41:06:923,-0.266657,0.229688,-9.84157,-0.00277776,-1.52062,87.0209
2023-02-15 05:41:06:933,-0.23738,0.208813,-9.83706,-0.0396848,-1.48327,87.0271
2023-02-15 05:41:06:943,-0.203685,0.186802,-9.83528,-0.0712584,-1.44757,87.0285
2023-02-15 05:41:06:953,-0.163065,0.18488,-9.85769,-0.0972116,-1.41047,87.0281
2023-02-15 05:41:06:963,-0.13309,0.181798,-9.87405,-0.119669,-1.37641,87.0249
2023-02-15 05:41:06:973,-0.142201,0.162649,-9.86161,-0.135918,-1.34542,87.021
2023-02-15 05:41:06:983,-0.175739,0.146208,-9.81962,-0.149252,-1.31375,87.0167
2023-02-15 05:41:06:993,-0.177113,0.138616,-9.8052,-0.150782,-1.29173,87.0102
2023-02-15 05:41:07:3,-0.146725,0.124714,-9.7975,-0.149916,-1.26845,87.0037
2023-02-15 05:41:07:13,-0.103686,0.0905449,-9.79263,-0.149271,-1.24208,86.9982
2023-02-15 05:41:07:23,-0.0958984,0.077069,-9.77292,-0.150475,-1.22047,86.9922
2023-02-15 05:41:07:33,-0.0823724,0.055879,-9.76638,-0.149046,-1.20253,86.9859
2023-02-15 05:41:07:43,-0.0798081,0.0599041,-9.75387,-0.149539,-1.1887,86.9796
2023-02-15 05:41:07:53,-0.039152,0.0646497,-9.74393,-0.153712,-1.17629,86.9732
2023-02-15 05:41:07:63,-0.0326281,0.0740929,-9.75687,-0.15938,-1.16678,86.9692
2023-02-15 05:41:07:73,-0.0706622,0.0894875,-9.77578,-0.167172,-1.15939,86.9675
2023-02-15 05:41:07:83,-0.0815435,0.123238,-9.81585,-0.174488,-1.15485,86.9678
2023-02-15 05:41:07:93,-0.0390163,0.125092,-9.83855,-0.173135,-1.14686,86.9702
2023-02-15 05:41:07:103,-0.0413404,0.116224,-9.8237,-0.169484,-1.14065,86.9682
2023-02-15 05:41:07:113,-0.0790408,0.11567,-9.82031,-0.161795,-1.14178,86.9758
2023-02-15 05:41:07:123,-0.0685621,0.107947,-9.82459,-0.151049,-1.14776,86.9848
2023-02-15 05:41:07:133,-0.0541542,0.0827293,-9.80019,-0.137817,-1.15232,86.9923
2023-02-15 05:41:07:143,-0.0803135,0.0794021,-9.77279,-0.12175,-1.16307,87.0025
2023-02-15 05:41:07:153,-0.115393,0.0820295,-9.77301,-0.109498,-1.17541,87.0157
2023-02-15 05:41:07:163,-0.167355,0.0881329,-9.78987,-0.094974,-1.18467,87.0317
2023-02-15 05:41:07:173,-0.215394,0.0984806,-9.81692,-0.0796362,-1.19635,87.0496
2023-02-15 05:41:07:183,-0.24461,0.104794,-9.85886,-0.0622405,-1.20278,87.0676
2023-02-15 05:41:07:193,-0.285914,0.109645,-9.87192,-0.038995,-1.20553,87.089
2023-02-15 05:41:07:203,-0.311304,0.112738,-9.86526,-0.0105234,-1.20854,87.1089
2023-02-15 05:41:07:213,-0.296033,0.123212,-9.8688,0.0235189,-1.21226,87.1234
2023-02-15 05:41:07:223,-0.267843,0.133123,-9.84383,0.0639522,-1.21488,87.1313
2023-02-15 05:41:07:233,-0.255965,0.130529,-9.8277,0.110273,-1.21656,87.1347
2023-02-15 05:41:07:243,-0.271421,0.0958236,-9.79409,0.163222,-1.2195,87.13
2023-02-15 05:41:07:253,-0.29523,0.0574306,-9.76127,0.222374,-1.22176,87.1223
2023-02-15 05:41:07:263,-0.295898,0.0165279,-9.71115,0.283998,-1.22465,87.1136
2023-02-15 05:41:07:273,-0.252118,-0.0238318,-9.69777,0.341784,-1.22521,87.0978
2023-02-15 05:41:07:283,-0.181364,-0.0464286,-9.74148,0.396995,-1.22196,87.0823
2023-02-15 05:41:07:293,-0.116294,-0.0766644,-9.76741,0.446603,-1.2194,87.0629
2023-02-15 05:41:07:303,-0.10578,-0.0883876,-9.79084,0.497792,-1.21689,87.0423
2023-02-15 05:41:07:313,-0.135776,-0.0863066,-9.80003,0.550552,-1.21972,87.0223
2023-02-15 05:41:07:323,-0.218482,-0.077489,-9.78493,0.602087,-1.22684,87.0048
2023-02-15 05:41:07:333,-0.302432,-0.0940381,-9.77464,0.656539,-1.23267,86.9934
2023-02-15 05:41:07:343,-0.354305,-0.125347,-9.75713,0.710799,-1.23904,86.9829
2023-02-15 05:41:07:353,-0.362706,-0.165228,-9.72987,0.765216,-1.24032,86.9755
2023-02-15 05:41:07:363,-0.332053,-0.20415,-9.68544,0.821556,-1.23757,86.9652
2023-02-15 05:41:07:373,-0.336676,-0.220804,-9.6823,0.877072,-1.22696,86.9545
2023-02-15 05:41:07:383,-0.32197,-0.209768,-9.69697,0.927338,-1.20994,86.9461
2023-02-15 05:41:07:393,-0.278011,-0.220116,-9.71085,0.973185,-1.18854,86.9346
2023-02-15 05:41:07:403,-0.211092,-0.238971,-9.7268,1.01696,-1.16153,86.9206
2023-02-15 05:41:07:413,-0.146154,-0.242223,-9.74636,1.06093,-1.13512,86.8985
2023-02-15 05:41:07:423,-0.117623,-0.240059,-9.75852,1.10244,-1.11317,86.8776
2023-02-15 05:41:07:433,-0.087133,-0.25085,-9.7665,1.14571,-1.09362,86.8568
2023-02-15 05:41:07:443,-0.0695557,-0.244172,-9.75446,1.18712,-1.07813,86.8345
2023-02-15 05:41:07:453,-0.0756034,-0.248712,-9.76046,1.22909,-1.07133,86.8065
2023-02-15 05:41:07:463,-0.0833082,-0.265076,-9.75056,1.26835,-1.06838,86.7833
2023-02-15 05:41:07:473,-0.0921478,-0.273693,-9.7346,1.31242,-1.06676,86.759
2023-02-15 05:41:07:483,-0.0753864,-0.271954,-9.72878,1.35232,-1.0694,86.7384
2023-02-15 05:41:07:493,-0.0402215,-0.273706,-9.74958,1.38999,-1.07877,86.7134
2023-02-15 05:41:07:503,-0.0327765,-0.268178,-9.76105,1.42176,-1.08989,86.693
2023-02-15 05:41:07:513,-0.0364057,-0.28022,-9.78359,1.453,-1.10402,86.6761
2023-02-15 05:41:07:523,-0.0656444,-0.280125,-9.80049,1.48192,-1.1238,86.663
2023-02-15 05:41:07:533,-0.101575,-0.282786,-9.80051,1.5124,-1.14796,86.6552
2023-02-15 05:41:07:543,-0.131492,-0.282459,-9.77723,1.54094,-1.17662,86.6504
2023-02-15 05:41:07:553,-0.136036,-0.296687,-9.7509,1.56887,-1.20852,86.6486
2023-02-15 05:41:07:563,-0.111872,-0.333162,-9.70001,1.6004,-1.23754,86.6485
2023-02-15 05:41:07:573,-0.0972081,-0.35877,-9.66416,1.63006,-1.26499,86.6459
2023-02-15 05:41:07:583,-0.124974,-0.349269,-9.64696,1.65296,-1.29555,86.6509
2023-02-15 05:41:07:593,-0.179379,-0.344254,-9.65866,1.67044,-1.32981,86.6631
2023-02-15 05:41:07:603,-0.2291,-0.344791,-9.68395,1.68404,-1.3644,86.6779
2023-02-15 05:41:07:613,-0.273138,-0.346307,-9.70126,1.69222,-1.39555,86.6943
2023-02-15 05:41:07:623,-0.323226,-0.327034,-9.69427,1.70073,-1.42498,86.7114
2023-02-15 05:41:07:633,-0.359556,-0.305653,-9.70511,1.70269,-1.45065,86.7295
2023-02-15 05:41:07:643,-0.369927,-0.290827,-9.74687,1.70399,-1.47571,86.7451
2023-02-15 05:41:07:653,-0.372217,-0.280807,-9.79875,1.70629,-1.49546,86.7621
2023-02-15 05:41:07:663,-0.376686,-0.278117,-9.81333,1.71352,-1.51003,86.7752
2023-02-15 05:41:07:673,-0.361039,-0.278139,-9.79645,1.71883,-1.52314,86.7796
2023-02-15 05:41:07:683,-0.348067,-0.309655,-9.7651,1.72849,-1.53325,86.7827
2023-02-15 05:41:07:693,-0.337111,-0.324062,-9.7318,1.74112,-1.53766,86.779
2023-02-15 05:41:07:703,-0.329986,-0.331343,-9.72006,1.75085,-1.53996,86.7749
2023-02-15 05:41:07:713,-0.308485,-0.321626,-9.7192,1.7569,-1.54312,86.7664
2023-02-15 05:41:07:723,-0.283843,-0.308921,-9.72565,1.76811,-1.54156,86.756
2023-02-15 05:41:07:733,-0.262658,-0.311878,-9.75686,1.77681,-1.53956,86.747
2023-02-15 05:41:07:743,-0.221756,-0.302318,-9.80823,1.78659,-1.53617,86.7391
2023-02-15 05:41:07:753,-0.192636,-0.295136,-9.84509,1.79665,-1.5336,86.7319
2023-02-15 05:41:07:763,-0.20237,-0.305957,-9.86554,1.8061,-1.53239,86.7216
2023-02-15 05:41:07:773,-0.25395,-0.337135,-9.82987,1.81851,-1.53044,86.7157
2023-02-15 05:41:07:783,-0.319474,-0.368891,-9.76565,1.83414,-1.52807,86.7144
2023-02-15 05:41:07:793,-0.403651,-0.385752,-9.73263,1.84913,-1.52495,86.7096
2023-02-15 05:41:07:803,-0.507839,-0.395899,-9.69148,1.86257,-1.51963,86.7091
2023-02-15 05:41:07:813,-0.610152,-0.375856,-9.67493,1.87382,-1.50974,86.7091
2023-02-15 05:41:07:823,-0.640394,-0.348445,-9.67426,1.87889,-1.49195,86.7084
2023-02-15 05:41:07:833,-0.549356,-0.351308,-9.67666,1.88555,-1.4592,86.7007
2023-02-15 05:41:07:843,-0.425132,-0.359756,-9.65673,1.8937,-1.41421,86.6849
2023-02-15 05:41:07:853,-0.342738,-0.365897,-9.65683,1.90008,-1.36064,86.659
2023-02-15 05:41:07:863,-0.272465,-0.350023,-9.72313,1.90345,-1.31074,86.6273
2023-02-15 05:41:07:873,-0.213137,-0.30229,-9.78453,1.90668,-1.26311,86.589
2023-02-15 05:41:07:883,-0.163497,-0.277099,-9.81602,1.90449,-1.21778,86.5475
2023-02-15 05:41:07:893,-0.138704,-0.277384,-9.80273,1.90722,-1.17505,86.5029
2023-02-15 05:41:07:903,-0.139749,-0.278986,-9.7924,1.91458,-1.13374,86.4586
2023-02-15 05:41:07:913,-0.124888,-0.268183,-9.7642,1.92549,-1.0912,86.4141
2023-02-15 05:41:07:923,-0.0844864,-0.283228,-9.77372,1.93386,-1.05061,86.3721
2023-02-15 05:41:07:933,-0.0413036,-0.295629,-9.77313,1.94673,-1.0092,86.3328
2023-02-15 05:41:07:943,0.00413125,-0.30159,-9.77934,1.95789,-0.965805,86.2934
2023-02-15 05:41:07:953,0.028046,-0.284537,-9.79396,1.9676,-0.927012,86.2587
2023-02-15 05:41:07:963,0.0326005,-0.28506,-9.82046,1.97558,-0.894062,86.2283
2023-02-15 05:41:07:973,0.0111756,-0.265568,-9.78674,1.9835,-0.86645,86.2031
2023-02-15 05:41:07:983,-0.00052313,-0.278575,-9.7364,1.99109,-0.845453,86.1781
2023-02-15 05:41:07:993,-0.0247408,-0.273844,-9.75613,1.99856,-0.826988,86.1596
2023-02-15 05:41:08:3,-0.0435505,-0.265877,-9.80231,2.00628,-0.810759,86.1431
2023-02-15 05:41:08:13,-0.0421549,-0.258346,-9.81381,2.01498,-0.795272,86.1318
2023-02-15 05:41:08:23,-0.0108828,-0.285135,-9.80581,2.02498,-0.778754,86.1206
2023-02-15 05:41:08:33,-0.0363288,-0.294202,-9.78499,2.03813,-0.767166,86.1095
2023-02-15 05:41:08:43,-0.0917285,-0.303327,-9.77975,2.05528,-0.757185,86.1019
2023-02-15 05:41:08:53,-0.107434,-0.307627,-9.76454,2.07569,-0.75032,86.0943
2023-02-15 05:41:08:63,-0.108371,-0.297279,-9.77423,2.09526,-0.74894,86.0908
2023-02-15 05:41:08:73,-0.0785989,-0.289035,-9.80867,2.11203,-0.747218,86.0883
2023-02-15 05:41:08:83,-0.0247634,-0.278824,-9.82901,2.12954,-0.745547,86.0829
2023-02-15 05:41:08:93,-0.0124721,-0.273111,-9.83687,2.14743,-0.7466,86.0857
2023-02-15 05:41:08:103,-0.0347343,-0.253511,-9.86198,2.16846,-0.749291,86.0854
2023-02-15 05:41:08:113,-0.0658451,-0.241328,-9.86041,2.19407,-0.755278,86.0883
2023-02-15 05:41:08:123,-0.0978791,-0.231676,-9.84423,2.22429,-0.765529,86.0942
2023-02-15 05:41:08:133,-0.120804,-0.232257,-9.83481,2.26108,-0.773739,86.1015
2023-02-15 05:41:08:143,-0.156327,-0.231514,-9.82,2.30396,-0.783345,86.1094
2023-02-15 05:41:08:153,-0.172989,-0.218134,-9.80966,2.35027,-0.794524,86.1179
2023-02-15 05:41:08:163,-0.185875,-0.224697,-9.8284,2.40226,-0.80439,86.1261
2023-02-15 05:41:08:173,-0.186409,-0.248714,-9.82398,2.45979,-0.814499,86.1304
2023-02-15 05:41:08:183,-0.187036,-0.257243,-9.81777,2.52563,-0.82601,86.1379
2023-02-15 05:41:08:193,-0.158805,-0.281187,-9.82613,2.58986,-0.836519,86.1392
2023-02-15 05:41:08:203,-0.126573,-0.294501,-9.81845,2.65612,-0.843458,86.1414
2023-02-15 05:41:08:213,-0.146873,-0.279073,-9.85403,2.72811,-0.852891,86.141
2023-02-15 05:41:08:223,-0.171916,-0.259595,-9.85297,2.80192,-0.86766,86.1453
2023-02-15 05:41:08:233,-0.204293,-0.278045,-9.84183,2.88706,-0.879822,86.1519
2023-02-15 05:41:08:243,-0.224363,-0.284222,-9.84126,2.97847,-0.888261,86.1555
2023-02-15 05:41:08:253,-0.229166,-0.273546,-9.8187,3.07252,-0.897787,86.1611
2023-02-15 05:41:08:263,-0.245198,-0.296171,-9.8302,3.1702,-0.905973,86.1644
2023-02-15 05:41:08:273,-0.271033,-0.293296,-9.8305,3.27779,-0.906663,86.1719
2023-02-15 05:41:08:283,-0.296628,-0.298733,-9.82688,3.38932,-0.905102,86.1732
2023-02-15 05:41:08:293,-0.302066,-0.312906,-9.84542,3.50447,-0.904296,86.1738
2023-02-15 05:41:08:303,-0.264517,-0.315969,-9.84937,3.62708,-0.899429,86.166
2023-02-15 05:41:08:313,-0.223783,-0.316243,-9.8665,3.7568,-0.895767,86.1551
2023-02-15 05:41:08:323,-0.184168,-0.307388,-9.87419,3.89695,-0.890277,86.1442
2023-02-15 05:41:08:333,-0.152126,-0.294774,-9.91411,4.04735,-0.881361,86.1303
2023-02-15 05:41:08:343,-0.126902,-0.281177,-9.95097,4.20516,-0.873113,86.1126
2023-02-15 05:41:08:353,-0.100501,-0.284223,-9.97273,4.37575,-0.865491,86.0975
2023-02-15 05:41:08:363,-0.0680062,-0.277237,-9.99931,4.56318,-0.85417,86.0813
2023-02-15 05:41:08:373,-0.0681494,-0.248516,-10.0381,4.76543,-0.849144,86.068
2023-02-15 05:41:08:383,-0.0972345,-0.217139,-10.0949,4.98587,-0.84642,86.0564
2023-02-15 05:41:08:393,-0.128824,-0.22498,-10.1216,5.22936,-0.844244,86.049
2023-02-15 05:41:08:403,-0.141265,-0.247227,-10.1366,5.49861,-0.84823,86.0427
2023-02-15 05:41:08:413,-0.150692,-0.279928,-10.1455,5.79561,-0.856555,86.0333
2023-02-15 05:41:08:423,-0.171882,-0.311514,-10.1546,6.12095,-0.860842,86.0247
2023-02-15 05:41:08:433,-0.224702,-0.34225,-10.1347,6.46725,-0.869141,86.0118
2023-02-15 05:41:08:443,-0.265031,-0.409297,-10.0426,6.84981,-0.878377,85.9957
2023-02-15 05:41:08:453,-0.249805,-0.500308,-9.95218,7.2576,-0.884767,85.9746
2023-02-15 05:41:08:463,-0.202965,-0.597124,-9.92053,7.68825,-0.886997,85.9488
2023-02-15 05:41:08:473,-0.200495,-0.659088,-9.88844,8.13857,-0.885554,85.9165
2023-02-15 05:41:08:483,-0.179591,-0.719747,-9.88608,8.61435,-0.886743,85.8825
2023-02-15 05:41:08:493,-0.185714,-0.743183,-9.94035,9.11574,-0.88729,85.8438
2023-02-15 05:41:08:503,-0.233289,-0.767476,-10.0004,9.63854,-0.889804,85.8032
2023-02-15 05:41:08:513,-0.244059,-0.813047,-9.98354,10.1898,-0.890193,85.7571
2023-02-15 05:41:08:523,-0.205832,-0.919535,-9.90582,10.7776,-0.892455,85.708
2023-02-15 05:41:08:533,-0.144803,-1.04298,-9.7832,11.3986,-0.885954,85.6531
2023-02-15 05:41:08:543,-0.0834604,-1.16927,-9.69597,12.0503,-0.87946,85.5935
2023-02-15 05:41:08:553,-0.071683,-1.28424,-9.6465,12.7275,-0.873495,85.5284
2023-02-15 05:41:08:563,-0.119396,-1.36496,-9.64097,13.4296,-0.876143,85.4623
2023-02-15 05:41:08:573,-0.189076,-1.5123,-9.58391,14.1541,-0.879099,85.3921
2023-02-15 05:41:08:583,-0.197923,-1.60561,-9.54195,14.9077,-0.892913,85.3148
2023-02-15 05:41:08:593,-0.302393,-1.6611,-9.57792,15.6915,-0.893931,85.2416
2023-02-15 05:41:08:603,-0.256396,-1.81451,-9.54484,16.5147,-0.889425,85.1518
2023-02-15 05:41:08:613,-0.172467,-1.98066,-9.47168,17.3741,-0.870308,85.0659
2023-02-15 05:41:08:623,-0.169699,-2.14148,-9.27475,18.2718,-0.847144,84.9745
2023-02-15 05:41:08:633,-0.142444,-2.27824,-9.14076,19.2058,-0.823355,84.8782
2023-02-15 05:41:08:643,-0.081177,-2.44044,-9.10593,20.1734,-0.797984,84.7891
2023-02-15 05:41:08:653,-0.00716551,-2.58158,-9.12433,21.1743,-0.770909,84.6914
2023-02-15 05:41:08:663,0.167159,-2.69227,-9.22461,22.2128,-0.742741,84.5935
2023-02-15 05:41:08:673,0.292453,-2.80728,-9.26892,23.2982,-0.724651,84.4917
2023-02-15 05:41:08:683,0.192606,-2.96395,-9.08952,24.4277,-0.712931,84.399
2023-02-15 05:41:08:693,-0.0838553,-3.21649,-8.66083,25.6122,-0.712499,84.3176
2023-02-15 05:41:08:703,-0.233047,-3.49607,-8.25226,26.8396,-0.709663,84.2488
2023-02-15 05:41:08:713,-0.225092,-3.74803,-7.95111,28.0973,-0.692138,84.1849
2023-02-15 05:41:08:723,-0.112224,-4.029,-7.72583,29.3783,-0.6548,84.1247
2023-02-15 05:41:08:733,0.0839988,-4.24033,-7.62327,30.6702,-0.604214,84.0565
2023-02-15 05:41:08:743,0.22111,-4.44476,-7.56913,31.9722,-0.546341,83.9878
2023-02-15 05:41:08:753,0.247806,-4.78216,-7.27588,33.2818,-0.510584,83.9005
2023-02-15 05:41:08:763,0.0276419,-4.97145,-7.0574,34.5968,-0.485211,83.8179
2023-02-15 05:41:08:773,-0.142688,-5.38141,-6.72342,35.919,-0.45491,83.7422
2023-02-15 05:41:08:783,0.0247328,-5.81756,-6.50864,37.2387,-0.416324,83.6677
2023-02-15 05:41:08:793,0.233972,-6.17693,-6.39126,38.5403,-0.368315,83.5961
2023-02-15 05:41:08:803,0.202845,-6.45704,-6.39951,39.8153,-0.327073,83.5319
2023-02-15 05:41:08:813,0.0545033,-6.76653,-6.26103,41.0592,-0.29966,83.4668
2023-02-15 05:41:08:823,0.0710221,-7.09016,-6.1049,42.2754,-0.272552,83.4103
2023-02-15 05:41:08:833,0.112033,-7.43551,-5.93884,43.4698,-0.246358,83.3624
2023-02-15 05:41:08:843,0.0736074,-7.78433,-5.73932,44.6309,-0.216274,83.3279
2023-02-15 05:41:08:853,0.0176154,-8.14753,-5.49133,45.7525,-0.187337,83.2917
2023-02-15 05:41:08:863,-0.0222685,-8.42815,-5.39926,46.8287,-0.160079,83.2696
2023-02-15 05:41:08:873,0.0163707,-8.71826,-5.37792,47.8511,-0.128207,83.2575
2023-02-15 05:41:08:883,0.138602,-9.02521,-5.26865,48.818,-0.0946576,83.238
2023-02-15 05:41:08:893,0.127394,-9.23065,-5.10747,49.7315,-0.0640341,83.2314
2023-02-15 05:41:08:903,-0.00196604,-9.50325,-4.74035,50.5939,-0.0401465,83.2337
2023-02-15 05:41:08:913,-0.012184,-9.79707,-4.40944,51.399,-0.014728,83.2404
2023-02-15 05:41:08:923,0.0785501,-10.0237,-4.17308,52.1279,0.0108625,83.2568
2023-02-15 05:41:08:933,0.0730381,-10.1762,-4.06732,52.771,0.0356036,83.2783
2023-02-15 05:41:08:943,0.0243398,-10.2461,-4.03278,53.3112,0.0508424,83.3065
2023-02-15 05:41:08:953,0.051424,-10.2587,-4.07999,53.7544,0.0688358,83.3403
2023-02-15 05:41:08:963,0.154373,-10.2416,-4.17496,54.0995,0.0847419,83.38
2023-02-15 05:41:08:973,0.243035,-10.2266,-4.21225,54.3617,0.0999563,83.4148
2023-02-15 05:41:08:983,0.282477,-10.2157,-4.18796,54.5462,0.112537,83.4536
2023-02-15 05:41:08:993,0.308185,-10.1728,-4.1886,54.6542,0.122375,83.4933
2023-02-15 05:41:09:3,0.361999,-10.054,-4.26142,54.6834,0.122125,83.5322
2023-02-15 05:41:09:13,0.396652,-9.87681,-4.3978,54.6371,0.110481,83.5658
2023-02-15 05:41:09:23,0.423227,-9.68467,-4.54797,54.5201,0.0913604,83.599
2023-02-15 05:41:09:33,0.388978,-9.53717,-4.65093,54.3415,0.0604932,83.6344
2023-02-15 05:41:09:43,0.308438,-9.41051,-4.67921,54.1082,0.0161104,83.6721
2023-02-15 05:41:09:53,0.255613,-9.25429,-4.75221,53.8268,-0.035734,83.7056
2023-02-15 05:41:09:63,0.246056,-9.05121,-4.89564,53.4893,-0.0986495,83.7424
2023-02-15 05:41:09:73,0.231078,-8.83994,-5.02591,53.1059,-0.169864,83.778
2023-02-15 05:41:09:83,0.182761,-8.68816,-5.14604,52.6783,-0.248867,83.8162
2023-02-15 05:41:09:93,0.133325,-8.56759,-5.22615,52.2125,-0.336441,83.852
2023-02-15 05:41:09:105,0.07481,-8.48329,-5.25916,51.7137,-0.433479,83.8871
2023-02-15 05:41:09:112,-0.0088738,-8.41387,-5.35862,51.1859,-0.534223,83.9209
2023-02-15 05:41:09:123,-0.129009,-8.31052,-5.4741,50.6211,-0.641142,83.9587
2023-02-15 05:41:09:132,-0.184953,-8.20794,-5.55868,50.0244,-0.744804,84.0003
2023-02-15 05:41:09:142,-0.149658,-8.13738,-5.63131,49.398,-0.844335,84.046
2023-02-15 05:41:09:152,-0.0807808,-8.06105,-5.72728,48.7447,-0.941263,84.0921
2023-02-15 05:41:09:163,-0.0293692,-7.97657,-5.80615,48.0566,-1.03953,84.1395
2023-02-15 05:41:09:173,-0.000305915,-7.88356,-5.91007,47.3352,-1.14094,84.1913
2023-02-15 05:41:09:183,0.0221119,-7.74886,-6.09432,46.5775,-1.24573,84.2452
2023-02-15 05:41:09:193,-0.0768713,-7.57059,-6.27954,45.7742,-1.36074,84.2998
2023-02-15 05:41:09:203,-0.279405,-7.40849,-6.33018,44.9472,-1.48969,84.3572
2023-02-15 05:41:09:213,-0.51374,-7.2595,-6.37426,44.088,-1.62996,84.4146
2023-02-15 05:41:09:223,-0.582195,-7.06032,-6.45936,43.204,-1.76717,84.4745
2023-02-15 05:41:09:233,-0.562767,-6.85324,-6.58363,42.2859,-1.88781,84.5394
2023-02-15 05:41:09:243,-0.561714,-6.64936,-6.7383,41.3468,-1.99692,84.6045
2023-02-15 05:41:09:253,-0.588902,-6.42717,-6.84577,40.3835,-2.09556,84.6679
2023-02-15 05:41:09:263,-0.54598,-6.24523,-6.94679,39.4087,-2.18334,84.7316
2023-02-15 05:41:09:273,-0.483636,-6.08444,-7.02771,38.4155,-2.26285,84.7838
2023-02-15 05:41:09:283,-0.441465,-5.94218,-7.02455,37.4084,-2.3437,84.8242
2023-02-15 05:41:09:293,-0.46542,-5.79431,-7.04996,36.3863,-2.42068,84.86
2023-02-15 05:41:09:303,-0.606663,-5.57443,-7.12743,35.3358,-2.5086,84.8971
2023-02-15 05:41:09:313,-0.787042,-5.32787,-7.28804,34.2572,-2.59927,84.939
2023-02-15 05:41:09:323,-0.885561,-4.99155,-7.57243,33.1479,-2.68714,84.9864
2023-02-15 05:41:09:333,-0.867104,-4.6446,-7.88617,32.018,-2.76009,85.0402
2023-02-15 05:41:09:343,-0.82511,-4.33414,-8.08034,30.8845,-2.81395,85.097
2023-02-15 05:41:09:353,-0.823326,-4.11819,-8.13663,29.7679,-2.85309,85.1577
2023-02-15 05:41:09:363,-0.848987,-3.9379,-8.11512,28.6673,-2.87392,85.2245
2023-02-15 05:41:09:373,-0.774839,-3.75926,-8.11736,27.5765,-2.8832,85.2883
2023-02-15 05:41:09:383,-0.576033,-3.56333,-8.23834,26.4924,-2.87485,85.3517
2023-02-15 05:41:09:393,-0.411762,-3.34105,-8.43872,25.4078,-2.85726,85.4159
2023-02-15 05:41:09:403,-0.355727,-3.11831,-8.61393,24.3225,-2.83759,85.4813
2023-02-15 05:41:09:413,-0.354498,-2.85007,-8.81072,23.2496,-2.81086,85.5593
2023-02-15 05:41:09:423,-0.362781,-2.584,-8.97875,22.1951,-2.78496,85.6439
2023-02-15 05:41:09:433,-0.377856,-2.34999,-9.09258,21.1612,-2.76509,85.7332
2023-02-15 05:41:09:443,-0.402528,-2.14563,-9.24486,20.1544,-2.75195,85.8241
2023-02-15 05:41:09:453,-0.407215,-1.9272,-9.44638,19.1752,-2.7436,85.9228
2023-02-15 05:41:09:463,-0.376454,-1.70356,-9.66905,18.2319,-2.72987,86.0216
2023-02-15 05:41:09:473,-0.368499,-1.53237,-9.84221,17.3333,-2.71268,86.1268
2023-02-15 05:41:09:483,-0.399329,-1.44953,-9.94017,16.484,-2.68651,86.2342
2023-02-15 05:41:09:493,-0.469863,-1.41721,-9.95592,15.6811,-2.6638,86.3385
2023-02-15 05:41:09:503,-0.594665,-1.41502,-9.86333,14.9284,-2.64276,86.4354
2023-02-15 05:41:09:513,-0.662821,-1.41157,-9.7452,14.2139,-2.62222,86.5255
2023-02-15 05:41:09:523,-0.609204,-1.38276,-9.71328,13.534,-2.59428,86.6023
2023-02-15 05:41:09:533,-0.51549,-1.31874,-9.7231,12.8795,-2.56073,86.6631
2023-02-15 05:41:09:543,-0.474954,-1.25869,-9.70426,12.2495,-2.53047,86.7148
2023-02-15 05:41:09:553,-0.548758,-1.23609,-9.68064,11.6444,-2.5029,86.7563
2023-02-15 05:41:09:563,-0.65462,-1.20397,-9.66736,11.0638,-2.47699,86.7928
2023-02-15 05:41:09:573,-0.675788,-1.18091,-9.65013,10.5028,-2.44321,86.8238
2023-02-15 05:41:09:583,-0.628007,-1.14564,-9.66315,9.9572,-2.40218,86.8473
2023-02-15 05:41:09:593,-0.5723,-1.11347,-9.69432,9.42996,-2.35594,86.8589
2023-02-15 05:41:09:603,-0.536866,-1.07768,-9.72368,8.91512,-2.30752,86.8617
2023-02-15 05:41:09:613,-0.510917,-1.019,-9.77627,8.415,-2.25748,86.8559
2023-02-15 05:41:09:623,-0.466849,-0.929308,-9.86507,7.92529,-2.20625,86.8385
2023-02-15 05:41:09:633,-0.430639,-0.851275,-9.87339,7.45376,-2.16038,86.81
2023-02-15 05:41:09:642,-0.446076,-0.812283,-9.80663,6.99484,-2.11452,86.7748
2023-02-15 05:41:09:653,-0.424006,-0.796541,-9.71141,6.55151,-2.0724,86.7352
2023-02-15 05:41:09:663,-0.347153,-0.784497,-9.6407,6.11889,-2.02375,86.6882
2023-02-15 05:41:09:673,-0.288778,-0.768488,-9.57492,5.69646,-1.97252,86.6425
2023-02-15 05:41:09:683,-0.209683,-0.742983,-9.53667,5.27039,-1.92498,86.5991
2023-02-15 05:41:09:692,-0.157282,-0.692823,-9.54323,4.8431,-1.87814,86.5571
2023-02-15 05:41:09:702,-0.176658,-0.581603,-9.6013,4.4112,-1.8362,86.5223
2023-02-15 05:41:09:713,-0.218573,-0.439616,-9.7018,3.97377,-1.80536,86.4943
2023-02-15 05:41:09:723,-0.25879,-0.286964,-9.81357,3.54147,-1.77364,86.4776
2023-02-15 05:41:09:733,-0.287534,-0.149016,-9.89775,3.12032,-1.74543,86.4635
2023-02-15 05:41:09:743,-0.290314,-0.0150208,-9.96616,2.71026,-1.7137,86.4578
2023-02-15 05:41:09:753,-0.266348,0.0591229,-9.96889,2.32025,-1.67754,86.4545
2023-02-15 05:41:09:763,-0.2117,0.0697099,-9.88911,1.94635,-1.63686,86.4479
2023-02-15 05:41:09:773,-0.144196,0.048267,-9.79402,1.5908,-1.58766,86.4444
2023-02-15 05:41:09:783,-0.059224,0.0243999,-9.76485,1.2405,-1.53602,86.4461
2023-02-15 05:41:09:793,-0.00661561,0.0631435,-9.79651,0.895414,-1.48393,86.4537
2023-02-15 05:41:09:803,-0.0204396,0.156303,-9.83708,0.54734,-1.43539,86.4692
2023-02-15 05:41:09:813,-0.0422528,0.264747,-9.92205,0.203669,-1.40029,86.4892
2023-02-15 05:41:09:823,-0.0422912,0.376555,-9.99736,-0.13363,-1.36931,86.516
2023-02-15 05:41:09:833,-0.0364387,0.485025,-10.0286,-0.461453,-1.34323,86.5469
2023-02-15 05:41:09:843,-0.0732808,0.542879,-9.96833,-0.769102,-1.31878,86.5843
2023-02-15 05:41:09:853,-0.129971,0.548876,-9.86405,-1.05964,-1.29645,86.6241
