Timestamp,Acceleration_x,Acceleration_y,Acceleration_z,roll,pitch,yaw
2023-02-16 21:26:31:238,-0.706277,2.65544,-9.14288,-16.7718,-5.73602,88.4116
2023-02-16 21:26:31:247,-0.653596,2.71802,-9.22149,-16.7788,-5.7004,88.2781
2023-02-16 21:26:31:257,-0.639812,2.77008,-9.26142,-16.7962,-5.67313,88.1542
2023-02-16 21:26:31:267,-0.64035,2.82195,-9.31248,-16.8183,-5.65567,88.0405
2023-02-16 21:26:31:277,-0.661125,2.89224,-9.38663,-16.8424,-5.64185,87.9361
2023-02-16 21:26:31:287,-0.672175,2.9242,-9.43074,-16.8583,-5.6373,87.8438
2023-02-16 21:26:31:297,-0.673899,2.91771,-9.45155,-16.8692,-5.63055,87.7621
2023-02-16 21:26:31:307,-0.689181,2.91214,-9.42336,-16.8738,-5.6309,87.693
2023-02-16 21:26:31:317,-0.706261,2.87035,-9.35383,-16.8771,-5.63392,87.6305
2023-02-16 21:26:31:327,-0.746292,2.8369,-9.30171,-16.8829,-5.63645,87.5818
2023-02-16 21:26:31:337,-0.76309,2.82868,-9.29614,-16.8902,-5.63757,87.5437
2023-02-16 21:26:31:347,-0.781626,2.83392,-9.35165,-16.8984,-5.63808,87.5149
2023-02-16 21:26:31:357,-0.806893,2.82808,-9.38081,-16.9045,-5.63718,87.4934
2023-02-16 21:26:31:367,-0.829172,2.82453,-9.36173,-16.9109,-5.63631,87.4787
2023-02-16 21:26:31:377,-0.84505,2.80354,-9.29694,-16.9106,-5.63384,87.4701
2023-02-16 21:26:31:387,-0.857038,2.75992,-9.22469,-16.9161,-5.62759,87.4716
2023-02-16 21:26:31:397,-0.878979,2.75557,-9.23735,-16.9237,-5.61663,87.4768
2023-02-16 21:26:31:407,-0.872765,2.78805,-9.34932,-16.9323,-5.60709,87.4835
2023-02-16 21:26:31:417,-0.857243,2.80503,-9.44436,-16.9384,-5.59782,87.4918
2023-02-16 21:26:31:427,-0.81564,2.76866,-9.42887,-16.9412,-5.5882,87.5
2023-02-16 21:26:31:437,-0.741213,2.7231,-9.38579,-16.9415,-5.58645,87.5118
2023-02-16 21:26:31:447,-0.664527,2.71848,-9.38535,-16.944,-5.58868,87.5315
2023-02-16 21:26:31:457,-0.639152,2.71274,-9.35133,-16.9501,-5.59938,87.5599
2023-02-16 21:26:31:467,-0.64488,2.70087,-9.31997,-16.9579,-5.61262,87.6036
2023-02-16 21:26:31:477,-0.650931,2.71658,-9.33103,-16.9742,-5.62953,87.6604
2023-02-16 21:26:31:487,-0.670566,2.7422,-9.34425,-16.9902,-5.64393,87.7306
2023-02-16 21:26:31:497,-0.728093,2.75895,-9.33214,-17.0112,-5.65869,87.8156
2023-02-16 21:26:31:507,-0.772807,2.76953,-9.30908,-17.0297,-5.6715,87.9082
2023-02-16 21:26:31:517,-0.800318,2.77211,-9.26442,-17.0552,-5.68075,88.0116
2023-02-16 21:26:31:527,-0.854828,2.77712,-9.23506,-17.0771,-5.68848,88.1221
2023-02-16 21:26:31:537,-0.902615,2.79798,-9.23037,-17.1018,-5.6927,88.2366
2023-02-16 21:26:31:547,-0.960445,2.82407,-9.27347,-17.1247,-5.69821,88.3486
2023-02-16 21:26:31:557,-0.982941,2.86617,-9.33375,-17.1474,-5.70209,88.4582
2023-02-16 21:26:31:567,-0.983086,2.87982,-9.34201,-17.1676,-5.71056,88.5696
2023-02-16 21:26:31:577,-0.994888,2.85397,-9.27294,-17.1857,-5.71638,88.6767
2023-02-16 21:26:31:587,-0.990911,2.89071,-9.27008,-17.2073,-5.72426,88.7864
2023-02-16 21:26:31:597,-1.00359,2.93581,-9.31587,-17.229,-5.73668,88.8887
2023-02-16 21:26:31:607,-1.01559,2.92741,-9.29208,-17.2535,-5.74543,88.9916
2023-02-16 21:26:31:617,-1.03518,2.94503,-9.28248,-17.2817,-5.75876,89.0894
2023-02-16 21:26:31:627,-1.05173,2.97367,-9.29981,-17.3121,-5.77387,89.1861
2023-02-16 21:26:31:637,-1.07127,3.00108,-9.32028,-17.3393,-5.78836,89.2809
2023-02-16 21:26:31:647,-1.101,2.99925,-9.3069,-17.3657,-5.80339,89.3687
2023-02-16 21:26:31:657,-1.14126,3.01476,-9.28935,-17.3881,-5.81901,89.4544
2023-02-16 21:26:31:667,-1.17239,3.01546,-9.3111,-17.4098,-5.83495,89.5317
2023-02-16 21:26:31:677,-1.21774,3.03256,-9.3056,-17.4278,-5.85041,89.5995
2023-02-16 21:26:31:687,-1.24359,3.03978,-9.28223,-17.4414,-5.86527,89.66
2023-02-16 21:26:31:697,-1.2595,3.02826,-9.26789,-17.4521,-5.87821,89.7093
2023-02-16 21:26:31:707,-1.25767,3.01809,-9.23572,-17.4608,-5.88977,89.7464
2023-02-16 21:26:31:717,-1.23739,3.00367,-9.22409,-17.4711,-5.90243,89.7749
2023-02-16 21:26:31:727,-1.24624,2.99133,-9.20244,-17.4836,-5.91486,89.7941
2023-02-16 21:26:31:737,-1.25333,2.99922,-9.19826,-17.4957,-5.92628,89.8027
2023-02-16 21:26:31:747,-1.24951,3.02443,-9.20329,-17.5081,-5.9386,89.8002
2023-02-16 21:26:31:757,-1.23126,3.00309,-9.15598,-17.5229,-5.94646,89.7913
2023-02-16 21:26:31:767,-1.17987,3.00895,-9.22918,-17.5375,-5.95255,89.773
2023-02-16 21:26:31:777,-1.1469,3.07649,-9.38118,-17.5506,-5.95624,89.7484
2023-02-16 21:26:31:787,-1.12646,3.09321,-9.38602,-17.5533,-5.95948,89.7168
2023-02-16 21:26:31:796,-1.08174,3.0402,-9.28955,-17.5487,-5.9614,89.6814
2023-02-16 21:26:31:807,-1.01504,2.96924,-9.15939,-17.5448,-5.95358,89.649
2023-02-16 21:26:31:817,-0.970604,2.93237,-9.11941,-17.5518,-5.94856,89.6156
2023-02-16 21:26:31:827,-0.951144,2.95092,-9.14779,-17.5635,-5.94298,89.5844
2023-02-16 21:26:31:837,-0.960031,2.98189,-9.23704,-17.5806,-5.93804,89.5612
2023-02-16 21:26:31:847,-0.968835,3.02846,-9.3004,-17.5968,-5.92818,89.5403
2023-02-16 21:26:31:857,-0.967845,3.03331,-9.30385,-17.6103,-5.92044,89.5212
2023-02-16 21:26:31:867,-0.928567,3.01585,-9.326,-17.6202,-5.90987,89.5076
2023-02-16 21:26:31:877,-0.917558,3.03712,-9.34253,-17.6253,-5.90146,89.4916
2023-02-16 21:26:31:887,-0.923693,3.02922,-9.30794,-17.6276,-5.89119,89.4806
2023-02-16 21:26:31:897,-0.916642,2.98918,-9.30197,-17.6258,-5.87369,89.4691
2023-02-16 21:26:31:907,-0.923169,2.98127,-9.2991,-17.6223,-5.8615,89.4658
2023-02-16 21:26:31:917,-0.933254,2.9668,-9.27166,-17.62,-5.85395,89.4612
2023-02-16 21:26:31:927,-0.951127,2.94654,-9.23655,-17.6209,-5.84481,89.4605
2023-02-16 21:26:31:937,-0.951125,2.96047,-9.29132,-17.6233,-5.83949,89.457
2023-02-16 21:26:31:947,-0.938116,2.99949,-9.3259,-17.6285,-5.83315,89.4544
2023-02-16 21:26:31:957,-0.951843,2.97146,-9.25899,-17.6321,-5.82903,89.4521
2023-02-16 21:26:31:967,-0.95078,2.94908,-9.20898,-17.6382,-5.82596,89.4445
2023-02-16 21:26:31:977,-0.944719,2.94614,-9.17535,-17.649,-5.82921,89.4437
2023-02-16 21:26:31:987,-0.955913,2.97851,-9.249,-17.66,-5.83623,89.4416
2023-02-16 21:26:31:997,-0.971424,3.04671,-9.38601,-17.6716,-5.84625,89.4387
2023-02-16 21:26:32:7,-1.00426,3.05086,-9.4179,-17.6743,-5.85655,89.4377
2023-02-16 21:26:32:17,-1.0307,3.01088,-9.33968,-17.6684,-5.86253,89.4315
2023-02-16 21:26:32:27,-1.00266,2.97912,-9.23918,-17.6629,-5.86763,89.4226
2023-02-16 21:26:32:37,-0.975018,2.96309,-9.1799,-17.6605,-5.87358,89.4134
2023-02-16 21:26:32:47,-0.986327,2.95214,-9.16326,-17.6595,-5.88285,89.4092
2023-02-16 21:26:32:57,-0.998162,2.97228,-9.20243,-17.6612,-5.88545,89.3998
2023-02-16 21:26:32:67,-1.0224,2.9835,-9.26343,-17.6664,-5.89045,89.3897
2023-02-16 21:26:32:77,-1.0347,3.01558,-9.31232,-17.6685,-5.89476,89.3782
2023-02-16 21:26:32:87,-1.02256,3.04356,-9.36493,-17.6655,-5.90455,89.3639
2023-02-16 21:26:32:97,-1.02075,3.03295,-9.37958,-17.6593,-5.91096,89.3489
2023-02-16 21:26:32:107,-1.01242,3.02369,-9.33718,-17.6494,-5.9147,89.3306
2023-02-16 21:26:32:117,-0.990764,2.99566,-9.32531,-17.6364,-5.92099,89.3086
2023-02-16 21:26:32:127,-0.952443,2.97087,-9.30797,-17.6231,-5.92892,89.2873
2023-02-16 21:26:32:137,-0.933751,2.95712,-9.31556,-17.6094,-5.93912,89.2659
2023-02-16 21:26:32:147,-0.902139,2.94639,-9.34643,-17.5986,-5.95429,89.2482
2023-02-16 21:26:32:157,-0.887063,2.95627,-9.37593,-17.5831,-5.97176,89.2347
2023-02-16 21:26:32:167,-0.88903,2.95839,-9.4122,-17.5656,-5.99207,89.2257
2023-02-16 21:26:32:177,-0.916459,2.95669,-9.39218,-17.5468,-6.01425,89.2239
2023-02-16 21:26:32:187,-0.941113,2.92141,-9.31904,-17.5183,-6.03668,89.2242
2023-02-16 21:26:32:197,-0.946106,2.87602,-9.23776,-17.4946,-6.0526,89.2289
2023-02-16 21:26:32:207,-0.950663,2.86485,-9.21071,-17.4705,-6.06177,89.2369
2023-02-16 21:26:32:217,-0.970405,2.86237,-9.23931,-17.4527,-6.07333,89.25
2023-02-16 21:26:32:227,-0.998281,2.85987,-9.3027,-17.4321,-6.08358,89.2677
2023-02-16 21:26:32:237,-1.02147,2.87077,-9.35211,-17.4123,-6.09264,89.2831
2023-02-16 21:26:32:247,-1.03867,2.8794,-9.36487,-17.391,-6.10236,89.3021
2023-02-16 21:26:32:257,-1.07493,2.82262,-9.32404,-17.3655,-6.11344,89.3194
2023-02-16 21:26:32:267,-1.0925,2.77502,-9.2483,-17.3372,-6.12601,89.3353
2023-02-16 21:26:32:277,-1.07662,2.75258,-9.19723,-17.3107,-6.13675,89.3504
2023-02-16 21:26:32:287,-1.03581,2.71383,-9.18179,-17.2857,-6.1457,89.3653
2023-02-16 21:26:32:297,-0.994644,2.70664,-9.19014,-17.2724,-6.1493,89.379
2023-02-16 21:26:32:307,-0.93293,2.71848,-9.20854,-17.2622,-6.14544,89.3954
2023-02-16 21:26:32:317,-0.888482,2.72887,-9.21522,-17.2624,-6.1373,89.4211
2023-02-16 21:26:32:327,-0.925021,2.73553,-9.21325,-17.2674,-6.12904,89.4494
2023-02-16 21:26:32:337,-0.998104,2.77368,-9.19888,-17.2785,-6.122,89.4851
2023-02-16 21:26:32:347,-1.08487,2.8303,-9.18154,-17.2998,-6.11661,89.526
2023-02-16 21:26:32:357,-1.09785,2.86638,-9.20991,-17.3226,-6.11032,89.5638
2023-02-16 21:26:32:367,-1.0525,2.93689,-9.24937,-17.3486,-6.10175,89.5944
2023-02-16 21:26:32:377,-0.975592,2.96848,-9.27549,-17.3698,-6.09292,89.6253
2023-02-16 21:26:32:387,-0.949143,2.97817,-9.24636,-17.393,-6.0864,89.6601
2023-02-16 21:26:32:397,-0.966822,3.0069,-9.23179,-17.417,-6.08151,89.6977
2023-02-16 21:26:32:407,-0.982311,3.01581,-9.20806,-17.4382,-6.07713,89.7365
2023-02-16 21:26:32:417,-1.00859,3.01913,-9.20293,-17.4613,-6.07262,89.7785
2023-02-16 21:26:32:427,-1.02575,3.06335,-9.24639,-17.4851,-6.06319,89.8213
2023-02-16 21:26:32:437,-1.0417,3.08695,-9.27305,-17.5056,-6.05964,89.8608
2023-02-16 21:26:32:447,-1.03858,3.08556,-9.28775,-17.5231,-6.05598,89.8987
2023-02-16 21:26:32:457,-1.02392,3.08665,-9.29332,-17.5442,-6.05853,89.9365
2023-02-16 21:26:32:467,-0.997812,3.08114,-9.2921,-17.5632,-6.06162,89.9723
2023-02-16 21:26:32:477,-1.006,3.09091,-9.29272,-17.5842,-6.06202,90.0062
2023-02-16 21:26:32:487,-1.02785,3.12422,-9.34834,-17.6019,-6.06551,90.0377
2023-02-16 21:26:32:497,-1.02485,3.14574,-9.42639,-17.6144,-6.07379,90.0666
2023-02-16 21:26:32:507,-1.03231,3.14472,-9.43459,-17.6188,-6.0877,90.0937
2023-02-16 21:26:32:517,-1.03909,3.11066,-9.38021,-17.6153,-6.10566,90.1162
2023-02-16 21:26:32:527,-1.05417,3.06612,-9.32326,-17.604,-6.12485,90.1353
2023-02-16 21:26:32:537,-1.04682,3.01985,-9.2943,-17.5895,-6.14927,90.1556
2023-02-16 21:26:32:547,-1.05942,3.01213,-9.32781,-17.5792,-6.17832,90.174
2023-02-16 21:26:32:557,-1.06519,3.00099,-9.34726,-17.56,-6.20814,90.1894
2023-02-16 21:26:32:567,-1.06841,2.97721,-9.32315,-17.5404,-6.2368,90.2032
2023-02-16 21:26:32:577,-1.09726,2.9698,-9.30488,-17.5185,-6.26625,90.2155
2023-02-16 21:26:32:587,-1.11545,2.95664,-9.29538,-17.4921,-6.29351,90.2271
2023-02-16 21:26:32:597,-1.13557,2.93838,-9.27041,-17.4661,-6.32005,90.2429
2023-02-16 21:26:32:607,-1.14309,2.92472,-9.26441,-17.4391,-6.33601,90.2514
2023-02-16 21:26:32:617,-1.14052,2.90575,-9.27011,-17.41,-6.34822,90.2544
2023-02-16 21:26:32:627,-1.12614,2.89881,-9.26673,-17.3802,-6.34957,90.2596
2023-02-16 21:26:32:637,-1.09868,2.86948,-9.27709,-17.3508,-6.35066,90.2628
2023-02-16 21:26:32:647,-1.09465,2.86547,-9.2677,-17.3248,-6.34954,90.2637
2023-02-16 21:26:32:657,-1.08381,2.85674,-9.26688,-17.2993,-6.34777,90.2648
2023-02-16 21:26:32:667,-1.07106,2.85277,-9.25295,-17.2735,-6.34927,90.2674
2023-02-16 21:26:32:677,-1.06756,2.84041,-9.20245,-17.2504,-6.34534,90.2661
2023-02-16 21:26:32:687,-1.03913,2.80514,-9.16231,-17.2326,-6.34281,90.2659
2023-02-16 21:26:32:697,-1.01844,2.79806,-9.17678,-17.2236,-6.33805,90.2659
2023-02-16 21:26:32:707,-1.01122,2.81466,-9.20827,-17.2161,-6.33563,90.2628
2023-02-16 21:26:32:717,-1.01641,2.83566,-9.21789,-17.2121,-6.33451,90.2668
2023-02-16 21:26:32:727,-1.01341,2.81827,-9.19641,-17.2093,-6.3286,90.268
2023-02-16 21:26:32:737,-1.00133,2.83167,-9.19546,-17.2132,-6.32813,90.2731
2023-02-16 21:26:32:747,-1.00222,2.87023,-9.21684,-17.223,-6.3278,90.2787
2023-02-16 21:26:32:757,-1.01914,2.88493,-9.25268,-17.2354,-6.33176,90.2853
2023-02-16 21:26:32:767,-1.02267,2.90793,-9.29683,-17.2463,-6.33382,90.2936
2023-02-16 21:26:32:777,-1.01486,2.92751,-9.33547,-17.2574,-6.34079,90.3069
2023-02-16 21:26:32:787,-1.0134,2.95184,-9.35558,-17.2647,-6.34696,90.3187
2023-02-16 21:26:32:797,-1.04026,2.95629,-9.31911,-17.2667,-6.3547,90.3311
2023-02-16 21:26:32:807,-1.05258,2.93425,-9.29647,-17.2672,-6.36327,90.3446
2023-02-16 21:26:32:817,-1.06818,2.93594,-9.2942,-17.2685,-6.37762,90.3553
2023-02-16 21:26:32:827,-1.09403,2.94719,-9.31005,-17.2665,-6.38937,90.3701
2023-02-16 21:26:32:837,-1.10464,2.92041,-9.28904,-17.2591,-6.39974,90.3835
2023-02-16 21:26:32:847,-1.10622,2.8957,-9.24036,-17.2494,-6.40807,90.3971
2023-02-16 21:26:32:857,-1.09703,2.87024,-9.22548,-17.2445,-6.42056,90.4056
2023-02-16 21:26:32:867,-1.07639,2.89439,-9.26502,-17.2418,-6.42827,90.4129
2023-02-16 21:26:32:877,-1.04973,2.9291,-9.32893,-17.2405,-6.43196,90.4211
2023-02-16 21:26:32:887,-1.0533,2.96778,-9.36601,-17.2405,-6.43948,90.4327
2023-02-16 21:26:32:897,-1.0914,2.97657,-9.37734,-17.2348,-6.45179,90.4433
2023-02-16 21:26:32:907,-1.13386,2.96649,-9.35234,-17.222,-6.46614,90.4595
2023-02-16 21:26:32:917,-1.13099,2.94858,-9.30448,-17.209,-6.47289,90.4745
2023-02-16 21:26:32:927,-1.13572,2.91988,-9.25113,-17.1955,-6.48106,90.4882
2023-02-16 21:26:32:937,-1.16176,2.90774,-9.22426,-17.1894,-6.48295,90.5067
2023-02-16 21:26:32:947,-1.17629,2.93548,-9.2533,-17.1815,-6.48313,90.5189
2023-02-16 21:26:32:957,-1.18468,2.94327,-9.28311,-17.1754,-6.48008,90.532
2023-02-16 21:26:32:967,-1.17655,2.91738,-9.28291,-17.1645,-6.47393,90.5396
2023-02-16 21:26:32:977,-1.17689,2.91286,-9.26616,-17.1499,-6.4675,90.5448
2023-02-16 21:26:32:987,-1.17578,2.8989,-9.23665,-17.138,-6.46435,90.5477
2023-02-16 21:26:32:997,-1.17272,2.86292,-9.24502,-17.1248,-6.45966,90.5503
2023-02-16 21:26:33:7,-1.16281,2.83188,-9.25714,-17.1094,-6.45309,90.5466
2023-02-16 21:26:33:17,-1.13596,2.83198,-9.2368,-17.0946,-6.44763,90.5437
2023-02-16 21:26:33:27,-1.10038,2.81596,-9.23613,-17.0861,-6.44273,90.5365
2023-02-16 21:26:33:37,-1.06622,2.80006,-9.26254,-17.0806,-6.4369,90.5269
2023-02-16 21:26:33:47,-1.05141,2.79249,-9.25778,-17.0759,-6.43359,90.5187
2023-02-16 21:26:33:57,-1.06419,2.79144,-9.2462,-17.0784,-6.43068,90.514
2023-02-16 21:26:33:67,-1.0862,2.80613,-9.28427,-17.0826,-6.4277,90.5106
2023-02-16 21:26:33:77,-1.12216,2.81933,-9.29654,-17.0905,-6.42146,90.5141
2023-02-16 21:26:33:87,-1.13968,2.83894,-9.31066,-17.0933,-6.41348,90.5145
2023-02-16 21:26:33:97,-1.13438,2.8565,-9.33036,-17.0981,-6.40615,90.5157
2023-02-16 21:26:33:107,-1.14534,2.85423,-9.33381,-17.097,-6.4022,90.516
2023-02-16 21:26:33:117,-1.15801,2.85457,-9.31866,-17.0927,-6.39535,90.5158
2023-02-16 21:26:33:127,-1.17121,2.83444,-9.29375,-17.0927,-6.39241,90.5113
2023-02-16 21:26:33:137,-1.17615,2.82425,-9.28347,-17.0884,-6.38952,90.4996
2023-02-16 21:26:33:147,-1.15188,2.84813,-9.27727,-17.0868,-6.3839,90.48
2023-02-16 21:26:33:157,-1.12037,2.85247,-9.28777,-17.0833,-6.37687,90.4596
2023-02-16 21:26:33:167,-1.08283,2.83036,-9.28788,-17.079,-6.36659,90.4373
2023-02-16 21:26:33:177,-1.04265,2.82891,-9.24877,-17.0751,-6.35588,90.4132
2023-02-16 21:26:33:187,-1.01274,2.83142,-9.237,-17.0746,-6.34937,90.3885
2023-02-16 21:26:33:197,-0.964509,2.84302,-9.26402,-17.0786,-6.33897,90.3642
2023-02-16 21:26:33:207,-0.930042,2.86963,-9.29804,-17.0825,-6.32965,90.3396
2023-02-16 21:26:33:217,-0.908393,2.88198,-9.31829,-17.0872,-6.33124,90.3146
2023-02-16 21:26:33:227,-0.904989,2.89137,-9.30749,-17.0955,-6.33201,90.2942
2023-02-16 21:26:33:237,-0.906555,2.88626,-9.29406,-17.101,-6.33661,90.2807
2023-02-16 21:26:33:247,-0.90516,2.87662,-9.27658,-17.1087,-6.33813,90.2697
2023-02-16 21:26:33:257,-0.907739,2.89492,-9.27339,-17.1184,-6.34359,90.2668
2023-02-16 21:26:33:267,-0.916587,2.91742,-9.29768,-17.1277,-6.34757,90.2703
2023-02-16 21:26:33:277,-0.924882,2.92789,-9.29018,-17.1379,-6.35495,90.283
2023-02-16 21:26:33:287,-0.945126,2.91678,-9.27499,-17.1471,-6.35997,90.2996
2023-02-16 21:26:33:297,-0.974195,2.91535,-9.29196,-17.1577,-6.36885,90.3208
2023-02-16 21:26:33:307,-1.01331,2.93233,-9.30307,-17.1677,-6.3795,90.3485
2023-02-16 21:26:33:317,-1.06382,2.94666,-9.31261,-17.1777,-6.38926,90.3797
2023-02-16 21:26:33:327,-1.08978,2.95544,-9.34776,-17.1872,-6.39962,90.4127
2023-02-16 21:26:33:337,-1.10594,2.97181,-9.35474,-17.1896,-6.40613,90.4467
2023-02-16 21:26:33:347,-1.15056,2.95818,-9.35201,-17.1926,-6.41805,90.4805
2023-02-16 21:26:33:357,-1.16988,2.93184,-9.36645,-17.1888,-6.42434,90.5115
2023-02-16 21:26:33:367,-1.19111,2.95441,-9.39134,-17.1773,-6.43214,90.5385
2023-02-16 21:26:33:377,-1.24112,2.96513,-9.41189,-17.1609,-6.44283,90.5657
2023-02-16 21:26:33:387,-1.26432,2.94212,-9.38085,-17.1371,-6.45635,90.5846
2023-02-16 21:26:33:397,-1.25489,2.90641,-9.33313,-17.1074,-6.46803,90.5987
2023-02-16 21:26:33:407,-1.26967,2.8724,-9.30407,-17.0736,-6.47561,90.6015
2023-02-16 21:26:33:417,-1.25155,2.82526,-9.2318,-17.0404,-6.49377,90.591
2023-02-16 21:26:33:427,-1.22271,2.78573,-9.19295,-17.0087,-6.51119,90.5734
2023-02-16 21:26:33:437,-1.20027,2.76606,-9.18748,-16.9826,-6.52502,90.5479
2023-02-16 21:26:33:447,-1.17256,2.75402,-9.20224,-16.9617,-6.5418,90.5151
2023-02-16 21:26:33:457,-1.11143,2.74475,-9.21086,-16.9424,-6.55742,90.4762
2023-02-16 21:26:33:467,-1.06717,2.74584,-9.23877,-16.9251,-6.57696,90.4404
2023-02-16 21:26:33:477,-1.06097,2.76262,-9.26708,-16.9119,-6.60048,90.3977
2023-02-16 21:26:33:487,-1.06093,2.77598,-9.26065,-16.9031,-6.61846,90.3592
2023-02-16 21:26:33:497,-1.06377,2.7758,-9.23221,-16.8933,-6.63484,90.3199
2023-02-16 21:26:33:507,-1.0631,2.78591,-9.23146,-16.8885,-6.64953,90.2828
2023-02-16 21:26:33:517,-1.0765,2.79691,-9.23859,-16.8843,-6.6621,90.2483
2023-02-16 21:26:33:527,-1.05975,2.80485,-9.22899,-16.8839,-6.67393,90.2122
2023-02-16 21:26:33:537,-1.02188,2.79654,-9.20541,-16.8867,-6.68104,90.1775
2023-02-16 21:26:33:547,-1.00473,2.77875,-9.21791,-16.8931,-6.69294,90.1469
2023-02-16 21:26:33:557,-1.00484,2.79765,-9.27116,-16.9024,-6.70329,90.1242
2023-02-16 21:26:33:567,-1.00871,2.84317,-9.35534,-16.9182,-6.71385,90.103
2023-02-16 21:26:33:577,-1.02222,2.88719,-9.41541,-16.9308,-6.73197,90.0884
2023-02-16 21:26:33:587,-1.02902,2.90263,-9.41955,-16.9351,-6.74971,90.0746
2023-02-16 21:26:33:597,-1.05399,2.8984,-9.39573,-16.9432,-6.76992,90.0693
2023-02-16 21:26:33:607,-1.08161,2.90022,-9.37581,-16.9469,-6.79,90.069
2023-02-16 21:26:33:617,-1.13491,2.91759,-9.33549,-16.9497,-6.81236,90.0718
2023-02-16 21:26:33:627,-1.22594,2.92708,-9.31576,-16.9509,-6.83614,90.0771
2023-02-16 21:26:33:637,-1.33415,2.96241,-9.3123,-16.9506,-6.8597,90.0789
2023-02-16 21:26:33:647,-1.39904,2.9574,-9.31419,-16.9495,-6.88565,90.0722
2023-02-16 21:26:33:657,-1.4237,2.9229,-9.29647,-16.9394,-6.91335,90.0552
2023-02-16 21:26:33:667,-1.45401,2.89612,-9.28377,-16.9246,-6.94745,90.0296
2023-02-16 21:26:33:677,-1.4633,2.89058,-9.28365,-16.9014,-6.98085,89.9905
2023-02-16 21:26:33:687,-1.41978,2.85311,-9.28132,-16.8765,-7.01401,89.939
2023-02-16 21:26:33:697,-1.38837,2.80769,-9.23637,-16.8485,-7.04736,89.8785
2023-02-16 21:26:33:707,-1.34195,2.76248,-9.19694,-16.8254,-7.07666,89.8142
2023-02-16 21:26:33:717,-1.27811,2.73531,-9.1896,-16.8078,-7.10135,89.7444
2023-02-16 21:26:33:727,-1.20302,2.71151,-9.18158,-16.7961,-7.12698,89.6714
2023-02-16 21:26:33:737,-1.13825,2.70294,-9.17369,-16.7937,-7.14999,89.596
2023-02-16 21:26:33:747,-1.09053,2.68766,-9.16219,-16.797,-7.1759,89.5306
2023-02-16 21:26:33:757,-1.06015,2.7095,-9.20108,-16.8089,-7.19883,89.4681
2023-02-16 21:26:33:767,-1.03934,2.7411,-9.26362,-16.8216,-7.21332,89.4129
2023-02-16 21:26:33:777,-1.02405,2.75934,-9.25852,-16.8362,-7.22211,89.3669
2023-02-16 21:26:33:787,-0.998968,2.76676,-9.26465,-16.8539,-7.21882,89.3331
2023-02-16 21:26:33:797,-0.955533,2.79,-9.27772,-16.8717,-7.20902,89.3099
2023-02-16 21:26:33:807,-0.946593,2.80161,-9.27609,-16.8917,-7.19369,89.3002
2023-02-16 21:26:33:817,-0.955605,2.79853,-9.26866,-16.9142,-7.17675,89.3028
2023-02-16 21:26:33:827,-0.982402,2.80375,-9.2555,-16.9345,-7.15826,89.3162
2023-02-16 21:26:33:837,-1.00013,2.818,-9.23681,-16.9614,-7.14095,89.3407
2023-02-16 21:26:33:847,-1.00775,2.83803,-9.22814,-16.9928,-7.12239,89.3732
2023-02-16 21:26:33:857,-1.02191,2.85842,-9.23345,-17.0286,-7.10231,89.4117
2023-02-16 21:26:33:867,-1.05737,2.87906,-9.24827,-17.0626,-7.08821,89.4579
2023-02-16 21:26:33:877,-1.14213,2.91814,-9.28971,-17.0981,-7.07176,89.5075
2023-02-16 21:26:33:887,-1.25525,2.95641,-9.33035,-17.1308,-7.06279,89.5558
2023-02-16 21:26:33:897,-1.35726,2.98206,-9.36724,-17.1591,-7.0522,89.6004
2023-02-16 21:26:33:907,-1.42259,3.00822,-9.39234,-17.1822,-7.04496,89.6342
2023-02-16 21:26:33:917,-1.40963,3.00574,-9.3914,-17.1965,-7.03412,89.6509
2023-02-16 21:26:33:927,-1.32706,2.97738,-9.29984,-17.2035,-7.01888,89.6514
2023-02-16 21:26:33:937,-1.24284,2.95045,-9.22194,-17.2142,-7.01023,89.6456
2023-02-16 21:26:33:947,-1.18528,2.96028,-9.20702,-17.2257,-7.00774,89.6318
2023-02-16 21:26:33:957,-1.1756,3.00919,-9.2382,-17.2384,-7.011,89.6176
2023-02-16 21:26:33:967,-1.16078,3.02616,-9.26425,-17.2494,-7.0162,89.6024
2023-02-16 21:26:33:977,-1.16545,3.01469,-9.27453,-17.2625,-7.0246,89.5864
2023-02-16 21:26:33:987,-1.10846,3.02846,-9.31179,-17.2719,-7.03087,89.5728
2023-02-16 21:26:33:997,-1.07669,3.0316,-9.35264,-17.2756,-7.03911,89.5576
2023-02-16 21:26:34:7,-1.07707,3.01903,-9.37075,-17.2729,-7.04681,89.5486
2023-02-16 21:26:34:17,-1.11308,2.99992,-9.35153,-17.2694,-7.05768,89.5469
2023-02-16 21:26:34:27,-1.12387,2.9825,-9.32415,-17.2588,-7.06719,89.5509
2023-02-16 21:26:34:37,-1.12906,2.95664,-9.31877,-17.2453,-7.07306,89.5598
2023-02-16 21:26:34:47,-1.14839,2.94619,-9.33117,-17.2343,-7.08051,89.5705
2023-02-16 21:26:34:57,-1.18206,2.94682,-9.40403,-17.2169,-7.08687,89.5836
2023-02-16 21:26:34:67,-1.20647,2.93176,-9.38966,-17.1942,-7.09109,89.5971
2023-02-16 21:26:34:77,-1.227,2.85724,-9.29038,-17.1622,-7.09258,89.6117
2023-02-16 21:26:34:87,-1.24742,2.80887,-9.20009,-17.1291,-7.0985,89.6268
2023-02-16 21:26:34:97,-1.29037,2.7878,-9.19694,-17.1025,-7.1055,89.6393
2023-02-16 21:26:34:107,-1.34642,2.79713,-9.23049,-17.0778,-7.11212,89.6442
2023-02-16 21:26:34:117,-1.38779,2.79506,-9.23653,-17.0524,-7.11727,89.6452
2023-02-16 21:26:34:127,-1.36967,2.75348,-9.19172,-17.031,-7.12105,89.6347
2023-02-16 21:26:34:137,-1.34017,2.7159,-9.16051,-17.0036,-7.11987,89.6179
2023-02-16 21:26:34:147,-1.32094,2.72248,-9.19669,-16.985,-7.11561,89.5916
2023-02-16 21:26:34:157,-1.29027,2.7446,-9.2516,-16.9666,-7.10873,89.5569
2023-02-16 21:26:34:167,-1.25322,2.75159,-9.28343,-16.9475,-7.10845,89.5176
2023-02-16 21:26:34:177,-1.21322,2.72405,-9.29069,-16.931,-7.10216,89.4719
2023-02-16 21:26:34:187,-1.20772,2.7294,-9.29378,-16.918,-7.10019,89.4223
2023-02-16 21:26:34:197,-1.20834,2.71837,-9.28893,-16.9059,-7.09851,89.3681
2023-02-16 21:26:34:207,-1.17796,2.71047,-9.26551,-16.8938,-7.09528,89.3108
2023-02-16 21:26:34:217,-1.13993,2.70523,-9.28187,-16.8867,-7.0901,89.2512
2023-02-16 21:26:34:227,-1.11311,2.73575,-9.3176,-16.8789,-7.08544,89.1944
2023-02-16 21:26:34:237,-1.09289,2.75629,-9.32742,-16.872,-7.07914,89.1359
2023-02-16 21:26:34:247,-1.05947,2.75441,-9.30292,-16.8683,-7.0727,89.0782
2023-02-16 21:26:34:257,-1.01582,2.76991,-9.29201,-16.8675,-7.06719,89.0222
2023-02-16 21:26:34:267,-1.01097,2.78518,-9.27542,-16.871,-7.06318,88.9734
2023-02-16 21:26:34:277,-1.00681,2.77162,-9.25729,-16.8814,-7.06333,88.9307
2023-02-16 21:26:34:287,-1.02097,2.80082,-9.23311,-16.8979,-7.06771,88.8938
2023-02-16 21:26:34:297,-1.07257,2.82755,-9.22686,-16.9151,-7.07109,88.8616
2023-02-16 21:26:34:307,-1.1258,2.86583,-9.26959,-16.9385,-7.07464,88.836
2023-02-16 21:26:34:317,-1.15839,2.89701,-9.31105,-16.9584,-7.08019,88.8103
2023-02-16 21:26:34:327,-1.16684,2.88303,-9.31438,-16.9723,-7.08436,88.7859
2023-02-16 21:26:34:337,-1.15858,2.886,-9.30368,-16.9829,-7.09068,88.7641
2023-02-16 21:26:34:347,-1.18495,2.90167,-9.27646,-16.9912,-7.09294,88.7393
2023-02-16 21:26:34:357,-1.18713,2.89716,-9.22732,-16.9962,-7.09852,88.7157
2023-02-16 21:26:34:367,-1.16668,2.89169,-9.25168,-17.0013,-7.10095,88.6919
2023-02-16 21:26:34:377,-1.16516,2.91563,-9.29703,-17.0039,-7.10243,88.6701
2023-02-16 21:26:34:387,-1.15475,2.91847,-9.32401,-17.0058,-7.10731,88.648
2023-02-16 21:26:34:397,-1.15626,2.90889,-9.3293,-17.0109,-7.11407,88.6258
2023-02-16 21:26:34:407,-1.14636,2.92632,-9.33567,-17.0092,-7.11987,88.6024
2023-02-16 21:26:34:417,-1.13855,2.93449,-9.3271,-17.011,-7.12992,88.5859
2023-02-16 21:26:34:427,-1.15771,2.94244,-9.33473,-17.0092,-7.13446,88.5716
2023-02-16 21:26:34:438,-1.17674,2.95198,-9.35512,-17.0077,-7.13713,88.5612
2023-02-16 21:26:34:447,-1.17,2.93843,-9.34506,-17.0033,-7.13762,88.5514
2023-02-16 21:26:34:457,-1.13625,2.93615,-9.31878,-16.9928,-7.13315,88.5404
2023-02-16 21:26:34:467,-1.10503,2.93642,-9.31789,-16.9787,-7.12858,88.5283
2023-02-16 21:26:34:477,-1.09502,2.91429,-9.31934,-16.9624,-7.12638,88.5235
2023-02-16 21:26:34:487,-1.11435,2.86974,-9.26357,-16.9413,-7.12683,88.5218
2023-02-16 21:26:34:498,-1.11686,2.83925,-9.23498,-16.923,-7.12683,88.5213
2023-02-16 21:26:34:507,-1.13669,2.85451,-9.25125,-16.9113,-7.13146,88.526
2023-02-16 21:26:34:517,-1.16198,2.86041,-9.27373,-16.8994,-7.13418,88.5316
2023-02-16 21:26:34:527,-1.16622,2.83745,-9.26806,-16.8886,-7.13251,88.5415
2023-02-16 21:26:34:537,-1.1525,2.83429,-9.2414,-16.8782,-7.13078,88.5536
2023-02-16 21:26:34:547,-1.1618,2.8406,-9.25441,-16.872,-7.13086,88.5672
2023-02-16 21:26:34:557,-1.18222,2.84947,-9.27769,-16.8654,-7.13086,88.5761
2023-02-16 21:26:34:567,-1.20199,2.85811,-9.25829,-16.8612,-7.13161,88.5883
2023-02-16 21:26:34:577,-1.19829,2.83601,-9.23403,-16.8575,-7.1294,88.6012
2023-02-16 21:26:34:587,-1.21087,2.84864,-9.23818,-16.8547,-7.13306,88.6141
2023-02-16 21:26:34:597,-1.237,2.85307,-9.2558,-16.8521,-7.13829,88.6283
2023-02-16 21:26:34:607,-1.25412,2.85194,-9.24466,-16.8542,-7.14428,88.6385
2023-02-16 21:26:34:617,-1.25553,2.84909,-9.22968,-16.8539,-7.15017,88.6432
2023-02-16 21:26:34:627,-1.26197,2.852,-9.2169,-16.8525,-7.15159,88.6475
2023-02-16 21:26:34:638,-1.26834,2.85389,-9.25125,-16.8524,-7.15779,88.6454
2023-02-16 21:26:34:647,-1.2425,2.87067,-9.33219,-16.8515,-7.16081,88.6441
2023-02-16 21:26:34:657,-1.23223,2.89853,-9.37813,-16.8471,-7.16497,88.6413
2023-02-16 21:26:34:667,-1.2114,2.88774,-9.37602,-16.8382,-7.16865,88.6368
2023-02-16 21:26:34:677,-1.16927,2.86072,-9.34702,-16.822,-7.1693,88.6338
2023-02-16 21:26:34:687,-1.15534,2.84316,-9.35925,-16.8096,-7.17031,88.6354
2023-02-16 21:26:34:697,-1.18089,2.85632,-9.35581,-16.7921,-7.17195,88.6373
2023-02-16 21:26:34:707,-1.2036,2.85211,-9.30791,-16.7738,-7.17239,88.6423
2023-02-16 21:26:34:717,-1.23373,2.83303,-9.26579,-16.7566,-7.1763,88.6525
2023-02-16 21:26:34:727,-1.23113,2.82046,-9.26259,-16.7408,-7.17778,88.6619
2023-02-16 21:26:34:737,-1.25081,2.83404,-9.25733,-16.7276,-7.18073,88.6711
2023-02-16 21:26:34:747,-1.29601,2.80991,-9.23531,-16.7119,-7.18451,88.677
2023-02-16 21:26:34:757,-1.30487,2.80853,-9.21558,-16.6984,-7.19089,88.6809
2023-02-16 21:26:34:767,-1.28946,2.8149,-9.19192,-16.6915,-7.19797,88.6804
2023-02-16 21:26:34:777,-1.2822,2.79605,-9.18338,-16.6859,-7.20676,88.6795
2023-02-16 21:26:34:787,-1.26834,2.78688,-9.17657,-16.6812,-7.21486,88.6688
2023-02-16 21:26:34:797,-1.2469,2.79694,-9.20477,-16.6843,-7.22622,88.6596
2023-02-16 21:26:34:807,-1.25483,2.80589,-9.24798,-16.6875,-7.23264,88.6532
2023-02-16 21:26:34:817,-1.24562,2.84037,-9.27917,-16.6907,-7.2374,88.6452
2023-02-16 21:26:34:827,-1.22618,2.85081,-9.29436,-16.6929,-7.23946,88.6378
2023-02-16 21:26:34:838,-1.22478,2.84034,-9.31115,-16.6973,-7.24148,88.6298
2023-02-16 21:26:34:847,-1.23001,2.84332,-9.31931,-16.6997,-7.23768,88.6221
2023-02-16 21:26:34:857,-1.25885,2.82817,-9.31763,-16.6961,-7.2321,88.6146
2023-02-16 21:26:34:867,-1.25253,2.81775,-9.28648,-16.6946,-7.22884,88.6051
2023-02-16 21:26:34:877,-1.24354,2.80797,-9.29806,-16.6901,-7.21761,88.5912
2023-02-16 21:26:34:887,-1.22755,2.81795,-9.32327,-16.6878,-7.20814,88.5749
2023-02-16 21:26:34:897,-1.19637,2.80704,-9.32663,-16.679,-7.204,88.5547
2023-02-16 21:26:34:907,-1.16868,2.7704,-9.30814,-16.6754,-7.20551,88.535
2023-02-16 21:26:34:917,-1.16712,2.76429,-9.30991,-16.6745,-7.21316,88.5164
2023-02-16 21:26:34:927,-1.18737,2.77276,-9.31218,-16.6705,-7.22051,88.4949
2023-02-16 21:26:34:937,-1.19144,2.77538,-9.3158,-16.6676,-7.22728,88.4731
2023-02-16 21:26:34:947,-1.20066,2.7909,-9.3088,-16.6644,-7.23161,88.4559
2023-02-16 21:26:34:957,-1.1914,2.78187,-9.316,-16.6628,-7.23567,88.4402
2023-02-16 21:26:34:967,-1.19061,2.78225,-9.33906,-16.6567,-7.23349,88.4264
2023-02-16 21:26:34:977,-1.18291,2.78061,-9.36543,-16.6459,-7.23043,88.4149
2023-02-16 21:26:34:987,-1.19122,2.76816,-9.34734,-16.6371,-7.22618,88.4032
2023-02-16 21:26:34:998,-1.21053,2.73647,-9.28628,-16.6208,-7.22255,88.3923
2023-02-16 21:26:35:7,-1.23576,2.70965,-9.22866,-16.6073,-7.21782,88.379
2023-02-16 21:26:35:18,-1.28354,2.69962,-9.20588,-16.5934,-7.21389,88.3722
2023-02-16 21:26:35:28,-1.32252,2.7232,-9.20372,-16.5858,-7.21264,88.3564
2023-02-16 21:26:35:37,-1.34854,2.71929,-9.15782,-16.5842,-7.21564,88.336
2023-02-16 21:26:35:47,-1.35493,2.71562,-9.13461,-16.5908,-7.21584,88.31
2023-02-16 21:26:35:58,-1.33631,2.73808,-9.19602,-16.6056,-7.2162,88.2767
2023-02-16 21:26:35:67,-1.30203,2.77069,-9.2312,-16.6211,-7.21419,88.2393
2023-02-16 21:26:35:78,-1.26519,2.79176,-9.24556,-16.6397,-7.2138,88.1956
2023-02-16 21:26:35:87,-1.2237,2.79683,-9.26648,-16.6547,-7.21362,88.1498
2023-02-16 21:26:35:97,-1.17572,2.84513,-9.31689,-16.672,-7.21259,88.1052
2023-02-16 21:26:35:108,-1.16442,2.88628,-9.35438,-16.6919,-7.20634,88.0642
2023-02-16 21:26:35:117,-1.1516,2.89019,-9.36825,-16.7062,-7.19686,88.0248
2023-02-16 21:26:35:127,-1.11926,2.8691,-9.35111,-16.7157,-7.18819,87.9884
2023-02-16 21:26:35:137,-1.08709,2.84305,-9.34109,-16.7195,-7.1783,87.956
2023-02-16 21:26:35:148,-1.07811,2.84489,-9.35345,-16.7209,-7.1739,87.9253
2023-02-16 21:26:35:157,-1.07819,2.84084,-9.36755,-16.7204,-7.1646,87.9014
2023-02-16 21:26:35:167,-1.05853,2.81516,-9.34141,-16.7221,-7.15943,87.8829
2023-02-16 21:26:35:178,-1.03886,2.78287,-9.3305,-16.723,-7.16174,87.867
2023-02-16 21:26:35:187,-1.03446,2.78462,-9.33177,-16.7244,-7.16248,87.8582
2023-02-16 21:26:35:198,-1.05565,2.79942,-9.32473,-16.7282,-7.16717,87.8597
2023-02-16 21:26:35:208,-1.13305,2.81519,-9.29283,-16.7313,-7.17732,87.8661
2023-02-16 21:26:35:217,-1.2137,2.8151,-9.24654,-16.7357,-7.18893,87.8779
2023-02-16 21:26:35:228,-1.28505,2.81725,-9.21351,-16.7442,-7.20118,87.8885
2023-02-16 21:26:35:237,-1.32897,2.82265,-9.18816,-16.755,-7.21128,87.8963
2023-02-16 21:26:35:248,-1.3316,2.81092,-9.15934,-16.767,-7.21618,87.8996
2023-02-16 21:26:35:258,-1.29544,2.80775,-9.1563,-16.7825,-7.22483,87.8971
2023-02-16 21:26:35:267,-1.28629,2.82314,-9.18861,-16.8029,-7.23291,87.894
2023-02-16 21:26:35:278,-1.26765,2.82901,-9.2084,-16.8217,-7.24335,87.8843
2023-02-16 21:26:35:288,-1.23662,2.82803,-9.23314,-16.844,-7.25419,87.8706
2023-02-16 21:26:35:298,-1.19125,2.84006,-9.26532,-16.8676,-7.26131,87.8607
2023-02-16 21:26:35:308,-1.15822,2.86392,-9.29233,-16.8914,-7.26124,87.8502
2023-02-16 21:26:35:317,-1.12729,2.86496,-9.28478,-16.9106,-7.26095,87.8468
2023-02-16 21:26:35:328,-1.09677,2.84862,-9.31521,-16.9325,-7.26048,87.8459
2023-02-16 21:26:35:337,-1.11646,2.88546,-9.38166,-16.9485,-7.25743,87.851
2023-02-16 21:26:35:347,-1.12665,2.86661,-9.35095,-16.961,-7.25149,87.8637
2023-02-16 21:26:35:357,-1.13297,2.85165,-9.30422,-16.9762,-7.24257,87.8781
2023-02-16 21:26:35:367,-1.14346,2.83798,-9.28772,-16.992,-7.23784,87.8959
2023-02-16 21:26:35:377,-1.17807,2.86481,-9.30049,-17.0095,-7.23755,87.9174
2023-02-16 21:26:35:388,-1.21759,2.89324,-9.31304,-17.0228,-7.23674,87.9385
2023-02-16 21:26:35:398,-1.23644,2.91368,-9.33316,-17.0338,-7.2382,87.9599
2023-02-16 21:26:35:408,-1.27624,2.9573,-9.36039,-17.0428,-7.23872,87.9819
2023-02-16 21:26:35:417,-1.3133,2.97256,-9.33476,-17.0444,-7.23862,88.0027
2023-02-16 21:26:35:428,-1.32451,2.91706,-9.25353,-17.043,-7.23694,88.0183
2023-02-16 21:26:35:438,-1.3151,2.8874,-9.20227,-17.0433,-7.23692,88.029
2023-02-16 21:26:35:448,-1.31513,2.89059,-9.2147,-17.044,-7.23129,88.0383
2023-02-16 21:26:35:457,-1.30273,2.83802,-9.19177,-17.0474,-7.22286,88.0435
2023-02-16 21:26:35:467,-1.29181,2.83809,-9.20397,-17.0519,-7.21088,88.0385
2023-02-16 21:26:35:477,-1.25868,2.87952,-9.2912,-17.0569,-7.19381,88.0324
2023-02-16 21:26:35:487,-1.22901,2.9067,-9.3233,-17.0635,-7.17742,88.0187
2023-02-16 21:26:35:498,-1.21708,2.89842,-9.31648,-17.0637,-7.15697,88.0031
2023-02-16 21:26:35:508,-1.16089,2.89381,-9.33498,-17.0627,-7.1375,87.9824
2023-02-16 21:26:35:518,-1.09452,2.90288,-9.36826,-17.0589,-7.11604,87.958
2023-02-16 21:26:35:528,-1.04519,2.8838,-9.37127,-17.0488,-7.09766,87.9392
2023-02-16 21:26:35:538,-1.00839,2.85757,-9.36454,-17.0383,-7.07768,87.9275
2023-02-16 21:26:35:548,-0.986163,2.86382,-9.38826,-17.0255,-7.06653,87.914
2023-02-16 21:26:35:557,-0.962054,2.83985,-9.38945,-17.0084,-7.05935,87.9058
2023-02-16 21:26:35:567,-0.963765,2.81337,-9.34962,-16.9917,-7.05887,87.9003
2023-02-16 21:26:35:578,-0.989069,2.80584,-9.30687,-16.9785,-7.06617,87.9022
2023-02-16 21:26:35:587,-1.03913,2.79095,-9.27008,-16.9674,-7.07717,87.9096
2023-02-16 21:26:35:597,-1.07407,2.79455,-9.22769,-16.9588,-7.09156,87.9185
2023-02-16 21:26:35:607,-1.09955,2.80038,-9.21998,-16.9546,-7.10703,87.9278
2023-02-16 21:26:35:617,-1.12259,2.82289,-9.25118,-16.953,-7.12657,87.9438
2023-02-16 21:26:35:627,-1.13778,2.84756,-9.30447,-16.9505,-7.14717,87.9583
2023-02-16 21:26:35:637,-1.17567,2.85252,-9.32455,-16.9443,-7.16611,87.973
2023-02-16 21:26:35:648,-1.20775,2.83518,-9.31471,-16.9339,-7.18566,87.985
2023-02-16 21:26:35:658,-1.24102,2.82301,-9.29012,-16.9216,-7.20479,87.9983
2023-02-16 21:26:35:667,-1.24837,2.78049,-9.25226,-16.907,-7.22392,88.0153
2023-02-16 21:26:35:677,-1.2503,2.76954,-9.2073,-16.8982,-7.24254,88.0268
2023-02-16 21:26:35:688,-1.26045,2.76203,-9.19369,-16.8928,-7.26289,88.0388
2023-02-16 21:26:35:697,-1.28293,2.75609,-9.18263,-16.892,-7.28208,88.0475
2023-02-16 21:26:35:707,-1.30013,2.76593,-9.18356,-16.8986,-7.30053,88.0555
2023-02-16 21:26:35:717,-1.31849,2.7959,-9.21565,-16.9083,-7.32006,88.0657
2023-02-16 21:26:35:728,-1.3362,2.8099,-9.23899,-16.916,-7.33154,88.0699
2023-02-16 21:26:35:738,-1.34861,2.81559,-9.24863,-16.927,-7.3401,88.0712
2023-02-16 21:26:35:748,-1.33621,2.84263,-9.28867,-16.9413,-7.34327,88.0705
2023-02-16 21:26:35:758,-1.32763,2.86372,-9.30858,-16.9494,-7.33727,88.0694
2023-02-16 21:26:35:768,-1.30973,2.86506,-9.31185,-16.9529,-7.33274,88.065
2023-02-16 21:26:35:778,-1.26764,2.86802,-9.31588,-16.9552,-7.32665,88.056
2023-02-16 21:26:35:788,-1.25223,2.87291,-9.31688,-16.9551,-7.32413,88.0481
2023-02-16 21:26:35:798,-1.25909,2.84763,-9.3093,-16.9533,-7.32249,88.0403
2023-02-16 21:26:35:808,-1.2712,2.85839,-9.28472,-16.9535,-7.32003,88.0337
2023-02-16 21:26:35:817,-1.24754,2.85343,-9.28591,-16.9526,-7.31496,88.0256
2023-02-16 21:26:35:827,-1.2258,2.85556,-9.29191,-16.954,-7.30769,88.0199
2023-02-16 21:26:35:837,-1.20505,2.87292,-9.28734,-16.9548,-7.29856,88.012
2023-02-16 21:26:35:848,-1.17883,2.87887,-9.27068,-16.9618,-7.28828,88.0098
2023-02-16 21:26:35:857,-1.15824,2.87242,-9.2872,-16.9602,-7.27622,88.0062
2023-02-16 21:26:35:868,-1.14791,2.88988,-9.29105,-16.9605,-7.26569,88.0061
2023-02-16 21:26:35:878,-1.1416,2.89847,-9.29878,-16.9642,-7.25701,88.0095
2023-02-16 21:26:35:888,-1.15287,2.88853,-9.29846,-16.9614,-7.25119,88.016
2023-02-16 21:26:35:897,-1.16158,2.87109,-9.27336,-16.9566,-7.24616,88.0261
2023-02-16 21:26:35:908,-1.16887,2.85579,-9.26023,-16.9521,-7.24448,88.0355
2023-02-16 21:26:35:917,-1.17655,2.84091,-9.24531,-16.9491,-7.24136,88.0482
2023-02-16 21:26:35:927,-1.18191,2.81487,-9.22247,-16.9439,-7.23959,88.063
2023-02-16 21:26:35:937,-1.18288,2.81004,-9.19468,-16.9459,-7.23951,88.0759
2023-02-16 21:26:35:947,-1.16913,2.79075,-9.20122,-16.9531,-7.2361,88.0896
2023-02-16 21:26:35:958,-1.17258,2.81671,-9.275,-16.9616,-7.23977,88.1084
2023-02-16 21:26:35:967,-1.19849,2.86926,-9.32061,-16.9695,-7.24254,88.1301
2023-02-16 21:26:35:978,-1.20081,2.8537,-9.32115,-16.9786,-7.24687,88.1499
2023-02-16 21:26:35:988,-1.23556,2.83837,-9.2906,-16.981,-7.25255,88.173
2023-02-16 21:26:35:997,-1.25298,2.83365,-9.26849,-16.9875,-7.25988,88.1944
2023-02-16 21:26:36:7,-1.23264,2.83897,-9.27538,-16.9937,-7.26088,88.215
2023-02-16 21:26:36:17,-1.23942,2.84248,-9.28766,-17.0001,-7.26169,88.236
2023-02-16 21:26:36:28,-1.25363,2.83485,-9.26784,-17.0066,-7.26413,88.256
2023-02-16 21:26:36:37,-1.27597,2.82608,-9.24005,-17.0146,-7.27046,88.2751
2023-02-16 21:26:36:47,-1.27279,2.84934,-9.24832,-17.0282,-7.28166,88.2916
2023-02-16 21:26:36:58,-1.29554,2.85742,-9.24974,-17.0398,-7.28774,88.3043
2023-02-16 21:26:36:67,-1.30161,2.84294,-9.2354,-17.0515,-7.2949,88.3142
2023-02-16 21:26:36:77,-1.29193,2.83491,-9.23749,-17.0624,-7.29957,88.3233
2023-02-16 21:26:36:88,-1.29409,2.83686,-9.23383,-17.0701,-7.29944,88.3293
2023-02-16 21:26:36:98,-1.28806,2.82985,-9.20757,-17.0809,-7.30202,88.3313
2023-02-16 21:26:36:108,-1.27943,2.81108,-9.19879,-17.0951,-7.3099,88.334
2023-02-16 21:26:36:118,-1.27304,2.8266,-9.22425,-17.1128,-7.31755,88.3341
2023-02-16 21:26:36:127,-1.28016,2.84017,-9.26232,-17.1297,-7.32369,88.3323
2023-02-16 21:26:36:137,-1.29583,2.86904,-9.29079,-17.146,-7.32459,88.3293
2023-02-16 21:26:36:147,-1.2822,2.87698,-9.31247,-17.1646,-7.32507,88.3221
2023-02-16 21:26:36:157,-1.29898,2.90871,-9.32382,-17.1816,-7.32043,88.3154
2023-02-16 21:26:36:167,-1.31249,2.91338,-9.32118,-17.1926,-7.31761,88.3053
2023-02-16 21:26:36:178,-1.27672,2.88292,-9.24,-17.2022,-7.31451,88.2943
2023-02-16 21:26:36:188,-1.25401,2.85085,-9.24097,-17.212,-7.31212,88.2789
2023-02-16 21:26:36:197,-1.22227,2.92217,-9.37118,-17.2219,-7.3079,88.259
2023-02-16 21:26:36:207,-1.17899,2.92035,-9.34923,-17.2275,-7.30372,88.235
2023-02-16 21:26:36:217,-1.16407,2.84817,-9.26178,-17.2309,-7.29871,88.2158
2023-02-16 21:26:36:228,-1.13361,2.86168,-9.2982,-17.2364,-7.30074,88.1987
2023-02-16 21:26:36:238,-1.13247,2.87872,-9.32459,-17.2408,-7.31029,88.1895
2023-02-16 21:26:36:247,-1.19575,2.87548,-9.30411,-17.2486,-7.31835,88.184
2023-02-16 21:26:36:257,-1.23993,2.8886,-9.2844,-17.2562,-7.32446,88.1769
2023-02-16 21:26:36:267,-1.22495,2.90565,-9.27823,-17.2644,-7.32403,88.1695
2023-02-16 21:26:36:277,-1.21871,2.91225,-9.24449,-17.2697,-7.32326,88.1625
2023-02-16 21:26:36:287,-1.22397,2.89844,-9.21596,-17.2789,-7.32567,88.1595
2023-02-16 21:26:36:297,-1.23213,2.91348,-9.19883,-17.2875,-7.32536,88.1594
2023-02-16 21:26:36:307,-1.23235,2.906,-9.1914,-17.2895,-7.32194,88.1597
2023-02-16 21:26:36:317,-1.23239,2.90048,-9.18975,-17.298,-7.316,88.1577
2023-02-16 21:26:36:327,-1.23832,2.90477,-9.1945,-17.3086,-7.30891,88.1577
2023-02-16 21:26:36:337,-1.2303,2.91498,-9.23253,-17.3185,-7.29847,88.1551
2023-02-16 21:26:36:347,-1.23128,2.91407,-9.25711,-17.3274,-7.29281,88.1534
2023-02-16 21:26:36:357,-1.22823,2.91593,-9.24531,-17.3374,-7.28911,88.1528
2023-02-16 21:26:36:367,-1.21979,2.9244,-9.23869,-17.3511,-7.28314,88.1513
2023-02-16 21:26:36:378,-1.22853,2.94731,-9.28173,-17.368,-7.27414,88.1489
2023-02-16 21:26:36:387,-1.22871,2.98076,-9.2892,-17.3808,-7.26836,88.1494
2023-02-16 21:26:36:397,-1.23388,2.98067,-9.29151,-17.3955,-7.26285,88.148
2023-02-16 21:26:36:407,-1.26056,2.9906,-9.29103,-17.4079,-7.25606,88.1451
2023-02-16 21:26:36:417,-1.26355,3.01002,-9.28785,-17.4123,-7.24327,88.1395
2023-02-16 21:26:36:427,-1.24404,3.01275,-9.28913,-17.4183,-7.22603,88.135
2023-02-16 21:26:36:437,-1.21049,2.9938,-9.30464,-17.4233,-7.21225,88.1304
2023-02-16 21:26:36:447,-1.1823,2.97152,-9.28509,-17.4198,-7.20234,88.1208
2023-02-16 21:26:36:458,-1.17351,2.94195,-9.26345,-17.4171,-7.19501,88.11
2023-02-16 21:26:36:467,-1.18754,2.94118,-9.2689,-17.4118,-7.18586,88.1002
2023-02-16 21:26:36:477,-1.18591,2.94942,-9.31287,-17.4089,-7.17835,88.0923
2023-02-16 21:26:36:487,-1.16382,2.95407,-9.31402,-17.4015,-7.16823,88.0806
2023-02-16 21:26:36:498,-1.14688,2.93333,-9.28073,-17.3941,-7.15529,88.071
2023-02-16 21:26:36:507,-1.13228,2.90822,-9.24196,-17.3852,-7.14839,88.0599
2023-02-16 21:26:36:517,-1.11272,2.88035,-9.20802,-17.3781,-7.14163,88.0502
2023-02-16 21:26:36:527,-1.09784,2.85595,-9.19637,-17.3715,-7.13154,88.0448
2023-02-16 21:26:36:537,-1.08458,2.8499,-9.20213,-17.3723,-7.12243,88.0414
2023-02-16 21:26:36:547,-1.08242,2.85756,-9.19741,-17.3747,-7.11914,88.0393
2023-02-16 21:26:36:557,-1.08218,2.85818,-9.24027,-17.3796,-7.11866,88.0444
2023-02-16 21:26:36:567,-1.11058,2.8683,-9.2995,-17.3836,-7.12223,88.0526
2023-02-16 21:26:36:577,-1.14018,2.90379,-9.3014,-17.3877,-7.12346,88.0616
2023-02-16 21:26:36:587,-1.14305,2.90317,-9.27702,-17.3905,-7.12448,88.0719
2023-02-16 21:26:36:597,-1.14457,2.88415,-9.23755,-17.3937,-7.12495,88.0836
2023-02-16 21:26:36:607,-1.14469,2.87414,-9.21599,-17.3983,-7.12428,88.0961
2023-02-16 21:26:36:617,-1.14944,2.88518,-9.2285,-17.4071,-7.12321,88.1061
2023-02-16 21:26:36:627,-1.14797,2.87867,-9.23116,-17.4151,-7.12553,88.121
2023-02-16 21:26:36:637,-1.14119,2.88555,-9.2539,-17.4249,-7.1307,88.1377
2023-02-16 21:26:36:647,-1.17671,2.92039,-9.28795,-17.4409,-7.13697,88.1549
2023-02-16 21:26:36:657,-1.20488,2.93923,-9.30683,-17.4484,-7.14531,88.172
2023-02-16 21:26:36:668,-1.23293,2.94649,-9.32013,-17.4562,-7.15752,88.1881
2023-02-16 21:26:36:678,-1.25874,2.95844,-9.29817,-17.4654,-7.1663,88.2056
2023-02-16 21:26:36:688,-1.24856,2.95391,-9.2627,-17.4694,-7.17375,88.2184
2023-02-16 21:26:36:698,-1.25159,2.94861,-9.2314,-17.4748,-7.18504,88.2319
2023-02-16 21:26:36:708,-1.24537,2.94252,-9.22089,-17.4816,-7.1925,88.2418
2023-02-16 21:26:36:717,-1.24579,2.92806,-9.22463,-17.4878,-7.19743,88.2535
2023-02-16 21:26:36:727,-1.21078,2.93285,-9.23938,-17.4943,-7.19933,88.258
2023-02-16 21:26:36:738,-1.20297,2.94303,-9.25177,-17.5022,-7.20258,88.2657
2023-02-16 21:26:36:748,-1.20959,2.9346,-9.26261,-17.5131,-7.20493,88.273
2023-02-16 21:26:36:758,-1.20632,2.94136,-9.25959,-17.5184,-7.20611,88.2821
2023-02-16 21:26:36:767,-1.19973,2.95862,-9.27833,-17.5218,-7.20333,88.2899
2023-02-16 21:26:36:778,-1.19017,2.969,-9.27223,-17.5264,-7.20008,88.2931
2023-02-16 21:26:36:788,-1.20039,2.95004,-9.2567,-17.5297,-7.19522,88.3036
2023-02-16 21:26:36:798,-1.20529,2.93376,-9.26858,-17.5318,-7.18849,88.3107
2023-02-16 21:26:36:808,-1.19642,2.94998,-9.29626,-17.528,-7.18432,88.3168
2023-02-16 21:26:36:817,-1.17931,2.95174,-9.29701,-17.5241,-7.17545,88.322
2023-02-16 21:26:36:828,-1.15737,2.93971,-9.28793,-17.5177,-7.16843,88.3249
2023-02-16 21:26:36:837,-1.14264,2.93263,-9.29243,-17.5134,-7.159,88.3332
2023-02-16 21:26:36:847,-1.13226,2.93659,-9.32072,-17.5089,-7.14722,88.3395
2023-02-16 21:26:36:858,-1.1395,2.92254,-9.31148,-17.503,-7.14486,88.3462
2023-02-16 21:26:36:867,-1.14076,2.91222,-9.29332,-17.4916,-7.14795,88.3546
2023-02-16 21:26:36:878,-1.14915,2.91582,-9.27323,-17.4825,-7.15768,88.361
2023-02-16 21:26:36:888,-1.17799,2.91595,-9.24615,-17.4766,-7.16973,88.372
2023-02-16 21:26:36:898,-1.23776,2.9106,-9.19793,-17.4718,-7.18359,88.379
2023-02-16 21:26:36:908,-1.26761,2.91188,-9.17532,-17.4729,-7.19658,88.3853
2023-02-16 21:26:36:917,-1.25599,2.92088,-9.18482,-17.4808,-7.20811,88.3927
2023-02-16 21:26:36:927,-1.23794,2.92897,-9.20687,-17.4878,-7.22017,88.3976
2023-02-16 21:26:36:938,-1.21757,2.93077,-9.21327,-17.4954,-7.2276,88.4
2023-02-16 21:26:36:947,-1.2087,2.92177,-9.21664,-17.5048,-7.23877,88.4048
2023-02-16 21:26:36:958,-1.20816,2.91134,-9.20751,-17.5133,-7.24932,88.4084
2023-02-16 21:26:36:967,-1.20066,2.92201,-9.2177,-17.5191,-7.26237,88.4125
2023-02-16 21:26:36:978,-1.22151,2.92682,-9.21645,-17.5271,-7.27308,88.4201
2023-02-16 21:26:36:988,-1.25351,2.93585,-9.21795,-17.5335,-7.28515,88.4239
2023-02-16 21:26:36:998,-1.25414,2.94868,-9.22791,-17.5444,-7.29873,88.4285
2023-02-16 21:26:37:8,-1.26778,2.95942,-9.24738,-17.5534,-7.30599,88.4345
2023-02-16 21:26:37:18,-1.28983,2.97918,-9.23175,-17.5631,-7.31449,88.4403
2023-02-16 21:26:37:28,-1.27492,2.96769,-9.20474,-17.5744,-7.32384,88.4417
2023-02-16 21:26:37:37,-1.28432,2.96083,-9.22003,-17.5872,-7.33111,88.4442
2023-02-16 21:26:37:48,-1.29813,2.99035,-9.26816,-17.601,-7.33815,88.448
2023-02-16 21:26:37:57,-1.28118,3.02139,-9.29949,-17.618,-7.34194,88.445
2023-02-16 21:26:37:67,-1.26967,3.02001,-9.33288,-17.6251,-7.33991,88.4404
2023-02-16 21:26:37:78,-1.21695,2.98822,-9.32118,-17.6291,-7.34209,88.4374
2023-02-16 21:26:37:88,-1.19909,2.98082,-9.30453,-17.6294,-7.34715,88.4332
2023-02-16 21:26:37:98,-1.21186,2.95688,-9.28901,-17.6315,-7.35172,88.434
2023-02-16 21:26:37:108,-1.23049,2.95086,-9.25812,-17.6268,-7.35697,88.4353
2023-02-16 21:26:37:118,-1.23265,2.95217,-9.23351,-17.6233,-7.35836,88.4324
2023-02-16 21:26:37:128,-1.22475,2.94962,-9.24347,-17.6184,-7.35507,88.4309
2023-02-16 21:26:37:137,-1.21603,2.94021,-9.23736,-17.6123,-7.35475,88.4294
2023-02-16 21:26:37:147,-1.22632,2.92747,-9.21463,-17.6066,-7.352,88.4316
2023-02-16 21:26:37:157,-1.2367,2.91707,-9.2113,-17.6074,-7.35041,88.4346
2023-02-16 21:26:37:167,-1.24118,2.9349,-9.23828,-17.6022,-7.34722,88.4362
2023-02-16 21:26:37:177,-1.22266,2.94953,-9.25535,-17.5981,-7.34166,88.4408
2023-02-16 21:26:37:188,-1.21856,2.9442,-9.24928,-17.5917,-7.34008,88.4406
2023-02-16 21:26:37:197,-1.22788,2.94728,-9.23435,-17.5875,-7.33757,88.4416
2023-02-16 21:26:37:207,-1.24208,2.93909,-9.22482,-17.5813,-7.33855,88.4448
2023-02-16 21:26:37:218,-1.26376,2.93606,-9.1909,-17.5792,-7.33819,88.4497
2023-02-16 21:26:37:227,-1.26712,2.93689,-9.17626,-17.582,-7.3375,88.453
2023-02-16 21:26:37:238,-1.27369,2.93853,-9.18172,-17.5879,-7.33947,88.4515
2023-02-16 21:26:37:248,-1.27796,2.93713,-9.19514,-17.5917,-7.33819,88.4511
2023-02-16 21:26:37:258,-1.26448,2.94791,-9.22366,-17.5979,-7.33458,88.4466
2023-02-16 21:26:37:267,-1.24803,2.94271,-9.23217,-17.6063,-7.33406,88.441
2023-02-16 21:26:37:278,-1.23406,2.95309,-9.26028,-17.6142,-7.33287,88.4327
2023-02-16 21:26:37:288,-1.21576,2.96457,-9.27976,-17.6231,-7.33262,88.4271
2023-02-16 21:26:37:297,-1.20079,2.96086,-9.29346,-17.6311,-7.33146,88.4195
2023-02-16 21:26:37:308,-1.18438,2.97137,-9.29359,-17.6385,-7.33147,88.4141
2023-02-16 21:26:37:317,-1.17413,2.97311,-9.28738,-17.6444,-7.33548,88.41
2023-02-16 21:26:37:328,-1.16741,2.96905,-9.26268,-17.6457,-7.33771,88.4097
2023-02-16 21:26:37:338,-1.17495,2.95705,-9.24866,-17.6466,-7.34061,88.412
2023-02-16 21:26:37:348,-1.18385,2.94669,-9.23082,-17.6467,-7.34144,88.4157
2023-02-16 21:26:37:358,-1.18748,2.9449,-9.21235,-17.6461,-7.34517,88.4209
2023-02-16 21:26:37:367,-1.19428,2.94471,-9.19629,-17.6503,-7.34343,88.4273
2023-02-16 21:26:37:377,-1.20063,2.94647,-9.20541,-17.6529,-7.3435,88.4349
2023-02-16 21:26:37:387,-1.21437,2.96655,-9.23174,-17.6597,-7.34761,88.4452
2023-02-16 21:26:37:397,-1.24021,2.98974,-9.26836,-17.669,-7.34822,88.4532
2023-02-16 21:26:37:407,-1.26184,2.98431,-9.29464,-17.673,-7.35223,88.4626
2023-02-16 21:26:37:418,-1.25607,2.98082,-9.31197,-17.6738,-7.35279,88.4714
2023-02-16 21:26:37:428,-1.25864,2.98075,-9.30017,-17.6733,-7.35456,88.4789
2023-02-16 21:26:37:438,-1.26563,2.96737,-9.26748,-17.6689,-7.35746,88.4834
2023-02-16 21:26:37:447,-1.26785,2.9825,-9.23864,-17.6658,-7.35856,88.4908
2023-02-16 21:26:37:458,-1.24774,2.9576,-9.20489,-17.6621,-7.36136,88.4953
2023-02-16 21:26:37:468,-1.23377,2.9259,-9.16828,-17.657,-7.36173,88.4987
2023-02-16 21:26:37:478,-1.23108,2.92836,-9.1615,-17.6597,-7.361,88.5027
2023-02-16 21:26:37:488,-1.21099,2.95995,-9.22517,-17.661,-7.35939,88.5074
2023-02-16 21:26:37:498,-1.21252,2.99508,-9.28409,-17.6635,-7.3598,88.5106
2023-02-16 21:26:37:508,-1.20175,2.9879,-9.31216,-17.6641,-7.35671,88.5169
2023-02-16 21:26:37:517,-1.17169,2.9962,-9.29718,-17.6678,-7.35899,88.5246
2023-02-16 21:26:37:528,-1.1798,2.98346,-9.27415,-17.6663,-7.36601,88.5341
2023-02-16 21:26:37:538,-1.21462,2.98969,-9.25523,-17.6673,-7.3761,88.5439
2023-02-16 21:26:37:548,-1.25085,2.9883,-9.24096,-17.6666,-7.3836,88.5577
2023-02-16 21:26:37:557,-1.26669,2.99599,-9.18953,-17.6724,-7.38716,88.5693
2023-02-16 21:26:37:567,-1.27386,3.00131,-9.17569,-17.6786,-7.39311,88.5854
2023-02-16 21:26:37:577,-1.27548,3.01838,-9.20684,-17.6885,-7.39415,88.601
2023-02-16 21:26:37:587,-1.2983,3.03178,-9.20423,-17.6937,-7.39339,88.617
2023-02-16 21:26:37:597,-1.32912,3.02507,-9.17815,-17.6984,-7.39168,88.6302
2023-02-16 21:26:37:607,-1.35092,3.00796,-9.13952,-17.6981,-7.38723,88.6414
2023-02-16 21:26:37:617,-1.33798,3.00264,-9.14377,-17.6984,-7.38265,88.6486
2023-02-16 21:26:37:627,-1.31717,3.00764,-9.15318,-17.7036,-7.37492,88.6523
2023-02-16 21:26:37:637,-1.2982,3.00086,-9.18037,-17.7046,-7.36792,88.6531
2023-02-16 21:26:37:647,-1.27855,2.98933,-9.22028,-17.7076,-7.36508,88.6504
2023-02-16 21:26:37:657,-1.2712,2.98983,-9.27011,-17.7155,-7.35727,88.6428
2023-02-16 21:26:37:667,-1.26574,3.01272,-9.30632,-17.7206,-7.35437,88.6333
2023-02-16 21:26:37:677,-1.23698,3.0219,-9.3031,-17.7252,-7.3503,88.6235
2023-02-16 21:26:37:688,-1.21888,3.0024,-9.2652,-17.724,-7.34692,88.6158
2023-02-16 21:26:37:698,-1.22033,2.99368,-9.27286,-17.7254,-7.34089,88.6077
2023-02-16 21:26:37:708,-1.22094,2.99725,-9.28723,-17.7287,-7.33105,88.5997
2023-02-16 21:26:37:717,-1.19795,3.01275,-9.26515,-17.7281,-7.32148,88.5902
2023-02-16 21:26:37:728,-1.18031,3.01416,-9.2707,-17.7273,-7.31143,88.5842
2023-02-16 21:26:37:738,-1.18783,3.01864,-9.27243,-17.7217,-7.30449,88.5766
2023-02-16 21:26:37:748,-1.20601,3.00726,-9.27039,-17.7132,-7.29461,88.5717
2023-02-16 21:26:37:758,-1.22393,3.00297,-9.28399,-17.705,-7.28586,88.5685
2023-02-16 21:26:37:768,-1.237,2.98656,-9.27029,-17.6943,-7.28017,88.5623
2023-02-16 21:26:37:778,-1.21039,2.96308,-9.25917,-17.6784,-7.26835,88.5561
2023-02-16 21:26:37:787,-1.16704,2.95786,-9.26341,-17.6654,-7.25526,88.5456
2023-02-16 21:26:37:798,-1.1225,2.94786,-9.27454,-17.6508,-7.24248,88.5371
2023-02-16 21:26:37:808,-1.08197,2.93456,-9.243,-17.6368,-7.23787,88.5306
2023-02-16 21:26:37:818,-1.06985,2.91552,-9.2186,-17.6241,-7.23347,88.5245
2023-02-16 21:26:37:828,-1.06337,2.90597,-9.23129,-17.6152,-7.23257,88.5198
2023-02-16 21:26:37:838,-1.09805,2.91101,-9.25018,-17.606,-7.23475,88.5218
2023-02-16 21:26:37:848,-1.11925,2.93184,-9.26111,-17.5954,-7.23881,88.5258
2023-02-16 21:26:37:858,-1.13799,2.93772,-9.26743,-17.5848,-7.2429,88.5322
2023-02-16 21:26:37:868,-1.15714,2.94891,-9.27061,-17.576,-7.25038,88.5403
2023-02-16 21:26:37:877,-1.16985,2.94937,-9.29296,-17.5665,-7.25457,88.5516
2023-02-16 21:26:37:888,-1.1867,2.93739,-9.27544,-17.5544,-7.2597,88.5606
2023-02-16 21:26:37:898,-1.2087,2.92685,-9.2582,-17.5435,-7.26746,88.5707
2023-02-16 21:26:37:907,-1.19086,2.92402,-9.27355,-17.5309,-7.27113,88.5784
2023-02-16 21:26:37:918,-1.19896,2.92057,-9.28359,-17.518,-7.27931,88.5913
2023-02-16 21:26:37:927,-1.20663,2.9186,-9.27789,-17.507,-7.28801,88.6046
2023-02-16 21:26:37:938,-1.21077,2.9151,-9.28595,-17.4901,-7.2986,88.6158
2023-02-16 21:26:37:948,-1.22394,2.90672,-9.28959,-17.4734,-7.30699,88.6275
2023-02-16 21:26:37:958,-1.22703,2.88871,-9.26617,-17.4595,-7.31049,88.6383
2023-02-16 21:26:37:968,-1.20933,2.8771,-9.26467,-17.4396,-7.31348,88.6485
2023-02-16 21:26:37:978,-1.19309,2.88977,-9.25476,-17.4232,-7.31601,88.6588
2023-02-16 21:26:37:988,-1.18054,2.89615,-9.24998,-17.4059,-7.31706,88.6676
2023-02-16 21:26:37:998,-1.17778,2.89506,-9.24619,-17.3857,-7.31939,88.6791
2023-02-16 21:26:38:8,-1.17259,2.88744,-9.23622,-17.3671,-7.31701,88.6953
2023-02-16 21:26:38:18,-1.174,2.89716,-9.24453,-17.3519,-7.31459,88.7078
2023-02-16 21:26:38:28,-1.16924,2.90313,-9.2705,-17.3379,-7.31595,88.7216
2023-02-16 21:26:38:38,-1.15504,2.90116,-9.27664,-17.3223,-7.32149,88.7382
2023-02-16 21:26:38:48,-1.16093,2.88218,-9.26342,-17.3067,-7.333,88.7556
2023-02-16 21:26:38:58,-1.18753,2.87365,-9.26732,-17.2925,-7.34365,88.7752
2023-02-16 21:26:38:68,-1.21635,2.87813,-9.26591,-17.2793,-7.35873,88.7958
2023-02-16 21:26:38:78,-1.24551,2.87774,-9.26317,-17.2658,-7.37931,88.8173
2023-02-16 21:26:38:88,-1.26923,2.88121,-9.27965,-17.2524,-7.39659,88.8359
2023-02-16 21:26:38:98,-1.30126,2.88236,-9.29344,-17.2364,-7.41005,88.8561
2023-02-16 21:26:38:108,-1.32483,2.87171,-9.27075,-17.2191,-7.42416,88.8762
2023-02-16 21:26:38:117,-1.32619,2.84624,-9.25721,-17.2006,-7.43243,88.8938
2023-02-16 21:26:38:128,-1.3202,2.84524,-9.24242,-17.1788,-7.4379,88.9073
2023-02-16 21:26:38:138,-1.31998,2.83119,-9.21363,-17.1579,-7.44472,88.9188
2023-02-16 21:26:38:148,-1.31046,2.80794,-9.16313,-17.1414,-7.44849,88.9273
2023-02-16 21:26:38:158,-1.32801,2.81967,-9.20009,-17.1272,-7.45283,88.9371
2023-02-16 21:26:38:167,-1.33869,2.85255,-9.30135,-17.1119,-7.45898,88.9408
2023-02-16 21:26:38:177,-1.33279,2.86079,-9.33497,-17.0967,-7.4609,88.9388
2023-02-16 21:26:38:187,-1.3286,2.85919,-9.34523,-17.0778,-7.46769,88.9364
2023-02-16 21:26:38:198,-1.32767,2.8514,-9.34609,-17.0584,-7.4745,88.9236
2023-02-16 21:26:38:208,-1.35323,2.86417,-9.32186,-17.0406,-7.48099,88.9104
2023-02-16 21:26:38:218,-1.36628,2.84148,-9.28907,-17.0207,-7.48695,88.8951
2023-02-16 21:26:38:227,-1.361,2.82395,-9.23093,-17.0036,-7.48808,88.8747
2023-02-16 21:26:38:238,-1.33347,2.8319,-9.20969,-16.9848,-7.48741,88.8527
2023-02-16 21:26:38:248,-1.28318,2.85356,-9.23135,-16.9667,-7.48739,88.8224
2023-02-16 21:26:38:258,-1.25104,2.85176,-9.21714,-16.9511,-7.48428,88.7868
2023-02-16 21:26:38:267,-1.23518,2.82318,-9.16101,-16.9333,-7.48258,88.7486
2023-02-16 21:26:38:278,-1.18436,2.8127,-9.16109,-16.9145,-7.47557,88.7081
2023-02-16 21:26:38:288,-1.09871,2.83345,-9.19893,-16.9011,-7.46589,88.6687
2023-02-16 21:26:38:298,-1.06151,2.81809,-9.20678,-16.8868,-7.45882,88.6289
2023-02-16 21:26:38:308,-1.05813,2.80751,-9.23841,-16.8777,-7.46016,88.5973
2023-02-16 21:26:38:318,-1.07749,2.81879,-9.31269,-16.8702,-7.46622,88.5697
2023-02-16 21:26:38:328,-1.11724,2.8472,-9.35746,-16.8588,-7.47574,88.5459
2023-02-16 21:26:38:338,-1.14242,2.85525,-9.363,-16.8431,-7.48402,88.5222
2023-02-16 21:26:38:347,-1.15502,2.86739,-9.3368,-16.8323,-7.49744,88.505
2023-02-16 21:26:38:357,-1.1469,2.8407,-9.28441,-16.8176,-7.5172,88.487
2023-02-16 21:26:38:367,-1.15452,2.81104,-9.25196,-16.8126,-7.54168,88.4734
2023-02-16 21:26:38:377,-1.19287,2.83694,-9.26085,-16.812,-7.56811,88.4667
2023-02-16 21:26:38:388,-1.22247,2.84803,-9.28543,-16.8131,-7.60086,88.4658
2023-02-16 21:26:38:398,-1.24367,2.8558,-9.28582,-16.8172,-7.62902,88.4665
2023-02-16 21:26:38:408,-1.27619,2.86511,-9.32465,-16.8182,-7.66376,88.4704
2023-02-16 21:26:38:418,-1.3277,2.88399,-9.33573,-16.8174,-7.69763,88.4781
2023-02-16 21:26:38:428,-1.37966,2.87801,-9.31892,-16.8075,-7.73213,88.4867
2023-02-16 21:26:38:438,-1.40962,2.87564,-9.27193,-16.7995,-7.76041,88.4964
2023-02-16 21:26:38:448,-1.42494,2.85472,-9.23953,-16.794,-7.78555,88.5072
2023-02-16 21:26:38:457,-1.4263,2.84124,-9.24002,-16.7833,-7.80771,88.5158
2023-02-16 21:26:38:467,-1.43278,2.84409,-9.24337,-16.7744,-7.82545,88.5227
2023-02-16 21:26:38:478,-1.41867,2.81189,-9.22137,-16.7666,-7.84333,88.5287
2023-02-16 21:26:38:488,-1.4164,2.7953,-9.20061,-16.7607,-7.85647,88.5337
2023-02-16 21:26:38:498,-1.41151,2.79673,-9.2014,-16.7555,-7.87172,88.5358
2023-02-16 21:26:38:508,-1.39289,2.78782,-9.21454,-16.7533,-7.88618,88.5362
2023-02-16 21:26:38:517,-1.37503,2.79235,-9.22108,-16.7499,-7.89715,88.5374
2023-02-16 21:26:38:528,-1.37412,2.79408,-9.22629,-16.7517,-7.90451,88.5418
2023-02-16 21:26:38:538,-1.37388,2.79785,-9.24595,-16.7536,-7.91564,88.5477
2023-02-16 21:26:38:548,-1.3935,2.82832,-9.28598,-16.752,-7.92753,88.5557
2023-02-16 21:26:38:558,-1.41841,2.83276,-9.30084,-16.7471,-7.94149,88.5631
2023-02-16 21:26:38:567,-1.43672,2.80386,-9.29905,-16.7392,-7.9581,88.5697
2023-02-16 21:26:38:578,-1.45908,2.79078,-9.28867,-16.7273,-7.97151,88.575
2023-02-16 21:26:38:588,-1.47387,2.78435,-9.2595,-16.7214,-7.98323,88.5759
2023-02-16 21:26:38:598,-1.4525,2.75966,-9.22893,-16.7143,-7.99843,88.5722
2023-02-16 21:26:38:608,-1.44404,2.7425,-9.22032,-16.711,-8.00775,88.5649
2023-02-16 21:26:38:618,-1.42625,2.75091,-9.21097,-16.7127,-8.01376,88.5577
2023-02-16 21:26:38:628,-1.41071,2.75747,-9.2136,-16.7166,-8.01407,88.5485
2023-02-16 21:26:38:638,-1.38585,2.77264,-9.2542,-16.7224,-8.01067,88.5439
2023-02-16 21:26:38:648,-1.35156,2.78322,-9.29745,-16.7243,-8.00573,88.5347
2023-02-16 21:26:38:658,-1.31934,2.78045,-9.34688,-16.7238,-7.99892,88.5258
2023-02-16 21:26:38:667,-1.30357,2.79352,-9.3794,-16.7232,-7.9903,88.5203
2023-02-16 21:26:38:678,-1.29508,2.8022,-9.36615,-16.717,-7.97823,88.511
2023-02-16 21:26:38:687,-1.27001,2.7826,-9.34189,-16.7097,-7.97099,88.5044
2023-02-16 21:26:38:698,-1.24758,2.75364,-9.30309,-16.7006,-7.96184,88.5
2023-02-16 21:26:38:708,-1.20664,2.73335,-9.29717,-16.695,-7.95485,88.4967
2023-02-16 21:26:38:718,-1.15333,2.72167,-9.27527,-16.6915,-7.95539,88.4988
2023-02-16 21:26:38:728,-1.12937,2.70491,-9.25791,-16.6959,-7.96038,88.5076
2023-02-16 21:26:38:738,-1.12878,2.7113,-9.2392,-16.7096,-7.97201,88.5304
2023-02-16 21:26:38:748,-1.10852,2.7256,-9.22649,-16.7281,-7.98832,88.5648
2023-02-16 21:26:38:758,-1.15809,2.75491,-9.22856,-16.754,-7.99729,88.612
2023-02-16 21:26:38:768,-1.21188,2.7929,-9.24727,-16.7824,-8.00678,88.6724
2023-02-16 21:26:38:778,-1.27939,2.85034,-9.26884,-16.8137,-8.00537,88.7475
2023-02-16 21:26:38:788,-1.36326,2.89879,-9.29232,-16.8408,-7.996,88.8297
2023-02-16 21:26:38:798,-1.4459,2.91509,-9.28366,-16.8604,-7.97791,88.9194
2023-02-16 21:26:38:808,-1.52655,2.93606,-9.26304,-16.8792,-7.95831,89.0106
2023-02-16 21:26:38:818,-1.58158,2.93658,-9.25443,-16.8921,-7.93037,89.0958
2023-02-16 21:26:38:828,-1.60064,2.91359,-9.24008,-16.8968,-7.90012,89.1745
2023-02-16 21:26:38:838,-1.611,2.88448,-9.24097,-16.8963,-7.86637,89.2428
2023-02-16 21:26:38:848,-1.64274,2.88359,-9.28242,-16.8915,-7.83523,89.2999
2023-02-16 21:26:38:858,-1.64532,2.86824,-9.30723,-16.8835,-7.80372,89.3383
2023-02-16 21:26:38:867,-1.59564,2.83847,-9.29283,-16.8659,-7.77093,89.3595
2023-02-16 21:26:38:877,-1.54915,2.80712,-9.28505,-16.8507,-7.74224,89.3631
2023-02-16 21:26:38:888,-1.53129,2.78666,-9.24706,-16.837,-7.71722,89.3518
2023-02-16 21:26:38:898,-1.49989,2.75294,-9.1939,-16.8276,-7.69488,89.3234
2023-02-16 21:26:38:908,-1.43432,2.73968,-9.16993,-16.8281,-7.67092,89.2829
2023-02-16 21:26:38:918,-1.329,2.76268,-9.16749,-16.8344,-7.64417,89.2308
2023-02-16 21:26:38:928,-1.20953,2.77921,-9.20274,-16.8476,-7.61732,89.1708
2023-02-16 21:26:38:938,-1.12321,2.805,-9.23218,-16.8615,-7.58868,89.1123
2023-02-16 21:26:38:948,-1.06728,2.83036,-9.27282,-16.8737,-7.55933,89.0542
2023-02-16 21:26:38:958,-1.03981,2.84639,-9.31766,-16.8876,-7.52809,89.0041
2023-02-16 21:26:38:968,-1.01925,2.84506,-9.32403,-16.8965,-7.49904,88.9606
2023-02-16 21:26:38:978,-0.987286,2.83697,-9.315,-16.9043,-7.47338,88.9206
2023-02-16 21:26:38:988,-0.959677,2.81208,-9.28951,-16.9098,-7.44786,88.8899
2023-02-16 21:26:38:998,-0.955612,2.79729,-9.28493,-16.9177,-7.42485,88.8651
2023-02-16 21:26:39:8,-0.979241,2.79833,-9.29305,-16.9279,-7.40719,88.8475
2023-02-16 21:26:39:18,-1.02394,2.81221,-9.28966,-16.9425,-7.39534,88.8403
2023-02-16 21:26:39:28,-1.06374,2.83729,-9.29943,-16.9595,-7.38507,88.8436
2023-02-16 21:26:39:38,-1.10312,2.86037,-9.30823,-16.9833,-7.37737,88.8562
2023-02-16 21:26:39:48,-1.14664,2.87883,-9.30404,-17.0054,-7.3774,88.8736
2023-02-16 21:26:39:58,-1.1969,2.88267,-9.3119,-17.0282,-7.37988,88.8926
2023-02-16 21:26:39:68,-1.25201,2.91465,-9.35182,-17.0476,-7.38612,88.9141
2023-02-16 21:26:39:77,-1.28561,2.93972,-9.39437,-17.0628,-7.38861,88.9344
2023-02-16 21:26:39:88,-1.28447,2.93875,-9.4046,-17.0677,-7.38757,88.9516
2023-02-16 21:26:39:98,-1.25491,2.90453,-9.39475,-17.0652,-7.38968,88.9723
2023-02-16 21:26:39:108,-1.25478,2.86782,-9.35367,-17.0568,-7.39463,88.9997
2023-02-16 21:26:39:118,-1.25983,2.84607,-9.29362,-17.0471,-7.40105,89.022
2023-02-16 21:26:39:128,-1.2878,2.80715,-9.22382,-17.0367,-7.40421,89.0496
2023-02-16 21:26:39:138,-1.29703,2.79072,-9.19207,-17.0333,-7.40587,89.0759
2023-02-16 21:26:39:148,-1.31763,2.82353,-9.19859,-17.0334,-7.40965,89.1018
2023-02-16 21:26:39:158,-1.35276,2.84974,-9.23943,-17.0375,-7.41458,89.1246
2023-02-16 21:26:39:168,-1.39174,2.88335,-9.2951,-17.0429,-7.41756,89.1448
2023-02-16 21:26:39:178,-1.40786,2.91991,-9.34633,-17.0459,-7.42163,89.1601
2023-02-16 21:26:39:188,-1.41079,2.91213,-9.35713,-17.0403,-7.42741,89.1732
2023-02-16 21:26:39:198,-1.40319,2.89501,-9.31176,-17.0312,-7.4367,89.1808
2023-02-16 21:26:39:208,-1.39292,2.87194,-9.2685,-17.026,-7.44555,89.1843
2023-02-16 21:26:39:218,-1.38146,2.8716,-9.23007,-17.0128,-7.45396,89.1787
2023-02-16 21:26:39:228,-1.37288,2.85222,-9.21764,-17.0027,-7.46194,89.1693
2023-02-16 21:26:39:237,-1.32276,2.82306,-9.18579,-16.9928,-7.47049,89.152
2023-02-16 21:26:39:248,-1.27732,2.80042,-9.1726,-16.9864,-7.47855,89.1315
2023-02-16 21:26:39:258,-1.26809,2.80451,-9.19341,-16.9889,-7.49178,89.109
2023-02-16 21:26:39:268,-1.26616,2.83896,-9.21828,-16.9952,-7.50819,89.0845
2023-02-16 21:26:39:278,-1.27024,2.84082,-9.22458,-17.003,-7.52399,89.0575
2023-02-16 21:26:39:288,-1.28405,2.84962,-9.24736,-17.0126,-7.54005,89.0299
2023-02-16 21:26:39:298,-1.2849,2.87522,-9.2754,-17.0199,-7.55312,89.0019
2023-02-16 21:26:39:308,-1.27412,2.89279,-9.30474,-17.0273,-7.57017,88.9704
2023-02-16 21:26:39:318,-1.27866,2.90687,-9.31937,-17.037,-7.5814,88.9393
2023-02-16 21:26:39:328,-1.27512,2.91021,-9.31317,-17.0464,-7.59636,88.9079
2023-02-16 21:26:39:338,-1.24035,2.90347,-9.30466,-17.0507,-7.60751,88.8765
2023-02-16 21:26:39:348,-1.23975,2.89561,-9.28457,-17.0534,-7.62155,88.8434
2023-02-16 21:26:39:358,-1.24832,2.89872,-9.25496,-17.0577,-7.63594,88.8078
2023-02-16 21:26:39:368,-1.26269,2.90318,-9.25865,-17.0648,-7.64874,88.7781
2023-02-16 21:26:39:377,-1.27382,2.94935,-9.31046,-17.0685,-7.65751,88.751
2023-02-16 21:26:39:388,-1.23564,2.98253,-9.40687,-17.0659,-7.66561,88.7272
2023-02-16 21:26:39:398,-1.19473,3.00516,-9.4682,-17.0524,-7.67226,88.7057
2023-02-16 21:26:39:408,-1.19537,2.98824,-9.4384,-17.0298,-7.67715,88.6889
2023-02-16 21:26:39:418,-1.22885,2.95612,-9.3914,-16.9975,-7.67732,88.676
2023-02-16 21:26:39:428,-1.24639,2.91868,-9.35864,-16.9607,-7.67329,88.6641
2023-02-16 21:26:39:438,-1.22788,2.86596,-9.34672,-16.9174,-7.66463,88.6527
2023-02-16 21:26:39:448,-1.20561,2.80909,-9.331,-16.8709,-7.65408,88.6417
2023-02-16 21:26:39:458,-1.18726,2.77838,-9.31164,-16.8276,-7.64937,88.6324
2023-02-16 21:26:39:468,-1.20804,2.72954,-9.30177,-16.7839,-7.64837,88.6227
2023-02-16 21:26:39:478,-1.21977,2.72237,-9.29569,-16.743,-7.6519,88.62
2023-02-16 21:26:39:488,-1.2432,2.70105,-9.28397,-16.7045,-7.65264,88.6133
2023-02-16 21:26:39:498,-1.26962,2.66528,-9.24302,-16.668,-7.65632,88.6118
2023-02-16 21:26:39:508,-1.28344,2.664,-9.20959,-16.635,-7.65825,88.6075
2023-02-16 21:26:39:518,-1.28056,2.64931,-9.21214,-16.6018,-7.66105,88.5997
2023-02-16 21:26:39:528,-1.26524,2.6199,-9.21167,-16.5748,-7.66434,88.5885
2023-02-16 21:26:39:538,-1.25601,2.61917,-9.20333,-16.5461,-7.66964,88.5777
2023-02-16 21:26:39:548,-1.27237,2.64122,-9.24384,-16.5272,-7.67777,88.5636
2023-02-16 21:26:39:558,-1.27167,2.66803,-9.30046,-16.5087,-7.68476,88.5497
2023-02-16 21:26:39:568,-1.23815,2.68421,-9.34577,-16.4918,-7.69092,88.5331
2023-02-16 21:26:39:578,-1.21321,2.6656,-9.35999,-16.4748,-7.7029,88.5137
2023-02-16 21:26:39:588,-1.20581,2.64706,-9.33197,-16.4585,-7.72435,88.5005
2023-02-16 21:26:39:598,-1.21522,2.64352,-9.29071,-16.4463,-7.74596,88.4923
2023-02-16 21:26:39:608,-1.24416,2.64435,-9.24407,-16.4437,-7.77052,88.4885
2023-02-16 21:26:39:618,-1.28367,2.66401,-9.20797,-16.4496,-7.79933,88.4923
2023-02-16 21:26:39:628,-1.33094,2.68967,-9.18391,-16.4616,-7.82294,88.4979
2023-02-16 21:26:39:638,-1.35904,2.71601,-9.19738,-16.4754,-7.84302,88.5055
2023-02-16 21:26:39:648,-1.39857,2.76118,-9.24223,-16.489,-7.86033,88.516
2023-02-16 21:26:39:658,-1.40149,2.76607,-9.28451,-16.4987,-7.87088,88.5281
2023-02-16 21:26:39:668,-1.38915,2.75119,-9.26996,-16.5067,-7.88209,88.5377
2023-02-16 21:26:39:678,-1.38886,2.73753,-9.23231,-16.5163,-7.89258,88.549
2023-02-16 21:26:39:688,-1.39645,2.73324,-9.2069,-16.5261,-7.89992,88.556
2023-02-16 21:26:39:698,-1.41892,2.72529,-9.18568,-16.5392,-7.90491,88.5634
2023-02-16 21:26:39:707,-1.45195,2.71621,-9.17766,-16.5529,-7.90925,88.5712
2023-02-16 21:26:39:717,-1.46872,2.72712,-9.18622,-16.5703,-7.91144,88.5708
2023-02-16 21:26:39:728,-1.45766,2.73394,-9.20642,-16.5878,-7.90775,88.5646
2023-02-16 21:26:39:738,-1.43414,2.72808,-9.21938,-16.6164,-7.89862,88.5605
2023-02-16 21:26:39:748,-1.40539,2.75146,-9.21461,-16.6463,-7.89318,88.551
2023-02-16 21:26:39:758,-1.4105,2.73802,-9.20945,-16.6786,-7.88475,88.5406
2023-02-16 21:26:39:768,-1.40236,2.77602,-9.2314,-16.7125,-7.88353,88.5291
2023-02-16 21:26:39:778,-1.35679,2.7968,-9.27247,-16.7495,-7.87158,88.5135
2023-02-16 21:26:39:788,-1.32687,2.83091,-9.33139,-16.7887,-7.86023,88.4912
2023-02-16 21:26:39:798,-1.29332,2.85682,-9.36287,-16.8214,-7.85228,88.4737
2023-02-16 21:26:39:808,-1.28214,2.85756,-9.37159,-16.848,-7.84709,88.4586
2023-02-16 21:26:39:818,-1.29021,2.85576,-9.35559,-16.8712,-7.83514,88.4437
2023-02-16 21:26:39:828,-1.31412,2.8513,-9.31848,-16.8913,-7.82593,88.4282
2023-02-16 21:26:39:838,-1.33415,2.86476,-9.30819,-16.9104,-7.81342,88.4195
2023-02-16 21:26:39:848,-1.35034,2.87054,-9.31747,-16.9247,-7.80056,88.4117
2023-02-16 21:26:39:858,-1.34522,2.84907,-9.30531,-16.9368,-7.78384,88.401
2023-02-16 21:26:39:868,-1.34058,2.84881,-9.2876,-16.9514,-7.76593,88.3905
2023-02-16 21:26:39:877,-1.33705,2.83033,-9.27098,-16.9646,-7.74853,88.3786
2023-02-16 21:26:39:887,-1.34117,2.82886,-9.25421,-16.9771,-7.73477,88.3648
2023-02-16 21:26:39:898,-1.33948,2.83532,-9.25929,-16.9898,-7.71856,88.3499
2023-02-16 21:26:39:908,-1.33764,2.8387,-9.25747,-17.0038,-7.70237,88.3339
2023-02-16 21:26:39:918,-1.34374,2.85154,-9.2659,-17.019,-7.68911,88.3176
2023-02-16 21:26:39:928,-1.35378,2.8594,-9.25837,-17.0332,-7.67747,88.2963
2023-02-16 21:26:39:938,-1.33783,2.85136,-9.27243,-17.0466,-7.66289,88.2751
2023-02-16 21:26:39:948,-1.32809,2.86693,-9.28088,-17.0619,-7.64729,88.2514
2023-02-16 21:26:39:958,-1.31777,2.87358,-9.2928,-17.0731,-7.63005,88.2285
2023-02-16 21:26:39:968,-1.29997,2.85193,-9.27444,-17.0854,-7.61051,88.2029
2023-02-16 21:26:39:978,-1.25281,2.83907,-9.26018,-17.1002,-7.59298,88.1779
2023-02-16 21:26:39:988,-1.22084,2.85745,-9.25971,-17.1116,-7.57264,88.1511
2023-02-16 21:26:39:998,-1.19464,2.85921,-9.26195,-17.1329,-7.55505,88.1292
2023-02-16 21:26:40:8,-1.1628,2.86122,-9.25141,-17.1525,-7.53831,88.1099
2023-02-16 21:26:40:18,-1.14394,2.86756,-9.25262,-17.1729,-7.51859,88.0934
2023-02-16 21:26:40:28,-1.13995,2.89576,-9.26578,-17.1964,-7.50171,88.0828
2023-02-16 21:26:40:38,-1.13375,2.89755,-9.28444,-17.2185,-7.4904,88.074
2023-02-16 21:26:40:48,-1.12234,2.90019,-9.28473,-17.2393,-7.47829,88.0689
2023-02-16 21:26:40:58,-1.12564,2.90592,-9.27012,-17.2577,-7.46535,88.0689
2023-02-16 21:26:40:68,-1.13025,2.90292,-9.25285,-17.2782,-7.45688,88.0679
2023-02-16 21:26:40:78,-1.11985,2.91473,-9.25035,-17.3,-7.44943,88.071
2023-02-16 21:26:40:88,-1.12188,2.92551,-9.25493,-17.3203,-7.4401,88.077
2023-02-16 21:26:40:97,-1.12792,2.94922,-9.26902,-17.3414,-7.43505,88.0866
2023-02-16 21:26:40:108,-1.13479,2.99087,-9.28246,-17.3631,-7.43502,88.0994
2023-02-16 21:26:40:118,-1.13249,3.014,-9.28869,-17.3835,-7.43159,88.1124
2023-02-16 21:26:40:128,-1.14658,3.03253,-9.2966,-17.401,-7.43418,88.128
2023-02-16 21:26:40:138,-1.15709,3.02634,-9.2876,-17.4206,-7.44054,88.1478
2023-02-16 21:26:40:148,-1.17133,3.03447,-9.29245,-17.4363,-7.44901,88.1712
2023-02-16 21:26:40:158,-1.19543,3.03997,-9.30602,-17.4494,-7.45749,88.1948
2023-02-16 21:26:40:168,-1.20987,3.05244,-9.28962,-17.4638,-7.4706,88.219
2023-02-16 21:26:40:178,-1.22731,3.05364,-9.29837,-17.4747,-7.47973,88.2443
2023-02-16 21:26:40:188,-1.22381,3.06055,-9.3081,-17.4789,-7.49252,88.2717
2023-02-16 21:26:40:198,-1.25655,3.06407,-9.30615,-17.476,-7.505,88.3001
2023-02-16 21:26:40:208,-1.30165,3.05601,-9.28957,-17.4747,-7.51805,88.3322
2023-02-16 21:26:40:218,-1.31352,3.05007,-9.26783,-17.4707,-7.52508,88.36
2023-02-16 21:26:40:227,-1.30888,3.02119,-9.25045,-17.4594,-7.5299,88.3828
2023-02-16 21:26:40:238,-1.31463,2.99494,-9.23427,-17.4459,-7.53164,88.4026
2023-02-16 21:26:40:248,-1.32272,2.97778,-9.22322,-17.433,-7.53298,88.4208
2023-02-16 21:26:40:258,-1.31335,2.95089,-9.21831,-17.4174,-7.5346,88.4343
2023-02-16 21:26:40:268,-1.29925,2.92204,-9.20688,-17.4026,-7.53501,88.4499
2023-02-16 21:26:40:278,-1.28091,2.92759,-9.2678,-17.3879,-7.53126,88.4593
2023-02-16 21:26:40:288,-1.24587,2.93707,-9.33979,-17.3714,-7.52931,88.4657
2023-02-16 21:26:40:298,-1.20908,2.92267,-9.35828,-17.3545,-7.52482,88.4712
2023-02-16 21:26:40:308,-1.1808,2.90267,-9.32391,-17.3325,-7.53141,88.4775
2023-02-16 21:26:40:318,-1.17694,2.89292,-9.26798,-17.3162,-7.53472,88.4865
2023-02-16 21:26:40:328,-1.20573,2.87954,-9.22362,-17.3036,-7.54069,88.5002
2023-02-16 21:26:40:338,-1.23166,2.87516,-9.18754,-17.2947,-7.54853,88.5119
2023-02-16 21:26:40:348,-1.24752,2.87895,-9.17401,-17.2936,-7.55162,88.5257
2023-02-16 21:26:40:358,-1.25135,2.89599,-9.17778,-17.2982,-7.55518,88.5459
2023-02-16 21:26:40:368,-1.25913,2.90667,-9.17499,-17.3036,-7.55909,88.5623
2023-02-16 21:26:40:378,-1.26401,2.91831,-9.18393,-17.3052,-7.56282,88.5795
2023-02-16 21:26:40:387,-1.26863,2.91778,-9.18988,-17.3067,-7.56447,88.5956
2023-02-16 21:26:40:398,-1.27995,2.91522,-9.18903,-17.3092,-7.56988,88.6099
2023-02-16 21:26:40:408,-1.27624,2.90917,-9.20332,-17.3083,-7.57268,88.6227
2023-02-16 21:26:40:418,-1.25677,2.90376,-9.21915,-17.3039,-7.57251,88.6316
2023-02-16 21:26:40:428,-1.26135,2.89675,-9.22451,-17.305,-7.57278,88.6422
2023-02-16 21:26:40:438,-1.2542,2.90238,-9.25375,-17.3073,-7.57826,88.6494
2023-02-16 21:26:40:448,-1.25003,2.89906,-9.26839,-17.3062,-7.58265,88.658
2023-02-16 21:26:40:457,-1.24512,2.90857,-9.28179,-17.3095,-7.58709,88.6673
2023-02-16 21:26:40:468,-1.25092,2.91679,-9.28745,-17.3114,-7.59446,88.6759
2023-02-16 21:26:40:478,-1.26194,2.92365,-9.27017,-17.3166,-7.6047,88.6874
2023-02-16 21:26:40:488,-1.27313,2.90379,-9.24585,-17.32,-7.6139,88.7001
2023-02-16 21:26:40:497,-1.29492,2.91346,-9.26945,-17.3278,-7.61993,88.7164
2023-02-16 21:26:40:508,-1.33858,2.947,-9.30414,-17.334,-7.62345,88.7317
2023-02-16 21:26:40:517,-1.32765,2.95394,-9.29934,-17.3356,-7.62794,88.7418
2023-02-16 21:26:40:528,-1.29951,2.93685,-9.28218,-17.335,-7.63039,88.749
2023-02-16 21:26:40:538,-1.30731,2.91377,-9.27005,-17.3298,-7.63751,88.7591
2023-02-16 21:26:40:548,-1.32992,2.90933,-9.25275,-17.3249,-7.64208,88.7693
2023-02-16 21:26:40:558,-1.34646,2.89007,-9.24323,-17.3175,-7.64813,88.7753
2023-02-16 21:26:40:568,-1.3511,2.87381,-9.22062,-17.3103,-7.65423,88.7781
2023-02-16 21:26:40:577,-1.34592,2.86466,-9.21235,-17.3029,-7.66094,88.7815
2023-02-16 21:26:40:588,-1.34791,2.85862,-9.22561,-17.2988,-7.66587,88.7807
2023-02-16 21:26:40:598,-1.33042,2.86794,-9.24491,-17.2937,-7.66963,88.7804
2023-02-16 21:26:40:608,-1.31655,2.86504,-9.24277,-17.2925,-7.66909,88.7789
2023-02-16 21:26:40:618,-1.28826,2.85753,-9.21903,-17.293,-7.66747,88.7762
2023-02-16 21:26:40:628,-1.25679,2.84813,-9.22434,-17.2963,-7.66312,88.7721
2023-02-16 21:26:40:638,-1.22586,2.85261,-9.23695,-17.3023,-7.65762,88.7689
2023-02-16 21:26:40:648,-1.20041,2.85944,-9.23757,-17.3074,-7.65322,88.7696
2023-02-16 21:26:40:658,-1.19733,2.8889,-9.24262,-17.3159,-7.65058,88.7734
2023-02-16 21:26:40:668,-1.20533,2.90282,-9.26712,-17.3217,-7.64673,88.782
2023-02-16 21:26:40:677,-1.19694,2.92082,-9.29295,-17.326,-7.64395,88.7899
2023-02-16 21:26:40:687,-1.17998,2.92838,-9.31085,-17.334,-7.63936,88.8024
2023-02-16 21:26:40:697,-1.19245,2.93967,-9.29219,-17.3391,-7.63578,88.8204
2023-02-16 21:26:40:707,-1.20208,2.93637,-9.30352,-17.3413,-7.63593,88.842
2023-02-16 21:26:40:717,-1.21258,2.93962,-9.3173,-17.3436,-7.63895,88.8622
2023-02-16 21:26:40:727,-1.23057,2.93529,-9.3063,-17.3475,-7.64663,88.8894
2023-02-16 21:26:40:737,-1.25318,2.92584,-9.30447,-17.3487,-7.65655,88.9186
2023-02-16 21:26:40:747,-1.28787,2.9316,-9.30276,-17.3487,-7.6701,88.9486
2023-02-16 21:26:40:757,-1.3251,2.93684,-9.29785,-17.3466,-7.68299,88.9814
2023-02-16 21:26:40:767,-1.35872,2.93497,-9.28865,-17.3428,-7.69604,89.0114
2023-02-16 21:26:40:777,-1.38263,2.92713,-9.26491,-17.3344,-7.70844,89.038
2023-02-16 21:26:40:787,-1.41319,2.92477,-9.25654,-17.3246,-7.71881,89.0631
2023-02-16 21:26:40:797,-1.43956,2.90849,-9.2462,-17.3107,-7.72835,89.0826
2023-02-16 21:26:40:807,-1.44028,2.88501,-9.24421,-17.2965,-7.73836,89.1023
2023-02-16 21:26:40:817,-1.45427,2.86751,-9.23675,-17.2848,-7.74693,89.1149
2023-02-16 21:26:40:827,-1.41838,2.84481,-9.21956,-17.2708,-7.75246,89.1227
2023-02-16 21:26:40:837,-1.3897,2.83987,-9.21708,-17.2606,-7.75644,89.1262
2023-02-16 21:26:40:847,-1.3822,2.84472,-9.23333,-17.2504,-7.76214,89.1298
2023-02-16 21:26:40:857,-1.37684,2.84589,-9.2368,-17.2395,-7.76611,89.1292
2023-02-16 21:26:40:867,-1.37419,2.84372,-9.22732,-17.2284,-7.76635,89.1255
2023-02-16 21:26:40:877,-1.35949,2.83016,-9.23009,-17.2186,-7.76335,89.1231
2023-02-16 21:26:40:887,-1.36569,2.84758,-9.22743,-17.2128,-7.75771,89.1165
2023-02-16 21:26:40:897,-1.3497,2.82393,-9.22764,-17.207,-7.75581,89.1101
2023-02-16 21:26:40:907,-1.35441,2.81186,-9.21163,-17.2015,-7.74964,89.1025
2023-02-16 21:26:40:917,-1.32811,2.82245,-9.20229,-17.1959,-7.73748,89.0929
2023-02-16 21:26:40:927,-1.29398,2.83701,-9.21903,-17.1972,-7.72807,89.0867
2023-02-16 21:26:40:937,-1.30091,2.85005,-9.25327,-17.1948,-7.71407,89.0789
2023-02-16 21:26:40:947,-1.29662,2.8725,-9.27445,-17.1927,-7.69811,89.0734
2023-02-16 21:26:40:957,-1.28025,2.88013,-9.28343,-17.1944,-7.67779,89.0684
2023-02-16 21:26:40:967,-1.25886,2.87617,-9.28842,-17.1905,-7.66065,89.0603
2023-02-16 21:26:40:977,-1.23115,2.86075,-9.27224,-17.1869,-7.64337,89.0549
2023-02-16 21:26:40:987,-1.21882,2.83715,-9.24692,-17.1812,-7.62933,89.0492
2023-02-16 21:26:40:997,-1.21544,2.82691,-9.25478,-17.1756,-7.61593,89.0464
2023-02-16 21:26:41:7,-1.18933,2.82712,-9.31268,-17.1758,-7.60223,89.0423
2023-02-16 21:26:41:17,-1.16167,2.84936,-9.35,-17.1767,-7.58984,89.0381
2023-02-16 21:26:41:27,-1.13386,2.86445,-9.32976,-17.1731,-7.58043,89.0361
2023-02-16 21:26:41:37,-1.13307,2.84485,-9.29201,-17.1743,-7.57966,89.037
2023-02-16 21:26:41:47,-1.15556,2.84753,-9.28651,-17.1786,-7.58335,89.0453
2023-02-16 21:26:41:57,-1.1755,2.86035,-9.28596,-17.1825,-7.59012,89.0561
2023-02-16 21:26:41:67,-1.22224,2.8863,-9.25501,-17.1937,-7.59977,89.0698
2023-02-16 21:26:41:77,-1.24936,2.90744,-9.21604,-17.2096,-7.60966,89.0879
2023-02-16 21:26:41:87,-1.26974,2.9086,-9.2203,-17.2238,-7.61912,89.1041
2023-02-16 21:26:41:97,-1.29633,2.93395,-9.23841,-17.2388,-7.6296,89.128
2023-02-16 21:26:41:107,-1.33386,2.94824,-9.25399,-17.2542,-7.64335,89.148
2023-02-16 21:26:41:117,-1.36374,2.94705,-9.23948,-17.2618,-7.65079,89.1657
2023-02-16 21:26:41:127,-1.37111,2.94385,-9.22794,-17.2654,-7.65992,89.1815
2023-02-16 21:26:41:137,-1.38111,2.93883,-9.22449,-17.2664,-7.66774,89.1929
2023-02-16 21:26:41:147,-1.39336,2.92654,-9.21634,-17.267,-7.6764,89.2045
2023-02-16 21:26:41:157,-1.39955,2.9238,-9.21764,-17.2686,-7.68037,89.2092
2023-02-16 21:26:41:167,-1.39377,2.92444,-9.20788,-17.2701,-7.68597,89.2106
2023-02-16 21:26:41:177,-1.38889,2.92158,-9.22561,-17.2745,-7.69252,89.2096
2023-02-16 21:26:41:187,-1.37313,2.91762,-9.26188,-17.2775,-7.6921,89.2035
2023-02-16 21:26:41:197,-1.37279,2.9407,-9.27327,-17.2848,-7.69255,89.1985
2023-02-16 21:26:41:207,-1.35619,2.95921,-9.27532,-17.2887,-7.69078,89.1908
2023-02-16 21:26:41:217,-1.35314,2.94445,-9.27666,-17.2916,-7.69016,89.1831
2023-02-16 21:26:41:227,-1.3655,2.96544,-9.29838,-17.2999,-7.68621,89.1731
2023-02-16 21:26:41:237,-1.35542,2.98077,-9.31602,-17.2975,-7.68207,89.1623
2023-02-16 21:26:41:248,-1.32359,2.97683,-9.29937,-17.2944,-7.67055,89.1495
2023-02-16 21:26:41:258,-1.28661,2.95021,-9.29199,-17.2883,-7.66408,89.1322
2023-02-16 21:26:41:267,-1.26921,2.92219,-9.26768,-17.2761,-7.661,89.1169
2023-02-16 21:26:41:277,-1.25966,2.88515,-9.24666,-17.2646,-7.65868,89.1012
2023-02-16 21:26:41:287,-1.25161,2.86968,-9.22613,-17.2555,-7.66026,89.0852
2023-02-16 21:26:41:298,-1.23794,2.8575,-9.23758,-17.2477,-7.65754,89.0713
2023-02-16 21:26:41:308,-1.22578,2.85816,-9.23478,-17.2397,-7.65468,89.0573
2023-02-16 21:26:41:318,-1.21428,2.84002,-9.2284,-17.2321,-7.64911,89.0449
2023-02-16 21:26:41:328,-1.21479,2.84072,-9.23083,-17.2264,-7.64694,89.0355
2023-02-16 21:26:41:338,-1.22456,2.86003,-9.24211,-17.224,-7.64219,89.03
2023-02-16 21:26:41:348,-1.23209,2.8586,-9.2714,-17.2221,-7.63649,89.0274
2023-02-16 21:26:41:358,-1.23218,2.85513,-9.2649,-17.2183,-7.63422,89.0246
2023-02-16 21:26:41:368,-1.25416,2.86245,-9.24936,-17.2179,-7.6336,89.0212
2023-02-16 21:26:41:378,-1.272,2.87045,-9.23989,-17.2177,-7.6366,89.0204
2023-02-16 21:26:41:388,-1.25534,2.86779,-9.25238,-17.217,-7.63986,89.0193
2023-02-16 21:26:41:398,-1.27703,2.87983,-9.26982,-17.2203,-7.64454,89.0177
2023-02-16 21:26:41:407,-1.26813,2.87715,-9.26536,-17.2223,-7.64808,89.0117
2023-02-16 21:26:41:417,-1.27011,2.87798,-9.27232,-17.2261,-7.65271,89.0071
2023-02-16 21:26:41:427,-1.26987,2.88879,-9.28455,-17.2282,-7.65934,89.008
2023-02-16 21:26:41:438,-1.26655,2.89679,-9.29664,-17.2275,-7.66461,89.0057
2023-02-16 21:26:41:448,-1.28895,2.90972,-9.30305,-17.2281,-7.67283,89.0049
2023-02-16 21:26:41:458,-1.30028,2.90617,-9.30501,-17.2236,-7.67564,89.0033
2023-02-16 21:26:41:468,-1.29565,2.88623,-9.29214,-17.2173,-7.68129,89.0034
2023-02-16 21:26:41:478,-1.29852,2.87819,-9.27406,-17.21,-7.68619,89.0019
2023-02-16 21:26:41:488,-1.29928,2.89315,-9.27769,-17.205,-7.69048,89.0028
2023-02-16 21:26:41:498,-1.30577,2.88777,-9.26818,-17.1974,-7.69559,89.0037
2023-02-16 21:26:41:508,-1.3092,2.87806,-9.25,-17.1889,-7.69867,89.0052
2023-02-16 21:26:41:518,-1.31148,2.88519,-9.27022,-17.1821,-7.70148,89.0047
2023-02-16 21:26:41:528,-1.32163,2.88694,-9.2711,-17.1736,-7.70398,89.0006
2023-02-16 21:26:41:538,-1.32444,2.88406,-9.24979,-17.1655,-7.70364,88.997
2023-02-16 21:26:41:548,-1.31851,2.85758,-9.24274,-17.1559,-7.70332,88.9942
2023-02-16 21:26:41:558,-1.29831,2.83582,-9.23822,-17.1519,-7.70283,88.9894
2023-02-16 21:26:41:568,-1.2816,2.83976,-9.23695,-17.1465,-7.70165,88.9844
2023-02-16 21:26:41:578,-1.26736,2.84736,-9.22992,-17.1419,-7.70215,88.9778
2023-02-16 21:26:41:588,-1.26765,2.84779,-9.24712,-17.1412,-7.70295,88.9701
2023-02-16 21:26:41:598,-1.26222,2.85945,-9.24293,-17.1452,-7.70339,88.9654
2023-02-16 21:26:41:608,-1.27699,2.85519,-9.25396,-17.1424,-7.7033,88.9605
2023-02-16 21:26:41:618,-1.28996,2.85734,-9.2553,-17.144,-7.70979,88.9583
2023-02-16 21:26:41:628,-1.27579,2.88884,-9.25763,-17.1452,-7.71138,88.9553
2023-02-16 21:26:41:638,-1.29748,2.89714,-9.28115,-17.1493,-7.71304,88.9577
2023-02-16 21:26:41:648,-1.30897,2.8961,-9.29044,-17.1476,-7.71538,88.9572
2023-02-16 21:26:41:657,-1.30814,2.9004,-9.28397,-17.1451,-7.71275,88.957
2023-02-16 21:26:41:667,-1.32009,2.88769,-9.26803,-17.142,-7.71026,88.9545
2023-02-16 21:26:41:677,-1.3358,2.8912,-9.26967,-17.1395,-7.70617,88.9568
2023-02-16 21:26:41:687,-1.34366,2.89945,-9.28116,-17.1342,-7.70172,88.9568
2023-02-16 21:26:41:697,-1.32567,2.88119,-9.27841,-17.131,-7.69591,88.9525
2023-02-16 21:26:41:707,-1.3114,2.87034,-9.25165,-17.1268,-7.68893,88.9457
2023-02-16 21:26:41:718,-1.31961,2.86412,-9.25737,-17.1187,-7.68447,88.9394
2023-02-16 21:26:41:728,-1.30208,2.85501,-9.26514,-17.1083,-7.6852,88.93
2023-02-16 21:26:41:738,-1.27731,2.84389,-9.24319,-17.1003,-7.68087,88.9215
2023-02-16 21:26:41:748,-1.27278,2.84512,-9.24908,-17.095,-7.67836,88.9086
2023-02-16 21:26:41:758,-1.25931,2.8612,-9.29646,-17.0913,-7.67495,88.8966
2023-02-16 21:26:41:768,-1.2028,2.86046,-9.32325,-17.088,-7.66796,88.8871
2023-02-16 21:26:41:778,-1.14466,2.85475,-9.32789,-17.0824,-7.66555,88.8765
2023-02-16 21:26:41:788,-1.13281,2.82963,-9.3024,-17.0745,-7.67043,88.8713
2023-02-16 21:26:41:797,-1.15359,2.82435,-9.26823,-17.0713,-7.67645,88.871
2023-02-16 21:26:41:807,-1.17716,2.8383,-9.24501,-17.0688,-7.68008,88.8737
2023-02-16 21:26:41:817,-1.18403,2.83829,-9.21621,-17.0737,-7.68089,88.882
2023-02-16 21:26:41:827,-1.19583,2.84653,-9.1857,-17.0824,-7.68385,88.8946
2023-02-16 21:26:41:837,-1.19933,2.87682,-9.19766,-17.0953,-7.68503,88.9143
2023-02-16 21:26:41:848,-1.23441,2.90599,-9.21839,-17.1092,-7.68715,88.939
2023-02-16 21:26:41:858,-1.28709,2.92992,-9.23142,-17.1232,-7.69101,88.9647
2023-02-16 21:26:41:868,-1.33347,2.93758,-9.23268,-17.1347,-7.69538,88.9926
2023-02-16 21:26:41:877,-1.35174,2.93432,-9.25869,-17.1383,-7.69626,89.0153
2023-02-16 21:26:41:887,-1.372,2.9473,-9.26877,-17.1408,-7.69901,89.0343
2023-02-16 21:26:41:897,-1.38332,2.93771,-9.28508,-17.1402,-7.70646,89.0528
2023-02-16 21:26:41:907,-1.36454,2.92341,-9.28026,-17.1368,-7.7072,89.0665
2023-02-16 21:26:41:918,-1.35399,2.91205,-9.27779,-17.1356,-7.7132,89.075
2023-02-16 21:26:41:928,-1.33472,2.91598,-9.28856,-17.1317,-7.71755,89.0791
2023-02-16 21:26:41:938,-1.32103,2.92972,-9.29697,-17.13,-7.7197,89.0832
2023-02-16 21:26:41:948,-1.30314,2.9296,-9.30259,-17.1314,-7.72049,89.0862
2023-02-16 21:26:41:958,-1.28612,2.90723,-9.28253,-17.1292,-7.7247,89.0885
2023-02-16 21:26:41:968,-1.28322,2.89768,-9.27926,-17.1205,-7.72068,89.0908
2023-02-16 21:26:41:978,-1.30399,2.90079,-9.3003,-17.1129,-7.7208,89.0938
2023-02-16 21:26:41:988,-1.3166,2.88733,-9.28793,-17.1012,-7.71551,89.0979
2023-02-16 21:26:41:998,-1.2927,2.86349,-9.27328,-17.0876,-7.70722,89.1009
2023-02-16 21:26:42:8,-1.25422,2.84199,-9.25564,-17.0735,-7.70171,89.1029
2023-02-16 21:26:42:18,-1.26043,2.81778,-9.24523,-17.065,-7.70271,89.1079
2023-02-16 21:26:42:28,-1.27385,2.82101,-9.26288,-17.0573,-7.7019,89.1136
2023-02-16 21:26:42:38,-1.27605,2.82414,-9.25175,-17.0506,-7.70235,89.1122
2023-02-16 21:26:42:48,-1.27568,2.82604,-9.23342,-17.0442,-7.70287,89.114
2023-02-16 21:26:42:58,-1.27447,2.8099,-9.25859,-17.0408,-7.70119,89.1212
2023-02-16 21:26:42:68,-1.28485,2.83013,-9.26403,-17.039,-7.69736,89.1274
2023-02-16 21:26:42:78,-1.27085,2.83619,-9.26858,-17.0361,-7.69283,89.1307
2023-02-16 21:26:42:88,-1.2625,2.83416,-9.28302,-17.0356,-7.68821,89.1363
2023-02-16 21:26:42:98,-1.26738,2.8633,-9.2875,-17.0334,-7.68311,89.142
2023-02-16 21:26:42:108,-1.26506,2.85458,-9.28561,-17.0301,-7.67937,89.1443
2023-02-16 21:26:42:118,-1.24972,2.84755,-9.273,-17.0218,-7.67577,89.1472
2023-02-16 21:26:42:128,-1.23125,2.85061,-9.25219,-17.0185,-7.67384,89.1536
2023-02-16 21:26:42:138,-1.23441,2.83146,-9.26082,-17.0166,-7.67702,89.161
2023-02-16 21:26:42:148,-1.24507,2.82736,-9.27084,-17.0147,-7.68238,89.1649
2023-02-16 21:26:42:158,-1.24072,2.82834,-9.2911,-17.0076,-7.68895,89.1695
2023-02-16 21:26:42:168,-1.24607,2.84394,-9.31554,-17.0032,-7.69942,89.1776
2023-02-16 21:26:42:178,-1.26429,2.83839,-9.33716,-16.997,-7.70868,89.1887
2023-02-16 21:26:42:188,-1.28629,2.82318,-9.32265,-16.9913,-7.71705,89.1998
2023-02-16 21:26:42:198,-1.28947,2.8233,-9.29697,-16.9809,-7.72323,89.2124
2023-02-16 21:26:42:208,-1.30212,2.81271,-9.27568,-16.969,-7.73006,89.2226
2023-02-16 21:26:42:218,-1.32466,2.80526,-9.2634,-16.9589,-7.73567,89.2389
2023-02-16 21:26:42:228,-1.32578,2.78737,-9.24463,-16.9485,-7.74236,89.2509
2023-02-16 21:26:42:238,-1.31498,2.77644,-9.22821,-16.9428,-7.74463,89.2623
2023-02-16 21:26:42:248,-1.31264,2.77049,-9.22083,-16.9382,-7.74785,89.2756
2023-02-16 21:26:42:258,-1.32197,2.77078,-9.23298,-16.9394,-7.75074,89.2883
2023-02-16 21:26:42:268,-1.31802,2.78299,-9.23114,-16.9421,-7.75344,89.3028
2023-02-16 21:26:42:278,-1.31931,2.78968,-9.237,-16.9396,-7.75741,89.3162
2023-02-16 21:26:42:288,-1.34738,2.81612,-9.23668,-16.9437,-7.75968,89.3306
2023-02-16 21:26:42:298,-1.35583,2.81878,-9.23491,-16.9472,-7.7635,89.3461
2023-02-16 21:26:42:308,-1.34137,2.82389,-9.23329,-16.951,-7.76142,89.355
2023-02-16 21:26:42:318,-1.33758,2.82294,-9.2431,-16.9538,-7.75858,89.3618
2023-02-16 21:26:42:328,-1.34835,2.84867,-9.24254,-16.9653,-7.75726,89.3691
2023-02-16 21:26:42:338,-1.34739,2.8585,-9.25705,-16.9709,-7.76042,89.3719
2023-02-16 21:26:42:348,-1.34278,2.85368,-9.26884,-16.9769,-7.76238,89.3741
2023-02-16 21:26:42:358,-1.3407,2.87367,-9.2852,-16.9861,-7.76613,89.3761
2023-02-16 21:26:42:368,-1.33917,2.87617,-9.28385,-16.9935,-7.77046,89.3799
2023-02-16 21:26:42:378,-1.34317,2.8733,-9.28274,-16.9963,-7.77541,89.3823
2023-02-16 21:26:42:388,-1.32368,2.86955,-9.28073,-17.0025,-7.77707,89.384
2023-02-16 21:26:42:398,-1.31956,2.8828,-9.27841,-17.0075,-7.77773,89.3844
2023-02-16 21:26:42:408,-1.33103,2.89412,-9.2755,-17.0101,-7.7821,89.3842
2023-02-16 21:26:42:418,-1.33767,2.87389,-9.2785,-17.0102,-7.78152,89.384
2023-02-16 21:26:42:428,-1.36209,2.85439,-9.2792,-17.0096,-7.77879,89.3825
2023-02-16 21:26:42:438,-1.36559,2.86169,-9.27838,-17.0043,-7.77782,89.3806
2023-02-16 21:26:42:448,-1.36452,2.83914,-9.25037,-16.999,-7.77213,89.3769
2023-02-16 21:26:42:458,-1.35317,2.82407,-9.24051,-16.9958,-7.76295,89.3721
2023-02-16 21:26:42:468,-1.33452,2.84391,-9.25728,-16.9945,-7.75699,89.3647
2023-02-16 21:26:42:478,-1.31569,2.83819,-9.25087,-16.9926,-7.75059,89.3539
2023-02-16 21:26:42:488,-1.29607,2.79844,-9.24057,-16.987,-7.74222,89.3403
2023-02-16 21:26:42:498,-1.27309,2.80277,-9.29456,-16.9849,-7.73649,89.3269
2023-02-16 21:26:42:508,-1.23693,2.8408,-9.35461,-16.9832,-7.72857,89.317
2023-02-16 21:26:42:518,-1.21516,2.83545,-9.37307,-16.9801,-7.72328,89.308
2023-02-16 21:26:42:528,-1.21692,2.81297,-9.33667,-16.9736,-7.72053,89.3012
2023-02-16 21:26:42:538,-1.22918,2.80722,-9.3021,-16.9693,-7.72551,89.2961
2023-02-16 21:26:42:548,-1.25006,2.82862,-9.31189,-16.9664,-7.73021,89.2884
2023-02-16 21:26:42:558,-1.26383,2.82779,-9.28366,-16.9685,-7.73592,89.2858
2023-02-16 21:26:42:568,-1.27174,2.8197,-9.24986,-16.9707,-7.73595,89.2892
2023-02-16 21:26:42:578,-1.27122,2.84016,-9.22691,-16.9795,-7.73716,89.291
2023-02-16 21:26:42:588,-1.28282,2.86726,-9.21711,-16.9837,-7.73632,89.2931
2023-02-16 21:26:42:598,-1.29939,2.88861,-9.23287,-16.99,-7.73803,89.2954
2023-02-16 21:26:42:608,-1.30151,2.88591,-9.26084,-16.9931,-7.74384,89.3025
2023-02-16 21:26:42:618,-1.31162,2.88553,-9.26763,-16.9937,-7.74272,89.3087
2023-02-16 21:26:42:628,-1.30906,2.86913,-9.27333,-16.9907,-7.74186,89.3135
2023-02-16 21:26:42:638,-1.30427,2.86225,-9.27294,-16.9884,-7.74504,89.315
2023-02-16 21:26:42:648,-1.32349,2.83796,-9.25996,-16.9827,-7.75165,89.3137
2023-02-16 21:26:42:658,-1.3217,2.81936,-9.23984,-16.9755,-7.75183,89.3138
2023-02-16 21:26:42:668,-1.32299,2.8208,-9.25112,-16.9705,-7.75514,89.3119
2023-02-16 21:26:42:678,-1.31671,2.81998,-9.27301,-16.9672,-7.75955,89.3107
2023-02-16 21:26:42:688,-1.31506,2.82181,-9.27644,-16.97,-7.75661,89.3097
2023-02-16 21:26:42:698,-1.30785,2.84075,-9.25405,-16.9756,-7.75372,89.3073
2023-02-16 21:26:42:708,-1.28536,2.81863,-9.24354,-16.9832,-7.74968,89.3026
2023-02-16 21:26:42:717,-1.30783,2.8227,-9.25534,-16.9922,-7.74874,89.3014
2023-02-16 21:26:42:728,-1.3356,2.86743,-9.2849,-17.0023,-7.74395,89.3021
2023-02-16 21:26:42:738,-1.33036,2.87703,-9.3087,-17.0054,-7.73734,89.2978
2023-02-16 21:26:42:748,-1.28912,2.88629,-9.32565,-17.0073,-7.7267,89.2937
2023-02-16 21:26:42:758,-1.25385,2.87749,-9.31543,-17.0058,-7.71843,89.2871
2023-02-16 21:26:42:768,-1.25719,2.85583,-9.2859,-17.0031,-7.71662,89.2772
2023-02-16 21:26:42:778,-1.27077,2.84376,-9.2607,-16.999,-7.71547,89.2734
2023-02-16 21:26:42:788,-1.25543,2.81617,-9.23199,-16.993,-7.71365,89.2649
2023-02-16 21:26:42:798,-1.25006,2.80671,-9.19979,-16.9923,-7.71429,89.2575
2023-02-16 21:26:42:808,-1.23125,2.79195,-9.21321,-16.995,-7.71659,89.2505
2023-02-16 21:26:42:818,-1.22321,2.80662,-9.23439,-17.0004,-7.71712,89.2456
2023-02-16 21:26:42:828,-1.23249,2.82262,-9.26928,-17.0072,-7.71511,89.2391
2023-02-16 21:26:42:838,-1.24455,2.83706,-9.28861,-17.0165,-7.71438,89.2372
2023-02-16 21:26:42:848,-1.25228,2.85584,-9.29545,-17.0248,-7.71175,89.2365
2023-02-16 21:26:42:858,-1.27228,2.86054,-9.28837,-17.0334,-7.71267,89.2408
2023-02-16 21:26:42:868,-1.28498,2.88135,-9.29199,-17.0389,-7.71042,89.2443
2023-02-16 21:26:42:878,-1.29594,2.88447,-9.29116,-17.0419,-7.70851,89.2492
2023-02-16 21:26:42:888,-1.30144,2.88822,-9.28292,-17.0436,-7.71114,89.2542
2023-02-16 21:26:42:898,-1.31303,2.8854,-9.27475,-17.0473,-7.71496,89.2569
2023-02-16 21:26:42:908,-1.31513,2.86917,-9.27919,-17.0449,-7.71713,89.2569
2023-02-16 21:26:42:918,-1.29914,2.86666,-9.27253,-17.0444,-7.71998,89.257
2023-02-16 21:26:42:928,-1.30182,2.85922,-9.26979,-17.0445,-7.72625,89.257
2023-02-16 21:26:42:938,-1.29683,2.86076,-9.25759,-17.0451,-7.73444,89.255
2023-02-16 21:26:42:948,-1.28107,2.84898,-9.27977,-17.0444,-7.74054,89.2538
2023-02-16 21:26:42:958,-1.26651,2.83873,-9.2888,-17.0448,-7.74895,89.2517
2023-02-16 21:26:42:968,-1.27067,2.85231,-9.27357,-17.0449,-7.75405,89.2557
2023-02-16 21:26:42:978,-1.2775,2.83232,-9.26707,-17.0469,-7.75903,89.2605
2023-02-16 21:26:42:988,-1.28102,2.82745,-9.26912,-17.0448,-7.76148,89.2645
2023-02-16 21:26:42:998,-1.30329,2.84197,-9.27672,-17.05,-7.76668,89.2723
2023-02-16 21:26:43:8,-1.3165,2.8538,-9.28037,-17.0527,-7.76838,89.2803
2023-02-16 21:26:43:18,-1.31718,2.85175,-9.25496,-17.0524,-7.76608,89.2871
2023-02-16 21:26:43:28,-1.33032,2.84066,-9.23633,-17.0553,-7.76302,89.2968
2023-02-16 21:26:43:38,-1.3276,2.85204,-9.22773,-17.0539,-7.75789,89.3034
2023-02-16 21:26:43:48,-1.33307,2.85759,-9.23461,-17.0575,-7.75702,89.3128
2023-02-16 21:26:43:58,-1.33908,2.8485,-9.23871,-17.0609,-7.75763,89.3165
2023-02-16 21:26:43:68,-1.32527,2.8384,-9.25017,-17.0666,-7.75877,89.3189
2023-02-16 21:26:43:78,-1.32231,2.86766,-9.26017,-17.0741,-7.76557,89.3171
2023-02-16 21:26:43:88,-1.33886,2.88396,-9.27761,-17.0795,-7.77339,89.3213
2023-02-16 21:26:43:98,-1.36241,2.89864,-9.28523,-17.085,-7.77639,89.3207
2023-02-16 21:26:43:108,-1.3778,2.90579,-9.2722,-17.0907,-7.77976,89.32
2023-02-16 21:26:43:118,-1.37524,2.89141,-9.26517,-17.0937,-7.78339,89.315
2023-02-16 21:26:43:128,-1.36371,2.88549,-9.24343,-17.0952,-7.77944,89.3088
2023-02-16 21:26:43:138,-1.36664,2.8803,-9.23039,-17.0966,-7.77342,89.3068
2023-02-16 21:26:43:148,-1.36042,2.88122,-9.23622,-17.1007,-7.76896,89.3017
2023-02-16 21:26:43:158,-1.33285,2.8883,-9.25521,-17.1052,-7.76142,89.2929
2023-02-16 21:26:43:168,-1.31292,2.87715,-9.27776,-17.1061,-7.75106,89.2803
2023-02-16 21:26:43:178,-1.29517,2.86035,-9.27388,-17.1093,-7.74241,89.2711
2023-02-16 21:26:43:188,-1.27716,2.85964,-9.26409,-17.1087,-7.73353,89.2603
2023-02-16 21:26:43:198,-1.26041,2.86612,-9.26665,-17.1113,-7.72458,89.2504
2023-02-16 21:26:43:208,-1.24318,2.85558,-9.27222,-17.1146,-7.71875,89.2389
2023-02-16 21:26:43:218,-1.23532,2.8483,-9.2807,-17.1171,-7.71581,89.2328
2023-02-16 21:26:43:228,-1.22754,2.87036,-9.33169,-17.1211,-7.71076,89.2255
2023-02-16 21:26:43:238,-1.2099,2.89676,-9.37105,-17.1207,-7.6992,89.2193
2023-02-16 21:26:43:248,-1.18409,2.89224,-9.3549,-17.1149,-7.69489,89.2179
2023-02-16 21:26:43:258,-1.18935,2.85076,-9.30757,-17.1065,-7.69583,89.2183
2023-02-16 21:26:43:268,-1.20161,2.82946,-9.26253,-17.1007,-7.69981,89.2221
2023-02-16 21:26:43:278,-1.23181,2.83409,-9.24301,-17.1026,-7.70565,89.2297
2023-02-16 21:26:43:287,-1.25138,2.82906,-9.2293,-17.1058,-7.71029,89.2402
2023-02-16 21:26:43:298,-1.27628,2.85224,-9.20498,-17.1118,-7.71698,89.2537
2023-02-16 21:26:43:308,-1.29734,2.86756,-9.21263,-17.1254,-7.72267,89.2669
2023-02-16 21:26:43:318,-1.31363,2.90872,-9.24951,-17.1345,-7.73232,89.2792
2023-02-16 21:26:43:328,-1.35261,2.92219,-9.2779,-17.143,-7.73987,89.2924
2023-02-16 21:26:43:338,-1.35308,2.90542,-9.27943,-17.1483,-7.74285,89.3022
2023-02-16 21:26:43:348,-1.36617,2.89625,-9.2515,-17.1527,-7.74624,89.3121
2023-02-16 21:26:43:358,-1.36089,2.8705,-9.22228,-17.1546,-7.75018,89.3137
2023-02-16 21:26:43:368,-1.33121,2.86004,-9.20947,-17.1545,-7.75009,89.3142
2023-02-16 21:26:43:378,-1.31908,2.85955,-9.18988,-17.1542,-7.75119,89.3111
2023-02-16 21:26:43:388,-1.3228,2.84888,-9.19052,-17.1598,-7.75223,89.3126
2023-02-16 21:26:43:398,-1.31718,2.86912,-9.21819,-17.1644,-7.7554,89.3111
2023-02-16 21:26:43:408,-1.29997,2.89654,-9.25884,-17.1689,-7.75883,89.3087
2023-02-16 21:26:43:418,-1.30427,2.89472,-9.26576,-17.1779,-7.76065,89.3068
2023-02-16 21:26:43:428,-1.30306,2.88119,-9.24347,-17.1861,-7.76505,89.3046
2023-02-16 21:26:43:438,-1.31973,2.89124,-9.23864,-17.1959,-7.77049,89.2995
2023-02-16 21:26:43:448,-1.34001,2.91792,-9.26105,-17.2075,-7.77113,89.2955
2023-02-16 21:26:43:458,-1.34951,2.92757,-9.28672,-17.2207,-7.77295,89.2895
2023-02-16 21:26:43:468,-1.32519,2.96342,-9.29649,-17.2289,-7.77105,89.2856
2023-02-16 21:26:43:478,-1.29506,2.96258,-9.32399,-17.2364,-7.77078,89.2755
2023-02-16 21:26:43:488,-1.29187,2.95135,-9.31496,-17.2404,-7.77117,89.2644
2023-02-16 21:26:43:498,-1.31787,2.95423,-9.31462,-17.2389,-7.77416,89.259
2023-02-16 21:26:43:508,-1.32766,2.95916,-9.30821,-17.2381,-7.77582,89.2525
2023-02-16 21:26:43:518,-1.33855,2.94954,-9.28736,-17.2355,-7.7744,89.2422
2023-02-16 21:26:43:528,-1.31904,2.92258,-9.28182,-17.2283,-7.77087,89.2285
2023-02-16 21:26:43:538,-1.30206,2.91799,-9.2741,-17.2184,-7.76712,89.2207
2023-02-16 21:26:43:548,-1.29584,2.91085,-9.27527,-17.2123,-7.76246,89.2098
2023-02-16 21:26:43:558,-1.29259,2.91773,-9.27688,-17.2024,-7.75966,89.1974
2023-02-16 21:26:43:568,-1.29421,2.90103,-9.27021,-17.193,-7.75605,89.186
2023-02-16 21:26:43:578,-1.29659,2.89453,-9.24921,-17.1861,-7.75105,89.1759
2023-02-16 21:26:43:588,-1.2869,2.89457,-9.25524,-17.1767,-7.74634,89.1662
2023-02-16 21:26:43:598,-1.29699,2.91114,-9.26852,-17.1633,-7.74169,89.1554
2023-02-16 21:26:43:608,-1.27146,2.9086,-9.27689,-17.1487,-7.73698,89.1428
2023-02-16 21:26:43:618,-1.24564,2.89774,-9.26299,-17.1354,-7.73263,89.1324
2023-02-16 21:26:43:628,-1.23364,2.8792,-9.26594,-17.1223,-7.72754,89.1209
2023-02-16 21:26:43:638,-1.22572,2.87423,-9.28685,-17.108,-7.72745,89.1101
2023-02-16 21:26:43:648,-1.21105,2.85999,-9.29472,-17.0942,-7.72677,89.1
2023-02-16 21:26:43:658,-1.21601,2.8518,-9.28595,-17.0793,-7.72601,89.097
2023-02-16 21:26:43:668,-1.20961,2.837,-9.27247,-17.0657,-7.72818,89.0946
2023-02-16 21:26:43:678,-1.21768,2.82625,-9.27367,-17.0549,-7.72847,89.0998
2023-02-16 21:26:43:688,-1.21849,2.82841,-9.28375,-17.0441,-7.73145,89.1052
2023-02-16 21:26:43:698,-1.23137,2.83775,-9.2878,-17.0308,-7.73107,89.1123
2023-02-16 21:26:43:708,-1.25418,2.84963,-9.28446,-17.0207,-7.73433,89.1221
2023-02-16 21:26:43:718,-1.26059,2.82803,-9.28875,-17.0087,-7.73588,89.1302
2023-02-16 21:26:43:728,-1.28908,2.81752,-9.27744,-16.9941,-7.73643,89.1427
2023-02-16 21:26:43:738,-1.31587,2.82445,-9.26153,-16.982,-7.7384,89.153
2023-02-16 21:26:43:748,-1.32264,2.82159,-9.25724,-16.9699,-7.74231,89.162
2023-02-16 21:26:43:758,-1.32356,2.80542,-9.25439,-16.9603,-7.74383,89.1695
2023-02-16 21:26:43:768,-1.31622,2.79343,-9.24977,-16.9484,-7.74773,89.1739
2023-02-16 21:26:43:778,-1.30322,2.78954,-9.23626,-16.9395,-7.75315,89.1728
2023-02-16 21:26:43:788,-1.2747,2.78831,-9.25107,-16.9362,-7.75939,89.1768
2023-02-16 21:26:43:797,-1.27521,2.78691,-9.25625,-16.9256,-7.76099,89.1776
2023-02-16 21:26:43:808,-1.2616,2.7921,-9.23897,-16.9208,-7.76473,89.1814
2023-02-16 21:26:43:818,-1.25262,2.79013,-9.24514,-16.9151,-7.76554,89.1835
2023-02-16 21:26:43:828,-1.25759,2.79354,-9.23927,-16.9139,-7.76782,89.1919
2023-02-16 21:26:43:838,-1.24962,2.79695,-9.23507,-16.915,-7.7692,89.2011
2023-02-16 21:26:43:848,-1.26156,2.79319,-9.2217,-16.9172,-7.77322,89.2115
2023-02-16 21:26:43:858,-1.27259,2.79019,-9.22529,-16.9221,-7.77608,89.2218
2023-02-16 21:26:43:868,-1.28732,2.79605,-9.25569,-16.9245,-7.778,89.2356
2023-02-16 21:26:43:878,-1.3082,2.83235,-9.28641,-16.9328,-7.77563,89.2516
2023-02-16 21:26:43:888,-1.31222,2.82638,-9.28139,-16.9383,-7.77516,89.2655
2023-02-16 21:26:43:898,-1.30907,2.80939,-9.25999,-16.942,-7.77352,89.2778
2023-02-16 21:26:43:908,-1.30658,2.82997,-9.26386,-16.9469,-7.77231,89.293
2023-02-16 21:26:43:918,-1.31238,2.82172,-9.25158,-16.9519,-7.77585,89.3031
2023-02-16 21:26:43:928,-1.31139,2.80133,-9.25482,-16.96,-7.77909,89.3151
2023-02-16 21:26:43:938,-1.29553,2.79515,-9.25739,-16.9656,-7.7822,89.321
2023-02-16 21:26:43:948,-1.27631,2.81305,-9.30743,-16.9765,-7.78655,89.329
2023-02-16 21:26:43:958,-1.2531,2.85205,-9.35534,-16.9802,-7.79036,89.333
2023-02-16 21:26:43:968,-1.22696,2.84269,-9.37415,-16.9851,-7.80103,89.3382
2023-02-16 21:26:43:978,-1.2034,2.81633,-9.35446,-16.9858,-7.81642,89.349
2023-02-16 21:26:43:988,-1.23181,2.81259,-9.31673,-16.985,-7.83808,89.3616
2023-02-16 21:26:43:998,-1.26352,2.82096,-9.28999,-16.9906,-7.85747,89.3735
2023-02-16 21:26:44:8,-1.28106,2.8216,-9.23648,-16.9914,-7.87428,89.3902
2023-02-16 21:26:44:18,-1.28935,2.80759,-9.18255,-17.0022,-7.88587,89.4141
2023-02-16 21:26:44:28,-1.31771,2.81962,-9.17932,-17.0154,-7.89665,89.4352
2023-02-16 21:26:44:38,-1.3451,2.84577,-9.21739,-17.0269,-7.90412,89.4595
2023-02-16 21:26:44:48,-1.36225,2.87017,-9.26545,-17.0369,-7.91329,89.4839
2023-02-16 21:26:44:58,-1.37683,2.88677,-9.26497,-17.0426,-7.91897,89.5097
2023-02-16 21:26:44:68,-1.37237,2.87906,-9.2347,-17.0479,-7.92116,89.5331
2023-02-16 21:26:44:78,-1.37587,2.87499,-9.22159,-17.0525,-7.92421,89.5584
2023-02-16 21:26:44:88,-1.41139,2.87662,-9.23794,-17.0571,-7.92591,89.584
2023-02-16 21:26:44:98,-1.42609,2.8772,-9.23463,-17.062,-7.92593,89.6057
2023-02-16 21:26:44:108,-1.42513,2.86678,-9.23296,-17.0654,-7.92774,89.6235
2023-02-16 21:26:44:118,-1.42946,2.85809,-9.23855,-17.0733,-7.92857,89.6356
2023-02-16 21:26:44:128,-1.4476,2.86657,-9.25886,-17.0804,-7.93431,89.6489
2023-02-16 21:26:44:138,-1.44677,2.89363,-9.26525,-17.0879,-7.94157,89.6549
2023-02-16 21:26:44:148,-1.43777,2.9012,-9.2502,-17.0928,-7.94364,89.6528
2023-02-16 21:26:44:158,-1.44352,2.88616,-9.23555,-17.0997,-7.94574,89.6517
2023-02-16 21:26:44:168,-1.44177,2.87807,-9.25549,-17.1064,-7.94388,89.6498
2023-02-16 21:26:44:178,-1.42484,2.89666,-9.28903,-17.1092,-7.94081,89.6399
2023-02-16 21:26:44:188,-1.37597,2.90471,-9.29802,-17.108,-7.93573,89.6287
2023-02-16 21:26:44:198,-1.30406,2.88176,-9.29427,-17.1059,-7.93327,89.6167
2023-02-16 21:26:44:208,-1.27919,2.8676,-9.30233,-17.1005,-7.93163,89.6007
2023-02-16 21:26:44:218,-1.29489,2.85661,-9.27046,-17.0956,-7.92921,89.5912
2023-02-16 21:26:44:228,-1.30114,2.84946,-9.24131,-17.0907,-7.92705,89.5832
2023-02-16 21:26:44:238,-1.30838,2.84865,-9.24171,-17.0842,-7.92354,89.5782
2023-02-16 21:26:44:248,-1.31697,2.85923,-9.25304,-17.0808,-7.91532,89.577
2023-02-16 21:26:44:258,-1.3258,2.85658,-9.23078,-17.0786,-7.90572,89.5736
2023-02-16 21:26:44:268,-1.33033,2.86051,-9.2206,-17.0776,-7.90268,89.5713
2023-02-16 21:26:44:278,-1.33598,2.88186,-9.22707,-17.081,-7.89465,89.5705
2023-02-16 21:26:44:288,-1.33712,2.89274,-9.23093,-17.0856,-7.88663,89.5692
2023-02-16 21:26:44:298,-1.32759,2.88317,-9.25581,-17.087,-7.87982,89.5668
2023-02-16 21:26:44:308,-1.30971,2.8962,-9.26183,-17.0918,-7.87572,89.5642
2023-02-16 21:26:44:318,-1.31037,2.90385,-9.25763,-17.0958,-7.8712,89.5634
2023-02-16 21:26:44:328,-1.31603,2.90057,-9.26511,-17.1,-7.8664,89.5617
2023-02-16 21:26:44:338,-1.31086,2.89986,-9.28536,-17.1028,-7.85805,89.5593
2023-02-16 21:26:44:348,-1.3113,2.91103,-9.30238,-17.1029,-7.85386,89.559
2023-02-16 21:26:44:358,-1.31122,2.9245,-9.32338,-17.101,-7.8522,89.555
2023-02-16 21:26:44:368,-1.3029,2.90203,-9.31622,-17.0928,-7.85049,89.5501
2023-02-16 21:26:44:378,-1.30847,2.88993,-9.28469,-17.0854,-7.85021,89.548
2023-02-16 21:26:44:388,-1.29601,2.86815,-9.2718,-17.0776,-7.849,89.5473
2023-02-16 21:26:44:398,-1.27652,2.85552,-9.25694,-17.0723,-7.84561,89.5513
2023-02-16 21:26:44:408,-1.2521,2.8451,-9.26882,-17.0668,-7.84298,89.556
2023-02-16 21:26:44:418,-1.25936,2.85072,-9.25693,-17.0603,-7.8377,89.5581
2023-02-16 21:26:44:428,-1.27625,2.84581,-9.24837,-17.056,-7.83464,89.5631
2023-02-16 21:26:44:438,-1.26378,2.83928,-9.2638,-17.0496,-7.83088,89.5721
2023-02-16 21:26:44:448,-1.26179,2.84208,-9.26416,-17.0418,-7.82661,89.5853
2023-02-16 21:26:44:458,-1.27751,2.85213,-9.2608,-17.0352,-7.82186,89.5999
2023-02-16 21:26:44:468,-1.30052,2.83864,-9.25213,-17.0329,-7.81827,89.6146
2023-02-16 21:26:44:478,-1.3049,2.82892,-9.25399,-17.0276,-7.81175,89.6285
2023-02-16 21:26:44:488,-1.30721,2.83629,-9.24475,-17.0267,-7.80352,89.64
2023-02-16 21:26:44:498,-1.32818,2.83623,-9.23,-17.0258,-7.79672,89.6562
2023-02-16 21:26:44:508,-1.3481,2.82091,-9.23994,-17.0268,-7.79277,89.6664
2023-02-16 21:26:44:518,-1.33842,2.8161,-9.24034,-17.0311,-7.79116,89.6743
2023-02-16 21:26:44:528,-1.31019,2.82216,-9.24684,-17.0348,-7.79213,89.6792
2023-02-16 21:26:44:538,-1.30263,2.83789,-9.2646,-17.0384,-7.79305,89.6807
2023-02-16 21:26:44:548,-1.30543,2.84395,-9.25876,-17.043,-7.79994,89.6796
2023-02-16 21:26:44:558,-1.28027,2.85266,-9.25355,-17.0469,-7.80681,89.6775
2023-02-16 21:26:44:568,-1.25666,2.8498,-9.26141,-17.0485,-7.81116,89.6721
2023-02-16 21:26:44:578,-1.2329,2.85267,-9.27531,-17.0528,-7.81678,89.6699
2023-02-16 21:26:44:588,-1.22666,2.84862,-9.26018,-17.0555,-7.82218,89.6743
2023-02-16 21:26:44:598,-1.24874,2.86663,-9.27383,-17.0637,-7.82555,89.6787
2023-02-16 21:26:44:608,-1.27092,2.86992,-9.30218,-17.0644,-7.828,89.6883
2023-02-16 21:26:44:618,-1.26927,2.8644,-9.30039,-17.0658,-7.82609,89.699
2023-02-16 21:26:44:628,-1.27945,2.86492,-9.29566,-17.0643,-7.82682,89.7074
2023-02-16 21:26:44:638,-1.28787,2.86479,-9.28137,-17.0606,-7.82799,89.7183
2023-02-16 21:26:44:648,-1.3107,2.83882,-9.25877,-17.0572,-7.83207,89.7296
2023-02-16 21:26:44:658,-1.31665,2.82011,-9.24148,-17.0559,-7.83492,89.7413
2023-02-16 21:26:44:668,-1.33259,2.82356,-9.26138,-17.0519,-7.83502,89.7468
2023-02-16 21:26:44:678,-1.32152,2.84294,-9.32603,-17.0499,-7.83591,89.7511
2023-02-16 21:26:44:688,-1.27403,2.85901,-9.35014,-17.0482,-7.84329,89.7551
2023-02-16 21:26:44:698,-1.24352,2.83729,-9.32117,-17.043,-7.85601,89.7544
2023-02-16 21:26:44:708,-1.2474,2.83421,-9.29384,-17.0419,-7.87056,89.7545
2023-02-16 21:26:44:718,-1.27755,2.84389,-9.28416,-17.0409,-7.88679,89.7607
2023-02-16 21:26:44:728,-1.28491,2.84328,-9.27954,-17.0403,-7.90366,89.7635
2023-02-16 21:26:44:738,-1.30167,2.84019,-9.25363,-17.0443,-7.9175,89.7691
2023-02-16 21:26:44:748,-1.31597,2.84287,-9.21697,-17.0514,-7.93025,89.7816
2023-02-16 21:26:44:758,-1.31508,2.85442,-9.20633,-17.0595,-7.94152,89.7944
2023-02-16 21:26:44:768,-1.32999,2.85412,-9.21274,-17.0682,-7.9488,89.811
2023-02-16 21:26:44:778,-1.36477,2.86205,-9.21169,-17.0734,-7.95304,89.8283
2023-02-16 21:26:44:788,-1.38599,2.86658,-9.21563,-17.0771,-7.9596,89.8476
2023-02-16 21:26:44:798,-1.3927,2.84202,-9.20902,-17.078,-7.96447,89.8653
2023-02-16 21:26:44:808,-1.39507,2.83544,-9.20889,-17.076,-7.96885,89.877
2023-02-16 21:26:44:818,-1.40122,2.83364,-9.20345,-17.0789,-7.97423,89.8883
2023-02-16 21:26:44:827,-1.41518,2.83454,-9.20956,-17.0808,-7.98127,89.8961
2023-02-16 21:26:44:838,-1.40673,2.85052,-9.22904,-17.0883,-7.98748,89.8992
2023-02-16 21:26:44:848,-1.3939,2.85587,-9.26216,-17.0986,-7.99274,89.9024
2023-02-16 21:26:44:858,-1.38507,2.86972,-9.2861,-17.108,-7.99715,89.901
2023-02-16 21:26:44:868,-1.35299,2.8799,-9.28843,-17.1171,-8.0046,89.9006
2023-02-16 21:26:44:878,-1.34321,2.86075,-9.26588,-17.1273,-8.00918,89.902
2023-02-16 21:26:44:888,-1.35332,2.8828,-9.27732,-17.1387,-8.01526,89.9068
2023-02-16 21:26:44:898,-1.35409,2.89774,-9.3144,-17.1499,-8.01536,89.909
2023-02-16 21:26:44:908,-1.33437,2.90348,-9.31869,-17.1528,-8.00953,89.9166
2023-02-16 21:26:44:918,-1.28884,2.89441,-9.29104,-17.1545,-8.00573,89.9206
2023-02-16 21:26:44:928,-1.29716,2.86276,-9.25752,-17.1589,-8.00471,89.925
2023-02-16 21:26:44:938,-1.32849,2.8548,-9.23816,-17.1609,-8.00426,89.9329
2023-02-16 21:26:44:948,-1.35605,2.85434,-9.2343,-17.1645,-8.00967,89.9371
2023-02-16 21:26:44:958,-1.35351,2.85035,-9.23203,-17.1701,-8.01277,89.9417
2023-02-16 21:26:44:968,-1.3469,2.85738,-9.24674,-17.1737,-8.01981,89.9465
2023-02-16 21:26:44:978,-1.34626,2.85537,-9.24747,-17.1819,-8.02606,89.9497
2023-02-16 21:26:44:988,-1.34241,2.85261,-9.24109,-17.1856,-8.02765,89.9566
2023-02-16 21:26:44:998,-1.323,2.86588,-9.2369,-17.1963,-8.03132,89.961
2023-02-16 21:26:45:8,-1.3252,2.8744,-9.24478,-17.2035,-8.03643,89.966
2023-02-16 21:26:45:18,-1.33208,2.89001,-9.2469,-17.2113,-8.04139,89.97
2023-02-16 21:26:45:28,-1.34252,2.9028,-9.2566,-17.2227,-8.0433,89.9757
2023-02-16 21:26:45:38,-1.3637,2.91334,-9.26164,-17.2322,-8.0467,89.9773
2023-02-16 21:26:45:48,-1.35953,2.90992,-9.26751,-17.2389,-8.05102,89.9843
2023-02-16 21:26:45:58,-1.34719,2.911,-9.28396,-17.2434,-8.05417,89.9879
2023-02-16 21:26:45:68,-1.34208,2.93598,-9.28991,-17.2485,-8.05868,89.9921
2023-02-16 21:26:45:78,-1.33983,2.92695,-9.28623,-17.251,-8.06424,89.9974
2023-02-16 21:26:45:88,-1.3445,2.91331,-9.27581,-17.253,-8.06909,90.0004
2023-02-16 21:26:45:98,-1.34309,2.92062,-9.25395,-17.2575,-8.0745,90.0046
2023-02-16 21:26:45:108,-1.35762,2.90952,-9.2371,-17.2584,-8.07594,90.0093
2023-02-16 21:26:45:118,-1.3582,2.90128,-9.24565,-17.2601,-8.0793,90.0163
2023-02-16 21:26:45:128,-1.35522,2.91014,-9.2605,-17.2624,-8.08102,90.022
2023-02-16 21:26:45:138,-1.34446,2.90868,-9.26345,-17.2579,-8.08128,90.0291
2023-02-16 21:26:45:148,-1.33304,2.91563,-9.25711,-17.2549,-8.08573,90.0329
2023-02-16 21:26:45:158,-1.3099,2.90601,-9.2474,-17.2515,-8.08816,90.0397
2023-02-16 21:26:45:168,-1.33131,2.88882,-9.2307,-17.2506,-8.09442,90.0484
2023-02-16 21:26:45:178,-1.35052,2.88229,-9.22316,-17.2497,-8.10128,90.0588
2023-02-16 21:26:45:188,-1.35499,2.88136,-9.21922,-17.2517,-8.10668,90.0687
2023-02-16 21:26:45:198,-1.36227,2.89219,-9.23794,-17.2521,-8.11234,90.0795
2023-02-16 21:26:45:208,-1.36901,2.88373,-9.23256,-17.2523,-8.12034,90.0896
2023-02-16 21:26:45:218,-1.36644,2.89133,-9.22596,-17.2548,-8.12859,90.0957
2023-02-16 21:26:45:228,-1.37188,2.88974,-9.21258,-17.2603,-8.1331,90.1021
2023-02-16 21:26:45:238,-1.38115,2.88616,-9.21889,-17.267,-8.13747,90.1058
2023-02-16 21:26:45:247,-1.37408,2.90948,-9.21088,-17.2765,-8.14279,90.1136
2023-02-16 21:26:45:258,-1.3792,2.91611,-9.21273,-17.2846,-8.14642,90.1219
2023-02-16 21:26:45:268,-1.39114,2.92736,-9.21907,-17.2955,-8.15416,90.1283
2023-02-16 21:26:45:278,-1.39736,2.93458,-9.24996,-17.304,-8.1626,90.1406
2023-02-16 21:26:45:288,-1.40803,2.93919,-9.26399,-17.3127,-8.17063,90.151
2023-02-16 21:26:45:298,-1.42466,2.95348,-9.2712,-17.3179,-8.17818,90.1598
2023-02-16 21:26:45:308,-1.45117,2.97326,-9.27272,-17.3242,-8.18292,90.1677
2023-02-16 21:26:45:318,-1.46711,2.96243,-9.28272,-17.3223,-8.18779,90.1765
2023-02-16 21:26:45:328,-1.46238,2.96549,-9.27127,-17.3209,-8.18909,90.1833
2023-02-16 21:26:45:338,-1.46076,2.95695,-9.25582,-17.3152,-8.19084,90.1875
2023-02-16 21:26:45:348,-1.47865,2.91497,-9.24115,-17.3054,-8.18562,90.1828
2023-02-16 21:26:45:358,-1.46658,2.89085,-9.23976,-17.2971,-8.18097,90.1754
2023-02-16 21:26:45:368,-1.43647,2.89222,-9.27701,-17.2871,-8.17607,90.1657
2023-02-16 21:26:45:378,-1.40086,2.90342,-9.30393,-17.2731,-8.16895,90.154
2023-02-16 21:26:45:388,-1.34471,2.88401,-9.30815,-17.259,-8.15872,90.1361
2023-02-16 21:26:45:398,-1.30497,2.8417,-9.27719,-17.2453,-8.15225,90.1196
2023-02-16 21:26:45:408,-1.2752,2.82447,-9.23562,-17.2326,-8.14975,90.1018
2023-02-16 21:26:45:418,-1.25931,2.81807,-9.23462,-17.2247,-8.15086,90.0877
2023-02-16 21:26:45:428,-1.25124,2.83174,-9.23997,-17.217,-8.15482,90.0753
2023-02-16 21:26:45:438,-1.24236,2.8534,-9.22832,-17.2172,-8.15576,90.0659
2023-02-16 21:26:45:448,-1.24837,2.85553,-9.22299,-17.219,-8.15849,90.0643
2023-02-16 21:26:45:458,-1.25229,2.87031,-9.21913,-17.2202,-8.16004,90.0654
2023-02-16 21:26:45:468,-1.26686,2.88141,-9.22285,-17.2239,-8.16455,90.0728
2023-02-16 21:26:45:478,-1.29566,2.88058,-9.23496,-17.2262,-8.16779,90.0834
2023-02-16 21:26:45:488,-1.35159,2.88989,-9.24213,-17.2254,-8.16812,90.0952
2023-02-16 21:26:45:498,-1.40217,2.8785,-9.22905,-17.2201,-8.17123,90.1096
2023-02-16 21:26:45:508,-1.40432,2.86352,-9.20672,-17.2185,-8.1732,90.1201
2023-02-16 21:26:45:518,-1.42939,2.85499,-9.20982,-17.2145,-8.17325,90.1302
2023-02-16 21:26:45:528,-1.4675,2.85409,-9.20942,-17.2085,-8.17164,90.1363
2023-02-16 21:26:45:538,-1.45779,2.84197,-9.21246,-17.2074,-8.16999,90.1393
2023-02-16 21:26:45:548,-1.43448,2.83647,-9.2186,-17.2101,-8.17245,90.137
2023-02-16 21:26:45:558,-1.41088,2.852,-9.23329,-17.2134,-8.17118,90.1284
2023-02-16 21:26:45:568,-1.37466,2.84761,-9.22301,-17.2182,-8.17112,90.1187
2023-02-16 21:26:45:578,-1.35137,2.8393,-9.19011,-17.228,-8.17509,90.106
2023-02-16 21:26:45:588,-1.34161,2.85166,-9.22029,-17.2415,-8.17244,90.0966
2023-02-16 21:26:45:598,-1.33208,2.8876,-9.25912,-17.2566,-8.17093,90.0859
2023-02-16 21:26:45:608,-1.29785,2.91806,-9.28244,-17.2701,-8.16537,90.0763
2023-02-16 21:26:45:618,-1.25781,2.91483,-9.28731,-17.2799,-8.16021,90.0731
2023-02-16 21:26:45:628,-1.24181,2.91233,-9.30077,-17.2884,-8.15827,90.0702
2023-02-16 21:26:45:638,-1.26698,2.91603,-9.30807,-17.2998,-8.15834,90.0723
2023-02-16 21:26:45:648,-1.3026,2.92143,-9.2919,-17.2998,-8.16382,90.0753
2023-02-16 21:26:45:658,-1.34172,2.92405,-9.27219,-17.3032,-8.1724,90.0812
2023-02-16 21:26:45:668,-1.38134,2.93592,-9.27947,-17.3044,-8.17673,90.0897
2023-02-16 21:26:45:678,-1.40581,2.94315,-9.26545,-17.3041,-8.18398,90.0984
2023-02-16 21:26:45:688,-1.41991,2.93579,-9.25252,-17.3051,-8.18903,90.1082
2023-02-16 21:26:45:698,-1.4358,2.92171,-9.24815,-17.3033,-8.19488,90.1164
2023-02-16 21:26:45:708,-1.4555,2.91956,-9.23909,-17.3039,-8.19867,90.1174
2023-02-16 21:26:45:718,-1.44337,2.91641,-9.2326,-17.301,-8.19965,90.1184
2023-02-16 21:26:45:728,-1.4245,2.90784,-9.22236,-17.3008,-8.20113,90.1144
2023-02-16 21:26:45:738,-1.4113,2.89059,-9.22476,-17.2988,-8.20427,90.1084
2023-02-16 21:26:45:748,-1.38859,2.89023,-9.23181,-17.2932,-8.20728,90.1015
2023-02-16 21:26:45:758,-1.37091,2.89836,-9.23804,-17.2896,-8.21226,90.0933
2023-02-16 21:26:45:768,-1.34833,2.88358,-9.26409,-17.2849,-8.21934,90.0831
2023-02-16 21:26:45:778,-1.33428,2.87646,-9.26177,-17.2807,-8.22757,90.0741
2023-02-16 21:26:45:788,-1.33786,2.88583,-9.25309,-17.2786,-8.23715,90.0719
2023-02-16 21:26:45:798,-1.36057,2.88692,-9.26659,-17.2755,-8.24714,90.0712
2023-02-16 21:26:45:808,-1.37123,2.89066,-9.26925,-17.2709,-8.25673,90.0669
2023-02-16 21:26:45:818,-1.38266,2.88444,-9.26513,-17.2638,-8.26222,90.0685
2023-02-16 21:26:45:828,-1.41558,2.89183,-9.25086,-17.2592,-8.26867,90.0701
2023-02-16 21:26:45:838,-1.41666,2.88099,-9.2318,-17.258,-8.27397,90.0751
2023-02-16 21:26:45:848,-1.42386,2.8733,-9.2217,-17.2532,-8.27903,90.0808
2023-02-16 21:26:45:858,-1.43951,2.86897,-9.22071,-17.2479,-8.28361,90.0846
2023-02-16 21:26:45:868,-1.44525,2.87747,-9.22978,-17.244,-8.29151,90.0905
2023-02-16 21:26:45:878,-1.44388,2.88199,-9.24661,-17.2423,-8.29564,90.0936
2023-02-16 21:26:45:888,-1.43691,2.88568,-9.24679,-17.2414,-8.30263,90.0949
2023-02-16 21:26:45:898,-1.43287,2.87933,-9.23966,-17.2399,-8.30826,90.0943
2023-02-16 21:26:45:908,-1.43165,2.87603,-9.24039,-17.2369,-8.31432,90.0943
2023-02-16 21:26:45:918,-1.43485,2.87936,-9.2243,-17.234,-8.31816,90.094
2023-02-16 21:26:45:928,-1.42821,2.87127,-9.21426,-17.2317,-8.32332,90.0886
2023-02-16 21:26:45:938,-1.42034,2.87287,-9.21346,-17.228,-8.32704,90.0851
2023-02-16 21:26:45:948,-1.41226,2.86105,-9.21909,-17.2245,-8.32512,90.0826
2023-02-16 21:26:45:958,-1.40474,2.85868,-9.21534,-17.2255,-8.32579,90.0809
2023-02-16 21:26:45:968,-1.40477,2.84992,-9.22754,-17.2252,-8.32165,90.0803
2023-02-16 21:26:45:978,-1.4053,2.8394,-9.22027,-17.2294,-8.31908,90.0802
2023-02-16 21:26:45:988,-1.42086,2.85241,-9.24768,-17.2322,-8.31336,90.0811
2023-02-16 21:26:45:998,-1.42096,2.88424,-9.2885,-17.2332,-8.3075,90.0768
2023-02-16 21:26:46:8,-1.41773,2.88233,-9.25582,-17.2348,-8.29607,90.0726
2023-02-16 21:26:46:18,-1.40842,2.86991,-9.23557,-17.2381,-8.28263,90.0671
2023-02-16 21:26:46:28,-1.40138,2.87688,-9.2355,-17.2394,-8.2695,90.0629
2023-02-16 21:26:46:38,-1.40199,2.87402,-9.22145,-17.2412,-8.25711,90.0553
2023-02-16 21:26:46:48,-1.38966,2.86483,-9.19353,-17.2406,-8.24952,90.0452
2023-02-16 21:26:46:58,-1.37763,2.86558,-9.23097,-17.2437,-8.24058,90.036
2023-02-16 21:26:46:68,-1.35216,2.88797,-9.28118,-17.2452,-8.23389,90.0241
2023-02-16 21:26:46:78,-1.30297,2.89288,-9.3029,-17.244,-8.22431,90.013
2023-02-16 21:26:46:88,-1.26215,2.8648,-9.26633,-17.2455,-8.2173,89.9983
2023-02-16 21:26:46:98,-1.23234,2.84592,-9.23157,-17.2494,-8.21728,89.9882
2023-02-16 21:26:46:108,-1.24561,2.85866,-9.23166,-17.2536,-8.22077,89.9819
2023-02-16 21:26:46:118,-1.2955,2.86845,-9.23768,-17.2628,-8.22839,89.9869
2023-02-16 21:26:46:128,-1.32298,2.87721,-9.2238,-17.2743,-8.2319,89.9908
2023-02-16 21:26:46:138,-1.33251,2.89185,-9.22719,-17.2883,-8.23637,89.9979
2023-02-16 21:26:46:148,-1.36443,2.91829,-9.25888,-17.3018,-8.23608,90.0037
2023-02-16 21:26:46:158,-1.37698,2.94965,-9.27595,-17.3159,-8.23284,90.0136
2023-02-16 21:26:46:168,-1.40153,2.96422,-9.27723,-17.3277,-8.22819,90.025
2023-02-16 21:26:46:178,-1.40775,2.96816,-9.25584,-17.3343,-8.22312,90.0322
2023-02-16 21:26:46:188,-1.41243,2.96064,-9.24309,-17.3372,-8.22145,90.0352
2023-02-16 21:26:46:198,-1.41282,2.94235,-9.23407,-17.3389,-8.21991,90.0347
2023-02-16 21:26:46:208,-1.41209,2.93163,-9.22104,-17.3387,-8.21881,90.0315
2023-02-16 21:26:46:218,-1.40762,2.92376,-9.23265,-17.3373,-8.21645,90.0251
2023-02-16 21:26:46:228,-1.39858,2.92533,-9.23763,-17.3351,-8.21602,90.0201
2023-02-16 21:26:46:238,-1.38425,2.9172,-9.24277,-17.3371,-8.21365,90.0119
2023-02-16 21:26:46:248,-1.36124,2.91431,-9.26523,-17.3356,-8.20996,90.0024
2023-02-16 21:26:46:258,-1.34163,2.93309,-9.27372,-17.3373,-8.2093,89.993
2023-02-16 21:26:46:268,-1.32573,2.91485,-9.24879,-17.3383,-8.20645,89.9859
2023-02-16 21:26:46:278,-1.33127,2.90519,-9.24431,-17.3377,-8.20165,89.9835
2023-02-16 21:26:46:288,-1.33494,2.9269,-9.25583,-17.3358,-8.19689,89.9798
2023-02-16 21:26:46:298,-1.3376,2.92383,-9.28029,-17.3346,-8.18823,89.9805
2023-02-16 21:26:46:308,-1.31144,2.91966,-9.26983,-17.3323,-8.17995,89.9796
2023-02-16 21:26:46:318,-1.29526,2.89435,-9.2577,-17.3284,-8.174,89.9755
2023-02-16 21:26:46:328,-1.30904,2.88723,-9.24462,-17.3228,-8.17088,89.9784
2023-02-16 21:26:46:338,-1.32903,2.90227,-9.23791,-17.3243,-8.17053,89.9817
2023-02-16 21:26:46:348,-1.34107,2.90817,-9.25169,-17.3241,-8.17275,89.9843
2023-02-16 21:26:46:358,-1.35661,2.90983,-9.26371,-17.3246,-8.1743,89.9892
2023-02-16 21:26:46:368,-1.36782,2.91085,-9.26717,-17.3253,-8.17588,89.9903
2023-02-16 21:26:46:378,-1.37425,2.92408,-9.26571,-17.3254,-8.17735,89.9939
2023-02-16 21:26:46:388,-1.36776,2.92519,-9.25742,-17.3245,-8.17841,89.9966
2023-02-16 21:26:46:398,-1.36652,2.92877,-9.26118,-17.3199,-8.17686,89.999
2023-02-16 21:26:46:408,-1.37264,2.9428,-9.24966,-17.3165,-8.18079,90.0029
2023-02-16 21:26:46:418,-1.36899,2.92896,-9.24664,-17.3104,-8.18198,90.0076
2023-02-16 21:26:46:428,-1.35666,2.91431,-9.24482,-17.302,-8.18462,90.0094
2023-02-16 21:26:46:438,-1.35808,2.91895,-9.23582,-17.2964,-8.18829,90.0156
2023-02-16 21:26:46:448,-1.38378,2.90525,-9.24239,-17.2881,-8.19297,90.0151
2023-02-16 21:26:46:458,-1.38282,2.90121,-9.23629,-17.2852,-8.19936,90.0163
2023-02-16 21:26:46:468,-1.36646,2.89255,-9.24826,-17.2771,-8.20306,90.016
2023-02-16 21:26:46:478,-1.37772,2.9127,-9.2644,-17.2735,-8.2089,90.0195
2023-02-16 21:26:46:488,-1.38963,2.91027,-9.26808,-17.2668,-8.21575,90.0225
2023-02-16 21:26:46:498,-1.3824,2.8972,-9.25802,-17.2562,-8.22193,90.0257
2023-02-16 21:26:46:508,-1.37388,2.89237,-9.26174,-17.2481,-8.22997,90.0288
2023-02-16 21:26:46:518,-1.38331,2.88903,-9.25708,-17.2421,-8.23831,90.039
2023-02-16 21:26:46:528,-1.38789,2.87686,-9.24464,-17.2334,-8.24177,90.0446
2023-02-16 21:26:46:538,-1.39215,2.86558,-9.23098,-17.2242,-8.2455,90.0479
2023-02-16 21:26:46:548,-1.39324,2.86552,-9.22756,-17.2186,-8.24615,90.0509
2023-02-16 21:26:46:558,-1.41013,2.86277,-9.23021,-17.2109,-8.25046,90.057
2023-02-16 21:26:46:568,-1.41085,2.86448,-9.20586,-17.2056,-8.25487,90.0593
2023-02-16 21:26:46:578,-1.39856,2.8485,-9.21005,-17.1974,-8.25864,90.0601
2023-02-16 21:26:46:588,-1.38491,2.85114,-9.22173,-17.1969,-8.26243,90.06
2023-02-16 21:26:46:598,-1.37639,2.84346,-9.24028,-17.1923,-8.26459,90.0631
2023-02-16 21:26:46:608,-1.36087,2.84597,-9.25961,-17.1845,-8.26738,90.0599
2023-02-16 21:26:46:618,-1.3616,2.84709,-9.24954,-17.1827,-8.27186,90.0607
2023-02-16 21:26:46:628,-1.3722,2.85969,-9.22547,-17.1808,-8.27998,90.0621
2023-02-16 21:26:46:638,-1.37313,2.864,-9.24894,-17.1799,-8.28839,90.0642
2023-02-16 21:26:46:648,-1.37764,2.86851,-9.24583,-17.1797,-8.29759,90.0651
2023-02-16 21:26:46:658,-1.39442,2.86651,-9.23364,-17.1837,-8.30829,90.0658
2023-02-16 21:26:46:668,-1.38634,2.87245,-9.25542,-17.1847,-8.31463,90.0662
2023-02-16 21:26:46:678,-1.37929,2.8846,-9.24914,-17.1839,-8.32232,90.0672
2023-02-16 21:26:46:688,-1.39437,2.88737,-9.2529,-17.1859,-8.32753,90.0716
2023-02-16 21:26:46:698,-1.40722,2.88398,-9.28618,-17.1871,-8.333,90.0758
2023-02-16 21:26:46:708,-1.41936,2.89543,-9.28765,-17.1875,-8.33591,90.0814
2023-02-16 21:26:46:718,-1.43548,2.88724,-9.28809,-17.1825,-8.33879,90.0818
2023-02-16 21:26:46:728,-1.44045,2.86143,-9.26267,-17.1821,-8.34012,90.084
2023-02-16 21:26:46:738,-1.451,2.8611,-9.24262,-17.1775,-8.34323,90.0901
2023-02-16 21:26:46:748,-1.43876,2.84119,-9.23607,-17.17,-8.34486,90.093
2023-02-16 21:26:46:758,-1.42691,2.7971,-9.21503,-17.1623,-8.34319,90.0919
2023-02-16 21:26:46:768,-1.40551,2.79129,-9.2305,-17.1549,-8.34259,90.0892
2023-02-16 21:26:46:778,-1.37234,2.81536,-9.28274,-17.1516,-8.34022,90.0881
2023-02-16 21:26:46:788,-1.34064,2.83141,-9.34425,-17.1456,-8.33777,90.086
2023-02-16 21:26:46:798,-1.31337,2.83926,-9.33646,-17.1379,-8.33912,90.0835
2023-02-16 21:26:46:808,-1.30615,2.82449,-9.28786,-17.1311,-8.34393,90.0887
2023-02-16 21:26:46:818,-1.34544,2.80532,-9.26568,-17.1266,-8.35057,90.0923
2023-02-16 21:26:46:828,-1.38368,2.79907,-9.24366,-17.122,-8.3543,90.1034
2023-02-16 21:26:46:838,-1.39971,2.81768,-9.21932,-17.1262,-8.3613,90.1139
2023-02-16 21:26:46:848,-1.41002,2.8321,-9.21028,-17.133,-8.36316,90.1246
2023-02-16 21:26:46:858,-1.42545,2.85236,-9.20186,-17.1404,-8.36564,90.1376
2023-02-16 21:26:46:868,-1.43233,2.86159,-9.18934,-17.1484,-8.36579,90.1485
2023-02-16 21:26:46:878,-1.45522,2.85936,-9.1972,-17.1573,-8.36616,90.1602
2023-02-16 21:26:46:888,-1.44759,2.86701,-9.203,-17.161,-8.37087,90.1698
2023-02-16 21:26:46:898,-1.44001,2.85977,-9.2071,-17.1647,-8.37331,90.174
2023-02-16 21:26:46:908,-1.42832,2.84465,-9.19376,-17.1668,-8.37721,90.1755
2023-02-16 21:26:46:918,-1.41112,2.84664,-9.20531,-17.1714,-8.37952,90.1755
2023-02-16 21:26:46:928,-1.40317,2.84905,-9.227,-17.1756,-8.38201,90.1812
2023-02-16 21:26:46:938,-1.39394,2.8483,-9.24072,-17.183,-8.38745,90.1834
2023-02-16 21:26:46:948,-1.39171,2.86707,-9.26047,-17.1896,-8.39319,90.1855
2023-02-16 21:26:46:958,-1.38466,2.87051,-9.27315,-17.1972,-8.39462,90.1913
2023-02-16 21:26:46:968,-1.3761,2.88766,-9.26358,-17.2075,-8.39859,90.2
2023-02-16 21:26:46:978,-1.39068,2.90441,-9.2528,-17.2184,-8.40003,90.2094
2023-02-16 21:26:46:988,-1.41595,2.91956,-9.25237,-17.2272,-8.40079,90.2194
2023-02-16 21:26:46:998,-1.4547,2.95246,-9.28808,-17.2341,-8.39835,90.2277
2023-02-16 21:26:47:8,-1.47396,2.97416,-9.3306,-17.2389,-8.39356,90.2361
2023-02-16 21:26:47:18,-1.42769,2.97081,-9.35192,-17.2384,-8.38771,90.2393
2023-02-16 21:26:47:28,-1.39904,2.96415,-9.34423,-17.2321,-8.38464,90.2426
2023-02-16 21:26:47:38,-1.40479,2.94025,-9.31427,-17.2193,-8.38347,90.2436
2023-02-16 21:26:47:48,-1.40685,2.92551,-9.3339,-17.2022,-8.3889,90.2426
2023-02-16 21:26:47:58,-1.40178,2.95858,-9.3389,-17.1857,-8.39248,90.2422
2023-02-16 21:26:47:68,-1.40449,2.92183,-9.3012,-17.1628,-8.39166,90.2436
2023-02-16 21:26:47:78,-1.40503,2.89541,-9.25504,-17.1362,-8.38924,90.2462
2023-02-16 21:26:47:88,-1.40461,2.87682,-9.22297,-17.1117,-8.38392,90.2466
2023-02-16 21:26:47:98,-1.40089,2.87161,-9.21341,-17.0908,-8.37773,90.2508
2023-02-16 21:26:47:108,-1.38639,2.85316,-9.20439,-17.0699,-8.37197,90.2528
2023-02-16 21:26:47:118,-1.36781,2.8447,-9.20088,-17.0534,-8.36848,90.2594
2023-02-16 21:26:47:128,-1.3646,2.84476,-9.22389,-17.0383,-8.36639,90.2658
2023-02-16 21:26:47:138,-1.38647,2.85572,-9.25666,-17.0207,-8.36758,90.2734
2023-02-16 21:26:47:148,-1.4209,2.86255,-9.25293,-17.0038,-8.37283,90.2786
2023-02-16 21:26:47:158,-1.43678,2.83856,-9.24485,-16.9885,-8.37852,90.2886
