Timestamp,Acceleration_x,Acceleration_y,Acceleration_z,roll,pitch,yaw
2023-02-16 17:22:47:798,-1.20029,2.78346,-9.31044,-16.1289,-6.7675,-5.59793
2023-02-16 17:22:47:807,-1.18238,2.81624,-9.36404,-16.144,-6.75771,-5.63364
2023-02-16 17:22:47:817,-1.16734,2.83754,-9.39944,-16.1536,-6.7524,-5.67529
2023-02-16 17:22:47:827,-1.16626,2.82909,-9.43528,-16.1568,-6.74134,-5.71414
2023-02-16 17:22:47:837,-1.16678,2.82717,-9.46521,-16.1551,-6.72815,-5.75344
2023-02-16 17:22:47:847,-1.17157,2.82431,-9.43967,-16.1497,-6.71541,-5.79413
2023-02-16 17:22:47:857,-1.1579,2.78239,-9.40965,-16.1379,-6.69683,-5.83032
2023-02-16 17:22:47:867,-1.14612,2.76153,-9.43272,-16.1226,-6.67704,-5.86664
2023-02-16 17:22:47:877,-1.13394,2.74486,-9.46425,-16.1004,-6.65547,-5.90633
2023-02-16 17:22:47:887,-1.12543,2.7268,-9.39421,-16.0741,-6.63532,-5.94604
2023-02-16 17:22:47:897,-1.10417,2.68081,-9.33082,-16.0448,-6.61445,-5.9859
2023-02-16 17:22:47:907,-1.07829,2.65886,-9.3192,-16.0155,-6.59615,-6.02721
2023-02-16 17:22:47:917,-1.08891,2.65056,-9.293,-15.9888,-6.58653,-6.06815
2023-02-16 17:22:47:927,-1.10799,2.64037,-9.2719,-15.9619,-6.58192,-6.11225
2023-02-16 17:22:47:937,-1.12312,2.61623,-9.26196,-15.9368,-6.57718,-6.15377
2023-02-16 17:22:47:947,-1.10928,2.5964,-9.26672,-15.914,-6.57525,-6.19693
2023-02-16 17:22:47:957,-1.10433,2.60237,-9.28765,-15.8959,-6.57867,-6.24226
2023-02-16 17:22:47:967,-1.10163,2.60038,-9.31694,-15.8778,-6.58702,-6.28681
2023-02-16 17:22:47:977,-1.12533,2.59241,-9.32963,-15.8648,-6.59744,-6.33006
2023-02-16 17:22:47:987,-1.12961,2.58361,-9.28589,-15.8526,-6.60718,-6.37312
2023-02-16 17:22:47:997,-1.11363,2.59537,-9.27945,-15.8462,-6.61535,-6.41379
2023-02-16 17:22:48:7,-1.07704,2.59578,-9.32244,-15.8434,-6.62477,-6.45159
2023-02-16 17:22:48:17,-1.06747,2.61359,-9.35201,-15.8433,-6.63017,-6.48727
2023-02-16 17:22:48:27,-1.05586,2.62168,-9.36354,-15.845,-6.63427,-6.52031
2023-02-16 17:22:48:37,-1.019,2.60324,-9.35644,-15.8451,-6.63362,-6.5487
2023-02-16 17:22:48:47,-0.981005,2.58506,-9.34449,-15.8461,-6.63044,-6.57075
2023-02-16 17:22:48:57,-0.970307,2.58451,-9.34493,-15.8463,-6.62343,-6.58979
2023-02-16 17:22:48:67,-0.966367,2.58401,-9.35689,-15.8474,-6.61592,-6.59836
2023-02-16 17:22:48:77,-0.944668,2.57852,-9.36375,-15.8519,-6.60408,-6.60055
2023-02-16 17:22:48:87,-0.911647,2.58277,-9.3762,-15.8563,-6.59135,-6.60143
2023-02-16 17:22:48:97,-0.890425,2.57712,-9.38151,-15.8572,-6.58032,-6.5936
2023-02-16 17:22:48:107,-0.892098,2.57931,-9.36747,-15.8608,-6.57066,-6.57572
2023-02-16 17:22:48:117,-0.895775,2.56498,-9.37595,-15.865,-6.56096,-6.55221
2023-02-16 17:22:48:127,-0.895702,2.56101,-9.4131,-15.8689,-6.55396,-6.5233
2023-02-16 17:22:48:137,-0.909083,2.55505,-9.46666,-15.8746,-6.54977,-6.48914
2023-02-16 17:22:48:147,-0.93415,2.55343,-9.5086,-15.8791,-6.54464,-6.44904
2023-02-16 17:22:48:157,-0.94958,2.55569,-9.52614,-15.8826,-6.54524,-6.40271
2023-02-16 17:22:48:167,-0.988596,2.54205,-9.49474,-15.8806,-6.54968,-6.3547
2023-02-16 17:22:48:177,-1.02353,2.53526,-9.44922,-15.8754,-6.55577,-6.30391
2023-02-16 17:22:48:187,-1.05618,2.55526,-9.41043,-15.8713,-6.5613,-6.2498
2023-02-16 17:22:48:197,-1.08459,2.54096,-9.38158,-15.8634,-6.5616,-6.19971
2023-02-16 17:22:48:207,-1.11812,2.51267,-9.31689,-15.8543,-6.56047,-6.14783
2023-02-16 17:22:48:217,-1.11817,2.51498,-9.27664,-15.8493,-6.56089,-6.0993
2023-02-16 17:22:48:227,-1.12427,2.52932,-9.3191,-15.8457,-6.55746,-6.05643
2023-02-16 17:22:48:237,-1.16306,2.54217,-9.35463,-15.8456,-6.55666,-6.01343
2023-02-16 17:22:48:247,-1.17276,2.54825,-9.34539,-15.8486,-6.55597,-5.97239
2023-02-16 17:22:48:257,-1.1724,2.56613,-9.33615,-15.8482,-6.55699,-5.94185
2023-02-16 17:22:48:267,-1.16754,2.57425,-9.30256,-15.8498,-6.56107,-5.91619
2023-02-16 17:22:48:277,-1.14006,2.56698,-9.29039,-15.852,-6.56629,-5.89393
2023-02-16 17:22:48:287,-1.14006,2.58472,-9.30866,-15.8571,-6.56931,-5.87704
2023-02-16 17:22:48:297,-1.1319,2.60099,-9.32238,-15.8621,-6.57076,-5.85989
2023-02-16 17:22:48:307,-1.09855,2.62146,-9.35255,-15.8722,-6.57001,-5.84745
2023-02-16 17:22:48:317,-1.06979,2.6433,-9.37114,-15.8838,-6.56848,-5.84074
2023-02-16 17:22:48:327,-1.01465,2.64846,-9.35956,-15.8982,-6.56655,-5.83534
2023-02-16 17:22:48:337,-0.994963,2.6549,-9.35711,-15.912,-6.56908,-5.8304
2023-02-16 17:22:48:347,-0.998609,2.67076,-9.35877,-15.9284,-6.57057,-5.82036
2023-02-16 17:22:48:357,-1.00302,2.69175,-9.37125,-15.9504,-6.57855,-5.80555
2023-02-16 17:22:48:367,-0.995757,2.72992,-9.39124,-15.9742,-6.58167,-5.78833
2023-02-16 17:22:48:377,-1.00241,2.76703,-9.42309,-15.9983,-6.59201,-5.76721
2023-02-16 17:22:48:387,-1.0246,2.801,-9.43456,-16.0174,-6.60343,-5.74536
2023-02-16 17:22:48:397,-1.0498,2.79798,-9.41967,-16.0277,-6.61645,-5.72187
2023-02-16 17:22:48:407,-1.06933,2.79018,-9.36895,-16.0361,-6.6307,-5.69423
2023-02-16 17:22:48:417,-1.10789,2.76788,-9.32801,-16.0393,-6.65019,-5.6679
2023-02-16 17:22:48:427,-1.16272,2.75039,-9.26324,-16.0411,-6.67297,-5.64092
2023-02-16 17:22:48:437,-1.2077,2.74933,-9.23323,-16.041,-6.69266,-5.60989
2023-02-16 17:22:48:447,-1.23223,2.74786,-9.23515,-16.0423,-6.71155,-5.58443
2023-02-16 17:22:48:457,-1.25699,2.76042,-9.26669,-16.0462,-6.72666,-5.5633
2023-02-16 17:22:48:467,-1.28616,2.76937,-9.3217,-16.0473,-6.74315,-5.54314
2023-02-16 17:22:48:477,-1.29449,2.77165,-9.34686,-16.0468,-6.75635,-5.52452
2023-02-16 17:22:48:487,-1.29432,2.77915,-9.37312,-16.0511,-6.76605,-5.51162
2023-02-16 17:22:48:497,-1.29049,2.79136,-9.41112,-16.0508,-6.77562,-5.50199
2023-02-16 17:22:48:507,-1.26582,2.77515,-9.38305,-16.0475,-6.77927,-5.49333
2023-02-16 17:22:48:517,-1.26053,2.75934,-9.35552,-16.0449,-6.78698,-5.48999
2023-02-16 17:22:48:527,-1.28345,2.76441,-9.36195,-16.0393,-6.78662,-5.49424
2023-02-16 17:22:48:537,-1.29274,2.76218,-9.36997,-16.0311,-6.78215,-5.49799
2023-02-16 17:22:48:547,-1.26072,2.77559,-9.39998,-16.021,-6.77517,-5.50683
2023-02-16 17:22:48:557,-1.19281,2.77806,-9.40582,-16.0085,-6.76489,-5.5189
2023-02-16 17:22:48:567,-1.1618,2.7653,-9.38887,-15.9923,-6.76115,-5.53155
2023-02-16 17:22:48:577,-1.16217,2.75396,-9.38321,-15.9706,-6.75891,-5.54035
2023-02-16 17:22:48:587,-1.18945,2.73692,-9.36564,-15.9453,-6.7632,-5.55236
2023-02-16 17:22:48:597,-1.2137,2.70808,-9.34138,-15.921,-6.77087,-5.56722
2023-02-16 17:22:48:607,-1.22656,2.70761,-9.31941,-15.9008,-6.77108,-5.58268
2023-02-16 17:22:48:617,-1.20282,2.70296,-9.32061,-15.8813,-6.77238,-5.59805
2023-02-16 17:22:48:627,-1.16808,2.70903,-9.31532,-15.8599,-6.76708,-5.61174
2023-02-16 17:22:48:637,-1.16571,2.70562,-9.34617,-15.8405,-6.75939,-5.62531
2023-02-16 17:22:48:647,-1.15997,2.70975,-9.38201,-15.8221,-6.75201,-5.63923
2023-02-16 17:22:48:657,-1.16737,2.71377,-9.36921,-15.8067,-6.74309,-5.65227
2023-02-16 17:22:48:667,-1.15778,2.69461,-9.33911,-15.7884,-6.73134,-5.66532
2023-02-16 17:22:48:677,-1.12878,2.67961,-9.30062,-15.7734,-6.72519,-5.67748
2023-02-16 17:22:48:687,-1.10076,2.69329,-9.29554,-15.7641,-6.72054,-5.68957
2023-02-16 17:22:48:697,-1.068,2.70389,-9.29488,-15.7561,-6.71644,-5.7016
2023-02-16 17:22:48:707,-1.03614,2.71109,-9.2989,-15.7484,-6.71382,-5.70827
2023-02-16 17:22:48:717,-1.03846,2.71264,-9.32599,-15.7426,-6.71494,-5.71574
2023-02-16 17:22:48:727,-1.04409,2.71794,-9.38723,-15.7349,-6.7241,-5.71372
2023-02-16 17:22:48:737,-1.0878,2.71199,-9.36532,-15.7243,-6.73874,-5.71237
2023-02-16 17:22:48:747,-1.18119,2.67279,-9.2455,-15.7135,-6.76031,-5.70488
2023-02-16 17:22:48:757,-1.27068,2.65354,-9.13864,-15.7072,-6.77551,-5.6997
2023-02-16 17:22:48:767,-1.33407,2.68318,-9.14844,-15.7116,-6.78457,-5.69805
2023-02-16 17:22:48:777,-1.36291,2.75031,-9.20674,-15.727,-6.79003,-5.70288
2023-02-16 17:22:48:787,-1.37269,2.78103,-9.25371,-15.7457,-6.79389,-5.71956
2023-02-16 17:22:48:797,-1.394,2.80345,-9.28833,-15.764,-6.80103,-5.74399
2023-02-16 17:22:48:807,-1.42893,2.80528,-9.26825,-15.7885,-6.80794,-5.78294
2023-02-16 17:22:48:817,-1.41746,2.81517,-9.25414,-15.8111,-6.81437,-5.83306
2023-02-16 17:22:48:827,-1.34574,2.82399,-9.24787,-15.8408,-6.82552,-5.89222
2023-02-16 17:22:48:837,-1.26889,2.83873,-9.27447,-15.8778,-6.84047,-5.9619
2023-02-16 17:22:48:847,-1.18722,2.8575,-9.30789,-15.916,-6.8571,-6.02952
2023-02-16 17:22:48:857,-1.12448,2.87731,-9.29086,-15.9614,-6.87551,-6.09997
2023-02-16 17:22:48:867,-1.06933,2.85305,-9.22647,-16.0083,-6.89022,-6.16815
2023-02-16 17:22:48:877,-1.04617,2.8367,-9.20732,-16.0563,-6.89799,-6.22564
2023-02-16 17:22:48:887,-1.0566,2.87268,-9.26071,-16.1085,-6.90297,-6.27361
2023-02-16 17:22:48:897,-1.0459,2.90394,-9.35464,-16.1597,-6.90522,-6.31458
2023-02-16 17:22:48:907,-1.01546,2.89679,-9.40084,-16.2056,-6.90089,-6.34536
2023-02-16 17:22:48:917,-1.00957,2.85011,-9.36091,-16.2469,-6.88975,-6.36747
2023-02-16 17:22:48:927,-1.00421,2.81101,-9.27685,-16.2876,-6.87956,-6.37743
2023-02-16 17:22:48:937,-0.940769,2.77167,-9.22432,-16.3246,-6.87343,-6.37936
2023-02-16 17:22:48:947,-0.922848,2.75463,-9.25242,-16.3625,-6.87015,-6.37035
2023-02-16 17:22:48:957,-0.940133,2.73269,-9.25943,-16.4018,-6.87917,-6.3478
2023-02-16 17:22:48:967,-0.99717,2.72474,-9.24638,-16.4437,-6.89291,-6.31549
2023-02-16 17:22:48:977,-1.09232,2.73756,-9.26761,-16.486,-6.91239,-6.27652
2023-02-16 17:22:48:987,-1.2325,2.7399,-9.29868,-16.5284,-6.93488,-6.23675
2023-02-16 17:22:48:997,-1.36848,2.74913,-9.33066,-16.5618,-6.95669,-6.20646
2023-02-16 17:22:49:7,-1.369,2.73689,-9.38976,-16.5837,-6.96968,-6.1908
2023-02-16 17:22:49:17,-1.23935,2.69472,-9.45964,-16.5905,-6.98348,-6.18786
2023-02-16 17:22:49:27,-1.07425,2.65151,-9.53069,-16.5828,-7.00913,-6.19575
2023-02-16 17:22:49:37,-0.973749,2.62222,-9.57144,-16.568,-7.05173,-6.20157
2023-02-16 17:22:49:47,-0.965087,2.6026,-9.54822,-16.5535,-7.11585,-6.20939
2023-02-16 17:22:49:57,-1.02185,2.60761,-9.48768,-16.5368,-7.20211,-6.22015
2023-02-16 17:22:49:67,-1.13232,2.61667,-9.38813,-16.5242,-7.30153,-6.23299
2023-02-16 17:22:49:77,-1.21301,2.61385,-9.27252,-16.5162,-7.40461,-6.25373
2023-02-16 17:22:49:87,-1.23678,2.62657,-9.21236,-16.5127,-7.50358,-6.28191
2023-02-16 17:22:49:97,-1.24,2.63296,-9.17405,-16.5142,-7.59226,-6.31405
2023-02-16 17:22:49:107,-1.23673,2.62395,-9.22947,-16.5142,-7.67483,-6.34574
2023-02-16 17:22:49:117,-1.24927,2.6583,-9.44093,-16.5137,-7.75174,-6.37439
2023-02-16 17:22:49:127,-1.29694,2.68847,-9.62156,-16.502,-7.81996,-6.40394
2023-02-16 17:22:49:137,-1.36773,2.65992,-9.69087,-16.4762,-7.88056,-6.43529
2023-02-16 17:22:49:147,-1.40964,2.65329,-9.67597,-16.4299,-7.92862,-6.46671
2023-02-16 17:22:49:157,-1.43365,2.57093,-9.52208,-16.3748,-7.96476,-6.50166
2023-02-16 17:22:49:167,-1.40691,2.49428,-9.32808,-16.317,-7.9875,-6.53869
2023-02-16 17:22:49:177,-1.34819,2.48305,-9.23873,-16.267,-8.00011,-6.57794
2023-02-16 17:22:49:187,-1.31563,2.46984,-9.19679,-16.2242,-8.00868,-6.61377
2023-02-16 17:22:49:197,-1.30413,2.52663,-9.20321,-16.1913,-8.02075,-6.64649
2023-02-16 17:22:49:207,-1.31663,2.61461,-9.19987,-16.1696,-8.02926,-6.67577
2023-02-16 17:22:49:217,-1.38212,2.66377,-9.17167,-16.1512,-8.03338,-6.70053
2023-02-16 17:22:49:227,-1.45657,2.7109,-9.14866,-16.1377,-8.02023,-6.72753
2023-02-16 17:22:49:237,-1.47863,2.73934,-9.16146,-16.1203,-7.98965,-6.75471
2023-02-16 17:22:49:247,-1.42663,2.758,-9.2384,-16.1004,-7.95805,-6.7892
2023-02-16 17:22:49:257,-1.31138,2.75735,-9.37123,-16.0762,-7.93541,-6.82531
2023-02-16 17:22:49:267,-1.19911,2.76004,-9.58894,-16.0438,-7.92533,-6.85945
2023-02-16 17:22:49:277,-1.16287,2.81629,-9.86374,-16.002,-7.94319,-6.88274
2023-02-16 17:22:49:287,-1.21905,2.85486,-9.88023,-15.945,-7.98951,-6.89691
2023-02-16 17:22:49:297,-1.34291,2.73488,-9.59908,-15.875,-8.05122,-6.90482
2023-02-16 17:22:49:307,-1.45708,2.62618,-9.28042,-15.7978,-8.12508,-6.90878
2023-02-16 17:22:49:317,-1.53521,2.59159,-9.17174,-15.7225,-8.19363,-6.90953
2023-02-16 17:22:49:327,-1.58255,2.58627,-9.21542,-15.6452,-8.25575,-6.91121
2023-02-16 17:22:49:337,-1.62903,2.59274,-9.29701,-15.5766,-8.30353,-6.91233
2023-02-16 17:22:49:347,-1.64673,2.57982,-9.30878,-15.5061,-8.33114,-6.9128
2023-02-16 17:22:49:357,-1.58536,2.55759,-9.29397,-15.4451,-8.34365,-6.91098
2023-02-16 17:22:49:367,-1.4954,2.54299,-9.29029,-15.3848,-8.34753,-6.90839
2023-02-16 17:22:49:377,-1.47638,2.55537,-9.29728,-15.3282,-8.34131,-6.90093
2023-02-16 17:22:49:387,-1.50687,2.55099,-9.31212,-15.2712,-8.32293,-6.88983
2023-02-16 17:22:49:397,-1.51363,2.54227,-9.29869,-15.2123,-8.29615,-6.87737
2023-02-16 17:22:49:407,-1.48125,2.51748,-9.29282,-15.1542,-8.26016,-6.86505
2023-02-16 17:22:49:417,-1.46487,2.48681,-9.28967,-15.0927,-8.21771,-6.85382
2023-02-16 17:22:49:427,-1.49064,2.45112,-9.28038,-15.0356,-8.17006,-6.8445
2023-02-16 17:22:49:437,-1.47667,2.42528,-9.29444,-14.9783,-8.11365,-6.83973
2023-02-16 17:22:49:447,-1.41395,2.39278,-9.3015,-14.9251,-8.04914,-6.83894
2023-02-16 17:22:49:457,-1.3487,2.36146,-9.26039,-14.8728,-7.98434,-6.84389
2023-02-16 17:22:49:467,-1.28629,2.34286,-9.24349,-14.8301,-7.92038,-6.85073
2023-02-16 17:22:49:477,-1.21675,2.336,-9.27413,-14.7941,-7.86516,-6.85804
2023-02-16 17:22:49:487,-1.18539,2.3318,-9.30098,-14.7649,-7.81793,-6.86892
2023-02-16 17:22:49:497,-1.19307,2.30702,-9.23869,-14.7431,-7.77761,-6.8783
2023-02-16 17:22:49:507,-1.20493,2.26948,-9.18936,-14.7308,-7.7432,-6.88905
2023-02-16 17:22:49:517,-1.22094,2.30114,-9.25119,-14.7301,-7.71296,-6.90228
2023-02-16 17:22:49:527,-1.26495,2.33182,-9.30429,-14.7324,-7.68647,-6.92148
2023-02-16 17:22:49:537,-1.30298,2.3344,-9.29945,-14.7412,-7.6581,-6.94663
2023-02-16 17:22:49:547,-1.29224,2.3404,-9.33269,-14.7504,-7.62564,-6.9784
2023-02-16 17:22:49:557,-1.27677,2.37543,-9.38602,-14.7644,-7.59105,-7.02049
2023-02-16 17:22:49:567,-1.2334,2.36482,-9.38189,-14.7745,-7.54916,-7.06696
2023-02-16 17:22:49:577,-1.15299,2.36655,-9.35984,-14.7879,-7.5112,-7.12056
2023-02-16 17:22:49:587,-1.08516,2.37678,-9.3374,-14.8076,-7.47813,-7.17479
2023-02-16 17:22:49:597,-1.04255,2.40276,-9.32856,-14.83,-7.45516,-7.23003
2023-02-16 17:22:49:607,-1.03665,2.43168,-9.33201,-14.8627,-7.43926,-7.28276
2023-02-16 17:22:49:617,-1.05455,2.48048,-9.37524,-14.8981,-7.43108,-7.33455
2023-02-16 17:22:49:627,-1.09179,2.52528,-9.45721,-14.9256,-7.42907,-7.3896
2023-02-16 17:22:49:637,-1.1227,2.53628,-9.49492,-14.9468,-7.42462,-7.45019
2023-02-16 17:22:49:647,-1.14513,2.53636,-9.5149,-14.9601,-7.42342,-7.50657
2023-02-16 17:22:49:657,-1.12878,2.53602,-9.51206,-14.9676,-7.42208,-7.56883
2023-02-16 17:22:49:667,-1.10734,2.51794,-9.49908,-14.9719,-7.42075,-7.62889
2023-02-16 17:22:49:677,-1.09065,2.51313,-9.52041,-14.9749,-7.42971,-7.68819
2023-02-16 17:22:49:687,-1.10616,2.52339,-9.50999,-14.9801,-7.44507,-7.74764
2023-02-16 17:22:49:697,-1.11334,2.49812,-9.47944,-14.9864,-7.46569,-7.79894
2023-02-16 17:22:49:707,-1.10694,2.50172,-9.50314,-14.9939,-7.49441,-7.84741
2023-02-16 17:22:49:717,-1.11852,2.51653,-9.56599,-15.0012,-7.53435,-7.88657
2023-02-16 17:22:49:727,-1.15518,2.53636,-9.58097,-15.0108,-7.58542,-7.92015
2023-02-16 17:22:49:737,-1.1861,2.53029,-9.53606,-15.0179,-7.6416,-7.94763
2023-02-16 17:22:49:747,-1.20971,2.52218,-9.50404,-15.0241,-7.70279,-7.96395
2023-02-16 17:22:49:757,-1.28284,2.52899,-9.49097,-15.0272,-7.76537,-7.97117
2023-02-16 17:22:49:767,-1.38367,2.54503,-9.46257,-15.0229,-7.82692,-7.96888
2023-02-16 17:22:49:777,-1.45178,2.5326,-9.42796,-15.0136,-7.88139,-7.96316
2023-02-16 17:22:49:787,-1.48838,2.50315,-9.42013,-14.9959,-7.9256,-7.95247
2023-02-16 17:22:49:797,-1.51264,2.49243,-9.43726,-14.9686,-7.9564,-7.93733
2023-02-16 17:22:49:807,-1.53611,2.44935,-9.41725,-14.928,-7.97164,-7.92021
2023-02-16 17:22:49:817,-1.52578,2.39069,-9.38468,-14.8797,-7.97246,-7.89762
2023-02-16 17:22:49:827,-1.51624,2.35292,-9.34506,-14.8283,-7.96007,-7.87599
2023-02-16 17:22:49:837,-1.52401,2.30787,-9.29135,-14.7738,-7.93623,-7.85488
2023-02-16 17:22:49:847,-1.52455,2.25694,-9.23201,-14.7212,-7.90006,-7.83491
2023-02-16 17:22:49:857,-1.53277,2.2266,-9.20499,-14.6759,-7.85719,-7.8209
2023-02-16 17:22:49:867,-1.49833,2.22268,-9.2167,-14.6342,-7.80234,-7.81526
2023-02-16 17:22:49:877,-1.455,2.22435,-9.25197,-14.598,-7.74015,-7.81855
2023-02-16 17:22:49:887,-1.38427,2.22966,-9.27498,-14.5713,-7.67682,-7.82892
2023-02-16 17:22:49:897,-1.31181,2.23637,-9.29256,-14.5527,-7.6133,-7.83876
2023-02-16 17:22:49:907,-1.21585,2.23608,-9.33454,-14.5403,-7.54982,-7.85547
2023-02-16 17:22:49:917,-1.16288,2.24897,-9.34969,-14.537,-7.49283,-7.87164
2023-02-16 17:22:49:927,-1.12315,2.26296,-9.30603,-14.5442,-7.44359,-7.89065
2023-02-16 17:22:49:937,-1.10078,2.29164,-9.26931,-14.5594,-7.40886,-7.90674
2023-02-16 17:22:49:947,-1.08107,2.33699,-9.28387,-14.5845,-7.37519,-7.92182
2023-02-16 17:22:49:957,-1.11786,2.37252,-9.30144,-14.6184,-7.34891,-7.93167
2023-02-16 17:22:49:967,-1.17439,2.41388,-9.2987,-14.6538,-7.3281,-7.94583
2023-02-16 17:22:49:977,-1.17927,2.44834,-9.31993,-14.6937,-7.30831,-7.95561
2023-02-16 17:22:49:987,-1.11394,2.4695,-9.39781,-14.7355,-7.29425,-7.96103
2023-02-16 17:22:49:997,-1.06864,2.52601,-9.46868,-14.7747,-7.29318,-7.95617
2023-02-16 17:22:50:7,-1.10114,2.53181,-9.42173,-14.8081,-7.30417,-7.94895
2023-02-16 17:22:50:17,-1.16812,2.52626,-9.35778,-14.8438,-7.32293,-7.93475
2023-02-16 17:22:50:27,-1.25108,2.57144,-9.35747,-14.8807,-7.34385,-7.91939
2023-02-16 17:22:50:37,-1.31166,2.6085,-9.41481,-14.9192,-7.36487,-7.90226
2023-02-16 17:22:50:47,-1.34134,2.62541,-9.43406,-14.9556,-7.38934,-7.88797
2023-02-16 17:22:50:57,-1.35334,2.63153,-9.40938,-14.9875,-7.40985,-7.87768
2023-02-16 17:22:50:67,-1.37197,2.62657,-9.37589,-15.0196,-7.43104,-7.86516
2023-02-16 17:22:50:77,-1.3863,2.65083,-9.35833,-15.0524,-7.44879,-7.85778
2023-02-16 17:22:50:87,-1.41719,2.68139,-9.37561,-15.0851,-7.4635,-7.8573
2023-02-16 17:22:50:97,-1.42186,2.71025,-9.40678,-15.1147,-7.47327,-7.86249
2023-02-16 17:22:50:107,-1.4225,2.73041,-9.42141,-15.14,-7.48157,-7.8743
2023-02-16 17:22:50:117,-1.41086,2.73095,-9.40408,-15.1612,-7.48347,-7.88971
2023-02-16 17:22:50:127,-1.3835,2.70461,-9.39077,-15.1746,-7.48086,-7.9046
2023-02-16 17:22:50:137,-1.34986,2.70667,-9.3856,-15.1842,-7.47327,-7.92524
2023-02-16 17:22:50:147,-1.29961,2.67972,-9.39038,-15.1882,-7.46304,-7.94291
2023-02-16 17:22:50:157,-1.25155,2.66398,-9.39624,-15.1848,-7.4533,-7.96188
2023-02-16 17:22:50:167,-1.19182,2.63412,-9.4041,-15.1753,-7.44003,-7.97662
2023-02-16 17:22:50:177,-1.15034,2.62067,-9.3849,-15.1625,-7.42749,-7.98776
2023-02-16 17:22:50:187,-1.12588,2.60171,-9.40008,-15.1466,-7.41712,-7.99028
2023-02-16 17:22:50:197,-1.13896,2.59552,-9.40146,-15.1256,-7.40931,-7.98465
2023-02-16 17:22:50:207,-1.16095,2.57427,-9.4016,-15.1054,-7.39976,-7.96961
2023-02-16 17:22:50:217,-1.19755,2.54987,-9.42374,-15.083,-7.39363,-7.94522
2023-02-16 17:22:50:227,-1.24266,2.54219,-9.45025,-15.0532,-7.38608,-7.92035
2023-02-16 17:22:50:237,-1.29785,2.51764,-9.42854,-15.0215,-7.37741,-7.88874
2023-02-16 17:22:50:247,-1.34152,2.49867,-9.38043,-14.9925,-7.36719,-7.85587
2023-02-16 17:22:50:257,-1.36552,2.49833,-9.35104,-14.9616,-7.35681,-7.82711
2023-02-16 17:22:50:267,-1.39351,2.47121,-9.33097,-14.9373,-7.34165,-7.80265
2023-02-16 17:22:50:277,-1.40549,2.46388,-9.30379,-14.9147,-7.32585,-7.78293
2023-02-16 17:22:50:287,-1.37044,2.43783,-9.28503,-14.893,-7.30831,-7.76853
2023-02-16 17:22:50:297,-1.36795,2.41662,-9.27075,-14.8778,-7.28611,-7.75917
2023-02-16 17:22:50:307,-1.35071,2.41723,-9.26566,-14.8656,-7.26373,-7.75959
2023-02-16 17:22:50:317,-1.29506,2.41376,-9.2917,-14.855,-7.24141,-7.76355
2023-02-16 17:22:50:327,-1.23189,2.40928,-9.33487,-14.8455,-7.21359,-7.77049
2023-02-16 17:22:50:337,-1.19663,2.39812,-9.36082,-14.8377,-7.182,-7.7805
2023-02-16 17:22:50:347,-1.15043,2.37688,-9.34229,-14.8338,-7.15597,-7.79483
2023-02-16 17:22:50:357,-1.08311,2.35828,-9.33446,-14.8314,-7.12966,-7.8076
2023-02-16 17:22:50:367,-1.03809,2.36181,-9.36773,-14.8339,-7.10344,-7.81666
2023-02-16 17:22:50:377,-1.02581,2.36509,-9.38014,-14.8399,-7.08262,-7.82564
2023-02-16 17:22:50:387,-1.04603,2.41217,-9.36538,-14.8492,-7.06911,-7.8272
2023-02-16 17:22:50:397,-1.05677,2.39901,-9.27358,-14.8632,-7.05431,-7.82873
2023-02-16 17:22:50:407,-1.05257,2.40123,-9.2359,-14.8842,-7.04324,-7.82389
2023-02-16 17:22:50:417,-1.09457,2.46296,-9.31693,-14.9187,-7.02919,-7.81333
2023-02-16 17:22:50:427,-1.1653,2.51997,-9.3728,-14.954,-7.01637,-7.79798
2023-02-16 17:22:50:437,-1.20884,2.56284,-9.39512,-14.9907,-7.00203,-7.78283
2023-02-16 17:22:50:447,-1.20637,2.59661,-9.40278,-15.0282,-6.98521,-7.77421
2023-02-16 17:22:50:457,-1.20113,2.61921,-9.42446,-15.0642,-6.96181,-7.76493
2023-02-16 17:22:50:467,-1.23248,2.6404,-9.48186,-15.0939,-6.9398,-7.75347
2023-02-16 17:22:50:477,-1.26402,2.67979,-9.54958,-15.1198,-6.91639,-7.74804
2023-02-16 17:22:50:487,-1.28427,2.68222,-9.55489,-15.1332,-6.89248,-7.75073
2023-02-16 17:22:50:497,-1.26443,2.68019,-9.52725,-15.1406,-6.86698,-7.75925
2023-02-16 17:22:50:507,-1.2184,2.65712,-9.46675,-15.1354,-6.84279,-7.77111
2023-02-16 17:22:50:517,-1.17623,2.61773,-9.41018,-15.1222,-6.81864,-7.78609
2023-02-16 17:22:50:527,-1.16298,2.5778,-9.38034,-15.1076,-6.79685,-7.79992
2023-02-16 17:22:50:537,-1.13622,2.55931,-9.39878,-15.0884,-6.7725,-7.81516
2023-02-16 17:22:50:547,-1.1098,2.56683,-9.46492,-15.0653,-6.74895,-7.82763
2023-02-16 17:22:50:557,-1.08326,2.55665,-9.53899,-15.04,-6.72757,-7.84176
2023-02-16 17:22:50:567,-1.03633,2.54693,-9.56394,-15.002,-6.71118,-7.85969
2023-02-16 17:22:50:577,-1.00304,2.51346,-9.56023,-14.9598,-6.70049,-7.86975
2023-02-16 17:22:50:587,-1.00455,2.47971,-9.50924,-14.9135,-6.69431,-7.87592
2023-02-16 17:22:50:597,-1.03084,2.44666,-9.43681,-14.8636,-6.68493,-7.87828
2023-02-16 17:22:50:607,-1.02697,2.40878,-9.36979,-14.8233,-6.67837,-7.87456
2023-02-16 17:22:50:617,-1.02743,2.37906,-9.33636,-14.7839,-6.67357,-7.86972
2023-02-16 17:22:50:627,-1.05034,2.38148,-9.33305,-14.7528,-6.66598,-7.86059
2023-02-16 17:22:50:637,-1.07001,2.39892,-9.34664,-14.7235,-6.66071,-7.8497
2023-02-16 17:22:50:647,-1.0915,2.42631,-9.38016,-14.7022,-6.65959,-7.83763
2023-02-16 17:22:50:657,-1.11645,2.45347,-9.39221,-14.6835,-6.65513,-7.82957
2023-02-16 17:22:50:667,-1.13631,2.44805,-9.40626,-14.6617,-6.6471,-7.82284
2023-02-16 17:22:50:677,-1.1274,2.44211,-9.41379,-14.6389,-6.64159,-7.81647
2023-02-16 17:22:50:687,-1.11214,2.43685,-9.41062,-14.6127,-6.63207,-7.80851
2023-02-16 17:22:50:697,-1.12244,2.43613,-9.37918,-14.5873,-6.62256,-7.80505
2023-02-16 17:22:50:707,-1.14937,2.42363,-9.37697,-14.5626,-6.61377,-7.80424
2023-02-16 17:22:50:717,-1.11684,2.41585,-9.3897,-14.5384,-6.60563,-7.80246
2023-02-16 17:22:50:727,-1.09862,2.3979,-9.3997,-14.5152,-6.59618,-7.80261
2023-02-16 17:22:50:737,-1.09629,2.39477,-9.38007,-14.4952,-6.58659,-7.80669
2023-02-16 17:22:50:747,-1.09259,2.41961,-9.392,-14.4797,-6.58448,-7.8122
2023-02-16 17:22:50:757,-1.10379,2.44029,-9.42218,-14.4682,-6.58753,-7.81933
2023-02-16 17:22:50:767,-1.09735,2.43805,-9.40097,-14.4554,-6.58995,-7.82827
2023-02-16 17:22:50:777,-1.08118,2.42341,-9.36827,-14.441,-6.59169,-7.83743
2023-02-16 17:22:50:787,-1.07701,2.44621,-9.39449,-14.4296,-6.5926,-7.84841
2023-02-16 17:22:50:797,-1.07695,2.44625,-9.42054,-14.4183,-6.59514,-7.86219
2023-02-16 17:22:50:807,-1.04717,2.44032,-9.43283,-14.4077,-6.5913,-7.87686
2023-02-16 17:22:50:817,-0.996816,2.43719,-9.45696,-14.3965,-6.58691,-7.89317
2023-02-16 17:22:50:827,-0.979732,2.44683,-9.46603,-14.3822,-6.58746,-7.90561
2023-02-16 17:22:50:837,-0.982542,2.44489,-9.45625,-14.3677,-6.59352,-7.91235
2023-02-16 17:22:50:847,-0.96128,2.44712,-9.47125,-14.3545,-6.59723,-7.91768
2023-02-16 17:22:50:857,-0.979906,2.46883,-9.50314,-14.3383,-6.6012,-7.91985
2023-02-16 17:22:50:867,-0.994238,2.48767,-9.50081,-14.3203,-6.61072,-7.9166
2023-02-16 17:22:50:877,-1.01192,2.46034,-9.47907,-14.2963,-6.61807,-7.91207
2023-02-16 17:22:50:887,-1.0125,2.43743,-9.44568,-14.271,-6.62216,-7.9024
2023-02-16 17:22:50:897,-1.01013,2.41158,-9.42926,-14.2444,-6.62608,-7.89294
2023-02-16 17:22:50:907,-1.02223,2.40526,-9.40564,-14.2242,-6.63029,-7.87808
2023-02-16 17:22:50:917,-1.03713,2.40305,-9.39038,-14.2044,-6.63663,-7.85987
2023-02-16 17:22:50:927,-1.04044,2.39958,-9.38254,-14.1822,-6.64577,-7.84389
2023-02-16 17:22:50:937,-1.05717,2.39592,-9.42017,-14.1621,-6.65631,-7.82446
2023-02-16 17:22:50:947,-1.09188,2.39956,-9.466,-14.1438,-6.66854,-7.80307
2023-02-16 17:22:50:957,-1.10966,2.40381,-9.4854,-14.1191,-6.68475,-7.78132
2023-02-16 17:22:50:967,-1.13309,2.38911,-9.45732,-14.0934,-6.70037,-7.75937
2023-02-16 17:22:50:977,-1.15783,2.37373,-9.43264,-14.0682,-6.71954,-7.73465
2023-02-16 17:22:50:987,-1.16811,2.35084,-9.40685,-14.0451,-6.73642,-7.7146
2023-02-16 17:22:50:997,-1.17953,2.32623,-9.39452,-14.0208,-6.75593,-7.69661
2023-02-16 17:22:51:7,-1.1923,2.33585,-9.37382,-13.9973,-6.77388,-7.67775
2023-02-16 17:22:51:17,-1.19035,2.31317,-9.34678,-13.9796,-6.78975,-7.66256
2023-02-16 17:22:51:27,-1.17478,2.31945,-9.34472,-13.9612,-6.80603,-7.6493
2023-02-16 17:22:51:37,-1.19208,2.33073,-9.3476,-13.9466,-6.82057,-7.63628
2023-02-16 17:22:51:47,-1.21812,2.33758,-9.36108,-13.9341,-6.83,-7.62208
2023-02-16 17:22:51:57,-1.22181,2.35605,-9.38824,-13.9241,-6.84066,-7.60873
2023-02-16 17:22:51:67,-1.24528,2.3662,-9.43277,-13.9163,-6.8464,-7.59437
2023-02-16 17:22:51:77,-1.25737,2.36971,-9.44394,-13.9039,-6.84906,-7.58323
2023-02-16 17:22:51:87,-1.24398,2.35662,-9.43825,-13.8913,-6.84598,-7.57157
2023-02-16 17:22:51:97,-1.20989,2.34371,-9.44033,-13.8818,-6.84228,-7.56299
2023-02-16 17:22:51:107,-1.19291,2.33324,-9.42577,-13.8668,-6.83692,-7.55417
2023-02-16 17:22:51:117,-1.19702,2.32188,-9.4027,-13.8507,-6.82752,-7.54531
2023-02-16 17:22:51:127,-1.17906,2.29189,-9.41459,-13.8365,-6.81521,-7.53705
2023-02-16 17:22:51:137,-1.17199,2.27149,-9.40993,-13.8193,-6.80449,-7.52862
2023-02-16 17:22:51:147,-1.15485,2.27521,-9.40631,-13.8047,-6.78939,-7.51855
2023-02-16 17:22:51:157,-1.14916,2.26711,-9.42629,-13.7936,-6.78015,-7.50832
2023-02-16 17:22:51:167,-1.1706,2.2627,-9.43766,-13.7798,-6.76762,-7.49868
2023-02-16 17:22:51:177,-1.18618,2.27295,-9.43681,-13.7671,-6.75703,-7.48948
2023-02-16 17:22:51:187,-1.19876,2.27494,-9.43815,-13.7557,-6.74821,-7.4827
2023-02-16 17:22:51:197,-1.20236,2.2748,-9.4141,-13.7438,-6.73942,-7.47994
2023-02-16 17:22:51:207,-1.21811,2.24876,-9.39116,-13.7356,-6.73308,-7.48007
2023-02-16 17:22:51:217,-1.21138,2.25857,-9.41895,-13.7288,-6.72564,-7.48301
2023-02-16 17:22:51:227,-1.20959,2.2786,-9.40957,-13.7252,-6.71297,-7.48666
2023-02-16 17:22:51:237,-1.1866,2.26217,-9.37045,-13.7233,-6.7053,-7.49663
2023-02-16 17:22:51:247,-1.14497,2.27714,-9.38516,-13.7241,-6.69769,-7.50708
2023-02-16 17:22:51:257,-1.11743,2.27896,-9.40039,-13.7287,-6.68745,-7.51904
2023-02-16 17:22:51:267,-1.12798,2.27668,-9.39337,-13.7369,-6.68207,-7.52747
2023-02-16 17:22:51:277,-1.15497,2.30251,-9.42162,-13.7475,-6.67242,-7.5401
2023-02-16 17:22:51:287,-1.15326,2.31954,-9.45873,-13.758,-6.66555,-7.55405
2023-02-16 17:22:51:297,-1.12381,2.31417,-9.45042,-13.7658,-6.65665,-7.56934
2023-02-16 17:22:51:307,-1.10527,2.31203,-9.46836,-13.7799,-6.64755,-7.58128
2023-02-16 17:22:51:317,-1.08834,2.324,-9.50748,-13.7902,-6.63773,-7.59205
2023-02-16 17:22:51:327,-1.0562,2.33649,-9.50097,-13.7984,-6.62989,-7.60234
2023-02-16 17:22:51:337,-1.041,2.32641,-9.48842,-13.8042,-6.62107,-7.61067
2023-02-16 17:22:51:347,-1.04379,2.32249,-9.47709,-13.8138,-6.6116,-7.61645
2023-02-16 17:22:51:357,-1.03977,2.31542,-9.48457,-13.8183,-6.60529,-7.61775
2023-02-16 17:22:51:367,-1.02667,2.30583,-9.48179,-13.8232,-6.59753,-7.6181
2023-02-16 17:22:51:377,-1.02198,2.30367,-9.48005,-13.8298,-6.59051,-7.61629
2023-02-16 17:22:51:387,-1.0116,2.29425,-9.46631,-13.8322,-6.5887,-7.61299
2023-02-16 17:22:51:397,-1.00324,2.29498,-9.46551,-13.8393,-6.59332,-7.60322
2023-02-16 17:22:51:407,-1.03021,2.31243,-9.48747,-13.8491,-6.59624,-7.5909
2023-02-16 17:22:51:417,-1.03474,2.33732,-9.50297,-13.8602,-6.6009,-7.58093
2023-02-16 17:22:51:427,-1.0382,2.34701,-9.49422,-13.8672,-6.60833,-7.56666
2023-02-16 17:22:51:437,-1.04754,2.35057,-9.4693,-13.8765,-6.61626,-7.5484
2023-02-16 17:22:51:447,-1.05431,2.34861,-9.45315,-13.8809,-6.6242,-7.52698
2023-02-16 17:22:51:457,-1.05461,2.35542,-9.41082,-13.8861,-6.63697,-7.50364
2023-02-16 17:22:51:467,-1.07851,2.34695,-9.37547,-13.8909,-6.65262,-7.47921
2023-02-16 17:22:51:477,-1.10739,2.33096,-9.36794,-13.8972,-6.66382,-7.45256
2023-02-16 17:22:51:487,-1.11572,2.33278,-9.33962,-13.9031,-6.67835,-7.42501
2023-02-16 17:22:51:497,-1.12823,2.33274,-9.31328,-13.9088,-6.68856,-7.39707
2023-02-16 17:22:51:507,-1.16183,2.35629,-9.34518,-13.9203,-6.69966,-7.37231
2023-02-16 17:22:51:517,-1.19995,2.38061,-9.39027,-13.9307,-6.71197,-7.35176
2023-02-16 17:22:51:527,-1.22197,2.39118,-9.42224,-13.9412,-6.72067,-7.33022
2023-02-16 17:22:51:537,-1.22556,2.39232,-9.45061,-13.9477,-6.7283,-7.3108
2023-02-16 17:22:51:547,-1.21098,2.40559,-9.45724,-13.9509,-6.73728,-7.296
2023-02-16 17:22:51:557,-1.21092,2.40128,-9.4431,-13.9556,-6.7482,-7.28481
2023-02-16 17:22:51:567,-1.19552,2.38124,-9.43301,-13.9598,-6.75404,-7.27636
2023-02-16 17:22:51:577,-1.16383,2.39473,-9.45321,-13.9647,-6.75921,-7.27004
2023-02-16 17:22:51:587,-1.16262,2.39426,-9.4206,-13.9701,-6.76658,-7.26303
2023-02-16 17:22:51:597,-1.15127,2.39026,-9.38921,-13.9768,-6.76915,-7.25678
2023-02-16 17:22:51:607,-1.13892,2.4015,-9.42964,-13.9869,-6.77197,-7.25368
2023-02-16 17:22:51:617,-1.12287,2.38934,-9.47788,-13.9903,-6.77038,-7.24817
2023-02-16 17:22:51:627,-1.08884,2.39105,-9.50795,-13.9911,-6.76964,-7.24025
2023-02-16 17:22:51:637,-1.05794,2.38342,-9.51212,-13.9883,-6.768,-7.23401
2023-02-16 17:22:51:647,-1.04595,2.37263,-9.48761,-13.9802,-6.76728,-7.22293
2023-02-16 17:22:51:657,-1.05982,2.34413,-9.43985,-13.9721,-6.76919,-7.20715
2023-02-16 17:22:51:667,-1.08746,2.33303,-9.42368,-13.962,-6.77409,-7.18732
2023-02-16 17:22:51:677,-1.12227,2.34238,-9.44551,-13.9543,-6.77717,-7.16707
2023-02-16 17:22:51:687,-1.15985,2.3428,-9.47061,-13.946,-6.77984,-7.14638
2023-02-16 17:22:51:697,-1.17597,2.34389,-9.46363,-13.9369,-6.78259,-7.12718
2023-02-16 17:22:51:707,-1.17272,2.33943,-9.46185,-13.929,-6.78082,-7.11149
2023-02-16 17:22:51:717,-1.16002,2.31957,-9.45921,-13.9141,-6.78072,-7.09809
2023-02-16 17:22:51:727,-1.16671,2.30996,-9.44692,-13.9013,-6.7788,-7.08693
2023-02-16 17:22:51:737,-1.16225,2.30177,-9.42777,-13.8914,-6.77963,-7.08067
2023-02-16 17:22:51:747,-1.14199,2.28792,-9.40648,-13.8806,-6.78226,-7.07994
2023-02-16 17:22:51:757,-1.12511,2.27106,-9.39002,-13.8674,-6.78625,-7.07597
2023-02-16 17:22:51:767,-1.13197,2.29192,-9.39703,-13.8603,-6.79103,-7.07486
2023-02-16 17:22:51:777,-1.13986,2.29568,-9.43958,-13.8575,-6.79487,-7.07376
2023-02-16 17:22:51:787,-1.12659,2.30608,-9.47401,-13.8529,-6.79869,-7.07066
2023-02-16 17:22:51:797,-1.12342,2.3237,-9.48688,-13.8509,-6.80338,-7.06957
2023-02-16 17:22:51:807,-1.13116,2.31382,-9.48861,-13.8469,-6.80772,-7.06698
2023-02-16 17:22:51:817,-1.12936,2.29974,-9.48539,-13.8447,-6.81689,-7.06482
2023-02-16 17:22:51:827,-1.12799,2.30055,-9.48363,-13.846,-6.82578,-7.05982
2023-02-16 17:22:51:837,-1.1324,2.30378,-9.48035,-13.8464,-6.83909,-7.0577
2023-02-16 17:22:51:847,-1.14448,2.29248,-9.46946,-13.8483,-6.84915,-7.05708
2023-02-16 17:22:51:857,-1.15345,2.28292,-9.45,-13.8509,-6.86384,-7.05249
2023-02-16 17:22:51:867,-1.15165,2.27361,-9.44258,-13.8533,-6.87941,-7.04631
2023-02-16 17:22:51:877,-1.1544,2.27826,-9.44136,-13.8561,-6.89742,-7.04105
2023-02-16 17:22:51:887,-1.16946,2.30213,-9.41293,-13.8653,-6.9133,-7.03718
2023-02-16 17:22:51:897,-1.17735,2.30155,-9.41406,-13.872,-6.92402,-7.02799
2023-02-16 17:22:51:907,-1.17736,2.31759,-9.43491,-13.8799,-6.93596,-7.0217
2023-02-16 17:22:51:917,-1.18649,2.34149,-9.44175,-13.8942,-6.94548,-7.01536
2023-02-16 17:22:51:927,-1.18233,2.35044,-9.41547,-13.9071,-6.95058,-7.00868
2023-02-16 17:22:51:937,-1.15463,2.35227,-9.38801,-13.9207,-6.9532,-7.0069
2023-02-16 17:22:51:947,-1.1725,2.35491,-9.39782,-13.9363,-6.95526,-7.00444
2023-02-16 17:22:51:957,-1.18472,2.35451,-9.38665,-13.952,-6.95824,-7.0007
2023-02-16 17:22:51:967,-1.16945,2.36612,-9.38882,-13.9679,-6.96232,-6.99764
2023-02-16 17:22:51:977,-1.15056,2.38428,-9.38602,-13.9839,-6.96196,-6.9985
2023-02-16 17:22:51:987,-1.14001,2.40801,-9.3865,-13.9959,-6.9595,-6.99722
2023-02-16 17:22:51:997,-1.11489,2.41948,-9.41806,-14.0071,-6.96045,-6.99651
2023-02-16 17:22:52:7,-1.10549,2.43407,-9.43973,-14.0164,-6.9662,-6.99787
2023-02-16 17:22:52:17,-1.09281,2.44075,-9.44721,-14.0223,-6.97372,-6.99698
2023-02-16 17:22:52:27,-1.08841,2.44822,-9.45581,-14.0226,-6.97712,-6.99418
2023-02-16 17:22:52:37,-1.07312,2.43061,-9.4799,-14.0212,-6.98069,-6.9916
2023-02-16 17:22:52:47,-1.0691,2.41875,-9.44728,-14.0156,-6.98518,-6.98737
2023-02-16 17:22:52:57,-1.06369,2.40283,-9.40311,-14.0059,-6.99333,-6.98026
2023-02-16 17:22:52:67,-1.07212,2.39219,-9.38787,-13.9955,-7.00011,-6.96819
2023-02-16 17:22:52:77,-1.09579,2.38866,-9.4385,-13.9818,-7.00775,-6.95139
2023-02-16 17:22:52:87,-1.14811,2.39384,-9.46127,-13.9672,-7.01412,-6.93151
2023-02-16 17:22:52:97,-1.18307,2.37835,-9.46018,-13.9499,-7.02555,-6.91164
2023-02-16 17:22:52:107,-1.21118,2.36136,-9.45793,-13.9298,-7.03427,-6.89137
2023-02-16 17:22:52:117,-1.23872,2.35886,-9.41795,-13.9106,-7.04337,-6.87022
2023-02-16 17:22:52:127,-1.26881,2.33222,-9.39803,-13.8916,-7.05385,-6.85342
2023-02-16 17:22:52:137,-1.28348,2.31177,-9.38778,-13.8708,-7.06387,-6.83683
2023-02-16 17:22:52:147,-1.3001,2.29931,-9.37075,-13.8494,-7.07132,-6.82726
2023-02-16 17:22:52:157,-1.29851,2.29508,-9.42122,-13.8337,-7.07917,-6.82267
2023-02-16 17:22:52:167,-1.27122,2.2979,-9.47143,-13.8198,-7.08523,-6.82305
2023-02-16 17:22:52:177,-1.22661,2.28006,-9.47871,-13.8018,-7.09238,-6.82621
2023-02-16 17:22:52:187,-1.2,2.26507,-9.47079,-13.7828,-7.10226,-6.83426
2023-02-16 17:22:52:197,-1.18848,2.26501,-9.47862,-13.7636,-7.11841,-6.84318
2023-02-16 17:22:52:207,-1.19657,2.25931,-9.46942,-13.7439,-7.13604,-6.85012
2023-02-16 17:22:52:217,-1.1889,2.24822,-9.45216,-13.7253,-7.15323,-6.85649
2023-02-16 17:22:52:227,-1.16513,2.23948,-9.44247,-13.7058,-7.16728,-6.86309
2023-02-16 17:22:52:237,-1.15553,2.2375,-9.44101,-13.6922,-7.17993,-6.86661
2023-02-16 17:22:52:247,-1.15223,2.24332,-9.4134,-13.6786,-7.19182,-6.86644
2023-02-16 17:22:52:257,-1.16239,2.23703,-9.37763,-13.6656,-7.20315,-6.86292
2023-02-16 17:22:52:267,-1.1781,2.25078,-9.35952,-13.6542,-7.21971,-6.85514
2023-02-16 17:22:52:277,-1.20821,2.26196,-9.37566,-13.6474,-7.23083,-6.8471
2023-02-16 17:22:52:287,-1.22603,2.26771,-9.388,-13.6413,-7.24265,-6.83403
2023-02-16 17:22:52:297,-1.24055,2.27468,-9.37628,-13.6374,-7.24854,-6.8252
2023-02-16 17:22:52:307,-1.26464,2.27848,-9.40226,-13.6332,-7.25909,-6.81638
2023-02-16 17:22:52:317,-1.27989,2.29358,-9.42871,-13.6267,-7.26563,-6.80913
2023-02-16 17:22:52:327,-1.26859,2.30274,-9.42628,-13.6175,-7.27158,-6.80392
2023-02-16 17:22:52:337,-1.26037,2.2926,-9.41017,-13.612,-7.2764,-6.79829
2023-02-16 17:22:52:347,-1.23738,2.27825,-9.41269,-13.6031,-7.28308,-6.79428
2023-02-16 17:22:52:357,-1.21909,2.27345,-9.41204,-13.5981,-7.29372,-6.78998
2023-02-16 17:22:52:367,-1.23216,2.26985,-9.40994,-13.5925,-7.30578,-6.78095
2023-02-16 17:22:52:377,-1.2371,2.26945,-9.40404,-13.5909,-7.31623,-6.77342
2023-02-16 17:22:52:387,-1.2496,2.25385,-9.35775,-13.5887,-7.32771,-6.76479
2023-02-16 17:22:52:397,-1.26877,2.25576,-9.33711,-13.5882,-7.34141,-6.75532
2023-02-16 17:22:52:407,-1.29388,2.26895,-9.37205,-13.5966,-7.34986,-6.74095
2023-02-16 17:22:52:417,-1.30071,2.2912,-9.40763,-13.601,-7.35804,-6.72966
2023-02-16 17:22:52:427,-1.28099,2.29574,-9.41257,-13.606,-7.36188,-6.72121
2023-02-16 17:22:52:437,-1.2574,2.28271,-9.41948,-13.6033,-7.37188,-6.71085
2023-02-16 17:22:52:447,-1.26522,2.2822,-9.41193,-13.6068,-7.38459,-6.70009
2023-02-16 17:22:52:457,-1.28761,2.28174,-9.397,-13.6095,-7.39726,-6.68871
2023-02-16 17:22:52:467,-1.31031,2.27874,-9.40162,-13.6128,-7.40678,-6.67644
2023-02-16 17:22:52:477,-1.32335,2.30147,-9.41637,-13.6166,-7.41579,-6.66363
2023-02-16 17:22:52:487,-1.33459,2.31582,-9.43507,-13.6215,-7.42139,-6.65147
2023-02-16 17:22:52:497,-1.34058,2.31368,-9.45285,-13.6217,-7.42429,-6.64232
2023-02-16 17:22:52:507,-1.34302,2.30551,-9.44167,-13.6246,-7.42513,-6.62986
2023-02-16 17:22:52:517,-1.33165,2.29974,-9.43104,-13.6219,-7.42531,-6.61954
2023-02-16 17:22:52:527,-1.3219,2.29986,-9.41703,-13.6209,-7.42205,-6.61754
2023-02-16 17:22:52:537,-1.31628,2.28339,-9.39955,-13.6214,-7.42121,-6.61435
2023-02-16 17:22:52:547,-1.31634,2.28891,-9.37182,-13.6228,-7.4197,-6.61114
2023-02-16 17:22:52:557,-1.31328,2.29779,-9.36281,-13.6225,-7.41906,-6.60817
2023-02-16 17:22:52:567,-1.30383,2.28104,-9.3931,-13.6229,-7.41666,-6.60789
2023-02-16 17:22:52:577,-1.28686,2.28186,-9.40293,-13.6241,-7.41591,-6.60894
2023-02-16 17:22:52:587,-1.26261,2.28448,-9.41781,-13.623,-7.41399,-6.60923
2023-02-16 17:22:52:597,-1.24792,2.28413,-9.43298,-13.6249,-7.4132,-6.61042
2023-02-16 17:22:52:607,-1.23631,2.28715,-9.42686,-13.6242,-7.40955,-6.61062
2023-02-16 17:22:52:617,-1.22673,2.29032,-9.42186,-13.6234,-7.40593,-6.60842
2023-02-16 17:22:52:627,-1.23156,2.28499,-9.40555,-13.6248,-7.40557,-6.60757
2023-02-16 17:22:52:637,-1.24148,2.26744,-9.42444,-13.6282,-7.40421,-6.59912
2023-02-16 17:22:52:647,-1.24419,2.27303,-9.44918,-13.6324,-7.40644,-6.5914
2023-02-16 17:22:52:657,-1.23883,2.28671,-9.4524,-13.6362,-7.40431,-6.58424
2023-02-16 17:22:52:667,-1.2467,2.28752,-9.46149,-13.6401,-7.40254,-6.57611
2023-02-16 17:22:52:677,-1.24946,2.29063,-9.46327,-13.6417,-7.4013,-6.5691
2023-02-16 17:22:52:687,-1.2447,2.29825,-9.45337,-13.6476,-7.40008,-6.55728
2023-02-16 17:22:52:697,-1.23541,2.30369,-9.45496,-13.6492,-7.39774,-6.54378
2023-02-16 17:22:52:707,-1.25073,2.30196,-9.43888,-13.6561,-7.39378,-6.53105
2023-02-16 17:22:52:717,-1.26212,2.28546,-9.43722,-13.6606,-7.38836,-6.51536
2023-02-16 17:22:52:727,-1.2624,2.27782,-9.44991,-13.6655,-7.38256,-6.49673
2023-02-16 17:22:52:737,-1.25584,2.27683,-9.44414,-13.671,-7.3745,-6.48048
2023-02-16 17:22:52:747,-1.25767,2.28394,-9.42516,-13.6773,-7.36823,-6.46411
2023-02-16 17:22:52:757,-1.22597,2.27414,-9.40986,-13.6833,-7.35756,-6.45022
2023-02-16 17:22:52:767,-1.23413,2.29515,-9.41824,-13.693,-7.34587,-6.43771
2023-02-16 17:22:52:777,-1.27156,2.31518,-9.44903,-13.7058,-7.33642,-6.4209
2023-02-16 17:22:52:787,-1.28094,2.33052,-9.46613,-13.7177,-7.32615,-6.40544
2023-02-16 17:22:52:797,-1.28192,2.35704,-9.47819,-13.7277,-7.31533,-6.39573
2023-02-16 17:22:52:807,-1.27842,2.37539,-9.50072,-13.7344,-7.30116,-6.38864
2023-02-16 17:22:52:817,-1.26562,2.36612,-9.50698,-13.7368,-7.28771,-6.38449
2023-02-16 17:22:52:827,-1.23566,2.36853,-9.47873,-13.7385,-7.27421,-6.38326
2023-02-16 17:22:52:837,-1.21456,2.35356,-9.48586,-13.7381,-7.26299,-6.38443
2023-02-16 17:22:52:847,-1.20331,2.3388,-9.47835,-13.7376,-7.25279,-6.39055
2023-02-16 17:22:52:857,-1.19936,2.34172,-9.46323,-13.7377,-7.24627,-6.39514
2023-02-16 17:22:52:867,-1.18451,2.33993,-9.44706,-13.7365,-7.24173,-6.39889
2023-02-16 17:22:52:877,-1.18086,2.33204,-9.46159,-13.7318,-7.23655,-6.40502
2023-02-16 17:22:52:887,-1.17721,2.33821,-9.46247,-13.7273,-7.23379,-6.40905
2023-02-16 17:22:52:897,-1.19651,2.34175,-9.48022,-13.7217,-7.22976,-6.41239
2023-02-16 17:22:52:907,-1.20271,2.34076,-9.49403,-13.7113,-7.2255,-6.41479
2023-02-16 17:22:52:917,-1.20584,2.32553,-9.47233,-13.7006,-7.22192,-6.41857
2023-02-16 17:22:52:927,-1.19758,2.29212,-9.46032,-13.6865,-7.21663,-6.42414
2023-02-16 17:22:52:937,-1.17511,2.29329,-9.44465,-13.6727,-7.2114,-6.42888
2023-02-16 17:22:52:947,-1.14379,2.28866,-9.44374,-13.6568,-7.21068,-6.43488
2023-02-16 17:22:52:957,-1.12609,2.28456,-9.4254,-13.6419,-7.20783,-6.43904
2023-02-16 17:22:52:967,-1.13785,2.26285,-9.41316,-13.6246,-7.21175,-6.44283
2023-02-16 17:22:52:977,-1.15791,2.2436,-9.42235,-13.6048,-7.21715,-6.44278
2023-02-16 17:22:52:987,-1.17116,2.2545,-9.45416,-13.5921,-7.22225,-6.44067
2023-02-16 17:22:52:997,-1.15807,2.25729,-9.49781,-13.5804,-7.22538,-6.43898
2023-02-16 17:22:53:7,-1.14465,2.25494,-9.49185,-13.563,-7.23142,-6.43608
2023-02-16 17:22:53:17,-1.12447,2.23665,-9.4746,-13.5481,-7.24565,-6.43216
2023-02-16 17:22:53:27,-1.1385,2.22644,-9.44462,-13.5347,-7.25899,-6.43006
2023-02-16 17:22:53:37,-1.17265,2.23639,-9.43263,-13.5268,-7.27231,-6.42606
2023-02-16 17:22:53:47,-1.18253,2.25004,-9.408,-13.5244,-7.29082,-6.41781
2023-02-16 17:22:53:57,-1.1851,2.24433,-9.41103,-13.5262,-7.30574,-6.40862
2023-02-16 17:22:53:67,-1.20002,2.27253,-9.40344,-13.5289,-7.32439,-6.39908
2023-02-16 17:22:53:77,-1.20675,2.28907,-9.40938,-13.5327,-7.3395,-6.386
2023-02-16 17:22:53:87,-1.20543,2.28588,-9.40727,-13.5366,-7.3548,-6.36979
2023-02-16 17:22:53:97,-1.22709,2.2823,-9.40233,-13.5388,-7.3682,-6.35575
2023-02-16 17:22:53:107,-1.25341,2.27993,-9.38613,-13.5433,-7.38505,-6.33711
2023-02-16 17:22:53:117,-1.28165,2.29468,-9.38445,-13.5465,-7.40015,-6.31798
2023-02-16 17:22:53:127,-1.31004,2.30386,-9.38793,-13.549,-7.41516,-6.30021
2023-02-16 17:22:53:137,-1.33083,2.3163,-9.4053,-13.5519,-7.42699,-6.2838
2023-02-16 17:22:53:147,-1.33829,2.32656,-9.42703,-13.5554,-7.43461,-6.27093
2023-02-16 17:22:53:157,-1.34067,2.3277,-9.46435,-13.5558,-7.43968,-6.25792
2023-02-16 17:22:53:167,-1.33712,2.33183,-9.47033,-13.5555,-7.44359,-6.25225
2023-02-16 17:22:53:177,-1.31603,2.31903,-9.4579,-13.5546,-7.44815,-6.24865
2023-02-16 17:22:53:187,-1.28383,2.30391,-9.44501,-13.5519,-7.44993,-6.24466
2023-02-16 17:22:53:197,-1.28108,2.29676,-9.42667,-13.5523,-7.45247,-6.23869
2023-02-16 17:22:53:207,-1.26029,2.3123,-9.41925,-13.5538,-7.45648,-6.23252
2023-02-16 17:22:53:217,-1.25325,2.29469,-9.4056,-13.5586,-7.46321,-6.22813
2023-02-16 17:22:53:227,-1.27351,2.28275,-9.39332,-13.5613,-7.46733,-6.22177
2023-02-16 17:22:53:237,-1.29314,2.29999,-9.42331,-13.5656,-7.4695,-6.2179
2023-02-16 17:22:53:247,-1.29654,2.31521,-9.44543,-13.571,-7.46659,-6.21687
2023-02-16 17:22:53:257,-1.26751,2.31917,-9.45362,-13.5708,-7.46164,-6.21705
2023-02-16 17:22:53:267,-1.22344,2.30973,-9.4628,-13.5657,-7.45926,-6.21391
2023-02-16 17:22:53:277,-1.22355,2.30551,-9.45871,-13.5604,-7.46012,-6.20783
2023-02-16 17:22:53:287,-1.24463,2.29525,-9.44741,-13.5538,-7.45827,-6.20398
2023-02-16 17:22:53:297,-1.24924,2.29223,-9.44353,-13.548,-7.46233,-6.19624
2023-02-16 17:22:53:307,-1.23255,2.28576,-9.44172,-13.5437,-7.46463,-6.18933
2023-02-16 17:22:53:317,-1.23843,2.27558,-9.43073,-13.537,-7.46646,-6.18132
2023-02-16 17:22:53:327,-1.25153,2.27285,-9.4202,-13.5312,-7.46855,-6.17184
2023-02-16 17:22:53:337,-1.25844,2.28721,-9.42961,-13.5282,-7.46964,-6.16267
2023-02-16 17:22:53:347,-1.26855,2.29247,-9.43205,-13.5255,-7.47283,-6.15628
2023-02-16 17:22:53:357,-1.26086,2.2934,-9.44698,-13.5203,-7.47321,-6.15265
2023-02-16 17:22:53:367,-1.2714,2.29897,-9.45209,-13.5193,-7.48163,-6.14809
2023-02-16 17:22:53:377,-1.27726,2.2855,-9.47364,-13.5153,-7.48672,-6.14408
2023-02-16 17:22:53:387,-1.28952,2.28101,-9.46148,-13.5072,-7.49638,-6.1406
2023-02-16 17:22:53:397,-1.29644,2.27755,-9.44191,-13.4984,-7.49934,-6.14082
2023-02-16 17:22:53:407,-1.27737,2.26619,-9.44035,-13.4878,-7.50412,-6.13714
2023-02-16 17:22:53:417,-1.26454,2.2497,-9.42676,-13.4796,-7.51162,-6.13166
2023-02-16 17:22:53:427,-1.25926,2.25186,-9.40719,-13.4739,-7.51637,-6.12462
2023-02-16 17:22:53:437,-1.26964,2.24629,-9.42239,-13.4668,-7.52126,-6.11686
2023-02-16 17:22:53:447,-1.27628,2.2489,-9.41577,-13.4627,-7.53171,-6.10692
2023-02-16 17:22:53:457,-1.27701,2.24649,-9.40705,-13.4592,-7.53904,-6.09544
2023-02-16 17:22:53:467,-1.29011,2.2548,-9.39917,-13.458,-7.54275,-6.08579
2023-02-16 17:22:53:477,-1.30107,2.26154,-9.40793,-13.4546,-7.54709,-6.07735
2023-02-16 17:22:53:487,-1.31518,2.24867,-9.42306,-13.4518,-7.55225,-6.0663
2023-02-16 17:22:53:497,-1.3183,2.2482,-9.42133,-13.45,-7.55567,-6.05867
2023-02-16 17:22:53:507,-1.33006,2.24229,-9.41761,-13.448,-7.56116,-6.0495
2023-02-16 17:22:53:517,-1.33325,2.26006,-9.40986,-13.4469,-7.56348,-6.04048
2023-02-16 17:22:53:527,-1.34087,2.26541,-9.41274,-13.4472,-7.56835,-6.03154
2023-02-16 17:22:53:537,-1.3503,2.25593,-9.4143,-13.4451,-7.56816,-6.02513
2023-02-16 17:22:53:547,-1.3273,2.2499,-9.41816,-13.4443,-7.5666,-6.01863
2023-02-16 17:22:53:557,-1.32415,2.25201,-9.41536,-13.443,-7.56506,-6.013
2023-02-16 17:22:53:567,-1.31984,2.24763,-9.4127,-13.4416,-7.55914,-6.01058
2023-02-16 17:22:53:577,-1.30556,2.25268,-9.4128,-13.443,-7.55369,-6.0078
2023-02-16 17:22:53:587,-1.31177,2.24491,-9.42186,-13.4454,-7.54932,-6.00543
2023-02-16 17:22:53:597,-1.31461,2.24318,-9.43774,-13.4474,-7.54298,-6.00295
2023-02-16 17:22:53:607,-1.2856,2.24228,-9.43162,-13.4512,-7.53794,-6.00045
2023-02-16 17:22:53:617,-1.26946,2.25129,-9.43857,-13.4551,-7.53517,-6.00013
2023-02-16 17:22:53:627,-1.27111,2.25416,-9.44108,-13.455,-7.53074,-5.99819
2023-02-16 17:22:53:637,-1.27202,2.2451,-9.45231,-13.4563,-7.52842,-5.99589
2023-02-16 17:22:53:647,-1.25038,2.25567,-9.45372,-13.4562,-7.52398,-5.99376
2023-02-16 17:22:53:657,-1.24199,2.26974,-9.45997,-13.4582,-7.51792,-5.99392
2023-02-16 17:22:53:667,-1.24797,2.26939,-9.46388,-13.4568,-7.51481,-5.99286
2023-02-16 17:22:53:677,-1.2669,2.25597,-9.44592,-13.4567,-7.50831,-5.99136
2023-02-16 17:22:53:687,-1.28168,2.24791,-9.4295,-13.4551,-7.50607,-5.98988
2023-02-16 17:22:53:697,-1.27871,2.24516,-9.43268,-13.454,-7.50413,-5.98559
2023-02-16 17:22:53:707,-1.28887,2.25223,-9.44104,-13.4565,-7.50123,-5.98313
2023-02-16 17:22:53:717,-1.28942,2.25531,-9.43627,-13.457,-7.49995,-5.98033
2023-02-16 17:22:53:727,-1.28213,2.25592,-9.44025,-13.4591,-7.49753,-5.97503
2023-02-16 17:22:53:737,-1.28463,2.25799,-9.43836,-13.4621,-7.49174,-5.97438
2023-02-16 17:22:53:747,-1.29942,2.24653,-9.43655,-13.4656,-7.4898,-5.97267
2023-02-16 17:22:53:757,-1.30848,2.26495,-9.43817,-13.4678,-7.48559,-5.97055
2023-02-16 17:22:53:767,-1.30899,2.26798,-9.44029,-13.4673,-7.47865,-5.97064
2023-02-16 17:22:53:777,-1.30005,2.25712,-9.42532,-13.4686,-7.47273,-5.9736
2023-02-16 17:22:53:787,-1.28758,2.25729,-9.40354,-13.4718,-7.46221,-5.97695
2023-02-16 17:22:53:797,-1.27,2.24638,-9.4061,-13.4743,-7.45274,-5.98126
2023-02-16 17:22:53:807,-1.26137,2.24342,-9.40488,-13.4757,-7.44498,-5.98272
2023-02-16 17:22:53:817,-1.26279,2.25603,-9.4227,-13.4777,-7.43459,-5.98502
2023-02-16 17:22:53:827,-1.26802,2.27206,-9.45381,-13.4801,-7.42079,-5.98945
2023-02-16 17:22:53:837,-1.25614,2.2893,-9.4963,-13.4852,-7.41098,-5.99445
2023-02-16 17:22:53:847,-1.23979,2.3077,-9.52245,-13.4866,-7.40244,-6.00042
2023-02-16 17:22:53:857,-1.21601,2.29414,-9.50486,-13.4855,-7.39564,-6.00941
2023-02-16 17:22:53:867,-1.19658,2.28033,-9.47772,-13.4855,-7.39092,-6.01691
2023-02-16 17:22:53:877,-1.20258,2.28071,-9.43928,-13.4871,-7.38954,-6.02262
2023-02-16 17:22:53:887,-1.20932,2.26902,-9.42617,-13.4894,-7.38668,-6.02565
2023-02-16 17:22:53:897,-1.20203,2.27296,-9.40426,-13.4957,-7.38229,-6.026
2023-02-16 17:22:53:907,-1.19823,2.28999,-9.39887,-13.5018,-7.38273,-6.02485
2023-02-16 17:22:53:917,-1.18772,2.31183,-9.40591,-13.5097,-7.37857,-6.02307
2023-02-16 17:22:53:927,-1.18657,2.31,-9.41484,-13.5237,-7.37978,-6.01798
2023-02-16 17:22:53:937,-1.20532,2.30321,-9.43206,-13.5325,-7.38,-6.00835
2023-02-16 17:22:53:947,-1.22405,2.31482,-9.43192,-13.5394,-7.38108,-5.99934
2023-02-16 17:22:53:957,-1.25038,2.31229,-9.41638,-13.5462,-7.38152,-5.9892
2023-02-16 17:22:53:967,-1.26594,2.29618,-9.41419,-13.5504,-7.38312,-5.98033
2023-02-16 17:22:53:977,-1.26303,2.3004,-9.41813,-13.5559,-7.38283,-5.97198
2023-02-16 17:22:53:987,-1.27699,2.30931,-9.41649,-13.5604,-7.38163,-5.96703
2023-02-16 17:22:53:997,-1.27756,2.29308,-9.4319,-13.5644,-7.38045,-5.96025
2023-02-16 17:22:54:7,-1.26631,2.30057,-9.4379,-13.5665,-7.38211,-5.95305
2023-02-16 17:22:54:17,-1.27353,2.31574,-9.44488,-13.5722,-7.38237,-5.95063
2023-02-16 17:22:54:27,-1.26737,2.32378,-9.45262,-13.5781,-7.38081,-5.95044
2023-02-16 17:22:54:37,-1.24615,2.32393,-9.45494,-13.581,-7.37931,-5.94807
2023-02-16 17:22:54:47,-1.23063,2.32982,-9.47226,-13.5894,-7.37714,-5.94625
2023-02-16 17:22:54:57,-1.21472,2.32296,-9.45892,-13.593,-7.37824,-5.94404
2023-02-16 17:22:54:67,-1.20812,2.31911,-9.42789,-13.5967,-7.38007,-5.93792
2023-02-16 17:22:54:77,-1.21278,2.33657,-9.45544,-13.603,-7.3786,-5.9335
2023-02-16 17:22:54:87,-1.23612,2.34517,-9.47178,-13.6034,-7.37172,-5.92789
2023-02-16 17:22:54:97,-1.22718,2.35059,-9.46646,-13.6078,-7.36725,-5.92199
2023-02-16 17:22:54:107,-1.20146,2.32508,-9.45872,-13.6037,-7.36317,-5.91739
2023-02-16 17:22:54:117,-1.18911,2.31039,-9.44149,-13.5985,-7.36083,-5.9116
2023-02-16 17:22:54:127,-1.21938,2.30729,-9.43718,-13.5943,-7.35962,-5.90385
2023-02-16 17:22:54:137,-1.24406,2.29832,-9.44337,-13.5874,-7.36182,-5.89621
2023-02-16 17:22:54:147,-1.23651,2.29163,-9.44959,-13.5797,-7.3647,-5.88837
2023-02-16 17:22:54:157,-1.2278,2.29438,-9.45707,-13.5717,-7.36594,-5.88164
2023-02-16 17:22:54:167,-1.23489,2.28486,-9.45435,-13.5612,-7.36788,-5.87561
2023-02-16 17:22:54:177,-1.2368,2.29231,-9.43466,-13.5521,-7.36868,-5.86749
2023-02-16 17:22:54:187,-1.25221,2.27943,-9.43012,-13.5413,-7.37409,-5.86077
2023-02-16 17:22:54:197,-1.25658,2.25576,-9.43199,-13.533,-7.37837,-5.85033
2023-02-16 17:22:54:207,-1.25589,2.25669,-9.43614,-13.5256,-7.37764,-5.84093
2023-02-16 17:22:54:217,-1.25329,2.26681,-9.43411,-13.5153,-7.37911,-5.83111
2023-02-16 17:22:54:227,-1.27064,2.26408,-9.42321,-13.5108,-7.3754,-5.82396
2023-02-16 17:22:54:237,-1.28486,2.25747,-9.41644,-13.5039,-7.38009,-5.81447
2023-02-16 17:22:54:247,-1.2892,2.26596,-9.3968,-13.4984,-7.38229,-5.80859
2023-02-16 17:22:54:257,-1.28928,2.25312,-9.39714,-13.4926,-7.37992,-5.80231
2023-02-16 17:22:54:267,-1.27634,2.23957,-9.40996,-13.4859,-7.38125,-5.79624
2023-02-16 17:22:54:277,-1.26372,2.24529,-9.42822,-13.4827,-7.38246,-5.79149
2023-02-16 17:22:54:287,-1.2627,2.24042,-9.44532,-13.4792,-7.38336,-5.78781
2023-02-16 17:22:54:297,-1.25473,2.21841,-9.44205,-13.4739,-7.38379,-5.78291
2023-02-16 17:22:54:307,-1.23156,2.23084,-9.44146,-13.4711,-7.37996,-5.77563
2023-02-16 17:22:54:317,-1.22838,2.2434,-9.44618,-13.4638,-7.38128,-5.76889
2023-02-16 17:22:54:327,-1.22581,2.24177,-9.4492,-13.459,-7.38254,-5.76001
2023-02-16 17:22:54:337,-1.23493,2.23237,-9.44005,-13.4542,-7.38076,-5.75003
2023-02-16 17:22:54:347,-1.24256,2.24167,-9.4199,-13.4538,-7.38055,-5.74061
2023-02-16 17:22:54:357,-1.24857,2.24056,-9.41788,-13.4538,-7.37965,-5.73093
2023-02-16 17:22:54:367,-1.26561,2.25219,-9.41606,-13.4541,-7.37874,-5.72045
2023-02-16 17:22:54:377,-1.27039,2.2553,-9.4079,-13.4582,-7.37329,-5.71131
2023-02-16 17:22:54:387,-1.27919,2.24204,-9.40158,-13.4593,-7.36722,-5.70129
2023-02-16 17:22:54:397,-1.27684,2.26487,-9.42412,-13.4662,-7.36121,-5.69242
2023-02-16 17:22:54:407,-1.29048,2.28852,-9.45485,-13.4692,-7.35245,-5.68259
2023-02-16 17:22:54:417,-1.28518,2.29256,-9.46158,-13.4721,-7.34522,-5.67762
2023-02-16 17:22:54:427,-1.27892,2.27881,-9.47619,-13.4741,-7.3394,-5.67321
2023-02-16 17:22:54:437,-1.29171,2.28156,-9.47403,-13.4753,-7.33372,-5.66837
2023-02-16 17:22:54:447,-1.29213,2.28518,-9.47234,-13.4764,-7.32732,-5.66425
2023-02-16 17:22:54:457,-1.29113,2.28843,-9.45484,-13.4762,-7.32284,-5.66446
2023-02-16 17:22:54:467,-1.26052,2.27116,-9.44168,-13.4738,-7.31787,-5.66787
2023-02-16 17:22:54:477,-1.24259,2.26672,-9.44623,-13.4717,-7.31421,-5.67177
2023-02-16 17:22:54:487,-1.21227,2.26384,-9.43744,-13.4677,-7.31518,-5.67539
2023-02-16 17:22:54:497,-1.19961,2.25757,-9.43941,-13.4661,-7.31757,-5.67893
2023-02-16 17:22:54:507,-1.19642,2.25779,-9.45227,-13.4638,-7.31735,-5.68157
2023-02-16 17:22:54:517,-1.19997,2.25761,-9.44404,-13.4612,-7.31896,-5.68696
2023-02-16 17:22:54:527,-1.19837,2.2543,-9.43705,-13.4618,-7.32336,-5.68913
2023-02-16 17:22:54:537,-1.20462,2.25892,-9.4414,-13.4594,-7.32498,-5.68789
2023-02-16 17:22:54:547,-1.21021,2.26525,-9.44112,-13.4575,-7.32585,-5.68713
2023-02-16 17:22:54:557,-1.21536,2.25749,-9.44898,-13.4521,-7.32968,-5.68577
2023-02-16 17:22:54:567,-1.2302,2.25681,-9.45313,-13.4489,-7.33375,-5.67837
2023-02-16 17:22:54:577,-1.24322,2.25061,-9.41425,-13.4468,-7.33617,-5.67166
2023-02-16 17:22:54:587,-1.25204,2.23733,-9.39932,-13.4451,-7.34142,-5.66387
2023-02-16 17:22:54:597,-1.25163,2.23491,-9.41197,-13.446,-7.34048,-5.66104
2023-02-16 17:22:54:607,-1.26777,2.25453,-9.43552,-13.4479,-7.3413,-5.65565
2023-02-16 17:22:54:617,-1.2955,2.27228,-9.4509,-13.4488,-7.34126,-5.65308
2023-02-16 17:22:54:627,-1.30351,2.24914,-9.44453,-13.4452,-7.33603,-5.65449
2023-02-16 17:22:54:637,-1.28307,2.25579,-9.43731,-13.4418,-7.3281,-5.65704
2023-02-16 17:22:54:647,-1.25348,2.2545,-9.42918,-13.4399,-7.32334,-5.66034
2023-02-16 17:22:54:657,-1.2262,2.23679,-9.41931,-13.4366,-7.31927,-5.66488
2023-02-16 17:22:54:667,-1.23977,2.23222,-9.3982,-13.4345,-7.31651,-5.67066
2023-02-16 17:22:54:677,-1.2525,2.23185,-9.42363,-13.4354,-7.30999,-5.67213
2023-02-16 17:22:54:687,-1.23002,2.25204,-9.47818,-13.4356,-7.30795,-5.6745
2023-02-16 17:22:54:697,-1.22071,2.27437,-9.5055,-13.4373,-7.30301,-5.67742
2023-02-16 17:22:54:707,-1.20949,2.2715,-9.52419,-13.4336,-7.29606,-5.68193
2023-02-16 17:22:54:717,-1.17587,2.2487,-9.49926,-13.4353,-7.29215,-5.68469
2023-02-16 17:22:54:727,-1.17657,2.24018,-9.46018,-13.4337,-7.28801,-5.69063
2023-02-16 17:22:54:737,-1.17031,2.23292,-9.44544,-13.4376,-7.28889,-5.69554
2023-02-16 17:22:54:747,-1.15577,2.23372,-9.4365,-13.442,-7.29246,-5.69585
2023-02-16 17:22:54:757,-1.18537,2.2455,-9.41515,-13.4457,-7.2944,-5.69919
2023-02-16 17:22:54:767,-1.18321,2.25115,-9.39062,-13.4527,-7.29854,-5.69779
2023-02-16 17:22:54:777,-1.17393,2.259,-9.40081,-13.465,-7.30225,-5.6954
2023-02-16 17:22:54:787,-1.1912,2.26209,-9.39505,-13.4746,-7.30515,-5.6886
2023-02-16 17:22:54:797,-1.20435,2.26671,-9.39867,-13.483,-7.31075,-5.68322
2023-02-16 17:22:54:807,-1.22693,2.27736,-9.40855,-13.4917,-7.31467,-5.67628
2023-02-16 17:22:54:817,-1.2491,2.29698,-9.4197,-13.4969,-7.31565,-5.67064
2023-02-16 17:22:54:827,-1.25863,2.3071,-9.42768,-13.5038,-7.31838,-5.66695
2023-02-16 17:22:54:837,-1.27025,2.30326,-9.44604,-13.511,-7.31664,-5.6635
2023-02-16 17:22:54:847,-1.26933,2.30394,-9.46335,-13.5121,-7.31741,-5.65993
2023-02-16 17:22:54:857,-1.26586,2.30169,-9.46369,-13.5179,-7.31444,-5.65875
2023-02-16 17:22:54:867,-1.26372,2.28883,-9.47842,-13.5221,-7.31259,-5.66027
2023-02-16 17:22:54:877,-1.24962,2.29063,-9.47412,-13.5228,-7.31229,-5.66166
2023-02-16 17:22:54:887,-1.23991,2.27731,-9.46603,-13.5237,-7.31192,-5.66243
2023-02-16 17:22:54:897,-1.21796,2.26981,-9.4517,-13.5264,-7.30992,-5.66678
2023-02-16 17:22:54:907,-1.20984,2.28081,-9.44129,-13.5284,-7.30923,-5.66712
2023-02-16 17:22:54:917,-1.20442,2.29124,-9.40787,-13.5353,-7.30894,-5.66529
2023-02-16 17:22:54:927,-1.22419,2.29522,-9.39016,-13.5447,-7.30909,-5.66108
2023-02-16 17:22:54:937,-1.24905,2.31599,-9.42888,-13.5549,-7.31077,-5.66447
2023-02-16 17:22:54:947,-1.25513,2.32536,-9.48218,-13.56,-7.31103,-5.66535
2023-02-16 17:22:54:957,-1.22833,2.34466,-9.48614,-13.5643,-7.30473,-5.6677
2023-02-16 17:22:54:967,-1.20077,2.35248,-9.49304,-13.5635,-7.30286,-5.67054
2023-02-16 17:22:54:977,-1.20064,2.32316,-9.4795,-13.5599,-7.30266,-5.66938
2023-02-16 17:22:54:987,-1.20242,2.30057,-9.45599,-13.5555,-7.30627,-5.66526
2023-02-16 17:22:54:997,-1.22219,2.3039,-9.43965,-13.5487,-7.30613,-5.66457
2023-02-16 17:22:55:7,-1.23301,2.29352,-9.44346,-13.5416,-7.31258,-5.66527
2023-02-16 17:22:55:17,-1.22637,2.26856,-9.43708,-13.5371,-7.31641,-5.66202
2023-02-16 17:22:55:27,-1.21423,2.26711,-9.44929,-13.532,-7.31955,-5.66269
2023-02-16 17:22:55:37,-1.21287,2.28476,-9.4472,-13.5293,-7.32128,-5.66021
2023-02-16 17:22:55:47,-1.19715,2.28515,-9.42992,-13.5243,-7.32601,-5.65961
2023-02-16 17:22:55:57,-1.19029,2.29477,-9.41844,-13.5226,-7.33167,-5.66136
2023-02-16 17:22:55:67,-1.20394,2.2822,-9.42691,-13.5185,-7.33814,-5.66091
2023-02-16 17:22:55:77,-1.21176,2.28169,-9.41895,-13.5129,-7.34638,-5.66175
2023-02-16 17:22:55:87,-1.22407,2.30243,-9.41122,-13.5093,-7.35174,-5.66012
2023-02-16 17:22:55:97,-1.24259,2.28862,-9.4276,-13.5035,-7.36119,-5.65854
2023-02-16 17:22:55:107,-1.25407,2.28412,-9.43944,-13.4996,-7.36847,-5.65716
2023-02-16 17:22:55:117,-1.2399,2.28528,-9.44608,-13.4933,-7.37645,-5.65193
2023-02-16 17:22:55:127,-1.23403,2.29858,-9.44726,-13.4847,-7.38578,-5.64963
2023-02-16 17:22:55:137,-1.23372,2.28921,-9.44592,-13.4747,-7.39328,-5.64806
2023-02-16 17:22:55:147,-1.24451,2.25968,-9.42869,-13.4664,-7.39848,-5.64502
2023-02-16 17:22:55:157,-1.25503,2.2467,-9.42633,-13.4602,-7.41165,-5.64113
2023-02-16 17:22:55:167,-1.26895,2.2467,-9.41628,-13.452,-7.42105,-5.63388
2023-02-16 17:22:55:177,-1.27136,2.24119,-9.41217,-13.4516,-7.4306,-5.62353
2023-02-16 17:22:55:187,-1.28034,2.25267,-9.42065,-13.4505,-7.44128,-5.61172
2023-02-16 17:22:55:197,-1.30706,2.2645,-9.42328,-13.4483,-7.45006,-5.60331
2023-02-16 17:22:55:207,-1.32223,2.25516,-9.42778,-13.4472,-7.45713,-5.59063
2023-02-16 17:22:55:217,-1.32277,2.26494,-9.42758,-13.4449,-7.46281,-5.58253
2023-02-16 17:22:55:227,-1.33357,2.26169,-9.42242,-13.4439,-7.46736,-5.57827
2023-02-16 17:22:55:237,-1.33702,2.25936,-9.41182,-13.4397,-7.47123,-5.57571
2023-02-16 17:22:55:247,-1.32904,2.2581,-9.4106,-13.4399,-7.47564,-5.57316
2023-02-16 17:22:55:257,-1.31559,2.25069,-9.42498,-13.4381,-7.47956,-5.57252
2023-02-16 17:22:55:267,-1.30341,2.24387,-9.43717,-13.4347,-7.48056,-5.56938
2023-02-16 17:22:55:277,-1.30107,2.25082,-9.43042,-13.4323,-7.48418,-5.56959
2023-02-16 17:22:55:287,-1.30151,2.2503,-9.42399,-13.4312,-7.4857,-5.57175
2023-02-16 17:22:55:297,-1.27651,2.24602,-9.42041,-13.4325,-7.48476,-5.57568
2023-02-16 17:22:55:307,-1.26583,2.25036,-9.44011,-13.4333,-7.48322,-5.57839
2023-02-16 17:22:55:317,-1.25234,2.26203,-9.46579,-13.4371,-7.48268,-5.58064
2023-02-16 17:22:55:327,-1.24101,2.26074,-9.45746,-13.4406,-7.48445,-5.58393
2023-02-16 17:22:55:337,-1.24132,2.2689,-9.45953,-13.4415,-7.48707,-5.58659
2023-02-16 17:22:55:347,-1.24162,2.2823,-9.46747,-13.4383,-7.48655,-5.59064
2023-02-16 17:22:55:357,-1.25438,2.27885,-9.46707,-13.4352,-7.48746,-5.59648
2023-02-16 17:22:55:367,-1.23843,2.25349,-9.44082,-13.4325,-7.48755,-5.59875
2023-02-16 17:22:55:377,-1.21485,2.23609,-9.44284,-13.4304,-7.48871,-5.59852
2023-02-16 17:22:55:387,-1.22291,2.22575,-9.44278,-13.4267,-7.49237,-5.59482
2023-02-16 17:22:55:397,-1.22942,2.21511,-9.42887,-13.4269,-7.49884,-5.59324
2023-02-16 17:22:55:407,-1.22366,2.19476,-9.40659,-13.4248,-7.50126,-5.5863
2023-02-16 17:22:55:417,-1.23841,2.20932,-9.39839,-13.4283,-7.50514,-5.57715
2023-02-16 17:22:55:427,-1.25221,2.22733,-9.41287,-13.4289,-7.51133,-5.57392
2023-02-16 17:22:55:437,-1.2677,2.24704,-9.41281,-13.4356,-7.51721,-5.56786
2023-02-16 17:22:55:447,-1.28046,2.26715,-9.43517,-13.4449,-7.52269,-5.56338
2023-02-16 17:22:55:457,-1.30056,2.27915,-9.45734,-13.45,-7.52962,-5.558
2023-02-16 17:22:55:467,-1.31464,2.30132,-9.48214,-13.452,-7.5355,-5.55604
2023-02-16 17:22:55:477,-1.32124,2.30784,-9.47804,-13.4491,-7.53687,-5.55785
2023-02-16 17:22:55:487,-1.30905,2.29499,-9.47129,-13.4487,-7.53283,-5.55981
2023-02-16 17:22:55:497,-1.29644,2.2978,-9.47168,-13.4441,-7.52802,-5.56401
2023-02-16 17:22:55:507,-1.28095,2.29207,-9.43667,-13.4385,-7.52958,-5.56632
2023-02-16 17:22:55:517,-1.26504,2.26432,-9.41787,-13.4325,-7.53296,-5.57434
2023-02-16 17:22:55:527,-1.2459,2.25907,-9.42316,-13.4256,-7.53186,-5.57861
2023-02-16 17:22:55:537,-1.24314,2.27224,-9.45271,-13.4189,-7.5347,-5.5869
2023-02-16 17:22:55:547,-1.25545,2.29181,-9.50259,-13.4123,-7.5395,-5.59525
2023-02-16 17:22:55:557,-1.23789,2.30346,-9.52142,-13.402,-7.54234,-5.60286
2023-02-16 17:22:55:567,-1.21236,2.27205,-9.50002,-13.3915,-7.55184,-5.60834
2023-02-16 17:22:55:577,-1.20461,2.25942,-9.47407,-13.3827,-7.56309,-5.60981
2023-02-16 17:22:55:587,-1.2301,2.26362,-9.45808,-13.3746,-7.57758,-5.61297
2023-02-16 17:22:55:597,-1.25794,2.26305,-9.43807,-13.3671,-7.59161,-5.61658
2023-02-16 17:22:55:607,-1.26237,2.26787,-9.42482,-13.3618,-7.60926,-5.61672
2023-02-16 17:22:55:617,-1.26567,2.26037,-9.42044,-13.3567,-7.62775,-5.6173
2023-02-16 17:22:55:627,-1.26749,2.28347,-9.43994,-13.3514,-7.64185,-5.61432
2023-02-16 17:22:55:637,-1.28701,2.28073,-9.45059,-13.3469,-7.65539,-5.60979
2023-02-16 17:22:55:647,-1.3028,2.27304,-9.44974,-13.337,-7.66851,-5.59923
2023-02-16 17:22:55:657,-1.32816,2.28058,-9.44724,-13.3284,-7.68058,-5.59155
2023-02-16 17:22:55:667,-1.35772,2.26811,-9.44168,-13.316,-7.69092,-5.58298
2023-02-16 17:22:55:677,-1.36596,2.25992,-9.43189,-13.3005,-7.7004,-5.57732
2023-02-16 17:22:55:687,-1.36163,2.25104,-9.4185,-13.2844,-7.70907,-5.57385
2023-02-16 17:22:55:697,-1.36307,2.23637,-9.40916,-13.2708,-7.71424,-5.5694
2023-02-16 17:22:55:707,-1.36712,2.21892,-9.40546,-13.2603,-7.7184,-5.56621
2023-02-16 17:22:55:717,-1.36273,2.21485,-9.41336,-13.2505,-7.72289,-5.56485
2023-02-16 17:22:55:727,-1.34969,2.2189,-9.4183,-13.2413,-7.72711,-5.56144
2023-02-16 17:22:55:737,-1.3453,2.21449,-9.42847,-13.2347,-7.73113,-5.56069
2023-02-16 17:22:55:747,-1.33915,2.21358,-9.42309,-13.229,-7.72953,-5.56252
2023-02-16 17:22:55:757,-1.33489,2.20639,-9.44055,-13.2241,-7.73005,-5.56595
2023-02-16 17:22:55:767,-1.31408,2.20541,-9.43403,-13.2222,-7.7246,-5.56851
2023-02-16 17:22:55:777,-1.3099,2.19872,-9.40726,-13.2232,-7.72414,-5.56796
2023-02-16 17:22:55:787,-1.30097,2.19551,-9.41902,-13.2235,-7.71633,-5.5706
2023-02-16 17:22:55:797,-1.29676,2.19939,-9.45593,-13.2222,-7.70835,-5.56819
2023-02-16 17:22:55:807,-1.28015,2.22081,-9.46595,-13.2203,-7.69672,-5.56766
2023-02-16 17:22:55:817,-1.23863,2.20996,-9.45066,-13.218,-7.68505,-5.56795
2023-02-16 17:22:55:827,-1.23868,2.19725,-9.44557,-13.2162,-7.67617,-5.56619
2023-02-16 17:22:55:837,-1.25406,2.20053,-9.44632,-13.214,-7.67255,-5.56354
2023-02-16 17:22:55:847,-1.27831,2.19055,-9.44942,-13.2122,-7.66553,-5.56052
2023-02-16 17:22:55:857,-1.27951,2.20334,-9.42366,-13.2116,-7.66191,-5.55989
2023-02-16 17:22:55:867,-1.27912,2.19543,-9.4414,-13.2102,-7.65617,-5.55725
2023-02-16 17:22:55:877,-1.28917,2.20897,-9.45232,-13.2102,-7.65224,-5.55975
2023-02-16 17:22:55:887,-1.26633,2.19913,-9.45072,-13.2098,-7.64742,-5.55728
2023-02-16 17:22:55:897,-1.25255,2.20601,-9.45252,-13.2125,-7.64203,-5.55703
2023-02-16 17:22:55:907,-1.26395,2.21644,-9.47169,-13.2146,-7.63958,-5.55302
2023-02-16 17:22:55:917,-1.28416,2.22899,-9.46586,-13.2152,-7.63685,-5.55176
2023-02-16 17:22:55:927,-1.27543,2.22388,-9.46292,-13.2174,-7.63672,-5.55307
2023-02-16 17:22:55:937,-1.25688,2.2266,-9.4654,-13.2141,-7.63436,-5.55248
2023-02-16 17:22:55:947,-1.27045,2.22169,-9.46621,-13.2105,-7.63248,-5.55559
2023-02-16 17:22:55:957,-1.27604,2.22132,-9.46136,-13.2058,-7.62862,-5.55511
2023-02-16 17:22:55:967,-1.26994,2.22333,-9.47183,-13.2014,-7.6289,-5.55751
2023-02-16 17:22:55:977,-1.2605,2.21166,-9.46797,-13.1964,-7.62808,-5.55972
2023-02-16 17:22:55:987,-1.24923,2.20379,-9.47113,-13.1891,-7.63205,-5.56656
2023-02-16 17:22:55:997,-1.25756,2.20775,-9.47642,-13.1838,-7.63837,-5.566
2023-02-16 17:22:56:7,-1.27116,2.18976,-9.45914,-13.1758,-7.64833,-5.56657
2023-02-16 17:22:56:17,-1.28083,2.18176,-9.43547,-13.1701,-7.66076,-5.56884
2023-02-16 17:22:56:27,-1.26936,2.18425,-9.41442,-13.1689,-7.67249,-5.56724
2023-02-16 17:22:56:37,-1.28259,2.17994,-9.41232,-13.1648,-7.68414,-5.56724
2023-02-16 17:22:56:47,-1.2894,2.17689,-9.40208,-13.1623,-7.69545,-5.56252
2023-02-16 17:22:56:57,-1.29371,2.17135,-9.40249,-13.1622,-7.69901,-5.55673
2023-02-16 17:22:56:67,-1.29489,2.16596,-9.42535,-13.1656,-7.70182,-5.55283
2023-02-16 17:22:56:77,-1.29297,2.17225,-9.42158,-13.1692,-7.70996,-5.54504
2023-02-16 17:22:56:87,-1.32001,2.18037,-9.40527,-13.173,-7.71797,-5.53867
2023-02-16 17:22:56:97,-1.32632,2.19632,-9.39571,-13.1801,-7.72407,-5.53037
2023-02-16 17:22:56:107,-1.31551,2.19772,-9.402,-13.1881,-7.72638,-5.5258
2023-02-16 17:22:56:117,-1.31844,2.19123,-9.41191,-13.1973,-7.72629,-5.51824
2023-02-16 17:22:56:127,-1.32609,2.20337,-9.44761,-13.2094,-7.72648,-5.50936
2023-02-16 17:22:56:137,-1.32447,2.20823,-9.45195,-13.2154,-7.72696,-5.50599
2023-02-16 17:22:56:147,-1.32028,2.20373,-9.44377,-13.2213,-7.73348,-5.50341
2023-02-16 17:22:56:157,-1.3102,2.19932,-9.44426,-13.2292,-7.73666,-5.49827
2023-02-16 17:22:56:167,-1.31279,2.21317,-9.44543,-13.2387,-7.73845,-5.49908
2023-02-16 17:22:56:177,-1.30322,2.20246,-9.43201,-13.2492,-7.73851,-5.49615
2023-02-16 17:22:56:187,-1.2877,2.20472,-9.43072,-13.2589,-7.74237,-5.49569
2023-02-16 17:22:56:197,-1.29967,2.22942,-9.41855,-13.2721,-7.74605,-5.49317
2023-02-16 17:22:56:207,-1.31318,2.23547,-9.42452,-13.2839,-7.7457,-5.49105
2023-02-16 17:22:56:217,-1.31599,2.26087,-9.44637,-13.2951,-7.75003,-5.48866
2023-02-16 17:22:56:227,-1.31447,2.27925,-9.45314,-13.305,-7.74982,-5.48647
2023-02-16 17:22:56:237,-1.30122,2.27052,-9.45397,-13.316,-7.75093,-5.48672
2023-02-16 17:22:56:247,-1.28892,2.26335,-9.43815,-13.321,-7.75383,-5.48513
2023-02-16 17:22:56:257,-1.29222,2.25843,-9.42065,-13.3298,-7.7532,-5.48235
2023-02-16 17:22:56:267,-1.29968,2.27894,-9.4227,-13.3385,-7.75335,-5.48161
2023-02-16 17:22:56:277,-1.31169,2.27987,-9.45804,-13.3462,-7.75793,-5.47564
2023-02-16 17:22:56:287,-1.33504,2.2874,-9.47747,-13.3509,-7.76221,-5.47614
2023-02-16 17:22:56:297,-1.3251,2.28172,-9.49727,-13.3573,-7.76819,-5.47497
2023-02-16 17:22:56:307,-1.30152,2.28239,-9.48421,-13.3602,-7.77002,-5.47112
2023-02-16 17:22:56:317,-1.28917,2.27174,-9.44232,-13.3623,-7.76944,-5.4728
2023-02-16 17:22:56:327,-1.28663,2.26293,-9.39946,-13.3636,-7.77071,-5.47463
2023-02-16 17:22:56:337,-1.28393,2.25661,-9.36634,-13.3622,-7.76969,-5.47312
2023-02-16 17:22:56:347,-1.28586,2.23999,-9.35983,-13.3615,-7.76541,-5.47396
2023-02-16 17:22:56:357,-1.28029,2.24733,-9.41641,-13.361,-7.76206,-5.47356
2023-02-16 17:22:56:367,-1.25619,2.27005,-9.47577,-13.3585,-7.76336,-5.47598
2023-02-16 17:22:56:377,-1.25791,2.28081,-9.51493,-13.3564,-7.76471,-5.47404
2023-02-16 17:22:56:387,-1.24105,2.27715,-9.512,-13.3525,-7.77253,-5.47373
2023-02-16 17:22:56:397,-1.22832,2.2692,-9.49319,-13.3496,-7.78121,-5.47146
2023-02-16 17:22:56:407,-1.23647,2.26788,-9.49869,-13.3495,-7.79214,-5.46882
2023-02-16 17:22:56:417,-1.25555,2.27512,-9.48343,-13.3466,-7.80628,-5.46126
2023-02-16 17:22:56:427,-1.26356,2.28024,-9.46341,-13.344,-7.82712,-5.45338
2023-02-16 17:22:56:437,-1.27153,2.28402,-9.46092,-13.341,-7.85008,-5.44601
2023-02-16 17:22:56:447,-1.28343,2.29387,-9.4524,-13.3365,-7.8697,-5.43846
2023-02-16 17:22:56:457,-1.29534,2.2868,-9.43796,-13.3282,-7.89166,-5.42857
2023-02-16 17:22:56:467,-1.2988,2.26794,-9.39942,-13.3274,-7.91323,-5.41571
2023-02-16 17:22:56:477,-1.31683,2.24944,-9.38436,-13.3249,-7.93536,-5.40061
2023-02-16 17:22:56:487,-1.32676,2.23278,-9.37152,-13.3159,-7.95881,-5.38506
2023-02-16 17:22:56:497,-1.33473,2.22422,-9.36822,-13.3111,-7.9824,-5.36699
2023-02-16 17:22:56:507,-1.36154,2.20952,-9.35066,-13.3056,-8.00534,-5.3486
2023-02-16 17:22:56:517,-1.38666,2.19859,-9.34313,-13.3045,-8.02669,-5.32853
2023-02-16 17:22:56:527,-1.41873,2.19916,-9.35026,-13.3072,-8.04462,-5.30724
2023-02-16 17:22:56:537,-1.45383,2.21515,-9.36337,-13.3134,-8.06233,-5.2884
2023-02-16 17:22:56:547,-1.46092,2.22264,-9.38037,-13.3215,-8.07681,-5.26833
2023-02-16 17:22:56:557,-1.47571,2.23577,-9.41161,-13.3364,-8.09324,-5.25095
2023-02-16 17:22:56:567,-1.49558,2.25632,-9.43885,-13.3511,-8.10661,-5.23976
2023-02-16 17:22:56:577,-1.51358,2.27294,-9.44476,-13.3661,-8.1167,-5.22848
2023-02-16 17:22:56:587,-1.50687,2.29508,-9.43171,-13.3771,-8.1187,-5.22367
2023-02-16 17:22:56:597,-1.49246,2.2973,-9.42708,-13.3901,-8.12058,-5.2223
2023-02-16 17:22:56:607,-1.50709,2.30921,-9.47154,-13.4007,-8.12017,-5.22026
2023-02-16 17:22:56:617,-1.50448,2.32714,-9.49593,-13.4058,-8.11433,-5.22265
2023-02-16 17:22:56:627,-1.45525,2.31838,-9.50127,-13.4063,-8.1074,-5.22717
2023-02-16 17:22:56:637,-1.38487,2.29567,-9.49767,-13.4006,-8.09423,-5.23568
2023-02-16 17:22:56:647,-1.36418,2.26571,-9.46543,-13.3918,-8.08341,-5.24184
2023-02-16 17:22:56:657,-1.38689,2.25424,-9.42407,-13.3835,-8.07526,-5.24692
2023-02-16 17:22:56:667,-1.39286,2.25115,-9.41831,-13.3738,-8.06559,-5.24973
2023-02-16 17:22:56:677,-1.3713,2.24721,-9.43231,-13.3661,-8.05194,-5.25472
2023-02-16 17:22:56:687,-1.3667,2.23632,-9.46209,-13.3554,-8.03656,-5.25967
2023-02-16 17:22:56:697,-1.34769,2.23675,-9.46846,-13.3442,-8.02346,-5.26193
2023-02-16 17:22:56:707,-1.34001,2.22478,-9.44121,-13.3377,-8.00988,-5.265
2023-02-16 17:22:56:717,-1.32505,2.21538,-9.4143,-13.3336,-7.99613,-5.26313
2023-02-16 17:22:56:727,-1.34116,2.19808,-9.41136,-13.3238,-7.9853,-5.26175
2023-02-16 17:22:56:737,-1.35592,2.18626,-9.39314,-13.3174,-7.97348,-5.26143
2023-02-16 17:22:56:747,-1.35597,2.18944,-9.36637,-13.3118,-7.9601,-5.26031
2023-02-16 17:22:56:757,-1.3469,2.18879,-9.36873,-13.3084,-7.94528,-5.25725
2023-02-16 17:22:56:767,-1.34061,2.198,-9.36908,-13.3048,-7.93044,-5.25697
2023-02-16 17:22:56:777,-1.35017,2.20784,-9.3821,-13.3068,-7.91773,-5.25726
2023-02-16 17:22:56:787,-1.33206,2.21939,-9.39225,-13.3086,-7.90549,-5.26072
2023-02-16 17:22:56:797,-1.30341,2.21832,-9.42298,-13.3105,-7.89412,-5.25937
2023-02-16 17:22:56:807,-1.30005,2.2291,-9.43821,-13.3158,-7.884,-5.26256
2023-02-16 17:22:56:817,-1.29693,2.22788,-9.45203,-13.3181,-7.87574,-5.26547
2023-02-16 17:22:56:827,-1.30937,2.23581,-9.45276,-13.3224,-7.87402,-5.26615
2023-02-16 17:22:56:837,-1.29917,2.24491,-9.45762,-13.3316,-7.86824,-5.26391
2023-02-16 17:22:56:847,-1.30218,2.25407,-9.46558,-13.3357,-7.86494,-5.26593
2023-02-16 17:22:56:857,-1.30222,2.26684,-9.47286,-13.3425,-7.86221,-5.26449
2023-02-16 17:22:56:867,-1.30011,2.26914,-9.45578,-13.3513,-7.85629,-5.26055
2023-02-16 17:22:56:877,-1.30152,2.2708,-9.43767,-13.3589,-7.85276,-5.25272
2023-02-16 17:22:56:887,-1.31466,2.26947,-9.43241,-13.3606,-7.8463,-5.24464
2023-02-16 17:22:56:897,-1.31799,2.28177,-9.4477,-13.3638,-7.84471,-5.235
2023-02-16 17:22:56:907,-1.3279,2.27111,-9.45874,-13.3648,-7.83471,-5.22571
2023-02-16 17:22:56:917,-1.3368,2.26935,-9.45726,-13.3622,-7.82832,-5.21673
2023-02-16 17:22:56:927,-1.33957,2.26657,-9.44293,-13.3598,-7.81897,-5.20822
2023-02-16 17:22:56:937,-1.34021,2.24948,-9.43497,-13.3564,-7.80941,-5.20119
2023-02-16 17:22:56:947,-1.33641,2.24249,-9.42653,-13.3535,-7.80153,-5.19816
2023-02-16 17:22:56:957,-1.3291,2.24522,-9.42589,-13.3503,-7.79417,-5.19314
2023-02-16 17:22:56:967,-1.32444,2.24344,-9.42853,-13.3515,-7.78808,-5.19137
2023-02-16 17:22:56:977,-1.3017,2.23947,-9.43451,-13.3522,-7.78176,-5.1931
2023-02-16 17:22:56:987,-1.27097,2.23119,-9.43982,-13.3511,-7.77924,-5.19289
2023-02-16 17:22:56:997,-1.26521,2.23528,-9.44128,-13.3511,-7.77798,-5.19406
2023-02-16 17:22:57:7,-1.25208,2.24643,-9.42906,-13.3562,-7.77888,-5.19017
2023-02-16 17:22:57:17,-1.24714,2.25156,-9.41972,-13.361,-7.77703,-5.18746
2023-02-16 17:22:57:27,-1.24635,2.26316,-9.43407,-13.3651,-7.77454,-5.18293
2023-02-16 17:22:57:37,-1.26606,2.26668,-9.45328,-13.3669,-7.77243,-5.17638
2023-02-16 17:22:57:47,-1.26999,2.28015,-9.4632,-13.3703,-7.76958,-5.16695
2023-02-16 17:22:57:57,-1.27246,2.29002,-9.46267,-13.369,-7.76267,-5.15548
2023-02-16 17:22:57:67,-1.28247,2.29636,-9.47184,-13.3675,-7.75593,-5.1455
2023-02-16 17:22:57:77,-1.294,2.30011,-9.47352,-13.3635,-7.74983,-5.13344
2023-02-16 17:22:57:87,-1.32545,2.28259,-9.46711,-13.3591,-7.74194,-5.12322
2023-02-16 17:22:57:97,-1.33643,2.27028,-9.47091,-13.349,-7.73508,-5.11426
2023-02-16 17:22:57:107,-1.33285,2.26064,-9.46383,-13.3388,-7.72601,-5.10459
2023-02-16 17:22:57:117,-1.33314,2.24165,-9.43159,-13.3255,-7.71905,-5.10312
2023-02-16 17:22:57:127,-1.34019,2.2253,-9.41975,-13.314,-7.71759,-5.10283
2023-02-16 17:22:57:137,-1.33068,2.22118,-9.42015,-13.3,-7.714,-5.10118
2023-02-16 17:22:57:147,-1.32308,2.21831,-9.42878,-13.2896,-7.71019,-5.10375
2023-02-16 17:22:57:157,-1.31519,2.22636,-9.4762,-13.2802,-7.70484,-5.1066
2023-02-16 17:22:57:167,-1.28301,2.22686,-9.50706,-13.2709,-7.70227,-5.11336
2023-02-16 17:22:57:177,-1.26902,2.21694,-9.50505,-13.2597,-7.70077,-5.12054
2023-02-16 17:22:57:187,-1.24284,2.2045,-9.47702,-13.2453,-7.70093,-5.12872
2023-02-16 17:22:57:197,-1.22587,2.18564,-9.44902,-13.2335,-7.70353,-5.13434
2023-02-16 17:22:57:207,-1.20814,2.18683,-9.4217,-13.2245,-7.70544,-5.13553
2023-02-16 17:22:57:217,-1.20978,2.18945,-9.41399,-13.2141,-7.70846,-5.13334
2023-02-16 17:22:57:227,-1.226,2.1969,-9.40363,-13.2073,-7.71122,-5.12833
2023-02-16 17:22:57:237,-1.24781,2.20575,-9.4084,-13.2051,-7.71501,-5.11987
2023-02-16 17:22:57:247,-1.26116,2.21736,-9.42008,-13.2048,-7.72114,-5.10713
2023-02-16 17:22:57:257,-1.30751,2.22788,-9.42574,-13.2049,-7.72459,-5.09134
2023-02-16 17:22:57:267,-1.32103,2.22988,-9.42569,-13.2023,-7.72688,-5.07954
2023-02-16 17:22:57:277,-1.34224,2.23289,-9.41915,-13.2011,-7.72518,-5.06445
2023-02-16 17:22:57:287,-1.36662,2.21915,-9.42159,-13.2026,-7.72209,-5.04761
2023-02-16 17:22:57:297,-1.37425,2.21309,-9.42619,-13.1975,-7.71856,-5.03182
2023-02-16 17:22:57:307,-1.3736,2.21867,-9.42062,-13.1963,-7.71434,-5.01917
2023-02-16 17:22:57:317,-1.36945,2.21969,-9.43488,-13.1965,-7.71092,-5.00765
2023-02-16 17:22:57:327,-1.37953,2.22966,-9.45105,-13.1938,-7.70692,-5.00054
2023-02-16 17:22:57:337,-1.3872,2.2331,-9.45212,-13.1891,-7.70302,-4.99631
2023-02-16 17:22:57:347,-1.36755,2.22467,-9.43394,-13.1864,-7.69659,-4.99723
2023-02-16 17:22:57:357,-1.35174,2.20777,-9.43142,-13.1849,-7.69007,-4.99789
2023-02-16 17:22:57:367,-1.33419,2.214,-9.45704,-13.1853,-7.68394,-4.99861
2023-02-16 17:22:57:377,-1.31075,2.20349,-9.42794,-13.1822,-7.6797,-5.00503
2023-02-16 17:22:57:387,-1.30411,2.19266,-9.40864,-13.1862,-7.67655,-5.00772
2023-02-16 17:22:57:397,-1.30911,2.23119,-9.43386,-13.1872,-7.66856,-5.00706
2023-02-16 17:22:57:407,-1.31584,2.24701,-9.47055,-13.1885,-7.6585,-5.00675
2023-02-16 17:22:57:417,-1.30441,2.25541,-9.49481,-13.1883,-7.64232,-5.00769
2023-02-16 17:22:57:427,-1.25079,2.24275,-9.47624,-13.1835,-7.62556,-5.0041
2023-02-16 17:22:57:437,-1.24228,2.24056,-9.46909,-13.1766,-7.61294,-4.99743
2023-02-16 17:22:57:447,-1.26381,2.21928,-9.46194,-13.1688,-7.59776,-4.99023
2023-02-16 17:22:57:457,-1.29553,2.20624,-9.45619,-13.1615,-7.58536,-4.98229
2023-02-16 17:22:57:467,-1.31081,2.2102,-9.4416,-13.1529,-7.57602,-4.97599
2023-02-16 17:22:57:477,-1.33144,2.22782,-9.45381,-13.148,-7.56492,-4.96994
2023-02-16 17:22:57:487,-1.34205,2.22532,-9.45479,-13.1409,-7.55356,-4.96566
2023-02-16 17:22:57:497,-1.32659,2.20477,-9.46987,-13.1334,-7.53501,-4.96521
2023-02-16 17:22:57:507,-1.30039,2.19822,-9.47725,-13.1268,-7.51146,-4.96389
2023-02-16 17:22:57:517,-1.29819,2.20447,-9.44794,-13.116,-7.4911,-4.96221
2023-02-16 17:22:57:527,-1.29009,2.19011,-9.41809,-13.1066,-7.47199,-4.96166
2023-02-16 17:22:57:537,-1.28892,2.17871,-9.38955,-13.0973,-7.45424,-4.9595
2023-02-16 17:22:57:547,-1.30734,2.18685,-9.38315,-13.0904,-7.43658,-4.9589
2023-02-16 17:22:57:557,-1.33118,2.19897,-9.42225,-13.0851,-7.41872,-4.9596
2023-02-16 17:22:57:567,-1.35063,2.21098,-9.46325,-13.0792,-7.39283,-4.96106
2023-02-16 17:22:57:577,-1.35168,2.22459,-9.48643,-13.0681,-7.36481,-4.97123
2023-02-16 17:22:57:587,-1.3202,2.22924,-9.47826,-13.0573,-7.3331,-4.98318
2023-02-16 17:22:57:597,-1.2842,2.2039,-9.47112,-13.0439,-7.30297,-4.99645
2023-02-16 17:22:57:607,-1.24606,2.18465,-9.4638,-13.0301,-7.26821,-5.00649
2023-02-16 17:22:57:617,-1.22361,2.1846,-9.44983,-13.0158,-7.23663,-5.01541
2023-02-16 17:22:57:627,-1.20605,2.16874,-9.42794,-13.0047,-7.20163,-5.02225
2023-02-16 17:22:57:637,-1.19527,2.1599,-9.40172,-12.9961,-7.16538,-5.02324
2023-02-16 17:22:57:647,-1.18419,2.16246,-9.40185,-12.9901,-7.12333,-5.02364
2023-02-16 17:22:57:657,-1.16189,2.16201,-9.43169,-12.9865,-7.0813,-5.02148
2023-02-16 17:22:57:667,-1.17868,2.18894,-9.46169,-12.9833,-7.03613,-5.01163
2023-02-16 17:22:57:677,-1.17683,2.19344,-9.50108,-12.9804,-6.99063,-5.00321
2023-02-16 17:22:57:687,-1.18236,2.20815,-9.50817,-12.9764,-6.94081,-4.98922
2023-02-16 17:22:57:697,-1.19638,2.21167,-9.49789,-12.9701,-6.88564,-4.97521
2023-02-16 17:22:57:707,-1.19359,2.21407,-9.48787,-12.9586,-6.82783,-4.96463
2023-02-16 17:22:57:717,-1.20027,2.21146,-9.50231,-12.9459,-6.76932,-4.95212
2023-02-16 17:22:57:727,-1.20387,2.19841,-9.52185,-12.9332,-6.7128,-4.93544
2023-02-16 17:22:57:737,-1.22329,2.1966,-9.49501,-12.9153,-6.65532,-4.92451
2023-02-16 17:22:57:747,-1.23421,2.18773,-9.49023,-12.8993,-6.59812,-4.91628
2023-02-16 17:22:57:757,-1.22027,2.17907,-9.4814,-12.8827,-6.53776,-4.91089
2023-02-16 17:22:57:767,-1.21816,2.17136,-9.46362,-12.8651,-6.47774,-4.90572
2023-02-16 17:22:57:777,-1.20673,2.18184,-9.47604,-12.8429,-6.41358,-4.90618
2023-02-16 17:22:57:787,-1.17739,2.17755,-9.50441,-12.8222,-6.34909,-4.90933
2023-02-16 17:22:57:797,-1.12763,2.16964,-9.52461,-12.7989,-6.27937,-4.91128
2023-02-16 17:22:57:807,-1.11056,2.15129,-9.49288,-12.7735,-6.21169,-4.90965
2023-02-16 17:22:57:817,-1.11694,2.13553,-9.48827,-12.7464,-6.14007,-4.90494
2023-02-16 17:22:57:827,-1.11928,2.13407,-9.4798,-12.7203,-6.06721,-4.89892
2023-02-16 17:22:57:837,-1.13356,2.11847,-9.44484,-12.6932,-5.98823,-4.89093
2023-02-16 17:22:57:847,-1.16923,2.11026,-9.44556,-12.6702,-5.90979,-4.8832
2023-02-16 17:22:57:857,-1.19298,2.11464,-9.47926,-12.6508,-5.81757,-4.87357
2023-02-16 17:22:57:867,-1.19158,2.11508,-9.48439,-12.6266,-5.71733,-4.8662
2023-02-16 17:22:57:877,-1.16194,2.10537,-9.49836,-12.6022,-5.60925,-4.86004
2023-02-16 17:22:57:887,-1.14594,2.08739,-9.48188,-12.5749,-5.49391,-4.85783
2023-02-16 17:22:57:897,-1.11825,2.09284,-9.45176,-12.5483,-5.37767,-4.86165
2023-02-16 17:22:57:907,-1.05773,2.09549,-9.45525,-12.5235,-5.25593,-4.86807
2023-02-16 17:22:57:917,-0.984598,2.07778,-9.47825,-12.4948,-5.13011,-4.87578
2023-02-16 17:22:57:927,-0.918388,2.06953,-9.47134,-12.4701,-5.00704,-4.88485
2023-02-16 17:22:57:937,-0.851665,2.0712,-9.50808,-12.4478,-4.88271,-4.89115
2023-02-16 17:22:57:947,-0.78155,2.07394,-9.55176,-12.4237,-4.75182,-4.89717
2023-02-16 17:22:57:957,-0.706616,2.08063,-9.57124,-12.3994,-4.62312,-4.9057
2023-02-16 17:22:57:967,-0.648095,2.07549,-9.53563,-12.3788,-4.50175,-4.91351
2023-02-16 17:22:57:977,-0.602866,2.06482,-9.50773,-12.3617,-4.39094,-4.92177
2023-02-16 17:22:57:987,-0.60132,2.07267,-9.49844,-12.3493,-4.29092,-4.9308
2023-02-16 17:22:57:997,-0.613224,2.08064,-9.50315,-12.3451,-4.19955,-4.93995
2023-02-16 17:22:58:7,-0.646581,2.08122,-9.48885,-12.3431,-4.1165,-4.95091
2023-02-16 17:22:58:17,-0.646085,2.09762,-9.47279,-12.3438,-4.03843,-4.96918
2023-02-16 17:22:58:27,-0.616011,2.1006,-9.49356,-12.3491,-3.96765,-4.99134
2023-02-16 17:22:58:37,-0.563349,2.11996,-9.52286,-12.3523,-3.90205,-5.01229
2023-02-16 17:22:58:47,-0.497931,2.11316,-9.52497,-12.3568,-3.83832,-5.03851
2023-02-16 17:22:58:57,-0.427314,2.11665,-9.53302,-12.3581,-3.78611,-5.0639
2023-02-16 17:22:58:67,-0.372374,2.11039,-9.54712,-12.357,-3.73675,-5.09131
2023-02-16 17:22:58:77,-0.322257,2.10865,-9.55835,-12.3577,-3.69985,-5.1129
2023-02-16 17:22:58:87,-0.291421,2.10255,-9.57041,-12.3592,-3.66824,-5.12774
2023-02-16 17:22:58:97,-0.302106,2.094,-9.57593,-12.3602,-3.64576,-5.13782
2023-02-16 17:22:58:107,-0.30838,2.09295,-9.58796,-12.364,-3.63139,-5.14522
2023-02-16 17:22:58:117,-0.328346,2.10695,-9.60105,-12.3679,-3.62459,-5.14357
2023-02-16 17:22:58:127,-0.349333,2.09524,-9.61058,-12.3717,-3.62604,-5.13935
2023-02-16 17:22:58:137,-0.379069,2.09824,-9.6042,-12.3752,-3.63035,-5.13117
2023-02-16 17:22:58:147,-0.416972,2.09868,-9.61867,-12.3836,-3.63775,-5.11804
2023-02-16 17:22:58:157,-0.436174,2.10625,-9.58685,-12.3871,-3.64858,-5.10095
2023-02-16 17:22:58:167,-0.454812,2.08941,-9.55432,-12.3926,-3.66202,-5.08161
2023-02-16 17:22:58:177,-0.491949,2.10596,-9.54818,-12.3961,-3.6736,-5.06294
2023-02-16 17:22:58:187,-0.531995,2.1136,-9.56338,-12.3993,-3.68953,-5.04435
2023-02-16 17:22:58:197,-0.554607,2.10542,-9.58209,-12.3989,-3.69895,-5.02582
2023-02-16 17:22:58:207,-0.561416,2.09722,-9.57548,-12.3957,-3.71535,-5.00655
2023-02-16 17:22:58:217,-0.600147,2.08119,-9.57288,-12.3886,-3.73113,-4.98375
2023-02-16 17:22:58:227,-0.646233,2.06633,-9.56325,-12.3811,-3.74482,-4.9664
2023-02-16 17:22:58:237,-0.661717,2.07056,-9.55426,-12.3745,-3.75892,-4.95103
2023-02-16 17:22:58:247,-0.673212,2.07402,-9.56243,-12.3664,-3.77222,-4.93757
2023-02-16 17:22:58:257,-0.681104,2.06626,-9.55923,-12.359,-3.78106,-4.92723
2023-02-16 17:22:58:267,-0.676757,2.04425,-9.534,-12.3509,-3.78912,-4.9201
2023-02-16 17:22:58:277,-0.659806,2.03199,-9.52446,-12.3433,-3.79347,-4.9143
2023-02-16 17:22:58:287,-0.66266,2.03817,-9.50223,-12.3392,-3.79853,-4.9105
2023-02-16 17:22:58:297,-0.668417,2.0429,-9.48255,-12.3378,-3.80565,-4.91298
2023-02-16 17:22:58:307,-0.670496,2.04992,-9.48638,-12.3369,-3.8166,-4.91491
2023-02-16 17:22:58:317,-0.678646,2.06118,-9.49179,-12.3346,-3.82142,-4.92099
2023-02-16 17:22:58:327,-0.671702,2.04781,-9.49959,-12.337,-3.82758,-4.92569
2023-02-16 17:22:58:337,-0.637505,2.05123,-9.50531,-12.3402,-3.82912,-4.93269
2023-02-16 17:22:58:347,-0.622655,2.05266,-9.52909,-12.3447,-3.82976,-4.94228
2023-02-16 17:22:58:357,-0.628987,2.04936,-9.5407,-12.3507,-3.83063,-4.95206
2023-02-16 17:22:58:367,-0.624821,2.05249,-9.55082,-12.3573,-3.83284,-4.96095
2023-02-16 17:22:58:377,-0.593494,2.04536,-9.56231,-12.3585,-3.8362,-4.96993
2023-02-16 17:22:58:387,-0.583009,2.03394,-9.54572,-12.3641,-3.84191,-4.97836
2023-02-16 17:22:58:397,-0.568283,2.03381,-9.5337,-12.3718,-3.85184,-4.98646
2023-02-16 17:22:58:407,-0.576961,2.06155,-9.53172,-12.3812,-3.86303,-4.98972
2023-02-16 17:22:58:417,-0.601456,2.07585,-9.54761,-12.3919,-3.87697,-4.99472
2023-02-16 17:22:58:427,-0.614496,2.08616,-9.55109,-12.4016,-3.89056,-4.99961
2023-02-16 17:22:58:437,-0.616264,2.07882,-9.54666,-12.4137,-3.90626,-5.00417
2023-02-16 17:22:58:447,-0.629695,2.1052,-9.55631,-12.426,-3.91898,-5.00957
2023-02-16 17:22:58:457,-0.633214,2.09915,-9.56971,-12.4379,-3.93323,-5.01629
2023-02-16 17:22:58:467,-0.627062,2.09663,-9.55548,-12.4488,-3.94684,-5.01995
2023-02-16 17:22:58:477,-0.602377,2.10477,-9.5613,-12.4588,-3.96101,-5.02449
2023-02-16 17:22:58:487,-0.600538,2.10065,-9.55439,-12.4623,-3.97124,-5.02498
2023-02-16 17:22:58:497,-0.603214,2.09767,-9.56069,-12.467,-3.98913,-5.02569
2023-02-16 17:22:58:507,-0.60632,2.1077,-9.58106,-12.4733,-4.00484,-5.02755
2023-02-16 17:22:58:517,-0.606874,2.10295,-9.56171,-12.475,-4.02203,-5.02281
2023-02-16 17:22:58:527,-0.622204,2.10025,-9.53768,-12.4791,-4.04578,-5.01884
2023-02-16 17:22:58:537,-0.628632,2.09606,-9.53993,-12.4861,-4.07314,-5.01241
2023-02-16 17:22:58:547,-0.647353,2.10422,-9.53077,-12.488,-4.10061,-5.00393
2023-02-16 17:22:58:557,-0.657139,2.11506,-9.51806,-12.4945,-4.12663,-4.99593
2023-02-16 17:22:58:567,-0.65697,2.1053,-9.52524,-12.5025,-4.15277,-4.98576
2023-02-16 17:22:58:577,-0.669375,2.11845,-9.53483,-12.5138,-4.18174,-4.97609
2023-02-16 17:22:58:587,-0.676459,2.13828,-9.53015,-12.5215,-4.20926,-4.96019
2023-02-16 17:22:58:597,-0.677226,2.14179,-9.53284,-12.5319,-4.23874,-4.94576
2023-02-16 17:22:58:607,-0.688214,2.14012,-9.53012,-12.5409,-4.26929,-4.9279
2023-02-16 17:22:58:617,-0.698436,2.14673,-9.52526,-12.5487,-4.30035,-4.90884
2023-02-16 17:22:58:627,-0.735062,2.14934,-9.52813,-12.5542,-4.33585,-4.88996
2023-02-16 17:22:58:637,-0.76526,2.1538,-9.53978,-12.5598,-4.36825,-4.86604
2023-02-16 17:22:58:647,-0.797435,2.15515,-9.53968,-12.5631,-4.39806,-4.84418
2023-02-16 17:22:58:657,-0.810451,2.15573,-9.53656,-12.5677,-4.42577,-4.82461
2023-02-16 17:22:58:667,-0.819996,2.16261,-9.52772,-12.5685,-4.45504,-4.8078
2023-02-16 17:22:58:677,-0.818738,2.14887,-9.52085,-12.5692,-4.48334,-4.78915
2023-02-16 17:22:58:687,-0.816942,2.14591,-9.50982,-12.5707,-4.51031,-4.77169
2023-02-16 17:22:58:697,-0.834502,2.14338,-9.50443,-12.5703,-4.54139,-4.75653
2023-02-16 17:22:58:707,-0.825695,2.14246,-9.5214,-12.5727,-4.56332,-4.74086
2023-02-16 17:22:58:717,-0.838014,2.1467,-9.55245,-12.5685,-4.58525,-4.72749
2023-02-16 17:22:58:727,-0.847293,2.15076,-9.58565,-12.5673,-4.6101,-4.71748
2023-02-16 17:22:58:737,-0.839626,2.16088,-9.57393,-12.5627,-4.63264,-4.70633
2023-02-16 17:22:58:747,-0.826109,2.14727,-9.56215,-12.5574,-4.65551,-4.7014
2023-02-16 17:22:58:757,-0.833223,2.1465,-9.55737,-12.5567,-4.68379,-4.69613
2023-02-16 17:22:58:767,-0.846598,2.15842,-9.5396,-12.5545,-4.70974,-4.68931
2023-02-16 17:22:58:777,-0.835292,2.15413,-9.51429,-12.549,-4.73397,-4.68397
2023-02-16 17:22:58:787,-0.825854,2.16618,-9.50098,-12.5456,-4.75979,-4.68372
2023-02-16 17:22:58:797,-0.808243,2.15893,-9.49626,-12.545,-4.78634,-4.68099
2023-02-16 17:22:58:807,-0.795849,2.14556,-9.48447,-12.5424,-4.81056,-4.67952
2023-02-16 17:22:58:817,-0.80071,2.14899,-9.4863,-12.5401,-4.83318,-4.67864
2023-02-16 17:22:58:827,-0.821829,2.14506,-9.48542,-12.5375,-4.858,-4.67383
2023-02-16 17:22:58:837,-0.828448,2.13264,-9.48861,-12.5295,-4.8819,-4.66633
2023-02-16 17:22:58:847,-0.829402,2.1212,-9.48584,-12.5233,-4.90785,-4.658
2023-02-16 17:22:58:857,-0.826409,2.12034,-9.48327,-12.5159,-4.93296,-4.65189
2023-02-16 17:22:58:867,-0.842109,2.1416,-9.50082,-12.5135,-4.95638,-4.64499
2023-02-16 17:22:58:877,-0.840061,2.13413,-9.52361,-12.5074,-4.97678,-4.63728
2023-02-16 17:22:58:887,-0.857203,2.13732,-9.54495,-12.5011,-4.99663,-4.62658
2023-02-16 17:22:58:897,-0.877104,2.13824,-9.54872,-12.4938,-5.01256,-4.61997
2023-02-16 17:22:58:907,-0.884347,2.13631,-9.55091,-12.4894,-5.03193,-4.61202
2023-02-16 17:22:58:917,-0.888837,2.1246,-9.5396,-12.4835,-5.04979,-4.60754
2023-02-16 17:22:58:927,-0.884729,2.12011,-9.5307,-12.4794,-5.06193,-4.59831
2023-02-16 17:22:58:937,-0.864945,2.11673,-9.49104,-12.4765,-5.07772,-4.5935
2023-02-16 17:22:58:947,-0.854584,2.11141,-9.47465,-12.4725,-5.09713,-4.58863
2023-02-16 17:22:58:957,-0.876748,2.11933,-9.49693,-12.4702,-5.11471,-4.58152
2023-02-16 17:22:58:967,-0.88448,2.12778,-9.51337,-12.4686,-5.12813,-4.577
2023-02-16 17:22:58:977,-0.867033,2.13197,-9.52128,-12.4674,-5.1406,-4.57442
2023-02-16 17:22:58:987,-0.849543,2.1375,-9.53366,-12.4623,-5.1535,-4.56995
2023-02-16 17:22:58:997,-0.851884,2.13821,-9.53348,-12.4575,-5.16878,-4.56537
2023-02-16 17:22:59:7,-0.876816,2.13675,-9.53516,-12.45,-5.18654,-4.56042
2023-02-16 17:22:59:17,-0.890808,2.12837,-9.53018,-12.4412,-5.20319,-4.55409
2023-02-16 17:22:59:27,-0.884413,2.10363,-9.54661,-12.4332,-5.2198,-4.54991
2023-02-16 17:22:59:37,-0.881748,2.09881,-9.53817,-12.4233,-5.23766,-4.54549
2023-02-16 17:22:59:47,-0.877497,2.095,-9.54266,-12.4124,-5.25637,-4.54056
2023-02-16 17:22:59:57,-0.877385,2.09884,-9.53448,-12.4022,-5.27509,-4.53525
2023-02-16 17:22:59:67,-0.871512,2.07706,-9.52072,-12.3941,-5.29337,-4.53114
2023-02-16 17:22:59:77,-0.858753,2.07889,-9.50146,-12.3853,-5.31283,-4.52593
2023-02-16 17:22:59:87,-0.873445,2.07191,-9.4917,-12.3771,-5.33496,-4.5201
2023-02-16 17:22:59:97,-0.896166,2.07056,-9.49892,-12.3702,-5.36128,-4.51557
2023-02-16 17:22:59:107,-0.893193,2.06563,-9.50379,-12.3676,-5.38604,-4.50901
2023-02-16 17:22:59:117,-0.900142,2.05988,-9.50142,-12.3644,-5.41245,-4.50145
2023-02-16 17:22:59:127,-0.911932,2.06176,-9.50617,-12.3583,-5.43371,-4.49355
2023-02-16 17:22:59:137,-0.910106,2.06972,-9.51379,-12.3516,-5.45486,-4.48673
2023-02-16 17:22:59:147,-0.914825,2.06119,-9.52846,-12.3432,-5.47844,-4.48288
2023-02-16 17:22:59:157,-0.902315,2.05945,-9.53589,-12.3363,-5.50026,-4.47768
2023-02-16 17:22:59:167,-0.90601,2.04921,-9.53182,-12.329,-5.52358,-4.47136
2023-02-16 17:22:59:177,-0.913237,2.04822,-9.52079,-12.3226,-5.55062,-4.46009
2023-02-16 17:22:59:187,-0.91797,2.0463,-9.5098,-12.3203,-5.57766,-4.44874
2023-02-16 17:22:59:197,-0.937444,2.04855,-9.48753,-12.3202,-5.60439,-4.43371
2023-02-16 17:22:59:207,-0.951357,2.05152,-9.48529,-12.3171,-5.63273,-4.42087
2023-02-16 17:22:59:217,-0.965043,2.05482,-9.4941,-12.3186,-5.65784,-4.40836
2023-02-16 17:22:59:227,-0.976196,2.0625,-9.49573,-12.3188,-5.68368,-4.39309
2023-02-16 17:22:59:237,-0.987747,2.06978,-9.50701,-12.3246,-5.70497,-4.37954
2023-02-16 17:22:59:247,-0.998589,2.07188,-9.51461,-12.3303,-5.7258,-4.36182
2023-02-16 17:22:59:257,-1.01225,2.08326,-9.50405,-12.334,-5.74166,-4.34267
2023-02-16 17:22:59:267,-1.03155,2.10197,-9.49965,-12.3353,-5.75971,-4.32655
2023-02-16 17:22:59:277,-1.02771,2.08936,-9.5027,-12.336,-5.77661,-4.31185
2023-02-16 17:22:59:287,-1.0288,2.08738,-9.51949,-12.3363,-5.79212,-4.29655
2023-02-16 17:22:59:297,-1.03894,2.08752,-9.52125,-12.338,-5.80811,-4.28318
2023-02-16 17:22:59:307,-1.03609,2.08289,-9.50883,-12.3329,-5.81981,-4.27222
2023-02-16 17:22:59:317,-1.02791,2.08723,-9.4975,-12.3311,-5.83053,-4.26334
2023-02-16 17:22:59:327,-1.02044,2.08359,-9.50227,-12.3312,-5.84084,-4.25596
2023-02-16 17:22:59:337,-1.01458,2.08244,-9.50581,-12.3305,-5.84985,-4.25061
2023-02-16 17:22:59:347,-1.003,2.0668,-9.50756,-12.3291,-5.85733,-4.24392
2023-02-16 17:22:59:357,-1.00637,2.06786,-9.50485,-12.3286,-5.87038,-4.23489
2023-02-16 17:22:59:367,-1.01792,2.07692,-9.50388,-12.3277,-5.88322,-4.22482
2023-02-16 17:22:59:377,-1.00912,2.08672,-9.5024,-12.3262,-5.89793,-4.22172
2023-02-16 17:22:59:387,-1.0125,2.07769,-9.49891,-12.3279,-5.91201,-4.21534
2023-02-16 17:22:59:397,-1.01042,2.073,-9.49372,-12.3256,-5.92185,-4.20875
2023-02-16 17:22:59:407,-1.02326,2.08373,-9.52529,-12.3261,-5.93465,-4.20262
2023-02-16 17:22:59:417,-1.04211,2.08378,-9.53938,-12.3224,-5.9425,-4.19442
2023-02-16 17:22:59:427,-1.05672,2.08243,-9.51511,-12.3202,-5.94938,-4.18686
2023-02-16 17:22:59:437,-1.03182,2.08499,-9.52756,-12.314,-5.95616,-4.18177
2023-02-16 17:22:59:447,-1.0134,2.06927,-9.51972,-12.3066,-5.96292,-4.1755
2023-02-16 17:22:59:457,-1.0189,2.04965,-9.49579,-12.3018,-5.9681,-4.1693
2023-02-16 17:22:59:467,-1.02098,2.04168,-9.46918,-12.2975,-5.97611,-4.16335
2023-02-16 17:22:59:477,-1.01938,2.0336,-9.46672,-12.2932,-5.982,-4.15775
2023-02-16 17:22:59:487,-1.02423,2.04946,-9.50952,-12.2933,-5.99325,-4.15273
2023-02-16 17:22:59:497,-1.02534,2.05702,-9.55776,-12.2943,-6.00537,-4.14842
2023-02-16 17:22:59:507,-1.02459,2.06036,-9.562,-12.2951,-6.01647,-4.14413
2023-02-16 17:22:59:517,-1.00121,2.05797,-9.55655,-12.2951,-6.03142,-4.14301
2023-02-16 17:22:59:527,-0.989394,2.06476,-9.55088,-12.2952,-6.0488,-4.1389
2023-02-16 17:22:59:537,-0.99792,2.06936,-9.51422,-12.2951,-6.06555,-4.13799
2023-02-16 17:22:59:547,-0.993776,2.06473,-9.49038,-12.2968,-6.08195,-4.13535
2023-02-16 17:22:59:557,-0.99476,2.0519,-9.47091,-12.2958,-6.09584,-4.12918
2023-02-16 17:22:59:567,-0.987233,2.05575,-9.43993,-12.3029,-6.10814,-4.12204
2023-02-16 17:22:59:577,-0.977949,2.05764,-9.45489,-12.3055,-6.12216,-4.11455
2023-02-16 17:22:59:587,-0.980737,2.06121,-9.45934,-12.3153,-6.13818,-4.102
2023-02-16 17:22:59:597,-1.01229,2.06409,-9.44855,-12.3249,-6.15168,-4.08433
2023-02-16 17:22:59:607,-1.04682,2.07293,-9.44491,-12.3369,-6.16729,-4.06938
2023-02-16 17:22:59:617,-1.07658,2.08332,-9.44652,-12.3472,-6.17997,-4.05717
2023-02-16 17:22:59:627,-1.10345,2.0958,-9.45961,-12.3595,-6.19211,-4.04229
2023-02-16 17:22:59:637,-1.12295,2.09597,-9.48635,-12.3709,-6.20508,-4.0298
2023-02-16 17:22:59:647,-1.12083,2.10351,-9.49721,-12.3823,-6.21355,-4.02329
2023-02-16 17:22:59:657,-1.12793,2.11275,-9.50481,-12.3986,-6.22297,-4.0147
2023-02-16 17:22:59:667,-1.10504,2.12047,-9.52375,-12.4103,-6.23244,-4.00888
2023-02-16 17:22:59:677,-1.08507,2.1218,-9.529,-12.4236,-6.23943,-4.00695
2023-02-16 17:22:59:687,-1.08891,2.12786,-9.52242,-12.4344,-6.24416,-4.00779
2023-02-16 17:22:59:697,-1.06595,2.12605,-9.51891,-12.442,-6.25287,-4.00975
2023-02-16 17:22:59:707,-1.05051,2.1405,-9.51817,-12.4553,-6.2571,-4.0088
2023-02-16 17:22:59:717,-1.04631,2.13263,-9.48823,-12.4694,-6.26089,-4.01155
2023-02-16 17:22:59:727,-1.0582,2.15143,-9.48285,-12.4814,-6.26216,-4.00971
2023-02-16 17:22:59:737,-1.08901,2.1597,-9.53069,-12.4912,-6.26389,-4.00697
2023-02-16 17:22:59:747,-1.09123,2.16077,-9.55826,-12.5014,-6.26264,-4.00673
2023-02-16 17:22:59:757,-1.0604,2.15315,-9.55019,-12.505,-6.2593,-4.00692
2023-02-16 17:22:59:767,-1.04548,2.13884,-9.54516,-12.5084,-6.25927,-4.00551
2023-02-16 17:22:59:777,-1.05913,2.13927,-9.53057,-12.5038,-6.26346,-4.00191
2023-02-16 17:22:59:787,-1.08679,2.14024,-9.51812,-12.5005,-6.26778,-4.00148
2023-02-16 17:22:59:797,-1.08487,2.13538,-9.52452,-12.4978,-6.27245,-4.00138
2023-02-16 17:22:59:807,-1.08471,2.13709,-9.52218,-12.4927,-6.27796,-4.0005
2023-02-16 17:22:59:817,-1.09026,2.12861,-9.5194,-12.4853,-6.28099,-4.00373
2023-02-16 17:22:59:827,-1.09051,2.11312,-9.51169,-12.4811,-6.28732,-4.00591
2023-02-16 17:22:59:837,-1.07274,2.1178,-9.49729,-12.4742,-6.2918,-4.01037
2023-02-16 17:22:59:847,-1.06272,2.11657,-9.48108,-12.4707,-6.29286,-4.01256
2023-02-16 17:22:59:857,-1.05811,2.11951,-9.46443,-12.4707,-6.29808,-4.01823
2023-02-16 17:22:59:867,-1.05198,2.11614,-9.46406,-12.4679,-6.29925,-4.02184
2023-02-16 17:22:59:877,-1.06507,2.10566,-9.47143,-12.4652,-6.30412,-4.0241
2023-02-16 17:22:59:887,-1.06338,2.11236,-9.47562,-12.4607,-6.30667,-4.02774
2023-02-16 17:22:59:897,-1.06406,2.10829,-9.48427,-12.4558,-6.31072,-4.03024
2023-02-16 17:22:59:907,-1.06655,2.10256,-9.47813,-12.4531,-6.31249,-4.03241
2023-02-16 17:22:59:917,-1.07072,2.09498,-9.4933,-12.4491,-6.31765,-4.03314
2023-02-16 17:22:59:927,-1.05708,2.07924,-9.4885,-12.441,-6.31935,-4.03313
2023-02-16 17:22:59:937,-1.06786,2.07738,-9.49901,-12.4361,-6.32201,-4.03352
2023-02-16 17:22:59:947,-1.07696,2.08469,-9.5069,-12.4347,-6.3264,-4.0305
2023-02-16 17:22:59:957,-1.09037,2.08689,-9.50231,-12.4352,-6.32815,-4.02998
2023-02-16 17:22:59:967,-1.09384,2.09027,-9.48915,-12.4312,-6.33528,-4.02765
2023-02-16 17:22:59:977,-1.09627,2.08654,-9.48399,-12.4292,-6.33749,-4.0251
2023-02-16 17:22:59:987,-1.10073,2.07925,-9.48447,-12.4327,-6.34081,-4.02221
2023-02-16 17:22:59:997,-1.0865,2.07804,-9.48526,-12.4329,-6.34349,-4.01749
2023-02-16 17:23:00:7,-1.07723,2.08364,-9.47776,-12.4353,-6.34403,-4.01249
2023-02-16 17:23:00:17,-1.07765,2.09135,-9.4963,-12.4386,-6.34103,-4.00668
2023-02-16 17:23:00:27,-1.06985,2.09176,-9.49614,-12.4445,-6.34228,-4.00034
2023-02-16 17:23:00:37,-1.07032,2.11009,-9.48892,-12.4461,-6.34189,-3.99324
2023-02-16 17:23:00:47,-1.06227,2.11299,-9.50776,-12.452,-6.34019,-3.98825
2023-02-16 17:23:00:57,-1.0709,2.12289,-9.52396,-12.4553,-6.33719,-3.98118
2023-02-16 17:23:00:67,-1.07365,2.11479,-9.523,-12.4568,-6.33585,-3.97384
2023-02-16 17:23:00:77,-1.06787,2.1043,-9.53307,-12.4575,-6.33619,-3.97188
2023-02-16 17:23:00:87,-1.06806,2.10548,-9.52447,-12.4566,-6.33559,-3.9682
2023-02-16 17:23:00:97,-1.06229,2.10312,-9.51899,-12.4545,-6.33308,-3.96419
2023-02-16 17:23:00:107,-1.0609,2.10509,-9.51415,-12.4534,-6.33124,-3.96235
2023-02-16 17:23:00:117,-1.06659,2.09615,-9.53012,-12.4522,-6.33558,-3.96118
2023-02-16 17:23:00:127,-1.04726,2.09336,-9.52819,-12.4462,-6.34269,-3.9616
2023-02-16 17:23:00:137,-1.04173,2.07489,-9.50268,-12.4429,-6.34758,-3.96343
2023-02-16 17:23:00:147,-1.03326,2.05757,-9.49294,-12.4365,-6.35458,-3.96412
2023-02-16 17:23:00:157,-1.03252,2.05227,-9.4943,-12.4362,-6.36378,-3.96082
2023-02-16 17:23:00:167,-1.03919,2.06033,-9.48688,-12.4368,-6.37162,-3.95677
2023-02-16 17:23:00:177,-1.05532,2.06383,-9.47943,-12.4384,-6.38187,-3.95061
2023-02-16 17:23:00:187,-1.0676,2.0633,-9.475,-12.4382,-6.3915,-3.94653
2023-02-16 17:23:00:197,-1.07872,2.07056,-9.47354,-12.4421,-6.40023,-3.94072
2023-02-16 17:23:00:207,-1.07391,2.07102,-9.49671,-12.4462,-6.40835,-3.93502
2023-02-16 17:23:00:217,-1.09971,2.07257,-9.50293,-12.4495,-6.4201,-3.92751
2023-02-16 17:23:00:227,-1.12787,2.07634,-9.50104,-12.4513,-6.42613,-3.92283
2023-02-16 17:23:00:237,-1.12469,2.07735,-9.49449,-12.4541,-6.42941,-3.91953
2023-02-16 17:23:00:247,-1.11699,2.08201,-9.48275,-12.4578,-6.4324,-3.91879
2023-02-16 17:23:00:257,-1.1048,2.0748,-9.47261,-12.4612,-6.43436,-3.91587
2023-02-16 17:23:00:267,-1.09797,2.06167,-9.4615,-12.4641,-6.44084,-3.91195
2023-02-16 17:23:00:277,-1.09477,2.0652,-9.43908,-12.4703,-6.44299,-3.91205
2023-02-16 17:23:00:287,-1.09477,2.07012,-9.44591,-12.4772,-6.44558,-3.91027
2023-02-16 17:23:00:297,-1.09443,2.07673,-9.49326,-12.4851,-6.44689,-3.90887
2023-02-16 17:23:00:307,-1.08445,2.10286,-9.54666,-12.4945,-6.44977,-3.91179
2023-02-16 17:23:00:317,-1.0801,2.11359,-9.56957,-12.5009,-6.44975,-3.91412
2023-02-16 17:23:00:327,-1.05456,2.09953,-9.55369,-12.5062,-6.45601,-3.91803
2023-02-16 17:23:00:337,-1.02892,2.08518,-9.51339,-12.5099,-6.46465,-3.91851
2023-02-16 17:23:00:347,-1.05571,2.09526,-9.48386,-12.517,-6.47489,-3.91841
2023-02-16 17:23:00:357,-1.08754,2.10528,-9.48277,-12.5288,-6.48694,-3.91659
2023-02-16 17:23:00:367,-1.09887,2.13957,-9.47479,-12.5412,-6.49567,-3.91904
2023-02-16 17:23:00:377,-1.09707,2.14435,-9.46729,-12.5585,-6.50524,-3.91733
2023-02-16 17:23:00:387,-1.09234,2.1517,-9.46169,-12.5709,-6.5122,-3.92041
2023-02-16 17:23:00:397,-1.08151,2.16168,-9.4569,-12.5847,-6.52509,-3.92311
2023-02-16 17:23:00:407,-1.07835,2.15403,-9.46111,-12.5943,-6.53532,-3.92717
2023-02-16 17:23:00:417,-1.09373,2.15361,-9.46372,-12.6047,-6.54557,-3.92705
2023-02-16 17:23:00:427,-1.095,2.14055,-9.4724,-12.6135,-6.55744,-3.93042
2023-02-16 17:23:00:437,-1.10864,2.13098,-9.47594,-12.621,-6.56832,-3.93183
2023-02-16 17:23:00:447,-1.1229,2.12602,-9.4631,-12.6307,-6.57976,-3.93524
2023-02-16 17:23:00:457,-1.13037,2.1358,-9.46275,-12.6426,-6.59001,-3.93934
2023-02-16 17:23:00:467,-1.12708,2.14015,-9.47125,-12.6557,-6.6053,-3.94213
2023-02-16 17:23:00:477,-1.12451,2.14996,-9.49746,-12.6659,-6.61743,-3.94507
2023-02-16 17:23:00:487,-1.13306,2.15855,-9.5263,-12.6789,-6.63028,-3.95358
2023-02-16 17:23:00:497,-1.1297,2.1633,-9.53497,-12.6904,-6.64189,-3.96014
2023-02-16 17:23:00:507,-1.12299,2.17987,-9.53812,-12.7027,-6.6522,-3.96568
2023-02-16 17:23:00:517,-1.12301,2.18695,-9.53442,-12.7191,-6.66439,-3.97547
2023-02-16 17:23:00:527,-1.1151,2.17483,-9.49679,-12.725,-6.67761,-3.98476
2023-02-16 17:23:00:537,-1.11563,2.161,-9.46011,-12.7369,-6.69201,-3.99056
2023-02-16 17:23:00:547,-1.12611,2.16943,-9.47871,-12.7451,-6.70447,-3.99045
2023-02-16 17:23:00:557,-1.15178,2.16924,-9.49119,-12.7543,-6.71406,-3.99202
2023-02-16 17:23:00:567,-1.13407,2.15402,-9.49105,-12.7582,-6.71785,-3.99363
2023-02-16 17:23:00:577,-1.09558,2.14906,-9.50068,-12.7617,-6.7271,-3.99538
2023-02-16 17:23:00:587,-1.1055,2.15258,-9.50173,-12.7659,-6.73823,-3.99217
2023-02-16 17:23:00:597,-1.1384,2.15967,-9.49622,-12.7676,-6.75359,-3.99006
2023-02-16 17:23:00:607,-1.15792,2.16605,-9.50912,-12.7669,-6.76773,-3.98769
2023-02-16 17:23:00:617,-1.16149,2.16875,-9.5026,-12.7678,-6.78125,-3.98512
2023-02-16 17:23:00:627,-1.15505,2.16844,-9.49082,-12.7705,-6.79455,-3.98572
2023-02-16 17:23:00:637,-1.1665,2.16469,-9.48768,-12.7716,-6.80443,-3.98213
2023-02-16 17:23:00:647,-1.17664,2.15976,-9.4921,-12.774,-6.81379,-3.97694
2023-02-16 17:23:00:657,-1.18514,2.16059,-9.48828,-12.7734,-6.82394,-3.97319
2023-02-16 17:23:00:667,-1.17688,2.15727,-9.48274,-12.7743,-6.83268,-3.97006
2023-02-16 17:23:00:677,-1.17567,2.15946,-9.45874,-12.7732,-6.84053,-3.96743
2023-02-16 17:23:00:687,-1.18221,2.15781,-9.45308,-12.7722,-6.84796,-3.9626
2023-02-16 17:23:00:697,-1.18631,2.15661,-9.44279,-12.7727,-6.85386,-3.95811
2023-02-16 17:23:00:707,-1.20118,2.16001,-9.42813,-12.7679,-6.86094,-3.95122
2023-02-16 17:23:00:717,-1.22034,2.15603,-9.44365,-12.7648,-6.86449,-3.94767
2023-02-16 17:23:00:727,-1.21847,2.16701,-9.46451,-12.7615,-6.86765,-3.94319
2023-02-16 17:23:00:737,-1.21693,2.17113,-9.4815,-12.7594,-6.87197,-3.94154
2023-02-16 17:23:00:747,-1.21301,2.16926,-9.48511,-12.7584,-6.87387,-3.94175
2023-02-16 17:23:00:757,-1.20273,2.15464,-9.4797,-12.7526,-6.87589,-3.94114
2023-02-16 17:23:00:767,-1.18636,2.14131,-9.47234,-12.7505,-6.87662,-3.94053
2023-02-16 17:23:00:777,-1.18874,2.14893,-9.46115,-12.7498,-6.87828,-3.93922
2023-02-16 17:23:00:787,-1.18788,2.14439,-9.44742,-12.7527,-6.87682,-3.93558
2023-02-16 17:23:00:797,-1.18828,2.14867,-9.44266,-12.7545,-6.87823,-3.93104
2023-02-16 17:23:00:807,-1.19052,2.16311,-9.46218,-12.7569,-6.87714,-3.92752
2023-02-16 17:23:00:817,-1.20432,2.17759,-9.46641,-12.7617,-6.87628,-3.92643
2023-02-16 17:23:00:827,-1.19823,2.18214,-9.48938,-12.7663,-6.86908,-3.92328
2023-02-16 17:23:00:837,-1.19473,2.19324,-9.49548,-12.7702,-6.86211,-3.92007
2023-02-16 17:23:00:847,-1.18908,2.1994,-9.48657,-12.772,-6.85518,-3.91466
2023-02-16 17:23:00:857,-1.19286,2.19689,-9.48935,-12.7733,-6.84896,-3.913
2023-02-16 17:23:00:867,-1.19531,2.18733,-9.4926,-12.7702,-6.84311,-3.91154
2023-02-16 17:23:00:877,-1.18807,2.1771,-9.4893,-12.7683,-6.83795,-3.90891
2023-02-16 17:23:00:887,-1.16466,2.18084,-9.48442,-12.7674,-6.82988,-3.90883
2023-02-16 17:23:00:897,-1.14961,2.17623,-9.50005,-12.7631,-6.82182,-3.91184
2023-02-16 17:23:00:907,-1.16312,2.17414,-9.50031,-12.7557,-6.81798,-3.91431
2023-02-16 17:23:00:917,-1.15982,2.1568,-9.49272,-12.7484,-6.81239,-3.91838
2023-02-16 17:23:00:927,-1.16982,2.16469,-9.47813,-12.7469,-6.80739,-3.91993
2023-02-16 17:23:00:937,-1.17106,2.15512,-9.4814,-12.7455,-6.80335,-3.92254
2023-02-16 17:23:00:947,-1.16199,2.1576,-9.49335,-12.7393,-6.79777,-3.92269
2023-02-16 17:23:00:957,-1.15138,2.15302,-9.485,-12.7351,-6.79214,-3.92207
2023-02-16 17:23:00:967,-1.15438,2.16347,-9.4696,-12.7317,-6.79006,-3.92091
2023-02-16 17:23:00:977,-1.12794,2.15759,-9.46587,-12.725,-6.7873,-3.92303
2023-02-16 17:23:00:987,-1.12723,2.14078,-9.48259,-12.7189,-6.78129,-3.92294
2023-02-16 17:23:00:997,-1.15384,2.14005,-9.49319,-12.7138,-6.77212,-3.91696
2023-02-16 17:23:01:7,-1.18388,2.135,-9.50186,-12.7051,-6.76592,-3.91464
2023-02-16 17:23:01:17,-1.18322,2.12823,-9.49558,-12.6943,-6.75832,-3.90631
2023-02-16 17:23:01:27,-1.1728,2.11103,-9.49203,-12.6857,-6.75012,-3.8988
2023-02-16 17:23:01:37,-1.15494,2.10008,-9.45734,-12.6777,-6.74414,-3.89331
2023-02-16 17:23:01:47,-1.14684,2.08265,-9.43097,-12.6711,-6.73676,-3.89194
2023-02-16 17:23:01:57,-1.16533,2.09757,-9.42922,-12.6675,-6.72798,-3.88851
2023-02-16 17:23:01:67,-1.15499,2.10125,-9.44087,-12.6664,-6.71837,-3.88574
2023-02-16 17:23:01:77,-1.14843,2.09378,-9.484,-12.6683,-6.71102,-3.8908
2023-02-16 17:23:01:87,-1.13837,2.12869,-9.53127,-12.6685,-6.70066,-3.89223
2023-02-16 17:23:01:97,-1.10672,2.14455,-9.55692,-12.6678,-6.69492,-3.89731
2023-02-16 17:23:01:107,-1.08439,2.11453,-9.54126,-12.6609,-6.69109,-3.89915
2023-02-16 17:23:01:117,-1.0637,2.11134,-9.51987,-12.658,-6.69092,-3.90363
2023-02-16 17:23:01:127,-1.08665,2.11164,-9.49017,-12.6547,-6.69123,-3.90367
2023-02-16 17:23:01:137,-1.1017,2.10914,-9.47077,-12.6539,-6.69573,-3.90271
2023-02-16 17:23:01:147,-1.09707,2.11242,-9.45168,-12.6587,-6.69522,-3.90386
2023-02-16 17:23:01:157,-1.09406,2.11196,-9.44774,-12.6607,-6.69542,-3.90238
2023-02-16 17:23:01:167,-1.08488,2.12061,-9.43854,-12.6656,-6.6961,-3.89472
2023-02-16 17:23:01:177,-1.08852,2.12261,-9.44022,-12.6734,-6.69643,-3.89012
2023-02-16 17:23:01:187,-1.10646,2.12623,-9.44727,-12.6828,-6.69582,-3.88291
2023-02-16 17:23:01:197,-1.12229,2.1297,-9.45507,-12.6916,-6.69563,-3.87444
2023-02-16 17:23:01:207,-1.15155,2.14139,-9.464,-12.7,-6.69559,-3.86352
2023-02-16 17:23:01:217,-1.16094,2.15065,-9.4745,-12.7053,-6.69428,-3.85388
2023-02-16 17:23:01:227,-1.18878,2.16908,-9.49432,-12.7101,-6.69061,-3.84789
2023-02-16 17:23:01:237,-1.1813,2.16657,-9.50769,-12.7194,-6.68752,-3.84224
2023-02-16 17:23:01:247,-1.18128,2.162,-9.49728,-12.7214,-6.68475,-3.83746
2023-02-16 17:23:01:257,-1.17935,2.16345,-9.50696,-12.7263,-6.68357,-3.83805
2023-02-16 17:23:01:267,-1.16798,2.15914,-9.49586,-12.727,-6.67746,-3.83779
2023-02-16 17:23:01:277,-1.15843,2.16404,-9.48373,-12.7284,-6.67085,-3.83733
2023-02-16 17:23:01:287,-1.13995,2.15774,-9.48072,-12.7337,-6.66451,-3.84227
2023-02-16 17:23:01:297,-1.11343,2.16224,-9.44994,-12.7412,-6.65973,-3.84736
2023-02-16 17:23:01:307,-1.1043,2.14511,-9.42682,-12.75,-6.65351,-3.8531
2023-02-16 17:23:01:317,-1.13422,2.16291,-9.4559,-12.7598,-6.65,-3.85863
2023-02-16 17:23:01:327,-1.15952,2.20341,-9.50372,-12.7695,-6.64596,-3.86134
2023-02-16 17:23:01:337,-1.15515,2.22845,-9.5116,-12.775,-6.63553,-3.86605
2023-02-16 17:23:01:347,-1.12104,2.21935,-9.53926,-12.7765,-6.62285,-3.87327
2023-02-16 17:23:01:357,-1.0905,2.20521,-9.54486,-12.7714,-6.60877,-3.8787
2023-02-16 17:23:01:367,-1.08434,2.18753,-9.51976,-12.7661,-6.60007,-3.88345
2023-02-16 17:23:01:377,-1.08603,2.16454,-9.49609,-12.7583,-6.5918,-3.88869
2023-02-16 17:23:01:387,-1.08886,2.15034,-9.48698,-12.748,-6.58554,-3.89073
2023-02-16 17:23:01:397,-1.1015,2.15072,-9.4789,-12.74,-6.58087,-3.8923
2023-02-16 17:23:01:407,-1.0942,2.14296,-9.47634,-12.7341,-6.57197,-3.89037
2023-02-16 17:23:01:417,-1.08925,2.1506,-9.47489,-12.7291,-6.56203,-3.89176
2023-02-16 17:23:01:427,-1.09725,2.14982,-9.49265,-12.7232,-6.55006,-3.88892
2023-02-16 17:23:01:437,-1.09621,2.15369,-9.49974,-12.7204,-6.54117,-3.88775
2023-02-16 17:23:01:447,-1.0911,2.15849,-9.4909,-12.715,-6.5336,-3.88757
2023-02-16 17:23:01:457,-1.10086,2.14829,-9.49269,-12.7119,-6.52701,-3.88786
2023-02-16 17:23:01:467,-1.10651,2.15417,-9.47854,-12.7108,-6.52239,-3.88561
2023-02-16 17:23:01:477,-1.09542,2.14085,-9.48029,-12.7029,-6.51984,-3.88523
2023-02-16 17:23:01:487,-1.08972,2.12601,-9.46105,-12.6962,-6.51379,-3.88453
2023-02-16 17:23:01:497,-1.06822,2.11273,-9.45844,-12.6916,-6.51054,-3.88369
2023-02-16 17:23:01:507,-1.0539,2.10548,-9.46424,-12.6825,-6.51055,-3.88499
2023-02-16 17:23:01:517,-1.03595,2.10994,-9.46932,-12.6829,-6.5095,-3.8802
2023-02-16 17:23:01:527,-1.02999,2.11921,-9.48233,-12.6795,-6.50781,-3.87512
2023-02-16 17:23:01:537,-1.03677,2.13242,-9.49588,-12.6769,-6.51162,-3.87136
2023-02-16 17:23:01:547,-1.06643,2.12992,-9.49588,-12.6749,-6.51558,-3.86605
2023-02-16 17:23:01:557,-1.07994,2.13568,-9.50153,-12.6798,-6.52119,-3.85917
2023-02-16 17:23:01:567,-1.07763,2.14469,-9.50799,-12.6806,-6.5291,-3.85361
2023-02-16 17:23:01:577,-1.08038,2.15387,-9.50225,-12.6811,-6.53512,-3.84462
2023-02-16 17:23:01:587,-1.08268,2.14519,-9.50575,-12.6843,-6.54208,-3.83311
2023-02-16 17:23:01:597,-1.10379,2.13465,-9.50847,-12.6836,-6.55013,-3.82326
2023-02-16 17:23:01:607,-1.12447,2.13189,-9.5011,-12.6816,-6.55947,-3.81455
2023-02-16 17:23:01:617,-1.1332,2.13588,-9.49267,-12.6778,-6.57213,-3.80569
2023-02-16 17:23:01:627,-1.1413,2.12373,-9.47808,-12.6752,-6.58129,-3.79933
2023-02-16 17:23:01:637,-1.14483,2.12059,-9.46805,-12.6713,-6.59336,-3.79464
2023-02-16 17:23:01:647,-1.15062,2.11866,-9.47017,-12.6679,-6.60239,-3.79032
2023-02-16 17:23:01:657,-1.13075,2.11294,-9.474,-12.665,-6.61213,-3.78789
2023-02-16 17:23:01:667,-1.15149,2.11867,-9.46878,-12.6615,-6.62154,-3.78592
2023-02-16 17:23:01:677,-1.16249,2.13151,-9.47676,-12.6599,-6.62939,-3.78598
2023-02-16 17:23:01:687,-1.14757,2.12589,-9.49872,-12.6552,-6.63897,-3.78829
2023-02-16 17:23:01:697,-1.13292,2.111,-9.49685,-12.6482,-6.6489,-3.79099
2023-02-16 17:23:01:707,-1.13123,2.08149,-9.47789,-12.6457,-6.6613,-3.79356
2023-02-16 17:23:01:717,-1.13274,2.05931,-9.46234,-12.6464,-6.6741,-3.79679
2023-02-16 17:23:01:727,-1.12059,2.06352,-9.47913,-12.6427,-6.68766,-3.80061
2023-02-16 17:23:01:737,-1.12227,2.0711,-9.47274,-12.6443,-6.70363,-3.79776
2023-02-16 17:23:01:747,-1.13649,2.06145,-9.45599,-12.6482,-6.71728,-3.79601
2023-02-16 17:23:01:757,-1.12652,2.05459,-9.45143,-12.6542,-6.73186,-3.79771
2023-02-16 17:23:01:767,-1.13525,2.07028,-9.43381,-12.661,-6.74702,-3.79951
2023-02-16 17:23:01:777,-1.12984,2.07378,-9.41651,-12.6737,-6.76176,-3.79805
2023-02-16 17:23:01:787,-1.11871,2.06896,-9.44939,-12.6882,-6.77669,-3.79748
2023-02-16 17:23:01:797,-1.13545,2.10112,-9.47859,-12.6996,-6.78991,-3.79968
2023-02-16 17:23:01:807,-1.14678,2.10822,-9.47162,-12.7113,-6.80629,-3.80103
2023-02-16 17:23:01:817,-1.12447,2.10156,-9.4947,-12.7241,-6.81955,-3.79719
2023-02-16 17:23:01:827,-1.11878,2.11478,-9.49645,-12.7382,-6.83304,-3.79605
2023-02-16 17:23:01:837,-1.132,2.11299,-9.45735,-12.7532,-6.84536,-3.79362
2023-02-16 17:23:01:847,-1.12576,2.10336,-9.43748,-12.7674,-6.85577,-3.78742
2023-02-16 17:23:01:857,-1.13415,2.1006,-9.43259,-12.7835,-6.87183,-3.78239
2023-02-16 17:23:01:867,-1.15603,2.11889,-9.46086,-12.8007,-6.88633,-3.77802
2023-02-16 17:23:01:877,-1.17605,2.15,-9.49992,-12.8188,-6.90209,-3.7783
2023-02-16 17:23:01:887,-1.16926,2.16519,-9.52661,-12.8401,-6.91973,-3.77958
2023-02-16 17:23:01:897,-1.16943,2.18672,-9.54156,-12.8609,-6.93893,-3.78138
2023-02-16 17:23:01:907,-1.19267,2.19066,-9.53794,-12.8807,-6.96371,-3.78465
2023-02-16 17:23:01:917,-1.23719,2.21417,-9.5018,-12.8968,-6.99287,-3.79327
2023-02-16 17:23:01:927,-1.29169,2.22646,-9.45471,-12.9136,-7.02819,-3.80875
2023-02-16 17:23:01:937,-1.32348,2.21803,-9.45441,-12.9306,-7.06811,-3.83239
2023-02-16 17:23:01:947,-1.32906,2.26122,-9.49832,-12.9479,-7.11137,-3.86575
2023-02-16 17:23:01:957,-1.33588,2.25545,-9.43459,-12.9616,-7.16071,-3.90815
2023-02-16 17:23:01:967,-1.37378,2.21793,-9.36096,-12.98,-7.21698,-3.95601
2023-02-16 17:23:01:977,-1.38857,2.23763,-9.39427,-12.9966,-7.26928,-4.01424
2023-02-16 17:23:01:987,-1.34631,2.2313,-9.40661,-13.0157,-7.32114,-4.08044
2023-02-16 17:23:01:997,-1.31458,2.21369,-9.3937,-13.0355,-7.37779,-4.1533
2023-02-16 17:23:02:7,-1.3106,2.24246,-9.41726,-13.0567,-7.44121,-4.23061
2023-02-16 17:23:02:17,-1.32538,2.26649,-9.44977,-13.0756,-7.50528,-4.31404
2023-02-16 17:23:02:27,-1.35936,2.25755,-9.48467,-13.0902,-7.56639,-4.40012
2023-02-16 17:23:02:37,-1.36469,2.27477,-9.5166,-13.1015,-7.62802,-4.49401
2023-02-16 17:23:02:47,-1.35869,2.27336,-9.53354,-13.1129,-7.69605,-4.58672
2023-02-16 17:23:02:57,-1.34078,2.26318,-9.53456,-13.1222,-7.75407,-4.68406
2023-02-16 17:23:02:67,-1.32646,2.26553,-9.51037,-13.1249,-7.81192,-4.7806
2023-02-16 17:23:02:77,-1.31698,2.26434,-9.47922,-13.1286,-7.86821,-4.87483
2023-02-16 17:23:02:87,-1.30759,2.25763,-9.45575,-13.1311,-7.92647,-4.97078
2023-02-16 17:23:02:97,-1.29038,2.23038,-9.44589,-13.1357,-7.97988,-5.06258
2023-02-16 17:23:02:107,-1.31392,2.22394,-9.42622,-13.1346,-8.03473,-5.15046
2023-02-16 17:23:02:117,-1.33572,2.23063,-9.43115,-13.1336,-8.0825,-5.23412
2023-02-16 17:23:02:127,-1.33617,2.23517,-9.44552,-13.1321,-8.12789,-5.31594
2023-02-16 17:23:02:137,-1.31101,2.20427,-9.45147,-13.1312,-8.17299,-5.39318
2023-02-16 17:23:02:147,-1.30634,2.20338,-9.45241,-13.1264,-8.21387,-5.46801
2023-02-16 17:23:02:157,-1.30248,2.1967,-9.45745,-13.1195,-8.25301,-5.5366
2023-02-16 17:23:02:167,-1.28805,2.18941,-9.44734,-13.1115,-8.29577,-5.59915
2023-02-16 17:23:02:177,-1.28401,2.17425,-9.46889,-13.1035,-8.33359,-5.65711
2023-02-16 17:23:02:187,-1.2834,2.17574,-9.47288,-13.0932,-8.37506,-5.70707
2023-02-16 17:23:02:197,-1.29403,2.16757,-9.4711,-13.0832,-8.41173,-5.75273
2023-02-16 17:23:02:207,-1.28101,2.15313,-9.4512,-13.0746,-8.44682,-5.79071
2023-02-16 17:23:02:217,-1.28857,2.14968,-9.42141,-13.0711,-8.48031,-5.81976
2023-02-16 17:23:02:227,-1.307,2.14168,-9.37524,-13.0719,-8.51392,-5.83846
2023-02-16 17:23:02:237,-1.31913,2.14041,-9.3635,-13.0754,-8.54418,-5.84959
2023-02-16 17:23:02:247,-1.30857,2.14569,-9.3657,-13.083,-8.57045,-5.85446
2023-02-16 17:23:02:257,-1.33875,2.16493,-9.36377,-13.0929,-8.59569,-5.84719
2023-02-16 17:23:02:267,-1.37921,2.17667,-9.38703,-13.1033,-8.61966,-5.83603
2023-02-16 17:23:02:277,-1.40461,2.19805,-9.41105,-13.1144,-8.63683,-5.8217
2023-02-16 17:23:02:287,-1.40987,2.21269,-9.42478,-13.126,-8.65378,-5.80248
2023-02-16 17:23:02:297,-1.43162,2.2203,-9.43368,-13.1356,-8.6708,-5.77831
2023-02-16 17:23:02:307,-1.46697,2.22832,-9.44301,-13.1444,-8.68444,-5.75206
2023-02-16 17:23:02:317,-1.50602,2.23624,-9.44265,-13.1519,-8.70032,-5.72735
2023-02-16 17:23:02:327,-1.53599,2.23537,-9.43875,-13.1592,-8.71444,-5.70118
2023-02-16 17:23:02:337,-1.54636,2.23191,-9.44058,-13.1673,-8.72651,-5.67725
2023-02-16 17:23:02:347,-1.55059,2.2426,-9.41543,-13.1747,-8.73775,-5.65522
2023-02-16 17:23:02:357,-1.56929,2.24545,-9.40892,-13.1806,-8.75072,-5.63573
2023-02-16 17:23:02:367,-1.57951,2.25182,-9.41428,-13.1869,-8.76325,-5.61701
2023-02-16 17:23:02:377,-1.58046,2.25691,-9.4091,-13.1934,-8.7759,-5.59891
2023-02-16 17:23:02:387,-1.57952,2.26472,-9.40566,-13.1983,-8.78884,-5.58676
2023-02-16 17:23:02:397,-1.58647,2.27177,-9.41577,-13.2022,-8.79946,-5.57439
2023-02-16 17:23:02:407,-1.59417,2.27333,-9.42106,-13.2022,-8.80755,-5.56783
2023-02-16 17:23:02:417,-1.57076,2.2576,-9.42308,-13.2009,-8.81517,-5.56355
2023-02-16 17:23:02:427,-1.55448,2.25288,-9.43394,-13.1963,-8.82057,-5.56067
2023-02-16 17:23:02:437,-1.55345,2.24827,-9.42801,-13.1917,-8.82594,-5.55834
2023-02-16 17:23:02:447,-1.54512,2.24695,-9.42338,-13.184,-8.82951,-5.55796
2023-02-16 17:23:02:457,-1.53125,2.24102,-9.43462,-13.1794,-8.83703,-5.56039
2023-02-16 17:23:02:467,-1.53195,2.24283,-9.43981,-13.1686,-8.8395,-5.56227
2023-02-16 17:23:02:477,-1.53518,2.23561,-9.44883,-13.1577,-8.84594,-5.56551
2023-02-16 17:23:02:487,-1.52909,2.23222,-9.45375,-13.1481,-8.85248,-5.56914
2023-02-16 17:23:02:497,-1.52182,2.22991,-9.4418,-13.1342,-8.85766,-5.57756
2023-02-16 17:23:02:507,-1.5086,2.22859,-9.41587,-13.1228,-8.86017,-5.58144
2023-02-16 17:23:02:517,-1.49255,2.20515,-9.42997,-13.1071,-8.86612,-5.58688
2023-02-16 17:23:02:527,-1.48748,2.18686,-9.41183,-13.0902,-8.87399,-5.59029
2023-02-16 17:23:02:537,-1.47148,2.18089,-9.39711,-13.0756,-8.88177,-5.595
2023-02-16 17:23:02:547,-1.48113,2.18306,-9.40571,-13.0637,-8.8949,-5.59764
2023-02-16 17:23:02:557,-1.48805,2.15482,-9.40753,-13.0537,-8.90501,-5.60159
2023-02-16 17:23:02:567,-1.48812,2.1562,-9.41597,-13.044,-8.91523,-5.60164
2023-02-16 17:23:02:577,-1.49356,2.17536,-9.40595,-13.0371,-8.92652,-5.59978
2023-02-16 17:23:02:587,-1.50736,2.18232,-9.39691,-13.0297,-8.93513,-5.59771
2023-02-16 17:23:02:597,-1.52582,2.18734,-9.42028,-13.0238,-8.94494,-5.59347
2023-02-16 17:23:02:607,-1.54151,2.18538,-9.44445,-13.0142,-8.95289,-5.58984
2023-02-16 17:23:02:617,-1.5545,2.1759,-9.44711,-13.0031,-8.96065,-5.58514
2023-02-16 17:23:02:627,-1.56044,2.16753,-9.41917,-12.9947,-8.96701,-5.57896
2023-02-16 17:23:02:637,-1.5434,2.15784,-9.3973,-12.9827,-8.9723,-5.57906
2023-02-16 17:23:02:647,-1.53558,2.14377,-9.38376,-12.971,-8.97847,-5.57569
2023-02-16 17:23:02:657,-1.54177,2.13311,-9.38202,-12.9585,-8.98648,-5.57392
2023-02-16 17:23:02:667,-1.56001,2.13077,-9.39318,-12.9486,-8.99146,-5.56934
2023-02-16 17:23:02:677,-1.56029,2.13985,-9.40191,-12.9439,-8.99996,-5.57089
2023-02-16 17:23:02:687,-1.5453,2.14794,-9.43368,-12.9402,-9.00689,-5.57065
2023-02-16 17:23:02:697,-1.54334,2.15359,-9.49134,-12.9352,-9.01012,-5.57312
2023-02-16 17:23:02:707,-1.53142,2.15555,-9.49789,-12.925,-9.01641,-5.57829
2023-02-16 17:23:02:717,-1.50925,2.13207,-9.4666,-12.9182,-9.01952,-5.57965
2023-02-16 17:23:02:727,-1.50724,2.13764,-9.44067,-12.9121,-9.02469,-5.57988
2023-02-16 17:23:02:737,-1.52785,2.14318,-9.42783,-12.907,-9.0335,-5.5798
2023-02-16 17:23:02:747,-1.5463,2.1472,-9.38529,-12.9049,-9.03963,-5.57861
2023-02-16 17:23:02:757,-1.55625,2.14156,-9.38719,-12.9052,-9.04721,-5.57869
2023-02-16 17:23:02:767,-1.5664,2.15348,-9.37935,-12.9044,-9.04695,-5.57732
2023-02-16 17:23:02:777,-1.56543,2.16704,-9.37829,-12.9056,-9.04769,-5.57783
2023-02-16 17:23:02:787,-1.56041,2.17886,-9.37403,-12.9038,-9.04371,-5.57848
2023-02-16 17:23:02:797,-1.56792,2.18246,-9.37485,-12.9031,-9.03917,-5.57625
2023-02-16 17:23:02:807,-1.58364,2.17484,-9.35404,-12.9004,-9.03658,-5.57567
2023-02-16 17:23:02:817,-1.5855,2.14725,-9.35615,-12.8987,-9.0214,-5.57635
2023-02-16 17:23:02:827,-1.52008,2.16503,-9.4234,-12.8941,-9.00249,-5.58001
2023-02-16 17:23:02:837,-1.47421,2.16618,-9.45277,-12.8888,-8.98512,-5.57619
2023-02-16 17:23:02:847,-1.50191,2.1634,-9.44922,-12.8855,-8.9697,-5.57107
2023-02-16 17:23:02:857,-1.5288,2.169,-9.4695,-12.8847,-8.95913,-5.5703
2023-02-16 17:23:02:867,-1.53088,2.16255,-9.47293,-12.8829,-8.94827,-5.56746
2023-02-16 17:23:02:877,-1.52457,2.15398,-9.44252,-12.8777,-8.93894,-5.56574
2023-02-16 17:23:02:887,-1.52871,2.15047,-9.42972,-12.8782,-8.92932,-5.56776
2023-02-16 17:23:02:897,-1.53276,2.16819,-9.41791,-12.8776,-8.92106,-5.57106
2023-02-16 17:23:02:907,-1.52021,2.16821,-9.41675,-12.8794,-8.91658,-5.57442
2023-02-16 17:23:02:917,-1.50704,2.17156,-9.39524,-12.8825,-8.90907,-5.58008
2023-02-16 17:23:02:927,-1.51546,2.16214,-9.37829,-12.8873,-8.90951,-5.58723
2023-02-16 17:23:02:937,-1.51918,2.17291,-9.40517,-12.888,-8.90819,-5.59426
2023-02-16 17:23:02:947,-1.53346,2.18487,-9.43332,-12.8922,-8.90211,-5.60273
2023-02-16 17:23:02:957,-1.48812,2.16914,-9.43852,-12.8917,-8.88927,-5.61495
2023-02-16 17:23:02:967,-1.43936,2.16652,-9.44859,-12.8897,-8.8781,-5.6261
2023-02-16 17:23:02:977,-1.4279,2.1547,-9.45376,-12.8882,-8.87188,-5.63281
2023-02-16 17:23:02:987,-1.43563,2.13864,-9.44589,-12.8817,-8.87177,-5.63857
2023-02-16 17:23:02:997,-1.45245,2.14177,-9.43438,-12.8736,-8.87378,-5.64505
2023-02-16 17:23:03:7,-1.4541,2.14544,-9.43681,-12.8692,-8.87461,-5.64886
2023-02-16 17:23:03:17,-1.46434,2.15516,-9.45403,-12.866,-8.87477,-5.65703
2023-02-16 17:23:03:27,-1.46929,2.14971,-9.45363,-12.8618,-8.87466,-5.66096
2023-02-16 17:23:03:37,-1.46231,2.14284,-9.45116,-12.8596,-8.87519,-5.66269
2023-02-16 17:23:03:47,-1.46104,2.15792,-9.4398,-12.8548,-8.87197,-5.6616
2023-02-16 17:23:03:57,-1.47167,2.1562,-9.43359,-12.851,-8.87641,-5.66204
2023-02-16 17:23:03:67,-1.47606,2.1593,-9.41562,-12.8532,-8.88253,-5.66383
2023-02-16 17:23:03:77,-1.50179,2.16237,-9.41059,-12.8571,-8.89073,-5.66297
2023-02-16 17:23:03:87,-1.51194,2.17098,-9.40687,-12.8557,-8.89624,-5.66662
2023-02-16 17:23:03:97,-1.52452,2.17474,-9.39621,-12.8545,-8.90274,-5.67307
2023-02-16 17:23:03:107,-1.5353,2.15045,-9.40644,-12.8531,-8.90963,-5.67869
2023-02-16 17:23:03:117,-1.52398,2.14961,-9.42189,-12.8504,-8.91577,-5.68372
2023-02-16 17:23:03:127,-1.50106,2.14591,-9.4347,-12.8466,-8.92105,-5.68916
2023-02-16 17:23:03:137,-1.47875,2.12797,-9.42405,-12.8438,-8.92771,-5.6941
2023-02-16 17:23:03:147,-1.46903,2.12983,-9.40192,-12.8444,-8.93434,-5.69614
2023-02-16 17:23:03:157,-1.47062,2.13379,-9.39681,-12.8466,-8.94295,-5.6981
2023-02-16 17:23:03:167,-1.47403,2.13578,-9.38875,-12.8491,-8.95031,-5.69721
2023-02-16 17:23:03:177,-1.49209,2.13516,-9.40609,-12.8545,-8.95584,-5.69462
2023-02-16 17:23:03:187,-1.51382,2.15369,-9.41382,-12.8614,-8.96541,-5.6904
2023-02-16 17:23:03:197,-1.51614,2.16426,-9.4253,-12.8681,-8.97227,-5.68592
2023-02-16 17:23:03:207,-1.52325,2.18664,-9.44303,-12.8781,-8.9765,-5.68292
2023-02-16 17:23:03:217,-1.54265,2.1971,-9.44775,-12.8863,-8.97966,-5.68009
2023-02-16 17:23:03:227,-1.55231,2.20734,-9.43975,-12.889,-8.97906,-5.67803
2023-02-16 17:23:03:237,-1.55785,2.19952,-9.44452,-12.8937,-8.97875,-5.67562
2023-02-16 17:23:03:247,-1.54914,2.20334,-9.43878,-12.8945,-8.97701,-5.6722
2023-02-16 17:23:03:257,-1.56054,2.20078,-9.43808,-12.8945,-8.9772,-5.6715
2023-02-16 17:23:03:267,-1.56114,2.19251,-9.41839,-12.8899,-8.97669,-5.67301
2023-02-16 17:23:03:277,-1.54218,2.18451,-9.42805,-12.8869,-8.97576,-5.67734
2023-02-16 17:23:03:287,-1.53049,2.17301,-9.43282,-12.8831,-8.9758,-5.68373
2023-02-16 17:23:03:297,-1.52185,2.18378,-9.43102,-12.8838,-8.97423,-5.69012
2023-02-16 17:23:03:307,-1.51875,2.17737,-9.42031,-12.8824,-8.97438,-5.69723
2023-02-16 17:23:03:317,-1.50385,2.1749,-9.42897,-12.876,-8.975,-5.70826
2023-02-16 17:23:03:327,-1.4908,2.16468,-9.43515,-12.8735,-8.97713,-5.71671
2023-02-16 17:23:03:337,-1.47552,2.16241,-9.44869,-12.8691,-8.97733,-5.72687
2023-02-16 17:23:03:347,-1.47972,2.16231,-9.4402,-12.8674,-8.98267,-5.73598
2023-02-16 17:23:03:357,-1.4624,2.15809,-9.42883,-12.8657,-8.98355,-5.74106
2023-02-16 17:23:03:367,-1.45705,2.16314,-9.40773,-12.8641,-8.98731,-5.74559
2023-02-16 17:23:03:377,-1.45779,2.15716,-9.40323,-12.8632,-8.98748,-5.74422
2023-02-16 17:23:03:387,-1.48426,2.14374,-9.41644,-12.861,-8.99104,-5.74209
2023-02-16 17:23:03:397,-1.49117,2.14988,-9.42086,-12.8592,-8.99453,-5.73562
2023-02-16 17:23:03:407,-1.50616,2.14427,-9.42977,-12.8568,-8.99587,-5.72901
2023-02-16 17:23:03:417,-1.52386,2.14344,-9.44224,-12.8552,-8.99992,-5.72066
2023-02-16 17:23:03:427,-1.52896,2.13622,-9.44263,-12.8501,-9.00426,-5.71754
2023-02-16 17:23:03:437,-1.51857,2.1465,-9.41042,-12.8447,-9.00709,-5.71191
2023-02-16 17:23:03:447,-1.52381,2.14666,-9.38967,-12.8432,-9.01076,-5.7104
2023-02-16 17:23:03:457,-1.53612,2.1314,-9.38159,-12.8396,-9.01916,-5.70822
2023-02-16 17:23:03:467,-1.53805,2.13681,-9.39815,-12.8379,-9.02609,-5.70518
2023-02-16 17:23:03:477,-1.54697,2.15227,-9.42873,-12.8358,-9.03419,-5.7051
2023-02-16 17:23:03:487,-1.54303,2.15751,-9.4568,-12.8351,-9.04134,-5.7074
