Timestamp,Acceleration_x,Acceleration_y,Acceleration_z,roll,pitch,yaw
2023-02-16 22:10:26:907,-0.843509,1.71475,-9.61083,-9.80296,-4.05588,80.9679
2023-02-16 22:10:26:916,-0.839687,1.69237,-9.60223,-9.81703,-4.05588,81.0119
2023-02-16 22:10:26:926,-0.82826,1.68343,-9.59777,-9.83097,-4.05531,81.0511
2023-02-16 22:10:26:936,-0.815374,1.68644,-9.60392,-9.84159,-4.05178,81.0845
2023-02-16 22:10:26:946,-0.78441,1.68515,-9.62769,-9.85395,-4.04682,81.1094
2023-02-16 22:10:26:956,-0.767606,1.68604,-9.62706,-9.86461,-4.04693,81.1311
2023-02-16 22:10:26:966,-0.750721,1.67289,-9.63886,-9.87645,-4.04654,81.1476
2023-02-16 22:10:26:976,-0.765639,1.69518,-9.6583,-9.88924,-4.04642,81.1582
2023-02-16 22:10:26:986,-0.782697,1.70629,-9.68333,-9.90045,-4.04895,81.1694
2023-02-16 22:10:26:996,-0.755764,1.71039,-9.69199,-9.91071,-4.0485,81.1747
2023-02-16 22:10:27:6,-0.722148,1.69581,-9.69324,-9.91617,-4.0492,81.1731
2023-02-16 22:10:27:16,-0.673295,1.69717,-9.66592,-9.91849,-4.04944,81.1716
2023-02-16 22:10:27:26,-0.666284,1.67686,-9.65892,-9.91896,-4.05505,81.1684
2023-02-16 22:10:27:36,-0.684481,1.67377,-9.64321,-9.91821,-4.06164,81.1658
2023-02-16 22:10:27:46,-0.712846,1.67065,-9.61961,-9.91747,-4.07459,81.1619
2023-02-16 22:10:27:56,-0.725764,1.67633,-9.6001,-9.91906,-4.07957,81.1607
2023-02-16 22:10:27:66,-0.724665,1.68808,-9.58289,-9.92121,-4.08596,81.1571
2023-02-16 22:10:27:76,-0.72608,1.69312,-9.58525,-9.92248,-4.09073,81.1544
2023-02-16 22:10:27:86,-0.713543,1.69505,-9.59488,-9.92504,-4.09108,81.1534
2023-02-16 22:10:27:96,-0.696609,1.69591,-9.59969,-9.92566,-4.0892,81.1498
2023-02-16 22:10:27:106,-0.66357,1.71428,-9.61952,-9.92294,-4.08286,81.1506
2023-02-16 22:10:27:116,-0.662854,1.71758,-9.63984,-9.92118,-4.07963,81.1518
2023-02-16 22:10:27:126,-0.662289,1.69194,-9.61675,-9.9158,-4.07657,81.1558
2023-02-16 22:10:27:136,-0.671199,1.69873,-9.60882,-9.90953,-4.07274,81.1574
2023-02-16 22:10:27:146,-0.69172,1.70766,-9.62472,-9.90213,-4.06999,81.1618
2023-02-16 22:10:27:156,-0.707323,1.70498,-9.62763,-9.89062,-4.06904,81.1651
2023-02-16 22:10:27:166,-0.707467,1.70008,-9.61804,-9.88425,-4.06966,81.1654
2023-02-16 22:10:27:176,-0.70425,1.69581,-9.62122,-9.87412,-4.06523,81.166
2023-02-16 22:10:27:186,-0.690879,1.69882,-9.61659,-9.86798,-4.06422,81.1663
2023-02-16 22:10:27:196,-0.686224,1.70598,-9.63371,-9.85874,-4.06635,81.1633
2023-02-16 22:10:27:206,-0.693875,1.71702,-9.64724,-9.852,-4.06693,81.1625
2023-02-16 22:10:27:216,-0.682515,1.71953,-9.66522,-9.84605,-4.06982,81.1616
2023-02-16 22:10:27:226,-0.688388,1.72614,-9.67006,-9.83558,-4.07333,81.1622
2023-02-16 22:10:27:236,-0.696979,1.7226,-9.68148,-9.82426,-4.07486,81.1654
2023-02-16 22:10:27:246,-0.695954,1.73155,-9.66514,-9.80898,-4.07732,81.1658
2023-02-16 22:10:27:255,-0.700937,1.72711,-9.65825,-9.79335,-4.07756,81.1654
2023-02-16 22:10:27:265,-0.710523,1.69886,-9.65152,-9.77735,-4.07519,81.1645
2023-02-16 22:10:27:276,-0.702283,1.68874,-9.63272,-9.75734,-4.07722,81.165
2023-02-16 22:10:27:286,-0.698672,1.68076,-9.61884,-9.73874,-4.07591,81.1642
2023-02-16 22:10:27:296,-0.703662,1.67237,-9.6047,-9.71598,-4.07621,81.1665
2023-02-16 22:10:27:306,-0.696133,1.67258,-9.59821,-9.69178,-4.07444,81.1608
2023-02-16 22:10:27:316,-0.697662,1.67412,-9.59593,-9.66838,-4.07651,81.158
2023-02-16 22:10:27:326,-0.708004,1.68648,-9.60383,-9.64947,-4.07991,81.1566
2023-02-16 22:10:27:336,-0.747161,1.69937,-9.63474,-9.62559,-4.08192,81.152
2023-02-16 22:10:27:346,-0.759143,1.68396,-9.64817,-9.59948,-4.08192,81.1448
2023-02-16 22:10:27:356,-0.743878,1.65846,-9.6383,-9.57208,-4.08633,81.1351
2023-02-16 22:10:27:366,-0.737174,1.64019,-9.60582,-9.53724,-4.09042,81.1238
2023-02-16 22:10:27:376,-0.749869,1.60753,-9.58856,-9.50688,-4.09282,81.1104
2023-02-16 22:10:27:386,-0.754078,1.60122,-9.57542,-9.47842,-4.09659,81.096
2023-02-16 22:10:27:396,-0.735859,1.59675,-9.58435,-9.45768,-4.09711,81.0815
2023-02-16 22:10:27:406,-0.712808,1.59091,-9.60502,-9.43732,-4.09342,81.0635
2023-02-16 22:10:27:416,-0.664031,1.60274,-9.61142,-9.41626,-4.08852,81.0456
2023-02-16 22:10:27:426,-0.613163,1.587,-9.6195,-9.39822,-4.08344,81.0285
2023-02-16 22:10:27:436,-0.601357,1.5589,-9.6246,-9.38037,-4.07502,81.0108
2023-02-16 22:10:27:446,-0.607606,1.56377,-9.61661,-9.36331,-4.06773,80.997
2023-02-16 22:10:27:456,-0.628136,1.57729,-9.62985,-9.35104,-4.06098,80.9823
2023-02-16 22:10:27:466,-0.648794,1.57687,-9.6724,-9.33503,-4.05545,80.9699
2023-02-16 22:10:27:476,-0.616039,1.59101,-9.69083,-9.31835,-4.04441,80.9561
2023-02-16 22:10:27:486,-0.531676,1.56596,-9.66854,-9.29853,-4.03455,80.9406
2023-02-16 22:10:27:496,-0.493488,1.52837,-9.63653,-9.2751,-4.03115,80.9293
2023-02-16 22:10:27:506,-0.521735,1.51924,-9.60317,-9.25643,-4.03281,80.9193
2023-02-16 22:10:27:516,-0.592841,1.52753,-9.57472,-9.23886,-4.03855,80.9194
2023-02-16 22:10:27:526,-0.635516,1.52076,-9.57642,-9.22606,-4.04768,80.922
2023-02-16 22:10:27:536,-0.643546,1.51534,-9.60152,-9.21666,-4.05314,80.9261
2023-02-16 22:10:27:546,-0.642628,1.51506,-9.59739,-9.20809,-4.05823,80.9343
2023-02-16 22:10:27:556,-0.637381,1.52097,-9.60056,-9.20306,-4.06253,80.9438
2023-02-16 22:10:27:566,-0.635902,1.54197,-9.61099,-9.19688,-4.06685,80.9531
2023-02-16 22:10:27:576,-0.633921,1.56173,-9.60681,-9.19722,-4.06729,80.963
2023-02-16 22:10:27:586,-0.645178,1.55866,-9.59823,-9.19895,-4.07259,80.9767
2023-02-16 22:10:27:596,-0.683867,1.56671,-9.60283,-9.20395,-4.07797,80.9937
2023-02-16 22:10:27:606,-0.708399,1.58565,-9.5982,-9.2046,-4.08409,81.0129
2023-02-16 22:10:27:616,-0.733642,1.59292,-9.6013,-9.20436,-4.08655,81.0339
2023-02-16 22:10:27:626,-0.76326,1.58376,-9.61093,-9.20587,-4.09223,81.0513
2023-02-16 22:10:27:636,-0.767549,1.58615,-9.61292,-9.20635,-4.09665,81.0611
2023-02-16 22:10:27:646,-0.746163,1.58373,-9.61614,-9.20563,-4.09648,81.0725
2023-02-16 22:10:27:656,-0.725235,1.56632,-9.62917,-9.1996,-4.09995,81.0789
2023-02-16 22:10:27:666,-0.715908,1.56045,-9.62307,-9.19548,-4.09833,81.083
2023-02-16 22:10:27:676,-0.688821,1.54778,-9.62491,-9.19261,-4.09906,81.0853
2023-02-16 22:10:27:686,-0.681804,1.52109,-9.63411,-9.1912,-4.10218,81.082
2023-02-16 22:10:27:696,-0.70344,1.53543,-9.6445,-9.1873,-4.1027,81.0835
2023-02-16 22:10:27:706,-0.708163,1.5624,-9.66155,-9.18389,-4.10652,81.0798
2023-02-16 22:10:27:716,-0.694165,1.569,-9.68907,-9.18318,-4.11104,81.0764
2023-02-16 22:10:27:726,-0.668131,1.57043,-9.7133,-9.18019,-4.11973,81.0757
2023-02-16 22:10:27:736,-0.635479,1.55731,-9.70213,-9.17667,-4.12682,81.0748
2023-02-16 22:10:27:746,-0.621751,1.53906,-9.67718,-9.16835,-4.12834,81.0699
2023-02-16 22:10:27:756,-0.63114,1.53861,-9.6417,-9.15903,-4.13298,81.071
2023-02-16 22:10:27:766,-0.667224,1.5288,-9.61344,-9.15325,-4.13776,81.0777
2023-02-16 22:10:27:776,-0.691077,1.52237,-9.59303,-9.152,-4.14467,81.0842
2023-02-16 22:10:27:786,-0.717874,1.5342,-9.60628,-9.14918,-4.14875,81.0928
2023-02-16 22:10:27:796,-0.735117,1.54109,-9.61652,-9.15031,-4.15523,81.1024
2023-02-16 22:10:27:806,-0.738406,1.55635,-9.61243,-9.14851,-4.15735,81.1115
2023-02-16 22:10:27:816,-0.7224,1.55812,-9.62218,-9.14992,-4.15607,81.1205
2023-02-16 22:10:27:826,-0.716696,1.55441,-9.62636,-9.14574,-4.15333,81.1281
2023-02-16 22:10:27:836,-0.705279,1.54442,-9.61264,-9.14554,-4.15153,81.1365
2023-02-16 22:10:27:846,-0.713277,1.53002,-9.60891,-9.1446,-4.1464,81.149
2023-02-16 22:10:27:856,-0.726916,1.53553,-9.60944,-9.14448,-4.14448,81.1574
2023-02-16 22:10:27:866,-0.72523,1.53812,-9.59713,-9.1494,-4.14034,81.1631
2023-02-16 22:10:27:876,-0.735543,1.54955,-9.6005,-9.15348,-4.1396,81.1697
2023-02-16 22:10:27:886,-0.737524,1.55368,-9.60504,-9.15713,-4.14261,81.1746
2023-02-16 22:10:27:896,-0.726674,1.56408,-9.62938,-9.16464,-4.14552,81.1743
2023-02-16 22:10:27:906,-0.713489,1.58552,-9.65609,-9.17023,-4.14752,81.1759
2023-02-16 22:10:27:916,-0.702003,1.57777,-9.66445,-9.17461,-4.14802,81.1757
2023-02-16 22:10:27:926,-0.693659,1.56711,-9.65393,-9.17531,-4.14992,81.1729
2023-02-16 22:10:27:936,-0.686697,1.56884,-9.658,-9.17552,-4.15032,81.1748
2023-02-16 22:10:27:946,-0.692249,1.57046,-9.65673,-9.17276,-4.14932,81.1744
2023-02-16 22:10:27:956,-0.686768,1.56741,-9.64695,-9.17332,-4.15341,81.1789
2023-02-16 22:10:27:966,-0.69307,1.55618,-9.61623,-9.17376,-4.15763,81.1817
2023-02-16 22:10:27:976,-0.702101,1.55502,-9.60972,-9.17372,-4.16166,81.1865
2023-02-16 22:10:27:986,-0.701134,1.56051,-9.60432,-9.17822,-4.16319,81.1958
2023-02-16 22:10:27:996,-0.71735,1.59344,-9.61681,-9.18681,-4.16301,81.2044
2023-02-16 22:10:28:6,-0.740849,1.61432,-9.63282,-9.19786,-4.16508,81.2101
2023-02-16 22:10:28:16,-0.736823,1.61142,-9.63504,-9.20141,-4.16709,81.2139
2023-02-16 22:10:28:26,-0.733549,1.60816,-9.64122,-9.20125,-4.16591,81.223
2023-02-16 22:10:28:36,-0.716788,1.59764,-9.63436,-9.20302,-4.16313,81.2299
2023-02-16 22:10:28:46,-0.714335,1.59187,-9.62349,-9.20459,-4.16176,81.2327
2023-02-16 22:10:28:56,-0.728901,1.58791,-9.59532,-9.20577,-4.16298,81.2331
2023-02-16 22:10:28:66,-0.717393,1.58334,-9.58633,-9.20682,-4.1638,81.232
2023-02-16 22:10:28:76,-0.725632,1.58708,-9.58853,-9.2106,-4.1678,81.2327
2023-02-16 22:10:28:86,-0.730217,1.60386,-9.60699,-9.21664,-4.17528,81.2332
2023-02-16 22:10:28:96,-0.730962,1.59608,-9.6278,-9.22512,-4.17725,81.2318
2023-02-16 22:10:28:106,-0.73093,1.60297,-9.63936,-9.23296,-4.18204,81.2315
2023-02-16 22:10:28:116,-0.719374,1.62368,-9.63577,-9.24247,-4.18534,81.2289
2023-02-16 22:10:28:126,-0.720851,1.62928,-9.66792,-9.24927,-4.18596,81.223
2023-02-16 22:10:28:136,-0.716004,1.6472,-9.68324,-9.25425,-4.18467,81.2194
2023-02-16 22:10:28:146,-0.698284,1.64263,-9.6946,-9.25721,-4.18062,81.217
2023-02-16 22:10:28:156,-0.704293,1.65508,-9.7131,-9.26079,-4.17297,81.2148
2023-02-16 22:10:28:166,-0.696677,1.64867,-9.71202,-9.25648,-4.16699,81.214
2023-02-16 22:10:28:176,-0.688535,1.65728,-9.67919,-9.25184,-4.16005,81.2146
2023-02-16 22:10:28:186,-0.708302,1.62367,-9.65027,-9.24298,-4.15451,81.2154
2023-02-16 22:10:28:196,-0.756613,1.59648,-9.64866,-9.22985,-4.15079,81.2205
2023-02-16 22:10:28:206,-0.772981,1.58827,-9.66167,-9.2188,-4.14412,81.2223
2023-02-16 22:10:28:216,-0.741423,1.57783,-9.66627,-9.20586,-4.13233,81.2167
2023-02-16 22:10:28:226,-0.66886,1.54175,-9.65077,-9.18842,-4.12009,81.2079
2023-02-16 22:10:28:236,-0.586372,1.50385,-9.60973,-9.16874,-4.11266,81.1987
2023-02-16 22:10:28:246,-0.585302,1.48542,-9.57848,-9.15268,-4.10863,81.1866
2023-02-16 22:10:28:256,-0.657436,1.50427,-9.57198,-9.14293,-4.11139,81.1784
2023-02-16 22:10:28:266,-0.697995,1.53157,-9.59547,-9.13874,-4.11846,81.1747
2023-02-16 22:10:28:276,-0.728079,1.54664,-9.60562,-9.14258,-4.12443,81.1669
2023-02-16 22:10:28:286,-0.7229,1.56288,-9.60925,-9.14135,-4.12581,81.161
2023-02-16 22:10:28:296,-0.697482,1.58709,-9.63253,-9.14404,-4.12505,81.1567
2023-02-16 22:10:28:306,-0.672533,1.61826,-9.64707,-9.14755,-4.12314,81.152
2023-02-16 22:10:28:316,-0.647093,1.62498,-9.64882,-9.15066,-4.11767,81.1456
2023-02-16 22:10:28:326,-0.642449,1.61375,-9.6394,-9.15212,-4.11445,81.1399
2023-02-16 22:10:28:336,-0.647896,1.6033,-9.62371,-9.14822,-4.10992,81.1368
2023-02-16 22:10:28:346,-0.678905,1.59243,-9.60613,-9.1463,-4.10659,81.1342
2023-02-16 22:10:28:356,-0.703095,1.60367,-9.59343,-9.13953,-4.10295,81.133
2023-02-16 22:10:28:366,-0.698544,1.58853,-9.61158,-9.13427,-4.10346,81.1306
2023-02-16 22:10:28:376,-0.701241,1.59284,-9.63519,-9.12756,-4.1011,81.1255
2023-02-16 22:10:28:386,-0.694985,1.58798,-9.64221,-9.11852,-4.09887,81.1235
2023-02-16 22:10:28:396,-0.674776,1.57251,-9.66271,-9.10921,-4.09415,81.1192
2023-02-16 22:10:28:406,-0.661731,1.57422,-9.65994,-9.09823,-4.08881,81.112
2023-02-16 22:10:28:416,-0.650428,1.55476,-9.64786,-9.08675,-4.08106,81.1022
2023-02-16 22:10:28:426,-0.642744,1.54214,-9.63124,-9.07505,-4.07598,81.0944
2023-02-16 22:10:28:436,-0.652729,1.53074,-9.6646,-9.06256,-4.07407,81.0853
2023-02-16 22:10:28:446,-0.664881,1.53919,-9.67978,-9.05355,-4.07055,81.0778
2023-02-16 22:10:28:456,-0.663569,1.53938,-9.6767,-9.04686,-4.07023,81.0693
2023-02-16 22:10:28:466,-0.634079,1.53057,-9.66634,-9.03923,-4.06727,81.0579
2023-02-16 22:10:28:476,-0.584153,1.52324,-9.66341,-9.03237,-4.06768,81.0492
2023-02-16 22:10:28:486,-0.585052,1.52984,-9.64931,-9.02636,-4.06834,81.037
2023-02-16 22:10:28:496,-0.616502,1.52943,-9.64948,-9.0207,-4.07214,81.0296
2023-02-16 22:10:28:506,-0.629889,1.52994,-9.65461,-9.01389,-4.0785,81.0262
2023-02-16 22:10:28:516,-0.640133,1.53455,-9.65445,-9.00732,-4.08132,81.0243
2023-02-16 22:10:28:526,-0.62481,1.55066,-9.63454,-9.00048,-4.08189,81.0214
2023-02-16 22:10:28:536,-0.62476,1.56153,-9.61853,-8.992,-4.08729,81.0204
2023-02-16 22:10:28:546,-0.63017,1.57013,-9.64716,-8.98335,-4.08804,81.0168
2023-02-16 22:10:28:556,-0.625007,1.57239,-9.67644,-8.97029,-4.09171,81.0144
2023-02-16 22:10:28:566,-0.621567,1.58067,-9.69381,-8.95767,-4.09952,81.0096
2023-02-16 22:10:28:576,-0.627357,1.57397,-9.69987,-8.9372,-4.10626,81.0071
2023-02-16 22:10:28:586,-0.654594,1.55615,-9.71094,-8.91467,-4.11918,81.006
2023-02-16 22:10:28:596,-0.689039,1.54468,-9.6689,-8.88859,-4.13525,81.0046
2023-02-16 22:10:28:606,-0.695936,1.51761,-9.6234,-8.86151,-4.15178,81.0032
2023-02-16 22:10:28:616,-0.698603,1.48872,-9.60554,-8.83184,-4.16749,80.9987
2023-02-16 22:10:28:626,-0.702423,1.46263,-9.58962,-8.804,-4.18076,80.9994
2023-02-16 22:10:28:636,-0.719677,1.44274,-9.56873,-8.7792,-4.19585,80.9986
2023-02-16 22:10:28:646,-0.712401,1.44302,-9.57368,-8.75907,-4.21203,80.9915
2023-02-16 22:10:28:656,-0.703744,1.43146,-9.58799,-8.74241,-4.22256,80.988
2023-02-16 22:10:28:666,-0.698999,1.42548,-9.60416,-8.72987,-4.23506,80.9812
2023-02-16 22:10:28:676,-0.675094,1.43954,-9.63289,-8.71984,-4.24686,80.9764
2023-02-16 22:10:28:686,-0.668817,1.46495,-9.66522,-8.71085,-4.26157,80.9726
2023-02-16 22:10:28:696,-0.699612,1.47994,-9.67349,-8.70197,-4.2757,80.9739
2023-02-16 22:10:28:706,-0.717741,1.47685,-9.63701,-8.69109,-4.28957,80.9743
2023-02-16 22:10:28:716,-0.732235,1.45159,-9.61701,-8.67778,-4.30284,80.9779
2023-02-16 22:10:28:726,-0.754322,1.43547,-9.59406,-8.66907,-4.31519,80.9817
2023-02-16 22:10:28:736,-0.76296,1.42674,-9.57258,-8.65814,-4.32492,80.9881
2023-02-16 22:10:28:746,-0.768614,1.42623,-9.55491,-8.64947,-4.3342,80.9958
2023-02-16 22:10:28:756,-0.778074,1.41465,-9.5386,-8.6452,-4.33927,81.0057
2023-02-16 22:10:28:766,-0.773709,1.40532,-9.5541,-8.64623,-4.34559,81.013
2023-02-16 22:10:28:776,-0.789014,1.41101,-9.56322,-8.65348,-4.34613,81.0213
2023-02-16 22:10:28:786,-0.801994,1.42081,-9.55892,-8.66283,-4.34929,81.0262
2023-02-16 22:10:28:796,-0.841354,1.42875,-9.56771,-8.67656,-4.35038,81.0314
2023-02-16 22:10:28:806,-0.858796,1.45158,-9.59029,-8.69236,-4.34339,81.0407
2023-02-16 22:10:28:816,-0.849366,1.46078,-9.61258,-8.70913,-4.33221,81.042
2023-02-16 22:10:28:826,-0.823609,1.47298,-9.63329,-8.72596,-4.31741,81.0417
2023-02-16 22:10:28:836,-0.781812,1.48353,-9.6608,-8.73749,-4.30033,81.0406
2023-02-16 22:10:28:846,-0.731075,1.50612,-9.68628,-8.75443,-4.28407,81.0416
2023-02-16 22:10:28:856,-0.711248,1.50563,-9.71407,-8.76922,-4.26897,81.041
2023-02-16 22:10:28:866,-0.736705,1.52502,-9.71428,-8.77624,-4.25799,81.0399
2023-02-16 22:10:28:876,-0.775432,1.52286,-9.72255,-8.77864,-4.24596,81.0347
2023-02-16 22:10:28:886,-0.760444,1.5062,-9.721,-8.77668,-4.23,81.0305
2023-02-16 22:10:28:896,-0.717917,1.49428,-9.68981,-8.77121,-4.21293,81.0223
2023-02-16 22:10:28:906,-0.649379,1.44997,-9.64924,-8.76303,-4.19429,81.0079
2023-02-16 22:10:28:916,-0.609172,1.43378,-9.61939,-8.75905,-4.182,80.9958
2023-02-16 22:10:28:926,-0.629082,1.44227,-9.62945,-8.76016,-4.17443,80.9828
2023-02-16 22:10:28:936,-0.654385,1.48174,-9.62492,-8.77036,-4.16779,80.9727
2023-02-16 22:10:28:946,-0.672036,1.52049,-9.6406,-8.78306,-4.16754,80.9639
2023-02-16 22:10:28:956,-0.669738,1.5394,-9.67358,-8.79159,-4.16503,80.9563
2023-02-16 22:10:28:966,-0.661403,1.56212,-9.69107,-8.80013,-4.16272,80.9482
2023-02-16 22:10:28:976,-0.644537,1.56855,-9.68876,-8.80768,-4.16056,80.9441
2023-02-16 22:10:28:986,-0.628214,1.57478,-9.66177,-8.81129,-4.15476,80.9399
2023-02-16 22:10:28:996,-0.62195,1.58027,-9.64734,-8.81569,-4.14765,80.9374
2023-02-16 22:10:29:6,-0.639703,1.59456,-9.65397,-8.81952,-4.14371,80.9392
2023-02-16 22:10:29:16,-0.678387,1.58646,-9.66131,-8.82208,-4.1385,80.9445
2023-02-16 22:10:29:26,-0.697048,1.58081,-9.65581,-8.81834,-4.1365,80.9502
2023-02-16 22:10:29:36,-0.70899,1.5765,-9.64276,-8.81516,-4.13336,80.9602
2023-02-16 22:10:29:46,-0.72874,1.5683,-9.63375,-8.8119,-4.13001,80.9725
2023-02-16 22:10:29:56,-0.731171,1.55528,-9.64729,-8.80499,-4.13045,80.9774
2023-02-16 22:10:29:66,-0.719068,1.53307,-9.64925,-8.79744,-4.12277,80.9826
2023-02-16 22:10:29:76,-0.730663,1.51958,-9.63016,-8.78529,-4.12143,80.9844
2023-02-16 22:10:29:86,-0.675824,1.50437,-9.60022,-8.77587,-4.11513,80.9842
2023-02-16 22:10:29:96,-0.632497,1.47234,-9.59791,-8.76517,-4.1129,80.9807
2023-02-16 22:10:29:106,-0.636224,1.46028,-9.62281,-8.75763,-4.11614,80.9745
2023-02-16 22:10:29:116,-0.632765,1.45503,-9.6388,-8.75391,-4.11899,80.9655
2023-02-16 22:10:29:125,-0.632173,1.47554,-9.64996,-8.75259,-4.11908,80.9565
2023-02-16 22:10:29:136,-0.602021,1.48941,-9.66113,-8.74998,-4.12094,80.9482
2023-02-16 22:10:29:146,-0.578427,1.48831,-9.68093,-8.75015,-4.12217,80.936
2023-02-16 22:10:29:156,-0.591315,1.50676,-9.68885,-8.75201,-4.13005,80.9288
2023-02-16 22:10:29:166,-0.602203,1.53713,-9.70056,-8.75414,-4.13498,80.9244
2023-02-16 22:10:29:175,-0.600845,1.52792,-9.70962,-8.75331,-4.14439,80.9191
2023-02-16 22:10:29:185,-0.611751,1.51216,-9.66398,-8.74773,-4.15188,80.9147
2023-02-16 22:10:29:195,-0.629208,1.4786,-9.62727,-8.7392,-4.15691,80.9149
2023-02-16 22:10:29:206,-0.638663,1.47438,-9.59258,-8.72954,-4.16205,80.9117
2023-02-16 22:10:29:216,-0.640129,1.46307,-9.59381,-8.72573,-4.16993,80.9117
2023-02-16 22:10:29:226,-0.62876,1.4664,-9.60872,-8.72401,-4.1789,80.9134
2023-02-16 22:10:29:236,-0.647362,1.47693,-9.61474,-8.72326,-4.18418,80.917
2023-02-16 22:10:29:246,-0.653246,1.46974,-9.61099,-8.72283,-4.19297,80.9206
2023-02-16 22:10:29:256,-0.663233,1.48166,-9.61452,-8.72296,-4.20472,80.9264
2023-02-16 22:10:29:266,-0.689501,1.50717,-9.62111,-8.72322,-4.21188,80.9342
2023-02-16 22:10:29:276,-0.708762,1.51394,-9.64561,-8.72639,-4.22196,80.9393
2023-02-16 22:10:29:286,-0.703141,1.51854,-9.65284,-8.72734,-4.23295,80.9487
2023-02-16 22:10:29:296,-0.696271,1.51413,-9.66319,-8.72514,-4.2433,80.9608
2023-02-16 22:10:29:306,-0.692086,1.51333,-9.66388,-8.71926,-4.25174,80.9672
2023-02-16 22:10:29:316,-0.70682,1.51493,-9.66406,-8.72029,-4.25764,80.9794
2023-02-16 22:10:29:326,-0.720636,1.50347,-9.67246,-8.71856,-4.267,80.9888
2023-02-16 22:10:29:336,-0.725971,1.4991,-9.65688,-8.71956,-4.27444,80.9995
2023-02-16 22:10:29:346,-0.739115,1.5026,-9.64824,-8.71816,-4.28337,81.0144
2023-02-16 22:10:29:356,-0.765651,1.5009,-9.65932,-8.71677,-4.29236,81.026
2023-02-16 22:10:29:366,-0.78481,1.49312,-9.66955,-8.71577,-4.30187,81.0396
2023-02-16 22:10:29:376,-0.781943,1.48931,-9.65446,-8.71426,-4.30828,81.0522
2023-02-16 22:10:29:386,-0.768399,1.48088,-9.6462,-8.71213,-4.31556,81.064
2023-02-16 22:10:29:396,-0.765838,1.48677,-9.63133,-8.71317,-4.31821,81.0708
2023-02-16 22:10:29:406,-0.772228,1.4927,-9.63138,-8.71103,-4.32439,81.0773
2023-02-16 22:10:29:416,-0.773087,1.47796,-9.62991,-8.70422,-4.32814,81.0845
2023-02-16 22:10:29:426,-0.769221,1.46725,-9.61569,-8.69405,-4.33372,81.0898
2023-02-16 22:10:29:436,-0.765386,1.45392,-9.59757,-8.68912,-4.33577,81.0944
2023-02-16 22:10:29:446,-0.75821,1.44491,-9.58161,-8.68879,-4.34026,81.0996
2023-02-16 22:10:29:456,-0.751235,1.45328,-9.58854,-8.68757,-4.3445,81.1051
2023-02-16 22:10:29:466,-0.757417,1.46401,-9.58837,-8.69134,-4.34894,81.105
2023-02-16 22:10:29:476,-0.759392,1.47178,-9.5991,-8.69529,-4.35618,81.1073
2023-02-16 22:10:29:486,-0.753023,1.48519,-9.61896,-8.69976,-4.36168,81.1086
2023-02-16 22:10:29:496,-0.733033,1.4929,-9.66002,-8.70711,-4.36897,81.1078
2023-02-16 22:10:29:506,-0.731761,1.49216,-9.6516,-8.71588,-4.37439,81.1099
2023-02-16 22:10:29:516,-0.745846,1.5032,-9.64412,-8.72024,-4.37809,81.1112
2023-02-16 22:10:29:526,-0.758475,1.5132,-9.63551,-8.72579,-4.38569,81.1145
2023-02-16 22:10:29:536,-0.764172,1.4926,-9.62919,-8.72901,-4.39051,81.1166
2023-02-16 22:10:29:546,-0.765898,1.4957,-9.62161,-8.73664,-4.3991,81.1213
2023-02-16 22:10:29:556,-0.771951,1.49842,-9.63236,-8.74546,-4.40582,81.122
2023-02-16 22:10:29:566,-0.769284,1.49914,-9.65235,-8.75316,-4.41536,81.1263
2023-02-16 22:10:29:576,-0.76245,1.51254,-9.66271,-8.76115,-4.42089,81.129
2023-02-16 22:10:29:586,-0.781151,1.53508,-9.66053,-8.76667,-4.42797,81.1334
2023-02-16 22:10:29:596,-0.802673,1.5488,-9.67774,-8.77368,-4.4346,81.1385
2023-02-16 22:10:29:606,-0.820148,1.54925,-9.68007,-8.7797,-4.43975,81.1445
2023-02-16 22:10:29:616,-0.829516,1.54228,-9.67945,-8.78411,-4.43904,81.1485
2023-02-16 22:10:29:626,-0.825301,1.53699,-9.67988,-8.78301,-4.43685,81.1543
2023-02-16 22:10:29:636,-0.807027,1.50306,-9.66261,-8.78231,-4.43559,81.1555
2023-02-16 22:10:29:646,-0.8,1.49118,-9.61417,-8.78261,-4.4346,81.1574
2023-02-16 22:10:29:656,-0.816653,1.47842,-9.60298,-8.77968,-4.43252,81.1626
2023-02-16 22:10:29:666,-0.828137,1.47738,-9.63393,-8.78019,-4.43015,81.1612
2023-02-16 22:10:29:676,-0.811805,1.49311,-9.67484,-8.77724,-4.42525,81.1603
2023-02-16 22:10:29:686,-0.755187,1.50409,-9.66657,-8.77386,-4.41588,81.1516
2023-02-16 22:10:29:696,-0.663718,1.47085,-9.63708,-8.76248,-4.41227,81.1427
2023-02-16 22:10:29:706,-0.639954,1.44946,-9.60597,-8.75433,-4.40676,81.1312
2023-02-16 22:10:29:716,-0.69202,1.44723,-9.60047,-8.74972,-4.40848,81.1252
2023-02-16 22:10:29:726,-0.745828,1.47043,-9.61415,-8.74969,-4.4146,81.1206
2023-02-16 22:10:29:736,-0.779616,1.48832,-9.6104,-8.75192,-4.41971,81.1175
2023-02-16 22:10:29:746,-0.794235,1.49439,-9.59258,-8.75659,-4.42153,81.1195
2023-02-16 22:10:29:756,-0.783861,1.48625,-9.58834,-8.76227,-4.41992,81.1126
2023-02-16 22:10:29:766,-0.757145,1.49418,-9.60141,-8.76906,-4.41661,81.1078
2023-02-16 22:10:29:776,-0.73043,1.51913,-9.62202,-8.78026,-4.41159,81.102
2023-02-16 22:10:29:786,-0.71338,1.53662,-9.63024,-8.79704,-4.40966,81.097
2023-02-16 22:10:29:796,-0.719261,1.55872,-9.63458,-8.80784,-4.404,81.0948
2023-02-16 22:10:29:806,-0.737312,1.57796,-9.63392,-8.82043,-4.40274,81.0947
2023-02-16 22:10:29:816,-0.752443,1.59431,-9.64359,-8.82683,-4.39824,81.094
2023-02-16 22:10:29:826,-0.777406,1.60152,-9.66268,-8.83257,-4.39444,81.0904
2023-02-16 22:10:29:836,-0.777213,1.59091,-9.66717,-8.83816,-4.387,81.0876
2023-02-16 22:10:29:846,-0.775728,1.58199,-9.6484,-8.83904,-4.37937,81.0814
2023-02-16 22:10:29:856,-0.755576,1.57729,-9.64574,-8.83977,-4.36894,81.0767
2023-02-16 22:10:29:866,-0.728418,1.56365,-9.63881,-8.83487,-4.36094,81.0694
2023-02-16 22:10:29:876,-0.70475,1.54008,-9.64568,-8.82954,-4.34707,81.0564
2023-02-16 22:10:29:886,-0.687189,1.52737,-9.64087,-8.82324,-4.33952,81.0444
2023-02-16 22:10:29:896,-0.680128,1.52453,-9.65724,-8.81911,-4.33094,81.0286
2023-02-16 22:10:29:906,-0.673215,1.51573,-9.6653,-8.81443,-4.32579,81.0144
2023-02-16 22:10:29:916,-0.680667,1.53552,-9.68789,-8.81332,-4.32052,80.9995
2023-02-16 22:10:29:926,-0.668161,1.54466,-9.70852,-8.80996,-4.31806,80.9874
2023-02-16 22:10:29:936,-0.644666,1.53815,-9.70143,-8.80214,-4.31493,80.973
2023-02-16 22:10:29:946,-0.628208,1.51143,-9.69562,-8.79236,-4.30976,80.9576
2023-02-16 22:10:29:956,-0.598992,1.50042,-9.66933,-8.78356,-4.30505,80.9459
2023-02-16 22:10:29:966,-0.601038,1.48305,-9.65583,-8.77239,-4.30509,80.936
2023-02-16 22:10:29:976,-0.631866,1.4944,-9.62668,-8.76172,-4.3071,80.9285
2023-02-16 22:10:29:986,-0.649465,1.47731,-9.61715,-8.75115,-4.30678,80.9292
2023-02-16 22:10:29:996,-0.674762,1.46856,-9.59762,-8.74361,-4.31123,80.9322
2023-02-16 22:10:30:6,-0.692796,1.47966,-9.60154,-8.73833,-4.31481,80.9342
2023-02-16 22:10:30:16,-0.692886,1.48085,-9.6026,-8.73449,-4.31512,80.9373
2023-02-16 22:10:30:26,-0.702576,1.4884,-9.58987,-8.73281,-4.31439,80.9422
2023-02-16 22:10:30:36,-0.701459,1.48459,-9.59507,-8.7331,-4.31158,80.9509
2023-02-16 22:10:30:46,-0.702474,1.47019,-9.5915,-8.73064,-4.30886,80.9602
2023-02-16 22:10:30:56,-0.692908,1.45663,-9.59274,-8.72816,-4.30812,80.9701
2023-02-16 22:10:30:66,-0.695016,1.46379,-9.60039,-8.72841,-4.30994,80.9796
2023-02-16 22:10:30:76,-0.717146,1.48094,-9.63084,-8.72945,-4.3117,80.9879
2023-02-16 22:10:30:86,-0.731058,1.49973,-9.63671,-8.73782,-4.31753,80.9976
2023-02-16 22:10:30:96,-0.737803,1.50183,-9.65499,-8.74149,-4.32353,81.003
2023-02-16 22:10:30:106,-0.727766,1.50609,-9.64383,-8.74329,-4.32924,81.0073
2023-02-16 22:10:30:116,-0.72976,1.5032,-9.65475,-8.74585,-4.33388,81.009
2023-02-16 22:10:30:126,-0.728596,1.50075,-9.65103,-8.74971,-4.33568,81.0085
2023-02-16 22:10:30:136,-0.712777,1.49031,-9.65292,-8.75121,-4.34437,81.0084
2023-02-16 22:10:30:146,-0.714344,1.48399,-9.642,-8.75577,-4.35158,81.0079
2023-02-16 22:10:30:156,-0.714233,1.48983,-9.64373,-8.75764,-4.35518,81.01
2023-02-16 22:10:30:166,-0.721934,1.49694,-9.657,-8.76221,-4.3618,81.0117
2023-02-16 22:10:30:176,-0.721084,1.49988,-9.66976,-8.76656,-4.36479,81.013
2023-02-16 22:10:30:186,-0.724751,1.51428,-9.65243,-8.76525,-4.37011,81.019
2023-02-16 22:10:30:196,-0.736716,1.49831,-9.66399,-8.7713,-4.37539,81.0257
2023-02-16 22:10:30:206,-0.744354,1.49937,-9.64054,-8.77637,-4.3796,81.0291
2023-02-16 22:10:30:216,-0.765868,1.50845,-9.62714,-8.78006,-4.3831,81.0355
2023-02-16 22:10:30:226,-0.777241,1.50905,-9.62114,-8.78401,-4.38425,81.0443
2023-02-16 22:10:30:236,-0.792767,1.51389,-9.61744,-8.78595,-4.38507,81.0542
2023-02-16 22:10:30:246,-0.783687,1.51211,-9.61971,-8.7939,-4.38448,81.0632
2023-02-16 22:10:30:256,-0.776627,1.51211,-9.61054,-8.79887,-4.38582,81.0687
2023-02-16 22:10:30:266,-0.776291,1.51711,-9.61576,-8.8027,-4.38506,81.077
2023-02-16 22:10:30:276,-0.772061,1.51136,-9.62487,-8.80256,-4.38396,81.0788
2023-02-16 22:10:30:286,-0.75624,1.52135,-9.61932,-8.80576,-4.38462,81.0802
2023-02-16 22:10:30:296,-0.738516,1.52187,-9.63494,-8.8108,-4.38592,81.0803
2023-02-16 22:10:30:306,-0.737515,1.529,-9.63498,-8.81077,-4.38533,81.0748
2023-02-16 22:10:30:316,-0.744875,1.53461,-9.63655,-8.81559,-4.38729,81.0694
2023-02-16 22:10:30:326,-0.742376,1.53607,-9.62352,-8.82031,-4.39111,81.0669
2023-02-16 22:10:30:336,-0.739437,1.52934,-9.63341,-8.82116,-4.39302,81.0656
2023-02-16 22:10:30:346,-0.731074,1.52377,-9.639,-8.82557,-4.39525,81.06
2023-02-16 22:10:30:356,-0.724624,1.52532,-9.64622,-8.82742,-4.3968,81.0563
2023-02-16 22:10:30:366,-0.72493,1.53162,-9.66069,-8.83296,-4.39162,81.0521
2023-02-16 22:10:30:376,-0.735585,1.54198,-9.66794,-8.83769,-4.3901,81.0514
2023-02-16 22:10:30:386,-0.736353,1.5454,-9.68239,-8.84373,-4.38813,81.0544
2023-02-16 22:10:30:396,-0.742321,1.54755,-9.6937,-8.8454,-4.38706,81.06
2023-02-16 22:10:30:406,-0.741435,1.55983,-9.67162,-8.8442,-4.38202,81.0641
2023-02-16 22:10:30:416,-0.735092,1.56201,-9.64929,-8.83982,-4.37497,81.0627
2023-02-16 22:10:30:426,-0.724335,1.54029,-9.62754,-8.83521,-4.36801,81.0626
2023-02-16 22:10:30:436,-0.74399,1.52962,-9.60757,-8.83111,-4.36229,81.0658
2023-02-16 22:10:30:446,-0.76988,1.52502,-9.61003,-8.82948,-4.3603,81.07
2023-02-16 22:10:30:456,-0.777923,1.52,-9.64693,-8.8292,-4.35623,81.0664
2023-02-16 22:10:30:466,-0.751877,1.50926,-9.65794,-8.82865,-4.34768,81.0611
2023-02-16 22:10:30:476,-0.664397,1.48919,-9.64601,-8.82257,-4.34162,81.054
2023-02-16 22:10:30:486,-0.589562,1.47073,-9.62317,-8.81298,-4.3396,81.0444
2023-02-16 22:10:30:496,-0.581531,1.46314,-9.59862,-8.80792,-4.34231,81.0344
2023-02-16 22:10:30:506,-0.634403,1.46631,-9.61099,-8.80944,-4.35138,81.0285
2023-02-16 22:10:30:516,-0.701461,1.48276,-9.61605,-8.81075,-4.365,81.0261
2023-02-16 22:10:30:526,-0.743367,1.50652,-9.61931,-8.81866,-4.3762,81.0274
2023-02-16 22:10:30:536,-0.758816,1.52675,-9.63572,-8.82763,-4.38362,81.0282
2023-02-16 22:10:30:546,-0.74682,1.54313,-9.65297,-8.83527,-4.39043,81.0293
2023-02-16 22:10:30:556,-0.719682,1.56,-9.67793,-8.84534,-4.39233,81.029
2023-02-16 22:10:30:566,-0.711572,1.57959,-9.69535,-8.85147,-4.39129,81.0324
2023-02-16 22:10:30:576,-0.718562,1.6029,-9.69693,-8.86056,-4.3914,81.0388
2023-02-16 22:10:30:586,-0.743528,1.6219,-9.67421,-8.86585,-4.3901,81.0469
2023-02-16 22:10:30:596,-0.766966,1.61879,-9.67014,-8.86547,-4.38753,81.0516
2023-02-16 22:10:30:606,-0.772203,1.58603,-9.66676,-8.86081,-4.38762,81.0554
2023-02-16 22:10:30:616,-0.784272,1.57119,-9.64667,-8.85049,-4.38688,81.0563
2023-02-16 22:10:30:626,-0.780778,1.54743,-9.64018,-8.84132,-4.38471,81.0568
2023-02-16 22:10:30:636,-0.765601,1.52201,-9.63185,-8.82986,-4.38334,81.0541
2023-02-16 22:10:30:646,-0.753324,1.50473,-9.6176,-8.81815,-4.38315,81.0506
2023-02-16 22:10:30:656,-0.751945,1.48707,-9.62053,-8.80573,-4.37938,81.043
2023-02-16 22:10:30:666,-0.731989,1.46869,-9.60239,-8.79519,-4.37702,81.0339
2023-02-16 22:10:30:676,-0.713449,1.45447,-9.59772,-8.78989,-4.3744,81.0268
2023-02-16 22:10:30:686,-0.693924,1.45528,-9.59882,-8.78695,-4.36978,81.0209
2023-02-16 22:10:30:696,-0.691524,1.46647,-9.61286,-8.78798,-4.36459,81.0151
2023-02-16 22:10:30:706,-0.681172,1.48281,-9.6357,-8.78842,-4.36284,81.0107
2023-02-16 22:10:30:716,-0.664704,1.48739,-9.65602,-8.7911,-4.36009,81.0065
2023-02-16 22:10:30:726,-0.633209,1.49559,-9.66491,-8.79188,-4.35167,81.0062
2023-02-16 22:10:30:736,-0.601159,1.49195,-9.66214,-8.79162,-4.34858,81.004
2023-02-16 22:10:30:746,-0.601175,1.48927,-9.65644,-8.7916,-4.34879,81.0049
2023-02-16 22:10:30:756,-0.622731,1.50176,-9.64589,-8.79433,-4.35224,81.0126
2023-02-16 22:10:30:766,-0.687826,1.50243,-9.63832,-8.79515,-4.36016,81.0245
2023-02-16 22:10:30:776,-0.734661,1.50755,-9.62658,-8.79627,-4.36779,81.0396
2023-02-16 22:10:30:786,-0.779774,1.50755,-9.62464,-8.80045,-4.37102,81.0562
2023-02-16 22:10:30:796,-0.811792,1.52479,-9.60111,-8.80308,-4.36965,81.0723
2023-02-16 22:10:30:806,-0.802386,1.53181,-9.60676,-8.80509,-4.36867,81.0896
2023-02-16 22:10:30:816,-0.778105,1.54311,-9.60837,-8.80674,-4.36484,81.1052
2023-02-16 22:10:30:826,-0.765617,1.54007,-9.6084,-8.80934,-4.35881,81.1182
2023-02-16 22:10:30:836,-0.759465,1.52793,-9.62431,-8.81208,-4.35746,81.1284
2023-02-16 22:10:30:846,-0.76857,1.51934,-9.63424,-8.81063,-4.35925,81.1365
2023-02-16 22:10:30:856,-0.792193,1.51961,-9.63059,-8.81037,-4.36216,81.1464
2023-02-16 22:10:30:866,-0.807544,1.52727,-9.62243,-8.81234,-4.36424,81.1523
2023-02-16 22:10:30:876,-0.800613,1.53358,-9.62561,-8.81031,-4.36856,81.1527
2023-02-16 22:10:30:886,-0.785007,1.53092,-9.63842,-8.81052,-4.37516,81.1478
2023-02-16 22:10:30:896,-0.768233,1.51468,-9.64623,-8.81003,-4.37939,81.1435
2023-02-16 22:10:30:906,-0.748902,1.51221,-9.65599,-8.80872,-4.38116,81.1351
2023-02-16 22:10:30:916,-0.727331,1.5149,-9.66175,-8.80663,-4.38558,81.1256
2023-02-16 22:10:30:926,-0.715494,1.51507,-9.67072,-8.80464,-4.38758,81.1165
2023-02-16 22:10:30:936,-0.708384,1.50994,-9.68238,-8.80376,-4.39176,81.1094
2023-02-16 22:10:30:946,-0.700409,1.51755,-9.66278,-8.8011,-4.39179,81.1049
2023-02-16 22:10:30:956,-0.71569,1.506,-9.67303,-8.80042,-4.39232,81.1035
2023-02-16 22:10:30:966,-0.729913,1.49955,-9.67602,-8.79828,-4.39216,81.1048
2023-02-16 22:10:30:976,-0.741036,1.50866,-9.65946,-8.79455,-4.38917,81.1087
2023-02-16 22:10:30:986,-0.752478,1.52598,-9.63696,-8.79469,-4.38397,81.1172
2023-02-16 22:10:30:996,-0.767811,1.52141,-9.63685,-8.79299,-4.37929,81.1239
2023-02-16 22:10:31:6,-0.774281,1.50863,-9.62,-8.78961,-4.3741,81.1299
2023-02-16 22:10:31:16,-0.781842,1.50218,-9.61421,-8.7855,-4.36609,81.1433
2023-02-16 22:10:31:26,-0.789379,1.49139,-9.59849,-8.77894,-4.36102,81.1524
2023-02-16 22:10:31:36,-0.790809,1.47995,-9.59501,-8.77547,-4.35592,81.1583
2023-02-16 22:10:31:46,-0.79562,1.47876,-9.60437,-8.77231,-4.35492,81.1666
2023-02-16 22:10:31:56,-0.79614,1.4688,-9.59637,-8.76796,-4.34856,81.1691
2023-02-16 22:10:31:66,-0.781211,1.47103,-9.59831,-8.76391,-4.34544,81.1707
2023-02-16 22:10:31:76,-0.775871,1.48381,-9.60477,-8.76344,-4.33973,81.1651
2023-02-16 22:10:31:86,-0.752472,1.47486,-9.60253,-8.76786,-4.33497,81.1601
2023-02-16 22:10:31:96,-0.735285,1.49291,-9.61213,-8.77075,-4.32725,81.1515
2023-02-16 22:10:31:106,-0.720257,1.49861,-9.64275,-8.77197,-4.32115,81.1437
2023-02-16 22:10:31:116,-0.717195,1.50314,-9.6377,-8.77558,-4.31623,81.1338
2023-02-16 22:10:31:126,-0.715215,1.50022,-9.63364,-8.77617,-4.31231,81.1236
2023-02-16 22:10:31:136,-0.712954,1.49425,-9.63761,-8.77832,-4.30634,81.11
2023-02-16 22:10:31:146,-0.703762,1.49243,-9.63494,-8.77835,-4.30118,81.099
2023-02-16 22:10:31:156,-0.678245,1.49424,-9.62012,-8.7826,-4.29456,81.0882
2023-02-16 22:10:31:166,-0.649113,1.49652,-9.62726,-8.78475,-4.28694,81.0767
2023-02-16 22:10:31:176,-0.649031,1.50007,-9.64521,-8.7869,-4.28122,81.0613
2023-02-16 22:10:31:186,-0.651375,1.51699,-9.65492,-8.79525,-4.27781,81.0545
2023-02-16 22:10:31:196,-0.667936,1.52699,-9.66714,-8.80034,-4.2779,81.049
2023-02-16 22:10:31:206,-0.665712,1.53269,-9.67644,-8.80903,-4.27678,81.0467
2023-02-16 22:10:31:216,-0.673697,1.53459,-9.68927,-8.81472,-4.27443,81.0463
2023-02-16 22:10:31:226,-0.699455,1.54134,-9.68595,-8.81337,-4.27171,81.0498
2023-02-16 22:10:31:236,-0.702628,1.54469,-9.66727,-8.81482,-4.26321,81.0515
2023-02-16 22:10:31:246,-0.682066,1.52161,-9.66802,-8.81026,-4.25529,81.0546
2023-02-16 22:10:31:256,-0.651408,1.52374,-9.64205,-8.80759,-4.24681,81.0561
2023-02-16 22:10:31:266,-0.660602,1.5084,-9.6043,-8.80009,-4.24292,81.0565
2023-02-16 22:10:31:276,-0.702829,1.48886,-9.60969,-8.79441,-4.23599,81.0602
2023-02-16 22:10:31:286,-0.737096,1.49971,-9.6451,-8.79154,-4.23346,81.0604
2023-02-16 22:10:31:296,-0.724067,1.50487,-9.67367,-8.78254,-4.2319,81.0599
2023-02-16 22:10:31:306,-0.66203,1.4912,-9.67099,-8.77462,-4.22617,81.0574
2023-02-16 22:10:31:316,-0.597904,1.44327,-9.63239,-8.76449,-4.22468,81.0519
2023-02-16 22:10:31:326,-0.613041,1.43082,-9.62381,-8.75601,-4.22883,81.0459
2023-02-16 22:10:31:336,-0.683568,1.47647,-9.61706,-8.75721,-4.2367,81.0424
2023-02-16 22:10:31:346,-0.747413,1.49904,-9.61699,-8.76094,-4.24533,81.0456
2023-02-16 22:10:31:356,-0.755449,1.51138,-9.61761,-8.76807,-4.25229,81.0453
2023-02-16 22:10:31:366,-0.737767,1.51356,-9.62722,-8.77365,-4.25563,81.0452
2023-02-16 22:10:31:376,-0.730264,1.5248,-9.6151,-8.77887,-4.25651,81.0481
2023-02-16 22:10:31:386,-0.698899,1.54521,-9.63136,-8.78341,-4.25893,81.0481
2023-02-16 22:10:31:396,-0.687886,1.57893,-9.64707,-8.78958,-4.2588,81.045
2023-02-16 22:10:31:406,-0.67993,1.58384,-9.64392,-8.79423,-4.25942,81.0442
2023-02-16 22:10:31:416,-0.687748,1.57762,-9.62929,-8.79626,-4.26292,81.0455
2023-02-16 22:10:31:426,-0.715774,1.55595,-9.63042,-8.79771,-4.26498,81.0469
2023-02-16 22:10:31:436,-0.738619,1.55982,-9.61674,-8.79738,-4.26934,81.049
2023-02-16 22:10:31:446,-0.746476,1.54749,-9.62414,-8.79384,-4.27252,81.051
2023-02-16 22:10:31:456,-0.748989,1.52479,-9.63528,-8.7868,-4.27362,81.052
2023-02-16 22:10:31:466,-0.745896,1.51039,-9.63183,-8.77944,-4.27375,81.0515
2023-02-16 22:10:31:476,-0.738337,1.49902,-9.64159,-8.77088,-4.27103,81.0501
2023-02-16 22:10:31:486,-0.732599,1.48235,-9.65212,-8.76419,-4.26782,81.0444
2023-02-16 22:10:31:496,-0.709159,1.47998,-9.64894,-8.76096,-4.26489,81.0388
2023-02-16 22:10:31:506,-0.687623,1.48327,-9.64886,-8.75706,-4.26144,81.0329
2023-02-16 22:10:31:516,-0.682699,1.49781,-9.67698,-8.75815,-4.25797,81.0261
2023-02-16 22:10:31:526,-0.695245,1.52021,-9.7018,-8.75904,-4.25535,81.0194
2023-02-16 22:10:31:536,-0.703367,1.52239,-9.72145,-8.75814,-4.25495,81.0136
2023-02-16 22:10:31:546,-0.683079,1.52008,-9.70987,-8.7557,-4.25199,81.0081
2023-02-16 22:10:31:556,-0.641231,1.5119,-9.70257,-8.74916,-4.24745,80.9999
2023-02-16 22:10:31:566,-0.617025,1.49657,-9.69478,-8.74039,-4.24681,80.9959
2023-02-16 22:10:31:576,-0.633741,1.49723,-9.67051,-8.72867,-4.24435,80.9932
2023-02-16 22:10:31:586,-0.65877,1.49456,-9.64143,-8.71967,-4.25031,80.9912
2023-02-16 22:10:31:596,-0.697407,1.47951,-9.63673,-8.70806,-4.25456,80.9915
2023-02-16 22:10:31:606,-0.714262,1.48003,-9.62121,-8.70047,-4.2637,80.9938
2023-02-16 22:10:31:616,-0.727273,1.47876,-9.60881,-8.69055,-4.27215,80.9987
2023-02-16 22:10:31:626,-0.731883,1.46347,-9.61429,-8.67976,-4.2768,81.004
2023-02-16 22:10:31:636,-0.720657,1.45215,-9.61736,-8.66932,-4.27804,81.0096
2023-02-16 22:10:31:646,-0.710109,1.44797,-9.61939,-8.65669,-4.27423,81.0131
2023-02-16 22:10:31:656,-0.70691,1.44263,-9.61704,-8.64567,-4.2708,81.0172
2023-02-16 22:10:31:666,-0.702968,1.43344,-9.60268,-8.63767,-4.27115,81.0236
2023-02-16 22:10:31:676,-0.70583,1.43387,-9.60825,-8.62916,-4.26935,81.0318
2023-02-16 22:10:31:686,-0.704687,1.448,-9.61645,-8.62265,-4.27141,81.0382
2023-02-16 22:10:31:696,-0.729169,1.44844,-9.63096,-8.62104,-4.27671,81.0452
2023-02-16 22:10:31:706,-0.731214,1.44943,-9.64686,-8.62082,-4.27924,81.0494
2023-02-16 22:10:31:716,-0.73117,1.45601,-9.66734,-8.62213,-4.28554,81.0548
2023-02-16 22:10:31:726,-0.735845,1.47374,-9.66519,-8.62354,-4.29067,81.0596
2023-02-16 22:10:31:736,-0.73209,1.47783,-9.665,-8.62117,-4.29694,81.0607
2023-02-16 22:10:31:746,-0.731259,1.47052,-9.65686,-8.62046,-4.30549,81.0622
2023-02-16 22:10:31:756,-0.726071,1.47033,-9.65131,-8.62138,-4.31548,81.0626
2023-02-16 22:10:31:766,-0.719373,1.46502,-9.65241,-8.61915,-4.3237,81.0607
2023-02-16 22:10:31:776,-0.719327,1.46829,-9.65494,-8.62192,-4.32955,81.0634
2023-02-16 22:10:31:786,-0.717928,1.48359,-9.64773,-8.62433,-4.33555,81.0651
2023-02-16 22:10:31:796,-0.725319,1.47713,-9.65216,-8.62222,-4.34342,81.0684
2023-02-16 22:10:31:806,-0.750796,1.48562,-9.64253,-8.61841,-4.34575,81.0723
2023-02-16 22:10:31:816,-0.75677,1.48922,-9.64314,-8.61776,-4.35075,81.0804
2023-02-16 22:10:31:826,-0.764401,1.47536,-9.64161,-8.61707,-4.35084,81.087
2023-02-16 22:10:31:836,-0.769238,1.48357,-9.63624,-8.61213,-4.34794,81.0932
2023-02-16 22:10:31:846,-0.760157,1.48244,-9.62748,-8.60695,-4.34371,81.1
2023-02-16 22:10:31:856,-0.759473,1.48152,-9.62238,-8.60394,-4.34204,81.1046
2023-02-16 22:10:31:866,-0.750392,1.4803,-9.62539,-8.60285,-4.33914,81.1078
2023-02-16 22:10:31:876,-0.751909,1.49555,-9.63291,-8.60123,-4.33724,81.1077
2023-02-16 22:10:31:886,-0.745832,1.50358,-9.65217,-8.60329,-4.33535,81.1056
2023-02-16 22:10:31:896,-0.748716,1.5177,-9.66073,-8.60554,-4.33637,81.1071
2023-02-16 22:10:31:906,-0.758643,1.51266,-9.66912,-8.60774,-4.33758,81.1049
2023-02-16 22:10:31:916,-0.747384,1.50564,-9.66531,-8.60627,-4.3371,81.1028
2023-02-16 22:10:31:926,-0.73785,1.50603,-9.65787,-8.60524,-4.33905,81.1002
2023-02-16 22:10:31:936,-0.749534,1.51229,-9.64577,-8.60185,-4.34346,81.0956
2023-02-16 22:10:31:946,-0.743502,1.50205,-9.64285,-8.59682,-4.34463,81.0877
2023-02-16 22:10:31:956,-0.739469,1.48035,-9.66016,-8.59627,-4.34473,81.0826
2023-02-16 22:10:31:966,-0.72506,1.48611,-9.65295,-8.59299,-4.34503,81.0783
2023-02-16 22:10:31:976,-0.717748,1.47682,-9.64055,-8.58973,-4.34494,81.0747
2023-02-16 22:10:31:986,-0.715608,1.46784,-9.65198,-8.58668,-4.34033,81.0735
2023-02-16 22:10:31:996,-0.712488,1.47905,-9.67454,-8.58497,-4.3364,81.0704
2023-02-16 22:10:32:6,-0.70524,1.48389,-9.68057,-8.58211,-4.33766,81.0693
2023-02-16 22:10:32:16,-0.702222,1.46732,-9.66737,-8.57564,-4.33373,81.0665
2023-02-16 22:10:32:26,-0.723191,1.45404,-9.64242,-8.5683,-4.33279,81.0665
2023-02-16 22:10:32:36,-0.759795,1.44434,-9.61943,-8.55798,-4.32815,81.0674
2023-02-16 22:10:32:46,-0.779981,1.45611,-9.63096,-8.54937,-4.32299,81.0668
2023-02-16 22:10:32:56,-0.759548,1.45418,-9.65323,-8.54185,-4.3162,81.0653
2023-02-16 22:10:32:66,-0.70899,1.44296,-9.65614,-8.53354,-4.30635,81.0612
2023-02-16 22:10:32:76,-0.62939,1.41039,-9.62134,-8.51806,-4.29803,81.0553
2023-02-16 22:10:32:86,-0.583555,1.36944,-9.60214,-8.50895,-4.29431,81.0471
2023-02-16 22:10:32:96,-0.611964,1.35746,-9.60487,-8.50298,-4.298,81.0403
2023-02-16 22:10:32:106,-0.68519,1.39458,-9.62117,-8.50044,-4.30783,81.0413
2023-02-16 22:10:32:116,-0.729167,1.43644,-9.61638,-8.50522,-4.31909,81.044
2023-02-16 22:10:32:126,-0.749306,1.44172,-9.62699,-8.51193,-4.32936,81.0447
2023-02-16 22:10:32:136,-0.749634,1.44089,-9.64037,-8.51945,-4.3372,81.0481
2023-02-16 22:10:32:146,-0.733733,1.45952,-9.63844,-8.52681,-4.33915,81.0483
2023-02-16 22:10:32:156,-0.709806,1.48393,-9.65545,-8.54057,-4.33848,81.0495
2023-02-16 22:10:32:166,-0.701262,1.49451,-9.66638,-8.55329,-4.34017,81.0514
2023-02-16 22:10:32:176,-0.714395,1.52756,-9.66317,-8.56415,-4.34559,81.0591
2023-02-16 22:10:32:186,-0.746867,1.53015,-9.65878,-8.57549,-4.34809,81.0685
2023-02-16 22:10:32:196,-0.787956,1.54716,-9.65397,-8.58376,-4.35204,81.0747
2023-02-16 22:10:32:206,-0.802793,1.54639,-9.67029,-8.59024,-4.35451,81.0859
2023-02-16 22:10:32:216,-0.80393,1.55395,-9.66602,-8.5905,-4.35466,81.0941
2023-02-16 22:10:32:226,-0.811697,1.54303,-9.65874,-8.59178,-4.35298,81.1005
2023-02-16 22:10:32:236,-0.810761,1.52226,-9.64769,-8.58544,-4.35068,81.101
2023-02-16 22:10:32:246,-0.802538,1.49768,-9.64481,-8.57815,-4.34412,81.098
2023-02-16 22:10:32:256,-0.786871,1.47182,-9.64589,-8.56825,-4.33515,81.0942
2023-02-16 22:10:32:266,-0.763986,1.46163,-9.63769,-8.56122,-4.33025,81.0877
2023-02-16 22:10:32:276,-0.728725,1.46128,-9.62241,-8.55359,-4.32605,81.082
2023-02-16 22:10:32:286,-0.717692,1.45178,-9.63992,-8.54594,-4.32172,81.0744
2023-02-16 22:10:32:296,-0.727837,1.44892,-9.67639,-8.54249,-4.31945,81.0662
2023-02-16 22:10:32:306,-0.721743,1.46262,-9.68959,-8.53938,-4.31887,81.0562
2023-02-16 22:10:32:316,-0.702719,1.46798,-9.70118,-8.53482,-4.31703,81.0436
2023-02-16 22:10:32:326,-0.672642,1.48808,-9.6955,-8.52729,-4.31679,81.0336
2023-02-16 22:10:32:336,-0.649886,1.46243,-9.68587,-8.52012,-4.31572,81.0248
2023-02-16 22:10:32:346,-0.647273,1.44216,-9.6643,-8.51023,-4.32194,81.0199
2023-02-16 22:10:32:356,-0.678244,1.4323,-9.65216,-8.49834,-4.32508,81.0141
2023-02-16 22:10:32:366,-0.704849,1.43926,-9.62156,-8.48939,-4.32341,81.0087
2023-02-16 22:10:32:376,-0.720347,1.42153,-9.61141,-8.48286,-4.32735,81.0077
2023-02-16 22:10:32:386,-0.73478,1.42513,-9.60234,-8.47646,-4.33115,81.0061
2023-02-16 22:10:32:396,-0.721192,1.43552,-9.61698,-8.47229,-4.33181,81.0066
2023-02-16 22:10:32:406,-0.721042,1.42291,-9.6291,-8.47136,-4.32888,81.0087
2023-02-16 22:10:32:416,-0.722039,1.4187,-9.60416,-8.46834,-4.32329,81.014
2023-02-16 22:10:32:426,-0.716284,1.42077,-9.60674,-8.46266,-4.31484,81.019
2023-02-16 22:10:32:436,-0.717283,1.42518,-9.5966,-8.45741,-4.30866,81.0221
2023-02-16 22:10:32:446,-0.725952,1.42639,-9.60432,-8.45597,-4.30539,81.0244
2023-02-16 22:10:32:456,-0.736021,1.43516,-9.62032,-8.45804,-4.30543,81.0288
2023-02-16 22:10:32:466,-0.744114,1.44309,-9.63245,-8.45699,-4.30439,81.0293
2023-02-16 22:10:32:476,-0.736843,1.447,-9.63498,-8.45667,-4.30843,81.0331
2023-02-16 22:10:32:486,-0.733966,1.45213,-9.65467,-8.45765,-4.30915,81.0345
2023-02-16 22:10:32:496,-0.734043,1.4431,-9.67297,-8.46144,-4.31182,81.0356
2023-02-16 22:10:32:506,-0.720321,1.46155,-9.6728,-8.46165,-4.31472,81.0339
2023-02-16 22:10:32:516,-0.708983,1.45848,-9.66511,-8.46071,-4.31732,81.0318
2023-02-16 22:10:32:526,-0.706208,1.45047,-9.65463,-8.46189,-4.32071,81.0306
2023-02-16 22:10:32:536,-0.707016,1.43149,-9.66151,-8.46509,-4.32278,81.0276
2023-02-16 22:10:32:546,-0.703689,1.43661,-9.66359,-8.46698,-4.3258,81.023
2023-02-16 22:10:32:556,-0.719254,1.44736,-9.67168,-8.46829,-4.32865,81.0247
2023-02-16 22:10:32:566,-0.724238,1.43776,-9.66809,-8.47129,-4.33078,81.0262
2023-02-16 22:10:32:576,-0.730932,1.44856,-9.65014,-8.47163,-4.33504,81.0319
2023-02-16 22:10:32:586,-0.727132,1.44116,-9.64341,-8.4754,-4.33897,81.0363
2023-02-16 22:10:32:596,-0.732151,1.44899,-9.64128,-8.47534,-4.3407,81.0387
2023-02-16 22:10:32:606,-0.733144,1.45204,-9.63134,-8.47575,-4.33928,81.0471
2023-02-16 22:10:32:616,-0.737698,1.46158,-9.62988,-8.47581,-4.33699,81.0546
2023-02-16 22:10:32:626,-0.745295,1.45921,-9.61534,-8.47653,-4.33245,81.0606
2023-02-16 22:10:32:636,-0.756492,1.45621,-9.6088,-8.47858,-4.3287,81.0689
2023-02-16 22:10:32:646,-0.77258,1.45265,-9.61179,-8.47827,-4.32696,81.0726
2023-02-16 22:10:32:655,-0.767101,1.45347,-9.62094,-8.48077,-4.3233,81.074
2023-02-16 22:10:32:666,-0.752649,1.4603,-9.63013,-8.48447,-4.3246,81.0761
2023-02-16 22:10:32:675,-0.743378,1.46767,-9.64235,-8.48712,-4.32209,81.0743
2023-02-16 22:10:32:686,-0.743806,1.48046,-9.65637,-8.49355,-4.32617,81.0707
2023-02-16 22:10:32:696,-0.750371,1.47741,-9.6558,-8.4972,-4.32797,81.0689
2023-02-16 22:10:32:706,-0.744004,1.46526,-9.65257,-8.49948,-4.3291,81.0661
2023-02-16 22:10:32:716,-0.729823,1.47222,-9.66516,-8.50339,-4.32483,81.0588
2023-02-16 22:10:32:726,-0.71034,1.48137,-9.65462,-8.50635,-4.32351,81.058
2023-02-16 22:10:32:736,-0.698399,1.46366,-9.65441,-8.51166,-4.32291,81.0521
2023-02-16 22:10:32:746,-0.679238,1.47457,-9.66432,-8.51421,-4.32031,81.0487
2023-02-16 22:10:32:756,-0.66968,1.48224,-9.65902,-8.51483,-4.3218,81.0473
2023-02-16 22:10:32:766,-0.668658,1.48721,-9.658,-8.51879,-4.32291,81.0451
2023-02-16 22:10:32:776,-0.680656,1.48291,-9.66435,-8.52082,-4.32628,81.0429
2023-02-16 22:10:32:786,-0.677038,1.48953,-9.66913,-8.52453,-4.32866,81.0453
2023-02-16 22:10:32:796,-0.69811,1.48791,-9.6702,-8.52646,-4.33451,81.0493
2023-02-16 22:10:32:806,-0.723543,1.4949,-9.66737,-8.52802,-4.33873,81.0559
2023-02-16 22:10:32:816,-0.75158,1.48734,-9.65803,-8.52681,-4.34199,81.0672
2023-02-16 22:10:32:826,-0.768006,1.47416,-9.66121,-8.52518,-4.34228,81.0785
2023-02-16 22:10:32:836,-0.77739,1.46297,-9.66641,-8.52029,-4.34099,81.091
2023-02-16 22:10:32:846,-0.776625,1.47722,-9.63865,-8.516,-4.33909,81.1009
2023-02-16 22:10:32:856,-0.759647,1.45311,-9.63562,-8.51269,-4.33624,81.1117
2023-02-16 22:10:32:866,-0.718995,1.44099,-9.6303,-8.50975,-4.32996,81.117
2023-02-16 22:10:32:876,-0.722971,1.44048,-9.62409,-8.5068,-4.32705,81.1217
2023-02-16 22:10:32:886,-0.756399,1.43428,-9.61478,-8.50735,-4.32783,81.1278
2023-02-16 22:10:32:896,-0.782616,1.43958,-9.64327,-8.50544,-4.3253,81.131
2023-02-16 22:10:32:906,-0.767711,1.44896,-9.67455,-8.50351,-4.32746,81.1311
2023-02-16 22:10:32:916,-0.722502,1.44496,-9.6668,-8.49894,-4.32334,81.1253
2023-02-16 22:10:32:926,-0.65842,1.41465,-9.62951,-8.48899,-4.32416,81.1174
2023-02-16 22:10:32:936,-0.627712,1.3872,-9.59999,-8.4811,-4.32663,81.1107
2023-02-16 22:10:32:946,-0.668073,1.39293,-9.59294,-8.47964,-4.33727,81.1047
2023-02-16 22:10:32:956,-0.731211,1.41661,-9.61641,-8.48265,-4.34984,81.1025
2023-02-16 22:10:32:966,-0.769426,1.42899,-9.62987,-8.49062,-4.36093,81.1021
2023-02-16 22:10:32:976,-0.766628,1.44349,-9.64209,-8.49481,-4.37011,81.102
2023-02-16 22:10:32:986,-0.766153,1.45542,-9.64434,-8.50572,-4.37592,81.0995
2023-02-16 22:10:32:996,-0.741763,1.47327,-9.65897,-8.51426,-4.37558,81.0985
2023-02-16 22:10:33:6,-0.730698,1.49446,-9.66657,-8.52481,-4.37463,81.1018
2023-02-16 22:10:33:16,-0.722847,1.50806,-9.66145,-8.53416,-4.37427,81.1062
2023-02-16 22:10:33:26,-0.725498,1.50395,-9.65385,-8.53966,-4.37289,81.1143
2023-02-16 22:10:33:36,-0.76268,1.50601,-9.64431,-8.5446,-4.3735,81.1242
2023-02-16 22:10:33:46,-0.787393,1.50969,-9.6336,-8.55045,-4.37269,81.1315
2023-02-16 22:10:33:56,-0.803202,1.50126,-9.62455,-8.5527,-4.37145,81.1406
2023-02-16 22:10:33:66,-0.814821,1.50137,-9.6293,-8.55202,-4.36961,81.1474
2023-02-16 22:10:33:76,-0.810387,1.49193,-9.63676,-8.55438,-4.36775,81.1492
2023-02-16 22:10:33:86,-0.806057,1.48475,-9.63328,-8.55496,-4.36386,81.1507
2023-02-16 22:10:33:96,-0.800605,1.47884,-9.64029,-8.55163,-4.35664,81.1491
2023-02-16 22:10:33:106,-0.779664,1.47403,-9.65224,-8.54987,-4.34919,81.146
2023-02-16 22:10:33:116,-0.753047,1.47484,-9.66308,-8.54928,-4.34407,81.139
2023-02-16 22:10:33:126,-0.719442,1.47331,-9.66635,-8.54683,-4.33878,81.1281
2023-02-16 22:10:33:136,-0.703413,1.47027,-9.66544,-8.54687,-4.33348,81.1218
2023-02-16 22:10:33:146,-0.696668,1.4776,-9.69314,-8.55064,-4.32753,81.1129
2023-02-16 22:10:33:156,-0.700616,1.48017,-9.71389,-8.54969,-4.32434,81.107
2023-02-16 22:10:33:166,-0.68656,1.47427,-9.69924,-8.54691,-4.32081,81.0993
2023-02-16 22:10:33:176,-0.672939,1.45697,-9.68801,-8.5454,-4.31542,81.094
2023-02-16 22:10:33:186,-0.645496,1.44942,-9.67033,-8.54086,-4.31617,81.0866
2023-02-16 22:10:33:196,-0.636891,1.44483,-9.65237,-8.53566,-4.31786,81.0841
2023-02-16 22:10:33:206,-0.666308,1.44048,-9.63183,-8.53502,-4.31933,81.0813
2023-02-16 22:10:33:216,-0.701517,1.44816,-9.62234,-8.53114,-4.32365,81.0828
2023-02-16 22:10:33:226,-0.725063,1.45034,-9.61829,-8.53164,-4.32623,81.0879
2023-02-16 22:10:33:236,-0.749926,1.44355,-9.61499,-8.53054,-4.33134,81.0918
2023-02-16 22:10:33:246,-0.746174,1.44829,-9.61465,-8.529,-4.33157,81.0994
2023-02-16 22:10:33:256,-0.736103,1.44685,-9.60241,-8.52607,-4.33127,81.1066
2023-02-16 22:10:33:266,-0.731087,1.45174,-9.60435,-8.52376,-4.32527,81.1148
2023-02-16 22:10:33:276,-0.736516,1.44151,-9.6195,-8.51877,-4.3255,81.1278
2023-02-16 22:10:33:286,-0.736849,1.4436,-9.59754,-8.52054,-4.32767,81.1364
2023-02-16 22:10:33:296,-0.740931,1.45895,-9.60269,-8.52311,-4.32645,81.1443
2023-02-16 22:10:33:306,-0.748601,1.46439,-9.62471,-8.52332,-4.32811,81.149
2023-02-16 22:10:33:316,-0.753509,1.47785,-9.64647,-8.52922,-4.33079,81.1558
2023-02-16 22:10:33:326,-0.754724,1.48421,-9.66409,-8.53357,-4.33354,81.1596
2023-02-16 22:10:33:336,-0.751674,1.48775,-9.67307,-8.53697,-4.34003,81.161
2023-02-16 22:10:33:346,-0.757426,1.49182,-9.67514,-8.54052,-4.34498,81.1609
2023-02-16 22:10:33:356,-0.745283,1.4865,-9.66883,-8.54109,-4.34737,81.1582
2023-02-16 22:10:33:366,-0.74754,1.48513,-9.65906,-8.54153,-4.34789,81.1556
2023-02-16 22:10:33:376,-0.727929,1.47842,-9.67806,-8.54128,-4.34893,81.1528
2023-02-16 22:10:33:386,-0.719111,1.47453,-9.67415,-8.5403,-4.35008,81.1496
2023-02-16 22:10:33:396,-0.720594,1.48804,-9.67851,-8.5356,-4.35353,81.1504
2023-02-16 22:10:33:406,-0.724461,1.48036,-9.68662,-8.53679,-4.35404,81.1501
2023-02-16 22:10:33:416,-0.737584,1.47252,-9.67323,-8.5359,-4.35454,81.1542
2023-02-16 22:10:33:426,-0.741717,1.46847,-9.64784,-8.53569,-4.35612,81.1585
2023-02-16 22:10:33:436,-0.753219,1.46871,-9.63644,-8.53362,-4.35922,81.1612
2023-02-16 22:10:33:446,-0.754632,1.48005,-9.62155,-8.53325,-4.35347,81.1715
2023-02-16 22:10:33:456,-0.7648,1.4834,-9.61335,-8.53098,-4.3445,81.1804
2023-02-16 22:10:33:466,-0.74701,1.47633,-9.61617,-8.52835,-4.34187,81.1868
2023-02-16 22:10:33:476,-0.750267,1.45773,-9.61597,-8.52713,-4.33585,81.1906
2023-02-16 22:10:33:486,-0.753934,1.45921,-9.62121,-8.52652,-4.33077,81.1941
2023-02-16 22:10:33:496,-0.742907,1.47067,-9.62179,-8.52569,-4.32881,81.1934
2023-02-16 22:10:33:506,-0.732826,1.45957,-9.61632,-8.52188,-4.32489,81.1944
2023-02-16 22:10:33:516,-0.748876,1.45758,-9.62434,-8.52058,-4.32311,81.1956
2023-02-16 22:10:33:526,-0.764261,1.47279,-9.63626,-8.51875,-4.32187,81.1939
2023-02-16 22:10:33:536,-0.74965,1.46438,-9.647,-8.52174,-4.31854,81.1928
2023-02-16 22:10:33:546,-0.729312,1.47455,-9.6398,-8.52529,-4.31531,81.1881
2023-02-16 22:10:33:556,-0.705863,1.48219,-9.63854,-8.52772,-4.31454,81.1804
2023-02-16 22:10:33:566,-0.695191,1.4757,-9.64755,-8.52754,-4.31541,81.1724
2023-02-16 22:10:33:576,-0.70489,1.4771,-9.6529,-8.53089,-4.31405,81.1667
2023-02-16 22:10:33:586,-0.701627,1.47384,-9.65916,-8.53368,-4.31484,81.1637
2023-02-16 22:10:33:596,-0.706239,1.48107,-9.65736,-8.53586,-4.3154,81.1618
2023-02-16 22:10:33:606,-0.700329,1.48668,-9.66922,-8.53815,-4.31848,81.162
2023-02-16 22:10:33:616,-0.709153,1.4909,-9.66209,-8.53993,-4.31976,81.1629
2023-02-16 22:10:33:626,-0.727765,1.49642,-9.67383,-8.54215,-4.31714,81.1698
2023-02-16 22:10:33:636,-0.742319,1.49464,-9.68576,-8.54108,-4.31927,81.1705
2023-02-16 22:10:33:646,-0.747004,1.49929,-9.68451,-8.54133,-4.31646,81.1758
2023-02-16 22:10:33:656,-0.740305,1.49972,-9.68055,-8.53957,-4.3113,81.1802
2023-02-16 22:10:33:666,-0.749801,1.49229,-9.67732,-8.53287,-4.30503,81.1836
2023-02-16 22:10:33:676,-0.721458,1.47621,-9.68557,-8.52664,-4.29685,81.1897
2023-02-16 22:10:33:686,-0.706832,1.46942,-9.66069,-8.51761,-4.29192,81.1907
2023-02-16 22:10:33:696,-0.723315,1.45244,-9.6171,-8.50415,-4.28697,81.1947
2023-02-16 22:10:33:706,-0.761747,1.43713,-9.58465,-8.49521,-4.28826,81.1999
2023-02-16 22:10:33:716,-0.788686,1.4221,-9.60807,-8.48492,-4.28775,81.2047
2023-02-16 22:10:33:726,-0.787509,1.42335,-9.63275,-8.47749,-4.28785,81.2036
2023-02-16 22:10:33:736,-0.733884,1.41181,-9.65606,-8.46742,-4.28209,81.2004
2023-02-16 22:10:33:746,-0.641437,1.38745,-9.63986,-8.45629,-4.2754,81.1956
2023-02-16 22:10:33:756,-0.598969,1.34835,-9.61682,-8.44337,-4.27515,81.1855
2023-02-16 22:10:33:766,-0.638011,1.36613,-9.61748,-8.439,-4.27935,81.1799
2023-02-16 22:10:33:776,-0.709025,1.40531,-9.6171,-8.44448,-4.2924,81.1824
2023-02-16 22:10:33:786,-0.757703,1.42656,-9.63471,-8.44953,-4.3017,81.1849
2023-02-16 22:10:33:796,-0.784892,1.4555,-9.63287,-8.45637,-4.30699,81.1863
2023-02-16 22:10:33:806,-0.766273,1.48588,-9.64506,-8.46239,-4.31287,81.1894
2023-02-16 22:10:33:816,-0.753609,1.49713,-9.65256,-8.47271,-4.31339,81.1908
2023-02-16 22:10:33:826,-0.731963,1.50723,-9.66379,-8.48244,-4.3126,81.1923
2023-02-16 22:10:33:836,-0.714945,1.5177,-9.65923,-8.48696,-4.31187,81.1968
2023-02-16 22:10:33:846,-0.719569,1.51104,-9.64892,-8.49248,-4.31347,81.1995
2023-02-16 22:10:33:856,-0.744599,1.50351,-9.64724,-8.48934,-4.31519,81.1985
2023-02-16 22:10:33:866,-0.7719,1.5121,-9.63304,-8.48918,-4.3151,81.205
2023-02-16 22:10:33:876,-0.794403,1.50961,-9.63336,-8.49065,-4.31565,81.2089
2023-02-16 22:10:33:886,-0.807279,1.50894,-9.63534,-8.48756,-4.31397,81.2109
2023-02-16 22:10:33:896,-0.805641,1.49284,-9.64419,-8.48339,-4.30982,81.2114
2023-02-16 22:10:33:906,-0.792345,1.47633,-9.6445,-8.47525,-4.30658,81.2105
2023-02-16 22:10:33:916,-0.781902,1.46753,-9.65317,-8.46837,-4.29874,81.2082
2023-02-16 22:10:33:926,-0.759627,1.46189,-9.66904,-8.46245,-4.28817,81.2012
2023-02-16 22:10:33:936,-0.717627,1.46345,-9.66623,-8.45649,-4.2807,81.1951
2023-02-16 22:10:33:946,-0.68994,1.44639,-9.65556,-8.45218,-4.27211,81.1817
2023-02-16 22:10:33:956,-0.693565,1.42265,-9.68811,-8.44633,-4.26386,81.1704
2023-02-16 22:10:33:966,-0.697073,1.45502,-9.71093,-8.4417,-4.25692,81.1608
2023-02-16 22:10:33:976,-0.685701,1.45813,-9.70376,-8.43211,-4.25323,81.1516
2023-02-16 22:10:33:986,-0.675098,1.46288,-9.70105,-8.42516,-4.24476,81.1445
2023-02-16 22:10:33:996,-0.651028,1.44678,-9.69044,-8.41789,-4.24044,81.1332
2023-02-16 22:10:34:6,-0.640892,1.42122,-9.67824,-8.4073,-4.23614,81.1278
2023-02-16 22:10:34:16,-0.64897,1.41626,-9.67748,-8.39742,-4.23486,81.1211
2023-02-16 22:10:34:26,-0.651882,1.41594,-9.63525,-8.38273,-4.23424,81.1164
2023-02-16 22:10:34:36,-0.678048,1.39186,-9.61741,-8.37296,-4.23409,81.1142
2023-02-16 22:10:34:46,-0.698687,1.38324,-9.61041,-8.3617,-4.23387,81.1162
2023-02-16 22:10:34:56,-0.705452,1.38856,-9.61711,-8.34916,-4.23378,81.115
2023-02-16 22:10:34:66,-0.707177,1.38933,-9.61141,-8.33928,-4.23102,81.1159
2023-02-16 22:10:34:75,-0.693066,1.38146,-9.61273,-8.3302,-4.22838,81.1161
2023-02-16 22:10:34:86,-0.680233,1.38071,-9.60751,-8.32257,-4.22144,81.1166
2023-02-16 22:10:34:96,-0.682143,1.37194,-9.61191,-8.31416,-4.21527,81.1177
2023-02-16 22:10:34:106,-0.664066,1.37531,-9.61162,-8.3111,-4.21309,81.123
2023-02-16 22:10:34:116,-0.676888,1.36406,-9.61533,-8.3059,-4.21203,81.1233
2023-02-16 22:10:34:126,-0.691595,1.36736,-9.62209,-8.30162,-4.21365,81.1272
2023-02-16 22:10:34:136,-0.69175,1.37843,-9.62214,-8.30142,-4.21789,81.1283
2023-02-16 22:10:34:146,-0.68879,1.39244,-9.63458,-8.30486,-4.2252,81.1274
2023-02-16 22:10:34:156,-0.69048,1.40139,-9.64922,-8.30621,-4.22964,81.1239
2023-02-16 22:10:34:166,-0.692091,1.4071,-9.65589,-8.31422,-4.23576,81.1245
2023-02-16 22:10:34:176,-0.689391,1.4061,-9.67149,-8.31636,-4.24314,81.1251
2023-02-16 22:10:34:186,-0.690321,1.40767,-9.67619,-8.32021,-4.24547,81.126
2023-02-16 22:10:34:196,-0.705573,1.41882,-9.67471,-8.32765,-4.25431,81.1286
2023-02-16 22:10:34:206,-0.711502,1.41021,-9.66803,-8.33221,-4.26065,81.1343
2023-02-16 22:10:34:216,-0.721842,1.41976,-9.65491,-8.33283,-4.26497,81.1395
2023-02-16 22:10:34:226,-0.722475,1.42558,-9.65907,-8.33294,-4.26364,81.1455
2023-02-16 22:10:34:236,-0.727484,1.40347,-9.64762,-8.33406,-4.26233,81.1487
2023-02-16 22:10:34:246,-0.723693,1.41307,-9.63919,-8.33578,-4.26265,81.1532
2023-02-16 22:10:34:256,-0.73024,1.41781,-9.6385,-8.34225,-4.26176,81.162
2023-02-16 22:10:34:266,-0.741842,1.42907,-9.63283,-8.34634,-4.2634,81.1698
2023-02-16 22:10:34:276,-0.735749,1.43236,-9.63194,-8.34756,-4.26464,81.1768
2023-02-16 22:10:34:286,-0.747419,1.43252,-9.62184,-8.34969,-4.26728,81.1828
2023-02-16 22:10:34:296,-0.755721,1.43919,-9.61845,-8.35355,-4.26849,81.187
2023-02-16 22:10:34:306,-0.77062,1.43859,-9.62256,-8.35675,-4.27703,81.1922
2023-02-16 22:10:34:316,-0.77115,1.43217,-9.62316,-8.35907,-4.279,81.1932
2023-02-16 22:10:34:326,-0.76258,1.44068,-9.64253,-8.36593,-4.28136,81.1913
2023-02-16 22:10:34:336,-0.762652,1.45206,-9.65435,-8.37036,-4.28119,81.1855
2023-02-16 22:10:34:346,-0.748708,1.43661,-9.65141,-8.37865,-4.28431,81.1818
2023-02-16 22:10:34:356,-0.749347,1.44678,-9.65413,-8.38513,-4.28229,81.1769
2023-02-16 22:10:34:366,-0.744474,1.46183,-9.65669,-8.39067,-4.27831,81.1726
2023-02-16 22:10:34:376,-0.731095,1.46154,-9.68321,-8.39772,-4.27424,81.1685
2023-02-16 22:10:34:386,-0.707509,1.46747,-9.68656,-8.40314,-4.27108,81.1626
2023-02-16 22:10:34:396,-0.685362,1.46339,-9.66454,-8.40689,-4.26526,81.1576
2023-02-16 22:10:34:406,-0.683731,1.44463,-9.6445,-8.40724,-4.26364,81.1518
2023-02-16 22:10:34:416,-0.725685,1.44843,-9.64813,-8.40829,-4.26721,81.1498
2023-02-16 22:10:34:426,-0.732391,1.47033,-9.68802,-8.41174,-4.26548,81.1496
2023-02-16 22:10:34:436,-0.712314,1.47054,-9.71453,-8.41129,-4.2626,81.141
2023-02-16 22:10:34:446,-0.668111,1.45633,-9.70875,-8.40714,-4.25949,81.1337
2023-02-16 22:10:34:456,-0.609272,1.43342,-9.6565,-8.3974,-4.25645,81.1256
2023-02-16 22:10:34:466,-0.576964,1.40635,-9.60509,-8.3916,-4.25589,81.117
2023-02-16 22:10:34:476,-0.613387,1.41053,-9.61114,-8.39174,-4.2631,81.1143
2023-02-16 22:10:34:486,-0.68706,1.43153,-9.6379,-8.39357,-4.27204,81.1193
2023-02-16 22:10:34:496,-0.74081,1.44215,-9.63131,-8.40034,-4.28387,81.1201
2023-02-16 22:10:34:506,-0.760547,1.46074,-9.62073,-8.40519,-4.29143,81.127
2023-02-16 22:10:34:516,-0.745753,1.45856,-9.63337,-8.4125,-4.29935,81.1316
2023-02-16 22:10:34:526,-0.725321,1.48454,-9.65514,-8.42291,-4.30271,81.1351
2023-02-16 22:10:34:536,-0.704756,1.49081,-9.66399,-8.42955,-4.30535,81.1388
2023-02-16 22:10:34:546,-0.701995,1.51004,-9.66573,-8.4396,-4.31033,81.1463
2023-02-16 22:10:34:556,-0.729118,1.52943,-9.67464,-8.44648,-4.31503,81.1516
2023-02-16 22:10:34:566,-0.764191,1.52553,-9.68976,-8.45361,-4.32106,81.1586
2023-02-16 22:10:34:576,-0.787519,1.52924,-9.67525,-8.45413,-4.328,81.1651
2023-02-16 22:10:34:585,-0.817948,1.52525,-9.66127,-8.45674,-4.33294,81.174
2023-02-16 22:10:34:596,-0.82709,1.52052,-9.66149,-8.45629,-4.33861,81.1814
2023-02-16 22:10:34:606,-0.819269,1.5153,-9.67379,-8.45028,-4.34248,81.1815
2023-02-16 22:10:34:616,-0.8077,1.48833,-9.68838,-8.44011,-4.34611,81.1837
2023-02-16 22:10:34:626,-0.799374,1.47097,-9.67442,-8.4295,-4.34971,81.1845
2023-02-16 22:10:34:636,-0.801782,1.45903,-9.65178,-8.41679,-4.35271,81.1795
2023-02-16 22:10:34:646,-0.774127,1.42943,-9.62395,-8.40135,-4.352,81.1774
2023-02-16 22:10:34:656,-0.747192,1.39306,-9.61146,-8.3904,-4.35092,81.1705
2023-02-16 22:10:34:666,-0.746165,1.38417,-9.62165,-8.38008,-4.35368,81.1636
2023-02-16 22:10:34:676,-0.761829,1.39538,-9.64288,-8.37346,-4.35536,81.1579
2023-02-16 22:10:34:686,-0.7397,1.39943,-9.67048,-8.36972,-4.3547,81.148
2023-02-16 22:10:34:696,-0.692462,1.41173,-9.67801,-8.36481,-4.35092,81.1383
2023-02-16 22:10:34:706,-0.641314,1.4032,-9.67526,-8.3589,-4.3466,81.128
2023-02-16 22:10:34:716,-0.640282,1.39351,-9.68423,-8.35714,-4.34477,81.1218
2023-02-16 22:10:34:726,-0.657893,1.40431,-9.68589,-8.35197,-4.34781,81.1195
2023-02-16 22:10:34:736,-0.682304,1.405,-9.6686,-8.34805,-4.34982,81.1174
2023-02-16 22:10:34:746,-0.710992,1.39655,-9.63952,-8.3429,-4.35397,81.1166
2023-02-16 22:10:34:756,-0.728488,1.3857,-9.61072,-8.33757,-4.3578,81.1198
2023-02-16 22:10:34:766,-0.730575,1.3949,-9.60213,-8.33353,-4.36345,81.1257
2023-02-16 22:10:34:776,-0.721745,1.39029,-9.6087,-8.33131,-4.36412,81.1269
2023-02-16 22:10:34:786,-0.713478,1.39512,-9.60702,-8.32952,-4.36359,81.1317
2023-02-16 22:10:34:795,-0.711847,1.40071,-9.60991,-8.33367,-4.365,81.1362
2023-02-16 22:10:34:806,-0.714189,1.4002,-9.62263,-8.33724,-4.36297,81.1427
2023-02-16 22:10:34:816,-0.729777,1.40295,-9.62913,-8.34055,-4.36308,81.1537
2023-02-16 22:10:34:826,-0.746944,1.40613,-9.63205,-8.34783,-4.36675,81.1613
2023-02-16 22:10:34:836,-0.760946,1.40508,-9.62224,-8.35057,-4.3684,81.1686
2023-02-16 22:10:34:846,-0.783882,1.4165,-9.62596,-8.35222,-4.37257,81.177
2023-02-16 22:10:34:856,-0.779198,1.42612,-9.63717,-8.3559,-4.36978,81.1818
2023-02-16 22:10:34:866,-0.760669,1.42301,-9.63605,-8.36168,-4.3731,81.189
2023-02-16 22:10:34:876,-0.747259,1.43663,-9.62725,-8.36822,-4.37619,81.1931
2023-02-16 22:10:34:886,-0.744753,1.42995,-9.65232,-8.37108,-4.37719,81.1964
2023-02-16 22:10:34:896,-0.743813,1.43096,-9.65574,-8.37949,-4.38415,81.1969
2023-02-16 22:10:34:906,-0.748089,1.43628,-9.6636,-8.38639,-4.39059,81.1993
2023-02-16 22:10:34:916,-0.754028,1.45257,-9.68074,-8.39661,-4.39533,81.2015
2023-02-16 22:10:34:926,-0.756884,1.46197,-9.67792,-8.4024,-4.39906,81.2028
2023-02-16 22:10:34:936,-0.763118,1.46451,-9.67121,-8.40546,-4.40047,81.2046
2023-02-16 22:10:34:946,-0.759621,1.45705,-9.66082,-8.40894,-4.40233,81.2047
2023-02-16 22:10:34:956,-0.763562,1.45358,-9.65362,-8.4088,-4.40333,81.2045
2023-02-16 22:10:34:966,-0.756047,1.45185,-9.64947,-8.41437,-4.40009,81.2079
2023-02-16 22:10:34:976,-0.760882,1.45188,-9.62897,-8.41525,-4.39969,81.2108
2023-02-16 22:10:34:986,-0.764921,1.44413,-9.61564,-8.41498,-4.39737,81.2142
2023-02-16 22:10:34:996,-0.770881,1.4425,-9.61874,-8.42057,-4.39355,81.2157
2023-02-16 22:10:35:6,-0.765547,1.44349,-9.62578,-8.42697,-4.39006,81.2171
2023-02-16 22:10:35:16,-0.760094,1.44526,-9.62608,-8.43196,-4.38851,81.2209
2023-02-16 22:10:35:26,-0.756725,1.45718,-9.62821,-8.44085,-4.38762,81.2236
2023-02-16 22:10:35:36,-0.775718,1.46748,-9.63244,-8.4443,-4.38603,81.2221
2023-02-16 22:10:35:46,-0.775483,1.47377,-9.64903,-8.44717,-4.39098,81.223
2023-02-16 22:10:35:56,-0.761627,1.48146,-9.6398,-8.45462,-4.3919,81.2198
2023-02-16 22:10:35:66,-0.742955,1.47389,-9.64482,-8.45896,-4.39142,81.2126
2023-02-16 22:10:35:76,-0.742316,1.46727,-9.65072,-8.46341,-4.38981,81.208
2023-02-16 22:10:35:86,-0.743327,1.47135,-9.63223,-8.47011,-4.38989,81.2019
2023-02-16 22:10:35:96,-0.749025,1.47272,-9.64078,-8.4765,-4.38988,81.1958
2023-02-16 22:10:35:106,-0.747346,1.46699,-9.65708,-8.48191,-4.38687,81.1898
2023-02-16 22:10:35:116,-0.741354,1.4542,-9.65148,-8.48759,-4.38533,81.1854
2023-02-16 22:10:35:126,-0.742229,1.47744,-9.66368,-8.49369,-4.38275,81.1804
2023-02-16 22:10:35:136,-0.713351,1.48163,-9.68201,-8.50152,-4.37677,81.1756
2023-02-16 22:10:35:146,-0.715358,1.47986,-9.69367,-8.50416,-4.37279,81.1774
2023-02-16 22:10:35:156,-0.732,1.47552,-9.66361,-8.50599,-4.37219,81.1766
2023-02-16 22:10:35:166,-0.763909,1.46183,-9.62839,-8.50788,-4.36686,81.1762
2023-02-16 22:10:35:176,-0.789794,1.45133,-9.6469,-8.50748,-4.36472,81.1735
2023-02-16 22:10:35:186,-0.771472,1.46002,-9.67417,-8.50675,-4.35773,81.1675
2023-02-16 22:10:35:196,-0.700848,1.43764,-9.68136,-8.5021,-4.34976,81.1589
2023-02-16 22:10:35:206,-0.601672,1.41633,-9.64357,-8.49405,-4.34193,81.1435
2023-02-16 22:10:35:216,-0.530811,1.37959,-9.61906,-8.48624,-4.34069,81.1312
2023-02-16 22:10:35:226,-0.561638,1.37729,-9.62448,-8.48517,-4.34791,81.1239
2023-02-16 22:10:35:236,-0.657602,1.40893,-9.632,-8.4887,-4.36015,81.1226
2023-02-16 22:10:35:246,-0.735343,1.44717,-9.62822,-8.49792,-4.37582,81.1288
2023-02-16 22:10:35:256,-0.768081,1.45708,-9.63076,-8.50438,-4.39029,81.1369
2023-02-16 22:10:35:266,-0.793474,1.4641,-9.64425,-8.51197,-4.39926,81.1451
2023-02-16 22:10:35:276,-0.757606,1.48266,-9.6508,-8.5214,-4.40529,81.1561
2023-02-16 22:10:35:286,-0.742804,1.51002,-9.65905,-8.53272,-4.40774,81.1643
2023-02-16 22:10:35:296,-0.740572,1.52759,-9.65851,-8.54371,-4.40537,81.1771
2023-02-16 22:10:35:306,-0.75726,1.54102,-9.65167,-8.54991,-4.40543,81.1877
2023-02-16 22:10:35:316,-0.783163,1.54338,-9.66163,-8.56089,-4.4059,81.2048
2023-02-16 22:10:35:326,-0.814399,1.55528,-9.65562,-8.56685,-4.40449,81.2201
2023-02-16 22:10:35:336,-0.843524,1.56097,-9.66379,-8.57124,-4.40612,81.2317
2023-02-16 22:10:35:346,-0.866323,1.55577,-9.66174,-8.57357,-4.40596,81.2413
2023-02-16 22:10:35:356,-0.877495,1.52763,-9.6412,-8.5736,-4.40373,81.2431
2023-02-16 22:10:35:366,-0.861455,1.51888,-9.62192,-8.56758,-4.40083,81.2424
2023-02-16 22:10:35:376,-0.83832,1.50377,-9.62745,-8.56181,-4.39915,81.2377
2023-02-16 22:10:35:386,-0.80155,1.48445,-9.63066,-8.55711,-4.39301,81.2295
2023-02-16 22:10:35:396,-0.761697,1.46005,-9.6355,-8.55198,-4.39196,81.2196
2023-02-16 22:10:35:406,-0.724249,1.44843,-9.6489,-8.545,-4.38996,81.2088
2023-02-16 22:10:35:416,-0.711817,1.44524,-9.65672,-8.54351,-4.38925,81.1988
2023-02-16 22:10:35:426,-0.711183,1.4666,-9.6729,-8.54493,-4.38893,81.1848
2023-02-16 22:10:35:436,-0.726235,1.47286,-9.69079,-8.54096,-4.38814,81.1746
2023-02-16 22:10:35:446,-0.715605,1.46594,-9.70588,-8.5411,-4.38363,81.1658
2023-02-16 22:10:35:456,-0.681373,1.46819,-9.67565,-8.5345,-4.37733,81.1536
2023-02-16 22:10:35:466,-0.65421,1.46021,-9.66308,-8.52778,-4.37008,81.1418
2023-02-16 22:10:35:476,-0.647559,1.44656,-9.64554,-8.51994,-4.36803,81.1369
2023-02-16 22:10:35:486,-0.66704,1.43332,-9.62588,-8.51338,-4.36983,81.1339
2023-02-16 22:10:35:496,-0.711027,1.4258,-9.62075,-8.51065,-4.37251,81.1361
2023-02-16 22:10:35:506,-0.73422,1.43771,-9.61425,-8.51017,-4.37713,81.143
2023-02-16 22:10:35:516,-0.757383,1.44382,-9.62004,-8.51022,-4.3797,81.1541
2023-02-16 22:10:35:526,-0.769272,1.44916,-9.61345,-8.5059,-4.3796,81.1604
2023-02-16 22:10:35:536,-0.777497,1.45123,-9.61516,-8.50614,-4.37758,81.1672
2023-02-16 22:10:35:546,-0.765281,1.44646,-9.62038,-8.50447,-4.37394,81.1737
2023-02-16 22:10:35:556,-0.754236,1.44778,-9.62578,-8.50541,-4.3702,81.1761
2023-02-16 22:10:35:566,-0.760088,1.44159,-9.61813,-8.50297,-4.36635,81.1802
2023-02-16 22:10:35:576,-0.741214,1.44214,-9.59902,-8.49858,-4.35971,81.1836
2023-02-16 22:10:35:586,-0.729772,1.43475,-9.60267,-8.4985,-4.35697,81.1834
2023-02-16 22:10:35:596,-0.726585,1.44818,-9.62842,-8.50202,-4.35491,81.1835
2023-02-16 22:10:35:606,-0.726684,1.45161,-9.66073,-8.5062,-4.35788,81.1807
2023-02-16 22:10:35:616,-0.728554,1.45764,-9.6691,-8.51026,-4.3593,81.177
2023-02-16 22:10:35:626,-0.731466,1.45609,-9.67288,-8.51327,-4.3626,81.1724
2023-02-16 22:10:35:636,-0.730462,1.46887,-9.68959,-8.51569,-4.36489,81.1684
2023-02-16 22:10:35:646,-0.719219,1.47724,-9.68528,-8.51737,-4.36873,81.1658
2023-02-16 22:10:35:656,-0.71071,1.46187,-9.68952,-8.51778,-4.37152,81.1612
2023-02-16 22:10:35:666,-0.69931,1.46137,-9.68155,-8.51828,-4.37435,81.157
2023-02-16 22:10:35:676,-0.701772,1.46142,-9.65482,-8.51584,-4.37836,81.1578
2023-02-16 22:10:35:686,-0.708396,1.46485,-9.64528,-8.51679,-4.37978,81.1582
2023-02-16 22:10:35:696,-0.718593,1.45737,-9.64887,-8.5154,-4.3813,81.1631
2023-02-16 22:10:35:706,-0.737797,1.44875,-9.63256,-8.5145,-4.38277,81.1706
2023-02-16 22:10:35:716,-0.767415,1.45841,-9.62613,-8.51481,-4.3837,81.1799
2023-02-16 22:10:35:726,-0.774552,1.45929,-9.63474,-8.51276,-4.38354,81.1927
2023-02-16 22:10:35:736,-0.777196,1.45916,-9.63163,-8.51095,-4.38201,81.1971
2023-02-16 22:10:35:746,-0.781973,1.46825,-9.61726,-8.51217,-4.37936,81.2072
2023-02-16 22:10:35:756,-0.789037,1.46026,-9.6118,-8.51041,-4.37678,81.2125
2023-02-16 22:10:35:766,-0.779917,1.46772,-9.61241,-8.50922,-4.37597,81.2139
2023-02-16 22:10:35:776,-0.760696,1.47418,-9.62831,-8.51099,-4.37432,81.2142
2023-02-16 22:10:35:786,-0.751704,1.45876,-9.62208,-8.51066,-4.37077,81.2161
2023-02-16 22:10:35:796,-0.734322,1.45636,-9.61226,-8.5117,-4.37159,81.2127
2023-02-16 22:10:35:806,-0.733003,1.45276,-9.62183,-8.51436,-4.37309,81.2073
2023-02-16 22:10:35:816,-0.726239,1.45196,-9.63189,-8.52164,-4.37775,81.2011
2023-02-16 22:10:35:826,-0.71241,1.46011,-9.63621,-8.5277,-4.37785,81.1948
2023-02-16 22:10:35:836,-0.718062,1.46404,-9.63625,-8.53306,-4.38109,81.1896
2023-02-16 22:10:35:846,-0.737448,1.48322,-9.65318,-8.53854,-4.38429,81.1854
2023-02-16 22:10:35:856,-0.745688,1.49785,-9.67833,-8.5431,-4.38739,81.1858
2023-02-16 22:10:35:866,-0.750588,1.4964,-9.68972,-8.55062,-4.38667,81.1888
2023-02-16 22:10:35:876,-0.762341,1.50525,-9.69516,-8.55483,-4.38136,81.1903
2023-02-16 22:10:35:886,-0.760435,1.52177,-9.69485,-8.55973,-4.37706,81.1915
2023-02-16 22:10:35:896,-0.72878,1.50239,-9.69386,-8.55853,-4.36747,81.191
2023-02-16 22:10:35:906,-0.722939,1.48582,-9.69036,-8.55597,-4.35991,81.1894
2023-02-16 22:10:35:916,-0.733641,1.47954,-9.65256,-8.54944,-4.3541,81.19
2023-02-16 22:10:35:926,-0.759084,1.47539,-9.64903,-8.54344,-4.35446,81.189
2023-02-16 22:10:35:936,-0.765821,1.47337,-9.68133,-8.53654,-4.35063,81.1891
2023-02-16 22:10:35:946,-0.744219,1.46383,-9.68312,-8.5291,-4.35003,81.1897
2023-02-16 22:10:35:956,-0.691494,1.44478,-9.67083,-8.51769,-4.34761,81.1829
2023-02-16 22:10:35:966,-0.623212,1.39796,-9.63398,-8.50324,-4.34711,81.1785
2023-02-16 22:10:35:976,-0.616356,1.36693,-9.61345,-8.49504,-4.3471,81.174
2023-02-16 22:10:35:986,-0.691247,1.38681,-9.59913,-8.49481,-4.35665,81.1733
2023-02-16 22:10:35:996,-0.748418,1.42359,-9.58809,-8.49378,-4.3685,81.1778
2023-02-16 22:10:36:6,-0.762925,1.43783,-9.60197,-8.49593,-4.37506,81.1777
2023-02-16 22:10:36:16,-0.7479,1.44557,-9.61831,-8.50317,-4.37816,81.1806
2023-02-16 22:10:36:26,-0.736707,1.46041,-9.62679,-8.51051,-4.38092,81.1823
2023-02-16 22:10:36:36,-0.721263,1.47229,-9.63788,-8.52452,-4.38047,81.1834
2023-02-16 22:10:36:46,-0.706355,1.49789,-9.64466,-8.53282,-4.37931,81.1861
2023-02-16 22:10:36:56,-0.716499,1.51037,-9.64721,-8.55055,-4.3801,81.1937
2023-02-16 22:10:36:66,-0.74867,1.52351,-9.64678,-8.55738,-4.38115,81.2023
2023-02-16 22:10:36:76,-0.798356,1.5305,-9.65206,-8.56482,-4.38611,81.2118
2023-02-16 22:10:36:86,-0.832601,1.53574,-9.64556,-8.56843,-4.38555,81.2216
2023-02-16 22:10:36:96,-0.84447,1.51157,-9.63947,-8.56777,-4.38556,81.2296
2023-02-16 22:10:36:106,-0.83433,1.49022,-9.62315,-8.56951,-4.38439,81.2352
2023-02-16 22:10:36:116,-0.811318,1.47419,-9.62453,-8.56664,-4.38251,81.2383
2023-02-16 22:10:36:126,-0.797623,1.44864,-9.63201,-8.5623,-4.37405,81.2392
2023-02-16 22:10:36:136,-0.785713,1.42195,-9.63209,-8.55951,-4.36999,81.2357
2023-02-16 22:10:36:146,-0.78362,1.42171,-9.62188,-8.55914,-4.3646,81.2309
2023-02-16 22:10:36:156,-0.771683,1.40497,-9.62006,-8.55986,-4.35904,81.2241
2023-02-16 22:10:36:166,-0.773266,1.41258,-9.62121,-8.56151,-4.35089,81.2163
2023-02-16 22:10:36:176,-0.769061,1.41946,-9.64474,-8.56392,-4.34552,81.2094
2023-02-16 22:10:36:186,-0.756229,1.42345,-9.65748,-8.5686,-4.34016,81.2011
2023-02-16 22:10:36:196,-0.715834,1.4389,-9.66366,-8.57627,-4.33216,81.1908
2023-02-16 22:10:36:206,-0.681745,1.43543,-9.66813,-8.58355,-4.32514,81.1754
2023-02-16 22:10:36:216,-0.668996,1.4279,-9.66847,-8.58821,-4.3169,81.1638
2023-02-16 22:10:36:226,-0.659947,1.43875,-9.66562,-8.59472,-4.31323,81.1557
2023-02-16 22:10:36:236,-0.692606,1.44082,-9.65376,-8.60268,-4.3129,81.1506
2023-02-16 22:10:36:246,-0.716577,1.44526,-9.62846,-8.60965,-4.3135,81.1472
2023-02-16 22:10:36:256,-0.73253,1.44466,-9.61059,-8.61785,-4.31518,81.1392
2023-02-16 22:10:36:266,-0.740022,1.45045,-9.61834,-8.62387,-4.31594,81.1363
2023-02-16 22:10:36:276,-0.732112,1.46751,-9.62143,-8.63429,-4.31643,81.1375
2023-02-16 22:10:36:286,-0.718665,1.46753,-9.64105,-8.64445,-4.307,81.135
2023-02-16 22:10:36:296,-0.686291,1.46999,-9.65585,-8.65289,-4.29941,81.1341
2023-02-16 22:10:36:306,-0.67925,1.48521,-9.64804,-8.65878,-4.29637,81.1342
2023-02-16 22:10:36:316,-0.682742,1.49526,-9.64391,-8.66461,-4.29176,81.1355
2023-02-16 22:10:36:326,-0.693841,1.48638,-9.64067,-8.66909,-4.28871,81.1381
2023-02-16 22:10:36:336,-0.703525,1.5001,-9.6335,-8.67632,-4.28656,81.1391
2023-02-16 22:10:36:346,-0.715425,1.49913,-9.64413,-8.68067,-4.28618,81.1416
2023-02-16 22:10:36:356,-0.71912,1.49687,-9.65642,-8.68986,-4.287,81.1448
2023-02-16 22:10:36:366,-0.723687,1.51391,-9.65028,-8.69747,-4.28809,81.1453
2023-02-16 22:10:36:376,-0.73475,1.52047,-9.65085,-8.70574,-4.28761,81.1472
2023-02-16 22:10:36:386,-0.727461,1.52116,-9.66522,-8.71201,-4.28733,81.15
2023-02-16 22:10:36:396,-0.731616,1.51772,-9.6757,-8.71611,-4.29177,81.1499
2023-02-16 22:10:36:406,-0.727021,1.52111,-9.67212,-8.722,-4.29572,81.1524
2023-02-16 22:10:36:416,-0.726363,1.52301,-9.65525,-8.72758,-4.29759,81.1548
2023-02-16 22:10:36:426,-0.742566,1.5133,-9.6457,-8.72945,-4.29835,81.1556
2023-02-16 22:10:36:436,-0.744373,1.50954,-9.64347,-8.72937,-4.30112,81.1606
2023-02-16 22:10:36:446,-0.746092,1.51984,-9.63904,-8.73377,-4.30197,81.165
2023-02-16 22:10:36:456,-0.756596,1.52115,-9.64494,-8.73679,-4.30161,81.1699
2023-02-16 22:10:36:466,-0.760169,1.51935,-9.6505,-8.74016,-4.30355,81.1718
2023-02-16 22:10:36:476,-0.750502,1.52647,-9.64227,-8.7415,-4.30072,81.1794
2023-02-16 22:10:36:486,-0.742166,1.52225,-9.63877,-8.74206,-4.29917,81.1852
2023-02-16 22:10:36:496,-0.741831,1.52436,-9.63505,-8.74426,-4.29892,81.1869
2023-02-16 22:10:36:506,-0.752687,1.51887,-9.62923,-8.7385,-4.29641,81.1892
2023-02-16 22:10:36:516,-0.756825,1.51062,-9.61827,-8.73884,-4.29565,81.1885
2023-02-16 22:10:36:526,-0.756632,1.51379,-9.62267,-8.73757,-4.29191,81.1882
2023-02-16 22:10:36:536,-0.765609,1.51454,-9.62907,-8.73763,-4.29207,81.1871
2023-02-16 22:10:36:546,-0.765116,1.50882,-9.63222,-8.73628,-4.29447,81.1837
2023-02-16 22:10:36:556,-0.760985,1.50466,-9.63158,-8.73525,-4.29054,81.1795
2023-02-16 22:10:36:566,-0.751456,1.51559,-9.63897,-8.73779,-4.28939,81.1741
2023-02-16 22:10:36:576,-0.745842,1.53808,-9.64465,-8.73996,-4.28497,81.1669
2023-02-16 22:10:36:586,-0.747971,1.52287,-9.65096,-8.74182,-4.28149,81.1604
2023-02-16 22:10:36:596,-0.719412,1.52361,-9.66052,-8.74093,-4.27309,81.1559
2023-02-16 22:10:36:606,-0.704521,1.52677,-9.67847,-8.73818,-4.26844,81.1484
2023-02-16 22:10:36:616,-0.678988,1.52706,-9.67297,-8.73339,-4.26147,81.1419
2023-02-16 22:10:36:626,-0.673447,1.52408,-9.65516,-8.72968,-4.25814,81.135
2023-02-16 22:10:36:636,-0.683413,1.50078,-9.62922,-8.72465,-4.2572,81.1288
2023-02-16 22:10:36:646,-0.710338,1.4878,-9.6167,-8.71442,-4.25261,81.1247
2023-02-16 22:10:36:656,-0.738122,1.49419,-9.64849,-8.70831,-4.24657,81.119
2023-02-16 22:10:36:666,-0.721499,1.49126,-9.68728,-8.70415,-4.23771,81.1134
2023-02-16 22:10:36:676,-0.647373,1.47679,-9.68189,-8.69469,-4.22702,81.1049
2023-02-16 22:10:36:686,-0.581077,1.43555,-9.64759,-8.6841,-4.21754,81.0942
2023-02-16 22:10:36:696,-0.571429,1.40999,-9.61583,-8.67228,-4.21281,81.0859
2023-02-16 22:10:36:705,-0.621882,1.41809,-9.61153,-8.66757,-4.21366,81.0824
2023-02-16 22:10:36:715,-0.689834,1.44017,-9.61418,-8.6666,-4.22466,81.0813
2023-02-16 22:10:36:725,-0.738914,1.46095,-9.59836,-8.66725,-4.22751,81.0823
2023-02-16 22:10:36:735,-0.756291,1.47263,-9.60091,-8.66774,-4.22796,81.0835
2023-02-16 22:10:36:745,-0.730232,1.4812,-9.60399,-8.67212,-4.23113,81.0822
2023-02-16 22:10:36:755,-0.683929,1.48434,-9.63647,-8.67983,-4.22835,81.0814
2023-02-16 22:10:36:765,-0.662191,1.51034,-9.66515,-8.68286,-4.22716,81.0797
2023-02-16 22:10:36:775,-0.668915,1.51713,-9.67793,-8.68729,-4.22821,81.0771
2023-02-16 22:10:36:785,-0.688858,1.52125,-9.67304,-8.69098,-4.23055,81.0797
2023-02-16 22:10:36:795,-0.710457,1.52628,-9.6747,-8.68911,-4.23051,81.08
2023-02-16 22:10:36:805,-0.736033,1.51691,-9.66165,-8.68243,-4.23961,81.0799
2023-02-16 22:10:36:815,-0.76631,1.49088,-9.65609,-8.675,-4.24399,81.0858
2023-02-16 22:10:36:825,-0.788853,1.47287,-9.64148,-8.6697,-4.24636,81.0889
2023-02-16 22:10:36:835,-0.783293,1.46442,-9.62437,-8.66316,-4.24866,81.0897
2023-02-16 22:10:36:845,-0.765093,1.45244,-9.62044,-8.65309,-4.24521,81.0909
2023-02-16 22:10:36:855,-0.734289,1.44422,-9.61675,-8.64552,-4.24227,81.0897
2023-02-16 22:10:36:865,-0.694788,1.44594,-9.61392,-8.64086,-4.2347,81.0837
2023-02-16 22:10:36:875,-0.679574,1.43523,-9.63172,-8.63944,-4.23197,81.0774
2023-02-16 22:10:36:885,-0.687103,1.44719,-9.66124,-8.63792,-4.22802,81.0729
2023-02-16 22:10:36:895,-0.691429,1.4713,-9.69345,-8.63439,-4.22648,81.0686
2023-02-16 22:10:36:905,-0.692052,1.46535,-9.70624,-8.63001,-4.22304,81.0642
2023-02-16 22:10:36:915,-0.680974,1.4792,-9.70951,-8.62816,-4.22356,81.0599
2023-02-16 22:10:36:925,-0.645731,1.47721,-9.71977,-8.62058,-4.22059,81.0536
2023-02-16 22:10:36:935,-0.628016,1.47782,-9.69407,-8.61029,-4.2258,81.0472
2023-02-16 22:10:36:945,-0.647127,1.46858,-9.67589,-8.60116,-4.23041,81.0443
2023-02-16 22:10:36:955,-0.669066,1.45238,-9.64295,-8.59017,-4.23522,81.0426
2023-02-16 22:10:36:965,-0.695643,1.44468,-9.61074,-8.58116,-4.24101,81.0434
2023-02-16 22:10:36:975,-0.716139,1.42437,-9.5929,-8.57281,-4.24688,81.0455
2023-02-16 22:10:36:985,-0.722753,1.42169,-9.5653,-8.56595,-4.25428,81.0507
2023-02-16 22:10:36:995,-0.718139,1.42173,-9.57225,-8.56401,-4.25785,81.0555
2023-02-16 22:10:37:5,-0.713294,1.42553,-9.58814,-8.56765,-4.2586,81.0603
2023-02-16 22:10:37:15,-0.708116,1.42972,-9.59187,-8.56678,-4.26238,81.0674
2023-02-16 22:10:37:25,-0.694276,1.43932,-9.60499,-8.56729,-4.26639,81.0756
2023-02-16 22:10:37:35,-0.708545,1.44243,-9.61777,-8.56901,-4.26522,81.0836
2023-02-16 22:10:37:45,-0.71627,1.44395,-9.61721,-8.57404,-4.27001,81.0922
2023-02-16 22:10:37:55,-0.724168,1.47008,-9.61807,-8.58272,-4.2774,81.103
2023-02-16 22:10:37:65,-0.755327,1.4705,-9.63317,-8.58801,-4.28198,81.1104
2023-02-16 22:10:37:75,-0.76256,1.47808,-9.64912,-8.59699,-4.29016,81.1207
2023-02-16 22:10:37:85,-0.759865,1.48287,-9.66045,-8.60207,-4.29533,81.1279
2023-02-16 22:10:37:95,-0.753768,1.50383,-9.66727,-8.61014,-4.30334,81.1322
2023-02-16 22:10:37:105,-0.753198,1.50382,-9.67823,-8.61844,-4.31278,81.1395
2023-02-16 22:10:37:115,-0.74788,1.50812,-9.68327,-8.62317,-4.32096,81.143
2023-02-16 22:10:37:125,-0.745021,1.51122,-9.68664,-8.6265,-4.32965,81.1481
2023-02-16 22:10:37:135,-0.746023,1.51498,-9.68762,-8.62662,-4.34092,81.153
2023-02-16 22:10:37:145,-0.752744,1.50065,-9.68456,-8.62871,-4.35049,81.157
2023-02-16 22:10:37:155,-0.766023,1.49612,-9.67799,-8.63134,-4.35796,81.1621
2023-02-16 22:10:37:165,-0.783005,1.50233,-9.66339,-8.63089,-4.36378,81.1696
2023-02-16 22:10:37:175,-0.79016,1.49498,-9.64802,-8.62981,-4.36376,81.1764
2023-02-16 22:10:37:185,-0.791365,1.49508,-9.62593,-8.62459,-4.36879,81.1817
2023-02-16 22:10:37:195,-0.792644,1.48637,-9.63172,-8.62243,-4.37003,81.1866
2023-02-16 22:10:37:205,-0.783189,1.48344,-9.62751,-8.61843,-4.36906,81.1906
2023-02-16 22:10:37:215,-0.778381,1.48374,-9.62966,-8.61724,-4.36726,81.1903
2023-02-16 22:10:37:225,-0.77532,1.48157,-9.6318,-8.61674,-4.36668,81.1939
2023-02-16 22:10:37:235,-0.77246,1.49089,-9.63869,-8.61459,-4.36433,81.195
2023-02-16 22:10:37:246,-0.771081,1.49235,-9.63709,-8.61634,-4.36215,81.1963
2023-02-16 22:10:37:256,-0.764362,1.48934,-9.63333,-8.61665,-4.36193,81.1954
2023-02-16 22:10:37:266,-0.754591,1.49551,-9.63362,-8.61534,-4.36223,81.1944
2023-02-16 22:10:37:276,-0.741383,1.49368,-9.64374,-8.61496,-4.36237,81.1923
2023-02-16 22:10:37:286,-0.737838,1.48796,-9.64707,-8.61392,-4.36405,81.1874
2023-02-16 22:10:37:296,-0.735986,1.48215,-9.65274,-8.61107,-4.36367,81.1874
2023-02-16 22:10:37:306,-0.756308,1.48506,-9.66846,-8.61054,-4.36363,81.1874
2023-02-16 22:10:37:316,-0.787959,1.48992,-9.68122,-8.60774,-4.36726,81.1857
2023-02-16 22:10:37:326,-0.788124,1.50573,-9.66839,-8.60573,-4.36824,81.1866
2023-02-16 22:10:37:336,-0.791801,1.4926,-9.66569,-8.60302,-4.36282,81.1863
2023-02-16 22:10:37:346,-0.756562,1.49078,-9.66483,-8.59795,-4.35436,81.183
2023-02-16 22:10:37:356,-0.727348,1.48129,-9.65916,-8.5914,-4.34855,81.1803
2023-02-16 22:10:37:366,-0.6974,1.48425,-9.64188,-8.58785,-4.34526,81.1743
2023-02-16 22:10:37:376,-0.692331,1.47796,-9.62566,-8.57804,-4.34134,81.1721
2023-02-16 22:10:37:386,-0.726416,1.47077,-9.65165,-8.57013,-4.33846,81.1738
2023-02-16 22:10:37:396,-0.742986,1.48963,-9.68964,-8.56676,-4.33461,81.1743
2023-02-16 22:10:37:406,-0.734673,1.48134,-9.70445,-8.55944,-4.33223,81.1736
2023-02-16 22:10:37:416,-0.668651,1.44975,-9.67739,-8.54769,-4.32801,81.1705
2023-02-16 22:10:37:426,-0.620161,1.39961,-9.63293,-8.53237,-4.329,81.1664
2023-02-16 22:10:37:436,-0.639001,1.37101,-9.61862,-8.51909,-4.33233,81.1693
2023-02-16 22:10:37:446,-0.709602,1.39811,-9.61584,-8.51262,-4.33582,81.1722
2023-02-16 22:10:37:456,-0.769065,1.41103,-9.62031,-8.50814,-4.34133,81.1785
2023-02-16 22:10:37:466,-0.779847,1.43151,-9.61445,-8.5074,-4.34648,81.1861
2023-02-16 22:10:37:476,-0.762412,1.45634,-9.61785,-8.50921,-4.34794,81.1913
2023-02-16 22:10:37:486,-0.756843,1.4809,-9.63701,-8.51139,-4.34586,81.1973
2023-02-16 22:10:37:496,-0.733522,1.50726,-9.67067,-8.51619,-4.34131,81.2059
2023-02-16 22:10:37:506,-0.718908,1.52015,-9.69507,-8.51948,-4.33933,81.2141
2023-02-16 22:10:37:516,-0.750084,1.52241,-9.7006,-8.52044,-4.3368,81.2212
2023-02-16 22:10:37:526,-0.791396,1.53017,-9.6903,-8.51403,-4.33877,81.2291
2023-02-16 22:10:37:536,-0.825543,1.51786,-9.66351,-8.50644,-4.34021,81.2398
2023-02-16 22:10:37:546,-0.85045,1.49118,-9.6382,-8.49515,-4.33624,81.2481
2023-02-16 22:10:37:556,-0.845907,1.46945,-9.60779,-8.48138,-4.33307,81.2527
2023-02-16 22:10:37:566,-0.831276,1.44083,-9.58938,-8.46621,-4.32591,81.2543
2023-02-16 22:10:37:576,-0.796575,1.42417,-9.59866,-8.45245,-4.3149,81.2521
2023-02-16 22:10:37:586,-0.749906,1.42501,-9.60614,-8.43828,-4.30557,81.2467
2023-02-16 22:10:37:596,-0.699845,1.41305,-9.63249,-8.42875,-4.29608,81.2387
2023-02-16 22:10:37:606,-0.69029,1.41778,-9.65314,-8.42328,-4.2879,81.232
2023-02-16 22:10:37:616,-0.679821,1.40804,-9.64882,-8.41626,-4.27992,81.2289
2023-02-16 22:10:37:626,-0.677503,1.39875,-9.65813,-8.41099,-4.2726,81.2262
2023-02-16 22:10:37:636,-0.696994,1.41895,-9.67823,-8.41087,-4.26686,81.2199
2023-02-16 22:10:37:646,-0.700947,1.4353,-9.69824,-8.40833,-4.25989,81.2164
2023-02-16 22:10:37:656,-0.675785,1.45402,-9.7059,-8.4047,-4.25034,81.2153
2023-02-16 22:10:37:665,-0.636397,1.4495,-9.70191,-8.39958,-4.23998,81.2145
2023-02-16 22:10:37:675,-0.614661,1.45721,-9.68099,-8.39175,-4.22904,81.2124
2023-02-16 22:10:37:686,-0.621711,1.45393,-9.65801,-8.38911,-4.22679,81.2107
2023-02-16 22:10:37:696,-0.661536,1.44008,-9.63952,-8.38138,-4.22682,81.2163
2023-02-16 22:10:37:706,-0.691363,1.42878,-9.62553,-8.37525,-4.22675,81.2248
2023-02-16 22:10:37:716,-0.73539,1.43252,-9.63816,-8.37004,-4.23003,81.2377
2023-02-16 22:10:37:725,-0.745093,1.45318,-9.65975,-8.36281,-4.22883,81.2456
2023-02-16 22:10:37:736,-0.746726,1.46309,-9.64396,-8.3547,-4.22676,81.2524
2023-02-16 22:10:37:746,-0.752933,1.44419,-9.64022,-8.34683,-4.22416,81.2596
2023-02-16 22:10:37:756,-0.725697,1.44006,-9.64795,-8.33707,-4.21843,81.2662
2023-02-16 22:10:37:766,-0.707109,1.43701,-9.64895,-8.32522,-4.21269,81.2745
2023-02-16 22:10:37:776,-0.691348,1.41388,-9.65548,-8.31381,-4.21028,81.2764
2023-02-16 22:10:37:786,-0.686058,1.38926,-9.64641,-8.30092,-4.20647,81.2811
2023-02-16 22:10:37:796,-0.691029,1.37193,-9.63726,-8.28866,-4.20478,81.2839
2023-02-16 22:10:37:806,-0.709198,1.3721,-9.62522,-8.27852,-4.20381,81.2867
2023-02-16 22:10:37:816,-0.725222,1.38264,-9.62933,-8.26564,-4.21033,81.2898
2023-02-16 22:10:37:826,-0.740746,1.3994,-9.65887,-8.25746,-4.21399,81.2936
2023-02-16 22:10:37:836,-0.752575,1.39156,-9.66699,-8.24954,-4.21789,81.2958
2023-02-16 22:10:37:846,-0.744178,1.38626,-9.66762,-8.24374,-4.22145,81.296
2023-02-16 22:10:37:856,-0.712955,1.39429,-9.66887,-8.23529,-4.22257,81.2966
2023-02-16 22:10:37:866,-0.700501,1.38943,-9.67515,-8.22644,-4.22352,81.2959
2023-02-16 22:10:37:876,-0.695201,1.37281,-9.67853,-8.21801,-4.22297,81.2972
2023-02-16 22:10:37:886,-0.701488,1.38054,-9.67461,-8.21029,-4.21966,81.2983
2023-02-16 22:10:37:895,-0.694611,1.38228,-9.66714,-8.20236,-4.21707,81.2988
2023-02-16 22:10:37:905,-0.702594,1.36847,-9.65961,-8.19348,-4.21639,81.3027
2023-02-16 22:10:37:915,-0.700887,1.36019,-9.64205,-8.1856,-4.21353,81.3045
2023-02-16 22:10:37:926,-0.69038,1.35363,-9.62995,-8.17975,-4.20913,81.3078
2023-02-16 22:10:37:936,-0.689002,1.34654,-9.63448,-8.17597,-4.20452,81.312
2023-02-16 22:10:37:946,-0.70585,1.35803,-9.63054,-8.17063,-4.20159,81.3163
2023-02-16 22:10:37:956,-0.712163,1.36379,-9.62021,-8.16619,-4.20205,81.3211
2023-02-16 22:10:37:966,-0.711503,1.36859,-9.60198,-8.1605,-4.19965,81.3237
2023-02-16 22:10:37:976,-0.710256,1.36653,-9.58786,-8.15997,-4.19936,81.3268
2023-02-16 22:10:37:986,-0.711836,1.37261,-9.58998,-8.1594,-4.19879,81.3315
2023-02-16 22:10:37:996,-0.704481,1.37707,-9.61393,-8.16028,-4.19748,81.335
2023-02-16 22:10:38:6,-0.704256,1.38755,-9.62844,-8.16242,-4.1972,81.3362
2023-02-16 22:10:38:16,-0.713672,1.38439,-9.63247,-8.1662,-4.19696,81.3399
2023-02-16 22:10:38:26,-0.72408,1.39902,-9.65759,-8.17549,-4.19665,81.3454
2023-02-16 22:10:38:36,-0.753093,1.41471,-9.68447,-8.1821,-4.19623,81.3525
2023-02-16 22:10:38:46,-0.753995,1.42211,-9.69192,-8.18766,-4.19388,81.3603
2023-02-16 22:10:38:55,-0.744778,1.41401,-9.69253,-8.19096,-4.18971,81.3672
2023-02-16 22:10:38:65,-0.731032,1.42143,-9.69848,-8.19288,-4.18493,81.3725
2023-02-16 22:10:38:76,-0.706059,1.41528,-9.69766,-8.19382,-4.18109,81.3741
2023-02-16 22:10:38:86,-0.679393,1.39735,-9.67407,-8.19114,-4.18002,81.3721
2023-02-16 22:10:38:95,-0.672499,1.39372,-9.64702,-8.18814,-4.17399,81.3735
2023-02-16 22:10:38:106,-0.690552,1.38505,-9.62666,-8.18327,-4.17683,81.3767
2023-02-16 22:10:38:116,-0.731945,1.39053,-9.64103,-8.18348,-4.17536,81.3832
2023-02-16 22:10:38:126,-0.756789,1.40237,-9.68359,-8.18604,-4.17471,81.3887
2023-02-16 22:10:38:136,-0.734014,1.41044,-9.73013,-8.1832,-4.17163,81.3888
2023-02-16 22:10:38:146,-0.658815,1.41103,-9.7301,-8.185,-4.16479,81.39
2023-02-16 22:10:38:156,-0.607246,1.37843,-9.68917,-8.18013,-4.16074,81.387
2023-02-16 22:10:38:166,-0.6297,1.38269,-9.66542,-8.17783,-4.15812,81.3883
2023-02-16 22:10:38:176,-0.679318,1.40857,-9.64272,-8.17794,-4.15908,81.3938
2023-02-16 22:10:38:186,-0.718487,1.41355,-9.63957,-8.1815,-4.16102,81.4011
2023-02-16 22:10:38:196,-0.730402,1.42112,-9.63461,-8.18024,-4.1633,81.4065
2023-02-16 22:10:38:206,-0.733677,1.423,-9.64003,-8.1818,-4.16415,81.4135
2023-02-16 22:10:38:216,-0.735959,1.44023,-9.64099,-8.18683,-4.16363,81.4204
2023-02-16 22:10:38:226,-0.733489,1.46287,-9.64737,-8.19181,-4.16105,81.4248
2023-02-16 22:10:38:236,-0.714494,1.46968,-9.62821,-8.19732,-4.15572,81.4295
2023-02-16 22:10:38:246,-0.690311,1.45798,-9.60884,-8.19906,-4.15708,81.4324
2023-02-16 22:10:38:256,-0.694442,1.45319,-9.60561,-8.19887,-4.15612,81.4351
2023-02-16 22:10:38:266,-0.720564,1.43391,-9.60857,-8.19741,-4.15705,81.4389
2023-02-16 22:10:38:276,-0.750709,1.42504,-9.60375,-8.19706,-4.15875,81.445
2023-02-16 22:10:38:286,-0.747914,1.41558,-9.62524,-8.19501,-4.16176,81.4469
2023-02-16 22:10:38:296,-0.740073,1.41658,-9.65146,-8.19427,-4.16251,81.4473
2023-02-16 22:10:38:306,-0.723754,1.42221,-9.67056,-8.19133,-4.16217,81.4472
2023-02-16 22:10:38:316,-0.716455,1.41429,-9.66898,-8.18867,-4.15858,81.444
2023-02-16 22:10:38:326,-0.701596,1.41903,-9.67849,-8.18643,-4.15306,81.4408
2023-02-16 22:10:38:336,-0.682222,1.41984,-9.67821,-8.18608,-4.14845,81.4391
2023-02-16 22:10:38:346,-0.662316,1.4106,-9.69257,-8.18328,-4.146,81.4334
2023-02-16 22:10:38:356,-0.676792,1.40955,-9.69331,-8.17892,-4.1421,81.4284
2023-02-16 22:10:38:366,-0.693944,1.4142,-9.70322,-8.17757,-4.13877,81.4287
2023-02-16 22:10:38:376,-0.683384,1.41209,-9.69033,-8.16916,-4.1376,81.4277
2023-02-16 22:10:38:386,-0.659925,1.41837,-9.67735,-8.16241,-4.12935,81.4241
2023-02-16 22:10:38:396,-0.625573,1.40831,-9.69526,-8.1551,-4.12128,81.4242
2023-02-16 22:10:38:406,-0.624667,1.38687,-9.68892,-8.14735,-4.11758,81.4254
2023-02-16 22:10:38:416,-0.639728,1.38113,-9.65262,-8.13935,-4.12072,81.4279
2023-02-16 22:10:38:426,-0.656416,1.34964,-9.61966,-8.13015,-4.12086,81.4313
2023-02-16 22:10:38:436,-0.678079,1.34582,-9.60424,-8.11945,-4.12002,81.4347
2023-02-16 22:10:38:446,-0.681688,1.35075,-9.5884,-8.11095,-4.11933,81.4363
2023-02-16 22:10:38:456,-0.704855,1.35872,-9.59314,-8.10459,-4.11785,81.4405
2023-02-16 22:10:38:466,-0.716762,1.36758,-9.61823,-8.10374,-4.11982,81.4434
2023-02-16 22:10:38:476,-0.694152,1.38171,-9.62689,-8.10152,-4.12096,81.4453
2023-02-16 22:10:38:486,-0.673105,1.37385,-9.65921,-8.10371,-4.12001,81.449
2023-02-16 22:10:38:496,-0.681314,1.36876,-9.66478,-8.10259,-4.12245,81.4508
2023-02-16 22:10:38:506,-0.706205,1.37542,-9.64232,-8.10059,-4.1266,81.4533
2023-02-16 22:10:38:516,-0.705364,1.35118,-9.64594,-8.09963,-4.13261,81.4566
2023-02-16 22:10:38:526,-0.696509,1.35537,-9.6532,-8.0975,-4.13726,81.4589
2023-02-16 22:10:38:536,-0.698917,1.35683,-9.65131,-8.09462,-4.14505,81.4599
2023-02-16 22:10:38:546,-0.71818,1.36816,-9.63639,-8.09458,-4.15192,81.458
2023-02-16 22:10:38:556,-0.716576,1.35662,-9.65745,-8.09754,-4.16012,81.4572
2023-02-16 22:10:38:566,-0.716833,1.36418,-9.67453,-8.10009,-4.16859,81.4565
2023-02-16 22:10:38:576,-0.716602,1.37345,-9.67888,-8.10059,-4.17479,81.456
2023-02-16 22:10:38:586,-0.70674,1.37083,-9.6857,-8.10152,-4.18034,81.4553
2023-02-16 22:10:38:596,-0.693957,1.35517,-9.70004,-8.10014,-4.18553,81.4512
2023-02-16 22:10:38:606,-0.681014,1.35825,-9.68673,-8.09941,-4.19058,81.4473
2023-02-16 22:10:38:616,-0.689698,1.36688,-9.66826,-8.09701,-4.19565,81.4496
2023-02-16 22:10:38:626,-0.700907,1.35257,-9.66287,-8.09532,-4.19552,81.4492
2023-02-16 22:10:38:636,-0.71123,1.35182,-9.65611,-8.09617,-4.19738,81.452
2023-02-16 22:10:38:646,-0.713719,1.34594,-9.63811,-8.09622,-4.19927,81.457
2023-02-16 22:10:38:656,-0.710981,1.35094,-9.63443,-8.0946,-4.19917,81.4639
2023-02-16 22:10:38:666,-0.718901,1.3464,-9.6207,-8.09689,-4.20213,81.4706
2023-02-16 22:10:38:676,-0.731348,1.35102,-9.60346,-8.0978,-4.20403,81.474
2023-02-16 22:10:38:686,-0.742078,1.35026,-9.58671,-8.10232,-4.20531,81.48
2023-02-16 22:10:38:696,-0.742734,1.35242,-9.59719,-8.1067,-4.20762,81.4835
2023-02-16 22:10:38:706,-0.743275,1.35308,-9.59466,-8.11259,-4.20592,81.4886
2023-02-16 22:10:38:716,-0.746915,1.35448,-9.58466,-8.12075,-4.20722,81.4892
2023-02-16 22:10:38:726,-0.733019,1.36817,-9.58672,-8.13454,-4.21009,81.4879
2023-02-16 22:10:38:736,-0.724209,1.37958,-9.61462,-8.15036,-4.21462,81.4878
2023-02-16 22:10:38:746,-0.718646,1.38975,-9.64808,-8.16723,-4.2176,81.4866
2023-02-16 22:10:38:756,-0.714463,1.41226,-9.65107,-8.18054,-4.2163,81.4844
2023-02-16 22:10:38:766,-0.697516,1.41975,-9.64707,-8.19531,-4.21816,81.4834
2023-02-16 22:10:38:776,-0.696358,1.4005,-9.6482,-8.20769,-4.22237,81.4818
2023-02-16 22:10:38:786,-0.723128,1.39485,-9.6522,-8.22135,-4.2238,81.4842
2023-02-16 22:10:38:796,-0.746793,1.39472,-9.66744,-8.23402,-4.22646,81.4856
2023-02-16 22:10:38:806,-0.747524,1.40754,-9.67919,-8.24142,-4.22701,81.4867
2023-02-16 22:10:38:816,-0.725843,1.42468,-9.70279,-8.24941,-4.22332,81.482
2023-02-16 22:10:38:826,-0.659571,1.41316,-9.72356,-8.25774,-4.22079,81.4768
2023-02-16 22:10:38:836,-0.593075,1.40552,-9.72064,-8.26559,-4.21821,81.4693
2023-02-16 22:10:38:846,-0.598887,1.41081,-9.73115,-8.27899,-4.22154,81.4691
2023-02-16 22:10:38:856,-0.662531,1.43747,-9.72219,-8.2935,-4.23147,81.4683
2023-02-16 22:10:38:866,-0.726514,1.45805,-9.70028,-8.3054,-4.24144,81.4739
2023-02-16 22:10:38:876,-0.750938,1.46307,-9.69275,-8.31371,-4.24792,81.4788
2023-02-16 22:10:38:886,-0.751444,1.47743,-9.66075,-8.32367,-4.25113,81.4804
2023-02-16 22:10:38:896,-0.731096,1.47689,-9.61762,-8.3313,-4.253,81.4824
2023-02-16 22:10:38:906,-0.696409,1.47661,-9.60338,-8.33893,-4.25686,81.4817
2023-02-16 22:10:38:916,-0.692181,1.48425,-9.58065,-8.34346,-4.26229,81.484
2023-02-16 22:10:38:926,-0.703555,1.49374,-9.57612,-8.35193,-4.26797,81.4887
2023-02-16 22:10:38:936,-0.722652,1.49933,-9.57684,-8.36003,-4.27288,81.4919
2023-02-16 22:10:38:946,-0.759144,1.49458,-9.57798,-8.36961,-4.28202,81.4987
2023-02-16 22:10:38:956,-0.769821,1.51984,-9.5974,-8.38006,-4.2904,81.5065
2023-02-16 22:10:38:966,-0.770619,1.51427,-9.63396,-8.39057,-4.29325,81.5149
2023-02-16 22:10:38:976,-0.78213,1.53481,-9.66178,-8.40264,-4.29729,81.5222
2023-02-16 22:10:38:986,-0.788018,1.54139,-9.70217,-8.41079,-4.29707,81.5312
2023-02-16 22:10:38:996,-0.787156,1.54166,-9.73861,-8.41339,-4.2984,81.5365
2023-02-16 22:10:39:6,-0.763888,1.52725,-9.76922,-8.41585,-4.29226,81.5403
2023-02-16 22:10:39:16,-0.745608,1.53454,-9.75979,-8.41638,-4.28885,81.5406
2023-02-16 22:10:39:26,-0.72733,1.53596,-9.73377,-8.41512,-4.28498,81.5422
2023-02-16 22:10:39:36,-0.724788,1.53157,-9.7199,-8.40979,-4.28523,81.5395
2023-02-16 22:10:39:46,-0.736575,1.52241,-9.73361,-8.40385,-4.28444,81.5354
2023-02-16 22:10:39:56,-0.753298,1.52768,-9.71788,-8.39772,-4.28469,81.5358
2023-02-16 22:10:39:66,-0.748772,1.52345,-9.70708,-8.38852,-4.28301,81.5318
2023-02-16 22:10:39:76,-0.700648,1.50947,-9.6817,-8.37104,-4.27982,81.5236
2023-02-16 22:10:39:86,-0.651167,1.49603,-9.69067,-8.35327,-4.28023,81.5158
2023-02-16 22:10:39:96,-0.661641,1.47268,-9.70327,-8.3371,-4.28141,81.5115
2023-02-16 22:10:39:106,-0.700154,1.46542,-9.69682,-8.31833,-4.28826,81.5113
2023-02-16 22:10:39:116,-0.740358,1.43525,-9.68732,-8.29747,-4.2948,81.5095
2023-02-16 22:10:39:126,-0.758777,1.41598,-9.63858,-8.27163,-4.29875,81.5126
2023-02-16 22:10:39:136,-0.782094,1.37768,-9.57209,-8.24766,-4.3039,81.5164
2023-02-16 22:10:39:146,-0.794051,1.3528,-9.55553,-8.22087,-4.29982,81.5243
2023-02-16 22:10:39:156,-0.789795,1.39004,-9.60145,-8.20129,-4.29641,81.5312
2023-02-16 22:10:39:166,-0.789969,1.36487,-9.5592,-8.17971,-4.29046,81.5382
2023-02-16 22:10:39:176,-0.810177,1.31902,-9.55722,-8.16566,-4.28503,81.5471
2023-02-16 22:10:39:186,-0.814942,1.38978,-9.67512,-8.16214,-4.28213,81.5544
2023-02-16 22:10:39:195,-0.838602,1.42821,-9.73285,-8.15831,-4.27588,81.561
2023-02-16 22:10:39:206,-0.847615,1.4078,-9.68493,-8.14934,-4.26956,81.5675
2023-02-16 22:10:39:216,-0.830294,1.36882,-9.64783,-8.1392,-4.2615,81.5669
2023-02-16 22:10:39:226,-0.824753,1.35769,-9.62527,-8.1255,-4.24726,81.5646
2023-02-16 22:10:39:236,-0.834077,1.36519,-9.59737,-8.11338,-4.22803,81.5589
2023-02-16 22:10:39:246,-0.808997,1.38239,-9.58401,-8.10288,-4.21338,81.5537
2023-02-16 22:10:39:256,-0.74691,1.39757,-9.6258,-8.09922,-4.19509,81.5431
2023-02-16 22:10:39:266,-0.695386,1.40672,-9.67758,-8.09835,-4.17779,81.5318
2023-02-16 22:10:39:276,-0.668756,1.41466,-9.69073,-8.09936,-4.1605,81.5227
2023-02-16 22:10:39:286,-0.669888,1.44893,-9.68488,-8.09806,-4.1453,81.5159
2023-02-16 22:10:39:296,-0.688609,1.44863,-9.67138,-8.09505,-4.12869,81.5143
2023-02-16 22:10:39:306,-0.702369,1.40425,-9.65502,-8.08963,-4.11097,81.5143
2023-02-16 22:10:39:316,-0.723503,1.40693,-9.61846,-8.08255,-4.08912,81.5143
2023-02-16 22:10:39:326,-0.716292,1.40023,-9.59455,-8.07291,-4.06188,81.515
2023-02-16 22:10:39:336,-0.66654,1.35536,-9.59323,-8.06331,-4.03425,81.5183
2023-02-16 22:10:39:346,-0.65622,1.36403,-9.58202,-8.0541,-4.00356,81.5231
2023-02-16 22:10:39:356,-0.65559,1.37879,-9.57106,-8.05291,-3.96729,81.5314
2023-02-16 22:10:39:366,-0.632138,1.36051,-9.61317,-8.05374,-3.93202,81.5425
2023-02-16 22:10:39:376,-0.633481,1.41675,-9.63925,-8.05786,-3.9036,81.5519
2023-02-16 22:10:39:386,-0.662561,1.44668,-9.66441,-8.06305,-3.88181,81.5584
2023-02-16 22:10:39:396,-0.67611,1.45106,-9.69863,-8.066,-3.85969,81.563
2023-02-16 22:10:39:406,-0.668608,1.47182,-9.68886,-8.06642,-3.83543,81.5657
2023-02-16 22:10:39:416,-0.646789,1.45057,-9.68118,-8.06,-3.81708,81.5643
2023-02-16 22:10:39:426,-0.665966,1.44737,-9.71043,-8.05777,-3.80011,81.5586
2023-02-16 22:10:39:436,-0.6732,1.4781,-9.71716,-8.05444,-3.78513,81.5474
2023-02-16 22:10:39:446,-0.663605,1.47788,-9.72504,-8.04959,-3.77247,81.5353
2023-02-16 22:10:39:456,-0.624173,1.4321,-9.73853,-8.03931,-3.7593,81.516
2023-02-16 22:10:39:466,-0.603317,1.46327,-9.73031,-8.02745,-3.74775,81.492
2023-02-16 22:10:39:476,-0.618539,1.48696,-9.74626,-8.01523,-3.74355,81.4678
2023-02-16 22:10:39:486,-0.596877,1.45981,-9.7547,-7.99964,-3.73878,81.4429
2023-02-16 22:10:39:496,-0.574149,1.45542,-9.7515,-7.97993,-3.73616,81.4158
2023-02-16 22:10:39:506,-0.568039,1.4242,-9.7571,-7.95727,-3.7367,81.3908
2023-02-16 22:10:39:516,-0.589721,1.39019,-9.74802,-7.93058,-3.73776,81.3641
2023-02-16 22:10:39:526,-0.594818,1.37733,-9.72023,-7.89602,-3.74004,81.3389
2023-02-16 22:10:39:536,-0.558656,1.32626,-9.7124,-7.85605,-3.74054,81.3128
2023-02-16 22:10:39:546,-0.506525,1.2792,-9.67399,-7.81043,-3.73959,81.285
2023-02-16 22:10:39:556,-0.433617,1.23202,-9.64262,-7.76402,-3.74137,81.2633
2023-02-16 22:10:39:566,-0.42566,1.20845,-9.66368,-7.72246,-3.75069,81.2432
2023-02-16 22:10:39:576,-0.49572,1.22068,-9.65376,-7.68913,-3.75848,81.2317
2023-02-16 22:10:39:586,-0.569289,1.22325,-9.64863,-7.65691,-3.77129,81.2281
2023-02-16 22:10:39:596,-0.607137,1.23149,-9.65923,-7.62838,-3.78424,81.2282
2023-02-16 22:10:39:606,-0.602582,1.24429,-9.66339,-7.59822,-3.79239,81.2282
2023-02-16 22:10:39:616,-0.5864,1.2398,-9.64293,-7.57112,-3.80118,81.23
2023-02-16 22:10:39:626,-0.597161,1.22998,-9.62646,-7.54894,-3.80789,81.2378
2023-02-16 22:10:39:636,-0.601744,1.23934,-9.61883,-7.52604,-3.81817,81.2467
2023-02-16 22:10:39:646,-0.607551,1.21592,-9.61962,-7.50251,-3.83136,81.2609
2023-02-16 22:10:39:656,-0.635628,1.20091,-9.61057,-7.47758,-3.84279,81.2772
2023-02-16 22:10:39:666,-0.678322,1.19518,-9.59207,-7.45364,-3.86024,81.2941
2023-02-16 22:10:39:676,-0.716774,1.18065,-9.56166,-7.42789,-3.87384,81.3136
2023-02-16 22:10:39:686,-0.733532,1.16545,-9.5567,-7.404,-3.88669,81.3264
2023-02-16 22:10:39:696,-0.764073,1.17013,-9.56087,-7.38534,-3.89885,81.3418
2023-02-16 22:10:39:705,-0.784868,1.15031,-9.56152,-7.37182,-3.91282,81.3544
2023-02-16 22:10:39:715,-0.765732,1.14247,-9.60251,-7.35984,-3.9234,81.3624
2023-02-16 22:10:39:726,-0.746326,1.14467,-9.64046,-7.34576,-3.93215,81.3677
2023-02-16 22:10:39:736,-0.746029,1.14687,-9.69712,-7.33605,-3.93959,81.3699
2023-02-16 22:10:39:746,-0.74675,1.16107,-9.71772,-7.32984,-3.94526,81.3716
2023-02-16 22:10:39:756,-0.732636,1.16636,-9.70742,-7.32211,-3.95,81.3671
2023-02-16 22:10:39:766,-0.714882,1.16564,-9.68918,-7.31485,-3.95289,81.3604
2023-02-16 22:10:39:776,-0.719587,1.16107,-9.69844,-7.31267,-3.95095,81.3529
2023-02-16 22:10:39:786,-0.737428,1.17026,-9.7112,-7.30834,-3.9488,81.3424
2023-02-16 22:10:39:796,-0.720158,1.18542,-9.70172,-7.30278,-3.94586,81.3281
2023-02-16 22:10:39:806,-0.663531,1.18464,-9.69062,-7.29795,-3.93965,81.3101
2023-02-16 22:10:39:816,-0.620608,1.17224,-9.66885,-7.29404,-3.92763,81.292
2023-02-16 22:10:39:826,-0.596179,1.16126,-9.67051,-7.28896,-3.91784,81.2713
2023-02-16 22:10:39:836,-0.594547,1.16533,-9.663,-7.28495,-3.90968,81.2525
2023-02-16 22:10:39:846,-0.599931,1.1704,-9.659,-7.28848,-3.90294,81.2394
2023-02-16 22:10:39:856,-0.603096,1.18878,-9.65727,-7.28919,-3.89196,81.2259
2023-02-16 22:10:39:866,-0.601625,1.2121,-9.6682,-7.29212,-3.88566,81.2098
2023-02-16 22:10:39:876,-0.592889,1.23361,-9.68601,-7.29499,-3.87752,81.1974
2023-02-16 22:10:39:886,-0.600527,1.24418,-9.68776,-7.30425,-3.87393,81.1866
2023-02-16 22:10:39:896,-0.582868,1.25093,-9.67605,-7.30882,-3.86644,81.1792
2023-02-16 22:10:39:906,-0.559953,1.24972,-9.66776,-7.31156,-3.8558,81.1676
2023-02-16 22:10:39:916,-0.540522,1.24906,-9.6829,-7.31229,-3.84388,81.1575
2023-02-16 22:10:39:926,-0.541635,1.2439,-9.68619,-7.31222,-3.83351,81.1487
2023-02-16 22:10:39:936,-0.558972,1.2491,-9.67597,-7.31103,-3.82773,81.1407
2023-02-16 22:10:39:946,-0.56039,1.27446,-9.68322,-7.31339,-3.82357,81.1354
2023-02-16 22:10:39:956,-0.559798,1.27504,-9.69061,-7.31656,-3.819,81.1344
2023-02-16 22:10:39:966,-0.579919,1.27454,-9.69219,-7.31855,-3.81859,81.1294
2023-02-16 22:10:39:976,-0.592497,1.28297,-9.68958,-7.32065,-3.81746,81.1304
2023-02-16 22:10:39:986,-0.607538,1.30312,-9.69537,-7.32415,-3.81819,81.133
2023-02-16 22:10:39:996,-0.617757,1.30505,-9.72619,-7.32614,-3.81836,81.1322
2023-02-16 22:10:40:6,-0.618736,1.34221,-9.74066,-7.32491,-3.81868,81.1322
2023-02-16 22:10:40:16,-0.612162,1.33525,-9.73826,-7.32003,-3.81904,81.131
2023-02-16 22:10:40:26,-0.611694,1.32339,-9.72821,-7.31456,-3.82065,81.1326
2023-02-16 22:10:40:36,-0.615138,1.30476,-9.73174,-7.30553,-3.82145,81.1294
2023-02-16 22:10:40:46,-0.609374,1.29757,-9.71903,-7.29418,-3.82308,81.1304
2023-02-16 22:10:40:56,-0.614013,1.28275,-9.69601,-7.28398,-3.82534,81.1281
2023-02-16 22:10:40:66,-0.619129,1.27343,-9.67798,-7.27367,-3.83044,81.1283
2023-02-16 22:10:40:76,-0.620955,1.27859,-9.66938,-7.26147,-3.83778,81.1264
2023-02-16 22:10:40:86,-0.628864,1.28509,-9.66781,-7.24801,-3.84509,81.128
2023-02-16 22:10:40:96,-0.64384,1.27702,-9.64375,-7.23664,-3.85415,81.1302
2023-02-16 22:10:40:106,-0.671435,1.27094,-9.63978,-7.22534,-3.8643,81.1306
2023-02-16 22:10:40:116,-0.68206,1.26843,-9.64226,-7.21477,-3.87511,81.1302
2023-02-16 22:10:40:126,-0.676062,1.27605,-9.6521,-7.20709,-3.883,81.1277
2023-02-16 22:10:40:136,-0.680377,1.26705,-9.64528,-7.19875,-3.89249,81.1273
2023-02-16 22:10:40:146,-0.664935,1.26213,-9.64898,-7.18823,-3.90157,81.125
2023-02-16 22:10:40:156,-0.667676,1.26786,-9.65548,-7.18191,-3.91134,81.1256
2023-02-16 22:10:40:166,-0.683329,1.28061,-9.67396,-7.17814,-3.92477,81.1257
2023-02-16 22:10:40:176,-0.68123,1.2832,-9.69266,-7.17573,-3.93535,81.1262
2023-02-16 22:10:40:186,-0.688414,1.27582,-9.70172,-7.17118,-3.94498,81.124
2023-02-16 22:10:40:196,-0.707913,1.26488,-9.70576,-7.16414,-3.95486,81.1253
2023-02-16 22:10:40:206,-0.711652,1.26146,-9.70311,-7.15775,-3.96361,81.1278
2023-02-16 22:10:40:216,-0.69606,1.25177,-9.70193,-7.14955,-3.96969,81.1281
2023-02-16 22:10:40:225,-0.665485,1.24309,-9.68491,-7.14204,-3.9775,81.1295
2023-02-16 22:10:40:235,-0.686209,1.229,-9.66069,-7.13276,-3.98145,81.1327
2023-02-16 22:10:40:246,-0.726414,1.22456,-9.66284,-7.12429,-3.98514,81.1364
2023-02-16 22:10:40:256,-0.706631,1.22648,-9.70623,-7.11508,-3.98534,81.1429
2023-02-16 22:10:40:266,-0.682808,1.22859,-9.73449,-7.10408,-3.98461,81.1465
2023-02-16 22:10:40:276,-0.632966,1.21456,-9.7282,-7.08799,-3.98423,81.1483
2023-02-16 22:10:40:286,-0.575179,1.17751,-9.71061,-7.07064,-3.98046,81.1537
2023-02-16 22:10:40:296,-0.579525,1.16429,-9.70011,-7.05557,-3.98551,81.1609
2023-02-16 22:10:40:306,-0.658815,1.16484,-9.67607,-7.04087,-3.99653,81.1712
2023-02-16 22:10:40:316,-0.739583,1.1694,-9.65221,-7.02862,-4.0063,81.1836
2023-02-16 22:10:40:326,-0.756015,1.15831,-9.64289,-7.0236,-4.01949,81.1974
2023-02-16 22:10:40:336,-0.757444,1.15316,-9.64552,-7.0167,-4.02484,81.2071
2023-02-16 22:10:40:346,-0.754579,1.16306,-9.64098,-7.01433,-4.03129,81.2179
2023-02-16 22:10:40:356,-0.745196,1.1807,-9.65237,-7.01701,-4.03383,81.2248
2023-02-16 22:10:40:366,-0.726451,1.21065,-9.64759,-7.02343,-4.04062,81.2284
2023-02-16 22:10:40:376,-0.705825,1.22819,-9.66048,-7.02805,-4.0453,81.2337
2023-02-16 22:10:40:386,-0.714962,1.23895,-9.66855,-7.03441,-4.04796,81.2374
2023-02-16 22:10:40:396,-0.735422,1.24196,-9.67095,-7.04006,-4.0526,81.2431
2023-02-16 22:10:40:406,-0.755128,1.24945,-9.67581,-7.04527,-4.05512,81.2482
2023-02-16 22:10:40:416,-0.775148,1.27102,-9.70006,-7.04904,-4.057,81.2504
2023-02-16 22:10:40:426,-0.782569,1.28277,-9.71491,-7.04899,-4.0583,81.2514
2023-02-16 22:10:40:436,-0.763089,1.26536,-9.71721,-7.04411,-4.05873,81.2504
2023-02-16 22:10:40:446,-0.747543,1.25556,-9.69923,-7.0362,-4.05587,81.248
2023-02-16 22:10:40:456,-0.734418,1.22453,-9.67996,-7.02719,-4.04975,81.2402
2023-02-16 22:10:40:466,-0.708163,1.20215,-9.68393,-7.01577,-4.0439,81.2375
2023-02-16 22:10:40:476,-0.686883,1.19463,-9.6829,-7.00615,-4.03776,81.232
2023-02-16 22:10:40:486,-0.659877,1.1888,-9.69119,-7.00036,-4.03494,81.2261
2023-02-16 22:10:40:496,-0.640887,1.18712,-9.70193,-6.99408,-4.02805,81.2187
2023-02-16 22:10:40:506,-0.660917,1.20106,-9.73401,-6.99084,-4.02479,81.2148
2023-02-16 22:10:40:516,-0.674939,1.20851,-9.76458,-6.98811,-4.01632,81.2131
2023-02-16 22:10:40:526,-0.655242,1.22755,-9.76017,-6.98155,-4.01261,81.2105
2023-02-16 22:10:40:536,-0.637912,1.23187,-9.76199,-6.97494,-4.01024,81.204
2023-02-16 22:10:40:546,-0.607812,1.19593,-9.74671,-6.96298,-4.00352,81.2004
2023-02-16 22:10:40:556,-0.609512,1.20359,-9.73042,-6.95091,-4.00128,81.1993
2023-02-16 22:10:40:566,-0.651066,1.19716,-9.69976,-6.93491,-4.00033,81.1984
2023-02-16 22:10:40:576,-0.677796,1.18801,-9.67802,-6.91837,-3.9964,81.1983
2023-02-16 22:10:40:586,-0.679852,1.17223,-9.6762,-6.90646,-3.99376,81.2023
2023-02-16 22:10:40:596,-0.674574,1.18689,-9.66757,-6.89383,-3.99275,81.2049
2023-02-16 22:10:40:606,-0.678945,1.18234,-9.68666,-6.88223,-3.99239,81.2107
2023-02-16 22:10:40:616,-0.677032,1.18111,-9.67871,-6.86932,-3.98803,81.2152
2023-02-16 22:10:40:626,-0.68196,1.18585,-9.66676,-6.85631,-3.98481,81.2182
2023-02-16 22:10:40:636,-0.676185,1.19408,-9.65112,-6.84241,-3.9821,81.2194
2023-02-16 22:10:40:646,-0.675416,1.18848,-9.63836,-6.83121,-3.98045,81.2181
2023-02-16 22:10:40:656,-0.665143,1.17225,-9.64455,-6.81633,-3.9781,81.2205
2023-02-16 22:10:40:666,-0.653793,1.16823,-9.64636,-6.80187,-3.97603,81.22
2023-02-16 22:10:40:676,-0.650639,1.16002,-9.65122,-6.78939,-3.97349,81.2151
2023-02-16 22:10:40:686,-0.654519,1.16386,-9.66174,-6.78087,-3.97237,81.2139
2023-02-16 22:10:40:696,-0.643105,1.16394,-9.68345,-6.77468,-3.97578,81.2124
2023-02-16 22:10:40:706,-0.666731,1.14304,-9.69957,-6.76892,-3.98018,81.2116
2023-02-16 22:10:40:716,-0.683963,1.148,-9.72027,-6.76278,-3.98268,81.2119
2023-02-16 22:10:40:726,-0.681303,1.16761,-9.71358,-6.75242,-3.98481,81.2123
2023-02-16 22:10:40:736,-0.673557,1.16039,-9.69415,-6.74503,-3.98651,81.209
2023-02-16 22:10:40:746,-0.674041,1.14143,-9.69916,-6.73772,-3.98413,81.2052
2023-02-16 22:10:40:756,-0.674538,1.14542,-9.69804,-6.7299,-3.9871,81.2036
2023-02-16 22:10:40:766,-0.672987,1.13592,-9.70273,-6.72208,-3.9869,81.1991
2023-02-16 22:10:40:776,-0.664066,1.13189,-9.69656,-6.71594,-3.98587,81.1984
2023-02-16 22:10:40:786,-0.669467,1.14083,-9.70053,-6.70726,-3.98969,81.196
2023-02-16 22:10:40:796,-0.684578,1.14204,-9.6986,-6.69954,-3.98797,81.1964
2023-02-16 22:10:40:806,-0.677681,1.13686,-9.69564,-6.69565,-3.99245,81.1956
2023-02-16 22:10:40:816,-0.683606,1.14439,-9.6849,-6.69165,-3.99001,81.1963
2023-02-16 22:10:40:826,-0.67974,1.1311,-9.66247,-6.67872,-3.98639,81.196
2023-02-16 22:10:40:836,-0.666921,1.11613,-9.65977,-6.66902,-3.98475,81.1979
2023-02-16 22:10:40:846,-0.651619,1.11261,-9.6492,-6.66302,-3.98166,81.1951
2023-02-16 22:10:40:856,-0.653742,1.12824,-9.62978,-6.65647,-3.9829,81.1936
2023-02-16 22:10:40:866,-0.661343,1.12166,-9.62958,-6.65189,-3.98343,81.1908
2023-02-16 22:10:40:876,-0.661718,1.10554,-9.66091,-6.64938,-3.98301,81.1894
2023-02-16 22:10:40:886,-0.66501,1.11651,-9.652,-6.64624,-3.98633,81.1857
2023-02-16 22:10:40:896,-0.659493,1.11245,-9.67046,-6.64988,-3.99097,81.1841
2023-02-16 22:10:40:906,-0.678283,1.12045,-9.68119,-6.6536,-3.99255,81.1822
2023-02-16 22:10:40:916,-0.680788,1.12366,-9.69092,-6.65669,-3.99645,81.1824
2023-02-16 22:10:40:926,-0.692111,1.14012,-9.69672,-6.65815,-3.99584,81.179
2023-02-16 22:10:40:936,-0.682044,1.16426,-9.69654,-6.66001,-3.99447,81.1781
2023-02-16 22:10:40:946,-0.679279,1.17291,-9.72859,-6.66711,-3.99221,81.1747
2023-02-16 22:10:40:956,-0.678529,1.1739,-9.74629,-6.67043,-3.99021,81.1722
2023-02-16 22:10:40:966,-0.661304,1.1857,-9.74589,-6.67399,-3.9865,81.1702
2023-02-16 22:10:40:976,-0.646815,1.19201,-9.74907,-6.67389,-3.98126,81.1677
2023-02-16 22:10:40:986,-0.639377,1.19496,-9.74121,-6.67484,-3.97648,81.1637
2023-02-16 22:10:40:996,-0.630281,1.17205,-9.74906,-6.67192,-3.97268,81.1663
2023-02-16 22:10:41:6,-0.630808,1.16693,-9.73791,-6.6658,-3.97442,81.1653
2023-02-16 22:10:41:16,-0.658927,1.14712,-9.70643,-6.65555,-3.97199,81.1659
2023-02-16 22:10:41:26,-0.699928,1.13155,-9.69546,-6.64563,-3.97184,81.1667
2023-02-16 22:10:41:36,-0.73012,1.13206,-9.7212,-6.634,-3.97115,81.1664
2023-02-16 22:10:41:46,-0.69723,1.13061,-9.7346,-6.62237,-3.96536,81.1642
2023-02-16 22:10:41:56,-0.620611,1.1065,-9.73674,-6.60674,-3.95935,81.1568
2023-02-16 22:10:41:66,-0.556419,1.07178,-9.70996,-6.5918,-3.95617,81.1512
2023-02-16 22:10:41:76,-0.569691,1.06598,-9.68164,-6.57719,-3.95555,81.1442
2023-02-16 22:10:41:86,-0.622962,1.0561,-9.65027,-6.56311,-3.96192,81.1444
2023-02-16 22:10:41:96,-0.673374,1.06023,-9.62201,-6.55726,-3.96976,81.1465
2023-02-16 22:10:41:106,-0.698892,1.07318,-9.62568,-6.55355,-3.97596,81.1416
2023-02-16 22:10:41:116,-0.698492,1.09825,-9.64885,-6.55651,-3.97944,81.1385
2023-02-16 22:10:41:126,-0.707809,1.1206,-9.67159,-6.55806,-3.98629,81.1347
2023-02-16 22:10:41:136,-0.699099,1.13401,-9.67931,-6.55889,-3.99011,81.1301
2023-02-16 22:10:41:146,-0.678898,1.13953,-9.6716,-6.55822,-3.99165,81.1205
2023-02-16 22:10:41:156,-0.665383,1.12148,-9.64332,-6.55722,-3.99322,81.1135
2023-02-16 22:10:41:166,-0.679298,1.10535,-9.62418,-6.55403,-3.99343,81.1051
2023-02-16 22:10:41:176,-0.702708,1.10313,-9.65022,-6.55339,-3.99473,81.1008
2023-02-16 22:10:41:186,-0.689305,1.11609,-9.65465,-6.56316,-3.99161,81.0946
2023-02-16 22:10:41:196,-0.67088,1.08471,-9.66978,-6.56996,-3.99127,81.0861
2023-02-16 22:10:41:206,-0.678799,1.0795,-9.68995,-6.58088,-3.99112,81.0832
2023-02-16 22:10:41:216,-0.688669,1.11072,-9.75884,-6.59986,-3.987,81.0799
2023-02-16 22:10:41:226,-0.711684,1.14939,-9.80416,-6.62182,-3.98269,81.0772
2023-02-16 22:10:41:236,-0.703554,1.20692,-9.82003,-6.64399,-3.97764,81.0756
2023-02-16 22:10:41:246,-0.698604,1.20939,-9.80094,-6.6594,-3.96919,81.0788
2023-02-16 22:10:41:255,-0.683987,1.20909,-9.71652,-6.67219,-3.95744,81.0807
2023-02-16 22:10:41:266,-0.672294,1.19932,-9.6546,-6.68135,-3.9433,81.087
2023-02-16 22:10:41:276,-0.68078,1.19492,-9.64215,-6.69278,-3.932,81.0961
2023-02-16 22:10:41:286,-0.702539,1.1676,-9.61736,-6.7017,-3.91954,81.1039
2023-02-16 22:10:41:296,-0.709965,1.16469,-9.56825,-6.71082,-3.90397,81.1109
2023-02-16 22:10:41:306,-0.704246,1.19157,-9.54434,-6.72121,-3.89074,81.1192
2023-02-16 22:10:41:316,-0.676619,1.21251,-9.56486,-6.73526,-3.88099,81.125
2023-02-16 22:10:41:326,-0.668004,1.21314,-9.62858,-6.75208,-3.87282,81.1268
2023-02-16 22:10:41:336,-0.694305,1.23399,-9.70916,-6.77088,-3.86668,81.1294
2023-02-16 22:10:41:346,-0.713228,1.28364,-9.72576,-6.78307,-3.86401,81.1332
2023-02-16 22:10:41:356,-0.73255,1.29354,-9.75215,-6.79056,-3.86065,81.1328
2023-02-16 22:10:41:366,-0.747499,1.26246,-9.78893,-6.79461,-3.85449,81.1309
2023-02-16 22:10:41:376,-0.756548,1.23514,-9.79567,-6.7887,-3.84431,81.1243
2023-02-16 22:10:41:386,-0.746978,1.23451,-9.78538,-6.77953,-3.83452,81.1131
2023-02-16 22:10:41:396,-0.712845,1.18447,-9.76812,-6.76619,-3.8247,81.097
2023-02-16 22:10:41:406,-0.663003,1.14116,-9.73133,-6.75257,-3.81196,81.0761
2023-02-16 22:10:41:416,-0.622156,1.15813,-9.69654,-6.73864,-3.80063,81.0501
2023-02-16 22:10:41:426,-0.58454,1.14939,-9.70777,-6.72861,-3.79108,81.0297
2023-02-16 22:10:41:436,-0.551914,1.12852,-9.71823,-6.71695,-3.78096,81.0041
2023-02-16 22:10:41:446,-0.54246,1.1665,-9.70134,-6.70659,-3.77915,80.9777
2023-02-16 22:10:41:456,-0.525388,1.16008,-9.69354,-6.70249,-3.77718,80.9551
2023-02-16 22:10:41:466,-0.50342,1.14655,-9.69232,-6.69974,-3.77875,80.9328
2023-02-16 22:10:41:476,-0.519182,1.18237,-9.67262,-6.69643,-3.78345,80.9123
2023-02-16 22:10:41:486,-0.510512,1.18735,-9.69172,-6.69546,-3.78949,80.8999
2023-02-16 22:10:41:496,-0.522822,1.16248,-9.72458,-6.69467,-3.79915,80.8918
2023-02-16 22:10:41:506,-0.568386,1.20525,-9.71694,-6.69397,-3.80895,80.8867
2023-02-16 22:10:41:516,-0.577909,1.19788,-9.7056,-6.69223,-3.81942,80.8893
2023-02-16 22:10:41:526,-0.604981,1.17104,-9.71216,-6.68882,-3.82559,80.893
2023-02-16 22:10:41:536,-0.636542,1.18907,-9.69131,-6.67705,-3.83226,80.9007
2023-02-16 22:10:41:546,-0.644372,1.16943,-9.68967,-6.66335,-3.84091,80.9135
2023-02-16 22:10:41:556,-0.656684,1.13505,-9.6974,-6.64868,-3.84767,80.9225
2023-02-16 22:10:41:566,-0.67308,1.13982,-9.69158,-6.63375,-3.85396,80.939
2023-02-16 22:10:41:576,-0.69882,1.11375,-9.70351,-6.62192,-3.85959,80.9548
2023-02-16 22:10:41:586,-0.719916,1.10025,-9.69608,-6.60983,-3.86096,80.9726
2023-02-16 22:10:41:596,-0.755409,1.10642,-9.66231,-6.59372,-3.86173,80.9826
2023-02-16 22:10:41:606,-0.76003,1.08903,-9.6814,-6.58479,-3.86409,80.9928
2023-02-16 22:10:41:616,-0.77501,1.08465,-9.67782,-6.57453,-3.86167,81.0003
2023-02-16 22:10:41:626,-0.772823,1.1042,-9.65862,-6.56741,-3.86651,81.0053
2023-02-16 22:10:41:636,-0.753829,1.07517,-9.65981,-6.55569,-3.86656,81.0036
2023-02-16 22:10:41:646,-0.71677,1.07502,-9.64071,-6.54722,-3.86758,80.9957
2023-02-16 22:10:41:656,-0.663917,1.08298,-9.62013,-6.53906,-3.86902,80.9855
2023-02-16 22:10:41:666,-0.622959,1.05945,-9.63813,-6.53473,-3.87179,80.975
2023-02-16 22:10:41:676,-0.630109,1.08415,-9.62682,-6.53182,-3.87125,80.9613
2023-02-16 22:10:41:686,-0.667516,1.11349,-9.62495,-6.53266,-3.87267,80.9521
2023-02-16 22:10:41:696,-0.676114,1.11176,-9.68069,-6.53611,-3.87334,80.9417
2023-02-16 22:10:41:706,-0.680573,1.1143,-9.70435,-6.5419,-3.87106,80.9318
2023-02-16 22:10:41:716,-0.675475,1.14159,-9.71087,-6.54424,-3.86766,80.9223
2023-02-16 22:10:41:726,-0.650326,1.14585,-9.7428,-6.54342,-3.85765,80.9119
2023-02-16 22:10:41:736,-0.612567,1.14115,-9.74131,-6.5395,-3.8461,80.9007
2023-02-16 22:10:41:746,-0.555063,1.13932,-9.73232,-6.53771,-3.83247,80.8876
2023-02-16 22:10:41:755,-0.528984,1.13668,-9.73202,-6.53273,-3.82283,80.8772
2023-02-16 22:10:41:766,-0.523393,1.14319,-9.72107,-6.5297,-3.81729,80.871
2023-02-16 22:10:41:776,-0.557139,1.14139,-9.72842,-6.53057,-3.81152,80.8688
2023-02-16 22:10:41:786,-0.588457,1.14149,-9.75514,-6.52659,-3.81341,80.8697
2023-02-16 22:10:41:796,-0.610118,1.15749,-9.79964,-6.52429,-3.81585,80.8715
2023-02-16 22:10:41:806,-0.608004,1.15808,-9.818,-6.5185,-3.81802,80.8752
2023-02-16 22:10:41:816,-0.557677,1.12824,-9.79112,-6.50938,-3.82149,80.8788
2023-02-16 22:10:41:826,-0.549198,1.13385,-9.77135,-6.4991,-3.82581,80.8876
2023-02-16 22:10:41:836,-0.610043,1.1346,-9.74329,-6.48832,-3.83453,80.9006
2023-02-16 22:10:41:846,-0.686899,1.13414,-9.69542,-6.47508,-3.84381,80.9153
2023-02-16 22:10:41:856,-0.74391,1.13537,-9.64791,-6.46167,-3.85253,80.9323
2023-02-16 22:10:41:866,-0.760722,1.13784,-9.65838,-6.45419,-3.85854,80.9461
2023-02-16 22:10:41:876,-0.765176,1.15386,-9.65956,-6.44639,-3.86224,80.9575
2023-02-16 22:10:41:886,-0.76788,1.18165,-9.65382,-6.44208,-3.86389,80.9667
2023-02-16 22:10:41:896,-0.752287,1.20414,-9.67917,-6.44067,-3.86392,80.9754
2023-02-16 22:10:41:906,-0.740088,1.20234,-9.70607,-6.43366,-3.85782,80.9768
2023-02-16 22:10:41:916,-0.717329,1.20339,-9.69512,-6.41964,-3.853,80.9773
2023-02-16 22:10:41:926,-0.700809,1.1857,-9.66168,-6.40085,-3.84721,80.9725
2023-02-16 22:10:41:936,-0.675333,1.15941,-9.63131,-6.38107,-3.83949,80.9676
2023-02-16 22:10:41:946,-0.65147,1.10559,-9.62584,-6.35719,-3.83459,80.9625
2023-02-16 22:10:41:956,-0.631315,1.07372,-9.60228,-6.33098,-3.82042,80.9533
2023-02-16 22:10:41:966,-0.593629,1.03908,-9.60404,-6.30783,-3.80522,80.945
2023-02-16 22:10:41:976,-0.54685,1.03197,-9.62527,-6.29097,-3.78565,80.9371
2023-02-16 22:10:41:986,-0.505187,1.03511,-9.65542,-6.27799,-3.76602,80.9357
2023-02-16 22:10:41:996,-0.492043,1.03474,-9.68323,-6.26969,-3.74802,80.933
2023-02-16 22:10:42:5,-0.496319,1.04609,-9.70921,-6.2658,-3.73063,80.9349
2023-02-16 22:10:42:16,-0.48482,1.05222,-9.73607,-6.26555,-3.71682,80.9426
2023-02-16 22:10:42:26,-0.495422,1.06012,-9.73949,-6.26722,-3.70296,80.9525
2023-02-16 22:10:42:36,-0.527287,1.07163,-9.75268,-6.26573,-3.69198,80.964
2023-02-16 22:10:42:46,-0.550903,1.07931,-9.74314,-6.26177,-3.68597,80.976
2023-02-16 22:10:42:56,-0.548086,1.07303,-9.73705,-6.26079,-3.67801,80.987
2023-02-16 22:10:42:66,-0.52792,1.07084,-9.73043,-6.26127,-3.67597,80.9935
2023-02-16 22:10:42:76,-0.508776,1.06319,-9.71485,-6.26236,-3.67588,81.0017
2023-02-16 22:10:42:86,-0.524253,1.06816,-9.70432,-6.26072,-3.67964,81.0096
2023-02-16 22:10:42:96,-0.550216,1.08752,-9.70796,-6.26475,-3.69465,81.0202
2023-02-16 22:10:42:106,-0.583219,1.09547,-9.70458,-6.26868,-3.70622,81.033
2023-02-16 22:10:42:116,-0.605338,1.08925,-9.70967,-6.27307,-3.72513,81.0417
2023-02-16 22:10:42:126,-0.622817,1.09606,-9.73022,-6.2789,-3.74119,81.055
2023-02-16 22:10:42:136,-0.638592,1.11226,-9.729,-6.28283,-3.75907,81.0692
2023-02-16 22:10:42:146,-0.654028,1.125,-9.72809,-6.28174,-3.7735,81.0816
2023-02-16 22:10:42:156,-0.666698,1.09905,-9.74536,-6.27963,-3.7849,81.0944
2023-02-16 22:10:42:166,-0.67298,1.09581,-9.73854,-6.27639,-3.7995,81.1086
2023-02-16 22:10:42:176,-0.680675,1.09899,-9.72103,-6.26603,-3.81058,81.1237
2023-02-16 22:10:42:186,-0.697566,1.07704,-9.71799,-6.25195,-3.82064,81.1385
2023-02-16 22:10:42:196,-0.711492,1.07598,-9.69779,-6.24048,-3.83106,81.1499
2023-02-16 22:10:42:206,-0.709555,1.05613,-9.70371,-6.23222,-3.83612,81.1613
2023-02-16 22:10:42:216,-0.708084,1.036,-9.69494,-6.22044,-3.8391,81.1699
2023-02-16 22:10:42:226,-0.726175,1.03343,-9.67461,-6.21167,-3.84353,81.1776
2023-02-16 22:10:42:236,-0.729787,1.02714,-9.66878,-6.19977,-3.84854,81.1866
2023-02-16 22:10:42:246,-0.712379,1.02032,-9.66941,-6.18816,-3.85552,81.1934
2023-02-16 22:10:42:255,-0.701653,1.01576,-9.67965,-6.18013,-3.8578,81.1927
2023-02-16 22:10:42:265,-0.700858,1.00106,-9.67244,-6.17061,-3.85818,81.1931
2023-02-16 22:10:42:276,-0.685657,0.995267,-9.666,-6.16178,-3.85728,81.1912
2023-02-16 22:10:42:285,-0.673896,0.986741,-9.67095,-6.15763,-3.85626,81.19
2023-02-16 22:10:42:295,-0.660238,0.992871,-9.65659,-6.15801,-3.85955,81.1847
2023-02-16 22:10:42:306,-0.645027,0.983123,-9.67399,-6.15744,-3.85796,81.1778
2023-02-16 22:10:42:316,-0.651113,1.00347,-9.67557,-6.1608,-3.8602,81.172
2023-02-16 22:10:42:326,-0.650801,1.01459,-9.67758,-6.16358,-3.86304,81.1678
2023-02-16 22:10:42:336,-0.654431,1.01967,-9.67472,-6.16723,-3.86362,81.1654
2023-02-16 22:10:42:346,-0.661701,1.01551,-9.67228,-6.1745,-3.86676,81.1642
2023-02-16 22:10:42:356,-0.671552,1.0304,-9.66494,-6.1847,-3.86784,81.1634
2023-02-16 22:10:42:366,-0.672012,1.02654,-9.66549,-6.19401,-3.86672,81.1597
2023-02-16 22:10:42:376,-0.675474,1.03001,-9.66288,-6.20462,-3.86828,81.1562
2023-02-16 22:10:42:386,-0.659199,1.02375,-9.67494,-6.21723,-3.86829,81.1507
2023-02-16 22:10:42:396,-0.635685,1.05437,-9.67736,-6.2289,-3.86537,81.1473
2023-02-16 22:10:42:406,-0.653706,1.05596,-9.69918,-6.24549,-3.86527,81.1433
2023-02-16 22:10:42:416,-0.66217,1.08248,-9.71148,-6.26142,-3.86706,81.1435
2023-02-16 22:10:42:426,-0.673634,1.1159,-9.72192,-6.27933,-3.87027,81.137
2023-02-16 22:10:42:435,-0.686278,1.12829,-9.73653,-6.2976,-3.87583,81.1357
2023-02-16 22:10:42:446,-0.702614,1.12545,-9.73927,-6.31012,-3.8786,81.1305
2023-02-16 22:10:42:456,-0.705943,1.12252,-9.71374,-6.32374,-3.88067,81.1253
2023-02-16 22:10:42:466,-0.712188,1.13651,-9.6872,-6.33739,-3.88243,81.1217
2023-02-16 22:10:42:476,-0.709015,1.12404,-9.70333,-6.35568,-3.88833,81.1187
2023-02-16 22:10:42:486,-0.697982,1.13495,-9.71396,-6.37191,-3.88921,81.1168
2023-02-16 22:10:42:496,-0.684912,1.1262,-9.71658,-6.39033,-3.89007,81.1101
2023-02-16 22:10:42:506,-0.655977,1.1249,-9.7202,-6.40199,-3.88575,81.1047
2023-02-16 22:10:42:516,-0.644846,1.13712,-9.71624,-6.41384,-3.88357,81.0997
2023-02-16 22:10:42:526,-0.627332,1.15187,-9.72785,-6.42424,-3.88451,81.0969
2023-02-16 22:10:42:536,-0.630526,1.15328,-9.72125,-6.4392,-3.88197,81.0971
2023-02-16 22:10:42:546,-0.663888,1.17498,-9.72304,-6.45112,-3.87728,81.0989
2023-02-16 22:10:42:556,-0.705236,1.18866,-9.75644,-6.45987,-3.87562,81.1036
2023-02-16 22:10:42:566,-0.703537,1.18487,-9.75798,-6.46314,-3.8721,81.1061
2023-02-16 22:10:42:576,-0.678817,1.16137,-9.73069,-6.45918,-3.86098,81.1115
2023-02-16 22:10:42:586,-0.613237,1.10828,-9.70506,-6.45137,-3.85158,81.1153
2023-02-16 22:10:42:596,-0.563763,1.08428,-9.66999,-6.44556,-3.84279,81.1138
2023-02-16 22:10:42:606,-0.584183,1.07324,-9.65576,-6.44181,-3.84168,81.1117
2023-02-16 22:10:42:616,-0.649775,1.08123,-9.66607,-6.44211,-3.84531,81.1126
2023-02-16 22:10:42:626,-0.696513,1.09902,-9.67387,-6.4432,-3.85201,81.1107
