Timestamp,Acceleration_x,Acceleration_y,Acceleration_z,roll,pitch,yaw
2023-03-09 23:21:28:646,-0.683133,1.30944,-9.67162,-7.41998,-4.04748,-172.383
2023-03-09 23:21:28:654,-0.689564,1.29112,-9.67617,-7.41917,-4.04877,-172.382
2023-03-09 23:21:28:664,-0.688365,1.27353,-9.67017,-7.4184,-4.04865,-172.382
2023-03-09 23:21:28:675,-0.677252,1.27871,-9.6747,-7.41644,-4.04925,-172.382
2023-03-09 23:21:28:685,-0.683088,1.27655,-9.68445,-7.41482,-4.05095,-172.384
2023-03-09 23:21:28:695,-0.69446,1.277,-9.67848,-7.41664,-4.04784,-172.386
2023-03-09 23:21:28:705,-0.696206,1.2984,-9.67866,-7.41828,-4.04805,-172.386
2023-03-09 23:21:28:715,-0.698458,1.30283,-9.67476,-7.41904,-4.04682,-172.383
2023-03-09 23:21:28:725,-0.687445,1.28573,-9.67974,-7.41657,-4.04687,-172.383
2023-03-09 23:21:28:735,-0.684327,1.28151,-9.67456,-7.41429,-4.04515,-172.382
2023-03-09 23:21:28:745,-0.675616,1.27921,-9.68389,-7.41506,-4.04377,-172.382
2023-03-09 23:21:28:755,-0.674056,1.27754,-9.69234,-7.416,-4.04232,-172.382
2023-03-09 23:21:28:764,-0.685637,1.29149,-9.68011,-7.41704,-4.04636,-172.38
2023-03-09 23:21:28:774,-0.685052,1.29862,-9.67139,-7.41842,-4.0459,-172.379
2023-03-09 23:21:28:784,-0.681108,1.29386,-9.67489,-7.41825,-4.03882,-172.379
2023-03-09 23:21:28:795,-0.680121,1.27703,-9.67539,-7.41858,-4.04012,-172.381
2023-03-09 23:21:28:805,-0.678966,1.2789,-9.68085,-7.41896,-4.03921,-172.384
2023-03-09 23:21:28:815,-0.678636,1.28851,-9.68164,-7.41958,-4.03725,-172.386
2023-03-09 23:21:28:824,-0.672312,1.29107,-9.67311,-7.41877,-4.0385,-172.384
2023-03-09 23:21:28:835,-0.676677,1.28314,-9.67229,-7.41939,-4.0395,-172.383
2023-03-09 23:21:28:845,-0.683835,1.28597,-9.66915,-7.41763,-4.03973,-172.383
2023-03-09 23:21:28:855,-0.685575,1.27632,-9.67306,-7.41425,-4.03818,-172.382
2023-03-09 23:21:28:865,-0.689645,1.27811,-9.67903,-7.41597,-4.03621,-172.381
2023-03-09 23:21:28:875,-0.676838,1.28687,-9.66792,-7.41901,-4.03684,-172.378
2023-03-09 23:21:28:885,-0.669004,1.28737,-9.67499,-7.41881,-4.04,-172.379
2023-03-09 23:21:28:895,-0.678255,1.29286,-9.66965,-7.41812,-4.04337,-172.377
2023-03-09 23:21:28:905,-0.679371,1.29278,-9.66907,-7.41634,-4.04298,-172.377
2023-03-09 23:21:28:915,-0.682876,1.30047,-9.68027,-7.41755,-4.03994,-172.376
2023-03-09 23:21:28:925,-0.69178,1.30139,-9.67539,-7.41648,-4.03942,-172.376
2023-03-09 23:21:28:935,-0.695952,1.3085,-9.66889,-7.41856,-4.03918,-172.376
2023-03-09 23:21:28:945,-0.686692,1.30992,-9.67597,-7.41802,-4.04003,-172.376
2023-03-09 23:21:28:955,-0.682754,1.28862,-9.67377,-7.41839,-4.03922,-172.377
2023-03-09 23:21:28:965,-0.678425,1.27046,-9.66829,-7.41895,-4.03941,-172.378
2023-03-09 23:21:28:975,-0.683452,1.27236,-9.6723,-7.42058,-4.04194,-172.378
2023-03-09 23:21:28:985,-0.689729,1.26451,-9.68015,-7.4178,-4.04252,-172.381
2023-03-09 23:21:28:995,-0.699456,1.27815,-9.66737,-7.41579,-4.04491,-172.381
2023-03-09 23:21:29:5,-0.700102,1.28517,-9.67235,-7.41619,-4.04505,-172.381
2023-03-09 23:21:29:15,-0.687105,1.29046,-9.67308,-7.41772,-4.0461,-172.382
2023-03-09 23:21:29:25,-0.67311,1.30293,-9.66899,-7.41859,-4.04502,-172.383
2023-03-09 23:21:29:35,-0.665251,1.30105,-9.66289,-7.42035,-4.04635,-172.384
2023-03-09 23:21:29:45,-0.677314,1.30185,-9.67372,-7.41665,-4.04657,-172.384
2023-03-09 23:21:29:55,-0.68049,1.29164,-9.676,-7.41678,-4.04826,-172.382
2023-03-09 23:21:29:65,-0.683208,1.28343,-9.6808,-7.41859,-4.04878,-172.382
2023-03-09 23:21:29:75,-0.702556,1.28321,-9.67702,-7.42085,-4.05027,-172.381
2023-03-09 23:21:29:85,-0.702845,1.28703,-9.66941,-7.42187,-4.05169,-172.38
2023-03-09 23:21:29:95,-0.694596,1.29935,-9.66388,-7.42429,-4.05259,-172.379
2023-03-09 23:21:29:105,-0.670806,1.3008,-9.66372,-7.42302,-4.04916,-172.376
2023-03-09 23:21:29:115,-0.680906,1.28292,-9.67448,-7.425,-4.05154,-172.373
2023-03-09 23:21:29:125,-0.671932,1.2699,-9.67897,-7.42636,-4.05083,-172.376
2023-03-09 23:21:29:135,-0.685594,1.27136,-9.66562,-7.42684,-4.05245,-172.377
2023-03-09 23:21:29:145,-0.696867,1.28634,-9.67742,-7.42729,-4.05283,-172.379
2023-03-09 23:21:29:155,-0.68801,1.28739,-9.6858,-7.4302,-4.0529,-172.382
2023-03-09 23:21:29:165,-0.688483,1.28911,-9.67176,-7.42886,-4.05494,-172.385
2023-03-09 23:21:29:175,-0.692458,1.29391,-9.67255,-7.4296,-4.05415,-172.384
2023-03-09 23:21:29:185,-0.679817,1.28426,-9.66752,-7.43108,-4.05554,-172.383
2023-03-09 23:21:29:195,-0.683391,1.28768,-9.67002,-7.42885,-4.05573,-172.381
2023-03-09 23:21:29:205,-0.678615,1.27884,-9.69461,-7.42389,-4.05456,-172.383
2023-03-09 23:21:29:215,-0.684829,1.29818,-9.68109,-7.42249,-4.0541,-172.385
2023-03-09 23:21:29:225,-0.691433,1.30785,-9.67385,-7.42063,-4.0553,-172.385
2023-03-09 23:21:29:234,-0.707205,1.30621,-9.67708,-7.4257,-4.05546,-172.384
2023-03-09 23:21:29:244,-0.70365,1.29615,-9.67252,-7.42361,-4.05385,-172.385
2023-03-09 23:21:29:254,-0.688419,1.28619,-9.66549,-7.42099,-4.05187,-172.389
2023-03-09 23:21:29:264,-0.677984,1.28642,-9.66771,-7.42173,-4.05488,-172.389
2023-03-09 23:21:29:274,-0.673091,1.28003,-9.67553,-7.42019,-4.05343,-172.387
2023-03-09 23:21:29:284,-0.675094,1.26917,-9.68414,-7.41883,-4.05196,-172.386
2023-03-09 23:21:29:294,-0.661074,1.2609,-9.67629,-7.42072,-4.0555,-172.387
2023-03-09 23:21:29:304,-0.670428,1.28322,-9.66048,-7.42072,-4.05453,-172.388
2023-03-09 23:21:29:314,-0.679642,1.29826,-9.67547,-7.42439,-4.0531,-172.388
2023-03-09 23:21:29:324,-0.685353,1.29737,-9.67621,-7.42387,-4.05354,-172.387
2023-03-09 23:21:29:335,-0.6859,1.27455,-9.67243,-7.4234,-4.05407,-172.389
2023-03-09 23:21:29:345,-0.685038,1.26767,-9.68036,-7.42388,-4.0535,-172.392
2023-03-09 23:21:29:355,-0.68483,1.29071,-9.67739,-7.42468,-4.05592,-172.391
2023-03-09 23:21:29:365,-0.699055,1.30354,-9.67585,-7.42688,-4.05419,-172.39
2023-03-09 23:21:29:374,-0.685984,1.29375,-9.67788,-7.42693,-4.05566,-172.393
2023-03-09 23:21:29:385,-0.690723,1.28859,-9.6705,-7.42778,-4.05488,-172.393
2023-03-09 23:21:29:394,-0.692711,1.30433,-9.67632,-7.42853,-4.05313,-172.392
2023-03-09 23:21:29:405,-0.693627,1.31834,-9.68011,-7.42957,-4.05278,-172.391
2023-03-09 23:21:29:414,-0.684873,1.2922,-9.67034,-7.4313,-4.0526,-172.391
2023-03-09 23:21:29:424,-0.676676,1.29034,-9.66205,-7.42934,-4.05037,-172.39
2023-03-09 23:21:29:435,-0.668671,1.28304,-9.67289,-7.42855,-4.05023,-172.39
2023-03-09 23:21:29:444,-0.6893,1.30444,-9.68277,-7.42744,-4.04764,-172.388
2023-03-09 23:21:29:455,-0.68859,1.31114,-9.66756,-7.42616,-4.04924,-172.388
2023-03-09 23:21:29:465,-0.68133,1.28792,-9.67416,-7.42407,-4.04956,-172.387
2023-03-09 23:21:29:475,-0.673221,1.27945,-9.68208,-7.42383,-4.04798,-172.391
2023-03-09 23:21:29:485,-0.681348,1.29742,-9.67876,-7.42583,-4.05174,-172.392
2023-03-09 23:21:29:495,-0.687517,1.29237,-9.67989,-7.42678,-4.05246,-172.392
2023-03-09 23:21:29:505,-0.709986,1.2816,-9.67108,-7.42419,-4.05732,-172.395
2023-03-09 23:21:29:514,-0.685651,1.27318,-9.66155,-7.42137,-4.05907,-172.395
2023-03-09 23:21:29:525,-0.625102,1.2715,-9.68571,-7.41913,-4.05859,-172.398
2023-03-09 23:21:29:535,-0.646829,1.27931,-9.68065,-7.42146,-4.05735,-172.395
2023-03-09 23:21:29:545,-0.699771,1.28079,-9.67207,-7.42647,-4.06076,-172.394
2023-03-09 23:21:29:555,-0.7185,1.2908,-9.67266,-7.42438,-4.0611,-172.393
2023-03-09 23:21:29:565,-0.696055,1.30453,-9.67077,-7.42634,-4.0634,-172.393
2023-03-09 23:21:29:575,-0.691314,1.32906,-9.66145,-7.42851,-4.06397,-172.395
2023-03-09 23:21:29:585,-0.671588,1.32554,-9.68371,-7.42666,-4.06225,-172.393
2023-03-09 23:21:29:595,-0.668354,1.29571,-9.67418,-7.42517,-4.06164,-172.393
2023-03-09 23:21:29:605,-0.66342,1.25128,-9.67531,-7.42487,-4.06156,-172.393
2023-03-09 23:21:29:615,-0.682989,1.23753,-9.67974,-7.42832,-4.06179,-172.393
2023-03-09 23:21:29:625,-0.702774,1.25668,-9.67403,-7.42974,-4.06167,-172.39
2023-03-09 23:21:29:635,-0.708084,1.30113,-9.65859,-7.43177,-4.06208,-172.388
2023-03-09 23:21:29:645,-0.688677,1.33206,-9.67324,-7.43543,-4.05854,-172.386
2023-03-09 23:21:29:655,-0.668268,1.32753,-9.67911,-7.43869,-4.05643,-172.385
2023-03-09 23:21:29:665,-0.63562,1.28623,-9.68208,-7.43642,-4.05827,-172.388
2023-03-09 23:21:29:675,-0.634726,1.24793,-9.68011,-7.43194,-4.05811,-172.389
2023-03-09 23:21:29:685,-0.662082,1.24024,-9.67702,-7.42656,-4.05649,-172.386
2023-03-09 23:21:29:695,-0.711419,1.27319,-9.66539,-7.4271,-4.06163,-172.386
2023-03-09 23:21:29:705,-0.732973,1.3215,-9.65771,-7.4303,-4.06427,-172.384
2023-03-09 23:21:29:715,-0.706457,1.3431,-9.6645,-7.43904,-4.06508,-172.382
2023-03-09 23:21:29:725,-0.678291,1.32909,-9.68485,-7.44164,-4.0659,-172.382
2023-03-09 23:21:29:735,-0.667082,1.29355,-9.6787,-7.43848,-4.06498,-172.384
2023-03-09 23:21:29:745,-0.662479,1.24702,-9.67154,-7.43294,-4.06426,-172.386
2023-03-09 23:21:29:755,-0.669878,1.23435,-9.67204,-7.43066,-4.06606,-172.387
2023-03-09 23:21:29:764,-0.699403,1.27306,-9.66187,-7.43099,-4.06653,-172.385
2023-03-09 23:21:29:774,-0.714721,1.31221,-9.67773,-7.43393,-4.06588,-172.384
2023-03-09 23:21:29:784,-0.702439,1.3272,-9.67899,-7.43489,-4.06751,-172.383
2023-03-09 23:21:29:794,-0.686846,1.31372,-9.68079,-7.43201,-4.06542,-172.384
2023-03-09 23:21:29:805,-0.685835,1.28319,-9.66782,-7.42716,-4.06726,-172.387
2023-03-09 23:21:29:814,-0.669516,1.26295,-9.67422,-7.42674,-4.06913,-172.387
2023-03-09 23:21:29:824,-0.670318,1.26544,-9.68381,-7.42519,-4.071,-172.389
2023-03-09 23:21:29:834,-0.668984,1.2943,-9.67398,-7.4249,-4.06936,-172.39
2023-03-09 23:21:29:844,-0.682106,1.31703,-9.66787,-7.42752,-4.06491,-172.393
2023-03-09 23:21:29:854,-0.697833,1.31746,-9.67339,-7.42688,-4.06631,-172.391
2023-03-09 23:21:29:864,-0.701431,1.30893,-9.67785,-7.42651,-4.06355,-172.388
2023-03-09 23:21:29:874,-0.688408,1.27093,-9.67837,-7.42351,-4.06351,-172.387
2023-03-09 23:21:29:885,-0.682608,1.25795,-9.68761,-7.41952,-4.06219,-172.387
2023-03-09 23:21:29:895,-0.689969,1.26122,-9.6796,-7.41917,-4.06012,-172.387
2023-03-09 23:21:29:905,-0.676782,1.27445,-9.67972,-7.41992,-4.05953,-172.386
2023-03-09 23:21:29:914,-0.676286,1.29464,-9.67204,-7.42063,-4.06004,-172.387
2023-03-09 23:21:29:925,-0.672978,1.30344,-9.67366,-7.42197,-4.06037,-172.389
2023-03-09 23:21:29:935,-0.676537,1.30325,-9.67711,-7.42175,-4.06289,-172.387
2023-03-09 23:21:29:944,-0.689662,1.29356,-9.67578,-7.42149,-4.06457,-172.386
2023-03-09 23:21:29:954,-0.684029,1.27896,-9.67707,-7.42064,-4.06513,-172.387
2023-03-09 23:21:29:964,-0.687346,1.27406,-9.67352,-7.4187,-4.06395,-172.389
2023-03-09 23:21:29:975,-0.688461,1.28625,-9.67254,-7.41709,-4.06129,-172.39
2023-03-09 23:21:29:985,-0.691008,1.29281,-9.67368,-7.41567,-4.06423,-172.391
2023-03-09 23:21:29:995,-0.67926,1.30275,-9.67483,-7.41716,-4.06579,-172.387
2023-03-09 23:21:30:5,-0.681897,1.31026,-9.66697,-7.41446,-4.06713,-172.387
2023-03-09 23:21:30:15,-0.681109,1.30001,-9.65557,-7.41468,-4.06652,-172.388
2023-03-09 23:21:30:25,-0.684332,1.2833,-9.65943,-7.41554,-4.06579,-172.392
2023-03-09 23:21:30:35,-0.684061,1.27429,-9.67391,-7.41606,-4.06715,-172.394
2023-03-09 23:21:30:45,-0.67644,1.27662,-9.67505,-7.41617,-4.06779,-172.391
2023-03-09 23:21:30:55,-0.685101,1.28866,-9.67243,-7.41967,-4.06956,-172.389
2023-03-09 23:21:30:65,-0.691688,1.29616,-9.67621,-7.41823,-4.06896,-172.388
2023-03-09 23:21:30:74,-0.697457,1.28957,-9.66776,-7.4172,-4.06915,-172.388
2023-03-09 23:21:30:85,-0.681907,1.2754,-9.67605,-7.41755,-4.07194,-172.389
2023-03-09 23:21:30:95,-0.671493,1.29618,-9.6752,-7.41806,-4.0698,-172.388
2023-03-09 23:21:30:105,-0.677976,1.29992,-9.67832,-7.4198,-4.06605,-172.389
2023-03-09 23:21:30:115,-0.667503,1.29567,-9.66876,-7.42029,-4.06494,-172.387
2023-03-09 23:21:30:125,-0.678294,1.29258,-9.66229,-7.41782,-4.06479,-172.387
2023-03-09 23:21:30:135,-0.689178,1.28989,-9.67856,-7.41651,-4.06506,-172.388
2023-03-09 23:21:30:145,-0.695857,1.28278,-9.68535,-7.41277,-4.06287,-172.387
2023-03-09 23:21:30:155,-0.692745,1.27856,-9.68107,-7.41044,-4.06113,-172.389
2023-03-09 23:21:30:164,-0.681878,1.29311,-9.66738,-7.41156,-4.05806,-172.389
2023-03-09 23:21:30:174,-0.684497,1.2912,-9.66498,-7.41076,-4.05764,-172.388
2023-03-09 23:21:30:184,-0.679043,1.29797,-9.66085,-7.40887,-4.05697,-172.39
2023-03-09 23:21:30:195,-0.660241,1.29731,-9.67436,-7.40658,-4.05541,-172.389
2023-03-09 23:21:30:205,-0.681927,1.29419,-9.67313,-7.40368,-4.05154,-172.389
2023-03-09 23:21:30:215,-0.696068,1.27757,-9.67485,-7.40579,-4.05047,-172.388
2023-03-09 23:21:30:225,-0.698389,1.28919,-9.6744,-7.4061,-4.05241,-172.385
2023-03-09 23:21:30:235,-0.684518,1.2965,-9.67361,-7.40697,-4.05211,-172.384
2023-03-09 23:21:30:245,-0.678061,1.29758,-9.67003,-7.4077,-4.04715,-172.384
2023-03-09 23:21:30:255,-0.679131,1.29351,-9.67665,-7.40732,-4.0487,-172.383
2023-03-09 23:21:30:264,-0.678262,1.29536,-9.6774,-7.40695,-4.04654,-172.386
2023-03-09 23:21:30:274,-0.684023,1.29168,-9.6757,-7.40614,-4.04772,-172.385
2023-03-09 23:21:30:285,-0.688788,1.28819,-9.67052,-7.40718,-4.04775,-172.387
2023-03-09 23:21:30:295,-0.68786,1.28484,-9.6792,-7.40532,-4.0454,-172.387
2023-03-09 23:21:30:304,-0.692269,1.29328,-9.67043,-7.40728,-4.04564,-172.388
2023-03-09 23:21:30:315,-0.686786,1.29757,-9.66453,-7.40937,-4.04629,-172.388
2023-03-09 23:21:30:325,-0.695164,1.29708,-9.66614,-7.40889,-4.04696,-172.386
2023-03-09 23:21:30:335,-0.687065,1.27648,-9.68714,-7.41157,-4.04823,-172.386
2023-03-09 23:21:30:344,-0.679849,1.27509,-9.66944,-7.40953,-4.04968,-172.383
2023-03-09 23:21:30:355,-0.688507,1.28303,-9.66989,-7.40789,-4.04777,-172.382
2023-03-09 23:21:30:365,-0.686555,1.2874,-9.68534,-7.41014,-4.04842,-172.382
2023-03-09 23:21:30:375,-0.674896,1.29362,-9.67998,-7.41175,-4.0495,-172.381
2023-03-09 23:21:30:385,-0.674774,1.29125,-9.67566,-7.40991,-4.0505,-172.379
2023-03-09 23:21:30:395,-0.686371,1.28057,-9.68662,-7.4103,-4.05104,-172.379
2023-03-09 23:21:30:404,-0.680718,1.28407,-9.67995,-7.41029,-4.05252,-172.378
2023-03-09 23:21:30:414,-0.677762,1.28616,-9.66977,-7.40857,-4.05409,-172.378
2023-03-09 23:21:30:424,-0.673605,1.28032,-9.67846,-7.40656,-4.05334,-172.376
2023-03-09 23:21:30:434,-0.669909,1.28596,-9.6748,-7.40594,-4.0546,-172.377
2023-03-09 23:21:30:444,-0.687225,1.28633,-9.6773,-7.40412,-4.05668,-172.376
2023-03-09 23:21:30:454,-0.690106,1.2974,-9.6662,-7.40265,-4.05718,-172.377
2023-03-09 23:21:30:464,-0.692208,1.30256,-9.6632,-7.40407,-4.06023,-172.377
2023-03-09 23:21:30:474,-0.678767,1.29434,-9.66867,-7.40707,-4.0622,-172.378
2023-03-09 23:21:30:484,-0.685798,1.28527,-9.66993,-7.40509,-4.06241,-172.375
2023-03-09 23:21:30:494,-0.688107,1.28908,-9.66423,-7.40181,-4.0633,-172.376
2023-03-09 23:21:30:504,-0.682127,1.29202,-9.66878,-7.40122,-4.06148,-172.373
2023-03-09 23:21:30:514,-0.669555,1.29351,-9.67403,-7.40298,-4.06168,-172.373
2023-03-09 23:21:30:525,-0.682073,1.3007,-9.67588,-7.40711,-4.06485,-172.373
2023-03-09 23:21:30:535,-0.683959,1.30244,-9.66808,-7.40885,-4.06579,-172.374
2023-03-09 23:21:30:544,-0.687631,1.2915,-9.6628,-7.40903,-4.06917,-172.374
2023-03-09 23:21:30:554,-0.677918,1.29383,-9.66259,-7.40723,-4.06977,-172.372
2023-03-09 23:21:30:564,-0.682807,1.27965,-9.66148,-7.40631,-4.06687,-172.369
2023-03-09 23:21:30:574,-0.678423,1.28896,-9.6701,-7.40658,-4.06953,-172.366
2023-03-09 23:21:30:584,-0.692223,1.28987,-9.67605,-7.40346,-4.07093,-172.363
2023-03-09 23:21:30:594,-0.688725,1.29024,-9.67032,-7.40493,-4.07173,-172.362
2023-03-09 23:21:30:605,-0.69039,1.28954,-9.67817,-7.40346,-4.0729,-172.362
2023-03-09 23:21:30:614,-0.682709,1.28225,-9.66775,-7.40315,-4.07248,-172.362
2023-03-09 23:21:30:624,-0.681938,1.28244,-9.67303,-7.40214,-4.0718,-172.365
2023-03-09 23:21:30:635,-0.672303,1.27542,-9.66961,-7.4003,-4.07059,-172.362
2023-03-09 23:21:30:645,-0.681553,1.30942,-9.66303,-7.40278,-4.06964,-172.362
2023-03-09 23:21:30:655,-0.676346,1.30746,-9.66805,-7.40373,-4.07094,-172.362
2023-03-09 23:21:30:665,-0.68014,1.2938,-9.68157,-7.4049,-4.06961,-172.361
2023-03-09 23:21:30:675,-0.680772,1.28616,-9.67528,-7.40739,-4.06969,-172.358
2023-03-09 23:21:30:684,-0.684779,1.28464,-9.67418,-7.41018,-4.07113,-172.358
2023-03-09 23:21:30:695,-0.682526,1.2889,-9.6821,-7.41053,-4.06963,-172.359
2023-03-09 23:21:30:705,-0.673222,1.29091,-9.68278,-7.40894,-4.07177,-172.359
2023-03-09 23:21:30:715,-0.670482,1.29278,-9.66991,-7.41074,-4.07283,-172.356
2023-03-09 23:21:30:725,-0.689586,1.28949,-9.6688,-7.41147,-4.07389,-172.356
2023-03-09 23:21:30:735,-0.692286,1.27597,-9.67463,-7.41032,-4.07181,-172.356
2023-03-09 23:21:30:745,-0.688242,1.26866,-9.67813,-7.40835,-4.07165,-172.357
2023-03-09 23:21:30:755,-0.685245,1.27271,-9.67218,-7.40936,-4.07088,-172.357
2023-03-09 23:21:30:765,-0.689136,1.29268,-9.67036,-7.41136,-4.07122,-172.356
2023-03-09 23:21:30:775,-0.694538,1.29848,-9.66693,-7.41341,-4.071,-172.356
2023-03-09 23:21:30:785,-0.677401,1.29591,-9.66872,-7.4134,-4.06897,-172.353
2023-03-09 23:21:30:795,-0.683243,1.29424,-9.66613,-7.41192,-4.06581,-172.356
2023-03-09 23:21:30:805,-0.684671,1.29208,-9.67633,-7.41264,-4.06429,-172.356
2023-03-09 23:21:30:815,-0.680494,1.30297,-9.66685,-7.41537,-4.06535,-172.358
2023-03-09 23:21:30:825,-0.690974,1.30085,-9.66211,-7.41716,-4.06529,-172.359
2023-03-09 23:21:30:835,-0.681576,1.29035,-9.67214,-7.41974,-4.06691,-172.359
2023-03-09 23:21:30:845,-0.677413,1.29614,-9.67026,-7.42186,-4.06592,-172.361
2023-03-09 23:21:30:855,-0.678805,1.29547,-9.67422,-7.42044,-4.06987,-172.36
2023-03-09 23:21:30:865,-0.68494,1.27841,-9.69128,-7.42248,-4.0698,-172.36
2023-03-09 23:21:30:875,-0.689086,1.28806,-9.67773,-7.42445,-4.07201,-172.362
2023-03-09 23:21:30:885,-0.689445,1.29745,-9.66479,-7.42668,-4.07306,-172.361
2023-03-09 23:21:30:895,-0.680284,1.2977,-9.67608,-7.42528,-4.07572,-172.359
2023-03-09 23:21:30:905,-0.681115,1.29324,-9.67248,-7.42822,-4.07429,-172.359
2023-03-09 23:21:30:915,-0.689034,1.28616,-9.68388,-7.43028,-4.075,-172.359
2023-03-09 23:21:30:925,-0.690676,1.2625,-9.68627,-7.42938,-4.0744,-172.359
2023-03-09 23:21:30:935,-0.691114,1.27642,-9.67894,-7.42739,-4.07504,-172.359
2023-03-09 23:21:30:945,-0.685105,1.28786,-9.67225,-7.42596,-4.07642,-172.358
2023-03-09 23:21:30:955,-0.676891,1.28545,-9.67371,-7.42842,-4.0783,-172.357
2023-03-09 23:21:30:964,-0.677488,1.28735,-9.67638,-7.42896,-4.0811,-172.362
2023-03-09 23:21:30:975,-0.682942,1.28664,-9.6855,-7.43088,-4.08084,-172.362
2023-03-09 23:21:30:985,-0.688955,1.3017,-9.68177,-7.4316,-4.08166,-172.36
2023-03-09 23:21:30:995,-0.683715,1.29954,-9.67075,-7.43031,-4.08195,-172.36
2023-03-09 23:21:31:5,-0.679705,1.29331,-9.67806,-7.42889,-4.07952,-172.362
2023-03-09 23:21:31:15,-0.683965,1.29259,-9.67729,-7.43,-4.0786,-172.362
2023-03-09 23:21:31:25,-0.683971,1.29218,-9.66827,-7.4305,-4.08154,-172.359
2023-03-09 23:21:31:35,-0.69266,1.29355,-9.66697,-7.43194,-4.08146,-172.362
2023-03-09 23:21:31:45,-0.685377,1.29198,-9.67369,-7.43202,-4.08322,-172.362
2023-03-09 23:21:31:55,-0.675556,1.30095,-9.66483,-7.4339,-4.08278,-172.364
2023-03-09 23:21:31:65,-0.684141,1.29072,-9.67078,-7.43319,-4.08339,-172.367
2023-03-09 23:21:31:75,-0.688663,1.27899,-9.67286,-7.43215,-4.08477,-172.367
2023-03-09 23:21:31:85,-0.685467,1.29131,-9.67628,-7.43363,-4.08546,-172.366
2023-03-09 23:21:31:95,-0.691904,1.29357,-9.66406,-7.43311,-4.08676,-172.366
2023-03-09 23:21:31:105,-0.685237,1.29526,-9.6634,-7.43309,-4.08519,-172.366
2023-03-09 23:21:31:115,-0.684515,1.29808,-9.67187,-7.43305,-4.08692,-172.366
2023-03-09 23:21:31:125,-0.6883,1.29195,-9.67788,-7.43494,-4.08668,-172.364
2023-03-09 23:21:31:135,-0.679656,1.28448,-9.67883,-7.43683,-4.08458,-172.365
2023-03-09 23:21:31:145,-0.691418,1.27421,-9.67987,-7.43737,-4.08658,-172.366
2023-03-09 23:21:31:155,-0.687578,1.28258,-9.67476,-7.4386,-4.08445,-172.364
2023-03-09 23:21:31:165,-0.681995,1.29102,-9.66325,-7.43752,-4.08305,-172.363
2023-03-09 23:21:31:175,-0.676735,1.29896,-9.66279,-7.43727,-4.08203,-172.363
2023-03-09 23:21:31:185,-0.682911,1.2951,-9.66392,-7.43974,-4.0801,-172.362
2023-03-09 23:21:31:195,-0.689534,1.29054,-9.67259,-7.43948,-4.08066,-172.361
2023-03-09 23:21:31:205,-0.684761,1.28759,-9.6706,-7.43968,-4.07916,-172.362
2023-03-09 23:21:31:215,-0.684242,1.28633,-9.68828,-7.43849,-4.07936,-172.36
2023-03-09 23:21:31:225,-0.688846,1.2935,-9.67383,-7.43763,-4.07544,-172.361
2023-03-09 23:21:31:235,-0.677385,1.28458,-9.66603,-7.43595,-4.07691,-172.362
2023-03-09 23:21:31:245,-0.688649,1.29086,-9.67244,-7.43484,-4.0784,-172.36
2023-03-09 23:21:31:255,-0.680515,1.28871,-9.67154,-7.43716,-4.07786,-172.359
2023-03-09 23:21:31:265,-0.678121,1.28369,-9.67836,-7.43901,-4.07681,-172.357
2023-03-09 23:21:31:275,-0.689731,1.28954,-9.67834,-7.44076,-4.07649,-172.356
2023-03-09 23:21:31:285,-0.683505,1.28376,-9.6787,-7.43955,-4.07529,-172.355
2023-03-09 23:21:31:295,-0.681139,1.28501,-9.67241,-7.44376,-4.07564,-172.354
2023-03-09 23:21:31:305,-0.678971,1.29929,-9.67185,-7.44276,-4.07672,-172.355
2023-03-09 23:21:31:315,-0.684675,1.29961,-9.67057,-7.44452,-4.07292,-172.352
2023-03-09 23:21:31:324,-0.685731,1.29525,-9.67557,-7.4411,-4.07077,-172.353
2023-03-09 23:21:31:335,-0.685052,1.28924,-9.66516,-7.43777,-4.07131,-172.354
2023-03-09 23:21:31:345,-0.682758,1.27371,-9.68304,-7.43675,-4.07105,-172.356
2023-03-09 23:21:31:355,-0.682376,1.28998,-9.67242,-7.43557,-4.06785,-172.358
2023-03-09 23:21:31:365,-0.677775,1.28928,-9.67141,-7.43572,-4.06906,-172.359
2023-03-09 23:21:31:374,-0.686837,1.29107,-9.66547,-7.43829,-4.06756,-172.361
2023-03-09 23:21:31:385,-0.688171,1.29707,-9.66744,-7.43871,-4.06951,-172.363
2023-03-09 23:21:31:395,-0.688363,1.31116,-9.68171,-7.43815,-4.07129,-172.366
2023-03-09 23:21:31:405,-0.694378,1.30109,-9.6764,-7.43673,-4.07403,-172.366
2023-03-09 23:21:31:414,-0.690286,1.29593,-9.65987,-7.43733,-4.07659,-172.37
2023-03-09 23:21:31:425,-0.691454,1.28903,-9.67078,-7.43675,-4.07483,-172.371
2023-03-09 23:21:31:435,-0.68778,1.27827,-9.67247,-7.43392,-4.07153,-172.372
2023-03-09 23:21:31:445,-0.6801,1.27267,-9.67236,-7.43406,-4.07056,-172.373
2023-03-09 23:21:31:455,-0.681172,1.28241,-9.6676,-7.43498,-4.06883,-172.372
2023-03-09 23:21:31:464,-0.67794,1.29444,-9.6767,-7.43654,-4.06902,-172.367
2023-03-09 23:21:31:474,-0.684536,1.29031,-9.68124,-7.43977,-4.07217,-172.364
2023-03-09 23:21:31:484,-0.689627,1.284,-9.67912,-7.44337,-4.07553,-172.366
2023-03-09 23:21:31:495,-0.681389,1.27476,-9.68177,-7.44217,-4.07797,-172.363
2023-03-09 23:21:31:505,-0.676979,1.27773,-9.68061,-7.44319,-4.07794,-172.36
2023-03-09 23:21:31:514,-0.67426,1.29927,-9.66427,-7.4436,-4.076,-172.359
2023-03-09 23:21:31:525,-0.678545,1.296,-9.68207,-7.44147,-4.07789,-172.361
2023-03-09 23:21:31:535,-0.679977,1.29772,-9.66761,-7.44146,-4.07742,-172.362
2023-03-09 23:21:31:545,-0.685057,1.29552,-9.67079,-7.4429,-4.07571,-172.361
2023-03-09 23:21:31:555,-0.686966,1.29539,-9.66777,-7.44354,-4.0793,-172.359
2023-03-09 23:21:31:565,-0.691023,1.29696,-9.67212,-7.44407,-4.08109,-172.358
2023-03-09 23:21:31:575,-0.685734,1.29662,-9.67477,-7.44238,-4.08128,-172.357
2023-03-09 23:21:31:585,-0.694624,1.29972,-9.66731,-7.4447,-4.08,-172.358
2023-03-09 23:21:31:595,-0.686798,1.29661,-9.66566,-7.44296,-4.07877,-172.357
2023-03-09 23:21:31:605,-0.681385,1.29355,-9.67682,-7.43966,-4.08048,-172.354
2023-03-09 23:21:31:615,-0.686605,1.28283,-9.68451,-7.43844,-4.0779,-172.356
2023-03-09 23:21:31:625,-0.676751,1.28304,-9.67853,-7.43949,-4.07706,-172.354
2023-03-09 23:21:31:635,-0.680003,1.27059,-9.68273,-7.43657,-4.07725,-172.353
2023-03-09 23:21:31:644,-0.683659,1.28717,-9.67369,-7.43803,-4.07973,-172.351
2023-03-09 23:21:31:655,-0.679681,1.29955,-9.66941,-7.43988,-4.08016,-172.352
2023-03-09 23:21:31:665,-0.675258,1.3047,-9.67622,-7.43898,-4.08123,-172.351
2023-03-09 23:21:31:675,-0.692787,1.30092,-9.66766,-7.43878,-4.08259,-172.354
2023-03-09 23:21:31:685,-0.679495,1.29199,-9.6723,-7.4386,-4.08278,-172.357
2023-03-09 23:21:31:694,-0.676592,1.29232,-9.67078,-7.43933,-4.08483,-172.357
2023-03-09 23:21:31:705,-0.687754,1.29806,-9.67402,-7.43908,-4.08372,-172.357
2023-03-09 23:21:31:715,-0.690765,1.28778,-9.67687,-7.43984,-4.08458,-172.357
2023-03-09 23:21:31:724,-0.681165,1.28732,-9.68427,-7.4388,-4.08571,-172.358
2023-03-09 23:21:31:734,-0.684698,1.29023,-9.68157,-7.43831,-4.08705,-172.356
2023-03-09 23:21:31:744,-0.681091,1.27984,-9.6779,-7.43734,-4.08739,-172.357
2023-03-09 23:21:31:754,-0.68434,1.27892,-9.67194,-7.43738,-4.0835,-172.355
2023-03-09 23:21:31:764,-0.680006,1.29383,-9.6723,-7.43868,-4.08404,-172.354
2023-03-09 23:21:31:774,-0.679885,1.28532,-9.67332,-7.43835,-4.08527,-172.357
2023-03-09 23:21:31:784,-0.682732,1.28223,-9.67984,-7.44002,-4.08541,-172.359
2023-03-09 23:21:31:794,-0.68123,1.2843,-9.67119,-7.43996,-4.08488,-172.36
2023-03-09 23:21:31:804,-0.687793,1.29062,-9.67277,-7.43978,-4.08408,-172.362
2023-03-09 23:21:31:814,-0.687981,1.29802,-9.6586,-7.44258,-4.08576,-172.365
2023-03-09 23:21:31:824,-0.67278,1.29826,-9.6702,-7.44294,-4.08748,-172.363
2023-03-09 23:21:31:834,-0.669863,1.29514,-9.66965,-7.44603,-4.087,-172.363
2023-03-09 23:21:31:844,-0.682706,1.2921,-9.66788,-7.4483,-4.08676,-172.364
2023-03-09 23:21:31:854,-0.674723,1.30568,-9.67557,-7.44553,-4.08748,-172.363
2023-03-09 23:21:31:864,-0.676458,1.29933,-9.67724,-7.44541,-4.08807,-172.363
2023-03-09 23:21:31:874,-0.688985,1.28426,-9.68644,-7.44381,-4.08804,-172.365
2023-03-09 23:21:31:884,-0.699879,1.27269,-9.67945,-7.44274,-4.08802,-172.364
2023-03-09 23:21:31:894,-0.687398,1.26883,-9.68111,-7.44405,-4.08884,-172.365
2023-03-09 23:21:31:904,-0.687091,1.26632,-9.68499,-7.44181,-4.08512,-172.364
2023-03-09 23:21:31:914,-0.660637,1.27576,-9.6785,-7.44026,-4.08426,-172.364
2023-03-09 23:21:31:924,-0.652486,1.26982,-9.67863,-7.4366,-4.08431,-172.368
2023-03-09 23:21:31:934,-0.690794,1.29084,-9.66527,-7.43812,-4.08416,-172.368
2023-03-09 23:21:31:944,-0.677743,1.31135,-9.67784,-7.44056,-4.08273,-172.368
2023-03-09 23:21:31:954,-0.677392,1.29404,-9.66648,-7.44068,-4.08507,-172.368
2023-03-09 23:21:31:964,-0.697586,1.28338,-9.66476,-7.44214,-4.08705,-172.367
2023-03-09 23:21:31:974,-0.675168,1.2928,-9.68168,-7.44591,-4.08947,-172.368
2023-03-09 23:21:31:984,-0.669053,1.30378,-9.68285,-7.4476,-4.08782,-172.369
2023-03-09 23:21:31:994,-0.677148,1.28606,-9.67213,-7.44583,-4.08732,-172.372
2023-03-09 23:21:32:4,-0.676498,1.27014,-9.66264,-7.44104,-4.08478,-172.372
2023-03-09 23:21:32:14,-0.676172,1.26448,-9.67825,-7.44341,-4.08644,-172.373
2023-03-09 23:21:32:25,-0.678172,1.27942,-9.67482,-7.44368,-4.08403,-172.371
2023-03-09 23:21:32:35,-0.685184,1.28698,-9.68119,-7.44395,-4.08474,-172.372
2023-03-09 23:21:32:45,-0.672823,1.28987,-9.67159,-7.44228,-4.08556,-172.374
2023-03-09 23:21:32:54,-0.679344,1.27753,-9.67162,-7.44639,-4.08633,-172.373
2023-03-09 23:21:32:65,-0.666925,1.28538,-9.67187,-7.44628,-4.0824,-172.375
2023-03-09 23:21:32:75,-0.680399,1.29195,-9.68248,-7.44893,-4.08155,-172.377
2023-03-09 23:21:32:85,-0.675612,1.28681,-9.67284,-7.44773,-4.08047,-172.376
2023-03-09 23:21:32:95,-0.670842,1.28838,-9.66754,-7.44513,-4.07679,-172.374
2023-03-09 23:21:32:105,-0.68333,1.31118,-9.66225,-7.44919,-4.07739,-172.373
2023-03-09 23:21:32:114,-0.68643,1.32356,-9.66829,-7.45126,-4.07959,-172.371
2023-03-09 23:21:32:125,-0.680762,1.32182,-9.66542,-7.44714,-4.07752,-172.372
2023-03-09 23:21:32:135,-0.678103,1.29795,-9.67401,-7.44685,-4.07588,-172.373
2023-03-09 23:21:32:145,-0.691223,1.29609,-9.66542,-7.44677,-4.07567,-172.37
2023-03-09 23:21:32:155,-0.686305,1.29182,-9.66805,-7.45119,-4.07175,-172.371
2023-03-09 23:21:32:165,-0.67871,1.28685,-9.67889,-7.45082,-4.0706,-172.372
2023-03-09 23:21:32:175,-0.692426,1.29947,-9.67362,-7.45177,-4.07077,-172.369
2023-03-09 23:21:32:185,-0.707655,1.30742,-9.6602,-7.44886,-4.07482,-172.37
2023-03-09 23:21:32:195,-0.695326,1.28825,-9.67257,-7.44854,-4.07594,-172.37
2023-03-09 23:21:32:204,-0.687179,1.26673,-9.67741,-7.44473,-4.07614,-172.37
2023-03-09 23:21:32:214,-0.675261,1.27724,-9.67686,-7.44475,-4.07376,-172.367
2023-03-09 23:21:32:224,-0.673356,1.2848,-9.67416,-7.44699,-4.07867,-172.363
2023-03-09 23:21:32:234,-0.674381,1.2958,-9.66187,-7.44851,-4.07801,-172.36
2023-03-09 23:21:32:244,-0.679446,1.2945,-9.67373,-7.45208,-4.07572,-172.357
2023-03-09 23:21:32:254,-0.682298,1.30164,-9.67236,-7.45319,-4.07538,-172.359
2023-03-09 23:21:32:264,-0.681392,1.30877,-9.66356,-7.45407,-4.07809,-172.358
2023-03-09 23:21:32:274,-0.686688,1.3041,-9.66608,-7.45181,-4.08046,-172.356
2023-03-09 23:21:32:284,-0.688059,1.29602,-9.67357,-7.44921,-4.07687,-172.355
2023-03-09 23:21:32:294,-0.687225,1.29702,-9.66822,-7.44911,-4.07519,-172.358
2023-03-09 23:21:32:304,-0.690297,1.2949,-9.67249,-7.44632,-4.0769,-172.357
2023-03-09 23:21:32:314,-0.689885,1.29178,-9.67296,-7.44485,-4.07507,-172.359
2023-03-09 23:21:32:324,-0.696166,1.28805,-9.67807,-7.44751,-4.07422,-172.359
2023-03-09 23:21:32:334,-0.686532,1.28159,-9.67424,-7.44447,-4.07557,-172.361
2023-03-09 23:21:32:344,-0.681306,1.26802,-9.6864,-7.44439,-4.07663,-172.36
2023-03-09 23:21:32:354,-0.679591,1.27386,-9.68929,-7.43958,-4.07634,-172.359
2023-03-09 23:21:32:364,-0.682657,1.28466,-9.692,-7.44024,-4.0772,-172.364
2023-03-09 23:21:32:374,-0.677029,1.28329,-9.68271,-7.43871,-4.07644,-172.365
2023-03-09 23:21:32:384,-0.679975,1.28744,-9.67483,-7.44171,-4.07829,-172.367
2023-03-09 23:21:32:394,-0.685629,1.28716,-9.67882,-7.44222,-4.07475,-172.369
2023-03-09 23:21:32:404,-0.683334,1.29632,-9.68702,-7.44344,-4.07375,-172.37
2023-03-09 23:21:32:414,-0.679599,1.29701,-9.68089,-7.44325,-4.07333,-172.371
2023-03-09 23:21:32:424,-0.677886,1.29356,-9.68162,-7.44528,-4.07308,-172.369
2023-03-09 23:21:32:434,-0.690073,1.28336,-9.67365,-7.44375,-4.07186,-172.372
2023-03-09 23:21:32:444,-0.691322,1.28944,-9.66409,-7.44553,-4.07254,-172.37
2023-03-09 23:21:32:454,-0.676293,1.29387,-9.67231,-7.44617,-4.07095,-172.367
2023-03-09 23:21:32:464,-0.678915,1.2985,-9.67514,-7.4455,-4.07088,-172.367
2023-03-09 23:21:32:474,-0.676658,1.28302,-9.67614,-7.44691,-4.07046,-172.369
2023-03-09 23:21:32:484,-0.688372,1.27359,-9.68141,-7.44651,-4.07096,-172.366
2023-03-09 23:21:32:494,-0.67722,1.28011,-9.67936,-7.44478,-4.07,-172.366
2023-03-09 23:21:32:504,-0.687717,1.28055,-9.6735,-7.4418,-4.06999,-172.367
2023-03-09 23:21:32:514,-0.680991,1.28374,-9.6752,-7.44167,-4.07051,-172.367
2023-03-09 23:21:32:524,-0.675434,1.28296,-9.67372,-7.44099,-4.0707,-172.368
2023-03-09 23:21:32:534,-0.686578,1.29024,-9.67445,-7.44325,-4.07041,-172.367
2023-03-09 23:21:32:544,-0.687746,1.30303,-9.66866,-7.44676,-4.06753,-172.364
2023-03-09 23:21:32:554,-0.683435,1.29525,-9.66963,-7.44696,-4.06649,-172.364
2023-03-09 23:21:32:564,-0.674762,1.29905,-9.66739,-7.44608,-4.06262,-172.364
2023-03-09 23:21:32:574,-0.681341,1.30074,-9.67505,-7.44669,-4.06344,-172.363
2023-03-09 23:21:32:584,-0.677575,1.29225,-9.68405,-7.44854,-4.0627,-172.362
2023-03-09 23:21:32:594,-0.682659,1.28715,-9.67991,-7.44821,-4.06142,-172.361
2023-03-09 23:21:32:604,-0.687258,1.27916,-9.67764,-7.44678,-4.0592,-172.358
2023-03-09 23:21:32:614,-0.68382,1.2797,-9.68002,-7.4425,-4.06023,-172.356
2023-03-09 23:21:32:624,-0.692679,1.28364,-9.67792,-7.44182,-4.05989,-172.355
2023-03-09 23:21:32:634,-0.688522,1.28135,-9.68372,-7.44096,-4.05696,-172.356
2023-03-09 23:21:32:644,-0.681084,1.28164,-9.67804,-7.44178,-4.05209,-172.357
2023-03-09 23:21:32:654,-0.680702,1.28339,-9.67967,-7.44314,-4.05221,-172.36
2023-03-09 23:21:32:664,-0.678936,1.29235,-9.68314,-7.4442,-4.05107,-172.361
2023-03-09 23:21:32:674,-0.678834,1.29672,-9.67716,-7.44731,-4.04734,-172.36
2023-03-09 23:21:32:684,-0.672814,1.3024,-9.674,-7.44989,-4.05009,-172.364
2023-03-09 23:21:32:694,-0.674569,1.28999,-9.69253,-7.45065,-4.04959,-172.366
2023-03-09 23:21:32:704,-0.678618,1.30175,-9.67551,-7.45081,-4.04739,-172.367
2023-03-09 23:21:32:714,-0.691002,1.28947,-9.67565,-7.4484,-4.04945,-172.368
2023-03-09 23:21:32:724,-0.689254,1.28946,-9.67761,-7.44931,-4.05221,-172.371
2023-03-09 23:21:32:734,-0.694765,1.29482,-9.66752,-7.4497,-4.05404,-172.372
2023-03-09 23:21:32:744,-0.685332,1.29033,-9.67929,-7.44855,-4.05399,-172.374
2023-03-09 23:21:32:754,-0.684879,1.29166,-9.6832,-7.44679,-4.05436,-172.374
2023-03-09 23:21:32:764,-0.687889,1.29752,-9.68254,-7.44524,-4.05535,-172.372
2023-03-09 23:21:32:774,-0.683666,1.29797,-9.67699,-7.44722,-4.0531,-172.373
2023-03-09 23:21:32:784,-0.682631,1.2919,-9.68371,-7.44823,-4.05157,-172.374
2023-03-09 23:21:32:794,-0.679437,1.28534,-9.68167,-7.44677,-4.05131,-172.373
2023-03-09 23:21:32:805,-0.679046,1.29235,-9.67766,-7.44341,-4.04917,-172.376
2023-03-09 23:21:32:815,-0.682023,1.29469,-9.67544,-7.44462,-4.05414,-172.376
2023-03-09 23:21:32:824,-0.680437,1.29322,-9.67894,-7.44517,-4.05276,-172.376
2023-03-09 23:21:32:834,-0.682472,1.28907,-9.6759,-7.44372,-4.05174,-172.378
2023-03-09 23:21:32:844,-0.672392,1.28702,-9.67316,-7.44134,-4.05307,-172.378
2023-03-09 23:21:32:854,-0.680139,1.28213,-9.69277,-7.43964,-4.05568,-172.378
2023-03-09 23:21:32:864,-0.692961,1.30105,-9.68112,-7.43947,-4.05241,-172.38
2023-03-09 23:21:32:875,-0.679655,1.29521,-9.68116,-7.44186,-4.04797,-172.382
2023-03-09 23:21:32:885,-0.678404,1.30882,-9.67377,-7.44508,-4.04554,-172.38
2023-03-09 23:21:32:894,-0.680457,1.29546,-9.66954,-7.44935,-4.04468,-172.381
2023-03-09 23:21:32:905,-0.67878,1.29214,-9.67376,-7.45092,-4.04804,-172.382
2023-03-09 23:21:32:915,-0.679235,1.29386,-9.67904,-7.45075,-4.04608,-172.383
2023-03-09 23:21:32:925,-0.686176,1.28673,-9.67796,-7.45117,-4.04499,-172.379
2023-03-09 23:21:32:934,-0.691334,1.27728,-9.68759,-7.44996,-4.04471,-172.381
2023-03-09 23:21:32:944,-0.67982,1.29254,-9.68414,-7.4513,-4.04325,-172.381
2023-03-09 23:21:32:955,-0.676261,1.28926,-9.67329,-7.45307,-4.03779,-172.382
2023-03-09 23:21:32:965,-0.674123,1.27632,-9.67803,-7.45618,-4.04066,-172.383
2023-03-09 23:21:32:975,-0.684812,1.27341,-9.67929,-7.45819,-4.04216,-172.383
2023-03-09 23:21:32:985,-0.677441,1.27016,-9.68584,-7.45624,-4.04091,-172.382
2023-03-09 23:21:32:995,-0.681474,1.28168,-9.68886,-7.45576,-4.04011,-172.385
2023-03-09 23:21:33:4,-0.685475,1.28929,-9.67919,-7.4545,-4.03902,-172.384
2023-03-09 23:21:33:14,-0.69007,1.29734,-9.68463,-7.45418,-4.04086,-172.385
2023-03-09 23:21:33:25,-0.684329,1.29089,-9.67443,-7.45366,-4.04289,-172.386
2023-03-09 23:21:33:35,-0.688998,1.28726,-9.66782,-7.45389,-4.04228,-172.384
2023-03-09 23:21:33:44,-0.676481,1.30054,-9.68205,-7.44836,-4.04133,-172.384
2023-03-09 23:21:33:54,-0.671145,1.30097,-9.67765,-7.44741,-4.04159,-172.385
2023-03-09 23:21:33:65,-0.679006,1.2909,-9.67346,-7.4447,-4.04022,-172.385
2023-03-09 23:21:33:75,-0.673654,1.28482,-9.68266,-7.44376,-4.03911,-172.384
2023-03-09 23:21:33:85,-0.672721,1.2868,-9.68617,-7.44027,-4.04158,-172.385
2023-03-09 23:21:33:95,-0.687705,1.27935,-9.68452,-7.43948,-4.04246,-172.385
2023-03-09 23:21:33:105,-0.675454,1.28399,-9.67558,-7.43879,-4.04231,-172.386
2023-03-09 23:21:33:115,-0.676802,1.28692,-9.67055,-7.43849,-4.04112,-172.387
2023-03-09 23:21:33:125,-0.680948,1.28759,-9.68649,-7.43921,-4.04054,-172.389
2023-03-09 23:21:33:134,-0.676023,1.29311,-9.66823,-7.43939,-4.04017,-172.385
2023-03-09 23:21:33:145,-0.677673,1.30161,-9.66753,-7.44044,-4.03936,-172.384
2023-03-09 23:21:33:154,-0.684163,1.29905,-9.67694,-7.43874,-4.0384,-172.385
2023-03-09 23:21:33:164,-0.693777,1.2994,-9.68187,-7.43978,-4.03739,-172.385
2023-03-09 23:21:33:174,-0.694768,1.29632,-9.67698,-7.43959,-4.03631,-172.387
2023-03-09 23:21:33:185,-0.697396,1.29368,-9.67645,-7.43707,-4.03221,-172.39
2023-03-09 23:21:33:195,-0.681744,1.2947,-9.67979,-7.43808,-4.03457,-172.393
2023-03-09 23:21:33:205,-0.678618,1.30163,-9.67563,-7.43796,-4.03316,-172.393
2023-03-09 23:21:33:215,-0.688085,1.29197,-9.6806,-7.43997,-4.03298,-172.395
2023-03-09 23:21:33:225,-0.696521,1.2852,-9.67358,-7.43903,-4.03422,-172.397
2023-03-09 23:21:33:235,-0.691679,1.28224,-9.67386,-7.43943,-4.03613,-172.398
2023-03-09 23:21:33:245,-0.679527,1.27627,-9.6888,-7.43873,-4.03517,-172.398
2023-03-09 23:21:33:255,-0.680043,1.28971,-9.68213,-7.4411,-4.03504,-172.399
2023-03-09 23:21:33:264,-0.687376,1.28533,-9.67692,-7.44239,-4.03388,-172.4
2023-03-09 23:21:33:275,-0.688209,1.28386,-9.6709,-7.44585,-4.03514,-172.4
2023-03-09 23:21:33:284,-0.684222,1.29755,-9.67466,-7.44626,-4.03241,-172.402
2023-03-09 23:21:33:295,-0.681117,1.30526,-9.67271,-7.44595,-4.0332,-172.403
2023-03-09 23:21:33:305,-0.685575,1.29344,-9.67633,-7.44666,-4.03369,-172.406
2023-03-09 23:21:33:315,-0.685209,1.28889,-9.67404,-7.44736,-4.02991,-172.408
2023-03-09 23:21:33:325,-0.680712,1.30259,-9.67505,-7.44494,-4.02821,-172.41
2023-03-09 23:21:33:335,-0.679138,1.3016,-9.67976,-7.44586,-4.0291,-172.408
2023-03-09 23:21:33:345,-0.686479,1.30584,-9.67979,-7.44667,-4.02916,-172.41
2023-03-09 23:21:33:355,-0.68581,1.29885,-9.67165,-7.44591,-4.02969,-172.411
2023-03-09 23:21:33:365,-0.674787,1.29878,-9.67104,-7.44809,-4.02908,-172.411
2023-03-09 23:21:33:375,-0.676396,1.29297,-9.67561,-7.44941,-4.02905,-172.414
2023-03-09 23:21:33:385,-0.674893,1.28834,-9.67244,-7.45,-4.02655,-172.415
2023-03-09 23:21:33:395,-0.68786,1.28663,-9.67627,-7.44748,-4.02692,-172.418
2023-03-09 23:21:33:405,-0.692044,1.29316,-9.67058,-7.44918,-4.02757,-172.416
2023-03-09 23:21:33:414,-0.680095,1.28408,-9.68373,-7.45088,-4.02634,-172.418
2023-03-09 23:21:33:424,-0.69058,1.28301,-9.68784,-7.45125,-4.02763,-172.42
2023-03-09 23:21:33:435,-0.694006,1.29668,-9.67171,-7.45403,-4.02485,-172.422
2023-03-09 23:21:33:445,-0.680606,1.2885,-9.67254,-7.45236,-4.02638,-172.421
2023-03-09 23:21:33:455,-0.67629,1.29356,-9.67221,-7.45365,-4.02081,-172.418
2023-03-09 23:21:33:464,-0.683732,1.29263,-9.66734,-7.45122,-4.02106,-172.42
2023-03-09 23:21:33:475,-0.68353,1.28742,-9.67762,-7.45208,-4.02317,-172.418
2023-03-09 23:21:33:485,-0.685361,1.27921,-9.67083,-7.44905,-4.0232,-172.42
2023-03-09 23:21:33:495,-0.686785,1.29004,-9.66949,-7.4469,-4.0224,-172.419
2023-03-09 23:21:33:504,-0.688237,1.30464,-9.66873,-7.44852,-4.01771,-172.419
2023-03-09 23:21:33:515,-0.688732,1.30666,-9.66768,-7.44836,-4.02014,-172.419
2023-03-09 23:21:33:524,-0.680757,1.29843,-9.67316,-7.44709,-4.01981,-172.419
2023-03-09 23:21:33:534,-0.674662,1.28382,-9.67689,-7.44525,-4.02005,-172.422
2023-03-09 23:21:33:545,-0.679086,1.2772,-9.68306,-7.44161,-4.02172,-172.421
2023-03-09 23:21:33:555,-0.679962,1.27317,-9.68521,-7.44086,-4.01923,-172.422
2023-03-09 23:21:33:565,-0.680448,1.28802,-9.6732,-7.44015,-4.01883,-172.423
2023-03-09 23:21:33:575,-0.689645,1.29444,-9.67142,-7.43928,-4.01754,-172.424
2023-03-09 23:21:33:585,-0.689369,1.28527,-9.67495,-7.44006,-4.01661,-172.424
2023-03-09 23:21:33:595,-0.684212,1.2932,-9.67707,-7.44177,-4.01552,-172.425
2023-03-09 23:21:33:605,-0.677008,1.29389,-9.68113,-7.44225,-4.0188,-172.427
2023-03-09 23:21:33:615,-0.684084,1.29228,-9.68219,-7.44134,-4.01657,-172.425
2023-03-09 23:21:33:625,-0.681882,1.28102,-9.6768,-7.44091,-4.01607,-172.427
2023-03-09 23:21:33:635,-0.687572,1.29184,-9.67622,-7.44146,-4.01604,-172.424
2023-03-09 23:21:33:644,-0.698398,1.29784,-9.67711,-7.44233,-4.01923,-172.427
2023-03-09 23:21:33:654,-0.691732,1.30292,-9.66342,-7.44085,-4.02276,-172.426
2023-03-09 23:21:33:665,-0.695408,1.30899,-9.66608,-7.4406,-4.02434,-172.426
2023-03-09 23:21:33:674,-0.68591,1.28414,-9.67595,-7.43958,-4.02397,-172.429
2023-03-09 23:21:33:685,-0.68112,1.28734,-9.67813,-7.44003,-4.02382,-172.43
2023-03-09 23:21:33:694,-0.682066,1.29655,-9.67849,-7.44069,-4.02303,-172.431
2023-03-09 23:21:33:705,-0.683199,1.28997,-9.6843,-7.43931,-4.02379,-172.43
2023-03-09 23:21:33:714,-0.684708,1.29645,-9.67629,-7.43815,-4.0272,-172.431
2023-03-09 23:21:33:725,-0.685882,1.29189,-9.67578,-7.4371,-4.02597,-172.429
2023-03-09 23:21:33:734,-0.674394,1.2901,-9.6685,-7.43954,-4.02347,-172.429
2023-03-09 23:21:33:744,-0.679061,1.28792,-9.68078,-7.43961,-4.02435,-172.427
2023-03-09 23:21:33:755,-0.693327,1.28077,-9.68132,-7.44204,-4.02782,-172.426
2023-03-09 23:21:33:765,-0.690938,1.28301,-9.68266,-7.44132,-4.02672,-172.428
2023-03-09 23:21:33:774,-0.69549,1.30023,-9.68473,-7.44043,-4.03001,-172.43
2023-03-09 23:21:33:785,-0.695994,1.3019,-9.68643,-7.44197,-4.0317,-172.427
2023-03-09 23:21:33:795,-0.687852,1.30637,-9.66869,-7.44133,-4.03038,-172.427
2023-03-09 23:21:33:804,-0.67973,1.29249,-9.67057,-7.44299,-4.0328,-172.427
2023-03-09 23:21:33:815,-0.677745,1.27948,-9.67304,-7.44352,-4.03549,-172.429
2023-03-09 23:21:33:824,-0.685899,1.28558,-9.6617,-7.44212,-4.03363,-172.431
2023-03-09 23:21:33:835,-0.694034,1.28636,-9.67404,-7.44158,-4.0361,-172.431
2023-03-09 23:21:33:845,-0.692083,1.28832,-9.68,-7.44247,-4.03964,-172.432
2023-03-09 23:21:33:854,-0.698621,1.28128,-9.67794,-7.44441,-4.03826,-172.436
2023-03-09 23:21:33:865,-0.699258,1.28185,-9.67688,-7.44348,-4.03936,-172.437
2023-03-09 23:21:33:874,-0.689784,1.30152,-9.674,-7.44641,-4.0379,-172.439
2023-03-09 23:21:33:884,-0.667082,1.27309,-9.66135,-7.44953,-4.03953,-172.442
2023-03-09 23:21:33:894,-0.684473,1.28436,-9.65465,-7.45036,-4.04023,-172.441
2023-03-09 23:21:33:905,-0.688912,1.31474,-9.68535,-7.45574,-4.04139,-172.441
2023-03-09 23:21:33:914,-0.682321,1.27367,-9.66704,-7.46047,-4.04556,-172.441
2023-03-09 23:21:33:925,-0.735493,1.30882,-9.65992,-7.46464,-4.04518,-172.436
2023-03-09 23:21:33:935,-0.700311,1.34371,-9.69082,-7.46805,-4.04491,-172.433
2023-03-09 23:21:33:945,-0.676179,1.30727,-9.66719,-7.4681,-4.04409,-172.434
2023-03-09 23:21:33:955,-0.699132,1.29109,-9.66346,-7.47061,-4.04413,-172.434
2023-03-09 23:21:33:964,-0.657303,1.27675,-9.68444,-7.46937,-4.04498,-172.436
2023-03-09 23:21:33:975,-0.67036,1.29262,-9.67529,-7.46718,-4.04666,-172.432
2023-03-09 23:21:33:985,-0.697788,1.29648,-9.67219,-7.46495,-4.04579,-172.434
2023-03-09 23:21:33:994,-0.693253,1.29827,-9.67817,-7.46375,-4.04538,-172.432
2023-03-09 23:21:34:4,-0.694972,1.30914,-9.67203,-7.46561,-4.04477,-172.429
2023-03-09 23:21:34:14,-0.694544,1.31627,-9.66282,-7.46566,-4.04517,-172.429
2023-03-09 23:21:34:24,-0.688884,1.30306,-9.68116,-7.46405,-4.04624,-172.429
2023-03-09 23:21:34:34,-0.688584,1.28521,-9.67726,-7.46346,-4.04564,-172.427
2023-03-09 23:21:34:44,-0.687258,1.27482,-9.66975,-7.46556,-4.04459,-172.427
2023-03-09 23:21:34:54,-0.669602,1.28995,-9.68351,-7.46855,-4.04769,-172.426
2023-03-09 23:21:34:65,-0.682945,1.28342,-9.67701,-7.46859,-4.04833,-172.424
2023-03-09 23:21:34:74,-0.687696,1.29341,-9.67003,-7.4697,-4.04942,-172.425
2023-03-09 23:21:34:84,-0.674649,1.29989,-9.67313,-7.47346,-4.05057,-172.427
2023-03-09 23:21:34:94,-0.674533,1.29679,-9.67019,-7.47266,-4.05093,-172.429
2023-03-09 23:21:34:104,-0.68602,1.30178,-9.67594,-7.47331,-4.05164,-172.43
2023-03-09 23:21:34:115,-0.679012,1.30164,-9.67406,-7.47234,-4.05134,-172.43
2023-03-09 23:21:34:124,-0.688048,1.27797,-9.6771,-7.47009,-4.05281,-172.432
2023-03-09 23:21:34:134,-0.696896,1.28208,-9.66315,-7.47325,-4.05482,-172.43
2023-03-09 23:21:34:144,-0.690801,1.29788,-9.6732,-7.47589,-4.05412,-172.428
2023-03-09 23:21:34:154,-0.694768,1.31067,-9.67759,-7.47651,-4.04855,-172.428
2023-03-09 23:21:34:165,-0.679556,1.30739,-9.6676,-7.47638,-4.04747,-172.424
2023-03-09 23:21:34:174,-0.679251,1.27647,-9.67418,-7.47729,-4.04909,-172.427
2023-03-09 23:21:34:185,-0.667519,1.27921,-9.67335,-7.47781,-4.04869,-172.427
2023-03-09 23:21:34:195,-0.674284,1.27613,-9.67699,-7.48221,-4.05153,-172.428
2023-03-09 23:21:34:205,-0.696119,1.29875,-9.67404,-7.48565,-4.05348,-172.427
2023-03-09 23:21:34:215,-0.688069,1.31958,-9.67682,-7.4904,-4.05421,-172.426
2023-03-09 23:21:34:225,-0.685345,1.31497,-9.67163,-7.49477,-4.0528,-172.425
2023-03-09 23:21:34:234,-0.6891,1.31838,-9.66552,-7.49672,-4.05315,-172.424
2023-03-09 23:21:34:245,-0.682328,1.30622,-9.67381,-7.49824,-4.05132,-172.422
2023-03-09 23:21:34:254,-0.683229,1.28918,-9.6686,-7.50051,-4.05008,-172.423
2023-03-09 23:21:34:264,-0.692926,1.30067,-9.67538,-7.5009,-4.05045,-172.427
2023-03-09 23:21:34:274,-0.685918,1.2985,-9.67641,-7.50429,-4.05058,-172.427
2023-03-09 23:21:34:284,-0.699312,1.30604,-9.67534,-7.50334,-4.04983,-172.428
2023-03-09 23:21:34:294,-0.703859,1.2934,-9.68156,-7.50245,-4.05025,-172.428
2023-03-09 23:21:34:305,-0.675344,1.28104,-9.67465,-7.50026,-4.0483,-172.427
2023-03-09 23:21:34:314,0.37524,2.40838,-8.80563,-7.49756,-4.04592,-172.427
2023-03-09 23:21:34:324,-0.00186719,2.63561,-9.94955,-7.55488,-4.22834,-172.193
2023-03-09 23:21:34:334,-0.292217,2.14141,-13.0811,-7.58948,-4.70016,-171.658
2023-03-09 23:21:34:345,-3.35764,4.45838,-6.36006,-7.00567,-6.73286,-170.857
2023-03-09 23:21:34:354,-5.20741,1.82185,-9.70663,-5.17154,-8.31355,-170.239
2023-03-09 23:21:34:365,-2.62258,1.91998,-12.824,-3.75981,-8.42793,-170.355
2023-03-09 23:21:34:374,-1.28439,2.01509,-10.3413,-2.77413,-8.10671,-170.768
2023-03-09 23:21:34:384,-1.09664,0.886425,-9.91604,-1.62935,-7.90056,-171.311
2023-03-09 23:21:34:394,-1.30611,-0.303544,-9.77029,-0.294332,-7.66354,-171.777
2023-03-09 23:21:34:405,-0.847262,-1.21126,-9.71744,1.18463,-7.4267,-172.209
2023-03-09 23:21:34:414,-0.559353,-1.97694,-9.30734,2.5831,-7.24836,-172.679
2023-03-09 23:21:34:425,-0.494414,-2.91234,-8.92423,3.68273,-7.16633,-173.23
2023-03-09 23:21:34:434,-0.00760557,-3.16119,-8.8077,4.42779,-7.1025,-173.742
2023-03-09 23:21:34:445,-1.05179,-3.16086,-8.22922,5.33704,-6.86538,-173.534
2023-03-09 23:21:34:454,-2.47071,-2.3707,-7.81587,6.02937,-6.52509,-173.206
2023-03-09 23:21:34:465,-4.75405,7.65293,-10.3183,6.24566,-6.10997,-173.038
2023-03-09 23:21:34:474,-4.99826,6.35018,-10.686,7.34128,-5.43102,-173.167
2023-03-09 23:21:34:485,-0.434691,-6.24714,-7.071,9.67044,-4.52501,-173.662
2023-03-09 23:21:34:494,0.654079,-8.4113,-5.86732,11.5518,-3.534,-173.918
2023-03-09 23:21:34:504,0.612505,-0.972484,-15.3222,12.5771,-2.37186,-173.561
2023-03-09 23:21:34:514,-0.790599,2.43279,-15.1011,13.3526,-1.80929,-173.497
2023-03-09 23:21:34:524,-0.343147,-2.09034,-9.8719,14.2219,-1.75526,-174.463
2023-03-09 23:21:34:535,1.74417,-5.83754,-9.31633,15.0045,-1.48839,-176.078
2023-03-09 23:21:34:545,-0.525917,-5.9029,-11.4536,15.8789,-0.771168,-177.516
2023-03-09 23:21:34:554,-2.62181,-6.23863,-12.924,17.3721,0.310656,-178.884
2023-03-09 23:21:34:564,-2.1138,-7.30393,-14.7225,19.345,1.41172,179.545
2023-03-09 23:21:34:575,-0.545398,-8.02531,-15.2694,21.5995,2.24487,177.603
2023-03-09 23:21:34:585,4.2868,-10.4445,-13.9959,23.4188,2.28939,175.581
2023-03-09 23:21:34:595,5.42586,-9.76947,-12.9296,25.1582,1.73824,173.961
2023-03-09 23:21:34:605,4.82141,-8.91894,-11.983,26.4715,0.535634,172.713
2023-03-09 23:21:34:615,2.16363,-6.19192,-10.709,27.4452,-1.01613,172.058
2023-03-09 23:21:34:624,0.838253,-6.0004,-10.3646,28.0066,-2.45719,171.596
2023-03-09 23:21:34:634,-0.0242253,-7.21526,-10.6617,28.272,-3.5897,171.357
2023-03-09 23:21:34:644,-0.823244,-7.00112,-10.8953,28.2566,-4.53603,171.411
2023-03-09 23:21:34:654,-0.643627,-7.3524,-10.6534,28.1209,-5.44249,171.625
2023-03-09 23:21:34:665,-1.03651,-7.44786,-10.3078,28.1012,-6.41301,171.785
2023-03-09 23:21:34:675,-1.17778,-8.15456,-10.2891,28.3272,-7.46443,171.833
2023-03-09 23:21:34:685,-1.06179,-8.43231,-10.0835,28.802,-8.6832,171.854
2023-03-09 23:21:34:695,-1.09672,-7.71148,-9.73759,29.5115,-10.1517,171.904
2023-03-09 23:21:34:705,-1.09094,-7.31472,-9.12767,30.4559,-11.8697,171.968
2023-03-09 23:21:34:715,-1.26575,-6.883,-8.5687,31.6391,-13.689,172.002
2023-03-09 23:21:34:724,-1.92268,-6.60497,-8.67466,33.0207,-15.4693,172.004
2023-03-09 23:21:34:735,-2.11155,-7.18218,-8.63114,34.4218,-17.2288,171.927
2023-03-09 23:21:34:745,-2.59465,-7.73651,-7.87257,35.7177,-19.0888,171.895
2023-03-09 23:21:34:755,-3.2791,-7.55588,-6.75679,36.8721,-21.0113,171.966
2023-03-09 23:21:34:764,-3.71329,-6.89129,-5.78238,38.0071,-22.9495,172.099
2023-03-09 23:21:34:774,-3.80185,-6.39199,-4.73319,39.2322,-24.7687,172.231
2023-03-09 23:21:34:784,-3.83329,-6.24053,-4.44926,40.5318,-26.4055,172.405
2023-03-09 23:21:34:795,-4.18068,-6.48069,-4.56023,41.9586,-27.914,172.601
2023-03-09 23:21:34:805,-3.84947,-6.33633,-5.21259,43.4649,-29.2957,172.902
2023-03-09 23:21:34:815,-4.23367,-5.27999,-6.19188,44.9753,-30.6274,173.315
2023-03-09 23:21:34:825,-3.89115,-4.98795,-6.30737,46.4659,-31.995,173.659
2023-03-09 23:21:34:835,-4.07613,-4.9068,-5.43636,47.9489,-33.4306,173.86
2023-03-09 23:21:34:844,-4.7549,-5.37523,-4.36161,49.536,-34.8523,173.877
2023-03-09 23:21:34:855,-5.18495,-5.82953,-3.62073,51.1782,-36.2231,173.834
2023-03-09 23:21:34:865,-5.47633,-5.86766,-3.06167,52.7587,-37.5603,173.881
2023-03-09 23:21:34:874,-5.5141,-5.48584,-2.56743,54.1678,-38.8478,174.073
2023-03-09 23:21:34:885,-5.61804,-5.08032,-2.24774,55.4477,-40.0209,174.379
2023-03-09 23:21:34:895,-5.6511,-5.01928,-1.89021,56.7046,-41.0517,174.73
2023-03-09 23:21:34:905,-5.8853,-5.32372,-1.61202,58,-41.9728,175.155
2023-03-09 23:21:34:915,-6.04005,-5.55203,-1.44582,59.3018,-42.8069,175.727
2023-03-09 23:21:34:925,-5.92092,-5.55459,-1.57656,60.7023,-43.585,176.452
2023-03-09 23:21:34:935,-6.18579,-5.20286,-2.32357,62.2388,-44.2774,177.342
2023-03-09 23:21:34:945,-6.74114,-4.4086,-3.49031,63.9992,-44.9068,178.311
2023-03-09 23:21:34:955,-6.12168,-4.17952,-3.84275,65.9839,-45.6058,179.103
2023-03-09 23:21:34:965,-5.52678,-3.76443,-3.08372,68.0916,-46.4464,179.52
2023-03-09 23:21:34:975,-5.76863,-2.99481,-1.67429,70.2328,-47.3182,179.628
2023-03-09 23:21:34:984,-5.93433,-2.55174,-0.499993,72.3468,-48.0686,179.645
2023-03-09 23:21:34:994,-6.04528,-2.67814,0.275526,74.3954,-48.6656,179.677
2023-03-09 23:21:35:5,-6.11187,-2.99158,1.00737,76.3807,-49.1149,179.738
2023-03-09 23:21:35:15,-6.14313,-3.16093,0.921633,78.1946,-49.4379,179.947
2023-03-09 23:21:35:25,-6.14757,-3.06142,0.531882,79.8743,-49.6533,-179.704
2023-03-09 23:21:35:35,-6.06684,-3.01036,0.639205,81.4349,-49.7834,-179.272
2023-03-09 23:21:35:44,-6.17332,-3.17551,0.697546,82.7324,-49.8463,-178.623
2023-03-09 23:21:35:55,-6.14222,-3.707,0.680738,83.901,-49.849,-177.877
2023-03-09 23:21:35:65,-6.3558,-4.38436,0.754706,85.1449,-49.7983,-177.125
2023-03-09 23:21:35:74,-6.29362,-5.19466,-0.130543,86.4906,-49.7206,-176.31
2023-03-09 23:21:35:85,-6.2729,-5.3566,-1.61068,87.9809,-49.6684,-175.482
2023-03-09 23:21:35:94,-6.19616,-5.16309,-2.34325,89.5765,-49.6502,-174.798
2023-03-09 23:21:35:104,-6.03807,-5.19581,-2.16676,91.2424,-49.6607,-174.327
2023-03-09 23:21:35:114,-6.07364,-5.19928,-1.37155,92.8194,-49.6855,-173.999
2023-03-09 23:21:35:124,-6.24868,-5.59321,-0.591911,94.2073,-49.6853,-173.711
2023-03-09 23:21:35:134,-6.50823,-6.29768,-0.0416875,95.2401,-49.6409,-173.298
2023-03-09 23:21:35:144,-6.66165,-6.91666,0.465768,95.9125,-49.5822,-172.706
2023-03-09 23:21:35:154,-6.57222,-7.12653,0.649542,96.3701,-49.5413,-171.963
2023-03-09 23:21:35:165,-6.60855,-6.86759,0.970723,96.9009,-49.5254,-171.194
2023-03-09 23:21:35:174,-6.59522,-6.55297,1.38808,97.5518,-49.503,-170.427
2023-03-09 23:21:35:185,-6.21398,-6.16173,1.6157,98.1178,-49.4586,-169.555
2023-03-09 23:21:35:194,-5.90911,-5.90056,1.6371,98.3907,-49.3986,-168.475
2023-03-09 23:21:35:205,-5.70583,-5.91543,1.63026,98.3343,-49.3106,-167.157
2023-03-09 23:21:35:214,-5.90277,-6.4188,1.26081,97.983,-49.1392,-165.613
2023-03-09 23:21:35:224,-6.08922,-7.11682,0.312538,97.5624,-48.8455,-163.85
2023-03-09 23:21:35:234,-6.18102,-7.73934,-0.903527,97.2849,-48.4451,-162.008
2023-03-09 23:21:35:245,-5.58716,-6.13974,-2.31751,97.287,-48.0427,-160.312
2023-03-09 23:21:35:254,-3.72692,-5.15275,-3.70558,97.4947,-47.245,-158.92
2023-03-09 23:21:35:264,-5.08228,-7.32631,-1.78484,98.0677,-46.1623,-158.003
2023-03-09 23:21:35:274,-5.80494,-8.19797,0.144496,98.9665,-45.108,-157.378
2023-03-09 23:21:35:284,-6.37822,-9.65779,2.02907,99.9881,-44.1771,-156.815
2023-03-09 23:21:35:294,-6.43295,-9.56771,1.72721,100.933,-43.5795,-156.027
2023-03-09 23:21:35:304,-5.7887,-9.54935,-1.0929,101.757,-43.1742,-155.105
2023-03-09 23:21:35:314,-4.4368,-10.4361,-3.92816,102.16,-42.837,-154.118
2023-03-09 23:21:35:324,-6.08124,-10.7331,-5.30797,102.595,-42.1638,-152.872
2023-03-09 23:21:35:334,-5.90157,-9.82092,-4.60781,103.207,-41.9138,-152.302
2023-03-09 23:21:35:344,-5.26505,-6.37318,0.479635,103.949,-41.7422,-152.588
2023-03-09 23:21:35:354,-5.70284,-1.83111,6.1584,104.54,-41.5198,-152.697
2023-03-09 23:21:35:364,-6.49975,-2.41745,9.93261,104.364,-40.939,-151.453
2023-03-09 23:21:35:374,-5.98253,-4.55343,7.52248,103.381,-40.1612,-148.607
2023-03-09 23:21:35:385,-5.87041,-9.28003,1.45111,102.037,-39.4056,-145.032
2023-03-09 23:21:35:394,-5.82288,-12.1876,-2.63452,100.476,-39.1654,-141.91
2023-03-09 23:21:35:405,-3.9278,-3.73155,-4.71978,99.1743,-39.4724,-140.03
2023-03-09 23:21:35:414,-3.55658,-7.33126,-0.239056,99.3212,-39.1237,-139.826
2023-03-09 23:21:35:425,-4.42322,-7.22167,0.999726,100.327,-39.1252,-140.077
2023-03-09 23:21:35:434,-4.86582,-9.05898,-0.512288,101.65,-39.3078,-140.352
2023-03-09 23:21:35:444,-5.38657,-10.129,-1.0263,103.014,-39.8011,-140.737
2023-03-09 23:21:35:454,-5.72123,-9.99205,0.109494,104.52,-40.5861,-141.18
2023-03-09 23:21:35:465,-5.84396,-9.31188,1.56521,106.325,-41.7145,-141.523
2023-03-09 23:21:35:474,-5.62295,-8.18615,1.78878,108.75,-43.1501,-141.817
2023-03-09 23:21:35:484,-5.70089,-6.38066,1.51166,111.817,-44.6611,-142.259
2023-03-09 23:21:35:494,-6.72814,-3.88515,2.15598,115.052,-46.3091,-143.024
2023-03-09 23:21:35:505,-7.70549,-4.18627,3.77478,117.76,-48.2205,-143.953
2023-03-09 23:21:35:514,-8.81834,-4.60626,5.05142,119.328,-49.9714,-144.512
2023-03-09 23:21:35:525,-10.0346,-3.90955,4.90796,119.446,-51.3774,-144.523
2023-03-09 23:21:35:534,-10.2521,-4.00179,3.33159,118.46,-52.4361,-144.253
2023-03-09 23:21:35:544,-9.57653,-5.11077,1.14342,117.051,-53.3126,-143.857
2023-03-09 23:21:35:554,-7.17546,-5.46425,-2.24514,115.848,-54.2026,-143.338
2023-03-09 23:21:35:564,-4.98075,-7.83308,-3.79352,117.273,-55.2896,-144.064
2023-03-09 23:21:35:574,-4.60325,-4.8409,-1.81959,121.075,-56.5705,-146.852
2023-03-09 23:21:35:584,-6.01634,-4.47728,1.36158,126.553,-57.6533,-151.304
2023-03-09 23:21:35:594,-8.49018,-3.23899,0.941632,131.825,-58.7057,-156.074
2023-03-09 23:21:35:604,-9.69234,-2.38079,-0.274756,136.808,-59.316,-160.883
2023-03-09 23:21:35:614,-9.81411,-1.85897,-1.14867,142.179,-59.3127,-165.872
2023-03-09 23:21:35:624,-10.1709,-1.33687,-0.192879,148.337,-58.634,-171.145
2023-03-09 23:21:35:634,-11.5653,-0.619702,1.59014,154.882,-57.2657,-176.148
2023-03-09 23:21:35:644,-12.2094,-0.704384,5.87678,161.026,-55.1288,179.854
2023-03-09 23:21:35:654,-11.8251,-1.14373,8.10842,166.15,-53.0285,177.217
2023-03-09 23:21:35:664,-10.8423,-1.31797,8.38942,170.095,-51.2461,175.547
2023-03-09 23:21:35:674,-10.5981,-1.27687,10.9688,173.089,-49.2219,174.043
2023-03-09 23:21:35:684,-9.14047,-0.644758,10.8201,174.868,-47.6664,172.957
2023-03-09 23:21:35:694,-6.7647,-0.334636,8.10002,175.349,-46.61,172.665
2023-03-09 23:21:35:704,-6.30417,-1.74717,7.15095,174.897,-45.6401,173.091
2023-03-09 23:21:35:714,-6.06353,-0.860904,5.80023,174.272,-44.9593,173.855
2023-03-09 23:21:35:724,-6.59236,-1.38012,5.2673,173.758,-44.5285,174.881
2023-03-09 23:21:35:734,-7.8672,-1.13775,4.65937,173.704,-44.1968,175.734
2023-03-09 23:21:35:744,-8.44378,-1.30736,5.27059,173.759,-43.7748,176.55
2023-03-09 23:21:35:754,-9.03156,-0.5003,5.24017,173.644,-43.4746,177.608
2023-03-09 23:21:35:764,-6.83039,-0.487151,5.75617,173.464,-43.0772,179.061
2023-03-09 23:21:35:774,-3.36431,-0.791504,6.73305,173.777,-42.2876,-179.55
2023-03-09 23:21:35:784,-2.84456,-1.49822,8.23262,174.456,-41.3608,-178.492
2023-03-09 23:21:35:794,-4.29769,-0.798062,10.0894,174.948,-40.6082,-177.609
2023-03-09 23:21:35:804,-6.76938,-0.0929028,10.5291,175.065,-40.315,-176.745
2023-03-09 23:21:35:814,-6.96143,-0.702254,10.2424,174.785,-40.4278,-175.614
2023-03-09 23:21:35:824,-5.56063,-0.916566,8.84607,174.174,-40.8085,-174.11
2023-03-09 23:21:35:834,-3.75367,-1.54499,7.15333,173.613,-41.4012,-172.603
2023-03-09 23:21:35:844,-3.12115,-1.79913,6.70304,173.356,-41.9564,-171.375
2023-03-09 23:21:35:854,-3.69068,-1.78478,7.68746,173.419,-42.2528,-170.521
2023-03-09 23:21:35:864,-3.75708,-1.69033,7.84812,173.696,-42.4763,-169.93
2023-03-09 23:21:35:874,-3.87174,-1.59086,8.05747,174.01,-42.6887,-169.519
2023-03-09 23:21:35:884,-4.14474,-1.40091,8.55343,174.453,-42.9634,-169.388
2023-03-09 23:21:35:894,-4.32403,-1.09942,8.99412,175.029,-43.3952,-169.483
2023-03-09 23:21:35:905,-4.89734,-0.57726,9.41169,175.772,-43.952,-169.877
2023-03-09 23:21:35:914,-3.3552,-1.08721,8.77637,176.739,-44.6134,-170.551
2023-03-09 23:21:35:924,-4.25534,6.01635e-05,9.65635,178.142,-44.7186,-171.811
2023-03-09 23:21:35:934,-6.02446,0.805093,9.25582,179.715,-44.4385,-173.397
2023-03-09 23:21:35:944,-6.4982,-0.245145,9.52029,-178.943,-43.7447,-174.905
2023-03-09 23:21:35:954,-5.7607,0.170945,11.6621,-177.784,-42.6547,-176.277
2023-03-09 23:21:35:964,-5.60465,0.578422,12.7249,-176.932,-41.5464,-177.499
2023-03-09 23:21:35:974,-5.20277,0.377978,12.3996,-176.569,-40.7607,-178.766
2023-03-09 23:21:35:984,-4.87819,0.749471,10.8276,-176.503,-40.2851,179.777
2023-03-09 23:21:35:994,-5.85552,1.57001,9.16638,-176.383,-39.8683,178.138
2023-03-09 23:21:36:5,-7.23806,1.49942,7.84308,-175.853,-39.3062,176.243
2023-03-09 23:21:36:14,-8.44349,1.79454,6.787,-174.967,-38.5128,174.079
2023-03-09 23:21:36:24,-8.99216,1.71803,6.71041,-174.005,-37.4144,171.988
2023-03-09 23:21:36:34,-9.25549,1.77834,6.57351,-172.992,-36.1064,170.153
2023-03-09 23:21:36:44,-9.09575,1.37229,6.50377,-172.052,-34.7275,168.613
2023-03-09 23:21:36:54,-8.95023,0.904003,7.22769,-171.397,-33.1633,167.48
2023-03-09 23:21:36:64,-8.94908,1.1392,7.63941,-171.091,-31.5778,166.734
2023-03-09 23:21:36:74,-8.28939,1.10298,7.98662,-171.234,-30.0962,166.428
2023-03-09 23:21:36:84,-6.83202,1.25667,8.66338,-171.758,-28.6555,166.539
2023-03-09 23:21:36:94,-5.02623,0.568518,8.2629,-172.502,-27.315,166.954
2023-03-09 23:21:36:104,-3.43628,-0.268993,6.87204,-173.469,-26.0224,167.459
2023-03-09 23:21:36:114,-2.32007,-0.689591,5.65616,-174.575,-24.5692,167.874
2023-03-09 23:21:36:124,-1.3114,-0.783463,3.87143,-175.656,-22.9057,168.17
2023-03-09 23:21:36:134,-0.543321,-0.487204,3.68664,-176.752,-20.9158,168.455
2023-03-09 23:21:36:144,0.0587784,0.402134,5.01907,-177.403,-18.6368,168.607
2023-03-09 23:21:36:154,0.644661,0.71548,5.24941,-177.195,-16.2393,168.435
2023-03-09 23:21:36:164,1.75699,0.43555,6.01643,-176.345,-13.6875,167.818
2023-03-09 23:21:36:174,2.94441,0.673209,8.07439,-174.97,-10.8962,166.711
2023-03-09 23:21:36:184,3.18838,2.36649,8.95068,-172.954,-7.85812,165.118
2023-03-09 23:21:36:194,2.36713,3.88319,11.1038,-170.75,-4.57004,163.254
2023-03-09 23:21:36:204,1.12921,5.23703,13.3069,-168.817,-1.28211,161.313
2023-03-09 23:21:36:214,-0.29599,6.55727,15.148,-167.587,1.79249,159.463
2023-03-09 23:21:36:224,-2.53561,7.28295,16.587,-167.07,4.56769,157.845
2023-03-09 23:21:36:234,-5.59598,7.56386,18.4584,-167.292,6.97573,156.548
2023-03-09 23:21:36:244,-6.21606,6.94002,17.9936,-168.35,8.83255,155.846
2023-03-09 23:21:36:254,-5.06105,6.68137,16.5377,-170.162,10.6005,155.752
2023-03-09 23:21:36:264,-4.2106,7.1141,15.988,-172.365,12.5228,156.044
2023-03-09 23:21:36:274,-4.01134,6.87208,15.689,-174.814,14.4605,156.644
2023-03-09 23:21:36:284,-2.95416,5.64,15.0553,-177.417,16.2008,157.668
2023-03-09 23:21:36:294,-0.598207,4.15215,12.7203,179.924,17.5873,159.2
2023-03-09 23:21:36:304,1.70601,2.66069,10.1602,177.458,18.8278,161.182
2023-03-09 23:21:36:314,4.94305,1.66961,8.15144,175.428,20.2575,163.397
2023-03-09 23:21:36:325,7.4867,2.20548,7.62434,173.809,22.3028,165.051
2023-03-09 23:21:36:334,7.25443,1.41972,9.85108,172.454,24.6762,165.904
2023-03-09 23:21:36:344,9.17084,0.113739,8.97409,170.867,26.2528,166.199
2023-03-09 23:21:36:354,9.7971,-3.00988,6.90636,169.023,27.0883,166.292
2023-03-09 23:21:36:364,9.41139,-3.2672,1.6653,167.296,27.2235,166.543
2023-03-09 23:21:36:374,9.03779,-4.64368,-1.51543,166.061,27.2987,166.7
2023-03-09 23:21:36:384,6.86352,-5.57245,0.771246,165.492,27.6433,166.569
2023-03-09 23:21:36:394,5.99697,-6.2921,1.78834,165.084,27.9866,166.314
2023-03-09 23:21:36:405,5.69534,-6.28978,3.78146,164.588,28.5582,165.82
2023-03-09 23:21:36:414,5.38106,-5.15282,6.17746,163.797,29.098,165.139
2023-03-09 23:21:36:425,4.86824,-4.6235,7.55709,162.353,29.6052,164.366
2023-03-09 23:21:36:434,4.84889,-4.4297,7.37547,160.428,30.2565,163.453
2023-03-09 23:21:36:444,4.41372,-4.21619,6.25406,158.128,30.9212,162.424
2023-03-09 23:21:36:454,4.02116,-4.25989,5.0861,155.771,31.3666,161.502
2023-03-09 23:21:36:465,4.25558,-4.62081,4.72124,153.762,31.6138,160.831
2023-03-09 23:21:36:474,4.80913,-4.79416,5.34934,152.164,31.711,160.395
2023-03-09 23:21:36:485,5.18632,-4.71903,5.7422,150.938,31.5805,160.131
2023-03-09 23:21:36:494,5.54706,-4.64467,6.1823,150.094,31.2497,159.977
2023-03-09 23:21:36:505,3.86899,-4.24434,10.9297,149.513,30.7611,159.765
2023-03-09 23:21:36:514,3.2439,-4.04776,9.021,148.541,29.9419,159.875
2023-03-09 23:21:36:524,3.60519,-5.06568,4.96504,147.426,29.4315,159.715
2023-03-09 23:21:36:534,1.5712,-4.53674,5.19225,146.619,29.077,159.148
2023-03-09 23:21:36:545,0.650376,-5.23021,7.06644,146.336,28.7867,158.837
2023-03-09 23:21:36:554,1.1294,-4.80682,6.96754,146.328,28.5627,158.971
2023-03-09 23:21:36:565,2.02798,-5.17405,6.62996,146.561,28.447,159.459
2023-03-09 23:21:36:574,2.70916,-5.09244,6.09421,146.991,28.1992,160.297
2023-03-09 23:21:36:585,2.83395,-4.57257,6.09338,147.618,27.7147,161.471
2023-03-09 23:21:36:594,2.32554,-3.71775,8.20731,148.728,26.8745,163.086
2023-03-09 23:21:36:605,2.63333,-3.46294,9.65337,150.456,25.592,165.296
2023-03-09 23:21:36:614,3.71259,-3.76846,8.8261,152.459,24.1885,167.74
2023-03-09 23:21:36:624,4.73888,-3.91604,7.93075,154.12,23.0807,169.837
2023-03-09 23:21:36:634,4.97433,-3.70974,8.22135,155.193,22.4247,171.319
2023-03-09 23:21:36:644,4.38584,-3.54782,9.2239,155.78,22.0481,172.328
2023-03-09 23:21:36:654,3.53292,-3.50143,9.76648,155.973,21.6665,173.163
2023-03-09 23:21:36:664,2.81592,-3.40592,9.20069,155.855,21.1325,174.044
2023-03-09 23:21:36:674,1.98495,-3.28061,8.10998,155.57,20.4678,175.036
2023-03-09 23:21:36:684,1.54905,-3.15598,7.43781,155.375,19.7272,176.212
2023-03-09 23:21:36:694,1.72081,-3.32805,7.48574,155.585,18.8868,177.693
2023-03-09 23:21:36:704,1.55432,-3.35482,9.39108,156.286,17.8958,179.532
2023-03-09 23:21:36:715,1.76493,-3.54071,12.6415,157.18,16.587,-178.144
2023-03-09 23:21:36:725,3.25689,-3.81373,12.7357,157.789,14.9434,-175.437
2023-03-09 23:21:36:734,4.7397,-3.22711,9.91149,157.966,13.3063,-172.851
2023-03-09 23:21:36:744,5.12323,-2.36312,7.178,157.992,11.9976,-170.768
2023-03-09 23:21:36:754,4.66993,-2.78175,7.64124,158.061,11.0362,-169.24
2023-03-09 23:21:36:765,4.31677,-3.27076,8.43011,158.066,10.175,-168.105
2023-03-09 23:21:36:774,3.88205,-3.35087,8.73248,157.99,9.35139,-167.246
2023-03-09 23:21:36:784,3.17336,-3.22117,8.79165,157.821,8.46997,-166.587
2023-03-09 23:21:36:794,2.87172,-3.31044,8.53433,157.625,7.42563,-166.066
2023-03-09 23:21:36:804,1.17133,-2.99542,8.87372,157.418,6.23347,-165.664
2023-03-09 23:21:36:814,0.278267,-3.38115,9.17981,157.347,4.83568,-165.089
2023-03-09 23:21:36:824,0.393926,-3.7847,9.53925,157.561,3.33668,-164.252
2023-03-09 23:21:36:834,0.539438,-3.71443,9.53624,157.931,1.70883,-163.217
2023-03-09 23:21:36:844,0.646683,-3.56675,9.82053,158.267,-0.0224266,-162.076
2023-03-09 23:21:36:854,0.94793,-3.56522,9.75229,158.478,-1.8286,-160.845
2023-03-09 23:21:36:864,1.00607,-3.38836,9.58411,158.577,-3.68163,-159.634
2023-03-09 23:21:36:874,1.21194,-3.4221,9.37681,158.509,-5.6543,-158.485
2023-03-09 23:21:36:884,0.56756,-3.41771,9.21511,158.166,-7.82405,-157.449
2023-03-09 23:21:36:894,-0.57297,-3.57914,8.55952,157.684,-10.366,-156.581
2023-03-09 23:21:36:904,-1.80404,-3.56332,7.9926,157.075,-13.1899,-155.791
2023-03-09 23:21:36:914,-2.64561,-3.44661,8.43212,156.358,-16.1449,-154.985
2023-03-09 23:21:36:924,-2.40793,-3.56009,8.72326,155.438,-19.2424,-154.04
2023-03-09 23:21:36:934,-2.29128,-3.65741,7.38292,154.242,-22.3433,-152.97
2023-03-09 23:21:36:944,-2.72606,-3.59259,6.62704,152.649,-25.0705,-152.056
2023-03-09 23:21:36:954,-3.67375,-3.70079,7.80171,151.24,-27.5095,-151.5
2023-03-09 23:21:36:964,-4.18151,-3.47969,7.27206,149.87,-29.8192,-150.958
2023-03-09 23:21:36:974,-4.60426,-4.15634,6.91143,148.757,-32.0219,-150.388
2023-03-09 23:21:36:984,-5.65229,-3.81876,7.00044,147.845,-34.1016,-149.737
2023-03-09 23:21:36:994,-5.51255,-4.09504,6.08009,147.024,-35.8459,-149.083
2023-03-09 23:21:37:4,-5.99439,-4.24401,5.39248,146.534,-37.2554,-148.782
2023-03-09 23:21:37:14,-7.38942,-3.78192,5.96678,146.258,-38.4342,-148.841
2023-03-09 23:21:37:24,-7.70892,-3.76041,5.80218,145.884,-39.4494,-148.984
2023-03-09 23:21:37:34,-8.11712,-3.38293,7.07249,145.449,-40.3567,-149.263
2023-03-09 23:21:37:44,-7.97845,-3.53567,7.73444,144.668,-41.3421,-149.374
2023-03-09 23:21:37:54,-7.92374,-3.98196,5.78914,143.694,-42.2839,-149.229
2023-03-09 23:21:37:64,-8.21423,-3.61997,5.74653,142.804,-42.9234,-149.008
2023-03-09 23:21:37:74,-6.393,-4.18468,6.08794,141.993,-43.2859,-148.622
2023-03-09 23:21:37:84,-4.42592,-4.38573,5.82237,141.535,-43.4466,-148.4
2023-03-09 23:21:37:94,-3.36743,-4.15306,6.21885,141.573,-43.388,-148.793
2023-03-09 23:21:37:104,-3.0324,-4.24919,7.34023,142.02,-43.1746,-149.904
2023-03-09 23:21:37:114,-4.21625,-4.30262,8.26234,142.51,-42.9166,-151.43
2023-03-09 23:21:37:124,-4.99419,-4.39522,7.75876,142.606,-42.7883,-152.96
2023-03-09 23:21:37:134,-5.19414,-4.62672,6.22146,142.299,-42.8717,-154.38
2023-03-09 23:21:37:144,-5.71803,-4.84854,4.60772,141.894,-43.1179,-155.73
2023-03-09 23:21:37:154,-7.22325,-4.89675,3.80206,141.665,-43.4,-157.074
2023-03-09 23:21:37:164,-8.49494,-4.90469,3.89457,141.531,-43.6329,-158.248
2023-03-09 23:21:37:174,-8.69541,-5.11999,4.05527,141.452,-43.7508,-159.055
2023-03-09 23:21:37:184,-8.47518,-4.98277,4.30848,141.49,-43.69,-159.611
2023-03-09 23:21:37:194,-8.00735,-4.88736,4.65452,141.603,-43.4549,-160.084
2023-03-09 23:21:37:204,-7.9608,-4.84543,5.35564,141.805,-43.0742,-160.621
2023-03-09 23:21:37:214,-7.94703,-4.83589,5.50989,141.946,-42.6072,-161.175
2023-03-09 23:21:37:224,-7.59887,-4.875,4.48789,141.993,-42.0797,-161.803
2023-03-09 23:21:37:234,-8.23109,-4.66438,3.97802,142.086,-41.4799,-162.617
2023-03-09 23:21:37:244,-9.29648,-4.90922,4.28633,142.075,-40.7892,-163.386
2023-03-09 23:21:37:254,-9.94083,-4.89215,3.93036,141.753,-40.0225,-163.885
2023-03-09 23:21:37:264,-9.80275,-4.9981,3.19185,141.142,-39.1697,-164.033
2023-03-09 23:21:37:274,-9.28239,-4.78442,2.24493,140.388,-38.2958,-163.819
2023-03-09 23:21:37:284,-8.53179,-4.75742,1.80539,139.688,-37.3766,-163.196
2023-03-09 23:21:37:294,-7.71616,-4.58731,1.95493,139.289,-36.3743,-162.28
2023-03-09 23:21:37:304,-7.25502,-4.2036,3.2542,139.428,-35.1982,-161.376
2023-03-09 23:21:37:314,-6.73746,-4.17516,4.61944,140.158,-33.8767,-160.593
2023-03-09 23:21:37:324,-5.94487,-3.88049,5.3964,141.315,-32.3129,-160.018
2023-03-09 23:21:37:334,-4.99283,-3.63272,6.42383,142.662,-30.4311,-159.821
2023-03-09 23:21:37:344,-4.45855,-3.67461,7.82601,143.952,-28.3389,-160.031
2023-03-09 23:21:37:354,-4.19387,-3.70316,8.63713,144.752,-26.3003,-160.426
2023-03-09 23:21:37:364,-4.16634,-3.7286,8.88067,144.857,-24.4293,-160.82
2023-03-09 23:21:37:374,-3.70616,-4.24257,8.25446,144.401,-22.7344,-161.139
2023-03-09 23:21:37:384,-3.29668,-5.33135,7.30153,143.875,-21.1396,-161.441
2023-03-09 23:21:37:394,-3.39221,-4.86297,7.93058,143.054,-19.5461,-161.619
2023-03-09 23:21:37:404,-2.13973,-5.21365,8.08442,141.722,-18.1282,-161.384
2023-03-09 23:21:37:414,-0.140967,-6.1748,6.51268,140.039,-16.8506,-160.805
2023-03-09 23:21:37:425,1.90051,-7.54399,4.84791,138.433,-15.6063,-160.221
2023-03-09 23:21:37:434,2.98418,-8.02403,4.71648,137.204,-14.4312,-159.898
2023-03-09 23:21:37:444,2.53579,-7.12006,5.39523,136.328,-13.5258,-159.823
2023-03-09 23:21:37:454,1.8249,-7.38786,6.19697,135.599,-12.9267,-159.732
2023-03-09 23:21:37:464,1.18083,-7.20888,6.29109,134.973,-12.6448,-159.52
2023-03-09 23:21:37:474,0.371577,-6.03813,4.6648,134.556,-12.5676,-159.223
2023-03-09 23:21:37:484,-1.01218,-5.96203,2.56389,134.506,-12.453,-158.922
2023-03-09 23:21:37:494,-2.55508,-7.07087,4.48245,134.921,-12.2089,-158.869
2023-03-09 23:21:37:504,-2.98045,-8.3903,9.91925,135.472,-12.0533,-158.77
2023-03-09 23:21:37:514,-1.88675,-6.79998,11.0954,135.94,-12.3741,-158.199
2023-03-09 23:21:37:524,-5.55561,-5.4177,12.9808,136.669,-12.6148,-157.867
2023-03-09 23:21:37:534,-9.65764,-0.95358,14.3864,135.232,-12.9425,-158.059
2023-03-09 23:21:37:545,-7.19746,-5.79452,9.47211,132.432,-13.1646,-157.05
2023-03-09 23:21:37:554,-4.05049,-4.63038,4.56126,128.85,-13.4857,-155.61
2023-03-09 23:21:37:564,-2.35235,-3.74902,1.19062,125.188,-13.6343,-154.114
2023-03-09 23:21:37:574,-0.461266,-4.43102,1.38329,121.787,-13.4336,-152.814
2023-03-09 23:21:37:584,0.344715,-7.18075,3.68942,118.768,-13.1639,-151.706
2023-03-09 23:21:37:594,1.28178,-8.2685,3.65687,115.596,-13.2557,-150.257
2023-03-09 23:21:37:604,2.25965,-6.98381,1.79517,112.36,-13.8223,-148.635
2023-03-09 23:21:37:614,3.48678,-9.08654,1.57537,110.019,-14.6203,-147.509
2023-03-09 23:21:37:624,1.59481,-11.3013,3.65643,108.279,-15.6287,-147.129
2023-03-09 23:21:37:634,-2.11295,-14.1554,3.89569,107.196,-16.5886,-147.381
2023-03-09 23:21:37:644,-8.84591,-12.5907,5.92167,106.508,-17.3581,-147.935
2023-03-09 23:21:37:654,-13.2205,-5.21779,4.29094,106.943,-18.0635,-147.498
2023-03-09 23:21:37:664,-8.19078,-7.8288,-1.75422,108.228,-17.8681,-145.856
2023-03-09 23:21:37:674,0.549707,-13.0207,-3.3093,109.064,-16.5547,-144.371
2023-03-09 23:21:37:684,-0.113608,-8.85253,3.32313,110.862,-14.8988,-143.859
2023-03-09 23:21:37:694,-1.08457,-11.542,9.44055,114.067,-12.3668,-143.85
2023-03-09 23:21:37:704,-1.37752,-11.5347,9.10086,117.433,-9.91616,-143.505
2023-03-09 23:21:37:714,-0.695136,-11.5252,8.12909,120.495,-8.17536,-142.464
2023-03-09 23:21:37:724,-0.256815,-11.1796,8.90625,123.419,-7.35424,-141.068
2023-03-09 23:21:37:734,0.143597,-10.5292,7.18499,125.93,-7.14892,-139.5
2023-03-09 23:21:37:744,-0.389947,-12.6724,5.89896,127.505,-6.9376,-138.596
2023-03-09 23:21:37:754,-1.66285,-11.0516,9.45986,128.073,-6.09403,-139.171
2023-03-09 23:21:37:764,1.09377,-5.36178,12.812,128.797,-4.64485,-139.827
2023-03-09 23:21:37:774,2.4165,-2.11408,6.47788,130.535,-2.91172,-140.501
2023-03-09 23:21:37:784,2.95516,-9.76084,-5.50476,132.941,-0.399388,-141.766
2023-03-09 23:21:37:794,-0.751535,-10.1174,5.65935,135.563,2.64173,-144.815
2023-03-09 23:21:37:804,-1.78371,-9.102,8.81786,137.454,4.81801,-147.474
2023-03-09 23:21:37:814,-0.31147,-8.70319,8.24143,138.364,5.77446,-148.874
2023-03-09 23:21:37:824,0.543098,-7.4456,7.65064,138.016,6.44716,-149.743
2023-03-09 23:21:37:834,1.51722,-6.49912,6.38336,136.845,6.77965,-150.486
2023-03-09 23:21:37:844,1.102,-6.79313,3.54739,135.286,6.80111,-150.874
2023-03-09 23:21:37:854,-0.88624,-8.42451,0.827316,133.402,6.91032,-151.259
2023-03-09 23:21:37:864,-0.645347,-9.9131,1.36222,131.557,7.26898,-152.344
2023-03-09 23:21:37:874,-0.129532,-9.64151,3.59597,129.963,7.44955,-153.934
2023-03-09 23:21:37:884,-1.25492,-9.08895,5.51482,128.583,7.35912,-155.543
2023-03-09 23:21:37:894,-0.412469,-8.8101,6.9908,127.282,7.09211,-157.102
2023-03-09 23:21:37:904,-0.0870361,-8.24455,6.70726,126.07,6.54147,-158.327
2023-03-09 23:21:37:914,0.210265,-8.66684,6.16848,125.035,5.92467,-159.389
2023-03-09 23:21:37:924,0.671241,-8.68921,5.49905,124.145,5.13711,-160.347
2023-03-09 23:21:37:934,0.693936,-8.45817,5.44563,123.283,4.39634,-161.103
2023-03-09 23:21:37:944,-0.30015,-9.23283,6.76785,122.489,3.7656,-161.701
2023-03-09 23:21:37:954,-0.94278,-10.6574,7.63635,121.977,3.05488,-162.157
2023-03-09 23:21:37:964,0.577215,-11.354,7.73964,121.943,2.23098,-162.64
2023-03-09 23:21:37:974,1.36086,-10.3112,8.09758,122.413,1.30894,-163.213
2023-03-09 23:21:37:984,1.54904,-7.94414,8.52926,123.417,0.308679,-163.813
2023-03-09 23:21:37:994,2.53229,-6.32532,8.11371,124.834,-0.548008,-164.138
2023-03-09 23:21:38:4,1.51857,-6.196,9.03045,126.603,-1.47931,-164.408
2023-03-09 23:21:38:14,0.281241,-6.05754,10.1378,128.376,-2.77212,-164.755
2023-03-09 23:21:38:24,-0.951177,-4.4219,12.0925,130.141,-4.48712,-165.222
2023-03-09 23:21:38:34,-1.71874,-3.98977,12.9561,131.732,-6.55114,-165.251
2023-03-09 23:21:38:44,-2.58968,-4.61784,11.0266,132.803,-8.77602,-164.6
2023-03-09 23:21:38:54,-1.68257,-6.77871,9.60376,133.179,-10.867,-163.869
2023-03-09 23:21:38:64,-0.773703,-7.06595,8.96199,132.814,-13.0126,-163.363
2023-03-09 23:21:38:74,-0.675851,-5.96163,7.86837,131.978,-15.1935,-162.923
2023-03-09 23:21:38:84,0.153048,-5.69956,7.054,131.257,-17.1687,-162.651
2023-03-09 23:21:38:94,0.298772,-5.39825,7.83564,130.785,-18.8389,-162.693
2023-03-09 23:21:38:104,-0.749901,-5.03025,8.68525,130.563,-20.3987,-162.948
2023-03-09 23:21:38:114,-1.41954,-5.83103,8.21055,130.566,-21.8903,-163.274
2023-03-09 23:21:38:124,-2.20929,-7.11322,7.37733,130.754,-23.3012,-163.778
2023-03-09 23:21:38:134,-2.72365,-7.76099,5.68965,130.987,-24.7562,-164.486
2023-03-09 23:21:38:144,-3.10641,-8.1024,4.81638,131.314,-26.418,-165.457
2023-03-09 23:21:38:154,-3.51921,-8.18548,5.01271,131.739,-28.2988,-166.777
2023-03-09 23:21:38:164,-3.7143,-7.2646,5.18476,132.039,-30.2534,-168.296
2023-03-09 23:21:38:174,-3.09101,-7.37809,4.61522,132.131,-31.9765,-169.792
2023-03-09 23:21:38:184,-4.26744,-7.52282,4.8048,132.121,-33.5105,-171.336
2023-03-09 23:21:38:194,-7.66298,-5.26265,5.0526,132.415,-35.0514,-172.859
2023-03-09 23:21:38:204,-7.05878,-5.11142,5.84922,133.04,-36.4062,-173.869
2023-03-09 23:21:38:214,-6.16904,-4.26468,1.35775,133.314,-37.7276,-174.268
2023-03-09 23:21:38:224,-4.56881,-4.9124,-2.11033,133.277,-38.768,-175.174
2023-03-09 23:21:38:234,-5.5772,-5.32092,2.3998,133.172,-39.6916,-177.18
2023-03-09 23:21:38:244,-6.82852,-4.87104,5.57146,132.896,-40.9382,-178.815
2023-03-09 23:21:38:254,-5.30315,-4.17022,5.32496,132.665,-42.3221,-179.383
2023-03-09 23:21:38:264,-3.71654,-4.21302,4.58311,132.365,-43.5152,-179.484
2023-03-09 23:21:38:274,-5.20842,-1.88374,4.32922,132.208,-44.5852,-179.659
2023-03-09 23:21:38:284,-5.82797,-3.31324,3.41536,132.204,-45.7789,-179.804
2023-03-09 23:21:38:294,-5.6012,-3.97982,1.04705,131.802,-47.0764,-179.724
2023-03-09 23:21:38:304,-6.48539,-2.44329,-0.0923152,131.587,-48.423,-179.992
2023-03-09 23:21:38:314,-6.97193,-3.87144,0.399799,131.7,-49.6212,179.384
2023-03-09 23:21:38:324,-7.75531,-3.05055,0.873648,132.088,-50.7056,178.271
2023-03-09 23:21:38:334,-7.33011,-2.35078,1.79654,132.978,-51.6025,176.816
2023-03-09 23:21:38:344,-5.12668,-3.3893,2.38402,134.646,-52.169,174.813
2023-03-09 23:21:38:354,-4.97664,-2.05617,2.95284,137.017,-52.3051,171.883
2023-03-09 23:21:38:364,-5.1089,-0.435442,2.88935,139.65,-51.8481,168.922
2023-03-09 23:21:38:374,-6.03649,-1.51029,3.23091,142.243,-50.8196,166.447
2023-03-09 23:21:38:384,-7.20564,-3.21004,4.24205,144.504,-49.5567,164.579
2023-03-09 23:21:38:394,-6.69638,-3.29771,4.29918,146.613,-48.2124,162.965
2023-03-09 23:21:38:404,-5.18136,-3.33366,4.37396,148.602,-46.7954,161.57
2023-03-09 23:21:38:414,-4.10772,-3.85256,5.35269,150.692,-45.2569,160.067
2023-03-09 23:21:38:424,-4.04758,-3.89829,6.28687,152.757,-43.673,158.468
2023-03-09 23:21:38:434,-5.1645,-3.30084,6.39428,154.708,-42.198,156.998
2023-03-09 23:21:38:444,-5.13706,-3.08328,6.49345,156.662,-40.7908,155.89
2023-03-09 23:21:38:454,-3.90409,-2.73794,7.87836,158.787,-39.3907,155.024
2023-03-09 23:21:38:464,-2.44538,-2.55387,8.8398,160.922,-38.0602,154.392
2023-03-09 23:21:38:474,-2.28999,-0.322284,8.21612,163.036,-36.889,153.843
2023-03-09 23:21:38:484,-3.59524,1.1871,7.43504,164.822,-35.6438,153.814
2023-03-09 23:21:38:494,-3.2599,0.573037,7.18321,166.169,-34.1354,154.615
2023-03-09 23:21:38:504,-1.79287,0.197645,7.86017,167.285,-32.4287,155.795
2023-03-09 23:21:38:514,-1.32105,-0.497538,10.4987,168.516,-30.6508,156.668
2023-03-09 23:21:38:524,-2.79868,-0.271757,11.5173,169.371,-29.1267,156.912
2023-03-09 23:21:38:534,-4.28941,1.29417,9.83895,169.347,-27.9198,156.799
2023-03-09 23:21:38:544,-4.30372,2.41495,8.40142,168.705,-26.7971,157.036
2023-03-09 23:21:38:554,-3.81279,1.18719,7.47975,168.035,-25.711,157.808
2023-03-09 23:21:38:564,-2.52995,-0.210317,6.18775,167.59,-24.71,158.759
2023-03-09 23:21:38:574,-1.9412,0.356681,5.0512,167.791,-23.7358,159.44
2023-03-09 23:21:38:584,-2.41177,3.62651,5.80415,168.732,-22.7509,159.807
2023-03-09 23:21:38:594,-3.54825,3.98481,8.2929,170.731,-21.866,160.416
2023-03-09 23:21:38:604,-4.69757,1.57565,9.58364,173.694,-21.4331,161.277
2023-03-09 23:21:38:614,-5.2488,0.380374,9.47829,177.078,-21.5345,162.235
2023-03-09 23:21:38:624,-5.03311,-0.721431,8.94523,-179.064,-21.8016,163
2023-03-09 23:21:38:634,-5.17075,1.99724,9.59782,-174.671,-22.0483,163.146
2023-03-09 23:21:38:644,-9.00291,8.24794,23.0603,-170.291,-22.3983,163.096
2023-03-09 23:21:38:654,-5.27019,5.46857,16.5825,-168.514,-24.6241,163.515
2023-03-09 23:21:38:664,-4.19128,6.08347,8.78044,-167.905,-26.7556,163.595
2023-03-09 23:21:38:674,-5.54249,4.25486,10.9779,-166.685,-28.2252,163.678
2023-03-09 23:21:38:684,-6.06167,3.31115,12.6176,-165.143,-29.4524,163.909
2023-03-09 23:21:38:694,-5.91249,3.26973,12.0546,-163.568,-30.6342,164.298
2023-03-09 23:21:38:704,-5.41759,3.77942,9.9938,-161.904,-31.6812,164.782
2023-03-09 23:21:38:714,-5.02372,4.25414,8.38281,-160.157,-32.3471,165.405
2023-03-09 23:21:38:724,-4.48139,3.82318,7.40377,-158.428,-32.6404,166.212
2023-03-09 23:21:38:734,-3.48964,2.69678,5.48262,-156.729,-32.6285,167.101
2023-03-09 23:21:38:744,-2.42321,1.71574,3.54934,-154.876,-32.1872,167.913
2023-03-09 23:21:38:754,-1.70016,1.47019,3.34429,-152.351,-31.2109,168.413
2023-03-09 23:21:38:764,-4.1473,2.07467,10.2603,-148.933,-29.9288,168.495
2023-03-09 23:21:38:774,-7.22687,1.83363,15.0362,-145.576,-29.4842,167.971
2023-03-09 23:21:38:784,-4.48002,0.210498,6.76537,-142.57,-30.1236,166.432
2023-03-09 23:21:38:794,-3.6908,-0.573371,3.62065,-139.062,-30.3337,164.11
2023-03-09 23:21:38:804,-4.47298,1.01719,2.14892,-134.782,-29.6276,160.952
2023-03-09 23:21:38:814,-6.07416,2.26437,2.07133,-129.691,-28.0614,157.434
2023-03-09 23:21:38:824,-6.68388,2.4947,1.662,-124.459,-25.7264,153.989
2023-03-09 23:21:38:834,-6.18743,2.01746,0.496682,-119.833,-22.6251,150.983
2023-03-09 23:21:38:844,-5.51054,2.82258,-0.239785,-116.696,-18.6909,148.684
2023-03-09 23:21:38:854,-5.22757,5.7865,0.441921,-115.244,-14.1006,147.198
2023-03-09 23:21:38:864,-4.50127,7.5601,1.09285,-114.757,-9.28672,146.491
2023-03-09 23:21:38:874,-4.53822,6.48772,3.37857,-115.086,-4.5363,146.54
2023-03-09 23:21:38:884,-9.46126,16.0987,9.00609,-116.026,0.0393446,146.86
2023-03-09 23:21:38:894,-18.1742,30.569,18.1359,-116.138,3.17177,147.196
2023-03-09 23:21:38:904,-20.7042,35.4407,21.1266,-115.471,3.15285,147.207
2023-03-09 23:21:38:914,-16.5934,30.5228,19.1917,-114.967,-0.00477098,146.839
2023-03-09 23:21:38:924,-10.7586,20.0888,14.2924,-115.087,-5.34903,145.855
2023-03-09 23:21:38:934,-6.17349,10.574,9.1066,-115.505,-11.36,144.241
2023-03-09 23:21:38:944,-5.17609,7.51375,6.88202,-116.232,-17.1712,142.218
2023-03-09 23:21:38:954,-6.5694,7.25816,6.09239,-116.985,-22.681,140.051
2023-03-09 23:21:38:964,-7.54191,5.33058,5.77924,-117.637,-28.1565,138.099
2023-03-09 23:21:38:974,-8.29128,4.65564,6.89918,-118.223,-33.3895,136.226
2023-03-09 23:21:38:984,-9.0274,5.93162,9.6002,-118.139,-38.1742,133.953
2023-03-09 23:21:38:994,-9.67294,6.86441,10.5179,-116.504,-42.8494,130.657
2023-03-09 23:21:39:4,-9.65303,7.10699,6.95658,-113.272,-47.4248,126.17
2023-03-09 23:21:39:14,-8.48207,6.18531,3.27238,-109.824,-51.6939,121.413
2023-03-09 23:21:39:24,-6.89857,5.302,3.58541,-107.421,-55.5337,117.31
2023-03-09 23:21:39:34,-6.43092,5.39756,6.75602,-105.824,-59.0289,113.648
2023-03-09 23:21:39:44,-6.86524,6.04377,9.66092,-103.623,-62.3181,109.189
2023-03-09 23:21:39:54,-6.4876,6.96733,10.3537,-99.4061,-65.4302,102.572
2023-03-09 23:21:39:64,-4.39384,6.31276,8.14631,-92.3706,-68.1258,92.9657
2023-03-09 23:21:39:74,-1.7653,3.95403,4.70052,-83.0959,-69.9431,80.9955
2023-03-09 23:21:39:84,-0.582628,2.66086,2.01157,-73.991,-70.535,68.9451
2023-03-09 23:21:39:94,0.149594,1.6839,0.756628,-67.889,-70.0943,59.6538
2023-03-09 23:21:39:104,0.620916,1.57675,0.735289,-65.6399,-68.9995,54.2968
2023-03-09 23:21:39:114,0.311642,2.34105,1.70918,-66.1857,-67.502,52.2767
2023-03-09 23:21:39:124,-0.21594,2.90011,1.15507,-67.8564,-65.7302,52.3218
2023-03-09 23:21:39:134,-0.975473,3.59359,-0.041814,-70.0694,-63.9858,53.7587
2023-03-09 23:21:39:144,-2.02574,5.26924,-0.347344,-73.0038,-62.4839,56.6436
2023-03-09 23:21:39:154,-3.47949,7.04142,-0.0754349,-77.0311,-61.3041,61.2033
2023-03-09 23:21:39:164,-5.47833,9.01023,1.89093,-82.4841,-60.4045,67.503
2023-03-09 23:21:39:174,-7.58905,11.3811,5.28605,-89.0146,-59.7641,74.8928
2023-03-09 23:21:39:184,-9.78132,12.2815,9.21853,-95.6206,-59.5145,82.4012
2023-03-09 23:21:39:194,-11.6412,12.3783,12.3675,-101.252,-59.8203,88.987
2023-03-09 23:21:39:204,-12.2544,11.1453,12.5266,-105.221,-60.6897,93.9574
2023-03-09 23:21:39:214,-10.5431,6.96393,9.05632,-107.976,-61.9653,97.3718
2023-03-09 23:21:39:224,-8.03767,3.25794,5.23311,-110.661,-63.2496,100.012
2023-03-09 23:21:39:234,-6.33912,1.77032,2.97595,-114.041,-64.3464,102.702
2023-03-09 23:21:39:244,-5.4556,1.42013,2.01444,-118.487,-65.2083,106.044
2023-03-09 23:21:39:254,-5.11387,1.22603,1.66233,-124.083,-65.757,110.233
2023-03-09 23:21:39:264,-5.23274,1.27,1.78767,-130.501,-65.8868,115.039
2023-03-09 23:21:39:274,-5.14725,0.635607,2.09227,-137.207,-65.5709,120.057
2023-03-09 23:21:39:284,-4.80099,0.22846,2.04583,-143.678,-64.9095,124.748
2023-03-09 23:21:39:294,-4.52951,0.0730854,1.66762,-149.813,-63.9984,128.834
2023-03-09 23:21:39:304,-5.01896,0.125805,1.48476,-155.71,-62.9087,132.269
2023-03-09 23:21:39:314,-6.72457,0.729303,1.41406,-161.436,-61.7105,135.089
2023-03-09 23:21:39:324,-8.67961,0.990475,1.77123,-166.736,-60.1747,137.026
2023-03-09 23:21:39:334,-10.9161,0.852213,3.63128,-171.01,-58.1266,137.57
2023-03-09 23:21:39:344,-12.7278,1.81456,6.44491,-173.785,-55.9218,136.596
2023-03-09 23:21:39:354,-13.5202,2.89905,7.51816,-175.141,-54.2336,134.579
2023-03-09 23:21:39:364,-13.9641,4.1497,6.77743,-175.549,-53.3787,132.041
2023-03-09 23:21:39:374,-13.9857,5.08428,5.54169,-175.701,-53.2206,129.433
2023-03-09 23:21:39:384,-13.5934,5.30085,4.64324,-176.138,-53.5407,126.96
2023-03-09 23:21:39:394,-12.5591,4.84241,4.25017,-177.193,-54.2327,124.718
2023-03-09 23:21:39:404,-11.0014,3.95008,4.01044,-178.838,-55.3304,122.669
2023-03-09 23:21:39:414,-9.68327,3.29949,3.44731,179.297,-56.8237,120.584
2023-03-09 23:21:39:424,-8.73404,3.14447,2.83861,177.571,-58.5715,118.225
2023-03-09 23:21:39:434,-7.95618,2.97609,2.42947,176.2,-60.4515,115.49
2023-03-09 23:21:39:444,-7.55722,3.03747,2.07117,175.364,-62.4051,112.275
2023-03-09 23:21:39:454,-7.13641,2.8497,1.31113,175.22,-64.3176,108.495
2023-03-09 23:21:39:464,-7.02508,2.71641,0.719021,175.929,-66.02,104.004
2023-03-09 23:21:39:474,-7.14793,2.80393,0.732688,177.664,-67.3288,98.65
2023-03-09 23:21:39:484,-7.31558,3.36975,1.05426,-179.475,-68.1913,92.4608
2023-03-09 23:21:39:494,-7.51039,3.38243,1.33659,-175.984,-68.6966,86.087
2023-03-09 23:21:39:504,-7.7243,2.80314,1.70384,-172.188,-68.9485,79.8066
2023-03-09 23:21:39:514,-7.75925,1.55232,2.38772,-168.159,-69.072,73.4611
2023-03-09 23:21:39:524,-7.60197,0.45127,2.93811,-163.198,-69.1283,66.277
2023-03-09 23:21:39:534,-6.99388,0.372558,2.76003,-156.621,-69.0163,57.6564
2023-03-09 23:21:39:544,-6.43376,0.941511,2.24005,-148.831,-68.5458,48.0224
2023-03-09 23:21:39:554,-6.29114,1.37376,1.5246,-140.88,-67.6313,38.3819
2023-03-09 23:21:39:564,-7.76025,1.93098,0.610175,-133.77,-66.2707,29.7041
2023-03-09 23:21:39:574,-9.43088,3.07279,0.864433,-128.167,-64.5838,22.8312
2023-03-09 23:21:39:584,-9.83972,4.08586,2.43475,-123.994,-62.8496,17.7181
2023-03-09 23:21:39:594,-10.1124,4.50248,2.76791,-120.748,-61.4,13.4997
2023-03-09 23:21:39:604,-11.6562,5.35825,1.80586,-118.048,-60.2816,9.83057
2023-03-09 23:21:39:614,-11.9132,5.22568,1.6073,-116.322,-59.3586,7.2658
2023-03-09 23:21:39:624,-12.9405,5.45817,1.24135,-115.479,-58.6163,5.64554
2023-03-09 23:21:39:634,-14.98,6.08724,1.66588,-115.585,-57.8646,5.08535
2023-03-09 23:21:39:644,-16.4652,6.90573,3.29734,-116.263,-57.0497,5.51063
2023-03-09 23:21:39:654,-15.8653,6.96009,3.9045,-116.825,-56.3465,6.5137
2023-03-09 23:21:39:664,-14.3761,5.34406,4.11393,-116.95,-55.9565,7.95002
2023-03-09 23:21:39:674,-12.8135,3.47282,3.45609,-116.378,-55.9699,9.22779
2023-03-09 23:21:39:684,-10.9468,2.6727,2.11645,-115.191,-56.3407,10.151
2023-03-09 23:21:39:694,-8.9395,1.81101,0.797725,-113.923,-56.9651,11.1418
2023-03-09 23:21:39:704,-7.34898,0.947491,0.032932,-113.224,-57.6832,12.5885
2023-03-09 23:21:39:714,-6.56385,0.764384,-0.208385,-113.358,-58.3808,14.5843
2023-03-09 23:21:39:724,-6.33869,0.931015,-0.258561,-114.309,-59.0712,17.1417
2023-03-09 23:21:39:734,-6.6247,1.16257,-0.0522325,-116.002,-59.7347,20.3282
2023-03-09 23:21:39:744,-7.42691,1.45673,0.543998,-118.357,-60.2743,24.2079
2023-03-09 23:21:39:754,-8.68835,1.93332,1.53421,-121.029,-60.5478,28.602
2023-03-09 23:21:39:764,-9.76476,2.30935,2.6246,-123.565,-60.5222,33.2225
2023-03-09 23:21:39:774,-9.97375,2.43723,3.53823,-125.586,-60.2888,37.7226
2023-03-09 23:21:39:784,-9.12327,2.68974,3.6413,-126.859,-60.0057,41.7941
2023-03-09 23:21:39:794,-7.49237,2.29802,3.09218,-127.562,-59.8629,45.5153
2023-03-09 23:21:39:804,-6.08958,1.6033,2.24905,-128.09,-59.936,49.1013
2023-03-09 23:21:39:814,-6.11542,0.936295,1.20667,-128.824,-60.1168,52.7819
2023-03-09 23:21:39:824,-6.05683,0.393474,0.892772,-130.105,-60.0872,56.8075
2023-03-09 23:21:39:834,-6.44712,0.653862,1.57697,-131.734,-59.6733,60.9589
2023-03-09 23:21:39:844,-7.34959,1.3651,2.02762,-133.248,-58.9239,64.8901
2023-03-09 23:21:39:854,-8.24351,2.71844,2.73026,-134.445,-57.89,68.5394
2023-03-09 23:21:39:864,-9.1341,4.7789,3.41349,-135.277,-56.7396,72.0224
2023-03-09 23:21:39:874,-10.0803,7.0503,4.10128,-135.861,-55.6915,75.715
2023-03-09 23:21:39:884,-11.4616,8.72063,4.21985,-136.31,-54.839,79.9594
2023-03-09 23:21:39:894,-10.4555,10.7061,4.82727,-136.766,-53.9527,84.7026
2023-03-09 23:21:39:904,-9.47018,10.9423,6.7597,-136.31,-51.7481,88.8518
2023-03-09 23:21:39:914,-9.47618,11.9959,11.1919,-134.886,-47.3521,90.6464
2023-03-09 23:21:39:924,-7.91436,15.4257,15.1236,-134.075,-42.1578,90.0171
2023-03-09 23:21:39:934,-7.19478,15.6887,16.1943,-134.191,-37.7949,87.5883
2023-03-09 23:21:39:944,-6.00546,13.936,13.3947,-134.648,-35.1419,83.7916
2023-03-09 23:21:39:954,-3.86471,12.4976,9.36119,-134.613,-34.1298,79.3883
2023-03-09 23:21:39:964,-2.1901,11.6669,6.58054,-133.77,-34.2749,75.121
2023-03-09 23:21:39:974,-2.53918,10.7478,4.55369,-132.037,-35.1097,71.3504
2023-03-09 23:21:39:984,-3.59902,10.5312,3.19733,-129.533,-36.2627,68.2737
2023-03-09 23:21:39:994,-5.54591,11.0676,2.47717,-126.837,-37.5595,66.18
2023-03-09 23:21:40:4,-6.44013,11.4646,0.680202,-125.024,-38.9891,65.5231
2023-03-09 23:21:40:14,-6.92429,9.64589,0.755579,-124.986,-40.3618,66.9666
2023-03-09 23:21:40:24,-8.11336,7.13211,3.9518,-126.424,-41.5071,70.2255
2023-03-09 23:21:40:34,-8.98703,5.42047,6.61863,-127.997,-42.5088,74.1041
2023-03-09 23:21:40:44,-9.5015,5.07396,7.21484,-128.302,-43.3625,77.6117
2023-03-09 23:21:40:54,-10.2961,4.40926,7.05174,-127.357,-44.4257,80.7522
2023-03-09 23:21:40:64,-10.3541,2.6252,7.12299,-125.649,-45.7489,83.3829
2023-03-09 23:21:40:74,-9.86232,1.82103,6.7141,-123.231,-46.7585,85.0072
2023-03-09 23:21:40:84,-9.06438,2.20512,5.69591,-120.248,-47.1389,85.5975
2023-03-09 23:21:40:94,-8.58673,3.04932,5.1423,-117.231,-46.8786,85.715
2023-03-09 23:21:40:104,-8.29548,3.64793,4.64665,-114.627,-46.312,85.7455
2023-03-09 23:21:40:114,-8.26354,4.35767,4.19868,-112.803,-45.596,85.9448
2023-03-09 23:21:40:124,-8.66811,5.52444,4.92369,-112.036,-44.8305,86.4834
2023-03-09 23:21:40:134,-9.03756,6.51919,6.26743,-112.147,-44.1266,87.2708
2023-03-09 23:21:40:144,-8.78394,6.84507,6.80129,-112.622,-43.5204,87.9432
2023-03-09 23:21:40:154,-7.81803,6.9405,6.89372,-112.965,-42.8949,88.1968
2023-03-09 23:21:40:164,-7.14573,6.69968,6.86697,-112.751,-42.1125,87.964
2023-03-09 23:21:40:174,-6.66935,6.34494,6.43756,-111.838,-41.1764,87.1714
2023-03-09 23:21:40:184,-6.04995,6.35675,6.0019,-110.471,-40.1608,85.921
2023-03-09 23:21:40:194,-5.82274,6.29,5.66194,-109.063,-39.2257,84.3908
2023-03-09 23:21:40:204,-5.94919,6.06054,5.23284,-107.82,-38.4847,82.6722
2023-03-09 23:21:40:214,-5.74643,5.59235,4.52865,-106.792,-37.9624,80.8527
2023-03-09 23:21:40:224,-5.18876,4.8762,3.73242,-106.054,-37.6154,79.0704
2023-03-09 23:21:40:234,-4.37278,4.14942,3.27675,-105.703,-37.3606,77.4257
2023-03-09 23:21:40:244,-3.69522,3.66974,3.16229,-105.825,-37.0645,75.8842
2023-03-09 23:21:40:254,-3.43229,3.50012,2.94421,-106.358,-36.708,74.3591
2023-03-09 23:21:40:264,-3.36235,3.57136,2.59423,-107.184,-36.2645,72.8614
2023-03-09 23:21:40:274,-3.36332,3.87634,2.35826,-108.23,-35.6655,71.4733
2023-03-09 23:21:40:284,-3.47397,4.40367,2.36033,-109.406,-34.9106,70.2605
2023-03-09 23:21:40:294,-3.47539,4.95301,2.40392,-110.612,-34.0858,69.2455
2023-03-09 23:21:40:304,-3.45447,5.54567,2.46013,-111.747,-33.1744,68.4395
2023-03-09 23:21:40:314,-3.37267,5.85794,2.53943,-112.74,-32.1919,67.8747
2023-03-09 23:21:40:324,-3.36188,6.1175,2.56496,-113.462,-31.1103,67.5136
2023-03-09 23:21:40:334,-3.35386,6.39708,2.03062,-113.811,-29.9112,67.3236
2023-03-09 23:21:40:344,-1.56454,6.02367,-7.43302,-113.903,-28.6451,67.3349
2023-03-09 23:21:40:354,-0.678641,7.87143,-12.2331,-116.746,-27.1087,69.4281
2023-03-09 23:21:40:364,-6.40979,10.0785,10.9775,-123.75,-24.5961,74.0809
2023-03-09 23:21:40:374,-6.22155,17.1342,-1.40839,-128.142,-22.2301,76.0666
2023-03-09 23:21:40:384,-5.69228,19.9297,5.2232,-127.757,-20.315,75.1872
2023-03-09 23:21:40:394,-5.85861,19.1551,3.53221,-122.208,-19.1417,72.5644
2023-03-09 23:21:40:404,-6.66344,19.1086,-0.81958,-115.617,-18.5922,69.0456
2023-03-09 23:21:40:414,-7.08547,20.3423,2.47381,-109.12,-18.6684,65.596
2023-03-09 23:21:40:424,-6.57585,21.653,4.66874,-103.17,-19.1339,63.5789
2023-03-09 23:21:40:434,-5.21071,21.2055,8.43513,-98.0405,-19.6873,63.7776
2023-03-09 23:21:40:444,-3.86435,17.1431,10.1061,-93.5398,-20.4248,65.5242
2023-03-09 23:21:40:454,-3.49593,12.0199,10.8021,-89.2446,-21.2888,67.6902
2023-03-09 23:21:40:464,-3.64986,8.96474,10.5071,-84.8348,-22.316,68.9528
2023-03-09 23:21:40:474,-3.67752,6.46271,8.87334,-80.6249,-23.6152,68.59
2023-03-09 23:21:40:484,-3.59129,4.36651,7.44289,-76.5197,-24.9393,66.7937
2023-03-09 23:21:40:494,-3.64257,3.86782,6.34288,-72.6788,-25.7987,64.1713
2023-03-09 23:21:40:504,-3.70866,4.33024,5.401,-69.2987,-25.9814,61.3543
2023-03-09 23:21:40:514,-3.28785,3.96169,3.90679,-66.3533,-25.4989,58.6984
2023-03-09 23:21:40:524,-2.11769,3.02509,1.18436,-63.7244,-24.3874,56.3364
2023-03-09 23:21:40:534,-0.322314,0.388656,-7.45926,-61.1247,-22.746,54.108
2023-03-09 23:21:40:544,2.52252,-3.75067,-25.282,-57.0635,-20.7199,51.8894
2023-03-09 23:21:40:554,1.25033,5.25388,-10.7026,-52.2371,-18.7046,51.2238
2023-03-09 23:21:40:564,-1.07643,11.5371,-1.61245,-49.8762,-16.8075,51.9019
2023-03-09 23:21:40:574,-2.86216,12.7525,-6.22013,-47.5899,-14.893,52.3623
2023-03-09 23:21:40:584,-3.65536,12.2449,-8.94866,-43.1086,-13.2693,51.8305
2023-03-09 23:21:40:594,-3.04658,9.14577,-9.97651,-38.2659,-12.1467,51.3002
2023-03-09 23:21:40:604,-2.63585,6.68009,-10.069,-33.2679,-11.1172,51.0806
2023-03-09 23:21:40:614,-3.05255,5.17343,-9.50916,-28.5259,-10.0424,51.0911
2023-03-09 23:21:40:624,-2.58668,2.81679,-9.48911,-24.1103,-8.89576,51.1789
2023-03-09 23:21:40:634,-1.49588,1.28783,-7.79775,-19.815,-7.78571,51.4983
2023-03-09 23:21:40:644,-0.79916,-0.562109,-5.87366,-15.7443,-6.81945,51.9282
2023-03-09 23:21:40:654,-0.320071,-3.39051,-5.35244,-12.074,-5.87882,52.3184
2023-03-09 23:21:40:664,-0.219344,-4.38317,-4.44704,-8.80994,-5.03883,52.8911
2023-03-09 23:21:40:674,-0.166741,-4.93137,-4.3873,-6.05557,-4.28526,53.5129
2023-03-09 23:21:40:684,0.445364,-5.5566,-4.67946,-3.7798,-3.61958,53.9983
2023-03-09 23:21:40:694,1.32509,-6.17786,-5.47782,-2.05182,-3.10089,54.3781
2023-03-09 23:21:40:704,1.44672,-5.7738,-6.23901,-0.845668,-2.74951,54.75
2023-03-09 23:21:40:714,0.649592,-4.68435,-6.88419,-0.0426834,-2.60704,55.0981
2023-03-09 23:21:40:724,-0.167484,-3.69396,-7.67011,0.488233,-2.66042,55.3551
2023-03-09 23:21:40:734,-0.395247,-3.27969,-8.1173,0.893052,-2.80723,55.476
2023-03-09 23:21:40:744,-0.180181,-3.26402,-8.13626,1.25904,-2.9309,55.5294
2023-03-09 23:21:40:754,-0.147051,-3.5817,-8.15432,1.62622,-2.99381,55.6013
2023-03-09 23:21:40:764,-0.377543,-4.00811,-8.25317,1.98609,-3.02211,55.7062
2023-03-09 23:21:40:774,-0.288985,-4.44332,-8.33655,2.25178,-3.04579,55.7743
2023-03-09 23:21:40:784,0.044608,-4.82244,-8.18936,2.345,-3.10028,55.737
2023-03-09 23:21:40:794,-0.0141654,-4.76592,-7.8861,2.20798,-3.21549,55.5946
2023-03-09 23:21:40:804,-0.745276,-3.99512,-7.44533,1.80901,-3.41167,55.3549
2023-03-09 23:21:40:814,-1.57111,-3.60163,-7.51952,1.20832,-3.65682,55.0345
2023-03-09 23:21:40:824,-2.28828,-3.65928,-7.98731,0.619048,-3.89305,54.6646
2023-03-09 23:21:40:834,-1.84957,-3.08578,-7.30276,0.0644081,-4.13467,54.1562
2023-03-09 23:21:40:844,-0.693535,-3.10744,-7.26764,-0.681829,-4.23783,53.5174
2023-03-09 23:21:40:854,1.21533,-3.42279,-8.38578,-1.4888,-4.18261,52.9203
2023-03-09 23:21:40:864,2.73137,-2.95335,-8.81823,-2.23448,-4.06017,52.4834
2023-03-09 23:21:40:874,3.79132,-2.73108,-9.53686,-2.89241,-4.01327,52.2897
2023-03-09 23:21:40:884,3.38956,-2.2767,-7.8721,-3.40251,-4.26167,52.2512
2023-03-09 23:21:40:894,2.49492,-2.21213,-5.8512,-3.71942,-4.72923,52.4559
2023-03-09 23:21:40:904,2.07973,-2.88251,-4.45049,-3.78884,-5.19267,52.8579
2023-03-09 23:21:40:914,1.56099,-3.4154,-3.86133,-3.53877,-5.57715,53.4836
2023-03-09 23:21:40:924,0.258241,-4.49848,-4.12651,-3.01669,-5.81747,54.2441
2023-03-09 23:21:40:934,-1.11288,-5.27381,-4.49273,-2.11243,-5.96033,55.0587
2023-03-09 23:21:40:944,-1.64994,-6.16492,-4.94101,-1.26534,-6.23571,55.792
2023-03-09 23:21:40:954,-2.12539,-8.00079,-5.66484,-1.18896,-6.804,56.3733
2023-03-09 23:21:40:964,-2.69998,-9.20557,-5.46452,-2.22531,-7.65744,56.9986
2023-03-09 23:21:40:974,-2.23896,-7.27315,-3.75273,-4.58579,-8.47786,57.7243
2023-03-09 23:21:40:984,-1.5804,-3.45148,-2.65741,-8.17672,-9.01939,58.3367
2023-03-09 23:21:40:994,-1.51665,0.731978,-3.9628,-13.0749,-9.45869,58.8923
2023-03-09 23:21:41:4,-1.47975,5.37173,-6.69721,-18.3411,-9.98817,59.5202
2023-03-09 23:21:41:14,-1.30393,10.714,-10.5642,-23.3431,-10.4482,60.2677
2023-03-09 23:21:41:24,-1.57963,19.7856,-13.7078,-26.9472,-10.9264,61.1469
2023-03-09 23:21:41:34,-2.99714,22.4156,-21.3432,-28.7634,-11.3864,62.1631
2023-03-09 23:21:41:44,-4.47397,12.9281,-31.7342,-28.0885,-11.7597,62.5307
2023-03-09 23:21:41:54,-4.19466,2.03789,-30.9969,-26.5736,-11.8013,62.4615
2023-03-09 23:21:41:64,-2.04705,4.66285,-13.5053,-25.4517,-11.4469,62.5979
2023-03-09 23:21:41:74,-3.1397,5.17936,-2.66592,-23.6738,-10.8255,62.7541
2023-03-09 23:21:41:84,-5.95211,-0.952554,-1.60742,-21.2797,-9.98081,62.2697
2023-03-09 23:21:41:94,-6.33645,-5.28511,-3.05427,-19.7179,-9.0729,61.0186
2023-03-09 23:21:41:104,-4.09402,-2.65847,-3.73839,-19.5141,-8.31637,59.5343
2023-03-09 23:21:41:114,-1.5725,-0.384289,-6.77054,-19.7269,-7.69278,58.0488
2023-03-09 23:21:41:124,0.897164,-0.144988,-10.5444,-19.8522,-7.12583,56.5302
2023-03-09 23:21:41:134,2.44767,0.358819,-11.8519,-19.8958,-6.68837,55.261
2023-03-09 23:21:41:144,2.54385,0.238492,-11.6594,-19.7949,-6.45135,54.3393
2023-03-09 23:21:41:154,1.70646,-0.220258,-10.4037,-19.6347,-6.41531,53.666
2023-03-09 23:21:41:164,0.526207,-0.374997,-9.39583,-19.4938,-6.52952,53.1437
2023-03-09 23:21:41:174,-0.54013,-0.102081,-8.7426,-19.418,-6.72699,52.657
2023-03-09 23:21:41:184,-0.807243,0.17924,-8.5717,-19.3814,-6.92613,52.1155
2023-03-09 23:21:41:194,0.307594,0.0472891,-8.85185,-19.3516,-7.07294,51.5017
2023-03-09 23:21:41:204,2.2072,0.0128704,-9.12933,-19.3547,-7.14634,50.9307
2023-03-09 23:21:41:214,3.67757,0.18843,-9.53654,-19.3976,-7.15551,50.5377
2023-03-09 23:21:41:224,3.80149,0.742106,-9.94453,-19.4915,-7.17332,50.4256
2023-03-09 23:21:41:234,3.43675,1.41107,-10.3754,-19.614,-7.25506,50.5632
2023-03-09 23:21:41:244,2.81883,1.86248,-10.7053,-19.7407,-7.39394,50.8907
2023-03-09 23:21:41:254,1.27002,2.26811,-10.6413,-19.8222,-7.59046,51.4254
2023-03-09 23:21:41:264,-0.0658996,2.31714,-10.1349,-19.8522,-7.79604,52.0324
2023-03-09 23:21:41:274,-2.37981,2.47286,-9.40782,-19.8185,-7.97547,52.6916
2023-03-09 23:21:41:284,-3.06203,1.65159,-8.52239,-19.7342,-8.18783,53.2196
2023-03-09 23:21:41:294,-3.15174,1.24374,-8.27107,-19.6943,-8.3055,53.6309
2023-03-09 23:21:41:304,-4.6915,1.62932,-8.20801,-19.7067,-8.417,53.9769
2023-03-09 23:21:41:314,-4.40265,1.46804,-8.10852,-19.7788,-8.60567,54.0881
2023-03-09 23:21:41:324,-3.34502,1.70854,-8.84239,-19.9092,-8.72479,54.0273
2023-03-09 23:21:41:334,-2.5499,1.9246,-9.64294,-20.0385,-8.81535,53.8739
2023-03-09 23:21:41:344,-2.59922,2.11417,-9.96581,-20.1569,-8.94108,53.6833
2023-03-09 23:21:41:354,-3.30685,2.12039,-9.68172,-20.2636,-9.17518,53.4551
2023-03-09 23:21:41:364,-2.57023,2.0382,-9.65361,-20.3668,-9.45261,53.1336
2023-03-09 23:21:41:374,-0.553465,2.32659,-10.6458,-20.4807,-9.63838,52.774
2023-03-09 23:21:41:384,-0.173935,3.09198,-11.2674,-20.5909,-9.79132,52.5511
2023-03-09 23:21:41:394,-0.999513,3.5824,-11.0924,-20.659,-9.95886,52.4427
2023-03-09 23:21:41:404,-1.04918,3.84586,-10.7978,-20.6898,-10.1223,52.3717
2023-03-09 23:21:41:414,-0.163688,4.17883,-11.0726,-20.7174,-10.2319,52.3377
2023-03-09 23:21:41:424,0.504702,4.5075,-11.4666,-20.7323,-10.2963,52.3919
2023-03-09 23:21:41:434,0.79045,4.53246,-11.5116,-20.7325,-10.3466,52.5811
2023-03-09 23:21:41:444,0.988021,4.43194,-11.4266,-20.7322,-10.3741,52.9194
2023-03-09 23:21:41:454,1.26339,4.22851,-11.48,-20.721,-10.354,53.4117
2023-03-09 23:21:41:464,1.63482,3.96829,-11.6431,-20.7005,-10.2697,54.0675
2023-03-09 23:21:41:474,1.47973,3.74687,-11.5398,-20.6613,-10.1716,54.9055
2023-03-09 23:21:41:484,0.487328,3.43374,-11.1298,-20.5859,-10.1163,55.8832
2023-03-09 23:21:41:494,-1.34647,2.8956,-10.2948,-20.4397,-10.1666,56.9329
2023-03-09 23:21:41:504,-3.65876,2.39936,-9.03403,-20.2452,-10.3227,57.9472
2023-03-09 23:21:41:514,-5.78773,1.7364,-7.72529,-19.9983,-10.5322,58.7456
2023-03-09 23:21:41:524,-6.849,0.867097,-6.78217,-19.7194,-10.7075,59.1963
2023-03-09 23:21:41:534,-6.34255,-0.241767,-6.83583,-19.432,-10.7771,59.2346
2023-03-09 23:21:41:544,-4.46164,-1.62483,-7.30167,-19.1577,-10.754,58.9337
2023-03-09 23:21:41:554,-2.2657,-1.98333,-7.4966,-18.9506,-10.6311,58.5527
2023-03-09 23:21:41:564,-0.316386,-1.34989,-8.44455,-18.8838,-10.397,58.2196
2023-03-09 23:21:41:574,0.820759,-0.32637,-9.70142,-18.914,-10.1469,58.0037
2023-03-09 23:21:41:584,0.8068,0.661948,-10.4682,-18.9515,-9.98181,57.9598
2023-03-09 23:21:41:594,-0.115306,1.28959,-10.5413,-18.9259,-9.9478,58.0596
2023-03-09 23:21:41:604,-1.09608,1.30523,-9.96693,-18.8264,-10.0347,58.2042
2023-03-09 23:21:41:614,-1.40236,0.973728,-9.30731,-18.6975,-10.1817,58.3357
2023-03-09 23:21:41:624,-1.21817,0.714404,-9.08704,-18.596,-10.3252,58.43
2023-03-09 23:21:41:634,-1.04442,0.574893,-9.23341,-18.5454,-10.4569,58.5145
2023-03-09 23:21:41:644,-1.26419,0.719536,-9.44657,-18.5565,-10.592,58.6312
2023-03-09 23:21:41:654,-1.70473,0.894698,-9.5568,-18.601,-10.7525,58.7683
2023-03-09 23:21:41:664,-2.2288,1.06682,-9.58832,-18.6558,-10.9381,58.8902
2023-03-09 23:21:41:674,-2.62641,1.18215,-9.50912,-18.7111,-11.1434,58.9565
2023-03-09 23:21:41:684,-2.58368,1.18837,-9.21533,-18.7369,-11.343,58.9376
2023-03-09 23:21:41:694,-2.15044,0.892927,-8.94252,-18.7117,-11.4898,58.8143
2023-03-09 23:21:41:704,-1.69189,0.649641,-8.73775,-18.6506,-11.5584,58.6191
2023-03-09 23:21:41:714,-1.12985,0.407954,-8.61142,-18.5887,-11.5742,58.3705
2023-03-09 23:21:41:724,-0.340612,-0.0160899,-8.60746,-18.5386,-11.5386,58.092
2023-03-09 23:21:41:734,0.227313,-0.142661,-8.73123,-18.5335,-11.4609,57.8765
2023-03-09 23:21:41:744,0.221955,0.000348653,-8.83585,-18.5697,-11.3744,57.7723
2023-03-09 23:21:41:754,-0.752162,0.616761,-8.76102,-18.6348,-11.3142,57.7964
2023-03-09 23:21:41:764,-2.17228,1.2165,-8.45439,-18.6975,-11.3113,57.8332
2023-03-09 23:21:41:774,-3.2495,1.57815,-8.28843,-18.7441,-11.3493,57.7372
2023-03-09 23:21:41:784,-3.34781,1.55169,-8.65554,-18.7908,-11.412,57.3932
2023-03-09 23:21:41:794,-1.82789,1.55854,-9.74153,-18.8694,-11.481,56.8519
2023-03-09 23:21:41:804,1.10161,1.89624,-11.3754,-19.0055,-11.5165,56.2866
2023-03-09 23:21:41:814,3.35075,2.62884,-12.6221,-19.1429,-11.5178,55.9433
2023-03-09 23:21:41:824,2.38066,3.05276,-12.5688,-19.1642,-11.5616,56.0207
2023-03-09 23:21:41:834,-1.07309,2.68864,-10.7545,-19.0605,-11.7632,56.4542
2023-03-09 23:21:41:844,-3.51396,2.51626,-9.10623,-18.9527,-11.9821,56.9183
2023-03-09 23:21:41:854,-3.7428,2.42291,-8.65191,-18.9039,-12.1121,57.2118
2023-03-09 23:21:41:864,-3.42886,2.3722,-8.79913,-18.864,-12.1516,57.3358
2023-03-09 23:21:41:874,-1.80218,2.56108,-9.82491,-18.8659,-12.07,57.2984
2023-03-09 23:21:41:884,-1.048,2.54265,-10.7474,-18.8317,-11.9393,57.2399
2023-03-09 23:21:41:894,-0.853349,2.11621,-12.1156,-18.7445,-11.7976,57.2732
2023-03-09 23:21:41:904,-1.87674,3.47778,-11.4921,-18.7441,-11.7803,57.5322
2023-03-09 23:21:41:914,-2.87488,2.42138,-10.0385,-18.5408,-11.8013,57.8219
2023-03-09 23:21:41:924,-3.04869,1.75231,-9.77595,-18.2846,-11.6841,58.0836
2023-03-09 23:21:41:934,-2.79698,1.81304,-9.46457,-18.0864,-11.5587,58.2987
2023-03-09 23:21:41:944,-2.30478,1.65739,-9.68276,-17.8926,-11.4138,58.4625
2023-03-09 23:21:41:954,-1.97494,1.65632,-9.75777,-17.707,-11.2688,58.6168
2023-03-09 23:21:41:964,-1.92146,1.59227,-9.63733,-17.5074,-11.1309,58.7774
2023-03-09 23:21:41:974,-2.00587,1.51713,-9.52035,-17.3043,-10.9974,58.9469
2023-03-09 23:21:41:984,-2.10417,1.46536,-9.49075,-17.097,-10.8721,59.1049
2023-03-09 23:21:41:994,-2.15483,1.41483,-9.54296,-16.8821,-10.7584,59.2455
2023-03-09 23:21:42:4,-2.08486,1.30254,-9.58476,-16.6527,-10.6543,59.3534
2023-03-09 23:21:42:14,-1.93572,1.12347,-9.5794,-16.4011,-10.5539,59.4232
2023-03-09 23:21:42:24,-1.76912,0.926203,-9.5222,-16.1318,-10.4588,59.4659
2023-03-09 23:21:42:34,-1.62911,0.728074,-9.48291,-15.8525,-10.3724,59.4876
2023-03-09 23:21:42:44,-1.52563,0.555931,-9.48028,-15.5719,-10.2969,59.4883
2023-03-09 23:21:42:54,-1.53533,0.534605,-9.44931,-15.3065,-10.2359,59.481
2023-03-09 23:21:42:64,-1.60116,0.571009,-9.40336,-15.0544,-10.182,59.4516
2023-03-09 23:21:42:74,-1.54381,0.509332,-9.38832,-14.7983,-10.1259,59.3911
2023-03-09 23:21:42:84,-1.28901,0.333421,-9.4163,-14.5296,-10.0614,59.2875
2023-03-09 23:21:42:94,-0.947958,0.083651,-9.51298,-14.2617,-9.99647,59.1572
2023-03-09 23:21:42:104,-0.685961,-0.104661,-9.58919,-14.0016,-9.93413,59.0164
2023-03-09 23:21:42:114,-0.584713,-0.201302,-9.66167,-13.7492,-9.87406,58.8806
2023-03-09 23:21:42:124,-0.558673,-0.267653,-9.74259,-13.5084,-9.82416,58.7483
2023-03-09 23:21:42:134,-0.553697,-0.306319,-9.76655,-13.2695,-9.77839,58.6207
2023-03-09 23:21:42:144,-0.570537,-0.332313,-9.72664,-13.0331,-9.73157,58.4928
2023-03-09 23:21:42:154,-0.575623,-0.37861,-9.65883,-12.7957,-9.68318,58.3641
2023-03-09 23:21:42:164,-0.536069,-0.40139,-9.55899,-12.5623,-9.62737,58.2345
2023-03-09 23:21:42:174,-0.45815,-0.415996,-9.42056,-12.3312,-9.56179,58.1028
2023-03-09 23:21:42:184,-0.36275,-0.445692,-9.21308,-12.1101,-9.48761,57.9782
2023-03-09 23:21:42:194,-0.276896,-0.426799,-8.98334,-11.907,-9.40874,57.8609
2023-03-09 23:21:42:204,-0.193457,-0.404206,-8.78404,-11.7294,-9.32394,57.7523
2023-03-09 23:21:42:214,-0.152191,-0.376107,-8.61561,-11.5835,-9.24316,57.6596
2023-03-09 23:21:42:224,-0.175728,-0.275059,-8.53781,-11.483,-9.17072,57.5888
2023-03-09 23:21:42:234,-0.237308,-0.147388,-8.60119,-11.4331,-9.11448,57.5373
2023-03-09 23:21:42:244,-0.317914,0.0395653,-8.7731,-11.4296,-9.07208,57.5066
2023-03-09 23:21:42:254,-0.383617,0.235831,-8.93416,-11.4648,-9.04572,57.4932
2023-03-09 23:21:42:264,-0.441043,0.40233,-9.04575,-11.5258,-9.02869,57.4925
2023-03-09 23:21:42:274,-0.492638,0.55398,-9.13045,-11.6066,-9.02689,57.5063
2023-03-09 23:21:42:284,-0.472669,0.694004,-9.21869,-11.7103,-9.03871,57.5265
2023-03-09 23:21:42:294,-0.461362,0.79282,-9.3369,-11.8304,-9.0669,57.5601
2023-03-09 23:21:42:304,-0.500798,0.915575,-9.48853,-11.9694,-9.11479,57.614
2023-03-09 23:21:42:314,-0.603229,1.04723,-9.62471,-12.1261,-9.18606,57.6941
2023-03-09 23:21:42:324,-0.758395,1.13185,-9.78598,-12.2925,-9.28233,57.799
2023-03-09 23:21:42:334,-0.942003,1.24368,-9.95319,-12.4638,-9.39275,57.9296
2023-03-09 23:21:42:344,-1.12781,1.32949,-10.1251,-12.6214,-9.51769,58.0755
2023-03-09 23:21:42:354,-1.30714,1.38969,-10.3015,-12.7649,-9.64799,58.2413
2023-03-09 23:21:42:364,-1.50204,1.44141,-10.3716,-12.8862,-9.77582,58.4201
2023-03-09 23:21:42:374,-1.68928,1.4302,-10.3499,-12.975,-9.90053,58.6095
2023-03-09 23:21:42:384,-1.88408,1.39184,-10.2286,-13.0347,-10.0232,58.8049
2023-03-09 23:21:42:394,-2.10016,1.32369,-10.0317,-13.0714,-10.1341,59.0006
2023-03-09 23:21:42:404,-2.27716,1.20101,-9.85871,-13.0842,-10.2296,59.188
2023-03-09 23:21:42:414,-2.39011,1.1462,-9.74542,-13.0889,-10.3052,59.3605
2023-03-09 23:21:42:424,-2.4095,1.11548,-9.68412,-13.0851,-10.3586,59.5077
2023-03-09 23:21:42:434,-2.30955,1.07661,-9.6663,-13.0785,-10.3834,59.6202
2023-03-09 23:21:42:444,-2.12049,1.0465,-9.66228,-13.063,-10.3867,59.7056
2023-03-09 23:21:42:454,-1.90761,1.04062,-9.67819,-13.0422,-10.3714,59.7643
2023-03-09 23:21:42:464,-1.75173,1.03127,-9.66312,-13.0137,-10.3401,59.7999
2023-03-09 23:21:42:474,-1.61761,1.01139,-9.62953,-12.9775,-10.304,59.8185
2023-03-09 23:21:42:484,-1.47964,0.965708,-9.56322,-12.9324,-10.2636,59.8232
2023-03-09 23:21:42:494,-1.29701,0.886414,-9.49128,-12.8817,-10.224,59.8138
2023-03-09 23:21:42:504,-1.12421,0.826943,-9.4686,-12.8374,-10.1887,59.796
2023-03-09 23:21:42:514,-0.998107,0.833032,-9.47571,-12.8037,-10.1606,59.7807
2023-03-09 23:21:42:524,-0.944442,0.850576,-9.51222,-12.778,-10.1406,59.7679
2023-03-09 23:21:42:534,-0.942962,0.881021,-9.50436,-12.7589,-10.1266,59.7668
2023-03-09 23:21:42:544,-0.988959,0.930416,-9.50519,-12.7516,-10.1251,59.7815
2023-03-09 23:21:42:554,-0.995837,0.987453,-9.58366,-12.7528,-10.128,59.7984
2023-03-09 23:21:42:564,-0.95614,1.03071,-9.69353,-12.7596,-10.1327,59.8203
2023-03-09 23:21:42:574,-0.9412,1.05164,-9.76545,-12.7725,-10.1472,59.8532
2023-03-09 23:21:42:584,-1.00466,1.08693,-9.79102,-12.787,-10.1685,59.9045
2023-03-09 23:21:42:594,-1.112,1.14631,-9.7583,-12.7984,-10.1986,59.9702
2023-03-09 23:21:42:604,-1.23201,1.12299,-9.75913,-12.8024,-10.2328,60.0477
2023-03-09 23:21:42:614,-1.39042,1.15038,-9.76483,-12.8013,-10.2763,60.1425
2023-03-09 23:21:42:624,-1.55261,1.13698,-9.69482,-12.7907,-10.3171,60.2393
2023-03-09 23:21:42:634,-1.64603,1.05923,-9.62562,-12.7673,-10.3425,60.3369
2023-03-09 23:21:42:644,-1.67189,1.00877,-9.5975,-12.7328,-10.3652,60.43
2023-03-09 23:21:42:654,-1.72446,0.96466,-9.58675,-12.6968,-10.3788,60.5184
2023-03-09 23:21:42:664,-1.8068,0.950852,-9.56359,-12.6556,-10.3909,60.5997
2023-03-09 23:21:42:674,-1.85786,0.910597,-9.52998,-12.618,-10.3975,60.673
2023-03-09 23:21:42:684,-1.86385,0.857805,-9.49354,-12.5744,-10.4018,60.7319
2023-03-09 23:21:42:694,-1.85268,0.813784,-9.44401,-12.5309,-10.4033,60.7807
2023-03-09 23:21:42:704,-1.80782,0.793547,-9.40899,-12.4935,-10.4007,60.8108
2023-03-09 23:21:42:714,-1.74335,0.772492,-9.42977,-12.4608,-10.3976,60.8266
2023-03-09 23:21:42:724,-1.7143,0.792089,-9.49947,-12.4358,-10.3942,60.829
2023-03-09 23:21:42:734,-1.69251,0.843699,-9.55482,-12.4115,-10.3958,60.825
2023-03-09 23:21:42:744,-1.63207,0.841582,-9.56234,-12.381,-10.394,60.8075
2023-03-09 23:21:42:754,-1.61942,0.841613,-9.57002,-12.3523,-10.3918,60.7823
2023-03-09 23:21:42:764,-1.55871,0.826797,-9.5614,-12.3218,-10.38,60.7466
2023-03-09 23:21:42:774,-1.42863,0.789927,-9.54635,-12.2914,-10.3655,60.7013
2023-03-09 23:21:42:784,-1.35384,0.749167,-9.504,-12.2681,-10.3477,60.6531
2023-03-09 23:21:42:794,-1.25856,0.704499,-9.46873,-12.258,-10.3375,60.6094
2023-03-09 23:21:42:804,-1.19893,0.713006,-9.53343,-12.2579,-10.3294,60.5698
2023-03-09 23:21:42:814,-1.22756,0.784472,-9.70293,-12.2724,-10.326,60.5351
2023-03-09 23:21:42:824,-1.27333,0.851085,-9.86722,-12.29,-10.3255,60.5083
2023-03-09 23:21:42:834,-1.27707,0.881339,-9.96731,-12.3021,-10.3298,60.4836
2023-03-09 23:21:42:844,-1.27929,0.893918,-10.0401,-12.3085,-10.3322,60.4631
2023-03-09 23:21:42:854,-1.30655,0.896133,-10.1042,-12.3008,-10.3361,60.4445
2023-03-09 23:21:42:864,-1.29305,0.89912,-10.1233,-12.2833,-10.3417,60.4284
2023-03-09 23:21:42:874,-1.26107,0.862478,-10.1156,-12.2525,-10.3463,60.417
2023-03-09 23:21:42:884,-1.27354,0.831654,-10.1306,-12.2137,-10.3562,60.407
2023-03-09 23:21:42:894,-1.32969,0.847323,-10.175,-12.1657,-10.3651,60.4059
2023-03-09 23:21:42:904,-1.40164,0.862709,-10.2123,-12.1062,-10.371,60.4056
2023-03-09 23:21:42:914,-1.47369,0.855916,-10.1949,-12.0338,-10.3731,60.412
2023-03-09 23:21:42:924,-1.54148,0.820818,-10.1691,-11.9432,-10.376,60.4158
2023-03-09 23:21:42:934,-1.6146,0.789903,-10.1087,-11.8403,-10.3715,60.416
2023-03-09 23:21:42:944,-1.63507,0.760536,-10.0176,-11.7195,-10.3616,60.4106
2023-03-09 23:21:42:954,-1.59448,0.69323,-9.87083,-11.5844,-10.3482,60.3939
2023-03-09 23:21:42:964,-1.54113,0.587281,-9.71416,-11.4338,-10.3315,60.3625
2023-03-09 23:21:42:974,-1.51197,0.515112,-9.59301,-11.2793,-10.3146,60.3215
2023-03-09 23:21:42:984,-1.45208,0.477387,-9.51943,-11.1187,-10.3004,60.2656
2023-03-09 23:21:42:994,-1.4207,0.444845,-9.47967,-10.9596,-10.2824,60.2024
2023-03-09 23:21:43:4,-1.42373,0.425749,-9.47054,-10.8058,-10.2708,60.1314
2023-03-09 23:21:43:14,-1.42433,0.417634,-9.49321,-10.6569,-10.2661,60.0499
2023-03-09 23:21:43:24,-1.36618,0.372975,-9.47663,-10.5114,-10.2684,59.9579
2023-03-09 23:21:43:34,-1.36619,0.385305,-9.49917,-10.3714,-10.2796,59.8619
2023-03-09 23:21:43:44,-1.37982,0.393854,-9.57479,-10.236,-10.3007,59.7558
2023-03-09 23:21:43:54,-1.3059,0.394032,-9.6288,-10.1046,-10.3284,59.6369
2023-03-09 23:21:43:64,-1.26643,0.391348,-9.68763,-9.97293,-10.3621,59.5164
2023-03-09 23:21:43:74,-1.24906,0.412066,-9.71502,-9.83852,-10.4001,59.3928
2023-03-09 23:21:43:84,-1.24399,0.39772,-9.70437,-9.70484,-10.4443,59.2721
2023-03-09 23:21:43:94,-1.21372,0.363426,-9.66288,-9.56687,-10.4923,59.1492
2023-03-09 23:21:43:104,-1.19154,0.334224,-9.61476,-9.43093,-10.5498,59.0303
2023-03-09 23:21:43:114,-1.18132,0.304091,-9.56237,-9.30345,-10.6077,58.9135
2023-03-09 23:21:43:124,-1.15355,0.297693,-9.52035,-9.18353,-10.6699,58.8061
2023-03-09 23:21:43:134,-1.13645,0.267028,-9.48498,-9.06747,-10.7402,58.7076
2023-03-09 23:21:43:144,-1.14709,0.262804,-9.47049,-8.96273,-10.8077,58.6199
2023-03-09 23:21:43:154,-1.1407,0.286958,-9.49884,-8.87413,-10.8752,58.5474
2023-03-09 23:21:43:164,-1.13222,0.325699,-9.54952,-8.79567,-10.9395,58.4854
2023-03-09 23:21:43:174,-1.1256,0.321696,-9.55963,-8.72103,-10.9998,58.442
2023-03-09 23:21:43:184,-1.13145,0.283248,-9.53438,-8.65305,-11.0575,58.4183
2023-03-09 23:21:43:194,-1.14417,0.275084,-9.52155,-8.59279,-11.109,58.4126
2023-03-09 23:21:43:204,-1.17411,0.309252,-9.51751,-8.54463,-11.1526,58.4252
2023-03-09 23:21:43:214,-1.19749,0.338471,-9.51125,-8.50899,-11.1902,58.4598
2023-03-09 23:21:43:224,-1.23829,0.362688,-9.5275,-8.47958,-11.2172,58.5143
2023-03-09 23:21:43:234,-1.27869,0.37613,-9.51939,-8.45574,-11.2355,58.5873
2023-03-09 23:21:43:244,-1.34871,0.401802,-9.48194,-8.44019,-11.2389,58.6777
2023-03-09 23:21:43:254,-1.42188,0.420255,-9.47526,-8.43268,-11.2341,58.7821
2023-03-09 23:21:43:264,-1.46962,0.436891,-9.46794,-8.43469,-11.2167,58.8967
2023-03-09 23:21:43:274,-1.48205,0.456031,-9.48998,-8.44493,-11.1918,59.018
2023-03-09 23:21:43:284,-1.49392,0.510978,-9.5273,-8.46532,-11.1619,59.1414
2023-03-09 23:21:43:294,-1.50768,0.561445,-9.58268,-8.49045,-11.1332,59.2734
