Timestamp,Accel_x,Accel_y,Accel_z,Roll,Pitch,Yaw
2023-03-09 23:30:00.860392,-0.24602198600769043,0.310170978307724,-0.9188240766525269,-0.3195085823535919,-0.2489403337240219,1.360789179801941
2023-03-09 23:30:00.882872,-0.2455771416425705,0.31096410751342773,-0.9157185554504395,-0.3195761740207672,-0.24875466525554657,1.3603079319000244
2023-03-09 23:30:00.919967,-0.2401621788740158,0.3072138726711273,-0.9180600047111511,-0.3193727731704712,-0.24804691970348358,1.3588831424713135
2023-03-09 23:30:00.950712,-0.24041448533535004,0.3068699836730957,-0.9202347993850708,-0.31906744837760925,-0.24803724884986877,1.357648491859436
2023-03-09 23:30:01.040422,-0.24020029604434967,0.31215715408325195,-0.9230788946151733,-0.3176109194755554,-0.24853676557540894,1.355104923248291
2023-03-09 23:30:01.062430,-0.2409808486700058,0.31188449263572693,-0.9223406314849854,-0.31703031063079834,-0.24848347902297974,1.3549634218215942
2023-03-09 23:30:01.090352,-0.2396661341190338,0.3036893308162689,-0.9201266169548035,-0.31577199697494507,-0.24834641814231873,1.3550140857696533
2023-03-09 23:30:01.130217,-0.24139145016670227,0.3002636730670929,-0.9166133999824524,-0.31399914622306824,-0.24823451042175293,1.3554915189743042
2023-03-09 23:30:01.150501,-0.2476588487625122,0.29824769496917725,-0.912398099899292,-0.31319087743759155,-0.24820375442504883,1.3558727502822876
2023-03-09 23:30:01.221408,-0.24739272892475128,0.2997719347476959,-0.9184864163398743,-0.3112068772315979,-0.2487315833568573,1.3567478656768799
2023-03-09 23:30:01.270545,-0.2459513545036316,0.29551833868026733,-0.9168933629989624,-0.3098863959312439,-0.2493017166852951,1.356579065322876
2023-03-09 23:30:01.343626,-0.2498883455991745,0.2981018126010895,-0.9200284481048584,-0.30911242961883545,-0.250367134809494,1.3561630249023438
2023-03-09 23:30:01.379976,-0.25179362297058105,0.2991766333580017,-0.9237327575683594,-0.30830204486846924,-0.2514812648296356,1.3554068803787231
2023-03-09 23:30:01.459985,-0.24760890007019043,0.29806703329086304,-0.9225451350212097,-0.3063051402568817,-0.25287455320358276,1.3539637327194214
2023-03-09 23:30:01.500257,-0.24740509688854218,0.2954883873462677,-0.9227826595306396,-0.3049810528755188,-0.2534392476081848,1.3536906242370605
2023-03-09 23:30:01.560338,-0.2446156144142151,0.28978589177131653,-0.9187829494476318,-0.30240291357040405,-0.25378739833831787,1.3537509441375732
2023-03-09 23:30:01.600462,-0.2508528232574463,0.29156023263931274,-0.9206056594848633,-0.3009037375450134,-0.25395041704177856,1.3544094562530518
2023-03-09 23:30:01.720442,-0.2555084526538849,0.2875780761241913,-0.9200711250305176,-0.2971258759498596,-0.2551840841770172,1.3571193218231201
2023-03-09 23:30:01.831024,-0.25207751989364624,0.2825484275817871,-0.9242885112762451,-0.29505789279937744,-0.255576491355896,1.3600138425827026
2023-03-09 23:30:01.910329,-0.24285441637039185,0.2871113121509552,-0.9251112341880798,-0.294306218624115,-0.25470396876335144,1.3619886636734009
2023-03-09 23:30:01.960241,-0.2476562261581421,0.2833992540836334,-0.9272056221961975,-0.29350578784942627,-0.2535390555858612,1.3641809225082397
2023-03-09 23:30:01.990460,-0.24566951394081116,0.28448647260665894,-0.9285414814949036,-0.2930835783481598,-0.25269579887390137,1.365694284439087
2023-03-09 23:30:02.010301,-0.24020344018936157,0.28200721740722656,-0.9246683716773987,-0.2927339971065521,-0.25224095582962036,1.3668897151947021
2023-03-09 23:30:02.030326,-0.24489201605319977,0.2835925221443176,-0.9235764145851135,-0.29240188002586365,-0.2518905997276306,1.3682631254196167
2023-03-09 23:30:02.060126,-0.24860826134681702,0.2843565344810486,-0.9260918498039246,-0.2917538285255432,-0.251645028591156,1.3702363967895508
2023-03-09 23:30:02.090049,-0.25053083896636963,0.27761387825012207,-0.9209527373313904,-0.2908467948436737,-0.25171351432800293,1.3720958232879639
2023-03-09 23:30:02.140218,-0.24634821712970734,0.27668145298957825,-0.9243630170822144,-0.29018980264663696,-0.25177595019340515,1.3750728368759155
2023-03-09 23:30:02.160266,-0.24365344643592834,0.2782997488975525,-0.9215422868728638,-0.2901454567909241,-0.2514452040195465,1.3764724731445312
2023-03-09 23:30:02.240319,-0.2435767650604248,0.28103408217430115,-0.9243633151054382,-0.2902110517024994,-0.24859711527824402,1.3835927248001099
2023-03-09 23:30:02.300570,-0.24198345839977264,0.28231945633888245,-0.9286863803863525,-0.2903853952884674,-0.24596662819385529,1.3898894786834717
2023-03-09 23:30:02.452482,-0.23583637177944183,0.2800610363483429,-0.9260413646697998,-0.290352463722229,-0.23996739089488983,1.4050015211105347
2023-03-09 23:30:02.640210,-0.2311864048242569,0.28345349431037903,-0.9303662180900574,-0.292013019323349,-0.23407849669456482,1.4221316576004028
2023-03-09 23:30:02.760129,-0.22658443450927734,0.28268328309059143,-0.9254839420318604,-0.2925138473510742,-0.23189106583595276,1.4293893575668335
2023-03-09 23:30:02.890270,-0.21519485116004944,0.28325358033180237,-0.9296135306358337,-0.2932204306125641,-0.2303207516670227,1.4352787733078003
2023-03-09 23:30:02.934877,-0.2178165316581726,0.28251489996910095,-0.9307664632797241,-0.29323604702949524,-0.22993671894073486,1.4378060102462769
2023-03-09 23:30:02.998452,-0.22017788887023926,0.28998863697052,-0.9331093430519104,-0.2936142086982727,-0.22891028225421906,1.443363904953003
2023-03-09 23:30:03.020902,-0.21736913919448853,0.2862897515296936,-0.9292353391647339,-0.2934221029281616,-0.2283768504858017,1.4466711282730103
2023-03-09 23:30:03.072849,-0.22015678882598877,0.2867490351200104,-0.9310475587844849,-0.2931937277317047,-0.22749589383602142,1.453130841255188
2023-03-09 23:30:03.090793,-0.2260337769985199,0.2871503531932831,-0.9296384453773499,-0.2931027114391327,-0.22714005410671234,1.456065058708191
2023-03-09 23:30:03.116766,-0.2268691509962082,0.2851601541042328,-0.9277399778366089,-0.29303160309791565,-0.22668857872486115,1.4589253664016724
2023-03-09 23:30:03.129886,-0.23050132393836975,0.28857704997062683,-0.9288614392280579,-0.2931682765483856,-0.2261785864830017,1.4619042873382568
2023-03-09 23:30:03.152047,-0.2325567752122879,0.29018527269363403,-0.9302814602851868,-0.2932264804840088,-0.2256745547056198,1.4648463726043701
2023-03-09 23:30:03.180007,-0.23423069715499878,0.2913203537464142,-0.9304346442222595,-0.29299870133399963,-0.22479292750358582,1.4686470031738281
2023-03-09 23:30:03.225415,-0.23653703927993774,0.2907435894012451,-0.9297623634338379,-0.29235708713531494,-0.22395245730876923,1.47240149974823
2023-03-09 23:30:03.250514,-0.23146389424800873,0.2953055799007416,-0.9346661567687988,-0.2917026877403259,-0.22359095513820648,1.4742918014526367
2023-03-09 23:30:03.280675,-0.22656115889549255,0.2925797700881958,-0.9320203065872192,-0.29078999161720276,-0.22352531552314758,1.4753056764602661
2023-03-09 23:30:03.290853,-0.22715787589550018,0.29470181465148926,-0.9298801422119141,-0.2904644310474396,-0.22363726794719696,1.4755159616470337
2023-03-09 23:30:03.370938,-0.2306656390428543,0.33368945121765137,-0.9456872344017029,-0.2905791401863098,-0.22476233541965485,1.4777485132217407
2023-03-09 23:30:03.410365,-0.23896342515945435,0.3532927334308624,-0.9470073580741882,-0.2896314859390259,-0.22494018077850342,1.4793009757995605
2023-03-09 23:30:03.441495,-0.23465335369110107,0.34304508566856384,-0.9353156685829163,-0.28674402832984924,-0.22463490068912506,1.4798308610916138
2023-03-09 23:30:03.540137,-0.2225106656551361,0.3094255030155182,-0.9409709572792053,-0.26890742778778076,-0.22407035529613495,1.4780598878860474
2023-03-09 23:30:03.599959,-0.22507444024085999,0.30494898557662964,-0.9463299512863159,-0.2563280165195465,-0.223578542470932,1.478582739830017
2023-03-09 23:30:03.649938,-0.23563642799854279,0.3108658492565155,-0.9490744471549988,-0.24490049481391907,-0.22326643764972687,1.47999906539917
2023-03-09 23:30:03.679843,-0.2338624894618988,0.2892085015773773,-0.9337205290794373,-0.23574574291706085,-0.22298234701156616,1.4803260564804077
2023-03-09 23:30:03.720537,-0.22476373612880707,0.2519338130950928,-0.920982301235199,-0.22137390077114105,-0.22201000154018402,1.4802521467208862
2023-03-09 23:30:03.750312,-0.2232477366924286,0.22738656401634216,-0.9175548553466797,-0.21043385565280914,-0.22143210470676422,1.4798953533172607
2023-03-09 23:30:03.820324,-0.22036412358283997,0.20893503725528717,-0.9351716637611389,-0.18781448900699615,-0.22080256044864655,1.4789804220199585
2023-03-09 23:30:03.851203,-0.22467973828315735,0.19064728915691376,-0.9270355105400085,-0.1787382960319519,-0.22048109769821167,1.478734016418457
2023-03-09 23:30:03.930895,-0.20779907703399658,0.15649864077568054,-0.9505168795585632,-0.15853658318519592,-0.2193572074174881,1.4763288497924805
2023-03-09 23:30:03.951106,-0.20071031153202057,0.14102737605571747,-0.9594983458518982,-0.15348592400550842,-0.21879942715168,1.4754225015640259
2023-03-09 23:30:03.970598,-0.1799936592578888,0.11753528565168381,-0.9645155668258667,-0.14781615138053894,-0.21801067888736725,1.4744600057601929
2023-03-09 23:30:04.030123,-0.18577274680137634,0.09141162782907486,-0.9466124773025513,-0.12980328500270844,-0.21785712242126465,1.4749144315719604
2023-03-09 23:30:04.070193,-0.2258530557155609,0.10559640824794769,-0.9612210988998413,-0.12108176946640015,-0.22084034979343414,1.4780657291412354
2023-03-09 23:30:04.090033,-0.21211287379264832,0.09865990281105042,-0.9567587971687317,-0.11714895814657211,-0.22232523560523987,1.4791797399520874
2023-03-09 23:30:04.120049,-0.21565867960453033,0.11264369636774063,-0.9751508235931396,-0.111862413585186,-0.2247951477766037,1.4808013439178467
2023-03-09 23:30:04.190241,-0.2096259742975235,0.08317244797945023,-0.9475226998329163,-0.09808012843132019,-0.23197996616363525,1.4857484102249146
2023-03-09 23:30:04.210938,-0.2543357312679291,0.06219783052802086,-0.921694278717041,-0.09476668387651443,-0.23581205308437347,1.4884018898010254
2023-03-09 23:30:04.289891,-0.2754368484020233,0.0836397260427475,-0.9763612747192383,-0.09130782634019852,-0.2482399046421051,1.4979835748672485
2023-03-09 23:30:04.330422,-0.2723545730113983,0.07385486364364624,-0.9919091463088989,-0.08750008791685104,-0.25222405791282654,1.503051519393921
2023-03-09 23:30:04.450604,-0.2629009187221527,0.0011555193923413754,-0.9721981883049011,-0.058772407472133636,-0.2577612102031708,1.5232936143875122
2023-03-09 23:30:04.500041,-0.3050314784049988,-0.03820199891924858,-0.9371113777160645,-0.0429525151848793,-0.25875645875930786,1.5349520444869995
2023-03-09 23:30:04.520101,-0.3178250193595886,-0.03329692780971527,-0.9473212361335754,-0.038139816373586655,-0.25814539194107056,1.5389578342437744
2023-03-09 23:30:04.550317,-0.3089093267917633,-0.02915099263191223,-0.9522629976272583,-0.03179315850138664,-0.2544889450073242,1.5423426628112793
2023-03-09 23:30:04.582079,-0.25738725066185,-0.02846684493124485,-0.945052981376648,-0.02610265463590622,-0.24820753931999207,1.5417165756225586
2023-03-09 23:30:04.773943,-0.18784716725349426,0.02298005297780037,-0.9910376667976379,-0.01800471916794777,-0.21343283355236053,1.522765874862671
2023-03-09 23:30:04.851052,-0.14129723608493805,0.033476993441581726,-1.0009417533874512,-0.026079464703798294,-0.19617809355258942,1.5157935619354248
2023-03-09 23:30:04.940579,-0.14486078917980194,0.030075708404183388,-0.9962749481201172,-0.02759687788784504,-0.18333351612091064,1.5121870040893555
2023-03-09 23:30:05.029957,-0.17684109508991241,0.018510380759835243,-0.9846019148826599,-0.02598656713962555,-0.18073976039886475,1.5123447179794312
2023-03-09 23:30:05.071018,-0.17352916300296783,0.01804967038333416,-0.9799139499664307,-0.025639604777097702,-0.1804429590702057,1.5117387771606445
2023-03-09 23:30:05.086750,-0.16977015137672424,0.017179077491164207,-0.9795266389846802,-0.025596436113119125,-0.1803457885980606,1.5115684270858765
2023-03-09 23:30:05.123389,-0.17008960247039795,0.018766775727272034,-0.983572244644165,-0.02565997652709484,-0.1803070455789566,1.5113039016723633
2023-03-09 23:30:05.170319,-0.17302830517292023,0.02154543809592724,-0.9869345426559448,-0.02563135139644146,-0.17950022220611572,1.5117536783218384
2023-03-09 23:30:05.220339,-0.15485569834709167,0.024376587942242622,-0.9942594766616821,-0.025378916412591934,-0.17888286709785461,1.511995792388916
2023-03-09 23:30:05.250860,-0.1692361980676651,0.015204676426947117,-0.9777668118476868,-0.02427457645535469,-0.17954830825328827,1.5129597187042236
2023-03-09 23:30:05.271024,-0.18332089483737946,0.014945331029593945,-0.9714572429656982,-0.02366325631737709,-0.18031176924705505,1.5139297246932983
2023-03-09 23:30:05.330249,-0.18766175210475922,0.01937173306941986,-0.9732809662818909,-0.0240230280905962,-0.18202032148838043,1.5157010555267334
2023-03-09 23:30:05.380158,-0.1685781180858612,0.02792946808040142,-0.990124523639679,-0.025573287159204483,-0.1823492795228958,1.5152945518493652
2023-03-09 23:30:05.454934,-0.18291017413139343,0.03161394223570824,-0.9761472940444946,-0.027038827538490295,-0.18458619713783264,1.5151516199111938
2023-03-09 23:30:05.515115,-0.17678162455558777,0.04166947305202484,-0.98576819896698,-0.029177021235227585,-0.1863207370042801,1.5148613452911377
2023-03-09 23:30:05.573822,-0.19046282768249512,0.0411362461745739,-0.9852588772773743,-0.030546391382813454,-0.18820682168006897,1.51678466796875
2023-03-09 23:30:05.591135,-0.1999650001525879,0.042895346879959106,-0.9824931025505066,-0.0306947473436594,-0.18874472379684448,1.5178751945495605
2023-03-09 23:30:05.630178,-0.2050652801990509,0.043014273047447205,-0.9805859327316284,-0.030916154384613037,-0.1893732249736786,1.5191876888275146
2023-03-09 23:30:05.692346,-0.19600321352481842,0.03592144325375557,-0.9762972593307495,-0.030172182247042656,-0.19021999835968018,1.5186195373535156
2023-03-09 23:30:05.761710,-0.1872817873954773,0.039472080767154694,-0.9841310381889343,-0.03001333214342594,-0.19037999212741852,1.517488956451416
2023-03-09 23:30:05.783022,-0.18677613139152527,0.043419308960437775,-0.9889346957206726,-0.029987305402755737,-0.1904834508895874,1.517337679862976
2023-03-09 23:30:05.794999,-0.17850397527217865,0.03956130892038345,-0.9900690317153931,-0.029788831248879433,-0.19064055383205414,1.5171072483062744
2023-03-09 23:30:05.849251,-0.19846169650554657,0.026555299758911133,-0.9708321690559387,-0.028084544464945793,-0.1931544840335846,1.5180127620697021
2023-03-09 23:30:05.890401,-0.2156626582145691,0.029475925490260124,-0.9772014021873474,-0.02772524021565914,-0.19445860385894775,1.5200906991958618
2023-03-09 23:30:05.989118,-0.18834218382835388,0.02632797136902809,-0.9742739200592041,-0.02692219987511635,-0.19333279132843018,1.5187336206436157
2023-03-09 23:30:06.010339,-0.19078578054904938,0.024794723838567734,-0.9730645418167114,-0.026787402108311653,-0.19245249032974243,1.5176990032196045
2023-03-09 23:30:06.041314,-0.18422357738018036,0.028569523245096207,-0.98030024766922,-0.02715972065925598,-0.19186364114284515,1.5169425010681152
2023-03-09 23:30:06.070134,-0.1837986707687378,0.028724316507577896,-0.9815042018890381,-0.027612602338194847,-0.1913917511701584,1.51612389087677
2023-03-09 23:30:06.130304,-0.18482229113578796,0.035999786108732224,-0.9884784817695618,-0.02864000014960766,-0.1904834359884262,1.5151315927505493
2023-03-09 23:30:06.190443,-0.18246233463287354,0.03703797608613968,-0.9792163968086243,-0.02871662937104702,-0.18978597223758698,1.5144120454788208
2023-03-09 23:30:06.240872,-0.1839660406112671,0.03620287775993347,-0.9823601245880127,-0.028525030240416527,-0.189619243144989,1.5137653350830078
2023-03-09 23:30:06.290787,-0.19060714542865753,0.039276834577322006,-0.9800626635551453,-0.028458252549171448,-0.19014176726341248,1.5127713680267334
2023-03-09 23:30:06.310367,-0.18129096925258636,0.03751366585493088,-0.9801257848739624,-0.028251973912119865,-0.19026438891887665,1.5122270584106445
2023-03-09 23:30:06.350634,-0.18221794068813324,0.0340842679142952,-0.9751554131507874,-0.028027905151247978,-0.19063611328601837,1.511674165725708
2023-03-09 23:30:06.480160,-0.19524125754833221,0.03766606003046036,-0.9829185605049133,-0.027560165151953697,-0.19194087386131287,1.5118463039398193
2023-03-09 23:30:06.518308,-0.18095538020133972,0.03084813989698887,-0.980010449886322,-0.02671370469033718,-0.19203141331672668,1.5117270946502686
2023-03-09 23:30:06.550231,-0.19234392046928406,0.028523966670036316,-0.9784145951271057,-0.025754714384675026,-0.19279612600803375,1.512062668800354
2023-03-09 23:30:06.610339,-0.19222263991832733,0.02812793105840683,-0.9778169989585876,-0.024529429152607918,-0.19338667392730713,1.512799620628357
2023-03-09 23:30:06.660906,-0.1918269395828247,0.02119162492454052,-0.9734309911727905,-0.02334294468164444,-0.19405131042003632,1.513401985168457
2023-03-09 23:30:06.800220,-0.1951921135187149,0.030160510912537575,-0.9828779697418213,-0.022608961910009384,-0.19572724401950836,1.5150922536849976
2023-03-09 23:30:06.861146,-0.18889577686786652,0.026776699349284172,-0.9776349067687988,-0.021547585725784302,-0.1959516853094101,1.514471411705017
2023-03-09 23:30:06.950787,-0.19193707406520844,0.027765793725848198,-0.97749263048172,-0.02114773727953434,-0.19653689861297607,1.5151392221450806
2023-03-09 23:30:06.980214,-0.19446158409118652,0.030641142278909683,-0.9779271483421326,-0.021488245576620102,-0.19690117239952087,1.5157546997070312
2023-03-09 23:30:07.050384,-0.19879713654518127,0.029239628463983536,-0.9828056693077087,-0.022320514544844627,-0.1982593834400177,1.5168521404266357
2023-03-09 23:30:07.090079,-0.1979609727859497,0.02967609092593193,-0.9814584255218506,-0.02248808927834034,-0.19878137111663818,1.517121434211731
2023-03-09 23:30:07.150649,-0.1925167739391327,0.02700807899236679,-0.9818996787071228,-0.022148801013827324,-0.199279323220253,1.5173906087875366
2023-03-09 23:30:07.200490,-0.20077672600746155,0.027496667578816414,-0.9754062294960022,-0.02183438464999199,-0.20008806884288788,1.5178093910217285
2023-03-09 23:30:07.250665,-0.20197468996047974,0.029167933389544487,-0.9739367365837097,-0.02181875891983509,-0.2006525695323944,1.518445611000061
2023-03-09 23:30:07.271056,-0.20126031339168549,0.026015859097242355,-0.9732325673103333,-0.021797699853777885,-0.20081010460853577,1.5186561346054077
2023-03-09 23:30:07.344396,-0.20176401734352112,0.032305553555488586,-0.9839832782745361,-0.022494712844491005,-0.20114517211914062,1.5190703868865967
2023-03-09 23:30:07.370142,-0.20173124969005585,0.030579298734664917,-0.9798010587692261,-0.022465568035840988,-0.20113517343997955,1.518985629081726
2023-03-09 23:30:07.412684,-0.18895141780376434,0.026866381987929344,-0.9781826138496399,-0.022039173170924187,-0.20084832608699799,1.5186681747436523
2023-03-09 23:30:07.470260,-0.1970011442899704,0.030590631067752838,-0.9838060736656189,-0.0216451957821846,-0.20096926391124725,1.5189458131790161
2023-03-09 23:30:07.560580,-0.19506724178791046,0.023054063320159912,-0.9716073870658875,-0.02059147320687771,-0.20142295956611633,1.5194252729415894
2023-03-09 23:30:07.668419,-0.2029861956834793,0.030111463740468025,-0.9788637757301331,-0.020424632355570793,-0.20237146317958832,1.520540714263916
2023-03-09 23:30:07.680554,-0.20755231380462646,0.027143433690071106,-0.976250946521759,-0.020065613090991974,-0.20262324810028076,1.5216858386993408
2023-03-09 23:30:07.750359,-0.20001934468746185,0.02451971545815468,-0.9764152765274048,-0.019290881231427193,-0.2025889903306961,1.5213465690612793
2023-03-09 23:30:07.790982,-0.1970101296901703,0.025298096239566803,-0.9795647263526917,-0.019028641283512115,-0.20222805440425873,1.5211910009384155
2023-03-09 23:30:07.825627,-0.19668066501617432,0.02381850779056549,-0.9783933162689209,-0.01868141070008278,-0.2020729035139084,1.5212255716323853
2023-03-09 23:30:07.851935,-0.1968173235654831,0.022570760920643806,-0.9768445491790771,-0.01831076107919216,-0.20211878418922424,1.5213522911071777
2023-03-09 23:30:07.876367,-0.19837145507335663,0.021958600729703903,-0.9765768647193909,-0.018032360821962357,-0.20226071774959564,1.5215306282043457
2023-03-09 23:30:07.960098,-0.205691859126091,0.023673254996538162,-0.9796727299690247,-0.017972098663449287,-0.20273138582706451,1.5226588249206543
2023-03-09 23:30:08.040449,-0.19720374047756195,0.023046011105179787,-0.9798240661621094,-0.017305385321378708,-0.20251674950122833,1.5222162008285522
2023-03-09 23:30:08.106608,-0.20379638671875,0.02354039065539837,-0.9753389954566956,-0.017192529514431953,-0.2027553766965866,1.5221776962280273
2023-03-09 23:30:08.160373,-0.20560146868228912,0.024906745180487633,-0.9752027988433838,-0.017416954040527344,-0.202862948179245,1.522937297821045
2023-03-09 23:30:08.230597,-0.20335596799850464,0.026639090850949287,-0.9841115474700928,-0.017901290208101273,-0.20273451507091522,1.5228095054626465
2023-03-09 23:30:08.310485,-0.19474756717681885,0.024091370403766632,-0.9797254800796509,-0.017595350742340088,-0.2020980715751648,1.5221459865570068
2023-03-09 23:30:08.331191,-0.1901019811630249,0.021783262491226196,-0.9759864211082458,-0.01728655770421028,-0.20195771753787994,1.5219181776046753
2023-03-09 23:30:08.380132,-0.20135456323623657,0.024244848638772964,-0.979582667350769,-0.017122752964496613,-0.2020869255065918,1.5217502117156982
2023-03-09 23:30:08.470123,-0.1940872222185135,0.018459264189004898,-0.9739406108856201,-0.01630164496600628,-0.20245243608951569,1.5205657482147217
2023-03-09 23:30:08.590162,-0.20778559148311615,0.027230694890022278,-0.9834725260734558,-0.01586933061480522,-0.20370270311832428,1.5219504833221436
2023-03-09 23:30:08.790359,-0.19789820909500122,0.012299337424337864,-0.9752085208892822,-0.010186337865889072,-0.20353813469409943,1.5192654132843018
2023-03-09 23:30:08.826007,-0.20050674676895142,0.011188146658241749,-0.97593754529953,-0.010106244124472141,-0.20355704426765442,1.5195329189300537
2023-03-09 23:30:08.854625,-0.20366862416267395,0.012855904176831245,-0.9759217500686646,-0.010269835591316223,-0.20371724665164948,1.519858717918396
2023-03-09 23:30:08.880150,-0.200447678565979,0.01472930796444416,-0.9771981835365295,-0.010487314313650131,-0.20381520688533783,1.519885540008545
2023-03-09 23:30:08.931222,-0.2013002187013626,0.01709907129406929,-0.9806209802627563,-0.01116352342069149,-0.20386271178722382,1.5198869705200195
2023-03-09 23:30:08.980715,-0.20198717713356018,0.014403908513486385,-0.9746883511543274,-0.011244735680520535,-0.20376399159431458,1.5199583768844604
2023-03-09 23:30:09.056840,-0.19302673637866974,0.017170626670122147,-0.9792839884757996,-0.011540560983121395,-0.2036471664905548,1.5199233293533325
2023-03-09 23:30:09.107383,-0.20498333871364594,0.01926340162754059,-0.9729686975479126,-0.01191791146993637,-0.20409366488456726,1.5202723741531372
2023-03-09 23:30:09.160253,-0.21147598326206207,0.021735139191150665,-0.9788686037063599,-0.012077229097485542,-0.20456045866012573,1.5183838605880737
2023-03-09 23:30:09.180888,-0.2067747265100479,0.0161906648427248,-0.9725217223167419,-0.011640378274023533,-0.20484356582164764,1.5166031122207642
2023-03-09 23:30:09.210166,-0.19997043907642365,0.01831584982573986,-0.9794926047325134,-0.01131043303757906,-0.2048838883638382,1.514554500579834
2023-03-09 23:30:09.261589,-0.1919500231742859,0.01846972666680813,-0.9790228605270386,-0.010917137376964092,-0.2038043588399887,1.5132452249526978
2023-03-09 23:30:09.290376,-0.19983309507369995,0.018521178513765335,-0.9751474261283875,-0.010442360304296017,-0.20275436341762543,1.5133070945739746
2023-03-09 23:30:09.320142,-0.1895207166671753,0.019358092918992043,-0.9816776514053345,-0.010153972543776035,-0.20214290916919708,1.5132132768630981
2023-03-09 23:30:09.370321,-0.1996854841709137,0.017357317730784416,-0.9796149730682373,-0.009470872581005096,-0.20230422914028168,1.5135568380355835
2023-03-09 23:30:09.433044,-0.1991921365261078,0.01722930371761322,-0.9772350788116455,-0.008939300663769245,-0.20285382866859436,1.5140395164489746
2023-03-09 23:30:09.460577,-0.2008182257413864,0.014246789738535881,-0.9755465984344482,-0.008433458395302296,-0.20323345065116882,1.5141937732696533
2023-03-09 23:30:09.550451,-0.21275511384010315,0.007765701040625572,-0.975174069404602,-0.007780265063047409,-0.20398536324501038,1.5143762826919556
2023-03-09 23:30:09.690333,-0.19204504787921906,0.014591782353818417,-0.9811384081840515,-0.007866743952035904,-0.2012348622083664,1.5116480588912964
2023-03-09 23:30:09.760653,-0.19792768359184265,0.016044272109866142,-0.9807872772216797,-0.007929041050374508,-0.20079690217971802,1.5117686986923218
2023-03-09 23:30:09.830126,-0.20205149054527283,0.016254160553216934,-0.9777130484580994,-0.007071178872138262,-0.20078031718730927,1.5121967792510986
2023-03-09 23:30:09.920239,-0.1995832771062851,0.01174276415258646,-0.9762343168258667,-0.005511516239494085,-0.20111028850078583,1.511590600013733
2023-03-09 23:30:10.000444,-0.19771617650985718,0.007566678803414106,-0.9747499227523804,-0.004201243631541729,-0.20052869617938995,1.5114634037017822
2023-03-09 23:30:10.030276,-0.19461309909820557,0.0048583559691905975,-0.980259358882904,-0.003693660954013467,-0.20037691295146942,1.5111632347106934
2023-03-09 23:30:10.076569,-0.19064103066921234,0.00281927571631968,-0.9797443151473999,-0.002997898031026125,-0.20025096833705902,1.510794758796692
2023-03-09 23:30:10.160206,-0.20257413387298584,0.004080099519342184,-0.9709334969520569,-0.001736567122861743,-0.2008771002292633,1.5120505094528198
2023-03-09 23:30:10.173077,-0.20354001224040985,0.0037964223884046078,-0.9716091156005859,-0.0017204914474859834,-0.2009735107421875,1.5123059749603271
2023-03-09 23:30:10.200168,-0.20849992334842682,0.009557338431477547,-0.9806288480758667,-0.0019383286125957966,-0.20135881006717682,1.5129332542419434
2023-03-09 23:30:10.320139,-0.19060221314430237,0.00763810146600008,-0.9801682233810425,-0.0007315304246731102,-0.200361967086792,1.5124417543411255
2023-03-09 23:30:10.380371,-0.19660592079162598,0.005408241413533688,-0.9804428815841675,-0.00019559217616915703,-0.20009009540081024,1.5124907493591309
2023-03-09 23:30:10.450099,-0.19696533679962158,0.0039011684712022543,-0.9769641757011414,0.0006299204542301595,-0.1999274045228958,1.51290762424469
2023-03-09 23:30:10.530342,-0.19976100325584412,0.0031210011802613735,-0.9772130250930786,0.0019070417620241642,-0.2005506157875061,1.513529658317566
2023-03-09 23:30:10.551295,-0.20150089263916016,0.004305127542465925,-0.978451669216156,0.0019058374455198646,-0.20064258575439453,1.5136853456497192
2023-03-09 23:30:10.580360,-0.2057623565196991,0.0034702459815889597,-0.9772025942802429,0.0020801075734198093,-0.2008448839187622,1.5141727924346924
2023-03-09 23:30:10.610277,-0.20140042901039124,0.0016157400095835328,-0.977138876914978,0.0022859815508127213,-0.2007679045200348,1.514283299446106
2023-03-09 23:30:10.680421,-0.1954672485589981,0.0028447427321225405,-0.9782841205596924,0.0026307504158467054,-0.20035642385482788,1.513835072517395
2023-03-09 23:30:10.740486,-0.19191297888755798,0.0025329114869236946,-0.97963547706604,0.002888184506446123,-0.20012661814689636,1.513395071029663
2023-03-09 23:30:10.790742,-0.19522176682949066,-0.000761699746362865,-0.9759394526481628,0.0030702196527272463,-0.20052607357501984,1.5133764743804932
2023-03-09 23:30:10.843008,-0.19665226340293884,0.002082453342154622,-0.9793488383293152,0.0028400332666933537,-0.20104338228702545,1.5137362480163574
2023-03-09 23:30:10.909911,-0.20379339158535004,0.00442484999075532,-0.9764785766601562,0.002290855860337615,-0.2020220160484314,1.5146632194519043
2023-03-09 23:30:10.970218,-0.20687508583068848,0.005086367018520832,-0.9764828085899353,0.0019801959861069918,-0.2022932469844818,1.5152884721755981
2023-03-09 23:30:11.000320,-0.1994585245847702,0.004847502801567316,-0.979216992855072,0.0020735261496156454,-0.2022382766008377,1.5152353048324585
2023-03-09 23:30:11.100300,-0.20435410737991333,0.006512228865176439,-0.978379487991333,0.0020842726808041334,-0.20300406217575073,1.5157252550125122
2023-03-09 23:30:11.131913,-0.20533615350723267,0.00677916407585144,-0.9744946360588074,0.0020407498814165592,-0.20337891578674316,1.5162760019302368
2023-03-09 23:30:11.170271,-0.20758147537708282,0.004074228461831808,-0.9729505777359009,0.0021363787818700075,-0.20372574031352997,1.5167561769485474
2023-03-09 23:30:11.210633,-0.2068941444158554,0.007012544199824333,-0.9833824038505554,0.0020631549414247274,-0.20387837290763855,1.516709327697754
2023-03-09 23:30:11.240051,-0.20309820771217346,0.005751817021518946,-0.9815689325332642,0.0023358885664492846,-0.20368851721286774,1.5164177417755127
2023-03-09 23:30:11.341315,-0.20163442194461823,-0.00012040192086715251,-0.9761968851089478,0.003449126146733761,-0.20305965840816498,1.5155278444290161
2023-03-09 23:30:11.370043,-0.20107713341712952,0.0010551365558058023,-0.9797274470329285,0.0036332698073238134,-0.20305278897285461,1.515695571899414
2023-03-09 23:30:11.410516,-0.20106779038906097,0.0038733019027858973,-0.9760569334030151,0.0037209729198366404,-0.20293761789798737,1.5158202648162842
2023-03-09 23:30:11.460284,-0.2020549774169922,0.003922416362911463,-0.9775180220603943,0.004140454810112715,-0.20316638052463531,1.5157341957092285
2023-03-09 23:30:11.481179,-0.20119993388652802,-0.0002965115709230304,-0.9751951694488525,0.004222984425723553,-0.2033352106809616,1.5157557725906372
2023-03-09 23:30:11.510326,-0.2046281397342682,0.0036449600011110306,-0.9794019460678101,0.004119810648262501,-0.20354509353637695,1.515975832939148
2023-03-09 23:30:11.560118,-0.21203847229480743,0.0041765207424759865,-0.9789798855781555,0.004243140108883381,-0.2037585973739624,1.5162932872772217
2023-03-09 23:30:11.590323,-0.20351120829582214,0.003129140706732869,-0.9763802886009216,0.004599596839398146,-0.20341764390468597,1.5159814357757568
2023-03-09 23:30:11.630348,-0.20011796057224274,0.0009116156143136322,-0.9777050018310547,0.00501201581209898,-0.20300902426242828,1.515289545059204
2023-03-09 23:30:11.670418,-0.1955464482307434,-0.0027076147962361574,-0.9752171635627747,0.005674788728356361,-0.2021811455488205,1.5146934986114502
2023-03-09 23:30:11.710132,-0.1976681649684906,-0.0024667554534971714,-0.9777873158454895,0.0059312814846634865,-0.20166762173175812,1.5145281553268433
2023-03-09 23:30:11.750128,-0.1939820647239685,-0.0002592430973891169,-0.9802639484405518,0.006127084139734507,-0.20135121047496796,1.5143320560455322
2023-03-09 23:30:11.781462,-0.1970280557870865,-0.0012388410978019238,-0.9756147265434265,0.006264175288379192,-0.2013382911682129,1.5144227743148804
2023-03-09 23:30:11.830018,-0.20276440680027008,0.0012626020470634103,-0.9813119769096375,0.006185715552419424,-0.20116321742534637,1.514909029006958
2023-03-09 23:30:11.879780,-0.20782235264778137,-0.0006486085476353765,-0.9763965010643005,0.006492007989436388,-0.20146697759628296,1.5143777132034302
2023-03-09 23:30:11.929944,-0.19343748688697815,-0.0032276844140142202,-0.9753990769386292,0.007109881844371557,-0.20090749859809875,1.5130482912063599
2023-03-09 23:30:11.950187,-0.19287905097007751,-0.005023203324526548,-0.978020966053009,0.007235504221171141,-0.20065170526504517,1.512872338294983
2023-03-09 23:30:11.979988,-0.19408805668354034,0.0009007215267047286,-0.9788998365402222,0.007158500142395496,-0.20016640424728394,1.5129214525222778
2023-03-09 23:30:12.050109,-0.19307996332645416,0.0002556500840000808,-0.9819125533103943,0.007026213686913252,-0.19970238208770752,1.5126372575759888
2023-03-09 23:30:12.070023,-0.196224644780159,0.0031001558527350426,-0.98524010181427,0.006913586985319853,-0.19980481266975403,1.5125726461410522
2023-03-09 23:30:12.109966,-0.20163647830486298,0.0011461209505796432,-0.9773560762405396,0.007013179827481508,-0.20044299960136414,1.5125956535339355
2023-03-09 23:30:12.160188,-0.2014148086309433,0.00301977782510221,-0.9758296608924866,0.006979243364185095,-0.20068427920341492,1.5127861499786377
2023-03-09 23:30:12.229761,-0.20255911350250244,-0.0010536996414884925,-0.9830769896507263,0.007523073814809322,-0.20073050260543823,1.5126718282699585
2023-03-09 23:30:12.279975,-0.19809213280677795,0.001000798773020506,-0.9821479320526123,0.008193392306566238,-0.20017950236797333,1.5121078491210938
2023-03-09 23:30:12.330019,-0.1944895088672638,-0.002642912557348609,-0.9796091318130493,0.009405001997947693,-0.1996423304080963,1.5111151933670044
2023-03-09 23:30:12.370425,-0.19142723083496094,-0.010178064927458763,-0.9735408425331116,0.010547748766839504,-0.19966785609722137,1.5105376243591309
2023-03-09 23:30:12.400248,-0.19328878819942474,-0.0077191987074911594,-0.9791399836540222,0.010971480049192905,-0.1998925656080246,1.510646104812622
2023-03-09 23:30:12.429946,-0.19680076837539673,-0.005342227406799793,-0.9815424084663391,0.011326905339956284,-0.20008862018585205,1.5109131336212158
2023-03-09 23:30:12.450139,-0.20007027685642242,-0.005937428213655949,-0.9768840074539185,0.011713131330907345,-0.20030702650547028,1.5110208988189697
2023-03-09 23:30:12.480340,-0.20337143540382385,-0.010606303811073303,-0.9710870385169983,0.012315633706748486,-0.20081986486911774,1.5110987424850464
2023-03-09 23:30:12.500102,-0.20297640562057495,-0.009938009083271027,-0.9725190997123718,0.01258429978042841,-0.20114830136299133,1.5111892223358154
2023-03-09 23:30:12.550207,-0.20246145129203796,-0.00950468797236681,-0.9757649898529053,0.012664717622101307,-0.20170728862285614,1.5114355087280273
2023-03-09 23:30:12.560244,-0.20558953285217285,-0.00671775359660387,-0.9791001677513123,0.012618274427950382,-0.20183414220809937,1.5115424394607544
2023-03-09 23:30:12.600368,-0.20758046209812164,-0.005019693169742823,-0.9772819876670837,0.012608391232788563,-0.2020362913608551,1.5118021965026855
2023-03-09 23:30:12.630141,-0.20310159027576447,-0.007044217083603144,-0.9770206212997437,0.012735309079289436,-0.2020150125026703,1.5115586519241333
2023-03-09 23:30:12.679918,-0.19939473271369934,-0.008394801057875156,-0.9773339033126831,0.012847315520048141,-0.20171035826206207,1.5112028121948242
2023-03-09 23:30:12.711006,-0.20025914907455444,0.0009812740609049797,-0.9876984357833862,0.012847867794334888,-0.20129163563251495,1.511015772819519
2023-03-09 23:30:12.739968,-0.1929330974817276,-0.007401901762932539,-0.9773072600364685,0.013127520680427551,-0.20081524550914764,1.5107556581497192
2023-03-09 23:30:12.819846,-0.19295242428779602,-0.010712618939578533,-0.9748886227607727,0.01291818916797638,-0.20156104862689972,1.5107908248901367
2023-03-09 23:30:12.850063,-0.19498468935489655,-0.00706430384889245,-0.975871741771698,0.012784836813807487,-0.20193950831890106,1.5110359191894531
2023-03-09 23:30:12.920183,-0.20270775258541107,-0.002173171378672123,-0.9818606376647949,0.012364203110337257,-0.20304957032203674,1.511942744255066
2023-03-09 23:30:12.990024,-0.20572467148303986,-0.005477989558130503,-0.9774571657180786,0.012475688010454178,-0.20399785041809082,1.512574315071106
2023-03-09 23:30:13.030056,-0.20661970973014832,-0.00689571863040328,-0.9787488579750061,0.012744760140776634,-0.20445314049720764,1.5128028392791748
2023-03-09 23:30:13.080632,-0.2040376216173172,-0.009366319514811039,-0.9757570028305054,0.013050888665020466,-0.20464923977851868,1.5127609968185425
2023-03-09 23:30:13.110247,-0.20215752720832825,-0.011292658746242523,-0.980553150177002,0.013224363327026367,-0.2046852856874466,1.512612223625183
2023-03-09 23:30:13.180373,-0.21025802195072174,-0.0067421868443489075,-0.9756141304969788,0.013547025620937347,-0.20528392493724823,1.5126184225082397
2023-03-09 23:30:13.210142,-0.20713019371032715,-0.006468827370554209,-0.975342333316803,0.013619489967823029,-0.20537486672401428,1.5128471851348877
2023-03-09 23:30:13.250185,-0.20738062262535095,-0.006718362681567669,-0.9748076796531677,0.013561742380261421,-0.20554058253765106,1.512994408607483
2023-03-09 23:30:13.271080,-0.2110012322664261,-0.008779129944741726,-0.9745528697967529,0.013595422729849815,-0.20557904243469238,1.512961745262146
2023-03-09 23:30:13.310722,-0.20757287740707397,-0.004544500727206469,-0.9835699796676636,0.013410006649792194,-0.20531915128231049,1.5127551555633545
2023-03-09 23:30:13.330282,-0.2019345760345459,-0.007315706927329302,-0.9836071133613586,0.013524285517632961,-0.20509853959083557,1.5124289989471436
2023-03-09 23:30:13.350441,-0.19997593760490417,-0.008904763497412205,-0.9797688126564026,0.013677515089511871,-0.20480316877365112,1.5121843814849854
2023-03-09 23:30:13.420048,-0.1878594011068344,-0.015891436487436295,-0.9752553701400757,0.01454458013176918,-0.20417647063732147,1.5116245746612549
2023-03-09 23:30:13.481015,-0.20337189733982086,-0.008855114690959454,-0.9794765114784241,0.014168904162943363,-0.20447851717472076,1.512329339981079
2023-03-09 23:30:13.520006,-0.20120975375175476,-0.008232275024056435,-0.9762977957725525,0.013921349309384823,-0.204691082239151,1.5126363039016724
2023-03-09 23:30:13.561137,-0.2041512429714203,-0.009209014475345612,-0.9775955677032471,0.013849416747689247,-0.2051916867494583,1.5127583742141724
2023-03-09 23:30:13.610099,-0.20757989585399628,-0.008698205463588238,-0.9769248366355896,0.01362597569823265,-0.2053777128458023,1.5133713483810425
2023-03-09 23:30:13.680299,-0.20378068089485168,-0.007692535873502493,-0.9750974774360657,0.013327337801456451,-0.20474155247211456,1.5140166282653809
2023-03-09 23:30:13.711216,-0.2000715136528015,-0.009130893275141716,-0.9751706123352051,0.013164807111024857,-0.20440447330474854,1.5138425827026367
2023-03-09 23:30:13.781538,-0.19472196698188782,-0.004309406038373709,-0.9824222922325134,0.01241659838706255,-0.2036096602678299,1.5133259296417236
2023-03-09 23:30:13.820248,-0.19819721579551697,-0.007439743727445602,-0.9766311049461365,0.012641013599932194,-0.20363159477710724,1.5131243467330933
2023-03-09 23:30:13.859904,-0.19461245834827423,-0.009835933335125446,-0.9755997061729431,0.012709932401776314,-0.20387879014015198,1.5133695602416992
2023-03-09 23:30:13.891119,-0.20041173696517944,-0.007836518809199333,-0.9779742956161499,0.01265172753483057,-0.20420978963375092,1.513724684715271
2023-03-09 23:30:13.939935,-0.2109694480895996,-0.003648701123893261,-0.9763946533203125,0.012105912901461124,-0.20536218583583832,1.5147719383239746
2023-03-09 23:30:13.960073,-0.21037563681602478,-0.004526987671852112,-0.9778704643249512,0.012055231258273125,-0.20572832226753235,1.5150973796844482
2023-03-09 23:30:14.010235,-0.20655471086502075,-0.005722620990127325,-0.9771842360496521,0.011872749775648117,-0.20639227330684662,1.515424370765686
2023-03-09 23:30:14.119931,-0.2026844024658203,-0.008817953057587147,-0.9757097363471985,0.012033098377287388,-0.2065129578113556,1.515653133392334
2023-03-09 23:30:14.150107,-0.20100341737270355,-0.008450772613286972,-0.9801348447799683,0.01220961008220911,-0.2063104659318924,1.5154283046722412
2023-03-09 23:30:14.170088,-0.19319522380828857,-0.007600310258567333,-0.981123149394989,0.012304813601076603,-0.20615698397159576,1.5153398513793945
2023-03-09 23:30:14.200275,-0.20120860636234283,-0.008675015531480312,-0.9747301936149597,0.01238308660686016,-0.20639076828956604,1.5156052112579346
2023-03-09 23:30:14.260304,-0.2043013572692871,-0.006132642738521099,-0.9726985096931458,0.011926529929041862,-0.20680417120456696,1.516334056854248
2023-03-09 23:30:14.281507,-0.20868802070617676,-0.005933381151407957,-0.9741355776786804,0.011663954704999924,-0.20697683095932007,1.5166635513305664
2023-03-09 23:30:14.300924,-0.20795562863349915,-0.005340445786714554,-0.9778892397880554,0.011425333097577095,-0.20718610286712646,1.5169126987457275
2023-03-09 23:30:14.339978,-0.208660289645195,0.0006262639071792364,-0.983791708946228,0.010904666036367416,-0.20738770067691803,1.517177700996399
2023-03-09 23:30:14.391796,-0.2021504044532776,-0.0061658648774027824,-0.978161096572876,0.010850400663912296,-0.2073822021484375,1.5173335075378418
2023-03-09 23:30:14.430029,-0.2032102644443512,-0.004316575825214386,-0.9801390171051025,0.011114348657429218,-0.2072354108095169,1.5176454782485962
2023-03-09 23:30:14.490240,-0.21032573282718658,-0.008705854415893555,-0.976084291934967,0.011589426547288895,-0.20749810338020325,1.5176682472229004
2023-03-09 23:30:14.521448,-0.20381131768226624,-0.007676098495721817,-0.9776140451431274,0.011736179701983929,-0.20739784836769104,1.5176069736480713
2023-03-09 23:30:14.581317,-0.20197129249572754,-0.00875911395996809,-0.9739100933074951,0.012057914398610592,-0.20766586065292358,1.5173979997634888
2023-03-09 23:30:14.600772,-0.20165087282657623,-0.010674118995666504,-0.9740610122680664,0.01205490157008171,-0.20781613886356354,1.517495036125183
2023-03-09 23:30:14.622396,-0.20509390532970428,-0.010630648583173752,-0.9724599719047546,0.011922715231776237,-0.2080184817314148,1.5176758766174316
2023-03-09 23:30:14.699920,-0.2157435417175293,-0.003916759975254536,-0.9763827919960022,0.010428992100059986,-0.20868831872940063,1.5187278985977173
2023-03-09 23:30:14.769741,-0.20127823948860168,-0.004194252192974091,-0.9771445989608765,0.009385836310684681,-0.20813125371932983,1.5179013013839722
2023-03-09 23:30:14.809800,-0.20210012793540955,-0.0010184124112129211,-0.9789822101593018,0.008670701645314693,-0.20790068805217743,1.5178142786026
2023-03-09 23:30:14.849999,-0.20716668665409088,0.00036377442302182317,-0.9782240986824036,0.008089864626526833,-0.20784299075603485,1.518270492553711
2023-03-09 23:30:14.880753,-0.20580162107944489,-0.0018382061971351504,-0.976374626159668,0.0077507877722382545,-0.20787666738033295,1.5184576511383057
2023-03-09 23:30:14.929705,-0.20677213370800018,0.001952634658664465,-0.9801192283630371,0.007279369048774242,-0.20786930620670319,1.5186028480529785
2023-03-09 23:30:14.989959,-0.2056712657213211,-0.0024397491943091154,-0.9769362807273865,0.007091572508215904,-0.20809292793273926,1.5190128087997437
2023-03-09 23:30:15.029951,-0.2067841738462448,-0.0024281605146825314,-0.9753768444061279,0.006994574796408415,-0.20826345682144165,1.519216537475586
2023-03-09 23:30:15.070852,-0.20487229526042938,-0.0012187071843072772,-0.9777630567550659,0.006861675996333361,-0.20811878144741058,1.5194106101989746
2023-03-09 23:30:15.149731,-0.20342037081718445,-0.0050292047671973705,-0.9765828847885132,0.006964507512748241,-0.20785385370254517,1.5195376873016357
2023-03-09 23:30:15.211589,-0.19664926826953888,-0.0012341768015176058,-0.9845612049102783,0.007130793295800686,-0.2081027328968048,1.5190218687057495
2023-03-09 23:30:15.250690,-0.20636960864067078,-0.005426955875009298,-0.9729371666908264,0.007670740596950054,-0.20880453288555145,1.5193461179733276
2023-03-09 23:30:15.280385,-0.20259305834770203,-0.0054208626970648766,-0.9670473337173462,0.007800066843628883,-0.2091483175754547,1.5198835134506226
2023-03-09 23:30:15.310083,-0.21009483933448792,-0.0034189007710665464,-0.9711606502532959,0.007315118797123432,-0.2093682587146759,1.5207167863845825
2023-03-09 23:30:15.359855,-0.21715210378170013,0.0008490009931847453,-0.976334273815155,0.0062039815820753574,-0.21021313965320587,1.5215126276016235
2023-03-09 23:30:15.400612,-0.21341213583946228,0.0031431836541742086,-0.9803102612495422,0.005197657737880945,-0.21051956713199615,1.5214790105819702
2023-03-09 23:30:15.440206,-0.2094193398952484,0.002589566633105278,-0.9791147112846375,0.004537846427410841,-0.210374116897583,1.5212481021881104
2023-03-09 23:30:15.480052,-0.1996435672044754,2.6868932764045894e-05,-0.9810593724250793,0.0044238390401005745,-0.20990876853466034,1.520959496498108
2023-03-09 23:30:15.509786,-0.2067805677652359,-0.0030404769349843264,-0.9731768369674683,0.004576584789901972,-0.2100832462310791,1.5208733081817627
2023-03-09 23:30:15.549930,-0.2087421417236328,0.002899087266996503,-0.9804072976112366,0.004309426061809063,-0.21026641130447388,1.5211153030395508
2023-03-09 23:30:15.600676,-0.207618847489357,-0.0036427550949156284,-0.9716745018959045,0.004507276229560375,-0.21046362817287445,1.521190881729126
2023-03-09 23:30:15.630554,-0.2041599005460739,-0.002279814565554261,-0.9733322262763977,0.004427976906299591,-0.21071648597717285,1.521085500717163
2023-03-09 23:30:15.660645,-0.20872028172016144,0.0009468601201660931,-0.9758182168006897,0.0039955428801476955,-0.21107855439186096,1.5213003158569336
2023-03-09 23:30:15.710952,-0.2171327769756317,0.0038054673932492733,-0.9780136942863464,0.003065747208893299,-0.21174019575119019,1.5218782424926758
2023-03-09 23:30:15.809942,-0.20968827605247498,0.003909509629011154,-0.9766430258750916,0.002384948544204235,-0.2115291953086853,1.520995020866394
2023-03-09 23:30:15.880231,-0.2049829512834549,0.005460190586745739,-0.9794442653656006,0.002153949113562703,-0.2106577306985855,1.5201919078826904
2023-03-09 23:30:15.941323,-0.20496593415737152,0.0014706248184666038,-0.974876880645752,0.0021475625690072775,-0.21065618097782135,1.5200597047805786
2023-03-09 23:30:15.970001,-0.20947265625,0.003318346571177244,-0.9768596291542053,0.002025559078902006,-0.210982546210289,1.5201627016067505
2023-03-09 23:30:16.000049,-0.21103836596012115,0.005277649965137243,-0.9783437848091125,0.0019769929349422455,-0.21127727627754211,1.5200910568237305
2023-03-09 23:30:16.030251,-0.20574989914894104,0.003563892561942339,-0.9760048985481262,0.00213150423951447,-0.2115701287984848,1.5198521614074707
2023-03-09 23:30:16.060026,-0.2040993720293045,0.00202668784186244,-0.9759736657142639,0.0022192029282450676,-0.21196143329143524,1.5198194980621338
2023-03-09 23:30:16.100200,-0.21485130488872528,0.003929785452783108,-0.9778749942779541,0.0021092782262712717,-0.21227478981018066,1.520570158958435
2023-03-09 23:30:16.150171,-0.21519768238067627,0.0014937268570065498,-0.9723606109619141,0.0024000455159693956,-0.21210028231143951,1.5211180448532104
2023-03-09 23:30:16.200200,-0.2066967934370041,0.004027351271361113,-0.9826390147209167,0.002519352361559868,-0.21180202066898346,1.5202386379241943
2023-03-09 23:30:16.263239,-0.2089589685201645,0.00494692986831069,-0.9804399609565735,0.002793082734569907,-0.21204107999801636,1.5198224782943726
2023-03-09 23:30:16.300937,-0.20997491478919983,-0.0022559156641364098,-0.9682443141937256,0.0034242619294673204,-0.21193644404411316,1.5198917388916016
2023-03-09 23:30:16.321374,-0.21033665537834167,-0.0035657628905028105,-0.9683251976966858,0.003518984653055668,-0.21189847588539124,1.5200281143188477
2023-03-09 23:30:16.349874,-0.21266674995422363,-0.0010099329520016909,-0.9762305021286011,0.003329058876261115,-0.21181538701057434,1.5200741291046143
2023-03-09 23:30:16.370904,-0.2123882919549942,0.002773988526314497,-0.9809396862983704,0.0032495942432433367,-0.211733877658844,1.5199120044708252
2023-03-09 23:30:16.400966,-0.2077750712633133,0.0015344423009082675,-0.9807079434394836,0.0030288847628980875,-0.2114778310060501,1.5198025703430176
2023-03-09 23:30:16.450129,-0.21080602705478668,0.0024135096464306116,-0.9768881797790527,0.002837636275216937,-0.21115638315677643,1.519870638847351
2023-03-09 23:30:16.481589,-0.19785717129707336,-0.000709165760781616,-0.974142849445343,0.0028422472532838583,-0.2108394205570221,1.5198296308517456
2023-03-09 23:30:16.510555,-0.20919199287891388,0.0027168672531843185,-0.9737099409103394,0.0027176602743566036,-0.21102385222911835,1.5201561450958252
2023-03-09 23:30:16.530874,-0.21041949093341827,0.004141973797231913,-0.978705883026123,0.002394365146756172,-0.211033895611763,1.5203750133514404
2023-03-09 23:30:16.549968,-0.20938362181186676,0.009069474413990974,-0.9821118116378784,0.0021872057113796473,-0.21097418665885925,1.5206440687179565
2023-03-09 23:30:16.590692,-0.20972295105457306,0.005446710158139467,-0.9776954054832458,0.0021772878244519234,-0.21108117699623108,1.5209901332855225
2023-03-09 23:30:16.659985,-0.211688831448555,-0.00021901287254877388,-0.9718918204307556,0.0026652247179299593,-0.21212734282016754,1.5211546421051025
2023-03-09 23:30:16.699998,-0.21231825649738312,0.0015849466435611248,-0.9744863510131836,0.002493896521627903,-0.21223461627960205,1.5217812061309814
2023-03-09 23:30:16.730575,-0.21578241884708405,8.515806985087693e-05,-0.9714362025260925,0.0023076494690030813,-0.21230575442314148,1.522231936454773
2023-03-09 23:30:16.759864,-0.21343202888965607,0.0008872644393704832,-0.9725992679595947,0.0019494369626045227,-0.21229775249958038,1.522341012954712
2023-03-09 23:30:16.811370,-0.2037513554096222,0.0062949163839221,-0.9762714505195618,0.0009705428965389729,-0.21209318935871124,1.521966814994812
2023-03-09 23:30:16.850715,-0.20404651761054993,0.009940681047737598,-0.9798481464385986,0.00014656822895631194,-0.21209801733493805,1.5219786167144775
2023-03-09 23:30:16.890539,-0.20809568464756012,0.0070052482187747955,-0.9793680906295776,-0.00030351561144925654,-0.2123255878686905,1.5223745107650757
2023-03-09 23:30:16.949870,-0.20847781002521515,0.006977002136409283,-0.9766817092895508,-0.0006285656709223986,-0.21299318969249725,1.5230053663253784
2023-03-09 23:30:16.990223,-0.2147461622953415,0.006263010669499636,-0.9734491109848022,-0.0006371873314492404,-0.2136927843093872,1.5235172510147095
2023-03-09 23:30:17.020249,-0.21578340232372284,0.006011902820318937,-0.9730720520019531,-0.0009261559462174773,-0.21401691436767578,1.5240907669067383
2023-03-09 23:30:17.070216,-0.22170042991638184,0.00698053976520896,-0.9744155406951904,-0.0014882871182635427,-0.21436433494091034,1.5245356559753418
2023-03-09 23:30:17.109945,-0.2126946598291397,0.00557115999981761,-0.9751972556114197,-0.0017143103759735823,-0.2143852412700653,1.524166464805603
2023-03-09 23:30:17.151097,-0.20231911540031433,0.005182112567126751,-0.9763884544372559,-0.0017973463982343674,-0.21438923478126526,1.523655652999878
2023-03-09 23:30:17.200209,-0.21188849210739136,0.00914579164236784,-0.9742221832275391,-0.002426696242764592,-0.21465906500816345,1.524065375328064
2023-03-09 23:30:17.229929,-0.21122679114341736,0.007382869720458984,-0.9716533422470093,-0.0027512656524777412,-0.21472010016441345,1.524538278579712
2023-03-09 23:30:17.260016,-0.21611888706684113,0.00921634305268526,-0.9701946973800659,-0.003290123539045453,-0.21495601534843445,1.5249156951904297
2023-03-09 23:30:17.310439,-0.21340587735176086,0.0131202582269907,-0.9796006083488464,-0.004282834008336067,-0.21484854817390442,1.5251649618148804
2023-03-09 23:30:17.381512,-0.21381822228431702,0.012438067235052586,-0.9737129211425781,-0.005513092968612909,-0.214500293135643,1.5248208045959473
2023-03-09 23:30:17.410640,-0.19902199506759644,0.011272145435214043,-0.9792861938476562,-0.005700028967112303,-0.21394497156143188,1.5245177745819092
2023-03-09 23:30:17.440139,-0.20715700089931488,0.008692080155014992,-0.9750221967697144,-0.00571104884147644,-0.21399104595184326,1.5243757963180542
2023-03-09 23:30:17.502273,-0.20893345773220062,0.01091721747070551,-0.9759009480476379,-0.0064033521339297295,-0.2142326682806015,1.5247057676315308
2023-03-09 23:30:17.520936,-0.21078859269618988,0.011312568560242653,-0.9722813367843628,-0.006606122944504023,-0.21437768638134003,1.5249428749084473
2023-03-09 23:30:17.550745,-0.20797602832317352,0.00947728380560875,-0.9707613587379456,-0.0068773794919252396,-0.2147950679063797,1.5250881910324097
2023-03-09 23:30:17.580231,-0.2099171280860901,0.009363336488604546,-0.9748396873474121,-0.0074741430580616,-0.21545644104480743,1.5253406763076782
2023-03-09 23:30:17.610070,-0.21303404867649078,0.011873526498675346,-0.9758464694023132,-0.008217811584472656,-0.2162754237651825,1.5258756875991821
2023-03-09 23:30:17.630164,-0.2168574184179306,0.015173669904470444,-0.9773060083389282,-0.008712207898497581,-0.21682985126972198,1.526286005973816
2023-03-09 23:30:17.680247,-0.21736229956150055,0.015375819057226181,-0.9733346700668335,-0.009756793268024921,-0.21767452359199524,1.5272048711776733
2023-03-09 23:30:17.721452,-0.21352754533290863,0.012474777176976204,-0.9720848798751831,-0.010794389061629772,-0.2183627188205719,1.5279284715652466
2023-03-09 23:30:17.780692,-0.21247009932994843,0.013634677976369858,-0.9712904095649719,-0.013010560534894466,-0.21940435469150543,1.5288522243499756
2023-03-09 23:30:17.900417,-0.21948377788066864,0.02383357658982277,-0.9722952842712402,-0.019124552607536316,-0.22180300951004028,1.5310792922973633
2023-03-09 23:30:17.941135,-0.2225406914949417,0.02844952419400215,-0.973423957824707,-0.021041417494416237,-0.2224402278661728,1.5316870212554932
2023-03-09 23:30:17.980184,-0.22306568920612335,0.03262310475111008,-0.9743182063102722,-0.022792207077145576,-0.22289682924747467,1.5323933362960815
2023-03-09 23:30:18.030151,-0.2265145480632782,0.03410971164703369,-0.9701983332633972,-0.024794429540634155,-0.22330771386623383,1.5332213640213013
2023-03-09 23:30:18.089938,-0.22193267941474915,0.04124787077307701,-0.9782648682594299,-0.026903534308075905,-0.22339972853660583,1.5336158275604248
2023-03-09 23:30:18.119930,-0.21338914334774017,0.04197397828102112,-0.9821675419807434,-0.02746446803212166,-0.22359123826026917,1.5332659482955933
2023-03-09 23:30:18.179953,-0.22305241227149963,0.04044739902019501,-0.9738685488700867,-0.02754802443087101,-0.22486665844917297,1.5334004163742065
2023-03-09 23:30:18.210605,-0.2223241925239563,0.036183446645736694,-0.9688123464584351,-0.026945935562253,-0.22508549690246582,1.533508539199829
2023-03-09 23:30:18.269719,-0.22026555240154266,0.03259538114070892,-0.9765104055404663,-0.026090752333402634,-0.22552140057086945,1.5335884094238281
2023-03-09 23:30:18.320243,-0.2210502028465271,0.029043110087513924,-0.9724351763725281,-0.025285257026553154,-0.22659455239772797,1.5336962938308716
2023-03-09 23:30:18.360094,-0.22664472460746765,0.02828858606517315,-0.9713793396949768,-0.024524837732315063,-0.22725996375083923,1.534182071685791
2023-03-09 23:30:18.382453,-0.21785782277584076,0.026880592107772827,-0.9740723967552185,-0.02414010278880596,-0.22750765085220337,1.5344152450561523
2023-03-09 23:30:18.440106,-0.23039664328098297,0.02472807839512825,-0.9735174179077148,-0.02326706238090992,-0.22900034487247467,1.535718560218811
2023-03-09 23:30:18.480210,-0.23494651913642883,0.025662481784820557,-0.9698306322097778,-0.02281203493475914,-0.22990785539150238,1.5365169048309326
2023-03-09 23:30:18.520218,-0.23071379959583282,0.021152986213564873,-0.9672183990478516,-0.022358227521181107,-0.23069781064987183,1.5371315479278564
2023-03-09 23:30:18.560205,-0.23208752274513245,0.023157620802521706,-0.9670074582099915,-0.022287361323833466,-0.23133093118667603,1.5377576351165771
2023-03-09 23:30:18.581430,-0.2343677580356598,0.023873673751950264,-0.9684942960739136,-0.022518685087561607,-0.2316155582666397,1.5381994247436523
2023-03-09 23:30:18.609956,-0.23886962234973907,0.025982366874814034,-0.9684085249900818,-0.022954728454351425,-0.23176823556423187,1.5388861894607544
2023-03-09 23:30:18.650547,-0.23796066641807556,0.028375515714287758,-0.970028281211853,-0.023665595799684525,-0.23164522647857666,1.5390987396240234
2023-03-09 23:30:18.681070,-0.23498937487602234,0.029431790113449097,-0.9700976014137268,-0.024188952520489693,-0.23127637803554535,1.5388771295547485
2023-03-09 23:30:18.731345,-0.2255091816186905,0.03305824473500252,-0.9735103249549866,-0.02513950876891613,-0.23037493228912354,1.5380650758743286
2023-03-09 23:30:18.752030,-0.22518379986286163,0.03226480260491371,-0.9734854698181152,-0.025425339117646217,-0.22992005944252014,1.5378684997558594
2023-03-09 23:30:18.780175,-0.22519612312316895,0.032103538513183594,-0.9742540717124939,-0.025883540511131287,-0.22932927310466766,1.5375806093215942
2023-03-09 23:30:18.841264,-0.21894477307796478,0.031849659979343414,-0.9724876880645752,-0.02672533690929413,-0.22819195687770844,1.5368518829345703
2023-03-09 23:30:18.880549,-0.21935980021953583,0.033499833196401596,-0.9739084839820862,-0.02732532098889351,-0.22778813540935516,1.5366125106811523
2023-03-09 23:30:18.910524,-0.22193457186222076,0.034404706209897995,-0.9751361012458801,-0.027761822566390038,-0.2276821881532669,1.5366569757461548
2023-03-09 23:30:18.940529,-0.22300250828266144,0.03423586115241051,-0.9720585346221924,-0.02794107422232628,-0.22775821387767792,1.5366514921188354
2023-03-09 23:30:19.000785,-0.22784847021102905,0.03333231806755066,-0.9733276963233948,-0.02840014547109604,-0.22787554562091827,1.536799669265747
2023-03-09 23:30:19.050611,-0.2225712537765503,0.03206773102283478,-0.9700555205345154,-0.02858632057905197,-0.22770924866199493,1.5367857217788696
2023-03-09 23:30:19.080072,-0.22105462849140167,0.03351959213614464,-0.9780041575431824,-0.028848692774772644,-0.2276153415441513,1.536717176437378
2023-03-09 23:30:19.101667,-0.2189924269914627,0.03423219546675682,-0.9769685864448547,-0.028928132727742195,-0.22761529684066772,1.536658763885498
2023-03-09 23:30:19.140115,-0.22634433209896088,0.03420832380652428,-0.9701016545295715,-0.029072023928165436,-0.22809386253356934,1.5368767976760864
2023-03-09 23:30:19.169899,-0.22545126080513,0.036979708820581436,-0.9725179672241211,-0.02946903184056282,-0.22817417979240417,1.5372508764266968
2023-03-09 23:30:19.200350,-0.22847795486450195,0.03741893917322159,-0.9684885144233704,-0.029636047780513763,-0.22827373445034027,1.537611484527588
2023-03-09 23:30:19.240143,-0.2323800027370453,0.03516325354576111,-0.9732071161270142,-0.029877975583076477,-0.22846706211566925,1.5377888679504395
2023-03-09 23:30:19.270346,-0.23220184445381165,0.03793783113360405,-0.9789445996284485,-0.03007892146706581,-0.2283487170934677,1.537787914276123
2023-03-09 23:30:19.300487,-0.225280299782753,0.036750275641679764,-0.9773319959640503,-0.02995164319872856,-0.22807669639587402,1.537512183189392
2023-03-09 23:30:19.329879,-0.2244330197572708,0.03128931298851967,-0.9716163873672485,-0.029611308127641678,-0.2278289645910263,1.5371919870376587
2023-03-09 23:30:19.381976,-0.21132342517375946,0.02669668383896351,-0.9697261452674866,-0.02896917052567005,-0.22729727625846863,1.5366263389587402
2023-03-09 23:30:19.439897,-0.229995995759964,0.034001871943473816,-0.9760603308677673,-0.02920754998922348,-0.22763633728027344,1.537696361541748
2023-03-09 23:30:19.470551,-0.2281559407711029,0.034598030149936676,-0.9719756245613098,-0.029213374480605125,-0.22758226096630096,1.538123607635498
2023-03-09 23:30:19.491241,-0.22878268361091614,0.03104088082909584,-0.9686632752418518,-0.029094381257891655,-0.22764179110527039,1.5382890701293945
2023-03-09 23:30:19.519855,-0.22312362492084503,0.028932446613907814,-0.9676685333251953,-0.029191838577389717,-0.2276402860879898,1.5382856130599976
2023-03-09 23:30:19.570123,-0.2278819978237152,0.03425558656454086,-0.9718932509422302,-0.029903976246714592,-0.2276037037372589,1.538995623588562
2023-03-09 23:30:19.641480,-0.23477961122989655,0.03548015281558037,-0.9713917374610901,-0.03090805746614933,-0.22702357172966003,1.5403530597686768
2023-03-09 23:30:19.690225,-0.22095581889152527,0.03550528362393379,-0.9720335006713867,-0.031320974230766296,-0.226272314786911,1.5394140481948853
2023-03-09 23:30:19.721164,-0.21563267707824707,0.037865325808525085,-0.9760758280754089,-0.031627144664525986,-0.2256855070590973,1.538883090019226
2023-03-09 23:30:19.741396,-0.21369792520999908,0.03681878745555878,-0.9750309586524963,-0.031756117939949036,-0.22536258399486542,1.538743019104004
2023-03-09 23:30:19.780513,-0.21735747158527374,0.03544432297348976,-0.9726839661598206,-0.03202075511217117,-0.22490772604942322,1.538912296295166
2023-03-09 23:30:19.840137,-0.22052404284477234,0.03688511624932289,-0.9735025763511658,-0.03261914849281311,-0.22471363842487335,1.5392203330993652
2023-03-09 23:30:19.860115,-0.22001059353351593,0.03827319294214249,-0.9739127159118652,-0.032793235033750534,-0.22478340566158295,1.539271593093872
2023-03-09 23:30:19.909967,-0.2211451530456543,0.03987475112080574,-0.9751336574554443,-0.03327534720301628,-0.22502708435058594,1.5394504070281982
2023-03-09 23:30:19.949969,-0.22170111536979675,0.03887425735592842,-0.975736141204834,-0.03356655687093735,-0.2251366227865219,1.5397858619689941
2023-03-09 23:30:19.999928,-0.22374194860458374,0.03845905885100365,-0.9722914099693298,-0.033632807433605194,-0.22530463337898254,1.5400503873825073
2023-03-09 23:30:20.079957,-0.21973852813243866,0.03434325009584427,-0.9704492092132568,-0.03346262872219086,-0.2259191870689392,1.5399469137191772
2023-03-09 23:30:20.119866,-0.22583521902561188,0.03973330184817314,-0.9712821841239929,-0.03373807296156883,-0.22649434208869934,1.5404174327850342
2023-03-09 23:30:20.160162,-0.23204949498176575,0.039089128375053406,-0.9675787687301636,-0.03380729630589485,-0.22679634392261505,1.5411072969436646
2023-03-09 23:30:20.192138,-0.2310815006494522,0.03603476285934448,-0.968012273311615,-0.0338483564555645,-0.22693397104740143,1.5413012504577637
2023-03-09 23:30:20.229822,-0.2265683263540268,0.040418580174446106,-0.9778196215629578,-0.034217722713947296,-0.22685670852661133,1.5410025119781494
2023-03-09 23:30:20.270799,-0.22116170823574066,0.03793584182858467,-0.9734005928039551,-0.03398212790489197,-0.2266351729631424,1.5404181480407715
2023-03-09 23:30:20.291197,-0.2252434641122818,0.03791818022727966,-0.9727863073348999,-0.03387201949954033,-0.22658082842826843,1.5402826070785522
2023-03-09 23:30:20.329760,-0.21171735227108002,0.033546898514032364,-0.9729117751121521,-0.03353799134492874,-0.22616156935691833,1.5401301383972168
2023-03-09 23:30:20.391023,-0.2260815054178238,0.037102553993463516,-0.9745683073997498,-0.03342248871922493,-0.22633281350135803,1.5404419898986816
2023-03-09 23:30:20.411431,-0.22317488491535187,0.03891504928469658,-0.9740361571311951,-0.03344946354627609,-0.2263614684343338,1.540467381477356
2023-03-09 23:30:20.449867,-0.2211582213640213,0.03631461411714554,-0.9708805084228516,-0.03339991346001625,-0.226540669798851,1.5402714014053345
2023-03-09 23:30:20.471035,-0.22070029377937317,0.037227317690849304,-0.9713954925537109,-0.03348039835691452,-0.22674241662025452,1.5402910709381104
2023-03-09 23:30:20.540084,-0.22778868675231934,0.03767728433012962,-0.9730463027954102,-0.033946648240089417,-0.2273743748664856,1.5411673784255981
2023-03-09 23:30:20.570067,-0.22899098694324493,0.03909739851951599,-0.9734300971031189,-0.03417065739631653,-0.22760161757469177,1.541502833366394
2023-03-09 23:30:20.601356,-0.22515608370304108,0.04073110222816467,-0.9728901982307434,-0.03422215208411217,-0.22786714136600494,1.5413845777511597
2023-03-09 23:30:20.661149,-0.22182303667068481,0.0404549203813076,-0.9718550443649292,-0.034225162118673325,-0.22805678844451904,1.5412087440490723
2023-03-09 23:30:20.749757,-0.22623269259929657,0.038517024368047714,-0.9714102149009705,-0.03420346975326538,-0.22880728542804718,1.5416005849838257
2023-03-09 23:30:20.790151,-0.22686327993869781,0.03722594678401947,-0.9701054692268372,-0.034222401678562164,-0.22946371138095856,1.5418636798858643
2023-03-09 23:30:20.889902,-0.23100228607654572,0.03761696442961693,-0.9701302647590637,-0.03435191512107849,-0.2308584451675415,1.5426002740859985
2023-03-09 23:30:20.960060,-0.23165246844291687,0.038347017019987106,-0.9720069766044617,-0.034506410360336304,-0.23134462535381317,1.5431091785430908
2023-03-09 23:30:21.011152,-0.22630180418491364,0.03641608729958534,-0.9692437052726746,-0.03453776240348816,-0.2313714474439621,1.5430737733840942
2023-03-09 23:30:21.041231,-0.2251419872045517,0.03892766311764717,-0.9756364226341248,-0.034553125500679016,-0.23130053281784058,1.5429621934890747
2023-03-09 23:30:21.100148,-0.2333594262599945,0.04228941723704338,-0.9730997681617737,-0.03475920110940933,-0.23175755143165588,1.5431524515151978
2023-03-09 23:30:21.141127,-0.227199986577034,0.042158886790275574,-0.9681529402732849,-0.03476886823773384,-0.2316417694091797,1.5433433055877686
2023-03-09 23:30:21.189874,-0.23415233194828033,0.041502345353364944,-0.973302960395813,-0.034863729029893875,-0.23190566897392273,1.543691873550415
2023-03-09 23:30:21.270130,-0.22521130740642548,0.04027453437447548,-0.9727941751480103,-0.034426793456077576,-0.23153625428676605,1.5431880950927734
2023-03-09 23:30:21.310063,-0.22464166581630707,0.0382709838449955,-0.9717051386833191,-0.03410758823156357,-0.23118998110294342,1.5429292917251587
2023-03-09 23:30:21.340112,-0.21822957694530487,0.032136742025613785,-0.9677080512046814,-0.03367991745471954,-0.2310764342546463,1.5427815914154053
2023-03-09 23:30:21.400830,-0.2263386994600296,0.037321873009204865,-0.974828839302063,-0.033312153071165085,-0.23186032474040985,1.5431079864501953
2023-03-09 23:30:21.459868,-0.22705727815628052,0.03293327987194061,-0.9657315015792847,-0.03279416263103485,-0.2328324317932129,1.5436420440673828
2023-03-09 23:30:21.499632,-0.23330847918987274,0.0348249226808548,-0.9683182835578918,-0.03310365229845047,-0.23348172008991241,1.5444796085357666
2023-03-09 23:30:21.550764,-0.24405211210250854,0.04021816700696945,-0.9705759882926941,-0.03385738283395767,-0.233914315700531,1.545619010925293
2023-03-09 23:30:21.600119,-0.23818013072013855,0.04017635062336922,-0.9699994325637817,-0.034297771751880646,-0.2336859554052353,1.5455864667892456
2023-03-09 23:30:21.679771,-0.22760097682476044,0.03990093246102333,-0.9712603092193604,-0.034806810319423676,-0.23229165375232697,1.5444782972335815
2023-03-09 23:30:21.730121,-0.22356319427490234,0.04075254499912262,-0.9724411368370056,-0.03505389764904976,-0.2312273532152176,1.5440772771835327
2023-03-09 23:30:21.799725,-0.22371089458465576,0.039987944066524506,-0.970770537853241,-0.03532197326421738,-0.23046137392520905,1.5436159372329712
2023-03-09 23:30:21.820110,-0.22358006238937378,0.039813317358493805,-0.9732718467712402,-0.035512808710336685,-0.23039856553077698,1.5436360836029053
2023-03-09 23:30:21.840235,-0.22837452590465546,0.041036397218704224,-0.9746283292770386,-0.03579775243997574,-0.23044146597385406,1.5436547994613647
2023-03-09 23:30:21.859697,-0.22806602716445923,0.042218271642923355,-0.9719454646110535,-0.035912252962589264,-0.23043182492256165,1.5435940027236938
2023-03-09 23:30:21.891261,-0.2264918088912964,0.03892667219042778,-0.9692543148994446,-0.036060962826013565,-0.2301909327507019,1.5435295104980469
2023-03-09 23:30:21.940075,-0.2261582762002945,0.04212348908185959,-0.9758738279342651,-0.036354321986436844,-0.2296820729970932,1.5433504581451416
2023-03-09 23:30:21.980100,-0.22796198725700378,0.039344027638435364,-0.9713526964187622,-0.03633303940296173,-0.22935058176517487,1.5431005954742432
2023-03-09 23:30:22.010464,-0.22159458696842194,0.038876667618751526,-0.9696778059005737,-0.03627179563045502,-0.22900469601154327,1.5428272485733032
2023-03-09 23:30:22.089644,-0.22359947860240936,0.03594972938299179,-0.9704456925392151,-0.03636543080210686,-0.22886766493320465,1.5422892570495605
2023-03-09 23:30:22.149864,-0.22623279690742493,0.04210059344768524,-0.9671943187713623,-0.03706291690468788,-0.22921119630336761,1.5425915718078613
2023-03-09 23:30:22.189756,-0.22853223979473114,0.04277980700135231,-0.9713310599327087,-0.037584640085697174,-0.22938740253448486,1.5428110361099243
2023-03-09 23:30:22.239695,-0.23018485307693481,0.044418442994356155,-0.9782529473304749,-0.03843119367957115,-0.22929856181144714,1.5429409742355347
2023-03-09 23:30:22.260672,-0.228272944688797,0.0442388579249382,-0.9761767387390137,-0.038431599736213684,-0.22914816439151764,1.5428367853164673
2023-03-09 23:30:22.289780,-0.22511498630046844,0.04173855111002922,-0.9717922806739807,-0.038413744419813156,-0.2288649082183838,1.542479395866394
2023-03-09 23:30:22.330306,-0.20742200314998627,0.03964279219508171,-0.9725127816200256,-0.03819547966122627,-0.22844085097312927,1.5418781042099
2023-03-09 23:30:22.369868,-0.22515088319778442,0.040709782391786575,-0.9731051325798035,-0.03809437155723572,-0.22881409525871277,1.542084813117981
2023-03-09 23:30:22.419558,-0.22912949323654175,0.04554077610373497,-0.9734605550765991,-0.038244616240262985,-0.22898638248443604,1.5427883863449097
2023-03-09 23:30:22.439596,-0.2302752137184143,0.043264180421829224,-0.9694049954414368,-0.038124121725559235,-0.22918641567230225,1.5430107116699219
2023-03-09 23:30:22.470067,-0.2303130328655243,0.041154101490974426,-0.9673065543174744,-0.03788644075393677,-0.22950047254562378,1.5431710481643677
2023-03-09 23:30:22.510004,-0.22899939119815826,0.04141608625650406,-0.9715536832809448,-0.0378679595887661,-0.22959394752979279,1.543384313583374
2023-03-09 23:30:22.599801,-0.22927585244178772,0.04094185680150986,-0.9693949818611145,-0.03777878358960152,-0.22886593639850616,1.5437116622924805
2023-03-09 23:30:22.649986,-0.22156944870948792,0.03970968350768089,-0.9714818000793457,-0.03781117498874664,-0.2278325855731964,1.5430068969726562
2023-03-09 23:30:22.740056,-0.21995532512664795,0.04125071316957474,-0.9739282727241516,-0.03815165162086487,-0.22676002979278564,1.5424814224243164
2023-03-09 23:30:22.800031,-0.22092577815055847,0.04238399863243103,-0.9732357859611511,-0.03835294023156166,-0.22653822600841522,1.542432427406311
2023-03-09 23:30:22.831403,-0.22289501130580902,0.04381660372018814,-0.9719637632369995,-0.0385991707444191,-0.22653214633464813,1.5427824258804321
2023-03-09 23:30:22.860168,-0.225037083029747,0.04368458315730095,-0.9709393382072449,-0.03874514624476433,-0.22660784423351288,1.542951226234436
2023-03-09 23:30:22.899933,-0.2256649136543274,0.04462509602308273,-0.9729986786842346,-0.03918503224849701,-0.22667405009269714,1.5430881977081299
2023-03-09 23:30:22.991038,-0.2175845503807068,0.04476548358798027,-0.9755107164382935,-0.0396432988345623,-0.2265181988477707,1.5425324440002441
2023-03-09 23:30:23.019727,-0.21105381846427917,0.04527600482106209,-0.9764373302459717,-0.03980625048279762,-0.2266901582479477,1.5422635078430176
2023-03-09 23:30:23.080024,-0.22141772508621216,0.046674322336912155,-0.9705718159675598,-0.039981357753276825,-0.22814200818538666,1.5425503253936768
2023-03-09 23:30:23.130026,-0.23406751453876495,0.043710362166166306,-0.9669712781906128,-0.04018794372677803,-0.2294377088546753,1.5439072847366333
2023-03-09 23:30:23.170423,-0.24137082695960999,0.046380702406167984,-0.9724321365356445,-0.04045522212982178,-0.2303742617368698,1.5445752143859863
2023-03-09 23:30:23.190044,-0.2382902204990387,0.04573493078351021,-0.9725610017776489,-0.04051379859447479,-0.23067836463451385,1.544562578201294
2023-03-09 23:30:23.220485,-0.2374993860721588,0.0457073375582695,-0.9709708094596863,-0.04050777107477188,-0.23085914552211761,1.544203519821167
2023-03-09 23:30:23.270184,-0.24148879945278168,0.04449469968676567,-0.968877375125885,-0.040072452276945114,-0.23054130375385284,1.5430306196212769
2023-03-09 23:30:23.349897,-0.26450303196907043,0.04601123929023743,-0.971278727054596,-0.03909043222665787,-0.229315385222435,1.5377520322799683
2023-03-09 23:30:23.370807,-0.2686193585395813,0.04065759479999542,-0.9619451761245728,-0.03865541145205498,-0.22896261513233185,1.5348961353302002
2023-03-09 23:30:23.441177,-0.23308806121349335,0.0394408293068409,-0.9711861610412598,-0.0371968150138855,-0.22861534357070923,1.5151028633117676
2023-03-09 23:30:23.469855,-0.24376381933689117,0.04337957128882408,-0.9721126556396484,-0.03643817454576492,-0.22851340472698212,1.5048649311065674
2023-03-09 23:30:23.490501,-0.24529166519641876,0.04117116332054138,-0.9719788432121277,-0.0358300544321537,-0.22822508215904236,1.4977262020111084
2023-03-09 23:30:23.519854,-0.2654683589935303,0.045357637107372284,-0.9679794907569885,-0.03473382443189621,-0.22743816673755646,1.4860764741897583
2023-03-09 23:30:23.569894,-0.23144100606441498,0.03613825887441635,-0.9688013792037964,-0.032472893595695496,-0.2247527837753296,1.4620548486709595
2023-03-09 23:30:23.639988,-0.1992470920085907,0.03466597571969032,-0.978040337562561,-0.02973708137869835,-0.22011499106884003,1.4283291101455688
2023-03-09 23:30:23.680144,-0.1945420652627945,0.03217782825231552,-0.9752694368362427,-0.028447270393371582,-0.21677027642726898,1.413152813911438
2023-03-09 23:30:23.689855,-0.19096699357032776,0.03158465772867203,-0.9750718474388123,-0.02813068963587284,-0.2158963978290558,1.40992271900177
2023-03-09 23:30:23.730289,-0.1876211315393448,0.028505202382802963,-0.9746731519699097,-0.027612214908003807,-0.21226227283477783,1.398538589477539
2023-03-09 23:30:23.769539,-0.18289229273796082,0.03236125037074089,-0.9788662195205688,-0.02788693830370903,-0.20900896191596985,1.3899210691452026
2023-03-09 23:30:23.839526,-0.19031016528606415,0.0326639860868454,-0.9783429503440857,-0.028269320726394653,-0.20508699119091034,1.3793609142303467
2023-03-09 23:30:23.929812,-0.19247160851955414,0.033737391233444214,-0.9801144003868103,-0.028865095227956772,-0.20097479224205017,1.37046480178833
2023-03-09 23:30:23.969927,-0.187473326921463,0.032950978726148605,-0.9773472547531128,-0.02898053266108036,-0.19921141862869263,1.3672311305999756
2023-03-09 23:30:23.999713,-0.18772892653942108,0.031968578696250916,-0.9806430339813232,-0.02902693673968315,-0.19783803820610046,1.3653587102890015
2023-03-09 23:30:24.039794,-0.18111339211463928,0.03175473213195801,-0.980721652507782,-0.02922510728240013,-0.19625696539878845,1.3631954193115234
2023-03-09 23:30:24.081199,-0.18980123102664948,0.036191001534461975,-0.9799085855484009,-0.029593663290143013,-0.19531631469726562,1.3620548248291016
2023-03-09 23:30:24.130221,-0.18979136645793915,0.03513054922223091,-0.9763428568840027,-0.029767077416181564,-0.19426670670509338,1.36105215549469
2023-03-09 23:30:24.150278,-0.19214877486228943,0.03268186375498772,-0.976487398147583,-0.02992529235780239,-0.1940070390701294,1.3606963157653809
2023-03-09 23:30:24.189987,-0.18705004453659058,0.03633738309144974,-0.9843108654022217,-0.030312171205878258,-0.19372914731502533,1.3599592447280884
2023-03-09 23:30:24.240577,-0.18630602955818176,0.03414765000343323,-0.9797941446304321,-0.030283644795417786,-0.19361306726932526,1.35964035987854
2023-03-09 23:30:24.260259,-0.19020044803619385,0.03304654359817505,-0.9802612662315369,-0.03025469183921814,-0.19367097318172455,1.359785795211792
2023-03-09 23:30:24.421762,-0.18959717452526093,0.03210168704390526,-0.9748636484146118,-0.030858593061566353,-0.1957128793001175,1.3641258478164673
2023-03-09 23:30:24.450335,-0.18969136476516724,0.031448230147361755,-0.9758026599884033,-0.03127482533454895,-0.19656185805797577,1.3656275272369385
2023-03-09 23:30:24.489678,-0.20685936510562897,0.03689657896757126,-0.9801061749458313,-0.032259512692689896,-0.19777140021324158,1.3683725595474243
2023-03-09 23:30:24.539701,-0.20826172828674316,0.03933347016572952,-0.980154275894165,-0.03321513906121254,-0.19901186227798462,1.3711305856704712
2023-03-09 23:30:24.570185,-0.20211665332317352,0.03670229762792587,-0.9758818745613098,-0.03347371518611908,-0.1994522511959076,1.3719652891159058
2023-03-09 23:30:24.599667,-0.20193234086036682,0.03798137977719307,-0.9775962829589844,-0.033791691064834595,-0.19966275990009308,1.372814416885376
2023-03-09 23:30:24.649638,-0.1994900107383728,0.03872106224298477,-0.9751905798912048,-0.03415500745177269,-0.19955016672611237,1.3740400075912476
2023-03-09 23:30:24.680383,-0.1987793892621994,0.03855985775589943,-0.9780958890914917,-0.034419625997543335,-0.1995258331298828,1.3746544122695923
2023-03-09 23:30:24.709914,-0.1968519687652588,0.0390288271009922,-0.9778117537498474,-0.03474040701985359,-0.19949501752853394,1.3753427267074585
2023-03-09 23:30:24.770783,-0.2032029628753662,0.04166896641254425,-0.978812575340271,-0.03534866124391556,-0.1995435208082199,1.3764848709106445
2023-03-09 23:30:24.800023,-0.20155851542949677,0.039309848099946976,-0.9792574644088745,-0.03545194864273071,-0.19947296380996704,1.3763879537582397
2023-03-09 23:30:24.839926,-0.1934994012117386,0.04055573791265488,-0.9815002083778381,-0.035524580627679825,-0.19943030178546906,1.3758314847946167
2023-03-09 23:30:24.871704,-0.19250686466693878,0.04095955938100815,-0.9790534973144531,-0.035354990512132645,-0.19953931868076324,1.3756399154663086
2023-03-09 23:30:24.900024,-0.19524769484996796,0.039329495280981064,-0.9781967401504517,-0.03507791459560394,-0.1998034417629242,1.3757191896438599
2023-03-09 23:30:24.940217,-0.19674067199230194,0.03877946734428406,-0.9762239456176758,-0.03481874614953995,-0.2001798152923584,1.3763329982757568
2023-03-09 23:30:24.970376,-0.20438314974308014,0.03986768424510956,-0.9778722524642944,-0.03469932824373245,-0.2006148397922516,1.3769111633300781
2023-03-09 23:30:25.039677,-0.2038593292236328,0.039215631783008575,-0.9775512218475342,-0.0342462956905365,-0.20122340321540833,1.377379059791565
2023-03-09 23:30:25.099721,-0.2031441032886505,0.03654218092560768,-0.9784235954284668,-0.03372064605355263,-0.20159411430358887,1.3773881196975708
2023-03-09 23:30:25.149830,-0.19967210292816162,0.036002930253744125,-0.9733641743659973,-0.0331687293946743,-0.20168046653270721,1.3776113986968994
2023-03-09 23:30:25.209835,-0.20506758987903595,0.03454674407839775,-0.9751550555229187,-0.03315243124961853,-0.20158624649047852,1.3783488273620605
2023-03-09 23:30:25.289851,-0.1985509842634201,0.03701089322566986,-0.9763456583023071,-0.03346160054206848,-0.20060965418815613,1.3784871101379395
2023-03-09 23:30:25.320832,-0.19834715127944946,0.03702781721949577,-0.9730599522590637,-0.033367980271577835,-0.20012836158275604,1.3782292604446411
2023-03-09 23:30:25.369817,-0.1935063749551773,0.03452456742525101,-0.9765759110450745,-0.033460427075624466,-0.19957900047302246,1.3780320882797241
2023-03-09 23:30:25.410092,-0.19520512223243713,0.038358937948942184,-0.9788678288459778,-0.033905740827322006,-0.1995033621788025,1.3785524368286133
2023-03-09 23:30:25.430323,-0.19650758802890778,0.04094541817903519,-0.9807731509208679,-0.034127477556467056,-0.19948013126850128,1.3789151906967163
2023-03-09 23:30:25.470247,-0.19898562133312225,0.038501787930727005,-0.9771657586097717,-0.03418249264359474,-0.1998816877603531,1.37932288646698
2023-03-09 23:30:25.510151,-0.1955510824918747,0.03637653961777687,-0.9749967455863953,-0.03414100408554077,-0.20052470266819,1.3795092105865479
2023-03-09 23:30:25.530353,-0.19673112034797668,0.039430320262908936,-0.9767300486564636,-0.03432441130280495,-0.20081308484077454,1.3797993659973145
2023-03-09 23:30:25.570298,-0.20570272207260132,0.04156406596302986,-0.9795876145362854,-0.03486122563481331,-0.20152771472930908,1.3805979490280151
2023-03-09 23:30:25.630346,-0.20503877103328705,0.03888968005776405,-0.9752577543258667,-0.034959279000759125,-0.20243607461452484,1.3814277648925781
2023-03-09 23:30:25.649836,-0.2018568366765976,0.04014122486114502,-0.9745112061500549,-0.03494064137339592,-0.2025492638349533,1.3813949823379517
2023-03-09 23:30:25.710468,-0.19854436814785004,0.039298415184020996,-0.9778119325637817,-0.03498992323875427,-0.20263397693634033,1.3813694715499878
2023-03-09 23:30:25.749898,-0.20057493448257446,0.03822670504450798,-0.9803463816642761,-0.03478516638278961,-0.20286059379577637,1.3815335035324097
2023-03-09 23:30:25.780654,-0.19774653017520905,0.03783266991376877,-0.9754387140274048,-0.034558042883872986,-0.2030869424343109,1.3816393613815308
2023-03-09 23:30:25.829699,-0.2032230794429779,0.03747407719492912,-0.9771109819412231,-0.03437771275639534,-0.20371583104133606,1.3822016716003418
2023-03-09 23:30:25.851036,-0.20412595570087433,0.037844981998205185,-0.9755876660346985,-0.03427734971046448,-0.20393581688404083,1.3824262619018555
2023-03-09 23:30:25.882499,-0.204597607254982,0.03574131429195404,-0.9757293462753296,-0.03414369747042656,-0.20441660284996033,1.382694959640503
2023-03-09 23:30:25.949970,-0.20839083194732666,0.03666818514466286,-0.976274847984314,-0.03404489532113075,-0.20491215586662292,1.3834346532821655
2023-03-09 23:30:25.969860,-0.20885825157165527,0.03624196723103523,-0.9732283353805542,-0.03395510092377663,-0.2049732804298401,1.3835809230804443
2023-03-09 23:30:26.009792,-0.20282217860221863,0.036509525030851364,-0.9791308045387268,-0.03393048048019409,-0.20499077439308167,1.3835999965667725
2023-03-09 23:30:26.029759,-0.20170485973358154,0.0385928601026535,-0.9805357456207275,-0.033920660614967346,-0.20491351187229156,1.3836181163787842
2023-03-09 23:30:26.080707,-0.20458346605300903,0.037940673530101776,-0.9763878583908081,-0.03379175812005997,-0.20533010363578796,1.3836404085159302
2023-03-09 23:30:26.110649,-0.19968406856060028,0.038626980036497116,-0.9724747538566589,-0.03376220166683197,-0.2055070549249649,1.383904218673706
2023-03-09 23:30:26.130362,-0.20206797122955322,0.03800540417432785,-0.9712706208229065,-0.033857665956020355,-0.20562438666820526,1.3841668367385864
2023-03-09 23:30:26.170354,-0.2053278386592865,0.038953930139541626,-0.9743719696998596,-0.034365829080343246,-0.20597496628761292,1.3848074674606323
2023-03-09 23:30:26.190625,-0.2060968428850174,0.04322570934891701,-0.9782933592796326,-0.03472496569156647,-0.20612619817256927,1.3850724697113037
2023-03-09 23:30:26.210370,-0.2057110220193863,0.04438551887869835,-0.9827914834022522,-0.03500889986753464,-0.20629629492759705,1.3852132558822632
2023-03-09 23:30:26.240498,-0.20532271265983582,0.04684879258275032,-0.9837443828582764,-0.03530025854706764,-0.20656399428844452,1.3854843378067017
2023-03-09 23:30:26.280534,-0.21261964738368988,0.0432751402258873,-0.9768592119216919,-0.03505787253379822,-0.20690670609474182,1.3858757019042969
2023-03-09 23:30:26.319987,-0.19833701848983765,0.03726677596569061,-0.9771109223365784,-0.03448124974966049,-0.20695972442626953,1.3860232830047607
2023-03-09 23:30:26.350835,-0.20445479452610016,0.03496444597840309,-0.9739883542060852,-0.03390568494796753,-0.20736946165561676,1.3861382007598877
2023-03-09 23:30:26.379759,-0.20389923453330994,0.036787573248147964,-0.9783838987350464,-0.0335637703537941,-0.20758886635303497,1.3863844871520996
2023-03-09 23:30:26.410329,-0.20319058001041412,0.03576646372675896,-0.9766470789909363,-0.03328144550323486,-0.20800422132015228,1.3868017196655273
2023-03-09 23:30:26.450009,-0.20824654400348663,0.03380648419260979,-0.972829282283783,-0.03282790631055832,-0.20859211683273315,1.38737952709198
2023-03-09 23:30:26.470770,-0.20811457931995392,0.034366998821496964,-0.9711440205574036,-0.032749924808740616,-0.20890459418296814,1.3877018690109253
2023-03-09 23:30:26.500183,-0.21045483648777008,0.03482311964035034,-0.9745009541511536,-0.03293289989233017,-0.2094707041978836,1.3881044387817383
2023-03-09 23:30:26.521874,-0.21121253073215485,0.03672041371464729,-0.9766724705696106,-0.03314918279647827,-0.2098107486963272,1.388518214225769
2023-03-09 23:30:26.549823,-0.21350529789924622,0.03787723556160927,-0.9760828018188477,-0.03338493034243584,-0.21006231009960175,1.3889596462249756
2023-03-09 23:30:26.609856,-0.2103217989206314,0.038306817412376404,-0.9746440649032593,-0.03367789834737778,-0.21046556532382965,1.389370322227478
2023-03-09 23:30:26.630844,-0.2080574929714203,0.03835543990135193,-0.9748086333274841,-0.033705949783325195,-0.21049654483795166,1.3895032405853271
2023-03-09 23:30:26.669850,-0.20757818222045898,0.03871278837323189,-0.9773415327072144,-0.03394795581698418,-0.21050958335399628,1.3896894454956055
2023-03-09 23:30:26.779591,-0.20824652910232544,0.039546165615320206,-0.9737393856048584,-0.033913254737854004,-0.21104249358177185,1.3905316591262817
2023-03-09 23:30:26.819745,-0.21088281273841858,0.04050431400537491,-0.9766236543655396,-0.03385552391409874,-0.21134053170681,1.3909904956817627
2023-03-09 23:30:26.842060,-0.21238569915294647,0.039022304117679596,-0.976650059223175,-0.03371163457632065,-0.2115451842546463,1.3911552429199219
2023-03-09 23:30:26.879879,-0.21068476140499115,0.036936525255441666,-0.9736179113388062,-0.03348680958151817,-0.21182037889957428,1.3914462327957153
2023-03-09 23:30:26.920788,-0.21049831807613373,0.03792012110352516,-0.9764739274978638,-0.0335417166352272,-0.21206490695476532,1.3917162418365479
2023-03-09 23:30:26.941008,-0.21210148930549622,0.03792453929781914,-0.9780391454696655,-0.03354669734835625,-0.21212273836135864,1.3918837308883667
2023-03-09 23:30:26.969777,-0.21029974520206451,0.03707592561841011,-0.9735896587371826,-0.03337116539478302,-0.21220390498638153,1.3920948505401611
2023-03-09 23:30:27.010209,-0.20551997423171997,0.03543384000658989,-0.9745920300483704,-0.03316261246800423,-0.2122405618429184,1.3921868801116943
2023-03-09 23:30:27.049924,-0.20258821547031403,0.03639873117208481,-0.9801424145698547,-0.03303544223308563,-0.21237435936927795,1.3922747373580933
2023-03-09 23:30:27.070759,-0.1995130330324173,0.033608753234148026,-0.9761447906494141,-0.03295610472559929,-0.21258848905563354,1.3924895524978638
2023-03-09 23:30:27.220001,-0.22227613627910614,0.04093586653470993,-0.9784256815910339,-0.0348927304148674,-0.21446283161640167,1.396669626235962
2023-03-09 23:30:27.251383,-0.21535147726535797,0.04163576290011406,-0.9781947135925293,-0.03536528721451759,-0.21431438624858856,1.3968666791915894
2023-03-09 23:30:27.319966,-0.20372408628463745,0.04204489663243294,-0.9746828079223633,-0.03559291362762451,-0.21357578039169312,1.396985650062561
2023-03-09 23:30:27.350888,-0.20653706789016724,0.038490187376737595,-0.9740232229232788,-0.035658374428749084,-0.21339061856269836,1.3971906900405884
2023-03-09 23:30:27.371735,-0.21371041238307953,0.04148199036717415,-0.9749979972839355,-0.035871926695108414,-0.21351216733455658,1.3974953889846802
2023-03-09 23:30:27.420419,-0.20959211885929108,0.044156551361083984,-0.9762393236160278,-0.036146316677331924,-0.21338169276714325,1.3979620933532715
2023-03-09 23:30:27.450477,-0.20661421120166779,0.04086562618613243,-0.9746554493904114,-0.0361596904695034,-0.21343038976192474,1.398075819015503
2023-03-09 23:30:27.489881,-0.20573315024375916,0.03979849815368652,-0.9741041660308838,-0.03619229421019554,-0.2137160748243332,1.3985744714736938
2023-03-09 23:30:27.541400,-0.21193301677703857,0.040870048105716705,-0.9758829474449158,-0.036653898656368256,-0.21398116648197174,1.4004554748535156
2023-03-09 23:30:27.560364,-0.21389047801494598,0.04162278771400452,-0.9768600463867188,-0.0368841327726841,-0.21406371891498566,1.4014641046524048
2023-03-09 23:30:27.629915,-0.21206392347812653,0.040410615503787994,-0.973925769329071,-0.03708783909678459,-0.21357885003089905,1.404112458229065
2023-03-09 23:30:27.660413,-0.21247529983520508,0.04152805358171463,-0.9754341840744019,-0.037307146936655045,-0.2135627418756485,1.404834508895874
2023-03-09 23:30:27.680378,-0.20936831831932068,0.042423464357852936,-0.9751148819923401,-0.03737018257379532,-0.21353265643119812,1.405010461807251
2023-03-09 23:30:27.710356,-0.20798957347869873,0.04430069029331207,-0.9778957366943359,-0.03758485987782478,-0.21356360614299774,1.4053312540054321
2023-03-09 23:30:27.752377,-0.2050420045852661,0.0440809540450573,-0.9757399559020996,-0.03754488006234169,-0.21372370421886444,1.4057763814926147
2023-03-09 23:30:27.780456,-0.20291000604629517,0.04172316938638687,-0.9746178388595581,-0.03746282681822777,-0.21398486196994781,1.4064321517944336
2023-03-09 23:30:27.800003,-0.2031162530183792,0.0396135151386261,-0.9754241704940796,-0.03742676600813866,-0.21406641602516174,1.4071892499923706
2023-03-09 23:30:27.849978,-0.2049962878227234,0.04060867428779602,-0.9746899008750916,-0.03772750124335289,-0.21422536671161652,1.4101232290267944
2023-03-09 23:30:27.950398,-0.20336748659610748,0.0388011634349823,-0.9747143387794495,-0.03870406374335289,-0.21511682868003845,1.4188848733901978
2023-03-09 23:30:28.009751,-0.22046209871768951,0.04203800484538078,-0.971952497959137,-0.03962484747171402,-0.21579191088676453,1.4254320859909058
2023-03-09 23:30:28.041288,-0.22088523209095,0.04204866662621498,-0.9758726358413696,-0.04011838510632515,-0.2162744700908661,1.4275950193405151
2023-03-09 23:30:28.081326,-0.21810553967952728,0.04418136179447174,-0.9732300043106079,-0.040457095950841904,-0.21747265756130219,1.428999662399292
2023-03-09 23:30:28.101585,-0.22162294387817383,0.04480111971497536,-0.9699997901916504,-0.040740080177783966,-0.21827037632465363,1.429321050643921
2023-03-09 23:30:28.119940,-0.21449631452560425,0.049708906561136246,-0.9710401892662048,-0.041022978723049164,-0.21876506507396698,1.4295225143432617
2023-03-09 23:30:28.150870,-0.21017241477966309,0.04791485518217087,-0.9726992845535278,-0.04135730862617493,-0.21945105493068695,1.4301129579544067
2023-03-09 23:30:28.171313,-0.21508672833442688,0.049412474036216736,-0.9712804555892944,-0.04171176999807358,-0.2198462188243866,1.4308700561523438
2023-03-09 23:30:28.201141,-0.21888060867786407,0.049538612365722656,-0.9748272895812988,-0.04207945242524147,-0.22051262855529785,1.4323158264160156
2023-03-09 23:30:28.269912,-0.21914291381835938,0.050113894045352936,-0.9765334725379944,-0.042693160474300385,-0.22115643322467804,1.4364497661590576
2023-03-09 23:30:28.300695,-0.22535428404808044,0.04783421754837036,-0.9715963006019592,-0.04251889884471893,-0.22142581641674042,1.438368320465088
2023-03-09 23:30:28.360540,-0.22151273488998413,0.04485788196325302,-0.9706606864929199,-0.04180928319692612,-0.22175219655036926,1.4413273334503174
2023-03-09 23:30:28.419607,-0.2223058044910431,0.0431562103331089,-0.9706195592880249,-0.041725724935531616,-0.2224564254283905,1.443569302558899
2023-03-09 23:30:28.441892,-0.21372440457344055,0.04050802066922188,-0.9686831831932068,-0.041763968765735626,-0.22258318960666656,1.4439867734909058
2023-03-09 23:30:28.489684,-0.21652306616306305,0.04108470678329468,-0.9716092944145203,-0.04234574735164642,-0.22345289587974548,1.4451212882995605
2023-03-09 23:30:28.511751,-0.21756048500537872,0.040339309722185135,-0.9727291464805603,-0.04278235137462616,-0.22384928166866302,1.4457378387451172
2023-03-09 23:30:28.559926,-0.22283798456192017,0.045638225972652435,-0.9727511405944824,-0.04432230070233345,-0.22499115765094757,1.447033166885376
2023-03-09 23:30:28.590282,-0.22536911070346832,0.04809544235467911,-0.9722150564193726,-0.045375991612672806,-0.22560523450374603,1.4477277994155884
2023-03-09 23:30:28.609975,-0.22393012046813965,0.04614812880754471,-0.9691148400306702,-0.045966871082782745,-0.22585169970989227,1.4479525089263916
2023-03-09 23:30:28.659915,-0.21703222393989563,0.050213612616062164,-0.9695382118225098,-0.04775957763195038,-0.22679296135902405,1.4484394788742065
2023-03-09 23:30:28.710099,-0.22897417843341827,0.05472671985626221,-0.9713665246963501,-0.05021115392446518,-0.22820918262004852,1.4498745203018188
2023-03-09 23:30:28.759843,-0.2312772572040558,0.05486995726823807,-0.9685852527618408,-0.0525442510843277,-0.22905178368091583,1.4512200355529785
2023-03-09 23:30:28.809832,-0.23226425051689148,0.061014287173748016,-0.9704777598381042,-0.055027417838573456,-0.23012325167655945,1.4516940116882324
2023-03-09 23:30:28.869747,-0.23221448063850403,0.061181120574474335,-0.9701064229011536,-0.05767253413796425,-0.23114626109600067,1.4518510103225708
2023-03-09 23:30:28.910018,-0.23289847373962402,0.0606512725353241,-0.9697812795639038,-0.059422045946121216,-0.23150628805160522,1.4519847631454468
2023-03-09 23:30:28.929926,-0.23593005537986755,0.06116627901792526,-0.9664896726608276,-0.06028329208493233,-0.2314910888671875,1.4519039392471313
2023-03-09 23:30:28.949781,-0.23583965003490448,0.06036202982068062,-0.9637624621391296,-0.06121623516082764,-0.23143833875656128,1.451711893081665
2023-03-09 23:30:29.009765,-0.23024290800094604,0.06479047238826752,-0.9689855575561523,-0.06419931352138519,-0.23160313069820404,1.4496269226074219
2023-03-09 23:30:29.050944,-0.22870494425296783,0.06531460583209991,-0.9636629223823547,-0.06645197421312332,-0.23221039772033691,1.447684645652771
2023-03-09 23:30:29.100747,-0.23099130392074585,0.07394309341907501,-0.9659435153007507,-0.07008669525384903,-0.23229898512363434,1.4456113576889038
2023-03-09 23:30:29.140518,-0.2378736138343811,0.07712838053703308,-0.9673278331756592,-0.0727703794836998,-0.23217658698558807,1.4437806606292725
2023-03-09 23:30:29.179585,-0.24224570393562317,0.08074095100164413,-0.9695120453834534,-0.07521462440490723,-0.23225826025009155,1.440859317779541
2023-03-09 23:30:29.229514,-0.23957520723342896,0.08448465168476105,-0.9701467156410217,-0.07765939831733704,-0.2323037087917328,1.4345734119415283
2023-03-09 23:30:29.269599,-0.23442333936691284,0.08498907834291458,-0.966584324836731,-0.07909666001796722,-0.23210972547531128,1.4278026819229126
2023-03-09 23:30:29.291244,-0.21790088713169098,0.08350752294063568,-0.9675847887992859,-0.0796259343624115,-0.2317904531955719,1.4240707159042358
2023-03-09 23:30:29.319899,-0.22737769782543182,0.08883904665708542,-0.9694671630859375,-0.08066047728061676,-0.2317257672548294,1.418971061706543
2023-03-09 23:30:29.389690,-0.22046343982219696,0.0918845385313034,-0.9685278534889221,-0.08281081914901733,-0.23189972341060638,1.408398985862732
2023-03-09 23:30:29.479311,-0.22395384311676025,0.09310177713632584,-0.9701570868492126,-0.08502665907144547,-0.23191313445568085,1.3990299701690674
2023-03-09 23:30:29.509910,-0.22359640896320343,0.09342805296182632,-0.9692681431770325,-0.08550930768251419,-0.23173324763774872,1.3970026969909668
2023-03-09 23:30:29.539464,-0.22417384386062622,0.094996377825737,-0.9704791903495789,-0.08602483570575714,-0.23139029741287231,1.395617961883545
2023-03-09 23:30:29.569611,-0.23099231719970703,0.0931190624833107,-0.968511164188385,-0.08621831983327866,-0.23093509674072266,1.3944751024246216
2023-03-09 23:30:29.629585,-0.2309429794549942,0.09486360847949982,-0.9704002141952515,-0.0863678976893425,-0.22966116666793823,1.3919259309768677
2023-03-09 23:30:29.689868,-0.21758754551410675,0.08965276181697845,-0.97221839427948,-0.08614583313465118,-0.22808456420898438,1.3888787031173706
2023-03-09 23:30:29.739682,-0.2169191986322403,0.08870992809534073,-0.9714511036872864,-0.08571234345436096,-0.22733034193515778,1.3869373798370361
2023-03-09 23:30:29.799645,-0.21591578423976898,0.08691062778234482,-0.9692661166191101,-0.08512741327285767,-0.22673645615577698,1.385522484779358
2023-03-09 23:30:29.841688,-0.2166508436203003,0.08331024646759033,-0.9684339165687561,-0.08483818918466568,-0.22660323977470398,1.3852213621139526
2023-03-09 23:30:29.869663,-0.22024208307266235,0.08428331464529037,-0.9672349095344543,-0.08471730351448059,-0.2266440987586975,1.3853962421417236
2023-03-09 23:30:29.909729,-0.22337879240512848,0.08591759204864502,-0.9715414047241211,-0.0848146602511406,-0.22678764164447784,1.3858768939971924
2023-03-09 23:30:29.959652,-0.22405339777469635,0.08499519526958466,-0.9680595397949219,-0.08484777063131332,-0.22706851363182068,1.3862123489379883
2023-03-09 23:30:29.999942,-0.22071857750415802,0.08874353021383286,-0.9712272882461548,-0.08511260151863098,-0.2271629273891449,1.3862967491149902
2023-03-09 23:30:30.041254,-0.22488807141780853,0.08815839141607285,-0.9673213958740234,-0.08524158596992493,-0.22746498882770538,1.3865172863006592
2023-03-09 23:30:30.100056,-0.22702692449092865,0.09326256811618805,-0.9692714214324951,-0.08596235513687134,-0.22771930694580078,1.3876127004623413
2023-03-09 23:30:30.149929,-0.23011426627635956,0.09493805468082428,-0.970365583896637,-0.08625470846891403,-0.2280224710702896,1.3883403539657593
2023-03-09 23:30:30.180293,-0.22282902896404266,0.09481394290924072,-0.9751718640327454,-0.08624856919050217,-0.22788941860198975,1.3882956504821777
2023-03-09 23:30:30.239531,-0.2106539011001587,0.0913592204451561,-0.9719935655593872,-0.08563214540481567,-0.22744645178318024,1.389266848564148
2023-03-09 23:30:30.270580,-0.20242054760456085,0.08964335173368454,-0.9731887578964233,-0.08502916246652603,-0.2271486073732376,1.3911687135696411
2023-03-09 23:30:30.292279,-0.20596060156822205,0.08552496135234833,-0.9702577590942383,-0.08447565883398056,-0.22724875807762146,1.393121361732483
2023-03-09 23:30:30.310698,-0.21008440852165222,0.08400645852088928,-0.9665544033050537,-0.08408939093351364,-0.22740538418293,1.395633339881897
2023-03-09 23:30:30.349542,-0.21991582214832306,0.08786870539188385,-0.9710924625396729,-0.0838509276509285,-0.2277161329984665,1.4022260904312134
2023-03-09 23:30:30.409479,-0.23648588359355927,0.08751682937145233,-0.9680443406105042,-0.08339403569698334,-0.2289489060640335,1.4128140211105347
2023-03-09 23:30:30.461635,-0.2380569726228714,0.08503525704145432,-0.9661687016487122,-0.08250921964645386,-0.23095811903476715,1.4192818403244019
2023-03-09 23:30:30.509432,-0.24030010402202606,0.08359336853027344,-0.9678412079811096,-0.0814395546913147,-0.23296530544757843,1.4237178564071655
2023-03-09 23:30:30.569338,-0.23326563835144043,0.07752511650323868,-0.9638998508453369,-0.07986623793840408,-0.23452642560005188,1.4273912906646729
2023-03-09 23:30:30.629545,-0.24080033600330353,0.07867956161499023,-0.9664113521575928,-0.07909920811653137,-0.23545418679714203,1.430238127708435
2023-03-09 23:30:30.639860,-0.24111680686473846,0.08011551946401596,-0.9669033885002136,-0.07904713600873947,-0.2356347292661667,1.4305654764175415
2023-03-09 23:30:30.669527,-0.23480215668678284,0.07737253606319427,-0.967667818069458,-0.07870227843523026,-0.23589420318603516,1.4310111999511719
2023-03-09 23:30:30.709384,-0.2291162610054016,0.0763373002409935,-0.9653782844543457,-0.07832260429859161,-0.2366844266653061,1.4310559034347534
2023-03-09 23:30:30.779366,-0.2361266314983368,0.07861261069774628,-0.9648032784461975,-0.07824848592281342,-0.23782359063625336,1.4319356679916382
2023-03-09 23:30:30.809398,-0.23972761631011963,0.07930371165275574,-0.9662180542945862,-0.07845380902290344,-0.2384808510541916,1.4326509237289429
2023-03-09 23:30:30.839589,-0.24133853614330292,0.07874502241611481,-0.9659121632575989,-0.07887371629476547,-0.2390536665916443,1.433566927909851
2023-03-09 23:30:30.899510,-0.2448517382144928,0.08142714202404022,-0.9637613296508789,-0.07949052006006241,-0.239487424492836,1.4346511363983154
2023-03-09 23:30:30.929525,-0.24261316657066345,0.08076673001050949,-0.9667208194732666,-0.07991442829370499,-0.23945477604866028,1.434478759765625
2023-03-09 23:30:30.989426,-0.234724223613739,0.08365524560213089,-0.9650622010231018,-0.08069877326488495,-0.23922795057296753,1.4337859153747559
2023-03-09 23:30:31.009354,-0.2375279664993286,0.08770643174648285,-0.9667757749557495,-0.08108304440975189,-0.23918983340263367,1.433739185333252
2023-03-09 23:30:31.079741,-0.2488403469324112,0.08858076483011246,-0.9620409607887268,-0.08207803964614868,-0.2388356626033783,1.4337000846862793
2023-03-09 23:30:31.130009,-0.2474241703748703,0.0885734111070633,-0.970370352268219,-0.08271307498216629,-0.23830696940422058,1.431732416152954
2023-03-09 23:30:31.200807,-0.24015678465366364,0.08579397946596146,-0.9642621278762817,-0.08235182613134384,-0.23675113916397095,1.4257643222808838
2023-03-09 23:30:31.259505,-0.22748501598834991,0.0811615064740181,-0.9662518501281738,-0.08160576224327087,-0.23507159948349,1.4188182353973389
2023-03-09 23:30:31.339538,-0.22159451246261597,0.08484160155057907,-0.9678553342819214,-0.0817536786198616,-0.23332563042640686,1.4115978479385376
2023-03-09 23:30:31.350020,-0.22130092978477478,0.08414850383996964,-0.9676229953765869,-0.08178846538066864,-0.23308789730072021,1.4109320640563965
2023-03-09 23:30:31.359546,-0.22228394448757172,0.08304746448993683,-0.9671345353126526,-0.08177168667316437,-0.23287062346935272,1.410300374031067
2023-03-09 23:30:31.449345,-0.23147809505462646,0.084389828145504,-0.9696704745292664,-0.08227561414241791,-0.23233121633529663,1.4065978527069092
2023-03-09 23:30:31.489490,-0.22388909757137299,0.08272124826908112,-0.9658409953117371,-0.08260447531938553,-0.23198281228542328,1.4052692651748657
2023-03-09 23:30:31.499883,-0.22514481842517853,0.0829516276717186,-0.9656058549880981,-0.08270709216594696,-0.23188214004039764,1.4049668312072754
2023-03-09 23:30:31.539523,-0.22544316947460175,0.08576987683773041,-0.9703206419944763,-0.08323299139738083,-0.23145656287670135,1.4038037061691284
2023-03-09 23:30:31.569380,-0.224799245595932,0.08769947290420532,-0.9693928360939026,-0.08376248925924301,-0.23114724457263947,1.403030514717102
2023-03-09 23:30:31.589698,-0.22345684468746185,0.08973778784275055,-0.968207836151123,-0.08403930068016052,-0.23098868131637573,1.4024312496185303
2023-03-09 23:30:31.599714,-0.22329235076904297,0.09014317393302917,-0.967739999294281,-0.08418312668800354,-0.23090800642967224,1.4021881818771362
2023-03-09 23:30:31.619790,-0.2200194150209427,0.08902186155319214,-0.970112144947052,-0.0844053328037262,-0.23078115284442902,1.4018173217773438
2023-03-09 23:30:31.649459,-0.2249211072921753,0.09260527044534683,-0.9729359149932861,-0.08472255617380142,-0.23054154217243195,1.4015742540359497
2023-03-09 23:30:31.669826,-0.22639265656471252,0.09325386583805084,-0.9704307913780212,-0.08483926951885223,-0.23040704429149628,1.4015429019927979
2023-03-09 23:30:31.689880,-0.22536061704158783,0.09028209745883942,-0.9665177464485168,-0.08490471541881561,-0.2301962673664093,1.4013780355453491
2023-03-09 23:30:31.739606,-0.22286738455295563,0.0928957611322403,-0.973546028137207,-0.08516126871109009,-0.23033450543880463,1.4009366035461426
2023-03-09 23:30:31.789829,-0.22720809280872345,0.08896199613809586,-0.9700028300285339,-0.08494222164154053,-0.23091286420822144,1.401251196861267
2023-03-09 23:30:31.829348,-0.23068071901798248,0.08682067692279816,-0.966420590877533,-0.08470568805932999,-0.2312496304512024,1.4018216133117676
2023-03-09 23:30:31.849861,-0.2289111316204071,0.08677975088357925,-0.9680283665657043,-0.08461302518844604,-0.2313767671585083,1.4019908905029297
2023-03-09 23:30:31.879523,-0.23072433471679688,0.08816193044185638,-0.9701794981956482,-0.08456375449895859,-0.23182916641235352,1.4021008014678955
2023-03-09 23:30:31.919285,-0.2297094613313675,0.08557678014039993,-0.9670974612236023,-0.08415297418832779,-0.23240867257118225,1.4020087718963623
2023-03-09 23:30:31.939892,-0.23410791158676147,0.08740436285734177,-0.9674168825149536,-0.08398407697677612,-0.23272088170051575,1.4020638465881348
2023-03-09 23:30:31.959299,-0.23444682359695435,0.08714746683835983,-0.9646705985069275,-0.0837283581495285,-0.2327946424484253,1.4022184610366821
2023-03-09 23:30:32.030014,-0.23612193763256073,0.08977697789669037,-0.9704055190086365,-0.08352838456630707,-0.23286214470863342,1.4022200107574463
2023-03-09 23:30:32.069300,-0.23442408442497253,0.09129896759986877,-0.973643958568573,-0.08320967108011246,-0.23265983164310455,1.4017648696899414
2023-03-09 23:30:32.089595,-0.2306201457977295,0.08732199668884277,-0.9708231091499329,-0.08284646272659302,-0.23244920372962952,1.4013500213623047
2023-03-09 23:30:32.130028,-0.2306046038866043,0.08491875231266022,-0.9674661755561829,-0.08193202316761017,-0.23224958777427673,1.400617003440857
2023-03-09 23:30:32.219810,-0.23201565444469452,0.082106813788414,-0.9687066674232483,-0.07932931184768677,-0.2328876107931137,1.3982880115509033
2023-03-09 23:30:32.250714,-0.23594510555267334,0.08478903025388718,-0.9728282690048218,-0.07852001488208771,-0.2333684116601944,1.397578239440918
2023-03-09 23:30:32.290496,-0.23520632088184357,0.08376241475343704,-0.9702562689781189,-0.07676981389522552,-0.23386666178703308,1.3957377672195435
2023-03-09 23:30:32.340047,-0.23036114871501923,0.07752010971307755,-0.9684860110282898,-0.07374099642038345,-0.23457524180412292,1.392539143562317
2023-03-09 23:30:32.420228,-0.23403961956501007,0.07191228121519089,-0.9656294584274292,-0.06953519582748413,-0.23558923602104187,1.3880584239959717
2023-03-09 23:30:32.439645,-0.22285684943199158,0.06997565925121307,-0.9733378291130066,-0.06864312291145325,-0.23558633029460907,1.3870755434036255
2023-03-09 23:30:32.509498,-0.24106909334659576,0.06310680508613586,-0.960294783115387,-0.06535892188549042,-0.2365240603685379,1.3856394290924072
2023-03-09 23:30:32.520291,-0.23873652517795563,0.06161356344819069,-0.956791877746582,-0.06487742066383362,-0.23653952777385712,1.385582685470581
2023-03-09 23:30:32.540111,-0.2334817498922348,0.05900995433330536,-0.9531187415122986,-0.06405659765005112,-0.23621483147144318,1.3855363130569458
2023-03-09 23:30:32.569801,-0.22132612764835358,0.06128397211432457,-0.9633339643478394,-0.06371777504682541,-0.23534801602363586,1.3853613138198853
2023-03-09 23:30:32.589588,-0.22141920030117035,0.06463637202978134,-0.97199547290802,-0.06385627388954163,-0.23515158891677856,1.3852907419204712
2023-03-09 23:30:32.619550,-0.22968827188014984,0.0670400932431221,-0.9706121683120728,-0.06411730498075485,-0.23553325235843658,1.3852959871292114
2023-03-09 23:30:32.640452,-0.23062925040721893,0.06479677557945251,-0.9675933122634888,-0.06426740437746048,-0.23593714833259583,1.3854568004608154
2023-03-09 23:30:32.669546,-0.23538628220558167,0.06940629333257675,-0.97001051902771,-0.06443238258361816,-0.236405611038208,1.385849952697754
2023-03-09 23:30:32.709486,-0.2367953360080719,0.06505544483661652,-0.966644287109375,-0.06434933096170425,-0.23628683388233185,1.3867524862289429
2023-03-09 23:30:32.730374,-0.23709021508693695,0.06753189861774445,-0.9711759686470032,-0.06435798108577728,-0.2362658977508545,1.3871231079101562
2023-03-09 23:30:32.759590,-0.24257265031337738,0.06947191804647446,-0.9706559777259827,-0.06431221216917038,-0.23608267307281494,1.3874326944351196
2023-03-09 23:30:32.819837,-0.22964945435523987,0.06424904614686966,-0.9676920771598816,-0.06366933882236481,-0.23573128879070282,1.3864355087280273
2023-03-09 23:30:32.889539,-0.22779273986816406,0.06380283087491989,-0.9666795134544373,-0.0630338042974472,-0.23531030118465424,1.3858693838119507
2023-03-09 23:30:32.959829,-0.23437795042991638,0.06732109189033508,-0.9630917310714722,-0.06326202303171158,-0.23519496619701385,1.3863775730133057
2023-03-09 23:30:33.039754,-0.2329675257205963,0.07043418288230896,-0.9763723611831665,-0.06445682048797607,-0.2350044846534729,1.3866677284240723
2023-03-09 23:30:33.079831,-0.22619599103927612,0.0712527185678482,-0.9755445718765259,-0.06463155150413513,-0.23438797891139984,1.386579990386963
2023-03-09 23:30:33.120339,-0.2242792546749115,0.06812488287687302,-0.9696767926216125,-0.06425771862268448,-0.23379415273666382,1.3866215944290161
2023-03-09 23:30:33.140316,-0.21536439657211304,0.06390092521905899,-0.9684656858444214,-0.06392602622509003,-0.23343528807163239,1.3865691423416138
2023-03-09 23:30:33.170307,-0.22302919626235962,0.06371624022722244,-0.9686002135276794,-0.0636608749628067,-0.2334347367286682,1.3867197036743164
2023-03-09 23:30:33.209811,-0.22792933881282806,0.06765209138393402,-0.970912516117096,-0.06368566304445267,-0.2338901311159134,1.3871021270751953
2023-03-09 23:30:33.250267,-0.22505417466163635,0.06555289030075073,-0.9622568488121033,-0.0636274665594101,-0.23419371247291565,1.3877538442611694
2023-03-09 23:30:33.280426,-0.22987011075019836,0.06857789307832718,-0.9696000218391418,-0.0638735443353653,-0.2347937375307083,1.3884392976760864
2023-03-09 23:30:33.310169,-0.2403840869665146,0.06962168961763382,-0.9726086854934692,-0.06422485411167145,-0.2357160896062851,1.3892362117767334
2023-03-09 23:30:33.330136,-0.24156878888607025,0.07161103188991547,-0.9712904691696167,-0.0643496885895729,-0.23616766929626465,1.3896170854568481
2023-03-09 23:30:33.351146,-0.241226464509964,0.06988892704248428,-0.9697443842887878,-0.06433073431253433,-0.2365425080060959,1.3899160623550415
2023-03-09 23:30:33.369936,-0.23795835673809052,0.06822068989276886,-0.9698283076286316,-0.06417680531740189,-0.23675334453582764,1.390140414237976
2023-03-09 23:30:33.409484,-0.23389366269111633,0.06400356441736221,-0.9674564003944397,-0.0636688768863678,-0.23674015700817108,1.3905689716339111
2023-03-09 23:30:33.439968,-0.22727236151695251,0.06405454128980637,-0.9675673842430115,-0.06341414153575897,-0.23649397492408752,1.3909553289413452
2023-03-09 23:30:33.499752,-0.22511424124240875,0.06571000069379807,-0.9673410654067993,-0.06337525695562363,-0.2367158681154251,1.3919724225997925
2023-03-09 23:30:33.550003,-0.22309841215610504,0.0638338029384613,-0.9682716727256775,-0.06389647722244263,-0.23701593279838562,1.393858551979065
2023-03-09 23:30:33.579807,-0.21862031519412994,0.06619489938020706,-0.9700256586074829,-0.06437666714191437,-0.23708057403564453,1.395918369293213
2023-03-09 23:30:33.620235,-0.21415339410305023,0.06783779710531235,-0.969325840473175,-0.06516171246767044,-0.2369011789560318,1.4001737833023071
2023-03-09 23:30:33.640302,-0.21340197324752808,0.06779123097658157,-0.971171498298645,-0.06568388640880585,-0.23679545521736145,1.4031254053115845
2023-03-09 23:30:33.690720,-0.22898615896701813,0.06799039244651794,-0.9688245058059692,-0.0670880526304245,-0.2368967980146408,1.4128901958465576
2023-03-09 23:30:33.729575,-0.23592747747898102,0.07273083925247192,-0.9690650701522827,-0.06833008676767349,-0.23686407506465912,1.4216296672821045
2023-03-09 23:30:33.751378,-0.2397967129945755,0.07440496236085892,-0.9702918529510498,-0.06875138729810715,-0.23693007230758667,1.4257291555404663
2023-03-09 23:30:33.789448,-0.24331502616405487,0.07499191910028458,-0.9649837017059326,-0.06944651901721954,-0.23757143318653107,1.4330133199691772
2023-03-09 23:30:33.809891,-0.2502475082874298,0.07725494354963303,-0.9638960361480713,-0.0698627308011055,-0.2382676899433136,1.4360604286193848
2023-03-09 23:30:33.849316,-0.2481900453567505,0.07871178537607193,-0.9597257971763611,-0.07052799314260483,-0.23965688049793243,1.440771460533142
2023-03-09 23:30:33.869810,-0.24966466426849365,0.07792254537343979,-0.9622732400894165,-0.070865198969841,-0.24038328230381012,1.442582130432129
2023-03-09 23:30:33.919826,-0.24802225828170776,0.0786130279302597,-0.9682736992835999,-0.07171914726495743,-0.24186646938323975,1.4454185962677002
2023-03-09 23:30:33.929635,-0.24603049457073212,0.07908907532691956,-0.969307005405426,-0.07184074819087982,-0.24212898313999176,1.4458467960357666
2023-03-09 23:30:33.979374,-0.23596356809139252,0.07558637112379074,-0.9678698778152466,-0.07210782915353775,-0.2426079958677292,1.4477046728134155
2023-03-09 23:30:34.019858,-0.23429137468338013,0.07414351403713226,-0.96834397315979,-0.07187756896018982,-0.2426304668188095,1.4494940042495728
2023-03-09 23:30:34.080525,-0.23732230067253113,0.07073456048965454,-0.9637079834938049,-0.07139899581670761,-0.242888405919075,1.4533720016479492
2023-03-09 23:30:34.119553,-0.23521943390369415,0.07414311170578003,-0.9683430790901184,-0.07143670320510864,-0.2431483417749405,1.4563490152359009
2023-03-09 23:30:34.159490,-0.2392144799232483,0.07057281583547592,-0.9644327163696289,-0.07152131199836731,-0.24373367428779602,1.459174394607544
2023-03-09 23:30:34.220035,-0.24439577758312225,0.0743444561958313,-0.9650934338569641,-0.07186928391456604,-0.24488948285579681,1.4633146524429321
2023-03-09 23:30:34.259570,-0.24892829358577728,0.07725819945335388,-0.967323899269104,-0.07228291779756546,-0.2455138862133026,1.4659234285354614
2023-03-09 23:30:34.290442,-0.2457537204027176,0.07897908985614777,-0.9661328196525574,-0.07247787714004517,-0.24568089842796326,1.4677927494049072
2023-03-09 23:30:34.339445,-0.2417975664138794,0.07922863960266113,-0.967930793762207,-0.07228872925043106,-0.24547573924064636,1.4704582691192627
2023-03-09 23:30:34.369487,-0.23913425207138062,0.08077193796634674,-0.9694646596908569,-0.07208079844713211,-0.24509993195533752,1.4722089767456055
2023-03-09 23:30:34.410834,-0.2390352189540863,0.07931578159332275,-0.9705763459205627,-0.07155510038137436,-0.2445957064628601,1.4744974374771118
2023-03-09 23:30:34.439376,-0.24334931373596191,0.08009008318185806,-0.969624936580658,-0.07082249224185944,-0.2443801909685135,1.4764550924301147
2023-03-09 23:30:34.490493,-0.23427456617355347,0.0716419443488121,-0.9623979330062866,-0.06888090819120407,-0.24407707154750824,1.4790101051330566
2023-03-09 23:30:34.560387,-0.22063486278057098,0.07344572991132736,-0.9732570648193359,-0.0661640614271164,-0.24368643760681152,1.485036849975586
2023-03-09 23:30:34.589967,-0.20525571703910828,0.07148166745901108,-0.978313148021698,-0.06473110616207123,-0.24273063242435455,1.4905076026916504
2023-03-09 23:30:34.629525,-0.19539429247379303,0.06133006885647774,-0.969387412071228,-0.06234625726938248,-0.24004793167114258,1.502442717552185
2023-03-09 23:30:34.659531,-0.21380722522735596,0.06496182829141617,-0.9715067744255066,-0.060669463127851486,-0.2379637509584427,1.5146551132202148
2023-03-09 23:30:34.699591,-0.24401973187923431,0.06452850997447968,-0.9634638428688049,-0.05885474383831024,-0.23578064143657684,1.5323460102081299
2023-03-09 23:30:34.729244,-0.25674253702163696,0.06183793395757675,-0.9593427181243896,-0.05770352482795715,-0.23471654951572418,1.5443720817565918
2023-03-09 23:30:34.789548,-0.2594638466835022,0.057536736130714417,-0.956916093826294,-0.0557175874710083,-0.23480793833732605,1.5618401765823364
2023-03-09 23:30:34.840450,-0.25035539269447327,0.05416930839419365,-0.9633291959762573,-0.054722823202610016,-0.23601797223091125,1.5690711736679077
2023-03-09 23:30:34.869648,-0.2390577495098114,0.05890820547938347,-0.9742193818092346,-0.05458678677678108,-0.23678959906101227,1.57117760181427
2023-03-09 23:30:34.900938,-0.22854213416576385,0.056044675409793854,-0.970737636089325,-0.05400951951742172,-0.23717553913593292,1.5727795362472534
2023-03-09 23:30:34.929515,-0.2311812937259674,0.05392485857009888,-0.9686334133148193,-0.053324438631534576,-0.23740853369235992,1.5746076107025146
2023-03-09 23:30:34.989586,-0.23676195740699768,0.05162891000509262,-0.9658319354057312,-0.05210539326071739,-0.23857907950878143,1.5787291526794434
2023-03-09 23:30:35.019581,-0.2368665337562561,0.053762611001729965,-0.9671002626419067,-0.05189993605017662,-0.23961859941482544,1.5803825855255127
2023-03-09 23:30:35.061646,-0.23971007764339447,0.05328905209898949,-0.9647080898284912,-0.05176939070224762,-0.24119946360588074,1.5820411443710327
2023-03-09 23:30:35.140771,-0.24259398877620697,0.05836091190576553,-0.9697964191436768,-0.05263539031147957,-0.24522541463375092,1.5839916467666626
2023-03-09 23:30:35.170254,-0.2436019480228424,0.05887436866760254,-0.9658300280570984,-0.05328831076622009,-0.24619710445404053,1.5849286317825317
2023-03-09 23:30:35.210303,-0.25709351897239685,0.06288477033376694,-0.9679870009422302,-0.0540735237300396,-0.2472894936800003,1.586223840713501
2023-03-09 23:30:35.279774,-0.24906642735004425,0.06013188883662224,-0.967899739742279,-0.05394836515188217,-0.24803735315799713,1.586313009262085
2023-03-09 23:30:35.320892,-0.2437306046485901,0.0546296089887619,-0.964557409286499,-0.05317709222435951,-0.2481478452682495,1.5854887962341309
2023-03-09 23:30:35.350392,-0.24022583663463593,0.0526888482272625,-0.9639466404914856,-0.052587300539016724,-0.24796703457832336,1.5845965147018433
2023-03-09 23:30:35.379836,-0.24057328701019287,0.05320554971694946,-0.9638048410415649,-0.052239060401916504,-0.24791455268859863,1.5838124752044678
2023-03-09 23:30:35.409577,-0.24533569812774658,0.0529610738158226,-0.9666274189949036,-0.05226539075374603,-0.24804142117500305,1.583154320716858
2023-03-09 23:30:35.459840,-0.24578621983528137,0.05485578626394272,-0.9627155661582947,-0.05252659320831299,-0.24786114692687988,1.5818947553634644
2023-03-09 23:30:35.499523,-0.25388550758361816,0.05987308919429779,-0.9661343693733215,-0.05313835293054581,-0.24799282848834991,1.5806446075439453
2023-03-09 23:30:35.529896,-0.25947070121765137,0.061123888939619064,-0.9690635800361633,-0.05325813591480255,-0.2483651041984558,1.579248070716858
2023-03-09 23:30:35.599203,-0.24342474341392517,0.05657342076301575,-0.9670963883399963,-0.052467286586761475,-0.2477036863565445,1.5735664367675781
2023-03-09 23:30:35.639655,-0.23529592156410217,0.05690085515379906,-0.9707104563713074,-0.051992837339639664,-0.24719007313251495,1.5698957443237305
2023-03-09 23:30:35.679963,-0.24012474715709686,0.05490417405962944,-0.9652087092399597,-0.05154963582754135,-0.24697700142860413,1.566715121269226
2023-03-09 23:30:35.769439,-0.2355440855026245,0.05282466486096382,-0.966853141784668,-0.05142684280872345,-0.24528257548809052,1.5614811182022095
2023-03-09 23:30:35.819815,-0.23988904058933258,0.05632217228412628,-0.9744850397109985,-0.051700737327337265,-0.24405793845653534,1.5595734119415283
2023-03-09 23:30:35.839807,-0.23253384232521057,0.05404038727283478,-0.9715855717658997,-0.051476191729307175,-0.24350683391094208,1.558696985244751
2023-03-09 23:30:35.879555,-0.23321473598480225,0.05218151584267616,-0.9664762616157532,-0.051139913499355316,-0.24248895049095154,1.5568287372589111
2023-03-09 23:30:35.920065,-0.22846217453479767,0.048702090978622437,-0.9681649804115295,-0.0507451668381691,-0.24189545214176178,1.5547575950622559
2023-03-09 23:30:35.969490,-0.2336001843214035,0.05254778265953064,-0.9683650135993958,-0.05065159872174263,-0.24188950657844543,1.5524346828460693
2023-03-09 23:30:36.019479,-0.22714293003082275,0.050830598920583725,-0.9644322991371155,-0.05078556761145592,-0.24180631339550018,1.5503911972045898
2023-03-09 23:30:36.101520,-0.24006950855255127,0.05539016053080559,-0.9675082564353943,-0.05215156450867653,-0.24280934035778046,1.5488898754119873
2023-03-09 23:30:36.121030,-0.2422691434621811,0.05785750970244408,-0.9698907732963562,-0.05268147215247154,-0.24303387105464935,1.5486348867416382
2023-03-09 23:30:36.159739,-0.24909450113773346,0.06045151129364967,-0.9672910571098328,-0.053555678576231,-0.24327796697616577,1.5476242303848267
2023-03-09 23:30:36.220515,-0.24110791087150574,0.0632786974310875,-0.9703357815742493,-0.054516471922397614,-0.24308007955551147,1.5441612005233765
2023-03-09 23:30:36.269520,-0.23956669867038727,0.060892414301633835,-0.9658681154251099,-0.05516316369175911,-0.24360689520835876,1.5395383834838867
2023-03-09 23:30:36.309400,-0.23468826711177826,0.058535441756248474,-0.9662225246429443,-0.05558052659034729,-0.24435126781463623,1.53517746925354
2023-03-09 23:30:36.339607,-0.23627959191799164,0.058865632861852646,-0.9647170305252075,-0.056060031056404114,-0.24517573416233063,1.5320115089416504
2023-03-09 23:30:36.349588,-0.23749478161334991,0.05973740294575691,-0.9650978446006775,-0.056324463337659836,-0.2454986572265625,1.5310769081115723
2023-03-09 23:30:36.379544,-0.24150346219539642,0.0604884997010231,-0.9682729840278625,-0.05700794979929924,-0.24647538363933563,1.5283244848251343
2023-03-09 23:30:36.399842,-0.24454879760742188,0.06137432903051376,-0.9699516296386719,-0.057455167174339294,-0.24695275723934174,1.5266894102096558
2023-03-09 23:30:36.459140,-0.24396635591983795,0.06000153347849846,-0.9655285477638245,-0.058502256870269775,-0.24781478941440582,1.5220680236816406
2023-03-09 23:30:36.509240,-0.24788986146450043,0.06246091425418854,-0.9635202884674072,-0.059578269720077515,-0.24797236919403076,1.5182727575302124
2023-03-09 23:30:36.559276,-0.25193241238594055,0.06355751305818558,-0.9633021950721741,-0.060764238238334656,-0.2480083405971527,1.5135856866836548
2023-03-09 23:30:36.589380,-0.2551608979701996,0.06461456418037415,-0.9650205373764038,-0.06158359721302986,-0.24813173711299896,1.5100390911102295
2023-03-09 23:30:36.599657,-0.2538774609565735,0.06797648966312408,-0.96510910987854,-0.061934053897857666,-0.2481117993593216,1.5087380409240723
2023-03-09 23:30:36.629846,-0.24733412265777588,0.06998756527900696,-0.9640889167785645,-0.06281095743179321,-0.24799810349941254,1.5044143199920654
2023-03-09 23:30:36.659432,-0.24029187858104706,0.0692828819155693,-0.9646232724189758,-0.06342469155788422,-0.24764510989189148,1.4997937679290771
