Timestamp,Acceleration_x,Acceleration_y,Acceleration_z,roll,pitch,yaw
2023-01-13 00:55:28284,-0.0624862,-0.186086,-0.983064,0.18799,-0.0636714,-2.1798
2023-01-13 00:55:28293,-0.0606899,-0.184744,-0.981052,0.187759,-0.0636141,-2.17965
2023-01-13 00:55:28303,-0.0624419,-0.184139,-0.981012,0.1875,-0.0634999,-2.17955
2023-01-13 00:55:28313,-0.0652984,-0.183911,-0.98307,0.187356,-0.0633695,-2.17937
2023-01-13 00:55:28323,-0.0659328,-0.181775,-0.985004,0.187169,-0.063305,-2.17918
2023-01-13 00:55:28333,-0.0663422,-0.182071,-0.987316,0.187002,-0.0631136,-2.17896
2023-01-13 00:55:28343,-0.0659329,-0.183332,-0.988573,0.186766,-0.062904,-2.17879
2023-01-13 00:55:28353,-0.0634486,-0.182741,-0.988445,0.186638,-0.06265,-2.17861
2023-01-13 00:55:28363,-0.0575656,-0.184017,-0.990843,0.186484,-0.0623546,-2.1784
2023-01-13 00:55:28373,-0.0527658,-0.185825,-0.990189,0.186276,-0.0620687,-2.17815
2023-01-13 00:55:28383,-0.0511864,-0.18596,-0.986461,0.186039,-0.0618738,-2.17795
2023-01-13 00:55:28393,-0.0524958,-0.185132,-0.983074,0.185823,-0.0616507,-2.17777
2023-01-13 00:55:28403,-0.0523765,-0.183809,-0.981284,0.185664,-0.061482,-2.17757
2023-01-13 00:55:28413,-0.0529936,-0.183614,-0.980285,0.185455,-0.0613495,-2.17733
2023-01-13 00:55:28423,-0.0535977,-0.182911,-0.980365,0.18527,-0.0613299,-2.17714
2023-01-13 00:55:28433,-0.0555041,-0.184027,-0.983826,0.185155,-0.0613873,-2.17691
2023-01-13 00:55:28443,-0.0544625,-0.184341,-0.986461,0.184994,-0.061402,-2.17667
2023-01-13 00:55:28453,-0.0531669,-0.183354,-0.984674,0.184828,-0.0614372,-2.17646
2023-01-13 00:55:28463,-0.0516436,-0.181643,-0.984682,0.184685,-0.0615146,-2.17624
2023-01-13 00:55:28473,-0.0494037,-0.182517,-0.986729,0.184498,-0.0615862,-2.17595
2023-01-13 00:55:28483,-0.0479824,-0.182292,-0.98735,0.184316,-0.0616713,-2.17572
2023-01-13 00:55:28493,-0.0468617,-0.181406,-0.987084,0.184148,-0.0617863,-2.17555
2023-01-13 00:55:28503,-0.047048,-0.181164,-0.984351,0.183979,-0.0619083,-2.17544
2023-01-13 00:55:28513,-0.0488639,-0.181603,-0.983949,0.1838,-0.0621029,-2.17541
2023-01-13 00:55:28523,-0.0498567,-0.181892,-0.985287,0.183662,-0.0623797,-2.17536
2023-01-13 00:55:28533,-0.0527405,-0.183133,-0.986808,0.183518,-0.0626521,-2.17543
2023-01-13 00:55:28543,-0.0563241,-0.183716,-0.986792,0.18339,-0.062962,-2.1756
2023-01-13 00:55:28553,-0.0591806,-0.18585,-0.986531,0.1833,-0.0633367,-2.17579
2023-01-13 00:55:28563,-0.0602935,-0.185682,-0.984839,0.183218,-0.0636364,-2.17606
2023-01-13 00:55:28573,-0.0621753,-0.185011,-0.986843,0.183098,-0.0639666,-2.1763
2023-01-13 00:55:28583,-0.0660667,-0.188383,-0.993145,0.182899,-0.0643817,-2.1765
2023-01-13 00:55:28593,-0.0691268,-0.187658,-0.991336,0.182655,-0.0648393,-2.17667
2023-01-13 00:55:28603,-0.0735853,-0.184441,-0.983332,0.182319,-0.0653155,-2.17687
2023-01-13 00:55:28613,-0.0752847,-0.18165,-0.980959,0.181896,-0.0656845,-2.17701
2023-01-13 00:55:28623,-0.0706798,-0.181575,-0.985347,0.181567,-0.0659188,-2.17706
2023-01-13 00:55:28633,-0.0625394,-0.182216,-0.989262,0.181197,-0.0662031,-2.17702
2023-01-13 00:55:28643,-0.0578271,-0.180961,-0.989153,0.180704,-0.0665408,-2.17699
2023-01-13 00:55:28653,-0.0584814,-0.17965,-0.989914,0.180272,-0.0669236,-2.17703
2023-01-13 00:55:28663,-0.061224,-0.179531,-0.992271,0.179817,-0.0674153,-2.17718
2023-01-13 00:55:28673,-0.0662354,-0.179818,-0.993261,0.179337,-0.0679066,-2.17743
2023-01-13 00:55:28683,-0.0719261,-0.178144,-0.990021,0.178907,-0.068499,-2.17771
2023-01-13 00:55:28693,-0.0784202,-0.177842,-0.985616,0.178407,-0.0690398,-2.178
2023-01-13 00:55:28703,-0.0829531,-0.175565,-0.979651,0.17798,-0.0696115,-2.17829
2023-01-13 00:55:28713,-0.0865537,-0.176378,-0.977829,0.177589,-0.0700727,-2.17852
2023-01-13 00:55:28723,-0.0887726,-0.176218,-0.979148,0.177191,-0.0705175,-2.17877
2023-01-13 00:55:28733,-0.0874559,-0.174576,-0.979584,0.176727,-0.0708296,-2.17893
2023-01-13 00:55:28743,-0.084654,-0.173708,-0.981688,0.17633,-0.0710764,-2.17897
2023-01-13 00:55:28753,-0.0787953,-0.17038,-0.979017,0.175844,-0.0712377,-2.17886
2023-01-13 00:55:28763,-0.0759767,-0.167945,-0.977501,0.175392,-0.071313,-2.17871
2023-01-13 00:55:28773,-0.0739475,-0.166337,-0.975882,0.175029,-0.0714506,-2.17854
2023-01-13 00:55:28783,-0.0722719,-0.166573,-0.976967,0.174755,-0.0715891,-2.17846
2023-01-13 00:55:28793,-0.070691,-0.166898,-0.978845,0.17455,-0.0718344,-2.17826
2023-01-13 00:55:28803,-0.0723337,-0.1684,-0.981446,0.174416,-0.0721054,-2.17814
2023-01-13 00:55:28813,-0.0713571,-0.17059,-0.984426,0.17433,-0.072379,-2.17801
2023-01-13 00:55:28823,-0.0696731,-0.172046,-0.987624,0.174266,-0.0726516,-2.1778
2023-01-13 00:55:28833,-0.069117,-0.173308,-0.988941,0.174181,-0.0729035,-2.17775
2023-01-13 00:55:28843,-0.0711382,-0.17467,-0.989393,0.174027,-0.0732802,-2.17776
2023-01-13 00:55:28853,-0.074882,-0.175422,-0.990128,0.173893,-0.0736411,-2.17783
2023-01-13 00:55:28863,-0.0785252,-0.175967,-0.990601,0.173691,-0.0739845,-2.17796
2023-01-13 00:55:28873,-0.081554,-0.175326,-0.990101,0.173431,-0.0743255,-2.17809
2023-01-13 00:55:28883,-0.0826232,-0.172808,-0.98819,0.173131,-0.0746204,-2.17822
2023-01-13 00:55:28893,-0.083312,-0.170478,-0.985047,0.172855,-0.0748985,-2.17835
2023-01-13 00:55:28903,-0.0843176,-0.168959,-0.984357,0.172529,-0.0751061,-2.1784
2023-01-13 00:55:28913,-0.0812295,-0.168619,-0.986048,0.172226,-0.0753204,-2.17843
2023-01-13 00:55:28923,-0.0798012,-0.168463,-0.988125,0.171915,-0.0755109,-2.17837
2023-01-13 00:55:28933,-0.0766391,-0.168385,-0.989906,0.171565,-0.0756361,-2.17831
2023-01-13 00:55:28943,-0.0737628,-0.167179,-0.990621,0.171259,-0.0757487,-2.17827
2023-01-13 00:55:28953,-0.0710172,-0.166613,-0.989509,0.170911,-0.0758465,-2.17828
2023-01-13 00:55:28963,-0.0709747,-0.165112,-0.987952,0.170574,-0.0759021,-2.17833
2023-01-13 00:55:28973,-0.0698565,-0.163396,-0.985082,0.17013,-0.0759202,-2.17842
2023-01-13 00:55:28983,-0.0713076,-0.160678,-0.982622,0.169715,-0.0758929,-2.17854
2023-01-13 00:55:28993,-0.0764721,-0.158467,-0.978902,0.169378,-0.0758984,-2.17875
2023-01-13 00:55:293,-0.0788603,-0.157191,-0.977699,0.169079,-0.0757855,-2.17893
2023-01-13 00:55:2913,-0.0787366,-0.158615,-0.981072,0.168809,-0.0756787,-2.17913
2023-01-13 00:55:2923,-0.0770572,-0.157541,-0.982875,0.168532,-0.0755772,-2.17921
2023-01-13 00:55:2933,-0.0738679,-0.158259,-0.982814,0.168345,-0.075445,-2.17929
2023-01-13 00:55:2943,-0.0724877,-0.160257,-0.984234,0.168158,-0.0753707,-2.17931
2023-01-13 00:55:2953,-0.0698086,-0.159553,-0.984332,0.168025,-0.0754042,-2.17932
2023-01-13 00:55:2963,-0.0687553,-0.160571,-0.987013,0.167912,-0.0754792,-2.17937
2023-01-13 00:55:2973,-0.0704103,-0.16369,-0.988197,0.167862,-0.0756255,-2.17932
2023-01-13 00:55:2983,-0.0727326,-0.164562,-0.98667,0.167818,-0.075922,-2.1793
2023-01-13 00:55:2993,-0.0763017,-0.163781,-0.985891,0.167764,-0.0762879,-2.17933
2023-01-13 00:55:29103,-0.0796357,-0.165621,-0.987669,0.16769,-0.0765234,-2.17932
2023-01-13 00:55:29113,-0.0801451,-0.167466,-0.989319,0.167607,-0.0767741,-2.17933
2023-01-13 00:55:29123,-0.0785993,-0.166195,-0.988985,0.167477,-0.0769867,-2.17932
2023-01-13 00:55:29133,-0.0777637,-0.165743,-0.988756,0.167353,-0.0771113,-2.17935
2023-01-13 00:55:29143,-0.0760336,-0.16511,-0.988487,0.167213,-0.0772393,-2.17935
2023-01-13 00:55:29153,-0.072993,-0.163277,-0.987518,0.167036,-0.0773023,-2.17941
2023-01-13 00:55:29163,-0.0740744,-0.162937,-0.986879,0.166821,-0.0773891,-2.17953
2023-01-13 00:55:29173,-0.0756159,-0.162928,-0.985671,0.166577,-0.0775254,-2.17969
2023-01-13 00:55:29183,-0.0792023,-0.162881,-0.986694,0.166377,-0.0776593,-2.17992
2023-01-13 00:55:29193,-0.0853394,-0.164454,-0.987806,0.166174,-0.0777848,-2.18011
2023-01-13 00:55:29203,-0.0869652,-0.164752,-0.987067,0.165975,-0.0778106,-2.18026
2023-01-13 00:55:29213,-0.0867895,-0.163366,-0.986579,0.165799,-0.0777827,-2.18031
2023-01-13 00:55:29223,-0.084662,-0.163634,-0.987577,0.165618,-0.0777529,-2.18036
2023-01-13 00:55:29233,-0.0817928,-0.162402,-0.988197,0.165485,-0.0776842,-2.18028
2023-01-13 00:55:29243,-0.0778533,-0.163437,-0.987869,0.165309,-0.0775444,-2.18017
2023-01-13 00:55:29253,-0.0737581,-0.164586,-0.986597,0.16519,-0.0774624,-2.18002
2023-01-13 00:55:29263,-0.0731912,-0.165375,-0.986037,0.165075,-0.0774426,-2.17986
2023-01-13 00:55:29273,-0.0718202,-0.165909,-0.985362,0.164963,-0.0774269,-2.17967
2023-01-13 00:55:29283,-0.0722319,-0.167039,-0.986461,0.164878,-0.0774831,-2.1795
2023-01-13 00:55:29293,-0.0725896,-0.166682,-0.986815,0.164797,-0.0775014,-2.17935
2023-01-13 00:55:29303,-0.0716845,-0.166087,-0.987076,0.164623,-0.0775413,-2.17915
2023-01-13 00:55:29313,-0.0727047,-0.16422,-0.986901,0.164489,-0.0775401,-2.17898
2023-01-13 00:55:29323,-0.073604,-0.162818,-0.985317,0.164301,-0.0776964,-2.17888
2023-01-13 00:55:29333,-0.0741452,-0.160619,-0.984469,0.164104,-0.0777395,-2.17878
2023-01-13 00:55:29343,-0.0745446,-0.159975,-0.985785,0.163977,-0.077895,-2.17866
2023-01-13 00:55:29353,-0.0748931,-0.160326,-0.987718,0.163847,-0.0780329,-2.17861
2023-01-13 00:55:29363,-0.0745409,-0.161133,-0.987453,0.163682,-0.0781766,-2.17849
2023-01-13 00:55:29373,-0.0749494,-0.160102,-0.986277,0.16358,-0.0783678,-2.17841
2023-01-13 00:55:29383,-0.0773605,-0.15968,-0.985666,0.163528,-0.0786096,-2.17834
2023-01-13 00:55:29393,-0.0793691,-0.161153,-0.986591,0.163498,-0.0787902,-2.17835
2023-01-13 00:55:29403,-0.0811747,-0.161912,-0.987288,0.16348,-0.0789256,-2.17839
2023-01-13 00:55:29413,-0.0816621,-0.163718,-0.988135,0.16348,-0.0790773,-2.17834
2023-01-13 00:55:29423,-0.0815425,-0.164675,-0.986028,0.163463,-0.0792456,-2.17837
2023-01-13 00:55:29433,-0.0809853,-0.162825,-0.986888,0.163437,-0.0793747,-2.17834
2023-01-13 00:55:29443,-0.0786626,-0.164332,-0.991443,0.16347,-0.079493,-2.17828
2023-01-13 00:55:29453,-0.0797872,-0.165676,-0.993809,0.163366,-0.0796762,-2.17822
2023-01-13 00:55:29463,-0.0850685,-0.163589,-0.988151,0.163138,-0.0799178,-2.17821
2023-01-13 00:55:29473,-0.0898554,-0.160044,-0.983207,0.162901,-0.0801683,-2.17821
2023-01-13 00:55:29483,-0.0900414,-0.159087,-0.984287,0.162686,-0.0803012,-2.17815
2023-01-13 00:55:29493,-0.0842492,-0.159738,-0.988427,0.162463,-0.0803202,-2.17796
2023-01-13 00:55:29503,-0.079111,-0.159456,-0.990336,0.162202,-0.0803507,-2.17776
2023-01-13 00:55:29513,-0.0779559,-0.15795,-0.990373,0.162002,-0.0804723,-2.17759
2023-01-13 00:55:29523,-0.0796913,-0.159107,-0.990754,0.161861,-0.080614,-2.17738
2023-01-13 00:55:29533,-0.0806112,-0.160279,-0.99194,0.161641,-0.0807972,-2.17717
2023-01-13 00:55:29543,-0.0823733,-0.158886,-0.992616,0.161372,-0.0809668,-2.17702
2023-01-13 00:55:29553,-0.0840893,-0.15719,-0.988979,0.161156,-0.0811823,-2.17687
2023-01-13 00:55:29563,-0.084155,-0.156654,-0.986339,0.16089,-0.0813552,-2.1767
2023-01-13 00:55:29573,-0.0818423,-0.157263,-0.984804,0.16059,-0.0815213,-2.17655
2023-01-13 00:55:29583,-0.0803842,-0.156054,-0.984146,0.160273,-0.0816307,-2.17637
2023-01-13 00:55:29593,-0.0784738,-0.154968,-0.982383,0.159992,-0.081845,-2.17614
2023-01-13 00:55:29603,-0.079907,-0.154158,-0.980152,0.159792,-0.0820463,-2.1759
2023-01-13 00:55:29613,-0.08557,-0.153445,-0.980767,0.159697,-0.0822214,-2.17562
2023-01-13 00:55:29623,-0.0893615,-0.154346,-0.984848,0.159519,-0.0824682,-2.17528
2023-01-13 00:55:29633,-0.0866066,-0.15415,-0.987245,0.159315,-0.0827066,-2.17484
2023-01-13 00:55:29643,-0.0848655,-0.155541,-0.99047,0.159179,-0.0829614,-2.17429
2023-01-13 00:55:29653,-0.083585,-0.15442,-0.98841,0.15895,-0.0832412,-2.17367
2023-01-13 00:55:29663,-0.0815886,-0.152606,-0.986627,0.158811,-0.0834773,-2.17301
2023-01-13 00:55:29673,-0.0802302,-0.153358,-0.987747,0.158741,-0.0837927,-2.17236
2023-01-13 00:55:29683,-0.0780736,-0.154109,-0.98977,0.158638,-0.0842155,-2.17168
2023-01-13 00:55:29693,-0.0772224,-0.156432,-0.989767,0.158498,-0.0846582,-2.17104
2023-01-13 00:55:29703,-0.0771518,-0.155694,-0.987387,0.158458,-0.0851524,-2.17042
2023-01-13 00:55:29713,-0.0796449,-0.155387,-0.985722,0.158371,-0.0856484,-2.16983
2023-01-13 00:55:29723,-0.081865,-0.156281,-0.984834,0.158297,-0.0861481,-2.16938
2023-01-13 00:55:29733,-0.0811775,-0.156753,-0.985517,0.158239,-0.0866582,-2.16885
2023-01-13 00:55:29743,-0.0809776,-0.157714,-0.98819,0.158201,-0.0870882,-2.16834
2023-01-13 00:55:29753,-0.0798142,-0.157559,-0.989403,0.158083,-0.0875629,-2.16789
2023-01-13 00:55:29763,-0.0801726,-0.158084,-0.989545,0.157992,-0.0880672,-2.16745
2023-01-13 00:55:29773,-0.0824129,-0.157838,-0.990434,0.157836,-0.088632,-2.16709
2023-01-13 00:55:29783,-0.0810027,-0.158283,-0.989859,0.157686,-0.0891608,-2.16676
2023-01-13 00:55:29793,-0.0823185,-0.158262,-0.990251,0.157468,-0.0897458,-2.16655
2023-01-13 00:55:29803,-0.0850981,-0.157569,-0.990349,0.157306,-0.0903443,-2.16635
2023-01-13 00:55:29813,-0.085769,-0.157115,-0.990825,0.157065,-0.0909946,-2.16618
2023-01-13 00:55:29823,-0.0887754,-0.156945,-0.98884,0.156846,-0.0915526,-2.16603
2023-01-13 00:55:29833,-0.09161,-0.156257,-0.985286,0.156619,-0.0921551,-2.16593
2023-01-13 00:55:29843,-0.0918413,-0.157584,-0.986611,0.156389,-0.092738,-2.16582
2023-01-13 00:55:29853,-0.0921796,-0.157619,-0.986881,0.156146,-0.0932259,-2.16574
2023-01-13 00:55:29863,-0.0909976,-0.158649,-0.988933,0.15595,-0.0936948,-2.1657
2023-01-13 00:55:29873,-0.0902406,-0.158795,-0.991002,0.155723,-0.0942057,-2.16561
2023-01-13 00:55:29883,-0.0932845,-0.159678,-0.992805,0.155475,-0.0948179,-2.16553
2023-01-13 00:55:29893,-0.0941377,-0.158104,-0.991354,0.155104,-0.095413,-2.16543
2023-01-13 00:55:29903,-0.0918787,-0.155355,-0.988766,0.1547,-0.0960521,-2.16528
2023-01-13 00:55:29913,-0.0947315,-0.155015,-0.987991,0.1543,-0.0967558,-2.16508
2023-01-13 00:55:29923,-0.0960411,-0.155449,-0.987934,0.153897,-0.0974135,-2.16493
2023-01-13 00:55:29933,-0.0968677,-0.154665,-0.988111,0.153488,-0.0981452,-2.16473
2023-01-13 00:55:29943,-0.0974593,-0.15385,-0.987438,0.153052,-0.0989264,-2.16445
2023-01-13 00:55:29953,-0.0971696,-0.154177,-0.988475,0.152637,-0.0996541,-2.16418
2023-01-13 00:55:29963,-0.0992924,-0.15378,-0.987775,0.152205,-0.100443,-2.16396
2023-01-13 00:55:29973,-0.101615,-0.149507,-0.984096,0.15174,-0.101244,-2.16367
2023-01-13 00:55:29983,-0.103327,-0.148485,-0.98511,0.151292,-0.102066,-2.1634
2023-01-13 00:55:29993,-0.103184,-0.148409,-0.986967,0.150808,-0.102909,-2.16306
2023-01-13 00:55:303,-0.102498,-0.145875,-0.985082,0.150345,-0.103709,-2.16272
2023-01-13 00:55:3013,-0.102286,-0.145728,-0.984108,0.149907,-0.104561,-2.16239
2023-01-13 00:55:3023,-0.103526,-0.145128,-0.983667,0.14951,-0.105396,-2.16209
2023-01-13 00:55:3033,-0.106164,-0.144903,-0.98509,0.149129,-0.106186,-2.1618
2023-01-13 00:55:3043,-0.106629,-0.14309,-0.98444,0.148685,-0.106951,-2.16158
2023-01-13 00:55:3053,-0.108681,-0.141328,-0.981794,0.148311,-0.10769,-2.16143
2023-01-13 00:55:3063,-0.112909,-0.139669,-0.981725,0.147937,-0.108381,-2.16139
2023-01-13 00:55:3073,-0.118454,-0.1399,-0.984846,0.147678,-0.109022,-2.16131
2023-01-13 00:55:3083,-0.12108,-0.1407,-0.986603,0.147378,-0.109578,-2.1612
2023-01-13 00:55:3093,-0.121636,-0.139298,-0.985139,0.147055,-0.11005,-2.16108
2023-01-13 00:55:30103,-0.121112,-0.139307,-0.984258,0.146823,-0.110411,-2.16096
2023-01-13 00:55:30113,-0.117288,-0.140962,-0.986799,0.146678,-0.110677,-2.16088
2023-01-13 00:55:30123,-0.113349,-0.141347,-0.988139,0.146519,-0.110885,-2.16077
2023-01-13 00:55:30133,-0.112051,-0.141749,-0.988406,0.146364,-0.1111,-2.16067
2023-01-13 00:55:30143,-0.113053,-0.14394,-0.988145,0.146095,-0.111237,-2.16064
2023-01-13 00:55:30153,-0.116055,-0.142628,-0.983424,0.145882,-0.111378,-2.16069
2023-01-13 00:55:30163,-0.118471,-0.141924,-0.98212,0.145624,-0.111533,-2.16073
2023-01-13 00:55:30173,-0.119868,-0.142256,-0.982659,0.145445,-0.111528,-2.16076
2023-01-13 00:55:30183,-0.118987,-0.141956,-0.982023,0.145241,-0.111516,-2.16075
2023-01-13 00:55:30193,-0.116119,-0.140888,-0.980568,0.145038,-0.111476,-2.16075
2023-01-13 00:55:30203,-0.113091,-0.1386,-0.981,0.144859,-0.111409,-2.16063
2023-01-13 00:55:30213,-0.110372,-0.138671,-0.984092,0.144674,-0.111407,-2.16054
2023-01-13 00:55:30223,-0.107938,-0.139736,-0.986522,0.144547,-0.11136,-2.16038
2023-01-13 00:55:30233,-0.107043,-0.140387,-0.989203,0.14444,-0.111396,-2.16032
2023-01-13 00:55:30243,-0.106871,-0.140251,-0.988054,0.144265,-0.111486,-2.16025
2023-01-13 00:55:30253,-0.109204,-0.138887,-0.986084,0.144175,-0.111599,-2.16028
2023-01-13 00:55:30263,-0.111605,-0.138958,-0.986763,0.144033,-0.11175,-2.16031
2023-01-13 00:55:30273,-0.115525,-0.140308,-0.988653,0.143949,-0.111834,-2.16041
2023-01-13 00:55:30283,-0.115846,-0.141107,-0.988273,0.14385,-0.111931,-2.16053
2023-01-13 00:55:30293,-0.11558,-0.140874,-0.988849,0.143787,-0.111978,-2.16062
2023-01-13 00:55:30303,-0.114771,-0.14315,-0.989069,0.143723,-0.112029,-2.16073
2023-01-13 00:55:30313,-0.113362,-0.142614,-0.986553,0.143632,-0.112088,-2.16087
2023-01-13 00:55:30323,-0.110012,-0.13987,-0.985177,0.143554,-0.112128,-2.16091
2023-01-13 00:55:30333,-0.110441,-0.140614,-0.987273,0.143485,-0.11224,-2.16096
2023-01-13 00:55:30343,-0.115538,-0.139374,-0.985213,0.143339,-0.112422,-2.16103
2023-01-13 00:55:30353,-0.119415,-0.138026,-0.981129,0.143131,-0.112663,-2.16107
2023-01-13 00:55:30363,-0.117985,-0.136987,-0.982202,0.143048,-0.112778,-2.16109
2023-01-13 00:55:30373,-0.112981,-0.136873,-0.985807,0.14294,-0.112825,-2.16108
2023-01-13 00:55:30383,-0.106809,-0.13744,-0.989504,0.142858,-0.112861,-2.16102
2023-01-13 00:55:30393,-0.103722,-0.138821,-0.992768,0.14274,-0.112954,-2.16093
2023-01-13 00:55:30403,-0.103376,-0.140829,-0.993208,0.142573,-0.113127,-2.16085
2023-01-13 00:55:30413,-0.104149,-0.141349,-0.993777,0.142395,-0.11334,-2.16087
2023-01-13 00:55:30423,-0.105139,-0.140696,-0.993968,0.142206,-0.113577,-2.16088
2023-01-13 00:55:30433,-0.106268,-0.141269,-0.991726,0.142042,-0.113907,-2.16089
2023-01-13 00:55:30443,-0.103703,-0.142308,-0.988717,0.141892,-0.114268,-2.16089
2023-01-13 00:55:30453,-0.0988707,-0.142883,-0.989327,0.141754,-0.114725,-2.1609
2023-01-13 00:55:30463,-0.101486,-0.144884,-0.992959,0.141506,-0.115319,-2.16087
2023-01-13 00:55:30473,-0.1077,-0.147054,-0.99497,0.14122,-0.116131,-2.16077
2023-01-13 00:55:30483,-0.108715,-0.147965,-0.995311,0.140805,-0.117049,-2.1606
2023-01-13 00:55:30493,-0.108252,-0.144396,-0.99193,0.14036,-0.118101,-2.16029
2023-01-13 00:55:30503,-0.111196,-0.141858,-0.990463,0.139805,-0.119426,-2.15979
2023-01-13 00:55:30513,-0.111691,-0.141853,-0.990797,0.139233,-0.12085,-2.1592
2023-01-13 00:55:30523,-0.110619,-0.140876,-0.989381,0.138655,-0.122408,-2.15844
2023-01-13 00:55:30533,-0.106027,-0.139528,-0.990967,0.138086,-0.124069,-2.15751
2023-01-13 00:55:30543,-0.101876,-0.139521,-0.992336,0.137482,-0.125986,-2.15647
2023-01-13 00:55:30553,-0.100331,-0.140004,-0.994652,0.136834,-0.128077,-2.15537
2023-01-13 00:55:30563,-0.0991158,-0.138283,-0.994326,0.136171,-0.130336,-2.15421
2023-01-13 00:55:30573,-0.0971103,-0.137217,-0.992985,0.135501,-0.132883,-2.1531
2023-01-13 00:55:30583,-0.102175,-0.137181,-0.990895,0.134812,-0.135674,-2.15205
2023-01-13 00:55:30593,-0.110319,-0.137153,-0.988848,0.134104,-0.13865,-2.15099
2023-01-13 00:55:30603,-0.112162,-0.136048,-0.988652,0.13332,-0.141785,-2.1499
2023-01-13 00:55:30613,-0.106594,-0.135235,-0.988531,0.132585,-0.145122,-2.14875
2023-01-13 00:55:30623,-0.100947,-0.135734,-0.988847,0.131791,-0.148642,-2.14754
2023-01-13 00:55:30633,-0.102604,-0.134053,-0.986204,0.13091,-0.15246,-2.14647
2023-01-13 00:55:30643,-0.109605,-0.133776,-0.984923,0.130019,-0.156714,-2.14543
2023-01-13 00:55:30653,-0.121234,-0.134663,-0.985676,0.129126,-0.161219,-2.14449
2023-01-13 00:55:30663,-0.132726,-0.135684,-0.98801,0.12817,-0.165967,-2.14354
2023-01-13 00:55:30673,-0.14077,-0.134849,-0.987541,0.127186,-0.170924,-2.14261
2023-01-13 00:55:30683,-0.145568,-0.131841,-0.983374,0.12608,-0.17602,-2.14171
2023-01-13 00:55:30693,-0.143029,-0.129736,-0.980048,0.124968,-0.181297,-2.14068
2023-01-13 00:55:30703,-0.139399,-0.129742,-0.984103,0.123827,-0.186769,-2.13974
2023-01-13 00:55:30713,-0.139545,-0.128029,-0.985849,0.122698,-0.192505,-2.13888
2023-01-13 00:55:30723,-0.145388,-0.125791,-0.982719,0.121446,-0.198561,-2.13818
2023-01-13 00:55:30733,-0.159711,-0.126219,-0.981201,0.120121,-0.204824,-2.13762
2023-01-13 00:55:30743,-0.175053,-0.124596,-0.975699,0.118672,-0.211417,-2.13723
2023-01-13 00:55:30753,-0.188302,-0.121122,-0.971115,0.11713,-0.218154,-2.13685
2023-01-13 00:55:30763,-0.197096,-0.120733,-0.967928,0.115641,-0.224968,-2.13647
2023-01-13 00:55:30773,-0.200929,-0.119483,-0.965832,0.11401,-0.23192,-2.13607
2023-01-13 00:55:30783,-0.199706,-0.116446,-0.965529,0.11244,-0.239031,-2.13568
2023-01-13 00:55:30793,-0.198737,-0.113901,-0.966578,0.110739,-0.246331,-2.13524
2023-01-13 00:55:30803,-0.201452,-0.111572,-0.968865,0.108993,-0.254029,-2.13492
2023-01-13 00:55:30813,-0.211957,-0.11054,-0.970242,0.107228,-0.262022,-2.1348
2023-01-13 00:55:30823,-0.224049,-0.108253,-0.969888,0.105403,-0.270159,-2.13484
2023-01-13 00:55:30833,-0.228904,-0.104806,-0.961887,0.103409,-0.278515,-2.13505
2023-01-13 00:55:30843,-0.234687,-0.101237,-0.951858,0.101399,-0.286957,-2.13536
2023-01-13 00:55:30853,-0.245559,-0.0981093,-0.945549,0.0993484,-0.295563,-2.13588
2023-01-13 00:55:30863,-0.256451,-0.0969951,-0.942617,0.0972998,-0.304398,-2.13656
2023-01-13 00:55:30873,-0.26591,-0.0956365,-0.940936,0.095266,-0.313517,-2.13726
2023-01-13 00:55:30883,-0.276783,-0.0945945,-0.938831,0.0932488,-0.323025,-2.13802
2023-01-13 00:55:30893,-0.281747,-0.093194,-0.934117,0.0911458,-0.332881,-2.13875
2023-01-13 00:55:30903,-0.282629,-0.0880993,-0.927955,0.0889911,-0.343093,-2.13947
2023-01-13 00:55:30913,-0.281357,-0.0842367,-0.922563,0.0867638,-0.35372,-2.14022
2023-01-13 00:55:30923,-0.2818,-0.0798745,-0.914341,0.084604,-0.36484,-2.14103
2023-01-13 00:55:30933,-0.293126,-0.0767325,-0.909425,0.0824535,-0.376443,-2.14207
2023-01-13 00:55:30943,-0.3188,-0.0749922,-0.90717,0.0802744,-0.388648,-2.14336
2023-01-13 00:55:30953,-0.346428,-0.0736817,-0.902184,0.0780458,-0.401241,-2.14476
2023-01-13 00:55:30963,-0.369225,-0.0698186,-0.895358,0.0756748,-0.414266,-2.1461
2023-01-13 00:55:30973,-0.384547,-0.0636551,-0.885606,0.0732429,-0.427493,-2.14737
2023-01-13 00:55:30983,-0.394744,-0.0569486,-0.872565,0.070779,-0.440897,-2.14861
2023-01-13 00:55:30993,-0.396207,-0.0513805,-0.858044,0.0683335,-0.454457,-2.14971
2023-01-13 00:55:313,-0.403785,-0.0466385,-0.84425,0.0660089,-0.468216,-2.15096
2023-01-13 00:55:3113,-0.419483,-0.0419007,-0.839017,0.0638966,-0.482283,-2.15221
2023-01-13 00:55:3123,-0.437044,-0.0394886,-0.844494,0.0619132,-0.49658,-2.15342
2023-01-13 00:55:3133,-0.459474,-0.0414543,-0.854031,0.0600549,-0.511017,-2.1548
2023-01-13 00:55:3143,-0.485401,-0.0393354,-0.854673,0.0580377,-0.52552,-2.15608
2023-01-13 00:55:3153,-0.508217,-0.0334403,-0.843185,0.0558735,-0.53996,-2.15743
2023-01-13 00:55:3163,-0.522571,-0.0286539,-0.823276,0.0535654,-0.554162,-2.15878
2023-01-13 00:55:3173,-0.524414,-0.0220565,-0.799432,0.0512645,-0.568277,-2.16012
2023-01-13 00:55:3183,-0.517374,-0.0150244,-0.781248,0.0492479,-0.582235,-2.16149
2023-01-13 00:55:3193,-0.511022,-0.0136522,-0.77241,0.0477022,-0.596233,-2.16299
2023-01-13 00:55:31103,-0.519624,-0.0129729,-0.76974,0.0466146,-0.610434,-2.16485
2023-01-13 00:55:31113,-0.539885,-0.0173676,-0.770956,0.0459853,-0.624786,-2.16709
2023-01-13 00:55:31123,-0.571802,-0.021573,-0.771247,0.0456146,-0.639289,-2.16975
2023-01-13 00:55:31133,-0.606723,-0.0265489,-0.76324,0.045259,-0.653613,-2.17259
2023-01-13 00:55:31143,-0.620438,-0.0251839,-0.750963,0.0449928,-0.667616,-2.17558
2023-01-13 00:55:31153,-0.615879,-0.0242112,-0.740755,0.0448231,-0.681264,-2.17864
2023-01-13 00:55:31163,-0.612242,-0.0242771,-0.730474,0.0449858,-0.694744,-2.182
2023-01-13 00:55:31173,-0.629019,-0.0259552,-0.723326,0.0455511,-0.708154,-2.18591
2023-01-13 00:55:31183,-0.648687,-0.0284435,-0.718123,0.0465072,-0.721437,-2.19035
2023-01-13 00:55:31193,-0.666181,-0.0297136,-0.713206,0.047781,-0.734544,-2.19535
2023-01-13 00:55:31203,-0.681574,-0.0283826,-0.710543,0.0494471,-0.747263,-2.20083
2023-01-13 00:55:31213,-0.702295,-0.0276244,-0.709677,0.0515757,-0.75965,-2.20693
2023-01-13 00:55:31223,-0.736128,-0.0327222,-0.707881,0.0540613,-0.771607,-2.21366
2023-01-13 00:55:31233,-0.77562,-0.0412977,-0.698533,0.0567216,-0.783143,-2.22091
2023-01-13 00:55:31243,-0.802479,-0.04474,-0.678832,0.0593655,-0.794098,-2.22838
2023-01-13 00:55:31253,-0.812042,-0.0443731,-0.655182,0.0620544,-0.804477,-2.23597
2023-01-13 00:55:31263,-0.811106,-0.0388417,-0.638111,0.0649092,-0.814125,-2.24361
2023-01-13 00:55:31273,-0.820071,-0.0344374,-0.639309,0.0682416,-0.823163,-2.25142
2023-01-13 00:55:31283,-0.852156,-0.0426279,-0.653508,0.0721236,-0.831585,-2.25959
2023-01-13 00:55:31293,-0.895872,-0.0537259,-0.67172,0.0760341,-0.83927,-2.26782
2023-01-13 00:55:31303,-0.934604,-0.0634975,-0.679506,0.0794657,-0.845931,-2.27575
2023-01-13 00:55:31313,-0.951213,-0.0684203,-0.666679,0.0821623,-0.851525,-2.28309
2023-01-13 00:55:31323,-0.932368,-0.0640988,-0.635801,0.0840238,-0.856152,-2.28965
2023-01-13 00:55:31333,-0.896039,-0.054872,-0.6127,0.0856685,-0.859942,-2.2957
2023-01-13 00:55:31343,-0.865226,-0.0508089,-0.60534,0.0875135,-0.863135,-2.30146
2023-01-13 00:55:31353,-0.865277,-0.0531655,-0.606405,0.089736,-0.865883,-2.30718
2023-01-13 00:55:31363,-0.893443,-0.064913,-0.615376,0.0922421,-0.868209,-2.31294
2023-01-13 00:55:31373,-0.922981,-0.0736826,-0.625326,0.0944627,-0.869949,-2.31828
2023-01-13 00:55:31383,-0.925702,-0.0741105,-0.631837,0.0960096,-0.871063,-2.32271
2023-01-13 00:55:31393,-0.904323,-0.0731208,-0.629863,0.0969765,-0.871572,-2.32632
2023-01-13 00:55:31403,-0.88354,-0.0685611,-0.622235,0.0975463,-0.87165,-2.32932
2023-01-13 00:55:31413,-0.874785,-0.0643481,-0.612195,0.0979999,-0.871321,-2.33201
2023-01-13 00:55:31423,-0.874317,-0.0638008,-0.605992,0.098416,-0.870522,-2.33443
2023-01-13 00:55:31433,-0.869247,-0.0616858,-0.606759,0.0988024,-0.869254,-2.33645
2023-01-13 00:55:31443,-0.873455,-0.0625858,-0.614967,0.0990968,-0.867447,-2.33808
2023-01-13 00:55:31453,-0.88141,-0.0660647,-0.629591,0.0992012,-0.864982,-2.3392
2023-01-13 00:55:31463,-0.883088,-0.0701416,-0.644666,0.0988846,-0.861967,-2.33969
2023-01-13 00:55:31473,-0.875388,-0.0698698,-0.654329,0.0979566,-0.858505,-2.33954
2023-01-13 00:55:31483,-0.863657,-0.064089,-0.651159,0.0963414,-0.85475,-2.33854
2023-01-13 00:55:31493,-0.858385,-0.0554772,-0.641246,0.094162,-0.850894,-2.33681
2023-01-13 00:55:31503,-0.858216,-0.0520851,-0.634218,0.0916255,-0.846862,-2.33447
2023-01-13 00:55:31513,-0.840965,-0.0478433,-0.62622,0.0888355,-0.842475,-2.33145
2023-01-13 00:55:31523,-0.799427,-0.0416188,-0.619215,0.0861924,-0.837722,-2.32813
2023-01-13 00:55:31533,-0.754043,-0.0362075,-0.619202,0.0841492,-0.832602,-2.32508
2023-01-13 00:55:31543,-0.73792,-0.0347889,-0.62288,0.0831211,-0.827196,-2.32281
2023-01-13 00:55:31553,-0.773478,-0.0410805,-0.63461,0.0829395,-0.821608,-2.32129
2023-01-13 00:55:31564,-0.82176,-0.049565,-0.650998,0.0831026,-0.815481,-2.31996
2023-01-13 00:55:31573,-0.827108,-0.0597655,-0.674924,0.0832802,-0.808491,-2.31849
2023-01-13 00:55:31583,-0.792459,-0.0676949,-0.696172,0.0833502,-0.800749,-2.31671
2023-01-13 00:55:31593,-0.751794,-0.070391,-0.708632,0.0832339,-0.792589,-2.31487
2023-01-13 00:55:31603,-0.722454,-0.0689046,-0.710626,0.0830171,-0.784298,-2.31312
2023-01-13 00:55:31613,-0.710256,-0.0641613,-0.706273,0.0827303,-0.775774,-2.31162
2023-01-13 00:55:31623,-0.706838,-0.0614213,-0.702314,0.0825626,-0.767117,-2.31051
2023-01-13 00:55:31633,-0.710792,-0.0588595,-0.698708,0.0828238,-0.758312,-2.30982
2023-01-13 00:55:31643,-0.717068,-0.0647568,-0.704608,0.0832983,-0.749272,-2.30931
2023-01-13 00:55:31653,-0.713357,-0.0702832,-0.716975,0.0839431,-0.739825,-2.3089
2023-01-13 00:55:31663,-0.70257,-0.074694,-0.732551,0.0846602,-0.729984,-2.30857
2023-01-13 00:55:31673,-0.687889,-0.0774964,-0.753029,0.0853197,-0.719798,-2.30821
2023-01-13 00:55:31684,-0.686527,-0.0774132,-0.769846,0.0857369,-0.7095,-2.30775
2023-01-13 00:55:31693,-0.696183,-0.0787619,-0.782815,0.0856864,-0.698947,-2.30705
2023-01-13 00:55:31704,-0.696332,-0.0720114,-0.781564,0.0851244,-0.688149,-2.30605
2023-01-13 00:55:31713,-0.680568,-0.0612011,-0.770413,0.0842227,-0.677025,-2.30472
2023-01-13 00:55:31723,-0.648135,-0.0527767,-0.756616,0.0832402,-0.665609,-2.30304
2023-01-13 00:55:31733,-0.608607,-0.0472206,-0.751317,0.0824628,-0.653954,-2.30128
2023-01-13 00:55:31744,-0.583546,-0.0452398,-0.760018,0.0820813,-0.642167,-2.29966
2023-01-13 00:55:31753,-0.5859,-0.0487041,-0.775131,0.0819989,-0.630226,-2.29822
2023-01-13 00:55:31763,-0.607448,-0.0512596,-0.788077,0.0819533,-0.618247,-2.29688
2023-01-13 00:55:31773,-0.626895,-0.0506913,-0.790635,0.0818348,-0.606105,-2.29528
2023-01-13 00:55:31783,-0.62187,-0.0505444,-0.788858,0.0816832,-0.593598,-2.29332
2023-01-13 00:55:31793,-0.592367,-0.0573618,-0.799375,0.0814848,-0.580659,-2.29084
2023-01-13 00:55:31803,-0.553718,-0.0664791,-0.817976,0.0812714,-0.567534,-2.28797
2023-01-13 00:55:31813,-0.517005,-0.0726651,-0.836125,0.081035,-0.554276,-2.28502
2023-01-13 00:55:31823,-0.489524,-0.0743702,-0.841305,0.0806791,-0.541039,-2.28219
2023-01-13 00:55:31833,-0.485399,-0.0689276,-0.833831,0.080373,-0.527741,-2.27978
2023-01-13 00:55:31843,-0.498653,-0.0622409,-0.816799,0.0801942,-0.514494,-2.27776
2023-01-13 00:55:31853,-0.50833,-0.0591207,-0.803166,0.0803415,-0.501141,-2.27582
2023-01-13 00:55:31863,-0.487446,-0.059872,-0.805252,0.0809772,-0.487316,-2.27369
2023-01-13 00:55:31873,-0.44329,-0.0671789,-0.830179,0.0819389,-0.473155,-2.27135
2023-01-13 00:55:31883,-0.39867,-0.0760212,-0.861125,0.0832636,-0.459002,-2.26892
2023-01-13 00:55:31893,-0.377319,-0.0846311,-0.890264,0.084643,-0.445185,-2.2666
2023-01-13 00:55:31903,-0.38606,-0.0946058,-0.913311,0.0858594,-0.431547,-2.26462
2023-01-13 00:55:31913,-0.410115,-0.0981905,-0.91319,0.0867579,-0.418217,-2.26297
2023-01-13 00:55:31923,-0.434281,-0.0910322,-0.88645,0.0873412,-0.404964,-2.26131
2023-01-13 00:55:31933,-0.432775,-0.0835758,-0.863854,0.0879979,-0.391265,-2.25957
2023-01-13 00:55:31943,-0.393814,-0.0821228,-0.861187,0.0889426,-0.377065,-2.2575
2023-01-13 00:55:31953,-0.347146,-0.0810491,-0.873069,0.0901446,-0.36264,-2.25517
2023-01-13 00:55:31963,-0.320478,-0.084395,-0.895714,0.0916411,-0.348225,-2.25284
2023-01-13 00:55:31973,-0.326424,-0.0937456,-0.916499,0.0931895,-0.334058,-2.25055
2023-01-13 00:55:31983,-0.373848,-0.0999772,-0.916725,0.0946551,-0.320049,-2.24831
2023-01-13 00:55:31993,-0.413541,-0.103389,-0.909206,0.0959912,-0.305626,-2.24594
2023-01-13 00:55:323,-0.388414,-0.103369,-0.902835,0.0973475,-0.290462,-2.24283
2023-01-13 00:55:3213,-0.334596,-0.105448,-0.906002,0.0987302,-0.274671,-2.23905
2023-01-13 00:55:3223,-0.288376,-0.1124,-0.922126,0.100107,-0.25814,-2.235
2023-01-13 00:55:3233,-0.253473,-0.118318,-0.937283,0.10129,-0.241276,-2.23079
2023-01-13 00:55:3243,-0.232652,-0.121075,-0.940676,0.10225,-0.224181,-2.22648
2023-01-13 00:55:3253,-0.213002,-0.11995,-0.934849,0.103099,-0.206771,-2.22208
2023-01-13 00:55:3263,-0.192323,-0.113451,-0.920779,0.103762,-0.189095,-2.21766
2023-01-13 00:55:3273,-0.162561,-0.103533,-0.907318,0.104474,-0.171262,-2.2131
2023-01-13 00:55:3283,-0.1177,-0.0935303,-0.901733,0.105436,-0.153296,-2.20831
2023-01-13 00:55:3293,-0.0667613,-0.0858146,-0.905533,0.106805,-0.135399,-2.2035
2023-01-13 00:55:32103,-0.0296115,-0.084157,-0.912297,0.108503,-0.117685,-2.19885
2023-01-13 00:55:32113,-0.00658802,-0.0864261,-0.918248,0.110514,-0.100334,-2.19445
2023-01-13 00:55:32124,0.0145693,-0.0925369,-0.927903,0.112711,-0.08333,-2.19034
2023-01-13 00:55:32134,0.03593,-0.100958,-0.945383,0.115134,-0.0668206,-2.18649
2023-01-13 00:55:32143,0.0471712,-0.113121,-0.961646,0.117678,-0.0508627,-2.18279
2023-01-13 00:55:32153,0.0586918,-0.120563,-0.970415,0.120077,-0.0353033,-2.17938
2023-01-13 00:55:32164,0.0817209,-0.117586,-0.964443,0.122359,-0.0203363,-2.17604
2023-01-13 00:55:32173,0.109927,-0.11352,-0.955491,0.124715,-0.00600819,-2.17271
2023-01-13 00:55:32183,0.1357,-0.114419,-0.956849,0.127333,0.00754064,-2.16946
2023-01-13 00:55:32193,0.162829,-0.120285,-0.970112,0.130139,0.0203259,-2.16628
2023-01-13 00:55:32204,0.185507,-0.130282,-0.986157,0.133057,0.0321057,-2.16331
2023-01-13 00:55:32213,0.194176,-0.140778,-1.00474,0.136034,0.0428046,-2.16056
2023-01-13 00:55:32223,0.19558,-0.152534,-1.0259,0.138812,0.0525428,-2.15819
2023-01-13 00:55:32233,0.199601,-0.16422,-1.04153,0.141385,0.0611698,-2.15615
2023-01-13 00:55:32243,0.212747,-0.168522,-1.04311,0.143564,0.0687564,-2.15421
2023-01-13 00:55:32253,0.22855,-0.167725,-1.03618,0.145479,0.0752298,-2.1524
2023-01-13 00:55:32264,0.232101,-0.168737,-1.03181,0.147159,0.0805702,-2.15066
2023-01-13 00:55:32273,0.224049,-0.169308,-1.02798,0.148689,0.0847843,-2.14912
2023-01-13 00:55:32283,0.214583,-0.165978,-1.01995,0.150018,0.087934,-2.1476
2023-01-13 00:55:32293,0.206971,-0.16279,-1.01674,0.151287,0.090131,-2.14615
2023-01-13 00:55:32303,0.198515,-0.16284,-1.02167,0.152426,0.0915102,-2.14489
2023-01-13 00:55:32313,0.191601,-0.164512,-1.02477,0.153462,0.092139,-2.14371
2023-01-13 00:55:32323,0.186504,-0.165239,-1.02323,0.154315,0.0921631,-2.14268
2023-01-13 00:55:32333,0.177475,-0.164188,-1.01919,0.154933,0.0915882,-2.1418
2023-01-13 00:55:32343,0.166492,-0.16388,-1.01247,0.155398,0.0905483,-2.14113
2023-01-13 00:55:32353,0.152809,-0.159965,-1.0027,0.155678,0.0891584,-2.14059
2023-01-13 00:55:32363,0.135076,-0.157322,-0.992056,0.155785,0.0874517,-2.14026
2023-01-13 00:55:32373,0.119857,-0.1522,-0.98365,0.155903,0.0855344,-2.13997
2023-01-13 00:55:32383,0.109865,-0.149531,-0.979741,0.156044,0.0835733,-2.1398
2023-01-13 00:55:32393,0.104671,-0.150628,-0.981661,0.156237,0.0815192,-2.13966
2023-01-13 00:55:32403,0.106806,-0.151394,-0.985531,0.156448,0.0792883,-2.13945
2023-01-13 00:55:32413,0.104163,-0.152533,-0.988784,0.156695,0.0767784,-2.13928
2023-01-13 00:55:32423,0.0894632,-0.159451,-0.997076,0.156896,0.0740685,-2.13914
2023-01-13 00:55:32433,0.0719588,-0.16537,-1.0009,0.157027,0.0711622,-2.13898
2023-01-13 00:55:32443,0.0590677,-0.165389,-0.998411,0.156974,0.0681881,-2.13867
2023-01-13 00:55:32453,0.0522885,-0.163333,-0.995592,0.156878,0.0651615,-2.13806
2023-01-13 00:55:32464,0.0501893,-0.159651,-0.991051,0.156768,0.0621965,-2.13727
2023-01-13 00:55:32473,0.052226,-0.154171,-0.985112,0.156699,0.0592799,-2.13611
2023-01-13 00:55:32483,0.0560786,-0.15471,-0.985067,0.156628,0.0564108,-2.13489
2023-01-13 00:55:32493,0.0626579,-0.155114,-0.988033,0.156658,0.0534877,-2.13351
2023-01-13 00:55:32503,0.0636232,-0.158165,-0.994403,0.156763,0.0504412,-2.13199
2023-01-13 00:55:32513,0.0569023,-0.162796,-0.998244,0.156803,0.0472749,-2.1305
2023-01-13 00:55:32523,0.0520669,-0.162181,-0.99683,0.156768,0.0440073,-2.129
2023-01-13 00:55:32533,0.0502284,-0.162503,-0.996014,0.156723,0.0407187,-2.12743
2023-01-13 00:55:32543,0.0460326,-0.163603,-0.997241,0.156595,0.0373398,-2.12577
2023-01-13 00:55:32553,0.0428228,-0.166266,-1.00186,0.156369,0.0340196,-2.12411
2023-01-13 00:55:32563,0.0459768,-0.165029,-1.00495,0.156053,0.0306946,-2.12243
2023-01-13 00:55:32573,0.0486997,-0.162113,-1.00158,0.155604,0.0274303,-2.12088
2023-01-13 00:55:32583,0.0460912,-0.159871,-0.9961,0.155044,0.0241724,-2.11933
2023-01-13 00:55:32593,0.042676,-0.157609,-0.992151,0.154422,0.0209133,-2.1179
2023-01-13 00:55:32603,0.0397688,-0.156731,-0.990535,0.153818,0.0175955,-2.1165
2023-01-13 00:55:32613,0.0346681,-0.157142,-0.992608,0.153191,0.0142008,-2.11518
2023-01-13 00:55:32623,0.035017,-0.157113,-0.995361,0.152542,0.0107265,-2.11385
2023-01-13 00:55:32633,0.0382492,-0.156513,-0.998351,0.151886,0.0071958,-2.11258
2023-01-13 00:55:32643,0.0387882,-0.153882,-0.998742,0.151242,0.00358748,-2.11139
2023-01-13 00:55:32653,0.0319109,-0.15068,-0.993784,0.150563,-0.000211044,-2.11036
2023-01-13 00:55:32663,0.021647,-0.150556,-0.987667,0.149709,-0.00419223,-2.10947
2023-01-13 00:55:32673,0.0191078,-0.150016,-0.986508,0.148993,-0.00831246,-2.10861
2023-01-13 00:55:32683,0.0202189,-0.153654,-0.992522,0.148323,-0.0126205,-2.1078
2023-01-13 00:55:32693,0.013189,-0.155944,-0.997356,0.147637,-0.0172172,-2.10698
2023-01-13 00:55:32703,0.00421819,-0.154666,-0.995637,0.146901,-0.0221165,-2.10609
2023-01-13 00:55:32713,-0.00581596,-0.149676,-0.988742,0.14619,-0.0273275,-2.10511
2023-01-13 00:55:32723,-0.00526405,-0.147862,-0.984725,0.145473,-0.0328243,-2.10389
2023-01-13 00:55:32733,0.00674118,-0.148697,-0.985591,0.144866,-0.0386245,-2.1025
2023-01-13 00:55:32744,0.013731,-0.150559,-0.988636,0.144274,-0.0446948,-2.10103
2023-01-13 00:55:32753,0.00728832,-0.160034,-1.00122,0.143731,-0.0511418,-2.0996
2023-01-13 00:55:32763,-0.00286259,-0.170458,-1.01779,0.142968,-0.0580387,-2.09809
2023-01-13 00:55:32773,-0.0137596,-0.170842,-1.02126,0.141826,-0.065538,-2.09649
2023-01-13 00:55:32783,-0.0252041,-0.167803,-1.01589,0.140473,-0.0734537,-2.09494
2023-01-13 00:55:32793,-0.0413378,-0.158608,-1.00342,0.138802,-0.0818319,-2.09341
2023-01-13 00:55:32803,-0.0536381,-0.148785,-0.988058,0.136978,-0.0905576,-2.09187
2023-01-13 00:55:32813,-0.0672491,-0.13967,-0.978654,0.135136,-0.09966,-2.09018
2023-01-13 00:55:32823,-0.0743666,-0.135155,-0.975165,0.133255,-0.108991,-2.08836
2023-01-13 00:55:32833,-0.0719418,-0.130531,-0.975122,0.131468,-0.118595,-2.08641
2023-01-13 00:55:32843,-0.0759723,-0.133,-0.985204,0.129565,-0.128472,-2.08451
2023-01-13 00:55:32853,-0.101848,-0.13545,-0.991663,0.127546,-0.138804,-2.08268
2023-01-13 00:55:32863,-0.135428,-0.130653,-0.986112,0.125262,-0.149366,-2.08098
2023-01-13 00:55:32873,-0.150221,-0.120072,-0.969961,0.122776,-0.159958,-2.07932
2023-01-13 00:55:32883,-0.147839,-0.108694,-0.957696,0.120145,-0.170474,-2.07755
2023-01-13 00:55:32893,-0.141858,-0.101639,-0.958672,0.117638,-0.181034,-2.07579
2023-01-13 00:55:32903,-0.13825,-0.0994695,-0.962877,0.115133,-0.191782,-2.0741
2023-01-13 00:55:32913,-0.142718,-0.100002,-0.964815,0.112613,-0.202816,-2.0726
2023-01-13 00:55:32923,-0.165598,-0.102424,-0.965732,0.110075,-0.214232,-2.07134
2023-01-13 00:55:32933,-0.204458,-0.104237,-0.967323,0.1074,-0.225918,-2.07025
2023-01-13 00:55:32943,-0.237163,-0.103601,-0.965767,0.104562,-0.237694,-2.06921
2023-01-13 00:55:32953,-0.249977,-0.0983042,-0.953875,0.101462,-0.249469,-2.06801
2023-01-13 00:55:32963,-0.24656,-0.0900383,-0.944205,0.0983888,-0.261177,-2.06668
2023-01-13 00:55:32973,-0.238889,-0.0821727,-0.938856,0.0952151,-0.272993,-2.06527
2023-01-13 00:55:32983,-0.238126,-0.0780949,-0.931034,0.0921194,-0.284895,-2.06394
2023-01-13 00:55:32993,-0.241704,-0.0735162,-0.922647,0.0890867,-0.297095,-2.06271
2023-01-13 00:55:333,-0.247553,-0.0731717,-0.924304,0.0861429,-0.309651,-2.06166
2023-01-13 00:55:3313,-0.257882,-0.0759493,-0.931685,0.0832682,-0.322589,-2.06064
2023-01-13 00:55:3323,-0.274455,-0.0775759,-0.936878,0.0803242,-0.335974,-2.05977
2023-01-13 00:55:3333,-0.29358,-0.0744756,-0.935858,0.0772041,-0.349724,-2.05901
2023-01-13 00:55:3344,-0.315209,-0.0656751,-0.923238,0.0738952,-0.363748,-2.05826
2023-01-13 00:55:3353,-0.335579,-0.0557347,-0.908211,0.0703415,-0.377946,-2.05749
2023-01-13 00:55:3363,-0.344317,-0.0480501,-0.892507,0.0667694,-0.392336,-2.05666
2023-01-13 00:55:3373,-0.347116,-0.0373743,-0.873343,0.0633709,-0.406858,-2.0559
2023-01-13 00:55:3383,-0.347079,-0.0313643,-0.86207,0.0601711,-0.421484,-2.05518
2023-01-13 00:55:3393,-0.350353,-0.0286876,-0.858538,0.0572829,-0.436244,-2.05478
2023-01-13 00:55:33103,-0.367566,-0.0268064,-0.859676,0.0546897,-0.451398,-2.05459
2023-01-13 00:55:33113,-0.396016,-0.02759,-0.860991,0.0525037,-0.466811,-2.0548
2023-01-13 00:55:33123,-0.432708,-0.0305526,-0.861165,0.0503672,-0.482233,-2.05535
2023-01-13 00:55:33133,-0.468097,-0.0335943,-0.851563,0.0482254,-0.497597,-2.05614
2023-01-13 00:55:33143,-0.484952,-0.0296716,-0.828965,0.0460663,-0.512718,-2.05701
2023-01-13 00:55:33153,-0.475122,-0.0280384,-0.806634,0.0440544,-0.527579,-2.05792
2023-01-13 00:55:33163,-0.449047,-0.0288596,-0.795887,0.0423648,-0.542383,-2.05894
2023-01-13 00:55:33173,-0.435636,-0.0304524,-0.803713,0.0410963,-0.557384,-2.06027
2023-01-13 00:55:33183,-0.451959,-0.0357435,-0.81944,0.0401847,-0.572912,-2.06211
2023-01-13 00:55:33193,-0.498533,-0.0437383,-0.83291,0.0393196,-0.588737,-2.06453
2023-01-13 00:55:33203,-0.540922,-0.0492894,-0.832142,0.0383127,-0.604509,-2.06749
2023-01-13 00:55:33213,-0.560155,-0.043686,-0.807846,0.0368849,-0.620133,-2.07068
2023-01-13 00:55:33223,-0.565292,-0.0343232,-0.779592,0.0352901,-0.635433,-2.07399
2023-01-13 00:55:33233,-0.566663,-0.0286938,-0.759275,0.0338512,-0.650721,-2.07756
2023-01-13 00:55:33244,-0.578927,-0.023123,-0.745959,0.0325926,-0.666149,-2.0814
2023-01-13 00:55:33253,-0.604242,-0.021515,-0.738647,0.0315527,-0.681547,-2.08561
2023-01-13 00:55:33263,-0.628111,-0.0213686,-0.730018,0.0308254,-0.696911,-2.09023
2023-01-13 00:55:33273,-0.641658,-0.0218206,-0.721013,0.0302531,-0.712141,-2.09519
2023-01-13 00:55:33283,-0.655245,-0.0191683,-0.713722,0.0298728,-0.727143,-2.10054
2023-01-13 00:55:33293,-0.677735,-0.0201422,-0.707156,0.0296134,-0.74202,-2.10616
2023-01-13 00:55:33303,-0.696671,-0.0227982,-0.700941,0.029692,-0.75653,-2.11223
2023-01-13 00:55:33313,-0.722989,-0.0265094,-0.693822,0.0299675,-0.770652,-2.11882
2023-01-13 00:55:33323,-0.767688,-0.0280782,-0.685688,0.0304438,-0.784386,-2.12587
2023-01-13 00:55:33333,-0.817,-0.0247011,-0.674607,0.0308582,-0.79753,-2.13324
2023-01-13 00:55:33344,-0.845263,-0.0196747,-0.657758,0.0313206,-0.80976,-2.1407
2023-01-13 00:55:33353,-0.842566,-0.0113789,-0.638856,0.031991,-0.820996,-2.14818
2023-01-13 00:55:33364,-0.832933,0.000271157,-0.622419,0.033061,-0.831266,-2.15585
2023-01-13 00:55:33374,-0.842962,0.00166905,-0.613535,0.0350062,-0.840723,-2.16417
2023-01-13 00:55:33384,-0.881568,-0.00713082,-0.612036,0.0382202,-0.849379,-2.17345
2023-01-13 00:55:33394,-0.936528,-0.0184603,-0.620384,0.0418998,-0.857181,-2.18312
2023-01-13 00:55:33404,-0.99707,-0.0373842,-0.633039,0.0456318,-0.863968,-2.19276
2023-01-13 00:55:33414,-1.03136,-0.0541558,-0.628059,0.0487017,-0.869366,-2.20169
2023-01-13 00:55:33424,-0.997035,-0.0543444,-0.605817,0.0509324,-0.873176,-2.20964
2023-01-13 00:55:33434,-0.919875,-0.0432373,-0.583084,0.053104,-0.875649,-2.21709
2023-01-13 00:55:33444,-0.876404,-0.0383676,-0.577881,0.0561082,-0.877309,-2.22484
2023-01-13 00:55:33453,-0.898281,-0.0438526,-0.586644,0.0600281,-0.878532,-2.23319
2023-01-13 00:55:33463,-0.946972,-0.0583496,-0.613557,0.064419,-0.879001,-2.24169
2023-01-13 00:55:33473,-0.97711,-0.080179,-0.647094,0.0683035,-0.878667,-2.24944
2023-01-13 00:55:33483,-0.978566,-0.0945484,-0.667601,0.0708551,-0.8774,-2.25605
2023-01-13 00:55:33493,-0.948293,-0.0923023,-0.66031,0.0719665,-0.875552,-2.26141
2023-01-13 00:55:33504,-0.902835,-0.0783338,-0.633874,0.0719072,-0.873298,-2.26569
2023-01-13 00:55:33513,-0.867414,-0.0627003,-0.612642,0.0712614,-0.870826,-2.26927
2023-01-13 00:55:33524,-0.862108,-0.0498061,-0.602162,0.0705023,-0.868154,-2.27245
2023-01-13 00:55:33533,-0.8866,-0.0431524,-0.601493,0.0698008,-0.865274,-2.2753
2023-01-13 00:55:33543,-0.905925,-0.0438232,-0.614091,0.06878,-0.861983,-2.27724
2023-01-13 00:55:33553,-0.898234,-0.0453645,-0.630834,0.0671027,-0.858026,-2.27816
2023-01-13 00:55:33563,-0.870552,-0.0422848,-0.639286,0.0647623,-0.853603,-2.27798
2023-01-13 00:55:33573,-0.837959,-0.0329726,-0.637669,0.0618662,-0.848826,-2.27703
2023-01-13 00:55:33583,-0.802445,-0.0231395,-0.633385,0.0588086,-0.843836,-2.27553
2023-01-13 00:55:33593,-0.777907,-0.0148709,-0.629766,0.0557605,-0.838755,-2.27389
2023-01-13 00:55:33603,-0.771458,-0.00629092,-0.626067,0.0531813,-0.833578,-2.2725
2023-01-13 00:55:33613,-0.786988,0.00115121,-0.62128,0.0510616,-0.828283,-2.2714
2023-01-13 00:55:33624,-0.799884,0.00442738,-0.621046,0.0495787,-0.822596,-2.27054
2023-01-13 00:55:33633,-0.79738,0.00126443,-0.629271,0.0486104,-0.816253,-2.26974
2023-01-13 00:55:33643,-0.778235,-0.00450704,-0.646675,0.0481787,-0.809297,-2.26901
2023-01-13 00:55:33653,-0.756947,-0.0138427,-0.668145,0.0482778,-0.801935,-2.26851
2023-01-13 00:55:33664,-0.762446,-0.0258718,-0.686237,0.0487288,-0.794268,-2.26846
2023-01-13 00:55:33673,-0.792723,-0.0302783,-0.693651,0.0491499,-0.786215,-2.26859
2023-01-13 00:55:33683,-0.808626,-0.0295191,-0.696088,0.0493031,-0.777571,-2.26848
2023-01-13 00:55:33693,-0.784266,-0.0303828,-0.705513,0.0490607,-0.76821,-2.26777
2023-01-13 00:55:33703,-0.73938,-0.032002,-0.716449,0.0487409,-0.758294,-2.26674
2023-01-13 00:55:33713,-0.701429,-0.0353609,-0.722426,0.0484391,-0.747995,-2.26573
2023-01-13 00:55:33723,-0.690019,-0.0382292,-0.726911,0.0481859,-0.737396,-2.26504
2023-01-13 00:55:33733,-0.686765,-0.035376,-0.730463,0.0477777,-0.726495,-2.26442
2023-01-13 00:55:33743,-0.686396,-0.0304535,-0.72867,0.0473604,-0.71549,-2.26385
2023-01-13 00:55:33753,-0.67911,-0.0290549,-0.735468,0.0470032,-0.704233,-2.26315
2023-01-13 00:55:33763,-0.674077,-0.0293989,-0.742169,0.0467397,-0.692888,-2.26249
2023-01-13 00:55:33773,-0.665942,-0.0298417,-0.75122,0.0466105,-0.681239,-2.26188
2023-01-13 00:55:33783,-0.648452,-0.0241954,-0.754114,0.0463396,-0.669579,-2.26103
2023-01-13 00:55:33793,-0.629826,-0.0174742,-0.756669,0.0462689,-0.657769,-2.26012
2023-01-13 00:55:33804,-0.619492,-0.0181076,-0.769278,0.0464102,-0.645699,-2.25931
2023-01-13 00:55:33813,-0.63256,-0.0238832,-0.781237,0.0466876,-0.633463,-2.2586
2023-01-13 00:55:33823,-0.651665,-0.0291471,-0.788042,0.047015,-0.620893,-2.25791
2023-01-13 00:55:33833,-0.640837,-0.0339277,-0.800619,0.0471694,-0.607784,-2.25683
2023-01-13 00:55:33843,-0.603409,-0.0401025,-0.814211,0.0472801,-0.594105,-2.25546
2023-01-13 00:55:33853,-0.555644,-0.0405945,-0.823411,0.047307,-0.580151,-2.254
2023-01-13 00:55:33863,-0.514271,-0.0373243,-0.829225,0.0472335,-0.566005,-2.25255
2023-01-13 00:55:33873,-0.496307,-0.0368992,-0.833481,0.0471859,-0.55179,-2.25149
2023-01-13 00:55:33884,-0.513546,-0.0385408,-0.8321,0.0472138,-0.537475,-2.25089
2023-01-13 00:55:33893,-0.529737,-0.0336622,-0.823459,0.047139,-0.522862,-2.25046
2023-01-13 00:55:33903,-0.499756,-0.0260134,-0.819901,0.0471909,-0.507731,-2.24998
2023-01-13 00:55:33913,-0.447579,-0.0218306,-0.826769,0.0474708,-0.492171,-2.24933
2023-01-13 00:55:33923,-0.409086,-0.0248641,-0.843552,0.048118,-0.476476,-2.24897
2023-01-13 00:55:33933,-0.385882,-0.0309279,-0.866256,0.0489332,-0.46074,-2.249
2023-01-13 00:55:33943,-0.379914,-0.0334643,-0.877203,0.0497846,-0.445163,-2.24941
2023-01-13 00:55:33954,-0.391578,-0.034993,-0.87748,0.0505866,-0.429749,-2.25025
2023-01-13 00:55:33964,-0.4221,-0.0314311,-0.865775,0.0513322,-0.414562,-2.25135
2023-01-13 00:55:33973,-0.430028,-0.028914,-0.864629,0.0521883,-0.398947,-2.25223
2023-01-13 00:55:33983,-0.383015,-0.0320372,-0.880225,0.0532181,-0.382893,-2.25272
2023-01-13 00:55:33994,-0.330127,-0.0347312,-0.890954,0.0542875,-0.366862,-2.25293
2023-01-13 00:55:344,-0.289651,-0.0348485,-0.898953,0.0554853,-0.350791,-2.25321
2023-01-13 00:55:3414,-0.258735,-0.030596,-0.89981,0.056674,-0.335101,-2.25354
2023-01-13 00:55:3424,-0.265936,-0.0307001,-0.897001,0.0580411,-0.319957,-2.2541
2023-01-13 00:55:3434,-0.30334,-0.0364681,-0.897038,0.0597151,-0.305007,-2.25486
2023-01-13 00:55:3444,-0.316718,-0.0409298,-0.901969,0.0614529,-0.289988,-2.25536
2023-01-13 00:55:3454,-0.290669,-0.0396701,-0.908789,0.0633987,-0.275002,-2.25522
2023-01-13 00:55:3464,-0.255751,-0.0454743,-0.921853,0.0655768,-0.2598,-2.25461
2023-01-13 00:55:3473,-0.214158,-0.0552344,-0.940191,0.067743,-0.244266,-2.25363
2023-01-13 00:55:3484,-0.169405,-0.0607324,-0.951297,0.0698811,-0.228866,-2.25244
2023-01-13 00:55:3493,-0.142915,-0.0687897,-0.96855,0.072033,-0.213789,-2.25103
2023-01-13 00:55:34104,-0.132322,-0.0851074,-0.998383,0.073992,-0.199138,-2.24958
2023-01-13 00:55:34114,-0.124547,-0.0971847,-1.01819,0.0754556,-0.18495,-2.24818
2023-01-13 00:55:34124,-0.102318,-0.092352,-1.01019,0.0762428,-0.171129,-2.24697
2023-01-13 00:55:34134,-0.0693802,-0.071352,-0.976136,0.0765994,-0.157746,-2.2458
2023-01-13 00:55:34144,-0.0479284,-0.0531363,-0.942905,0.0771293,-0.144865,-2.24478
2023-01-13 00:55:34154,-0.0517237,-0.0537006,-0.941586,0.0781148,-0.132548,-2.24381
2023-01-13 00:55:34164,-0.0736718,-0.0726608,-0.972706,0.0794881,-0.120666,-2.24295
2023-01-13 00:55:34174,-0.0779988,-0.086506,-1.00037,0.0808038,-0.108953,-2.24225
2023-01-13 00:55:34183,-0.0578211,-0.0876543,-1.00509,0.081809,-0.0973322,-2.2417
2023-01-13 00:55:34193,-0.0315315,-0.0745334,-0.984564,0.0825431,-0.0857701,-2.24137
2023-01-13 00:55:34203,-0.0143791,-0.0587014,-0.95776,0.0832954,-0.0745152,-2.24121
2023-01-13 00:55:34213,-0.010761,-0.0506002,-0.938668,0.0842915,-0.0637075,-2.24116
2023-01-13 00:55:34224,-0.0175159,-0.0470683,-0.930093,0.085708,-0.0532936,-2.24104
2023-01-13 00:55:34233,-0.0238309,-0.0517674,-0.930186,0.0876293,-0.0433133,-2.24082
2023-01-13 00:55:34243,-0.0332602,-0.0639516,-0.941654,0.0900142,-0.033573,-2.24041
2023-01-13 00:55:34253,-0.024241,-0.0738238,-0.956745,0.0926961,-0.0237796,-2.23979
2023-01-13 00:55:34264,0.00628072,-0.0808371,-0.968299,0.0956072,-0.0140661,-2.23886
2023-01-13 00:55:34273,0.0361488,-0.0857301,-0.977546,0.098665,-0.00455785,-2.23761
2023-01-13 00:55:34283,0.0542025,-0.0913093,-0.988083,0.101868,0.00459076,-2.23616
2023-01-13 00:55:34293,0.0680064,-0.100496,-1.00041,0.105057,0.0131568,-2.2346
2023-01-13 00:55:34303,0.07783,-0.109904,-1.00955,0.108078,0.0211956,-2.23301
2023-01-13 00:55:34313,0.0742506,-0.120168,-1.01845,0.110893,0.0287346,-2.23139
2023-01-13 00:55:34323,0.0729773,-0.126901,-1.02431,0.11342,0.0360005,-2.22977
2023-01-13 00:55:34333,0.0847971,-0.124749,-1.01329,0.115654,0.0429827,-2.22812
2023-01-13 00:55:34343,0.103124,-0.123004,-0.999356,0.117763,0.0496779,-2.22634
2023-01-13 00:55:34353,0.118868,-0.120965,-0.991489,0.119892,0.055899,-2.22441
2023-01-13 00:55:34364,0.129898,-0.122525,-0.992849,0.1222,0.061365,-2.22236
2023-01-13 00:55:34373,0.132177,-0.130096,-1.00088,0.124593,0.0660729,-2.2202
2023-01-13 00:55:34383,0.130926,-0.137611,-1.00992,0.126977,0.0700944,-2.21798
2023-01-13 00:55:34394,0.134005,-0.14227,-1.01484,0.129212,0.0735448,-2.21566
2023-01-13 00:55:34404,0.138914,-0.145157,-1.01718,0.131284,0.0764464,-2.21327
2023-01-13 00:55:34414,0.141386,-0.146999,-1.01964,0.133194,0.0789696,-2.21099
2023-01-13 00:55:34424,0.146633,-0.146424,-1.0164,0.134908,0.0811416,-2.20875
2023-01-13 00:55:34434,0.149409,-0.143182,-1.0067,0.136537,0.0828668,-2.2066
2023-01-13 00:55:34444,0.143234,-0.14363,-0.999739,0.138111,0.0841877,-2.20452
2023-01-13 00:55:34453,0.132968,-0.147264,-1.00047,0.139568,0.0851948,-2.20261
2023-01-13 00:55:34463,0.128091,-0.15113,-1.00406,0.140914,0.085908,-2.20076
2023-01-13 00:55:34473,0.128701,-0.153928,-1.00721,0.142107,0.0864139,-2.199
2023-01-13 00:55:34484,0.130148,-0.15399,-1.00581,0.143126,0.0867006,-2.19735
2023-01-13 00:55:34493,0.130832,-0.15107,-1.00073,0.144048,0.086836,-2.19571
2023-01-13 00:55:34503,0.131453,-0.147958,-0.995014,0.144893,0.0867869,-2.19422
2023-01-13 00:55:34513,0.136201,-0.144188,-0.990156,0.145703,0.0865535,-2.19284
2023-01-13 00:55:34524,0.136849,-0.14441,-0.99026,0.146509,0.0860758,-2.19162
2023-01-13 00:55:34533,0.135424,-0.14655,-0.993961,0.147329,0.0853544,-2.19057
2023-01-13 00:55:34544,0.129572,-0.153487,-1.00211,0.148126,0.0844601,-2.18975
2023-01-13 00:55:34553,0.121937,-0.160536,-1.01088,0.148792,0.0833781,-2.18911
2023-01-13 00:55:34563,0.113253,-0.162484,-1.01043,0.149206,0.0822328,-2.18867
2023-01-13 00:55:34573,0.108437,-0.159748,-1.00343,0.149417,0.0810486,-2.18852
2023-01-13 00:55:34583,0.106251,-0.154776,-0.99504,0.149531,0.0797706,-2.18839
2023-01-13 00:55:34593,0.101848,-0.151124,-0.988065,0.149641,0.0783808,-2.18838
2023-01-13 00:55:34603,0.0926721,-0.149778,-0.986983,0.149784,0.0768077,-2.18844
2023-01-13 00:55:34613,0.0778074,-0.154358,-0.992261,0.14998,0.0751248,-2.18857
2023-01-13 00:55:34623,0.0687232,-0.160835,-0.998842,0.150098,0.0734589,-2.18857
2023-01-13 00:55:34633,0.0696627,-0.165171,-1.0053,0.150118,0.0718575,-2.18852
2023-01-13 00:55:34644,0.0705475,-0.166021,-1.00628,0.150092,0.070221,-2.18837
2023-01-13 00:55:34653,0.0721106,-0.165224,-1.00281,0.149946,0.0685287,-2.18812
2023-01-13 00:55:34663,0.0730838,-0.161146,-0.997578,0.149675,0.0667154,-2.18783
2023-01-13 00:55:34673,0.0751774,-0.16041,-0.992383,0.149458,0.0648709,-2.18743
2023-01-13 00:55:34683,0.0841489,-0.161943,-0.99121,0.149305,0.0628253,-2.18691
2023-01-13 00:55:34693,0.0978837,-0.167639,-0.996559,0.149227,0.06075,-2.18635
2023-01-13 00:55:34703,0.105237,-0.175775,-1.01021,0.149017,0.0585542,-2.18589
2023-01-13 00:55:34713,0.103014,-0.179343,-1.01865,0.14862,0.056141,-2.18557
2023-01-13 00:55:34723,0.0895279,-0.17605,-1.01731,0.147887,0.0535201,-2.18553
2023-01-13 00:55:34733,0.0754389,-0.166387,-1.01105,0.146803,0.0509454,-2.18578
2023-01-13 00:55:34743,0.0670474,-0.153852,-0.999718,0.145528,0.0484284,-2.18617
2023-01-13 00:55:34753,0.0685691,-0.143165,-0.985676,0.144181,0.0460395,-2.18658
2023-01-13 00:55:34763,0.0778169,-0.136392,-0.977856,0.142948,0.0436633,-2.18702
2023-01-13 00:55:34773,0.0856481,-0.135384,-0.979003,0.141867,0.0411598,-2.18747
2023-01-13 00:55:34784,0.0828311,-0.134523,-0.980775,0.140877,0.0382286,-2.18812
2023-01-13 00:55:34793,0.0690855,-0.135024,-0.985582,0.140072,0.0349539,-2.18885
2023-01-13 00:55:34803,0.0552445,-0.137179,-0.99471,0.139273,0.0314047,-2.18963
2023-01-13 00:55:34813,0.0493325,-0.13741,-1.00089,0.138367,0.0276805,-2.19045
2023-01-13 00:55:34824,0.0513122,-0.137356,-0.99836,0.137431,0.0238198,-2.19125
2023-01-13 00:55:34833,0.0569129,-0.133567,-0.98793,0.136482,0.0198078,-2.19211
2023-01-13 00:55:34843,0.0532547,-0.130542,-0.979476,0.135621,0.0155689,-2.19293
2023-01-13 00:55:34853,0.0470311,-0.130582,-0.98105,0.134765,0.011176,-2.19381
2023-01-13 00:55:34863,0.0459355,-0.128001,-0.981624,0.13408,0.0063049,-2.19469
2023-01-13 00:55:34873,0.0297613,-0.125248,-0.976881,0.133468,0.000996818,-2.19552
2023-01-13 00:55:34883,0.0090245,-0.124554,-0.974871,0.132973,-0.00460032,-2.19628
2023-01-13 00:55:34893,0.0083575,-0.123353,-0.970771,0.132656,-0.0103954,-2.19682
2023-01-13 00:55:34903,0.0182562,-0.123664,-0.978706,0.132513,-0.0164717,-2.19718
2023-01-13 00:55:34913,0.0204972,-0.128106,-0.99474,0.132378,-0.0228817,-2.19743
2023-01-13 00:55:34923,0.00751678,-0.129891,-1.00259,0.132215,-0.029851,-2.19766
2023-01-13 00:55:34933,-0.00999255,-0.122703,-0.99252,0.132033,-0.0371102,-2.19795
2023-01-13 00:55:34943,-0.0194057,-0.115037,-0.977024,0.131804,-0.0444415,-2.19823
2023-01-13 00:55:34953,-0.0192156,-0.114217,-0.968368,0.131828,-0.0518192,-2.19841
2023-01-13 00:55:34963,-0.0087384,-0.117147,-0.971262,0.132117,-0.0593822,-2.19852
2023-01-13 00:55:34973,-0.00749937,-0.125729,-0.981931,0.132446,-0.0672727,-2.19874
2023-01-13 00:55:34984,-0.032037,-0.133193,-0.991533,0.132704,-0.0756562,-2.19919
2023-01-13 00:55:34994,-0.0585603,-0.131986,-0.99147,0.132866,-0.0843442,-2.19982
2023-01-13 00:55:353,-0.0759188,-0.126086,-0.978714,0.132953,-0.0933893,-2.20044
2023-01-13 00:55:3513,-0.079435,-0.122691,-0.958389,0.133102,-0.102625,-2.201
2023-01-13 00:55:3523,-0.0583342,-0.122264,-0.945676,0.13346,-0.112027,-2.20139
2023-01-13 00:55:3533,-0.0320894,-0.130644,-0.952831,0.13407,-0.121943,-2.20167
2023-01-13 00:55:3544,-0.033353,-0.14342,-0.972595,0.134829,-0.132889,-2.20203
2023-01-13 00:55:3554,-0.0636663,-0.149571,-0.989796,0.135438,-0.144912,-2.2025
2023-01-13 00:55:3564,-0.105489,-0.146234,-0.992714,0.135754,-0.157853,-2.20302
2023-01-13 00:55:3573,-0.143915,-0.142746,-0.995436,0.135751,-0.17125,-2.20344
2023-01-13 00:55:3583,-0.160127,-0.142805,-0.988277,0.135468,-0.184913,-2.20366
2023-01-13 00:55:3593,-0.1364,-0.140726,-0.968445,0.134849,-0.198674,-2.20356
2023-01-13 00:55:35104,-0.101638,-0.135731,-0.96557,0.134007,-0.212874,-2.2033
2023-01-13 00:55:35114,-0.10711,-0.135818,-0.973289,0.132994,-0.228081,-2.20321
2023-01-13 00:55:35124,-0.149672,-0.134057,-0.969599,0.131659,-0.244369,-2.20338
2023-01-13 00:55:35133,-0.190055,-0.125167,-0.954904,0.129889,-0.261332,-2.20364
2023-01-13 00:55:35143,-0.224073,-0.114656,-0.939398,0.127819,-0.278847,-2.20379
2023-01-13 00:55:35154,-0.265179,-0.110515,-0.919934,0.125495,-0.296967,-2.20365
2023-01-13 00:55:35164,-0.290078,-0.104739,-0.899332,0.122973,-0.315361,-2.20308
2023-01-13 00:55:35174,-0.266825,-0.0959259,-0.882469,0.120423,-0.33391,-2.20193
2023-01-13 00:55:35184,-0.225458,-0.0853882,-0.877288,0.118017,-0.352844,-2.2006
2023-01-13 00:55:35194,-0.230375,-0.0844443,-0.876621,0.115818,-0.372539,-2.19957
2023-01-13 00:55:35204,-0.293352,-0.0849946,-0.871224,0.113772,-0.393031,-2.19917
2023-01-13 00:55:35213,-0.369512,-0.0809012,-0.863279,0.11174,-0.414056,-2.19911
2023-01-13 00:55:35224,-0.42363,-0.0764032,-0.851897,0.10967,-0.435104,-2.19913
2023-01-13 00:55:35234,-0.444924,-0.0742117,-0.833923,0.107617,-0.455783,-2.19901
2023-01-13 00:55:35244,-0.43955,-0.0742234,-0.824107,0.105712,-0.476002,-2.19878
2023-01-13 00:55:35254,-0.447096,-0.0786854,-0.82731,0.103962,-0.496073,-2.19863
2023-01-13 00:55:35263,-0.472941,-0.0851722,-0.833128,0.102362,-0.516162,-2.19868
2023-01-13 00:55:35274,-0.491036,-0.088645,-0.833692,0.100593,-0.536231,-2.19893
2023-01-13 00:55:35284,-0.495955,-0.0855483,-0.821268,0.098775,-0.556167,-2.19956
2023-01-13 00:55:35294,-0.504457,-0.0746421,-0.796291,0.0969119,-0.575859,-2.2006
2023-01-13 00:55:35303,-0.539837,-0.0693143,-0.7718,0.0952157,-0.595487,-2.20228
2023-01-13 00:55:35314,-0.592012,-0.0704336,-0.749645,0.0937957,-0.614813,-2.20448
2023-01-13 00:55:35323,-0.633491,-0.0668577,-0.733405,0.0926069,-0.633567,-2.20685
2023-01-13 00:55:35334,-0.646439,-0.0681972,-0.736584,0.0916542,-0.651473,-2.20927
2023-01-13 00:55:35343,-0.638836,-0.0715401,-0.746733,0.0909371,-0.668753,-2.2117
2023-01-13 00:55:35354,-0.644652,-0.0746067,-0.756779,0.0904248,-0.685625,-2.21455
2023-01-13 00:55:35363,-0.678027,-0.076413,-0.7547,0.0900486,-0.702125,-2.21807
2023-01-13 00:55:35373,-0.717486,-0.0747449,-0.738761,0.089597,-0.718113,-2.2221
2023-01-13 00:55:35383,-0.742916,-0.0667912,-0.716996,0.0890559,-0.733274,-2.22638
2023-01-13 00:55:35393,-0.759531,-0.058852,-0.700765,0.0886615,-0.747574,-2.23101
2023-01-13 00:55:35404,-0.774162,-0.0550966,-0.683994,0.0884106,-0.761005,-2.23582
2023-01-13 00:55:35413,-0.784276,-0.0534745,-0.667268,0.0885131,-0.773525,-2.24101
2023-01-13 00:55:35424,-0.799348,-0.0484988,-0.654556,0.0890777,-0.785233,-2.2466
2023-01-13 00:55:35434,-0.83109,-0.044185,-0.646074,0.0898838,-0.796223,-2.25231
2023-01-13 00:55:35443,-0.864028,-0.0425333,-0.647477,0.0910871,-0.806347,-2.25819
2023-01-13 00:55:35454,-0.884143,-0.0485356,-0.649183,0.0925658,-0.815419,-2.26403
2023-01-13 00:55:35464,-0.894262,-0.0524994,-0.650242,0.0940463,-0.823344,-2.26971
2023-01-13 00:55:35474,-0.901475,-0.0531428,-0.646247,0.0955881,-0.830325,-2.27526
2023-01-13 00:55:35483,-0.901191,-0.0560177,-0.642534,0.0971856,-0.836323,-2.28065
2023-01-13 00:55:35493,-0.886702,-0.0592967,-0.636796,0.0987767,-0.841318,-2.28579
2023-01-13 00:55:35503,-0.860066,-0.0598449,-0.627789,0.100543,-0.845457,-2.29102
2023-01-13 00:55:35513,-0.845575,-0.0584701,-0.619086,0.10274,-0.848951,-2.29654
2023-01-13 00:55:35523,-0.860167,-0.0651253,-0.612448,0.105395,-0.851931,-2.30238
2023-01-13 00:55:35533,-0.878692,-0.0751626,-0.614541,0.108405,-0.854286,-2.30838
2023-01-13 00:55:35543,-0.893287,-0.0836126,-0.619936,0.111234,-0.856129,-2.31397
2023-01-13 00:55:35554,-0.892013,-0.0914659,-0.626369,0.113741,-0.857338,-2.3189
2023-01-13 00:55:35564,-0.87033,-0.0959965,-0.636882,0.115823,-0.85794,-2.32319
2023-01-13 00:55:35574,-0.839955,-0.101886,-0.642809,0.117794,-0.85797,-2.32727
2023-01-13 00:55:35584,-0.80444,-0.100465,-0.638855,0.119555,-0.857626,-2.33128
2023-01-13 00:55:35594,-0.798907,-0.1026,-0.634829,0.121575,-0.856982,-2.33579
2023-01-13 00:55:35604,-0.836031,-0.110255,-0.643056,0.12386,-0.856005,-2.34072
2023-01-13 00:55:35614,-0.879207,-0.117632,-0.660415,0.125655,-0.854626,-2.34517
2023-01-13 00:55:35624,-0.881301,-0.125712,-0.68426,0.126522,-0.852726,-2.34868
2023-01-13 00:55:35634,-0.85009,-0.123174,-0.692134,0.126503,-0.850311,-2.35141
2023-01-13 00:55:35644,-0.82016,-0.108528,-0.676496,0.125597,-0.847748,-2.35359
2023-01-13 00:55:35654,-0.806773,-0.0887849,-0.651602,0.12435,-0.845049,-2.35542
2023-01-13 00:55:35664,-0.798032,-0.0748199,-0.634016,0.123302,-0.842121,-2.35735
2023-01-13 00:55:35674,-0.791155,-0.0704428,-0.628064,0.122816,-0.838768,-2.35956
2023-01-13 00:55:35684,-0.796982,-0.0715582,-0.630209,0.122943,-0.834856,-2.36213
2023-01-13 00:55:35694,-0.810255,-0.0747065,-0.637732,0.123436,-0.830349,-2.365
2023-01-13 00:55:35704,-0.81931,-0.0816599,-0.653022,0.124168,-0.825302,-2.3679
2023-01-13 00:55:35714,-0.81997,-0.0886195,-0.67168,0.124724,-0.819826,-2.37044
2023-01-13 00:55:35724,-0.81557,-0.0913791,-0.685003,0.124933,-0.814033,-2.37262
2023-01-13 00:55:35734,-0.811842,-0.0882966,-0.683309,0.124784,-0.807876,-2.37451
2023-01-13 00:55:35744,-0.800625,-0.0779986,-0.672505,0.124231,-0.801479,-2.37597
2023-01-13 00:55:35754,-0.787869,-0.068709,-0.664189,0.123577,-0.794749,-2.37715
2023-01-13 00:55:35764,-0.786248,-0.0680946,-0.665228,0.123082,-0.787633,-2.37818
2023-01-13 00:55:35773,-0.78352,-0.072672,-0.674376,0.122545,-0.780153,-2.37891
2023-01-13 00:55:35784,-0.765054,-0.0763957,-0.684131,0.122027,-0.772304,-2.37941
2023-01-13 00:55:35793,-0.752295,-0.0793855,-0.693797,0.121341,-0.764171,-2.37957
2023-01-13 00:55:35803,-0.749193,-0.0835788,-0.70512,0.120609,-0.75584,-2.37957
2023-01-13 00:55:35813,-0.748217,-0.0886142,-0.717361,0.119688,-0.74719,-2.37917
2023-01-13 00:55:35824,-0.741672,-0.0919712,-0.72971,0.118431,-0.738251,-2.3784
2023-01-13 00:55:35834,-0.711211,-0.0968954,-0.739867,0.116902,-0.728819,-2.37726
2023-01-13 00:55:35844,-0.666073,-0.101174,-0.743488,0.115116,-0.718966,-2.37595
2023-01-13 00:55:35854,-0.620501,-0.100834,-0.746665,0.113321,-0.709025,-2.37485
2023-01-13 00:55:35864,-0.597946,-0.0993927,-0.751925,0.11173,-0.69935,-2.37428
2023-01-13 00:55:35874,-0.614915,-0.104101,-0.761032,0.110397,-0.69013,-2.37423
2023-01-13 00:55:35884,-0.650933,-0.107336,-0.765775,0.108844,-0.6812,-2.37436
2023-01-13 00:55:35894,-0.671275,-0.101374,-0.764864,0.107178,-0.672152,-2.37448
2023-01-13 00:55:35904,-0.652579,-0.0910118,-0.76936,0.105337,-0.662867,-2.37435
2023-01-13 00:55:35914,-0.623791,-0.0832486,-0.776349,0.103429,-0.653418,-2.37388
2023-01-13 00:55:35924,-0.603523,-0.0833647,-0.79144,0.101695,-0.643883,-2.37342
2023-01-13 00:55:35934,-0.597657,-0.0850167,-0.806466,0.0999921,-0.634314,-2.37303
2023-01-13 00:55:35944,-0.609527,-0.089285,-0.816093,0.0982652,-0.624697,-2.37291
2023-01-13 00:55:35954,-0.636029,-0.0897362,-0.817934,0.0963267,-0.6149,-2.37289
2023-01-13 00:55:35964,-0.637774,-0.0857404,-0.815228,0.0940896,-0.604807,-2.37263
2023-01-13 00:55:35974,-0.602262,-0.0808826,-0.813271,0.091609,-0.594235,-2.37199
2023-01-13 00:55:35984,-0.560571,-0.0745086,-0.813332,0.0890496,-0.58354,-2.37115
2023-01-13 00:55:35993,-0.53401,-0.065824,-0.812128,0.0865356,-0.572866,-2.37036
2023-01-13 00:55:364,-0.524185,-0.0584413,-0.809038,0.084116,-0.562289,-2.36967
2023-01-13 00:55:3614,-0.532071,-0.0547237,-0.809166,0.0818661,-0.551777,-2.36911
2023-01-13 00:55:3623,-0.551082,-0.0578134,-0.815602,0.0797837,-0.541164,-2.36852
2023-01-13 00:55:3633,-0.556829,-0.0613632,-0.826825,0.0777993,-0.530359,-2.36773
2023-01-13 00:55:3643,-0.527599,-0.0660627,-0.845896,0.0758839,-0.519178,-2.36653
2023-01-13 00:55:3653,-0.483804,-0.071283,-0.865473,0.0739741,-0.507772,-2.36515
2023-01-13 00:55:3663,-0.449739,-0.0707395,-0.878567,0.0719934,-0.496308,-2.36379
2023-01-13 00:55:3673,-0.42993,-0.0699639,-0.888351,0.0699803,-0.484715,-2.36275
2023-01-13 00:55:3683,-0.422406,-0.0691736,-0.891282,0.0678847,-0.473028,-2.36212
2023-01-13 00:55:3693,-0.431098,-0.0652477,-0.881423,0.0656417,-0.461318,-2.36192
2023-01-13 00:55:36103,-0.441266,-0.0592541,-0.870622,0.0634933,-0.449674,-2.36176
2023-01-13 00:55:36114,-0.435112,-0.061885,-0.884255,0.0616535,-0.437888,-2.36149
2023-01-13 00:55:36124,-0.421218,-0.0740097,-0.914747,0.0599513,-0.425788,-2.36127
2023-01-13 00:55:36134,-0.394974,-0.0809488,-0.935524,0.0581216,-0.413453,-2.36123
2023-01-13 00:55:36144,-0.371358,-0.0728716,-0.930138,0.0558904,-0.400913,-2.36142
2023-01-13 00:55:36153,-0.361344,-0.0589619,-0.911357,0.0533817,-0.388402,-2.36192
2023-01-13 00:55:36164,-0.364579,-0.0449048,-0.891858,0.0508576,-0.376055,-2.36266
2023-01-13 00:55:36174,-0.373437,-0.0350958,-0.883865,0.0484755,-0.363871,-2.36336
2023-01-13 00:55:36184,-0.362639,-0.0305029,-0.890377,0.0463966,-0.35164,-2.36375
2023-01-13 00:55:36194,-0.34123,-0.0290942,-0.904048,0.04463,-0.339306,-2.36406
2023-01-13 00:55:36204,-0.316932,-0.0264915,-0.920048,0.0428854,-0.326812,-2.36435
2023-01-13 00:55:36213,-0.299295,-0.0215968,-0.929193,0.0412034,-0.314362,-2.3646
2023-01-13 00:55:36224,-0.301078,-0.0207207,-0.932143,0.0394814,-0.301861,-2.36494
2023-01-13 00:55:36234,-0.311391,-0.0184958,-0.923162,0.0377069,-0.289372,-2.36526
2023-01-13 00:55:36244,-0.312548,-0.00983804,-0.908982,0.0359842,-0.276825,-2.36544
2023-01-13 00:55:36254,-0.300042,0.000996402,-0.897689,0.0344992,-0.26431,-2.36501
2023-01-13 00:55:36264,-0.272179,0.00145108,-0.905004,0.0333658,-0.251563,-2.36413
2023-01-13 00:55:36273,-0.238986,0.00174373,-0.918751,0.0325293,-0.238815,-2.36289
2023-01-13 00:55:36284,-0.213017,0.0062242,-0.925852,0.0318659,-0.22629,-2.36134
2023-01-13 00:55:36294,-0.189028,0.00679106,-0.934303,0.0313845,-0.213839,-2.35958
2023-01-13 00:55:36303,-0.17329,0.00282577,-0.940186,0.0311001,-0.201489,-2.35777
2023-01-13 00:55:36313,-0.175151,-0.000688212,-0.940696,0.0309514,-0.189233,-2.35589
2023-01-13 00:55:36324,-0.178769,0.000431373,-0.938527,0.0308803,-0.177063,-2.35383
2023-01-13 00:55:36334,-0.171548,0.000596994,-0.940765,0.0309626,-0.164869,-2.3516
2023-01-13 00:55:36344,-0.147123,0.000466861,-0.946278,0.0312769,-0.152566,-2.34913
2023-01-13 00:55:36354,-0.118631,0.00408303,-0.946849,0.0317288,-0.140229,-2.34646
2023-01-13 00:55:36364,-0.0937708,0.00704449,-0.941824,0.0324723,-0.128031,-2.34367
2023-01-13 00:55:36374,-0.0713173,0.00770663,-0.936839,0.0335745,-0.115946,-2.34066
2023-01-13 00:55:36383,-0.0524855,0.000719782,-0.945414,0.0350764,-0.104032,-2.33758
2023-01-13 00:55:36393,-0.0400061,-0.0112791,-0.961682,0.0367996,-0.0924343,-2.33446
2023-01-13 00:55:36403,-0.0332425,-0.0211602,-0.976683,0.0387135,-0.0811727,-2.33123
2023-01-13 00:55:36414,-0.0200007,-0.0272945,-0.984715,0.0406166,-0.0702779,-2.32795
2023-01-13 00:55:36423,0.0076744,-0.0324998,-0.985533,0.0426414,-0.0597829,-2.32446
2023-01-13 00:55:36433,0.0490995,-0.0407575,-0.986263,0.0447346,-0.0496432,-2.32084
2023-01-13 00:55:36444,0.0994527,-0.0471226,-0.993414,0.0469305,-0.040097,-2.31712
2023-01-13 00:55:36454,0.136343,-0.0544357,-1.00288,0.049116,-0.0316506,-2.31346
2023-01-13 00:55:36464,0.144084,-0.0687115,-1.01926,0.0512355,-0.0244202,-2.31003
2023-01-13 00:55:36474,0.132557,-0.075417,-1.02672,0.0531571,-0.0185032,-2.30684
2023-01-13 00:55:36484,0.120302,-0.0756239,-1.02945,0.0547093,-0.0137424,-2.30383
2023-01-13 00:55:36494,0.114036,-0.076704,-1.03759,0.0562276,-0.00998732,-2.30094
2023-01-13 00:55:36504,0.110261,-0.0800857,-1.04938,0.0574842,-0.00716858,-2.29829
2023-01-13 00:55:36513,0.106317,-0.080475,-1.05826,0.058343,-0.00494182,-2.29591
2023-01-13 00:55:36524,0.105688,-0.0752839,-1.0523,0.0587495,-0.00340176,-2.29388
2023-01-13 00:55:36534,0.0964046,-0.0666052,-1.03501,0.0587611,-0.00233375,-2.29228
2023-01-13 00:55:36544,0.0793013,-0.0589168,-1.01734,0.058532,-0.00162773,-2.2911
2023-01-13 00:55:36554,0.0631882,-0.0535378,-1.0053,0.0583003,-0.00119376,-2.29021
2023-01-13 00:55:36564,0.0438811,-0.0523536,-0.995996,0.0580711,-0.000828877,-2.2896
2023-01-13 00:55:36574,0.0283306,-0.0553515,-0.98714,0.0579932,-0.000508995,-2.28921
2023-01-13 00:55:36584,0.0241991,-0.0549766,-0.983919,0.0580884,-0.000160281,-2.28886
2023-01-13 00:55:36594,0.0269105,-0.058039,-0.993969,0.0584378,0.000177245,-2.28842
2023-01-13 00:55:36603,0.0284109,-0.0679,-1.00923,0.0589652,0.000279247,-2.28792
2023-01-13 00:55:36614,0.0307167,-0.0758957,-1.01721,0.0593068,0.000115855,-2.28734
2023-01-13 00:55:36624,0.0299361,-0.078867,-1.01313,0.0595013,-0.000317663,-2.28679
2023-01-13 00:55:36634,0.0260349,-0.0769088,-1.00516,0.0595228,-0.000966698,-2.28618
2023-01-13 00:55:36644,0.0228589,-0.0770688,-1.0098,0.0595797,-0.00182246,-2.28544
2023-01-13 00:55:36654,0.0244022,-0.079566,-1.01859,0.0595388,-0.00286518,-2.28459
2023-01-13 00:55:36664,0.0239287,-0.0784455,-1.02174,0.0593636,-0.00416613,-2.28361
2023-01-13 00:55:36674,0.0153685,-0.0759386,-1.0197,0.059045,-0.00573377,-2.28262
2023-01-13 00:55:36683,0.00876203,-0.0707283,-1.01525,0.0585558,-0.00746531,-2.28162
2023-01-13 00:55:36693,0.00864441,-0.0654197,-1.0111,0.0581389,-0.00931193,-2.2805
2023-01-13 00:55:36703,0.00821238,-0.0651454,-1.0105,0.0576573,-0.0112932,-2.27935
2023-01-13 00:55:36714,0.0096403,-0.066249,-1.01364,0.0570946,-0.01318,-2.27834
2023-01-13 00:55:36724,0.0148785,-0.0631969,-1.00965,0.0564417,-0.0150975,-2.27738
2023-01-13 00:55:36734,0.0123806,-0.0597663,-1.00486,0.0556819,-0.0171082,-2.27655
2023-01-13 00:55:36744,0.00168121,-0.0593898,-1.00422,0.0549079,-0.0192716,-2.27582
2023-01-13 00:55:36754,-0.0101734,-0.0577752,-0.999985,0.0540304,-0.0213604,-2.27522
2023-01-13 00:55:36764,-0.0154949,-0.0529307,-0.995241,0.0531534,-0.0233455,-2.27462
2023-01-13 00:55:36773,-0.0158134,-0.0472478,-0.99029,0.0523121,-0.0253619,-2.27396
2023-01-13 00:55:36784,-0.0156979,-0.042786,-0.987796,0.0515242,-0.0273041,-2.27334
2023-01-13 00:55:36794,-0.0118094,-0.0422766,-0.990878,0.0508676,-0.0291516,-2.27271
2023-01-13 00:55:36804,-0.00506959,-0.0435508,-0.998404,0.0503024,-0.0310848,-2.27209
2023-01-13 00:55:36814,0.00051298,-0.0431872,-1.00457,0.04983,-0.0330385,-2.27154
2023-01-13 00:55:36824,-8.35815e-05,-0.0437054,-1.00911,0.0492755,-0.0351473,-2.27116
2023-01-13 00:55:36834,-0.00230672,-0.0429233,-1.00944,0.0486326,-0.0372643,-2.27087
2023-01-13 00:55:36844,-0.00866676,-0.04122,-1.00459,0.0479922,-0.0395288,-2.27068
2023-01-13 00:55:36854,-0.0122018,-0.0418513,-0.999315,0.0473455,-0.0417785,-2.27061
2023-01-13 00:55:36864,-0.00869596,-0.0421667,-0.993768,0.0467684,-0.0441018,-2.2706
2023-01-13 00:55:36874,-0.00112318,-0.0432089,-0.989337,0.0463192,-0.0464206,-2.27066
2023-01-13 00:55:36883,0.00370281,-0.0458259,-0.99373,0.0460354,-0.0490404,-2.27074
2023-01-13 00:55:36893,0.000659537,-0.0495994,-1.00125,0.0458434,-0.052073,-2.27072
2023-01-13 00:55:36903,-0.0088692,-0.0548595,-1.01022,0.0457293,-0.0554879,-2.27073
2023-01-13 00:55:36913,-0.0123255,-0.0554082,-1.01539,0.0454684,-0.0591119,-2.27078
2023-01-13 00:55:36924,-0.0054661,-0.0557466,-1.02036,0.04508,-0.0628317,-2.27071
2023-01-13 00:55:36934,0.00628538,-0.0562283,-1.02195,0.0445119,-0.0666953,-2.27076
2023-01-13 00:55:36944,0.0111926,-0.0542489,-1.017,0.043811,-0.0709676,-2.27081
2023-01-13 00:55:36954,0.0108811,-0.0510256,-1.00749,0.0429656,-0.0757221,-2.27101
2023-01-13 00:55:36964,0.00472914,-0.0485617,-1.00161,0.0420743,-0.0809039,-2.27143
2023-01-13 00:55:36974,-0.00989869,-0.0466921,-0.997037,0.0411667,-0.0865937,-2.27202
2023-01-13 00:55:36984,-0.0241916,-0.0450394,-0.994123,0.0402954,-0.0925983,-2.27282
2023-01-13 00:55:36994,-0.0337627,-0.0433485,-0.990694,0.0393787,-0.0989731,-2.27372
2023-01-13 00:55:373,-0.0366828,-0.040506,-0.986868,0.0385395,-0.105636,-2.27473
2023-01-13 00:55:3714,-0.0335996,-0.0386826,-0.992424,0.037792,-0.112599,-2.27592
2023-01-13 00:55:3724,-0.0303265,-0.0424094,-1.00697,0.0369801,-0.119915,-2.27723
2023-01-13 00:55:3734,-0.0381537,-0.0417968,-1.01399,0.035943,-0.12774,-2.27872
2023-01-13 00:55:3744,-0.051424,-0.0355249,-1.00528,0.0347675,-0.136101,-2.28059
2023-01-13 00:55:3754,-0.0710091,-0.0266065,-0.988147,0.033384,-0.144862,-2.28274
2023-01-13 00:55:3764,-0.0954718,-0.017015,-0.964098,0.031957,-0.153938,-2.28511
2023-01-13 00:55:3774,-0.105467,-0.0103552,-0.938107,0.0308077,-0.163276,-2.28758
2023-01-13 00:55:3784,-0.091745,-0.00424368,-0.923981,0.0299777,-0.172722,-2.29015
2023-01-13 00:55:3794,-0.0796333,-0.0039377,-0.930594,0.0296308,-0.182668,-2.29272
2023-01-13 00:55:37104,-0.0916784,-0.00879503,-0.944472,0.0297587,-0.193445,-2.29546
2023-01-13 00:55:37114,-0.12489,-0.0142143,-0.95883,0.0300849,-0.20516,-2.29841
2023-01-13 00:55:37124,-0.170234,-0.0244421,-0.972351,0.0304282,-0.217434,-2.3015
2023-01-13 00:55:37134,-0.218062,-0.030982,-0.974287,0.0305778,-0.230175,-2.30466
2023-01-13 00:55:37144,-0.26061,-0.0299855,-0.961526,0.0303615,-0.243352,-2.30765
2023-01-13 00:55:37154,-0.288891,-0.0307799,-0.939935,0.0298205,-0.256739,-2.31016
2023-01-13 00:55:37164,-0.278255,-0.0291756,-0.91507,0.0290117,-0.270423,-2.3119
2023-01-13 00:55:37174,-0.240562,-0.0207743,-0.902504,0.0282317,-0.284809,-2.31278
2023-01-13 00:55:37184,-0.236758,-0.0167752,-0.900734,0.0275612,-0.300351,-2.31329
2023-01-13 00:55:37194,-0.282681,-0.0152268,-0.896793,0.0270045,-0.317004,-2.31367
2023-01-13 00:55:37204,-0.337911,-0.0129665,-0.889073,0.0266486,-0.334139,-2.31389
2023-01-13 00:55:37214,-0.369601,-0.0124851,-0.878948,0.0263822,-0.351402,-2.31379
2023-01-13 00:55:37224,-0.363821,-0.011983,-0.870465,0.0261903,-0.368559,-2.31324
2023-01-13 00:55:37234,-0.336176,-0.0155581,-0.876291,0.0261646,-0.385647,-2.31233
2023-01-13 00:55:37244,-0.32894,-0.0249314,-0.893396,0.0261676,-0.403187,-2.3113
2023-01-13 00:55:37254,-0.350559,-0.0344224,-0.900775,0.0258479,-0.42138,-2.31028
2023-01-13 00:55:37264,-0.377054,-0.0306827,-0.880096,0.0251402,-0.440219,-2.30936
2023-01-13 00:55:37274,-0.399089,-0.0163423,-0.837671,0.0241463,-0.459463,-2.30858
2023-01-13 00:55:37283,-0.404165,-0.00561374,-0.798883,0.0232312,-0.478841,-2.30788
2023-01-13 00:55:37294,-0.383688,0.000475768,-0.772212,0.0227495,-0.498436,-2.30747
2023-01-13 00:55:37304,-0.367284,0.000769773,-0.772202,0.0229492,-0.518344,-2.30755
2023-01-13 00:55:37314,-0.40034,-0.00710481,-0.788877,0.023828,-0.538975,-2.30833
2023-01-13 00:55:37324,-0.479972,-0.0182213,-0.80953,0.025037,-0.560181,-2.30988
2023-01-13 00:55:37334,-0.568324,-0.0238627,-0.824091,0.0262277,-0.581435,-2.31172
2023-01-13 00:55:37344,-0.634768,-0.0234229,-0.821604,0.0268254,-0.602291,-2.31349
2023-01-13 00:55:37354,-0.666078,-0.019611,-0.78495,0.026923,-0.622441,-2.31494
2023-01-13 00:55:37364,-0.657715,-0.00279164,-0.734764,0.0267309,-0.641662,-2.31607
2023-01-13 00:55:37373,-0.643036,0.0164787,-0.706444,0.0267638,-0.660084,-2.31711
2023-01-13 00:55:37384,-0.659129,0.0245553,-0.69955,0.0275166,-0.678076,-2.31833
2023-01-13 00:55:37394,-0.697025,0.019839,-0.70426,0.0289249,-0.695591,-2.31985
2023-01-13 00:55:37403,-0.730571,0.0118414,-0.707215,0.030852,-0.7123,-2.32178
2023-01-13 00:55:37414,-0.750786,0.00950132,-0.7071,0.0331418,-0.728069,-2.32403
2023-01-13 00:55:37424,-0.769137,0.00814977,-0.708377,0.0357216,-0.742783,-2.32659
2023-01-13 00:55:37434,-0.790449,-0.00102178,-0.712597,0.0386,-0.756508,-2.32948
2023-01-13 00:55:37444,-0.804771,-0.00835648,-0.714489,0.0415339,-0.76935,-2.33261
2023-01-13 00:55:37454,-0.813741,-0.0116464,-0.700459,0.0444417,-0.78121,-2.33618
2023-01-13 00:55:37464,-0.815944,-0.00975473,-0.678963,0.0474878,-0.792036,-2.34016
2023-01-13 00:55:37474,-0.813144,-0.00921524,-0.657008,0.0509062,-0.80173,-2.34477
2023-01-13 00:55:37484,-0.811814,-0.0168324,-0.646633,0.0550469,-0.810526,-2.3501
2023-01-13 00:55:37494,-0.829596,-0.0269155,-0.650422,0.0596904,-0.81861,-2.35591
2023-01-13 00:55:37504,-0.864169,-0.0401042,-0.66346,0.0645507,-0.826137,-2.36197
2023-01-13 00:55:37514,-0.897031,-0.0513876,-0.674488,0.0692293,-0.832959,-2.36803
2023-01-13 00:55:37524,-0.916048,-0.0572868,-0.663006,0.0732217,-0.838931,-2.37359
2023-01-13 00:55:37534,-0.895913,-0.058947,-0.63029,0.0766589,-0.843809,-2.37869
2023-01-13 00:55:37544,-0.854188,-0.052964,-0.604859,0.0801537,-0.847921,-2.38371
2023-01-13 00:55:37554,-0.849358,-0.0502139,-0.599666,0.0840817,-0.851751,-2.3888
2023-01-13 00:55:37564,-0.873284,-0.0624594,-0.615056,0.0884755,-0.855264,-2.3939
2023-01-13 00:55:37574,-0.902741,-0.0789415,-0.640618,0.0927804,-0.858317,-2.39874
2023-01-13 00:55:37584,-0.924131,-0.0873741,-0.657098,0.0966114,-0.860553,-2.40315
2023-01-13 00:55:37594,-0.930068,-0.0893901,-0.659344,0.0996352,-0.861963,-2.40691
2023-01-13 00:55:37603,-0.916635,-0.0897169,-0.648469,0.101886,-0.862601,-2.40996
2023-01-13 00:55:37613,-0.884589,-0.0882588,-0.63417,0.103609,-0.862532,-2.41238
2023-01-13 00:55:37624,-0.855888,-0.0879793,-0.629319,0.105163,-0.861994,-2.41447
2023-01-13 00:55:37634,-0.842768,-0.0925141,-0.635735,0.10677,-0.861187,-2.41648
2023-01-13 00:55:37644,-0.835583,-0.0978457,-0.64746,0.108342,-0.859922,-2.41846
2023-01-13 00:55:37654,-0.833061,-0.0991216,-0.654958,0.10986,-0.858253,-2.42053
2023-01-13 00:55:37664,-0.847246,-0.0974285,-0.658405,0.111314,-0.856036,-2.42268
2023-01-13 00:55:37674,-0.87142,-0.0961287,-0.661364,0.11236,-0.853253,-2.42452
2023-01-13 00:55:37684,-0.880779,-0.0980822,-0.666921,0.11283,-0.849857,-2.42577
2023-01-13 00:55:37694,-0.862321,-0.100809,-0.676863,0.112463,-0.84581,-2.42621
2023-01-13 00:55:37704,-0.834052,-0.0975588,-0.68018,0.111352,-0.841569,-2.42598
2023-01-13 00:55:37714,-0.806083,-0.0902084,-0.672832,0.109727,-0.837126,-2.42533
2023-01-13 00:55:37724,-0.784068,-0.0785761,-0.662487,0.107796,-0.83255,-2.42445
2023-01-13 00:55:37734,-0.774751,-0.0655497,-0.651018,0.105819,-0.827845,-2.42356
2023-01-13 00:55:37744,-0.772818,-0.0555723,-0.64308,0.104114,-0.82286,-2.42285
2023-01-13 00:55:37754,-0.779163,-0.0547865,-0.643689,0.10293,-0.817504,-2.42253
2023-01-13 00:55:37764,-0.786971,-0.0594066,-0.652494,0.102158,-0.811661,-2.42234
2023-01-13 00:55:37774,-0.776166,-0.0643089,-0.667115,0.101606,-0.805203,-2.42218
2023-01-13 00:55:37784,-0.751325,-0.0683969,-0.681995,0.101434,-0.798259,-2.42225
2023-01-13 00:55:37794,-0.735982,-0.0715273,-0.693063,0.101387,-0.791081,-2.42258
2023-01-13 00:55:37803,-0.744839,-0.0737579,-0.697472,0.101476,-0.783671,-2.42321
2023-01-13 00:55:37814,-0.765636,-0.0735953,-0.696386,0.101427,-0.776009,-2.42388
2023-01-13 00:55:37824,-0.78734,-0.0731739,-0.69675,0.101287,-0.768066,-2.42446
2023-01-13 00:55:37834,-0.791944,-0.0764064,-0.705059,0.101035,-0.759503,-2.42461
2023-01-13 00:55:37844,-0.769706,-0.0795655,-0.716024,0.100487,-0.750413,-2.42429
2023-01-13 00:55:37854,-0.733872,-0.0780111,-0.725448,0.099785,-0.740852,-2.42366
2023-01-13 00:55:37864,-0.698782,-0.0759671,-0.730793,0.0990897,-0.730929,-2.42305
2023-01-13 00:55:37873,-0.677076,-0.0800362,-0.737732,0.0984334,-0.720627,-2.42277
2023-01-13 00:55:37883,-0.674497,-0.0782788,-0.735945,0.0978637,-0.710217,-2.42277
2023-01-13 00:55:37894,-0.690314,-0.0744974,-0.727427,0.0974581,-0.699746,-2.42297
2023-01-13 00:55:37904,-0.705407,-0.0757644,-0.727446,0.0970463,-0.689021,-2.42297
2023-01-13 00:55:37914,-0.697539,-0.0781476,-0.738845,0.0968165,-0.677891,-2.42274
2023-01-13 00:55:37924,-0.659374,-0.0791464,-0.754815,0.0966001,-0.666255,-2.42216
2023-01-13 00:55:37934,-0.617526,-0.0753198,-0.763816,0.0964234,-0.654377,-2.42142
2023-01-13 00:55:37944,-0.587672,-0.0714457,-0.775468,0.0964019,-0.642278,-2.42082
2023-01-13 00:55:37954,-0.589878,-0.0757159,-0.793261,0.0964976,-0.63013,-2.42043
2023-01-13 00:55:37964,-0.61923,-0.0852473,-0.806529,0.0965987,-0.617968,-2.42019
2023-01-13 00:55:37974,-0.637383,-0.0895218,-0.812331,0.0963532,-0.605397,-2.41982
2023-01-13 00:55:37984,-0.614703,-0.0873194,-0.815502,0.0958929,-0.59223,-2.41923
2023-01-13 00:55:37994,-0.567856,-0.0812458,-0.818812,0.0952826,-0.578586,-2.41837
2023-01-13 00:55:384,-0.520191,-0.0766259,-0.822901,0.0947497,-0.564679,-2.41751
2023-01-13 00:55:3814,-0.493922,-0.0733084,-0.829097,0.0942265,-0.55076,-2.41673
2023-01-13 00:55:3824,-0.495013,-0.0763657,-0.835049,0.0937131,-0.536869,-2.41626
2023-01-13 00:55:3834,-0.516342,-0.0779041,-0.831813,0.0931609,-0.522943,-2.41603
2023-01-13 00:55:3844,-0.535495,-0.0771849,-0.82977,0.0925725,-0.508877,-2.41568
2023-01-13 00:55:3854,-0.53335,-0.0796385,-0.83927,0.0920043,-0.494549,-2.41495
2023-01-13 00:55:3864,-0.508109,-0.0835031,-0.856458,0.0913525,-0.479846,-2.41375
2023-01-13 00:55:3874,-0.469369,-0.0886032,-0.876004,0.0906067,-0.464654,-2.4122
2023-01-13 00:55:3884,-0.429012,-0.0896476,-0.886415,0.0895668,-0.449119,-2.41057
2023-01-13 00:55:3894,-0.399572,-0.0851535,-0.883482,0.0883126,-0.433601,-2.40891
2023-01-13 00:55:38104,-0.393469,-0.0765198,-0.869734,0.0868294,-0.418288,-2.40723
2023-01-13 00:55:38114,-0.40839,-0.0702743,-0.856782,0.0854537,-0.403344,-2.40549
2023-01-13 00:55:38124,-0.419816,-0.0678519,-0.853918,0.0841531,-0.388381,-2.4034
2023-01-13 00:55:38134,-0.396191,-0.0638721,-0.862092,0.0830926,-0.373434,-2.40079
2023-01-13 00:55:38144,-0.350803,-0.0639286,-0.87941,0.0822563,-0.358335,-2.39763
2023-01-13 00:55:38154,-0.312801,-0.0666656,-0.900148,0.0815487,-0.343165,-2.39423
2023-01-13 00:55:38164,-0.285557,-0.0681298,-0.916465,0.0808173,-0.328146,-2.39082
2023-01-13 00:55:38174,-0.277348,-0.0679717,-0.926108,0.0800018,-0.313423,-2.3874
2023-01-13 00:55:38184,-0.276726,-0.0706363,-0.93536,0.0791671,-0.298923,-2.38399
2023-01-13 00:55:38194,-0.288959,-0.0714346,-0.933133,0.0782612,-0.284614,-2.38051
2023-01-13 00:55:38204,-0.283184,-0.0687917,-0.9302,0.0773256,-0.270138,-2.37682
2023-01-13 00:55:38213,-0.241172,-0.0601359,-0.927237,0.0764739,-0.255449,-2.37289
2023-01-13 00:55:38223,-0.201391,-0.0490563,-0.919642,0.0758027,-0.241033,-2.3686
2023-01-13 00:55:38234,-0.177576,-0.0461098,-0.921867,0.0754266,-0.226752,-2.36425
2023-01-13 00:55:38244,-0.151537,-0.048061,-0.929218,0.0753053,-0.212659,-2.3599
2023-01-13 00:55:38254,-0.12784,-0.0439223,-0.926405,0.075436,-0.19907,-2.35538
2023-01-13 00:55:38264,-0.106055,-0.0454248,-0.930484,0.0759874,-0.186,-2.35064
2023-01-13 00:55:38274,-0.0823506,-0.0544055,-0.944325,0.0769748,-0.17341,-2.34599
2023-01-13 00:55:38284,-0.0648592,-0.063184,-0.957018,0.0781499,-0.161334,-2.34169
2023-01-13 00:55:38294,-0.0592267,-0.068515,-0.960164,0.0793328,-0.149583,-2.33783
2023-01-13 00:55:38303,-0.0663262,-0.0653706,-0.953017,0.080574,-0.138262,-2.33439
2023-01-13 00:55:38314,-0.0760937,-0.0618653,-0.94244,0.0819411,-0.127304,-2.33121
2023-01-13 00:55:38324,-0.0757611,-0.0627981,-0.939317,0.0836865,-0.116488,-2.32815
2023-01-13 00:55:38334,-0.0602101,-0.0704182,-0.94807,0.0857991,-0.10576,-2.32492
2023-01-13 00:55:38344,-0.040164,-0.0816477,-0.963725,0.0881647,-0.0952669,-2.32152
2023-01-13 00:55:38354,-0.0256112,-0.0922819,-0.980286,0.0905997,-0.0851465,-2.31797
2023-01-13 00:55:38364,-0.0146746,-0.0969603,-0.991383,0.0931514,-0.0757194,-2.31425
2023-01-13 00:55:38374,-0.00593766,-0.102844,-1.00472,0.0957207,-0.0666524,-2.31048
2023-01-13 00:55:38384,0.0125234,-0.108164,-1.01882,0.0981274,-0.0580654,-2.30669
2023-01-13 00:55:38394,0.0336642,-0.111368,-1.02603,0.100324,-0.0499601,-2.30299
2023-01-13 00:55:38404,0.0520994,-0.109929,-1.01884,0.102273,-0.0424968,-2.29952
2023-01-13 00:55:38414,0.0630284,-0.105254,-1.00517,0.104001,-0.0354803,-2.29625
2023-01-13 00:55:38424,0.0630006,-0.105254,-0.997762,0.105703,-0.028962,-2.29333
2023-01-13 00:55:38434,0.0574372,-0.110012,-0.993838,0.1074,-0.0229373,-2.29072
2023-01-13 00:55:38444,0.0459012,-0.113229,-0.987252,0.109129,-0.0174352,-2.28819
2023-01-13 00:55:38454,0.0276236,-0.115682,-0.983853,0.110995,-0.0123576,-2.2858
2023-01-13 00:55:38464,0.022326,-0.118968,-0.990555,0.112997,-0.00756867,-2.28329
2023-01-13 00:55:38474,0.0367756,-0.124157,-1.00652,0.115108,-0.0030769,-2.28051
2023-01-13 00:55:38484,0.0668116,-0.133982,-1.02625,0.117096,0.00108741,-2.27774
2023-01-13 00:55:38494,0.0936738,-0.138913,-1.03591,0.118913,0.00498011,-2.27514
2023-01-13 00:55:38503,0.111295,-0.140855,-1.03635,0.120384,0.0084522,-2.27289
2023-01-13 00:55:38513,0.11499,-0.141475,-1.03311,0.121528,0.011446,-2.27104
2023-01-13 00:55:38524,0.103666,-0.140578,-1.02658,0.12249,0.0139273,-2.26957
2023-01-13 00:55:38534,0.0901302,-0.139934,-1.01862,0.123273,0.0159021,-2.2684
2023-01-13 00:55:38544,0.0789261,-0.137179,-1.01087,0.123929,0.0174684,-2.26745
2023-01-13 00:55:38554,0.0730781,-0.136222,-1.00851,0.124512,0.0187496,-2.26663
2023-01-13 00:55:38564,0.0720148,-0.136294,-1.00917,0.125045,0.0197219,-2.26582
2023-01-13 00:55:38574,0.0735839,-0.135889,-1.01197,0.12542,0.0204073,-2.26511
2023-01-13 00:55:38584,0.0725639,-0.133899,-1.01062,0.12566,0.0207243,-2.26449
2023-01-13 00:55:38594,0.0646432,-0.13009,-1.00413,0.125753,0.0208397,-2.26401
2023-01-13 00:55:38604,0.0552257,-0.126268,-0.997039,0.125777,0.0207716,-2.2636
2023-01-13 00:55:38614,0.0497302,-0.123359,-0.992996,0.125794,0.0205232,-2.26325
2023-01-13 00:55:38624,0.0484058,-0.122144,-0.992367,0.125813,0.0202465,-2.26285
2023-01-13 00:55:38634,0.0476774,-0.122974,-0.992794,0.125882,0.0198754,-2.26244
2023-01-13 00:55:38644,0.0455936,-0.124967,-0.995504,0.12602,0.0193801,-2.26208
2023-01-13 00:55:38653,0.0445486,-0.124033,-0.996227,0.126177,0.0187816,-2.26171
2023-01-13 00:55:38664,0.0410807,-0.122935,-0.993695,0.126321,0.0180692,-2.2613
2023-01-13 00:55:38674,0.0338408,-0.123063,-0.992881,0.126662,0.017198,-2.26094
2023-01-13 00:55:38684,0.0288338,-0.125577,-0.995103,0.127001,0.0162556,-2.26059
2023-01-13 00:55:38694,0.0307824,-0.128011,-0.998928,0.127356,0.0152674,-2.26023
2023-01-13 00:55:38704,0.0357377,-0.131461,-1.00208,0.127705,0.0142538,-2.25984
2023-01-13 00:55:38714,0.0396441,-0.134152,-1.00439,0.12799,0.0131737,-2.25946
2023-01-13 00:55:38724,0.0361564,-0.137027,-1.00571,0.128194,0.0118683,-2.25921
2023-01-13 00:55:38734,0.0298609,-0.138026,-1.0055,0.128277,0.0104933,-2.25901
2023-01-13 00:55:38744,0.0237531,-0.137014,-1.00384,0.12831,0.00900234,-2.25887
2023-01-13 00:55:38754,0.0193053,-0.135615,-1.00038,0.128297,0.00740604,-2.25868
2023-01-13 00:55:38764,0.0154401,-0.13359,-0.996353,0.128245,0.00575083,-2.25845
2023-01-13 00:55:38774,0.0197243,-0.131965,-0.992729,0.128157,0.00404045,-2.25825
2023-01-13 00:55:38784,0.0356699,-0.131513,-0.99346,0.128178,0.00228697,-2.25806
2023-01-13 00:55:38794,0.0569013,-0.13494,-1.00306,0.128256,0.000361694,-2.25795
2023-01-13 00:55:38804,0.0570783,-0.143322,-1.0174,0.128248,-0.00186706,-2.25809
2023-01-13 00:55:38814,0.0359751,-0.148467,-1.02561,0.127985,-0.00428654,-2.25863
2023-01-13 00:55:38824,0.0169648,-0.144448,-1.01577,0.127521,-0.00683248,-2.2594
2023-01-13 00:55:38834,0.00166542,-0.138202,-1.00062,0.126882,-0.00946553,-2.26025
2023-01-13 00:55:38844,-0.00805663,-0.131919,-0.992629,0.12621,-0.0120391,-2.26116
2023-01-13 00:55:38854,-0.00965725,-0.128625,-0.990915,0.125595,-0.0145206,-2.26203
2023-01-13 00:55:38864,-0.00555603,-0.127153,-0.991189,0.12506,-0.0170776,-2.26295
2023-01-13 00:55:38874,-0.00260425,-0.12554,-0.990119,0.124534,-0.0196665,-2.26383
2023-01-13 00:55:38884,-0.00268025,-0.124069,-0.989197,0.123989,-0.0223364,-2.26471
2023-01-13 00:55:38894,-0.00415413,-0.124083,-0.992031,0.12353,-0.0251812,-2.26552
2023-01-13 00:55:38904,-0.00965755,-0.123459,-0.995612,0.123076,-0.0282528,-2.26636
2023-01-13 00:55:38914,-0.0199013,-0.123993,-0.997415,0.122679,-0.0315513,-2.26722
2023-01-13 00:55:38924,-0.0288877,-0.122036,-0.994549,0.122144,-0.0349249,-2.26798
2023-01-13 00:55:38934,-0.0302909,-0.120595,-0.992149,0.121636,-0.038298,-2.26862
2023-01-13 00:55:38943,-0.0187642,-0.119391,-0.99056,0.121151,-0.041685,-2.26916
2023-01-13 00:55:38953,-0.00631084,-0.118478,-0.992707,0.120709,-0.0452092,-2.26967
2023-01-13 00:55:38963,0.00124712,-0.119868,-0.997284,0.120237,-0.0489992,-2.27027
2023-01-13 00:55:38974,-0.00157285,-0.121325,-1.0015,0.119785,-0.0531376,-2.27095
2023-01-13 00:55:38984,-0.0146796,-0.122039,-1.00107,0.119213,-0.0575682,-2.27184
2023-01-13 00:55:38994,-0.0328951,-0.118568,-0.997605,0.118617,-0.0622669,-2.27284
2023-01-13 00:55:394,-0.0484035,-0.117064,-0.993617,0.117981,-0.0670706,-2.27391
2023-01-13 00:55:3914,-0.0535289,-0.117737,-0.99043,0.117347,-0.0719221,-2.27499
2023-01-13 00:55:3924,-0.0461468,-0.116904,-0.986858,0.116733,-0.0767307,-2.27603
2023-01-13 00:55:3934,-0.0377224,-0.11604,-0.987763,0.116153,-0.0817107,-2.27702
2023-01-13 00:55:3944,-0.0450037,-0.115652,-0.9911,0.115631,-0.0871542,-2.27806
2023-01-13 00:55:3954,-0.0615122,-0.113879,-0.993554,0.11506,-0.0930848,-2.279
2023-01-13 00:55:3964,-0.0780896,-0.108961,-0.990399,0.114568,-0.0993764,-2.27983
2023-01-13 00:55:3974,-0.0893329,-0.103037,-0.98531,0.114108,-0.106069,-2.28042
2023-01-13 00:55:3984,-0.0891034,-0.0987001,-0.978378,0.113695,-0.113117,-2.28068
2023-01-13 00:55:3994,-0.0737487,-0.0985673,-0.972695,0.113436,-0.120587,-2.28071
2023-01-13 00:55:39104,-0.0551981,-0.0991546,-0.968264,0.113288,-0.128603,-2.28068
2023-01-13 00:55:39113,-0.0554725,-0.10176,-0.970923,0.113415,-0.137237,-2.28085
2023-01-13 00:55:39124,-0.079163,-0.107848,-0.978058,0.11367,-0.14655,-2.28129
2023-01-13 00:55:39134,-0.103918,-0.113007,-0.979529,0.11393,-0.1564,-2.28183
2023-01-13 00:55:39144,-0.119855,-0.113244,-0.980628,0.114037,-0.166482,-2.28248
2023-01-13 00:55:39154,-0.134848,-0.112814,-0.979215,0.114095,-0.176846,-2.28321
2023-01-13 00:55:39164,-0.160939,-0.112413,-0.973447,0.114027,-0.187497,-2.28399
2023-01-13 00:55:39174,-0.185313,-0.113457,-0.965303,0.113811,-0.198209,-2.28476
2023-01-13 00:55:39184,-0.192737,-0.110053,-0.9575,0.113442,-0.208917,-2.28551
2023-01-13 00:55:39194,-0.193976,-0.107681,-0.952133,0.113092,-0.219749,-2.28625
2023-01-13 00:55:39204,-0.18815,-0.106608,-0.950179,0.112757,-0.230483,-2.28716
2023-01-13 00:55:39214,-0.180487,-0.101163,-0.944679,0.112437,-0.241334,-2.28823
2023-01-13 00:55:39224,-0.183167,-0.0959,-0.944181,0.112292,-0.252394,-2.28965
2023-01-13 00:55:39234,-0.206523,-0.0982413,-0.948315,0.112381,-0.263571,-2.29154
2023-01-13 00:55:39244,-0.24144,-0.103128,-0.950981,0.112531,-0.274819,-2.29382
2023-01-13 00:55:39254,-0.267685,-0.104439,-0.947596,0.112679,-0.286049,-2.29636
2023-01-13 00:55:39264,-0.27901,-0.104926,-0.942274,0.112839,-0.297071,-2.29902
2023-01-13 00:55:39274,-0.280693,-0.107223,-0.938751,0.113056,-0.307967,-2.30185
2023-01-13 00:55:39284,-0.277078,-0.109676,-0.932457,0.113254,-0.318944,-2.30482
2023-01-13 00:55:39294,-0.270761,-0.107192,-0.921622,0.113444,-0.330102,-2.30792
2023-01-13 00:55:39304,-0.268142,-0.101589,-0.911243,0.113698,-0.341613,-2.31123
2023-01-13 00:55:39314,-0.279845,-0.0975167,-0.906578,0.114086,-0.353618,-2.31465
2023-01-13 00:55:39324,-0.306079,-0.0926803,-0.895365,0.114646,-0.366147,-2.31846
2023-01-13 00:55:39334,-0.328327,-0.0867888,-0.880181,0.11534,-0.37887,-2.32231
2023-01-13 00:55:39344,-0.345345,-0.0818642,-0.865479,0.116302,-0.391801,-2.32628
2023-01-13 00:55:39354,-0.36896,-0.0811407,-0.853087,0.117661,-0.404973,-2.33036
2023-01-13 00:55:39364,-0.388366,-0.0818668,-0.845403,0.119316,-0.418332,-2.3344
2023-01-13 00:55:39374,-0.401739,-0.0823123,-0.844044,0.121341,-0.431941,-2.33844
2023-01-13 00:55:39384,-0.415012,-0.0846767,-0.848589,0.123735,-0.445703,-2.34247
2023-01-13 00:55:39394,-0.431667,-0.086369,-0.854899,0.126157,-0.459633,-2.34639
2023-01-13 00:55:39404,-0.444884,-0.0893462,-0.860395,0.128649,-0.473821,-2.35012
2023-01-13 00:55:39414,-0.460425,-0.0905925,-0.858826,0.131146,-0.488185,-2.35383
2023-01-13 00:55:39424,-0.471378,-0.0900357,-0.846599,0.133504,-0.502666,-2.35739
2023-01-13 00:55:39434,-0.481869,-0.0892432,-0.822898,0.135961,-0.517214,-2.36095
2023-01-13 00:55:39444,-0.500006,-0.0866701,-0.793837,0.138598,-0.531725,-2.36475
2023-01-13 00:55:39454,-0.51614,-0.0846474,-0.767312,0.141683,-0.546159,-2.3687
2023-01-13 00:55:39464,-0.529869,-0.0841777,-0.753408,0.145336,-0.56039,-2.37281
2023-01-13 00:55:39474,-0.548354,-0.0905467,-0.761399,0.149651,-0.574335,-2.37711
2023-01-13 00:55:39484,-0.56925,-0.10551,-0.786661,0.154511,-0.587921,-2.38157
2023-01-13 00:55:39494,-0.581097,-0.120076,-0.811963,0.159511,-0.601222,-2.38613
2023-01-13 00:55:39504,-0.59575,-0.132562,-0.819822,0.164361,-0.614313,-2.39089
2023-01-13 00:55:39514,-0.61552,-0.140341,-0.801755,0.168936,-0.627216,-2.39582
2023-01-13 00:55:39524,-0.634281,-0.138466,-0.768725,0.173383,-0.639935,-2.40097
2023-01-13 00:55:39534,-0.641732,-0.137603,-0.747758,0.177996,-0.652377,-2.40628
2023-01-13 00:55:39544,-0.642282,-0.140006,-0.745364,0.182815,-0.664445,-2.41172
2023-01-13 00:55:39554,-0.651403,-0.145886,-0.753098,0.187938,-0.676202,-2.41736
2023-01-13 00:55:39564,-0.670529,-0.153122,-0.761979,0.193154,-0.687567,-2.42335
2023-01-13 00:55:39574,-0.691469,-0.159095,-0.758816,0.198247,-0.698449,-2.42955
2023-01-13 00:55:39584,-0.697837,-0.162143,-0.741037,0.203111,-0.708895,-2.43586
2023-01-13 00:55:39594,-0.683727,-0.159021,-0.719114,0.207866,-0.718886,-2.44218
2023-01-13 00:55:39604,-0.670482,-0.156638,-0.702652,0.212809,-0.72863,-2.44872
2023-01-13 00:55:39614,-0.66669,-0.16023,-0.694525,0.218187,-0.738185,-2.45575
2023-01-13 00:55:39624,-0.685057,-0.163578,-0.690532,0.223987,-0.74763,-2.46336
2023-01-13 00:55:39634,-0.722776,-0.167726,-0.688478,0.230097,-0.756861,-2.47141
2023-01-13 00:55:39644,-0.758573,-0.17516,-0.691355,0.236406,-0.765655,-2.47984
2023-01-13 00:55:39653,-0.786454,-0.183217,-0.691744,0.24257,-0.773958,-2.48826
2023-01-13 00:55:39664,-0.802095,-0.186529,-0.684401,0.248556,-0.781587,-2.49663
2023-01-13 00:55:39674,-0.810098,-0.187395,-0.679634,0.254402,-0.788571,-2.50493
2023-01-13 00:55:39684,-0.817757,-0.187622,-0.677864,0.260152,-0.794944,-2.51311
2023-01-13 00:55:39694,-0.830299,-0.189746,-0.678857,0.26578,-0.800609,-2.52116
2023-01-13 00:55:39704,-0.852559,-0.196528,-0.68288,0.271071,-0.805416,-2.52903
2023-01-13 00:55:39714,-0.888326,-0.206613,-0.683749,0.27585,-0.809467,-2.53657
2023-01-13 00:55:39724,-0.911977,-0.213344,-0.674773,0.279719,-0.812593,-2.54346
2023-01-13 00:55:39734,-0.905457,-0.209376,-0.651897,0.282659,-0.8153,-2.54914
2023-01-13 00:55:39744,-0.899458,-0.208614,-0.627832,0.284936,-0.817449,-2.55392
2023-01-13 00:55:39754,-0.881237,-0.206114,-0.620805,0.286624,-0.819012,-2.5576
2023-01-13 00:55:39764,-0.86059,-0.20037,-0.613861,0.287962,-0.820138,-2.56037
2023-01-13 00:55:39774,-0.847832,-0.203219,-0.620195,0.289296,-0.820546,-2.56275
2023-01-13 00:55:39784,-0.842176,-0.210883,-0.628763,0.290486,-0.820327,-2.56472
2023-01-13 00:55:39794,-0.826961,-0.216252,-0.629996,0.291583,-0.819617,-2.56643
2023-01-13 00:55:39804,-0.809281,-0.220361,-0.637687,0.29251,-0.818444,-2.5678
2023-01-13 00:55:39814,-0.801895,-0.225988,-0.654803,0.293382,-0.816919,-2.5689
2023-01-13 00:55:39824,-0.805994,-0.231277,-0.669847,0.293866,-0.815129,-2.56973
2023-01-13 00:55:39834,-0.815471,-0.232918,-0.673185,0.293835,-0.813077,-2.5703
2023-01-13 00:55:39844,-0.831204,-0.228454,-0.667329,0.293038,-0.810813,-2.57035
2023-01-13 00:55:39854,-0.841598,-0.223924,-0.659525,0.291787,-0.808088,-2.56985
2023-01-13 00:55:39864,-0.832411,-0.222013,-0.657428,0.29003,-0.804835,-2.56869
2023-01-13 00:55:39874,-0.807988,-0.221191,-0.663616,0.287932,-0.801094,-2.56707
2023-01-13 00:55:39884,-0.78467,-0.222548,-0.672192,0.28554,-0.796925,-2.56516
2023-01-13 00:55:39894,-0.788332,-0.228073,-0.684995,0.283113,-0.792425,-2.56332
2023-01-13 00:55:39904,-0.819037,-0.233676,-0.695801,0.280139,-0.787606,-2.56121
2023-01-13 00:55:39914,-0.840532,-0.23372,-0.698119,0.276634,-0.782237,-2.55869
2023-01-13 00:55:39923,-0.834204,-0.223638,-0.688497,0.272382,-0.776232,-2.55556
2023-01-13 00:55:39933,-0.809939,-0.208181,-0.675669,0.267657,-0.769724,-2.55181
2023-01-13 00:55:39943,-0.787636,-0.199127,-0.676237,0.262878,-0.762812,-2.54767
2023-01-13 00:55:39954,-0.787184,-0.202013,-0.689775,0.258075,-0.755538,-2.54329
2023-01-13 00:55:39964,-0.804692,-0.211746,-0.709659,0.253023,-0.747826,-2.53854
2023-01-13 00:55:39973,-0.807651,-0.218016,-0.725662,0.247598,-0.739401,-2.53342
2023-01-13 00:55:39983,-0.788382,-0.213548,-0.730888,0.241832,-0.730213,-2.52805
2023-01-13 00:55:39994,-0.757508,-0.202831,-0.725226,0.235767,-0.720217,-2.52253
2023-01-13 00:55:404,-0.717455,-0.186934,-0.713492,0.229667,-0.709531,-2.51693
2023-01-13 00:55:4014,-0.696717,-0.178879,-0.707737,0.22381,-0.698401,-2.51149
2023-01-13 00:55:4023,-0.712502,-0.179847,-0.711369,0.218289,-0.686957,-2.5063
2023-01-13 00:55:4034,-0.732935,-0.186388,-0.725573,0.212778,-0.674981,-2.50086
2023-01-13 00:55:4044,-0.722501,-0.196301,-0.749184,0.207196,-0.662362,-2.49504
2023-01-13 00:55:4054,-0.684332,-0.201967,-0.77207,0.201243,-0.649017,-2.48883
2023-01-13 00:55:4064,-0.638215,-0.194523,-0.778933,0.195032,-0.635149,-2.48268
2023-01-13 00:55:4074,-0.596868,-0.178399,-0.774989,0.188646,-0.620993,-2.47658
2023-01-13 00:55:4084,-0.572807,-0.161329,-0.765182,0.182365,-0.606676,-2.47073
2023-01-13 00:55:4094,-0.574785,-0.151589,-0.75702,0.176287,-0.592389,-2.46519
2023-01-13 00:55:40104,-0.598651,-0.146858,-0.755229,0.170422,-0.577998,-2.45978
2023-01-13 00:55:40114,-0.60038,-0.143607,-0.759968,0.164833,-0.563204,-2.45418
2023-01-13 00:55:40124,-0.552167,-0.137006,-0.768082,0.159454,-0.547862,-2.44823
2023-01-13 00:55:40134,-0.491674,-0.129706,-0.779655,0.154508,-0.532213,-2.4423
2023-01-13 00:55:40144,-0.444433,-0.121738,-0.796079,0.149876,-0.516754,-2.43642
2023-01-13 00:55:40154,-0.419941,-0.120499,-0.814924,0.145644,-0.501503,-2.43083
2023-01-13 00:55:40164,-0.431484,-0.12865,-0.834795,0.141693,-0.486544,-2.42568
2023-01-13 00:55:40174,-0.467147,-0.134503,-0.845863,0.137797,-0.471926,-2.42087
2023-01-13 00:55:40184,-0.47582,-0.129449,-0.84347,0.133744,-0.457193,-2.41586
2023-01-13 00:55:40194,-0.442485,-0.117335,-0.843416,0.129765,-0.44205,-2.41055
2023-01-13 00:55:40204,-0.397647,-0.108028,-0.849578,0.125916,-0.426813,-2.40507
2023-01-13 00:55:40214,-0.361559,-0.100126,-0.854863,0.122381,-0.41164,-2.39962
2023-01-13 00:55:40224,-0.336503,-0.0904432,-0.856622,0.119125,-0.396638,-2.39431
2023-01-13 00:55:40234,-0.339246,-0.0876065,-0.856774,0.116124,-0.381888,-2.38921
2023-01-13 00:55:40244,-0.374839,-0.0930153,-0.860177,0.113519,-0.367406,-2.38426
2023-01-13 00:55:40254,-0.404504,-0.100264,-0.865901,0.111245,-0.35272,-2.37918
2023-01-13 00:55:40264,-0.382515,-0.10219,-0.875006,0.109173,-0.337382,-2.37365
2023-01-13 00:55:40274,-0.316087,-0.0996037,-0.888225,0.10727,-0.321608,-2.36772
2023-01-13 00:55:40284,-0.258876,-0.0928568,-0.897038,0.10563,-0.305948,-2.36161
2023-01-13 00:55:40294,-0.225113,-0.0920146,-0.909617,0.104178,-0.290438,-2.35561
2023-01-13 00:55:40304,-0.207989,-0.0947238,-0.920242,0.102892,-0.275334,-2.34977
2023-01-13 00:55:40314,-0.222203,-0.0968797,-0.923188,0.101698,-0.260779,-2.34411
2023-01-13 00:55:40324,-0.247686,-0.10152,-0.925101,0.100667,-0.246209,-2.33857
2023-01-13 00:55:40334,-0.230715,-0.103303,-0.935555,0.0996837,-0.231144,-2.33308
2023-01-13 00:55:40344,-0.176024,-0.0936313,-0.93735,0.0987021,-0.215936,-2.32752
2023-01-13 00:55:40354,-0.132135,-0.0832739,-0.935533,0.0978503,-0.200809,-2.32194
2023-01-13 00:55:40364,-0.103697,-0.0841315,-0.951775,0.0971196,-0.185673,-2.31678
2023-01-13 00:55:40374,-0.0819339,-0.0843842,-0.96559,0.0963745,-0.170764,-2.31202
2023-01-13 00:55:40384,-0.0785665,-0.0832121,-0.966517,0.0955522,-0.156356,-2.30755
2023-01-13 00:55:40394,-0.0865786,-0.0793617,-0.959016,0.094704,-0.142355,-2.3034
2023-01-13 00:55:40404,-0.0811089,-0.0722542,-0.949006,0.0939781,-0.128499,-2.29951
2023-01-13 00:55:40414,-0.0586176,-0.0677136,-0.951301,0.09345,-0.114753,-2.29562
2023-01-13 00:55:40424,-0.0286591,-0.0685573,-0.961554,0.0931447,-0.101286,-2.29178
2023-01-13 00:55:40434,0.00130281,-0.0690099,-0.968921,0.0929757,-0.0881021,-2.28808
2023-01-13 00:55:40444,0.0263948,-0.06735,-0.970366,0.0929712,-0.0754128,-2.2846
2023-01-13 00:55:40454,0.0485531,-0.0689717,-0.974005,0.0930196,-0.06335,-2.2814
2023-01-13 00:55:40464,0.0601118,-0.0766891,-0.98457,0.0932988,-0.0520453,-2.27842
2023-01-13 00:55:40474,0.0625716,-0.0863021,-0.996406,0.0935787,-0.0414104,-2.27576
2023-01-13 00:55:40483,0.0642287,-0.0947184,-1.00369,0.0938576,-0.031427,-2.2733
2023-01-13 00:55:40494,0.0600237,-0.100042,-1.00635,0.093962,-0.0221754,-2.27094
2023-01-13 00:55:40504,0.0539419,-0.102541,-1.00969,0.0940164,-0.0136806,-2.26857
2023-01-13 00:55:40514,0.0584838,-0.101005,-1.01015,0.0939952,-0.00582524,-2.26612
2023-01-13 00:55:40523,0.0743257,-0.0993636,-1.00625,0.093972,0.00151004,-2.26361
2023-01-13 00:55:40534,0.0965916,-0.102355,-1.00194,0.0939631,0.0082352,-2.26108
2023-01-13 00:55:40544,0.118551,-0.111884,-1.01042,0.0941175,0.0143247,-2.25843
2023-01-13 00:55:40554,0.138061,-0.123482,-1.03228,0.0942319,0.0196428,-2.25574
2023-01-13 00:55:40564,0.146086,-0.133349,-1.05195,0.0941051,0.0240655,-2.25315
2023-01-13 00:55:40573,0.143162,-0.136156,-1.06032,0.0935109,0.0276388,-2.25079
2023-01-13 00:55:40583,0.137689,-0.132079,-1.05333,0.0925214,0.0303602,-2.24861
2023-01-13 00:55:40593,0.128414,-0.122019,-1.03823,0.0911707,0.0322737,-2.2466
2023-01-13 00:55:40604,0.116254,-0.114551,-1.02814,0.0896562,0.0334557,-2.24465
2023-01-13 00:55:40614,0.103279,-0.110546,-1.02364,0.0880059,0.033996,-2.24275
2023-01-13 00:55:40624,0.0976179,-0.106389,-1.02208,0.0861459,0.0341024,-2.24093
2023-01-13 00:55:40634,0.0927401,-0.0990978,-1.0152,0.0840995,0.0339061,-2.23923
2023-01-13 00:55:40644,0.0891067,-0.0893795,-1.0066,0.0820044,0.0333972,-2.23762
2023-01-13 00:55:40654,0.088302,-0.0816314,-1.0001,0.0798681,0.0326722,-2.23615
2023-01-13 00:55:40664,0.0893146,-0.0777583,-0.998599,0.0777314,0.0317667,-2.2349
2023-01-13 00:55:40674,0.085533,-0.0765165,-1.00069,0.0756663,0.0308043,-2.23387
2023-01-13 00:55:40684,0.0783118,-0.0779045,-1.00842,0.073516,0.0297262,-2.23307
2023-01-13 00:55:40694,0.0753261,-0.0800317,-1.01672,0.0711797,0.0286354,-2.23255
2023-01-13 00:55:40704,0.0778554,-0.0761112,-1.01766,0.0686714,0.0275123,-2.23228
2023-01-13 00:55:40714,0.0743608,-0.0679999,-1.00947,0.0659752,0.0261796,-2.23227
2023-01-13 00:55:40724,0.0673913,-0.0585657,-0.998326,0.0632322,0.0247064,-2.23248
2023-01-13 00:55:40734,0.0580248,-0.0530136,-0.991722,0.0605411,0.023095,-2.23285
2023-01-13 00:55:40744,0.050383,-0.0519229,-0.990952,0.0579638,0.0214161,-2.23333
2023-01-13 00:55:40754,0.0432429,-0.0511036,-0.992505,0.0554285,0.019708,-2.23389
2023-01-13 00:55:40764,0.0409952,-0.0507911,-0.993245,0.0530313,0.0179166,-2.23448
2023-01-13 00:55:40774,0.0405416,-0.050672,-0.997886,0.0507516,0.0159659,-2.23502
2023-01-13 00:55:40784,0.0370471,-0.0510238,-1.00356,0.0484767,0.0137978,-2.23545
2023-01-13 00:55:40794,0.0350739,-0.0490607,-1.00349,0.0461763,0.0113245,-2.2358
2023-01-13 00:55:40804,0.0352916,-0.044001,-1.00085,0.0439377,0.0085971,-2.23593
2023-01-13 00:55:40814,0.0339174,-0.0399042,-0.996755,0.0418075,0.00561465,-2.23588
2023-01-13 00:55:40824,0.0310124,-0.0380275,-0.995096,0.0396606,0.00233647,-2.23569
2023-01-13 00:55:40834,0.0300398,-0.0359083,-0.994972,0.037635,-0.00129889,-2.23526
2023-01-13 00:55:40844,0.0249438,-0.0352932,-0.995527,0.0355908,-0.00524778,-2.2347
2023-01-13 00:55:40854,0.01862,-0.0340837,-0.998489,0.0336896,-0.00951809,-2.23387
2023-01-13 00:55:40864,0.0142904,-0.0349588,-1.00564,0.0318193,-0.014034,-2.23291
2023-01-13 00:55:40874,0.0124323,-0.0363413,-1.01291,0.0298882,-0.0188204,-2.23179
2023-01-13 00:55:40884,0.0103047,-0.0361641,-1.01634,0.0278593,-0.0239785,-2.23045
2023-01-13 00:55:40894,0.00909342,-0.032588,-1.01401,0.0257122,-0.0293608,-2.22894
2023-01-13 00:55:40904,0.00969472,-0.0280623,-1.00534,0.023479,-0.035055,-2.22725
2023-01-13 00:55:40914,0.00957095,-0.0277234,-0.999569,0.0212393,-0.0409439,-2.22554
2023-01-13 00:55:40924,0.00958784,-0.0269324,-0.999938,0.0190031,-0.047037,-2.22382
2023-01-13 00:55:40934,0.00662201,-0.0280354,-1.008,0.016771,-0.053421,-2.22207
2023-01-13 00:55:40944,-0.00752974,-0.0297605,-1.01658,0.0144306,-0.0601845,-2.22034
2023-01-13 00:55:40954,-0.0271572,-0.0279146,-1.01793,0.0118606,-0.0673334,-2.2187
2023-01-13 00:55:40964,-0.0437254,-0.0242125,-1.01009,0.00905111,-0.0746998,-2.21706
2023-01-13 00:55:40974,-0.0524263,-0.0186585,-1.00119,0.0060864,-0.0820148,-2.21548
2023-01-13 00:55:40984,-0.0564015,-0.0156971,-0.995696,0.00298145,-0.0894796,-2.21387
2023-01-13 00:55:40993,-0.0561452,-0.0127216,-0.991779,-0.000217063,-0.0970004,-2.21224
2023-01-13 00:55:413,-0.0581531,-0.0077224,-0.990517,-0.00344061,-0.104735,-2.21063
2023-01-13 00:55:4113,-0.0721427,-0.00581073,-0.996384,-0.00675509,-0.112529,-2.20914
2023-01-13 00:55:4124,-0.0749582,-0.00104109,-1.00355,-0.0101985,-0.12054,-2.2078
2023-01-13 00:55:4134,-0.0860887,0.00683157,-1.00043,-0.0138111,-0.12896,-2.20649
2023-01-13 00:55:4144,-0.107664,0.0100401,-1.00217,-0.0175415,-0.137653,-2.20527
2023-01-13 00:55:4154,-0.118444,0.0125181,-1.00058,-0.0214627,-0.146576,-2.20395
2023-01-13 00:55:4164,-0.109965,0.0196628,-0.9922,-0.0256108,-0.155608,-2.20256
2023-01-13 00:55:4174,-0.101535,0.0272035,-0.985527,-0.0298594,-0.164861,-2.20104
2023-01-13 00:55:4184,-0.107418,0.0316477,-0.984967,-0.0342069,-0.174706,-2.19967
2023-01-13 00:55:4194,-0.128333,0.0366876,-0.986836,-0.0386717,-0.185032,-2.19834
2023-01-13 00:55:41104,-0.164149,0.040764,-0.983402,-0.0432435,-0.195701,-2.19715
2023-01-13 00:55:41114,-0.197737,0.0499619,-0.966329,-0.0480222,-0.206578,-2.19617
2023-01-13 00:55:41124,-0.224221,0.0603202,-0.944093,-0.0528716,-0.217377,-2.19526
2023-01-13 00:55:41134,-0.238527,0.0682321,-0.924103,-0.0576019,-0.227975,-2.19439
2023-01-13 00:55:41144,-0.234943,0.0743766,-0.912504,-0.0621082,-0.238121,-2.19345
2023-01-13 00:55:41154,-0.218635,0.0770566,-0.920298,-0.0663075,-0.248072,-2.19234
2023-01-13 00:55:41164,-0.204339,0.0766257,-0.939723,-0.0702752,-0.258262,-2.19118
2023-01-13 00:55:41174,-0.206069,0.0768262,-0.953843,-0.0741721,-0.268894,-2.18993
2023-01-13 00:55:41184,-0.222921,0.0781883,-0.958708,-0.0780423,-0.279869,-2.18879
2023-01-13 00:55:41194,-0.237709,0.0788763,-0.952455,-0.0820603,-0.291137,-2.18781
2023-01-13 00:55:41204,-0.239688,0.0811991,-0.948147,-0.086216,-0.302571,-2.18687
2023-01-13 00:55:41214,-0.236383,0.0850343,-0.946413,-0.0905238,-0.314264,-2.18588
2023-01-13 00:55:41224,-0.237471,0.0869577,-0.944208,-0.0950267,-0.326428,-2.18478
2023-01-13 00:55:41234,-0.250818,0.0935122,-0.937865,-0.0997763,-0.339179,-2.18367
2023-01-13 00:55:41244,-0.275732,0.0992862,-0.926042,-0.104816,-0.352507,-2.18251
2023-01-13 00:55:41254,-0.297555,0.103869,-0.908836,-0.110059,-0.36618,-2.1814
2023-01-13 00:55:41264,-0.307361,0.111595,-0.890859,-0.115431,-0.380097,-2.18021
2023-01-13 00:55:41274,-0.305176,0.120231,-0.875531,-0.120819,-0.394275,-2.17892
2023-01-13 00:55:41284,-0.301617,0.12767,-0.861635,-0.126063,-0.408886,-2.1777
2023-01-13 00:55:41294,-0.303664,0.130674,-0.85392,-0.131073,-0.42393,-2.17667
2023-01-13 00:55:41304,-0.321565,0.130506,-0.855487,-0.135887,-0.439477,-2.1759
2023-01-13 00:55:41314,-0.35925,0.132228,-0.85608,-0.140609,-0.455504,-2.17534
2023-01-13 00:55:41324,-0.403969,0.134941,-0.853821,-0.145389,-0.471903,-2.17485
2023-01-13 00:55:41333,-0.441812,0.139981,-0.845262,-0.150262,-0.488412,-2.17432
2023-01-13 00:55:41343,-0.474718,0.149026,-0.826869,-0.155309,-0.504932,-2.17368
2023-01-13 00:55:41354,-0.503816,0.155134,-0.802292,-0.160414,-0.521209,-2.17286
2023-01-13 00:55:41364,-0.522746,0.160723,-0.773552,-0.165406,-0.537154,-2.17188
2023-01-13 00:55:41374,-0.521472,0.170967,-0.754471,-0.170187,-0.552685,-2.17069
2023-01-13 00:55:41384,-0.519821,0.174952,-0.753282,-0.174428,-0.568062,-2.16947
2023-01-13 00:55:41394,-0.53407,0.174177,-0.759614,-0.178247,-0.58354,-2.16827
2023-01-13 00:55:41404,-0.565269,0.172888,-0.764797,-0.18175,-0.598979,-2.16719
2023-01-13 00:55:41414,-0.601052,0.171417,-0.758363,-0.185135,-0.614325,-2.16627
2023-01-13 00:55:41424,-0.629357,0.170845,-0.739714,-0.188408,-0.629289,-2.16559
2023-01-13 00:55:41434,-0.64199,0.178662,-0.726711,-0.191529,-0.643761,-2.165
2023-01-13 00:55:41444,-0.659266,0.18328,-0.725212,-0.194302,-0.657753,-2.16455
2023-01-13 00:55:41454,-0.69011,0.181477,-0.726985,-0.196874,-0.671382,-2.16419
2023-01-13 00:55:41464,-0.716789,0.182394,-0.717022,-0.199422,-0.684627,-2.16382
2023-01-13 00:55:41474,-0.733975,0.183761,-0.693729,-0.201827,-0.697082,-2.16376
2023-01-13 00:55:41484,-0.747486,0.188933,-0.670526,-0.203847,-0.708831,-2.16407
2023-01-13 00:55:41494,-0.761961,0.195971,-0.657674,-0.205274,-0.71986,-2.16475
2023-01-13 00:55:41504,-0.780258,0.194922,-0.659018,-0.20595,-0.7301,-2.16581
2023-01-13 00:55:41514,-0.813192,0.186299,-0.671947,-0.20583,-0.739665,-2.1674
2023-01-13 00:55:41524,-0.851388,0.173391,-0.688642,-0.205222,-0.748247,-2.16952
2023-01-13 00:55:41534,-0.881141,0.16477,-0.695394,-0.204359,-0.755743,-2.17194
2023-01-13 00:55:41544,-0.894138,0.157459,-0.688895,-0.203474,-0.761946,-2.17462
2023-01-13 00:55:41554,-0.884981,0.154384,-0.670383,-0.202605,-0.766876,-2.17734
2023-01-13 00:55:41564,-0.86354,0.156437,-0.656854,-0.201449,-0.770676,-2.18019
2023-01-13 00:55:41574,-0.849238,0.153164,-0.657807,-0.199765,-0.773644,-2.18323
2023-01-13 00:55:41584,-0.847466,0.142028,-0.67188,-0.197531,-0.775832,-2.18658
2023-01-13 00:55:41594,-0.863183,0.131774,-0.687367,-0.194985,-0.777262,-2.19027
2023-01-13 00:55:41604,-0.882571,0.123992,-0.701203,-0.192488,-0.777822,-2.19403
2023-01-13 00:55:41614,-0.895241,0.11544,-0.710535,-0.190182,-0.777376,-2.19763
2023-01-13 00:55:41624,-0.895809,0.107886,-0.716047,-0.188483,-0.775986,-2.20082
2023-01-13 00:55:41634,-0.8752,0.0994184,-0.715268,-0.187502,-0.773634,-2.20326
2023-01-13 00:55:41644,-0.827282,0.10043,-0.706779,-0.187332,-0.770569,-2.20488
2023-01-13 00:55:41654,-0.776305,0.108174,-0.697429,-0.187451,-0.767029,-2.20618
2023-01-13 00:55:41664,-0.743494,0.116036,-0.691823,-0.187656,-0.763252,-2.20733
2023-01-13 00:55:41674,-0.75373,0.120502,-0.687093,-0.187555,-0.75948,-2.20875
2023-01-13 00:55:41684,-0.797872,0.117519,-0.69051,-0.187249,-0.755374,-2.21047
2023-01-13 00:55:41694,-0.817898,0.111477,-0.70473,-0.186959,-0.750587,-2.2121
2023-01-13 00:55:41704,-0.799749,0.108888,-0.721029,-0.186933,-0.744878,-2.21344
2023-01-13 00:55:41714,-0.764132,0.109261,-0.731978,-0.187322,-0.738582,-2.21433
2023-01-13 00:55:41724,-0.730773,0.115802,-0.733336,-0.188066,-0.73202,-2.21496
2023-01-13 00:55:41734,-0.709953,0.125972,-0.726971,-0.189045,-0.725362,-2.21552
2023-01-13 00:55:41744,-0.705246,0.134436,-0.718095,-0.189979,-0.718584,-2.21625
2023-01-13 00:55:41754,-0.713359,0.137049,-0.711977,-0.190689,-0.711555,-2.21725
2023-01-13 00:55:41764,-0.716109,0.138304,-0.714423,-0.191242,-0.704053,-2.21832
2023-01-13 00:55:41774,-0.699236,0.138521,-0.724446,-0.191489,-0.696026,-2.21949
2023-01-13 00:55:41784,-0.669938,0.139344,-0.73495,-0.191486,-0.687703,-2.22089
2023-01-13 00:55:41794,-0.643115,0.143216,-0.743523,-0.191207,-0.679143,-2.22259
2023-01-13 00:55:41804,-0.630825,0.143229,-0.756354,-0.190535,-0.670324,-2.22478
2023-01-13 00:55:41814,-0.631307,0.137404,-0.772187,-0.189535,-0.661151,-2.2276
2023-01-13 00:55:41824,-0.641982,0.129617,-0.783059,-0.188429,-0.651836,-2.2309
2023-01-13 00:55:41834,-0.655919,0.127814,-0.783683,-0.187516,-0.642164,-2.23438
2023-01-13 00:55:41844,-0.655321,0.129675,-0.782133,-0.186788,-0.632077,-2.23784
2023-01-13 00:55:41854,-0.627892,0.133342,-0.784483,-0.18624,-0.621573,-2.24117
2023-01-13 00:55:41864,-0.592173,0.136297,-0.789442,-0.185822,-0.610788,-2.24434
2023-01-13 00:55:41874,-0.566828,0.136587,-0.796755,-0.185453,-0.599943,-2.24753
2023-01-13 00:55:41884,-0.561406,0.137917,-0.803816,-0.18513,-0.58907,-2.2509
2023-01-13 00:55:41894,-0.57016,0.13617,-0.810357,-0.185014,-0.578088,-2.25434
2023-01-13 00:55:41904,-0.582175,0.135034,-0.813713,-0.18507,-0.566895,-2.25787
2023-01-13 00:55:41914,-0.578307,0.140603,-0.814112,-0.185363,-0.55543,-2.26126
2023-01-13 00:55:41924,-0.552654,0.147542,-0.81969,-0.185822,-0.543587,-2.26439
2023-01-13 00:55:41934,-0.527906,0.150632,-0.832004,-0.186355,-0.531521,-2.26743
2023-01-13 00:55:41944,-0.509442,0.15064,-0.845745,-0.186819,-0.519228,-2.27065
2023-01-13 00:55:41954,-0.486522,0.155495,-0.848617,-0.187484,-0.506837,-2.27398
2023-01-13 00:55:41964,-0.469666,0.16311,-0.841204,-0.188172,-0.494382,-2.27757
2023-01-13 00:55:41974,-0.474157,0.170906,-0.83578,-0.188883,-0.481966,-2.2814
2023-01-13 00:55:41984,-0.476864,0.174832,-0.836766,-0.189433,-0.469476,-2.28528
2023-01-13 00:55:41994,-0.468948,0.180438,-0.836984,-0.189906,-0.456991,-2.28893
2023-01-13 00:55:424,-0.459471,0.175594,-0.851377,-0.190132,-0.444158,-2.29264
2023-01-13 00:55:4213,-0.433764,0.171433,-0.870299,-0.190429,-0.431047,-2.29623
2023-01-13 00:55:4224,-0.400136,0.178523,-0.874734,-0.190909,-0.417894,-2.29978
2023-01-13 00:55:4234,-0.375583,0.183109,-0.875577,-0.191487,-0.404831,-2.30329
2023-01-13 00:55:4244,-0.364237,0.188195,-0.876375,-0.192155,-0.391853,-2.30681
2023-01-13 00:55:4254,-0.357344,0.193127,-0.880065,-0.192823,-0.379013,-2.31038
2023-01-13 00:55:4264,-0.352068,0.192771,-0.888366,-0.193429,-0.366233,-2.31397
2023-01-13 00:55:4274,-0.342152,0.192016,-0.898751,-0.194114,-0.353496,-2.31746
2023-01-13 00:55:4284,-0.326084,0.198988,-0.896254,-0.194983,-0.340959,-2.32072
2023-01-13 00:55:4294,-0.315649,0.209051,-0.88718,-0.195865,-0.328546,-2.32356
2023-01-13 00:55:42104,-0.293751,0.212863,-0.894873,-0.196613,-0.316107,-2.32618
2023-01-13 00:55:42114,-0.262525,0.212663,-0.907603,-0.197283,-0.30383,-2.32843
2023-01-13 00:55:42124,-0.244527,0.214497,-0.913721,-0.197874,-0.292029,-2.33034
2023-01-13 00:55:42134,-0.240057,0.21312,-0.916451,-0.198533,-0.280541,-2.33204
2023-01-13 00:55:42144,-0.235958,0.212043,-0.917963,-0.199192,-0.269262,-2.33371
2023-01-13 00:55:42154,-0.22771,0.213406,-0.920012,-0.199824,-0.258134,-2.33524
2023-01-13 00:55:42164,-0.214417,0.218141,-0.923073,-0.200485,-0.247128,-2.33661
2023-01-13 00:55:42174,-0.203188,0.218613,-0.931316,-0.201104,-0.236326,-2.33783
2023-01-13 00:55:42184,-0.191622,0.216847,-0.938137,-0.201739,-0.225679,-2.339
2023-01-13 00:55:42194,-0.178694,0.217695,-0.937199,-0.202365,-0.215218,-2.34014
2023-01-13 00:55:42204,-0.167857,0.223223,-0.928528,-0.203099,-0.204923,-2.34123
2023-01-13 00:55:42214,-0.160217,0.228711,-0.923932,-0.203742,-0.194852,-2.34218
2023-01-13 00:55:42224,-0.159939,0.226099,-0.927367,-0.204013,-0.185127,-2.34289
2023-01-13 00:55:42234,-0.169451,0.22092,-0.938505,-0.204112,-0.17563,-2.34324
2023-01-13 00:55:42244,-0.165592,0.214141,-0.957433,-0.204137,-0.165965,-2.34332
2023-01-13 00:55:42254,-0.141201,0.206653,-0.972888,-0.204209,-0.156287,-2.34316
2023-01-13 00:55:42264,-0.11973,0.20641,-0.972779,-0.204573,-0.146707,-2.34281
2023-01-13 00:55:42274,-0.107528,0.212257,-0.960066,-0.205142,-0.137274,-2.34236
2023-01-13 00:55:42284,-0.107337,0.221337,-0.942102,-0.205738,-0.128212,-2.34169
2023-01-13 00:55:42294,-0.117881,0.226725,-0.92607,-0.206142,-0.119525,-2.34068
2023-01-13 00:55:42304,-0.129565,0.227605,-0.922698,-0.206241,-0.110978,-2.3393
2023-01-13 00:55:42314,-0.125758,0.221484,-0.93474,-0.205871,-0.102368,-2.33748
2023-01-13 00:55:42324,-0.111346,0.20937,-0.96176,-0.205275,-0.0936723,-2.33532
2023-01-13 00:55:42334,-0.086563,0.200227,-0.97981,-0.204686,-0.0847995,-2.33288
2023-01-13 00:55:42344,-0.0566621,0.203997,-0.977342,-0.204306,-0.075859,-2.33024
2023-01-13 00:55:42354,-0.035594,0.213356,-0.965816,-0.204116,-0.0669539,-2.3276
2023-01-13 00:55:42364,-0.0283275,0.218727,-0.957364,-0.203906,-0.0581997,-2.32507
2023-01-13 00:55:42374,-0.0264157,0.223568,-0.953392,-0.203556,-0.0495738,-2.32261
2023-01-13 00:55:42384,-0.0248992,0.224547,-0.951673,-0.203109,-0.041085,-2.32026
2023-01-13 00:55:42394,-0.0209297,0.219343,-0.954198,-0.202467,-0.0324215,-2.3182
2023-01-13 00:55:42404,-0.0103307,0.213342,-0.956473,-0.201824,-0.0235714,-2.31643
2023-01-13 00:55:42414,0.0111243,0.216345,-0.949193,-0.201052,-0.0146126,-2.31471
2023-01-13 00:55:42424,0.0370261,0.219337,-0.949834,-0.200161,-0.0056431,-2.31308
2023-01-13 00:55:42434,0.0576988,0.212943,-0.966555,-0.198984,0.00323221,-2.3116
2023-01-13 00:55:42444,0.0720805,0.198399,-0.984056,-0.197761,0.0118467,-2.31027
2023-01-13 00:55:42454,0.0821399,0.191385,-0.989235,-0.196674,0.0201122,-2.30917
2023-01-13 00:55:42464,0.0856189,0.189429,-0.983174,-0.195801,0.028066,-2.30814
2023-01-13 00:55:42474,0.0901929,0.190559,-0.972835,-0.195126,0.0356726,-2.30711
2023-01-13 00:55:42484,0.0983991,0.193737,-0.9669,-0.194511,0.0429671,-2.30608
2023-01-13 00:55:42494,0.103233,0.194191,-0.968748,-0.193814,0.0497631,-2.30494
2023-01-13 00:55:42504,0.109904,0.19274,-0.977977,-0.19302,0.0561752,-2.30368
2023-01-13 00:55:42514,0.12033,0.189444,-0.985887,-0.192216,0.0622806,-2.30235
2023-01-13 00:55:42524,0.133452,0.187464,-0.988812,-0.191455,0.0679494,-2.30098
2023-01-13 00:55:42534,0.146865,0.191476,-0.982778,-0.190877,0.0732707,-2.2996
2023-01-13 00:55:42544,0.161846,0.193653,-0.97931,-0.190278,0.0782489,-2.29829
2023-01-13 00:55:42554,0.174993,0.192118,-0.980731,-0.189627,0.0827887,-2.29691
2023-01-13 00:55:42564,0.185509,0.190881,-0.984694,-0.188954,0.0866495,-2.2955
2023-01-13 00:55:42574,0.186585,0.188091,-0.986894,-0.188251,0.0898147,-2.29412
2023-01-13 00:55:42584,0.180094,0.185454,-0.987914,-0.187541,0.0922808,-2.2927
2023-01-13 00:55:42594,0.174221,0.185702,-0.986239,-0.186834,0.0940536,-2.29117
2023-01-13 00:55:42604,0.171638,0.18736,-0.982179,-0.186139,0.0952269,-2.28962
2023-01-13 00:55:42614,0.167298,0.188199,-0.981335,-0.18538,0.0959836,-2.28808
2023-01-13 00:55:42624,0.162508,0.186091,-0.985009,-0.184485,0.0963093,-2.28647
2023-01-13 00:55:42634,0.158552,0.183708,-0.990347,-0.183693,0.0962497,-2.28496
2023-01-13 00:55:42644,0.151942,0.180753,-0.994495,-0.182927,0.0959222,-2.28348
2023-01-13 00:55:42654,0.144905,0.18236,-0.991456,-0.1823,0.0953386,-2.28213
2023-01-13 00:55:42664,0.137777,0.184387,-0.989116,-0.181795,0.094569,-2.28084
2023-01-13 00:55:42674,0.131161,0.182941,-0.990671,-0.181357,0.0936871,-2.27973
2023-01-13 00:55:42684,0.126816,0.179354,-0.993059,-0.180962,0.0927161,-2.27877
2023-01-13 00:55:42694,0.122855,0.175824,-0.993372,-0.18072,0.091676,-2.27792
2023-01-13 00:55:42704,0.119605,0.174745,-0.990931,-0.180551,0.0905183,-2.27711
2023-01-13 00:55:42714,0.11486,0.175122,-0.986353,-0.180472,0.0892014,-2.2764
2023-01-13 00:55:42724,0.111932,0.175355,-0.981388,-0.180401,0.0878577,-2.2757
2023-01-13 00:55:42734,0.112259,0.17613,-0.976427,-0.180354,0.086429,-2.27491
2023-01-13 00:55:42744,0.114797,0.175546,-0.980078,-0.18024,0.0849284,-2.27416
2023-01-13 00:55:42754,0.117983,0.173054,-0.986343,-0.180181,0.0831496,-2.27336
2023-01-13 00:55:42764,0.113324,0.1733,-0.988026,-0.180063,0.0809857,-2.27242
2023-01-13 00:55:42774,0.100104,0.171877,-0.992502,-0.179957,0.0786977,-2.27151
2023-01-13 00:55:42784,0.0895183,0.168133,-1.00108,-0.179978,0.0763544,-2.27072
2023-01-13 00:55:42794,0.0837745,0.16753,-1.0015,-0.180164,0.0740039,-2.26994
2023-01-13 00:55:42804,0.0824381,0.171238,-0.994815,-0.180577,0.0717249,-2.26916
2023-01-13 00:55:42814,0.0793164,0.177921,-0.987288,-0.180993,0.0694133,-2.26842
2023-01-13 00:55:42824,0.072362,0.179811,-0.987258,-0.181411,0.0671526,-2.26772
2023-01-13 00:55:42834,0.0683682,0.182028,-0.986045,-0.181799,0.0648519,-2.26688
2023-01-13 00:55:42844,0.0624218,0.184712,-0.985532,-0.182204,0.0625868,-2.26605
2023-01-13 00:55:42854,0.0591596,0.184699,-0.985009,-0.182693,0.0603666,-2.26525
2023-01-13 00:55:42864,0.0589478,0.184396,-0.981692,-0.183063,0.0582387,-2.26444
2023-01-13 00:55:42874,0.0636266,0.18888,-0.976645,-0.183468,0.0561348,-2.26357
2023-01-13 00:55:42884,0.0680835,0.191113,-0.976876,-0.183769,0.0540597,-2.26261
2023-01-13 00:55:42894,0.0689919,0.18976,-0.980589,-0.184001,0.051851,-2.26166
2023-01-13 00:55:42904,0.0666973,0.18865,-0.982299,-0.184133,0.049592,-2.26077
2023-01-13 00:55:42914,0.0623095,0.189837,-0.979758,-0.18431,0.0473085,-2.25996
2023-01-13 00:55:42924,0.0616691,0.190947,-0.979972,-0.184388,0.0450565,-2.25908
2023-01-13 00:55:42934,0.0666474,0.191421,-0.984507,-0.184429,0.0427957,-2.25822
2023-01-13 00:55:42944,0.0725288,0.193774,-0.988497,-0.184426,0.0404448,-2.25729
2023-01-13 00:55:42954,0.0743466,0.194338,-0.989703,-0.184394,0.0378929,-2.25642
2023-01-13 00:55:42964,0.0738526,0.192902,-0.993376,-0.184372,0.0352672,-2.25558
2023-01-13 00:55:42974,0.0728929,0.190524,-0.991971,-0.184268,0.0324547,-2.25472
2023-01-13 00:55:42984,0.0736939,0.191002,-0.984173,-0.184106,0.0294713,-2.25388
2023-01-13 00:55:42994,0.0715432,0.192594,-0.973931,-0.183918,0.0262307,-2.25299
