Timestamp,Acceleration_x,Acceleration_y,Acceleration_z,roll,pitch,yaw
2023-03-14 16:30:39:127,-0.443112,2.81492,-9.42895,-16.5776,-3.06804,69.7128
2023-03-14 16:30:39:135,-0.479806,2.817,-9.4185,-16.5674,-3.06326,69.7222
2023-03-14 16:30:39:145,-0.494035,2.80128,-9.40837,-16.5543,-3.05778,69.7305
2023-03-14 16:30:39:155,-0.488986,2.78181,-9.40606,-16.5422,-3.05381,69.7408
2023-03-14 16:30:39:165,-0.474469,2.77638,-9.39361,-16.5278,-3.04683,69.7482
2023-03-14 16:30:39:175,-0.475264,2.788,-9.40469,-16.5108,-3.04261,69.7565
2023-03-14 16:30:39:185,-0.483556,2.79129,-9.42483,-16.4988,-3.03884,69.7647
2023-03-14 16:30:39:196,-0.502772,2.78297,-9.43165,-16.481,-3.03921,69.7732
2023-03-14 16:30:39:205,-0.497335,2.76575,-9.40914,-16.4588,-3.04024,69.7821
2023-03-14 16:30:39:215,-0.501059,2.72855,-9.36776,-16.4365,-3.04749,69.7862
2023-03-14 16:30:39:225,-0.488367,2.69789,-9.35184,-16.4147,-3.05431,69.7894
2023-03-14 16:30:39:236,-0.468608,2.69432,-9.34797,-16.3942,-3.06094,69.7883
2023-03-14 16:30:39:246,-0.459517,2.69658,-9.36723,-16.3763,-3.07234,69.7891
2023-03-14 16:30:39:255,-0.448782,2.68823,-9.391,-16.3626,-3.08689,69.7908
2023-03-14 16:30:39:265,-0.447575,2.67774,-9.37797,-16.3441,-3.10192,69.7921
2023-03-14 16:30:39:276,-0.447852,2.66311,-9.36272,-16.326,-3.11926,69.7986
2023-03-14 16:30:39:285,-0.453714,2.68054,-9.36835,-16.3161,-3.13866,69.8022
2023-03-14 16:30:39:296,-0.482904,2.68948,-9.393,-16.304,-3.1554,69.8094
2023-03-14 16:30:39:306,-0.514647,2.69667,-9.4048,-16.2915,-3.17327,69.8222
2023-03-14 16:30:39:316,-0.528582,2.68592,-9.38366,-16.2775,-3.19145,69.8357
2023-03-14 16:30:39:326,-0.537194,2.67115,-9.36499,-16.2631,-3.20723,69.8489
2023-03-14 16:30:39:336,-0.557058,2.68518,-9.37435,-16.252,-3.22266,69.8608
2023-03-14 16:30:39:346,-0.57126,2.69472,-9.38407,-16.2451,-3.23683,69.8732
2023-03-14 16:30:39:356,-0.576643,2.68836,-9.37684,-16.2344,-3.25019,69.8896
2023-03-14 16:30:39:366,-0.568303,2.6881,-9.36954,-16.2225,-3.25834,69.9024
2023-03-14 16:30:39:376,-0.561738,2.67557,-9.37304,-16.2121,-3.2685,69.9151
2023-03-14 16:30:39:386,-0.572246,2.68947,-9.35855,-16.1984,-3.28021,69.9313
2023-03-14 16:30:39:396,-0.582893,2.67121,-9.35559,-16.1897,-3.29179,69.9435
2023-03-14 16:30:39:406,-0.566913,2.65353,-9.34179,-16.1812,-3.30019,69.9543
2023-03-14 16:30:39:416,-0.552445,2.65604,-9.32921,-16.1723,-3.30637,69.9643
2023-03-14 16:30:39:426,-0.545159,2.66423,-9.3273,-16.1632,-3.3093,69.9734
2023-03-14 16:30:39:436,-0.534051,2.69666,-9.35306,-16.1639,-3.31555,69.9841
2023-03-14 16:30:39:446,-0.535924,2.73647,-9.39853,-16.1659,-3.3216,69.9947
2023-03-14 16:30:39:456,-0.54773,2.76058,-9.43147,-16.1686,-3.32416,70.0071
2023-03-14 16:30:39:466,-0.539062,2.78033,-9.43823,-16.1646,-3.32865,70.0151
2023-03-14 16:30:39:476,-0.531241,2.76398,-9.43949,-16.1595,-3.33425,70.0218
2023-03-14 16:30:39:486,-0.521356,2.75519,-9.42542,-16.1513,-3.34045,70.0274
2023-03-14 16:30:39:496,-0.517743,2.74479,-9.40171,-16.1377,-3.34573,70.0378
2023-03-14 16:30:39:506,-0.521934,2.73519,-9.37864,-16.13,-3.35554,70.0519
2023-03-14 16:30:39:516,-0.544344,2.72401,-9.36196,-16.1151,-3.36804,70.0626
2023-03-14 16:30:39:526,-0.564268,2.72208,-9.36101,-16.1019,-3.37792,70.0713
2023-03-14 16:30:39:535,-0.573249,2.7066,-9.3817,-16.0896,-3.38987,70.0819
2023-03-14 16:30:39:546,-0.588585,2.7102,-9.37239,-16.0818,-3.3997,70.0937
2023-03-14 16:30:39:556,-0.583739,2.72286,-9.40382,-16.0756,-3.40802,70.1038
2023-03-14 16:30:39:566,-0.57544,2.72126,-9.42516,-16.0641,-3.41982,70.1111
2023-03-14 16:30:39:576,-0.590955,2.72086,-9.43458,-16.0475,-3.43241,70.118
2023-03-14 16:30:39:586,-0.596362,2.71156,-9.42287,-16.035,-3.44715,70.1248
2023-03-14 16:30:39:596,-0.603421,2.71385,-9.39644,-16.0158,-3.46049,70.1283
2023-03-14 16:30:39:606,-0.590699,2.68468,-9.37523,-15.9945,-3.47242,70.131
2023-03-14 16:30:39:616,-0.571907,2.65126,-9.36398,-15.9758,-3.48446,70.1374
2023-03-14 16:30:39:626,-0.58295,2.66188,-9.34818,-15.9568,-3.49428,70.1409
2023-03-14 16:30:39:636,-0.594086,2.65692,-9.35688,-15.9418,-3.50455,70.143
2023-03-14 16:30:39:646,-0.573227,2.65067,-9.3582,-15.9267,-3.5091,70.1483
2023-03-14 16:30:39:656,-0.552034,2.63708,-9.38563,-15.9136,-3.51686,70.15
2023-03-14 16:30:39:666,-0.520615,2.64842,-9.40233,-15.9014,-3.52382,70.1508
2023-03-14 16:30:39:676,-0.498318,2.65167,-9.39738,-15.8903,-3.53823,70.1535
2023-03-14 16:30:39:686,-0.499413,2.64219,-9.39026,-15.8795,-3.55687,70.1586
2023-03-14 16:30:39:696,-0.535068,2.62763,-9.37309,-15.8697,-3.57254,70.167
2023-03-14 16:30:39:706,-0.577257,2.66687,-9.36692,-15.8599,-3.58833,70.179
2023-03-14 16:30:39:715,-0.595839,2.66806,-9.38857,-15.8567,-3.60401,70.1969
2023-03-14 16:30:39:725,-0.586614,2.67077,-9.39031,-15.8501,-3.61847,70.2122
2023-03-14 16:30:39:735,-0.568709,2.67116,-9.3827,-15.8461,-3.62949,70.231
2023-03-14 16:30:39:745,-0.579017,2.68323,-9.39645,-15.8399,-3.64297,70.2508
2023-03-14 16:30:39:755,-0.615874,2.68562,-9.40793,-15.8341,-3.65631,70.274
2023-03-14 16:30:39:765,-0.676072,2.68894,-9.40001,-15.8258,-3.67143,70.2963
2023-03-14 16:30:39:775,-0.714262,2.6791,-9.37359,-15.8121,-3.68591,70.3154
2023-03-14 16:30:39:785,-0.763473,2.67451,-9.34311,-15.7972,-3.70097,70.3355
2023-03-14 16:30:39:795,-0.789457,2.6774,-9.33019,-15.7849,-3.71181,70.3466
2023-03-14 16:30:39:805,-0.799071,2.67081,-9.3411,-15.7731,-3.7247,70.3545
2023-03-14 16:30:39:815,-0.778681,2.65375,-9.33963,-15.7646,-3.73605,70.3592
2023-03-14 16:30:39:825,-0.739994,2.64346,-9.32571,-15.7555,-3.74687,70.3547
2023-03-14 16:30:39:835,-0.714065,2.63163,-9.34336,-15.7495,-3.75669,70.3442
2023-03-14 16:30:39:845,-0.699217,2.62652,-9.36272,-15.7435,-3.76651,70.3347
2023-03-14 16:30:39:855,-0.688892,2.62792,-9.36851,-15.7422,-3.77025,70.323
2023-03-14 16:30:39:865,-0.675408,2.61798,-9.36982,-15.7407,-3.7751,70.3091
2023-03-14 16:30:39:875,-0.667687,2.6146,-9.35049,-15.7385,-3.78018,70.2951
2023-03-14 16:30:39:885,-0.652304,2.62721,-9.36914,-15.7419,-3.78356,70.2796
2023-03-14 16:30:39:895,-0.654704,2.63923,-9.40099,-15.7444,-3.7803,70.2663
2023-03-14 16:30:39:905,-0.654022,2.65676,-9.40351,-15.7464,-3.77891,70.2534
2023-03-14 16:30:39:915,-0.6265,2.66309,-9.39547,-15.7449,-3.77186,70.2386
2023-03-14 16:30:39:925,-0.566627,2.65799,-9.40565,-15.7488,-3.76874,70.221
2023-03-14 16:30:39:935,-0.558219,2.65594,-9.41237,-15.7507,-3.76679,70.2063
2023-03-14 16:30:39:945,-0.590187,2.65411,-9.39824,-15.7501,-3.76731,70.1926
2023-03-14 16:30:39:955,-0.624888,2.65253,-9.38253,-15.749,-3.76439,70.1834
2023-03-14 16:30:39:965,-0.624488,2.66915,-9.37938,-15.7471,-3.76654,70.1698
2023-03-14 16:30:39:975,-0.600127,2.68068,-9.40338,-15.7491,-3.7644,70.1607
2023-03-14 16:30:39:985,-0.575258,2.67697,-9.43795,-15.746,-3.76192,70.1485
2023-03-14 16:30:39:995,-0.55668,2.67489,-9.4499,-15.7438,-3.76364,70.1375
2023-03-14 16:30:40:5,-0.558459,2.6777,-9.44966,-15.7369,-3.7687,70.1312
2023-03-14 16:30:40:15,-0.555966,2.67342,-9.45274,-15.73,-3.77326,70.1258
2023-03-14 16:30:40:25,-0.569994,2.66258,-9.44435,-15.7189,-3.77862,70.1225
2023-03-14 16:30:40:35,-0.580439,2.63622,-9.4002,-15.7072,-3.78597,70.1215
2023-03-14 16:30:40:45,-0.602818,2.62516,-9.36777,-15.6948,-3.79681,70.1212
2023-03-14 16:30:40:55,-0.615379,2.62884,-9.37845,-15.6841,-3.80632,70.1189
2023-03-14 16:30:40:65,-0.612851,2.64056,-9.3964,-15.6781,-3.81598,70.1193
2023-03-14 16:30:40:75,-0.628112,2.64678,-9.42094,-15.6669,-3.82547,70.1156
2023-03-14 16:30:40:85,-0.635401,2.65367,-9.42195,-15.6564,-3.83506,70.1161
2023-03-14 16:30:40:95,-0.650348,2.64682,-9.41478,-15.6462,-3.84627,70.1193
2023-03-14 16:30:40:105,-0.663054,2.64035,-9.43206,-15.6364,-3.85839,70.122
2023-03-14 16:30:40:115,-0.677993,2.63939,-9.45082,-15.6225,-3.87338,70.1249
2023-03-14 16:30:40:125,-0.661986,2.629,-9.42707,-15.6097,-3.8869,70.1294
2023-03-14 16:30:40:135,-0.665901,2.60363,-9.39006,-15.5897,-3.89946,70.1329
2023-03-14 16:30:40:145,-0.674053,2.60324,-9.37228,-15.5707,-3.91184,70.1399
2023-03-14 16:30:40:155,-0.698041,2.58982,-9.36454,-15.5542,-3.92538,70.1475
2023-03-14 16:30:40:166,-0.703063,2.57696,-9.35859,-15.5377,-3.93834,70.1573
2023-03-14 16:30:40:176,-0.710458,2.56091,-9.36021,-15.523,-3.95011,70.164
2023-03-14 16:30:40:186,-0.737464,2.57173,-9.33855,-15.5115,-3.95762,70.1706
2023-03-14 16:30:40:196,-0.738273,2.5835,-9.35021,-15.4977,-3.96409,70.1754
2023-03-14 16:30:40:206,-0.721132,2.58971,-9.37744,-15.4893,-3.96999,70.1801
2023-03-14 16:30:40:216,-0.711277,2.6083,-9.39947,-15.4826,-3.97582,70.1837
2023-03-14 16:30:40:225,-0.714585,2.60529,-9.41614,-15.4734,-3.97966,70.1849
2023-03-14 16:30:40:236,-0.714365,2.58954,-9.39958,-15.4635,-3.98528,70.1861
2023-03-14 16:30:40:246,-0.696688,2.5764,-9.36895,-15.4503,-3.98985,70.1879
2023-03-14 16:30:40:256,-0.684008,2.56316,-9.33996,-15.4384,-3.99478,70.1857
2023-03-14 16:30:40:265,-0.686267,2.55073,-9.34101,-15.4361,-3.99686,70.1843
2023-03-14 16:30:40:276,-0.690831,2.57558,-9.36138,-15.4364,-3.99837,70.1877
2023-03-14 16:30:40:285,-0.677867,2.59688,-9.38507,-15.4397,-3.9997,70.1874
2023-03-14 16:30:40:296,-0.675339,2.60676,-9.40471,-15.443,-3.99782,70.1891
2023-03-14 16:30:40:306,-0.678758,2.61463,-9.40276,-15.4481,-3.99577,70.1912
2023-03-14 16:30:40:316,-0.673315,2.61299,-9.39713,-15.4519,-3.99339,70.1955
2023-03-14 16:30:40:326,-0.675457,2.59769,-9.39509,-15.4495,-3.98657,70.2003
2023-03-14 16:30:40:335,-0.688882,2.60502,-9.3996,-15.451,-3.98113,70.204
2023-03-14 16:30:40:346,-0.693509,2.63669,-9.41108,-15.4537,-3.97823,70.2098
2023-03-14 16:30:40:356,-0.696041,2.64325,-9.4321,-15.4545,-3.97378,70.2129
2023-03-14 16:30:40:366,-0.716462,2.61712,-9.42048,-15.455,-3.96583,70.2193
2023-03-14 16:30:40:376,-0.719077,2.59981,-9.40868,-15.4512,-3.95978,70.2224
2023-03-14 16:30:40:386,-0.71095,2.59281,-9.40273,-15.4474,-3.95285,70.2244
2023-03-14 16:30:40:396,-0.706894,2.60301,-9.40006,-15.4428,-3.94549,70.2233
2023-03-14 16:30:40:406,-0.707777,2.61261,-9.3915,-15.4409,-3.93866,70.2269
2023-03-14 16:30:40:416,-0.716839,2.61289,-9.37776,-15.4366,-3.93376,70.2278
2023-03-14 16:30:40:426,-0.708917,2.59204,-9.34593,-15.4321,-3.92763,70.226
2023-03-14 16:30:40:435,-0.693787,2.5882,-9.32578,-15.4306,-3.92167,70.2221
2023-03-14 16:30:40:445,-0.701828,2.58747,-9.3369,-15.429,-3.91429,70.22
2023-03-14 16:30:40:455,-0.698805,2.59066,-9.36015,-15.4332,-3.90955,70.2203
2023-03-14 16:30:40:465,-0.679328,2.61123,-9.3857,-15.437,-3.89759,70.2148
2023-03-14 16:30:40:475,-0.648731,2.61611,-9.41964,-15.4453,-3.88596,70.207
2023-03-14 16:30:40:485,-0.605201,2.61691,-9.43893,-15.4508,-3.8717,70.1952
2023-03-14 16:30:40:495,-0.574041,2.603,-9.43515,-15.454,-3.85921,70.1878
2023-03-14 16:30:40:505,-0.548996,2.60757,-9.41548,-15.4587,-3.84461,70.1813
2023-03-14 16:30:40:515,-0.56316,2.6236,-9.43634,-15.4662,-3.83137,70.1787
2023-03-14 16:30:40:525,-0.571118,2.64941,-9.46878,-15.4746,-3.8145,70.1796
2023-03-14 16:30:40:535,-0.569416,2.67224,-9.49107,-15.4823,-3.7914,70.183
2023-03-14 16:30:40:545,-0.552628,2.67705,-9.52267,-15.4803,-3.76384,70.1853
2023-03-14 16:30:40:555,-0.510828,2.68703,-9.53996,-15.4732,-3.73503,70.1885
2023-03-14 16:30:40:565,-0.466297,2.66928,-9.56955,-15.4591,-3.70441,70.1974
2023-03-14 16:30:40:575,-0.47736,2.64045,-9.53333,-15.4343,-3.67812,70.2088
2023-03-14 16:30:40:585,-0.517735,2.59481,-9.44082,-15.401,-3.65719,70.2239
2023-03-14 16:30:40:595,-0.559227,2.55418,-9.34336,-15.3622,-3.63569,70.2424
2023-03-14 16:30:40:605,-0.597572,2.53516,-9.30221,-15.3247,-3.6087,70.263
2023-03-14 16:30:40:615,-0.636847,2.53407,-9.27372,-15.2925,-3.5788,70.2834
2023-03-14 16:30:40:625,-0.637911,2.52575,-9.28315,-15.2714,-3.55118,70.2982
2023-03-14 16:30:40:635,-0.605221,2.55738,-9.37146,-15.2634,-3.52258,70.3075
2023-03-14 16:30:40:645,-0.571008,2.63142,-9.51283,-15.2623,-3.49728,70.3142
2023-03-14 16:30:40:655,-0.517135,2.70067,-9.64173,-15.2603,-3.47246,70.3202
2023-03-14 16:30:40:665,-0.492697,2.70404,-9.67374,-15.2469,-3.45041,70.3254
2023-03-14 16:30:40:675,-0.515651,2.65886,-9.58537,-15.2194,-3.43343,70.3342
2023-03-14 16:30:40:685,-0.539672,2.62496,-9.47881,-15.1803,-3.42205,70.3446
2023-03-14 16:30:40:695,-0.595033,2.6043,-9.40094,-15.1405,-3.41123,70.3566
2023-03-14 16:30:40:705,-0.648673,2.55625,-9.29821,-15.1013,-3.40632,70.3726
2023-03-14 16:30:40:715,-0.69269,2.51204,-9.19714,-15.066,-3.40147,70.3826
2023-03-14 16:30:40:725,-0.714073,2.52382,-9.18553,-15.0442,-3.4015,70.3836
2023-03-14 16:30:40:735,-0.658797,2.55714,-9.29632,-15.0334,-3.393,70.377
2023-03-14 16:30:40:745,-0.608664,2.60973,-9.42371,-15.0312,-3.39067,70.3619
2023-03-14 16:30:40:755,-0.560902,2.64002,-9.54252,-15.0259,-3.39457,70.3421
2023-03-14 16:30:40:765,-0.548766,2.63273,-9.58255,-15.0114,-3.40345,70.3245
2023-03-14 16:30:40:775,-0.543246,2.59318,-9.5768,-14.9851,-3.41428,70.3065
2023-03-14 16:30:40:785,-0.511592,2.54744,-9.54307,-14.9494,-3.42642,70.2921
2023-03-14 16:30:40:795,-0.524363,2.47981,-9.44512,-14.9009,-3.43788,70.2821
2023-03-14 16:30:40:805,-0.574654,2.40867,-9.3113,-14.8497,-3.45073,70.277
2023-03-14 16:30:40:815,-0.640945,2.38592,-9.21173,-14.8139,-3.46993,70.2768
2023-03-14 16:30:40:825,-0.718022,2.41641,-9.16766,-14.7944,-3.4943,70.2748
2023-03-14 16:30:40:835,-0.768107,2.4398,-9.17864,-14.7862,-3.51526,70.2675
2023-03-14 16:30:40:845,-0.763507,2.50221,-9.28742,-14.7999,-3.53695,70.2536
2023-03-14 16:30:40:855,-0.69778,2.59736,-9.46794,-14.8182,-3.55313,70.2311
2023-03-14 16:30:40:865,-0.623303,2.58881,-9.57289,-14.8245,-3.57136,70.2011
2023-03-14 16:30:40:875,-0.562662,2.56792,-9.60215,-14.8204,-3.59086,70.1702
2023-03-14 16:30:40:885,-0.501537,2.55189,-9.62697,-14.8071,-3.61714,70.1371
2023-03-14 16:30:40:895,-0.476296,2.48987,-9.57165,-14.7816,-3.64901,70.1078
2023-03-14 16:30:40:905,-0.502412,2.42291,-9.42788,-14.7543,-3.69074,70.0869
2023-03-14 16:30:40:915,-0.54995,2.37873,-9.31225,-14.7275,-3.73321,70.0721
2023-03-14 16:30:40:925,-0.577171,2.38242,-9.23732,-14.7094,-3.7792,70.0546
2023-03-14 16:30:40:935,-0.606567,2.39116,-9.21441,-14.7069,-3.82468,70.0399
2023-03-14 16:30:40:945,-0.616717,2.40945,-9.2553,-14.7164,-3.87001,70.0258
2023-03-14 16:30:40:955,-0.615707,2.49461,-9.38576,-14.7343,-3.9066,70.0105
2023-03-14 16:30:40:965,-0.595159,2.52715,-9.46193,-14.7487,-3.94348,69.9979
2023-03-14 16:30:40:975,-0.556333,2.46487,-9.44108,-14.7517,-3.97717,69.9923
2023-03-14 16:30:40:985,-0.504224,2.43343,-9.44634,-14.758,-4.00996,69.992
2023-03-14 16:30:40:995,-0.459973,2.43635,-9.48626,-14.7642,-4.04411,69.9997
2023-03-14 16:30:41:5,-0.475197,2.42413,-9.48929,-14.7629,-4.08123,70.0218
2023-03-14 16:30:41:15,-0.566957,2.39259,-9.42706,-14.7599,-4.12203,70.0524
2023-03-14 16:30:41:25,-0.705487,2.3859,-9.36074,-14.7626,-4.16454,70.1009
2023-03-14 16:30:41:35,-0.846366,2.40581,-9.30686,-14.7723,-4.2063,70.1519
2023-03-14 16:30:41:45,-0.95072,2.44245,-9.31294,-14.7859,-4.24082,70.2028
2023-03-14 16:30:41:55,-1.03205,2.47659,-9.33036,-14.8085,-4.27,70.245
2023-03-14 16:30:41:65,-1.07819,2.50321,-9.31556,-14.8305,-4.28547,70.2789
2023-03-14 16:30:41:75,-1.10846,2.52785,-9.31058,-14.8552,-4.29461,70.2989
2023-03-14 16:30:41:85,-1.08825,2.5511,-9.38516,-14.8858,-4.29134,70.3039
2023-03-14 16:30:41:95,-1.03168,2.61102,-9.52809,-14.9164,-4.28146,70.2946
2023-03-14 16:30:41:106,-0.974127,2.64823,-9.6437,-14.9387,-4.26704,70.2661
2023-03-14 16:30:41:116,-0.943538,2.62979,-9.66641,-14.9458,-4.24718,70.2274
2023-03-14 16:30:41:126,-0.944898,2.58632,-9.63696,-14.9411,-4.2264,70.1802
2023-03-14 16:30:41:136,-0.945718,2.55535,-9.58868,-14.9293,-4.21043,70.1219
2023-03-14 16:30:41:145,-0.919156,2.53332,-9.50565,-14.9109,-4.18905,70.0527
2023-03-14 16:30:41:156,-0.862816,2.49784,-9.4206,-14.887,-4.16316,69.9708
2023-03-14 16:30:41:166,-0.761599,2.46497,-9.34431,-14.8618,-4.13041,69.8787
2023-03-14 16:30:41:176,-0.647992,2.43538,-9.34157,-14.8409,-4.08643,69.7807
2023-03-14 16:30:41:186,-0.516445,2.45335,-9.42897,-14.8232,-4.03659,69.6833
2023-03-14 16:30:41:196,-0.406746,2.45505,-9.50576,-14.8001,-3.98396,69.5856
2023-03-14 16:30:41:206,-0.352616,2.42225,-9.5219,-14.7706,-3.93309,69.4964
2023-03-14 16:30:41:216,-0.350345,2.38081,-9.48901,-14.7383,-3.88994,69.4194
2023-03-14 16:30:41:226,-0.379192,2.35804,-9.40525,-14.7037,-3.85621,69.3545
2023-03-14 16:30:41:235,-0.459485,2.32252,-9.30822,-14.6742,-3.82661,69.3025
2023-03-14 16:30:41:246,-0.541345,2.32807,-9.27948,-14.6541,-3.80203,69.2602
2023-03-14 16:30:41:256,-0.559968,2.36591,-9.35138,-14.6456,-3.78111,69.2175
2023-03-14 16:30:41:266,-0.516141,2.40008,-9.4546,-14.6429,-3.76371,69.1781
2023-03-14 16:30:41:276,-0.471603,2.40756,-9.5171,-14.6394,-3.75153,69.1398
2023-03-14 16:30:41:286,-0.44896,2.41833,-9.53565,-14.6324,-3.74801,69.1074
2023-03-14 16:30:41:296,-0.450818,2.40897,-9.51164,-14.6246,-3.75296,69.0809
2023-03-14 16:30:41:305,-0.537923,2.38582,-9.43214,-14.6173,-3.77281,69.0707
2023-03-14 16:30:41:315,-0.64863,2.39157,-9.35659,-14.6097,-3.79806,69.0658
2023-03-14 16:30:41:325,-0.702127,2.38698,-9.26285,-14.6083,-3.8268,69.0612
2023-03-14 16:30:41:336,-0.73922,2.3989,-9.22251,-14.6202,-3.86001,69.0598
2023-03-14 16:30:41:346,-0.787466,2.43277,-9.21414,-14.6425,-3.89796,69.0522
2023-03-14 16:30:41:356,-0.811772,2.49654,-9.24975,-14.6755,-3.93708,69.0474
2023-03-14 16:30:41:366,-0.806003,2.54288,-9.33355,-14.7143,-3.97479,69.0355
2023-03-14 16:30:41:376,-0.754304,2.56817,-9.41327,-14.7513,-4.01153,69.0175
2023-03-14 16:30:41:385,-0.713976,2.57999,-9.44207,-14.7815,-4.04325,68.9961
2023-03-14 16:30:41:395,-0.679211,2.57922,-9.45095,-14.8025,-4.07843,68.9812
2023-03-14 16:30:41:406,-0.653843,2.55402,-9.43567,-14.8184,-4.10995,68.9654
2023-03-14 16:30:41:416,-0.634443,2.52783,-9.42291,-14.8308,-4.14178,68.9542
2023-03-14 16:30:41:425,-0.652725,2.52491,-9.39537,-14.8436,-4.17604,68.947
2023-03-14 16:30:41:435,-0.710997,2.53816,-9.3785,-14.8616,-4.20536,68.9428
2023-03-14 16:30:41:445,-0.758719,2.58641,-9.41892,-14.8855,-4.23328,68.9481
2023-03-14 16:30:41:455,-0.789455,2.63242,-9.48009,-14.908,-4.25074,68.954
2023-03-14 16:30:41:465,-0.795088,2.6704,-9.50262,-14.9306,-4.26681,68.9553
2023-03-14 16:30:41:476,-0.771789,2.69086,-9.53275,-14.9494,-4.28041,68.9562
2023-03-14 16:30:41:486,-0.730049,2.68554,-9.55971,-14.964,-4.29148,68.9558
2023-03-14 16:30:41:496,-0.724147,2.66098,-9.55453,-14.9719,-4.29849,68.9538
2023-03-14 16:30:41:506,-0.696907,2.63225,-9.53763,-14.9717,-4.30397,68.9495
2023-03-14 16:30:41:516,-0.662749,2.60811,-9.56191,-14.9679,-4.30991,68.9473
2023-03-14 16:30:41:526,-0.614023,2.57795,-9.53509,-14.9591,-4.31758,68.9443
2023-03-14 16:30:41:536,-0.611297,2.56884,-9.50001,-14.9511,-4.33501,68.9426
2023-03-14 16:30:41:546,-0.586757,2.58876,-9.57989,-14.9439,-4.35174,68.9429
2023-03-14 16:30:41:556,-0.622104,2.59,-9.56256,-14.9291,-4.37407,68.9513
2023-03-14 16:30:41:566,-0.718063,2.55183,-9.47575,-14.9105,-4.39963,68.9637
2023-03-14 16:30:41:576,-0.721485,2.52922,-9.42439,-14.8941,-4.43012,68.9757
2023-03-14 16:30:41:586,-0.713531,2.54471,-9.42292,-14.8804,-4.45573,68.9886
2023-03-14 16:30:41:596,-0.722021,2.5507,-9.44583,-14.8686,-4.48099,69.0023
2023-03-14 16:30:41:606,-0.687973,2.53354,-9.45722,-14.8514,-4.51018,69.0178
2023-03-14 16:30:41:616,-0.653007,2.49321,-9.44927,-14.8296,-4.53584,69.0304
2023-03-14 16:30:41:626,-0.679272,2.4575,-9.43177,-14.8037,-4.56077,69.051
2023-03-14 16:30:41:636,-0.715849,2.44146,-9.42068,-14.7765,-4.58372,69.0741
2023-03-14 16:30:41:645,-0.708943,2.43684,-9.44817,-14.7505,-4.60158,69.0984
2023-03-14 16:30:41:656,-0.704957,2.41915,-9.42474,-14.7234,-4.61962,69.1236
2023-03-14 16:30:41:666,-0.769148,2.40299,-9.39558,-14.6969,-4.63615,69.1472
2023-03-14 16:30:41:676,-0.803804,2.40257,-9.40626,-14.6733,-4.64875,69.1736
2023-03-14 16:30:41:686,-0.785401,2.40659,-9.42652,-14.6474,-4.66114,69.197
2023-03-14 16:30:41:696,-0.743528,2.40698,-9.43037,-14.6254,-4.67029,69.2184
2023-03-14 16:30:41:706,-0.713811,2.39445,-9.43475,-14.6042,-4.67307,69.2379
2023-03-14 16:30:41:716,-0.692094,2.39205,-9.4365,-14.5869,-4.67219,69.257
2023-03-14 16:30:41:726,-0.696845,2.39212,-9.42632,-14.5705,-4.67418,69.2803
2023-03-14 16:30:41:736,-0.721976,2.37554,-9.41266,-14.5494,-4.67698,69.3062
2023-03-14 16:30:41:746,-0.751948,2.3512,-9.40768,-14.5285,-4.68379,69.3334
2023-03-14 16:30:41:756,-0.776043,2.35283,-9.39145,-14.5122,-4.69026,69.3628
2023-03-14 16:30:41:766,-0.813526,2.36501,-9.35914,-14.5034,-4.69934,69.3939
2023-03-14 16:30:41:776,-0.845118,2.37325,-9.33921,-14.4957,-4.70921,69.4243
2023-03-14 16:30:41:786,-0.852979,2.38029,-9.33073,-14.4971,-4.71831,69.4497
2023-03-14 16:30:41:796,-0.850211,2.39652,-9.34561,-14.4992,-4.72936,69.4748
2023-03-14 16:30:41:806,-0.867294,2.42537,-9.35767,-14.5029,-4.74064,69.4932
2023-03-14 16:30:41:816,-0.886755,2.44633,-9.38329,-14.5094,-4.74801,69.5055
2023-03-14 16:30:41:826,-0.90192,2.44699,-9.39945,-14.5158,-4.75485,69.5117
2023-03-14 16:30:41:836,-0.903207,2.45343,-9.43842,-14.5127,-4.76662,69.5126
2023-03-14 16:30:41:846,-0.91968,2.4432,-9.48925,-14.5142,-4.77968,69.5118
2023-03-14 16:30:41:856,-0.943573,2.43559,-9.51886,-14.5122,-4.79568,69.5031
2023-03-14 16:30:41:866,-0.942142,2.41701,-9.54783,-14.5026,-4.81586,69.4884
2023-03-14 16:30:41:876,-0.911765,2.41328,-9.5754,-14.4924,-4.83912,69.4658
2023-03-14 16:30:41:886,-0.890827,2.40783,-9.55499,-14.477,-4.86544,69.437
2023-03-14 16:30:41:896,-0.910469,2.36846,-9.50362,-14.4543,-4.89809,69.4083
2023-03-14 16:30:41:906,-0.922663,2.35868,-9.44087,-14.43,-4.93435,69.3744
2023-03-14 16:30:41:916,-0.910312,2.34141,-9.38434,-14.4078,-4.96441,69.3415
2023-03-14 16:30:41:926,-0.868849,2.34107,-9.36765,-14.3892,-4.9864,69.3069
2023-03-14 16:30:41:936,-0.805014,2.34334,-9.3581,-14.3736,-5.00016,69.275
2023-03-14 16:30:41:946,-0.75409,2.34944,-9.35039,-14.36,-5.00573,69.249
2023-03-14 16:30:41:956,-0.732654,2.35456,-9.35193,-14.3505,-5.00213,69.2258
2023-03-14 16:30:41:966,-0.728503,2.3659,-9.37906,-14.3495,-4.99759,69.2127
2023-03-14 16:30:41:976,-0.73965,2.3768,-9.39896,-14.3503,-4.98918,69.2057
2023-03-14 16:30:41:986,-0.76324,2.38201,-9.40848,-14.3522,-4.97304,69.2078
2023-03-14 16:30:41:996,-0.777202,2.40494,-9.42801,-14.3594,-4.95539,69.2157
2023-03-14 16:30:42:6,-0.796212,2.42305,-9.43829,-14.3695,-4.93694,69.2291
2023-03-14 16:30:42:16,-0.818889,2.44021,-9.46743,-14.3761,-4.91738,69.242
2023-03-14 16:30:42:26,-0.855056,2.45619,-9.49416,-14.379,-4.89645,69.2617
2023-03-14 16:30:42:36,-0.877641,2.44594,-9.49039,-14.3804,-4.88034,69.2763
2023-03-14 16:30:42:46,-0.894953,2.43939,-9.4763,-14.3775,-4.86174,69.2906
2023-03-14 16:30:42:56,-0.900925,2.44798,-9.49429,-14.3755,-4.8456,69.2996
2023-03-14 16:30:42:66,-0.869862,2.44615,-9.51546,-14.3681,-4.83601,69.3023
2023-03-14 16:30:42:76,-0.847199,2.41373,-9.48965,-14.3545,-4.83205,69.2978
2023-03-14 16:30:42:86,-0.825967,2.36199,-9.41316,-14.3415,-4.83104,69.2908
2023-03-14 16:30:42:96,-0.802502,2.32415,-9.36087,-14.3322,-4.8293,69.282
2023-03-14 16:30:42:106,-0.779152,2.33759,-9.36695,-14.3266,-4.83021,69.2716
2023-03-14 16:30:42:116,-0.776275,2.36611,-9.41175,-14.327,-4.8289,69.2627
2023-03-14 16:30:42:126,-0.773448,2.38104,-9.42996,-14.3278,-4.83052,69.2553
2023-03-14 16:30:42:136,-0.780401,2.39447,-9.43498,-14.3297,-4.82526,69.2539
2023-03-14 16:30:42:146,-0.804401,2.4078,-9.44982,-14.3315,-4.81538,69.2551
2023-03-14 16:30:42:156,-0.81296,2.40721,-9.45427,-14.3344,-4.80452,69.2577
2023-03-14 16:30:42:166,-0.83012,2.41128,-9.46579,-14.3365,-4.7988,69.2624
2023-03-14 16:30:42:176,-0.83786,2.42529,-9.45677,-14.3379,-4.79153,69.268
2023-03-14 16:30:42:186,-0.857631,2.43115,-9.46041,-14.3406,-4.78263,69.2759
2023-03-14 16:30:42:196,-0.877979,2.43284,-9.44855,-14.3402,-4.77601,69.2831
2023-03-14 16:30:42:206,-0.892995,2.42286,-9.42139,-14.3419,-4.77009,69.2906
2023-03-14 16:30:42:216,-0.920445,2.41823,-9.41678,-14.3394,-4.76358,69.2953
2023-03-14 16:30:42:226,-0.936609,2.42847,-9.41975,-14.3399,-4.75818,69.2958
2023-03-14 16:30:42:235,-0.960457,2.43407,-9.42042,-14.3371,-4.74947,69.2923
2023-03-14 16:30:42:246,-0.95862,2.42269,-9.40967,-14.3348,-4.74021,69.2833
2023-03-14 16:30:42:256,-0.930717,2.40946,-9.39968,-14.3333,-4.72518,69.2728
2023-03-14 16:30:42:266,-0.886859,2.42103,-9.43062,-14.3346,-4.70601,69.2569
2023-03-14 16:30:42:275,-0.84184,2.44223,-9.46975,-14.3327,-4.68987,69.2346
2023-03-14 16:30:42:286,-0.812635,2.43813,-9.47239,-14.3257,-4.67187,69.2097
2023-03-14 16:30:42:296,-0.786625,2.40906,-9.47056,-14.3149,-4.64929,69.1836
2023-03-14 16:30:42:306,-0.717887,2.41616,-9.47846,-14.3068,-4.6246,69.1595
2023-03-14 16:30:42:316,-0.636359,2.40786,-9.48924,-14.2981,-4.59995,69.1385
2023-03-14 16:30:42:326,-0.632881,2.38393,-9.46336,-14.2887,-4.58023,69.1198
2023-03-14 16:30:42:335,-0.667749,2.38775,-9.44402,-14.2784,-4.56101,69.1067
2023-03-14 16:30:42:345,-0.678211,2.40065,-9.43432,-14.2689,-4.54251,69.0989
2023-03-14 16:30:42:355,-0.686359,2.40554,-9.43345,-14.2604,-4.52426,69.0945
2023-03-14 16:30:42:366,-0.701278,2.41397,-9.44282,-14.2519,-4.50538,69.0906
2023-03-14 16:30:42:376,-0.719209,2.43082,-9.4497,-14.2459,-4.48286,69.086
2023-03-14 16:30:42:386,-0.729149,2.43511,-9.46358,-14.236,-4.46064,69.0838
2023-03-14 16:30:42:396,-0.735791,2.44282,-9.46307,-14.2297,-4.43817,69.0804
2023-03-14 16:30:42:406,-0.724062,2.44918,-9.46988,-14.2224,-4.42272,69.0757
2023-03-14 16:30:42:416,-0.705584,2.43706,-9.47317,-14.2152,-4.40919,69.0691
2023-03-14 16:30:42:426,-0.711364,2.40425,-9.45518,-14.2044,-4.39765,69.0617
2023-03-14 16:30:42:435,-0.692676,2.38581,-9.42347,-14.1923,-4.38933,69.0535
2023-03-14 16:30:42:446,-0.663807,2.37606,-9.42152,-14.1825,-4.38437,69.0448
2023-03-14 16:30:42:456,-0.660701,2.38944,-9.40295,-14.1748,-4.38194,69.0354
2023-03-14 16:30:42:466,-0.667821,2.38165,-9.39351,-14.1705,-4.376,69.0305
2023-03-14 16:30:42:476,-0.653745,2.36253,-9.39891,-14.1672,-4.37333,69.0281
2023-03-14 16:30:42:486,-0.667534,2.38855,-9.40239,-14.1677,-4.37414,69.0289
2023-03-14 16:30:42:496,-0.670857,2.40514,-9.42501,-14.1737,-4.37371,69.0323
2023-03-14 16:30:42:506,-0.670783,2.40851,-9.45586,-14.182,-4.37543,69.0391
2023-03-14 16:30:42:516,-0.690934,2.40796,-9.46279,-14.1875,-4.37874,69.0489
2023-03-14 16:30:42:526,-0.708758,2.41073,-9.44509,-14.1913,-4.38306,69.0642
2023-03-14 16:30:42:536,-0.731333,2.41075,-9.44152,-14.2005,-4.38615,69.0808
2023-03-14 16:30:42:546,-0.728164,2.41829,-9.43096,-14.2086,-4.38569,69.0946
2023-03-14 16:30:42:556,-0.732698,2.4256,-9.4286,-14.2168,-4.38746,69.1099
2023-03-14 16:30:42:566,-0.737046,2.44802,-9.42153,-14.2252,-4.38717,69.1271
2023-03-14 16:30:42:576,-0.745883,2.44132,-9.43698,-14.2356,-4.38624,69.145
2023-03-14 16:30:42:586,-0.783514,2.45399,-9.43608,-14.2442,-4.38748,69.1623
2023-03-14 16:30:42:596,-0.791433,2.46839,-9.43949,-14.2518,-4.38563,69.1766
2023-03-14 16:30:42:606,-0.785478,2.47468,-9.44461,-14.2613,-4.38199,69.1919
2023-03-14 16:30:42:616,-0.783603,2.47373,-9.45322,-14.2659,-4.37565,69.2042
2023-03-14 16:30:42:625,-0.771709,2.45889,-9.44532,-14.271,-4.36922,69.2148
2023-03-14 16:30:42:636,-0.761987,2.46026,-9.44486,-14.2733,-4.36116,69.2217
2023-03-14 16:30:42:646,-0.736304,2.44383,-9.44472,-14.2728,-4.35481,69.2245
2023-03-14 16:30:42:656,-0.707266,2.42643,-9.43658,-14.2753,-4.34657,69.225
2023-03-14 16:30:42:666,-0.691499,2.43702,-9.43801,-14.2772,-4.34208,69.2242
2023-03-14 16:30:42:676,-0.674464,2.44071,-9.44836,-14.2819,-4.33956,69.2206
2023-03-14 16:30:42:686,-0.672275,2.43403,-9.44096,-14.2848,-4.33545,69.2226
2023-03-14 16:30:42:696,-0.67652,2.4514,-9.43435,-14.2848,-4.33449,69.2222
2023-03-14 16:30:42:706,-0.682699,2.45698,-9.42782,-14.2891,-4.33317,69.2238
2023-03-14 16:30:42:715,-0.689605,2.46674,-9.43973,-14.2939,-4.33097,69.2253
2023-03-14 16:30:42:726,-0.696909,2.46529,-9.44995,-14.2946,-4.3291,69.2277
2023-03-14 16:30:42:736,-0.702253,2.4588,-9.46049,-14.2967,-4.32733,69.2326
2023-03-14 16:30:42:745,-0.711336,2.45742,-9.4832,-14.3007,-4.3241,69.2352
2023-03-14 16:30:42:756,-0.722064,2.47634,-9.49317,-14.3073,-4.32429,69.2393
2023-03-14 16:30:42:766,-0.745652,2.48509,-9.48915,-14.3068,-4.3303,69.2425
2023-03-14 16:30:42:776,-0.756659,2.47921,-9.49266,-14.3056,-4.33785,69.2471
2023-03-14 16:30:42:786,-0.748901,2.47352,-9.49214,-14.3032,-4.34348,69.2473
2023-03-14 16:30:42:796,-0.757778,2.4631,-9.4713,-14.2977,-4.35186,69.2453
2023-03-14 16:30:42:806,-0.76017,2.44383,-9.47458,-14.2846,-4.36044,69.2419
2023-03-14 16:30:42:816,-0.755917,2.421,-9.47306,-14.2764,-4.36515,69.2394
2023-03-14 16:30:42:825,-0.745753,2.41707,-9.4836,-14.266,-4.37075,69.2361
2023-03-14 16:30:42:836,-0.740112,2.41129,-9.47633,-14.2536,-4.37762,69.231
2023-03-14 16:30:42:845,-0.723277,2.37365,-9.46058,-14.2383,-4.385,69.2227
2023-03-14 16:30:42:855,-0.746733,2.36464,-9.4318,-14.2239,-4.39124,69.2203
2023-03-14 16:30:42:866,-0.766657,2.36971,-9.43511,-14.2138,-4.39917,69.2165
2023-03-14 16:30:42:875,-0.795288,2.37517,-9.44176,-14.2065,-4.40554,69.2096
2023-03-14 16:30:42:886,-0.791016,2.39286,-9.4354,-14.2007,-4.40686,69.2076
2023-03-14 16:30:42:896,-0.783403,2.39322,-9.45082,-14.1938,-4.40819,69.2017
2023-03-14 16:30:42:906,-0.774069,2.39073,-9.45124,-14.1867,-4.40727,69.1959
2023-03-14 16:30:42:916,-0.755133,2.38174,-9.4548,-14.1797,-4.40462,69.19
2023-03-14 16:30:42:926,-0.747204,2.37769,-9.42962,-14.1726,-4.40657,69.1859
2023-03-14 16:30:42:936,-0.744132,2.36893,-9.40242,-14.163,-4.40709,69.1795
2023-03-14 16:30:42:946,-0.741207,2.36768,-9.38768,-14.1575,-4.40832,69.1729
2023-03-14 16:30:42:956,-0.735469,2.37109,-9.39278,-14.1513,-4.40872,69.1669
2023-03-14 16:30:42:966,-0.736184,2.35448,-9.39391,-14.1487,-4.40584,69.1601
2023-03-14 16:30:42:976,-0.720276,2.33995,-9.38718,-14.1399,-4.40543,69.1542
2023-03-14 16:30:42:986,-0.729482,2.33724,-9.40583,-14.1335,-4.40405,69.15
2023-03-14 16:30:42:996,-0.732653,2.34639,-9.42434,-14.1307,-4.40022,69.1479
2023-03-14 16:30:43:5,-0.743373,2.34659,-9.43876,-14.1318,-4.39571,69.1493
2023-03-14 16:30:43:16,-0.763073,2.3553,-9.46254,-14.1336,-4.39169,69.1483
2023-03-14 16:30:43:26,-0.763337,2.36786,-9.4557,-14.1399,-4.38746,69.1474
2023-03-14 16:30:43:36,-0.768115,2.37089,-9.44658,-14.1435,-4.38648,69.1471
2023-03-14 16:30:43:46,-0.810807,2.37363,-9.44241,-14.1505,-4.38339,69.1482
2023-03-14 16:30:43:56,-0.830878,2.36317,-9.43534,-14.1527,-4.37671,69.147
2023-03-14 16:30:43:66,-0.831907,2.37562,-9.44431,-14.1585,-4.36956,69.1424
2023-03-14 16:30:43:76,-0.768159,2.36866,-9.47627,-14.164,-4.35567,69.1338
2023-03-14 16:30:43:86,-0.687596,2.33609,-9.45292,-14.1644,-4.34522,69.1194
2023-03-14 16:30:43:96,-0.648278,2.31417,-9.40656,-14.17,-4.33939,69.1031
2023-03-14 16:30:43:106,-0.618262,2.32075,-9.39879,-14.1796,-4.33235,69.086
2023-03-14 16:30:43:116,-0.633053,2.34638,-9.43139,-14.1947,-4.33382,69.0714
2023-03-14 16:30:43:126,-0.664545,2.39779,-9.44844,-14.2113,-4.33523,69.0589
2023-03-14 16:30:43:136,-0.682105,2.44291,-9.47956,-14.2312,-4.34103,69.0512
2023-03-14 16:30:43:146,-0.679393,2.46127,-9.51052,-14.2507,-4.347,69.0413
2023-03-14 16:30:43:156,-0.696484,2.47469,-9.51626,-14.2674,-4.3533,69.036
2023-03-14 16:30:43:166,-0.70811,2.49207,-9.51761,-14.2834,-4.35869,69.0306
2023-03-14 16:30:43:176,-0.712199,2.48642,-9.53247,-14.295,-4.36311,69.0272
2023-03-14 16:30:43:186,-0.727405,2.48836,-9.50951,-14.3035,-4.36944,69.0251
2023-03-14 16:30:43:196,-0.727225,2.48202,-9.4685,-14.3066,-4.37577,69.0263
2023-03-14 16:30:43:206,-0.742137,2.45787,-9.45962,-14.3076,-4.3806,69.0276
2023-03-14 16:30:43:216,-0.738512,2.46417,-9.46504,-14.3094,-4.38934,69.0261
2023-03-14 16:30:43:225,-0.749431,2.45853,-9.4666,-14.3088,-4.39467,69.0258
2023-03-14 16:30:43:236,-0.753078,2.44326,-9.45132,-14.3063,-4.39943,69.0252
2023-03-14 16:30:43:245,-0.746479,2.43723,-9.4331,-14.302,-4.40388,69.0275
2023-03-14 16:30:43:256,-0.755589,2.44873,-9.44848,-14.2975,-4.40745,69.0254
2023-03-14 16:30:43:266,-0.767536,2.45109,-9.47425,-14.2916,-4.4091,69.0283
2023-03-14 16:30:43:276,-0.768878,2.43053,-9.49986,-14.2876,-4.40925,69.0271
2023-03-14 16:30:43:286,-0.759522,2.43137,-9.49574,-14.2768,-4.40727,69.0245
2023-03-14 16:30:43:295,-0.743719,2.42247,-9.47672,-14.2682,-4.40754,69.0202
2023-03-14 16:30:43:306,-0.735361,2.40101,-9.47344,-14.2574,-4.40455,69.0157
2023-03-14 16:30:43:316,-0.70421,2.38565,-9.46062,-14.2487,-4.40305,69.0113
2023-03-14 16:30:43:326,-0.678985,2.39629,-9.44463,-14.2392,-4.39944,69.0103
2023-03-14 16:30:43:336,-0.652339,2.37865,-9.44539,-14.2291,-4.40275,69.0079
2023-03-14 16:30:43:346,-0.630218,2.36002,-9.45088,-14.2168,-4.40705,69.0058
2023-03-14 16:30:43:355,-0.616837,2.35328,-9.44157,-14.2051,-4.41197,69.0068
2023-03-14 16:30:43:366,-0.612856,2.32849,-9.44539,-14.1968,-4.42287,69.0099
2023-03-14 16:30:43:376,-0.636545,2.32093,-9.4356,-14.1894,-4.43595,69.0171
2023-03-14 16:30:43:386,-0.67655,2.32541,-9.4146,-14.184,-4.45002,69.0263
2023-03-14 16:30:43:396,-0.724655,2.32255,-9.40783,-14.1823,-4.46696,69.0399
2023-03-14 16:30:43:406,-0.748288,2.3174,-9.38841,-14.1798,-4.48823,69.0543
2023-03-14 16:30:43:416,-0.773899,2.31793,-9.37045,-14.1811,-4.5063,69.0711
2023-03-14 16:30:43:426,-0.811821,2.32545,-9.36977,-14.1809,-4.52335,69.0875
2023-03-14 16:30:43:436,-0.820784,2.33341,-9.35656,-14.1862,-4.53726,69.1013
2023-03-14 16:30:43:445,-0.823253,2.33407,-9.36368,-14.1964,-4.54533,69.1178
2023-03-14 16:30:43:456,-0.813068,2.36581,-9.39625,-14.2129,-4.55502,69.1312
2023-03-14 16:30:43:466,-0.813192,2.3973,-9.43009,-14.2315,-4.56013,69.142
2023-03-14 16:30:43:476,-0.819454,2.41529,-9.44618,-14.2486,-4.564,69.1495
2023-03-14 16:30:43:485,-0.8483,2.43369,-9.46983,-14.2647,-4.56682,69.1585
2023-03-14 16:30:43:496,-0.856461,2.45896,-9.49836,-14.2818,-4.56794,69.1657
2023-03-14 16:30:43:506,-0.870985,2.48141,-9.5075,-14.2968,-4.56727,69.1724
2023-03-14 16:30:43:516,-0.855939,2.4716,-9.49218,-14.3068,-4.56411,69.1737
2023-03-14 16:30:43:526,-0.83531,2.45068,-9.47175,-14.3181,-4.56179,69.1701
2023-03-14 16:30:43:536,-0.842149,2.46053,-9.45259,-14.322,-4.55538,69.1632
2023-03-14 16:30:43:546,-0.813042,2.47311,-9.4545,-14.3273,-4.54682,69.1552
2023-03-14 16:30:43:556,-0.77748,2.46321,-9.46139,-14.3283,-4.53944,69.1462
2023-03-14 16:30:43:565,-0.750431,2.45067,-9.45682,-14.3254,-4.53267,69.1368
2023-03-14 16:30:43:576,-0.733825,2.44143,-9.47123,-14.3216,-4.52456,69.1294
2023-03-14 16:30:43:586,-0.709995,2.43565,-9.50521,-14.3188,-4.52055,69.1215
2023-03-14 16:30:43:596,-0.693263,2.43258,-9.52931,-14.3163,-4.5119,69.1162
2023-03-14 16:30:43:606,-0.681333,2.4227,-9.51234,-14.3132,-4.50731,69.1134
2023-03-14 16:30:43:616,-0.701574,2.39022,-9.4597,-14.3049,-4.50573,69.1077
2023-03-14 16:30:43:626,-0.75885,2.37788,-9.4149,-14.3005,-4.49898,69.1097
2023-03-14 16:30:43:636,-0.806422,2.40411,-9.43036,-14.3012,-4.49765,69.1111
2023-03-14 16:30:43:646,-0.826087,2.43447,-9.45392,-14.3042,-4.49618,69.1086
2023-03-14 16:30:43:656,-0.810895,2.45432,-9.43851,-14.3059,-4.49352,69.1078
2023-03-14 16:30:43:666,-0.784326,2.44872,-9.42781,-14.3094,-4.4886,69.1067
2023-03-14 16:30:43:676,-0.777289,2.46538,-9.41928,-14.3143,-4.48289,69.1018
2023-03-14 16:30:43:686,-0.773757,2.47385,-9.42398,-14.3168,-4.47807,69.0971
2023-03-14 16:30:43:696,-0.770399,2.47592,-9.43596,-14.3146,-4.47032,69.0913
2023-03-14 16:30:43:706,-0.763017,2.46526,-9.42551,-14.3137,-4.46124,69.0888
2023-03-14 16:30:43:716,-0.751758,2.43671,-9.41697,-14.3092,-4.45315,69.0807
2023-03-14 16:30:43:726,-0.721008,2.42902,-9.40857,-14.3076,-4.4488,69.0703
2023-03-14 16:30:43:736,-0.699662,2.41581,-9.41619,-14.302,-4.44192,69.0588
2023-03-14 16:30:43:746,-0.69552,2.40762,-9.43924,-14.2932,-4.43641,69.0509
2023-03-14 16:30:43:756,-0.684391,2.41386,-9.4626,-14.2874,-4.43015,69.0438
2023-03-14 16:30:43:766,-0.684872,2.40756,-9.48975,-14.2811,-4.42374,69.0384
2023-03-14 16:30:43:776,-0.694663,2.40968,-9.47367,-14.279,-4.41985,69.0345
2023-03-14 16:30:43:786,-0.703768,2.41717,-9.44797,-14.2771,-4.4143,69.0278
2023-03-14 16:30:43:796,-0.71055,2.39447,-9.43845,-14.2748,-4.41134,69.0219
2023-03-14 16:30:43:806,-0.736138,2.40705,-9.42899,-14.2721,-4.40824,69.0201
2023-03-14 16:30:43:816,-0.772578,2.41282,-9.42564,-14.2688,-4.40462,69.0204
2023-03-14 16:30:43:826,-0.792964,2.39245,-9.43653,-14.2691,-4.39981,69.0214
2023-03-14 16:30:43:836,-0.765882,2.41155,-9.46734,-14.2683,-4.39326,69.0196
2023-03-14 16:30:43:845,-0.704701,2.4209,-9.48466,-14.2668,-4.38667,69.0139
2023-03-14 16:30:43:856,-0.694609,2.39739,-9.46647,-14.2632,-4.38536,69.0081
2023-03-14 16:30:43:866,-0.733142,2.38229,-9.43604,-14.2598,-4.38605,69.0057
2023-03-14 16:30:43:875,-0.761492,2.40248,-9.44705,-14.2581,-4.38654,69.0048
2023-03-14 16:30:43:885,-0.76009,2.4159,-9.47448,-14.2574,-4.38633,69.0042
2023-03-14 16:30:43:896,-0.738963,2.42371,-9.47092,-14.2544,-4.38218,69.0011
2023-03-14 16:30:43:906,-0.706525,2.40746,-9.45949,-14.2511,-4.37628,68.9971
2023-03-14 16:30:43:916,-0.712655,2.39397,-9.44061,-14.2502,-4.37252,68.9967
2023-03-14 16:30:43:926,-0.72601,2.39316,-9.43106,-14.2453,-4.37092,68.9949
2023-03-14 16:30:43:936,-0.73088,2.39102,-9.42734,-14.2381,-4.36714,68.9957
2023-03-14 16:30:43:946,-0.73434,2.38843,-9.41943,-14.2309,-4.36244,69.0009
2023-03-14 16:30:43:956,-0.724638,2.37357,-9.42513,-14.2274,-4.35808,69.0038
2023-03-14 16:30:43:966,-0.731986,2.37805,-9.41566,-14.2224,-4.35126,69.0061
2023-03-14 16:30:43:976,-0.720495,2.38336,-9.42376,-14.2192,-4.34621,69.0109
2023-03-14 16:30:43:986,-0.716224,2.37981,-9.43694,-14.2167,-4.34007,69.0135
2023-03-14 16:30:43:996,-0.719416,2.36466,-9.45712,-14.2164,-4.33644,69.0153
2023-03-14 16:30:44:5,-0.714936,2.38159,-9.45644,-14.2147,-4.33306,69.018
2023-03-14 16:30:44:15,-0.7211,2.39508,-9.46293,-14.2187,-4.33251,69.0183
2023-03-14 16:30:44:26,-0.728254,2.40483,-9.48807,-14.2197,-4.33476,69.019
2023-03-14 16:30:44:35,-0.726134,2.41356,-9.50899,-14.2217,-4.33398,69.0181
2023-03-14 16:30:44:45,-0.715661,2.42624,-9.50705,-14.2253,-4.33477,69.02
2023-03-14 16:30:44:56,-0.716834,2.42476,-9.48188,-14.2255,-4.33712,69.0229
2023-03-14 16:30:44:66,-0.730749,2.40395,-9.46669,-14.2243,-4.33961,69.0263
2023-03-14 16:30:44:76,-0.728925,2.40675,-9.46738,-14.2223,-4.33892,69.0276
2023-03-14 16:30:44:86,-0.746013,2.42357,-9.45827,-14.2225,-4.33764,69.0271
2023-03-14 16:30:44:96,-0.751562,2.43808,-9.46746,-14.2238,-4.33551,69.0305
2023-03-14 16:30:44:106,-0.761478,2.43191,-9.48704,-14.2215,-4.33285,69.0315
2023-03-14 16:30:44:116,-0.754455,2.4363,-9.49071,-14.219,-4.33049,69.0311
2023-03-14 16:30:44:126,-0.745596,2.41808,-9.48325,-14.2107,-4.32806,69.0303
2023-03-14 16:30:44:136,-0.729638,2.41967,-9.45469,-14.2022,-4.32497,69.028
2023-03-14 16:30:44:146,-0.719834,2.4012,-9.44951,-14.191,-4.32385,69.0229
2023-03-14 16:30:44:156,-0.697457,2.39671,-9.4403,-14.1797,-4.32463,69.0193
2023-03-14 16:30:44:166,-0.669008,2.36686,-9.41367,-14.1645,-4.32497,69.0149
2023-03-14 16:30:44:176,-0.654125,2.34244,-9.40088,-14.1519,-4.32808,69.0096
2023-03-14 16:30:44:186,-0.665844,2.346,-9.39582,-14.1464,-4.32786,69.0056
2023-03-14 16:30:44:196,-0.663935,2.35695,-9.41018,-14.1428,-4.33201,69.0042
2023-03-14 16:30:44:206,-0.66477,2.36594,-9.45087,-14.1443,-4.3397,69.0018
2023-03-14 16:30:44:216,-0.67312,2.37989,-9.45954,-14.1437,-4.34348,69.0051
2023-03-14 16:30:44:226,-0.678549,2.37893,-9.45526,-14.1426,-4.3478,69.0134
2023-03-14 16:30:44:236,-0.678551,2.39296,-9.4435,-14.1435,-4.35095,69.0179
2023-03-14 16:30:44:246,-0.684839,2.3986,-9.46205,-14.1438,-4.35418,69.0241
2023-03-14 16:30:44:256,-0.693635,2.40033,-9.48672,-14.1445,-4.35732,69.0333
2023-03-14 16:30:44:266,-0.714515,2.39849,-9.4835,-14.1442,-4.36317,69.0466
2023-03-14 16:30:44:276,-0.725748,2.39658,-9.47087,-14.1424,-4.37039,69.0582
2023-03-14 16:30:44:286,-0.724871,2.38616,-9.48089,-14.1408,-4.37473,69.0687
2023-03-14 16:30:44:296,-0.747404,2.38727,-9.4822,-14.1389,-4.38304,69.0775
2023-03-14 16:30:44:306,-0.750126,2.38648,-9.48006,-14.1347,-4.38992,69.087
2023-03-14 16:30:44:316,-0.756235,2.38914,-9.47806,-14.1304,-4.39495,69.093
2023-03-14 16:30:44:326,-0.761275,2.3965,-9.47918,-14.122,-4.40032,69.0962
2023-03-14 16:30:44:336,-0.756458,2.37424,-9.46581,-14.1127,-4.40184,69.1
2023-03-14 16:30:44:346,-0.741522,2.36325,-9.47817,-14.1043,-4.40581,69.1051
2023-03-14 16:30:44:356,-0.718673,2.36203,-9.51216,-14.0987,-4.40633,69.1086
2023-03-14 16:30:44:366,-0.694907,2.34313,-9.51085,-14.085,-4.40949,69.1113
2023-03-14 16:30:44:376,-0.698255,2.31996,-9.44983,-14.0715,-4.41249,69.1153
2023-03-14 16:30:44:385,-0.722408,2.30379,-9.42329,-14.0603,-4.41985,69.1189
2023-03-14 16:30:44:395,-0.736945,2.30946,-9.41635,-14.0512,-4.42653,69.1251
2023-03-14 16:30:44:406,-0.748577,2.31568,-9.43963,-14.0457,-4.4353,69.1312
2023-03-14 16:30:44:416,-0.758793,2.32723,-9.4296,-14.0463,-4.4428,69.1342
2023-03-14 16:30:44:426,-0.77376,2.33987,-9.42018,-14.0475,-4.45445,69.1349
2023-03-14 16:30:44:436,-0.748627,2.33637,-9.42878,-14.0492,-4.46562,69.137
2023-03-14 16:30:44:446,-0.768406,2.33234,-9.42011,-14.0503,-4.47478,69.1397
2023-03-14 16:30:44:456,-0.773139,2.33389,-9.39581,-14.0565,-4.4822,69.1389
2023-03-14 16:30:44:466,-0.775486,2.3297,-9.36728,-14.0614,-4.4849,69.1404
2023-03-14 16:30:44:476,-0.773248,2.33589,-9.3756,-14.0696,-4.48939,69.1385
2023-03-14 16:30:44:486,-0.763493,2.35228,-9.40273,-14.0804,-4.49677,69.1377
2023-03-14 16:30:44:496,-0.766455,2.36068,-9.42546,-14.0933,-4.50028,69.1329
2023-03-14 16:30:44:506,-0.773582,2.36965,-9.43607,-14.1046,-4.49849,69.1308
2023-03-14 16:30:44:516,-0.796727,2.40248,-9.4502,-14.1216,-4.49866,69.1306
2023-03-14 16:30:44:526,-0.80391,2.43544,-9.48023,-14.137,-4.49638,69.131
2023-03-14 16:30:44:536,-0.81873,2.43693,-9.50387,-14.1542,-4.49282,69.1274
2023-03-14 16:30:44:546,-0.805345,2.44061,-9.48511,-14.169,-4.48908,69.1198
2023-03-14 16:30:44:556,-0.792079,2.45063,-9.46558,-14.1777,-4.48747,69.1137
2023-03-14 16:30:44:566,-0.808974,2.45175,-9.46533,-14.1874,-4.48579,69.1101
2023-03-14 16:30:44:576,-0.814002,2.46258,-9.47345,-14.1965,-4.48208,69.1022
2023-03-14 16:30:44:586,-0.802222,2.46416,-9.489,-14.2064,-4.47886,69.0943
2023-03-14 16:30:44:596,-0.758522,2.47533,-9.49681,-14.2138,-4.47191,69.0843
2023-03-14 16:30:44:606,-0.706497,2.47349,-9.49986,-14.2187,-4.46645,69.0694
2023-03-14 16:30:44:616,-0.693768,2.46529,-9.4933,-14.2177,-4.45815,69.0569
2023-03-14 16:30:44:626,-0.730908,2.45255,-9.48035,-14.2201,-4.45598,69.0491
2023-03-14 16:30:44:635,-0.761556,2.44262,-9.46659,-14.223,-4.45411,69.0387
2023-03-14 16:30:44:646,-0.768253,2.43436,-9.46672,-14.2205,-4.45202,69.0322
2023-03-14 16:30:44:656,-0.759527,2.42279,-9.46002,-14.2158,-4.44615,69.0243
2023-03-14 16:30:44:666,-0.737114,2.41697,-9.4573,-14.2108,-4.43799,69.0166
2023-03-14 16:30:44:676,-0.735765,2.41873,-9.44653,-14.2051,-4.43288,69.0132
2023-03-14 16:30:44:686,-0.718561,2.40906,-9.43383,-14.2024,-4.42477,69.0061
2023-03-14 16:30:44:696,-0.721659,2.40798,-9.40864,-14.1994,-4.41735,69.0034
2023-03-14 16:30:44:706,-0.722028,2.38317,-9.38108,-14.1943,-4.40868,69.0013
2023-03-14 16:30:44:716,-0.719389,2.39114,-9.40899,-14.1957,-4.39873,69
2023-03-14 16:30:44:726,-0.72725,2.4101,-9.44438,-14.1989,-4.39405,68.9995
2023-03-14 16:30:44:736,-0.735133,2.41719,-9.42851,-14.1981,-4.38987,68.9961
2023-03-14 16:30:44:746,-0.718323,2.40833,-9.42515,-14.202,-4.38701,68.9908
2023-03-14 16:30:44:756,-0.695149,2.41455,-9.45099,-14.2079,-4.38628,68.9877
2023-03-14 16:30:44:766,-0.694241,2.42972,-9.50058,-14.2148,-4.38201,68.9837
2023-03-14 16:30:44:776,-0.69194,2.43331,-9.5128,-14.217,-4.38324,68.9814
2023-03-14 16:30:44:786,-0.682488,2.40707,-9.49678,-14.2152,-4.38694,68.9829
2023-03-14 16:30:44:796,-0.693197,2.3977,-9.47292,-14.2112,-4.3931,68.9848
2023-03-14 16:30:44:806,-0.700575,2.41201,-9.45782,-14.2078,-4.39891,68.9858
2023-03-14 16:30:44:816,-0.7022,2.40667,-9.45396,-14.2066,-4.405,68.9889
2023-03-14 16:30:44:826,-0.710182,2.3881,-9.43877,-14.2043,-4.4092,68.9963
2023-03-14 16:30:44:836,-0.728209,2.40108,-9.41828,-14.1996,-4.41297,69.007
2023-03-14 16:30:44:846,-0.746144,2.40107,-9.42969,-14.1986,-4.41944,69.0158
2023-03-14 16:30:44:856,-0.765133,2.40176,-9.44159,-14.1985,-4.42267,69.0279
2023-03-14 16:30:44:866,-0.788316,2.39955,-9.45733,-14.1971,-4.42611,69.0388
2023-03-14 16:30:44:876,-0.793794,2.41237,-9.45831,-14.1937,-4.43045,69.0479
2023-03-14 16:30:44:886,-0.784161,2.41574,-9.46816,-14.1919,-4.4327,69.0576
2023-03-14 16:30:44:895,-0.812144,2.42516,-9.48197,-14.1878,-4.43422,69.0639
2023-03-14 16:30:44:905,-0.810714,2.4195,-9.47814,-14.182,-4.43722,69.0673
2023-03-14 16:30:44:915,-0.79972,2.40028,-9.47588,-14.1773,-4.43984,69.0704
2023-03-14 16:30:44:926,-0.800001,2.41469,-9.45834,-14.1725,-4.43793,69.0703
2023-03-14 16:30:44:936,-0.792201,2.39937,-9.43846,-14.1644,-4.4388,69.0678
2023-03-14 16:30:44:946,-0.773615,2.38067,-9.43125,-14.1591,-4.4409,69.0623
2023-03-14 16:30:44:956,-0.765847,2.36823,-9.43517,-14.1532,-4.44248,69.0553
2023-03-14 16:30:44:966,-0.761688,2.37602,-9.432,-14.1457,-4.44103,69.0495
2023-03-14 16:30:44:976,-0.750489,2.37589,-9.42936,-14.1398,-4.44008,69.0417
2023-03-14 16:30:44:986,-0.738438,2.37563,-9.44287,-14.1393,-4.43555,69.0328
2023-03-14 16:30:44:996,-0.723324,2.37031,-9.44796,-14.1399,-4.43242,69.0251
2023-03-14 16:30:45:6,-0.728352,2.37017,-9.45383,-14.1375,-4.42637,69.0189
2023-03-14 16:30:45:16,-0.721113,2.38083,-9.45493,-14.1338,-4.42424,69.0096
2023-03-14 16:30:45:26,-0.71322,2.39407,-9.49712,-14.1323,-4.41881,69.0048
2023-03-14 16:30:45:36,-0.733381,2.40126,-9.49881,-14.1316,-4.41194,69.0027
2023-03-14 16:30:45:46,-0.726411,2.39237,-9.48764,-14.1238,-4.40689,68.9988
2023-03-14 16:30:45:56,-0.747165,2.4026,-9.46864,-14.1202,-4.39916,68.9951
2023-03-14 16:30:45:66,-0.760843,2.38767,-9.45991,-14.1129,-4.39268,68.9935
2023-03-14 16:30:45:76,-0.727391,2.38203,-9.46567,-14.1065,-4.38473,68.9883
2023-03-14 16:30:45:86,-0.714714,2.38096,-9.44973,-14.0965,-4.37591,68.9853
2023-03-14 16:30:45:96,-0.710066,2.35796,-9.44861,-14.0876,-4.37003,68.9795
2023-03-14 16:30:45:106,-0.702205,2.35874,-9.48391,-14.08,-4.36317,68.9742
2023-03-14 16:30:45:116,-0.6935,2.37084,-9.51523,-14.0713,-4.35764,68.9683
2023-03-14 16:30:45:126,-0.671017,2.34992,-9.51577,-14.0636,-4.35138,68.9629
2023-03-14 16:30:45:136,-0.639701,2.32883,-9.49683,-14.0548,-4.34914,68.9598
2023-03-14 16:30:45:146,-0.648338,2.31542,-9.46884,-14.0465,-4.35208,68.9564
2023-03-14 16:30:45:156,-0.677228,2.32863,-9.45919,-14.0414,-4.35273,68.9564
2023-03-14 16:30:45:166,-0.705846,2.34767,-9.47432,-14.0364,-4.35451,68.9603
2023-03-14 16:30:45:176,-0.694206,2.34579,-9.46819,-14.0361,-4.35638,68.9634
2023-03-14 16:30:45:186,-0.718443,2.33536,-9.43672,-14.0321,-4.35872,68.9638
2023-03-14 16:30:45:196,-0.709675,2.33877,-9.40136,-14.0269,-4.35873,68.9692
2023-03-14 16:30:45:206,-0.709884,2.32816,-9.38353,-14.0253,-4.36374,68.9726
2023-03-14 16:30:45:216,-0.706258,2.3355,-9.3879,-14.0266,-4.36649,68.9789
2023-03-14 16:30:45:226,-0.712559,2.34127,-9.41968,-14.0291,-4.36887,68.9788
2023-03-14 16:30:45:236,-0.701307,2.35868,-9.43855,-14.0315,-4.37204,68.98
2023-03-14 16:30:45:245,-0.704317,2.37236,-9.45304,-14.0348,-4.37674,68.9814
2023-03-14 16:30:45:256,-0.69707,2.38099,-9.45608,-14.0428,-4.37934,68.9808
2023-03-14 16:30:45:265,-0.722252,2.38001,-9.458,-14.0469,-4.37962,68.9816
2023-03-14 16:30:45:275,-0.747326,2.3596,-9.4733,-14.0509,-4.38398,68.985
2023-03-14 16:30:45:286,-0.763796,2.35986,-9.46981,-14.0529,-4.38449,68.9879
2023-03-14 16:30:45:296,-0.764147,2.35506,-9.47805,-14.0547,-4.38848,68.9902
2023-03-14 16:30:45:306,-0.772543,2.35341,-9.48429,-14.0584,-4.39369,68.9899
2023-03-14 16:30:45:316,-0.756041,2.3694,-9.49022,-14.0643,-4.39343,68.9882
2023-03-14 16:30:45:326,-0.750092,2.38338,-9.4768,-14.0682,-4.39189,68.9849
2023-03-14 16:30:45:336,-0.762532,2.38123,-9.46432,-14.0653,-4.38986,68.9816
2023-03-14 16:30:45:346,-0.775,2.373,-9.44922,-14.0668,-4.38743,68.9755
2023-03-14 16:30:45:356,-0.747312,2.37923,-9.46358,-14.0707,-4.38219,68.9685
2023-03-14 16:30:45:366,-0.675729,2.39111,-9.51786,-14.0753,-4.37735,68.9583
2023-03-14 16:30:45:376,-0.631948,2.39503,-9.52208,-14.0767,-4.37473,68.95
2023-03-14 16:30:45:386,-0.6652,2.39466,-9.49414,-14.0725,-4.37799,68.9404
2023-03-14 16:30:45:396,-0.711057,2.39054,-9.45573,-14.0683,-4.38215,68.937
2023-03-14 16:30:45:405,-0.726231,2.37797,-9.46249,-14.0688,-4.38676,68.9344
2023-03-14 16:30:45:416,-0.717617,2.37911,-9.45001,-14.0647,-4.39247,68.9309
2023-03-14 16:30:45:426,-0.691687,2.37425,-9.43849,-14.0622,-4.39175,68.9294
2023-03-14 16:30:45:436,-0.696843,2.35689,-9.42123,-14.0605,-4.39042,68.926
2023-03-14 16:30:45:446,-0.688741,2.34357,-9.40347,-14.061,-4.39209,68.9269
2023-03-14 16:30:45:456,-0.705046,2.3544,-9.40197,-14.0644,-4.39393,68.9307
2023-03-14 16:30:45:466,-0.714779,2.35487,-9.42298,-14.0701,-4.39541,68.9374
2023-03-14 16:30:45:476,-0.713212,2.36814,-9.41778,-14.0747,-4.39843,68.9433
2023-03-14 16:30:45:486,-0.718373,2.38118,-9.43054,-14.0808,-4.39949,68.9496
2023-03-14 16:30:45:496,-0.731112,2.38541,-9.45347,-14.0859,-4.40319,68.9586
2023-03-14 16:30:45:506,-0.743097,2.39452,-9.45672,-14.0932,-4.41199,68.9657
2023-03-14 16:30:45:516,-0.746837,2.39302,-9.47445,-14.1021,-4.41929,68.9709
2023-03-14 16:30:45:526,-0.743559,2.40599,-9.47657,-14.1101,-4.422,68.9768
2023-03-14 16:30:45:536,-0.726993,2.40824,-9.48666,-14.1158,-4.42927,68.9851
2023-03-14 16:30:45:546,-0.743864,2.40213,-9.47769,-14.1236,-4.43881,68.9941
2023-03-14 16:30:45:556,-0.754719,2.39382,-9.47412,-14.1252,-4.44756,68.9989
2023-03-14 16:30:45:566,-0.755062,2.41171,-9.47234,-14.129,-4.45621,69.0066
2023-03-14 16:30:45:576,-0.760374,2.42364,-9.48477,-14.1332,-4.46516,69.0146
2023-03-14 16:30:45:586,-0.776185,2.43108,-9.49584,-14.1358,-4.47294,69.0249
2023-03-14 16:30:45:596,-0.792104,2.43577,-9.49059,-14.1349,-4.47883,69.034
2023-03-14 16:30:45:606,-0.813741,2.42092,-9.47064,-14.1345,-4.48663,69.0385
2023-03-14 16:30:45:616,-0.804788,2.42095,-9.46692,-14.1329,-4.4937,69.0468
2023-03-14 16:30:45:626,-0.799778,2.42824,-9.46896,-14.1274,-4.4978,69.0531
2023-03-14 16:30:45:636,-0.802794,2.4102,-9.45731,-14.1206,-4.49961,69.057
2023-03-14 16:30:45:646,-0.80138,2.38921,-9.4353,-14.1147,-4.5052,69.059
2023-03-14 16:30:45:656,-0.7916,2.36772,-9.43612,-14.105,-4.51081,69.0617
2023-03-14 16:30:45:666,-0.789507,2.37958,-9.4362,-14.0957,-4.51525,69.0597
2023-03-14 16:30:45:676,-0.782118,2.37724,-9.43943,-14.0892,-4.52118,69.0592
2023-03-14 16:30:45:686,-0.767006,2.36337,-9.43018,-14.0841,-4.52546,69.0571
2023-03-14 16:30:45:696,-0.761693,2.35298,-9.41623,-14.0781,-4.52694,69.0538
2023-03-14 16:30:45:706,-0.765074,2.35417,-9.43803,-14.0752,-4.5277,69.0518
2023-03-14 16:30:45:716,-0.752052,2.36142,-9.46579,-14.0765,-4.53098,69.0502
2023-03-14 16:30:45:726,-0.750031,2.38095,-9.46916,-14.0767,-4.53362,69.0517
2023-03-14 16:30:45:736,-0.744197,2.3764,-9.45637,-14.0757,-4.53551,69.0531
2023-03-14 16:30:45:746,-0.757853,2.37174,-9.44736,-14.0731,-4.53976,69.0543
2023-03-14 16:30:45:756,-0.765494,2.38739,-9.44525,-14.0763,-4.54273,69.0592
2023-03-14 16:30:45:766,-0.757313,2.3893,-9.45768,-14.0753,-4.54534,69.0639
2023-03-14 16:30:45:776,-0.773905,2.37949,-9.48067,-14.0761,-4.54555,69.0712
2023-03-14 16:30:45:786,-0.79325,2.38855,-9.47881,-14.0697,-4.55068,69.0767
2023-03-14 16:30:45:796,-0.808015,2.3777,-9.48225,-14.0648,-4.55324,69.0816
2023-03-14 16:30:45:806,-0.812575,2.37666,-9.49202,-14.0628,-4.55408,69.0884
2023-03-14 16:30:45:816,-0.828359,2.37761,-9.47148,-14.0586,-4.55564,69.0902
2023-03-14 16:30:45:826,-0.828409,2.34813,-9.44804,-14.0497,-4.55557,69.0956
2023-03-14 16:30:45:836,-0.838081,2.3239,-9.43939,-14.0418,-4.55219,69.0999
2023-03-14 16:30:45:846,-0.823967,2.32854,-9.44126,-14.0362,-4.5509,69.1022
2023-03-14 16:30:45:856,-0.794791,2.35153,-9.44542,-14.0287,-4.54905,69.0981
2023-03-14 16:30:45:866,-0.780701,2.34695,-9.45828,-14.0248,-4.54382,69.0923
2023-03-14 16:30:45:876,-0.764598,2.33141,-9.45804,-14.0181,-4.54104,69.087
2023-03-14 16:30:45:886,-0.751034,2.32582,-9.46644,-14.0094,-4.53748,69.0824
2023-03-14 16:30:45:896,-0.725041,2.3297,-9.48385,-14.0014,-4.53102,69.0749
2023-03-14 16:30:45:906,-0.708287,2.32796,-9.4923,-13.9912,-4.53161,69.0679
2023-03-14 16:30:45:916,-0.681061,2.30617,-9.46115,-13.9819,-4.53348,69.0627
2023-03-14 16:30:45:925,-0.68148,2.28814,-9.42437,-13.9766,-4.53356,69.0618
2023-03-14 16:30:45:936,-0.713708,2.28968,-9.41968,-13.975,-4.54006,69.065
2023-03-14 16:30:45:946,-0.736961,2.31305,-9.44496,-13.9761,-4.5421,69.0713
2023-03-14 16:30:45:956,-0.755159,2.3452,-9.45337,-13.9806,-4.54583,69.0791
2023-03-14 16:30:45:966,-0.743993,2.35504,-9.44673,-13.9885,-4.54893,69.0888
2023-03-14 16:30:45:976,-0.76466,2.356,-9.44554,-13.9968,-4.55161,69.1007
2023-03-14 16:30:45:986,-0.781904,2.37725,-9.4436,-14.0042,-4.55298,69.1104
2023-03-14 16:30:45:996,-0.79225,2.3889,-9.43974,-14.0119,-4.55689,69.1214
2023-03-14 16:30:46:6,-0.827797,2.38985,-9.43961,-14.0175,-4.56002,69.1308
2023-03-14 16:30:46:16,-0.846816,2.38536,-9.43833,-14.0205,-4.56528,69.1374
2023-03-14 16:30:46:26,-0.844511,2.39954,-9.42942,-14.0248,-4.56961,69.145
2023-03-14 16:30:46:35,-0.827719,2.40001,-9.44226,-14.0307,-4.57157,69.1477
2023-03-14 16:30:46:45,-0.825268,2.39013,-9.44549,-14.0323,-4.57045,69.1511
2023-03-14 16:30:46:55,-0.83149,2.37904,-9.459,-14.034,-4.5683,69.1491
2023-03-14 16:30:46:65,-0.835429,2.38016,-9.4579,-14.0352,-4.56342,69.148
2023-03-14 16:30:46:75,-0.83029,2.37386,-9.45395,-14.0349,-4.56168,69.1412
2023-03-14 16:30:46:85,-0.812565,2.37254,-9.46071,-14.0361,-4.55421,69.1342
2023-03-14 16:30:46:95,-0.792372,2.36771,-9.45392,-14.036,-4.54788,69.1272
2023-03-14 16:30:46:105,-0.788991,2.36924,-9.46329,-14.0367,-4.54503,69.1229
2023-03-14 16:30:46:115,-0.79874,2.37818,-9.45747,-14.0417,-4.54041,69.115
2023-03-14 16:30:46:125,-0.803414,2.38623,-9.46331,-14.0437,-4.53193,69.1052
2023-03-14 16:30:46:136,-0.781691,2.39132,-9.4901,-14.0477,-4.52623,69.0967
2023-03-14 16:30:46:146,-0.729575,2.39133,-9.51263,-14.0518,-4.50988,69.0828
2023-03-14 16:30:46:156,-0.694654,2.38032,-9.49744,-14.0546,-4.50306,69.0698
2023-03-14 16:30:46:166,-0.696726,2.35873,-9.46923,-14.0534,-4.49583,69.0638
2023-03-14 16:30:46:176,-0.733387,2.36236,-9.46448,-14.0475,-4.49156,69.0584
2023-03-14 16:30:46:186,-0.763962,2.37088,-9.47013,-14.0475,-4.48853,69.0559
2023-03-14 16:30:46:196,-0.769176,2.38469,-9.46771,-14.0468,-4.48541,69.0533
2023-03-14 16:30:46:206,-0.744038,2.36643,-9.46634,-14.044,-4.47943,69.0495
2023-03-14 16:30:46:216,-0.731529,2.3593,-9.46692,-14.0401,-4.47239,69.0463
2023-03-14 16:30:46:226,-0.73021,2.35199,-9.46811,-14.0376,-4.46607,69.0428
2023-03-14 16:30:46:236,-0.729688,2.3501,-9.46414,-14.0299,-4.45797,69.0425
2023-03-14 16:30:46:246,-0.749728,2.35331,-9.44114,-14.028,-4.45142,69.0425
2023-03-14 16:30:46:255,-0.756828,2.3499,-9.43666,-14.025,-4.45249,69.0432
2023-03-14 16:30:46:265,-0.755025,2.34397,-9.42594,-14.0201,-4.44975,69.041
2023-03-14 16:30:46:275,-0.7442,2.33353,-9.42892,-14.017,-4.44826,69.0413
2023-03-14 16:30:46:285,-0.752868,2.33911,-9.44314,-14.0165,-4.44642,69.0382
2023-03-14 16:30:46:296,-0.747571,2.34014,-9.45505,-14.0154,-4.44615,69.0317
2023-03-14 16:30:46:306,-0.744524,2.35336,-9.46652,-14.0172,-4.4459,69.0264
2023-03-14 16:30:46:316,-0.744076,2.35768,-9.46735,-14.0218,-4.45091,69.0215
2023-03-14 16:30:46:326,-0.726054,2.33931,-9.44935,-14.0186,-4.45172,69.0173
2023-03-14 16:30:46:336,-0.716168,2.33689,-9.44124,-14.0199,-4.45634,69.0133
2023-03-14 16:30:46:346,-0.736842,2.3487,-9.46787,-14.0232,-4.46169,69.0065
2023-03-14 16:30:46:356,-0.74875,2.37579,-9.47892,-14.031,-4.46779,69.0071
2023-03-14 16:30:46:366,-0.7551,2.37305,-9.46926,-14.0358,-4.47217,69.0067
2023-03-14 16:30:46:376,-0.765578,2.37788,-9.45708,-14.0384,-4.47418,69.0076
2023-03-14 16:30:46:386,-0.764661,2.3871,-9.46688,-14.0442,-4.47397,69.0105
2023-03-14 16:30:46:396,-0.800871,2.40835,-9.48463,-14.0485,-4.47971,69.0149
2023-03-14 16:30:46:406,-0.80074,2.41849,-9.49028,-14.0535,-4.48239,69.0145
2023-03-14 16:30:46:416,-0.801932,2.41318,-9.47109,-14.0576,-4.4831,69.0144
2023-03-14 16:30:46:426,-0.812655,2.40065,-9.45305,-14.0541,-4.48183,69.0122
2023-03-14 16:30:46:435,-0.803251,2.38243,-9.44697,-14.0534,-4.48009,69.0105
2023-03-14 16:30:46:446,-0.793231,2.38126,-9.45292,-14.053,-4.47944,69.0055
2023-03-14 16:30:46:456,-0.796467,2.37939,-9.45628,-14.0467,-4.48082,68.9975
2023-03-14 16:30:46:466,-0.779761,2.36187,-9.45255,-14.0404,-4.48266,68.986
2023-03-14 16:30:46:476,-0.765367,2.36342,-9.44062,-14.0359,-4.48329,68.9754
2023-03-14 16:30:46:486,-0.769017,2.37629,-9.44543,-14.033,-4.48052,68.9648
2023-03-14 16:30:46:496,-0.761529,2.37193,-9.46919,-14.0355,-4.4774,68.9533
2023-03-14 16:30:46:506,-0.741709,2.36689,-9.46848,-14.0329,-4.47744,68.9424
2023-03-14 16:30:46:516,-0.739347,2.36467,-9.45542,-14.0299,-4.47464,68.9319
2023-03-14 16:30:46:526,-0.743921,2.36388,-9.44361,-14.0275,-4.47523,68.9168
2023-03-14 16:30:46:536,-0.740226,2.36702,-9.44212,-14.0269,-4.47522,68.9055
2023-03-14 16:30:46:546,-0.744968,2.35839,-9.43804,-14.0262,-4.4759,68.8984
2023-03-14 16:30:46:556,-0.750219,2.35546,-9.4331,-14.0273,-4.47346,68.89
2023-03-14 16:30:46:566,-0.756449,2.35462,-9.44919,-14.0288,-4.47664,68.8814
2023-03-14 16:30:46:576,-0.75048,2.36318,-9.47234,-14.0302,-4.47645,68.8727
2023-03-14 16:30:46:586,-0.757596,2.37781,-9.48687,-14.031,-4.4772,68.8662
2023-03-14 16:30:46:596,-0.764164,2.38259,-9.49031,-14.0314,-4.47853,68.8588
2023-03-14 16:30:46:606,-0.762099,2.37995,-9.46289,-14.0313,-4.47635,68.8498
2023-03-14 16:30:46:616,-0.77334,2.3827,-9.45887,-14.0309,-4.47773,68.8411
2023-03-14 16:30:46:625,-0.778225,2.37667,-9.47209,-14.0305,-4.47597,68.8332
2023-03-14 16:30:46:636,-0.769021,2.38163,-9.46337,-14.0333,-4.47419,68.8217
2023-03-14 16:30:46:645,-0.774625,2.36271,-9.45323,-14.0318,-4.47316,68.8092
2023-03-14 16:30:46:656,-0.765145,2.36472,-9.45294,-14.0274,-4.47188,68.8003
2023-03-14 16:30:46:665,-0.75177,2.36055,-9.46409,-14.0228,-4.46991,68.7879
2023-03-14 16:30:46:675,-0.744271,2.35928,-9.47333,-14.0203,-4.46531,68.7715
2023-03-14 16:30:46:686,-0.737492,2.35994,-9.49182,-14.0191,-4.45925,68.7588
2023-03-14 16:30:46:696,-0.741378,2.34784,-9.44977,-14.0139,-4.4555,68.7445
2023-03-14 16:30:46:706,-0.717427,2.33935,-9.44892,-14.0091,-4.45196,68.7281
2023-03-14 16:30:46:716,-0.699953,2.34099,-9.47711,-14.0076,-4.44798,68.7118
2023-03-14 16:30:46:726,-0.695076,2.34805,-9.47573,-14.0036,-4.44751,68.6924
2023-03-14 16:30:46:736,-0.659581,2.326,-9.46877,-13.9999,-4.44985,68.6737
2023-03-14 16:30:46:745,-0.63799,2.2954,-9.45642,-13.9968,-4.45214,68.6564
2023-03-14 16:30:46:756,-0.650583,2.29785,-9.44941,-13.9974,-4.45783,68.646
2023-03-14 16:30:46:766,-0.668166,2.32562,-9.45481,-14.0039,-4.46773,68.6394
2023-03-14 16:30:46:776,-0.675087,2.34578,-9.45994,-14.0088,-4.47659,68.6335
2023-03-14 16:30:46:786,-0.687184,2.37018,-9.45523,-14.0168,-4.48686,68.6348
2023-03-14 16:30:46:796,-0.704875,2.37493,-9.47301,-14.0279,-4.49789,68.6345
2023-03-14 16:30:46:806,-0.701115,2.39168,-9.50519,-14.0393,-4.50824,68.6356
2023-03-14 16:30:46:816,-0.731179,2.41145,-9.50725,-14.0485,-4.51681,68.6436
2023-03-14 16:30:46:826,-0.757728,2.41886,-9.50214,-14.054,-4.52424,68.6513
2023-03-14 16:30:46:836,-0.759687,2.40608,-9.47422,-14.058,-4.52753,68.6602
2023-03-14 16:30:46:846,-0.766838,2.39038,-9.45255,-14.0588,-4.53258,68.6685
2023-03-14 16:30:46:856,-0.791442,2.38739,-9.43248,-14.0587,-4.53726,68.6811
2023-03-14 16:30:46:866,-0.802178,2.38412,-9.43024,-14.0584,-4.5421,68.6902
2023-03-14 16:30:46:876,-0.809397,2.37744,-9.4333,-14.0581,-4.54668,68.6987
2023-03-14 16:30:46:886,-0.808785,2.36159,-9.45068,-14.0532,-4.55226,68.7067
2023-03-14 16:30:46:896,-0.820573,2.35201,-9.45464,-14.0498,-4.55659,68.7112
2023-03-14 16:30:46:905,-0.818975,2.34354,-9.46241,-14.045,-4.56112,68.714
2023-03-14 16:30:46:916,-0.82504,2.36061,-9.45245,-14.0471,-4.56952,68.7163
2023-03-14 16:30:46:926,-0.799181,2.36131,-9.43552,-14.0475,-4.57204,68.7153
2023-03-14 16:30:46:936,-0.799981,2.34897,-9.45622,-14.0506,-4.57655,68.7157
2023-03-14 16:30:46:946,-0.832094,2.36393,-9.44622,-14.0535,-4.58336,68.7159
2023-03-14 16:30:46:956,-0.831046,2.36918,-9.43136,-14.0534,-4.58456,68.7126
2023-03-14 16:30:46:966,-0.791282,2.37689,-9.44155,-14.0582,-4.58203,68.7047
2023-03-14 16:30:46:976,-0.734739,2.3686,-9.4598,-14.0654,-4.58367,68.6987
2023-03-14 16:30:46:986,-0.721233,2.36231,-9.45494,-14.066,-4.58588,68.6901
2023-03-14 16:30:46:996,-0.748968,2.35522,-9.44772,-14.0696,-4.58893,68.6851
2023-03-14 16:30:47:5,-0.758534,2.35521,-9.44762,-14.0738,-4.58974,68.683
2023-03-14 16:30:47:15,-0.754177,2.36757,-9.4573,-14.0795,-4.59223,68.6834
2023-03-14 16:30:47:25,-0.741332,2.36676,-9.46977,-14.0842,-4.5936,68.6825
2023-03-14 16:30:47:35,-0.733412,2.36591,-9.4765,-14.0904,-4.5916,68.6818
2023-03-14 16:30:47:45,-0.731461,2.38191,-9.47059,-14.0984,-4.59012,68.6843
2023-03-14 16:30:47:55,-0.727976,2.39258,-9.46955,-14.1043,-4.59099,68.6852
2023-03-14 16:30:47:65,-0.733998,2.39307,-9.46778,-14.1073,-4.59238,68.689
2023-03-14 16:30:47:75,-0.750658,2.38265,-9.45563,-14.1099,-4.59489,68.6937
2023-03-14 16:30:47:86,-0.757226,2.38252,-9.44136,-14.1137,-4.59561,68.6998
2023-03-14 16:30:47:96,-0.764462,2.39471,-9.43071,-14.12,-4.59855,68.7043
2023-03-14 16:30:47:106,-0.770863,2.40909,-9.44687,-14.1264,-4.60397,68.7095
2023-03-14 16:30:47:116,-0.776362,2.41348,-9.46939,-14.1329,-4.61512,68.7146
2023-03-14 16:30:47:126,-0.787439,2.41116,-9.46789,-14.1373,-4.62381,68.7227
2023-03-14 16:30:47:135,-0.781145,2.41763,-9.48194,-14.1384,-4.63391,68.727
2023-03-14 16:30:47:146,-0.755867,2.40557,-9.4884,-14.1429,-4.64488,68.7311
2023-03-14 16:30:47:156,-0.763641,2.40923,-9.48119,-14.148,-4.65664,68.7337
2023-03-14 16:30:47:166,-0.788262,2.38637,-9.48041,-14.1511,-4.66732,68.7425
2023-03-14 16:30:47:176,-0.806896,2.36792,-9.47047,-14.1512,-4.67878,68.7516
2023-03-14 16:30:47:186,-0.813209,2.36538,-9.45691,-14.1498,-4.68792,68.7582
2023-03-14 16:30:47:196,-0.823498,2.37564,-9.43625,-14.1491,-4.69542,68.7643
2023-03-14 16:30:47:206,-0.836656,2.37204,-9.43423,-14.1516,-4.70199,68.771
2023-03-14 16:30:47:216,-0.836714,2.37036,-9.43324,-14.1515,-4.71068,68.7783
2023-03-14 16:30:47:226,-0.835999,2.37867,-9.43792,-14.1522,-4.71704,68.7837
2023-03-14 16:30:47:236,-0.845101,2.38196,-9.43744,-14.1548,-4.72196,68.7894
2023-03-14 16:30:47:246,-0.857403,2.39026,-9.44092,-14.1565,-4.72853,68.7943
2023-03-14 16:30:47:256,-0.849642,2.39062,-9.44652,-14.1608,-4.72745,68.7982
2023-03-14 16:30:47:266,-0.848651,2.39234,-9.45247,-14.1643,-4.73013,68.7962
2023-03-14 16:30:47:276,-0.840054,2.39266,-9.44176,-14.166,-4.72894,68.7956
2023-03-14 16:30:47:286,-0.823211,2.38968,-9.45068,-14.1653,-4.73049,68.7969
2023-03-14 16:30:47:296,-0.826697,2.3915,-9.44249,-14.1673,-4.73297,68.7932
2023-03-14 16:30:47:306,-0.810097,2.39091,-9.43755,-14.1634,-4.73491,68.7874
2023-03-14 16:30:47:316,-0.796559,2.37827,-9.43503,-14.1634,-4.73275,68.7842
2023-03-14 16:30:47:326,-0.7926,2.38289,-9.43867,-14.1678,-4.73185,68.7783
2023-03-14 16:30:47:336,-0.793169,2.38877,-9.44576,-14.1713,-4.73136,68.7742
2023-03-14 16:30:47:346,-0.764423,2.3876,-9.45327,-14.1783,-4.7348,68.7729
2023-03-14 16:30:47:356,-0.744173,2.39146,-9.46349,-14.1856,-4.73665,68.7704
2023-03-14 16:30:47:366,-0.764468,2.40709,-9.46343,-14.1878,-4.73886,68.7711
2023-03-14 16:30:47:376,-0.766169,2.40521,-9.45651,-14.192,-4.74274,68.7723
2023-03-14 16:30:47:386,-0.75318,2.3955,-9.44791,-14.1951,-4.74558,68.7738
2023-03-14 16:30:47:395,-0.753574,2.39382,-9.43759,-14.1968,-4.74394,68.777
2023-03-14 16:30:47:405,-0.758136,2.39238,-9.44654,-14.2004,-4.74208,68.784
2023-03-14 16:30:47:415,-0.771822,2.39994,-9.46324,-14.2051,-4.74584,68.7917
2023-03-14 16:30:47:425,-0.788744,2.41394,-9.46735,-14.2084,-4.74703,68.7995
2023-03-14 16:30:47:436,-0.798112,2.41945,-9.47929,-14.212,-4.75031,68.8066
2023-03-14 16:30:47:445,-0.798324,2.42351,-9.48288,-14.2159,-4.7544,68.8148
2023-03-14 16:30:47:456,-0.81367,2.40602,-9.47371,-14.2191,-4.75592,68.8244
2023-03-14 16:30:47:465,-0.825956,2.40863,-9.45663,-14.2193,-4.75651,68.8307
2023-03-14 16:30:47:476,-0.840191,2.40064,-9.45369,-14.2169,-4.76142,68.8378
2023-03-14 16:30:47:486,-0.867232,2.38261,-9.46005,-14.2117,-4.76512,68.8467
2023-03-14 16:30:47:496,-0.854637,2.38025,-9.45521,-14.2086,-4.76957,68.8532
2023-03-14 16:30:47:506,-0.843189,2.37811,-9.44209,-14.2061,-4.77234,68.8564
2023-03-14 16:30:47:516,-0.862724,2.3702,-9.43682,-14.2055,-4.7741,68.8572
2023-03-14 16:30:47:526,-0.850329,2.35652,-9.4252,-14.1999,-4.77342,68.8586
2023-03-14 16:30:47:536,-0.836657,2.35491,-9.4052,-14.1963,-4.77114,68.8601
2023-03-14 16:30:47:545,-0.832992,2.35835,-9.40624,-14.1946,-4.76929,68.8579
2023-03-14 16:30:47:556,-0.817124,2.3566,-9.42635,-14.1948,-4.76594,68.8552
2023-03-14 16:30:47:566,-0.812832,2.35799,-9.45416,-14.1937,-4.7602,68.8487
2023-03-14 16:30:47:575,-0.786193,2.35252,-9.47892,-14.1939,-4.75838,68.8471
2023-03-14 16:30:47:586,-0.761193,2.35873,-9.48579,-14.1927,-4.75883,68.8431
2023-03-14 16:30:47:596,-0.740267,2.35989,-9.47173,-14.1896,-4.75836,68.8392
2023-03-14 16:30:47:606,-0.756277,2.34125,-9.44476,-14.1904,-4.76461,68.8394
2023-03-14 16:30:47:616,-0.777793,2.33604,-9.43348,-14.1942,-4.76841,68.8423
2023-03-14 16:30:47:626,-0.797136,2.37265,-9.45164,-14.2006,-4.77333,68.8455
2023-03-14 16:30:47:636,-0.783304,2.39629,-9.46418,-14.2085,-4.77811,68.8468
2023-03-14 16:30:47:646,-0.785576,2.40264,-9.45112,-14.2163,-4.78223,68.8502
2023-03-14 16:30:47:656,-0.787663,2.40821,-9.44561,-14.2196,-4.78305,68.8546
2023-03-14 16:30:47:666,-0.795544,2.41153,-9.43143,-14.2235,-4.788,68.8642
2023-03-14 16:30:47:676,-0.807716,2.4032,-9.41989,-14.2243,-4.7938,68.8727
2023-03-14 16:30:47:686,-0.819309,2.41117,-9.39376,-14.2262,-4.80113,68.8817
2023-03-14 16:30:47:696,-0.834414,2.39255,-9.39635,-14.2293,-4.80542,68.8898
2023-03-14 16:30:47:706,-0.839099,2.3834,-9.40672,-14.2304,-4.8138,68.8954
2023-03-14 16:30:47:715,-0.827257,2.37963,-9.40813,-14.2315,-4.81737,68.8993
2023-03-14 16:30:47:726,-0.827792,2.38039,-9.40333,-14.2347,-4.81796,68.9044
2023-03-14 16:30:47:736,-0.836795,2.38143,-9.42329,-14.2399,-4.82206,68.9104
2023-03-14 16:30:47:746,-0.832966,2.39349,-9.4397,-14.2457,-4.8236,68.9167
2023-03-14 16:30:47:756,-0.843792,2.40988,-9.45494,-14.2537,-4.82535,68.9223
2023-03-14 16:30:47:766,-0.821755,2.42563,-9.47351,-14.2628,-4.82285,68.926
2023-03-14 16:30:47:776,-0.822406,2.4365,-9.48751,-14.2719,-4.82282,68.9257
2023-03-14 16:30:47:785,-0.811231,2.43618,-9.46628,-14.2789,-4.82652,68.9288
2023-03-14 16:30:47:795,-0.841346,2.43589,-9.46045,-14.2833,-4.82821,68.931
2023-03-14 16:30:47:805,-0.864749,2.43646,-9.44844,-14.2883,-4.83062,68.9339
2023-03-14 16:30:47:815,-0.875792,2.44878,-9.44132,-14.2939,-4.82839,68.9336
2023-03-14 16:30:47:825,-0.83391,2.45061,-9.47626,-14.2976,-4.82549,68.9317
2023-03-14 16:30:47:835,-0.773162,2.42557,-9.48293,-14.2994,-4.82429,68.9242
2023-03-14 16:30:47:845,-0.769129,2.40211,-9.45795,-14.2985,-4.82565,68.9196
2023-03-14 16:30:47:856,-0.790896,2.40587,-9.42844,-14.3006,-4.8271,68.9227
2023-03-14 16:30:47:865,-0.810163,2.39888,-9.40759,-14.3007,-4.8284,68.9231
2023-03-14 16:30:47:876,-0.821118,2.39806,-9.40999,-14.301,-4.82819,68.9257
2023-03-14 16:30:47:886,-0.811603,2.41429,-9.41488,-14.3013,-4.82628,68.9251
2023-03-14 16:30:47:896,-0.788271,2.41592,-9.43469,-14.305,-4.82479,68.9288
2023-03-14 16:30:47:906,-0.778742,2.42257,-9.43538,-14.305,-4.8228,68.9308
2023-03-14 16:30:47:916,-0.775009,2.41446,-9.4267,-14.3066,-4.81787,68.9339
2023-03-14 16:30:47:926,-0.783399,2.41233,-9.42109,-14.3138,-4.81442,68.9389
2023-03-14 16:30:47:936,-0.780917,2.40595,-9.43893,-14.3211,-4.81522,68.9418
2023-03-14 16:30:47:946,-0.794928,2.4169,-9.4317,-14.3254,-4.81229,68.9447
2023-03-14 16:30:47:956,-0.795767,2.41799,-9.44614,-14.3323,-4.8107,68.9485
2023-03-14 16:30:47:966,-0.788286,2.43964,-9.46021,-14.3407,-4.80997,68.9506
2023-03-14 16:30:47:975,-0.785199,2.45533,-9.45389,-14.3473,-4.81237,68.9537
2023-03-14 16:30:47:986,-0.790938,2.44053,-9.46,-14.3552,-4.81783,68.9566
2023-03-14 16:30:47:996,-0.786239,2.42394,-9.46947,-14.3568,-4.8212,68.9597
2023-03-14 16:30:48:6,-0.783505,2.42168,-9.47134,-14.3576,-4.82928,68.9649
2023-03-14 16:30:48:16,-0.796994,2.42333,-9.45595,-14.3626,-4.83866,68.9681
2023-03-14 16:30:48:25,-0.816784,2.40913,-9.42403,-14.3666,-4.84534,68.9762
2023-03-14 16:30:48:36,-0.826809,2.40576,-9.42382,-14.3718,-4.85194,68.984
2023-03-14 16:30:48:46,-0.827991,2.41093,-9.42895,-14.3803,-4.85536,68.9901
2023-03-14 16:30:48:55,-0.84414,2.42232,-9.42762,-14.3887,-4.8588,68.9987
2023-03-14 16:30:48:66,-0.846623,2.41482,-9.42171,-14.3963,-4.86404,69.0072
2023-03-14 16:30:48:76,-0.85971,2.4159,-9.42783,-14.4026,-4.86618,69.0128
2023-03-14 16:30:48:86,-0.862661,2.43471,-9.43122,-14.411,-4.87142,69.0216
2023-03-14 16:30:48:96,-0.878147,2.44201,-9.43021,-14.4164,-4.87161,69.0271
2023-03-14 16:30:48:106,-0.888702,2.44988,-9.4376,-14.4228,-4.87161,69.0345
2023-03-14 16:30:48:116,-0.876263,2.45333,-9.42728,-14.4257,-4.87062,69.0378
2023-03-14 16:30:48:125,-0.873834,2.45238,-9.41553,-14.43,-4.86979,69.0404
2023-03-14 16:30:48:136,-0.871283,2.43978,-9.40746,-14.4347,-4.87032,69.0425
2023-03-14 16:30:48:146,-0.853656,2.43497,-9.40868,-14.4418,-4.86866,69.0422
2023-03-14 16:30:48:155,-0.846472,2.4417,-9.4104,-14.4503,-4.86471,69.0374
2023-03-14 16:30:48:165,-0.843826,2.44981,-9.43847,-14.459,-4.86,69.0359
2023-03-14 16:30:48:175,-0.840571,2.45711,-9.46013,-14.4688,-4.8564,69.0327
2023-03-14 16:30:48:185,-0.829382,2.45809,-9.44621,-14.4763,-4.85718,69.0284
2023-03-14 16:30:48:195,-0.823907,2.4569,-9.42419,-14.4828,-4.85505,69.0255
2023-03-14 16:30:48:205,-0.804509,2.45241,-9.43687,-14.491,-4.85087,69.0182
2023-03-14 16:30:48:216,-0.803828,2.47478,-9.44583,-14.4989,-4.84404,69.0152
2023-03-14 16:30:48:226,-0.801446,2.4712,-9.44276,-14.5061,-4.84192,69.0103
2023-03-14 16:30:48:236,-0.7923,2.47232,-9.43352,-14.5106,-4.83648,69.0053
2023-03-14 16:30:48:246,-0.796021,2.46414,-9.45447,-14.5108,-4.83178,69.0039
2023-03-14 16:30:48:256,-0.80381,2.46633,-9.45058,-14.5137,-4.82937,69.0009
2023-03-14 16:30:48:266,-0.799423,2.45548,-9.44367,-14.5174,-4.82325,69.0004
2023-03-14 16:30:48:276,-0.798731,2.44909,-9.43066,-14.5221,-4.82137,68.9977
2023-03-14 16:30:48:286,-0.792,2.45817,-9.43816,-14.5245,-4.81961,68.9965
2023-03-14 16:30:48:296,-0.794554,2.46603,-9.43907,-14.5308,-4.82025,68.9981
2023-03-14 16:30:48:306,-0.803089,2.47242,-9.43568,-14.5328,-4.81941,68.9987
2023-03-14 16:30:48:315,-0.811325,2.46021,-9.43945,-14.5372,-4.82104,68.9997
2023-03-14 16:30:48:326,-0.827679,2.45711,-9.44487,-14.537,-4.81995,69.0011
2023-03-14 16:30:48:336,-0.847391,2.45878,-9.44532,-14.5386,-4.8204,69.0043
2023-03-14 16:30:48:345,-0.845499,2.46505,-9.41202,-14.5371,-4.81822,69.0059
2023-03-14 16:30:48:355,-0.858681,2.44707,-9.39337,-14.5409,-4.81213,69.0082
2023-03-14 16:30:48:366,-0.858655,2.45137,-9.408,-14.5438,-4.80837,69.0089
2023-03-14 16:30:48:376,-0.849157,2.44541,-9.41213,-14.5449,-4.8011,69.0067
2023-03-14 16:30:48:385,-0.827058,2.44395,-9.41633,-14.5453,-4.79491,69.0017
2023-03-14 16:30:48:396,-0.816585,2.45631,-9.41463,-14.5484,-4.78783,68.9928
2023-03-14 16:30:48:406,-0.806534,2.44428,-9.42563,-14.5512,-4.78565,68.9865
2023-03-14 16:30:48:416,-0.800836,2.45926,-9.43656,-14.5491,-4.78155,68.9788
2023-03-14 16:30:48:426,-0.78062,2.46325,-9.46163,-14.5533,-4.77723,68.9709
2023-03-14 16:30:48:436,-0.75573,2.46587,-9.47626,-14.5559,-4.7714,68.9623
2023-03-14 16:30:48:446,-0.717383,2.46289,-9.47031,-14.5569,-4.76333,68.9564
2023-03-14 16:30:48:456,-0.716067,2.45309,-9.45218,-14.5604,-4.75848,68.9475
2023-03-14 16:30:48:466,-0.749153,2.45281,-9.43488,-14.5592,-4.75689,68.9449
2023-03-14 16:30:48:476,-0.778154,2.44985,-9.45411,-14.56,-4.75591,68.9484
2023-03-14 16:30:48:485,-0.798034,2.46925,-9.46245,-14.5646,-4.7563,68.9549
2023-03-14 16:30:48:495,-0.791934,2.48311,-9.46315,-14.5671,-4.75449,68.9629
2023-03-14 16:30:48:505,-0.78619,2.49116,-9.44045,-14.5707,-4.75229,68.9684
2023-03-14 16:30:48:515,-0.797586,2.49215,-9.42556,-14.5742,-4.75033,68.9758
2023-03-14 16:30:48:526,-0.820515,2.49068,-9.41622,-14.5769,-4.75198,68.9812
2023-03-14 16:30:48:536,-0.834602,2.48922,-9.39772,-14.5783,-4.75149,68.9894
2023-03-14 16:30:48:545,-0.83514,2.48811,-9.39495,-14.5781,-4.75085,68.9961
2023-03-14 16:30:48:556,-0.83728,2.47846,-9.39927,-14.5781,-4.75267,69.0038
2023-03-14 16:30:48:565,-0.831181,2.47232,-9.40563,-14.5776,-4.75631,69.004
2023-03-14 16:30:48:576,-0.823244,2.47358,-9.41992,-14.5771,-4.75775,69.0067
2023-03-14 16:30:48:585,-0.814974,2.46808,-9.43686,-14.5771,-4.75906,69.0047
2023-03-14 16:30:48:595,-0.81095,2.45946,-9.43272,-14.5749,-4.75575,69.0027
2023-03-14 16:30:48:606,-0.812045,2.45077,-9.4364,-14.5754,-4.7526,68.9993
2023-03-14 16:30:48:616,-0.803339,2.43764,-9.43382,-14.576,-4.74964,68.9949
2023-03-14 16:30:48:626,-0.791991,2.44,-9.43055,-14.5776,-4.74458,68.9899
2023-03-14 16:30:48:636,-0.787029,2.4524,-9.4232,-14.5802,-4.7402,68.9873
2023-03-14 16:30:48:646,-0.778464,2.45121,-9.40786,-14.5829,-4.73693,68.9834
2023-03-14 16:30:48:656,-0.818642,2.47268,-9.40741,-14.5888,-4.73308,68.9815
2023-03-14 16:30:48:665,-0.842774,2.48879,-9.43792,-14.5929,-4.72652,68.9775
2023-03-14 16:30:48:676,-0.824077,2.49107,-9.47497,-14.5979,-4.72121,68.9735
2023-03-14 16:30:48:686,-0.770792,2.49622,-9.4866,-14.6018,-4.71037,68.9656
2023-03-14 16:30:48:696,-0.713194,2.47086,-9.46167,-14.6003,-4.70162,68.9582
2023-03-14 16:30:48:706,-0.71704,2.44772,-9.43644,-14.5998,-4.70079,68.9521
2023-03-14 16:30:48:716,-0.736884,2.44799,-9.41115,-14.5972,-4.69948,68.9498
2023-03-14 16:30:48:726,-0.756064,2.45699,-9.40734,-14.5959,-4.69881,68.9466
2023-03-14 16:30:48:736,-0.745741,2.45362,-9.42911,-14.5966,-4.69641,68.943
2023-03-14 16:30:48:746,-0.712593,2.45373,-9.43798,-14.5998,-4.69586,68.9367
2023-03-14 16:30:48:756,-0.711033,2.44747,-9.42846,-14.6032,-4.69331,68.9361
2023-03-14 16:30:48:766,-0.721458,2.44104,-9.42897,-14.6037,-4.69505,68.9338
2023-03-14 16:30:48:776,-0.728169,2.45545,-9.42183,-14.6073,-4.6959,68.9327
2023-03-14 16:30:48:786,-0.729933,2.46417,-9.41334,-14.6113,-4.69532,68.9373
2023-03-14 16:30:48:796,-0.72765,2.48131,-9.40622,-14.6168,-4.6933,68.9462
2023-03-14 16:30:48:806,-0.736437,2.48732,-9.42588,-14.6198,-4.69216,68.9535
2023-03-14 16:30:48:816,-0.743057,2.50609,-9.42453,-14.6261,-4.69478,68.9584
2023-03-14 16:30:48:825,-0.754648,2.51859,-9.41497,-14.6317,-4.69875,68.9667
2023-03-14 16:30:48:836,-0.762485,2.52104,-9.43925,-14.6355,-4.7031,68.9761
2023-03-14 16:30:48:846,-0.770421,2.51297,-9.47565,-14.6382,-4.70707,68.9846
2023-03-14 16:30:48:856,-0.766846,2.50938,-9.48476,-14.6409,-4.71478,68.9909
2023-03-14 16:30:48:866,-0.755229,2.5104,-9.46768,-14.6425,-4.72127,68.9934
2023-03-14 16:30:48:876,-0.757275,2.49972,-9.4487,-14.6417,-4.72849,69.0029
2023-03-14 16:30:48:886,-0.772273,2.47911,-9.4382,-14.6379,-4.7393,69.0099
2023-03-14 16:30:48:896,-0.783809,2.48739,-9.41451,-14.636,-4.74962,69.0172
2023-03-14 16:30:48:906,-0.798462,2.48221,-9.40946,-14.6375,-4.76083,69.0285
2023-03-14 16:30:48:916,-0.813615,2.47547,-9.41999,-14.6337,-4.76804,69.0376
2023-03-14 16:30:48:926,-0.816706,2.48398,-9.4178,-14.632,-4.77699,69.049
2023-03-14 16:30:48:935,-0.827013,2.50002,-9.41648,-14.6287,-4.78222,69.0626
2023-03-14 16:30:48:945,-0.850842,2.48821,-9.42948,-14.6272,-4.78995,69.0758
2023-03-14 16:30:48:955,-0.859873,2.481,-9.41782,-14.6232,-4.79572,69.0838
2023-03-14 16:30:48:965,-0.873447,2.49384,-9.42521,-14.6222,-4.80116,69.0917
2023-03-14 16:30:48:976,-0.878419,2.49699,-9.44247,-14.624,-4.80612,69.0966
2023-03-14 16:30:48:985,-0.878934,2.49409,-9.44967,-14.6236,-4.81234,69.0995
2023-03-14 16:30:48:995,-0.858196,2.49545,-9.45059,-14.62,-4.81854,69.1015
2023-03-14 16:30:49:5,-0.854002,2.50668,-9.45004,-14.6166,-4.82646,69.1017
2023-03-14 16:30:49:16,-0.848297,2.49231,-9.46326,-14.6111,-4.83445,69.0963
2023-03-14 16:30:49:26,-0.84405,2.48172,-9.46373,-14.6035,-4.84207,69.0935
2023-03-14 16:30:49:36,-0.844029,2.47369,-9.44584,-14.5958,-4.84669,69.0873
2023-03-14 16:30:49:46,-0.830218,2.46667,-9.43207,-14.5882,-4.85178,69.0809
2023-03-14 16:30:49:56,-0.817745,2.45942,-9.43785,-14.5775,-4.85812,69.0773
2023-03-14 16:30:49:66,-0.81635,2.45363,-9.43889,-14.5684,-4.86351,69.0722
2023-03-14 16:30:49:76,-0.813086,2.45708,-9.42911,-14.5613,-4.86806,69.0676
2023-03-14 16:30:49:86,-0.81476,2.44458,-9.42758,-14.5567,-4.86861,69.0692
2023-03-14 16:30:49:96,-0.826301,2.44228,-9.43409,-14.5501,-4.86966,69.069
2023-03-14 16:30:49:106,-0.832843,2.43805,-9.44164,-14.541,-4.87106,69.0696
2023-03-14 16:30:49:116,-0.826131,2.43042,-9.4325,-14.5306,-4.87463,69.0668
2023-03-14 16:30:49:126,-0.820002,2.41617,-9.44174,-14.5189,-4.87169,69.066
2023-03-14 16:30:49:136,-0.796362,2.42101,-9.43861,-14.5101,-4.87239,69.0634
2023-03-14 16:30:49:146,-0.793123,2.41667,-9.44024,-14.5002,-4.87508,69.0603
2023-03-14 16:30:49:156,-0.785605,2.42003,-9.43133,-14.4898,-4.87493,69.0558
2023-03-14 16:30:49:165,-0.773371,2.41046,-9.4164,-14.4775,-4.87608,69.0507
2023-03-14 16:30:49:176,-0.779263,2.40502,-9.41346,-14.4706,-4.87629,69.0482
2023-03-14 16:30:49:186,-0.783442,2.3976,-9.4189,-14.463,-4.87862,69.0463
2023-03-14 16:30:49:196,-0.781453,2.39935,-9.43151,-14.4567,-4.87939,69.046
2023-03-14 16:30:49:206,-0.775107,2.40685,-9.42601,-14.4534,-4.87995,69.0465
2023-03-14 16:30:49:216,-0.782322,2.40726,-9.43414,-14.4464,-4.88016,69.0476
2023-03-14 16:30:49:226,-0.800474,2.41195,-9.45954,-14.4409,-4.87888,69.0529
2023-03-14 16:30:49:236,-0.815826,2.42301,-9.45895,-14.4361,-4.87932,69.0561
2023-03-14 16:30:49:246,-0.828247,2.41708,-9.4471,-14.4317,-4.87971,69.062
2023-03-14 16:30:49:256,-0.8404,2.40329,-9.42734,-14.4272,-4.88108,69.0667
2023-03-14 16:30:49:266,-0.85319,2.39625,-9.43326,-14.4229,-4.88516,69.07
2023-03-14 16:30:49:276,-0.842057,2.39581,-9.42956,-14.4186,-4.88622,69.0693
2023-03-14 16:30:49:286,-0.825621,2.404,-9.4189,-14.4146,-4.89013,69.0682
2023-03-14 16:30:49:296,-0.798938,2.37988,-9.4085,-14.4109,-4.89258,69.0688
2023-03-14 16:30:49:306,-0.794023,2.35214,-9.40834,-14.4074,-4.8977,69.0672
2023-03-14 16:30:49:315,-0.787907,2.35416,-9.42862,-14.4032,-4.89778,69.0643
2023-03-14 16:30:49:325,-0.769457,2.3697,-9.46606,-14.4027,-4.90299,69.0608
2023-03-14 16:30:49:335,-0.746683,2.37262,-9.49404,-14.4015,-4.90737,69.0578
2023-03-14 16:30:49:345,-0.742723,2.36007,-9.48015,-14.4001,-4.91539,69.0579
2023-03-14 16:30:49:356,-0.77461,2.35026,-9.43984,-14.3985,-4.92514,69.0655
2023-03-14 16:30:49:365,-0.805321,2.3627,-9.41563,-14.4016,-4.9363,69.0747
2023-03-14 16:30:49:376,-0.837094,2.38325,-9.43172,-14.4083,-4.94253,69.0868
2023-03-14 16:30:49:386,-0.871389,2.40932,-9.44772,-14.4176,-4.95057,69.1017
2023-03-14 16:30:49:396,-0.883497,2.4284,-9.43746,-14.4285,-4.95799,69.1107
2023-03-14 16:30:49:406,-0.884681,2.44117,-9.42355,-14.4365,-4.96514,69.1222
2023-03-14 16:30:49:416,-0.881306,2.4561,-9.41215,-14.4448,-4.97722,69.1311
2023-03-14 16:30:49:425,-0.888118,2.45717,-9.39674,-14.4541,-4.98629,69.1391
2023-03-14 16:30:49:436,-0.903794,2.47226,-9.39324,-14.4629,-4.98879,69.1446
2023-03-14 16:30:49:446,-0.891258,2.48153,-9.39805,-14.4679,-4.99081,69.1472
2023-03-14 16:30:49:456,-0.885646,2.47434,-9.40627,-14.4708,-4.99612,69.1451
2023-03-14 16:30:49:466,-0.874196,2.4675,-9.41991,-14.4762,-4.99934,69.1449
2023-03-14 16:30:49:476,-0.87487,2.46424,-9.42588,-14.4789,-5.00081,69.1422
2023-03-14 16:30:49:486,-0.87092,2.45844,-9.44099,-14.4839,-5.00319,69.1381
2023-03-14 16:30:49:495,-0.845874,2.45444,-9.45041,-14.4849,-5.00299,69.1339
2023-03-14 16:30:49:506,-0.844712,2.45513,-9.44555,-14.4854,-5.00491,69.1308
2023-03-14 16:30:49:516,-0.853496,2.46383,-9.42919,-14.4872,-5.003,69.1263
2023-03-14 16:30:49:525,-0.831091,2.46203,-9.43558,-14.4916,-4.99645,69.1237
2023-03-14 16:30:49:536,-0.81275,2.45792,-9.43908,-14.4962,-4.99268,69.1194
2023-03-14 16:30:49:545,-0.81201,2.47513,-9.44315,-14.4989,-4.99245,69.1154
2023-03-14 16:30:49:556,-0.849088,2.49236,-9.45153,-14.507,-4.98815,69.1153
2023-03-14 16:30:49:566,-0.87469,2.49804,-9.46128,-14.5088,-4.98793,69.112
2023-03-14 16:30:49:576,-0.863646,2.49742,-9.48022,-14.5173,-4.98017,69.1076
2023-03-14 16:30:49:585,-0.80451,2.50481,-9.49272,-14.5202,-4.97366,69.1009
2023-03-14 16:30:49:596,-0.759825,2.4856,-9.48075,-14.5199,-4.97166,69.0942
2023-03-14 16:30:49:606,-0.786227,2.46122,-9.43873,-14.5188,-4.97444,69.0898
2023-03-14 16:30:49:615,-0.815203,2.43539,-9.41882,-14.5138,-4.97948,69.0856
2023-03-14 16:30:49:625,-0.841367,2.4293,-9.40593,-14.5088,-4.98373,69.085
2023-03-14 16:30:49:636,-0.818296,2.42906,-9.3974,-14.5038,-4.98725,69.0866
2023-03-14 16:30:49:646,-0.802089,2.41992,-9.38771,-14.5006,-4.99145,69.0878
2023-03-14 16:30:49:656,-0.800757,2.41238,-9.39881,-14.4942,-4.99299,69.0893
2023-03-14 16:30:49:666,-0.798327,2.42784,-9.40516,-14.4938,-4.99494,69.0945
2023-03-14 16:30:49:676,-0.803087,2.42919,-9.40671,-14.4922,-4.99763,69.0981
2023-03-14 16:30:49:686,-0.816554,2.42262,-9.39534,-14.4898,-5.00093,69.1028
2023-03-14 16:30:49:696,-0.826012,2.42911,-9.38537,-14.4901,-5.01063,69.1072
2023-03-14 16:30:49:706,-0.841349,2.43396,-9.38929,-14.4916,-5.01283,69.1111
2023-03-14 16:30:49:715,-0.840798,2.43613,-9.40992,-14.496,-5.01859,69.1162
2023-03-14 16:30:49:725,-0.842187,2.44367,-9.41821,-14.4998,-5.02702,69.1209
2023-03-14 16:30:49:735,-0.834743,2.45551,-9.41219,-14.5054,-5.03501,69.1242
2023-03-14 16:30:49:745,-0.825672,2.45621,-9.41618,-14.5119,-5.043,69.1272
2023-03-14 16:30:49:756,-0.825088,2.45759,-9.43445,-14.5198,-5.05313,69.1329
2023-03-14 16:30:49:765,-0.83388,2.44286,-9.46083,-14.5271,-5.06198,69.1363
2023-03-14 16:30:49:776,-0.833782,2.45797,-9.45644,-14.5324,-5.07271,69.1417
2023-03-14 16:30:49:785,-0.858036,2.45993,-9.46163,-14.5386,-5.08374,69.1492
2023-03-14 16:30:49:795,-0.87017,2.47502,-9.45834,-14.5442,-5.09289,69.1558
2023-03-14 16:30:49:805,-0.901107,2.49037,-9.45225,-14.5494,-5.10337,69.1695
2023-03-14 16:30:49:816,-0.937022,2.4937,-9.43346,-14.5523,-5.11154,69.1811
2023-03-14 16:30:49:826,-0.941467,2.48424,-9.42307,-14.5549,-5.11571,69.1908
2023-03-14 16:30:49:835,-0.943028,2.48501,-9.42711,-14.5588,-5.12019,69.2037
2023-03-14 16:30:49:846,-0.9511,2.4798,-9.44624,-14.5603,-5.12526,69.2118
2023-03-14 16:30:49:856,-0.956117,2.48656,-9.42284,-14.5582,-5.12676,69.2177
2023-03-14 16:30:49:866,-0.955553,2.4714,-9.40256,-14.5516,-5.12803,69.219
2023-03-14 16:30:49:875,-0.953602,2.45448,-9.39244,-14.549,-5.13313,69.222
2023-03-14 16:30:49:886,-0.934489,2.44333,-9.40597,-14.5404,-5.13441,69.2219
2023-03-14 16:30:49:896,-0.910766,2.44753,-9.41265,-14.5355,-5.1346,69.216
2023-03-14 16:30:49:906,-0.895843,2.45766,-9.4101,-14.5365,-5.13498,69.21
2023-03-14 16:30:49:916,-0.881737,2.45158,-9.41046,-14.5362,-5.13134,69.2067
2023-03-14 16:30:49:926,-0.866869,2.44415,-9.40716,-14.5342,-5.13017,69.1995
2023-03-14 16:30:49:936,-0.856018,2.44108,-9.41068,-14.5308,-5.12687,69.1946
2023-03-14 16:30:49:946,-0.851414,2.44481,-9.41594,-14.5282,-5.12475,69.1866
2023-03-14 16:30:49:956,-0.848586,2.44481,-9.43641,-14.5282,-5.11656,69.1819
2023-03-14 16:30:49:966,-0.85145,2.43992,-9.44691,-14.5306,-5.10951,69.1799
2023-03-14 16:30:49:976,-0.847703,2.4537,-9.41764,-14.5329,-5.10491,69.1793
2023-03-14 16:30:49:986,-0.839189,2.45651,-9.41742,-14.5337,-5.09953,69.176
2023-03-14 16:30:49:995,-0.856519,2.46679,-9.4237,-14.5339,-5.09332,69.1778
2023-03-14 16:30:50:6,-0.843554,2.46588,-9.43406,-14.5323,-5.08541,69.1785
2023-03-14 16:30:50:16,-0.857921,2.45623,-9.43754,-14.53,-5.07992,69.1812
2023-03-14 16:30:50:26,-0.863706,2.46107,-9.43321,-14.5298,-5.07448,69.1802
2023-03-14 16:30:50:35,-0.858222,2.45851,-9.43293,-14.5276,-5.0682,69.1793
2023-03-14 16:30:50:46,-0.856245,2.45356,-9.43114,-14.525,-5.06289,69.1813
2023-03-14 16:30:50:56,-0.849048,2.44681,-9.43224,-14.5233,-5.0568,69.1798
2023-03-14 16:30:50:65,-0.8445,2.44695,-9.4249,-14.5226,-5.04813,69.1825
2023-03-14 16:30:50:76,-0.853967,2.44124,-9.42647,-14.5168,-5.04565,69.1835
2023-03-14 16:30:50:85,-0.859918,2.43472,-9.41973,-14.5092,-5.04271,69.1827
2023-03-14 16:30:50:95,-0.860783,2.44692,-9.40639,-14.5065,-5.0404,69.1843
2023-03-14 16:30:50:105,-0.855448,2.46058,-9.41276,-14.5077,-5.03705,69.1822
2023-03-14 16:30:50:116,-0.864486,2.46151,-9.42736,-14.5054,-5.03146,69.1803
2023-03-14 16:30:50:126,-0.860175,2.45074,-9.44115,-14.5039,-5.03177,69.184
2023-03-14 16:30:50:135,-0.850582,2.44094,-9.42391,-14.5049,-5.02568,69.1812
2023-03-14 16:30:50:145,-0.846921,2.43945,-9.41956,-14.5025,-5.02291,69.1792
2023-03-14 16:30:50:155,-0.852317,2.44033,-9.42073,-14.501,-5.02004,69.1742
2023-03-14 16:30:50:165,-0.832404,2.43167,-9.43225,-14.5028,-5.01968,69.1671
2023-03-14 16:30:50:176,-0.80052,2.43261,-9.41612,-14.5023,-5.01771,69.1617
2023-03-14 16:30:50:186,-0.787936,2.42095,-9.42073,-14.5009,-5.01493,69.1564
2023-03-14 16:30:50:196,-0.788116,2.41052,-9.43228,-14.4999,-5.01382,69.1503
2023-03-14 16:30:50:206,-0.809665,2.4106,-9.44172,-14.5011,-5.0151,69.1464
2023-03-14 16:30:50:216,-0.815891,2.43006,-9.48501,-14.5017,-5.01714,69.1462
2023-03-14 16:30:50:226,-0.793727,2.43778,-9.49437,-14.5008,-5.01632,69.1441
2023-03-14 16:30:50:236,-0.77694,2.40607,-9.46857,-14.4973,-5.01835,69.1455
2023-03-14 16:30:50:245,-0.784969,2.39698,-9.43112,-14.4952,-5.02177,69.151
2023-03-14 16:30:50:256,-0.8291,2.40304,-9.41218,-14.4914,-5.02612,69.1579
2023-03-14 16:30:50:265,-0.858831,2.43194,-9.42678,-14.4964,-5.02834,69.1694
2023-03-14 16:30:50:276,-0.87266,2.45855,-9.4366,-14.5025,-5.03161,69.1781
2023-03-14 16:30:50:286,-0.8627,2.46516,-9.42229,-14.5042,-5.03407,69.1869
2023-03-14 16:30:50:296,-0.849163,2.45794,-9.41387,-14.508,-5.03608,69.1945
2023-03-14 16:30:50:306,-0.856856,2.45862,-9.39829,-14.5116,-5.04148,69.2017
2023-03-14 16:30:50:315,-0.875495,2.46685,-9.39976,-14.5131,-5.04314,69.2109
2023-03-14 16:30:50:326,-0.894514,2.47561,-9.39734,-14.5137,-5.04535,69.2156
2023-03-14 16:30:50:336,-0.905522,2.47939,-9.4043,-14.5161,-5.04734,69.2164
2023-03-14 16:30:50:346,-0.905328,2.47334,-9.40476,-14.5168,-5.04807,69.2179
2023-03-14 16:30:50:356,-0.889376,2.46103,-9.4108,-14.5153,-5.04574,69.2183
2023-03-14 16:30:50:366,-0.880775,2.45288,-9.40793,-14.5131,-5.04264,69.2157
2023-03-14 16:30:50:376,-0.881675,2.45641,-9.40689,-14.5115,-5.03917,69.2079
2023-03-14 16:30:50:386,-0.879243,2.45071,-9.41939,-14.5146,-5.03207,69.2031
2023-03-14 16:30:50:396,-0.874431,2.45802,-9.43822,-14.516,-5.02579,69.1973
2023-03-14 16:30:50:406,-0.86175,2.46704,-9.44408,-14.5186,-5.02096,69.1894
2023-03-14 16:30:50:416,-0.845606,2.46863,-9.44677,-14.5181,-5.01339,69.1794
2023-03-14 16:30:50:426,-0.825892,2.48165,-9.43357,-14.5185,-5.00693,69.1684
2023-03-14 16:30:50:435,-0.802457,2.49436,-9.42991,-14.5219,-5.00324,69.1597
2023-03-14 16:30:50:446,-0.813437,2.49448,-9.4349,-14.5253,-4.99759,69.1501
2023-03-14 16:30:50:456,-0.837764,2.48296,-9.4397,-14.5226,-4.99083,69.1428
2023-03-14 16:30:50:465,-0.829304,2.49185,-9.46223,-14.5261,-4.98205,69.1296
2023-03-14 16:30:50:475,-0.77672,2.49781,-9.48123,-14.5225,-4.96675,69.1172
2023-03-14 16:30:50:485,-0.730649,2.47395,-9.47055,-14.5179,-4.95841,69.1074
2023-03-14 16:30:50:495,-0.751183,2.46375,-9.45057,-14.5108,-4.95041,69.1027
2023-03-14 16:30:50:505,-0.787179,2.46506,-9.44453,-14.5019,-4.94956,69.0968
2023-03-14 16:30:50:515,-0.805539,2.46036,-9.44074,-14.4965,-4.94372,69.0916
2023-03-14 16:30:50:525,-0.80995,2.46368,-9.42513,-14.4911,-4.94308,69.0897
2023-03-14 16:30:50:536,-0.781983,2.44496,-9.41104,-14.4822,-4.93883,69.082
2023-03-14 16:30:50:545,-0.768707,2.45555,-9.40133,-14.4703,-4.93376,69.0757
2023-03-14 16:30:50:555,-0.778254,2.44919,-9.42465,-14.4655,-4.92847,69.0706
2023-03-14 16:30:50:566,-0.784143,2.44925,-9.41672,-14.464,-4.92445,69.069
2023-03-14 16:30:50:576,-0.773331,2.44639,-9.41373,-14.4596,-4.92339,69.0678
2023-03-14 16:30:50:586,-0.7787,2.43794,-9.40763,-14.4538,-4.92254,69.0697
2023-03-14 16:30:50:596,-0.78082,2.44476,-9.40561,-14.4524,-4.92101,69.0691
2023-03-14 16:30:50:606,-0.794665,2.45571,-9.42062,-14.4491,-4.92111,69.0695
2023-03-14 16:30:50:616,-0.800888,2.47269,-9.44255,-14.4464,-4.92106,69.0671
2023-03-14 16:30:50:626,-0.811788,2.46328,-9.44604,-14.4458,-4.92131,69.069
2023-03-14 16:30:50:636,-0.807606,2.45497,-9.4419,-14.4462,-4.92485,69.0706
2023-03-14 16:30:50:646,-0.800686,2.45482,-9.44173,-14.4449,-4.93016,69.0691
2023-03-14 16:30:50:656,-0.803397,2.44427,-9.45797,-14.4428,-4.93834,69.0689
2023-03-14 16:30:50:666,-0.806376,2.44887,-9.45422,-14.4378,-4.94701,69.0667
2023-03-14 16:30:50:676,-0.818769,2.45602,-9.46078,-14.435,-4.95408,69.0695
2023-03-14 16:30:50:686,-0.820688,2.44023,-9.46092,-14.4313,-4.96033,69.0709
2023-03-14 16:30:50:696,-0.831669,2.4247,-9.43688,-14.4238,-4.96449,69.0771
2023-03-14 16:30:50:706,-0.841573,2.41832,-9.42156,-14.4183,-4.97044,69.0809
2023-03-14 16:30:50:716,-0.866288,2.40739,-9.42352,-14.4157,-4.97695,69.0853
2023-03-14 16:30:50:726,-0.879743,2.42221,-9.42443,-14.41,-4.97975,69.0945
2023-03-14 16:30:50:736,-0.878919,2.41625,-9.42774,-14.4041,-4.98328,69.1029
2023-03-14 16:30:50:746,-0.898141,2.41964,-9.41384,-14.3983,-4.98351,69.1054
2023-03-14 16:30:50:756,-0.897924,2.41623,-9.40895,-14.395,-4.98439,69.111
2023-03-14 16:30:50:766,-0.903586,2.41894,-9.41013,-14.3939,-4.98413,69.1143
2023-03-14 16:30:50:776,-0.890785,2.4188,-9.41903,-14.3897,-4.98426,69.1161
2023-03-14 16:30:50:785,-0.889879,2.41866,-9.41644,-14.384,-4.98304,69.1142
2023-03-14 16:30:50:796,-0.868026,2.38879,-9.42309,-14.3817,-4.98042,69.1092
2023-03-14 16:30:50:806,-0.853236,2.39459,-9.43065,-14.38,-4.98308,69.1064
2023-03-14 16:30:50:816,-0.846608,2.4148,-9.42993,-14.3791,-4.98239,69.1004
2023-03-14 16:30:50:826,-0.826002,2.40014,-9.44079,-14.3787,-4.98378,69.0944
2023-03-14 16:30:50:835,-0.80875,2.38623,-9.4366,-14.377,-4.98346,69.0857
2023-03-14 16:30:50:846,-0.801067,2.40048,-9.42936,-14.3713,-4.98555,69.0797
2023-03-14 16:30:50:855,-0.796686,2.41053,-9.42622,-14.3725,-4.98743,69.0787
2023-03-14 16:30:50:865,-0.798406,2.41339,-9.43855,-14.3761,-4.98759,69.0761
2023-03-14 16:30:50:875,-0.818032,2.42468,-9.44091,-14.3798,-4.9827,69.0738
2023-03-14 16:30:50:885,-0.834761,2.45339,-9.44859,-14.3805,-4.98039,69.0734
2023-03-14 16:30:50:895,-0.836127,2.4683,-9.46919,-14.3832,-4.97922,69.0728
2023-03-14 16:30:50:905,-0.84001,2.45666,-9.45984,-14.3864,-4.97543,69.0742
2023-03-14 16:30:50:916,-0.833182,2.44343,-9.45116,-14.384,-4.97359,69.0743
2023-03-14 16:30:50:925,-0.830701,2.42567,-9.43518,-14.3825,-4.96996,69.0742
2023-03-14 16:30:50:936,-0.826547,2.42445,-9.41729,-14.3817,-4.96744,69.0738
2023-03-14 16:30:50:946,-0.823077,2.42051,-9.40886,-14.3801,-4.96465,69.0724
2023-03-14 16:30:50:956,-0.821359,2.41651,-9.40805,-14.3792,-4.96269,69.0704
2023-03-14 16:30:50:966,-0.820434,2.41268,-9.41624,-14.3788,-4.96348,69.0686
2023-03-14 16:30:50:976,-0.81531,2.41128,-9.4205,-14.3766,-4.96688,69.0633
2023-03-14 16:30:50:986,-0.815415,2.4186,-9.42857,-14.3789,-4.96958,69.0612
2023-03-14 16:30:50:996,-0.801046,2.43762,-9.42703,-14.3799,-4.97051,69.0608
2023-03-14 16:30:51:6,-0.809198,2.43685,-9.44301,-14.3847,-4.97319,69.0602
2023-03-14 16:30:51:16,-0.805209,2.4348,-9.45993,-14.3895,-4.97488,69.0598
2023-03-14 16:30:51:26,-0.804375,2.44378,-9.44902,-14.3917,-4.97716,69.0645
2023-03-14 16:30:51:36,-0.806061,2.44008,-9.45078,-14.3923,-4.98011,69.0682
2023-03-14 16:30:51:46,-0.824005,2.43779,-9.46542,-14.396,-4.98087,69.0695
2023-03-14 16:30:51:56,-0.825995,2.44089,-9.44878,-14.3964,-4.98307,69.0737
2023-03-14 16:30:51:65,-0.842087,2.43023,-9.43655,-14.3944,-4.98435,69.0736
2023-03-14 16:30:51:76,-0.842232,2.43355,-9.43154,-14.3934,-4.98761,69.0757
2023-03-14 16:30:51:86,-0.834424,2.4318,-9.42097,-14.3919,-4.99143,69.0764
2023-03-14 16:30:51:96,-0.820495,2.44108,-9.43383,-14.3909,-4.99655,69.0759
2023-03-14 16:30:51:106,-0.812323,2.44461,-9.44359,-14.3879,-5.00222,69.0719
2023-03-14 16:30:51:116,-0.825661,2.43673,-9.43765,-14.3882,-5.00882,69.068
2023-03-14 16:30:51:126,-0.822751,2.42875,-9.44218,-14.3892,-5.01618,69.0663
2023-03-14 16:30:51:136,-0.793005,2.42737,-9.46773,-14.3875,-5.0205,69.0649
2023-03-14 16:30:51:146,-0.781408,2.43213,-9.48361,-14.3874,-5.02382,69.0622
2023-03-14 16:30:51:156,-0.765629,2.40675,-9.48057,-14.3806,-5.03269,69.0601
2023-03-14 16:30:51:166,-0.771464,2.40567,-9.44431,-14.3765,-5.04249,69.0631
2023-03-14 16:30:51:176,-0.805942,2.40497,-9.42974,-14.3722,-5.05758,69.0676
2023-03-14 16:30:51:185,-0.835988,2.40676,-9.43438,-14.3714,-5.07589,69.0751
2023-03-14 16:30:51:196,-0.861451,2.4384,-9.42502,-14.3758,-5.09245,69.0858
2023-03-14 16:30:51:206,-0.876665,2.43322,-9.43093,-14.3792,-5.10246,69.1008
2023-03-14 16:30:51:216,-0.879895,2.43797,-9.42905,-14.382,-5.1146,69.1138
2023-03-14 16:30:51:226,-0.896403,2.44932,-9.41116,-14.3825,-5.12295,69.1277
2023-03-14 16:30:51:235,-0.924229,2.45633,-9.40555,-14.3877,-5.13328,69.1431
2023-03-14 16:30:51:245,-0.966256,2.45909,-9.39823,-14.3913,-5.14178,69.1548
2023-03-14 16:30:51:255,-0.975333,2.44176,-9.40008,-14.3926,-5.14391,69.1657
2023-03-14 16:30:51:265,-0.966661,2.45659,-9.38993,-14.3911,-5.14489,69.1721
2023-03-14 16:30:51:276,-0.963543,2.4519,-9.39547,-14.3906,-5.14505,69.1742
2023-03-14 16:30:51:286,-0.957681,2.44536,-9.40231,-14.3871,-5.1467,69.1755
2023-03-14 16:30:51:295,-0.941744,2.43932,-9.41665,-14.3869,-5.15004,69.1712
2023-03-14 16:30:51:305,-0.925707,2.42482,-9.42566,-14.3854,-5.1484,69.1631
2023-03-14 16:30:51:315,-0.923849,2.42815,-9.43171,-14.3856,-5.14968,69.1549
2023-03-14 16:30:51:326,-0.908175,2.42619,-9.44623,-14.386,-5.1501,69.1448
2023-03-14 16:30:51:336,-0.894479,2.4339,-9.42539,-14.3846,-5.14787,69.1321
2023-03-14 16:30:51:345,-0.870736,2.42837,-9.42731,-14.3856,-5.14204,69.1185
2023-03-14 16:30:51:356,-0.870642,2.42451,-9.41772,-14.3863,-5.13915,69.1086
2023-03-14 16:30:51:366,-0.887793,2.454,-9.42832,-14.3904,-5.13141,69.0976
2023-03-14 16:30:51:376,-0.891729,2.45294,-9.44032,-14.3936,-5.12408,69.0869
2023-03-14 16:30:51:386,-0.873301,2.45111,-9.45048,-14.4009,-5.1104,69.0781
2023-03-14 16:30:51:396,-0.830562,2.47655,-9.47954,-14.4039,-5.09614,69.065
2023-03-14 16:30:51:406,-0.796928,2.46972,-9.50517,-14.4038,-5.08623,69.049
2023-03-14 16:30:51:416,-0.795087,2.45786,-9.48403,-14.3995,-5.0796,69.0373
2023-03-14 16:30:51:426,-0.815973,2.4474,-9.44537,-14.3902,-5.07659,69.0275
2023-03-14 16:30:51:436,-0.820011,2.42367,-9.43522,-14.3845,-5.07178,69.0195
2023-03-14 16:30:51:446,-0.804132,2.41804,-9.4275,-14.3768,-5.06751,69.0108
2023-03-14 16:30:51:456,-0.790493,2.41867,-9.4205,-14.3696,-5.06497,69.0027
2023-03-14 16:30:51:466,-0.77796,2.39704,-9.42888,-14.3638,-5.06116,68.9965
2023-03-14 16:30:51:476,-0.784909,2.39692,-9.42305,-14.36,-5.05691,68.9923
2023-03-14 16:30:51:486,-0.800302,2.3985,-9.41543,-14.3559,-5.05329,68.989
2023-03-14 16:30:51:496,-0.801139,2.39063,-9.43737,-14.3519,-5.05033,68.9888
2023-03-14 16:30:51:506,-0.797178,2.39421,-9.43134,-14.3484,-5.04974,68.9884
2023-03-14 16:30:51:516,-0.791182,2.39507,-9.42403,-14.3492,-5.04792,68.9874
2023-03-14 16:30:51:526,-0.810479,2.40353,-9.4276,-14.3491,-5.04942,68.9887
2023-03-14 16:30:51:536,-0.822834,2.41598,-9.42331,-14.3521,-5.05576,68.9903
2023-03-14 16:30:51:546,-0.825509,2.40176,-9.42735,-14.3523,-5.06328,68.9941
2023-03-14 16:30:51:556,-0.816354,2.39255,-9.44769,-14.3514,-5.06835,68.9975
2023-03-14 16:30:51:566,-0.802887,2.40186,-9.45786,-14.3502,-5.07742,68.9995
2023-03-14 16:30:51:575,-0.81226,2.39124,-9.45081,-14.3516,-5.08695,69.0063
2023-03-14 16:30:51:585,-0.824385,2.38239,-9.4448,-14.3527,-5.09847,69.0137
2023-03-14 16:30:51:595,-0.844025,2.39052,-9.42865,-14.3546,-5.11059,69.0233
2023-03-14 16:30:51:605,-0.843748,2.38022,-9.43306,-14.3597,-5.12336,69.0327
2023-03-14 16:30:51:616,-0.870124,2.38611,-9.42746,-14.3624,-5.13428,69.0441
2023-03-14 16:30:51:625,-0.878806,2.38539,-9.42695,-14.3693,-5.14726,69.0528
2023-03-14 16:30:51:635,-0.902821,2.39444,-9.42569,-14.3725,-5.15507,69.0647
2023-03-14 16:30:51:645,-0.918433,2.39056,-9.41926,-14.3761,-5.16119,69.0786
2023-03-14 16:30:51:655,-0.931406,2.38981,-9.40111,-14.382,-5.16887,69.0883
2023-03-14 16:30:51:665,-0.938402,2.40385,-9.39989,-14.39,-5.17549,69.0983
2023-03-14 16:30:51:675,-0.939795,2.42334,-9.40866,-14.4003,-5.17927,69.1081
2023-03-14 16:30:51:685,-0.94729,2.42614,-9.40916,-14.4126,-5.18732,69.1144
2023-03-14 16:30:51:695,-0.928453,2.42462,-9.43029,-14.4245,-5.19508,69.119
2023-03-14 16:30:51:705,-0.904267,2.42106,-9.42541,-14.4335,-5.20084,69.1208
2023-03-14 16:30:51:715,-0.907536,2.41836,-9.40183,-14.4439,-5.20943,69.1224
2023-03-14 16:30:51:726,-0.907423,2.42525,-9.40243,-14.4575,-5.21371,69.1184
2023-03-14 16:30:51:736,-0.907974,2.42728,-9.40901,-14.4747,-5.21887,69.12
2023-03-14 16:30:51:746,-0.907449,2.45434,-9.41329,-14.4924,-5.22028,69.1178
2023-03-14 16:30:51:756,-0.912885,2.46751,-9.44162,-14.5066,-5.2178,69.1145
2023-03-14 16:30:51:766,-0.898674,2.47208,-9.4637,-14.5221,-5.2164,69.1152
2023-03-14 16:30:51:776,-0.899545,2.48451,-9.47301,-14.5329,-5.21394,69.1158
2023-03-14 16:30:51:786,-0.897745,2.49592,-9.46968,-14.5428,-5.21393,69.1155
2023-03-14 16:30:51:796,-0.890632,2.49692,-9.47576,-14.5526,-5.21089,69.1128
2023-03-14 16:30:51:806,-0.876656,2.49207,-9.4711,-14.559,-5.20655,69.1118
2023-03-14 16:30:51:816,-0.868594,2.47274,-9.45233,-14.5624,-5.1996,69.1105
2023-03-14 16:30:51:826,-0.858597,2.44938,-9.43527,-14.5638,-5.19751,69.1098
2023-03-14 16:30:51:836,-0.856579,2.45142,-9.42184,-14.5693,-5.1925,69.1069
2023-03-14 16:30:51:845,-0.840618,2.46508,-9.42768,-14.5689,-5.18613,69.1022
2023-03-14 16:30:51:856,-0.827847,2.46572,-9.43999,-14.5674,-5.18157,69.0976
2023-03-14 16:30:51:865,-0.817104,2.44908,-9.43628,-14.5696,-5.17623,69.0963
2023-03-14 16:30:51:876,-0.815147,2.45023,-9.42162,-14.5722,-5.17068,69.0956
2023-03-14 16:30:51:886,-0.813936,2.45775,-9.41469,-14.5744,-5.16766,69.0933
2023-03-14 16:30:51:895,-0.817397,2.45928,-9.40208,-14.58,-5.16675,69.0945
2023-03-14 16:30:51:905,-0.824044,2.45633,-9.40102,-14.5843,-5.16704,69.0974
2023-03-14 16:30:51:916,-0.826642,2.45017,-9.39812,-14.5931,-5.16441,69.0994
2023-03-14 16:30:51:926,-0.851483,2.45509,-9.40373,-14.6026,-5.16612,69.1054
2023-03-14 16:30:51:936,-0.859192,2.46534,-9.39356,-14.6129,-5.16948,69.1127
2023-03-14 16:30:51:946,-0.867112,2.46845,-9.3952,-14.6216,-5.17057,69.1191
2023-03-14 16:30:51:956,-0.880412,2.47236,-9.40741,-14.629,-5.17046,69.1282
2023-03-14 16:30:51:966,-0.885714,2.48591,-9.41725,-14.6363,-5.17024,69.1355
2023-03-14 16:30:51:976,-0.896088,2.49624,-9.40801,-14.644,-5.17294,69.1399
2023-03-14 16:30:51:985,-0.916228,2.50201,-9.4183,-14.653,-5.17473,69.143
2023-03-14 16:30:51:995,-0.904625,2.50098,-9.41656,-14.6613,-5.17552,69.1462
2023-03-14 16:30:52:5,-0.873802,2.50867,-9.42893,-14.6685,-5.17351,69.1495
2023-03-14 16:30:52:15,-0.865993,2.50384,-9.422,-14.6775,-5.176,69.1495
2023-03-14 16:30:52:25,-0.859797,2.49764,-9.42682,-14.686,-5.17823,69.1504
2023-03-14 16:30:52:35,-0.869403,2.50944,-9.45429,-14.6945,-5.18057,69.1474
2023-03-14 16:30:52:45,-0.856511,2.51918,-9.47574,-14.7025,-5.1823,69.1486
2023-03-14 16:30:52:55,-0.833469,2.49811,-9.45546,-14.7084,-5.18338,69.1499
2023-03-14 16:30:52:66,-0.823933,2.48802,-9.4129,-14.7104,-5.18503,69.1501
2023-03-14 16:30:52:76,-0.842399,2.47958,-9.38304,-14.7155,-5.19081,69.1542
2023-03-14 16:30:52:85,-0.889516,2.49966,-9.39702,-14.7246,-5.19536,69.1615
2023-03-14 16:30:52:96,-0.91736,2.52124,-9.42524,-14.7339,-5.20004,69.1692
2023-03-14 16:30:52:106,-0.908525,2.54615,-9.4382,-14.7432,-5.20503,69.1787
2023-03-14 16:30:52:116,-0.893943,2.54385,-9.42585,-14.7483,-5.20616,69.185
2023-03-14 16:30:52:126,-0.901222,2.52244,-9.39434,-14.7537,-5.21193,69.1894
2023-03-14 16:30:52:136,-0.90267,2.52526,-9.39279,-14.7594,-5.2158,69.1947
2023-03-14 16:30:52:146,-0.921772,2.52642,-9.38627,-14.7634,-5.21806,69.2017
2023-03-14 16:30:52:156,-0.921361,2.52949,-9.38288,-14.7674,-5.22201,69.2055
2023-03-14 16:30:52:166,-0.926457,2.52302,-9.37005,-14.771,-5.22599,69.2097
2023-03-14 16:30:52:176,-0.936383,2.50967,-9.37516,-14.7762,-5.22582,69.2128
2023-03-14 16:30:52:185,-0.917912,2.52303,-9.3897,-14.7819,-5.22363,69.2102
2023-03-14 16:30:52:196,-0.922998,2.53278,-9.39384,-14.7863,-5.22203,69.2117
2023-03-14 16:30:52:206,-0.922919,2.5255,-9.41238,-14.79,-5.21675,69.2094
2023-03-14 16:30:52:215,-0.920464,2.52918,-9.41381,-14.7965,-5.21045,69.2066
2023-03-14 16:30:52:226,-0.916071,2.52044,-9.4147,-14.8039,-5.20766,69.2013
2023-03-14 16:30:52:236,-0.915797,2.52352,-9.42989,-14.8092,-5.20392,69.1916
2023-03-14 16:30:52:246,-0.9076,2.54192,-9.42496,-14.8139,-5.19778,69.1838
2023-03-14 16:30:52:256,-0.88389,2.54329,-9.40501,-14.8192,-5.18977,69.1752
2023-03-14 16:30:52:266,-0.868757,2.54597,-9.42247,-14.8259,-5.1863,69.1647
2023-03-14 16:30:52:276,-0.88864,2.55013,-9.44289,-14.8297,-5.18006,69.1542
2023-03-14 16:30:52:286,-0.907041,2.55547,-9.43623,-14.8335,-5.17765,69.1457
2023-03-14 16:30:52:296,-0.880644,2.55306,-9.44754,-14.8387,-5.1693,69.1361
2023-03-14 16:30:52:306,-0.805243,2.54612,-9.4586,-14.8399,-5.16075,69.1212
2023-03-14 16:30:52:316,-0.763651,2.52961,-9.44961,-14.8392,-5.1506,69.1066
2023-03-14 16:30:52:326,-0.782017,2.52435,-9.42407,-14.8376,-5.14579,69.099
2023-03-14 16:30:52:336,-0.813509,2.52679,-9.41719,-14.8333,-5.14058,69.094
2023-03-14 16:30:52:345,-0.825705,2.53134,-9.40953,-14.8312,-5.13679,69.0907
2023-03-14 16:30:52:355,-0.821315,2.52185,-9.423,-14.8245,-5.13355,69.0881
2023-03-14 16:30:52:366,-0.817059,2.5154,-9.41741,-14.819,-5.12848,69.0873
2023-03-14 16:30:52:376,-0.817739,2.51367,-9.42429,-14.8148,-5.12706,69.0855
2023-03-14 16:30:52:385,-0.808815,2.51855,-9.42036,-14.8085,-5.12357,69.0861
2023-03-14 16:30:52:395,-0.815781,2.49866,-9.41171,-14.802,-5.11965,69.0887
2023-03-14 16:30:52:405,-0.825578,2.48415,-9.40017,-14.7969,-5.11833,69.0936
2023-03-14 16:30:52:416,-0.834902,2.48802,-9.39588,-14.7925,-5.11625,69.0958
2023-03-14 16:30:52:425,-0.844643,2.50116,-9.39697,-14.7909,-5.11936,69.0995
2023-03-14 16:30:52:435,-0.858415,2.4983,-9.40233,-14.7882,-5.11934,69.1011
2023-03-14 16:30:52:445,-0.874797,2.50172,-9.40599,-14.7851,-5.11908,69.1019
2023-03-14 16:30:52:455,-0.851628,2.4976,-9.42074,-14.7805,-5.12221,69.1042
2023-03-14 16:30:52:465,-0.846062,2.50287,-9.43487,-14.7779,-5.12208,69.1057
2023-03-14 16:30:52:475,-0.845504,2.50576,-9.43343,-14.7769,-5.12072,69.1066
2023-03-14 16:30:52:485,-0.843097,2.49051,-9.43686,-14.7759,-5.12548,69.1066
2023-03-14 16:30:52:495,-0.854346,2.48858,-9.43657,-14.7678,-5.13258,69.1086
2023-03-14 16:30:52:505,-0.866961,2.49101,-9.43256,-14.7649,-5.13818,69.1087
2023-03-14 16:30:52:516,-0.866561,2.47947,-9.44306,-14.7607,-5.14465,69.1124
2023-03-14 16:30:52:526,-0.860022,2.46385,-9.43096,-14.7555,-5.15176,69.116
2023-03-14 16:30:52:536,-0.851471,2.45179,-9.40493,-14.7458,-5.15256,69.1201
2023-03-14 16:30:52:546,-0.869736,2.44936,-9.38623,-14.7388,-5.15607,69.1205
2023-03-14 16:30:52:556,-0.893162,2.43908,-9.39827,-14.7345,-5.15786,69.1291
2023-03-14 16:30:52:565,-0.908645,2.43943,-9.39243,-14.7298,-5.16007,69.1323
2023-03-14 16:30:52:575,-0.921016,2.45381,-9.37841,-14.7259,-5.16385,69.1388
2023-03-14 16:30:52:585,-0.927059,2.44766,-9.38514,-14.7254,-5.16361,69.1451
2023-03-14 16:30:52:595,-0.92231,2.44936,-9.39411,-14.7241,-5.16177,69.1506
2023-03-14 16:30:52:605,-0.924838,2.45546,-9.39299,-14.7215,-5.16397,69.1526
2023-03-14 16:30:52:615,-0.911143,2.45613,-9.40011,-14.7227,-5.16448,69.152
2023-03-14 16:30:52:625,-0.900718,2.47054,-9.40322,-14.7266,-5.16362,69.1473
2023-03-14 16:30:52:635,-0.893276,2.47897,-9.40163,-14.7292,-5.15968,69.1429
2023-03-14 16:30:52:645,-0.871629,2.47641,-9.41312,-14.7349,-5.15835,69.1365
2023-03-14 16:30:52:655,-0.863029,2.47439,-9.41564,-14.7366,-5.15285,69.1256
2023-03-14 16:30:52:665,-0.8448,2.46736,-9.40354,-14.7396,-5.15092,69.1188
2023-03-14 16:30:52:676,-0.839993,2.46508,-9.41827,-14.7418,-5.14805,69.1149
2023-03-14 16:30:52:686,-0.831664,2.4807,-9.4104,-14.7451,-5.14087,69.1106
2023-03-14 16:30:52:696,-0.829037,2.47107,-9.41127,-14.75,-5.13603,69.1045
2023-03-14 16:30:52:706,-0.824216,2.4751,-9.4188,-14.756,-5.13004,69.1005
2023-03-14 16:30:52:716,-0.835104,2.47192,-9.41535,-14.763,-5.12315,69.0991
2023-03-14 16:30:52:726,-0.834525,2.47545,-9.42073,-14.7673,-5.11493,69.0961
2023-03-14 16:30:52:736,-0.832373,2.49478,-9.43995,-14.7733,-5.11213,69.0955
2023-03-14 16:30:52:746,-0.828032,2.50309,-9.43338,-14.7805,-5.10835,69.0939
2023-03-14 16:30:52:756,-0.838438,2.49789,-9.43146,-14.7833,-5.10339,69.0962
2023-03-14 16:30:52:765,-0.833948,2.50814,-9.4133,-14.7829,-5.10397,69.0952
2023-03-14 16:30:52:776,-0.838965,2.50359,-9.40982,-14.7848,-5.09807,69.095
2023-03-14 16:30:52:785,-0.835417,2.50594,-9.39567,-14.7884,-5.09188,69.0964
2023-03-14 16:30:52:795,-0.828786,2.50228,-9.38266,-14.7898,-5.09136,69.0946
2023-03-14 16:30:52:805,-0.828639,2.50162,-9.39523,-14.7958,-5.08931,69.0931
2023-03-14 16:30:52:816,-0.840749,2.50318,-9.40014,-14.8001,-5.08739,69.0907
2023-03-14 16:30:52:825,-0.845849,2.50491,-9.42591,-14.8038,-5.08089,69.0895
2023-03-14 16:30:52:835,-0.84508,2.52076,-9.43865,-14.8079,-5.07889,69.088
2023-03-14 16:30:52:846,-0.844958,2.52565,-9.41782,-14.8131,-5.07576,69.088
2023-03-14 16:30:52:856,-0.846965,2.51113,-9.40824,-14.8116,-5.0704,69.0856
2023-03-14 16:30:52:866,-0.853109,2.50247,-9.39741,-14.8157,-5.07173,69.0856
2023-03-14 16:30:52:876,-0.839975,2.49445,-9.37917,-14.817,-5.06787,69.0854
2023-03-14 16:30:52:886,-0.840228,2.50403,-9.37345,-14.8215,-5.06433,69.0844
2023-03-14 16:30:52:896,-0.830564,2.50268,-9.37281,-14.8246,-5.06346,69.0839
2023-03-14 16:30:52:905,-0.818304,2.48844,-9.38001,-14.8265,-5.06266,69.0815
2023-03-14 16:30:52:916,-0.803423,2.50376,-9.40962,-14.8354,-5.06241,69.0793
2023-03-14 16:30:52:926,-0.796708,2.51662,-9.43792,-14.8416,-5.06245,69.0721
2023-03-14 16:30:52:936,-0.772578,2.51719,-9.45903,-14.85,-5.06327,69.0711
2023-03-14 16:30:52:946,-0.756166,2.49606,-9.45471,-14.8526,-5.06534,69.0709
2023-03-14 16:30:52:956,-0.774572,2.49697,-9.42945,-14.8575,-5.06762,69.0741
2023-03-14 16:30:52:966,-0.814185,2.517,-9.41867,-14.8608,-5.07411,69.0799
2023-03-14 16:30:52:976,-0.847554,2.5274,-9.43103,-14.8681,-5.08292,69.0906
2023-03-14 16:30:52:985,-0.856014,2.5335,-9.42789,-14.8734,-5.0886,69.0995
2023-03-14 16:30:52:996,-0.866792,2.53584,-9.41497,-14.8776,-5.09288,69.1128
2023-03-14 16:30:53:6,-0.878553,2.54414,-9.38851,-14.8812,-5.09649,69.1267
2023-03-14 16:30:53:16,-0.89957,2.56364,-9.38595,-14.8881,-5.09709,69.1373
2023-03-14 16:30:53:26,-0.940832,2.57572,-9.37674,-14.8947,-5.0988,69.1495
2023-03-14 16:30:53:36,-0.957811,2.57787,-9.38721,-14.8989,-5.0988,69.1583
2023-03-14 16:30:53:46,-0.96134,2.56772,-9.38347,-14.9021,-5.10365,69.161
2023-03-14 16:30:53:55,-0.94707,2.54259,-9.37781,-14.9022,-5.10517,69.1613
2023-03-14 16:30:53:66,-0.928725,2.53757,-9.36994,-14.9039,-5.1068,69.157
2023-03-14 16:30:53:76,-0.913709,2.53457,-9.38636,-14.908,-5.10674,69.1473
2023-03-14 16:30:53:86,-0.898058,2.56309,-9.38846,-14.9108,-5.10603,69.1383
2023-03-14 16:30:53:95,-0.875636,2.55444,-9.4099,-14.9166,-5.10488,69.1248
2023-03-14 16:30:53:105,-0.852889,2.56023,-9.42883,-14.919,-5.10277,69.11
2023-03-14 16:30:53:115,-0.846367,2.56179,-9.41471,-14.9264,-5.09779,69.0962
2023-03-14 16:30:53:126,-0.839066,2.54395,-9.42135,-14.9286,-5.08884,69.0798
2023-03-14 16:30:53:136,-0.817293,2.55086,-9.4191,-14.9318,-5.08345,69.0653
2023-03-14 16:30:53:145,-0.816867,2.54975,-9.407,-14.9338,-5.07438,69.0507
2023-03-14 16:30:53:155,-0.845802,2.5542,-9.41103,-14.9368,-5.06912,69.0407
2023-03-14 16:30:53:165,-0.8476,2.55965,-9.42151,-14.941,-5.06139,69.0317
2023-03-14 16:30:53:175,-0.836234,2.56919,-9.44301,-14.9477,-5.05205,69.0232
2023-03-14 16:30:53:185,-0.794426,2.57315,-9.46302,-14.9444,-5.04436,69.0093
2023-03-14 16:30:53:196,-0.763894,2.54014,-9.44037,-14.9425,-5.03843,68.9995
2023-03-14 16:30:53:205,-0.7817,2.51195,-9.41448,-14.9385,-5.03244,68.9895
2023-03-14 16:30:53:215,-0.824464,2.5181,-9.39419,-14.9308,-5.02866,68.9853
2023-03-14 16:30:53:226,-0.845142,2.51841,-9.38488,-14.9287,-5.02568,68.9802
2023-03-14 16:30:53:236,-0.830135,2.51821,-9.40013,-14.9227,-5.02073,68.9757
2023-03-14 16:30:53:246,-0.820102,2.52788,-9.40531,-14.9202,-5.01605,68.9721
2023-03-14 16:30:53:255,-0.810203,2.52378,-9.40849,-14.9174,-5.01238,68.9691
2023-03-14 16:30:53:266,-0.807699,2.52597,-9.40446,-14.9116,-5.0044,68.9665
2023-03-14 16:30:53:276,-0.824033,2.51974,-9.41116,-14.909,-5.0016,68.9636
2023-03-14 16:30:53:286,-0.828173,2.5218,-9.40326,-14.9078,-5.00058,68.9626
2023-03-14 16:30:53:296,-0.823105,2.52237,-9.39154,-14.9064,-4.99716,68.9595
2023-03-14 16:30:53:306,-0.807206,2.52728,-9.37988,-14.9071,-4.99629,68.9594
2023-03-14 16:30:53:316,-0.802307,2.5226,-9.38535,-14.9063,-4.99703,68.955
2023-03-14 16:30:53:326,-0.805093,2.50681,-9.39441,-14.9076,-4.99624,68.9523
2023-03-14 16:30:53:336,-0.802252,2.51514,-9.39448,-14.9071,-4.99699,68.9531
2023-03-14 16:30:53:346,-0.793009,2.51424,-9.41876,-14.9102,-4.99935,68.9515
2023-03-14 16:30:53:356,-0.785069,2.51503,-9.43167,-14.913,-5.00385,68.9496
2023-03-14 16:30:53:366,-0.79008,2.51403,-9.42577,-14.9129,-5.00806,68.9477
2023-03-14 16:30:53:376,-0.807915,2.51509,-9.43298,-14.9133,-5.01647,68.948
2023-03-14 16:30:53:386,-0.819189,2.52129,-9.41884,-14.9148,-5.02253,68.9539
2023-03-14 16:30:53:396,-0.828302,2.51723,-9.42474,-14.9193,-5.02823,68.9627
2023-03-14 16:30:53:406,-0.843342,2.51557,-9.41557,-14.9182,-5.036,68.9701
2023-03-14 16:30:53:416,-0.851923,2.51874,-9.39794,-14.9204,-5.04089,68.979
2023-03-14 16:30:53:426,-0.851983,2.51561,-9.39849,-14.921,-5.04445,68.9901
2023-03-14 16:30:53:436,-0.849455,2.51291,-9.3955,-14.9206,-5.05028,69.0029
2023-03-14 16:30:53:445,-0.870122,2.52759,-9.39422,-14.9246,-5.05355,69.0118
2023-03-14 16:30:53:455,-0.879802,2.52989,-9.39624,-14.9247,-5.05695,69.0189
2023-03-14 16:30:53:465,-0.866626,2.52689,-9.40002,-14.9261,-5.06042,69.0239
2023-03-14 16:30:53:476,-0.853349,2.51997,-9.40499,-14.9294,-5.06513,69.029
2023-03-14 16:30:53:486,-0.852575,2.5267,-9.4056,-14.9325,-5.07222,69.0318
2023-03-14 16:30:53:496,-0.850699,2.53221,-9.40857,-14.9384,-5.07753,69.0338
2023-03-14 16:30:53:506,-0.85337,2.53316,-9.4096,-14.9397,-5.08192,69.0373
2023-03-14 16:30:53:516,-0.847772,2.53112,-9.40502,-14.9464,-5.08539,69.0365
2023-03-14 16:30:53:525,-0.827565,2.53178,-9.41352,-14.9497,-5.09061,69.0407
2023-03-14 16:30:53:536,-0.825751,2.53248,-9.42765,-14.9545,-5.09689,69.0428
2023-03-14 16:30:53:546,-0.831206,2.54514,-9.42694,-14.9578,-5.10296,69.0466
2023-03-14 16:30:53:555,-0.837247,2.54996,-9.44588,-14.9583,-5.10966,69.0516
2023-03-14 16:30:53:565,-0.826692,2.54466,-9.448,-14.9615,-5.11522,69.0568
2023-03-14 16:30:53:575,-0.825443,2.54044,-9.43411,-14.9595,-5.12048,69.0615
2023-03-14 16:30:53:585,-0.833116,2.53242,-9.43472,-14.9586,-5.12674,69.0669
2023-03-14 16:30:53:596,-0.839562,2.54314,-9.41653,-14.9569,-5.13575,69.0724
2023-03-14 16:30:53:605,-0.839674,2.54044,-9.41222,-14.9563,-5.14541,69.0809
2023-03-14 16:30:53:616,-0.849468,2.51513,-9.41985,-14.9545,-5.15345,69.0891
2023-03-14 16:30:53:625,-0.866646,2.52072,-9.41062,-14.9533,-5.16133,69.1016
2023-03-14 16:30:53:636,-0.864404,2.53443,-9.40048,-14.9503,-5.16977,69.1114
2023-03-14 16:30:53:646,-0.874119,2.52589,-9.39458,-14.9531,-5.18051,69.1201
2023-03-14 16:30:53:656,-0.887998,2.51181,-9.39046,-14.9483,-5.18706,69.1285
2023-03-14 16:30:53:666,-0.90011,2.49828,-9.3867,-14.9483,-5.19355,69.1371
2023-03-14 16:30:53:675,-0.920045,2.50152,-9.38277,-14.9498,-5.20156,69.1498
2023-03-14 16:30:53:686,-0.91906,2.5121,-9.39249,-14.9505,-5.20655,69.1585
2023-03-14 16:30:53:695,-0.929754,2.50726,-9.39601,-14.9536,-5.21111,69.1679
2023-03-14 16:30:53:706,-0.929368,2.51337,-9.39353,-14.9546,-5.21496,69.1727
2023-03-14 16:30:53:716,-0.927466,2.51698,-9.40477,-14.9551,-5.21736,69.1811
2023-03-14 16:30:53:726,-0.928468,2.51242,-9.40263,-14.9574,-5.22007,69.1894
2023-03-14 16:30:53:736,-0.921604,2.5277,-9.38679,-14.9614,-5.22095,69.1921
2023-03-14 16:30:53:746,-0.929365,2.5125,-9.37194,-14.9646,-5.22015,69.1944
2023-03-14 16:30:53:756,-0.940123,2.49526,-9.38331,-14.9698,-5.22515,69.1937
2023-03-14 16:30:53:766,-0.933571,2.50256,-9.37173,-14.9756,-5.23069,69.1889
2023-03-14 16:30:53:776,-0.916777,2.51328,-9.37577,-14.9788,-5.23194,69.1814
2023-03-14 16:30:53:786,-0.893046,2.52724,-9.40775,-14.9846,-5.2302,69.1734
2023-03-14 16:30:53:796,-0.874034,2.51509,-9.41398,-14.9911,-5.23112,69.1625
2023-03-14 16:30:53:806,-0.876236,2.51676,-9.40569,-14.9945,-5.22981,69.1518
2023-03-14 16:30:53:816,-0.848537,2.53648,-9.42758,-15.0012,-5.22635,69.1417
2023-03-14 16:30:53:826,-0.827686,2.53441,-9.45863,-15.0068,-5.22113,69.1333
2023-03-14 16:30:53:836,-0.80278,2.53754,-9.45906,-15.0109,-5.21482,69.1248
2023-03-14 16:30:53:846,-0.781387,2.51272,-9.42508,-15.0137,-5.21554,69.1196
2023-03-14 16:30:53:856,-0.799013,2.51489,-9.40283,-15.0197,-5.21893,69.12
2023-03-14 16:30:53:866,-0.843733,2.53825,-9.41611,-15.0285,-5.22064,69.126
2023-03-14 16:30:53:876,-0.87284,2.55308,-9.4244,-15.0341,-5.22805,69.1286
2023-03-14 16:30:53:886,-0.858738,2.57079,-9.41685,-15.0385,-5.23236,69.1318
2023-03-14 16:30:53:896,-0.862757,2.57467,-9.40247,-15.0435,-5.23625,69.1336
2023-03-14 16:30:53:906,-0.891486,2.57909,-9.38985,-15.0493,-5.24143,69.1333
2023-03-14 16:30:53:916,-0.888053,2.58656,-9.37686,-15.0564,-5.24585,69.1392
2023-03-14 16:30:53:925,-0.897193,2.58715,-9.38244,-15.0611,-5.24887,69.1432
2023-03-14 16:30:53:935,-0.905527,2.58879,-9.3775,-15.0625,-5.2505,69.1449
2023-03-14 16:30:53:945,-0.900807,2.5745,-9.37058,-15.0657,-5.25438,69.1448
2023-03-14 16:30:53:955,-0.89904,2.5691,-9.36424,-15.0684,-5.25618,69.1452
2023-03-14 16:30:53:966,-0.882194,2.56421,-9.36415,-15.0705,-5.25916,69.1399
2023-03-14 16:30:53:976,-0.880134,2.56442,-9.37862,-15.0731,-5.25998,69.1366
2023-03-14 16:30:53:986,-0.88715,2.56245,-9.40523,-15.0754,-5.25663,69.1323
2023-03-14 16:30:53:996,-0.882895,2.56697,-9.40206,-15.077,-5.25574,69.1299
2023-03-14 16:30:54:6,-0.886008,2.56803,-9.40933,-15.0777,-5.25699,69.1238
2023-03-14 16:30:54:16,-0.874655,2.57482,-9.42344,-15.0835,-5.25684,69.118
2023-03-14 16:30:54:26,-0.88049,2.57751,-9.42761,-15.0862,-5.25839,69.1129
2023-03-14 16:30:54:36,-0.878621,2.56439,-9.41394,-15.0946,-5.26022,69.1096
2023-03-14 16:30:54:46,-0.901678,2.5573,-9.41658,-15.1005,-5.26243,69.1092
2023-03-14 16:30:54:56,-0.917279,2.57562,-9.41164,-15.1025,-5.26206,69.1059
2023-03-14 16:30:54:66,-0.906298,2.58776,-9.41798,-15.1087,-5.25831,69.1073
2023-03-14 16:30:54:76,-0.869426,2.60701,-9.42836,-15.1127,-5.25428,69.0991
2023-03-14 16:30:54:86,-0.817801,2.57926,-9.45409,-15.1087,-5.25296,69.0886
2023-03-14 16:30:54:96,-0.824787,2.55581,-9.41777,-15.1036,-5.25071,69.081
2023-03-14 16:30:54:106,-0.857248,2.54891,-9.37488,-15.0976,-5.2542,69.0771
2023-03-14 16:30:54:116,-0.87598,2.54713,-9.37573,-15.0921,-5.25588,69.0761
2023-03-14 16:30:54:126,-0.854567,2.54344,-9.38664,-15.0901,-5.25561,69.074
2023-03-14 16:30:54:136,-0.850771,2.53467,-9.39183,-15.0834,-5.25798,69.0712
2023-03-14 16:30:54:146,-0.845342,2.54399,-9.40063,-15.0787,-5.25828,69.0707
2023-03-14 16:30:54:156,-0.852198,2.53807,-9.4088,-15.0796,-5.26139,69.0736
2023-03-14 16:30:54:165,-0.858339,2.53546,-9.39249,-15.0783,-5.26304,69.0766
2023-03-14 16:30:54:176,-0.857972,2.53705,-9.38464,-15.0779,-5.26427,69.0824
2023-03-14 16:30:54:186,-0.852066,2.52869,-9.38717,-15.0756,-5.26819,69.087
2023-03-14 16:30:54:196,-0.865468,2.52565,-9.3961,-15.0727,-5.27144,69.0931
2023-03-14 16:30:54:206,-0.87059,2.53131,-9.39957,-15.0772,-5.27373,69.1001
2023-03-14 16:30:54:216,-0.862533,2.53601,-9.41502,-15.0788,-5.27394,69.1018
2023-03-14 16:30:54:226,-0.863999,2.54179,-9.42363,-15.0757,-5.27921,69.1055
2023-03-14 16:30:54:236,-0.870378,2.55177,-9.42905,-15.0765,-5.28472,69.1087
2023-03-14 16:30:54:246,-0.879978,2.55625,-9.42978,-15.0771,-5.29303,69.1126
2023-03-14 16:30:54:256,-0.880818,2.54621,-9.43208,-15.0776,-5.29773,69.1173
2023-03-14 16:30:54:266,-0.891503,2.54113,-9.42448,-15.0739,-5.30516,69.1223
2023-03-14 16:30:54:276,-0.908393,2.5438,-9.41068,-15.0716,-5.31155,69.129
2023-03-14 16:30:54:286,-0.910828,2.53933,-9.40723,-15.0648,-5.31777,69.1351
2023-03-14 16:30:54:295,-0.920844,2.52889,-9.39895,-15.0598,-5.32207,69.1421
2023-03-14 16:30:54:305,-0.923293,2.52733,-9.38334,-15.0579,-5.3264,69.1496
2023-03-14 16:30:54:315,-0.916,2.53134,-9.37255,-15.0569,-5.32825,69.1571
2023-03-14 16:30:54:325,-0.937271,2.5258,-9.3719,-15.0559,-5.32971,69.1631
2023-03-14 16:30:54:336,-0.934915,2.52421,-9.381,-15.0561,-5.33144,69.1669
2023-03-14 16:30:54:345,-0.952619,2.52266,-9.39436,-15.0571,-5.33578,69.1727
2023-03-14 16:30:54:355,-0.965485,2.53145,-9.39728,-15.0575,-5.33885,69.1753
2023-03-14 16:30:54:366,-0.971844,2.5333,-9.39665,-15.0562,-5.34383,69.1757
2023-03-14 16:30:54:375,-0.969204,2.53676,-9.38452,-15.056,-5.34833,69.1758
2023-03-14 16:30:54:385,-0.945314,2.52371,-9.37416,-15.058,-5.34962,69.1735
2023-03-14 16:30:54:396,-0.926666,2.51121,-9.3635,-15.0577,-5.35253,69.1685
2023-03-14 16:30:54:406,-0.920334,2.50279,-9.3632,-15.0572,-5.35667,69.1694
2023-03-14 16:30:54:416,-0.893532,2.51734,-9.37053,-15.0616,-5.35623,69.1647
2023-03-14 16:30:54:425,-0.891373,2.52979,-9.38295,-15.0674,-5.35377,69.1588
2023-03-14 16:30:54:436,-0.896294,2.53719,-9.38964,-15.0728,-5.34955,69.1564
2023-03-14 16:30:54:445,-0.896165,2.55151,-9.39337,-15.0818,-5.34649,69.1564
2023-03-14 16:30:54:456,-0.905271,2.55915,-9.42172,-15.0908,-5.34949,69.1563
2023-03-14 16:30:54:466,-0.900862,2.57986,-9.42754,-15.101,-5.34859,69.1566
2023-03-14 16:30:54:476,-0.883826,2.58977,-9.43247,-15.1061,-5.34694,69.1551
2023-03-14 16:30:54:486,-0.88824,2.58446,-9.42461,-15.1063,-5.34399,69.1557
2023-03-14 16:30:54:496,-0.888419,2.57832,-9.42084,-15.1092,-5.34613,69.1561
2023-03-14 16:30:54:506,-0.884041,2.55738,-9.41364,-15.1113,-5.34747,69.1571
2023-03-14 16:30:54:516,-0.890379,2.5611,-9.41871,-15.1104,-5.34732,69.1584
2023-03-14 16:30:54:526,-0.906761,2.56522,-9.4231,-15.1103,-5.34506,69.1604
2023-03-14 16:30:54:536,-0.918759,2.55617,-9.4321,-15.1119,-5.34548,69.1631
2023-03-14 16:30:54:546,-0.922627,2.55035,-9.41694,-15.1124,-5.34864,69.1673
2023-03-14 16:30:54:556,-0.929211,2.5481,-9.41711,-15.1064,-5.34569,69.1705
2023-03-14 16:30:54:566,-0.947605,2.55668,-9.39505,-15.0986,-5.34395,69.1769
2023-03-14 16:30:54:576,-0.951214,2.53418,-9.40252,-15.0938,-5.343,69.1817
2023-03-14 16:30:54:585,-0.964636,2.53419,-9.3898,-15.089,-5.34109,69.1857
2023-03-14 16:30:54:596,-0.948167,2.51716,-9.37422,-15.0822,-5.3387,69.1897
2023-03-14 16:30:54:606,-0.954747,2.52145,-9.35794,-15.0791,-5.33606,69.1932
2023-03-14 16:30:54:616,-0.980283,2.51891,-9.35418,-15.0762,-5.33456,69.1975
2023-03-14 16:30:54:626,-0.944612,2.50492,-9.37153,-15.0737,-5.32836,69.1952
2023-03-14 16:30:54:636,-0.900917,2.5036,-9.3585,-15.0722,-5.32011,69.1897
2023-03-14 16:30:54:646,-0.879064,2.49625,-9.35626,-15.0716,-5.31337,69.1843
2023-03-14 16:30:54:655,-0.884157,2.48839,-9.37759,-15.072,-5.30548,69.1785
2023-03-14 16:30:54:665,-0.895883,2.50975,-9.402,-15.0731,-5.29691,69.1738
2023-03-14 16:30:54:675,-0.868715,2.52144,-9.43764,-15.0779,-5.28683,69.1683
2023-03-14 16:30:54:686,-0.835874,2.53196,-9.44738,-15.0815,-5.2781,69.1611
2023-03-14 16:30:54:695,-0.824669,2.52071,-9.40961,-15.0832,-5.27468,69.1567
2023-03-14 16:30:54:705,-0.832749,2.50585,-9.37245,-15.0837,-5.27096,69.1545
2023-03-14 16:30:54:715,-0.858889,2.50374,-9.36332,-15.0914,-5.2704,69.1571
2023-03-14 16:30:54:725,-0.878005,2.52665,-9.39546,-15.1001,-5.26663,69.1626
2023-03-14 16:30:54:736,-0.879725,2.54911,-9.42452,-15.1091,-5.26293,69.1693
2023-03-14 16:30:54:745,-0.872206,2.57522,-9.41816,-15.119,-5.25962,69.1737
2023-03-14 16:30:54:756,-0.877584,2.58443,-9.39819,-15.132,-5.26124,69.1766
2023-03-14 16:30:54:765,-0.900254,2.5981,-9.40751,-15.1404,-5.25938,69.1777
2023-03-14 16:30:54:776,-0.913386,2.60808,-9.41224,-15.1471,-5.25942,69.1839
2023-03-14 16:30:54:786,-0.919884,2.60956,-9.39741,-15.1488,-5.25898,69.1861
2023-03-14 16:30:54:796,-0.929961,2.59969,-9.37648,-15.1538,-5.25647,69.1871
2023-03-14 16:30:54:806,-0.934444,2.5843,-9.3762,-15.1545,-5.25262,69.1835
2023-03-14 16:30:54:816,-0.922127,2.57867,-9.36835,-15.1568,-5.24777,69.1811
2023-03-14 16:30:54:825,-0.906043,2.55206,-9.36846,-15.1582,-5.2426,69.1749
2023-03-14 16:30:54:836,-0.897951,2.55702,-9.38026,-15.1595,-5.23656,69.1702
