Timestamp,Acceleration_x,Acceleration_y,Acceleration_z,roll,pitch,yaw
2023-03-11 20:18:29:38,-0.0458258,0.976592,-9.80241,-5.46278,-0.918354,90.5988
2023-03-11 20:18:29:46,-0.0425804,0.975326,-9.79983,-5.4663,-0.924396,90.5919
2023-03-11 20:18:29:56,-0.0596961,0.98333,-9.8014,-5.47097,-0.929888,90.5897
2023-03-11 20:18:29:66,-0.105799,1.0053,-9.81823,-5.47638,-0.940019,90.5911
2023-03-11 20:18:29:76,-0.174862,1.01723,-9.81668,-5.4802,-0.954077,90.5977
2023-03-11 20:18:29:86,-0.200181,1.03918,-9.82805,-5.48348,-0.966834,90.6087
2023-03-11 20:18:29:96,-0.186188,1.0315,-9.84658,-5.47873,-0.978805,90.6159
2023-03-11 20:18:29:106,-0.169884,1.00059,-9.8319,-5.47355,-0.993646,90.6217
2023-03-11 20:18:29:116,-0.186165,0.980966,-9.8094,-5.46614,-1.01221,90.6259
2023-03-11 20:18:29:126,-0.222567,0.950337,-9.78695,-5.45646,-1.03746,90.6328
2023-03-11 20:18:29:136,-0.268759,0.928601,-9.74384,-5.4438,-1.06768,90.6423
2023-03-11 20:18:29:146,-0.300318,0.914045,-9.71698,-5.42846,-1.10103,90.6492
2023-03-11 20:18:29:156,-0.330886,0.894262,-9.71242,-5.41166,-1.13478,90.6571
2023-03-11 20:18:29:166,-0.370686,0.882311,-9.72112,-5.39229,-1.16801,90.6633
2023-03-11 20:18:29:176,-0.373478,0.876356,-9.73412,-5.37194,-1.19932,90.6647
2023-03-11 20:18:29:187,-0.339702,0.854914,-9.74126,-5.35062,-1.22156,90.6657
2023-03-11 20:18:29:197,-0.272323,0.83,-9.73276,-5.32408,-1.23268,90.6639
2023-03-11 20:18:29:207,-0.20175,0.805408,-9.68175,-5.2976,-1.23973,90.6585
2023-03-11 20:18:29:216,-0.107241,0.774669,-9.63,-5.27075,-1.24032,90.6574
2023-03-11 20:18:29:226,-0.0426873,0.762916,-9.56707,-5.25095,-1.23708,90.6638
2023-03-11 20:18:29:236,-0.0320112,0.764771,-9.52467,-5.2351,-1.23004,90.6779
2023-03-11 20:18:29:247,-0.0674268,0.816355,-9.53884,-5.23232,-1.22139,90.7012
2023-03-11 20:18:29:257,-0.100999,0.867434,-9.588,-5.23961,-1.20838,90.7317
2023-03-11 20:18:29:266,-0.133324,0.924108,-9.64881,-5.25507,-1.19458,90.7668
2023-03-11 20:18:29:277,-0.126127,0.958255,-9.69086,-5.2726,-1.17935,90.802
2023-03-11 20:18:29:287,-0.096534,0.961481,-9.71147,-5.2897,-1.16425,90.8346
2023-03-11 20:18:29:297,-0.102114,0.967476,-9.74375,-5.31057,-1.15294,90.8631
2023-03-11 20:18:29:307,-0.138993,0.978632,-9.7508,-5.33417,-1.15347,90.8889
2023-03-11 20:18:29:317,-0.184049,0.986507,-9.73585,-5.35404,-1.1654,90.9125
2023-03-11 20:18:29:327,-0.208369,0.97501,-9.72814,-5.37976,-1.18166,90.9316
2023-03-11 20:18:29:337,-0.22511,0.983539,-9.7225,-5.40537,-1.19994,90.9446
2023-03-11 20:18:29:346,-0.2368,1.02054,-9.7159,-5.43427,-1.22268,90.9522
2023-03-11 20:18:29:357,-0.236436,1.04671,-9.74296,-5.46727,-1.24756,90.9591
2023-03-11 20:18:29:366,-0.257796,1.07874,-9.78819,-5.50164,-1.27098,90.9625
2023-03-11 20:18:29:376,-0.275565,1.1168,-9.82049,-5.53677,-1.29656,90.9629
2023-03-11 20:18:29:386,-0.275422,1.12974,-9.86712,-5.56632,-1.3182,90.9619
2023-03-11 20:18:29:396,-0.279557,1.11607,-9.89371,-5.58473,-1.33709,90.9575
2023-03-11 20:18:29:406,-0.264727,1.08723,-9.89202,-5.59552,-1.35481,90.9532
2023-03-11 20:18:29:416,-0.249875,1.07012,-9.86692,-5.59526,-1.37179,90.9456
2023-03-11 20:18:29:426,-0.23549,1.04382,-9.81558,-5.5883,-1.38704,90.9383
2023-03-11 20:18:29:436,-0.212668,1.00155,-9.7777,-5.57455,-1.40114,90.9314
2023-03-11 20:18:29:446,-0.200621,0.975974,-9.76836,-5.56634,-1.41381,90.9248
2023-03-11 20:18:29:456,-0.181263,0.977329,-9.7814,-5.55232,-1.42737,90.9222
2023-03-11 20:18:29:466,-0.186545,0.993717,-9.79765,-5.54131,-1.44232,90.9234
2023-03-11 20:18:29:476,-0.202784,0.992008,-9.84146,-5.5303,-1.45783,90.9306
2023-03-11 20:18:29:486,-0.215529,0.996947,-9.85434,-5.51525,-1.47211,90.945
2023-03-11 20:18:29:496,-0.240838,0.987223,-9.83601,-5.49602,-1.48656,90.9631
2023-03-11 20:18:29:506,-0.243166,0.947308,-9.79285,-5.46939,-1.50153,90.9835
2023-03-11 20:18:29:516,-0.265212,0.920453,-9.74007,-5.43995,-1.51158,91.0055
2023-03-11 20:18:29:526,-0.287896,0.901176,-9.68041,-5.40597,-1.52473,91.0306
2023-03-11 20:18:29:536,-0.312784,0.883712,-9.64605,-5.37703,-1.53287,91.0562
2023-03-11 20:18:29:546,-0.336973,0.863082,-9.63848,-5.35358,-1.54101,91.0833
2023-03-11 20:18:29:556,-0.381198,0.865339,-9.61384,-5.33392,-1.55068,91.1117
2023-03-11 20:18:29:566,-0.390737,0.872952,-9.59219,-5.3174,-1.56062,91.1378
2023-03-11 20:18:29:576,-0.39823,0.876802,-9.60171,-5.30864,-1.5691,91.1637
2023-03-11 20:18:29:586,-0.406935,0.865158,-9.63565,-5.30662,-1.57042,91.1858
2023-03-11 20:18:29:596,-0.408962,0.879167,-9.65842,-5.30894,-1.5726,91.2045
2023-03-11 20:18:29:606,-0.403268,0.907134,-9.68078,-5.31534,-1.57644,91.222
2023-03-11 20:18:29:616,-0.396227,0.93782,-9.71493,-5.32527,-1.57896,91.2363
2023-03-11 20:18:29:626,-0.405389,0.953215,-9.75597,-5.33659,-1.58482,91.249
2023-03-11 20:18:29:636,-0.414647,0.982392,-9.77655,-5.34869,-1.58176,91.2566
2023-03-11 20:18:29:646,-0.402639,0.979113,-9.78696,-5.35838,-1.57936,91.2642
2023-03-11 20:18:29:656,-0.370636,0.963879,-9.77854,-5.3632,-1.56911,91.2682
2023-03-11 20:18:29:666,-0.353954,0.955065,-9.7372,-5.36193,-1.56001,91.2676
2023-03-11 20:18:29:676,-0.319234,0.926026,-9.72094,-5.3645,-1.54471,91.264
2023-03-11 20:18:29:686,-0.289079,0.926181,-9.71119,-5.36852,-1.52741,91.2602
2023-03-11 20:18:29:696,-0.259512,0.939797,-9.71488,-5.3766,-1.5112,91.2561
2023-03-11 20:18:29:706,-0.256817,0.952015,-9.73152,-5.38393,-1.49545,91.2565
2023-03-11 20:18:29:716,-0.282709,0.967889,-9.76071,-5.39098,-1.47985,91.254
2023-03-11 20:18:29:726,-0.316502,0.990192,-9.79892,-5.39853,-1.46589,91.2512
2023-03-11 20:18:29:736,-0.346999,0.99878,-9.82607,-5.40301,-1.45059,91.2495
2023-03-11 20:18:29:746,-0.330246,1.01294,-9.81083,-5.40472,-1.43823,91.2413
2023-03-11 20:18:29:756,-0.309839,0.999778,-9.78183,-5.40109,-1.4253,91.2305
2023-03-11 20:18:29:766,-0.326589,0.989532,-9.77926,-5.39445,-1.41077,91.2174
2023-03-11 20:18:29:776,-0.36308,0.983159,-9.79337,-5.38603,-1.39798,91.2025
2023-03-11 20:18:29:786,-0.36699,0.97044,-9.79894,-5.37318,-1.38806,91.187
2023-03-11 20:18:29:796,-0.330161,0.952801,-9.76044,-5.35753,-1.38208,91.1653
2023-03-11 20:18:29:806,-0.305996,0.912285,-9.73453,-5.34134,-1.36892,91.1397
2023-03-11 20:18:29:816,-0.281227,0.873177,-9.71374,-5.32434,-1.34957,91.1139
2023-03-11 20:18:29:826,-0.249507,0.844114,-9.67853,-5.30345,-1.33908,91.0861
2023-03-11 20:18:29:836,-0.232174,0.83723,-9.67925,-5.28754,-1.32686,91.0564
2023-03-11 20:18:29:846,-0.229812,0.845381,-9.73442,-5.27817,-1.31162,91.031
2023-03-11 20:18:29:856,-0.220223,0.862076,-9.79434,-5.26896,-1.2998,91.0087
2023-03-11 20:18:29:866,-0.195727,0.883406,-9.8571,-5.25989,-1.28122,90.99
2023-03-11 20:18:29:876,-0.164721,0.882405,-9.86326,-5.24345,-1.26314,90.965
2023-03-11 20:18:29:886,-0.15968,0.838282,-9.80588,-5.22118,-1.24442,90.9456
2023-03-11 20:18:29:896,-0.182493,0.817605,-9.7316,-5.19686,-1.2269,90.9306
2023-03-11 20:18:29:906,-0.181742,0.808214,-9.67062,-5.1716,-1.2048,90.9178
2023-03-11 20:18:29:916,-0.139545,0.789991,-9.62414,-5.15024,-1.17914,90.9056
2023-03-11 20:18:29:926,-0.0888027,0.783652,-9.5757,-5.13555,-1.14731,90.8954
2023-03-11 20:18:29:936,-0.0157638,0.789602,-9.55767,-5.1291,-1.11121,90.8892
2023-03-11 20:18:29:946,0.0418564,0.791599,-9.56161,-5.13213,-1.07508,90.8899
2023-03-11 20:18:29:956,0.0325093,0.802296,-9.58818,-5.14527,-1.04113,90.8975
2023-03-11 20:18:29:966,-0.0126284,0.854514,-9.63399,-5.16574,-1.01856,90.914
2023-03-11 20:18:29:976,-0.0997012,0.909638,-9.73634,-5.19232,-1.00471,90.9385
2023-03-11 20:18:29:986,-0.18054,0.971983,-9.84935,-5.22157,-0.99597,90.9697
2023-03-11 20:18:29:996,-0.272028,1.01955,-9.90276,-5.24859,-0.994183,91.0029
2023-03-11 20:18:30:6,-0.335221,1.02381,-9.90804,-5.26641,-0.997578,91.0286
2023-03-11 20:18:30:16,-0.355646,0.996084,-9.85341,-5.27056,-1.00604,91.0505
2023-03-11 20:18:30:26,-0.35902,0.974418,-9.76252,-5.27003,-1.0112,91.0666
2023-03-11 20:18:30:36,-0.353902,0.946034,-9.69156,-5.26538,-1.01662,91.0769
2023-03-11 20:18:30:46,-0.344236,0.922194,-9.64422,-5.26253,-1.02044,91.0812
2023-03-11 20:18:30:56,-0.330684,0.919019,-9.6304,-5.26706,-1.01816,91.0798
2023-03-11 20:18:30:66,-0.283952,0.931059,-9.65181,-5.27995,-1.00974,91.0777
2023-03-11 20:18:30:76,-0.230204,0.96013,-9.70056,-5.29518,-0.994917,91.069
2023-03-11 20:18:30:86,-0.193227,0.97987,-9.7413,-5.31224,-0.97598,91.0564
2023-03-11 20:18:30:96,-0.18852,1.00056,-9.75135,-5.33368,-0.952168,91.0442
2023-03-11 20:18:30:106,-0.165091,1.01196,-9.78167,-5.35462,-0.922286,91.0352
2023-03-11 20:18:30:116,-0.126436,1.03412,-9.78933,-5.37389,-0.889496,91.0229
2023-03-11 20:18:30:126,-0.104899,1.03888,-9.78772,-5.38988,-0.855635,91.0081
2023-03-11 20:18:30:136,-0.102478,1.0359,-9.78919,-5.40403,-0.826976,90.993
2023-03-11 20:18:30:146,-0.10915,1.04147,-9.77275,-5.41427,-0.799829,90.9805
2023-03-11 20:18:30:156,-0.105301,1.048,-9.76926,-5.42687,-0.774458,90.9654
2023-03-11 20:18:30:166,-0.0910803,1.04131,-9.76483,-5.43425,-0.754927,90.9473
2023-03-11 20:18:30:176,-0.0672991,1.04741,-9.77476,-5.4443,-0.733547,90.9271
2023-03-11 20:18:30:186,-0.0201225,1.0411,-9.79551,-5.45475,-0.713296,90.9044
2023-03-11 20:18:30:196,0.0204258,1.02941,-9.83661,-5.46062,-0.694592,90.8834
2023-03-11 20:18:30:206,0.0288376,1.02374,-9.84592,-5.4668,-0.686473,90.8596
2023-03-11 20:18:30:216,0.0171644,1.02397,-9.83615,-5.4662,-0.680855,90.8408
2023-03-11 20:18:30:226,0.0152152,0.991434,-9.84432,-5.46076,-0.683266,90.829
2023-03-11 20:18:30:236,-0.000930859,0.961192,-9.84578,-5.44918,-0.686023,90.8188
2023-03-11 20:18:30:246,-0.0420011,0.935465,-9.8415,-5.43327,-0.696842,90.8115
2023-03-11 20:18:30:256,-0.0741817,0.902459,-9.80586,-5.41369,-0.711237,90.8114
2023-03-11 20:18:30:266,-0.0937526,0.862039,-9.7445,-5.38687,-0.722325,90.8134
2023-03-11 20:18:30:276,-0.103746,0.824599,-9.69195,-5.36133,-0.738312,90.8181
2023-03-11 20:18:30:286,-0.123834,0.793971,-9.66058,-5.33385,-0.751044,90.8193
2023-03-11 20:18:30:296,-0.138884,0.785577,-9.64699,-5.31717,-0.761054,90.826
2023-03-11 20:18:30:306,-0.142667,0.788636,-9.64486,-5.3063,-0.768196,90.8344
2023-03-11 20:18:30:316,-0.140071,0.790178,-9.65203,-5.29383,-0.773509,90.8428
2023-03-11 20:18:30:326,-0.13027,0.809054,-9.66943,-5.29007,-0.770984,90.8485
2023-03-11 20:18:30:336,-0.126047,0.820212,-9.6882,-5.2856,-0.765433,90.8548
2023-03-11 20:18:30:346,-0.133467,0.82858,-9.69425,-5.28404,-0.75606,90.8609
2023-03-11 20:18:30:356,-0.141054,0.84236,-9.67477,-5.28372,-0.746298,90.8643
2023-03-11 20:18:30:366,-0.124302,0.829728,-9.66059,-5.28678,-0.733671,90.8693
2023-03-11 20:18:30:376,-0.108452,0.850789,-9.67515,-5.29414,-0.722834,90.8716
2023-03-11 20:18:30:386,-0.080119,0.88816,-9.70614,-5.30679,-0.707026,90.8687
2023-03-11 20:18:30:396,-0.0482129,0.902187,-9.71888,-5.32161,-0.692901,90.8664
2023-03-11 20:18:30:406,-0.0383057,0.908653,-9.71187,-5.33834,-0.680932,90.8635
2023-03-11 20:18:30:416,-0.0441789,0.93422,-9.73402,-5.35966,-0.668019,90.862
2023-03-11 20:18:30:426,-0.063215,0.962048,-9.76213,-5.38033,-0.661349,90.8594
2023-03-11 20:18:30:436,-0.0579094,0.987862,-9.77367,-5.40085,-0.656231,90.8551
2023-03-11 20:18:30:446,-0.0629103,1.00268,-9.78497,-5.42418,-0.650831,90.856
2023-03-11 20:18:30:456,-0.0603907,1.02513,-9.79501,-5.44476,-0.64799,90.853
2023-03-11 20:18:30:466,-0.0349199,1.02811,-9.79505,-5.4641,-0.646051,90.8442
2023-03-11 20:18:30:476,-0.0398707,1.04815,-9.78414,-5.48282,-0.649086,90.8386
2023-03-11 20:18:30:486,-0.0414359,1.06215,-9.77746,-5.49849,-0.655537,90.8335
2023-03-11 20:18:30:496,-0.0406625,1.05728,-9.78604,-5.51313,-0.66098,90.8286
2023-03-11 20:18:30:506,-0.0478766,1.06092,-9.80149,-5.52601,-0.671147,90.8279
2023-03-11 20:18:30:516,-0.0634282,1.05725,-9.80918,-5.53435,-0.684228,90.8239
2023-03-11 20:18:30:526,-0.0731916,1.06488,-9.80644,-5.54019,-0.694375,90.8191
2023-03-11 20:18:30:536,-0.096982,1.05223,-9.79306,-5.53986,-0.703931,90.8164
2023-03-11 20:18:30:546,-0.113072,1.03819,-9.76158,-5.53627,-0.715442,90.8148
2023-03-11 20:18:30:556,-0.125159,1.02277,-9.73411,-5.53187,-0.726774,90.8135
2023-03-11 20:18:30:566,-0.156027,0.998321,-9.74226,-5.52432,-0.737997,90.813
2023-03-11 20:18:30:576,-0.192095,1.00786,-9.76101,-5.51533,-0.751061,90.8115
2023-03-11 20:18:30:586,-0.210711,1.01693,-9.76897,-5.50495,-0.758929,90.8085
2023-03-11 20:18:30:596,-0.220153,1.00931,-9.75853,-5.49252,-0.767335,90.8048
2023-03-11 20:18:30:606,-0.216627,1.00302,-9.73281,-5.48506,-0.76894,90.7999
2023-03-11 20:18:30:616,-0.1957,0.987645,-9.72102,-5.47609,-0.771507,90.7934
2023-03-11 20:18:30:626,-0.158875,0.978121,-9.73134,-5.4691,-0.772745,90.7832
2023-03-11 20:18:30:636,-0.121823,0.983023,-9.76284,-5.46066,-0.775052,90.7701
2023-03-11 20:18:30:646,-0.0889904,0.978042,-9.78684,-5.45458,-0.779076,90.7582
2023-03-11 20:18:30:656,-0.106866,0.978645,-9.82188,-5.4475,-0.785686,90.7469
2023-03-11 20:18:30:666,-0.135577,0.997241,-9.87191,-5.4422,-0.800649,90.739
2023-03-11 20:18:30:676,-0.131721,0.994591,-9.84199,-5.43371,-0.814949,90.7301
2023-03-11 20:18:30:686,-0.160019,0.953238,-9.76585,-5.41759,-0.835298,90.7234
2023-03-11 20:18:30:696,-0.201908,0.915099,-9.71929,-5.39875,-0.857964,90.7226
2023-03-11 20:18:30:706,-0.214292,0.905467,-9.69404,-5.38508,-0.878169,90.7244
2023-03-11 20:18:30:716,-0.199166,0.898385,-9.68861,-5.3711,-0.895247,90.7276
2023-03-11 20:18:30:726,-0.185808,0.902115,-9.67352,-5.359,-0.91185,90.7265
2023-03-11 20:18:30:736,-0.193598,0.898335,-9.65296,-5.34828,-0.924888,90.7292
2023-03-11 20:18:30:746,-0.224527,0.90054,-9.64672,-5.33849,-0.931971,90.7346
2023-03-11 20:18:30:756,-0.237086,0.912935,-9.66004,-5.33311,-0.942421,90.744
2023-03-11 20:18:30:766,-0.27278,0.921156,-9.67254,-5.32483,-0.952836,90.7561
2023-03-11 20:18:30:776,-0.294614,0.926982,-9.69538,-5.31722,-0.951713,90.7658
2023-03-11 20:18:30:787,-0.283363,0.925513,-9.7304,-5.30793,-0.948768,90.7677
2023-03-11 20:18:30:796,-0.257049,0.925228,-9.71784,-5.30054,-0.939754,90.7681
2023-03-11 20:18:30:807,-0.213399,0.898216,-9.66712,-5.29148,-0.925934,90.7631
2023-03-11 20:18:30:816,-0.162896,0.869215,-9.63714,-5.27977,-0.91102,90.7567
2023-03-11 20:18:30:827,-0.110708,0.863103,-9.62143,-5.27511,-0.890292,90.7493
2023-03-11 20:18:30:836,-0.0418866,0.854394,-9.6217,-5.2817,-0.869115,90.74
2023-03-11 20:18:30:847,0.00633721,0.862439,-9.65194,-5.29315,-0.843005,90.7342
2023-03-11 20:18:30:857,0.0377845,0.892131,-9.68115,-5.31272,-0.825283,90.7321
2023-03-11 20:18:30:867,0.0578779,0.932757,-9.72571,-5.33905,-0.811062,90.7344
2023-03-11 20:18:30:877,0.0482535,0.976567,-9.78313,-5.36625,-0.799458,90.7417
2023-03-11 20:18:30:886,-0.0220393,1.01895,-9.82383,-5.39927,-0.797426,90.7536
2023-03-11 20:18:30:896,-0.0914539,1.0685,-9.87107,-5.42907,-0.800628,90.7684
2023-03-11 20:18:30:907,-0.144234,1.11627,-9.9102,-5.45538,-0.809415,90.7841
2023-03-11 20:18:30:917,-0.14606,1.10388,-9.91654,-5.47066,-0.816373,90.8028
2023-03-11 20:18:30:927,-0.120534,1.06917,-9.86599,-5.4763,-0.82992,90.8172
2023-03-11 20:18:30:937,-0.151974,1.02845,-9.81173,-5.4747,-0.84835,90.8317
2023-03-11 20:18:30:947,-0.175519,0.999676,-9.76695,-5.47017,-0.872315,90.8465
2023-03-11 20:18:30:957,-0.207505,0.9847,-9.74341,-5.46758,-0.895518,90.8529
2023-03-11 20:18:30:967,-0.239232,0.974386,-9.74749,-5.4649,-0.915681,90.8602
2023-03-11 20:18:30:977,-0.232743,0.977668,-9.75951,-5.46284,-0.932305,90.8632
2023-03-11 20:18:30:987,-0.200981,0.969441,-9.77797,-5.45609,-0.946757,90.8658
2023-03-11 20:18:30:997,-0.168491,0.972999,-9.7862,-5.44876,-0.956116,90.8666
2023-03-11 20:18:31:7,-0.143474,0.953102,-9.76924,-5.43612,-0.962341,90.8631
2023-03-11 20:18:31:16,-0.163061,0.943773,-9.76079,-5.42364,-0.969922,90.8631
2023-03-11 20:18:31:27,-0.184226,0.935037,-9.74852,-5.40889,-0.975164,90.8676
2023-03-11 20:18:31:36,-0.19395,0.930047,-9.74084,-5.39415,-0.980607,90.8711
2023-03-11 20:18:31:46,-0.200144,0.927792,-9.7212,-5.37789,-0.984613,90.8739
2023-03-11 20:18:31:56,-0.206327,0.919817,-9.70487,-5.36335,-0.992626,90.8748
2023-03-11 20:18:31:67,-0.213257,0.89222,-9.69654,-5.34817,-0.997567,90.8754
2023-03-11 20:18:31:77,-0.214076,0.879297,-9.69834,-5.33658,-1.00094,90.8722
2023-03-11 20:18:31:87,-0.204691,0.872406,-9.71878,-5.32617,-1.00607,90.8702
2023-03-11 20:18:31:97,-0.171713,0.872413,-9.74046,-5.32144,-1.01172,90.8661
2023-03-11 20:18:31:107,-0.155415,0.884728,-9.76699,-5.31462,-1.01495,90.8595
2023-03-11 20:18:31:117,-0.13965,0.891519,-9.74998,-5.31134,-1.01956,90.8555
2023-03-11 20:18:31:127,-0.141565,0.888376,-9.73112,-5.31027,-1.02408,90.8515
2023-03-11 20:18:31:136,-0.140023,0.914216,-9.71739,-5.31065,-1.02891,90.8532
2023-03-11 20:18:31:146,-0.141176,0.904843,-9.69622,-5.31052,-1.034,90.853
2023-03-11 20:18:31:156,-0.16669,0.899894,-9.68116,-5.31088,-1.03538,90.8575
2023-03-11 20:18:31:166,-0.184928,0.905797,-9.6737,-5.31342,-1.04162,90.8623
2023-03-11 20:18:31:176,-0.201975,0.910961,-9.67923,-5.32223,-1.04772,90.8677
2023-03-11 20:18:31:186,-0.213889,0.902863,-9.69911,-5.3291,-1.05335,90.8781
2023-03-11 20:18:31:196,-0.246738,0.918054,-9.70208,-5.33959,-1.05925,90.885
2023-03-11 20:18:31:207,-0.273649,0.933324,-9.70627,-5.3491,-1.06639,90.8918
2023-03-11 20:18:31:216,-0.274179,0.937309,-9.70961,-5.36254,-1.07452,90.8963
2023-03-11 20:18:31:227,-0.262522,0.967954,-9.72863,-5.37559,-1.08394,90.8947
2023-03-11 20:18:31:236,-0.266999,0.998457,-9.77476,-5.39096,-1.09089,90.8912
2023-03-11 20:18:31:247,-0.242435,1.02003,-9.79589,-5.40309,-1.09318,90.8874
2023-03-11 20:18:31:256,-0.224394,1.02136,-9.80217,-5.41282,-1.09357,90.8806
2023-03-11 20:18:31:266,-0.218845,1.01037,-9.80153,-5.41814,-1.09009,90.8681
2023-03-11 20:18:31:276,-0.194144,1.00685,-9.80225,-5.42416,-1.09065,90.8591
2023-03-11 20:18:31:287,-0.168623,1.01503,-9.80321,-5.42671,-1.09237,90.8527
2023-03-11 20:18:31:296,-0.170026,1.00259,-9.78528,-5.42117,-1.09402,90.8474
2023-03-11 20:18:31:306,-0.157658,0.982164,-9.77281,-5.4155,-1.09513,90.8426
2023-03-11 20:18:31:316,-0.153377,0.972037,-9.74513,-5.41005,-1.09319,90.8367
2023-03-11 20:18:31:326,-0.168934,0.943604,-9.73022,-5.4045,-1.09635,90.8386
2023-03-11 20:18:31:336,-0.175714,0.924303,-9.72786,-5.39587,-1.10029,90.8406
2023-03-11 20:18:31:346,-0.178423,0.920776,-9.71726,-5.39035,-1.10589,90.8399
2023-03-11 20:18:31:356,-0.176079,0.901421,-9.72125,-5.38582,-1.11231,90.8427
2023-03-11 20:18:31:366,-0.177184,0.898217,-9.73209,-5.38279,-1.11977,90.8472
2023-03-11 20:18:31:376,-0.187588,0.909627,-9.74786,-5.38091,-1.12864,90.8541
2023-03-11 20:18:31:386,-0.196113,0.910961,-9.73593,-5.38212,-1.13736,90.8572
2023-03-11 20:18:31:396,-0.208504,0.910075,-9.72592,-5.38055,-1.14534,90.8637
2023-03-11 20:18:31:406,-0.221558,0.905854,-9.72188,-5.38043,-1.15399,90.8682
2023-03-11 20:18:31:416,-0.203955,0.891889,-9.71363,-5.37984,-1.1592,90.8787
2023-03-11 20:18:31:427,-0.192736,0.887176,-9.72355,-5.37844,-1.16254,90.8889
2023-03-11 20:18:31:436,-0.199368,0.898424,-9.73028,-5.3777,-1.16559,90.8997
2023-03-11 20:18:31:447,-0.195596,0.904781,-9.74779,-5.38196,-1.16938,90.9084
2023-03-11 20:18:31:457,-0.176526,0.921075,-9.78736,-5.38999,-1.17733,90.9162
2023-03-11 20:18:31:467,-0.149897,0.913572,-9.83694,-5.39078,-1.18708,90.9211
2023-03-11 20:18:31:476,-0.150949,0.908326,-9.82034,-5.38891,-1.19978,90.9296
2023-03-11 20:18:31:486,-0.188335,0.897124,-9.78459,-5.38892,-1.21821,90.9386
2023-03-11 20:18:31:496,-0.222239,0.905871,-9.76083,-5.38406,-1.23826,90.9486
2023-03-11 20:18:31:506,-0.246093,0.913958,-9.75008,-5.38282,-1.26092,90.961
2023-03-11 20:18:31:516,-0.260895,0.926066,-9.72888,-5.3865,-1.28242,90.9754
2023-03-11 20:18:31:526,-0.253812,0.936568,-9.70888,-5.39067,-1.29942,90.9882
2023-03-11 20:18:31:536,-0.242336,0.942356,-9.707,-5.39811,-1.31217,91.0057
2023-03-11 20:18:31:546,-0.259011,0.959659,-9.71843,-5.40528,-1.32905,91.0244
2023-03-11 20:18:31:556,-0.298777,0.983002,-9.71424,-5.40923,-1.34359,91.0419
2023-03-11 20:18:31:566,-0.328869,0.983788,-9.70444,-5.41223,-1.35569,91.0636
2023-03-11 20:18:31:576,-0.346996,0.969557,-9.6873,-5.41668,-1.36377,91.0809
2023-03-11 20:18:31:586,-0.356068,0.966763,-9.65448,-5.4178,-1.37137,91.0932
2023-03-11 20:18:31:597,-0.33997,0.95225,-9.67576,-5.41976,-1.37887,91.1067
2023-03-11 20:18:31:607,-0.322385,0.967939,-9.72171,-5.42346,-1.38443,91.1129
2023-03-11 20:18:31:617,-0.330802,1.00223,-9.76595,-5.43204,-1.38848,91.1199
2023-03-11 20:18:31:627,-0.339314,1.02119,-9.79119,-5.44372,-1.39526,91.1232
2023-03-11 20:18:31:636,-0.334884,1.01927,-9.78116,-5.44693,-1.39875,91.1225
2023-03-11 20:18:31:646,-0.326162,1.00818,-9.75279,-5.44992,-1.39844,91.1197
2023-03-11 20:18:31:656,-0.297815,0.997921,-9.71303,-5.44723,-1.39661,91.1139
2023-03-11 20:18:31:666,-0.251353,0.986159,-9.6926,-5.44842,-1.39494,91.1061
2023-03-11 20:18:31:677,-0.225395,0.988966,-9.70408,-5.45033,-1.3931,91.0962
2023-03-11 20:18:31:687,-0.217406,0.986731,-9.71292,-5.45957,-1.38759,91.0871
2023-03-11 20:18:31:696,-0.215404,0.980654,-9.74188,-5.46797,-1.38619,91.0732
2023-03-11 20:18:31:707,-0.194154,1.00229,-9.77532,-5.47818,-1.38272,91.0642
2023-03-11 20:18:31:717,-0.146851,1.01023,-9.79955,-5.48802,-1.37852,91.0559
2023-03-11 20:18:31:727,-0.15768,0.997428,-9.78468,-5.49404,-1.3833,91.0477
2023-03-11 20:18:31:736,-0.204683,1.00593,-9.76087,-5.49796,-1.38962,91.0441
2023-03-11 20:18:31:746,-0.235316,0.984968,-9.72237,-5.49613,-1.3947,91.0446
2023-03-11 20:18:31:756,-0.262999,0.977458,-9.67636,-5.49457,-1.40063,91.0441
2023-03-11 20:18:31:766,-0.264181,0.988283,-9.68574,-5.4951,-1.40257,91.0439
2023-03-11 20:18:31:776,-0.248481,0.98226,-9.69886,-5.49724,-1.39974,91.0443
2023-03-11 20:18:31:786,-0.251046,0.96952,-9.70851,-5.49951,-1.39726,91.0469
2023-03-11 20:18:31:796,-0.261938,0.96003,-9.72133,-5.5057,-1.3939,91.0429
2023-03-11 20:18:31:806,-0.260148,0.966108,-9.72397,-5.50956,-1.39322,91.0417
2023-03-11 20:18:31:816,-0.246348,0.983495,-9.73598,-5.51332,-1.38872,91.0406
2023-03-11 20:18:31:826,-0.237378,1.00394,-9.76774,-5.52344,-1.38358,91.0385
2023-03-11 20:18:31:836,-0.205406,1.01173,-9.8095,-5.5322,-1.37576,91.0324
2023-03-11 20:18:31:846,-0.171304,1.01891,-9.84673,-5.53193,-1.37372,91.0258
2023-03-11 20:18:31:856,-0.1603,0.999297,-9.83312,-5.52681,-1.37194,91.0229
2023-03-11 20:18:31:866,-0.175523,0.957822,-9.7942,-5.51991,-1.37274,91.0167
2023-03-11 20:18:31:876,-0.186008,0.936992,-9.76112,-5.50936,-1.3754,91.0107
2023-03-11 20:18:31:886,-0.186515,0.930273,-9.7382,-5.49944,-1.38056,91.007
2023-03-11 20:18:31:896,-0.192675,0.918465,-9.72071,-5.4894,-1.38798,91.0083
2023-03-11 20:18:31:906,-0.191927,0.903645,-9.69824,-5.48385,-1.39747,91.0095
2023-03-11 20:18:31:916,-0.219114,0.912503,-9.70166,-5.48231,-1.40722,91.0097
2023-03-11 20:18:31:927,-0.224257,0.938403,-9.71139,-5.48185,-1.42158,91.0123
2023-03-11 20:18:31:936,-0.231884,0.939612,-9.71975,-5.4836,-1.43784,91.015
2023-03-11 20:18:31:946,-0.255256,0.946807,-9.72109,-5.4866,-1.45439,91.0215
2023-03-11 20:18:31:956,-0.269528,0.960088,-9.70372,-5.48798,-1.47005,91.0259
2023-03-11 20:18:31:966,-0.277417,0.978147,-9.7103,-5.49435,-1.48528,91.034
2023-03-11 20:18:31:976,-0.290905,0.985173,-9.73397,-5.49806,-1.50009,91.0416
2023-03-11 20:18:31:986,-0.308714,0.988273,-9.74752,-5.50379,-1.5118,91.0508
2023-03-11 20:18:31:996,-0.321227,0.991933,-9.74011,-5.50754,-1.52314,91.0614
2023-03-11 20:18:32:6,-0.346116,0.98246,-9.71959,-5.51195,-1.5357,91.0692
2023-03-11 20:18:32:16,-0.350582,0.976035,-9.70945,-5.51597,-1.54603,91.0767
2023-03-11 20:18:32:27,-0.359627,0.97834,-9.7122,-5.52039,-1.54972,91.0833
2023-03-11 20:18:32:36,-0.382687,1.00125,-9.72319,-5.52734,-1.5543,91.0881
2023-03-11 20:18:32:47,-0.395658,1.01582,-9.72533,-5.5324,-1.55792,91.0882
2023-03-11 20:18:32:57,-0.385485,1.01361,-9.73183,-5.54004,-1.55972,91.0857
2023-03-11 20:18:32:66,-0.375535,1.00153,-9.73472,-5.54523,-1.55782,91.0794
2023-03-11 20:18:32:76,-0.355604,1.01176,-9.74947,-5.55269,-1.5522,91.0728
2023-03-11 20:18:32:86,-0.330654,1.02613,-9.77943,-5.56059,-1.54784,91.0604
2023-03-11 20:18:32:96,-0.305865,1.03309,-9.79254,-5.56534,-1.54244,91.0422
2023-03-11 20:18:32:106,-0.293083,1.03109,-9.78373,-5.56466,-1.53626,91.0246
2023-03-11 20:18:32:117,-0.289413,1.01057,-9.76216,-5.56409,-1.52982,91.0072
2023-03-11 20:18:32:126,-0.265903,0.993834,-9.73976,-5.55937,-1.52451,90.989
2023-03-11 20:18:32:136,-0.234383,0.971428,-9.71596,-5.5529,-1.51469,90.9702
2023-03-11 20:18:32:146,-0.215449,0.963494,-9.69582,-5.54692,-1.50554,90.9539
2023-03-11 20:18:32:156,-0.214771,0.970154,-9.68508,-5.53888,-1.49578,90.9406
2023-03-11 20:18:32:166,-0.213482,0.949261,-9.68133,-5.53591,-1.48979,90.9301
2023-03-11 20:18:32:176,-0.219969,0.943314,-9.69316,-5.53559,-1.47802,90.9166
2023-03-11 20:18:32:186,-0.216776,0.970539,-9.71775,-5.53666,-1.46864,90.9096
2023-03-11 20:18:32:196,-0.185582,1.01022,-9.76145,-5.53947,-1.45644,90.9046
2023-03-11 20:18:32:207,-0.172908,1.03251,-9.82387,-5.54589,-1.44436,90.8978
2023-03-11 20:18:32:216,-0.164793,1.05969,-9.84575,-5.54664,-1.4354,90.8972
2023-03-11 20:18:32:227,-0.155423,1.03812,-9.82521,-5.54057,-1.42715,90.896
2023-03-11 20:18:32:236,-0.159496,1.00234,-9.78652,-5.52624,-1.4209,90.9007
2023-03-11 20:18:32:246,-0.150777,0.976648,-9.77099,-5.51412,-1.42406,90.9057
2023-03-11 20:18:32:256,-0.127892,1.02079,-9.85917,-5.50222,-1.41991,90.915
2023-03-11 20:18:32:266,-0.121694,0.978141,-9.83938,-5.48556,-1.41969,90.9261
2023-03-11 20:18:32:276,-0.152498,0.921931,-9.75649,-5.46583,-1.4262,90.9392
2023-03-11 20:18:32:286,-0.208669,0.934449,-9.76116,-5.44542,-1.43797,90.9602
2023-03-11 20:18:32:296,-0.249354,0.960332,-9.77101,-5.42993,-1.44574,90.9826
2023-03-11 20:18:32:306,-0.286858,0.959659,-9.7526,-5.41539,-1.4598,91.0076
2023-03-11 20:18:32:317,-0.306178,0.968024,-9.73767,-5.3985,-1.47117,91.0334
2023-03-11 20:18:32:327,-0.306729,0.96813,-9.72403,-5.38106,-1.48161,91.0591
2023-03-11 20:18:32:337,-0.319504,0.965956,-9.7238,-5.367,-1.49176,91.0827
2023-03-11 20:18:32:346,-0.360031,0.976194,-9.72547,-5.35499,-1.50226,91.1083
2023-03-11 20:18:32:357,-0.396278,0.969106,-9.70687,-5.33942,-1.51373,91.1307
2023-03-11 20:18:32:367,-0.428813,0.93503,-9.66391,-5.32273,-1.52292,91.1477
2023-03-11 20:18:32:376,-0.441982,0.887297,-9.62524,-5.3028,-1.52862,91.1595
2023-03-11 20:18:32:386,-0.422002,0.868228,-9.60416,-5.2865,-1.53413,91.1717
2023-03-11 20:18:32:396,-0.408124,0.842626,-9.60865,-5.27337,-1.53521,91.1781
2023-03-11 20:18:32:406,-0.394867,0.825094,-9.64724,-5.26485,-1.52994,91.1806
2023-03-11 20:18:32:416,-0.346074,0.821605,-9.69773,-5.26377,-1.52207,91.1782
2023-03-11 20:18:32:426,-0.29782,0.819591,-9.72152,-5.26278,-1.51218,91.1699
2023-03-11 20:18:32:436,-0.262124,0.826779,-9.71738,-5.268,-1.49808,91.1611
2023-03-11 20:18:32:446,-0.241164,0.827888,-9.71014,-5.27457,-1.48242,91.1541
2023-03-11 20:18:32:456,-0.212799,0.844914,-9.68714,-5.28401,-1.46921,91.1495
2023-03-11 20:18:32:466,-0.194421,0.857379,-9.69332,-5.29903,-1.4534,91.1416
2023-03-11 20:18:32:476,-0.201569,0.878433,-9.69652,-5.32268,-1.4361,91.1391
2023-03-11 20:18:32:487,-0.207904,0.931381,-9.71213,-5.34727,-1.4214,91.1386
2023-03-11 20:18:32:497,-0.19312,0.976372,-9.76299,-5.37412,-1.40082,91.138
2023-03-11 20:18:32:507,-0.147432,0.982586,-9.81227,-5.3988,-1.38271,91.1328
2023-03-11 20:18:32:517,-0.112969,0.972954,-9.83644,-5.41888,-1.36596,91.1303
2023-03-11 20:18:32:527,-0.130715,0.973776,-9.84324,-5.43542,-1.35657,91.128
2023-03-11 20:18:32:537,-0.149409,0.985677,-9.83767,-5.44955,-1.35404,91.1308
2023-03-11 20:18:32:546,-0.139436,0.979219,-9.85446,-5.45926,-1.35266,91.1323
2023-03-11 20:18:32:557,-0.13821,0.973273,-9.83505,-5.46481,-1.35322,91.1359
2023-03-11 20:18:32:567,-0.154539,0.950706,-9.7881,-5.46002,-1.35346,91.1388
2023-03-11 20:18:32:576,-0.187004,0.926288,-9.74025,-5.45345,-1.35839,91.144
2023-03-11 20:18:32:586,-0.206039,0.915438,-9.70137,-5.45005,-1.36297,91.1475
2023-03-11 20:18:32:596,-0.230506,0.910409,-9.67609,-5.4474,-1.37084,91.153
2023-03-11 20:18:32:606,-0.235577,0.899856,-9.6518,-5.44492,-1.38262,91.151
2023-03-11 20:18:32:616,-0.200868,0.898935,-9.66838,-5.44795,-1.39512,91.1509
2023-03-11 20:18:32:627,-0.166712,0.92262,-9.71764,-5.45377,-1.40737,91.1514
2023-03-11 20:18:32:637,-0.152737,0.940397,-9.8043,-5.46449,-1.42007,91.1532
2023-03-11 20:18:32:646,-0.147059,0.938014,-9.84298,-5.47509,-1.43368,91.1533
2023-03-11 20:18:32:657,-0.159156,0.91886,-9.84194,-5.47934,-1.4467,91.1621
2023-03-11 20:18:32:667,-0.174532,0.896582,-9.80872,-5.47406,-1.46223,91.176
2023-03-11 20:18:32:676,-0.224274,0.890177,-9.73164,-5.47401,-1.47695,91.1921
2023-03-11 20:18:32:687,-0.289369,0.874418,-9.67262,-5.47514,-1.49531,91.2142
2023-03-11 20:18:32:697,-0.346637,0.886831,-9.62899,-5.47978,-1.51292,91.2379
2023-03-11 20:18:32:707,-0.358047,0.922006,-9.63075,-5.48985,-1.52783,91.2603
2023-03-11 20:18:32:717,-0.366685,0.94969,-9.68882,-5.50691,-1.53593,91.2852
2023-03-11 20:18:32:726,-0.365828,0.990864,-9.74512,-5.52392,-1.54625,91.2965
2023-03-11 20:18:32:737,-0.348769,1.02087,-9.80574,-5.54462,-1.55612,91.3015
2023-03-11 20:18:32:747,-0.342298,1.04925,-9.83232,-5.56311,-1.56951,91.307
2023-03-11 20:18:32:757,-0.316597,1.04997,-9.8138,-5.57351,-1.58259,91.3051
2023-03-11 20:18:32:767,-0.310427,1.01761,-9.7788,-5.57915,-1.59705,91.3008
2023-03-11 20:18:32:777,-0.303783,0.993637,-9.72722,-5.5824,-1.61197,91.2949
2023-03-11 20:18:32:787,-0.293494,0.96705,-9.67316,-5.5817,-1.62775,91.288
2023-03-11 20:18:32:797,-0.308553,0.968321,-9.65255,-5.58478,-1.64083,91.2825
2023-03-11 20:18:32:807,-0.314921,0.995898,-9.65311,-5.59179,-1.65144,91.2787
2023-03-11 20:18:32:816,-0.330249,1.00769,-9.68206,-5.60518,-1.65719,91.277
2023-03-11 20:18:32:826,-0.376172,1.03216,-9.70809,-5.6226,-1.66281,91.2781
2023-03-11 20:18:32:836,-0.391238,1.06107,-9.74207,-5.64121,-1.66289,91.2788
2023-03-11 20:18:32:846,-0.39701,1.07609,-9.75938,-5.65508,-1.65827,91.2852
2023-03-11 20:18:32:856,-0.411809,1.06914,-9.76567,-5.66808,-1.64658,91.2906
2023-03-11 20:18:32:866,-0.433634,1.08385,-9.75789,-5.67501,-1.63272,91.3009
2023-03-11 20:18:32:876,-0.427332,1.09576,-9.74301,-5.67997,-1.61142,91.3092
2023-03-11 20:18:32:886,-0.414084,1.0705,-9.72387,-5.68524,-1.58667,91.3183
2023-03-11 20:18:32:896,-0.392904,1.05586,-9.69999,-5.68716,-1.55921,91.3212
2023-03-11 20:18:32:906,-0.379186,1.03527,-9.6782,-5.69257,-1.53747,91.3231
2023-03-11 20:18:32:917,-0.358379,1.03341,-9.68279,-5.69894,-1.50992,91.3218
2023-03-11 20:18:32:926,-0.329785,1.01022,-9.70789,-5.70663,-1.48385,91.3202
2023-03-11 20:18:32:936,-0.306496,0.981622,-9.72568,-5.71287,-1.45652,91.3123
2023-03-11 20:18:32:946,-0.278548,0.959345,-9.70573,-5.72002,-1.43117,91.3046
2023-03-11 20:18:32:956,-0.221027,0.927616,-9.66568,-5.72704,-1.3981,91.2969
2023-03-11 20:18:32:967,-0.203387,0.912978,-9.64128,-5.73655,-1.36424,91.2843
2023-03-11 20:18:32:977,-0.222277,0.929683,-9.63646,-5.75336,-1.33038,91.2809
2023-03-11 20:18:32:987,-0.275691,0.953596,-9.67189,-5.78303,-1.2973,91.2793
2023-03-11 20:18:32:996,-0.340718,0.997454,-9.73936,-5.81635,-1.26862,91.276
2023-03-11 20:18:33:7,-0.388454,1.0339,-9.82385,-5.84975,-1.23912,91.2671
2023-03-11 20:18:33:16,-0.374356,1.06172,-9.90716,-5.88006,-1.21006,91.2496
2023-03-11 20:18:33:27,-0.30802,1.08995,-9.97259,-5.90649,-1.18075,91.2187
2023-03-11 20:18:33:37,-0.205101,1.09189,-9.97489,-5.92199,-1.15333,91.1731
2023-03-11 20:18:33:47,-0.0822984,1.03559,-9.90366,-5.92323,-1.12864,91.1184
2023-03-11 20:18:33:56,0.016118,0.985234,-9.79585,-5.91441,-1.10775,91.0591
2023-03-11 20:18:33:66,0.126579,0.947667,-9.74593,-5.90198,-1.08776,91.0033
2023-03-11 20:18:33:76,0.207266,0.928922,-9.75925,-5.89243,-1.07325,90.9568
2023-03-11 20:18:33:86,0.232399,0.936143,-9.80241,-5.88077,-1.05929,90.9274
2023-03-11 20:18:33:96,0.208088,0.952157,-9.81372,-5.86942,-1.04832,90.9187
2023-03-11 20:18:33:106,0.106877,0.958137,-9.7916,-5.85001,-1.03912,90.9284
2023-03-11 20:18:33:116,0.00209133,0.941976,-9.74944,-5.82962,-1.02645,90.9589
2023-03-11 20:18:33:126,-0.104815,0.92001,-9.67178,-5.80208,-1.01349,91.0004
2023-03-11 20:18:33:136,-0.211016,0.901481,-9.58358,-5.77918,-0.999916,91.0478
2023-03-11 20:18:33:146,-0.24794,0.909729,-9.5003,-5.75507,-0.983357,91.1016
2023-03-11 20:18:33:156,-0.240642,0.903109,-9.45417,-5.73798,-0.958604,91.1534
2023-03-11 20:18:33:167,-0.224549,0.920853,-9.46286,-5.73304,-0.933208,91.2009
2023-03-11 20:18:33:176,-0.21823,0.997658,-9.55631,-5.74013,-0.907454,91.2457
2023-03-11 20:18:33:187,-0.220133,1.09775,-9.67545,-5.76507,-0.882454,91.2874
2023-03-11 20:18:33:197,-0.243793,1.17302,-9.76736,-5.79203,-0.863016,91.3258
2023-03-11 20:18:33:206,-0.259842,1.19246,-9.84447,-5.8181,-0.845835,91.3561
2023-03-11 20:18:33:216,-0.219163,1.22609,-9.89408,-5.84241,-0.835831,91.3776
2023-03-11 20:18:33:226,-0.131605,1.21295,-9.87683,-5.85903,-0.825576,91.3908
2023-03-11 20:18:33:237,-0.0740634,1.17997,-9.81202,-5.86565,-0.818719,91.3953
2023-03-11 20:18:33:247,-0.0679889,1.14544,-9.7366,-5.86733,-0.819727,91.3996
2023-03-11 20:18:33:257,-0.0583868,1.10098,-9.66027,-5.86487,-0.821908,91.4025
2023-03-11 20:18:33:267,-0.00413599,1.0851,-9.61255,-5.8644,-0.824078,91.4095
2023-03-11 20:18:33:277,0.0592344,1.05414,-9.61801,-5.87145,-0.830933,91.4181
2023-03-11 20:18:33:287,0.0627617,1.04759,-9.63611,-5.88409,-0.841379,91.4336
2023-03-11 20:18:33:297,-0.0215696,1.10832,-9.66702,-5.90492,-0.858596,91.4569
2023-03-11 20:18:33:307,-0.096283,1.15264,-9.70614,-5.93,-0.879417,91.4886
2023-03-11 20:18:33:317,-0.157429,1.18462,-9.70429,-5.95592,-0.907668,91.5277
2023-03-11 20:18:33:327,-0.207593,1.20737,-9.6818,-5.98096,-0.93337,91.5661
2023-03-11 20:18:33:336,-0.233542,1.21272,-9.68392,-6.00615,-0.952204,91.6044
2023-03-11 20:18:33:347,-0.246094,1.23367,-9.70053,-6.03419,-0.970341,91.6411
2023-03-11 20:18:33:356,-0.273887,1.2553,-9.73216,-6.06471,-0.984351,91.6716
2023-03-11 20:18:33:367,-0.279186,1.28531,-9.75968,-6.09614,-0.996672,91.7004
2023-03-11 20:18:33:376,-0.280672,1.29815,-9.80867,-6.1252,-1.01277,91.7234
2023-03-11 20:18:33:387,-0.296751,1.29498,-9.86545,-6.15037,-1.02887,91.7421
2023-03-11 20:18:33:396,-0.330933,1.31682,-9.87998,-6.17117,-1.04435,91.7571
2023-03-11 20:18:33:406,-0.320302,1.32861,-9.87901,-6.18258,-1.05671,91.7642
2023-03-11 20:18:33:416,-0.284734,1.28719,-9.85653,-6.18542,-1.06352,91.7655
2023-03-11 20:18:33:426,-0.231969,1.26042,-9.81321,-6.18124,-1.06178,91.753
2023-03-11 20:18:33:436,-0.166927,1.2255,-9.80159,-6.1685,-1.05291,91.741
2023-03-11 20:18:33:446,-0.110408,1.20082,-9.79337,-6.14705,-1.04128,91.7243
2023-03-11 20:18:33:456,-0.095344,1.17681,-9.79917,-6.12134,-1.02934,91.7055
2023-03-11 20:18:33:466,-0.0959478,1.14087,-9.82341,-6.09076,-1.01714,91.6833
2023-03-11 20:18:33:477,-0.0735847,1.09786,-9.87057,-6.05381,-1.00645,91.6583
2023-03-11 20:18:33:486,-0.0645696,1.05363,-9.92937,-6.00776,-1.00067,91.6292
2023-03-11 20:18:33:497,-0.0944503,1.00566,-9.93214,-5.95713,-1.00225,91.5967
2023-03-11 20:18:33:506,-0.108747,0.942708,-9.87113,-5.89782,-1.01064,91.5618
2023-03-11 20:18:33:516,-0.0984207,0.877689,-9.77912,-5.82896,-1.02221,91.5199
2023-03-11 20:18:33:527,-0.0651871,0.819461,-9.62921,-5.7633,-1.03558,91.4724
2023-03-11 20:18:33:536,-0.0274388,0.759066,-9.49012,-5.69871,-1.0452,91.4251
2023-03-11 20:18:33:547,-0.0284244,0.742945,-9.41845,-5.65242,-1.05897,91.3798
2023-03-11 20:18:33:556,0.0303738,0.741511,-9.44072,-5.61941,-1.07951,91.3395
2023-03-11 20:18:33:567,0.111061,0.75136,-9.53957,-5.59888,-1.10035,91.3032
2023-03-11 20:18:33:576,0.103148,0.76837,-9.68265,-5.5912,-1.12859,91.2774
2023-03-11 20:18:33:587,0.0215331,0.824126,-9.79723,-5.59062,-1.16106,91.2622
2023-03-11 20:18:33:597,-0.0649223,0.856575,-9.84689,-5.58935,-1.19948,91.2623
2023-03-11 20:18:33:607,-0.166877,0.855594,-9.83308,-5.58227,-1.23522,91.2759
2023-03-11 20:18:33:616,-0.269077,0.842607,-9.77555,-5.57193,-1.27148,91.2983
2023-03-11 20:18:33:627,-0.341498,0.847496,-9.69942,-5.56221,-1.30496,91.3205
2023-03-11 20:18:33:636,-0.402393,0.863521,-9.65504,-5.55975,-1.33316,91.3457
2023-03-11 20:18:33:647,-0.441252,0.897956,-9.62706,-5.56418,-1.35578,91.3719
2023-03-11 20:18:33:656,-0.457203,0.927198,-9.63881,-5.56969,-1.37107,91.3908
2023-03-11 20:18:33:666,-0.465878,0.942761,-9.67889,-5.58036,-1.38738,91.4067
2023-03-11 20:18:33:676,-0.479529,0.965657,-9.72285,-5.59367,-1.40483,91.4175
2023-03-11 20:18:33:686,-0.498937,1.01627,-9.77005,-5.60848,-1.42083,91.4184
2023-03-11 20:18:33:696,-0.504056,1.02533,-9.78059,-5.62109,-1.43749,91.4104
2023-03-11 20:18:33:706,-0.476833,1.01062,-9.77715,-5.62736,-1.44796,91.3938
2023-03-11 20:18:33:716,-0.419665,0.985381,-9.7682,-5.62624,-1.45979,91.3662
2023-03-11 20:18:33:726,-0.35494,0.957894,-9.74983,-5.6209,-1.47313,91.3319
2023-03-11 20:18:33:736,-0.332325,0.926716,-9.69724,-5.61596,-1.48573,91.295
2023-03-11 20:18:33:746,-0.318259,0.886798,-9.66643,-5.60577,-1.49738,91.2525
2023-03-11 20:18:33:756,-0.272584,0.880431,-9.68441,-5.59925,-1.50286,91.2078
2023-03-11 20:18:33:766,-0.225544,0.928258,-9.73236,-5.59676,-1.50097,91.1664
2023-03-11 20:18:33:776,-0.174123,0.944907,-9.77997,-5.59749,-1.49649,91.1262
2023-03-11 20:18:33:786,-0.131464,0.929145,-9.78935,-5.59887,-1.49894,91.0866
2023-03-11 20:18:33:796,-0.134873,0.919361,-9.76898,-5.59921,-1.50551,91.049
2023-03-11 20:18:33:806,-0.133751,0.924384,-9.72097,-5.60634,-1.51092,91.0149
2023-03-11 20:18:33:816,-0.167325,0.936532,-9.66079,-5.61295,-1.52002,90.987
2023-03-11 20:18:33:826,-0.1946,0.950981,-9.60596,-5.62741,-1.52996,90.9639
2023-03-11 20:18:33:836,-0.203725,0.987894,-9.58,-5.64978,-1.54427,90.9431
2023-03-11 20:18:33:846,-0.221474,1.01043,-9.63049,-5.67771,-1.55467,90.9239
2023-03-11 20:18:33:856,-0.239856,1.06945,-9.74015,-5.70775,-1.56651,90.9129
2023-03-11 20:18:33:866,-0.251103,1.10331,-9.82996,-5.73774,-1.57862,90.903
2023-03-11 20:18:33:876,-0.29099,1.1119,-9.86651,-5.75882,-1.589,90.8961
2023-03-11 20:18:33:886,-0.334995,1.11655,-9.86396,-5.77013,-1.59911,90.8881
2023-03-11 20:18:33:896,-0.361301,1.09558,-9.82788,-5.77351,-1.60403,90.8833
2023-03-11 20:18:33:907,-0.36774,1.08347,-9.81785,-5.76977,-1.60428,90.877
2023-03-11 20:18:33:917,-0.34943,1.05957,-9.80907,-5.76087,-1.59471,90.8726
2023-03-11 20:18:33:926,-0.289776,1.02352,-9.8096,-5.74269,-1.58359,90.8627
2023-03-11 20:18:33:936,-0.210129,0.965271,-9.77848,-5.71806,-1.5675,90.8489
2023-03-11 20:18:33:947,-0.192827,0.916507,-9.7303,-5.69684,-1.5524,90.8422
2023-03-11 20:18:33:956,-0.177022,0.902042,-9.70409,-5.68395,-1.53561,90.8325
2023-03-11 20:18:33:966,-0.154307,0.929845,-9.6867,-5.67602,-1.5237,90.8257
2023-03-11 20:18:33:976,-0.166781,0.95839,-9.69653,-5.67382,-1.51534,90.821
2023-03-11 20:18:33:986,-0.196859,0.981751,-9.72085,-5.67624,-1.50979,90.8221
2023-03-11 20:18:33:996,-0.260375,1.01521,-9.75557,-5.6785,-1.50505,90.8235
2023-03-11 20:18:34:6,-0.296488,1.04994,-9.81299,-5.68013,-1.49922,90.8297
2023-03-11 20:18:34:16,-0.280087,1.03897,-9.8131,-5.67556,-1.49915,90.8363
2023-03-11 20:18:34:26,-0.269398,0.985767,-9.72709,-5.65841,-1.50246,90.8373
2023-03-11 20:18:34:36,-0.301804,0.931985,-9.61911,-5.64086,-1.50898,90.8436
2023-03-11 20:18:34:47,-0.358567,0.911528,-9.54611,-5.62816,-1.51502,90.8443
2023-03-11 20:18:34:57,-0.380634,0.910501,-9.57314,-5.6247,-1.52161,90.8448
2023-03-11 20:18:34:66,-0.351388,0.971993,-9.67885,-5.63146,-1.52182,90.8388
2023-03-11 20:18:34:76,-0.319547,1.01714,-9.76194,-5.64135,-1.52073,90.829
2023-03-11 20:18:34:87,-0.339159,1.03816,-9.8404,-5.65149,-1.5211,90.8131
2023-03-11 20:18:34:96,-0.361221,1.06713,-9.94013,-5.66017,-1.51893,90.7948
2023-03-11 20:18:34:107,-0.331326,1.07326,-9.9929,-5.66058,-1.52248,90.7717
2023-03-11 20:18:34:117,-0.321243,1.0238,-9.93233,-5.6459,-1.53743,90.7404
2023-03-11 20:18:34:126,-0.307961,0.976982,-9.83947,-5.62091,-1.55269,90.7068
2023-03-11 20:18:34:136,-0.255877,0.906754,-9.7383,-5.59195,-1.57189,90.6663
2023-03-11 20:18:34:146,-0.223277,0.843602,-9.62366,-5.55964,-1.58568,90.6278
2023-03-11 20:18:34:156,-0.224469,0.81526,-9.54689,-5.53302,-1.59384,90.5972
2023-03-11 20:18:34:166,-0.250955,0.828301,-9.52834,-5.5168,-1.59148,90.5774
2023-03-11 20:18:34:176,-0.281605,0.84833,-9.58972,-5.50999,-1.58175,90.5651
2023-03-11 20:18:34:186,-0.22526,0.917798,-9.73211,-5.5171,-1.56614,90.55
2023-03-11 20:18:34:196,-0.152599,0.977577,-9.87461,-5.52741,-1.54509,90.5378
2023-03-11 20:18:34:206,-0.118967,1.00138,-9.94001,-5.53578,-1.5291,90.5273
2023-03-11 20:18:34:216,-0.129854,1.02162,-9.89342,-5.5386,-1.52378,90.519
2023-03-11 20:18:34:226,-0.214194,1.01174,-9.77798,-5.53175,-1.53432,90.5109
2023-03-11 20:18:34:236,-0.298508,1.0014,-9.64777,-5.52595,-1.55744,90.5018
2023-03-11 20:18:34:246,-0.337439,0.96788,-9.51264,-5.51376,-1.58969,90.4894
2023-03-11 20:18:34:256,-0.305439,0.929123,-9.41539,-5.50431,-1.62006,90.4723
2023-03-11 20:18:34:266,-0.272687,0.898191,-9.38385,-5.50301,-1.64475,90.4522
2023-03-11 20:18:34:276,-0.255562,0.923525,-9.38537,-5.51562,-1.66688,90.4319
2023-03-11 20:18:34:286,-0.224344,0.935227,-9.44954,-5.54209,-1.68915,90.4117
2023-03-11 20:18:34:297,-0.177358,0.966927,-9.5199,-5.5813,-1.71599,90.3921
2023-03-11 20:18:34:306,-0.20446,1.03505,-9.60412,-5.62787,-1.74678,90.3827
2023-03-11 20:18:34:316,-0.249925,1.11007,-9.68672,-5.68771,-1.77666,90.3804
2023-03-11 20:18:34:327,-0.254602,1.16352,-9.76242,-5.74844,-1.80205,90.3852
2023-03-11 20:18:34:336,-0.2236,1.20403,-9.83289,-5.81175,-1.8271,90.3921
2023-03-11 20:18:34:346,-0.191519,1.24427,-9.87717,-5.87073,-1.84402,90.4092
2023-03-11 20:18:34:356,-0.199981,1.26539,-9.87184,-5.92229,-1.86389,90.4344
2023-03-11 20:18:34:367,-0.243772,1.26059,-9.84807,-5.96347,-1.8813,90.471
2023-03-11 20:18:34:377,-0.320381,1.28623,-9.85502,-5.99414,-1.88928,90.5179
2023-03-11 20:18:34:387,-0.342134,1.27899,-9.8985,-6.01264,-1.88837,90.5732
2023-03-11 20:18:34:397,-0.338827,1.24671,-9.93643,-6.01981,-1.87694,90.6352
2023-03-11 20:18:34:407,-0.350864,1.2022,-9.93722,-6.01538,-1.86013,90.6972
2023-03-11 20:18:34:417,-0.327021,1.1533,-9.88651,-6.00056,-1.83658,90.7549
2023-03-11 20:18:34:427,-0.301363,1.12092,-9.81462,-5.98162,-1.80547,90.8161
2023-03-11 20:18:34:437,-0.285078,1.07696,-9.7262,-5.96045,-1.77197,90.872
2023-03-11 20:18:34:447,-0.293753,1.05631,-9.65435,-5.93496,-1.7377,90.9283
2023-03-11 20:18:34:457,-0.304056,1.04211,-9.60241,-5.91493,-1.70886,90.9811
2023-03-11 20:18:34:467,-0.342306,1.01416,-9.53419,-5.8936,-1.68256,91.0279
2023-03-11 20:18:34:477,-0.39991,0.985403,-9.51737,-5.87853,-1.66064,91.0678
2023-03-11 20:18:34:487,-0.449193,1.00029,-9.58965,-5.87453,-1.64423,91.0943
2023-03-11 20:18:34:497,-0.459199,1.04771,-9.7185,-5.87658,-1.62664,91.1091
2023-03-11 20:18:34:507,-0.41605,1.07999,-9.83857,-5.8797,-1.61727,91.1091
2023-03-11 20:18:34:517,-0.327152,1.0489,-9.89419,-5.87732,-1.60902,91.0878
2023-03-11 20:18:34:527,-0.210837,1.00331,-9.89795,-5.872,-1.61199,91.0555
2023-03-11 20:18:34:537,-0.135337,0.977286,-9.85623,-5.86625,-1.61946,91.0099
2023-03-11 20:18:34:547,-0.106509,0.942988,-9.81506,-5.85721,-1.6398,90.9617
2023-03-11 20:18:34:556,-0.107192,0.941279,-9.75547,-5.84974,-1.66706,90.9178
2023-03-11 20:18:34:566,-0.119169,0.935012,-9.70524,-5.84801,-1.70057,90.8755
2023-03-11 20:18:34:577,-0.136304,0.940493,-9.69032,-5.8497,-1.73632,90.8411
2023-03-11 20:18:34:587,-0.204488,0.990402,-9.71154,-5.85907,-1.77497,90.8147
2023-03-11 20:18:34:597,-0.29088,1.05164,-9.7499,-5.8701,-1.8117,90.7951
2023-03-11 20:18:34:607,-0.393327,1.07853,-9.81161,-5.87947,-1.84403,90.7793
2023-03-11 20:18:34:616,-0.473176,1.10464,-9.84232,-5.87899,-1.87363,90.7627
2023-03-11 20:18:34:627,-0.496992,1.08591,-9.80546,-5.86505,-1.89541,90.7391
2023-03-11 20:18:34:636,-0.451782,1.02239,-9.75935,-5.84029,-1.9127,90.7112
2023-03-11 20:18:34:646,-0.358427,0.967241,-9.74301,-5.81178,-1.92291,90.6787
2023-03-11 20:18:34:656,-0.344058,0.945301,-9.6993,-5.78157,-1.9283,90.6457
2023-03-11 20:18:34:666,-0.349642,0.917371,-9.65162,-5.7552,-1.93926,90.6136
2023-03-11 20:18:34:676,-0.34519,0.895139,-9.65473,-5.73177,-1.9491,90.5866
2023-03-11 20:18:34:686,-0.333352,0.907568,-9.69679,-5.71634,-1.95591,90.5591
2023-03-11 20:18:34:696,-0.341805,0.912113,-9.76084,-5.70334,-1.9638,90.5359
2023-03-11 20:18:34:707,-0.32661,0.924424,-9.83879,-5.69102,-1.97344,90.5158
2023-03-11 20:18:34:717,-0.315106,0.943935,-9.88706,-5.67724,-1.9803,90.4982
2023-03-11 20:18:34:727,-0.321938,0.955963,-9.87666,-5.65768,-1.98781,90.4803
2023-03-11 20:18:34:737,-0.323616,0.955444,-9.80896,-5.63223,-1.99449,90.4659
2023-03-11 20:18:34:747,-0.297627,0.894926,-9.70554,-5.59953,-2.00152,90.452
2023-03-11 20:18:34:757,-0.294807,0.834471,-9.60252,-5.56512,-2.01221,90.4417
2023-03-11 20:18:34:767,-0.325201,0.811175,-9.53481,-5.53921,-2.02629,90.4384
2023-03-11 20:18:34:777,-0.351792,0.799587,-9.51809,-5.52227,-2.03716,90.4402
2023-03-11 20:18:34:787,-0.394898,0.826973,-9.58172,-5.51481,-2.04854,90.444
2023-03-11 20:18:34:796,-0.435324,0.866791,-9.6652,-5.51648,-2.05709,90.4566
2023-03-11 20:18:34:806,-0.489856,0.905455,-9.74282,-5.52128,-2.06451,90.4655
2023-03-11 20:18:34:817,-0.571853,0.924079,-9.76558,-5.52222,-2.06821,90.4785
2023-03-11 20:18:34:826,-0.633953,0.908003,-9.73677,-5.5195,-2.06607,90.4843
2023-03-11 20:18:34:836,-0.672351,0.871597,-9.67402,-5.51616,-2.05851,90.4788
2023-03-11 20:18:34:846,-0.678776,0.858566,-9.59606,-5.50872,-2.04238,90.4636
2023-03-11 20:18:34:857,-0.634324,0.86528,-9.5602,-5.50928,-2.02229,90.4298
2023-03-11 20:18:34:867,-0.543677,0.858849,-9.5672,-5.51995,-1.99245,90.374
2023-03-11 20:18:34:877,-0.446918,0.876557,-9.58388,-5.53886,-1.96259,90.3045
2023-03-11 20:18:34:887,-0.329885,0.909044,-9.61983,-5.5693,-1.93032,90.2201
2023-03-11 20:18:34:897,-0.179116,0.949466,-9.6884,-5.60332,-1.89519,90.1285
2023-03-11 20:18:34:907,-0.048341,0.965941,-9.78366,-5.63986,-1.85815,90.0257
2023-03-11 20:18:34:916,0.0380295,0.993925,-9.8812,-5.67485,-1.81492,89.9276
2023-03-11 20:18:34:926,0.0889519,1.04273,-9.96954,-5.70651,-1.77596,89.8353
2023-03-11 20:18:34:936,0.114875,1.07913,-10.0227,-5.72623,-1.729,89.7504
2023-03-11 20:18:34:946,0.112651,1.09329,-9.99585,-5.7332,-1.68657,89.6793
2023-03-11 20:18:34:956,0.129821,1.04005,-9.90455,-5.72107,-1.65408,89.6182
2023-03-11 20:18:34:966,0.179252,0.970711,-9.7704,-5.70293,-1.62374,89.568
2023-03-11 20:18:34:977,0.205525,0.933155,-9.65249,-5.68344,-1.60567,89.5327
2023-03-11 20:18:34:986,0.157505,0.910332,-9.58459,-5.67263,-1.60541,89.5059
2023-03-11 20:18:34:997,0.060596,0.905654,-9.51109,-5.67357,-1.62872,89.5037
2023-03-11 20:18:35:6,-0.0583069,0.920982,-9.49143,-5.68723,-1.664,89.5168
2023-03-11 20:18:35:17,-0.227984,0.952697,-9.51725,-5.71973,-1.71136,89.543
2023-03-11 20:18:35:26,-0.420645,1.0028,-9.57846,-5.76465,-1.76951,89.5821
2023-03-11 20:18:35:37,-0.594961,1.0663,-9.69317,-5.81857,-1.82968,89.6284
2023-03-11 20:18:35:46,-0.712747,1.14567,-9.81902,-5.87762,-1.8861,89.674
2023-03-11 20:18:35:57,-0.786616,1.19567,-9.8801,-5.93033,-1.93751,89.7137
2023-03-11 20:18:35:67,-0.805413,1.19923,-9.89567,-5.97091,-1.98443,89.7399
2023-03-11 20:18:35:77,-0.777937,1.17211,-9.89014,-5.99866,-2.0199,89.7531
2023-03-11 20:18:35:87,-0.748522,1.15913,-9.85995,-6.01784,-2.04649,89.7563
2023-03-11 20:18:35:97,-0.747244,1.14995,-9.81439,-6.03164,-2.06869,89.7483
2023-03-11 20:18:35:107,-0.733602,1.10509,-9.75806,-6.0347,-2.08781,89.7268
2023-03-11 20:18:35:117,-0.72957,1.09029,-9.70277,-6.03258,-2.10403,89.6956
2023-03-11 20:18:35:127,-0.727619,1.0804,-9.66492,-6.03237,-2.11599,89.6517
2023-03-11 20:18:35:137,-0.701806,1.04421,-9.63036,-6.03164,-2.11883,89.5988
2023-03-11 20:18:35:146,-0.663675,1.02423,-9.60266,-6.03212,-2.11336,89.5351
2023-03-11 20:18:35:156,-0.575328,1.01462,-9.6265,-6.04041,-2.10098,89.4595
2023-03-11 20:18:35:166,-0.47462,1.04927,-9.67243,-6.05551,-2.07871,89.3765
2023-03-11 20:18:35:176,-0.386888,1.06704,-9.68098,-6.07046,-2.05378,89.293
2023-03-11 20:18:35:186,-0.298445,1.05924,-9.64657,-6.08589,-2.02574,89.2052
2023-03-11 20:18:35:197,-0.258688,1.05406,-9.6261,-6.1024,-1.99142,89.1219
2023-03-11 20:18:35:207,-0.292282,1.05409,-9.57908,-6.12497,-1.95814,89.0419
2023-03-11 20:18:35:217,-0.313143,1.05969,-9.56704,-6.15441,-1.9277,88.9658
2023-03-11 20:18:35:227,-0.262493,1.10832,-9.62723,-6.19066,-1.89592,88.8935
2023-03-11 20:18:35:236,-0.203781,1.14728,-9.69239,-6.23031,-1.86283,88.8212
2023-03-11 20:18:35:247,-0.192453,1.14112,-9.73249,-6.27069,-1.83615,88.7551
2023-03-11 20:18:35:256,-0.22326,1.16424,-9.78957,-6.30952,-1.81214,88.694
2023-03-11 20:18:35:266,-0.250857,1.24066,-9.85832,-6.34393,-1.79261,88.6372
2023-03-11 20:18:35:276,-0.230421,1.24002,-9.9009,-6.37474,-1.77288,88.5831
2023-03-11 20:18:35:286,-0.204988,1.21473,-9.86517,-6.39441,-1.75059,88.5341
2023-03-11 20:18:35:296,-0.150665,1.19351,-9.83471,-6.40825,-1.72692,88.4937
2023-03-11 20:18:35:307,-0.103908,1.18597,-9.83718,-6.41838,-1.69953,88.4591
2023-03-11 20:18:35:317,-0.100002,1.18805,-9.80656,-6.42198,-1.67225,88.4304
2023-03-11 20:18:35:327,-0.0947865,1.16765,-9.76049,-6.42579,-1.6405,88.4115
2023-03-11 20:18:35:337,-0.126255,1.14101,-9.72002,-6.41719,-1.61022,88.4023
2023-03-11 20:18:35:346,-0.166143,1.11439,-9.67614,-6.40793,-1.57931,88.4046
2023-03-11 20:18:35:356,-0.170306,1.1016,-9.63002,-6.40192,-1.55013,88.4123
2023-03-11 20:18:35:367,-0.174535,1.09656,-9.61851,-6.39739,-1.51601,88.4277
2023-03-11 20:18:35:376,-0.207284,1.10113,-9.61681,-6.39717,-1.48363,88.4424
2023-03-11 20:18:35:386,-0.244859,1.12689,-9.63067,-6.40215,-1.45533,88.4569
2023-03-11 20:18:35:397,-0.261988,1.14769,-9.67774,-6.41462,-1.42737,88.4768
2023-03-11 20:18:35:406,-0.260605,1.1864,-9.74166,-6.43146,-1.40153,88.495
2023-03-11 20:18:35:416,-0.280647,1.22484,-9.76607,-6.45278,-1.38255,88.511
2023-03-11 20:18:35:426,-0.27559,1.23913,-9.75451,-6.46758,-1.36278,88.521
2023-03-11 20:18:35:436,-0.283993,1.22288,-9.74079,-6.47672,-1.34463,88.5358
2023-03-11 20:18:35:446,-0.315246,1.22394,-9.74639,-6.4911,-1.33157,88.5447
2023-03-11 20:18:35:456,-0.309397,1.20803,-9.74109,-6.50183,-1.31231,88.5536
2023-03-11 20:18:35:467,-0.229432,1.2083,-9.78275,-6.50884,-1.28981,88.5515
2023-03-11 20:18:35:476,-0.142319,1.19294,-9.81523,-6.51344,-1.27039,88.5459
2023-03-11 20:18:35:487,-0.117844,1.16643,-9.80196,-6.51073,-1.25525,88.5434
2023-03-11 20:18:35:497,-0.127408,1.15483,-9.78834,-6.5032,-1.24048,88.5437
2023-03-11 20:18:35:507,-0.13871,1.16518,-9.79654,-6.49756,-1.22921,88.5497
2023-03-11 20:18:35:517,-0.158659,1.16695,-9.80608,-6.49099,-1.21986,88.557
2023-03-11 20:18:35:527,-0.184132,1.1497,-9.77417,-6.47898,-1.21208,88.5672
2023-03-11 20:18:35:536,-0.215508,1.15008,-9.78675,-6.46822,-1.20178,88.5759
2023-03-11 20:18:35:547,-0.225911,1.16459,-9.76512,-6.45549,-1.19463,88.5812
2023-03-11 20:18:35:556,-0.230183,1.13653,-9.71356,-6.44054,-1.19237,88.5879
2023-03-11 20:18:35:567,-0.209461,1.1007,-9.70329,-6.4218,-1.188,88.5906
2023-03-11 20:18:35:576,-0.171852,1.08004,-9.69206,-6.40451,-1.18066,88.5897
2023-03-11 20:18:35:586,-0.12959,1.06266,-9.69136,-6.39206,-1.18351,88.5861
2023-03-11 20:18:35:597,-0.117131,1.06935,-9.70889,-6.37913,-1.1884,88.5789
2023-03-11 20:18:35:607,-0.103281,1.06485,-9.7211,-6.36294,-1.19445,88.5725
2023-03-11 20:18:35:617,-0.0981296,1.04995,-9.69957,-6.35163,-1.20638,88.5642
2023-03-11 20:18:35:627,-0.0826683,1.03432,-9.68911,-6.34355,-1.22357,88.5594
2023-03-11 20:18:35:637,-0.0759193,1.04829,-9.66684,-6.33916,-1.24023,88.5561
2023-03-11 20:18:35:646,-0.0900171,1.04996,-9.65746,-6.33669,-1.25897,88.5581
2023-03-11 20:18:35:656,-0.0960075,1.05112,-9.64052,-6.33502,-1.27517,88.5631
2023-03-11 20:18:35:667,-0.0945468,1.05881,-9.64301,-6.33873,-1.29575,88.5765
2023-03-11 20:18:35:676,-0.0948341,1.08497,-9.65994,-6.34991,-1.31433,88.5916
2023-03-11 20:18:35:686,-0.0606101,1.10277,-9.69334,-6.36122,-1.33742,88.6111
2023-03-11 20:18:35:696,-0.0423653,1.1396,-9.75157,-6.3776,-1.36801,88.6307
2023-03-11 20:18:35:706,-0.0564639,1.16455,-9.81055,-6.39833,-1.39983,88.6544
2023-03-11 20:18:35:717,-0.0682149,1.14533,-9.82794,-6.4108,-1.43926,88.6817
2023-03-11 20:18:35:727,-0.0950164,1.13225,-9.78726,-6.41384,-1.48582,88.7079
2023-03-11 20:18:35:737,-0.153172,1.13135,-9.73333,-6.41737,-1.5393,88.7326
2023-03-11 20:18:35:747,-0.234181,1.14091,-9.70624,-6.42123,-1.59204,88.7635
2023-03-11 20:18:35:756,-0.302722,1.14658,-9.70433,-6.43062,-1.64767,88.793
2023-03-11 20:18:35:767,-0.32439,1.15034,-9.6948,-6.43423,-1.69697,88.8231
2023-03-11 20:18:35:776,-0.336219,1.14711,-9.69765,-6.4382,-1.73582,88.8516
2023-03-11 20:18:35:787,-0.337066,1.16294,-9.73408,-6.44492,-1.77106,88.8804
2023-03-11 20:18:35:796,-0.322712,1.16804,-9.77987,-6.4514,-1.80544,88.9148
2023-03-11 20:18:35:807,-0.33481,1.18832,-9.78917,-6.4567,-1.83329,88.9468
2023-03-11 20:18:35:816,-0.352233,1.18665,-9.78626,-6.45702,-1.85898,88.9779
2023-03-11 20:18:35:826,-0.360948,1.17751,-9.75375,-6.45254,-1.87802,89.0148
2023-03-11 20:18:35:837,-0.393559,1.13246,-9.70993,-6.44085,-1.89507,89.0477
2023-03-11 20:18:35:847,-0.408167,1.11298,-9.67891,-6.4296,-1.90859,89.0815
2023-03-11 20:18:35:857,-0.434488,1.11924,-9.67704,-6.42146,-1.92018,89.1148
2023-03-11 20:18:35:867,-0.461282,1.12654,-9.69391,-6.41335,-1.92608,89.147
2023-03-11 20:18:35:876,-0.445185,1.12655,-9.72485,-6.40461,-1.92374,89.1764
2023-03-11 20:18:35:887,-0.446315,1.11654,-9.73444,-6.39562,-1.92481,89.2047
2023-03-11 20:18:35:897,-0.427692,1.10829,-9.73508,-6.38169,-1.92104,89.2254
2023-03-11 20:18:35:907,-0.399384,1.10264,-9.75085,-6.36748,-1.90833,89.2437
2023-03-11 20:18:35:916,-0.384287,1.08576,-9.75774,-6.35038,-1.89611,89.2602
2023-03-11 20:18:35:927,-0.347521,1.08023,-9.73935,-6.32923,-1.87986,89.275
2023-03-11 20:18:35:936,-0.301118,1.07864,-9.74006,-6.30889,-1.86049,89.285
2023-03-11 20:18:35:946,-0.251692,1.05934,-9.75104,-6.28899,-1.84058,89.2966
2023-03-11 20:18:35:956,-0.219227,1.03328,-9.71074,-6.26335,-1.82194,89.3038
2023-03-11 20:18:35:967,-0.242393,1.0187,-9.6473,-6.23904,-1.80778,89.3178
2023-03-11 20:18:35:977,-0.250469,1.00505,-9.6189,-6.21967,-1.79795,89.3306
2023-03-11 20:18:35:986,-0.254317,1.00811,-9.62569,-6.20741,-1.79165,89.3428
2023-03-11 20:18:35:997,-0.241539,1.02479,-9.64652,-6.20393,-1.785,89.356
2023-03-11 20:18:36:7,-0.268518,1.05516,-9.66887,-6.2043,-1.78154,89.3704
2023-03-11 20:18:36:17,-0.274108,1.0793,-9.68711,-6.20901,-1.78049,89.3858
2023-03-11 20:18:36:27,-0.289845,1.09676,-9.6898,-6.21415,-1.77896,89.4008
2023-03-11 20:18:36:37,-0.320285,1.10323,-9.70071,-6.22182,-1.7836,89.4182
2023-03-11 20:18:36:47,-0.336485,1.12141,-9.70185,-6.23024,-1.78749,89.4359
2023-03-11 20:18:36:57,-0.356706,1.13049,-9.6986,-6.23743,-1.79242,89.4523
2023-03-11 20:18:36:66,-0.359151,1.11601,-9.69339,-6.24563,-1.79818,89.4691
2023-03-11 20:18:36:76,-0.356797,1.11298,-9.69243,-6.24567,-1.80012,89.4818
2023-03-11 20:18:36:87,-0.335628,1.09187,-9.68581,-6.25068,-1.80286,89.4899
2023-03-11 20:18:36:97,-0.338536,1.09468,-9.67523,-6.25489,-1.80946,89.4938
2023-03-11 20:18:36:106,-0.333401,1.08789,-9.69278,-6.26549,-1.81525,89.4962
2023-03-11 20:18:36:116,-0.332778,1.10269,-9.7276,-6.2742,-1.81884,89.4971
2023-03-11 20:18:36:127,-0.300777,1.11826,-9.74862,-6.2917,-1.82019,89.5004
2023-03-11 20:18:36:137,-0.28488,1.12882,-9.74252,-6.30431,-1.81986,89.501
2023-03-11 20:18:36:147,-0.295044,1.1343,-9.7641,-6.31687,-1.82337,89.5005
2023-03-11 20:18:36:157,-0.309289,1.16333,-9.77338,-6.33228,-1.83085,89.5018
2023-03-11 20:18:36:167,-0.338466,1.18631,-9.78431,-6.34908,-1.83822,89.5014
2023-03-11 20:18:36:176,-0.333331,1.22591,-9.78553,-6.36411,-1.84355,89.5003
2023-03-11 20:18:36:186,-0.293085,1.20531,-9.7874,-6.3723,-1.85209,89.4997
2023-03-11 20:18:36:196,-0.294797,1.17891,-9.75803,-6.37729,-1.86095,89.5006
2023-03-11 20:18:36:206,-0.347005,1.17188,-9.72207,-6.38206,-1.87297,89.5036
2023-03-11 20:18:36:217,-0.354419,1.18944,-9.73109,-6.38609,-1.88784,89.5068
2023-03-11 20:18:36:226,-0.35037,1.18882,-9.7502,-6.38439,-1.89829,89.5124
2023-03-11 20:18:36:236,-0.346232,1.17787,-9.76585,-6.383,-1.90878,89.5167
2023-03-11 20:18:36:247,-0.330307,1.1745,-9.75748,-6.37741,-1.91181,89.5229
2023-03-11 20:18:36:256,-0.310092,1.16334,-9.74027,-6.37239,-1.91058,89.5292
2023-03-11 20:18:36:267,-0.306483,1.15905,-9.73493,-6.36261,-1.91049,89.5384
2023-03-11 20:18:36:276,-0.320412,1.15692,-9.73923,-6.35169,-1.91022,89.5508
2023-03-11 20:18:36:287,-0.335377,1.13408,-9.74814,-6.3418,-1.91116,89.5647
2023-03-11 20:18:36:297,-0.326145,1.129,-9.72224,-6.32883,-1.91201,89.5781
2023-03-11 20:18:36:307,-0.314698,1.11114,-9.68908,-6.31658,-1.9117,89.5892
2023-03-11 20:18:36:317,-0.304308,1.09357,-9.69072,-6.30346,-1.91186,89.6017
2023-03-11 20:18:36:326,-0.297541,1.10325,-9.71462,-6.29557,-1.91253,89.6147
2023-03-11 20:18:36:336,-0.276735,1.11679,-9.72805,-6.29032,-1.91612,89.6292
2023-03-11 20:18:36:347,-0.264962,1.11199,-9.72814,-6.2876,-1.91996,89.6447
2023-03-11 20:18:36:357,-0.260453,1.09554,-9.71967,-6.28311,-1.92413,89.6568
2023-03-11 20:18:36:367,-0.274052,1.10326,-9.7362,-6.27884,-1.93317,89.6747
2023-03-11 20:18:36:377,-0.293071,1.11515,-9.74134,-6.27517,-1.94427,89.6918
2023-03-11 20:18:36:387,-0.314169,1.12044,-9.74147,-6.26855,-1.95663,89.7143
2023-03-11 20:18:36:396,-0.320912,1.1144,-9.73309,-6.26709,-1.97114,89.7382
2023-03-11 20:18:36:406,-0.332279,1.11865,-9.72302,-6.26178,-1.9854,89.7619
2023-03-11 20:18:36:416,-0.338403,1.11017,-9.70936,-6.25699,-1.99759,89.7898
2023-03-11 20:18:36:426,-0.337769,1.10323,-9.6944,-6.24921,-2.0125,89.8141
2023-03-11 20:18:36:436,-0.347615,1.08447,-9.70483,-6.24344,-2.02662,89.8366
2023-03-11 20:18:36:446,-0.355256,1.07011,-9.70508,-6.23917,-2.04063,89.8591
2023-03-11 20:18:36:456,-0.360435,1.07927,-9.69152,-6.23454,-2.05395,89.8823
2023-03-11 20:18:36:466,-0.382601,1.06866,-9.66316,-6.23315,-2.07035,89.9018
2023-03-11 20:18:36:476,-0.41309,1.05581,-9.66375,-6.23023,-2.08547,89.9204
2023-03-11 20:18:36:487,-0.431286,1.06634,-9.67992,-6.23284,-2.0973,89.937
2023-03-11 20:18:36:497,-0.445552,1.08357,-9.69058,-6.23661,-2.11432,89.9536
2023-03-11 20:18:36:507,-0.462103,1.09406,-9.7023,-6.24385,-2.12426,89.9683
2023-03-11 20:18:36:516,-0.458345,1.10935,-9.72441,-6.25046,-2.13911,89.9765
2023-03-11 20:18:36:527,-0.450036,1.10929,-9.73261,-6.25731,-2.1505,89.9841
2023-03-11 20:18:36:536,-0.441648,1.10884,-9.74073,-6.26393,-2.1606,89.9863
2023-03-11 20:18:36:547,-0.428402,1.11173,-9.73009,-6.2677,-2.1737,89.986
2023-03-11 20:18:36:557,-0.42703,1.10932,-9.73131,-6.26745,-2.18764,89.9852
2023-03-11 20:18:36:567,-0.401067,1.11924,-9.7361,-6.26961,-2.19677,89.9827
2023-03-11 20:18:36:577,-0.377904,1.09642,-9.72259,-6.26968,-2.20373,89.9779
2023-03-11 20:18:36:586,-0.369573,1.07582,-9.71194,-6.26464,-2.20392,89.9745
2023-03-11 20:18:36:596,-0.366618,1.06799,-9.69984,-6.26536,-2.20022,89.9751
2023-03-11 20:18:36:607,-0.338512,1.05764,-9.68158,-6.26475,-2.19493,89.9768
2023-03-11 20:18:36:617,-0.325803,1.05757,-9.69136,-6.26377,-2.19258,89.9791
2023-03-11 20:18:36:627,-0.321852,1.06925,-9.73505,-6.26532,-2.189,89.9852
2023-03-11 20:18:36:637,-0.307194,1.10322,-9.78041,-6.26921,-2.18456,89.9931
2023-03-11 20:18:36:647,-0.27847,1.09815,-9.80577,-6.27244,-2.18283,90.0011
2023-03-11 20:18:36:656,-0.289956,1.08582,-9.78108,-6.27059,-2.18412,90.0096
2023-03-11 20:18:36:666,-0.324247,1.07346,-9.74065,-6.26968,-2.19684,90.0222
2023-03-11 20:18:36:677,-0.353306,1.06689,-9.71693,-6.26657,-2.21165,90.0369
2023-03-11 20:18:36:687,-0.396607,1.06912,-9.68599,-6.26825,-2.22852,90.0546
2023-03-11 20:18:36:696,-0.409557,1.08324,-9.67391,-6.26652,-2.24664,90.0709
2023-03-11 20:18:36:706,-0.396056,1.09065,-9.66954,-6.27298,-2.2578,90.0864
2023-03-11 20:18:36:716,-0.387207,1.11098,-9.69611,-6.28267,-2.27088,90.1046
2023-03-11 20:18:36:726,-0.400292,1.12994,-9.72034,-6.29592,-2.2839,90.1289
2023-03-11 20:18:36:736,-0.42742,1.14983,-9.72818,-6.30935,-2.2962,90.1515
2023-03-11 20:18:36:747,-0.454121,1.14747,-9.73032,-6.31731,-2.30661,90.1744
2023-03-11 20:18:36:757,-0.461802,1.13897,-9.71049,-6.32236,-2.31461,90.1984
2023-03-11 20:18:36:766,-0.465888,1.12094,-9.66864,-6.32297,-2.31933,90.2162
2023-03-11 20:18:36:776,-0.457026,1.09135,-9.65885,-6.32494,-2.32588,90.2348
2023-03-11 20:18:36:786,-0.427572,1.08945,-9.64737,-6.32913,-2.33179,90.248
2023-03-11 20:18:36:796,-0.436077,1.08566,-9.65879,-6.33431,-2.33268,90.2586
2023-03-11 20:18:36:807,-0.439018,1.10529,-9.6923,-6.34098,-2.34136,90.267
2023-03-11 20:18:36:816,-0.422886,1.11276,-9.72245,-6.35141,-2.34689,90.2747
2023-03-11 20:18:36:826,-0.383153,1.11369,-9.7438,-6.36614,-2.34959,90.2795
2023-03-11 20:18:36:836,-0.345742,1.13163,-9.74855,-6.37869,-2.35265,90.2845
2023-03-11 20:18:36:846,-0.364943,1.14301,-9.75856,-6.38941,-2.36147,90.2909
2023-03-11 20:18:36:856,-0.397221,1.16128,-9.74655,-6.40253,-2.37292,90.2993
2023-03-11 20:18:36:867,-0.427984,1.1793,-9.74793,-6.41061,-2.37726,90.3105
2023-03-11 20:18:36:876,-0.443885,1.20198,-9.75843,-6.41925,-2.3818,90.3195
2023-03-11 20:18:36:886,-0.404191,1.18348,-9.76817,-6.42734,-2.38125,90.3279
2023-03-11 20:18:36:896,-0.392538,1.16857,-9.74824,-6.4298,-2.38695,90.3368
2023-03-11 20:18:36:906,-0.436099,1.15463,-9.72403,-6.43201,-2.39246,90.3448
2023-03-11 20:18:36:916,-0.45195,1.15018,-9.71726,-6.42949,-2.39789,90.3534
2023-03-11 20:18:36:926,-0.448164,1.15744,-9.72172,-6.4302,-2.40303,90.3616
2023-03-11 20:18:36:937,-0.440072,1.16112,-9.73326,-6.43399,-2.40601,90.3674
2023-03-11 20:18:36:946,-0.433502,1.17497,-9.74712,-6.43153,-2.40467,90.3753
2023-03-11 20:18:36:956,-0.421858,1.18858,-9.77093,-6.4295,-2.40668,90.3829
2023-03-11 20:18:36:966,-0.427493,1.20939,-9.77495,-6.42803,-2.40576,90.3912
2023-03-11 20:18:36:976,-0.425428,1.19274,-9.7826,-6.42142,-2.4052,90.3996
2023-03-11 20:18:36:987,-0.437737,1.18242,-9.7476,-6.40967,-2.40062,90.4064
2023-03-11 20:18:36:997,-0.425175,1.14971,-9.70756,-6.39587,-2.39577,90.411
2023-03-11 20:18:37:7,-0.414131,1.12594,-9.70236,-6.38149,-2.39589,90.415
2023-03-11 20:18:37:17,-0.405657,1.12009,-9.70323,-6.36659,-2.39266,90.4198
2023-03-11 20:18:37:27,-0.418064,1.12119,-9.71577,-6.35423,-2.39154,90.4245
2023-03-11 20:18:37:36,-0.424035,1.10914,-9.70737,-6.34144,-2.39164,90.4321
2023-03-11 20:18:37:46,-0.429624,1.10127,-9.70889,-6.3301,-2.39241,90.4357
2023-03-11 20:18:37:56,-0.431746,1.11479,-9.73361,-6.32067,-2.39489,90.4383
2023-03-11 20:18:37:66,-0.448559,1.12816,-9.74527,-6.31463,-2.39567,90.4393
2023-03-11 20:18:37:76,-0.440205,1.13792,-9.73769,-6.303,-2.39875,90.4413
2023-03-11 20:18:37:86,-0.422833,1.12293,-9.71816,-6.29121,-2.39442,90.4469
2023-03-11 20:18:37:96,-0.416794,1.10384,-9.67812,-6.27907,-2.39269,90.4481
2023-03-11 20:18:37:107,-0.410251,1.08734,-9.66618,-6.26757,-2.38977,90.4473
2023-03-11 20:18:37:117,-0.405098,1.0758,-9.67623,-6.25844,-2.38559,90.445
2023-03-11 20:18:37:127,-0.380779,1.07374,-9.68403,-6.25291,-2.38196,90.4465
2023-03-11 20:18:37:137,-0.357911,1.07128,-9.69342,-6.24645,-2.37388,90.4455
2023-03-11 20:18:37:147,-0.355325,1.07388,-9.6894,-6.24014,-2.36551,90.4451
2023-03-11 20:18:37:156,-0.345924,1.0558,-9.69526,-6.23525,-2.36094,90.4419
2023-03-11 20:18:37:167,-0.321998,1.07577,-9.70574,-6.23027,-2.35578,90.4416
2023-03-11 20:18:37:177,-0.301187,1.0739,-9.69954,-6.22593,-2.34627,90.4422
2023-03-11 20:18:37:187,-0.29259,1.05746,-9.68121,-6.22289,-2.33964,90.4444
2023-03-11 20:18:37:197,-0.291727,1.05154,-9.67908,-6.22254,-2.33125,90.4479
2023-03-11 20:18:37:206,-0.301219,1.05847,-9.67325,-6.22585,-2.32948,90.4603
2023-03-11 20:18:37:216,-0.307622,1.05834,-9.69055,-6.23328,-2.32622,90.4698
2023-03-11 20:18:37:226,-0.327131,1.07288,-9.70641,-6.24428,-2.32582,90.483
2023-03-11 20:18:37:236,-0.347269,1.08008,-9.73724,-6.24984,-2.32561,90.4976
2023-03-11 20:18:37:247,-0.355688,1.10036,-9.72808,-6.25832,-2.3276,90.5102
2023-03-11 20:18:37:256,-0.380149,1.10979,-9.71018,-6.26925,-2.33654,90.5281
2023-03-11 20:18:37:266,-0.422159,1.10545,-9.71824,-6.27658,-2.34605,90.5427
2023-03-11 20:18:37:277,-0.448611,1.11739,-9.71779,-6.28905,-2.35859,90.5575
2023-03-11 20:18:37:287,-0.461791,1.12184,-9.71207,-6.30113,-2.36939,90.5662
2023-03-11 20:18:37:297,-0.475129,1.12192,-9.71087,-6.30822,-2.37888,90.5771
2023-03-11 20:18:37:307,-0.481935,1.10662,-9.73045,-6.31421,-2.38486,90.5833
2023-03-11 20:18:37:317,-0.465493,1.09529,-9.72407,-6.32064,-2.39279,90.5855
2023-03-11 20:18:37:327,-0.440196,1.10277,-9.72267,-6.32453,-2.39725,90.5853
2023-03-11 20:18:37:337,-0.447343,1.10172,-9.72275,-6.33272,-2.39911,90.5854
2023-03-11 20:18:37:347,-0.419737,1.10795,-9.75853,-6.33969,-2.39856,90.5845
2023-03-11 20:18:37:356,-0.369139,1.09852,-9.79797,-6.34712,-2.40166,90.5822
2023-03-11 20:18:37:367,-0.314062,1.09112,-9.7955,-6.35155,-2.40521,90.5801
2023-03-11 20:18:37:377,-0.298746,1.08963,-9.76977,-6.35381,-2.41112,90.5792
2023-03-11 20:18:37:387,-0.340976,1.09181,-9.73533,-6.35786,-2.42363,90.5812
2023-03-11 20:18:37:397,-0.368275,1.09555,-9.71599,-6.35896,-2.43934,90.5864
2023-03-11 20:18:37:407,-0.41366,1.12012,-9.69828,-6.36396,-2.45508,90.5944
2023-03-11 20:18:37:417,-0.440841,1.13149,-9.67695,-6.37256,-2.47208,90.6067
2023-03-11 20:18:37:426,-0.46751,1.1399,-9.68734,-6.37924,-2.48242,90.6171
2023-03-11 20:18:37:437,-0.481081,1.15968,-9.69996,-6.38528,-2.49292,90.6346
2023-03-11 20:18:37:447,-0.514116,1.17177,-9.7207,-6.39299,-2.50315,90.6519
2023-03-11 20:18:37:457,-0.541101,1.17583,-9.74438,-6.39904,-2.5095,90.6674
2023-03-11 20:18:37:467,-0.553765,1.17402,-9.71851,-6.40249,-2.51316,90.6825
2023-03-11 20:18:37:477,-0.540273,1.15586,-9.70371,-6.40277,-2.51789,90.6922
2023-03-11 20:18:37:486,-0.55843,1.13709,-9.67283,-6.39754,-2.51965,90.7009
2023-03-11 20:18:37:496,-0.558486,1.12002,-9.65132,-6.3904,-2.52341,90.7058
2023-03-11 20:18:37:507,-0.537027,1.11865,-9.65389,-6.38463,-2.52068,90.7071
2023-03-11 20:18:37:517,-0.523864,1.13039,-9.67015,-6.38554,-2.51899,90.7018
2023-03-11 20:18:37:526,-0.498294,1.12045,-9.7017,-6.38729,-2.5149,90.6959
2023-03-11 20:18:37:536,-0.472644,1.12062,-9.72404,-6.39026,-2.50839,90.6843
2023-03-11 20:18:37:547,-0.428857,1.13116,-9.73194,-6.39631,-2.50137,90.6693
2023-03-11 20:18:37:557,-0.414899,1.14016,-9.73967,-6.40217,-2.4951,90.6561
2023-03-11 20:18:37:567,-0.433061,1.16049,-9.7533,-6.40563,-2.49017,90.643
2023-03-11 20:18:37:577,-0.446795,1.17243,-9.77424,-6.41195,-2.48548,90.6361
2023-03-11 20:18:37:587,-0.416833,1.1774,-9.78537,-6.41367,-2.47662,90.6286
2023-03-11 20:18:37:596,-0.364385,1.15995,-9.77601,-6.4106,-2.46569,90.6215
2023-03-11 20:18:37:606,-0.351917,1.159,-9.73329,-6.40297,-2.4544,90.6154
2023-03-11 20:18:37:616,-0.372312,1.13548,-9.70439,-6.39228,-2.44273,90.6099
2023-03-11 20:18:37:627,-0.402752,1.12962,-9.69357,-6.38559,-2.43819,90.6061
2023-03-11 20:18:37:637,-0.436555,1.14467,-9.69443,-6.37689,-2.43168,90.605
2023-03-11 20:18:37:647,-0.431899,1.15102,-9.72364,-6.37138,-2.42204,90.6068
2023-03-11 20:18:37:657,-0.416827,1.16396,-9.7625,-6.36461,-2.41265,90.6069
2023-03-11 20:18:37:667,-0.38584,1.17148,-9.78606,-6.35784,-2.40328,90.6058
2023-03-11 20:18:37:677,-0.377542,1.16528,-9.80097,-6.34735,-2.39349,90.6038
2023-03-11 20:18:37:686,-0.374214,1.16048,-9.78954,-6.33354,-2.38615,90.6071
2023-03-11 20:18:37:696,-0.361127,1.14741,-9.7703,-6.31142,-2.37937,90.6057
2023-03-11 20:18:37:707,-0.349442,1.12543,-9.73152,-6.28856,-2.37038,90.6038
2023-03-11 20:18:37:716,-0.339423,1.10718,-9.7071,-6.26669,-2.36634,90.6026
2023-03-11 20:18:37:727,-0.34748,1.10932,-9.72951,-6.23949,-2.36423,90.6033
2023-03-11 20:18:37:736,-0.348184,1.11394,-9.73423,-6.21434,-2.36322,90.602
2023-03-11 20:18:37:746,-0.365795,1.09174,-9.7423,-6.18828,-2.36272,90.6007
2023-03-11 20:18:37:756,-0.375669,1.08653,-9.73211,-6.16296,-2.36588,90.6047
2023-03-11 20:18:37:767,-0.375051,1.07109,-9.73812,-6.13869,-2.36774,90.604
2023-03-11 20:18:37:777,-0.366941,1.05969,-9.74975,-6.11398,-2.37797,90.6071
2023-03-11 20:18:37:787,-0.38043,1.04277,-9.75017,-6.08923,-2.38889,90.6139
2023-03-11 20:18:37:797,-0.398661,1.04368,-9.74601,-6.06421,-2.39786,90.6183
2023-03-11 20:18:37:807,-0.393719,1.05034,-9.72451,-6.03966,-2.40578,90.6241
2023-03-11 20:18:37:817,-0.406127,1.02474,-9.71605,-6.01764,-2.41263,90.6308
2023-03-11 20:18:37:827,-0.418601,1.00618,-9.71072,-5.99465,-2.42528,90.6396
2023-03-11 20:18:37:837,-0.430826,1.00344,-9.69134,-5.97242,-2.4316,90.651
2023-03-11 20:18:37:847,-0.440134,0.994388,-9.66377,-5.94964,-2.44095,90.6604
2023-03-11 20:18:37:857,-0.445299,0.990497,-9.66965,-5.92653,-2.44706,90.6748
2023-03-11 20:18:37:867,-0.470779,0.992676,-9.66591,-5.90672,-2.45422,90.6838
2023-03-11 20:18:37:876,-0.488835,0.993841,-9.6697,-5.88966,-2.45766,90.6931
2023-03-11 20:18:37:887,-0.491674,0.990753,-9.67526,-5.87441,-2.46238,90.6981
2023-03-11 20:18:37:896,-0.48658,1.00005,-9.68599,-5.86085,-2.46688,90.7025
2023-03-11 20:18:37:907,-0.488644,1.01169,-9.70559,-5.8535,-2.46841,90.7015
2023-03-11 20:18:37:916,-0.466629,1.01384,-9.72839,-5.85023,-2.46993,90.6976
2023-03-11 20:18:37:927,-0.448473,1.02083,-9.73746,-5.84395,-2.47111,90.689
2023-03-11 20:18:37:937,-0.444231,1.01928,-9.74115,-5.83796,-2.47108,90.6808
2023-03-11 20:18:37:947,-0.436186,1.01156,-9.72512,-5.83402,-2.47206,90.6724
2023-03-11 20:18:37:956,-0.41569,1.00373,-9.71167,-5.82779,-2.4719,90.6626
2023-03-11 20:18:37:966,-0.400874,0.998439,-9.68152,-5.82379,-2.47268,90.647
2023-03-11 20:18:37:977,-0.399453,0.987136,-9.65024,-5.82357,-2.47805,90.6346
2023-03-11 20:18:37:987,-0.419388,0.993746,-9.66532,-5.82511,-2.4803,90.6245
2023-03-11 20:18:37:997,-0.437485,1.02737,-9.70247,-5.83086,-2.48224,90.6206
2023-03-11 20:18:38:6,-0.459133,1.06855,-9.7457,-5.84044,-2.48195,90.6158
2023-03-11 20:18:38:17,-0.473002,1.08994,-9.77708,-5.84973,-2.4776,90.6148
2023-03-11 20:18:38:26,-0.483033,1.08713,-9.79789,-5.85831,-2.47491,90.6122
2023-03-11 20:18:38:36,-0.49687,1.09285,-9.80468,-5.86325,-2.46594,90.6137
2023-03-11 20:18:38:46,-0.489599,1.08387,-9.77444,-5.85995,-2.45723,90.6126
2023-03-11 20:18:38:56,-0.462544,1.06068,-9.75748,-5.85281,-2.44116,90.6132
2023-03-11 20:18:38:66,-0.469949,1.04003,-9.73222,-5.83832,-2.43175,90.6111
2023-03-11 20:18:38:76,-0.465108,1.03141,-9.73743,-5.82644,-2.41763,90.6069
2023-03-11 20:18:38:87,-0.415644,1.03271,-9.77974,-5.81248,-2.40211,90.6024
2023-03-11 20:18:38:96,-0.36134,1.02419,-9.79503,-5.79983,-2.38929,90.591
2023-03-11 20:18:38:107,-0.355826,0.984805,-9.76803,-5.78023,-2.38261,90.5807
2023-03-11 20:18:38:117,-0.395428,0.948557,-9.71509,-5.76232,-2.38347,90.5691
2023-03-11 20:18:38:127,-0.390601,0.939379,-9.67898,-5.74422,-2.38498,90.5575
2023-03-11 20:18:38:137,-0.391733,0.94993,-9.69339,-5.73079,-2.38741,90.546
2023-03-11 20:18:38:147,-0.378011,0.965316,-9.67388,-5.72197,-2.39085,90.5351
2023-03-11 20:18:38:157,-0.361671,0.961075,-9.6535,-5.71591,-2.39306,90.5299
2023-03-11 20:18:38:167,-0.342113,0.96417,-9.64804,-5.71291,-2.39559,90.5227
2023-03-11 20:18:38:176,-0.341232,0.973613,-9.64071,-5.71453,-2.39506,90.5212
2023-03-11 20:18:38:186,-0.35279,0.975247,-9.62559,-5.71941,-2.39569,90.5233
2023-03-11 20:18:38:196,-0.375566,0.972885,-9.60773,-5.72568,-2.39479,90.5296
2023-03-11 20:18:38:206,-0.416308,1.00363,-9.62126,-5.73739,-2.39521,90.5389
2023-03-11 20:18:38:216,-0.444238,1.04552,-9.67619,-5.75526,-2.39348,90.5527
2023-03-11 20:18:38:226,-0.460073,1.06971,-9.73028,-5.77765,-2.3911,90.566
2023-03-11 20:18:38:236,-0.494825,1.10678,-9.76598,-5.79497,-2.39208,90.5804
2023-03-11 20:18:38:246,-0.510029,1.12885,-9.80261,-5.81378,-2.38795,90.5949
2023-03-11 20:18:38:256,-0.513227,1.13782,-9.81471,-5.82507,-2.38721,90.6019
2023-03-11 20:18:38:266,-0.498178,1.15274,-9.81397,-5.83628,-2.37922,90.6061
2023-03-11 20:18:38:276,-0.460221,1.14623,-9.81904,-5.83947,-2.37592,90.604
2023-03-11 20:18:38:287,-0.446161,1.12759,-9.8044,-5.83859,-2.371,90.5989
2023-03-11 20:18:38:297,-0.456228,1.12257,-9.7779,-5.83065,-2.36901,90.5957
2023-03-11 20:18:38:306,-0.466645,1.1168,-9.77809,-5.81844,-2.36472,90.5883
2023-03-11 20:18:38:317,-0.420473,1.11424,-9.80079,-5.8029,-2.35468,90.5801
2023-03-11 20:18:38:327,-0.352686,1.08732,-9.80274,-5.7896,-2.34123,90.5696
2023-03-11 20:18:38:337,-0.326463,1.04644,-9.77157,-5.76429,-2.33344,90.5604
2023-03-11 20:18:38:347,-0.34617,1.02022,-9.75013,-5.73838,-2.3296,90.5533
2023-03-11 20:18:38:357,-0.370797,1.00979,-9.7499,-5.70972,-2.32977,90.5496
2023-03-11 20:18:38:367,-0.380283,0.997774,-9.72735,-5.68325,-2.32667,90.5447
2023-03-11 20:18:38:377,-0.368839,0.969491,-9.71515,-5.65597,-2.31961,90.5405
2023-03-11 20:18:38:387,-0.343377,0.957227,-9.69653,-5.62814,-2.31613,90.5343
2023-03-11 20:18:38:397,-0.335757,0.93647,-9.68522,-5.60279,-2.30865,90.5346
2023-03-11 20:18:38:407,-0.348762,0.92439,-9.69151,-5.58004,-2.30516,90.5358
2023-03-11 20:18:38:416,-0.346455,0.928648,-9.68052,-5.56054,-2.30192,90.537
2023-03-11 20:18:38:427,-0.34074,0.930428,-9.68879,-5.54386,-2.29709,90.541
2023-03-11 20:18:38:437,-0.341181,0.920701,-9.69157,-5.52573,-2.29449,90.5451
2023-03-11 20:18:38:446,-0.33871,0.920834,-9.69517,-5.50983,-2.2957,90.5514
2023-03-11 20:18:38:456,-0.356252,0.918392,-9.7207,-5.49493,-2.29921,90.5594
2023-03-11 20:18:38:467,-0.367517,0.915552,-9.73371,-5.48058,-2.30633,90.5679
2023-03-11 20:18:38:477,-0.361469,0.921781,-9.73771,-5.46585,-2.31384,90.577
2023-03-11 20:18:38:487,-0.371098,0.920013,-9.75805,-5.45285,-2.31855,90.5881
2023-03-11 20:18:38:497,-0.377782,0.917752,-9.74994,-5.43896,-2.32583,90.5997
2023-03-11 20:18:38:507,-0.389152,0.906757,-9.73029,-5.42508,-2.33296,90.6114
2023-03-11 20:18:38:517,-0.398741,0.891323,-9.72467,-5.41283,-2.34345,90.6233
2023-03-11 20:18:38:527,-0.424147,0.877683,-9.72417,-5.40009,-2.35442,90.6354
2023-03-11 20:18:38:537,-0.442536,0.879808,-9.72894,-5.39068,-2.36328,90.6503
2023-03-11 20:18:38:547,-0.464732,0.890603,-9.73136,-5.38307,-2.37285,90.6657
2023-03-11 20:18:38:557,-0.472946,0.904055,-9.73223,-5.37293,-2.38053,90.6772
2023-03-11 20:18:38:566,-0.490589,0.897643,-9.74152,-5.36609,-2.38322,90.6898
2023-03-11 20:18:38:577,-0.501718,0.877448,-9.74041,-5.35723,-2.38724,90.7052
2023-03-11 20:18:38:586,-0.506196,0.87868,-9.72543,-5.34402,-2.38904,90.7163
2023-03-11 20:18:38:597,-0.491086,0.881426,-9.71383,-5.33127,-2.39172,90.7245
2023-03-11 20:18:38:607,-0.483058,0.873918,-9.69993,-5.3198,-2.39208,90.7299
2023-03-11 20:18:38:617,-0.481838,0.869664,-9.69001,-5.31092,-2.39021,90.7317
2023-03-11 20:18:38:627,-0.463487,0.869286,-9.68898,-5.30286,-2.38806,90.732
2023-03-11 20:18:38:637,-0.439779,0.852007,-9.6954,-5.29718,-2.38539,90.7305
2023-03-11 20:18:38:647,-0.426681,0.856119,-9.70383,-5.29263,-2.38365,90.7274
2023-03-11 20:18:38:656,-0.417923,0.858522,-9.71432,-5.29306,-2.38126,90.7203
2023-03-11 20:18:38:667,-0.407538,0.887498,-9.72066,-5.29312,-2.37654,90.714
2023-03-11 20:18:38:677,-0.395935,0.900745,-9.75039,-5.29509,-2.3743,90.7092
2023-03-11 20:18:38:687,-0.39847,0.903262,-9.78673,-5.30184,-2.36913,90.7035
2023-03-11 20:18:38:697,-0.387031,0.916756,-9.78464,-5.30471,-2.36504,90.7006
2023-03-11 20:18:38:707,-0.377489,0.919245,-9.77429,-5.30469,-2.3624,90.6965
2023-03-11 20:18:38:716,-0.385956,0.902275,-9.75959,-5.30201,-2.35523,90.6954
2023-03-11 20:18:38:727,-0.399185,0.888931,-9.74348,-5.2953,-2.3467,90.6957
2023-03-11 20:18:38:736,-0.40051,0.874137,-9.72854,-5.28894,-2.33835,90.6979
2023-03-11 20:18:38:747,-0.408206,0.854157,-9.71927,-5.28397,-2.3307,90.6966
2023-03-11 20:18:38:756,-0.409793,0.860158,-9.69031,-5.28066,-2.3253,90.6997
2023-03-11 20:18:38:766,-0.398161,0.853601,-9.67758,-5.27716,-2.31905,90.6957
2023-03-11 20:18:38:776,-0.385647,0.832432,-9.68953,-5.28063,-2.31183,90.6955
2023-03-11 20:18:38:786,-0.382038,0.837567,-9.73025,-5.28441,-2.30574,90.6957
2023-03-11 20:18:38:797,-0.365329,0.860931,-9.77867,-5.29108,-2.30055,90.6943
2023-03-11 20:18:38:806,-0.313953,0.896011,-9.8387,-5.29759,-2.29284,90.6919
2023-03-11 20:18:38:817,-0.311275,0.904829,-9.82839,-5.3041,-2.29127,90.6935
2023-03-11 20:18:38:827,-0.345054,0.886604,-9.76683,-5.30532,-2.29482,90.6947
2023-03-11 20:18:38:837,-0.383126,0.867709,-9.71034,-5.30821,-2.303,90.6951
2023-03-11 20:18:38:847,-0.406622,0.879,-9.68013,-5.31458,-2.31488,90.7005
2023-03-11 20:18:38:857,-0.416413,0.893303,-9.65364,-5.32533,-2.32206,90.7064
2023-03-11 20:18:38:867,-0.435122,0.909222,-9.63625,-5.33773,-2.32955,90.7128
2023-03-11 20:18:38:877,-0.429229,0.91433,-9.64055,-5.35634,-2.33505,90.7212
2023-03-11 20:18:38:887,-0.42722,0.933195,-9.65771,-5.38293,-2.33973,90.7342
2023-03-11 20:18:38:896,-0.441361,0.951986,-9.68338,-5.41172,-2.34133,90.7451
2023-03-11 20:18:38:906,-0.470388,0.976422,-9.70479,-5.43986,-2.34141,90.7562
2023-03-11 20:18:38:916,-0.501169,0.988931,-9.71337,-5.46459,-2.33929,90.7693
2023-03-11 20:18:38:926,-0.498816,1.00501,-9.7078,-5.48914,-2.33889,90.7799
2023-03-11 20:18:38:936,-0.506456,1.01548,-9.72157,-5.51323,-2.33484,90.7897
2023-03-11 20:18:38:947,-0.484989,1.02284,-9.72475,-5.53101,-2.32707,90.7979
2023-03-11 20:18:38:956,-0.462245,1.01477,-9.73396,-5.55144,-2.32246,90.7995
2023-03-11 20:18:38:966,-0.451775,1.00737,-9.73777,-5.57317,-2.31374,90.7955
2023-03-11 20:18:38:976,-0.457931,1.02014,-9.74377,-5.59305,-2.30706,90.794
2023-03-11 20:18:38:986,-0.424869,1.01886,-9.75531,-5.61623,-2.29902,90.7855
2023-03-11 20:18:38:997,-0.394257,1.01312,-9.76403,-5.6386,-2.29043,90.774
2023-03-11 20:18:39:7,-0.38064,1.02413,-9.751,-5.66057,-2.28788,90.7622
2023-03-11 20:18:39:16,-0.396883,1.03179,-9.73343,-5.68492,-2.28129,90.7541
2023-03-11 20:18:39:26,-0.415751,1.05431,-9.75412,-5.7123,-2.27512,90.7485
2023-03-11 20:18:39:36,-0.36925,1.08474,-9.78105,-5.7352,-2.26646,90.7431
2023-03-11 20:18:39:47,-0.304437,1.08074,-9.77448,-5.75779,-2.25724,90.7339
2023-03-11 20:18:39:56,-0.317396,1.07736,-9.73497,-5.77197,-2.24739,90.7213
2023-03-11 20:18:39:67,-0.380852,1.0795,-9.73286,-5.79284,-2.24157,90.723
2023-03-11 20:18:39:76,-0.412049,1.1019,-9.75764,-5.81097,-2.23458,90.7219
2023-03-11 20:18:39:87,-0.405582,1.10299,-9.77321,-5.82171,-2.23013,90.7233
2023-03-11 20:18:39:97,-0.400678,1.08791,-9.76499,-5.83064,-2.22345,90.7214
2023-03-11 20:18:39:107,-0.38826,1.08593,-9.76211,-5.83647,-2.21394,90.7203
2023-03-11 20:18:39:116,-0.380888,1.09172,-9.76076,-5.845,-2.20505,90.7182
2023-03-11 20:18:39:126,-0.3711,1.07847,-9.76363,-5.84989,-2.1982,90.717
2023-03-11 20:18:39:136,-0.376851,1.07641,-9.76056,-5.85195,-2.18989,90.7155
2023-03-11 20:18:39:146,-0.370977,1.0581,-9.76418,-5.85502,-2.18277,90.717
2023-03-11 20:18:39:156,-0.367456,1.06761,-9.73732,-5.86068,-2.17712,90.7163
2023-03-11 20:18:39:167,-0.371262,1.06572,-9.75294,-5.86037,-2.17239,90.7149
2023-03-11 20:18:39:177,-0.361498,1.06261,-9.76195,-5.86211,-2.16578,90.7148
2023-03-11 20:18:39:187,-0.35854,1.0513,-9.75251,-5.86122,-2.16231,90.7129
2023-03-11 20:18:39:197,-0.35578,1.05085,-9.73899,-5.86053,-2.16018,90.7072
2023-03-11 20:18:39:207,-0.350265,1.04187,-9.72844,-5.85818,-2.16025,90.7011
2023-03-11 20:18:39:217,-0.327782,1.02991,-9.71093,-5.8576,-2.16028,90.6983
2023-03-11 20:18:39:227,-0.325874,1.01924,-9.71179,-5.85684,-2.162,90.6955
2023-03-11 20:18:39:237,-0.324712,1.01597,-9.71032,-5.85691,-2.16377,90.6959
2023-03-11 20:18:39:246,-0.333241,1.01371,-9.70186,-5.85965,-2.16642,90.6978
2023-03-11 20:18:39:256,-0.346048,1.00464,-9.71191,-5.86374,-2.16777,90.6982
2023-03-11 20:18:39:267,-0.353686,0.991486,-9.71217,-5.86824,-2.17103,90.7061
2023-03-11 20:18:39:276,-0.387879,0.999132,-9.70682,-5.87395,-2.17457,90.713
2023-03-11 20:18:39:286,-0.410205,1.01285,-9.7039,-5.87981,-2.17957,90.7243
2023-03-11 20:18:39:296,-0.418036,1.02307,-9.699,-5.88946,-2.18171,90.7326
2023-03-11 20:18:39:306,-0.430228,1.03439,-9.7068,-5.89723,-2.18477,90.7397
2023-03-11 20:18:39:317,-0.444661,1.03918,-9.71869,-5.90546,-2.18733,90.7429
2023-03-11 20:18:39:327,-0.457233,1.05302,-9.72219,-5.91519,-2.18906,90.7467
2023-03-11 20:18:39:337,-0.44669,1.0581,-9.73888,-5.92316,-2.19177,90.7454
2023-03-11 20:18:39:347,-0.437401,1.05896,-9.74264,-5.93401,-2.19133,90.7413
2023-03-11 20:18:39:357,-0.427209,1.06992,-9.73663,-5.94112,-2.18671,90.7376
2023-03-11 20:18:39:367,-0.40004,1.06927,-9.72863,-5.9456,-2.18494,90.7326
2023-03-11 20:18:39:376,-0.38176,1.05898,-9.72252,-5.95522,-2.1813,90.7258
2023-03-11 20:18:39:386,-0.35661,1.04703,-9.72557,-5.95977,-2.17902,90.7177
2023-03-11 20:18:39:396,-0.361276,1.04114,-9.71916,-5.96606,-2.17581,90.7094
2023-03-11 20:18:39:406,-0.346261,1.05531,-9.7327,-5.97199,-2.17357,90.7016
2023-03-11 20:18:39:416,-0.326786,1.06775,-9.74221,-5.97845,-2.16812,90.6944
2023-03-11 20:18:39:427,-0.32562,1.06521,-9.74983,-5.98643,-2.167,90.6905
2023-03-11 20:18:39:436,-0.337758,1.06319,-9.76163,-5.9954,-2.16424,90.6841
2023-03-11 20:18:39:447,-0.355245,1.05853,-9.77133,-5.9946,-2.15918,90.6876
2023-03-11 20:18:39:457,-0.359308,1.06543,-9.77075,-5.99667,-2.1546,90.6881
2023-03-11 20:18:39:467,-0.369041,1.05745,-9.74504,-5.99168,-2.14666,90.6909
2023-03-11 20:18:39:477,-0.38119,1.04027,-9.71586,-5.98756,-2.14047,90.6941
2023-03-11 20:18:39:487,-0.37806,1.02655,-9.7069,-5.98148,-2.13263,90.6932
2023-03-11 20:18:39:497,-0.356203,1.01066,-9.71127,-5.97812,-2.12425,90.692
2023-03-11 20:18:39:507,-0.34813,1.00334,-9.71423,-5.9759,-2.11771,90.6903
2023-03-11 20:18:39:517,-0.319966,1.01111,-9.7484,-5.97519,-2.10757,90.6856
2023-03-11 20:18:39:527,-0.274875,1.01615,-9.79265,-5.97641,-2.1031,90.6822
2023-03-11 20:18:39:537,-0.251012,1.01461,-9.7967,-5.97333,-2.10339,90.6748
2023-03-11 20:18:39:547,-0.260136,1.00394,-9.74543,-5.97154,-2.1087,90.6714
2023-03-11 20:18:39:557,-0.293092,1.00227,-9.7105,-5.97792,-2.11903,90.6663
2023-03-11 20:18:39:567,-0.315958,1.00918,-9.69707,-5.97519,-2.13002,90.6649
2023-03-11 20:18:39:577,-0.349123,1.01947,-9.68176,-5.98256,-2.14161,90.6707
2023-03-11 20:18:39:587,-0.351992,1.03296,-9.67847,-5.99189,-2.15077,90.6773
2023-03-11 20:18:39:597,-0.346466,1.05618,-9.68279,-6.00449,-2.15576,90.6872
2023-03-11 20:18:39:607,-0.360097,1.0687,-9.71103,-6.01818,-2.16206,90.7012
2023-03-11 20:18:39:616,-0.406472,1.09089,-9.73127,-6.03237,-2.16688,90.7156
2023-03-11 20:18:39:627,-0.436881,1.10949,-9.73924,-6.0436,-2.17033,90.7326
2023-03-11 20:18:39:637,-0.453557,1.11125,-9.71895,-6.04853,-2.17339,90.7478
2023-03-11 20:18:39:647,-0.458366,1.08497,-9.69532,-6.051,-2.1736,90.7591
2023-03-11 20:18:39:657,-0.461157,1.06919,-9.6832,-6.05376,-2.17311,90.7704
2023-03-11 20:18:39:667,-0.472737,1.07095,-9.6929,-6.05525,-2.16987,90.776
2023-03-11 20:18:39:676,-0.463289,1.06252,-9.70586,-6.06247,-2.16855,90.7774
2023-03-11 20:18:39:687,-0.451859,1.06026,-9.72869,-6.06832,-2.16359,90.777
2023-03-11 20:18:39:697,-0.431111,1.0743,-9.7496,-6.07702,-2.16032,90.7717
2023-03-11 20:18:39:707,-0.400971,1.09672,-9.75506,-6.08761,-2.15798,90.7626
2023-03-11 20:18:39:717,-0.360855,1.08059,-9.74906,-6.0978,-2.15052,90.7475
2023-03-11 20:18:39:727,-0.34863,1.08027,-9.73889,-6.10612,-2.14635,90.7313
2023-03-11 20:18:39:737,-0.37077,1.08565,-9.73697,-6.11512,-2.14257,90.7174
2023-03-11 20:18:39:746,-0.367235,1.10274,-9.75585,-6.12039,-2.13811,90.7071
2023-03-11 20:18:39:757,-0.327893,1.12777,-9.78811,-6.13025,-2.12913,90.6944
2023-03-11 20:18:39:766,-0.264138,1.12123,-9.80716,-6.13155,-2.11743,90.6822
2023-03-11 20:18:39:776,-0.253434,1.09802,-9.79247,-6.12995,-2.10965,90.6751
2023-03-11 20:18:39:786,-0.288342,1.09663,-9.77295,-6.12569,-2.10392,90.672
2023-03-11 20:18:39:796,-0.329386,1.08539,-9.75274,-6.11797,-2.10086,90.6732
2023-03-11 20:18:39:806,-0.370217,1.08581,-9.727,-6.11059,-2.0981,90.6745
2023-03-11 20:18:39:817,-0.366347,1.07493,-9.71359,-6.10172,-2.09651,90.6736
2023-03-11 20:18:39:827,-0.357737,1.07252,-9.71497,-6.08943,-2.09214,90.6785
2023-03-11 20:18:39:837,-0.345347,1.06978,-9.71646,-6.08018,-2.08573,90.6805
2023-03-11 20:18:39:847,-0.333989,1.06336,-9.71923,-6.07122,-2.08089,90.6801
2023-03-11 20:18:39:857,-0.327316,1.05133,-9.72946,-6.06011,-2.0774,90.6811
2023-03-11 20:18:39:867,-0.334968,1.05439,-9.71771,-6.05214,-2.0749,90.6787
2023-03-11 20:18:39:877,-0.34053,1.02993,-9.70788,-6.04411,-2.07508,90.6798
2023-03-11 20:18:39:886,-0.336735,1.01906,-9.7034,-6.03767,-2.0755,90.6808
2023-03-11 20:18:39:897,-0.330156,1.01057,-9.70286,-6.02899,-2.07939,90.6783
2023-03-11 20:18:39:907,-0.325966,1.00994,-9.69112,-6.02834,-2.08567,90.6774
2023-03-11 20:18:39:916,-0.317495,1.01321,-9.69496,-6.02397,-2.08656,90.6773
2023-03-11 20:18:39:927,-0.314067,1.01527,-9.69753,-6.02409,-2.09639,90.6807
2023-03-11 20:18:39:937,-0.314745,1.01766,-9.70053,-6.02644,-2.10787,90.6847
2023-03-11 20:18:39:947,-0.335228,1.01347,-9.71215,-6.02637,-2.11453,90.6902
2023-03-11 20:18:39:957,-0.348785,1.0135,-9.72815,-6.0295,-2.12214,90.6977
2023-03-11 20:18:39:967,-0.35715,1.02019,-9.72315,-6.03089,-2.13004,90.7047
2023-03-11 20:18:39:977,-0.38,1.02219,-9.71165,-6.0365,-2.13799,90.7126
2023-03-11 20:18:39:986,-0.404038,1.03138,-9.70325,-6.04246,-2.14812,90.7227
2023-03-11 20:18:39:996,-0.428942,1.03027,-9.68918,-6.04619,-2.15712,90.7369
2023-03-11 20:18:40:6,-0.452863,1.02749,-9.68519,-6.05161,-2.16385,90.7498
2023-03-11 20:18:40:16,-0.461129,1.02565,-9.69458,-6.05899,-2.1696,90.7589
2023-03-11 20:18:40:26,-0.454131,1.05131,-9.69527,-6.06751,-2.17495,90.7702
2023-03-11 20:18:40:36,-0.44191,1.05622,-9.72358,-6.07489,-2.17798,90.7774
2023-03-11 20:18:40:46,-0.421746,1.06499,-9.73098,-6.08484,-2.17912,90.7809
2023-03-11 20:18:40:56,-0.41709,1.06483,-9.71058,-6.09437,-2.17717,90.788
2023-03-11 20:18:40:66,-0.414816,1.06082,-9.71098,-6.10549,-2.17223,90.7938
2023-03-11 20:18:40:77,-0.405958,1.07205,-9.71065,-6.11319,-2.16526,90.801
2023-03-11 20:18:40:87,-0.395377,1.07799,-9.69967,-6.12496,-2.15683,90.8045
2023-03-11 20:18:40:96,-0.393254,1.07884,-9.69467,-6.13624,-2.15021,90.8078
2023-03-11 20:18:40:107,-0.388067,1.08888,-9.70248,-6.14503,-2.14404,90.8105
2023-03-11 20:18:40:117,-0.388672,1.09189,-9.72716,-6.15928,-2.14071,90.8135
2023-03-11 20:18:40:127,-0.373127,1.11724,-9.73597,-6.17292,-2.13763,90.812
2023-03-11 20:18:40:136,-0.378521,1.12926,-9.73646,-6.18132,-2.13192,90.8119
2023-03-11 20:18:40:147,-0.390653,1.13871,-9.73768,-6.19042,-2.12568,90.8103
2023-03-11 20:18:40:157,-0.397661,1.14449,-9.74632,-6.20082,-2.12322,90.8094
2023-03-11 20:18:40:167,-0.393468,1.12733,-9.75853,-6.21044,-2.11738,90.8116
2023-03-11 20:18:40:176,-0.410035,1.13263,-9.76529,-6.21786,-2.1133,90.8078
2023-03-11 20:18:40:187,-0.401739,1.12387,-9.75957,-6.21969,-2.10751,90.8011
2023-03-11 20:18:40:196,-0.384088,1.11333,-9.75337,-6.2202,-2.10206,90.7959
2023-03-11 20:18:40:207,-0.3884,1.09715,-9.75113,-6.21801,-2.09978,90.7915
2023-03-11 20:18:40:217,-0.364537,1.089,-9.71831,-6.21371,-2.09237,90.7833
2023-03-11 20:18:40:227,-0.346667,1.06924,-9.69908,-6.21074,-2.08443,90.7749
2023-03-11 20:18:40:237,-0.335151,1.05732,-9.69656,-6.20732,-2.0748,90.7654
2023-03-11 20:18:40:246,-0.310551,1.05988,-9.73911,-6.20697,-2.06368,90.7545
2023-03-11 20:18:40:256,-0.257397,1.08498,-9.78492,-6.20938,-2.05465,90.7448
2023-03-11 20:18:40:266,-0.224918,1.08343,-9.79905,-6.21334,-2.05152,90.734
2023-03-11 20:18:40:276,-0.262331,1.07616,-9.76356,-6.21238,-2.05595,90.7248
2023-03-11 20:18:40:286,-0.297432,1.07347,-9.71603,-6.21303,-2.06227,90.7231
2023-03-11 20:18:40:296,-0.323238,1.07516,-9.7019,-6.21311,-2.06962,90.7206
2023-03-11 20:18:40:306,-0.340732,1.07125,-9.67848,-6.21282,-2.07819,90.72
2023-03-11 20:18:40:316,-0.349761,1.07187,-9.65997,-6.21654,-2.08318,90.7262
2023-03-11 20:18:40:326,-0.345768,1.08854,-9.66034,-6.22002,-2.08477,90.7376
2023-03-11 20:18:40:336,-0.344308,1.10735,-9.67522,-6.23077,-2.08875,90.7501
2023-03-11 20:18:40:346,-0.393219,1.13102,-9.70088,-6.24122,-2.08735,90.7621
2023-03-11 20:18:40:356,-0.438601,1.14469,-9.71379,-6.25378,-2.08933,90.774
2023-03-11 20:18:40:366,-0.459915,1.16767,-9.71676,-6.25967,-2.08942,90.7865
2023-03-11 20:18:40:376,-0.471688,1.15787,-9.71756,-6.2641,-2.08467,90.7967
2023-03-11 20:18:40:386,-0.478021,1.13845,-9.69922,-6.26432,-2.07745,90.8021
2023-03-11 20:18:40:396,-0.448821,1.12863,-9.69574,-6.26416,-2.07112,90.8025
2023-03-11 20:18:40:406,-0.44206,1.12661,-9.72924,-6.26572,-2.06416,90.7966
2023-03-11 20:18:40:416,-0.426792,1.14467,-9.73833,-6.26891,-2.05812,90.7905
2023-03-11 20:18:40:426,-0.389437,1.12778,-9.747,-6.27265,-2.04925,90.7769
2023-03-11 20:18:40:436,-0.34742,1.13937,-9.75367,-6.27396,-2.04101,90.7617
2023-03-11 20:18:40:447,-0.296541,1.13249,-9.75383,-6.27827,-2.03575,90.7437
2023-03-11 20:18:40:456,-0.282696,1.11446,-9.7448,-6.2775,-2.02624,90.7284
2023-03-11 20:18:40:466,-0.289872,1.11556,-9.72509,-6.27591,-2.01902,90.7182
2023-03-11 20:18:40:477,-0.288967,1.12018,-9.71863,-6.27684,-2.00992,90.7091
2023-03-11 20:18:40:487,-0.278004,1.14303,-9.75026,-6.28046,-1.99827,90.7031
2023-03-11 20:18:40:497,-0.255236,1.14345,-9.77087,-6.28221,-1.98662,90.698
2023-03-11 20:18:40:507,-0.259593,1.14215,-9.75183,-6.28216,-1.97833,90.6911
2023-03-11 20:18:40:516,-0.277297,1.12859,-9.73178,-6.28187,-1.97302,90.6916
2023-03-11 20:18:40:527,-0.310417,1.12521,-9.73215,-6.27692,-1.96782,90.6958
2023-03-11 20:18:40:537,-0.339397,1.12604,-9.73509,-6.27281,-1.96626,90.6992
2023-03-11 20:18:40:547,-0.340305,1.1278,-9.73664,-6.26408,-1.96463,90.703
2023-03-11 20:18:40:556,-0.338984,1.12791,-9.74274,-6.25694,-1.96253,90.7043
2023-03-11 20:18:40:567,-0.316,1.10983,-9.74954,-6.25042,-1.95963,90.702
2023-03-11 20:18:40:576,-0.306051,1.1094,-9.75435,-6.24053,-1.95314,90.6992
2023-03-11 20:18:40:587,-0.313389,1.11004,-9.7339,-6.23458,-1.95033,90.6992
2023-03-11 20:18:40:597,-0.317031,1.08476,-9.72514,-6.22552,-1.9452,90.6991
2023-03-11 20:18:40:606,-0.307693,1.07372,-9.73354,-6.21166,-1.94431,90.695
2023-03-11 20:18:40:616,-0.301893,1.07342,-9.72167,-6.201,-1.94125,90.6915
2023-03-11 20:18:40:626,-0.290291,1.06756,-9.71251,-6.19275,-1.9426,90.6891
2023-03-11 20:18:40:636,-0.294627,1.06651,-9.71351,-6.1835,-1.94357,90.6905
2023-03-11 20:18:40:646,-0.293677,1.07295,-9.73011,-6.17288,-1.94578,90.6876
2023-03-11 20:18:40:656,-0.27778,1.06865,-9.72782,-6.16358,-1.95121,90.6866
2023-03-11 20:18:40:666,-0.276295,1.05707,-9.73175,-6.15296,-1.95542,90.6855
2023-03-11 20:18:40:676,-0.296962,1.04755,-9.72938,-6.14144,-1.96392,90.6889
2023-03-11 20:18:40:686,-0.293593,1.04496,-9.73224,-6.13096,-1.97064,90.6933
2023-03-11 20:18:40:696,-0.297542,1.03527,-9.73013,-6.12425,-1.97657,90.7018
2023-03-11 20:18:40:707,-0.313095,1.04386,-9.727,-6.11886,-1.98555,90.7143
2023-03-11 20:18:40:716,-0.356039,1.03965,-9.73108,-6.11185,-1.99146,90.7286
2023-03-11 20:18:40:726,-0.374207,1.03691,-9.70986,-6.10529,-2.00004,90.7437
2023-03-11 20:18:40:736,-0.39664,1.03822,-9.68593,-6.09767,-2.00455,90.7587
2023-03-11 20:18:40:746,-0.424261,1.05011,-9.68051,-6.09032,-2.00946,90.771
2023-03-11 20:18:40:756,-0.449157,1.04698,-9.68892,-6.08408,-2.01397,90.7889
2023-03-11 20:18:40:766,-0.456201,1.05202,-9.70185,-6.07928,-2.01802,90.8013
2023-03-11 20:18:40:776,-0.468653,1.04411,-9.70753,-6.07386,-2.01914,90.8113
2023-03-11 20:18:40:787,-0.462214,1.05381,-9.69774,-6.07149,-2.01887,90.8162
2023-03-11 20:18:40:796,-0.453814,1.05433,-9.70335,-6.07047,-2.01742,90.8175
2023-03-11 20:18:40:807,-0.420935,1.05101,-9.71966,-6.07005,-2.01285,90.8161
2023-03-11 20:18:40:816,-0.388666,1.05967,-9.72151,-6.07127,-2.01016,90.8107
2023-03-11 20:18:40:826,-0.37546,1.06106,-9.72919,-6.07311,-2.00752,90.8018
2023-03-11 20:18:40:836,-0.355837,1.06994,-9.74341,-6.07085,-2.00293,90.7896
2023-03-11 20:18:40:846,-0.318803,1.06055,-9.7573,-6.07046,-1.99825,90.7833
2023-03-11 20:18:40:856,-0.310651,1.05526,-9.74648,-6.06915,-1.9915,90.7701
2023-03-11 20:18:40:866,-0.297345,1.06621,-9.74253,-6.06722,-1.98841,90.7571
2023-03-11 20:18:40:876,-0.293102,1.06448,-9.7476,-6.06656,-1.98867,90.7461
2023-03-11 20:18:40:886,-0.296449,1.06202,-9.74472,-6.05897,-1.9849,90.7366
2023-03-11 20:18:40:896,-0.292966,1.04688,-9.75433,-6.0555,-1.98107,90.7333
2023-03-11 20:18:40:906,-0.293427,1.04697,-9.72974,-6.04725,-1.97673,90.7305
2023-03-11 20:18:40:916,-0.30872,1.04204,-9.72447,-6.04156,-1.97493,90.7337
2023-03-11 20:18:40:927,-0.337365,1.04717,-9.73329,-6.03908,-1.97156,90.7363
2023-03-11 20:18:40:937,-0.33919,1.03768,-9.72681,-6.03644,-1.96898,90.7403
2023-03-11 20:18:40:947,-0.346231,1.0403,-9.71944,-6.03215,-1.96806,90.7428
2023-03-11 20:18:40:957,-0.362795,1.05021,-9.722,-6.02516,-1.96458,90.7451
2023-03-11 20:18:40:967,-0.375102,1.05231,-9.70962,-6.0209,-1.96314,90.744
2023-03-11 20:18:40:976,-0.353226,1.04311,-9.71735,-6.01688,-1.9607,90.7436
2023-03-11 20:18:40:986,-0.334442,1.02955,-9.73136,-6.01204,-1.95699,90.7444
2023-03-11 20:18:40:996,-0.317204,1.03231,-9.75858,-6.00932,-1.95075,90.7398
2023-03-11 20:18:41:7,-0.252277,1.0509,-9.80463,-6.00561,-1.94881,90.7344
2023-03-11 20:18:41:16,-0.20476,1.0342,-9.81023,-6.00082,-1.95208,90.7288
2023-03-11 20:18:41:26,-0.217108,1.00578,-9.75235,-5.99356,-1.9586,90.7269
2023-03-11 20:18:41:37,-0.267279,0.98563,-9.6915,-5.98681,-1.97034,90.7259
2023-03-11 20:18:41:47,-0.308564,1.00367,-9.66771,-5.98415,-1.98342,90.7315
2023-03-11 20:18:41:57,-0.337854,1.03155,-9.67963,-5.983,-1.99766,90.7401
2023-03-11 20:18:41:67,-0.352838,1.05459,-9.68552,-5.98862,-2.01109,90.7498
2023-03-11 20:18:41:77,-0.337798,1.07572,-9.69998,-5.99862,-2.01741,90.7611
2023-03-11 20:18:41:87,-0.33341,1.08287,-9.72011,-6.00391,-2.02664,90.7734
2023-03-11 20:18:41:97,-0.356002,1.09601,-9.73082,-6.00842,-2.03259,90.7881
2023-03-11 20:18:41:107,-0.395537,1.09684,-9.71442,-6.01576,-2.0351,90.8037
2023-03-11 20:18:41:117,-0.424293,1.09484,-9.71102,-6.0149,-2.03841,90.8196
2023-03-11 20:18:41:126,-0.430944,1.07738,-9.69975,-6.01405,-2.04245,90.8349
2023-03-11 20:18:41:137,-0.428774,1.06867,-9.66442,-6.0106,-2.04111,90.8479
2023-03-11 20:18:41:147,-0.424711,1.04604,-9.66687,-6.00875,-2.04235,90.8599
2023-03-11 20:18:41:157,-0.42909,1.04866,-9.69119,-6.00425,-2.03904,90.8668
2023-03-11 20:18:41:167,-0.421852,1.05896,-9.73765,-6.00411,-2.03965,90.8726
2023-03-11 20:18:41:176,-0.413742,1.07056,-9.7619,-6.00771,-2.03824,90.8705
2023-03-11 20:18:41:187,-0.378639,1.08803,-9.78629,-6.01304,-2.03507,90.8648
2023-03-11 20:18:41:197,-0.313726,1.08775,-9.77438,-6.01792,-2.02841,90.8573
2023-03-11 20:18:41:207,-0.315507,1.09066,-9.73973,-6.01846,-2.02161,90.8528
2023-03-11 20:18:41:217,-0.346579,1.08408,-9.72842,-6.01869,-2.01722,90.8494
2023-03-11 20:18:41:227,-0.3507,1.08979,-9.72515,-6.01831,-2.00979,90.8473
2023-03-11 20:18:41:236,-0.318669,1.11523,-9.75549,-6.02206,-2.00124,90.8457
2023-03-11 20:18:41:246,-0.26989,1.11118,-9.75313,-6.01838,-1.9881,90.8449
2023-03-11 20:18:41:257,-0.260941,1.08967,-9.72577,-6.01614,-1.97878,90.8463
2023-03-11 20:18:41:266,-0.291268,1.07651,-9.72636,-6.01238,-1.9712,90.8482
2023-03-11 20:18:41:276,-0.315774,1.08725,-9.72502,-6.00923,-1.96855,90.8525
2023-03-11 20:18:41:287,-0.330207,1.08736,-9.74086,-6.00608,-1.96878,90.8579
2023-03-11 20:18:41:296,-0.326623,1.0774,-9.73232,-5.99928,-1.96689,90.8633
2023-03-11 20:18:41:307,-0.308902,1.08341,-9.73457,-5.99259,-1.96606,90.866
2023-03-11 20:18:41:316,-0.296242,1.08094,-9.74281,-5.98371,-1.96687,90.8642
2023-03-11 20:18:41:326,-0.301785,1.07948,-9.75572,-5.97891,-1.96858,90.8676
2023-03-11 20:18:41:336,-0.307386,1.06394,-9.74366,-5.97161,-1.97471,90.8714
2023-03-11 20:18:41:346,-0.314667,1.04252,-9.73431,-5.96353,-1.97841,90.8768
2023-03-11 20:18:41:356,-0.318379,1.02203,-9.71038,-5.94944,-1.98341,90.8811
2023-03-11 20:18:41:366,-0.323744,1.01552,-9.70088,-5.94442,-1.99111,90.8861
2023-03-11 20:18:41:376,-0.34313,1.00592,-9.67678,-5.93983,-1.99408,90.8915
2023-03-11 20:18:41:386,-0.352105,0.990462,-9.66321,-5.93929,-2.00258,90.8977
2023-03-11 20:18:41:396,-0.34412,0.977413,-9.6612,-5.9365,-2.01118,90.9039
2023-03-11 20:18:41:406,-0.340987,0.96241,-9.67341,-5.93696,-2.02235,90.9086
2023-03-11 20:18:41:416,-0.362455,0.974899,-9.67414,-5.9414,-2.03298,90.9114
2023-03-11 20:18:41:426,-0.364898,0.983737,-9.69259,-5.94876,-2.03961,90.9169
2023-03-11 20:18:41:436,-0.360701,0.992784,-9.72562,-5.95528,-2.04449,90.9306
2023-03-11 20:18:41:446,-0.379659,1.0003,-9.70566,-5.96187,-2.04886,90.9427
2023-03-11 20:18:41:456,-0.388928,1.0015,-9.68593,-5.96966,-2.05124,90.9594
2023-03-11 20:18:41:467,-0.396688,1.00211,-9.67944,-5.97545,-2.05057,90.9774
2023-03-11 20:18:41:476,-0.422644,1.02874,-9.67614,-5.98695,-2.04794,90.9988
2023-03-11 20:18:41:486,-0.43498,1.04467,-9.6881,-6.00186,-2.04514,91.0162
2023-03-11 20:18:41:496,-0.430314,1.04507,-9.69919,-6.01901,-2.04499,91.0292
2023-03-11 20:18:41:506,-0.423865,1.06203,-9.69342,-6.03655,-2.0386,91.0411
2023-03-11 20:18:41:516,-0.418207,1.05747,-9.69305,-6.05314,-2.03432,91.0556
2023-03-11 20:18:41:526,-0.39809,1.05966,-9.69067,-6.06917,-2.02874,91.0669
2023-03-11 20:18:41:536,-0.384478,1.0667,-9.70351,-6.08769,-2.02252,91.074
2023-03-11 20:18:41:546,-0.399176,1.08131,-9.72136,-6.10847,-2.01453,91.08
2023-03-11 20:18:41:557,-0.406261,1.09122,-9.74593,-6.12751,-2.00689,91.0842
2023-03-11 20:18:41:567,-0.379426,1.1186,-9.77126,-6.14992,-1.99833,91.0861
2023-03-11 20:18:41:576,-0.365895,1.14768,-9.78672,-6.16831,-1.99017,91.0901
2023-03-11 20:18:41:587,-0.355294,1.14056,-9.79564,-6.18466,-1.98501,91.0884
2023-03-11 20:18:41:597,-0.32779,1.143,-9.79327,-6.19922,-1.97852,91.0843
2023-03-11 20:18:41:607,-0.334041,1.13931,-9.78263,-6.20801,-1.97254,91.0787
2023-03-11 20:18:41:617,-0.338185,1.13926,-9.76685,-6.21722,-1.96871,91.0718
2023-03-11 20:18:41:627,-0.338507,1.13539,-9.77031,-6.22353,-1.96716,91.0699
2023-03-11 20:18:41:636,-0.330164,1.12667,-9.75818,-6.22603,-1.96138,91.0678
2023-03-11 20:18:41:647,-0.333247,1.12625,-9.7291,-6.22965,-1.95664,91.0634
2023-03-11 20:18:41:657,-0.339827,1.1081,-9.73194,-6.22826,-1.9512,91.0626
2023-03-11 20:18:41:667,-0.341398,1.10629,-9.73938,-6.2254,-1.94597,91.0619
2023-03-11 20:18:41:677,-0.351974,1.10867,-9.73116,-6.22049,-1.93861,91.0615
2023-03-11 20:18:41:687,-0.357884,1.09765,-9.73543,-6.21342,-1.93273,91.0595
2023-03-11 20:18:41:697,-0.375127,1.081,-9.7208,-6.20959,-1.9273,91.0578
2023-03-11 20:18:41:707,-0.364101,1.06933,-9.68588,-6.20161,-1.92353,91.0572
2023-03-11 20:18:41:717,-0.33935,1.04303,-9.67854,-6.19535,-1.91265,91.0554
2023-03-11 20:18:41:727,-0.318475,1.04025,-9.69644,-6.19015,-1.9012,91.0504
2023-03-11 20:18:41:737,-0.291998,1.04365,-9.72408,-6.18726,-1.89126,91.0449
2023-03-11 20:18:41:747,-0.248839,1.07395,-9.77889,-6.18535,-1.87793,91.0384
2023-03-11 20:18:41:756,-0.194651,1.08643,-9.83714,-6.18662,-1.87082,91.0355
2023-03-11 20:18:41:766,-0.192611,1.08252,-9.81418,-6.1832,-1.86973,91.032
2023-03-11 20:18:41:777,-0.219631,1.05947,-9.75648,-6.17937,-1.87495,91.0293
2023-03-11 20:18:41:787,-0.267186,1.05598,-9.70768,-6.17645,-1.88485,91.0331
2023-03-11 20:18:41:796,-0.304752,1.06912,-9.67571,-6.17458,-1.89769,91.0352
2023-03-11 20:18:41:807,-0.332011,1.0846,-9.67314,-6.17487,-1.91026,91.0441
2023-03-11 20:18:41:817,-0.331427,1.08859,-9.65556,-6.17789,-1.92104,91.055
2023-03-11 20:18:41:827,-0.336804,1.08657,-9.65534,-6.18001,-1.92783,91.0671
2023-03-11 20:18:41:837,-0.364571,1.10057,-9.6681,-6.18677,-1.93599,91.0803
2023-03-11 20:18:41:846,-0.401369,1.10252,-9.68363,-6.19224,-1.94315,91.095
2023-03-11 20:18:41:856,-0.419693,1.12552,-9.67333,-6.19809,-1.94745,91.1082
2023-03-11 20:18:41:866,-0.431582,1.11851,-9.6773,-6.20128,-1.95122,91.1203
2023-03-11 20:18:41:876,-0.426258,1.10247,-9.67817,-6.20578,-1.95083,91.1285
2023-03-11 20:18:41:886,-0.420589,1.08953,-9.68344,-6.20945,-1.94859,91.1353
2023-03-11 20:18:41:897,-0.422549,1.10257,-9.67619,-6.21274,-1.94775,91.1366
2023-03-11 20:18:41:907,-0.430151,1.09533,-9.68816,-6.21922,-1.9442,91.1343
2023-03-11 20:18:41:917,-0.427388,1.11052,-9.71626,-6.22923,-1.93684,91.1327
2023-03-11 20:18:41:927,-0.40551,1.12428,-9.73628,-6.2412,-1.92777,91.1294
2023-03-11 20:18:41:937,-0.381816,1.12773,-9.74883,-6.25328,-1.91542,91.1206
2023-03-11 20:18:41:947,-0.334147,1.12183,-9.74637,-6.26236,-1.9043,91.1099
2023-03-11 20:18:41:956,-0.318719,1.12287,-9.74687,-6.27525,-1.89464,91.0913
2023-03-11 20:18:41:966,-0.334466,1.13329,-9.74668,-6.2855,-1.88706,91.0799
2023-03-11 20:18:41:976,-0.334812,1.14642,-9.73903,-6.2917,-1.87996,91.068
2023-03-11 20:18:41:986,-0.28008,1.16979,-9.76772,-6.30065,-1.87015,91.0532
2023-03-11 20:18:41:996,-0.218715,1.1569,-9.76845,-6.3057,-1.85593,91.0391
2023-03-11 20:18:42:7,-0.205857,1.14917,-9.7438,-6.3072,-1.84585,91.0248
2023-03-11 20:18:42:16,-0.229451,1.14107,-9.73199,-6.30505,-1.83358,91.012
2023-03-11 20:18:42:26,-0.24914,1.13688,-9.74451,-6.30388,-1.8262,91.0057
2023-03-11 20:18:42:36,-0.259995,1.14107,-9.73038,-6.30286,-1.81849,91.0015
2023-03-11 20:18:42:47,-0.265855,1.13148,-9.73692,-6.29936,-1.81405,91.0004
2023-03-11 20:18:42:57,-0.238612,1.12631,-9.74318,-6.29643,-1.80924,90.9967
2023-03-11 20:18:42:67,-0.244978,1.1279,-9.7553,-6.29155,-1.80706,90.9939
2023-03-11 20:18:42:77,-0.250074,1.11681,-9.76826,-6.2889,-1.80536,90.9916
2023-03-11 20:18:42:87,-0.251971,1.1237,-9.75755,-6.28648,-1.80511,90.9934
2023-03-11 20:18:42:97,-0.262561,1.11751,-9.74946,-6.2792,-1.80273,90.9965
2023-03-11 20:18:42:107,-0.286673,1.0943,-9.7439,-6.26936,-1.80575,91.0024
2023-03-11 20:18:42:117,-0.286559,1.09764,-9.7255,-6.25921,-1.81169,91.0092
2023-03-11 20:18:42:127,-0.295981,1.09432,-9.70866,-6.24892,-1.81952,91.0135
2023-03-11 20:18:42:137,-0.293822,1.08576,-9.70686,-6.24022,-1.82453,91.0194
2023-03-11 20:18:42:147,-0.302793,1.08289,-9.69368,-6.23083,-1.83006,91.0233
2023-03-11 20:18:42:156,-0.302291,1.07171,-9.68868,-6.22331,-1.83544,91.0271
2023-03-11 20:18:42:167,-0.305311,1.05343,-9.68808,-6.21662,-1.84182,91.0327
2023-03-11 20:18:42:177,-0.303817,1.05468,-9.69288,-6.21251,-1.84881,91.0392
2023-03-11 20:18:42:187,-0.308976,1.06393,-9.70854,-6.20558,-1.85819,91.0419
2023-03-11 20:18:42:196,-0.299696,1.05122,-9.72496,-6.20269,-1.86638,91.0469
2023-03-11 20:18:42:207,-0.299344,1.06125,-9.72372,-6.20051,-1.87596,91.052
2023-03-11 20:18:42:217,-0.314626,1.07012,-9.71678,-6.1986,-1.88825,91.0583
2023-03-11 20:18:42:227,-0.341777,1.06506,-9.71567,-6.19704,-1.89619,91.0669
2023-03-11 20:18:42:237,-0.358733,1.06919,-9.69936,-6.19638,-1.90346,91.0739
2023-03-11 20:18:42:247,-0.367338,1.06685,-9.67954,-6.19617,-1.90921,91.083
2023-03-11 20:18:42:257,-0.381342,1.06402,-9.6728,-6.19563,-1.9165,91.0926
2023-03-11 20:18:42:266,-0.39212,1.06208,-9.66351,-6.19778,-1.92132,91.1
2023-03-11 20:18:42:276,-0.399712,1.07518,-9.68914,-6.20434,-1.92811,91.1069
2023-03-11 20:18:42:287,-0.400762,1.09558,-9.70563,-6.21258,-1.93018,91.1112
2023-03-11 20:18:42:297,-0.396868,1.10618,-9.72479,-6.21869,-1.93339,91.1152
2023-03-11 20:18:42:307,-0.367079,1.10984,-9.74006,-6.22222,-1.93552,91.1134
2023-03-11 20:18:42:317,-0.341751,1.09871,-9.75033,-6.22362,-1.93571,91.1073
2023-03-11 20:18:42:327,-0.343678,1.09815,-9.73853,-6.22737,-1.93625,91.1023
2023-03-11 20:18:42:337,-0.338613,1.09542,-9.71975,-6.23053,-1.93857,91.0992
2023-03-11 20:18:42:347,-0.33236,1.10486,-9.7124,-6.22915,-1.94403,91.091
2023-03-11 20:18:42:357,-0.333347,1.08919,-9.70614,-6.23174,-1.9446,91.0891
2023-03-11 20:18:42:366,-0.324302,1.09964,-9.71432,-6.23424,-1.94416,91.0858
2023-03-11 20:18:42:376,-0.318647,1.10982,-9.7249,-6.23981,-1.94297,91.0841
2023-03-11 20:18:42:386,-0.311702,1.12043,-9.72251,-6.24526,-1.94244,91.0807
2023-03-11 20:18:42:396,-0.318041,1.12463,-9.72733,-6.24982,-1.94185,91.08
2023-03-11 20:18:42:406,-0.325201,1.12954,-9.73564,-6.25007,-1.94137,91.0807
2023-03-11 20:18:42:416,-0.349301,1.131,-9.76282,-6.25273,-1.93979,91.0852
2023-03-11 20:18:42:427,-0.364319,1.13512,-9.76756,-6.25557,-1.9362,91.0913
2023-03-11 20:18:42:436,-0.378487,1.11527,-9.7527,-6.25199,-1.93522,91.0935
2023-03-11 20:18:42:446,-0.382341,1.09939,-9.72231,-6.24648,-1.93509,91.093
2023-03-11 20:18:42:456,-0.350212,1.08244,-9.6867,-6.24083,-1.93107,91.0919
2023-03-11 20:18:42:466,-0.348891,1.07868,-9.68587,-6.23656,-1.92854,91.0878
2023-03-11 20:18:42:477,-0.3446,1.0758,-9.69557,-6.23339,-1.92379,91.083
2023-03-11 20:18:42:487,-0.313699,1.06767,-9.73253,-6.23276,-1.91732,91.0759
2023-03-11 20:18:42:497,-0.252319,1.10457,-9.76468,-6.23261,-1.91273,91.066
2023-03-11 20:18:42:506,-0.205291,1.09189,-9.77834,-6.23055,-1.9139,91.0557
2023-03-11 20:18:42:516,-0.208902,1.06247,-9.74828,-6.22676,-1.92015,91.0497
2023-03-11 20:18:42:526,-0.249982,1.06353,-9.72254,-6.2282,-1.93048,91.0483
2023-03-11 20:18:42:537,-0.288757,1.08432,-9.70625,-6.23107,-1.94397,91.0456
2023-03-11 20:18:42:547,-0.320849,1.08512,-9.67354,-6.23406,-1.95927,91.0495
2023-03-11 20:18:42:556,-0.331138,1.09876,-9.67171,-6.23812,-1.97012,91.0541
2023-03-11 20:18:42:566,-0.334897,1.11676,-9.69741,-6.24789,-1.97983,91.0662
2023-03-11 20:18:42:576,-0.354762,1.12788,-9.70944,-6.25979,-1.98862,91.0772
2023-03-11 20:18:42:587,-0.395639,1.14276,-9.72133,-6.27137,-1.99688,91.0914
2023-03-11 20:18:42:597,-0.421989,1.1628,-9.70014,-6.28127,-2.00349,91.1107
2023-03-11 20:18:42:606,-0.454771,1.16217,-9.6856,-6.28728,-2.00834,91.1253
2023-03-11 20:18:42:616,-0.479965,1.14569,-9.68055,-6.29227,-2.00696,91.1366
2023-03-11 20:18:42:627,-0.47824,1.13023,-9.67821,-6.29778,-2.00581,91.1459
2023-03-11 20:18:42:636,-0.464897,1.12725,-9.67087,-6.30165,-2.00402,91.1487
2023-03-11 20:18:42:646,-0.464719,1.12976,-9.68818,-6.30387,-1.99945,91.1453
2023-03-11 20:18:42:657,-0.44921,1.13401,-9.71976,-6.31163,-1.993,91.1409
2023-03-11 20:18:42:666,-0.41802,1.15611,-9.73529,-6.31902,-1.98818,91.1272
2023-03-11 20:18:42:677,-0.394998,1.15597,-9.75517,-6.3263,-1.98097,91.1109
2023-03-11 20:18:42:687,-0.364863,1.15918,-9.75575,-6.33043,-1.96914,91.0938
2023-03-11 20:18:42:696,-0.323058,1.16355,-9.74355,-6.33648,-1.96156,91.075
2023-03-11 20:18:42:707,-0.30885,1.15434,-9.73277,-6.34047,-1.95326,91.0584
2023-03-11 20:18:42:717,-0.317333,1.1514,-9.72894,-6.34394,-1.94968,91.0417
2023-03-11 20:18:42:727,-0.324067,1.17061,-9.73245,-6.34725,-1.94181,91.0275
2023-03-11 20:18:42:737,-0.299886,1.17824,-9.76236,-6.34705,-1.9279,91.0129
2023-03-11 20:18:42:746,-0.235275,1.15733,-9.76431,-6.3451,-1.91712,91.0003
2023-03-11 20:18:42:756,-0.2362,1.13947,-9.74116,-6.3411,-1.90356,90.9882
2023-03-11 20:18:42:766,-0.271521,1.14751,-9.72614,-6.33856,-1.89647,90.9835
2023-03-11 20:18:42:776,-0.293275,1.15166,-9.72789,-6.3322,-1.89065,90.9793
2023-03-11 20:18:42:787,-0.304618,1.13793,-9.74028,-6.32838,-1.88277,90.9724
2023-03-11 20:18:42:797,-0.300342,1.13625,-9.73942,-6.32052,-1.87475,90.9668
2023-03-11 20:18:42:807,-0.269535,1.13441,-9.74022,-6.31608,-1.8672,90.9617
2023-03-11 20:18:42:817,-0.24767,1.11391,-9.74871,-6.30433,-1.85907,90.9567
2023-03-11 20:18:42:827,-0.255465,1.12223,-9.74047,-6.29855,-1.85522,90.9507
2023-03-11 20:18:42:837,-0.28048,1.11198,-9.7275,-6.29113,-1.85122,90.9451
2023-03-11 20:18:42:847,-0.287617,1.09442,-9.71702,-6.28235,-1.84927,90.9394
2023-03-11 20:18:42:857,-0.28469,1.10018,-9.70889,-6.27411,-1.84948,90.9352
2023-03-11 20:18:42:866,-0.279546,1.10187,-9.70766,-6.26309,-1.8521,90.9362
2023-03-11 20:18:42:876,-0.28103,1.10384,-9.72201,-6.25444,-1.85436,90.9344
2023-03-11 20:18:42:886,-0.288237,1.09315,-9.71523,-6.2444,-1.86119,90.9361
2023-03-11 20:18:42:896,-0.290578,1.07184,-9.71331,-6.23247,-1.86606,90.9376
2023-03-11 20:18:42:907,-0.294431,1.06984,-9.69159,-6.22311,-1.87131,90.9393
2023-03-11 20:18:42:917,-0.297525,1.05213,-9.70065,-6.21446,-1.87769,90.9409
2023-03-11 20:18:42:927,-0.316386,1.05104,-9.69663,-6.20454,-1.8871,90.9447
2023-03-11 20:18:42:937,-0.324172,1.04605,-9.69855,-6.20075,-1.8945,90.9516
2023-03-11 20:18:42:946,-0.327049,1.05095,-9.70236,-6.19658,-1.90018,90.9579
2023-03-11 20:18:42:956,-0.349092,1.05117,-9.69298,-6.19454,-1.90533,90.9655
2023-03-11 20:18:42:966,-0.368916,1.05766,-9.70328,-6.19216,-1.91257,90.9755
2023-03-11 20:18:42:977,-0.381307,1.07215,-9.70346,-6.19298,-1.91713,90.9874
2023-03-11 20:18:42:987,-0.389654,1.07895,-9.70617,-6.19812,-1.92109,90.9955
2023-03-11 20:18:42:997,-0.408325,1.07691,-9.70922,-6.19966,-1.92618,91.0056
2023-03-11 20:18:43:7,-0.412611,1.08238,-9.69662,-6.20127,-1.92497,91.0093
2023-03-11 20:18:43:16,-0.414957,1.08528,-9.68501,-6.20463,-1.92504,91.0152
2023-03-11 20:18:43:27,-0.429395,1.07786,-9.69894,-6.20774,-1.92271,91.0176
2023-03-11 20:18:43:37,-0.405259,1.09643,-9.71543,-6.21407,-1.91914,91.0151
2023-03-11 20:18:43:47,-0.388998,1.10992,-9.72403,-6.21926,-1.91888,91.0089
2023-03-11 20:18:43:56,-0.368394,1.10099,-9.72891,-6.22565,-1.9152,91.0023
2023-03-11 20:18:43:66,-0.345013,1.09694,-9.72499,-6.22914,-1.91063,90.9909
2023-03-11 20:18:43:77,-0.328895,1.09497,-9.72125,-6.22894,-1.90526,90.9809
2023-03-11 20:18:43:87,-0.318247,1.08992,-9.72207,-6.2325,-1.89945,90.9689
2023-03-11 20:18:43:96,-0.299242,1.10584,-9.73752,-6.23673,-1.89518,90.9583
2023-03-11 20:18:43:107,-0.282832,1.09907,-9.75462,-6.23793,-1.88822,90.9485
2023-03-11 20:18:43:116,-0.279228,1.09688,-9.74702,-6.23861,-1.88022,90.9383
2023-03-11 20:18:43:126,-0.278823,1.10859,-9.74732,-6.23664,-1.87518,90.9334
2023-03-11 20:18:43:136,-0.293076,1.1134,-9.74623,-6.2349,-1.8703,90.9272
2023-03-11 20:18:43:147,-0.295638,1.10244,-9.74241,-6.23483,-1.86748,90.9222
2023-03-11 20:18:43:157,-0.301636,1.11166,-9.7415,-6.23285,-1.864,90.9186
2023-03-11 20:18:43:167,-0.320971,1.118,-9.7509,-6.23013,-1.85792,90.9195
2023-03-11 20:18:43:176,-0.330212,1.10009,-9.74366,-6.2286,-1.85206,90.9198
2023-03-11 20:18:43:187,-0.319864,1.07983,-9.73133,-6.21989,-1.84863,90.9198
2023-03-11 20:18:43:196,-0.321918,1.07438,-9.70896,-6.21346,-1.84208,90.9162
2023-03-11 20:18:43:206,-0.321924,1.05591,-9.7036,-6.20413,-1.83849,90.9134
2023-03-11 20:18:43:216,-0.306056,1.04522,-9.67717,-6.19775,-1.83527,90.9079
2023-03-11 20:18:43:227,-0.289498,1.04457,-9.68944,-6.19346,-1.83128,90.9029
2023-03-11 20:18:43:236,-0.241525,1.06075,-9.73603,-6.19118,-1.82513,90.8987
2023-03-11 20:18:43:247,-0.189427,1.07477,-9.78111,-6.19055,-1.81715,90.8918
2023-03-11 20:18:43:257,-0.166777,1.06434,-9.78333,-6.18829,-1.81806,90.8887
2023-03-11 20:18:43:267,-0.189018,1.05075,-9.73547,-6.18444,-1.82444,90.8878
2023-03-11 20:18:43:277,-0.242542,1.05854,-9.69024,-6.18065,-1.84015,90.8889
2023-03-11 20:18:43:286,-0.282048,1.06201,-9.68952,-6.17954,-1.85347,90.8926
2023-03-11 20:18:43:296,-0.306739,1.07417,-9.69043,-6.1871,-1.87106,90.9027
2023-03-11 20:18:43:307,-0.330664,1.09962,-9.6848,-6.19342,-1.88054,90.9143
2023-03-11 20:18:43:317,-0.32579,1.11726,-9.6851,-6.20155,-1.88507,90.9296
2023-03-11 20:18:43:327,-0.3229,1.12952,-9.69703,-6.21473,-1.89305,90.9465
2023-03-11 20:18:43:337,-0.373135,1.14872,-9.69863,-6.22445,-1.89793,90.9633
2023-03-11 20:18:43:346,-0.413569,1.1634,-9.70567,-6.23166,-1.90311,90.9841
2023-03-11 20:18:43:357,-0.443116,1.1582,-9.6818,-6.23852,-1.90579,91.0021
2023-03-11 20:18:43:367,-0.4429,1.14391,-9.67475,-6.24182,-1.9106,91.0176
2023-03-11 20:18:43:377,-0.430828,1.13658,-9.66965,-6.24097,-1.90831,91.0286
2023-03-11 20:18:43:386,-0.422038,1.12611,-9.68535,-6.24548,-1.90715,91.0369
2023-03-11 20:18:43:396,-0.41833,1.13192,-9.70173,-6.2502,-1.90581,91.0399
2023-03-11 20:18:43:406,-0.411233,1.14307,-9.74374,-6.25476,-1.90512,91.0364
2023-03-11 20:18:43:416,-0.401642,1.15299,-9.76652,-6.25896,-1.90586,91.0308
2023-03-11 20:18:43:427,-0.366178,1.16236,-9.78067,-6.264,-1.90402,91.0233
2023-03-11 20:18:43:436,-0.330376,1.15763,-9.77225,-6.26985,-1.90225,91.0096
2023-03-11 20:18:43:447,-0.31341,1.14779,-9.77019,-6.27066,-1.89885,90.9929
2023-03-11 20:18:43:457,-0.303538,1.15376,-9.74532,-6.27388,-1.89616,90.9826
2023-03-11 20:18:43:466,-0.311648,1.162,-9.73635,-6.27378,-1.8924,90.9753
2023-03-11 20:18:43:477,-0.293968,1.17917,-9.76811,-6.2747,-1.88658,90.9688
2023-03-11 20:18:43:487,-0.231016,1.16481,-9.78257,-6.27088,-1.87243,90.9631
2023-03-11 20:18:43:497,-0.201063,1.13502,-9.74857,-6.26312,-1.86157,90.9559
2023-03-11 20:18:43:507,-0.221663,1.11428,-9.71319,-6.25065,-1.85554,90.9554
2023-03-11 20:18:43:517,-0.273145,1.11256,-9.70477,-6.24171,-1.85482,90.9557
2023-03-11 20:18:43:527,-0.313445,1.11536,-9.70356,-6.22983,-1.8541,90.956
2023-03-11 20:18:43:537,-0.320949,1.11008,-9.72244,-6.21908,-1.85246,90.9546
2023-03-11 20:18:43:547,-0.298636,1.10301,-9.74585,-6.20754,-1.85043,90.9551
2023-03-11 20:18:43:557,-0.293171,1.10204,-9.75726,-6.19386,-1.84929,90.957
2023-03-11 20:18:43:567,-0.273997,1.10233,-9.75259,-6.18152,-1.84988,90.9572
2023-03-11 20:18:43:577,-0.282367,1.1003,-9.73383,-6.16626,-1.85152,90.957
2023-03-11 20:18:43:586,-0.297284,1.06768,-9.72264,-6.14689,-1.85496,90.9585
2023-03-11 20:18:43:597,-0.30068,1.06274,-9.69644,-6.12927,-1.85858,90.9602
2023-03-11 20:18:43:606,-0.303478,1.06196,-9.68415,-6.11631,-1.8617,90.9578
2023-03-11 20:18:43:617,-0.300579,1.06148,-9.694,-6.10565,-1.86603,90.9614
2023-03-11 20:18:43:627,-0.294956,1.05913,-9.70809,-6.09355,-1.87412,90.9621
2023-03-11 20:18:43:636,-0.294558,1.04864,-9.70642,-6.08347,-1.88065,90.9627
2023-03-11 20:18:43:647,-0.300187,1.0388,-9.70485,-6.07112,-1.88806,90.963
2023-03-11 20:18:43:657,-0.291294,1.03085,-9.71602,-6.06478,-1.89713,90.9657
2023-03-11 20:18:43:667,-0.289843,1.0365,-9.73189,-6.06058,-1.90788,90.9708
2023-03-11 20:18:43:677,-0.293271,1.04322,-9.73343,-6.05773,-1.91475,90.9783
2023-03-11 20:18:43:687,-0.2989,1.03733,-9.71703,-6.05174,-1.92559,90.9854
2023-03-11 20:18:43:696,-0.312211,1.02712,-9.70929,-6.04413,-1.93554,90.9905
2023-03-11 20:18:43:707,-0.33929,1.03038,-9.70286,-6.03628,-1.94345,91.001
2023-03-11 20:18:43:717,-0.358734,1.03103,-9.6999,-6.03414,-1.95529,91.016
2023-03-11 20:18:43:727,-0.390672,1.03777,-9.7065,-6.03452,-1.96588,91.0308
2023-03-11 20:18:43:737,-0.410099,1.04644,-9.70471,-6.03411,-1.97485,91.0442
2023-03-11 20:18:43:747,-0.438715,1.0437,-9.70472,-6.0322,-1.98238,91.0597
2023-03-11 20:18:43:757,-0.445042,1.05429,-9.69221,-6.03422,-1.98718,91.0673
2023-03-11 20:18:43:767,-0.430513,1.04765,-9.70232,-6.03673,-1.99205,91.0751
2023-03-11 20:18:43:777,-0.424869,1.04767,-9.71025,-6.03652,-1.99538,91.0774
2023-03-11 20:18:43:786,-0.415077,1.06314,-9.71124,-6.03088,-1.99757,91.0787
2023-03-11 20:18:43:797,-0.413337,1.06053,-9.72804,-6.03242,-1.9988,91.0757
2023-03-11 20:18:43:807,-0.40181,1.05063,-9.73387,-6.03279,-1.99894,91.07
2023-03-11 20:18:43:816,-0.385546,1.05404,-9.73918,-6.03377,-1.99756,91.0628
2023-03-11 20:18:43:827,-0.352578,1.05316,-9.75153,-6.03395,-1.99196,91.0549
2023-03-11 20:18:43:836,-0.318723,1.0677,-9.72874,-6.03081,-1.98902,91.0483
2023-03-11 20:18:43:847,-0.300898,1.05058,-9.72503,-6.02978,-1.98849,91.0402
2023-03-11 20:18:43:857,-0.288277,1.04517,-9.73073,-6.02533,-1.98669,91.0315
2023-03-11 20:18:43:867,-0.299773,1.05251,-9.72415,-6.02317,-1.98539,91.0256
2023-03-11 20:18:43:877,-0.307708,1.05569,-9.71744,-6.02005,-1.98564,91.0218
2023-03-11 20:18:43:887,-0.297985,1.04244,-9.73046,-6.01962,-1.9866,91.0206
2023-03-11 20:18:43:896,-0.302388,1.04739,-9.72265,-6.01977,-1.98784,91.0212
2023-03-11 20:18:43:906,-0.313056,1.0437,-9.72178,-6.01797,-1.98686,91.0217
2023-03-11 20:18:43:917,-0.334242,1.03695,-9.72226,-6.01324,-1.98854,91.0238
2023-03-11 20:18:43:926,-0.365297,1.02508,-9.72204,-6.00876,-1.98611,91.0289
2023-03-11 20:18:43:936,-0.367606,1.01946,-9.70235,-6.00153,-1.9852,91.031
2023-03-11 20:18:43:946,-0.36807,1.01643,-9.67952,-5.99737,-1.98676,91.0324
2023-03-11 20:18:43:956,-0.375526,1.00887,-9.67194,-5.99381,-1.98432,91.0326
2023-03-11 20:18:43:966,-0.382473,1.00992,-9.66473,-5.99075,-1.98392,91.0331
2023-03-11 20:18:43:976,-0.360675,1.00775,-9.6874,-5.9914,-1.98088,91.0287
2023-03-11 20:18:43:986,-0.349306,1.00971,-9.71496,-5.99392,-1.978,91.0217
2023-03-11 20:18:43:996,-0.289191,1.03241,-9.78906,-5.99575,-1.97216,91.0138
2023-03-11 20:18:44:7,-0.231822,1.0589,-9.82955,-6.00108,-1.96791,91.0057
2023-03-11 20:18:44:16,-0.236436,1.03114,-9.78067,-6.00113,-1.97552,91.0016
2023-03-11 20:18:44:27,-0.26795,1.0047,-9.7243,-6.00003,-1.98593,91.0001
2023-03-11 20:18:44:36,-0.303273,1.00799,-9.69051,-6.00348,-1.99663,90.9993
2023-03-11 20:18:44:46,-0.32214,1.04134,-9.69023,-6.01159,-2.00799,91.0002
2023-03-11 20:18:44:56,-0.348452,1.07147,-9.70018,-6.02614,-2.01859,91.001
2023-03-11 20:18:44:67,-0.345947,1.0743,-9.70703,-6.04009,-2.0281,91.0037
2023-03-11 20:18:44:77,-0.327593,1.08942,-9.70267,-6.05413,-2.038,91.0127
2023-03-11 20:18:44:87,-0.350617,1.10738,-9.68987,-6.06755,-2.04522,91.0237
2023-03-11 20:18:44:97,-0.398277,1.12086,-9.68586,-6.08069,-2.05564,91.0373
2023-03-11 20:18:44:107,-0.434637,1.13125,-9.67823,-6.09124,-2.06212,91.0519
2023-03-11 20:18:44:116,-0.456284,1.12825,-9.67142,-6.09825,-2.06525,91.065
2023-03-11 20:18:44:127,-0.466455,1.10272,-9.6754,-6.10158,-2.0684,91.0759
2023-03-11 20:18:44:137,-0.46796,1.09119,-9.69375,-6.10651,-2.0704,91.0803
2023-03-11 20:18:44:147,-0.462438,1.10092,-9.71139,-6.11287,-2.07429,91.0826
2023-03-11 20:18:44:157,-0.47157,1.10667,-9.74492,-6.12055,-2.07308,91.08
2023-03-11 20:18:44:167,-0.464951,1.11515,-9.76694,-6.13108,-2.07024,91.0767
2023-03-11 20:18:44:177,-0.425615,1.13138,-9.78577,-6.14074,-2.07307,91.0697
2023-03-11 20:18:44:186,-0.374277,1.13635,-9.7994,-6.15101,-2.0719,91.0614
2023-03-11 20:18:44:197,-0.333348,1.12298,-9.77906,-6.15528,-2.06804,91.0456
2023-03-11 20:18:44:207,-0.331568,1.12357,-9.75434,-6.16041,-2.06582,91.0331
2023-03-11 20:18:44:217,-0.339299,1.11614,-9.7302,-6.162,-2.06277,91.0228
2023-03-11 20:18:44:227,-0.334936,1.11421,-9.75117,-6.15865,-2.05563,91.0137
2023-03-11 20:18:44:237,-0.276261,1.12404,-9.76912,-6.16115,-2.04426,91.0029
2023-03-11 20:18:44:247,-0.218749,1.11594,-9.74233,-6.15737,-2.03198,90.9916
2023-03-11 20:18:44:256,-0.233789,1.08876,-9.7099,-6.1535,-2.02326,90.9828
2023-03-11 20:18:44:267,-0.281518,1.08009,-9.68923,-6.14562,-2.01864,90.9822
2023-03-11 20:18:44:277,-0.312553,1.09168,-9.70114,-6.13754,-2.01607,90.9849
2023-03-11 20:18:44:286,-0.328196,1.09543,-9.69247,-6.13514,-2.01463,90.9876
2023-03-11 20:18:44:296,-0.332706,1.07775,-9.70808,-6.12954,-2.00953,90.995
2023-03-11 20:18:44:306,-0.320355,1.07401,-9.7159,-6.12439,-2.00834,91.0022
2023-03-11 20:18:44:316,-0.328349,1.09301,-9.72565,-6.12215,-2.00901,91.0125
2023-03-11 20:18:44:327,-0.337732,1.09561,-9.73051,-6.12309,-2.00792,91.0196
2023-03-11 20:18:44:337,-0.35557,1.08876,-9.73468,-6.1231,-2.01431,91.0242
2023-03-11 20:18:44:346,-0.355739,1.09328,-9.7205,-6.12066,-2.01877,91.0301
2023-03-11 20:18:44:356,-0.35002,1.0941,-9.70846,-6.12213,-2.02186,91.0368
2023-03-11 20:18:44:366,-0.34339,1.09567,-9.70141,-6.12203,-2.0264,91.0374
2023-03-11 20:18:44:376,-0.361267,1.08015,-9.70657,-6.11975,-2.02966,91.0379
2023-03-11 20:18:44:386,-0.360046,1.07881,-9.70447,-6.11699,-2.03553,91.0408
2023-03-11 20:18:44:396,-0.365747,1.06527,-9.70296,-6.11522,-2.03969,91.0402
2023-03-11 20:18:44:406,-0.389596,1.05891,-9.71535,-6.11381,-2.04641,91.0441
2023-03-11 20:18:44:416,-0.410165,1.06836,-9.72589,-6.1117,-2.05342,91.047
2023-03-11 20:18:44:426,-0.408193,1.07107,-9.72844,-6.10986,-2.05609,91.0503
2023-03-11 20:18:44:436,-0.419543,1.05387,-9.72271,-6.10911,-2.05765,91.0558
2023-03-11 20:18:44:446,-0.439804,1.05556,-9.73128,-6.10603,-2.05948,91.0603
2023-03-11 20:18:44:456,-0.436783,1.07875,-9.72762,-6.10409,-2.05653,91.0659
2023-03-11 20:18:44:466,-0.441171,1.08622,-9.72704,-6.10554,-2.05401,91.0707
2023-03-11 20:18:44:476,-0.442867,1.08249,-9.72124,-6.10516,-2.05078,91.0689
2023-03-11 20:18:44:486,-0.438969,1.09311,-9.70624,-6.10098,-2.04568,91.0684
2023-03-11 20:18:44:496,-0.420195,1.0792,-9.70279,-6.10217,-2.03931,91.0652
2023-03-11 20:18:44:507,-0.409863,1.06642,-9.68628,-6.10143,-2.03105,91.0579
2023-03-11 20:18:44:516,-0.390497,1.07391,-9.69301,-6.09967,-2.02055,91.0498
2023-03-11 20:18:44:527,-0.383048,1.06839,-9.7024,-6.09639,-2.00851,91.0388
2023-03-11 20:18:44:536,-0.377976,1.07897,-9.70348,-6.10255,-1.99751,91.0296
2023-03-11 20:18:44:547,-0.334982,1.07751,-9.70895,-6.10356,-1.98702,91.0188
2023-03-11 20:18:44:556,-0.324717,1.07142,-9.71909,-6.10249,-1.97025,91.0078
2023-03-11 20:18:44:566,-0.320322,1.07849,-9.72679,-6.10125,-1.95989,90.9956
2023-03-11 20:18:44:576,-0.31237,1.08647,-9.74347,-6.09813,-1.94697,90.9836
2023-03-11 20:18:44:586,-0.31183,1.0808,-9.74021,-6.09664,-1.93752,90.9739
2023-03-11 20:18:44:596,-0.311611,1.07827,-9.74596,-6.09704,-1.92849,90.9654
2023-03-11 20:18:44:606,-0.289019,1.08553,-9.75126,-6.09787,-1.91849,90.9586
2023-03-11 20:18:44:616,-0.294319,1.0832,-9.7421,-6.10013,-1.91054,90.9502
2023-03-11 20:18:44:627,-0.319579,1.08343,-9.74209,-6.10099,-1.89724,90.9434
2023-03-11 20:18:44:637,-0.340357,1.08023,-9.7494,-6.10106,-1.88745,90.9395
2023-03-11 20:18:44:647,-0.350475,1.08054,-9.74605,-6.09818,-1.87522,90.9384
2023-03-11 20:18:44:657,-0.338405,1.06691,-9.74655,-6.09545,-1.86389,90.9359
2023-03-11 20:18:44:667,-0.356328,1.06321,-9.72605,-6.09028,-1.84957,90.9338
