Timestamp,Acceleration_x,Acceleration_y,Acceleration_z,roll,pitch,yaw
2023-03-11 18:04:02:734,-0.244255,1.22905,-9.71724,-6.72719,-1.34658,87.7113
2023-03-11 18:04:02:742,-0.304318,1.25523,-9.76925,-6.74544,-1.35373,87.7359
2023-03-11 18:04:02:752,-0.351989,1.2828,-9.83065,-6.75866,-1.36262,87.755
2023-03-11 18:04:02:762,-0.389656,1.29982,-9.90817,-6.76764,-1.38179,87.7667
2023-03-11 18:04:02:772,-0.427205,1.30358,-9.96923,-6.76819,-1.40302,87.7733
2023-03-11 18:04:02:782,-0.464956,1.3091,-9.97934,-6.75782,-1.42868,87.7739
2023-03-11 18:04:02:792,-0.484467,1.27226,-9.97359,-6.72977,-1.45577,87.7681
2023-03-11 18:04:02:802,-0.462128,1.23468,-9.89865,-6.69219,-1.47746,87.7527
2023-03-11 18:04:02:812,-0.399172,1.18658,-9.77782,-6.64204,-1.48908,87.7321
2023-03-11 18:04:02:822,-0.335268,1.1137,-9.65813,-6.59099,-1.49164,87.7115
2023-03-11 18:04:02:832,-0.303372,1.05991,-9.56607,-6.53708,-1.48865,87.6923
2023-03-11 18:04:02:842,-0.281286,1.0149,-9.50879,-6.49042,-1.48006,87.6795
2023-03-11 18:04:02:852,-0.27079,1.01437,-9.53664,-6.45273,-1.46317,87.6675
2023-03-11 18:04:02:862,-0.298355,1.03783,-9.58054,-6.42406,-1.43972,87.6567
2023-03-11 18:04:02:872,-0.302366,1.0551,-9.60769,-6.39895,-1.40638,87.647
2023-03-11 18:04:02:882,-0.260117,1.04522,-9.59079,-6.37019,-1.36611,87.6322
2023-03-11 18:04:02:892,-0.186281,1.01365,-9.5634,-6.34255,-1.31401,87.6201
2023-03-11 18:04:02:902,-0.107778,0.981591,-9.53501,-6.32099,-1.2591,87.6071
2023-03-11 18:04:02:912,-0.0404351,0.981091,-9.49911,-6.3098,-1.20781,87.5943
2023-03-11 18:04:02:922,-0.00972922,0.981406,-9.50146,-6.31556,-1.16902,87.5851
2023-03-11 18:04:02:932,0.0013855,1.0032,-9.54616,-6.33762,-1.13599,87.5764
2023-03-11 18:04:02:942,-0.0129539,1.05056,-9.62984,-6.37239,-1.11157,87.5719
2023-03-11 18:04:02:952,-0.029664,1.11604,-9.71422,-6.41361,-1.09553,87.5676
2023-03-11 18:04:02:962,-0.0166302,1.18064,-9.79049,-6.45725,-1.09144,87.5615
2023-03-11 18:04:02:972,-0.0127414,1.22549,-9.84731,-6.49821,-1.09024,87.56
2023-03-11 18:04:02:982,0.000243836,1.25351,-9.88419,-6.53054,-1.0911,87.5621
2023-03-11 18:04:02:992,-0.0273681,1.25961,-9.88247,-6.54944,-1.09829,87.5726
2023-03-11 18:04:03:2,-0.0556161,1.23307,-9.81915,-6.55964,-1.10646,87.586
2023-03-11 18:04:03:12,-0.111002,1.1863,-9.7466,-6.56675,-1.11739,87.6031
2023-03-11 18:04:03:22,-0.148088,1.16534,-9.6781,-6.57686,-1.13198,87.6221
2023-03-11 18:04:03:32,-0.153883,1.17194,-9.68392,-6.58911,-1.14882,87.6381
2023-03-11 18:04:03:42,-0.178911,1.21062,-9.71851,-6.6066,-1.16236,87.6543
2023-03-11 18:04:03:52,-0.203028,1.22908,-9.74513,-6.61873,-1.17472,87.6704
2023-03-11 18:04:03:62,-0.212841,1.23035,-9.77765,-6.62534,-1.18892,87.6835
2023-03-11 18:04:03:72,-0.220264,1.23855,-9.79587,-6.62919,-1.20157,87.6941
2023-03-11 18:04:03:82,-0.222208,1.24022,-9.81794,-6.62599,-1.21379,87.7024
2023-03-11 18:04:03:92,-0.223419,1.23215,-9.8036,-6.61723,-1.22451,87.7076
2023-03-11 18:04:03:102,-0.217719,1.20465,-9.77334,-6.60616,-1.23781,87.7112
2023-03-11 18:04:03:112,-0.202146,1.17222,-9.73868,-6.5923,-1.24992,87.7129
2023-03-11 18:04:03:122,-0.192714,1.1495,-9.71204,-6.57937,-1.25928,87.7153
2023-03-11 18:04:03:132,-0.185594,1.12947,-9.70033,-6.56964,-1.26833,87.7161
2023-03-11 18:04:03:142,-0.190655,1.12746,-9.69037,-6.56782,-1.28203,87.7204
2023-03-11 18:04:03:152,-0.209529,1.15699,-9.70582,-6.56929,-1.29036,87.7268
2023-03-11 18:04:03:162,-0.21243,1.18392,-9.71748,-6.57359,-1.29923,87.7342
2023-03-11 18:04:03:172,-0.221995,1.16998,-9.69443,-6.5729,-1.30764,87.7433
2023-03-11 18:04:03:182,-0.228353,1.1586,-9.68294,-6.57236,-1.31429,87.7557
2023-03-11 18:04:03:192,-0.249368,1.15495,-9.65616,-6.57649,-1.32022,87.7663
2023-03-11 18:04:03:202,-0.258842,1.16826,-9.6657,-6.57975,-1.32126,87.7759
2023-03-11 18:04:03:212,-0.250919,1.1795,-9.70544,-6.58556,-1.32867,87.7857
2023-03-11 18:04:03:222,-0.227905,1.18048,-9.73564,-6.58859,-1.3304,87.7916
2023-03-11 18:04:03:232,-0.220508,1.17348,-9.71742,-6.58609,-1.33274,87.798
2023-03-11 18:04:03:242,-0.262803,1.16687,-9.68911,-6.58474,-1.33666,87.8062
2023-03-11 18:04:03:252,-0.308631,1.15761,-9.66164,-6.58383,-1.33973,87.8145
2023-03-11 18:04:03:262,-0.322992,1.15198,-9.67249,-6.58695,-1.34306,87.8184
2023-03-11 18:04:03:272,-0.292689,1.16551,-9.70827,-6.5945,-1.34196,87.8172
2023-03-11 18:04:03:282,-0.25911,1.19064,-9.74623,-6.59883,-1.33774,87.8149
2023-03-11 18:04:03:292,-0.220638,1.20488,-9.77398,-6.59752,-1.33715,87.8088
2023-03-11 18:04:03:302,-0.194677,1.20197,-9.75784,-6.59562,-1.3389,87.8038
2023-03-11 18:04:03:312,-0.203396,1.1867,-9.73113,-6.5901,-1.33616,87.7945
2023-03-11 18:04:03:322,-0.187886,1.16421,-9.69669,-6.58129,-1.3366,87.787
2023-03-11 18:04:03:332,-0.174742,1.1536,-9.67916,-6.57717,-1.34313,87.7785
2023-03-11 18:04:03:342,-0.185136,1.15229,-9.68262,-6.57753,-1.34957,87.7696
2023-03-11 18:04:03:352,-0.203192,1.15537,-9.70809,-6.57988,-1.36037,87.7635
2023-03-11 18:04:03:362,-0.217243,1.16852,-9.7481,-6.58216,-1.36952,87.7586
2023-03-11 18:04:03:372,-0.220919,1.1783,-9.75906,-6.58096,-1.37495,87.752
2023-03-11 18:04:03:382,-0.222168,1.18076,-9.74098,-6.57726,-1.3794,87.7465
2023-03-11 18:04:03:392,-0.204077,1.17803,-9.7323,-6.5717,-1.3807,87.7375
2023-03-11 18:04:03:402,-0.18485,1.16087,-9.7135,-6.56502,-1.37798,87.7302
2023-03-11 18:04:03:412,-0.168645,1.13413,-9.72036,-6.55242,-1.36971,87.7216
2023-03-11 18:04:03:422,-0.128244,1.12522,-9.72317,-6.54552,-1.36048,87.7136
2023-03-11 18:04:03:432,-0.080294,1.12188,-9.70215,-6.53805,-1.34925,87.7107
2023-03-11 18:04:03:442,-0.0358602,1.1125,-9.68309,-6.54,-1.34844,87.7096
2023-03-11 18:04:03:452,0.00198061,1.09539,-9.67001,-6.54505,-1.34913,87.7154
2023-03-11 18:04:03:462,0.00318477,1.09991,-9.66647,-6.55272,-1.35885,87.7294
2023-03-11 18:04:03:472,-0.0413124,1.13721,-9.67041,-6.57308,-1.37684,87.7507
2023-03-11 18:04:03:482,-0.120015,1.17592,-9.69916,-6.5941,-1.40664,87.7787
2023-03-11 18:04:03:492,-0.230726,1.21314,-9.77253,-6.61456,-1.43926,87.8081
2023-03-11 18:04:03:502,-0.354344,1.26081,-9.84152,-6.63025,-1.47422,87.8411
2023-03-11 18:04:03:512,-0.434671,1.27061,-9.87546,-6.63377,-1.51517,87.8659
2023-03-11 18:04:03:522,-0.470492,1.27501,-9.86489,-6.62553,-1.54945,87.8824
2023-03-11 18:04:03:532,-0.437319,1.24041,-9.80087,-6.60778,-1.57744,87.8888
2023-03-11 18:04:03:542,-0.383706,1.18906,-9.70629,-6.58004,-1.60251,87.8864
2023-03-11 18:04:03:552,-0.342775,1.12965,-9.60409,-6.55458,-1.61917,87.8825
2023-03-11 18:04:03:562,-0.28215,1.07807,-9.52907,-6.53784,-1.63465,87.8719
2023-03-11 18:04:03:572,-0.239269,1.05835,-9.49087,-6.53341,-1.64619,87.8625
2023-03-11 18:04:03:582,-0.211856,1.066,-9.52999,-6.54409,-1.65269,87.857
2023-03-11 18:04:03:592,-0.189723,1.10841,-9.61289,-6.56869,-1.65755,87.8548
2023-03-11 18:04:03:602,-0.174636,1.15433,-9.69881,-6.59429,-1.6603,87.8609
2023-03-11 18:04:03:612,-0.164887,1.17957,-9.76298,-6.61549,-1.66358,87.8704
2023-03-11 18:04:03:622,-0.178721,1.20634,-9.78367,-6.63591,-1.67125,87.8804
2023-03-11 18:04:03:632,-0.208031,1.2246,-9.79498,-6.65551,-1.68159,87.898
2023-03-11 18:04:03:642,-0.238223,1.20625,-9.77128,-6.6681,-1.69316,87.9186
2023-03-11 18:04:03:652,-0.269369,1.17632,-9.71157,-6.67975,-1.70572,87.9401
2023-03-11 18:04:03:662,-0.279719,1.16813,-9.67109,-6.68883,-1.71895,87.9622
2023-03-11 18:04:03:672,-0.2959,1.17109,-9.67093,-6.70599,-1.73106,87.9864
2023-03-11 18:04:03:682,-0.313284,1.19074,-9.6896,-6.72488,-1.74678,88.0098
2023-03-11 18:04:03:692,-0.344052,1.20107,-9.72008,-6.74844,-1.75985,88.031
2023-03-11 18:04:03:702,-0.357071,1.21607,-9.77074,-6.76977,-1.77785,88.0492
2023-03-11 18:04:03:712,-0.331171,1.23509,-9.80982,-6.78601,-1.80428,88.0621
2023-03-11 18:04:03:722,-0.330906,1.22351,-9.8156,-6.80088,-1.83198,88.0716
2023-03-11 18:04:03:732,-0.340802,1.20915,-9.79571,-6.80847,-1.86471,88.0838
2023-03-11 18:04:03:742,-0.347765,1.18515,-9.75673,-6.80964,-1.8964,88.0962
2023-03-11 18:04:03:752,-0.362544,1.16937,-9.72403,-6.80905,-1.92684,88.1059
2023-03-11 18:04:03:762,-0.359152,1.16221,-9.70569,-6.8083,-1.9581,88.1195
2023-03-11 18:04:03:772,-0.368666,1.14718,-9.68953,-6.80664,-1.9856,88.134
2023-03-11 18:04:03:782,-0.395838,1.13946,-9.66145,-6.80543,-2.0157,88.1544
2023-03-11 18:04:03:792,-0.415639,1.14838,-9.66656,-6.80625,-2.04107,88.1754
2023-03-11 18:04:03:802,-0.452594,1.14468,-9.68653,-6.80774,-2.06586,88.1968
2023-03-11 18:04:03:812,-0.464331,1.14227,-9.67617,-6.8065,-2.08832,88.2188
2023-03-11 18:04:03:822,-0.449571,1.13393,-9.66638,-6.80487,-2.10974,88.2396
2023-03-11 18:04:03:832,-0.459629,1.12691,-9.66226,-6.80287,-2.12473,88.2599
2023-03-11 18:04:03:842,-0.449146,1.12256,-9.70683,-6.80523,-2.13665,88.2795
2023-03-11 18:04:03:852,-0.42872,1.16007,-9.74017,-6.81216,-2.15102,88.2924
2023-03-11 18:04:03:862,-0.417238,1.18335,-9.7676,-6.81624,-2.16482,88.3061
2023-03-11 18:04:03:872,-0.427683,1.16957,-9.76669,-6.82025,-2.17391,88.3205
2023-03-11 18:04:03:882,-0.440297,1.16136,-9.72797,-6.82134,-2.18444,88.3319
2023-03-11 18:04:03:892,-0.450491,1.17745,-9.68931,-6.82882,-2.19615,88.3394
2023-03-11 18:04:03:902,-0.443892,1.20505,-9.68741,-6.83943,-2.20635,88.3429
2023-03-11 18:04:03:912,-0.441323,1.24183,-9.70945,-6.84848,-2.21379,88.3458
2023-03-11 18:04:03:922,-0.424581,1.25187,-9.69913,-6.85951,-2.2168,88.3496
2023-03-11 18:04:03:932,-0.408952,1.24006,-9.66117,-6.86813,-2.22184,88.3533
2023-03-11 18:04:03:942,-0.391448,1.23844,-9.63399,-6.87867,-2.22531,88.3588
2023-03-11 18:04:03:952,-0.362707,1.23984,-9.63999,-6.89257,-2.22831,88.3612
2023-03-11 18:04:03:962,-0.371579,1.24901,-9.65698,-6.90525,-2.22922,88.3646
2023-03-11 18:04:03:972,-0.364283,1.25269,-9.67947,-6.91533,-2.23094,88.3683
2023-03-11 18:04:03:982,-0.363767,1.27579,-9.70889,-6.92751,-2.23311,88.3725
2023-03-11 18:04:03:992,-0.371584,1.3068,-9.77308,-6.94026,-2.23103,88.3772
2023-03-11 18:04:04:2,-0.375817,1.32543,-9.84096,-6.94681,-2.23182,88.388
2023-03-11 18:04:04:12,-0.384765,1.34226,-9.85151,-6.94589,-2.23194,88.396
2023-03-11 18:04:04:22,-0.42697,1.33694,-9.84204,-6.93973,-2.23203,88.4052
2023-03-11 18:04:04:32,-0.457738,1.31858,-9.80948,-6.92602,-2.23542,88.4098
2023-03-11 18:04:04:42,-0.479445,1.29092,-9.78818,-6.91007,-2.23908,88.4094
2023-03-11 18:04:04:52,-0.48654,1.29004,-9.736,-6.89346,-2.23929,88.407
2023-03-11 18:04:04:62,-0.461441,1.26361,-9.68135,-6.87267,-2.23837,88.4015
2023-03-11 18:04:04:72,-0.460267,1.24439,-9.65838,-6.8507,-2.23625,88.3939
2023-03-11 18:04:04:82,-0.473114,1.22311,-9.64061,-6.83332,-2.23509,88.3862
2023-03-11 18:04:04:92,-0.496307,1.21856,-9.63775,-6.81925,-2.23219,88.3752
2023-03-11 18:04:04:102,-0.470795,1.2481,-9.68613,-6.80711,-2.22623,88.3592
2023-03-11 18:04:04:112,-0.400564,1.2566,-9.73202,-6.79127,-2.21668,88.3415
2023-03-11 18:04:04:122,-0.38077,1.24152,-9.74328,-6.77097,-2.20878,88.3244
2023-03-11 18:04:04:132,-0.361318,1.21829,-9.72072,-6.74671,-2.19462,88.3083
2023-03-11 18:04:04:142,-0.356083,1.1996,-9.70266,-6.72249,-2.17799,88.2922
2023-03-11 18:04:04:152,-0.340707,1.19777,-9.68058,-6.69671,-2.156,88.2765
2023-03-11 18:04:04:162,-0.332524,1.17307,-9.682,-6.67441,-2.13205,88.2616
2023-03-11 18:04:04:172,-0.300112,1.15841,-9.6726,-6.65352,-2.10884,88.2541
2023-03-11 18:04:04:182,-0.286995,1.16456,-9.66645,-6.6352,-2.07912,88.2391
2023-03-11 18:04:04:192,-0.276461,1.17141,-9.68282,-6.62009,-2.05401,88.23
2023-03-11 18:04:04:202,-0.274199,1.16698,-9.69556,-6.60824,-2.03027,88.2218
2023-03-11 18:04:04:212,-0.281589,1.17811,-9.6966,-6.59946,-2.01161,88.2135
2023-03-11 18:04:04:222,-0.296544,1.1923,-9.706,-6.59219,-1.99996,88.2088
2023-03-11 18:04:04:232,-0.315919,1.20206,-9.71795,-6.58404,-1.9955,88.2004
2023-03-11 18:04:04:242,-0.328833,1.20958,-9.74008,-6.57451,-1.99425,88.1897
2023-03-11 18:04:04:252,-0.334829,1.20953,-9.75706,-6.56407,-1.99812,88.1747
2023-03-11 18:04:04:262,-0.335905,1.19199,-9.75421,-6.55038,-2.0047,88.1578
2023-03-11 18:04:04:272,-0.330995,1.17709,-9.73356,-6.52692,-2.01252,88.1385
2023-03-11 18:04:04:282,-0.31823,1.14861,-9.7058,-6.50562,-2.01822,88.1165
2023-03-11 18:04:04:292,-0.306517,1.13366,-9.68922,-6.47878,-2.02198,88.0936
2023-03-11 18:04:04:302,-0.27195,1.10664,-9.68181,-6.45652,-2.02522,88.0741
2023-03-11 18:04:04:312,-0.274003,1.0857,-9.67251,-6.43583,-2.02563,88.0577
2023-03-11 18:04:04:322,-0.253759,1.08271,-9.67766,-6.42255,-2.02762,88.0434
2023-03-11 18:04:04:332,-0.254787,1.09078,-9.70179,-6.41069,-2.0278,88.0326
2023-03-11 18:04:04:342,-0.2477,1.10288,-9.7236,-6.40019,-2.02555,88.0286
2023-03-11 18:04:04:352,-0.277182,1.11096,-9.74516,-6.39157,-2.02448,88.0273
2023-03-11 18:04:04:362,-0.29168,1.10947,-9.75969,-6.37763,-2.02097,88.0261
2023-03-11 18:04:04:372,-0.2831,1.10582,-9.75586,-6.36192,-2.01618,88.0257
2023-03-11 18:04:04:382,-0.295553,1.11344,-9.71374,-6.34677,-2.01093,88.0278
2023-03-11 18:04:04:392,-0.271098,1.08386,-9.68406,-6.33305,-1.99765,88.0301
2023-03-11 18:04:04:402,-0.216171,1.06155,-9.64784,-6.32386,-1.98909,88.0309
2023-03-11 18:04:04:412,-0.177233,1.03915,-9.63295,-6.31487,-1.98219,88.0355
2023-03-11 18:04:04:422,-0.16033,1.03313,-9.64649,-6.31481,-1.98101,88.0457
2023-03-11 18:04:04:432,-0.180821,1.05789,-9.66807,-6.32165,-1.98429,88.0628
2023-03-11 18:04:04:442,-0.185758,1.08027,-9.68615,-6.33083,-1.99325,88.0813
2023-03-11 18:04:04:452,-0.216371,1.09858,-9.72081,-6.3447,-2.00846,88.1014
2023-03-11 18:04:04:462,-0.244509,1.11334,-9.73975,-6.36054,-2.02496,88.1273
2023-03-11 18:04:04:472,-0.283171,1.13617,-9.73978,-6.37146,-2.04438,88.1537
2023-03-11 18:04:04:482,-0.3354,1.14111,-9.76207,-6.38176,-2.06335,88.1822
2023-03-11 18:04:04:492,-0.377733,1.15542,-9.77517,-6.38794,-2.08322,88.2118
2023-03-11 18:04:04:502,-0.39487,1.16854,-9.7977,-6.39271,-2.10531,88.2385
2023-03-11 18:04:04:512,-0.421573,1.16155,-9.79236,-6.39054,-2.12584,88.2614
2023-03-11 18:04:04:522,-0.44706,1.14912,-9.80203,-6.38608,-2.14062,88.2793
2023-03-11 18:04:04:532,-0.461109,1.15866,-9.7909,-6.37594,-2.15882,88.2924
2023-03-11 18:04:04:542,-0.45447,1.12758,-9.77814,-6.35975,-2.17043,88.3017
2023-03-11 18:04:04:552,-0.438424,1.1052,-9.76961,-6.34245,-2.18402,88.3104
2023-03-11 18:04:04:562,-0.426182,1.10136,-9.77045,-6.32193,-2.19765,88.3116
2023-03-11 18:04:04:572,-0.403928,1.09601,-9.76829,-6.2984,-2.20983,88.3132
2023-03-11 18:04:04:582,-0.398137,1.07845,-9.72736,-6.27225,-2.22309,88.3142
2023-03-11 18:04:04:592,-0.438333,1.04435,-9.67775,-6.24847,-2.23706,88.3152
2023-03-11 18:04:04:602,-0.457352,1.04714,-9.63691,-6.22465,-2.24957,88.3157
2023-03-11 18:04:04:612,-0.42842,1.02745,-9.63468,-6.20218,-2.25839,88.3124
2023-03-11 18:04:04:622,-0.412991,1.02325,-9.61884,-6.18983,-2.26861,88.3075
2023-03-11 18:04:04:632,-0.419547,1.03804,-9.6341,-6.1861,-2.27424,88.2997
2023-03-11 18:04:04:642,-0.426243,1.05093,-9.64683,-6.18366,-2.28134,88.2899
2023-03-11 18:04:04:652,-0.414665,1.06375,-9.65846,-6.18636,-2.28741,88.2799
2023-03-11 18:04:04:662,-0.403237,1.06109,-9.68186,-6.1947,-2.29238,88.2699
2023-03-11 18:04:04:672,-0.394904,1.08494,-9.67679,-6.20059,-2.29721,88.2607
2023-03-11 18:04:04:682,-0.382223,1.08121,-9.67293,-6.20961,-2.30012,88.2525
2023-03-11 18:04:04:692,-0.375878,1.07482,-9.67945,-6.21901,-2.30302,88.2451
2023-03-11 18:04:04:702,-0.348901,1.07704,-9.70539,-6.22987,-2.30421,88.2376
2023-03-11 18:04:04:712,-0.330736,1.08065,-9.72621,-6.23981,-2.30506,88.2296
2023-03-11 18:04:04:722,-0.303459,1.08455,-9.75354,-6.24946,-2.30759,88.2246
2023-03-11 18:04:04:732,-0.295334,1.09357,-9.77931,-6.25908,-2.31379,88.2234
2023-03-11 18:04:04:742,-0.294462,1.09066,-9.772,-6.26957,-2.32357,88.2257
2023-03-11 18:04:04:752,-0.302079,1.09037,-9.74677,-6.27845,-2.33397,88.229
2023-03-11 18:04:04:762,-0.338667,1.09771,-9.72906,-6.28901,-2.34703,88.2359
2023-03-11 18:04:04:772,-0.374022,1.1058,-9.70714,-6.30156,-2.35861,88.2459
2023-03-11 18:04:04:782,-0.380404,1.11682,-9.70185,-6.31136,-2.37078,88.2593
2023-03-11 18:04:04:792,-0.374826,1.12541,-9.70106,-6.32182,-2.3822,88.2712
2023-03-11 18:04:04:802,-0.359084,1.13508,-9.6848,-6.33287,-2.39037,88.2803
2023-03-11 18:04:04:812,-0.354001,1.13326,-9.65124,-6.34131,-2.40372,88.2918
2023-03-11 18:04:04:822,-0.369548,1.11451,-9.64864,-6.35313,-2.42042,88.308
2023-03-11 18:04:04:832,-0.411344,1.12985,-9.64293,-6.36718,-2.43768,88.3236
2023-03-11 18:04:04:842,-0.444483,1.14676,-9.66214,-6.38368,-2.45654,88.338
2023-03-11 18:04:04:852,-0.447839,1.15447,-9.69679,-6.3993,-2.47509,88.3541
2023-03-11 18:04:04:862,-0.455164,1.1622,-9.71232,-6.41797,-2.49365,88.3692
2023-03-11 18:04:04:872,-0.457767,1.1837,-9.72003,-6.43527,-2.51034,88.3804
2023-03-11 18:04:04:882,-0.45847,1.18582,-9.72669,-6.45459,-2.52803,88.3904
2023-03-11 18:04:04:892,-0.462587,1.17902,-9.73481,-6.47088,-2.54639,88.4005
2023-03-11 18:04:04:902,-0.4775,1.18913,-9.77414,-6.48522,-2.55911,88.4125
2023-03-11 18:04:04:912,-0.485903,1.21805,-9.77728,-6.50291,-2.57669,88.4216
2023-03-11 18:04:04:922,-0.484678,1.22162,-9.74988,-6.51363,-2.58918,88.4282
2023-03-11 18:04:04:932,-0.487864,1.20425,-9.70553,-6.52449,-2.60206,88.435
2023-03-11 18:04:04:942,-0.495942,1.19954,-9.69171,-6.53298,-2.6157,88.4411
2023-03-11 18:04:04:952,-0.502209,1.20818,-9.69453,-6.53987,-2.62366,88.4472
2023-03-11 18:04:04:962,-0.508442,1.21602,-9.72688,-6.55031,-2.62726,88.4518
2023-03-11 18:04:04:972,-0.458073,1.22808,-9.74581,-6.56121,-2.63275,88.4523
2023-03-11 18:04:04:982,-0.413821,1.22262,-9.75906,-6.56776,-2.64085,88.4528
2023-03-11 18:04:04:992,-0.401174,1.219,-9.80357,-6.57,-2.64803,88.4553
2023-03-11 18:04:05:2,-0.421233,1.25379,-9.8334,-6.56984,-2.65845,88.4591
2023-03-11 18:04:05:12,-0.45118,1.29021,-9.86087,-6.56282,-2.66542,88.4638
2023-03-11 18:04:05:22,-0.478232,1.3001,-9.83482,-6.54568,-2.672,88.4688
2023-03-11 18:04:05:32,-0.518041,1.26018,-9.76961,-6.51537,-2.67321,88.4772
2023-03-11 18:04:05:42,-0.539851,1.2208,-9.72869,-6.4887,-2.67042,88.4818
2023-03-11 18:04:05:52,-0.532406,1.20844,-9.71101,-6.46207,-2.66842,88.4842
2023-03-11 18:04:05:62,-0.527989,1.19424,-9.69142,-6.42697,-2.6673,88.4905
2023-03-11 18:04:05:72,-0.538936,1.1764,-9.68538,-6.40045,-2.66683,88.4891
2023-03-11 18:04:05:82,-0.517438,1.14675,-9.68489,-6.37295,-2.66595,88.4845
2023-03-11 18:04:05:92,-0.489956,1.13448,-9.67748,-6.34728,-2.66661,88.477
2023-03-11 18:04:05:102,-0.481712,1.12654,-9.67818,-6.32678,-2.66886,88.4658
2023-03-11 18:04:05:112,-0.454668,1.12028,-9.68038,-6.30683,-2.67026,88.4494
2023-03-11 18:04:05:122,-0.425546,1.10158,-9.68472,-6.28663,-2.67499,88.4329
2023-03-11 18:04:05:132,-0.401657,1.08756,-9.67403,-6.26618,-2.68044,88.4158
2023-03-11 18:04:05:142,-0.389959,1.07083,-9.67261,-6.25282,-2.68779,88.4
2023-03-11 18:04:05:152,-0.402038,1.0646,-9.6684,-6.23997,-2.69443,88.3882
2023-03-11 18:04:05:162,-0.398161,1.05871,-9.68318,-6.23078,-2.70606,88.3795
2023-03-11 18:04:05:172,-0.384881,1.06091,-9.69022,-6.22213,-2.71152,88.3755
2023-03-11 18:04:05:182,-0.383065,1.06822,-9.68833,-6.21661,-2.72294,88.3766
2023-03-11 18:04:05:192,-0.398544,1.063,-9.67654,-6.21046,-2.73339,88.3762
2023-03-11 18:04:05:202,-0.40554,1.0534,-9.67345,-6.20531,-2.74566,88.3829
2023-03-11 18:04:05:212,-0.418466,1.05657,-9.67917,-6.20463,-2.75536,88.3926
2023-03-11 18:04:05:222,-0.433976,1.04325,-9.6989,-6.20468,-2.77001,88.4036
2023-03-11 18:04:05:232,-0.447068,1.05673,-9.70695,-6.20613,-2.78269,88.414
2023-03-11 18:04:05:242,-0.458769,1.06774,-9.7033,-6.20686,-2.79518,88.4256
2023-03-11 18:04:05:252,-0.490494,1.07446,-9.70284,-6.21142,-2.81188,88.4349
2023-03-11 18:04:05:262,-0.507311,1.06889,-9.69769,-6.2143,-2.82532,88.447
2023-03-11 18:04:05:272,-0.506836,1.06387,-9.69256,-6.22141,-2.84068,88.4563
2023-03-11 18:04:05:282,-0.506959,1.04867,-9.68883,-6.22692,-2.85742,88.464
2023-03-11 18:04:05:292,-0.499903,1.07706,-9.678,-6.23577,-2.87386,88.4736
2023-03-11 18:04:05:302,-0.481784,1.09039,-9.68654,-6.24958,-2.88714,88.4833
2023-03-11 18:04:05:312,-0.474175,1.08762,-9.70397,-6.26266,-2.90127,88.494
2023-03-11 18:04:05:322,-0.493584,1.09644,-9.74309,-6.27643,-2.92014,88.502
2023-03-11 18:04:05:332,-0.505004,1.1095,-9.74313,-6.2875,-2.94305,88.5117
2023-03-11 18:04:05:342,-0.521317,1.09878,-9.72902,-6.29725,-2.96147,88.5246
2023-03-11 18:04:05:352,-0.544884,1.12039,-9.71119,-6.3076,-2.97838,88.5342
2023-03-11 18:04:05:362,-0.557808,1.1481,-9.6944,-6.31798,-2.99548,88.5438
2023-03-11 18:04:05:372,-0.582036,1.13751,-9.65156,-6.32882,-3.00794,88.5566
2023-03-11 18:04:05:382,-0.595278,1.11303,-9.60302,-6.34179,-3.02241,88.565
2023-03-11 18:04:05:392,-0.594355,1.09398,-9.55895,-6.35891,-3.03283,88.5724
2023-03-11 18:04:05:402,-0.596215,1.10105,-9.57642,-6.3771,-3.04273,88.5812
2023-03-11 18:04:05:412,-0.59012,1.14853,-9.63677,-6.40753,-3.04425,88.5883
2023-03-11 18:04:05:422,-0.575236,1.19287,-9.7196,-6.43933,-3.04484,88.5931
2023-03-11 18:04:05:432,-0.562706,1.22543,-9.78124,-6.46678,-3.04781,88.6006
2023-03-11 18:04:05:442,-0.540765,1.24742,-9.84091,-6.48715,-3.04158,88.6055
2023-03-11 18:04:05:452,-0.528252,1.25198,-9.87474,-6.49935,-3.03616,88.6119
2023-03-11 18:04:05:462,-0.520356,1.23538,-9.87636,-6.49927,-3.02706,88.6201
2023-03-11 18:04:05:472,-0.511502,1.23394,-9.84358,-6.49286,-3.01379,88.6282
2023-03-11 18:04:05:482,-0.522172,1.20503,-9.79885,-6.4792,-3.00228,88.6394
2023-03-11 18:04:05:492,-0.530846,1.17272,-9.73684,-6.46534,-2.99242,88.6527
2023-03-11 18:04:05:502,-0.526969,1.16097,-9.68983,-6.45255,-2.98125,88.6608
2023-03-11 18:04:05:512,-0.547136,1.1489,-9.65353,-6.43974,-2.97419,88.6667
2023-03-11 18:04:05:522,-0.546329,1.14358,-9.65724,-6.42871,-2.97055,88.6648
2023-03-11 18:04:05:532,-0.541878,1.12678,-9.67896,-6.42022,-2.96994,88.6601
2023-03-11 18:04:05:542,-0.540897,1.12308,-9.69089,-6.41541,-2.96919,88.6501
2023-03-11 18:04:05:552,-0.522452,1.13238,-9.71248,-6.41004,-2.9715,88.6409
2023-03-11 18:04:05:562,-0.465395,1.15412,-9.76609,-6.40802,-2.97408,88.6273
2023-03-11 18:04:05:572,-0.403251,1.14217,-9.80126,-6.40132,-2.98214,88.6074
2023-03-11 18:04:05:582,-0.359968,1.11511,-9.77869,-6.39219,-2.9967,88.5935
2023-03-11 18:04:05:592,-0.353592,1.09386,-9.72801,-6.38381,-3.01121,88.5825
2023-03-11 18:04:05:602,-0.378512,1.08791,-9.68682,-6.37718,-3.02668,88.5834
2023-03-11 18:04:05:612,-0.407955,1.07726,-9.65343,-6.37314,-3.04185,88.5897
2023-03-11 18:04:05:622,-0.427948,1.06414,-9.63798,-6.37178,-3.05643,88.6027
2023-03-11 18:04:05:632,-0.445613,1.08538,-9.61648,-6.37403,-3.06762,88.6234
2023-03-11 18:04:05:642,-0.466315,1.0901,-9.62724,-6.37762,-3.07809,88.649
2023-03-11 18:04:05:652,-0.511368,1.1207,-9.65816,-6.38582,-3.08744,88.6717
2023-03-11 18:04:05:662,-0.56012,1.14952,-9.70139,-6.39471,-3.09897,88.6996
2023-03-11 18:04:05:672,-0.602875,1.18244,-9.71376,-6.407,-3.11122,88.7294
2023-03-11 18:04:05:682,-0.619839,1.18092,-9.70327,-6.41105,-3.11656,88.7543
2023-03-11 18:04:05:692,-0.638874,1.16473,-9.68068,-6.41869,-3.12169,88.7739
2023-03-11 18:04:05:702,-0.635312,1.16226,-9.66877,-6.42378,-3.13028,88.7862
2023-03-11 18:04:05:712,-0.62371,1.16367,-9.66362,-6.43407,-3.13654,88.7941
2023-03-11 18:04:05:722,-0.618506,1.15565,-9.6741,-6.44601,-3.14012,88.7984
2023-03-11 18:04:05:732,-0.612669,1.14931,-9.68428,-6.46504,-3.14251,88.7996
2023-03-11 18:04:05:742,-0.598857,1.15413,-9.7053,-6.47722,-3.14587,88.7927
2023-03-11 18:04:05:752,-0.570464,1.17738,-9.71821,-6.49352,-3.14675,88.7822
2023-03-11 18:04:05:762,-0.534685,1.18351,-9.714,-6.51111,-3.14988,88.7734
2023-03-11 18:04:05:772,-0.5358,1.19134,-9.73853,-6.52686,-3.15068,88.7616
2023-03-11 18:04:05:782,-0.555114,1.20679,-9.79254,-6.53842,-3.15464,88.7489
2023-03-11 18:04:05:792,-0.57858,1.25937,-9.83362,-6.55161,-3.15718,88.7349
2023-03-11 18:04:05:802,-0.559593,1.30084,-9.87347,-6.54964,-3.15819,88.7155
2023-03-11 18:04:05:812,-0.531781,1.28867,-9.85308,-6.53682,-3.16535,88.6928
2023-03-11 18:04:05:822,-0.515387,1.23777,-9.79943,-6.51556,-3.17511,88.6652
2023-03-11 18:04:05:832,-0.507971,1.17578,-9.7303,-6.49154,-3.18941,88.6357
2023-03-11 18:04:05:842,-0.511834,1.14919,-9.66537,-6.46681,-3.2013,88.6125
2023-03-11 18:04:05:852,-0.520532,1.11734,-9.61643,-6.44737,-3.21173,88.5861
2023-03-11 18:04:05:862,-0.51201,1.0866,-9.61011,-6.43548,-3.22125,88.5639
2023-03-11 18:04:05:872,-0.480758,1.09666,-9.63905,-6.42807,-3.22785,88.5426
2023-03-11 18:04:05:882,-0.440945,1.10683,-9.67366,-6.42597,-3.2339,88.5229
2023-03-11 18:04:05:892,-0.448183,1.1106,-9.69356,-6.42075,-3.2387,88.5109
2023-03-11 18:04:05:902,-0.449527,1.10498,-9.70553,-6.42036,-3.24086,88.5015
2023-03-11 18:04:05:912,-0.451554,1.12544,-9.71268,-6.41683,-3.24627,88.4972
2023-03-11 18:04:05:922,-0.462547,1.13006,-9.70537,-6.41335,-3.2478,88.498
2023-03-11 18:04:05:932,-0.477157,1.11194,-9.70553,-6.40807,-3.24654,88.502
2023-03-11 18:04:05:943,-0.497536,1.10925,-9.66838,-6.40044,-3.24839,88.5081
2023-03-11 18:04:05:953,-0.491725,1.10718,-9.6565,-6.40053,-3.25091,88.5156
2023-03-11 18:04:05:962,-0.500289,1.0943,-9.66194,-6.3979,-3.25349,88.5237
2023-03-11 18:04:05:972,-0.506517,1.10241,-9.6921,-6.39973,-3.26127,88.534
2023-03-11 18:04:05:982,-0.51763,1.11141,-9.71922,-6.40257,-3.27013,88.5455
2023-03-11 18:04:05:992,-0.525896,1.12135,-9.73007,-6.40701,-3.27878,88.5563
2023-03-11 18:04:06:2,-0.532886,1.13546,-9.72925,-6.40884,-3.29475,88.5685
2023-03-11 18:04:06:12,-0.548627,1.13402,-9.73833,-6.41355,-3.31035,88.5811
2023-03-11 18:04:06:22,-0.56808,1.12105,-9.72499,-6.41757,-3.32809,88.595
2023-03-11 18:04:06:32,-0.59232,1.12191,-9.6741,-6.4249,-3.34243,88.6076
2023-03-11 18:04:06:42,-0.591163,1.10525,-9.65131,-6.43413,-3.35545,88.621
2023-03-11 18:04:06:52,-0.591589,1.13168,-9.65477,-6.44236,-3.37167,88.6323
2023-03-11 18:04:06:62,-0.58621,1.15483,-9.65729,-6.45501,-3.38827,88.6413
2023-03-11 18:04:06:72,-0.585453,1.1501,-9.66864,-6.47013,-3.40343,88.6499
2023-03-11 18:04:06:82,-0.585378,1.15228,-9.66679,-6.48304,-3.42251,88.6573
2023-03-11 18:04:06:92,-0.588351,1.16325,-9.66835,-6.49392,-3.43828,88.6647
2023-03-11 18:04:06:102,-0.594999,1.17328,-9.66663,-6.50971,-3.45454,88.6722
2023-03-11 18:04:06:112,-0.608311,1.18266,-9.67595,-6.5227,-3.47311,88.6795
2023-03-11 18:04:06:122,-0.607864,1.1844,-9.69057,-6.53663,-3.49047,88.688
2023-03-11 18:04:06:132,-0.628127,1.18979,-9.70654,-6.55082,-3.5078,88.6993
2023-03-11 18:04:06:142,-0.639406,1.20138,-9.70015,-6.56429,-3.52665,88.7111
2023-03-11 18:04:06:152,-0.648371,1.19466,-9.68817,-6.5767,-3.54346,88.7224
2023-03-11 18:04:06:162,-0.654434,1.1968,-9.68033,-6.58867,-3.55903,88.7331
2023-03-11 18:04:06:172,-0.651213,1.1964,-9.69131,-6.60307,-3.57283,88.7463
2023-03-11 18:04:06:182,-0.662609,1.20365,-9.73676,-6.6194,-3.59041,88.7588
2023-03-11 18:04:06:192,-0.658756,1.22124,-9.74387,-6.63298,-3.60564,88.7673
2023-03-11 18:04:06:202,-0.65073,1.22477,-9.75428,-6.64638,-3.613,88.7813
2023-03-11 18:04:06:212,-0.647709,1.24143,-9.73427,-6.65872,-3.62201,88.7928
2023-03-11 18:04:06:222,-0.655142,1.24019,-9.71814,-6.66823,-3.62812,88.8076
2023-03-11 18:04:06:232,-0.667145,1.22638,-9.68808,-6.6744,-3.63591,88.8226
2023-03-11 18:04:06:242,-0.648422,1.22735,-9.68918,-6.68273,-3.63982,88.8327
2023-03-11 18:04:06:252,-0.64703,1.22946,-9.69544,-6.68941,-3.64737,88.8477
2023-03-11 18:04:06:262,-0.628126,1.24328,-9.67242,-6.69488,-3.65684,88.861
2023-03-11 18:04:06:272,-0.614725,1.2423,-9.66582,-6.70257,-3.66281,88.876
2023-03-11 18:04:06:282,-0.603083,1.23913,-9.67201,-6.71408,-3.67185,88.8896
2023-03-11 18:04:06:292,-0.613695,1.24728,-9.67527,-6.72524,-3.68185,88.9048
2023-03-11 18:04:06:302,-0.632954,1.26311,-9.69966,-6.73585,-3.68955,88.9188
2023-03-11 18:04:06:312,-0.637356,1.28748,-9.7201,-6.74663,-3.7012,88.9346
2023-03-11 18:04:06:322,-0.655137,1.27593,-9.73081,-6.75074,-3.71144,88.954
2023-03-11 18:04:06:332,-0.65806,1.26122,-9.72543,-6.75441,-3.71946,88.971
2023-03-11 18:04:06:342,-0.674455,1.24825,-9.69087,-6.75288,-3.72891,88.9853
2023-03-11 18:04:06:352,-0.662378,1.23458,-9.6454,-6.75055,-3.7392,88.9992
2023-03-11 18:04:06:362,-0.648152,1.22812,-9.61963,-6.75588,-3.74812,89.0102
2023-03-11 18:04:06:372,-0.656776,1.21408,-9.60072,-6.7649,-3.75828,89.0226
2023-03-11 18:04:06:382,-0.641918,1.21728,-9.62313,-6.77997,-3.76934,89.0302
2023-03-11 18:04:06:392,-0.642079,1.23347,-9.69689,-6.7995,-3.78428,89.0381
2023-03-11 18:04:06:402,-0.620626,1.27569,-9.77377,-6.81502,-3.79842,89.045
2023-03-11 18:04:06:412,-0.621033,1.28615,-9.83063,-6.82753,-3.82063,89.0525
2023-03-11 18:04:06:422,-0.634504,1.27722,-9.85537,-6.82953,-3.84721,89.061
2023-03-11 18:04:06:432,-0.67331,1.27088,-9.83293,-6.82137,-3.87263,89.0713
2023-03-11 18:04:06:442,-0.710124,1.24388,-9.79824,-6.80609,-3.89769,89.0849
2023-03-11 18:04:06:452,-0.739666,1.21593,-9.7711,-6.78355,-3.91659,89.0959
2023-03-11 18:04:06:462,-0.737163,1.20482,-9.7464,-6.75543,-3.93404,89.11
2023-03-11 18:04:06:472,-0.743849,1.1682,-9.70224,-6.72582,-3.94795,89.1192
2023-03-11 18:04:06:482,-0.754379,1.13192,-9.64473,-6.69531,-3.96094,89.1353
2023-03-11 18:04:06:492,-0.773819,1.11517,-9.62253,-6.66694,-3.97396,89.1452
2023-03-11 18:04:06:502,-0.794749,1.10852,-9.62017,-6.64474,-3.9884,89.1549
2023-03-11 18:04:06:512,-0.818663,1.10922,-9.62253,-6.6255,-3.99841,89.1614
2023-03-11 18:04:06:522,-0.820931,1.11112,-9.65643,-6.60689,-4.00223,89.1598
2023-03-11 18:04:06:532,-0.799307,1.12254,-9.71442,-6.58661,-4.00099,89.1531
2023-03-11 18:04:06:542,-0.745069,1.14016,-9.77172,-6.56343,-3.99261,89.1394
2023-03-11 18:04:06:552,-0.68645,1.11274,-9.78526,-6.53664,-3.97875,89.1273
2023-03-11 18:04:06:562,-0.631778,1.07227,-9.75689,-6.50231,-3.96158,89.1127
2023-03-11 18:04:06:572,-0.583696,1.0548,-9.70667,-6.46699,-3.94323,89.1007
2023-03-11 18:04:06:582,-0.551607,1.02433,-9.67772,-6.43678,-3.92528,89.0934
2023-03-11 18:04:06:592,-0.537543,1.01369,-9.63374,-6.40768,-3.90446,89.089
2023-03-11 18:04:06:602,-0.518002,0.995574,-9.58321,-6.38616,-3.88484,89.09
2023-03-11 18:04:06:612,-0.533383,0.963842,-9.58054,-6.36647,-3.86612,89.0961
2023-03-11 18:04:06:622,-0.552721,0.970406,-9.60171,-6.35577,-3.84689,89.1084
2023-03-11 18:04:06:632,-0.564929,1.01032,-9.67483,-6.35421,-3.82522,89.1218
2023-03-11 18:04:06:642,-0.572362,1.05258,-9.78622,-6.35125,-3.80322,89.1383
2023-03-11 18:04:06:652,-0.567208,1.08538,-9.87815,-6.34285,-3.78425,89.1535
2023-03-11 18:04:06:662,-0.565654,1.08846,-9.90512,-6.32451,-3.76609,89.1741
2023-03-11 18:04:06:672,-0.560772,1.05441,-9.86085,-6.29444,-3.75215,89.1933
2023-03-11 18:04:06:682,-0.544302,0.997002,-9.78056,-6.26009,-3.74156,89.2087
2023-03-11 18:04:06:692,-0.538051,0.959991,-9.70505,-6.23305,-3.7349,89.2233
2023-03-11 18:04:06:702,-0.544624,0.933658,-9.63668,-6.21203,-3.73006,89.244
2023-03-11 18:04:06:712,-0.577061,0.913951,-9.60159,-6.19861,-3.73229,89.2701
2023-03-11 18:04:06:722,-0.63054,0.947087,-9.60582,-6.195,-3.73755,89.2946
2023-03-11 18:04:06:732,-0.690703,0.976415,-9.61484,-6.19735,-3.74499,89.3177
2023-03-11 18:04:06:742,-0.740932,1.01732,-9.65128,-6.21171,-3.74976,89.3316
2023-03-11 18:04:06:752,-0.750096,1.06732,-9.6632,-6.22463,-3.74962,89.3442
2023-03-11 18:04:06:762,-0.690801,1.06351,-9.63126,-6.23603,-3.74835,89.3532
2023-03-11 18:04:06:772,-0.637748,1.01965,-9.5734,-6.24402,-3.7432,89.3561
2023-03-11 18:04:06:782,-0.589253,1.0239,-9.50373,-6.26259,-3.74033,89.3605
2023-03-11 18:04:06:792,-0.584699,1.04243,-9.50306,-6.29315,-3.73821,89.363
2023-03-11 18:04:06:802,-0.583569,1.06781,-9.56901,-6.33373,-3.74474,89.3665
2023-03-11 18:04:06:812,-0.587627,1.12774,-9.67688,-6.38327,-3.75606,89.3782
2023-03-11 18:04:06:822,-0.632397,1.17644,-9.76293,-6.42371,-3.7724,89.3881
2023-03-11 18:04:06:832,-0.692007,1.22631,-9.81028,-6.46112,-3.79248,89.3974
2023-03-11 18:04:06:842,-0.741908,1.27174,-9.82118,-6.49366,-3.80889,89.406
2023-03-11 18:04:06:852,-0.771309,1.27653,-9.80102,-6.51742,-3.82589,89.4102
2023-03-11 18:04:06:862,-0.791557,1.25431,-9.75111,-6.53427,-3.84169,89.4112
2023-03-11 18:04:06:872,-0.799863,1.23438,-9.68349,-6.54695,-3.85101,89.4052
2023-03-11 18:04:06:882,-0.765874,1.21115,-9.64119,-6.5621,-3.85609,89.3907
2023-03-11 18:04:06:892,-0.704022,1.18058,-9.62262,-6.57787,-3.85934,89.3748
2023-03-11 18:04:06:902,-0.639126,1.17932,-9.60368,-6.59673,-3.86258,89.3572
2023-03-11 18:04:06:912,-0.586851,1.1816,-9.59076,-6.62191,-3.86584,89.3399
2023-03-11 18:04:06:922,-0.554089,1.21189,-9.60473,-6.65156,-3.87395,89.3267
2023-03-11 18:04:06:932,-0.546948,1.24462,-9.63378,-6.68923,-3.88405,89.318
2023-03-11 18:04:06:942,-0.584527,1.2815,-9.68243,-6.72726,-3.89356,89.3164
2023-03-11 18:04:06:952,-0.617187,1.32172,-9.72571,-6.76219,-3.90359,89.3146
2023-03-11 18:04:06:962,-0.64265,1.35908,-9.74495,-6.79087,-3.91355,89.3151
2023-03-11 18:04:06:972,-0.612783,1.36218,-9.76045,-6.81377,-3.92156,89.3165
2023-03-11 18:04:06:982,-0.545216,1.34519,-9.79531,-6.83136,-3.92584,89.3194
2023-03-11 18:04:06:992,-0.478929,1.33563,-9.80066,-6.84637,-3.92635,89.3259
2023-03-11 18:04:07:2,-0.424847,1.33071,-9.74545,-6.85413,-3.92687,89.3447
2023-03-11 18:04:07:12,-0.373736,1.30587,-9.69465,-6.86496,-3.91993,89.3786
2023-03-11 18:04:07:22,-0.374185,1.30391,-9.65974,-6.88246,-3.91383,89.4291
2023-03-11 18:04:07:32,-0.432037,1.30596,-9.6391,-6.90215,-3.91418,89.4956
2023-03-11 18:04:07:42,-0.551592,1.32611,-9.6606,-6.926,-3.91593,89.575
2023-03-11 18:04:07:52,-0.664325,1.38259,-9.74135,-6.94837,-3.92091,89.657
2023-03-11 18:04:07:62,-0.787245,1.42427,-9.81924,-6.96325,-3.92898,89.7372
2023-03-11 18:04:07:72,-0.910789,1.44587,-9.86805,-6.96865,-3.93796,89.8129
2023-03-11 18:04:07:82,-0.968566,1.44606,-9.86177,-6.95908,-3.94904,89.8736
2023-03-11 18:04:07:92,-0.970789,1.4064,-9.84783,-6.9373,-3.95874,89.9171
2023-03-11 18:04:07:102,-0.986084,1.34937,-9.79975,-6.90509,-3.97199,89.9446
2023-03-11 18:04:07:112,-0.998068,1.28502,-9.72269,-6.86271,-3.9899,89.9553
2023-03-11 18:04:07:122,-0.992928,1.24412,-9.69275,-6.82107,-4.01057,89.9424
2023-03-11 18:04:07:132,-0.97851,1.21794,-9.68961,-6.78182,-4.03013,89.9126
2023-03-11 18:04:07:142,-0.913088,1.17558,-9.68781,-6.74977,-4.0533,89.8611
2023-03-11 18:04:07:152,-0.824291,1.13255,-9.66847,-6.71657,-4.0791,89.7968
2023-03-11 18:04:07:162,-0.719172,1.09985,-9.64181,-6.68548,-4.10337,89.7237
2023-03-11 18:04:07:172,-0.629321,1.08291,-9.6313,-6.66315,-4.12738,89.6476
2023-03-11 18:04:07:182,-0.566676,1.07485,-9.63963,-6.64508,-4.15797,89.5725
2023-03-11 18:04:07:192,-0.506786,1.07678,-9.64132,-6.62778,-4.1846,89.5023
2023-03-11 18:04:07:202,-0.483922,1.06246,-9.64967,-6.61315,-4.21252,89.4463
2023-03-11 18:04:07:212,-0.464581,1.06088,-9.66894,-6.60534,-4.24125,89.4024
2023-03-11 18:04:07:222,-0.470271,1.07146,-9.68906,-6.59509,-4.26798,89.3694
2023-03-11 18:04:07:232,-0.482634,1.08215,-9.71049,-6.58839,-4.29458,89.3517
2023-03-11 18:04:07:242,-0.540051,1.0923,-9.72257,-6.58023,-4.32602,89.3444
2023-03-11 18:04:07:252,-0.562096,1.10566,-9.73442,-6.5713,-4.35951,89.347
2023-03-11 18:04:07:262,-0.565065,1.13591,-9.75102,-6.56154,-4.39103,89.3636
2023-03-11 18:04:07:272,-0.60402,1.15878,-9.73571,-6.55377,-4.42009,89.391
2023-03-11 18:04:07:282,-0.657355,1.16578,-9.69891,-6.544,-4.44858,89.4342
2023-03-11 18:04:07:292,-0.690421,1.15689,-9.6646,-6.52862,-4.47772,89.484
2023-03-11 18:04:07:302,-0.734366,1.14024,-9.60627,-6.51286,-4.50238,89.5406
2023-03-11 18:04:07:312,-0.796591,1.1147,-9.55761,-6.49895,-4.52824,89.6037
2023-03-11 18:04:07:322,-0.869877,1.11854,-9.53479,-6.49137,-4.5491,89.6714
2023-03-11 18:04:07:332,-0.929071,1.12173,-9.54312,-6.49221,-4.56639,89.7418
2023-03-11 18:04:07:342,-0.984078,1.12241,-9.5867,-6.49492,-4.57767,89.8008
2023-03-11 18:04:07:352,-1.03838,1.14978,-9.66321,-6.50255,-4.59127,89.8539
2023-03-11 18:04:07:362,-1.04689,1.1788,-9.72445,-6.50746,-4.59908,89.8931
2023-03-11 18:04:07:372,-1.04979,1.19572,-9.74415,-6.50733,-4.60916,89.924
2023-03-11 18:04:07:382,-1.06188,1.17005,-9.74617,-6.50505,-4.6151,89.9382
2023-03-11 18:04:07:392,-1.05007,1.17237,-9.72568,-6.50153,-4.61424,89.9377
2023-03-11 18:04:07:402,-1.01774,1.1545,-9.6856,-6.49862,-4.61037,89.9268
2023-03-11 18:04:07:412,-0.942569,1.12807,-9.63431,-6.49623,-4.60209,89.9012
2023-03-11 18:04:07:422,-0.868085,1.10176,-9.56808,-6.49371,-4.59577,89.8631
2023-03-11 18:04:07:432,-0.847983,1.06918,-9.5523,-6.49462,-4.58536,89.8236
2023-03-11 18:04:07:442,-0.828636,1.09512,-9.58965,-6.50414,-4.57216,89.7786
2023-03-11 18:04:07:452,-0.738842,1.11735,-9.66422,-6.51781,-4.55943,89.7261
2023-03-11 18:04:07:462,-0.655361,1.12503,-9.70189,-6.53469,-4.55061,89.6713
2023-03-11 18:04:07:472,-0.625481,1.14573,-9.7006,-6.54269,-4.54793,89.6208
2023-03-11 18:04:07:482,-0.657615,1.13139,-9.71861,-6.55192,-4.54713,89.5723
2023-03-11 18:04:07:492,-0.682691,1.14983,-9.80017,-6.56101,-4.54447,89.5248
2023-03-11 18:04:07:502,-0.654208,1.19333,-9.82722,-6.56408,-4.54116,89.4791
2023-03-11 18:04:07:512,-0.604152,1.16066,-9.76233,-6.55891,-4.53472,89.4339
2023-03-11 18:04:07:522,-0.574362,1.08403,-9.66974,-6.5545,-4.53005,89.3934
2023-03-11 18:04:07:532,-0.572782,1.06822,-9.61044,-6.55484,-4.52833,89.362
2023-03-11 18:04:07:542,-0.582836,1.07378,-9.59502,-6.5588,-4.52583,89.3407
2023-03-11 18:04:07:552,-0.57783,1.06743,-9.5862,-6.56938,-4.52341,89.3219
2023-03-11 18:04:07:562,-0.577436,1.07041,-9.58508,-6.58635,-4.52478,89.3142
2023-03-11 18:04:07:572,-0.582565,1.08836,-9.62285,-6.61321,-4.52694,89.3118
2023-03-11 18:04:07:582,-0.602155,1.10789,-9.67759,-6.64615,-4.53517,89.3207
2023-03-11 18:04:07:592,-0.653923,1.15344,-9.72329,-6.68416,-4.54822,89.3375
2023-03-11 18:04:07:602,-0.726326,1.1791,-9.78142,-6.71822,-4.56356,89.3547
2023-03-11 18:04:07:612,-0.791483,1.21527,-9.81784,-6.74513,-4.58716,89.3781
2023-03-11 18:04:07:622,-0.841366,1.21265,-9.80034,-6.76803,-4.61491,89.4022
2023-03-11 18:04:07:632,-0.917821,1.21467,-9.78325,-6.78342,-4.6489,89.4255
2023-03-11 18:04:07:642,-1.0251,1.22809,-9.79364,-6.79457,-4.68653,89.4437
2023-03-11 18:04:07:652,-1.08804,1.23735,-9.84773,-6.80245,-4.72841,89.4543
2023-03-11 18:04:07:662,-1.0761,1.23931,-9.8735,-6.79732,-4.77333,89.4553
2023-03-11 18:04:07:672,-1.07013,1.21419,-9.83692,-6.78129,-4.8236,89.4454
2023-03-11 18:04:07:682,-1.0869,1.17593,-9.75533,-6.75861,-4.86909,89.4305
2023-03-11 18:04:07:692,-1.10218,1.14054,-9.67562,-6.73147,-4.91133,89.4097
2023-03-11 18:04:07:702,-1.09057,1.10026,-9.61922,-6.70155,-4.9477,89.3843
2023-03-11 18:04:07:712,-1.06501,1.06728,-9.60389,-6.67247,-4.97852,89.3538
2023-03-11 18:04:07:723,-0.991632,1.07184,-9.6292,-6.64807,-4.99876,89.3211
2023-03-11 18:04:07:732,-0.915139,1.07585,-9.6141,-6.62486,-5.01482,89.2873
2023-03-11 18:04:07:742,-0.922784,1.04577,-9.57435,-6.60418,-5.02295,89.2597
2023-03-11 18:04:07:752,-0.938423,1.0418,-9.51639,-6.58616,-5.02292,89.2334
2023-03-11 18:04:07:762,-0.931532,1.04169,-9.52019,-6.57738,-5.0111,89.2077
2023-03-11 18:04:07:772,-0.905581,1.0453,-9.55376,-6.57493,-4.99351,89.1811
2023-03-11 18:04:07:782,-0.862215,1.05652,-9.60823,-6.57861,-4.97073,89.152
2023-03-11 18:04:07:792,-0.820642,1.08563,-9.66059,-6.58491,-4.95099,89.1255
2023-03-11 18:04:07:803,-0.795027,1.11229,-9.70879,-6.59505,-4.92872,89.0951
2023-03-11 18:04:07:812,-0.744948,1.1313,-9.74081,-6.60686,-4.91146,89.0629
2023-03-11 18:04:07:822,-0.670351,1.13694,-9.7516,-6.61798,-4.89799,89.028
2023-03-11 18:04:07:832,-0.609175,1.13106,-9.73873,-6.6297,-4.89448,88.9975
2023-03-11 18:04:07:842,-0.615332,1.12855,-9.63713,-6.64449,-4.89514,88.9729
2023-03-11 18:04:07:852,-0.713523,1.12161,-9.55468,-6.66351,-4.89929,88.956
2023-03-11 18:04:07:862,-0.755578,1.1546,-9.57948,-6.6869,-4.90234,88.9432
2023-03-11 18:04:07:872,-0.690546,1.18577,-9.64541,-6.71601,-4.90623,88.9313
2023-03-11 18:04:07:882,-0.641013,1.20539,-9.65243,-6.74115,-4.91687,88.9243
2023-03-11 18:04:07:892,-0.710137,1.1984,-9.61888,-6.76879,-4.93661,88.9245
2023-03-11 18:04:07:902,-0.81725,1.19577,-9.64161,-6.79761,-4.95444,88.9339
2023-03-11 18:04:07:912,-0.839577,1.22741,-9.73162,-6.82212,-4.97216,88.9436
2023-03-11 18:04:07:922,-0.824723,1.24617,-9.77339,-6.84821,-4.99239,88.9508
2023-03-11 18:04:07:932,-0.876818,1.26071,-9.74736,-6.86876,-5.01868,88.9649
2023-03-11 18:04:07:942,-0.971401,1.23712,-9.70252,-6.88406,-5.04301,88.9819
2023-03-11 18:04:07:952,-1.02028,1.24695,-9.70261,-6.89612,-5.06028,88.9876
2023-03-11 18:04:07:962,-0.988512,1.25022,-9.66628,-6.90633,-5.06883,88.9893
2023-03-11 18:04:07:972,-0.890483,1.2164,-9.59726,-6.91786,-5.07177,88.9842
2023-03-11 18:04:07:982,-0.806458,1.18618,-9.57129,-6.93734,-5.07284,88.9844
2023-03-11 18:04:07:992,-0.779344,1.19449,-9.57599,-6.96643,-5.08004,88.9861
2023-03-11 18:04:08:2,-0.826939,1.24463,-9.65146,-7.0028,-5.09133,88.9947
2023-03-11 18:04:08:12,-0.877476,1.33659,-9.75203,-7.0394,-5.10507,89.0025
2023-03-11 18:04:08:22,-0.903057,1.3726,-9.80007,-7.06856,-5.11736,89.0073
2023-03-11 18:04:08:32,-0.898683,1.36676,-9.77793,-7.09067,-5.13042,89.0095
2023-03-11 18:04:08:42,-0.842216,1.35922,-9.76208,-7.1093,-5.13526,89.0129
2023-03-11 18:04:08:52,-0.777651,1.34474,-9.69922,-7.12012,-5.14523,89.0176
2023-03-11 18:04:08:62,-0.77576,1.32827,-9.6314,-7.13082,-5.15123,89.0286
2023-03-11 18:04:08:72,-0.848065,1.31994,-9.59449,-7.1435,-5.16039,89.0412
2023-03-11 18:04:08:82,-0.890795,1.33552,-9.64005,-7.16213,-5.17071,89.0585
2023-03-11 18:04:08:92,-0.867233,1.39663,-9.75268,-7.18049,-5.18228,89.0707
2023-03-11 18:04:08:102,-0.852403,1.43804,-9.80027,-7.19378,-5.20022,89.0789
2023-03-11 18:04:08:112,-0.895886,1.41829,-9.77043,-7.19672,-5.22132,89.0919
2023-03-11 18:04:08:122,-0.981438,1.38731,-9.72767,-7.1971,-5.24188,89.105
2023-03-11 18:04:08:132,-1.04935,1.37953,-9.67336,-7.18756,-5.26388,89.116
2023-03-11 18:04:08:142,-1.06132,1.35213,-9.62838,-7.17978,-5.275,89.1185
2023-03-11 18:04:08:152,-1.05179,1.3258,-9.60246,-7.16678,-5.28253,89.1132
2023-03-11 18:04:08:162,-1.02974,1.2905,-9.59691,-7.15863,-5.28597,89.0977
2023-03-11 18:04:08:172,-1.01505,1.2833,-9.61756,-7.15409,-5.29428,89.0742
2023-03-11 18:04:08:182,-1.00819,1.2841,-9.66884,-7.15391,-5.30673,89.0433
2023-03-11 18:04:08:192,-1.00226,1.30053,-9.70153,-7.15325,-5.32689,89.0017
2023-03-11 18:04:08:202,-1.00805,1.26568,-9.69853,-7.14983,-5.34811,88.9475
2023-03-11 18:04:08:212,-0.974397,1.26596,-9.7152,-7.14894,-5.37403,88.8876
2023-03-11 18:04:08:222,-0.928416,1.25629,-9.69291,-7.14455,-5.39694,88.8266
2023-03-11 18:04:08:232,-0.86868,1.23411,-9.67175,-7.13594,-5.41265,88.7648
2023-03-11 18:04:08:242,-0.7847,1.23571,-9.6672,-7.12629,-5.42817,88.7032
2023-03-11 18:04:08:252,-0.714585,1.19814,-9.64728,-7.11864,-5.43691,88.6506
2023-03-11 18:04:08:262,-0.671449,1.17013,-9.61222,-7.11242,-5.44543,88.6102
2023-03-11 18:04:08:272,-0.649967,1.1579,-9.59906,-7.10856,-5.44949,88.579
2023-03-11 18:04:08:282,-0.707415,1.16736,-9.60566,-7.10812,-5.4531,88.5664
2023-03-11 18:04:08:292,-0.726122,1.18109,-9.61178,-7.1081,-5.44944,88.5662
2023-03-11 18:04:08:302,-0.722976,1.18103,-9.59924,-7.1103,-5.43767,88.5769
2023-03-11 18:04:08:312,-0.752271,1.16544,-9.56022,-7.11523,-5.42016,88.5994
2023-03-11 18:04:08:322,-0.778603,1.16403,-9.54452,-7.12825,-5.3992,88.6295
2023-03-11 18:04:08:332,-0.807592,1.19214,-9.5666,-7.14646,-5.38046,88.6608
2023-03-11 18:04:08:342,-0.855635,1.22814,-9.60596,-7.17097,-5.36476,88.6974
2023-03-11 18:04:08:352,-0.931898,1.28349,-9.64838,-7.19817,-5.3508,88.7331
2023-03-11 18:04:08:362,-0.964551,1.31007,-9.70367,-7.22859,-5.33387,88.7613
2023-03-11 18:04:08:372,-0.954322,1.34516,-9.74786,-7.2561,-5.31878,88.7822
2023-03-11 18:04:08:382,-0.902702,1.38332,-9.76174,-7.27691,-5.31167,88.7946
2023-03-11 18:04:08:392,-0.848798,1.3774,-9.75221,-7.29235,-5.3055,88.8018
2023-03-11 18:04:08:402,-0.830237,1.35483,-9.70798,-7.30298,-5.30579,88.81
2023-03-11 18:04:08:412,-0.823646,1.31799,-9.64123,-7.31176,-5.30977,88.8152
2023-03-11 18:04:08:422,-0.799947,1.29627,-9.63066,-7.32514,-5.30888,88.8231
2023-03-11 18:04:08:432,-0.765911,1.29953,-9.64808,-7.33932,-5.30973,88.8344
2023-03-11 18:04:08:442,-0.743224,1.29001,-9.67659,-7.35333,-5.31154,88.8533
2023-03-11 18:04:08:452,-0.719137,1.30577,-9.72398,-7.36917,-5.3182,88.8755
2023-03-11 18:04:08:462,-0.705755,1.33249,-9.76313,-7.38583,-5.33056,88.9077
2023-03-11 18:04:08:472,-0.767312,1.35607,-9.77949,-7.40682,-5.35016,88.9514
2023-03-11 18:04:08:482,-0.886775,1.38891,-9.74554,-7.41855,-5.37424,88.9983
2023-03-11 18:04:08:492,-1.00516,1.39813,-9.72658,-7.4246,-5.39833,89.0497
2023-03-11 18:04:08:502,-1.07021,1.4083,-9.71573,-7.42335,-5.41797,89.1012
2023-03-11 18:04:08:512,-1.07452,1.41001,-9.73208,-7.41594,-5.43438,89.1448
2023-03-11 18:04:08:522,-1.06591,1.39018,-9.72623,-7.40186,-5.44384,89.1823
2023-03-11 18:04:08:532,-1.05764,1.34793,-9.67489,-7.38341,-5.45298,89.2167
2023-03-11 18:04:08:542,-1.04978,1.32823,-9.63089,-7.36615,-5.46038,89.2475
2023-03-11 18:04:08:552,-0.997889,1.29643,-9.61018,-7.34784,-5.46323,89.2712
2023-03-11 18:04:08:562,-0.922447,1.27509,-9.59543,-7.33491,-5.46217,89.2922
2023-03-11 18:04:08:572,-0.880989,1.25297,-9.56573,-7.32761,-5.46765,89.3151
2023-03-11 18:04:08:582,-0.900433,1.24146,-9.5395,-7.32688,-5.47286,89.3409
2023-03-11 18:04:08:592,-0.954217,1.25639,-9.53528,-7.33181,-5.47414,89.3701
2023-03-11 18:04:08:602,-1.00704,1.30243,-9.58127,-7.34596,-5.47562,89.3992
2023-03-11 18:04:08:612,-1.04068,1.34809,-9.65516,-7.35992,-5.4766,89.4242
2023-03-11 18:04:08:622,-1.07734,1.39719,-9.71062,-7.36853,-5.47647,89.4433
2023-03-11 18:04:08:632,-1.06634,1.40541,-9.70624,-7.37115,-5.4803,89.4502
2023-03-11 18:04:08:642,-1.00702,1.36307,-9.66955,-7.36692,-5.48093,89.4428
2023-03-11 18:04:08:652,-0.9543,1.33194,-9.61354,-7.35992,-5.48555,89.4322
2023-03-11 18:04:08:662,-0.921718,1.28763,-9.54062,-7.35923,-5.49505,89.421
2023-03-11 18:04:08:672,-0.890733,1.26533,-9.51251,-7.3628,-5.50065,89.4065
2023-03-11 18:04:08:682,-0.880115,1.27534,-9.50326,-7.37332,-5.50216,89.393
2023-03-11 18:04:08:692,-0.847494,1.26119,-9.55239,-7.39045,-5.50517,89.3825
2023-03-11 18:04:08:702,-0.816256,1.28152,-9.65158,-7.41691,-5.50974,89.3736
2023-03-11 18:04:08:712,-0.853322,1.34682,-9.73713,-7.44219,-5.51405,89.3676
2023-03-11 18:04:08:722,-0.919615,1.39176,-9.7796,-7.4586,-5.52566,89.3597
2023-03-11 18:04:08:732,-0.961681,1.40941,-9.77527,-7.46737,-5.53189,89.3525
2023-03-11 18:04:08:742,-0.941502,1.37999,-9.72445,-7.46466,-5.53275,89.3412
2023-03-11 18:04:08:752,-0.886041,1.33904,-9.64294,-7.45682,-5.53537,89.3223
2023-03-11 18:04:08:762,-0.831868,1.29064,-9.59044,-7.45309,-5.53484,89.3056
2023-03-11 18:04:08:772,-0.796491,1.28283,-9.57697,-7.45448,-5.5387,89.2931
2023-03-11 18:04:08:782,-0.811293,1.2841,-9.60879,-7.4645,-5.54834,89.2822
2023-03-11 18:04:08:792,-0.864103,1.33191,-9.67373,-7.47995,-5.56132,89.2763
2023-03-11 18:04:08:802,-0.902025,1.37602,-9.76299,-7.49462,-5.57927,89.2666
2023-03-11 18:04:08:812,-0.9036,1.40491,-9.84273,-7.50207,-5.60319,89.2532
2023-03-11 18:04:08:822,-0.925924,1.41007,-9.86735,-7.49873,-5.63121,89.2402
2023-03-11 18:04:08:832,-0.9685,1.41601,-9.84487,-7.4875,-5.66296,89.2272
2023-03-11 18:04:08:842,-1.01691,1.39277,-9.81925,-7.46744,-5.70313,89.2116
2023-03-11 18:04:08:852,-1.04676,1.37769,-9.76708,-7.44335,-5.75208,89.1944
2023-03-11 18:04:08:862,-1.06259,1.34858,-9.72538,-7.41114,-5.7992,89.1731
2023-03-11 18:04:08:872,-1.06765,1.31974,-9.66091,-7.37528,-5.84554,89.1572
2023-03-11 18:04:08:882,-1.07833,1.27251,-9.59978,-7.33657,-5.89211,89.1397
2023-03-11 18:04:08:892,-1.08874,1.24286,-9.5751,-7.29835,-5.92814,89.1239
2023-03-11 18:04:08:902,-1.10111,1.23723,-9.55684,-7.2642,-5.96395,89.1151
2023-03-11 18:04:08:912,-1.12466,1.22135,-9.55611,-7.22936,-5.9933,89.108
2023-03-11 18:04:08:922,-1.16178,1.23025,-9.55536,-7.20029,-6.01446,89.1019
2023-03-11 18:04:08:932,-1.18634,1.21419,-9.57157,-7.16863,-6.02563,89.0936
2023-03-11 18:04:08:942,-1.19656,1.20611,-9.56865,-7.13997,-6.0319,89.0893
2023-03-11 18:04:08:952,-1.18222,1.18919,-9.57075,-7.115,-6.03037,89.0863
2023-03-11 18:04:08:962,-1.17136,1.17564,-9.56974,-7.09152,-6.02347,89.0792
2023-03-11 18:04:08:972,-1.16095,1.17367,-9.57762,-7.07302,-6.00867,89.0688
2023-03-11 18:04:08:982,-1.10806,1.17518,-9.59173,-7.06369,-5.99199,89.0578
2023-03-11 18:04:08:992,-1.06554,1.17479,-9.58308,-7.05074,-5.97645,89.0436
2023-03-11 18:04:09:2,-1.03089,1.15131,-9.5731,-7.04534,-5.96389,89.0293
2023-03-11 18:04:09:12,-1.02134,1.17186,-9.58077,-7.04659,-5.95029,89.0148
2023-03-11 18:04:09:22,-0.993194,1.19308,-9.60657,-7.05504,-5.94158,89.0008
2023-03-11 18:04:09:32,-0.981508,1.2314,-9.65899,-7.06515,-5.93903,88.9825
2023-03-11 18:04:09:42,-0.935601,1.24793,-9.67976,-7.07226,-5.94045,88.9637
2023-03-11 18:04:09:52,-0.913731,1.23197,-9.67228,-7.08183,-5.95207,88.9472
2023-03-11 18:04:09:62,-0.969934,1.24311,-9.64894,-7.09158,-5.97241,88.9339
2023-03-11 18:04:09:72,-1.0399,1.2497,-9.64232,-7.09928,-5.99462,88.9267
2023-03-11 18:04:09:82,-1.08268,1.27243,-9.64556,-7.10708,-6.02114,88.9201
2023-03-11 18:04:09:92,-1.10821,1.28746,-9.6698,-7.1086,-6.04739,88.9096
2023-03-11 18:04:09:102,-1.10492,1.273,-9.67292,-7.10689,-6.06894,88.8963
2023-03-11 18:04:09:112,-1.10497,1.27426,-9.65621,-7.1091,-6.08635,88.8865
2023-03-11 18:04:09:122,-1.1199,1.25968,-9.64268,-7.10545,-6.10037,88.8749
2023-03-11 18:04:09:132,-1.1136,1.24117,-9.64321,-7.10367,-6.11466,88.865
2023-03-11 18:04:09:142,-1.11162,1.23201,-9.65625,-7.09686,-6.12488,88.8516
2023-03-11 18:04:09:152,-1.10979,1.23328,-9.65677,-7.09468,-6.13381,88.8391
2023-03-11 18:04:09:162,-1.12283,1.24327,-9.66082,-7.09295,-6.14209,88.8228
2023-03-11 18:04:09:172,-1.12693,1.25319,-9.67414,-7.08846,-6.1485,88.8087
2023-03-11 18:04:09:182,-1.09277,1.23311,-9.63934,-7.08089,-6.15307,88.7932
2023-03-11 18:04:09:192,-1.05935,1.21139,-9.60866,-7.06979,-6.15632,88.7746
2023-03-11 18:04:09:202,-1.03479,1.20191,-9.61276,-7.06283,-6.16006,88.753
2023-03-11 18:04:09:212,-1.00118,1.1974,-9.6169,-7.06109,-6.16137,88.7354
2023-03-11 18:04:09:222,-0.966209,1.18812,-9.62736,-7.05964,-6.16381,88.7213
2023-03-11 18:04:09:232,-0.958699,1.17477,-9.62348,-7.06249,-6.16694,88.7123
2023-03-11 18:04:09:242,-0.971636,1.18663,-9.62324,-7.06707,-6.16736,88.7093
2023-03-11 18:04:09:252,-0.991672,1.20903,-9.64903,-7.07573,-6.16355,88.7108
2023-03-11 18:04:09:262,-0.985998,1.23382,-9.67665,-7.08093,-6.15743,88.7223
2023-03-11 18:04:09:272,-0.985458,1.26364,-9.70878,-7.08981,-6.14894,88.7364
2023-03-11 18:04:09:282,-0.990566,1.26721,-9.72248,-7.09382,-6.13763,88.7567
2023-03-11 18:04:09:292,-0.995945,1.25723,-9.69713,-7.0923,-6.12487,88.7808
2023-03-11 18:04:09:302,-1.01222,1.24189,-9.64787,-7.09454,-6.10446,88.8104
2023-03-11 18:04:09:312,-1.02498,1.2354,-9.60549,-7.09707,-6.08305,88.8461
2023-03-11 18:04:09:322,-1.03913,1.22839,-9.57862,-7.10213,-6.0546,88.8861
2023-03-11 18:04:09:332,-1.06237,1.24113,-9.57803,-7.11017,-6.02696,88.9251
2023-03-11 18:04:09:342,-1.07728,1.25359,-9.59303,-7.12223,-5.9996,88.9617
2023-03-11 18:04:09:352,-1.08873,1.2741,-9.62459,-7.14192,-5.96603,88.9975
2023-03-11 18:04:09:362,-1.09862,1.28321,-9.64887,-7.15568,-5.93359,89.0301
2023-03-11 18:04:09:372,-1.09893,1.29063,-9.65378,-7.16758,-5.90355,89.0569
2023-03-11 18:04:09:382,-1.11299,1.29565,-9.64643,-7.17831,-5.87115,89.0764
2023-03-11 18:04:09:392,-1.09489,1.29552,-9.62357,-7.18724,-5.84094,89.0922
2023-03-11 18:04:09:402,-1.06942,1.283,-9.60633,-7.20235,-5.80907,89.0993
2023-03-11 18:04:09:412,-1.04963,1.27551,-9.59992,-7.21546,-5.77461,89.104
2023-03-11 18:04:09:422,-1.01555,1.26592,-9.5887,-7.22947,-5.74164,89.1016
2023-03-11 18:04:09:432,-0.964918,1.24993,-9.59662,-7.24381,-5.70703,89.0942
2023-03-11 18:04:09:442,-0.913733,1.25353,-9.60025,-7.26153,-5.67265,89.0846
2023-03-11 18:04:09:452,-0.895401,1.26289,-9.61404,-7.28321,-5.64034,89.0782
2023-03-11 18:04:09:462,-0.889665,1.25928,-9.63559,-7.30587,-5.61473,89.0734
2023-03-11 18:04:09:472,-0.922716,1.25999,-9.62446,-7.33231,-5.59086,89.072
2023-03-11 18:04:09:482,-0.965719,1.26026,-9.59812,-7.35773,-5.5687,89.0688
2023-03-11 18:04:09:492,-0.991933,1.2509,-9.58343,-7.38797,-5.54297,89.069
2023-03-11 18:04:09:502,-1.00242,1.26166,-9.5794,-7.42187,-5.51689,89.0645
2023-03-11 18:04:09:512,-0.99211,1.27782,-9.5744,-7.46441,-5.49174,89.0554
2023-03-11 18:04:09:522,-0.990432,1.30347,-9.58599,-7.50445,-5.46277,89.0443
2023-03-11 18:04:09:532,-0.943933,1.31139,-9.61053,-7.55324,-5.43266,89.0323
2023-03-11 18:04:09:542,-0.890434,1.32828,-9.64972,-7.60063,-5.40161,89.0207
2023-03-11 18:04:09:552,-0.861656,1.34795,-9.66709,-7.64254,-5.3748,89.0061
2023-03-11 18:04:09:562,-0.826377,1.36012,-9.6822,-7.68654,-5.35012,88.9985
2023-03-11 18:04:09:572,-0.819781,1.3757,-9.6692,-7.72652,-5.3223,88.993
2023-03-11 18:04:09:582,-0.817276,1.38328,-9.67203,-7.76932,-5.29601,88.9904
2023-03-11 18:04:09:592,-0.812571,1.41365,-9.696,-7.80789,-5.26622,88.9937
2023-03-11 18:04:09:602,-0.807877,1.4273,-9.73443,-7.844,-5.23966,89.0024
2023-03-11 18:04:09:612,-0.796779,1.4534,-9.7785,-7.87764,-5.20916,89.0185
2023-03-11 18:04:09:622,-0.778887,1.461,-9.81134,-7.90344,-5.18199,89.0313
2023-03-11 18:04:09:632,-0.793041,1.45673,-9.81466,-7.92482,-5.1602,89.0522
2023-03-11 18:04:09:642,-0.849094,1.44687,-9.79009,-7.93517,-5.14254,89.0767
2023-03-11 18:04:09:652,-0.92356,1.47914,-9.74981,-7.94253,-5.12887,89.1056
2023-03-11 18:04:09:662,-0.988605,1.468,-9.74567,-7.94716,-5.11619,89.1269
2023-03-11 18:04:09:672,-1.02108,1.46776,-9.7217,-7.94768,-5.10292,89.148
2023-03-11 18:04:09:682,-1.03273,1.45156,-9.70163,-7.94386,-5.08753,89.1636
2023-03-11 18:04:09:692,-1.04286,1.44191,-9.67477,-7.93969,-5.07041,89.1738
2023-03-11 18:04:09:702,-1.0245,1.4237,-9.65458,-7.93245,-5.05494,89.1779
2023-03-11 18:04:09:712,-1.02148,1.41786,-9.65378,-7.9211,-5.03703,89.1759
2023-03-11 18:04:09:722,-1.02506,1.40532,-9.65838,-7.90847,-5.01715,89.1681
2023-03-11 18:04:09:732,-1.02994,1.398,-9.65099,-7.8933,-4.99631,89.1571
2023-03-11 18:04:09:742,-1.01673,1.37439,-9.65637,-7.87392,-4.97487,89.1335
2023-03-11 18:04:09:752,-0.992187,1.35626,-9.64923,-7.85445,-4.95429,89.1081
2023-03-11 18:04:09:762,-0.964707,1.3402,-9.64399,-7.83453,-4.92388,89.0774
2023-03-11 18:04:09:772,-0.944753,1.30764,-9.62651,-7.81732,-4.89528,89.0438
2023-03-11 18:04:09:782,-0.918275,1.27249,-9.62125,-7.79854,-4.86322,89.0033
2023-03-11 18:04:09:792,-0.884034,1.27102,-9.63661,-7.78254,-4.82997,88.9619
2023-03-11 18:04:09:802,-0.837203,1.291,-9.63777,-7.77158,-4.79769,88.9198
2023-03-11 18:04:09:812,-0.795557,1.28004,-9.62679,-7.76378,-4.76711,88.8775
2023-03-11 18:04:09:822,-0.790602,1.27275,-9.60505,-7.75876,-4.73637,88.8415
2023-03-11 18:04:09:832,-0.799822,1.28803,-9.60909,-7.76062,-4.70334,88.8029
2023-03-11 18:04:09:842,-0.78236,1.29715,-9.63375,-7.76357,-4.66592,88.7676
2023-03-11 18:04:09:852,-0.742721,1.31126,-9.6774,-7.76995,-4.6235,88.7333
2023-03-11 18:04:09:862,-0.682456,1.32493,-9.69498,-7.77013,-4.58254,88.7016
2023-03-11 18:04:09:872,-0.642863,1.31643,-9.67791,-7.76749,-4.54517,88.6744
2023-03-11 18:04:09:882,-0.672033,1.30209,-9.65416,-7.76832,-4.51262,88.6518
2023-03-11 18:04:09:892,-0.691525,1.3032,-9.63407,-7.76923,-4.47723,88.6333
2023-03-11 18:04:09:902,-0.685202,1.30929,-9.63409,-7.77252,-4.44029,88.6188
2023-03-11 18:04:09:912,-0.678448,1.3022,-9.62917,-7.78284,-4.4007,88.6098
2023-03-11 18:04:09:922,-0.656948,1.29973,-9.63873,-7.79037,-4.36601,88.5998
2023-03-11 18:04:09:932,-0.671544,1.3297,-9.63978,-7.80723,-4.33084,88.5948
2023-03-11 18:04:09:942,-0.676254,1.34917,-9.65118,-7.82368,-4.29603,88.5918
2023-03-11 18:04:09:952,-0.688858,1.36491,-9.65738,-7.84264,-4.26684,88.5922
2023-03-11 18:04:09:962,-0.707398,1.3881,-9.6649,-7.85991,-4.23955,88.592
2023-03-11 18:04:09:972,-0.717244,1.41176,-9.68285,-7.87789,-4.20814,88.5912
2023-03-11 18:04:09:982,-0.716327,1.41689,-9.67428,-7.89395,-4.18,88.5872
2023-03-11 18:04:09:992,-0.721536,1.41813,-9.64844,-7.90929,-4.15077,88.5827
2023-03-11 18:04:10:2,-0.724081,1.41606,-9.64629,-7.92052,-4.1193,88.578
2023-03-11 18:04:10:12,-0.71016,1.40631,-9.64306,-7.93531,-4.09135,88.5725
2023-03-11 18:04:10:22,-0.676766,1.41974,-9.63909,-7.95249,-4.06054,88.5624
2023-03-11 18:04:10:32,-0.655912,1.41115,-9.64163,-7.97001,-4.03362,88.5503
2023-03-11 18:04:10:42,-0.62627,1.41122,-9.63503,-7.98775,-4.01274,88.5369
2023-03-11 18:04:10:52,-0.608451,1.41368,-9.64887,-8.00642,-3.99006,88.5222
2023-03-11 18:04:10:62,-0.586832,1.41988,-9.65659,-8.02419,-3.97036,88.5109
2023-03-11 18:04:10:72,-0.553518,1.43015,-9.66762,-8.0488,-3.94989,88.5034
2023-03-11 18:04:10:82,-0.548831,1.44106,-9.67714,-8.06833,-3.93228,88.4971
2023-03-11 18:04:10:92,-0.557501,1.45478,-9.69627,-8.08713,-3.91861,88.4931
2023-03-11 18:04:10:102,-0.573299,1.47136,-9.69789,-8.10218,-3.90309,88.5002
2023-03-11 18:04:10:112,-0.599136,1.48851,-9.68634,-8.11759,-3.88867,88.5096
2023-03-11 18:04:10:122,-0.627359,1.49989,-9.67596,-8.13223,-3.87257,88.5154
2023-03-11 18:04:10:132,-0.661408,1.50025,-9.6688,-8.14448,-3.85965,88.5182
2023-03-11 18:04:10:142,-0.684624,1.50228,-9.67392,-8.15658,-3.84619,88.526
2023-03-11 18:04:10:152,-0.684947,1.496,-9.66804,-8.16875,-3.83916,88.5279
2023-03-11 18:04:10:162,-0.681706,1.50336,-9.66966,-8.18406,-3.82702,88.5285
2023-03-11 18:04:10:172,-0.682008,1.49733,-9.67222,-8.19661,-3.81412,88.5272
2023-03-11 18:04:10:183,-0.673073,1.50088,-9.67947,-8.20327,-3.80364,88.5254
2023-03-11 18:04:10:192,-0.660964,1.50279,-9.68204,-8.21213,-3.79393,88.5227
2023-03-11 18:04:10:202,-0.647706,1.49099,-9.70525,-8.21762,-3.77997,88.5168
2023-03-11 18:04:10:212,-0.620117,1.48359,-9.69965,-8.21819,-3.77226,88.5129
2023-03-11 18:04:10:222,-0.577188,1.47569,-9.68732,-8.2182,-3.7641,88.5066
2023-03-11 18:04:10:232,-0.572131,1.45431,-9.67387,-8.21643,-3.757,88.5038
2023-03-11 18:04:10:242,-0.574064,1.43358,-9.65947,-8.21279,-3.74751,88.4999
2023-03-11 18:04:10:252,-0.586744,1.4232,-9.66366,-8.21013,-3.73525,88.4979
2023-03-11 18:04:10:262,-0.601303,1.42811,-9.67068,-8.205,-3.72896,88.5007
2023-03-11 18:04:10:272,-0.601068,1.44132,-9.68268,-8.20263,-3.72339,88.5069
2023-03-11 18:04:10:282,-0.611996,1.45649,-9.67939,-8.19787,-3.71699,88.5139
2023-03-11 18:04:10:292,-0.631287,1.46025,-9.67475,-8.19066,-3.714,88.5162
2023-03-11 18:04:10:302,-0.649212,1.43774,-9.69241,-8.18639,-3.70559,88.5198
2023-03-11 18:04:10:312,-0.668935,1.46046,-9.68681,-8.18239,-3.69861,88.5242
2023-03-11 18:04:10:322,-0.661732,1.45196,-9.67694,-8.17166,-3.68826,88.5226
2023-03-11 18:04:10:332,-0.663855,1.43507,-9.67375,-8.16412,-3.68289,88.5214
2023-03-11 18:04:10:342,-0.652635,1.42552,-9.66449,-8.15056,-3.67788,88.5172
2023-03-11 18:04:10:352,-0.627754,1.42404,-9.64015,-8.1409,-3.67084,88.5102
2023-03-11 18:04:10:362,-0.613597,1.41131,-9.62904,-8.12931,-3.66177,88.5024
2023-03-11 18:04:10:372,-0.626986,1.39511,-9.63968,-8.11891,-3.65759,88.4981
2023-03-11 18:04:10:382,-0.618856,1.39052,-9.65322,-8.11176,-3.64403,88.4928
2023-03-11 18:04:10:392,-0.597643,1.37219,-9.67169,-8.09963,-3.63402,88.4817
2023-03-11 18:04:10:402,-0.580134,1.38343,-9.71,-8.09376,-3.62146,88.4742
2023-03-11 18:04:10:412,-0.568966,1.39519,-9.74498,-8.08399,-3.60569,88.4681
2023-03-11 18:04:10:422,-0.540409,1.39699,-9.75381,-8.07155,-3.59808,88.4617
2023-03-11 18:04:10:432,-0.52245,1.37403,-9.74829,-8.0587,-3.5931,88.4562
2023-03-11 18:04:10:442,-0.538203,1.37663,-9.72224,-8.04645,-3.5913,88.452
2023-03-11 18:04:10:452,-0.56174,1.39037,-9.68531,-8.03006,-3.59164,88.45
2023-03-11 18:04:10:462,-0.560255,1.37535,-9.63826,-8.01641,-3.59316,88.4489
2023-03-11 18:04:10:472,-0.55412,1.35062,-9.61174,-8.00674,-3.59401,88.4536
2023-03-11 18:04:10:482,-0.564695,1.34115,-9.58131,-7.99428,-3.60199,88.4623
2023-03-11 18:04:10:492,-0.56958,1.3315,-9.55386,-7.99023,-3.60629,88.4686
2023-03-11 18:04:10:502,-0.580605,1.32884,-9.54554,-7.99009,-3.61197,88.475
2023-03-11 18:04:10:512,-0.6072,1.33957,-9.55546,-7.99884,-3.61526,88.482
2023-03-11 18:04:10:522,-0.618039,1.34966,-9.57657,-8.00668,-3.61781,88.4899
2023-03-11 18:04:10:532,-0.618836,1.39102,-9.64998,-8.01958,-3.6249,88.4993
2023-03-11 18:04:10:542,-0.616317,1.43934,-9.71525,-8.03345,-3.63083,88.5001
2023-03-11 18:04:10:552,-0.61498,1.46229,-9.74354,-8.04185,-3.63708,88.4988
2023-03-11 18:04:10:562,-0.589569,1.4577,-9.72658,-8.04508,-3.64295,88.4937
2023-03-11 18:04:10:572,-0.537614,1.4233,-9.68961,-8.0466,-3.65379,88.4864
2023-03-11 18:04:10:582,-0.490718,1.40057,-9.67587,-8.04668,-3.66441,88.4799
2023-03-11 18:04:10:592,-0.476239,1.38647,-9.66565,-8.05029,-3.67988,88.4737
2023-03-11 18:04:10:602,-0.484026,1.40191,-9.62839,-8.05435,-3.6962,88.4663
2023-03-11 18:04:10:612,-0.495384,1.39262,-9.60551,-8.06773,-3.72065,88.4644
2023-03-11 18:04:10:622,-0.552373,1.39885,-9.59594,-8.07737,-3.74548,88.4631
2023-03-11 18:04:10:632,-0.623375,1.42492,-9.60392,-8.09374,-3.76841,88.4693
2023-03-11 18:04:10:642,-0.663152,1.4546,-9.65127,-8.10891,-3.78879,88.4739
2023-03-11 18:04:10:652,-0.643599,1.47799,-9.70775,-8.12432,-3.80887,88.4762
2023-03-11 18:04:10:662,-0.598214,1.47343,-9.71867,-8.13326,-3.82904,88.4762
2023-03-11 18:04:10:672,-0.630773,1.45271,-9.69087,-8.13946,-3.84838,88.475
2023-03-11 18:04:10:682,-0.693196,1.42074,-9.66433,-8.14506,-3.87122,88.474
2023-03-11 18:04:10:692,-0.679575,1.41577,-9.65406,-8.14841,-3.8912,88.4699
2023-03-11 18:04:10:702,-0.631683,1.4185,-9.63574,-8.15869,-3.91223,88.467
2023-03-11 18:04:10:712,-0.64014,1.41921,-9.6368,-8.16858,-3.92848,88.4692
2023-03-11 18:04:10:722,-0.643125,1.41719,-9.63943,-8.17926,-3.94383,88.4707
2023-03-11 18:04:10:732,-0.661611,1.46381,-9.65303,-8.19203,-3.96075,88.4787
2023-03-11 18:04:10:742,-0.684783,1.49524,-9.6824,-8.20931,-3.97726,88.4875
2023-03-11 18:04:10:752,-0.709939,1.49628,-9.72273,-8.22365,-3.99336,88.4967
2023-03-11 18:04:10:762,-0.719917,1.49804,-9.73375,-8.23512,-4.00804,88.5041
2023-03-11 18:04:10:772,-0.730709,1.48835,-9.70989,-8.23865,-4.01925,88.5138
2023-03-11 18:04:10:782,-0.762754,1.46926,-9.67732,-8.23822,-4.02443,88.5233
2023-03-11 18:04:10:792,-0.801779,1.467,-9.6261,-8.23835,-4.02414,88.5325
2023-03-11 18:04:10:802,-0.849893,1.47538,-9.56753,-8.23475,-4.01641,88.5376
2023-03-11 18:04:10:812,-0.900835,1.46886,-9.57703,-8.23656,-4.00705,88.5382
2023-03-11 18:04:10:822,-0.89303,1.48426,-9.60755,-8.23634,-3.98745,88.53
2023-03-11 18:04:10:832,-0.869894,1.49755,-9.63244,-8.23846,-3.96389,88.5193
2023-03-11 18:04:10:842,-0.851042,1.49532,-9.65203,-8.24189,-3.9417,88.5051
2023-03-11 18:04:10:852,-0.800942,1.48831,-9.66995,-8.24604,-3.91437,88.4852
2023-03-11 18:04:10:862,-0.777949,1.48686,-9.67173,-8.24409,-3.88616,88.4609
2023-03-11 18:04:10:872,-0.729556,1.47742,-9.67243,-8.24051,-3.85863,88.4331
2023-03-11 18:04:10:882,-0.68301,1.48081,-9.67269,-8.23733,-3.82548,88.403
2023-03-11 18:04:10:892,-0.637483,1.48084,-9.67073,-8.23332,-3.79579,88.3667
2023-03-11 18:04:10:902,-0.591636,1.46787,-9.68104,-8.22849,-3.76721,88.332
2023-03-11 18:04:10:912,-0.554891,1.45296,-9.66326,-8.22278,-3.74322,88.3024
2023-03-11 18:04:10:922,-0.518967,1.43997,-9.64392,-8.21709,-3.71687,88.2728
2023-03-11 18:04:10:932,-0.483965,1.4413,-9.64048,-8.21376,-3.69306,88.2447
2023-03-11 18:04:10:942,-0.457581,1.43752,-9.64326,-8.212,-3.67263,88.2216
2023-03-11 18:04:10:952,-0.454392,1.42289,-9.64882,-8.20879,-3.65559,88.2025
2023-03-11 18:04:10:962,-0.457321,1.41132,-9.64166,-8.20737,-3.64247,88.1911
2023-03-11 18:04:10:972,-0.466075,1.42867,-9.63566,-8.20498,-3.6339,88.1841
2023-03-11 18:04:10:982,-0.475012,1.44615,-9.65581,-8.20692,-3.62593,88.183
2023-03-11 18:04:10:992,-0.489582,1.45169,-9.66372,-8.21331,-3.62201,88.1816
2023-03-11 18:04:11:2,-0.502572,1.46463,-9.65829,-8.21683,-3.61971,88.1874
2023-03-11 18:04:11:12,-0.508356,1.46852,-9.65321,-8.21874,-3.62133,88.1937
2023-03-11 18:04:11:22,-0.489907,1.44079,-9.67363,-8.22166,-3.62519,88.2023
2023-03-11 18:04:11:32,-0.478596,1.44625,-9.68295,-8.2254,-3.63319,88.2146
2023-03-11 18:04:11:42,-0.474623,1.44613,-9.69005,-8.22778,-3.63953,88.2301
2023-03-11 18:04:11:52,-0.476796,1.44266,-9.68092,-8.2325,-3.65311,88.2465
2023-03-11 18:04:11:62,-0.500112,1.44323,-9.65845,-8.23309,-3.6781,88.2683
2023-03-11 18:04:11:72,-0.531162,1.44645,-9.64466,-8.23736,-3.70437,88.2937
2023-03-11 18:04:11:82,-0.566911,1.44801,-9.63837,-8.24578,-3.73029,88.3182
2023-03-11 18:04:11:92,-0.586901,1.44424,-9.65828,-8.25113,-3.75762,88.3487
2023-03-11 18:04:11:102,-0.607316,1.44827,-9.66393,-8.25781,-3.78585,88.3771
2023-03-11 18:04:11:112,-0.625042,1.46677,-9.68648,-8.26609,-3.81418,88.4095
2023-03-11 18:04:11:122,-0.64556,1.46617,-9.72035,-8.27122,-3.84583,88.4392
2023-03-11 18:04:11:132,-0.683918,1.47907,-9.73113,-8.27431,-3.88239,88.4658
2023-03-11 18:04:11:142,-0.696109,1.47991,-9.71429,-8.27453,-3.9175,88.4967
2023-03-11 18:04:11:152,-0.726321,1.47478,-9.68205,-8.26923,-3.95405,88.5202
2023-03-11 18:04:11:162,-0.768875,1.47122,-9.6531,-8.25621,-3.98912,88.5384
2023-03-11 18:04:11:172,-0.798953,1.46031,-9.65128,-8.24573,-4.02386,88.5564
2023-03-11 18:04:11:182,-0.799303,1.45123,-9.67452,-8.23483,-4.05243,88.5719
2023-03-11 18:04:11:192,-0.774014,1.44513,-9.71801,-8.2216,-4.08129,88.5834
2023-03-11 18:04:11:202,-0.740821,1.43196,-9.74353,-8.20482,-4.10506,88.5902
2023-03-11 18:04:11:212,-0.711639,1.43043,-9.73546,-8.18787,-4.12862,88.5937
2023-03-11 18:04:11:222,-0.717518,1.40825,-9.70137,-8.16871,-4.15262,88.6006
2023-03-11 18:04:11:232,-0.731024,1.38544,-9.66427,-8.1512,-4.17477,88.6063
2023-03-11 18:04:11:242,-0.736901,1.38375,-9.62265,-8.13316,-4.19751,88.6125
2023-03-11 18:04:11:252,-0.730851,1.38329,-9.61038,-8.11597,-4.21913,88.6205
2023-03-11 18:04:11:262,-0.729492,1.3816,-9.6012,-8.10374,-4.23406,88.6332
2023-03-11 18:04:11:272,-0.716828,1.3868,-9.58181,-8.09557,-4.24457,88.6453
2023-03-11 18:04:11:282,-0.744399,1.38948,-9.5774,-8.08841,-4.25496,88.6599
2023-03-11 18:04:11:292,-0.763619,1.39076,-9.58702,-8.0827,-4.26273,88.674
2023-03-11 18:04:11:302,-0.791261,1.39318,-9.59251,-8.07865,-4.265,88.6903
2023-03-11 18:04:11:312,-0.821067,1.39179,-9.59941,-8.07341,-4.26862,88.7067
2023-03-11 18:04:11:322,-0.818021,1.39404,-9.61011,-8.0691,-4.26645,88.7188
2023-03-11 18:04:11:332,-0.819619,1.38993,-9.613,-8.0671,-4.26284,88.7227
2023-03-11 18:04:11:342,-0.827094,1.38453,-9.62685,-8.06363,-4.25691,88.7256
2023-03-11 18:04:11:352,-0.837074,1.38145,-9.63063,-8.06385,-4.2518,88.7217
2023-03-11 18:04:11:362,-0.8334,1.38441,-9.64238,-8.06821,-4.2468,88.7162
2023-03-11 18:04:11:372,-0.827057,1.39762,-9.66596,-8.07364,-4.23446,88.7082
2023-03-11 18:04:11:382,-0.813621,1.41923,-9.68017,-8.08096,-4.22674,88.6986
2023-03-11 18:04:11:392,-0.768967,1.42194,-9.67545,-8.08648,-4.21683,88.6807
2023-03-11 18:04:11:402,-0.742091,1.39785,-9.65013,-8.09105,-4.20796,88.6607
2023-03-11 18:04:11:412,-0.753958,1.39756,-9.64546,-8.09648,-4.19534,88.6416
2023-03-11 18:04:11:422,-0.760273,1.41881,-9.65565,-8.10534,-4.18473,88.6218
2023-03-11 18:04:11:432,-0.743752,1.44474,-9.67226,-8.11368,-4.16749,88.6007
2023-03-11 18:04:11:442,-0.689756,1.44986,-9.69735,-8.11679,-4.14825,88.5792
2023-03-11 18:04:11:452,-0.633596,1.43878,-9.69302,-8.11277,-4.1293,88.559
2023-03-11 18:04:11:462,-0.631859,1.41916,-9.65926,-8.11369,-4.10951,88.5436
2023-03-11 18:04:11:472,-0.644509,1.40753,-9.63854,-8.11308,-4.09582,88.5342
2023-03-11 18:04:11:482,-0.670342,1.40112,-9.63612,-8.11214,-4.08067,88.5223
2023-03-11 18:04:11:492,-0.667421,1.41067,-9.62435,-8.1121,-4.06737,88.5136
2023-03-11 18:04:11:502,-0.648539,1.41178,-9.64728,-8.11475,-4.05558,88.5089
2023-03-11 18:04:11:512,-0.635902,1.42301,-9.66881,-8.11804,-4.0385,88.5053
2023-03-11 18:04:11:522,-0.635083,1.43141,-9.68225,-8.1222,-4.02831,88.5074
2023-03-11 18:04:11:532,-0.639339,1.43883,-9.67543,-8.12743,-4.01832,88.507
2023-03-11 18:04:11:542,-0.649333,1.43986,-9.67639,-8.13233,-4.00969,88.5098
2023-03-11 18:04:11:552,-0.66049,1.45076,-9.67584,-8.13518,-4.00666,88.5138
2023-03-11 18:04:11:562,-0.665412,1.46034,-9.68078,-8.13825,-4.00218,88.5153
2023-03-11 18:04:11:572,-0.685197,1.45033,-9.69992,-8.14123,-4.00316,88.5187
2023-03-11 18:04:11:582,-0.696543,1.46419,-9.68924,-8.13806,-4.00384,88.5241
2023-03-11 18:04:11:592,-0.695771,1.4678,-9.67985,-8.13541,-4.00122,88.5305
2023-03-11 18:04:11:602,-0.687439,1.45203,-9.69707,-8.13276,-3.99807,88.5338
2023-03-11 18:04:11:612,-0.696657,1.44794,-9.6967,-8.12506,-3.99993,88.5358
2023-03-11 18:04:11:622,-0.692195,1.42685,-9.68715,-8.1182,-3.99817,88.5366
2023-03-11 18:04:11:632,-0.69198,1.41965,-9.6536,-8.10814,-3.99733,88.5396
2023-03-11 18:04:11:642,-0.707119,1.41754,-9.64678,-8.10236,-3.99714,88.5421
2023-03-11 18:04:11:652,-0.714606,1.41011,-9.65364,-8.09747,-3.99836,88.5499
2023-03-11 18:04:11:662,-0.713918,1.40465,-9.65314,-8.08842,-3.9975,88.5549
2023-03-11 18:04:11:672,-0.702749,1.40192,-9.64504,-8.08473,-3.99653,88.5601
2023-03-11 18:04:11:682,-0.700101,1.38739,-9.65879,-8.07801,-3.99328,88.5656
2023-03-11 18:04:11:692,-0.707952,1.3946,-9.64755,-8.07214,-3.99289,88.5723
2023-03-11 18:04:11:702,-0.717758,1.41687,-9.64967,-8.06776,-3.98872,88.5797
2023-03-11 18:04:11:712,-0.719993,1.4168,-9.63706,-8.06609,-3.98527,88.585
2023-03-11 18:04:11:722,-0.72901,1.40364,-9.62741,-8.0656,-3.98403,88.5853
2023-03-11 18:04:11:732,-0.73431,1.41763,-9.6133,-8.06389,-3.97786,88.5875
2023-03-11 18:04:11:742,-0.742223,1.41872,-9.60673,-8.06504,-3.96975,88.5889
2023-03-11 18:04:11:752,-0.752003,1.40962,-9.61016,-8.06769,-3.95901,88.5891
2023-03-11 18:04:11:762,-0.759773,1.40505,-9.63131,-8.07087,-3.94865,88.5878
2023-03-11 18:04:11:772,-0.760921,1.42292,-9.65185,-8.06979,-3.9356,88.5794
2023-03-11 18:04:11:782,-0.745278,1.43224,-9.66098,-8.07528,-3.92146,88.5676
2023-03-11 18:04:11:792,-0.742132,1.42581,-9.66407,-8.08049,-3.91166,88.5551
2023-03-11 18:04:11:802,-0.732194,1.43973,-9.66838,-8.0824,-3.90018,88.5406
2023-03-11 18:04:11:812,-0.699129,1.42434,-9.66954,-8.08588,-3.88682,88.5247
2023-03-11 18:04:11:822,-0.689523,1.42778,-9.66121,-8.09191,-3.8749,88.5072
2023-03-11 18:04:11:832,-0.669922,1.44284,-9.66296,-8.09629,-3.86237,88.4875
2023-03-11 18:04:11:842,-0.649604,1.44435,-9.66577,-8.10122,-3.85046,88.4675
2023-03-11 18:04:11:852,-0.63738,1.43306,-9.68564,-8.10789,-3.83893,88.4496
2023-03-11 18:04:11:862,-0.6399,1.43189,-9.69097,-8.11409,-3.82573,88.4315
2023-03-11 18:04:11:872,-0.622768,1.42681,-9.70597,-8.11883,-3.81327,88.4127
2023-03-11 18:04:11:882,-0.61348,1.44696,-9.68304,-8.11805,-3.80027,88.3991
2023-03-11 18:04:11:892,-0.606411,1.44146,-9.67863,-8.11573,-3.79036,88.3861
2023-03-11 18:04:11:902,-0.603127,1.43185,-9.67731,-8.11122,-3.78062,88.3712
2023-03-11 18:04:11:912,-0.614935,1.43969,-9.66919,-8.10821,-3.76917,88.3634
2023-03-11 18:04:11:922,-0.624929,1.43636,-9.68531,-8.10276,-3.75451,88.3547
2023-03-11 18:04:11:932,-0.61465,1.42955,-9.70437,-8.09709,-3.73729,88.3504
2023-03-11 18:04:11:942,-0.608305,1.4336,-9.69041,-8.08914,-3.71788,88.3483
2023-03-11 18:04:11:952,-0.593908,1.41877,-9.6702,-8.08339,-3.70091,88.3446
2023-03-11 18:04:11:962,-0.582907,1.40876,-9.65915,-8.07306,-3.68371,88.3428
2023-03-11 18:04:11:972,-0.575998,1.40455,-9.65368,-8.06639,-3.67001,88.3393
2023-03-11 18:04:11:982,-0.574257,1.39041,-9.65825,-8.05628,-3.65948,88.3385
2023-03-11 18:04:11:992,-0.581559,1.39619,-9.6621,-8.05194,-3.64903,88.3359
2023-03-11 18:04:12:2,-0.573787,1.39963,-9.69566,-8.04794,-3.63756,88.3332
2023-03-11 18:04:12:12,-0.535594,1.40672,-9.71353,-8.0386,-3.62613,88.3285
2023-03-11 18:04:12:22,-0.515075,1.39722,-9.7202,-8.02982,-3.62102,88.3257
2023-03-11 18:04:12:32,-0.505387,1.38702,-9.71221,-8.02225,-3.62523,88.322
2023-03-11 18:04:12:42,-0.524871,1.38813,-9.69246,-8.01448,-3.63335,88.322
2023-03-11 18:04:12:52,-0.544028,1.38456,-9.68599,-8.00642,-3.64593,88.3227
2023-03-11 18:04:12:62,-0.571122,1.39545,-9.67636,-7.99778,-3.66092,88.329
2023-03-11 18:04:12:72,-0.587699,1.39514,-9.65329,-7.98957,-3.67542,88.3361
2023-03-11 18:04:12:82,-0.592248,1.37839,-9.61948,-7.98249,-3.69049,88.3463
2023-03-11 18:04:12:92,-0.612227,1.3754,-9.58201,-7.97573,-3.70662,88.3568
2023-03-11 18:04:12:102,-0.640606,1.35757,-9.56255,-7.97125,-3.72412,88.3681
2023-03-11 18:04:12:112,-0.66659,1.37247,-9.57299,-7.9731,-3.7381,88.3786
2023-03-11 18:04:12:122,-0.659849,1.37512,-9.59482,-7.97683,-3.74794,88.3885
2023-03-11 18:04:12:132,-0.653979,1.37712,-9.60496,-7.98559,-3.75915,88.3985
2023-03-11 18:04:12:142,-0.654826,1.37781,-9.60925,-7.9935,-3.7707,88.4043
2023-03-11 18:04:12:152,-0.647367,1.37519,-9.63667,-8.00743,-3.77809,88.4079
2023-03-11 18:04:12:162,-0.650974,1.38899,-9.65666,-8.02582,-3.78439,88.4131
2023-03-11 18:04:12:172,-0.652094,1.39399,-9.68442,-8.04155,-3.7925,88.4163
2023-03-11 18:04:12:182,-0.64924,1.41686,-9.70243,-8.05741,-3.79744,88.42
2023-03-11 18:04:12:192,-0.647132,1.43341,-9.69783,-8.07024,-3.80068,88.4233
2023-03-11 18:04:12:202,-0.652851,1.44107,-9.68076,-8.08318,-3.8023,88.4259
2023-03-11 18:04:12:212,-0.647155,1.43203,-9.63654,-8.09502,-3.8081,88.4294
2023-03-11 18:04:12:222,-0.653324,1.42972,-9.62372,-8.10868,-3.80906,88.4357
2023-03-11 18:04:12:232,-0.661543,1.44656,-9.64426,-8.12329,-3.80336,88.44
2023-03-11 18:04:12:242,-0.668007,1.46023,-9.66966,-8.13858,-3.80116,88.4462
2023-03-11 18:04:12:252,-0.626354,1.47838,-9.69997,-8.1517,-3.79499,88.4488
2023-03-11 18:04:12:262,-0.592984,1.48175,-9.74124,-8.15765,-3.79162,88.451
2023-03-11 18:04:12:272,-0.606001,1.48588,-9.74689,-8.16242,-3.79512,88.4562
2023-03-11 18:04:12:282,-0.647563,1.49096,-9.72944,-8.15755,-3.79603,88.4616
2023-03-11 18:04:12:292,-0.679243,1.4879,-9.69784,-8.15238,-3.79365,88.4643
2023-03-11 18:04:12:302,-0.693572,1.46353,-9.67648,-8.14241,-3.79742,88.466
2023-03-11 18:04:12:312,-0.681538,1.4489,-9.67125,-8.13341,-3.79628,88.4698
2023-03-11 18:04:12:322,-0.672697,1.45447,-9.67803,-8.12778,-3.79381,88.4695
2023-03-11 18:04:12:332,-0.675963,1.46171,-9.67891,-8.11925,-3.7919,88.4699
2023-03-11 18:04:12:342,-0.677259,1.44388,-9.68448,-8.10749,-3.79071,88.467
2023-03-11 18:04:12:352,-0.674914,1.4347,-9.66815,-8.09514,-3.79075,88.4602
2023-03-11 18:04:12:362,-0.668756,1.43057,-9.65439,-8.08451,-3.79275,88.454
2023-03-11 18:04:12:372,-0.676062,1.43444,-9.66033,-8.07219,-3.79492,88.4462
2023-03-11 18:04:12:382,-0.658323,1.42376,-9.66404,-8.06029,-3.79561,88.4392
2023-03-11 18:04:12:392,-0.654324,1.4156,-9.66298,-8.0448,-3.79939,88.4286
2023-03-11 18:04:12:402,-0.644537,1.40502,-9.64185,-8.03185,-3.80116,88.4215
2023-03-11 18:04:12:412,-0.623126,1.39866,-9.62565,-8.01792,-3.8073,88.4124
2023-03-11 18:04:12:422,-0.620299,1.36794,-9.62747,-8.00511,-3.8102,88.4085
2023-03-11 18:04:12:432,-0.634381,1.3601,-9.62403,-7.99238,-3.81617,88.404
2023-03-11 18:04:12:442,-0.652194,1.36643,-9.61358,-7.98495,-3.82297,88.4018
2023-03-11 18:04:12:452,-0.6658,1.3648,-9.62731,-7.98059,-3.82938,88.3999
2023-03-11 18:04:12:462,-0.674678,1.36573,-9.61999,-7.98097,-3.83172,88.4051
2023-03-11 18:04:12:472,-0.682783,1.37558,-9.63083,-7.98154,-3.83303,88.4089
2023-03-11 18:04:12:482,-0.695968,1.38357,-9.6343,-7.98716,-3.8374,88.4152
2023-03-11 18:04:12:492,-0.706822,1.39494,-9.63571,-7.99026,-3.83686,88.4221
2023-03-11 18:04:12:502,-0.705796,1.40298,-9.63163,-7.99536,-3.83614,88.4252
2023-03-11 18:04:12:512,-0.710132,1.41267,-9.62221,-8.00253,-3.83191,88.4292
2023-03-11 18:04:12:522,-0.699893,1.43368,-9.61155,-8.0102,-3.82844,88.4328
2023-03-11 18:04:12:532,-0.709342,1.42718,-9.62294,-8.02159,-3.8257,88.4357
2023-03-11 18:04:12:542,-0.710145,1.43759,-9.61439,-8.03087,-3.823,88.4372
2023-03-11 18:04:12:552,-0.695233,1.41956,-9.62427,-8.0391,-3.81939,88.4373
2023-03-11 18:04:12:562,-0.689445,1.42262,-9.62289,-8.0516,-3.81695,88.4352
2023-03-11 18:04:12:572,-0.666536,1.44053,-9.61948,-8.06344,-3.81225,88.4345
2023-03-11 18:04:12:582,-0.650976,1.43,-9.64524,-8.07932,-3.80774,88.4307
2023-03-11 18:04:12:592,-0.649644,1.41947,-9.65891,-8.09028,-3.80332,88.4286
2023-03-11 18:04:12:602,-0.648806,1.42927,-9.65718,-8.10603,-3.79701,88.4266
2023-03-11 18:04:12:612,-0.652734,1.44201,-9.67822,-8.12555,-3.79166,88.427
2023-03-11 18:04:12:622,-0.651021,1.46502,-9.6988,-8.13995,-3.78813,88.4256
2023-03-11 18:04:12:632,-0.650104,1.50022,-9.70824,-8.15299,-3.7825,88.4252
2023-03-11 18:04:12:642,-0.638462,1.50004,-9.73247,-8.16397,-3.77702,88.4235
2023-03-11 18:04:12:652,-0.634285,1.49189,-9.71859,-8.1732,-3.77475,88.4227
2023-03-11 18:04:12:662,-0.642337,1.5031,-9.68903,-8.18004,-3.77617,88.4206
2023-03-11 18:04:12:672,-0.64596,1.49446,-9.6969,-8.18412,-3.77338,88.4179
2023-03-11 18:04:12:682,-0.642434,1.48623,-9.69349,-8.1867,-3.77401,88.4142
2023-03-11 18:04:12:692,-0.639585,1.47303,-9.70043,-8.18694,-3.77782,88.4103
2023-03-11 18:04:12:702,-0.633254,1.47803,-9.67723,-8.18509,-3.77902,88.4043
2023-03-11 18:04:12:712,-0.634011,1.48042,-9.6576,-8.184,-3.77973,88.3982
2023-03-11 18:04:12:722,-0.632382,1.45342,-9.65634,-8.17986,-3.78089,88.3967
2023-03-11 18:04:12:732,-0.644149,1.44596,-9.65561,-8.1793,-3.77853,88.3917
2023-03-11 18:04:12:742,-0.647591,1.4346,-9.66299,-8.17824,-3.77493,88.3915
2023-03-11 18:04:12:752,-0.647521,1.44015,-9.67056,-8.1758,-3.77098,88.3918
2023-03-11 18:04:12:762,-0.644317,1.44618,-9.68872,-8.17319,-3.76792,88.3953
2023-03-11 18:04:12:772,-0.647211,1.45401,-9.69238,-8.16618,-3.76571,88.3959
2023-03-11 18:04:12:782,-0.639979,1.45079,-9.66388,-8.15867,-3.76258,88.399
2023-03-11 18:04:12:792,-0.635552,1.44014,-9.66167,-8.15012,-3.75576,88.3993
2023-03-11 18:04:12:802,-0.642404,1.42553,-9.65358,-8.14271,-3.74798,88.4022
2023-03-11 18:04:12:812,-0.629439,1.41837,-9.64735,-8.13365,-3.73839,88.4042
2023-03-11 18:04:12:822,-0.611948,1.40978,-9.68182,-8.12797,-3.72567,88.4046
2023-03-11 18:04:12:832,-0.591457,1.42435,-9.71546,-8.1206,-3.71578,88.4016
2023-03-11 18:04:12:842,-0.556061,1.42389,-9.71518,-8.11263,-3.70756,88.3955
2023-03-11 18:04:12:852,-0.541896,1.40093,-9.6885,-8.0997,-3.70205,88.393
2023-03-11 18:04:12:862,-0.559327,1.38312,-9.65789,-8.08898,-3.70321,88.3953
2023-03-11 18:04:12:872,-0.570179,1.36749,-9.62556,-8.08066,-3.71003,88.3977
2023-03-11 18:04:12:882,-0.566542,1.35308,-9.61351,-8.07589,-3.71383,88.3995
2023-03-11 18:04:12:892,-0.58013,1.36365,-9.60417,-8.0715,-3.71757,88.4034
2023-03-11 18:04:12:902,-0.584255,1.38484,-9.60115,-8.07212,-3.71997,88.4085
2023-03-11 18:04:12:912,-0.592448,1.40397,-9.60449,-8.07248,-3.72259,88.4118
2023-03-11 18:04:12:922,-0.617401,1.41014,-9.60255,-8.07794,-3.72701,88.4232
2023-03-11 18:04:12:932,-0.643922,1.42387,-9.59845,-8.08533,-3.7353,88.4319
2023-03-11 18:04:12:942,-0.665765,1.42436,-9.6272,-8.09418,-3.74001,88.4409
2023-03-11 18:04:12:952,-0.673993,1.43522,-9.62173,-8.10009,-3.74487,88.4475
2023-03-11 18:04:12:962,-0.681048,1.44114,-9.62388,-8.10317,-3.74667,88.4494
2023-03-11 18:04:12:972,-0.696516,1.43972,-9.62915,-8.10854,-3.74882,88.4503
2023-03-11 18:04:12:982,-0.689077,1.42928,-9.6428,-8.11655,-3.74968,88.4481
2023-03-11 18:04:12:992,-0.667045,1.43895,-9.66848,-8.12451,-3.74937,88.4442
2023-03-11 18:04:13:2,-0.658011,1.44543,-9.69182,-8.13233,-3.74785,88.4398
2023-03-11 18:04:13:12,-0.652971,1.44249,-9.71004,-8.14482,-3.74425,88.4303
2023-03-11 18:04:13:22,-0.634068,1.45446,-9.68754,-8.15527,-3.74432,88.4236
2023-03-11 18:04:13:32,-0.616596,1.44893,-9.65645,-8.16285,-3.74268,88.4206
2023-03-11 18:04:13:42,-0.609574,1.4384,-9.64097,-8.17354,-3.74027,88.4145
2023-03-11 18:04:13:52,-0.629817,1.44462,-9.64316,-8.18391,-3.73728,88.4118
2023-03-11 18:04:13:62,-0.646341,1.45893,-9.65823,-8.19208,-3.73083,88.41
2023-03-11 18:04:13:72,-0.584685,1.47078,-9.67403,-8.19659,-3.71931,88.4079
2023-03-11 18:04:13:82,-0.546625,1.45726,-9.69424,-8.19777,-3.71187,88.4058
2023-03-11 18:04:13:92,-0.553872,1.44289,-9.67429,-8.20014,-3.70761,88.405
2023-03-11 18:04:13:102,-0.574744,1.42447,-9.64054,-8.20205,-3.70778,88.409
2023-03-11 18:04:13:112,-0.611112,1.43992,-9.64113,-8.20281,-3.71157,88.4144
2023-03-11 18:04:13:122,-0.630904,1.44369,-9.64947,-8.2052,-3.7123,88.4214
2023-03-11 18:04:13:132,-0.613212,1.44167,-9.67277,-8.20869,-3.71389,88.4288
2023-03-11 18:04:13:142,-0.611733,1.45234,-9.69346,-8.21039,-3.71698,88.4322
2023-03-11 18:04:13:152,-0.6029,1.45677,-9.69073,-8.21431,-3.71854,88.4359
2023-03-11 18:04:13:162,-0.602668,1.46676,-9.68396,-8.21607,-3.72527,88.4436
2023-03-11 18:04:13:172,-0.621128,1.48995,-9.67017,-8.21866,-3.73114,88.4494
2023-03-11 18:04:13:182,-0.612838,1.48343,-9.66341,-8.22194,-3.74068,88.4529
2023-03-11 18:04:13:192,-0.612082,1.48379,-9.66926,-8.22306,-3.74989,88.4598
2023-03-11 18:04:13:202,-0.629501,1.48898,-9.66132,-8.22494,-3.75711,88.4673
2023-03-11 18:04:13:212,-0.641166,1.48082,-9.67933,-8.22661,-3.76848,88.4728
2023-03-11 18:04:13:222,-0.644396,1.46757,-9.68118,-8.22496,-3.78132,88.4798
2023-03-11 18:04:13:232,-0.648317,1.47106,-9.67572,-8.22205,-3.79377,88.4853
2023-03-11 18:04:13:242,-0.635556,1.46917,-9.68119,-8.21302,-3.80789,88.4899
2023-03-11 18:04:13:252,-0.658027,1.45495,-9.67562,-8.20529,-3.81919,88.4951
2023-03-11 18:04:13:262,-0.67472,1.45756,-9.66855,-8.19632,-3.82901,88.5022
2023-03-11 18:04:13:272,-0.695278,1.45595,-9.67662,-8.18422,-3.83897,88.5112
2023-03-11 18:04:13:282,-0.718428,1.46757,-9.69785,-8.17346,-3.8488,88.5195
2023-03-11 18:04:13:292,-0.711131,1.47537,-9.71672,-8.16214,-3.85444,88.5304
2023-03-11 18:04:13:302,-0.725526,1.46384,-9.69224,-8.14363,-3.85801,88.5425
2023-03-11 18:04:13:312,-0.726595,1.44729,-9.65539,-8.12526,-3.8571,88.5524
2023-03-11 18:04:13:322,-0.749346,1.43641,-9.62993,-8.11001,-3.85624,88.5622
2023-03-11 18:04:13:332,-0.742941,1.43898,-9.62052,-8.09228,-3.85533,88.5688
2023-03-11 18:04:13:342,-0.739816,1.42411,-9.62478,-8.07962,-3.85292,88.5757
2023-03-11 18:04:13:352,-0.718286,1.43072,-9.60069,-8.06458,-3.85184,88.5756
2023-03-11 18:04:13:362,-0.707044,1.41942,-9.60156,-8.04828,-3.84725,88.5789
2023-03-11 18:04:13:372,-0.717346,1.40327,-9.60511,-8.04045,-3.84864,88.573
2023-03-11 18:04:13:382,-0.712312,1.40283,-9.61044,-8.03985,-3.85173,88.571
2023-03-11 18:04:13:392,-0.688123,1.40509,-9.61045,-8.03393,-3.852,88.5699
2023-03-11 18:04:13:402,-0.684423,1.39581,-9.62911,-8.03068,-3.84937,88.5621
2023-03-11 18:04:13:412,-0.689428,1.39972,-9.63995,-8.02914,-3.84573,88.5562
2023-03-11 18:04:13:422,-0.690695,1.40677,-9.63072,-8.02824,-3.84062,88.5506
2023-03-11 18:04:13:432,-0.660132,1.4063,-9.64167,-8.02721,-3.83628,88.5421
2023-03-11 18:04:13:442,-0.646738,1.40651,-9.64636,-8.02693,-3.82978,88.5358
2023-03-11 18:04:13:452,-0.637367,1.41615,-9.64431,-8.03233,-3.82111,88.5333
2023-03-11 18:04:13:462,-0.616732,1.42306,-9.65325,-8.03845,-3.81979,88.5326
2023-03-11 18:04:13:472,-0.617833,1.43277,-9.65247,-8.04292,-3.81429,88.5289
2023-03-11 18:04:13:482,-0.625738,1.42418,-9.66338,-8.04739,-3.81039,88.5237
2023-03-11 18:04:13:492,-0.625688,1.44263,-9.66267,-8.05328,-3.8071,88.5222
2023-03-11 18:04:13:502,-0.621372,1.44969,-9.68246,-8.05587,-3.8073,88.522
2023-03-11 18:04:13:512,-0.618885,1.445,-9.69821,-8.05724,-3.80833,88.5235
2023-03-11 18:04:13:522,-0.624943,1.42973,-9.6928,-8.05765,-3.80901,88.524
2023-03-11 18:04:13:532,-0.654412,1.4313,-9.6744,-8.05759,-3.81419,88.526
2023-03-11 18:04:13:542,-0.66469,1.44221,-9.67354,-8.05772,-3.81472,88.5272
2023-03-11 18:04:13:552,-0.678309,1.44241,-9.68752,-8.0598,-3.82077,88.529
2023-03-11 18:04:13:562,-0.693785,1.44568,-9.68997,-8.05867,-3.82258,88.5325
2023-03-11 18:04:13:572,-0.700069,1.4301,-9.68236,-8.05473,-3.82277,88.5345
2023-03-11 18:04:13:582,-0.703272,1.41558,-9.68298,-8.04442,-3.81823,88.536
2023-03-11 18:04:13:592,-0.696469,1.40694,-9.66093,-8.03139,-3.81215,88.5369
2023-03-11 18:04:13:602,-0.682323,1.38895,-9.6558,-8.01796,-3.80828,88.5357
2023-03-11 18:04:13:612,-0.671642,1.37667,-9.64652,-8.01035,-3.80232,88.5315
2023-03-11 18:04:13:622,-0.654518,1.36958,-9.64252,-7.99817,-3.79632,88.5299
2023-03-11 18:04:13:632,-0.64325,1.35886,-9.65086,-7.99089,-3.78702,88.5269
2023-03-11 18:04:13:642,-0.630634,1.36634,-9.69007,-7.98554,-3.78213,88.5213
2023-03-11 18:04:13:652,-0.604863,1.38508,-9.72378,-7.97734,-3.77622,88.5178
2023-03-11 18:04:13:662,-0.588927,1.38308,-9.73465,-7.9712,-3.7751,88.5173
2023-03-11 18:04:13:672,-0.601135,1.36665,-9.70271,-7.96378,-3.77722,88.5159
2023-03-11 18:04:13:682,-0.640418,1.35499,-9.67278,-7.95405,-3.78192,88.5167
2023-03-11 18:04:13:692,-0.662984,1.34402,-9.65553,-7.94619,-3.78621,88.5154
2023-03-11 18:04:13:702,-0.661378,1.35459,-9.64738,-7.94092,-3.78878,88.5134
2023-03-11 18:04:13:712,-0.662571,1.36565,-9.62575,-7.93881,-3.79182,88.511
2023-03-11 18:04:13:722,-0.655796,1.3665,-9.59953,-7.93404,-3.78946,88.5093
2023-03-11 18:04:13:732,-0.655624,1.37886,-9.57711,-7.93601,-3.78822,88.5076
2023-03-11 18:04:13:742,-0.683741,1.38373,-9.56824,-7.94172,-3.78896,88.5073
2023-03-11 18:04:13:752,-0.680711,1.38483,-9.58207,-7.94975,-3.78713,88.5043
2023-03-11 18:04:13:762,-0.683814,1.39388,-9.60294,-7.9545,-3.78606,88.5008
2023-03-11 18:04:13:772,-0.690765,1.39191,-9.61949,-7.9639,-3.78053,88.4987
2023-03-11 18:04:13:782,-0.664747,1.38759,-9.62883,-7.97196,-3.77348,88.4939
2023-03-11 18:04:13:792,-0.649021,1.39886,-9.63523,-7.98414,-3.76368,88.4904
2023-03-11 18:04:13:802,-0.653153,1.40994,-9.66356,-7.99531,-3.7526,88.4795
2023-03-11 18:04:13:812,-0.649267,1.42294,-9.68176,-8.00766,-3.7434,88.4715
2023-03-11 18:04:13:822,-0.636783,1.42845,-9.70708,-8.02228,-3.72885,88.457
2023-03-11 18:04:13:832,-0.625521,1.43248,-9.73594,-8.03535,-3.7173,88.4453
2023-03-11 18:04:13:842,-0.600556,1.44802,-9.71908,-8.04496,-3.71036,88.4308
2023-03-11 18:04:13:852,-0.595385,1.44104,-9.67787,-8.05579,-3.70267,88.4197
2023-03-11 18:04:13:862,-0.621157,1.44206,-9.64929,-8.06501,-3.69575,88.4078
2023-03-11 18:04:13:872,-0.64426,1.4505,-9.6335,-8.07503,-3.68471,88.3992
2023-03-11 18:04:13:882,-0.623657,1.46076,-9.6556,-8.08637,-3.66684,88.3894
2023-03-11 18:04:13:892,-0.545167,1.46086,-9.67866,-8.094,-3.6531,88.3795
2023-03-11 18:04:13:902,-0.50502,1.45637,-9.68035,-8.10017,-3.64481,88.3687
2023-03-11 18:04:13:912,-0.525671,1.45398,-9.66836,-8.10284,-3.63815,88.3614
2023-03-11 18:04:13:922,-0.568744,1.46552,-9.67543,-8.10218,-3.63164,88.3581
2023-03-11 18:04:13:932,-0.579648,1.45812,-9.68818,-8.10182,-3.62744,88.3531
2023-03-11 18:04:13:942,-0.570374,1.46347,-9.69131,-8.1021,-3.62313,88.3476
2023-03-11 18:04:13:952,-0.549224,1.45815,-9.68542,-8.10414,-3.61503,88.3424
2023-03-11 18:04:13:962,-0.546251,1.46913,-9.68705,-8.10809,-3.61173,88.343
2023-03-11 18:04:13:972,-0.554232,1.4654,-9.69262,-8.11207,-3.60994,88.346
2023-03-11 18:04:13:982,-0.570456,1.4838,-9.69668,-8.11236,-3.60923,88.3473
2023-03-11 18:04:13:992,-0.566826,1.47614,-9.7018,-8.1131,-3.6094,88.3473
2023-03-11 18:04:14:2,-0.575807,1.47205,-9.69105,-8.11722,-3.61161,88.3493
2023-03-11 18:04:14:12,-0.587534,1.47529,-9.68599,-8.11407,-3.61249,88.3517
2023-03-11 18:04:14:22,-0.580316,1.4852,-9.68036,-8.10655,-3.61422,88.3556
2023-03-11 18:04:14:32,-0.574888,1.47044,-9.68659,-8.0984,-3.61965,88.3608
2023-03-11 18:04:14:42,-0.564207,1.46292,-9.69517,-8.09016,-3.62191,88.3596
2023-03-11 18:04:14:52,-0.568179,1.46216,-9.68992,-8.07971,-3.63228,88.3595
2023-03-11 18:04:14:62,-0.566218,1.4413,-9.6922,-8.06864,-3.64077,88.3616
2023-03-11 18:04:14:72,-0.579948,1.42744,-9.67932,-8.05153,-3.65273,88.3602
2023-03-11 18:04:14:82,-0.59322,1.41309,-9.64802,-8.03921,-3.66681,88.3676
2023-03-11 18:04:14:92,-0.609797,1.39823,-9.63991,-8.02698,-3.67775,88.3744
2023-03-11 18:04:14:102,-0.629033,1.38563,-9.63007,-8.0171,-3.69205,88.3875
2023-03-11 18:04:14:112,-0.632631,1.38178,-9.63041,-8.00847,-3.70529,88.3982
2023-03-11 18:04:14:122,-0.64173,1.37813,-9.63541,-8.00183,-3.71204,88.407
2023-03-11 18:04:14:132,-0.647249,1.38897,-9.6333,-8.00171,-3.72162,88.4215
2023-03-11 18:04:14:142,-0.672808,1.41672,-9.64048,-8.0038,-3.73283,88.4344
2023-03-11 18:04:14:152,-0.689448,1.42745,-9.65131,-8.00558,-3.74032,88.4432
2023-03-11 18:04:14:162,-0.686438,1.41935,-9.6423,-8.00449,-3.74692,88.4496
2023-03-11 18:04:14:172,-0.678026,1.41043,-9.64404,-8.00384,-3.75233,88.455
2023-03-11 18:04:14:182,-0.689563,1.41242,-9.63598,-8.00393,-3.76074,88.4567
2023-03-11 18:04:14:192,-0.680143,1.41421,-9.6326,-8.00458,-3.77001,88.4582
2023-03-11 18:04:14:202,-0.678604,1.41412,-9.65412,-8.00735,-3.77371,88.4577
2023-03-11 18:04:14:212,-0.667146,1.4115,-9.66185,-8.00597,-3.77849,88.4565
2023-03-11 18:04:14:222,-0.646504,1.41472,-9.66274,-8.00905,-3.78082,88.4552
2023-03-11 18:04:14:232,-0.642579,1.41147,-9.66754,-8.00986,-3.78176,88.453
2023-03-11 18:04:14:242,-0.629573,1.41549,-9.65651,-8.01084,-3.7862,88.4489
2023-03-11 18:04:14:252,-0.628867,1.40604,-9.65557,-8.00952,-3.78892,88.4461
2023-03-11 18:04:14:262,-0.631832,1.40508,-9.66617,-8.00821,-3.78967,88.4438
2023-03-11 18:04:14:272,-0.6156,1.41337,-9.67174,-8.00713,-3.79139,88.442
2023-03-11 18:04:14:282,-0.629716,1.40994,-9.68066,-8.01009,-3.79549,88.4435
2023-03-11 18:04:14:292,-0.639432,1.4206,-9.68053,-8.01048,-3.79686,88.4421
2023-03-11 18:04:14:302,-0.646131,1.43041,-9.68595,-8.00832,-3.79889,88.4452
2023-03-11 18:04:14:312,-0.656608,1.43829,-9.69302,-8.00965,-3.80418,88.4471
2023-03-11 18:04:14:322,-0.644663,1.43477,-9.70189,-8.00543,-3.80975,88.4494
2023-03-11 18:04:14:332,-0.650126,1.4226,-9.68984,-7.99957,-3.81335,88.4503
2023-03-11 18:04:14:342,-0.656971,1.41825,-9.67206,-7.995,-3.81943,88.4508
2023-03-11 18:04:14:352,-0.654991,1.40039,-9.66922,-7.98745,-3.82398,88.4496
2023-03-11 18:04:14:362,-0.660033,1.38791,-9.65539,-7.97956,-3.82946,88.4486
2023-03-11 18:04:14:372,-0.667071,1.39166,-9.66849,-7.9753,-3.83337,88.4512
2023-03-11 18:04:14:382,-0.676374,1.41079,-9.68188,-7.96723,-3.83838,88.4505
2023-03-11 18:04:14:392,-0.670982,1.40982,-9.69289,-7.95992,-3.84464,88.4516
2023-03-11 18:04:14:402,-0.678482,1.41061,-9.68421,-7.9532,-3.84791,88.4518
2023-03-11 18:04:14:412,-0.679816,1.39265,-9.68346,-7.9404,-3.85058,88.4535
2023-03-11 18:04:14:422,-0.677053,1.37979,-9.66857,-7.92423,-3.85326,88.4531
2023-03-11 18:04:14:432,-0.671174,1.36697,-9.64625,-7.91358,-3.85609,88.4562
2023-03-11 18:04:14:442,-0.657052,1.36075,-9.62283,-7.90618,-3.85984,88.4572
2023-03-11 18:04:14:452,-0.65106,1.34407,-9.65405,-7.90107,-3.85911,88.4583
2023-03-11 18:04:14:462,-0.646165,1.35776,-9.68826,-7.89679,-3.85746,88.4592
2023-03-11 18:04:14:472,-0.597452,1.37663,-9.72928,-7.89329,-3.85697,88.4612
2023-03-11 18:04:14:482,-0.564301,1.37882,-9.74748,-7.88473,-3.86059,88.465
2023-03-11 18:04:14:492,-0.58533,1.35871,-9.7147,-7.87654,-3.86927,88.4658
2023-03-11 18:04:14:502,-0.613263,1.35489,-9.65596,-7.86755,-3.88199,88.4735
2023-03-11 18:04:14:512,-0.646798,1.34538,-9.63074,-7.86172,-3.89772,88.4845
2023-03-11 18:04:14:522,-0.676414,1.34543,-9.61192,-7.86084,-3.90961,88.496
2023-03-11 18:04:14:532,-0.687158,1.3474,-9.605,-7.86304,-3.92006,88.5063
2023-03-11 18:04:14:542,-0.707141,1.35719,-9.60217,-7.86727,-3.92997,88.5185
2023-03-11 18:04:14:552,-0.727625,1.37431,-9.59587,-7.8757,-3.93697,88.5344
2023-03-11 18:04:14:562,-0.749937,1.40315,-9.59748,-7.88419,-3.94614,88.5481
2023-03-11 18:04:14:572,-0.774102,1.42713,-9.61561,-7.89056,-3.95528,88.5562
2023-03-11 18:04:14:582,-0.787951,1.43654,-9.63126,-7.89618,-3.96137,88.5672
2023-03-11 18:04:14:592,-0.807135,1.42423,-9.64739,-7.89851,-3.96299,88.5685
2023-03-11 18:04:14:602,-0.792033,1.41848,-9.64411,-7.90126,-3.9633,88.5651
2023-03-11 18:04:14:612,-0.765117,1.4037,-9.64927,-7.90218,-3.95793,88.5596
2023-03-11 18:04:14:622,-0.748777,1.38751,-9.6608,-7.90405,-3.94704,88.5504
2023-03-11 18:04:14:632,-0.726242,1.3906,-9.66714,-7.90625,-3.94145,88.5403
2023-03-11 18:04:14:642,-0.695503,1.40248,-9.67701,-7.91055,-3.93207,88.5246
2023-03-11 18:04:14:652,-0.672637,1.39524,-9.701,-7.91786,-3.92154,88.5093
2023-03-11 18:04:14:662,-0.651107,1.41983,-9.69501,-7.92826,-3.90656,88.4917
2023-03-11 18:04:14:672,-0.622021,1.42572,-9.67189,-7.9352,-3.89112,88.4785
2023-03-11 18:04:14:682,-0.623414,1.40455,-9.67161,-7.94274,-3.88129,88.4661
2023-03-11 18:04:14:692,-0.629573,1.4237,-9.68292,-7.95067,-3.8691,88.4553
2023-03-11 18:04:14:702,-0.629237,1.438,-9.69046,-7.95735,-3.85262,88.442
2023-03-11 18:04:14:712,-0.590952,1.44813,-9.71517,-7.96036,-3.83452,88.4284
2023-03-11 18:04:14:722,-0.554354,1.44943,-9.73571,-7.95851,-3.82586,88.4161
2023-03-11 18:04:14:732,-0.617165,1.44522,-9.72691,-7.9522,-3.81732,88.4062
2023-03-11 18:04:14:742,-0.744097,1.45685,-9.69879,-7.94345,-3.8119,88.3959
2023-03-11 18:04:14:752,-0.834784,1.46619,-9.69741,-7.93375,-3.81291,88.3797
2023-03-11 18:04:14:762,-0.845896,1.46415,-9.71206,-7.92166,-3.80936,88.3549
2023-03-11 18:04:14:772,-0.839383,1.4397,-9.74308,-7.90585,-3.80292,88.3201
2023-03-11 18:04:14:782,-0.886273,1.43652,-9.76911,-7.8903,-3.7944,88.2797
2023-03-11 18:04:14:792,-1.04449,1.48669,-9.79287,-7.86895,-3.79366,88.2266
2023-03-11 18:04:14:802,-1.33599,1.53386,-9.80257,-7.84254,-3.79792,88.1531
2023-03-11 18:04:14:812,-1.61758,1.56971,-9.76442,-7.80851,-3.80459,88.0463
2023-03-11 18:04:14:822,-1.84221,1.5948,-9.71059,-7.76616,-3.81174,87.8946
2023-03-11 18:04:14:832,-2.02445,1.61515,-9.66984,-7.71452,-3.82235,87.6827
2023-03-11 18:04:14:842,-2.08569,1.6092,-9.67923,-7.65554,-3.83329,87.3978
2023-03-11 18:04:14:852,-1.97299,1.59621,-9.68709,-7.59211,-3.84516,87.0398
2023-03-11 18:04:14:862,-1.84022,1.54938,-9.66461,-7.52244,-3.86507,86.621
2023-03-11 18:04:14:872,-1.88118,1.54574,-9.6253,-7.44994,-3.88639,86.1467
2023-03-11 18:04:14:882,-2.14412,1.62481,-9.61678,-7.38196,-3.9152,85.6148
2023-03-11 18:04:14:892,-2.32988,1.71257,-9.70334,-7.31072,-3.94702,85.0081
2023-03-11 18:04:14:902,-2.20298,1.75306,-9.824,-7.22438,-3.97338,84.3175
2023-03-11 18:04:14:912,-1.86542,1.74044,-9.89903,-7.1236,-3.99171,83.5496
2023-03-11 18:04:14:922,-1.57988,1.69156,-9.8711,-7.00631,-4.00681,82.7279
2023-03-11 18:04:14:932,-1.47435,1.6181,-9.75586,-6.87698,-4.03109,81.864
2023-03-11 18:04:14:942,-1.48427,1.56052,-9.63341,-6.74023,-4.05074,80.9637
2023-03-11 18:04:14:952,-1.4281,1.53881,-9.60321,-6.611,-4.05977,80.0271
2023-03-11 18:04:14:962,-1.30488,1.53935,-9.60263,-6.4819,-4.05773,79.0552
2023-03-11 18:04:14:972,-1.2711,1.50534,-9.577,-6.35077,-4.04597,78.0631
2023-03-11 18:04:14:982,-1.23813,1.49654,-9.59621,-6.22075,-4.01812,77.0454
2023-03-11 18:04:14:992,-1.08068,1.50611,-9.61186,-6.0916,-3.98321,76.0054
2023-03-11 18:04:15:2,-0.985495,1.46023,-9.55809,-5.95576,-3.9474,74.9475
2023-03-11 18:04:15:12,-1.2079,1.47037,-9.50924,-5.83002,-3.9062,73.8835
2023-03-11 18:04:15:22,-1.57158,1.54685,-9.52044,-5.70682,-3.848,72.8031
2023-03-11 18:04:15:32,-1.60563,1.61904,-9.61694,-5.58212,-3.76389,71.677
2023-03-11 18:04:15:42,-1.26624,1.61986,-9.72728,-5.44545,-3.65549,70.5151
2023-03-11 18:04:15:52,-0.901098,1.5583,-9.78872,-5.30198,-3.53615,69.3316
2023-03-11 18:04:15:62,-0.763778,1.52184,-9.81472,-5.15149,-3.41152,68.1415
2023-03-11 18:04:15:72,-0.799591,1.51478,-9.80247,-4.99923,-3.28729,66.9406
2023-03-11 18:04:15:82,-0.84836,1.52692,-9.78514,-4.84124,-3.16382,65.7274
2023-03-11 18:04:15:92,-0.877269,1.53659,-9.7155,-4.67661,-3.0357,64.4973
2023-03-11 18:04:15:102,-0.83403,1.47425,-9.63002,-4.50547,-2.89838,63.2463
2023-03-11 18:04:15:112,-0.7194,1.41863,-9.53152,-4.33361,-2.75052,61.9756
2023-03-11 18:04:15:122,-0.604413,1.33825,-9.46058,-4.17073,-2.60039,60.6963
2023-03-11 18:04:15:132,-0.452733,1.27896,-9.42413,-4.02151,-2.44081,59.4099
2023-03-11 18:04:15:142,-0.252472,1.2329,-9.45146,-3.88466,-2.27456,58.1206
2023-03-11 18:04:15:152,-0.0411515,1.17187,-9.49816,-3.76109,-2.10416,56.8399
2023-03-11 18:04:15:162,-0.00467191,1.14013,-9.5405,-3.64986,-1.93889,55.5779
2023-03-11 18:04:15:172,-0.141829,1.19294,-9.5761,-3.55195,-1.77315,54.3361
2023-03-11 18:04:15:182,-0.329832,1.27062,-9.64837,-3.45467,-1.59975,53.1028
2023-03-11 18:04:15:192,-0.41828,1.29446,-9.70195,-3.3546,-1.40878,51.8747
2023-03-11 18:04:15:202,-0.305297,1.28084,-9.73836,-3.2404,-1.1944,50.644
2023-03-11 18:04:15:212,0.0290864,1.16965,-9.71548,-3.10848,-0.962042,49.4157
2023-03-11 18:04:15:222,0.429216,0.969974,-9.62037,-2.97026,-0.719683,48.2023
2023-03-11 18:04:15:232,0.693755,0.807618,-9.50367,-2.84125,-0.482126,47.0189
2023-03-11 18:04:15:242,0.705812,0.718677,-9.40483,-2.73445,-0.253045,45.8672
2023-03-11 18:04:15:252,0.652067,0.726162,-9.34636,-2.64996,-0.0367922,44.7462
2023-03-11 18:04:15:262,0.65208,0.713333,-9.36634,-2.58396,0.183527,43.6557
2023-03-11 18:04:15:272,0.740455,0.687508,-9.45607,-2.53533,0.405875,42.5944
2023-03-11 18:04:15:282,0.990412,0.662215,-9.59912,-2.48919,0.632857,41.572
2023-03-11 18:04:15:292,1.22079,0.61419,-9.63398,-2.44792,0.862846,40.5839
2023-03-11 18:04:15:302,1.32814,0.554542,-9.56728,-2.40773,1.08564,39.656
2023-03-11 18:04:15:312,1.18771,0.523715,-9.44069,-2.3691,1.30376,38.7834
2023-03-11 18:04:15:322,0.82689,0.522126,-9.32566,-2.34613,1.53002,37.9608
2023-03-11 18:04:15:332,0.642169,0.570433,-9.39166,-2.33591,1.76658,37.1631
2023-03-11 18:04:15:342,0.668887,0.566533,-9.5134,-2.33346,2.01069,36.3853
2023-03-11 18:04:15:352,0.867434,0.476703,-9.5715,-2.33488,2.25381,35.6256
2023-03-11 18:04:15:362,1.16422,0.348261,-9.5793,-2.34466,2.49762,34.891
2023-03-11 18:04:15:372,1.37195,0.297041,-9.58017,-2.36679,2.72276,34.1887
2023-03-11 18:04:15:382,1.21501,0.36803,-9.53465,-2.40549,2.91423,33.5252
2023-03-11 18:04:15:392,0.742457,0.497015,-9.52064,-2.4666,3.07693,32.8792
2023-03-11 18:04:15:402,0.3634,0.642506,-9.56299,-2.54385,3.22349,32.2313
2023-03-11 18:04:15:412,0.263597,0.730613,-9.61895,-2.62116,3.36404,31.565
2023-03-11 18:04:15:422,0.454244,0.706368,-9.64524,-2.69454,3.51268,30.8833
2023-03-11 18:04:15:432,0.766907,0.568141,-9.60246,-2.7676,3.66242,30.1945
2023-03-11 18:04:15:442,0.946587,0.490895,-9.52433,-2.85097,3.79756,29.5119
2023-03-11 18:04:15:452,0.895731,0.467736,-9.44878,-2.94974,3.91469,28.8351
2023-03-11 18:04:15:462,0.755136,0.497184,-9.44747,-3.06849,4.01893,28.1633
2023-03-11 18:04:15:472,0.643923,0.61497,-9.54266,-3.20184,4.11844,27.4827
2023-03-11 18:04:15:482,0.640033,0.672723,-9.6622,-3.33697,4.215,26.7999
2023-03-11 18:04:15:492,0.806417,0.669526,-9.73266,-3.47344,4.31482,26.1067
2023-03-11 18:04:15:502,1.08924,0.631719,-9.71399,-3.60333,4.41242,25.4217
2023-03-11 18:04:15:512,1.23009,0.570531,-9.59944,-3.73912,4.49785,24.7495
2023-03-11 18:04:15:522,1.18156,0.572289,-9.52501,-3.88552,4.57147,24.1007
2023-03-11 18:04:15:532,1.0138,0.635314,-9.52454,-4.0504,4.63367,23.4705
2023-03-11 18:04:15:542,0.737796,0.793934,-9.5856,-4.22586,4.67887,22.8461
2023-03-11 18:04:15:552,0.505651,0.944115,-9.71508,-4.40909,4.7245,22.2177
2023-03-11 18:04:15:562,0.591575,1.02075,-9.86487,-4.587,4.77562,21.565
2023-03-11 18:04:15:572,1.07236,0.978009,-9.95642,-4.75285,4.82976,20.9006
2023-03-11 18:04:15:582,1.56781,0.862771,-9.88538,-4.90337,4.8808,20.2533
2023-03-11 18:04:15:592,1.79575,0.7427,-9.6673,-5.04309,4.91746,19.6365
2023-03-11 18:04:15:602,1.79939,0.653761,-9.44405,-5.19121,4.94555,19.0617
2023-03-11 18:04:15:612,1.71283,0.676644,-9.38378,-5.36144,4.96585,18.5289
2023-03-11 18:04:15:622,1.71437,0.787608,-9.49651,-5.54838,4.9857,18.0327
2023-03-11 18:04:15:632,1.81993,0.872158,-9.66074,-5.74836,5.00326,17.5762
2023-03-11 18:04:15:642,1.95709,0.940525,-9.80559,-5.9472,5.01989,17.1615
2023-03-11 18:04:15:652,2.11125,1.00897,-9.859,-6.13835,5.03177,16.7965
2023-03-11 18:04:15:662,2.20659,1.02599,-9.84011,-6.31838,5.04337,16.4868
2023-03-11 18:04:15:672,2.0388,1.07053,-9.79379,-6.48554,5.04062,16.2385
2023-03-11 18:04:15:682,1.68875,1.13108,-9.79231,-6.65009,5.02775,16.0357
2023-03-11 18:04:15:692,1.50554,1.25448,-9.85091,-6.81379,5.01418,15.8614
2023-03-11 18:04:15:702,1.6556,1.24855,-9.88003,-6.96194,5.00643,15.71
2023-03-11 18:04:15:712,1.95198,1.20358,-9.91707,-7.10494,5.00175,15.5949
2023-03-11 18:04:15:722,2.17581,1.22724,-9.91815,-7.24131,4.98897,15.5279
2023-03-11 18:04:15:732,2.19277,1.26336,-9.88807,-7.37519,4.96797,15.5182
2023-03-11 18:04:15:742,2.05568,1.37005,-9.90303,-7.50562,4.9406,15.5609
2023-03-11 18:04:15:752,1.94399,1.51473,-9.95201,-7.62151,4.91276,15.6469
2023-03-11 18:04:15:762,1.87018,1.59344,-9.99148,-7.72285,4.89001,15.7792
2023-03-11 18:04:15:772,1.87797,1.6464,-10.0469,-7.80524,4.88736,15.9597
2023-03-11 18:04:15:782,1.99383,1.65802,-10.0851,-7.86611,4.89483,16.1877
2023-03-11 18:04:15:792,2.1748,1.62123,-10.1372,-7.9,4.90504,16.4704
2023-03-11 18:04:15:802,2.3925,1.59789,-10.2025,-7.91524,4.91756,16.8172
2023-03-11 18:04:15:812,2.64903,1.58004,-10.2331,-7.90539,4.9143,17.2294
2023-03-11 18:04:15:822,2.91906,1.55315,-10.1293,-7.87265,4.90072,17.7155
2023-03-11 18:04:15:832,3.10051,1.46765,-9.95865,-7.82404,4.87276,18.2926
2023-03-11 18:04:15:842,3.17744,1.42558,-9.84619,-7.7665,4.83656,18.9701
2023-03-11 18:04:15:852,3.18008,1.45602,-9.76846,-7.70451,4.79419,19.7493
2023-03-11 18:04:15:862,3.17963,1.51231,-9.6936,-7.63577,4.75,20.6308
2023-03-11 18:04:15:872,3.12863,1.59494,-9.73438,-7.5689,4.70184,21.6231
2023-03-11 18:04:15:882,3.02335,1.75005,-9.8872,-7.49051,4.6538,22.7158
2023-03-11 18:04:15:892,2.92916,1.86829,-9.97591,-7.38865,4.59811,23.9021
2023-03-11 18:04:15:902,2.93238,1.87285,-9.88354,-7.25931,4.5316,25.1791
2023-03-11 18:04:15:912,3.01412,1.76912,-9.6499,-7.10632,4.45572,26.5501
2023-03-11 18:04:15:922,3.08147,1.6653,-9.41596,-6.95009,4.37742,28.0233
2023-03-11 18:04:15:932,3.10181,1.64861,-9.2222,-6.80308,4.29813,29.6024
2023-03-11 18:04:15:942,3.00664,1.73304,-9.13189,-6.68462,4.21306,31.2923
2023-03-11 18:04:15:952,2.71267,1.98023,-9.1751,-6.59053,4.1219,33.0884
2023-03-11 18:04:15:962,2.28282,2.24574,-9.27575,-6.51071,4.0205,34.9678
2023-03-11 18:04:15:972,1.8832,2.41736,-9.36901,-6.43385,3.91218,36.9141
2023-03-11 18:04:15:982,1.67283,2.51827,-9.42259,-6.35261,3.81247,38.9071
2023-03-11 18:04:15:992,1.65322,2.55909,-9.42981,-6.26097,3.71552,40.9513
2023-03-11 18:04:16:2,1.62362,2.54411,-9.34503,-6.15915,3.62007,43.0462
2023-03-11 18:04:16:12,1.4264,2.54533,-9.25793,-6.05725,3.52893,45.199
2023-03-11 18:04:16:22,1.17477,2.58937,-9.27216,-5.96296,3.44004,47.3998
2023-03-11 18:04:16:32,0.960198,2.65924,-9.38852,-5.88299,3.3487,49.6273
2023-03-11 18:04:16:42,0.671166,2.82501,-9.53014,-5.82005,3.2346,51.8702
2023-03-11 18:04:16:52,0.271263,2.99844,-9.62772,-5.76158,3.09042,54.1132
2023-03-11 18:04:16:62,-0.119123,3.07322,-9.59724,-5.68704,2.93254,56.3394
2023-03-11 18:04:16:72,-0.351301,2.98989,-9.49036,-5.60063,2.76708,58.5323
2023-03-11 18:04:16:82,-0.400415,2.79782,-9.28875,-5.50152,2.61108,60.6886
2023-03-11 18:04:16:92,-0.428294,2.57518,-9.10167,-5.40974,2.46225,62.8175
2023-03-11 18:04:16:102,-0.634684,2.49006,-9.04472,-5.34987,2.31564,64.9169
2023-03-11 18:04:16:112,-0.955752,2.5154,-9.21101,-5.31776,2.16245,66.9711
2023-03-11 18:04:16:122,-1.20764,2.64781,-9.48164,-5.3123,1.99587,68.9611
2023-03-11 18:04:16:132,-1.33379,2.6802,-9.7009,-5.29986,1.81938,70.8734
2023-03-11 18:04:16:142,-1.30534,2.6049,-9.75755,-5.27234,1.63516,72.7044
2023-03-11 18:04:16:152,-1.16015,2.43458,-9.63566,-5.23187,1.44213,74.462
2023-03-11 18:04:16:162,-1.12434,2.20352,-9.39093,-5.18625,1.24961,76.1601
2023-03-11 18:04:16:172,-1.28352,2.02081,-9.16477,-5.15636,1.05857,77.8041
2023-03-11 18:04:16:182,-1.46735,1.88156,-9.03872,-5.15369,0.869287,79.3851
2023-03-11 18:04:16:192,-1.585,1.7869,-9.05203,-5.18628,0.685835,80.8979
2023-03-11 18:04:16:202,-1.60138,1.80818,-9.30427,-5.2539,0.516682,82.3339
2023-03-11 18:04:16:212,-1.51299,1.92755,-9.65183,-5.33892,0.352152,83.692
2023-03-11 18:04:16:222,-1.49011,2.00687,-9.86615,-5.4123,0.183171,84.9822
2023-03-11 18:04:16:232,-1.59655,2.00428,-9.87249,-5.46062,0.00909071,86.2025
2023-03-11 18:04:16:242,-1.77034,1.88095,-9.69152,-5.49153,-0.170491,87.3457
2023-03-11 18:04:16:252,-1.90672,1.74328,-9.54065,-5.51737,-0.342907,88.4105
2023-03-11 18:04:16:262,-1.89926,1.63477,-9.50496,-5.54333,-0.503853,89.3933
2023-03-11 18:04:16:272,-1.85512,1.51211,-9.42479,-5.57619,-0.667511,90.2943
2023-03-11 18:04:16:282,-1.77039,1.40897,-9.35212,-5.62614,-0.833873,91.1195
2023-03-11 18:04:16:292,-1.7205,1.33788,-9.30026,-5.69731,-0.998617,91.8769
2023-03-11 18:04:16:302,-1.74024,1.37683,-9.4034,-5.79085,-1.15373,92.5713
2023-03-11 18:04:16:312,-1.76411,1.43444,-9.57191,-5.89167,-1.30007,93.2024
2023-03-11 18:04:16:322,-1.76992,1.47075,-9.69766,-5.9938,-1.43055,93.7665
2023-03-11 18:04:16:332,-1.81704,1.48707,-9.78092,-6.08593,-1.5565,94.2707
2023-03-11 18:04:16:342,-1.87962,1.49896,-9.82748,-6.16572,-1.67333,94.7084
2023-03-11 18:04:16:352,-1.87167,1.4923,-9.87881,-6.23858,-1.78388,95.0761
2023-03-11 18:04:16:362,-1.83586,1.48961,-9.88802,-6.29515,-1.88374,95.3815
2023-03-11 18:04:16:372,-1.78212,1.44337,-9.8055,-6.33434,-1.97841,95.6224
2023-03-11 18:04:16:382,-1.71065,1.34565,-9.70536,-6.37015,-2.06208,95.8062
2023-03-11 18:04:16:392,-1.69154,1.30275,-9.62557,-6.39956,-2.13931,95.9328
2023-03-11 18:04:16:402,-1.6602,1.28935,-9.61787,-6.43252,-2.20021,96.0059
2023-03-11 18:04:16:412,-1.58215,1.34201,-9.67917,-6.47113,-2.2515,96.0313
2023-03-11 18:04:16:422,-1.48138,1.38971,-9.76926,-6.50006,-2.29446,96.0106
2023-03-11 18:04:16:432,-1.41198,1.41188,-9.8282,-6.52071,-2.32607,95.9499
2023-03-11 18:04:16:442,-1.37227,1.41673,-9.8374,-6.53189,-2.34778,95.8517
2023-03-11 18:04:16:452,-1.30702,1.4042,-9.81179,-6.52709,-2.35094,95.7145
2023-03-11 18:04:16:462,-1.19662,1.36591,-9.7828,-6.51134,-2.34099,95.5444
2023-03-11 18:04:16:472,-1.00954,1.2997,-9.77282,-6.48854,-2.31913,95.3454
2023-03-11 18:04:16:482,-0.757954,1.25118,-9.77772,-6.4607,-2.28855,95.1255
2023-03-11 18:04:16:492,-0.570031,1.2254,-9.77379,-6.4327,-2.25439,94.8939
2023-03-11 18:04:16:502,-0.453341,1.18465,-9.74282,-6.4019,-2.22302,94.6572
2023-03-11 18:04:16:512,-0.435649,1.17901,-9.71522,-6.37509,-2.1907,94.4243
2023-03-11 18:04:16:522,-0.460815,1.16572,-9.68179,-6.34289,-2.14493,94.193
2023-03-11 18:04:16:532,-0.432041,1.13191,-9.66942,-6.30931,-2.08963,93.9616
2023-03-11 18:04:16:542,-0.363045,1.08678,-9.61066,-6.27644,-2.02783,93.731
2023-03-11 18:04:16:552,-0.256393,1.05531,-9.6027,-6.2481,-1.95436,93.4988
2023-03-11 18:04:16:562,-0.0520956,1.03409,-9.67281,-6.22358,-1.87256,93.2752
2023-03-11 18:04:16:572,0.142074,1.0198,-9.759,-6.19679,-1.79179,93.0663
2023-03-11 18:04:16:582,0.195402,1.00489,-9.77141,-6.16708,-1.7145,92.8796
2023-03-11 18:04:16:592,0.132829,0.97577,-9.71932,-6.13818,-1.64365,92.7194
2023-03-11 18:04:16:602,0.0343807,0.950895,-9.65381,-6.11412,-1.57365,92.5779
2023-03-11 18:04:16:612,-0.0384459,0.965514,-9.63633,-6.09816,-1.50218,92.4503
2023-03-11 18:04:16:622,-0.0375083,0.976605,-9.65262,-6.0812,-1.42107,92.3308
2023-03-11 18:04:16:632,0.0547902,0.959273,-9.67111,-6.06571,-1.33687,92.2206
2023-03-11 18:04:16:642,0.26973,0.91681,-9.67947,-6.05562,-1.25401,92.1162
2023-03-11 18:04:16:652,0.537131,0.910521,-9.73051,-6.05241,-1.17937,92.024
2023-03-11 18:04:16:662,0.709616,0.919334,-9.79241,-6.05174,-1.1188,91.9654
2023-03-11 18:04:16:672,0.772895,0.933046,-9.82698,-6.05144,-1.06571,91.941
2023-03-11 18:04:16:682,0.791144,0.933464,-9.80559,-6.0498,-1.02311,91.9541
2023-03-11 18:04:16:692,0.855891,0.925277,-9.76857,-6.04632,-0.981615,92.0024
2023-03-11 18:04:16:702,1.11195,0.906325,-9.79816,-6.04227,-0.939721,92.0878
2023-03-11 18:04:16:712,1.58133,0.902963,-9.90733,-6.04185,-0.897953,92.2226
2023-03-11 18:04:16:722,2.13153,0.932021,-10.0577,-6.03575,-0.853564,92.4259
2023-03-11 18:04:16:732,2.53351,0.955901,-10.1234,-6.01681,-0.816666,92.7315
2023-03-11 18:04:16:742,2.58497,0.943763,-10.0475,-5.97978,-0.787647,93.1577
2023-03-11 18:04:16:752,2.38654,0.93224,-9.88349,-5.93088,-0.755755,93.7081
2023-03-11 18:04:16:762,2.24918,0.935284,-9.7931,-5.87454,-0.709761,94.3738
2023-03-11 18:04:16:772,2.4333,0.951605,-9.80825,-5.81694,-0.652238,95.1475
2023-03-11 18:04:16:782,2.84804,1.00572,-9.86276,-5.75828,-0.576515,96.037
2023-03-11 18:04:16:792,3.20905,1.08231,-9.92128,-5.69519,-0.495223,97.0655
2023-03-11 18:04:16:802,3.33304,1.20666,-9.9387,-5.62689,-0.419761,98.2459
2023-03-11 18:04:16:812,3.14052,1.36174,-9.87011,-5.5508,-0.354065,99.5882
2023-03-11 18:04:16:822,2.59319,1.46123,-9.72548,-5.46342,-0.301721,101.078
2023-03-11 18:04:16:832,2.01612,1.51944,-9.56807,-5.37847,-0.248769,102.678
2023-03-11 18:04:16:842,1.83239,1.63889,-9.53746,-5.30021,-0.193238,104.365
2023-03-11 18:04:16:852,2.16317,1.77586,-9.70723,-5.23187,-0.142286,106.119
2023-03-11 18:04:16:862,2.42768,1.93736,-9.93366,-5.1642,-0.116743,107.965
2023-03-11 18:04:16:872,2.14954,2.13178,-9.96897,-5.09097,-0.136594,109.912
2023-03-11 18:04:16:882,1.60875,2.24547,-9.89566,-5.01143,-0.189252,111.942
2023-03-11 18:04:16:892,1.12851,2.32247,-9.82197,-4.91978,-0.267097,114.03
2023-03-11 18:04:16:902,0.752921,2.38007,-9.79562,-4.81469,-0.357685,116.16
2023-03-11 18:04:16:912,0.501627,2.40792,-9.7563,-4.70524,-0.458967,118.312
2023-03-11 18:04:16:922,0.455252,2.40359,-9.71189,-4.58645,-0.578158,120.473
2023-03-11 18:04:16:932,0.469355,2.41249,-9.73342,-4.47458,-0.721696,122.639
2023-03-11 18:04:16:942,0.162879,2.42006,-9.69009,-4.36067,-0.89631,124.817
2023-03-11 18:04:16:952,-0.472539,2.40526,-9.57846,-4.25002,-1.0979,126.994
2023-03-11 18:04:16:962,-1.19718,2.37027,-9.48908,-4.14306,-1.30572,129.138
2023-03-11 18:04:16:972,-1.87433,2.31389,-9.39101,-4.04131,-1.52432,131.224
2023-03-11 18:04:16:982,-2.34472,2.19718,-9.26817,-3.95195,-1.73919,133.218
2023-03-11 18:04:16:992,-2.50788,2.0591,-9.28379,-3.87851,-1.94515,135.096
2023-03-11 18:04:17:2,-2.48677,1.97804,-9.37969,-3.82086,-2.15961,136.846
2023-03-11 18:04:17:12,-2.56913,1.91456,-9.43451,-3.77052,-2.38233,138.483
2023-03-11 18:04:17:22,-2.90192,1.79564,-9.34725,-3.72737,-2.62512,139.995
2023-03-11 18:04:17:32,-3.32075,1.63039,-9.23241,-3.68922,-2.87432,141.376
2023-03-11 18:04:17:42,-3.64512,1.49498,-9.15223,-3.65866,-3.11759,142.618
2023-03-11 18:04:17:52,-3.83799,1.33374,-9.04959,-3.64447,-3.36019,143.699
2023-03-11 18:04:17:62,-3.81332,1.19217,-9.00758,-3.65132,-3.5911,144.61
2023-03-11 18:04:17:72,-3.45569,1.13136,-9.09606,-3.69037,-3.81501,145.365
2023-03-11 18:04:17:82,-2.97197,1.13557,-9.30531,-3.74488,-4.03546,145.984
2023-03-11 18:04:17:92,-2.66624,1.17095,-9.49127,-3.8087,-4.24925,146.498
2023-03-11 18:04:17:102,-2.56604,1.13853,-9.55272,-3.86269,-4.45938,146.93
2023-03-11 18:04:17:112,-2.52986,1.0637,-9.4964,-3.91531,-4.65899,147.286
2023-03-11 18:04:17:122,-2.37032,0.995107,-9.45909,-3.96139,-4.83171,147.571
2023-03-11 18:04:17:132,-2.052,0.918997,-9.48119,-4.01038,-4.98042,147.797
2023-03-11 18:04:17:142,-1.76091,0.879126,-9.53288,-4.07015,-5.10804,147.986
2023-03-11 18:04:17:152,-1.64962,0.888967,-9.58237,-4.13334,-5.21344,148.143
2023-03-11 18:04:17:162,-1.54279,0.878447,-9.64276,-4.19365,-5.30333,148.285
2023-03-11 18:04:17:172,-1.52109,0.824528,-9.5459,-4.26874,-5.38572,148.41
2023-03-11 18:04:17:182,-1.61383,0.982286,-9.70933,-4.3505,-5.43379,148.527
2023-03-11 18:04:17:192,-1.54044,1.12143,-9.90329,-4.42132,-5.46343,148.625
2023-03-11 18:04:17:202,-1.3372,1.16384,-10.0192,-4.4747,-5.47858,148.708
2023-03-11 18:04:17:212,-1.16505,1.19174,-10.1107,-4.50736,-5.49105,148.779
2023-03-11 18:04:17:222,-1.14854,1.14513,-10.1051,-4.51746,-5.51693,148.842
2023-03-11 18:04:17:232,-1.38085,1.08424,-9.94235,-4.50678,-5.54846,148.897
2023-03-11 18:04:17:242,-1.65607,0.996408,-9.79774,-4.4806,-5.56849,148.933
2023-03-11 18:04:17:252,-1.72534,0.896198,-9.70092,-4.44096,-5.56992,148.941
2023-03-11 18:04:17:262,-1.67932,0.812849,-9.62672,-4.40006,-5.55543,148.918
2023-03-11 18:04:17:272,-1.53972,0.776515,-9.63765,-4.36643,-5.53103,148.865
2023-03-11 18:04:17:282,-1.40774,0.79383,-9.67677,-4.33999,-5.51831,148.781
2023-03-11 18:04:17:292,-1.41355,0.841687,-9.73839,-4.32503,-5.52192,148.67
2023-03-11 18:04:17:302,-1.46313,0.911616,-9.82611,-4.30468,-5.53162,148.537
2023-03-11 18:04:17:312,-1.51543,0.940352,-9.87083,-4.27342,-5.53787,148.379
2023-03-11 18:04:17:322,-1.54019,0.893812,-9.83268,-4.22577,-5.52804,148.195
2023-03-11 18:04:17:332,-1.57815,0.79375,-9.71857,-4.16092,-5.51125,147.989
2023-03-11 18:04:17:342,-1.67133,0.71515,-9.57275,-4.1042,-5.48554,147.755
2023-03-11 18:04:17:352,-1.70479,0.720544,-9.52576,-4.06043,-5.45271,147.489
2023-03-11 18:04:17:362,-1.69416,0.754492,-9.60469,-4.02779,-5.41815,147.191
2023-03-11 18:04:17:372,-1.78986,0.826628,-9.67425,-3.99531,-5.38805,146.858
2023-03-11 18:04:17:382,-2.0389,0.90079,-9.64922,-3.96252,-5.36044,146.483
2023-03-11 18:04:17:392,-2.32493,0.940121,-9.5329,-3.9284,-5.33291,146.051
2023-03-11 18:04:17:402,-2.57725,0.915513,-9.4145,-3.89349,-5.31094,145.545
2023-03-11 18:04:17:412,-2.84419,0.893339,-9.27096,-3.86901,-5.29148,144.951
2023-03-11 18:04:17:422,-3.15905,0.898193,-9.14411,-3.85814,-5.27683,144.256
2023-03-11 18:04:17:432,-3.54036,0.950906,-9.0904,-3.87409,-5.2623,143.449
2023-03-11 18:04:17:442,-3.90441,1.08435,-9.11565,-3.91722,-5.24768,142.504
2023-03-11 18:04:17:452,-4.07438,1.28785,-9.16522,-3.97503,-5.22602,141.411
2023-03-11 18:04:17:462,-3.97239,1.47035,-9.22791,-4.04352,-5.2023,140.162
2023-03-11 18:04:17:472,-3.65138,1.59577,-9.31554,-4.12367,-5.17142,138.761
2023-03-11 18:04:17:482,-3.35071,1.78927,-9.40803,-4.21101,-5.14986,137.221
2023-03-11 18:04:17:492,-3.11774,2.0068,-9.50018,-4.30481,-5.14037,135.554
2023-03-11 18:04:17:502,-2.83389,2.17142,-9.56548,-4.38709,-5.14623,133.768
2023-03-11 18:04:17:512,-2.49918,2.27915,-9.56537,-4.45685,-5.16778,131.875
2023-03-11 18:04:17:522,-2.19466,2.35485,-9.50814,-4.52223,-5.21388,129.888
2023-03-11 18:04:17:532,-1.86977,2.35378,-9.46827,-4.58146,-5.27829,127.826
2023-03-11 18:04:17:542,-1.61197,2.36125,-9.51198,-4.64708,-5.36674,125.695
2023-03-11 18:04:17:552,-1.50827,2.50205,-9.60864,-4.71814,-5.47416,123.512
2023-03-11 18:04:17:562,-1.45332,2.63274,-9.7243,-4.78551,-5.59115,121.281
2023-03-11 18:04:17:572,-1.28769,2.768,-9.82393,-4.84013,-5.70514,119.01
2023-03-11 18:04:17:582,-1.00275,2.82272,-9.8766,-4.87149,-5.81489,116.709
2023-03-11 18:04:17:592,-0.648852,2.78578,-9.90542,-4.87873,-5.9147,114.396
2023-03-11 18:04:17:602,-0.284052,2.70524,-9.93138,-4.86367,-6.00818,112.088
2023-03-11 18:04:17:612,0.0177387,2.57901,-9.92408,-4.83035,-6.1049,109.801
2023-03-11 18:04:17:622,0.304715,2.39732,-9.93354,-4.78899,-6.21095,107.546
2023-03-11 18:04:17:632,0.69838,2.26883,-10.0565,-4.7511,-6.32801,105.342
2023-03-11 18:04:17:642,1.05341,2.18491,-10.1888,-4.69929,-6.46266,103.214
2023-03-11 18:04:17:652,1.14225,2.04611,-10.1354,-4.62665,-6.5965,101.186
2023-03-11 18:04:17:662,0.970015,1.84076,-9.93281,-4.53357,-6.72599,99.2646
2023-03-11 18:04:17:672,0.720987,1.66227,-9.70476,-4.43556,-6.8361,97.4398
2023-03-11 18:04:17:682,0.626084,1.49272,-9.55319,-4.33779,-6.92485,95.7006
2023-03-11 18:04:17:692,0.708673,1.33918,-9.47643,-4.24864,-6.99809,94.0359
2023-03-11 18:04:17:702,0.839493,1.14505,-9.43738,-4.17742,-7.06344,92.4536
2023-03-11 18:04:17:712,0.910321,0.986849,-9.46589,-4.12997,-7.13212,90.958
2023-03-11 18:04:17:722,0.83162,0.996944,-9.62808,-4.12036,-7.20413,89.5591
2023-03-11 18:04:17:732,0.61631,1.10502,-9.81173,-4.12417,-7.27833,88.255
2023-03-11 18:04:17:742,0.385815,1.13447,-9.91798,-4.11833,-7.33951,87.0421
2023-03-11 18:04:17:752,0.250231,1.09741,-9.91451,-4.10312,-7.38619,85.9092
2023-03-11 18:04:17:762,0.192305,1.00139,-9.83438,-4.07848,-7.40864,84.8515
2023-03-11 18:04:17:772,0.205143,0.867699,-9.72234,-4.04935,-7.4105,83.8662
2023-03-11 18:04:17:782,0.185497,0.763165,-9.62744,-4.02908,-7.40107,82.9546
2023-03-11 18:04:17:792,0.11253,0.717152,-9.55973,-4.02548,-7.38918,82.1181
2023-03-11 18:04:17:802,-0.0252452,0.714831,-9.54092,-4.03642,-7.37265,81.341
2023-03-11 18:04:17:812,-0.153349,0.717706,-9.53603,-4.06839,-7.35137,80.6255
2023-03-11 18:04:17:822,-0.196236,0.714649,-9.59708,-4.11063,-7.32179,79.9638
2023-03-11 18:04:17:832,-0.197696,0.738248,-9.65529,-4.1671,-7.28183,79.3478
2023-03-11 18:04:17:842,-0.228428,0.735867,-9.69172,-4.22668,-7.24132,78.7835
2023-03-11 18:04:17:852,-0.24614,0.761773,-9.79205,-4.29083,-7.19609,78.2662
2023-03-11 18:04:17:862,-0.249455,0.797533,-9.88479,-4.35811,-7.15203,77.7926
2023-03-11 18:04:17:872,-0.248843,0.809106,-9.90197,-4.42082,-7.10517,77.3666
2023-03-11 18:04:17:882,-0.26913,0.79684,-9.8591,-4.47671,-7.06326,76.9842
2023-03-11 18:04:17:892,-0.314401,0.795796,-9.81545,-4.53329,-7.02325,76.6365
2023-03-11 18:04:17:902,-0.369701,0.833646,-9.80046,-4.58748,-6.98414,76.3343
2023-03-11 18:04:17:912,-0.42144,0.852492,-9.766,-4.64098,-6.94763,76.0715
2023-03-11 18:04:17:922,-0.453737,0.87106,-9.77826,-4.69694,-6.90753,75.8437
2023-03-11 18:04:17:932,-0.504142,0.896207,-9.80967,-4.75081,-6.8682,75.6474
2023-03-11 18:04:17:942,-0.550126,0.910492,-9.80529,-4.80175,-6.82948,75.478
2023-03-11 18:04:17:952,-0.601615,0.943038,-9.8239,-4.85111,-6.79404,75.3379
2023-03-11 18:04:17:962,-0.659854,1.00138,-9.87496,-4.89479,-6.75917,75.2171
2023-03-11 18:04:17:972,-0.725391,1.02942,-9.90461,-4.92705,-6.72397,75.1158
2023-03-11 18:04:17:982,-0.738312,1.01726,-9.88923,-4.9461,-6.68564,75.0325
2023-03-11 18:04:17:992,-0.72011,0.971916,-9.8246,-4.95788,-6.64434,74.9681
2023-03-11 18:04:18:2,-0.73114,0.924329,-9.75746,-4.96006,-6.59918,74.9195
2023-03-11 18:04:18:12,-0.756591,0.896233,-9.72028,-4.96625,-6.55407,74.8918
2023-03-11 18:04:18:22,-0.832212,0.915855,-9.72868,-4.97942,-6.51285,74.882
2023-03-11 18:04:18:32,-0.924202,0.957999,-9.77809,-4.99105,-6.47218,74.8808
2023-03-11 18:04:18:42,-1.00144,0.966567,-9.77497,-5.0039,-6.43366,74.8847
2023-03-11 18:04:18:52,-1.05139,0.948574,-9.71407,-5.01089,-6.39812,74.8891
2023-03-11 18:04:18:62,-1.08637,0.919317,-9.65042,-5.01819,-6.36417,74.8909
2023-03-11 18:04:18:72,-1.16855,0.93227,-9.65936,-5.03367,-6.33562,74.8918
2023-03-11 18:04:18:82,-1.24912,0.975397,-9.6869,-5.05098,-6.30554,74.889
2023-03-11 18:04:18:92,-1.3215,1.00521,-9.70447,-5.05913,-6.26978,74.8743
2023-03-11 18:04:18:102,-1.39755,1.00601,-9.71091,-5.06428,-6.23621,74.8463
2023-03-11 18:04:18:112,-1.54637,0.993299,-9.69289,-5.0595,-6.20278,74.8067
2023-03-11 18:04:18:122,-1.77297,1.00583,-9.67707,-5.05605,-6.16737,74.7482
2023-03-11 18:04:18:132,-2.00547,1.03557,-9.69492,-5.05081,-6.12918,74.6572
2023-03-11 18:04:18:142,-2.25624,1.06651,-9.71234,-5.03964,-6.0819,74.5291
2023-03-11 18:04:18:152,-2.50917,1.09102,-9.67915,-5.01684,-6.02668,74.3552
2023-03-11 18:04:18:162,-2.78665,1.09834,-9.60895,-4.98668,-5.96206,74.1191
2023-03-11 18:04:18:172,-3.16916,1.125,-9.49878,-4.95371,-5.89119,73.8074
2023-03-11 18:04:18:182,-3.56348,1.16301,-9.44446,-4.92237,-5.81208,73.4061
2023-03-11 18:04:18:192,-3.75525,1.26235,-9.44255,-4.89034,-5.71589,72.8846
2023-03-11 18:04:18:202,-3.6428,1.31146,-9.46296,-4.85674,-5.60554,72.2349
2023-03-11 18:04:18:212,-3.40684,1.35449,-9.44933,-4.81989,-5.48608,71.4648
2023-03-11 18:04:18:222,-3.37926,1.42502,-9.39081,-4.78024,-5.36359,70.5808
2023-03-11 18:04:18:232,-3.60551,1.55393,-9.32644,-4.73772,-5.23401,69.5848
2023-03-11 18:04:18:242,-3.89022,1.71065,-9.28101,-4.69967,-5.09536,68.4658
2023-03-11 18:04:18:252,-4.03103,1.84071,-9.30097,-4.65805,-4.93684,67.2065
2023-03-11 18:04:18:262,-3.73602,1.97761,-9.425,-4.61668,-4.75854,65.8012
2023-03-11 18:04:18:272,-2.99883,2.01323,-9.54673,-4.55893,-4.56334,64.253
2023-03-11 18:04:18:282,-2.22129,1.96194,-9.52602,-4.49078,-4.35956,62.6016
2023-03-11 18:04:18:292,-1.76684,1.94517,-9.35806,-4.42532,-4.15999,60.8783
2023-03-11 18:04:18:302,-1.78433,1.90293,-9.18018,-4.37046,-3.97317,59.1091
2023-03-11 18:04:18:312,-1.81965,1.99397,-9.21298,-4.34631,-3.78881,57.2811
2023-03-11 18:04:18:322,-1.44096,2.12163,-9.42686,-4.34166,-3.59396,55.3908
2023-03-11 18:04:18:332,-0.855536,2.15974,-9.61373,-4.33724,-3.39052,53.4612
2023-03-11 18:04:18:342,-0.320559,2.15001,-9.66779,-4.32668,-3.17913,51.5222
2023-03-11 18:04:18:352,-0.120714,2.04628,-9.62609,-4.30531,-2.96698,49.6012
2023-03-11 18:04:18:362,-0.0369202,1.96881,-9.58381,-4.28054,-2.74804,47.7088
2023-03-11 18:04:18:372,0.313261,1.87644,-9.58449,-4.25003,-2.50741,45.8406
2023-03-11 18:04:18:382,0.814143,1.73184,-9.59848,-4.2191,-2.2482,44.0163
2023-03-11 18:04:18:392,1.25541,1.55564,-9.64253,-4.18717,-1.9832,42.2636
2023-03-11 18:04:18:402,1.65257,1.43263,-9.70075,-4.1568,-1.71545,40.5957
2023-03-11 18:04:18:412,2.0456,1.30961,-9.70699,-4.12515,-1.45352,39.0184
2023-03-11 18:04:18:422,2.2725,1.16315,-9.68704,-4.0933,-1.20907,37.5514
2023-03-11 18:04:18:432,2.11532,1.10769,-9.75962,-4.07927,-0.998453,36.1975
2023-03-11 18:04:18:442,1.62758,1.23044,-9.95794,-4.07599,-0.841417,34.9296
2023-03-11 18:04:18:452,1.10936,1.40921,-10.1838,-4.07171,-0.726509,33.7198
2023-03-11 18:04:18:462,0.935949,1.51782,-10.2795,-4.04146,-0.649055,32.5265
2023-03-11 18:04:18:472,1.16251,1.41374,-10.1598,-3.97323,-0.592236,31.3544
2023-03-11 18:04:18:482,1.49862,1.14822,-9.8677,-3.88616,-0.546008,30.2239
2023-03-11 18:04:18:492,1.4312,0.952764,-9.55447,-3.80453,-0.51888,29.1593
2023-03-11 18:04:18:502,0.925124,0.871504,-9.36585,-3.74655,-0.506638,28.1574
