Timestamp,Acceleration_x,Acceleration_y,Acceleration_z,roll,pitch,yaw
2023-03-10 17:41:17:382,0.115528,8.34521,-5.08159,-58.5217,0.519023,137.741
2023-03-10 17:41:17:390,0.117335,8.34258,-5.08931,-58.5253,0.519192,137.742
2023-03-10 17:41:17:400,0.11415,8.34787,-5.0803,-58.5263,0.519942,137.742
2023-03-10 17:41:17:410,0.117244,8.34911,-5.08528,-58.5258,0.516653,137.741
2023-03-10 17:41:17:420,0.113783,8.34604,-5.08816,-58.5244,0.517839,137.742
2023-03-10 17:41:17:430,0.114226,8.34512,-5.08385,-58.5252,0.516798,137.739
2023-03-10 17:41:17:440,0.111839,8.35483,-5.07203,-58.5282,0.516819,137.739
2023-03-10 17:41:17:450,0.122343,8.3477,-5.08193,-58.5293,0.517323,137.734
2023-03-10 17:41:17:460,0.125924,8.34395,-5.07942,-58.5307,0.519999,137.73
2023-03-10 17:41:17:470,0.117357,8.3493,-5.09153,-58.5319,0.517627,137.73
2023-03-10 17:41:17:480,0.108223,8.34667,-5.08949,-58.5344,0.516435,137.729
2023-03-10 17:41:17:490,0.107179,8.34828,-5.08786,-58.5315,0.516266,137.728
2023-03-10 17:41:17:500,0.120932,8.35223,-5.08607,-58.5339,0.517112,137.729
2023-03-10 17:41:17:510,0.10964,8.36011,-5.07309,-58.5353,0.517646,137.73
2023-03-10 17:41:17:520,0.122417,8.35058,-5.08226,-58.5352,0.517762,137.73
2023-03-10 17:41:17:530,0.12418,8.35089,-5.08325,-58.5332,0.517854,137.729
2023-03-10 17:41:17:540,0.121427,8.35345,-5.09469,-58.535,0.517726,137.728
2023-03-10 17:41:17:550,0.126551,8.35053,-5.07825,-58.5369,0.520844,137.727
2023-03-10 17:41:17:560,0.118451,8.3449,-5.09064,-58.5376,0.519527,137.729
2023-03-10 17:41:17:570,0.118573,8.35535,-5.07616,-58.5352,0.519377,137.729
2023-03-10 17:41:17:580,0.127091,8.34317,-5.07651,-58.5344,0.521217,137.727
2023-03-10 17:41:17:590,0.117824,8.34572,-5.07716,-58.5344,0.517287,137.728
2023-03-10 17:41:17:600,0.116766,8.35233,-5.08416,-58.537,0.519251,137.727
2023-03-10 17:41:17:610,0.111631,8.3525,-5.08184,-58.5349,0.517836,137.727
2023-03-10 17:41:17:620,0.115379,8.35327,-5.0861,-58.5351,0.517679,137.727
2023-03-10 17:41:17:630,0.119912,8.34896,-5.07436,-58.5381,0.517546,137.729
2023-03-10 17:41:17:640,0.118142,8.34563,-5.08853,-58.5361,0.514744,137.732
2023-03-10 17:41:17:650,0.120372,8.34521,-5.09195,-58.5362,0.514103,137.733
2023-03-10 17:41:17:660,0.129979,8.34994,-5.08307,-58.5348,0.51418,137.735
2023-03-10 17:41:17:670,0.11605,8.34935,-5.0744,-58.5357,0.515862,137.735
2023-03-10 17:41:17:680,0.121629,8.34777,-5.08281,-58.5357,0.51598,137.735
2023-03-10 17:41:17:690,0.115589,8.35009,-5.09298,-58.5346,0.516935,137.737
2023-03-10 17:41:17:700,0.107802,8.35334,-5.07693,-58.5371,0.515833,137.736
2023-03-10 17:41:17:710,0.105374,8.35663,-5.07619,-58.5369,0.514806,137.736
2023-03-10 17:41:17:720,0.113334,8.35017,-5.08225,-58.5376,0.514681,137.737
2023-03-10 17:41:17:730,0.109621,8.3366,-5.0957,-58.536,0.514122,137.738
2023-03-10 17:41:17:740,0.106774,8.34957,-5.07763,-58.5354,0.513132,137.738
2023-03-10 17:41:17:750,0.114197,8.35588,-5.0805,-58.5349,0.513809,137.738
2023-03-10 17:41:17:760,0.11245,8.35029,-5.09287,-58.5346,0.511962,137.735
2023-03-10 17:41:17:770,0.113876,8.35269,-5.09365,-58.5342,0.511292,137.735
2023-03-10 17:41:17:780,0.124337,8.3473,-5.08676,-58.5336,0.513596,137.733
2023-03-10 17:41:17:790,0.119617,8.35193,-5.07926,-58.5365,0.512845,137.734
2023-03-10 17:41:17:800,0.116816,8.34887,-5.08028,-58.534,0.511922,137.732
2023-03-10 17:41:17:810,0.126394,8.3484,-5.07973,-58.5333,0.513576,137.732
2023-03-10 17:41:17:820,0.115209,8.3559,-5.07365,-58.5325,0.511711,137.734
2023-03-10 17:41:17:830,0.119551,8.34855,-5.08031,-58.535,0.512624,137.737
2023-03-10 17:41:17:840,0.106169,8.34802,-5.0856,-58.5351,0.513503,137.74
2023-03-10 17:41:17:850,0.104082,8.34568,-5.08687,-58.533,0.511074,137.74
2023-03-10 17:41:17:860,0.111521,8.34654,-5.08071,-58.532,0.511489,137.738
2023-03-10 17:41:17:870,0.11687,8.34901,-5.07338,-58.529,0.512208,137.737
2023-03-10 17:41:17:880,0.123411,8.34807,-5.08124,-58.5271,0.509617,137.741
2023-03-10 17:41:17:890,0.12005,8.34799,-5.09037,-58.5282,0.510597,137.74
2023-03-10 17:41:17:900,0.108206,8.35838,-5.07343,-58.5308,0.512839,137.739
2023-03-10 17:41:17:910,0.10417,8.34658,-5.08509,-58.5308,0.51201,137.74
2023-03-10 17:41:17:920,0.104075,8.35004,-5.08421,-58.5331,0.51156,137.742
2023-03-10 17:41:17:930,0.095288,8.34954,-5.07665,-58.5318,0.510646,137.742
2023-03-10 17:41:17:940,0.0989949,8.35947,-5.06717,-58.532,0.508684,137.743
2023-03-10 17:41:17:950,0.109968,8.3512,-5.08022,-58.535,0.508565,137.745
2023-03-10 17:41:17:960,0.109632,8.33649,-5.08396,-58.5355,0.508772,137.744
2023-03-10 17:41:17:970,0.112848,8.34675,-5.07496,-58.5336,0.508657,137.745
2023-03-10 17:41:17:980,0.116703,8.3494,-5.07396,-58.5357,0.509632,137.741
2023-03-10 17:41:17:990,0.111361,8.34234,-5.08425,-58.5345,0.510207,137.743
2023-03-10 17:41:18:0,0.110821,8.35229,-5.08389,-58.5329,0.51059,137.743
2023-03-10 17:41:18:10,0.116478,8.34699,-5.08481,-58.5338,0.514316,137.74
2023-03-10 17:41:18:20,0.124937,8.35145,-5.07916,-58.5364,0.512968,137.738
2023-03-10 17:41:18:30,0.110251,8.35826,-5.06849,-58.5369,0.511178,137.739
2023-03-10 17:41:18:40,0.11974,8.35301,-5.07311,-58.5363,0.512401,137.74
2023-03-10 17:41:18:50,0.114839,8.34414,-5.06912,-58.5341,0.511551,137.741
2023-03-10 17:41:18:60,0.130062,8.34272,-5.07852,-58.536,0.512174,137.739
2023-03-10 17:41:18:70,0.111079,8.3356,-5.0847,-58.538,0.51116,137.736
2023-03-10 17:41:18:80,0.10782,8.34348,-5.08349,-58.5393,0.50813,137.734
2023-03-10 17:41:18:90,0.112021,8.35253,-5.08447,-58.539,0.509072,137.732
2023-03-10 17:41:18:100,0.122692,8.35444,-5.07558,-58.542,0.509411,137.734
2023-03-10 17:41:18:110,0.119818,8.34752,-5.07812,-58.5414,0.508772,137.733
2023-03-10 17:41:18:120,0.106578,8.35183,-5.07029,-58.5409,0.509072,137.732
2023-03-10 17:41:18:130,0.119953,8.35348,-5.07652,-58.5405,0.509786,137.734
2023-03-10 17:41:18:140,0.123207,8.34237,-5.08105,-58.539,0.510717,137.736
2023-03-10 17:41:18:150,0.13062,8.3478,-5.07458,-58.5398,0.510549,137.739
2023-03-10 17:41:18:160,0.117982,8.34633,-5.06673,-58.5403,0.511128,137.741
2023-03-10 17:41:18:170,0.117258,8.34988,-5.07436,-58.5386,0.511736,137.743
2023-03-10 17:41:18:180,0.110561,8.33928,-5.08666,-58.5381,0.513329,137.741
2023-03-10 17:41:18:190,0.103738,8.34268,-5.08174,-58.5362,0.513818,137.745
2023-03-10 17:41:18:200,0.120964,8.35521,-5.07979,-58.5364,0.511968,137.747
2023-03-10 17:41:18:210,0.124072,8.35413,-5.08485,-58.5347,0.511821,137.75
2023-03-10 17:41:18:220,0.119142,8.36983,-5.07482,-58.5354,0.509636,137.751
2023-03-10 17:41:18:230,0.124344,8.36103,-5.07474,-58.5379,0.511001,137.749
2023-03-10 17:41:18:240,0.118652,8.35999,-5.07289,-58.5385,0.512145,137.75
2023-03-10 17:41:18:250,0.116376,8.35327,-5.07097,-58.5404,0.51396,137.749
2023-03-10 17:41:18:260,0.109675,8.34856,-5.07882,-58.5397,0.515001,137.749
2023-03-10 17:41:18:270,0.113265,8.34603,-5.08486,-58.5423,0.51604,137.748
2023-03-10 17:41:18:280,0.127884,8.35272,-5.08163,-58.5405,0.515743,137.746
2023-03-10 17:41:18:290,0.123772,8.35238,-5.08362,-58.5422,0.514505,137.745
2023-03-10 17:41:18:300,0.122589,8.35805,-5.07552,-58.5384,0.515854,137.742
2023-03-10 17:41:18:310,0.117208,8.3478,-5.08296,-58.5397,0.51659,137.741
2023-03-10 17:41:18:320,0.118915,8.34727,-5.08127,-58.5406,0.512157,137.74
2023-03-10 17:41:18:330,0.128957,8.35226,-5.07831,-58.5391,0.514586,137.738
2023-03-10 17:41:18:340,0.123915,8.35745,-5.07066,-58.5389,0.513453,137.737
2023-03-10 17:41:18:350,0.116283,8.34761,-5.07743,-58.5412,0.514763,137.737
2023-03-10 17:41:18:360,0.116972,8.34652,-5.08344,-58.5418,0.516963,137.732
2023-03-10 17:41:18:370,0.111967,8.35505,-5.0788,-58.5416,0.519082,137.733
2023-03-10 17:41:18:380,0.10916,8.35667,-5.08747,-58.5386,0.52034,137.73
2023-03-10 17:41:18:390,0.112466,8.34644,-5.08364,-58.54,0.51708,137.73
2023-03-10 17:41:18:400,0.128503,8.34955,-5.07635,-58.5377,0.515493,137.731
2023-03-10 17:41:18:410,0.118044,8.35486,-5.08374,-58.5352,0.513189,137.729
2023-03-10 17:41:18:420,0.112357,8.35286,-5.08213,-58.5343,0.514121,137.728
2023-03-10 17:41:18:430,0.108408,8.35794,-5.07902,-58.5379,0.514521,137.725
2023-03-10 17:41:18:440,0.125669,8.3584,-5.07174,-58.5394,0.513168,137.726
2023-03-10 17:41:18:450,0.113287,8.36292,-5.06758,-58.5404,0.515277,137.723
2023-03-10 17:41:18:460,0.11242,8.34921,-5.07658,-58.5396,0.516146,137.721
2023-03-10 17:41:18:470,0.113933,8.35591,-5.07274,-58.5415,0.51578,137.72
2023-03-10 17:41:18:480,0.117805,8.3551,-5.08333,-58.5447,0.515867,137.719
2023-03-10 17:41:18:490,0.11464,8.35354,-5.08832,-58.5435,0.516353,137.721
2023-03-10 17:41:18:500,0.119446,8.3574,-5.0767,-58.5423,0.516035,137.723
2023-03-10 17:41:18:510,0.120998,8.34379,-5.08493,-58.5432,0.513171,137.723
2023-03-10 17:41:18:520,0.119987,8.34609,-5.07811,-58.5446,0.509668,137.724
2023-03-10 17:41:18:530,0.11329,8.3618,-5.06813,-58.5491,0.510939,137.725
2023-03-10 17:41:18:540,0.10904,8.34695,-5.07873,-58.55,0.511399,137.727
2023-03-10 17:41:18:550,0.112167,8.3488,-5.06782,-58.5517,0.510786,137.729
2023-03-10 17:41:18:560,0.119279,8.35376,-5.08082,-58.5525,0.508824,137.73
2023-03-10 17:41:18:570,0.12058,8.35894,-5.07444,-58.5534,0.509555,137.733
2023-03-10 17:41:18:580,0.12326,8.35114,-5.07736,-58.5533,0.510037,137.733
2023-03-10 17:41:18:590,0.122175,8.35998,-5.07512,-58.5511,0.510063,137.733
2023-03-10 17:41:18:600,0.134286,8.34526,-5.08118,-58.5512,0.510921,137.736
2023-03-10 17:41:18:610,0.129102,8.33982,-5.09099,-58.5503,0.512015,137.737
2023-03-10 17:41:18:620,0.10533,8.34274,-5.09474,-58.5507,0.510632,137.737
2023-03-10 17:41:18:630,0.113442,8.34685,-5.08195,-58.5483,0.512149,137.735
2023-03-10 17:41:18:640,0.116909,8.35114,-5.07713,-58.5474,0.511264,137.738
2023-03-10 17:41:18:650,0.117008,8.34971,-5.07582,-58.5467,0.507614,137.739
2023-03-10 17:41:18:660,0.119299,8.35305,-5.07862,-58.5473,0.506461,137.74
2023-03-10 17:41:18:670,0.119139,8.33764,-5.0917,-58.5455,0.508131,137.737
2023-03-10 17:41:18:680,0.124608,8.35112,-5.07989,-58.5456,0.511867,137.739
2023-03-10 17:41:18:690,0.13372,8.35583,-5.07295,-58.5432,0.511199,137.741
2023-03-10 17:41:18:700,0.133941,8.35024,-5.0803,-58.5441,0.5171,137.742
2023-03-10 17:41:18:710,0.11998,8.34825,-5.07731,-58.5432,0.513318,137.74
2023-03-10 17:41:18:720,0.11285,8.36046,-5.07462,-58.5438,0.51278,137.738
2023-03-10 17:41:18:730,0.116686,8.35132,-5.07461,-58.5429,0.512272,137.739
2023-03-10 17:41:18:740,0.124658,8.35481,-5.08088,-58.5428,0.509426,137.739
2023-03-10 17:41:18:750,0.126221,8.34402,-5.08579,-58.5423,0.510835,137.738
2023-03-10 17:41:18:760,0.12551,8.3383,-5.08868,-58.5451,0.510459,137.736
2023-03-10 17:41:18:770,0.113601,8.35346,-5.08733,-58.5435,0.512175,137.737
2023-03-10 17:41:18:780,0.109654,8.35608,-5.07529,-58.5442,0.512262,137.735
2023-03-10 17:41:18:790,0.12048,8.34984,-5.07397,-58.5472,0.513408,137.736
2023-03-10 17:41:18:800,0.120562,8.34677,-5.0763,-58.5517,0.513201,137.738
2023-03-10 17:41:18:810,0.121932,8.34565,-5.0768,-58.553,0.51316,137.737
2023-03-10 17:41:18:820,0.12381,8.3527,-5.07815,-58.5531,0.515616,137.739
2023-03-10 17:41:18:830,0.126407,8.34748,-5.07928,-58.5535,0.515529,137.741
2023-03-10 17:41:18:840,0.122228,8.34144,-5.0728,-58.5555,0.512162,137.741
2023-03-10 17:41:18:850,0.115892,8.34992,-5.08511,-58.5551,0.507964,137.74
2023-03-10 17:41:18:860,0.109526,8.34426,-5.08924,-58.5539,0.505899,137.74
2023-03-10 17:41:18:870,0.108301,8.35377,-5.08376,-58.5535,0.504984,137.739
2023-03-10 17:41:18:880,0.115459,8.35829,-5.07996,-58.5508,0.507692,137.737
2023-03-10 17:41:18:890,0.122495,8.35736,-5.08579,-58.5524,0.509305,137.738
2023-03-10 17:41:18:900,0.118075,8.34574,-5.09567,-58.5505,0.513662,137.737
2023-03-10 17:41:18:910,0.124627,8.35757,-5.08021,-58.55,0.514643,137.736
2023-03-10 17:41:18:920,0.125707,8.35002,-5.08197,-58.5496,0.512131,137.737
2023-03-10 17:41:18:930,0.115167,8.33985,-5.09106,-58.5491,0.511194,137.739
2023-03-10 17:41:18:940,0.110262,8.3446,-5.08698,-58.5489,0.512228,137.737
2023-03-10 17:41:18:950,0.111638,8.35116,-5.08013,-58.5487,0.511323,137.736
2023-03-10 17:41:18:960,0.116394,8.35536,-5.08604,-58.5503,0.50931,137.734
2023-03-10 17:41:18:970,0.108065,8.35184,-5.08415,-58.5468,0.510202,137.732
2023-03-10 17:41:18:980,0.113742,8.35069,-5.06798,-58.5477,0.509745,137.732
2023-03-10 17:41:18:990,0.126836,8.34712,-5.0732,-58.5495,0.510423,137.731
2023-03-10 17:41:19:0,0.127835,8.34053,-5.08527,-58.5502,0.509593,137.727
2023-03-10 17:41:19:10,0.120754,8.35135,-5.07649,-58.5513,0.507597,137.728
2023-03-10 17:41:19:20,0.106104,8.35972,-5.08198,-58.5508,0.508714,137.726
2023-03-10 17:41:19:30,0.114395,8.354,-5.08593,-58.5506,0.510353,137.724
2023-03-10 17:41:19:40,0.117021,8.34945,-5.08261,-58.5508,0.512569,137.726
2023-03-10 17:41:19:50,0.107407,8.34489,-5.08151,-58.5507,0.513639,137.725
2023-03-10 17:41:19:60,0.114318,8.34343,-5.08368,-58.5488,0.515376,137.724
2023-03-10 17:41:19:70,0.113914,8.34658,-5.08078,-58.548,0.514472,137.723
2023-03-10 17:41:19:80,0.115706,8.34409,-5.09109,-58.546,0.515231,137.724
2023-03-10 17:41:19:90,0.11498,8.34781,-5.08794,-58.5438,0.512894,137.727
2023-03-10 17:41:19:100,0.114953,8.34302,-5.08474,-58.5432,0.511188,137.728
2023-03-10 17:41:19:110,0.115889,8.35501,-5.08961,-58.5447,0.514831,137.729
2023-03-10 17:41:19:120,0.10788,8.35319,-5.08642,-58.5433,0.517044,137.731
2023-03-10 17:41:19:130,0.112283,8.35132,-5.07997,-58.5458,0.516109,137.732
2023-03-10 17:41:19:140,0.114684,8.35195,-5.08113,-58.5453,0.517135,137.733
2023-03-10 17:41:19:150,0.122762,8.35795,-5.07143,-58.5468,0.517693,137.734
2023-03-10 17:41:19:160,0.1202,8.33885,-5.08551,-58.5448,0.51636,137.734
2023-03-10 17:41:19:170,0.125177,8.34165,-5.09589,-58.5478,0.518306,137.733
2023-03-10 17:41:19:180,0.121918,8.34509,-5.08751,-58.5486,0.518606,137.733
2023-03-10 17:41:19:190,0.11527,8.34665,-5.07121,-58.5502,0.515509,137.735
2023-03-10 17:41:19:200,0.117033,8.34711,-5.07399,-58.5497,0.515636,137.737
2023-03-10 17:41:19:210,0.121236,8.35844,-5.07214,-58.5476,0.513103,137.736
2023-03-10 17:41:19:220,0.127611,8.35225,-5.07495,-58.5503,0.512812,137.735
2023-03-10 17:41:19:230,0.124048,8.34148,-5.08735,-58.5522,0.515009,137.733
2023-03-10 17:41:19:240,0.121352,8.34167,-5.09309,-58.5529,0.514272,137.735
2023-03-10 17:41:19:250,0.121492,8.3461,-5.08118,-58.5541,0.513666,137.735
2023-03-10 17:41:19:260,0.115801,8.34475,-5.07948,-58.5538,0.512699,137.737
2023-03-10 17:41:19:270,0.121279,8.34225,-5.08002,-58.5526,0.511931,137.738
2023-03-10 17:41:19:280,0.122981,8.34728,-5.0743,-58.5498,0.516312,137.738
2023-03-10 17:41:19:290,0.129134,8.35063,-5.07682,-58.5499,0.51899,137.739
2023-03-10 17:41:19:300,0.119674,8.35242,-5.082,-58.5487,0.522479,137.744
2023-03-10 17:41:19:310,0.108095,8.35234,-5.08221,-58.5475,0.521763,137.745
2023-03-10 17:41:19:320,0.123444,8.34426,-5.09028,-58.5447,0.523517,137.743
2023-03-10 17:41:19:330,0.123197,8.3554,-5.07077,-58.5434,0.523191,137.744
2023-03-10 17:41:19:340,0.120436,8.35771,-5.07263,-58.5459,0.522845,137.746
2023-03-10 17:41:19:350,0.117286,8.34906,-5.08147,-58.5461,0.519557,137.745
2023-03-10 17:41:19:360,0.113744,8.3489,-5.08209,-58.5488,0.519154,137.743
2023-03-10 17:41:19:370,0.122115,8.34204,-5.09797,-58.547,0.518082,137.746
2023-03-10 17:41:19:380,0.129515,8.35399,-5.08763,-58.5459,0.519263,137.747
2023-03-10 17:41:19:390,0.11637,8.3521,-5.07206,-58.5465,0.518709,137.745
2023-03-10 17:41:19:400,0.116035,8.35022,-5.0757,-58.542,0.51973,137.745
2023-03-10 17:41:19:410,0.117628,8.34715,-5.08025,-58.5436,0.519421,137.748
2023-03-10 17:41:19:420,0.134686,8.3432,-5.08309,-58.5438,0.520316,137.751
2023-03-10 17:41:19:430,0.130596,8.34499,-5.09052,-58.5449,0.522448,137.752
2023-03-10 17:41:19:440,0.120478,8.34718,-5.08669,-58.5437,0.524357,137.753
2023-03-10 17:41:19:450,0.118671,8.34311,-5.08405,-58.5438,0.524502,137.756
2023-03-10 17:41:19:460,0.120939,8.34604,-5.07947,-58.5457,0.523144,137.757
2023-03-10 17:41:19:470,0.117258,8.34185,-5.0806,-58.5413,0.522967,137.757
2023-03-10 17:41:19:480,0.114078,8.349,-5.08011,-58.5405,0.525153,137.758
2023-03-10 17:41:19:490,0.128086,8.35088,-5.0659,-58.5396,0.521779,137.759
2023-03-10 17:41:19:500,0.128835,8.35089,-5.07363,-58.5422,0.525033,137.759
2023-03-10 17:41:19:510,0.123991,8.35822,-5.07004,-58.5436,0.527166,137.757
2023-03-10 17:41:19:520,0.125824,8.35739,-5.0836,-58.5459,0.527159,137.757
2023-03-10 17:41:19:530,0.113573,8.36268,-5.08277,-58.5467,0.528142,137.757
2023-03-10 17:41:19:540,0.110286,8.35124,-5.08065,-58.5481,0.52468,137.757
2023-03-10 17:41:19:550,0.103554,8.35286,-5.08732,-58.5476,0.523713,137.756
2023-03-10 17:41:19:560,0.114871,8.35648,-5.08714,-58.5465,0.52522,137.756
2023-03-10 17:41:19:570,0.119944,8.35109,-5.0797,-58.5454,0.522206,137.757
2023-03-10 17:41:19:580,0.117631,8.35417,-5.07441,-58.5413,0.520453,137.761
2023-03-10 17:41:19:590,0.116931,8.35338,-5.08325,-58.5425,0.52036,137.759
2023-03-10 17:41:19:600,0.10791,8.35474,-5.08357,-58.5436,0.51719,137.76
2023-03-10 17:41:19:610,0.112789,8.35415,-5.07672,-58.5431,0.517353,137.757
2023-03-10 17:41:19:620,0.113374,8.35384,-5.08524,-58.543,0.517635,137.755
2023-03-10 17:41:19:630,0.104196,8.35545,-5.08491,-58.5435,0.513848,137.753
2023-03-10 17:41:19:640,0.123505,8.34861,-5.07891,-58.5438,0.512694,137.752
2023-03-10 17:41:19:650,0.115339,8.34678,-5.0759,-58.5462,0.512218,137.75
2023-03-10 17:41:19:660,0.110599,8.34711,-5.08575,-58.5455,0.510216,137.75
2023-03-10 17:41:19:670,0.116428,8.3457,-5.09279,-58.5468,0.507346,137.75
2023-03-10 17:41:19:680,0.117033,8.34541,-5.0979,-58.5433,0.505997,137.749
2023-03-10 17:41:19:690,0.111439,8.33311,-5.09234,-58.5453,0.505862,137.751
2023-03-10 17:41:19:700,0.112148,8.34301,-5.08615,-58.5443,0.504,137.749
2023-03-10 17:41:19:710,0.113712,8.34942,-5.0866,-58.547,0.506103,137.749
2023-03-10 17:41:19:720,0.117737,8.35096,-5.08519,-58.5472,0.508885,137.749
2023-03-10 17:41:19:730,0.116238,8.35745,-5.07523,-58.5509,0.505376,137.752
2023-03-10 17:41:19:740,0.118409,8.36415,-5.08064,-58.5506,0.503542,137.751
2023-03-10 17:41:19:750,0.117582,8.35138,-5.08357,-58.5505,0.504748,137.755
2023-03-10 17:41:19:760,0.117329,8.34999,-5.07553,-58.552,0.504036,137.755
2023-03-10 17:41:19:770,0.114847,8.35234,-5.08289,-58.5503,0.502731,137.754
2023-03-10 17:41:19:780,0.111664,8.35778,-5.085,-58.5516,0.504643,137.752
2023-03-10 17:41:19:790,0.115266,8.35591,-5.07797,-58.5534,0.50147,137.753
2023-03-10 17:41:19:800,0.121636,8.34592,-5.08415,-58.5529,0.500124,137.751
2023-03-10 17:41:19:810,0.119698,8.35931,-5.08444,-58.5559,0.505593,137.752
2023-03-10 17:41:19:820,0.110089,8.35168,-5.0852,-58.5553,0.505339,137.752
2023-03-10 17:41:19:830,0.11256,8.3448,-5.08308,-58.5531,0.506113,137.752
2023-03-10 17:41:19:840,0.115238,8.35079,-5.08614,-58.5531,0.501347,137.754
2023-03-10 17:41:19:850,0.11501,8.34839,-5.08597,-58.5538,0.500914,137.754
2023-03-10 17:41:19:860,0.104486,8.34782,-5.08528,-58.5539,0.50069,137.756
2023-03-10 17:41:19:870,0.110362,8.34582,-5.09735,-58.5526,0.503613,137.751
2023-03-10 17:41:19:880,0.124967,8.36023,-5.08937,-58.5534,0.499415,137.75
2023-03-10 17:41:19:890,0.111852,8.35594,-5.0828,-58.5534,0.498555,137.749
2023-03-10 17:41:19:900,0.117343,8.34598,-5.07697,-58.551,0.497908,137.747
2023-03-10 17:41:19:910,0.125468,8.35606,-5.07929,-58.5524,0.495023,137.745
2023-03-10 17:41:19:920,0.129944,8.35869,-5.08098,-58.5497,0.496541,137.743
2023-03-10 17:41:19:930,0.118993,8.35238,-5.08814,-58.5486,0.494148,137.742
2023-03-10 17:41:19:940,0.122123,8.34585,-5.0943,-58.5499,0.493762,137.745
2023-03-10 17:41:19:950,0.111295,8.36362,-5.07512,-58.5514,0.494812,137.745
2023-03-10 17:41:19:960,0.127969,8.35825,-5.07633,-58.5492,0.490953,137.747
2023-03-10 17:41:19:970,0.130376,8.3513,-5.08297,-58.5489,0.491984,137.748
2023-03-10 17:41:19:980,0.129347,8.34373,-5.08706,-58.5476,0.493957,137.745
2023-03-10 17:41:19:990,0.115788,8.35046,-5.07698,-58.5454,0.494835,137.747
2023-03-10 17:41:20:0,0.112751,8.34676,-5.08812,-58.5452,0.490312,137.748
2023-03-10 17:41:20:10,0.112874,8.3481,-5.08188,-58.5467,0.491464,137.747
2023-03-10 17:41:20:20,0.114393,8.34389,-5.08642,-58.5483,0.491765,137.748
2023-03-10 17:41:20:30,0.10974,8.33406,-5.09314,-58.5478,0.489883,137.748
2023-03-10 17:41:20:40,0.120414,8.34502,-5.08698,-58.5453,0.490709,137.748
2023-03-10 17:41:20:50,0.119008,8.34917,-5.08885,-58.5507,0.490884,137.752
2023-03-10 17:41:20:60,0.111113,8.34754,-5.09176,-58.5504,0.494711,137.751
2023-03-10 17:41:20:70,0.119644,8.34868,-5.08991,-58.552,0.493259,137.753
2023-03-10 17:41:20:80,0.109968,8.34567,-5.08492,-58.5514,0.493276,137.752
2023-03-10 17:41:20:90,0.109682,8.34232,-5.08312,-58.5464,0.491108,137.749
2023-03-10 17:41:20:100,0.12013,8.35369,-5.07468,-58.5465,0.492917,137.746
2023-03-10 17:41:20:110,0.121919,8.35968,-5.06662,-58.5476,0.492544,137.748
2023-03-10 17:41:20:120,0.116892,8.3619,-5.07039,-58.5498,0.490834,137.749
2023-03-10 17:41:20:130,0.10919,8.35917,-5.08125,-58.5499,0.489699,137.75
2023-03-10 17:41:20:140,0.11933,8.34946,-5.07749,-58.5482,0.487534,137.753
2023-03-10 17:41:20:150,0.12369,8.346,-5.08927,-58.5458,0.485298,137.755
2023-03-10 17:41:20:160,0.115009,8.35069,-5.08408,-58.5459,0.487036,137.756
2023-03-10 17:41:20:170,0.120128,8.35333,-5.07523,-58.5447,0.487496,137.758
2023-03-10 17:41:20:180,0.107108,8.35848,-5.08039,-58.5457,0.486109,137.755
2023-03-10 17:41:20:190,0.103828,8.36108,-5.07566,-58.5423,0.486231,137.754
2023-03-10 17:41:20:200,0.107795,8.36087,-5.08309,-58.542,0.487318,137.757
2023-03-10 17:41:20:210,0.10769,8.35221,-5.09384,-58.541,0.48814,137.758
2023-03-10 17:41:20:220,0.114302,8.35206,-5.0836,-58.5443,0.488146,137.759
2023-03-10 17:41:20:230,0.110151,8.34821,-5.07136,-58.5439,0.488022,137.76
2023-03-10 17:41:20:240,0.115382,8.35306,-5.07817,-58.5456,0.490262,137.761
2023-03-10 17:41:20:250,0.128908,8.34735,-5.08089,-58.5423,0.490116,137.757
2023-03-10 17:41:20:260,0.12112,8.34631,-5.0911,-58.5413,0.48983,137.759
2023-03-10 17:41:20:270,0.120021,8.34068,-5.09228,-58.5415,0.486897,137.759
2023-03-10 17:41:20:280,0.115309,8.35661,-5.07414,-58.5424,0.487382,137.759
2023-03-10 17:41:20:290,0.113569,8.36197,-5.0761,-58.5445,0.488533,137.76
2023-03-10 17:41:20:300,0.128578,8.35711,-5.07387,-58.5415,0.487902,137.763
2023-03-10 17:41:20:310,0.129627,8.3525,-5.08831,-58.5429,0.484474,137.763
2023-03-10 17:41:20:320,0.115305,8.34547,-5.09502,-58.5381,0.484758,137.763
2023-03-10 17:41:20:330,0.101124,8.35061,-5.08321,-58.5395,0.482334,137.764
2023-03-10 17:41:20:340,0.107402,8.34949,-5.08327,-58.5372,0.483858,137.764
2023-03-10 17:41:20:350,0.117867,8.34288,-5.08789,-58.5371,0.478843,137.765
2023-03-10 17:41:20:360,0.122435,8.34956,-5.08449,-58.5389,0.480584,137.764
2023-03-10 17:41:20:370,0.118414,8.34577,-5.08726,-58.5392,0.476362,137.768
2023-03-10 17:41:20:380,0.109884,8.34722,-5.07582,-58.5395,0.475912,137.767
2023-03-10 17:41:20:390,0.114093,8.34725,-5.08333,-58.5396,0.476884,137.767
2023-03-10 17:41:20:400,0.116422,8.34942,-5.08199,-58.5406,0.476468,137.767
2023-03-10 17:41:20:410,0.117635,8.35023,-5.09141,-58.5403,0.476678,137.768
2023-03-10 17:41:20:420,0.119645,8.36798,-5.07594,-58.5398,0.476318,137.767
2023-03-10 17:41:20:430,0.119069,8.36072,-5.07322,-58.5391,0.477659,137.767
2023-03-10 17:41:20:440,0.114985,8.34596,-5.09388,-58.5381,0.476367,137.769
2023-03-10 17:41:20:450,0.11085,8.35391,-5.09202,-58.5347,0.47372,137.765
2023-03-10 17:41:20:460,0.123246,8.34933,-5.09423,-58.5329,0.475546,137.764
2023-03-10 17:41:20:470,0.124271,8.34843,-5.08693,-58.5314,0.47539,137.764
2023-03-10 17:41:20:480,0.126516,8.33942,-5.08472,-58.5333,0.474464,137.766
2023-03-10 17:41:20:490,0.112575,8.34496,-5.08352,-58.5362,0.477111,137.767
2023-03-10 17:41:20:500,0.103041,8.35556,-5.06943,-58.5375,0.47796,137.766
2023-03-10 17:41:20:510,0.115118,8.36364,-5.07236,-58.5342,0.476641,137.765
2023-03-10 17:41:20:520,0.114117,8.34423,-5.09367,-58.5338,0.476966,137.767
2023-03-10 17:41:20:530,0.123071,8.35371,-5.08164,-58.5325,0.47611,137.768
2023-03-10 17:41:20:540,0.134175,8.34702,-5.08651,-58.5312,0.477457,137.767
2023-03-10 17:41:20:550,0.127377,8.35141,-5.07802,-58.5288,0.479452,137.768
2023-03-10 17:41:20:560,0.121403,8.33663,-5.09298,-58.5293,0.480163,137.767
2023-03-10 17:41:20:570,0.102555,8.34991,-5.08522,-58.5302,0.48418,137.765
2023-03-10 17:41:20:580,0.116038,8.34827,-5.0795,-58.532,0.480857,137.767
2023-03-10 17:41:20:590,0.105726,8.35018,-5.08055,-58.533,0.476915,137.77
2023-03-10 17:41:20:600,0.111061,8.34949,-5.07727,-58.5338,0.477165,137.769
2023-03-10 17:41:20:610,0.118552,8.34724,-5.08845,-58.5315,0.475661,137.772
2023-03-10 17:41:20:620,0.122655,8.35112,-5.08535,-58.529,0.47505,137.774
2023-03-10 17:41:20:630,0.110248,8.35578,-5.08386,-58.5289,0.474208,137.776
2023-03-10 17:41:20:640,0.11528,8.35687,-5.07719,-58.5282,0.473994,137.775
2023-03-10 17:41:20:650,0.108102,8.35257,-5.07271,-58.5299,0.474762,137.774
2023-03-10 17:41:20:660,0.100752,8.34407,-5.07268,-58.5284,0.471801,137.773
2023-03-10 17:41:20:670,0.10853,8.34775,-5.08389,-58.5268,0.471471,137.776
2023-03-10 17:41:20:680,0.117846,8.35477,-5.07996,-58.5258,0.472256,137.776
2023-03-10 17:41:20:690,0.119753,8.35192,-5.07429,-58.5228,0.470406,137.777
2023-03-10 17:41:20:700,0.116891,8.3526,-5.06931,-58.524,0.47149,137.777
2023-03-10 17:41:20:710,0.118419,8.35719,-5.08712,-58.5254,0.471008,137.781
2023-03-10 17:41:20:720,0.114107,8.34931,-5.09005,-58.5267,0.470776,137.783
2023-03-10 17:41:20:730,0.110337,8.33738,-5.08735,-58.5263,0.469164,137.782
2023-03-10 17:41:20:740,0.114559,8.35106,-5.08145,-58.5296,0.465391,137.782
2023-03-10 17:41:20:750,0.113246,8.34813,-5.07672,-58.5305,0.464717,137.782
2023-03-10 17:41:20:760,0.118222,8.34353,-5.08194,-58.5315,0.467045,137.779
2023-03-10 17:41:20:770,0.112452,8.3546,-5.0696,-58.5324,0.465,137.779
2023-03-10 17:41:20:780,0.12363,8.35621,-5.07979,-58.5323,0.466453,137.776
2023-03-10 17:41:20:790,0.133336,8.3574,-5.08216,-58.5313,0.46896,137.777
2023-03-10 17:41:20:800,0.129945,8.34399,-5.09521,-58.5321,0.469869,137.776
2023-03-10 17:41:20:810,0.115161,8.34827,-5.10076,-58.5298,0.471431,137.774
2023-03-10 17:41:20:820,0.115188,8.35795,-5.07793,-58.5309,0.469857,137.77
2023-03-10 17:41:20:830,0.122538,8.36291,-5.06937,-58.5299,0.469955,137.77
2023-03-10 17:41:20:840,0.109493,8.35313,-5.07974,-58.5275,0.471686,137.77
2023-03-10 17:41:20:850,0.108196,8.35424,-5.08021,-58.526,0.470409,137.771
2023-03-10 17:41:20:860,0.11185,8.3437,-5.08451,-58.526,0.472753,137.77
2023-03-10 17:41:20:870,0.120515,8.34708,-5.08437,-58.5245,0.473355,137.773
2023-03-10 17:41:20:880,0.11609,8.36088,-5.07263,-58.5241,0.473671,137.775
2023-03-10 17:41:20:890,0.103744,8.36277,-5.07672,-58.5223,0.471141,137.778
2023-03-10 17:41:20:900,0.106431,8.34764,-5.074,-58.5199,0.470979,137.776
2023-03-10 17:41:20:910,0.118449,8.34735,-5.08054,-58.5195,0.472283,137.777
2023-03-10 17:41:20:920,0.113853,8.35443,-5.08693,-58.5209,0.474209,137.775
2023-03-10 17:41:20:930,0.117974,8.3488,-5.08938,-58.5214,0.476678,137.775
2023-03-10 17:41:20:940,0.108901,8.35495,-5.08185,-58.524,0.476588,137.776
2023-03-10 17:41:20:950,0.120206,8.35282,-5.0779,-58.5264,0.476556,137.775
2023-03-10 17:41:20:960,0.122283,8.34652,-5.07375,-58.5276,0.476036,137.777
2023-03-10 17:41:20:970,0.117564,8.34686,-5.08077,-58.5278,0.476183,137.775
2023-03-10 17:41:20:980,0.1187,8.35131,-5.08656,-58.5284,0.477353,137.774
2023-03-10 17:41:20:990,0.122796,8.35622,-5.08355,-58.5264,0.477966,137.775
2023-03-10 17:41:21:0,0.111516,8.36217,-5.08151,-58.5255,0.478586,137.774
2023-03-10 17:41:21:10,0.100873,8.34277,-5.09064,-58.5251,0.480156,137.775
2023-03-10 17:41:21:20,0.112577,8.3521,-5.08748,-58.5277,0.477867,137.775
2023-03-10 17:41:21:30,0.109265,8.35628,-5.08632,-58.5272,0.478043,137.774
2023-03-10 17:41:21:40,0.112838,8.35163,-5.08569,-58.5292,0.475532,137.774
2023-03-10 17:41:21:50,0.109194,8.34338,-5.09608,-58.5308,0.476218,137.773
2023-03-10 17:41:21:60,0.104476,8.34646,-5.10067,-58.5314,0.475292,137.775
2023-03-10 17:41:21:70,0.11783,8.34744,-5.08832,-58.531,0.474764,137.776
2023-03-10 17:41:21:80,0.115534,8.35152,-5.07996,-58.5313,0.474705,137.775
2023-03-10 17:41:21:90,0.11477,8.35092,-5.07475,-58.5327,0.473793,137.775
2023-03-10 17:41:21:100,0.112918,8.3493,-5.07675,-58.533,0.474515,137.773
2023-03-10 17:41:21:110,0.124014,8.33994,-5.08494,-58.5339,0.476223,137.774
2023-03-10 17:41:21:120,0.122152,8.33654,-5.0892,-58.5338,0.477664,137.773
2023-03-10 17:41:21:130,0.105641,8.35208,-5.07962,-58.5294,0.479679,137.774
2023-03-10 17:41:21:140,0.112948,8.35844,-5.0867,-58.5276,0.480271,137.771
2023-03-10 17:41:21:150,0.1107,8.35901,-5.08563,-58.5273,0.477611,137.771
2023-03-10 17:41:21:160,0.113511,8.35518,-5.07825,-58.5274,0.47665,137.771
2023-03-10 17:41:21:170,0.104539,8.35497,-5.08483,-58.524,0.478425,137.77
2023-03-10 17:41:21:180,0.120015,8.35024,-5.08424,-58.5247,0.479828,137.769
2023-03-10 17:41:21:190,0.122683,8.34954,-5.08288,-58.5242,0.480557,137.769
2023-03-10 17:41:21:200,0.114328,8.34599,-5.08457,-58.5217,0.481069,137.77
2023-03-10 17:41:21:210,0.126825,8.36007,-5.07908,-58.5224,0.478861,137.772
2023-03-10 17:41:21:220,0.122307,8.35772,-5.08284,-58.5201,0.47755,137.775
2023-03-10 17:41:21:230,0.115142,8.35158,-5.07811,-58.5191,0.475552,137.774
2023-03-10 17:41:21:240,0.113389,8.35877,-5.07001,-58.5225,0.473292,137.776
2023-03-10 17:41:21:250,0.122712,8.36699,-5.07494,-58.5245,0.474533,137.779
2023-03-10 17:41:21:260,0.126684,8.36267,-5.0851,-58.5255,0.471847,137.779
2023-03-10 17:41:21:270,0.114467,8.34734,-5.08635,-58.5254,0.471039,137.777
2023-03-10 17:41:21:280,0.118874,8.35395,-5.08311,-58.5267,0.472982,137.777
2023-03-10 17:41:21:290,0.114103,8.35682,-5.08421,-58.5255,0.473932,137.776
2023-03-10 17:41:21:300,0.112457,8.34799,-5.08545,-58.5274,0.471546,137.777
2023-03-10 17:41:21:310,0.100465,8.35097,-5.07308,-58.529,0.473009,137.778
2023-03-10 17:41:21:320,0.11547,8.33739,-5.07877,-58.5236,0.473898,137.776
2023-03-10 17:41:21:330,0.116304,8.34298,-5.06956,-58.5236,0.4762,137.774
2023-03-10 17:41:21:340,0.116381,8.34935,-5.07543,-58.5237,0.480626,137.774
2023-03-10 17:41:21:350,0.127669,8.35172,-5.08092,-58.523,0.482365,137.773
2023-03-10 17:41:21:360,0.119566,8.35254,-5.08831,-58.5264,0.48084,137.771
2023-03-10 17:41:21:370,0.111891,8.34871,-5.08561,-58.5276,0.483016,137.772
2023-03-10 17:41:21:380,0.112633,8.35204,-5.07979,-58.5262,0.482838,137.772
2023-03-10 17:41:21:390,0.116007,8.34986,-5.08233,-58.5267,0.483759,137.768
2023-03-10 17:41:21:400,0.107692,8.3554,-5.08186,-58.5274,0.48544,137.769
2023-03-10 17:41:21:410,0.110174,8.34788,-5.08964,-58.5281,0.483954,137.771
2023-03-10 17:41:21:420,0.120559,8.34362,-5.09225,-58.5306,0.484472,137.77
2023-03-10 17:41:21:430,0.121057,8.33565,-5.07476,-58.5331,0.483786,137.77
2023-03-10 17:41:21:440,0.115821,8.35589,-5.08073,-58.5331,0.484087,137.767
2023-03-10 17:41:21:450,0.118909,8.34922,-5.08244,-58.5328,0.483772,137.769
2023-03-10 17:41:21:460,0.116763,8.34658,-5.09198,-58.5315,0.483213,137.768
2023-03-10 17:41:21:470,0.112558,8.34478,-5.08535,-58.5303,0.482379,137.768
2023-03-10 17:41:21:480,0.109013,8.35277,-5.0684,-58.5316,0.482833,137.765
2023-03-10 17:41:21:490,0.111111,8.3506,-5.06954,-58.5279,0.482684,137.767
2023-03-10 17:41:21:500,0.124729,8.35236,-5.07513,-58.5275,0.481087,137.768
2023-03-10 17:41:21:510,0.122031,8.35829,-5.07625,-58.5273,0.480548,137.768
2023-03-10 17:41:21:520,0.127562,8.35674,-5.0694,-58.527,0.481304,137.768
2023-03-10 17:41:21:530,0.123264,8.35048,-5.09026,-58.5269,0.481545,137.765
2023-03-10 17:41:21:540,0.114,8.34667,-5.08503,-58.5271,0.480807,137.765
2023-03-10 17:41:21:550,0.117416,8.3409,-5.0951,-58.5248,0.484384,137.765
2023-03-10 17:41:21:560,0.113505,8.3456,-5.09816,-58.5244,0.484294,137.766
2023-03-10 17:41:21:570,0.120369,8.34878,-5.09193,-58.521,0.482232,137.764
2023-03-10 17:41:21:580,0.12236,8.35159,-5.08085,-58.5199,0.482381,137.762
2023-03-10 17:41:21:590,0.129811,8.3527,-5.07338,-58.5211,0.478754,137.76
2023-03-10 17:41:21:600,0.117864,8.35587,-5.08747,-58.5202,0.479707,137.76
2023-03-10 17:41:21:610,0.120979,8.35723,-5.07801,-58.5204,0.478798,137.76
2023-03-10 17:41:21:620,0.120388,8.35889,-5.06973,-58.5215,0.480055,137.764
2023-03-10 17:41:21:630,0.128053,8.35521,-5.08019,-58.523,0.482151,137.762
2023-03-10 17:41:21:640,0.126523,8.34762,-5.08719,-58.5236,0.484595,137.761
2023-03-10 17:41:21:650,0.125837,8.34605,-5.08312,-58.5248,0.485355,137.76
2023-03-10 17:41:21:660,0.124138,8.35031,-5.08109,-58.5256,0.485545,137.759
2023-03-10 17:41:21:670,0.121362,8.35213,-5.07442,-58.5287,0.483719,137.761
2023-03-10 17:41:21:680,0.117799,8.33676,-5.0907,-58.5278,0.479491,137.76
2023-03-10 17:41:21:690,0.113537,8.345,-5.08332,-58.5293,0.479106,137.765
2023-03-10 17:41:21:700,0.115858,8.35539,-5.07616,-58.5252,0.476925,137.766
2023-03-10 17:41:21:710,0.11639,8.36892,-5.06918,-58.5255,0.4766,137.768
2023-03-10 17:41:21:720,0.118012,8.36635,-5.06926,-58.5263,0.475465,137.768
2023-03-10 17:41:21:730,0.117457,8.35652,-5.07619,-58.5278,0.474905,137.767
2023-03-10 17:41:21:740,0.121865,8.34771,-5.08609,-58.5277,0.47155,137.767
2023-03-10 17:41:21:750,0.117793,8.33998,-5.09981,-58.5271,0.473073,137.769
2023-03-10 17:41:21:760,0.122965,8.33921,-5.0859,-58.5268,0.477492,137.77
2023-03-10 17:41:21:770,0.112054,8.3536,-5.08107,-58.5225,0.477804,137.773
2023-03-10 17:41:21:780,0.112568,8.35928,-5.07169,-58.5249,0.479934,137.775
2023-03-10 17:41:21:790,0.120696,8.35484,-5.08579,-58.5277,0.478181,137.774
2023-03-10 17:41:21:800,0.129907,8.35739,-5.08898,-58.5269,0.478678,137.772
2023-03-10 17:41:21:810,0.113378,8.3454,-5.08291,-58.5248,0.477096,137.773
2023-03-10 17:41:21:820,0.113827,8.33754,-5.09383,-58.5252,0.474889,137.774
2023-03-10 17:41:21:830,0.123401,8.35078,-5.09319,-58.5257,0.476159,137.774
2023-03-10 17:41:21:840,0.119493,8.35517,-5.08505,-58.5249,0.474956,137.777
2023-03-10 17:41:21:850,0.111622,8.34824,-5.07893,-58.5237,0.474782,137.775
2023-03-10 17:41:21:860,0.110429,8.35261,-5.07334,-58.524,0.471884,137.78
2023-03-10 17:41:21:870,0.118283,8.363,-5.06803,-58.522,0.470684,137.782
2023-03-10 17:41:21:880,0.11472,8.36531,-5.08026,-58.525,0.470334,137.784
2023-03-10 17:41:21:890,0.120969,8.35302,-5.08294,-58.5241,0.471166,137.783
2023-03-10 17:41:21:900,0.116438,8.36025,-5.0809,-58.5247,0.469816,137.785
2023-03-10 17:41:21:911,0.1309,8.35524,-5.0872,-58.5268,0.470139,137.785
2023-03-10 17:41:21:920,0.114027,8.35801,-5.08062,-58.5245,0.472126,137.788
2023-03-10 17:41:21:930,0.111334,8.35313,-5.08966,-58.5228,0.470891,137.788
2023-03-10 17:41:21:940,0.110703,8.34031,-5.08821,-58.5249,0.468965,137.785
2023-03-10 17:41:21:950,0.110837,8.35408,-5.08008,-58.526,0.466881,137.788
2023-03-10 17:41:21:960,0.115149,8.34275,-5.09354,-58.527,0.468756,137.789
2023-03-10 17:41:21:970,0.120467,8.3422,-5.09311,-58.5284,0.472325,137.79
2023-03-10 17:41:21:980,0.124411,8.34358,-5.09129,-58.5285,0.473039,137.79
2023-03-10 17:41:21:990,0.120129,8.35146,-5.07676,-58.5267,0.47016,137.79
2023-03-10 17:41:22:0,0.115923,8.3587,-5.08438,-58.5288,0.471533,137.79
2023-03-10 17:41:22:10,0.112196,8.34463,-5.10018,-58.5313,0.470965,137.787
2023-03-10 17:41:22:20,0.113459,8.34364,-5.09328,-58.529,0.469505,137.788
2023-03-10 17:41:22:30,0.119923,8.35409,-5.08001,-58.5328,0.46595,137.787
2023-03-10 17:41:22:40,0.118036,8.34525,-5.08215,-58.5328,0.464852,137.787
2023-03-10 17:41:22:50,0.11932,8.35025,-5.07812,-58.5358,0.467004,137.789
2023-03-10 17:41:22:60,0.122398,8.35722,-5.07982,-58.537,0.468612,137.788
2023-03-10 17:41:22:70,0.119798,8.34629,-5.08192,-58.5365,0.470065,137.787
2023-03-10 17:41:22:80,0.108471,8.3505,-5.07679,-58.536,0.470701,137.79
2023-03-10 17:41:22:90,0.112974,8.35308,-5.08579,-58.5327,0.471043,137.79
2023-03-10 17:41:22:100,0.119241,8.35276,-5.07595,-58.535,0.469975,137.791
2023-03-10 17:41:22:111,0.118592,8.3446,-5.08328,-58.5328,0.47256,137.79
2023-03-10 17:41:22:120,0.126088,8.35284,-5.08551,-58.5329,0.471895,137.793
2023-03-10 17:41:22:130,0.119593,8.3548,-5.08075,-58.5337,0.471949,137.792
2023-03-10 17:41:22:140,0.112055,8.3411,-5.0896,-58.5293,0.472673,137.792
2023-03-10 17:41:22:150,0.109956,8.34271,-5.08919,-58.5248,0.469767,137.792
2023-03-10 17:41:22:160,0.115759,8.3374,-5.09206,-58.5232,0.47063,137.791
2023-03-10 17:41:22:170,0.118172,8.34659,-5.08418,-58.5259,0.469013,137.787
2023-03-10 17:41:22:180,0.106832,8.34631,-5.08479,-58.5267,0.47101,137.784
2023-03-10 17:41:22:191,0.110028,8.34693,-5.08666,-58.5258,0.469092,137.784
2023-03-10 17:41:22:200,0.110316,8.3536,-5.07444,-58.5219,0.468112,137.783
2023-03-10 17:41:22:210,0.117007,8.34457,-5.09127,-58.5243,0.470637,137.787
2023-03-10 17:41:22:220,0.121357,8.34894,-5.09775,-58.5269,0.472524,137.787
2023-03-10 17:41:22:231,0.121109,8.3424,-5.09284,-58.5265,0.472937,137.788
2023-03-10 17:41:22:241,0.109815,8.35035,-5.0909,-58.5248,0.473311,137.79
2023-03-10 17:41:22:251,0.110496,8.35861,-5.07901,-58.5249,0.472751,137.789
2023-03-10 17:41:22:261,0.113576,8.35324,-5.08,-58.522,0.471864,137.79
2023-03-10 17:41:22:271,0.116675,8.34908,-5.08893,-58.5207,0.471131,137.79
2023-03-10 17:41:22:281,0.116821,8.35552,-5.0854,-58.5215,0.469212,137.788
2023-03-10 17:41:22:291,0.119865,8.35124,-5.09044,-58.5222,0.472186,137.787
2023-03-10 17:41:22:301,0.116781,8.35112,-5.0947,-58.5185,0.46945,137.785
2023-03-10 17:41:22:311,0.118813,8.3476,-5.09496,-58.5191,0.470246,137.785
2023-03-10 17:41:22:321,0.108385,8.35432,-5.0853,-58.5192,0.472317,137.784
2023-03-10 17:41:22:331,0.118089,8.36002,-5.07326,-58.5229,0.471436,137.781
2023-03-10 17:41:22:341,0.127955,8.35396,-5.0709,-58.5239,0.471819,137.779
2023-03-10 17:41:22:351,0.122281,8.35052,-5.07958,-58.5254,0.474202,137.777
2023-03-10 17:41:22:360,0.123765,8.34216,-5.08232,-58.5286,0.476848,137.779
2023-03-10 17:41:22:370,0.115254,8.35492,-5.08051,-58.5276,0.475366,137.78
2023-03-10 17:41:22:380,0.115583,8.35695,-5.0776,-58.5291,0.476115,137.778
2023-03-10 17:41:22:390,0.103375,8.35083,-5.0806,-58.5272,0.476038,137.78
2023-03-10 17:41:22:400,0.116793,8.35227,-5.08108,-58.5261,0.47723,137.781
2023-03-10 17:41:22:410,0.121492,8.35344,-5.07554,-58.5241,0.479168,137.781
2023-03-10 17:41:22:420,0.116884,8.34486,-5.08599,-58.5242,0.479892,137.783
2023-03-10 17:41:22:430,0.118468,8.35048,-5.08433,-58.5225,0.478677,137.78
2023-03-10 17:41:22:440,0.119627,8.35165,-5.07884,-58.5237,0.477796,137.779
2023-03-10 17:41:22:450,0.129608,8.35827,-5.08279,-58.5242,0.480561,137.778
2023-03-10 17:41:22:460,0.124188,8.35291,-5.081,-58.5238,0.482349,137.779
2023-03-10 17:41:22:470,0.110545,8.34802,-5.08139,-58.5225,0.481465,137.783
2023-03-10 17:41:22:480,0.114422,8.34295,-5.09424,-58.5253,0.4803,137.782
2023-03-10 17:41:22:490,0.115723,8.34409,-5.10221,-58.5263,0.476502,137.783
2023-03-10 17:41:22:500,0.116173,8.34301,-5.09636,-58.5287,0.477597,137.781
2023-03-10 17:41:22:511,0.113886,8.34992,-5.0734,-58.5277,0.477316,137.781
2023-03-10 17:41:22:520,0.115949,8.35441,-5.07353,-58.5281,0.476793,137.782
2023-03-10 17:41:22:530,0.124599,8.34922,-5.08277,-58.525,0.478733,137.78
2023-03-10 17:41:22:540,0.126622,8.35189,-5.07899,-58.5238,0.476783,137.783
2023-03-10 17:41:22:550,0.114504,8.35651,-5.0715,-58.5242,0.477052,137.781
2023-03-10 17:41:22:560,0.113965,8.36363,-5.07283,-58.5264,0.4793,137.782
2023-03-10 17:41:22:570,0.11504,8.35697,-5.08546,-58.5243,0.48101,137.782
2023-03-10 17:41:22:580,0.111588,8.34907,-5.08036,-58.5254,0.479884,137.783
2023-03-10 17:41:22:590,0.111449,8.34449,-5.08131,-58.5271,0.479878,137.784
2023-03-10 17:41:22:600,0.12187,8.3505,-5.08104,-58.5259,0.478732,137.781
2023-03-10 17:41:22:610,0.124339,8.35048,-5.08439,-58.528,0.473877,137.78
2023-03-10 17:41:22:620,0.131423,8.34847,-5.08527,-58.5279,0.474222,137.78
2023-03-10 17:41:22:630,0.122739,8.34751,-5.0859,-58.5295,0.476337,137.779
2023-03-10 17:41:22:640,0.115773,8.34117,-5.08694,-58.5283,0.476165,137.778
2023-03-10 17:41:22:650,0.112921,8.35048,-5.08435,-58.5294,0.47647,137.774
2023-03-10 17:41:22:660,0.113581,8.34776,-5.07307,-58.5311,0.473769,137.775
2023-03-10 17:41:22:670,0.125502,8.3481,-5.08131,-58.5346,0.477266,137.776
2023-03-10 17:41:22:680,0.118413,8.34979,-5.08141,-58.5331,0.481112,137.776
2023-03-10 17:41:22:690,0.118167,8.36228,-5.07157,-58.5334,0.480715,137.774
2023-03-10 17:41:22:700,0.112292,8.3551,-5.06725,-58.531,0.477641,137.772
2023-03-10 17:41:22:710,0.122657,8.35137,-5.08292,-58.534,0.47531,137.772
2023-03-10 17:41:22:720,0.113977,8.35517,-5.07838,-58.5323,0.475109,137.774
2023-03-10 17:41:22:730,0.110448,8.35897,-5.08535,-58.5349,0.472413,137.773
2023-03-10 17:41:22:740,0.115887,8.34926,-5.08641,-58.5295,0.470421,137.774
2023-03-10 17:41:22:750,0.128068,8.34761,-5.08279,-58.5276,0.465836,137.777
2023-03-10 17:41:22:760,0.121311,8.33977,-5.08991,-58.5269,0.468303,137.774
2023-03-10 17:41:22:770,0.121438,8.35266,-5.08348,-58.5259,0.469411,137.771
2023-03-10 17:41:22:780,0.123289,8.35444,-5.08148,-58.5268,0.469131,137.773
2023-03-10 17:41:22:790,0.112285,8.3467,-5.07524,-58.5297,0.468974,137.771
2023-03-10 17:41:22:800,0.114218,8.34307,-5.07824,-58.5297,0.470522,137.771
2023-03-10 17:41:22:810,0.12536,8.34924,-5.08886,-58.5311,0.471188,137.773
2023-03-10 17:41:22:820,0.114901,8.36062,-5.07939,-58.53,0.472899,137.773
2023-03-10 17:41:22:830,0.120298,8.36636,-5.06277,-58.5289,0.476449,137.771
2023-03-10 17:41:22:840,0.127176,8.35495,-5.07739,-58.5289,0.479618,137.77
2023-03-10 17:41:22:850,0.116972,8.35286,-5.078,-58.5299,0.480948,137.773
2023-03-10 17:41:22:860,0.123636,8.35447,-5.07784,-58.531,0.478864,137.774
2023-03-10 17:41:22:870,0.120092,8.35945,-5.08586,-58.5312,0.480995,137.774
2023-03-10 17:41:22:880,0.11539,8.3536,-5.08489,-58.5307,0.481675,137.774
2023-03-10 17:41:22:890,0.119222,8.35544,-5.07625,-58.533,0.481196,137.773
2023-03-10 17:41:22:900,0.128603,8.35016,-5.08476,-58.5346,0.482808,137.774
2023-03-10 17:41:22:910,0.127905,8.36383,-5.0802,-58.5372,0.483573,137.775
2023-03-10 17:41:22:920,0.120861,8.36201,-5.07719,-58.5339,0.486006,137.776
2023-03-10 17:41:22:930,0.118203,8.35022,-5.07686,-58.5338,0.488716,137.777
2023-03-10 17:41:22:940,0.118827,8.35198,-5.07712,-58.5314,0.490019,137.776
2023-03-10 17:41:22:950,0.114911,8.3516,-5.0852,-58.5332,0.488316,137.771
2023-03-10 17:41:22:960,0.117356,8.3509,-5.0922,-58.5341,0.488106,137.772
2023-03-10 17:41:22:970,0.118823,8.35181,-5.07785,-58.5333,0.487385,137.774
2023-03-10 17:41:22:980,0.104912,8.35471,-5.07528,-58.5355,0.482463,137.775
2023-03-10 17:41:22:990,0.104612,8.34747,-5.07873,-58.5336,0.482864,137.775
2023-03-10 17:41:23:0,0.118687,8.35014,-5.08684,-58.5268,0.481561,137.774
2023-03-10 17:41:23:10,0.115724,8.35403,-5.08214,-58.526,0.481702,137.776
2023-03-10 17:41:23:20,0.102281,8.35755,-5.0808,-58.526,0.480767,137.775
2023-03-10 17:41:23:30,0.119232,8.35537,-5.0743,-58.5216,0.480288,137.772
2023-03-10 17:41:23:40,0.121874,8.34964,-5.06967,-58.52,0.477156,137.771
2023-03-10 17:41:23:50,0.130034,8.34587,-5.08987,-58.52,0.477494,137.767
2023-03-10 17:41:23:60,0.124543,8.34513,-5.08234,-58.518,0.477499,137.766
2023-03-10 17:41:23:70,0.116717,8.35616,-5.07663,-58.5186,0.475923,137.767
2023-03-10 17:41:23:80,0.115388,8.34393,-5.08191,-58.516,0.477861,137.767
2023-03-10 17:41:23:90,0.11892,8.33312,-5.08044,-58.5168,0.480314,137.771
2023-03-10 17:41:23:100,0.122071,8.33869,-5.08488,-58.5187,0.481567,137.771
2023-03-10 17:41:23:110,0.121362,8.35274,-5.08235,-58.5179,0.480634,137.768
2023-03-10 17:41:23:120,0.114299,8.3576,-5.08701,-58.5191,0.478213,137.767
2023-03-10 17:41:23:130,0.120114,8.36375,-5.07858,-58.5193,0.478539,137.768
2023-03-10 17:41:23:140,0.12104,8.35638,-5.07879,-58.5223,0.479481,137.768
2023-03-10 17:41:23:150,0.119817,8.34789,-5.07735,-58.5226,0.478493,137.764
2023-03-10 17:41:23:160,0.131874,8.34756,-5.08949,-58.5228,0.481788,137.766
2023-03-10 17:41:23:170,0.117004,8.35676,-5.08061,-58.5217,0.480804,137.766
2023-03-10 17:41:23:180,0.109392,8.35582,-5.07777,-58.5207,0.48224,137.767
2023-03-10 17:41:23:190,0.120818,8.34995,-5.08167,-58.5177,0.480919,137.764
2023-03-10 17:41:23:200,0.121906,8.34648,-5.08986,-58.5171,0.481758,137.763
2023-03-10 17:41:23:210,0.128107,8.34834,-5.08713,-58.5139,0.479944,137.763
2023-03-10 17:41:23:220,0.124102,8.34465,-5.08829,-58.5116,0.482388,137.763
2023-03-10 17:41:23:230,0.128694,8.34659,-5.08567,-58.5106,0.48451,137.764
2023-03-10 17:41:23:240,0.111752,8.34282,-5.09602,-58.5107,0.484764,137.762
2023-03-10 17:41:23:250,0.11878,8.34487,-5.08962,-58.513,0.482302,137.761
2023-03-10 17:41:23:260,0.105072,8.35023,-5.09006,-58.5121,0.481736,137.763
2023-03-10 17:41:23:270,0.106908,8.36062,-5.09428,-58.5124,0.479619,137.763
2023-03-10 17:41:23:280,0.119767,8.35111,-5.09233,-58.5127,0.479434,137.76
2023-03-10 17:41:23:290,0.118372,8.34398,-5.08043,-58.5157,0.476204,137.761
2023-03-10 17:41:23:300,0.124376,8.3584,-5.07188,-58.5174,0.47888,137.762
2023-03-10 17:41:23:310,0.127146,8.35465,-5.07019,-58.5162,0.47894,137.763
2023-03-10 17:41:23:320,0.128128,8.34957,-5.08316,-58.5161,0.484214,137.764
2023-03-10 17:41:23:330,0.121285,8.35272,-5.08124,-58.5158,0.483799,137.764
2023-03-10 17:41:23:340,0.120361,8.35904,-5.07071,-58.514,0.484722,137.765
2023-03-10 17:41:23:350,0.112416,8.35785,-5.08012,-58.5142,0.483342,137.764
2023-03-10 17:41:23:360,0.125584,8.33864,-5.07756,-58.5122,0.481986,137.765
2023-03-10 17:41:23:370,0.123715,8.34595,-5.08464,-58.5098,0.481577,137.765
2023-03-10 17:41:23:380,0.11412,8.36053,-5.07617,-58.5068,0.480679,137.767
2023-03-10 17:41:23:390,0.119209,8.35869,-5.08555,-58.5094,0.483709,137.766
2023-03-10 17:41:23:400,0.111646,8.35176,-5.06944,-58.5091,0.482912,137.765
2023-03-10 17:41:23:410,0.109925,8.35794,-5.06881,-58.5092,0.483178,137.766
2023-03-10 17:41:23:420,0.12265,8.35957,-5.07626,-58.5095,0.480271,137.766
2023-03-10 17:41:23:430,0.121174,8.34252,-5.09418,-58.51,0.480546,137.762
2023-03-10 17:41:23:440,0.116731,8.34217,-5.08658,-58.5074,0.479587,137.764
2023-03-10 17:41:23:450,0.114611,8.35086,-5.08295,-58.5035,0.480837,137.764
2023-03-10 17:41:23:460,0.120701,8.35068,-5.08618,-58.5021,0.480247,137.766
2023-03-10 17:41:23:470,0.114077,8.3554,-5.07477,-58.5015,0.48161,137.767
2023-03-10 17:41:23:480,0.12125,8.34776,-5.07926,-58.5031,0.484536,137.767
2023-03-10 17:41:23:490,0.112388,8.35741,-5.08434,-58.5051,0.482321,137.769
2023-03-10 17:41:23:500,0.111964,8.35037,-5.08251,-58.5064,0.480876,137.77
2023-03-10 17:41:23:510,0.105336,8.35631,-5.08166,-58.5077,0.482562,137.772
2023-03-10 17:41:23:520,0.110777,8.34967,-5.08047,-58.5061,0.482969,137.771
2023-03-10 17:41:23:530,0.108358,8.35071,-5.08052,-58.5036,0.484492,137.773
2023-03-10 17:41:23:540,0.116424,8.34824,-5.07898,-58.5023,0.482697,137.777
2023-03-10 17:41:23:550,0.125256,8.35491,-5.0976,-58.5041,0.482118,137.778
2023-03-10 17:41:23:560,0.131422,8.35183,-5.09287,-58.5016,0.478056,137.777
2023-03-10 17:41:23:570,0.128823,8.33777,-5.08652,-58.5039,0.479454,137.778
2023-03-10 17:41:23:580,0.113802,8.35077,-5.08342,-58.5038,0.480669,137.78
2023-03-10 17:41:23:590,0.0992152,8.34855,-5.07855,-58.5047,0.478585,137.781
2023-03-10 17:41:23:600,0.108436,8.35168,-5.07988,-58.5055,0.478923,137.783
2023-03-10 17:41:23:610,0.111687,8.35156,-5.07497,-58.507,0.478396,137.787
2023-03-10 17:41:23:620,0.112976,8.35211,-5.08578,-58.5056,0.477775,137.785
2023-03-10 17:41:23:630,0.110377,8.35549,-5.07481,-58.5079,0.479147,137.786
2023-03-10 17:41:23:640,0.12224,8.35739,-5.07884,-58.5063,0.480989,137.785
2023-03-10 17:41:23:650,0.119844,8.36152,-5.07291,-58.5078,0.479195,137.783
2023-03-10 17:41:23:660,0.109076,8.36232,-5.08198,-58.5085,0.483212,137.783
2023-03-10 17:41:23:670,0.111287,8.35397,-5.08374,-58.5085,0.484257,137.782
2023-03-10 17:41:23:680,0.109344,8.34896,-5.0677,-58.5121,0.484509,137.782
2023-03-10 17:41:23:690,0.116969,8.34056,-5.0774,-58.5158,0.485891,137.78
2023-03-10 17:41:23:700,0.107842,8.35084,-5.07355,-58.5176,0.486033,137.779
2023-03-10 17:41:23:710,0.110141,8.35848,-5.07174,-58.5163,0.486191,137.779
2023-03-10 17:41:23:720,0.113795,8.34939,-5.07473,-58.5161,0.487992,137.78
2023-03-10 17:41:23:730,0.114616,8.34755,-5.08512,-58.5201,0.487138,137.784
2023-03-10 17:41:23:740,0.10621,8.35582,-5.07282,-58.5195,0.490627,137.782
2023-03-10 17:41:23:750,0.114479,8.34814,-5.08147,-58.5195,0.489869,137.784
2023-03-10 17:41:23:760,0.123728,8.34798,-5.08108,-58.5218,0.491967,137.785
2023-03-10 17:41:23:770,0.119066,8.34427,-5.08443,-58.5229,0.491556,137.784
2023-03-10 17:41:23:780,0.109971,8.34839,-5.07071,-58.5227,0.494984,137.784
2023-03-10 17:41:23:790,0.11783,8.35102,-5.08273,-58.5223,0.493968,137.784
2023-03-10 17:41:23:800,0.107434,8.35197,-5.07371,-58.5213,0.489781,137.789
2023-03-10 17:41:23:810,0.110674,8.34868,-5.07357,-58.5199,0.485456,137.789
2023-03-10 17:41:23:820,0.108216,8.34968,-5.07881,-58.5205,0.483456,137.793
2023-03-10 17:41:23:830,0.113355,8.35185,-5.07791,-58.5219,0.48204,137.794
2023-03-10 17:41:23:840,0.110511,8.35045,-5.08331,-58.5243,0.482253,137.795
2023-03-10 17:41:23:850,0.105929,8.34932,-5.07295,-58.5254,0.482397,137.795
2023-03-10 17:41:23:860,0.114781,8.35014,-5.0823,-58.5247,0.481644,137.795
2023-03-10 17:41:23:870,0.123238,8.34234,-5.07634,-58.522,0.479847,137.792
2023-03-10 17:41:23:880,0.116368,8.35375,-5.07097,-58.5271,0.479785,137.792
2023-03-10 17:41:23:890,0.115223,8.34986,-5.07686,-58.5277,0.48215,137.793
2023-03-10 17:41:23:900,0.12141,8.35049,-5.08862,-58.5268,0.483287,137.791
2023-03-10 17:41:23:910,0.121122,8.34182,-5.09092,-58.5276,0.485499,137.79
2023-03-10 17:41:23:920,0.123789,8.34062,-5.09062,-58.5255,0.48664,137.788
2023-03-10 17:41:23:930,0.116509,8.34194,-5.09517,-58.523,0.48623,137.79
2023-03-10 17:41:23:940,0.105026,8.35794,-5.07882,-58.5233,0.483077,137.789
2023-03-10 17:41:23:950,0.115968,8.35593,-5.07998,-58.5261,0.483001,137.789
2023-03-10 17:41:23:960,0.116166,8.35379,-5.07664,-58.527,0.47993,137.789
2023-03-10 17:41:23:970,0.117617,8.36049,-5.07037,-58.5258,0.482155,137.792
2023-03-10 17:41:23:980,0.116788,8.35312,-5.08046,-58.5238,0.484465,137.793
2023-03-10 17:41:23:990,0.108248,8.34842,-5.08643,-58.5212,0.485057,137.793
2023-03-10 17:41:24:0,0.107752,8.35043,-5.07532,-58.5234,0.485048,137.789
2023-03-10 17:41:24:10,0.107825,8.35551,-5.07194,-58.5221,0.483187,137.791
2023-03-10 17:41:24:20,0.104968,8.35126,-5.08155,-58.5219,0.484199,137.791
2023-03-10 17:41:24:30,0.109631,8.36256,-5.07225,-58.5222,0.483892,137.79
2023-03-10 17:41:24:40,0.112215,8.36378,-5.0588,-58.5221,0.481633,137.791
2023-03-10 17:41:24:50,0.115551,8.34042,-5.08453,-58.5218,0.483309,137.791
2023-03-10 17:41:24:60,0.115379,8.35574,-5.08395,-58.5217,0.480744,137.788
2023-03-10 17:41:24:70,0.113515,8.34911,-5.08033,-58.5194,0.478294,137.788
2023-03-10 17:41:24:80,0.113395,8.34955,-5.08544,-58.5191,0.48101,137.786
2023-03-10 17:41:24:90,0.116521,8.34519,-5.07929,-58.5215,0.480555,137.786
2023-03-10 17:41:24:100,0.11325,8.34335,-5.07762,-58.5206,0.482709,137.784
2023-03-10 17:41:24:110,0.115511,8.35264,-5.07956,-58.5232,0.481916,137.783
2023-03-10 17:41:24:120,0.105518,8.34867,-5.08528,-58.5225,0.482882,137.781
2023-03-10 17:41:24:130,0.114486,8.34451,-5.08356,-58.523,0.484543,137.782
2023-03-10 17:41:24:140,0.115717,8.34575,-5.09008,-58.5234,0.485798,137.784
2023-03-10 17:41:24:150,0.114021,8.35567,-5.08223,-58.5226,0.486469,137.787
2023-03-10 17:41:24:160,0.117378,8.34435,-5.08391,-58.5226,0.486214,137.787
2023-03-10 17:41:24:170,0.117581,8.33471,-5.09718,-58.5235,0.487122,137.789
2023-03-10 17:41:24:180,0.120575,8.3457,-5.08574,-58.5217,0.486624,137.791
2023-03-10 17:41:24:190,0.116907,8.35574,-5.08389,-58.5243,0.485027,137.793
2023-03-10 17:41:24:200,0.105108,8.35382,-5.08205,-58.5279,0.483632,137.794
2023-03-10 17:41:24:210,0.110289,8.34967,-5.08087,-58.5283,0.483045,137.792
2023-03-10 17:41:24:220,0.117932,8.34721,-5.08304,-58.5319,0.48099,137.793
2023-03-10 17:41:24:230,0.116643,8.34898,-5.08185,-58.5288,0.481418,137.792
2023-03-10 17:41:24:240,0.119941,8.34745,-5.09355,-58.5298,0.481895,137.791
2023-03-10 17:41:24:250,0.119972,8.35337,-5.08434,-58.5302,0.484855,137.789
2023-03-10 17:41:24:260,0.119081,8.34893,-5.08942,-58.5309,0.48812,137.792
2023-03-10 17:41:24:270,0.108519,8.34922,-5.08159,-58.5326,0.486817,137.792
2023-03-10 17:41:24:280,0.111752,8.37579,-5.05702,-58.5332,0.490135,137.792
2023-03-10 17:41:24:290,0.11858,8.35957,-5.06057,-58.5329,0.493218,137.792
2023-03-10 17:41:24:300,0.126266,8.34347,-5.0794,-58.5359,0.495964,137.791
2023-03-10 17:41:24:310,0.107769,8.35066,-5.07275,-58.5365,0.496884,137.792
2023-03-10 17:41:24:320,0.111192,8.3482,-5.07984,-58.5374,0.494669,137.79
2023-03-10 17:41:24:330,0.116983,8.34883,-5.09029,-58.5368,0.493104,137.789
2023-03-10 17:41:24:340,0.122322,8.34597,-5.08822,-58.537,0.490653,137.789
2023-03-10 17:41:24:350,0.123653,8.3398,-5.08739,-58.5352,0.487114,137.792
2023-03-10 17:41:24:360,0.115293,8.33819,-5.0881,-58.5328,0.488232,137.792
2023-03-10 17:41:24:370,0.119362,8.35235,-5.081,-58.5304,0.486889,137.794
2023-03-10 17:41:24:380,0.116008,8.34787,-5.07039,-58.5316,0.48711,137.794
2023-03-10 17:41:24:390,0.112507,8.35492,-5.0811,-58.5314,0.485115,137.794
2023-03-10 17:41:24:400,0.123291,8.34719,-5.07582,-58.5325,0.48416,137.793
2023-03-10 17:41:24:410,0.115094,8.35332,-5.06968,-58.5345,0.486771,137.793
2023-03-10 17:41:24:420,0.12006,8.35589,-5.08103,-58.5322,0.488621,137.792
2023-03-10 17:41:24:430,0.117995,8.33904,-5.09236,-58.5323,0.488633,137.791
2023-03-10 17:41:24:440,0.105624,8.35148,-5.07931,-58.529,0.487283,137.792
2023-03-10 17:41:24:450,0.113928,8.36014,-5.08016,-58.5309,0.490611,137.794
2023-03-10 17:41:24:460,0.118042,8.35224,-5.07465,-58.534,0.493033,137.793
2023-03-10 17:41:24:470,0.115119,8.3536,-5.06603,-58.5349,0.493347,137.794
2023-03-10 17:41:24:480,0.124757,8.35665,-5.07612,-58.5363,0.493558,137.796
2023-03-10 17:41:24:490,0.116933,8.35985,-5.07679,-58.5377,0.495511,137.795
2023-03-10 17:41:24:500,0.114068,8.34978,-5.09237,-58.5376,0.492746,137.793
2023-03-10 17:41:24:510,0.118794,8.32702,-5.10285,-58.5367,0.49076,137.794
2023-03-10 17:41:24:520,0.116213,8.34581,-5.08791,-58.5352,0.490031,137.794
2023-03-10 17:41:24:530,0.115872,8.34628,-5.07939,-58.5352,0.492295,137.793
2023-03-10 17:41:24:540,0.121109,8.34895,-5.07564,-58.5361,0.493569,137.792
2023-03-10 17:41:24:550,0.111384,8.34766,-5.08682,-58.5351,0.492942,137.792
2023-03-10 17:41:24:560,0.121948,8.35825,-5.08511,-58.5369,0.492469,137.793
2023-03-10 17:41:24:570,0.11886,8.35129,-5.0841,-58.5395,0.490965,137.792
2023-03-10 17:41:24:580,0.120739,8.34212,-5.08822,-58.5401,0.491595,137.791
2023-03-10 17:41:24:590,0.120622,8.34838,-5.08792,-58.541,0.490259,137.793
2023-03-10 17:41:24:600,0.115884,8.34345,-5.09109,-58.5396,0.493296,137.793
2023-03-10 17:41:24:610,0.120542,8.34103,-5.08325,-58.5428,0.494549,137.794
2023-03-10 17:41:24:620,0.10753,8.3496,-5.08446,-58.5425,0.49418,137.795
2023-03-10 17:41:24:630,0.112925,8.35267,-5.08128,-58.5437,0.494339,137.798
2023-03-10 17:41:24:640,0.117674,8.34227,-5.07804,-58.5444,0.493606,137.797
2023-03-10 17:41:24:650,0.124441,8.3439,-5.08639,-58.5443,0.494152,137.795
2023-03-10 17:41:24:660,0.121547,8.35058,-5.09167,-58.5433,0.494567,137.792
2023-03-10 17:41:24:670,0.110519,8.35049,-5.08222,-58.5474,0.493697,137.791
2023-03-10 17:41:24:680,0.119942,8.35277,-5.07795,-58.546,0.496063,137.791
2023-03-10 17:41:24:690,0.111081,8.34178,-5.08949,-58.5491,0.495809,137.794
2023-03-10 17:41:24:700,0.114135,8.35259,-5.08089,-58.548,0.497228,137.794
2023-03-10 17:41:24:710,0.120827,8.35343,-5.07755,-58.549,0.498613,137.79
2023-03-10 17:41:24:720,0.107287,8.34563,-5.08817,-58.5503,0.498193,137.789
2023-03-10 17:41:24:730,0.117706,8.35336,-5.07525,-58.5544,0.500114,137.788
2023-03-10 17:41:24:740,0.113735,8.35001,-5.08233,-58.5555,0.498971,137.788
2023-03-10 17:41:24:750,0.113574,8.33928,-5.09153,-58.5561,0.494502,137.789
2023-03-10 17:41:24:760,0.113625,8.35974,-5.08904,-58.5549,0.493293,137.79
2023-03-10 17:41:24:770,0.123479,8.35568,-5.08668,-58.5537,0.494447,137.791
2023-03-10 17:41:24:780,0.115678,8.36229,-5.0704,-58.5544,0.495701,137.788
2023-03-10 17:41:24:790,0.108539,8.35134,-5.07718,-58.5513,0.496518,137.789
2023-03-10 17:41:24:800,0.105189,8.34806,-5.07591,-58.5519,0.497273,137.79
2023-03-10 17:41:24:810,0.115764,8.3493,-5.08072,-58.555,0.495546,137.79
2023-03-10 17:41:24:820,0.109145,8.35896,-5.07543,-58.5551,0.496157,137.791
2023-03-10 17:41:24:830,0.113509,8.35834,-5.08423,-58.5545,0.49217,137.791
2023-03-10 17:41:24:840,0.109265,8.35674,-5.07177,-58.5533,0.493444,137.793
2023-03-10 17:41:24:850,0.112458,8.3539,-5.06676,-58.552,0.49142,137.795
2023-03-10 17:41:24:860,0.121413,8.34706,-5.08021,-58.5561,0.490558,137.794
2023-03-10 17:41:24:870,0.106272,8.34696,-5.07185,-58.5554,0.48952,137.794
2023-03-10 17:41:24:880,0.107384,8.34864,-5.08331,-58.554,0.490428,137.796
2023-03-10 17:41:24:890,0.128294,8.35099,-5.0812,-58.5505,0.486355,137.797
2023-03-10 17:41:24:900,0.126573,8.35253,-5.07363,-58.5494,0.484911,137.797
2023-03-10 17:41:24:910,0.119979,8.35068,-5.07464,-58.5504,0.482856,137.798
2023-03-10 17:41:24:920,0.117783,8.34766,-5.08117,-58.5507,0.481294,137.797
2023-03-10 17:41:24:930,0.105315,8.34363,-5.08444,-58.5531,0.478053,137.798
2023-03-10 17:41:24:940,0.113521,8.35227,-5.07686,-58.5562,0.476767,137.798
2023-03-10 17:41:24:950,0.119801,8.34744,-5.07982,-58.5569,0.47858,137.798
2023-03-10 17:41:24:960,0.122509,8.34854,-5.08245,-58.5554,0.476736,137.798
2023-03-10 17:41:24:970,0.117313,8.35332,-5.0851,-58.5556,0.476011,137.797
2023-03-10 17:41:24:980,0.106344,8.35256,-5.09001,-58.5574,0.477579,137.798
2023-03-10 17:41:24:990,0.103822,8.35285,-5.08292,-58.558,0.478646,137.797
2023-03-10 17:41:25:0,0.107459,8.35247,-5.08077,-58.5573,0.477493,137.798
2023-03-10 17:41:25:10,0.118904,8.34871,-5.0803,-58.5579,0.477739,137.799
2023-03-10 17:41:25:20,0.11561,8.34992,-5.07922,-58.5545,0.476319,137.798
2023-03-10 17:41:25:30,0.12473,8.34843,-5.08677,-58.5536,0.475445,137.795
2023-03-10 17:41:25:40,0.116278,8.34261,-5.08187,-58.5547,0.476817,137.794
2023-03-10 17:41:25:50,0.122345,8.35047,-5.07037,-58.5552,0.475872,137.793
2023-03-10 17:41:25:60,0.125715,8.35151,-5.0816,-58.5562,0.476443,137.79
2023-03-10 17:41:25:70,0.115119,8.3479,-5.08172,-58.5556,0.478844,137.789
2023-03-10 17:41:25:80,0.11848,8.3486,-5.09458,-58.5526,0.480119,137.79
2023-03-10 17:41:25:90,0.122048,8.34832,-5.07993,-58.5538,0.479694,137.792
2023-03-10 17:41:25:100,0.122478,8.34665,-5.07725,-58.5549,0.479359,137.793
2023-03-10 17:41:25:110,0.121634,8.3508,-5.07962,-58.5549,0.480528,137.793
2023-03-10 17:41:25:120,0.121438,8.35488,-5.08109,-58.5537,0.481394,137.792
2023-03-10 17:41:25:130,0.113911,8.34999,-5.08025,-58.5495,0.483796,137.793
2023-03-10 17:41:25:140,0.11258,8.34502,-5.09052,-58.5481,0.481998,137.793
2023-03-10 17:41:25:150,0.109934,8.35617,-5.08008,-58.547,0.4837,137.796
2023-03-10 17:41:25:160,0.11155,8.35294,-5.08155,-58.5511,0.481776,137.795
2023-03-10 17:41:25:170,0.102863,8.35528,-5.07984,-58.5503,0.481094,137.795
2023-03-10 17:41:25:180,0.116406,8.35823,-5.07286,-58.55,0.482407,137.794
2023-03-10 17:41:25:190,0.122143,8.3518,-5.07483,-58.549,0.479333,137.794
2023-03-10 17:41:25:200,0.118273,8.35719,-5.07174,-58.5468,0.475369,137.792
2023-03-10 17:41:25:210,0.127573,8.35588,-5.0771,-58.5477,0.474641,137.795
2023-03-10 17:41:25:220,0.122344,8.34942,-5.08229,-58.5466,0.47488,137.795
2023-03-10 17:41:25:230,0.120026,8.35444,-5.07596,-58.5476,0.475969,137.794
2023-03-10 17:41:25:240,0.123476,8.36124,-5.0714,-58.5479,0.477407,137.794
2023-03-10 17:41:25:250,0.107722,8.35729,-5.07363,-58.5443,0.473924,137.791
2023-03-10 17:41:25:260,0.116044,8.34911,-5.07546,-58.5441,0.474048,137.792
2023-03-10 17:41:25:270,0.119111,8.35541,-5.07975,-58.5448,0.473195,137.792
2023-03-10 17:41:25:280,0.106794,8.34272,-5.09164,-58.5485,0.471715,137.79
2023-03-10 17:41:25:290,0.115189,8.34357,-5.08686,-58.5474,0.470494,137.791
2023-03-10 17:41:25:300,0.122056,8.34327,-5.08312,-58.5474,0.469398,137.791
2023-03-10 17:41:25:310,0.109834,8.34142,-5.08444,-58.5469,0.470643,137.789
2023-03-10 17:41:25:320,0.108242,8.36114,-5.07454,-58.5483,0.468156,137.79
2023-03-10 17:41:25:330,0.120624,8.35234,-5.08242,-58.5464,0.463894,137.789
2023-03-10 17:41:25:340,0.123644,8.34472,-5.08257,-58.5488,0.464191,137.79
2023-03-10 17:41:25:350,0.113645,8.34284,-5.08781,-58.5487,0.463994,137.788
2023-03-10 17:41:25:360,0.108979,8.3551,-5.0776,-58.5459,0.460862,137.79
2023-03-10 17:41:25:370,0.121815,8.34886,-5.07649,-58.5464,0.462846,137.786
2023-03-10 17:41:25:380,0.120177,8.34722,-5.08149,-58.5479,0.462109,137.782
2023-03-10 17:41:25:390,0.111472,8.33913,-5.08023,-58.546,0.461597,137.779
2023-03-10 17:41:25:400,0.118796,8.3468,-5.08383,-58.545,0.462305,137.776
2023-03-10 17:41:25:410,0.113261,8.35552,-5.08577,-58.5421,0.459806,137.777
2023-03-10 17:41:25:420,0.115457,8.35982,-5.07883,-58.5432,0.460039,137.777
2023-03-10 17:41:25:430,0.115039,8.35546,-5.07337,-58.5457,0.462118,137.776
2023-03-10 17:41:25:440,0.121443,8.35631,-5.07725,-58.5473,0.46166,137.776
2023-03-10 17:41:25:450,0.110839,8.35608,-5.06464,-58.548,0.458995,137.778
2023-03-10 17:41:25:460,0.108684,8.35077,-5.06678,-58.5457,0.457203,137.779
2023-03-10 17:41:25:470,0.109429,8.352,-5.07402,-58.545,0.457525,137.78
2023-03-10 17:41:25:480,0.109159,8.35577,-5.07428,-58.5443,0.458607,137.78
2023-03-10 17:41:25:490,0.106672,8.35602,-5.07328,-58.544,0.459318,137.78
2023-03-10 17:41:25:500,0.110947,8.35659,-5.08226,-58.5429,0.461549,137.782
2023-03-10 17:41:25:510,0.121832,8.34266,-5.09042,-58.5419,0.463206,137.78
2023-03-10 17:41:25:520,0.124842,8.34689,-5.08179,-58.5395,0.461273,137.779
2023-03-10 17:41:25:530,0.122831,8.34398,-5.08483,-58.539,0.459267,137.778
2023-03-10 17:41:25:540,0.116547,8.35084,-5.07993,-58.5388,0.461655,137.779
2023-03-10 17:41:25:550,0.122874,8.34895,-5.08559,-58.5349,0.461156,137.779
2023-03-10 17:41:25:560,0.124471,8.34532,-5.07909,-58.5366,0.463293,137.776
2023-03-10 17:41:25:570,0.122871,8.34935,-5.07471,-58.5351,0.465725,137.775
2023-03-10 17:41:25:580,0.124218,8.34567,-5.08056,-58.532,0.465756,137.777
2023-03-10 17:41:25:590,0.121474,8.35517,-5.08483,-58.5294,0.467909,137.777
2023-03-10 17:41:25:600,0.100489,8.35848,-5.08081,-58.5287,0.466377,137.777
2023-03-10 17:41:25:610,0.125576,8.35533,-5.08437,-58.5283,0.464646,137.775
2023-03-10 17:41:25:620,0.128655,8.35762,-5.07972,-58.5258,0.465248,137.777
2023-03-10 17:41:25:630,0.103223,8.35961,-5.07979,-58.5228,0.461522,137.779
2023-03-10 17:41:25:640,0.102192,8.35704,-5.08049,-58.5245,0.460183,137.782
2023-03-10 17:41:25:650,0.111458,8.35577,-5.07888,-58.5248,0.460233,137.781
2023-03-10 17:41:25:660,0.104116,8.3467,-5.08079,-58.5231,0.458812,137.779
2023-03-10 17:41:25:670,0.112169,8.34582,-5.0803,-58.5215,0.458168,137.777
2023-03-10 17:41:25:680,0.11961,8.34159,-5.08912,-58.5181,0.457131,137.78
2023-03-10 17:41:25:690,0.110512,8.36013,-5.075,-58.5175,0.456279,137.783
2023-03-10 17:41:25:700,0.117306,8.35542,-5.07334,-58.5172,0.453877,137.784
2023-03-10 17:41:25:710,0.115299,8.36373,-5.06565,-58.5201,0.456623,137.787
2023-03-10 17:41:25:720,0.122286,8.35541,-5.07421,-58.5173,0.456153,137.787
2023-03-10 17:41:25:730,0.109584,8.34734,-5.0806,-58.5161,0.457176,137.785
2023-03-10 17:41:25:740,0.109106,8.35187,-5.07584,-58.5151,0.4577,137.785
2023-03-10 17:41:25:750,0.115588,8.34642,-5.08528,-58.5156,0.455764,137.783
2023-03-10 17:41:25:760,0.121838,8.34923,-5.08586,-58.5146,0.454963,137.785
2023-03-10 17:41:25:770,0.117104,8.34351,-5.08918,-58.5134,0.453469,137.788
2023-03-10 17:41:25:780,0.111583,8.34556,-5.07242,-58.5115,0.452607,137.789
2023-03-10 17:41:25:790,0.114224,8.34838,-5.0723,-58.5123,0.452697,137.788
2023-03-10 17:41:25:800,0.117856,8.36033,-5.07134,-58.5107,0.452996,137.787
2023-03-10 17:41:25:810,0.112435,8.34851,-5.08551,-58.511,0.453691,137.788
2023-03-10 17:41:25:820,0.111484,8.35167,-5.08073,-58.5105,0.452258,137.791
2023-03-10 17:41:25:830,0.121854,8.35167,-5.07077,-58.5091,0.449846,137.792
2023-03-10 17:41:25:840,0.115712,8.35059,-5.07573,-58.5089,0.449112,137.792
2023-03-10 17:41:25:850,0.114237,8.34217,-5.08671,-58.5073,0.448909,137.793
2023-03-10 17:41:25:860,0.12117,8.33598,-5.08928,-58.5074,0.451403,137.794
2023-03-10 17:41:25:870,0.117844,8.34555,-5.0746,-58.5064,0.450076,137.795
2023-03-10 17:41:25:880,0.119771,8.34603,-5.07421,-58.5053,0.451606,137.792
2023-03-10 17:41:25:890,0.117088,8.35358,-5.07195,-58.503,0.451509,137.794
2023-03-10 17:41:25:900,0.122081,8.34076,-5.08183,-58.5058,0.452451,137.793
2023-03-10 17:41:25:910,0.104692,8.34404,-5.08159,-58.5041,0.451805,137.796
2023-03-10 17:41:25:920,0.107428,8.34651,-5.08999,-58.5025,0.453702,137.796
2023-03-10 17:41:25:930,0.104468,8.35233,-5.08328,-58.502,0.452231,137.796
2023-03-10 17:41:25:940,0.10619,8.34511,-5.08464,-58.5031,0.449351,137.798
2023-03-10 17:41:25:950,0.120697,8.34838,-5.07774,-58.5021,0.447953,137.794
2023-03-10 17:41:25:960,0.115114,8.34019,-5.08901,-58.5003,0.447218,137.791
2023-03-10 17:41:25:970,0.119326,8.34619,-5.08024,-58.5001,0.448817,137.789
2023-03-10 17:41:25:980,0.111598,8.34602,-5.08096,-58.4972,0.45182,137.791
2023-03-10 17:41:25:990,0.121581,8.34991,-5.0767,-58.4984,0.452178,137.789
2023-03-10 17:41:26:0,0.124005,8.35057,-5.0855,-58.4997,0.450908,137.791
2023-03-10 17:41:26:10,0.112933,8.36165,-5.06101,-58.4983,0.448902,137.788
2023-03-10 17:41:26:20,0.11841,8.36359,-5.06943,-58.4964,0.452294,137.786
2023-03-10 17:41:26:30,0.120951,8.35541,-5.08079,-58.494,0.452088,137.788
2023-03-10 17:41:26:41,0.117657,8.35105,-5.08389,-58.4937,0.453211,137.787
2023-03-10 17:41:26:50,0.113692,8.35821,-5.07025,-58.4931,0.452398,137.788
2023-03-10 17:41:26:60,0.112192,8.35194,-5.07199,-58.4937,0.455705,137.786
2023-03-10 17:41:26:70,0.113978,8.35188,-5.08045,-58.4924,0.457427,137.786
2023-03-10 17:41:26:80,0.114068,8.3581,-5.08535,-58.4944,0.458431,137.786
2023-03-10 17:41:26:90,0.12256,8.35718,-5.07959,-58.4945,0.459855,137.786
2023-03-10 17:41:26:100,0.112215,8.35786,-5.0747,-58.4907,0.458572,137.786
2023-03-10 17:41:26:110,0.109211,8.35105,-5.08404,-58.4886,0.455777,137.79
2023-03-10 17:41:26:120,0.104245,8.35155,-5.08091,-58.4886,0.455075,137.79
2023-03-10 17:41:26:130,0.118203,8.35443,-5.07271,-58.4887,0.454443,137.79
2023-03-10 17:41:26:140,0.115274,8.34584,-5.08417,-58.4839,0.453423,137.787
2023-03-10 17:41:26:150,0.114288,8.35888,-5.08739,-58.4823,0.451326,137.785
2023-03-10 17:41:26:160,0.114911,8.3554,-5.08186,-58.4834,0.453528,137.785
2023-03-10 17:41:26:170,0.112838,8.34734,-5.08618,-58.4846,0.452825,137.787
2023-03-10 17:41:26:180,0.113142,8.35435,-5.07218,-58.485,0.454333,137.785
2023-03-10 17:41:26:190,0.11773,8.34814,-5.07642,-58.4911,0.453665,137.785
2023-03-10 17:41:26:200,0.110416,8.34491,-5.08947,-58.4915,0.454644,137.791
2023-03-10 17:41:26:210,0.124392,8.35144,-5.07568,-58.492,0.453892,137.795
2023-03-10 17:41:26:220,0.12225,8.35162,-5.08224,-58.4923,0.455826,137.796
2023-03-10 17:41:26:230,0.11174,8.35092,-5.07986,-58.4902,0.454875,137.797
2023-03-10 17:41:26:240,0.106913,8.35374,-5.07771,-58.4915,0.456373,137.796
2023-03-10 17:41:26:250,0.1194,8.35925,-5.08087,-58.4916,0.456735,137.797
2023-03-10 17:41:26:260,0.114669,8.35584,-5.08169,-58.4922,0.456917,137.797
2023-03-10 17:41:26:270,0.121381,8.35765,-5.0755,-58.4926,0.457253,137.799
2023-03-10 17:41:26:281,0.122337,8.35716,-5.07665,-58.4929,0.456321,137.798
2023-03-10 17:41:26:290,0.129005,8.34739,-5.07529,-58.4945,0.460589,137.798
2023-03-10 17:41:26:300,0.123945,8.34127,-5.07975,-58.493,0.461176,137.798
2023-03-10 17:41:26:310,0.111919,8.35533,-5.07361,-58.4926,0.461132,137.798
2023-03-10 17:41:26:320,0.0980029,8.34363,-5.08355,-58.4928,0.461384,137.794
2023-03-10 17:41:26:330,0.109391,8.34465,-5.07645,-58.4937,0.457025,137.797
2023-03-10 17:41:26:340,0.112285,8.35136,-5.07976,-58.4924,0.456412,137.799
2023-03-10 17:41:26:350,0.109979,8.34105,-5.09576,-58.497,0.457726,137.798
2023-03-10 17:41:26:360,0.106687,8.34752,-5.08934,-58.4984,0.45803,137.795
2023-03-10 17:41:26:370,0.117417,8.34642,-5.08587,-58.4996,0.457842,137.795
2023-03-10 17:41:26:380,0.11127,8.34486,-5.08102,-58.5007,0.457322,137.794
2023-03-10 17:41:26:390,0.110313,8.35237,-5.07342,-58.5031,0.455111,137.793
2023-03-10 17:41:26:400,0.110957,8.34195,-5.08246,-58.5023,0.453641,137.791
2023-03-10 17:41:26:410,0.113403,8.34208,-5.07777,-58.5019,0.453183,137.791
2023-03-10 17:41:26:420,0.11982,8.33826,-5.09414,-58.5015,0.452118,137.794
2023-03-10 17:41:26:430,0.107468,8.33966,-5.08849,-58.5021,0.449053,137.794
2023-03-10 17:41:26:440,0.114372,8.35797,-5.08582,-58.5025,0.451676,137.794
2023-03-10 17:41:26:450,0.115956,8.35561,-5.07998,-58.5032,0.452682,137.794
2023-03-10 17:41:26:460,0.11227,8.35893,-5.07534,-58.503,0.453508,137.793
2023-03-10 17:41:26:470,0.12206,8.36916,-5.06957,-58.5039,0.453373,137.792
2023-03-10 17:41:26:480,0.109283,8.36328,-5.07289,-58.5061,0.453574,137.794
2023-03-10 17:41:26:490,0.105606,8.35217,-5.06833,-58.5047,0.451411,137.794
2023-03-10 17:41:26:500,0.105533,8.35395,-5.0767,-58.5033,0.453085,137.793
2023-03-10 17:41:26:511,0.111332,8.3521,-5.07732,-58.5041,0.45315,137.791
2023-03-10 17:41:26:521,0.122579,8.34234,-5.07617,-58.5058,0.452975,137.791
2023-03-10 17:41:26:530,0.118479,8.34789,-5.08249,-58.5033,0.450514,137.792
2023-03-10 17:41:26:540,0.113539,8.33325,-5.08861,-58.5038,0.452674,137.792
2023-03-10 17:41:26:550,0.10576,8.34828,-5.08397,-58.5044,0.453018,137.792
2023-03-10 17:41:26:560,0.101141,8.35026,-5.08694,-58.5076,0.450169,137.793
2023-03-10 17:41:26:570,0.112726,8.34583,-5.0898,-58.5088,0.44932,137.793
2023-03-10 17:41:26:580,0.113741,8.35161,-5.08919,-58.5071,0.449878,137.795
2023-03-10 17:41:26:590,0.122822,8.34475,-5.09631,-58.5055,0.450258,137.795
2023-03-10 17:41:26:600,0.112807,8.36556,-5.08381,-58.5039,0.450475,137.798
2023-03-10 17:41:26:610,0.11747,8.34555,-5.09023,-58.5038,0.453451,137.795
2023-03-10 17:41:26:620,0.125993,8.34046,-5.09491,-58.5067,0.45105,137.794
2023-03-10 17:41:26:630,0.113812,8.35058,-5.09134,-58.511,0.451856,137.793
2023-03-10 17:41:26:640,0.121588,8.35976,-5.08733,-58.5104,0.452732,137.795
2023-03-10 17:41:26:650,0.117629,8.35167,-5.08522,-58.5103,0.452716,137.795
2023-03-10 17:41:26:660,0.108952,8.34934,-5.07522,-58.5093,0.452568,137.797
2023-03-10 17:41:26:670,0.113688,8.35038,-5.0756,-58.5108,0.454832,137.799
2023-03-10 17:41:26:680,0.113123,8.34666,-5.08125,-58.5111,0.452926,137.797
2023-03-10 17:41:26:690,0.117339,8.35557,-5.07972,-58.5087,0.455414,137.795
2023-03-10 17:41:26:700,0.109297,8.34887,-5.07417,-58.51,0.453369,137.796
2023-03-10 17:41:26:710,0.116497,8.34561,-5.08218,-58.5112,0.452829,137.797
2023-03-10 17:41:26:720,0.108092,8.332,-5.09987,-58.5107,0.451186,137.798
2023-03-10 17:41:26:730,0.110249,8.35184,-5.08442,-58.5138,0.448962,137.803
2023-03-10 17:41:26:740,0.116517,8.35821,-5.08021,-58.5162,0.4496,137.804
2023-03-10 17:41:26:750,0.106087,8.35532,-5.07911,-58.5129,0.449692,137.804
2023-03-10 17:41:26:760,0.108248,8.35338,-5.08229,-58.5121,0.448453,137.804
2023-03-10 17:41:26:770,0.116212,8.34653,-5.08753,-58.5124,0.448883,137.806
2023-03-10 17:41:26:780,0.123638,8.3468,-5.09435,-58.513,0.450048,137.803
2023-03-10 17:41:26:790,0.115846,8.34729,-5.09306,-58.5148,0.452171,137.804
2023-03-10 17:41:26:800,0.115135,8.35263,-5.0865,-58.5127,0.451524,137.804
2023-03-10 17:41:26:810,0.118775,8.34482,-5.09023,-58.5099,0.453574,137.804
2023-03-10 17:41:26:820,0.107227,8.34638,-5.08484,-58.5108,0.453958,137.805
2023-03-10 17:41:26:830,0.106808,8.35323,-5.0809,-58.5082,0.453279,137.806
2023-03-10 17:41:26:840,0.117051,8.34761,-5.0929,-58.511,0.451437,137.806
2023-03-10 17:41:26:850,0.114474,8.34066,-5.08846,-58.5138,0.451377,137.807
2023-03-10 17:41:26:860,0.111378,8.3416,-5.09281,-58.5137,0.450376,137.806
2023-03-10 17:41:26:870,0.105416,8.34158,-5.08326,-58.5115,0.448371,137.806
2023-03-10 17:41:26:880,0.103942,8.33938,-5.07795,-58.5131,0.44696,137.804
2023-03-10 17:41:26:890,0.107658,8.34666,-5.08039,-58.5114,0.446627,137.805
2023-03-10 17:41:26:900,0.112074,8.35061,-5.07834,-58.5082,0.446919,137.806
2023-03-10 17:41:26:910,0.112307,8.34866,-5.08093,-58.5049,0.447166,137.807
2023-03-10 17:41:26:920,0.127237,8.35139,-5.07145,-58.5065,0.447385,137.805
2023-03-10 17:41:26:930,0.125951,8.35268,-5.08118,-58.5064,0.447988,137.805
2023-03-10 17:41:26:940,0.121746,8.35414,-5.08342,-58.5044,0.4463,137.804
2023-03-10 17:41:26:950,0.117966,8.34728,-5.08921,-58.5071,0.442719,137.802
2023-03-10 17:41:26:960,0.111731,8.34667,-5.08476,-58.508,0.44196,137.799
2023-03-10 17:41:26:970,0.116877,8.35087,-5.0811,-58.5092,0.442318,137.8
2023-03-10 17:41:26:980,0.123213,8.34287,-5.09022,-58.5076,0.441329,137.804
2023-03-10 17:41:26:990,0.117811,8.3502,-5.0751,-58.5089,0.440247,137.804
2023-03-10 17:41:27:0,0.107484,8.35258,-5.07728,-58.5083,0.439227,137.804
2023-03-10 17:41:27:10,0.119888,8.35357,-5.07376,-58.5108,0.440617,137.803
2023-03-10 17:41:27:20,0.123856,8.35313,-5.07989,-58.5117,0.443926,137.799
2023-03-10 17:41:27:30,0.116478,8.35363,-5.08688,-58.5087,0.44253,137.801
2023-03-10 17:41:27:40,0.0981345,8.3579,-5.0734,-58.5118,0.439863,137.799
2023-03-10 17:41:27:50,0.104384,8.34915,-5.08396,-58.5102,0.441344,137.799
2023-03-10 17:41:27:60,0.116642,8.35492,-5.08591,-58.5102,0.442454,137.801
2023-03-10 17:41:27:71,0.108387,8.35794,-5.07943,-58.5119,0.441926,137.8
2023-03-10 17:41:27:80,0.108718,8.34503,-5.08886,-58.5121,0.442426,137.798
2023-03-10 17:41:27:90,0.111791,8.35409,-5.07928,-58.5117,0.442141,137.8
2023-03-10 17:41:27:100,0.10318,8.3548,-5.08974,-58.5116,0.440918,137.8
