Timestamp,Acceleration_x,Acceleration_y,Acceleration_z,roll,pitch,yaw
2023-03-11 17:48:48:626,-0.374758,0.918783,-9.67223,-5.04261,-2.59116,87.2874
2023-03-11 17:48:48:634,-0.380776,0.93927,-9.69662,-5.07109,-2.58417,87.2747
2023-03-11 17:48:48:644,-0.377927,0.965439,-9.74466,-5.10615,-2.57864,87.2655
2023-03-11 17:48:48:654,-0.40302,0.994859,-9.77425,-5.13769,-2.57603,87.2577
2023-03-11 17:48:48:664,-0.418003,1.01211,-9.75146,-5.16433,-2.57209,87.2536
2023-03-11 17:48:48:674,-0.423431,0.986017,-9.72473,-5.18342,-2.56981,87.2523
2023-03-11 17:48:48:684,-0.416499,0.96854,-9.69396,-5.20256,-2.56712,87.2556
2023-03-11 17:48:48:694,-0.405502,0.954815,-9.69685,-5.22116,-2.56068,87.2601
2023-03-11 17:48:48:704,-0.392628,0.968523,-9.72902,-5.24758,-2.5571,87.2687
2023-03-11 17:48:48:714,-0.385477,0.987065,-9.74688,-5.27694,-2.55655,87.2782
2023-03-11 17:48:48:724,-0.409511,0.991484,-9.796,-5.30949,-2.56159,87.2906
2023-03-11 17:48:48:734,-0.47384,0.998775,-9.86491,-5.33981,-2.57505,87.3046
2023-03-11 17:48:48:744,-0.559974,1.04058,-9.92842,-5.36433,-2.59052,87.3189
2023-03-11 17:48:48:754,-0.651445,1.05855,-9.98289,-5.38138,-2.60559,87.332
2023-03-11 17:48:48:764,-0.685352,1.07833,-10.0156,-5.38207,-2.61857,87.3371
2023-03-11 17:48:48:774,-0.670889,1.05057,-10.0089,-5.3692,-2.62637,87.3317
2023-03-11 17:48:48:784,-0.616391,0.982669,-9.94937,-5.33332,-2.63673,87.3192
2023-03-11 17:48:48:794,-0.564077,0.91114,-9.8512,-5.29132,-2.64273,87.2985
2023-03-11 17:48:48:804,-0.506275,0.850908,-9.76369,-5.23466,-2.64408,87.2704
2023-03-11 17:48:48:814,-0.443926,0.81516,-9.71522,-5.17798,-2.64183,87.2409
2023-03-11 17:48:48:824,-0.393259,0.804074,-9.6696,-5.12344,-2.63599,87.2104
2023-03-11 17:48:48:834,-0.377353,0.786175,-9.62098,-5.07238,-2.62898,87.1844
2023-03-11 17:48:48:844,-0.375649,0.769914,-9.57847,-5.0274,-2.62302,87.1609
2023-03-11 17:48:48:854,-0.373045,0.769069,-9.55309,-4.99161,-2.61915,87.1393
2023-03-11 17:48:48:864,-0.355987,0.776831,-9.54536,-4.96136,-2.61773,87.1184
2023-03-11 17:48:48:874,-0.356651,0.786716,-9.58387,-4.94585,-2.61474,87.0991
2023-03-11 17:48:48:884,-0.383942,0.819488,-9.61467,-4.9378,-2.6138,87.0862
2023-03-11 17:48:48:894,-0.394084,0.81996,-9.62593,-4.93292,-2.61199,87.0688
2023-03-11 17:48:48:904,-0.362682,0.818561,-9.63372,-4.93362,-2.61088,87.0552
2023-03-11 17:48:48:914,-0.353742,0.822127,-9.62868,-4.93814,-2.61082,87.0422
2023-03-11 17:48:48:924,-0.366892,0.841749,-9.66119,-4.95551,-2.61396,87.0304
2023-03-11 17:48:48:934,-0.383118,0.905304,-9.7248,-4.98366,-2.62562,87.0239
2023-03-11 17:48:48:944,-0.409233,0.944342,-9.77635,-5.0151,-2.63713,87.0196
2023-03-11 17:48:48:954,-0.409729,0.955617,-9.79068,-5.03949,-2.65126,87.0136
2023-03-11 17:48:48:964,-0.409033,0.97051,-9.78208,-5.06997,-2.66467,87.009
2023-03-11 17:48:48:974,-0.436996,0.970452,-9.77821,-5.09317,-2.67748,87.0078
2023-03-11 17:48:48:984,-0.452299,0.973738,-9.77759,-5.1151,-2.68933,87.0112
2023-03-11 17:48:48:994,-0.462176,0.980923,-9.77005,-5.13292,-2.69665,87.0181
2023-03-11 17:48:49:4,-0.472735,0.992197,-9.76343,-5.14582,-2.70424,87.0222
2023-03-11 17:48:49:14,-0.498924,0.971393,-9.77693,-5.15479,-2.71498,87.0275
2023-03-11 17:48:49:23,-0.534299,0.963633,-9.79308,-5.16023,-2.72416,87.031
2023-03-11 17:48:49:34,-0.53563,0.970602,-9.80413,-5.16011,-2.73167,87.0302
2023-03-11 17:48:49:44,-0.554387,0.960495,-9.80397,-5.15545,-2.73886,87.0253
2023-03-11 17:48:49:54,-0.568295,0.943149,-9.79635,-5.14428,-2.74434,87.019
2023-03-11 17:48:49:64,-0.559434,0.911393,-9.78849,-5.12828,-2.75318,87.0076
2023-03-11 17:48:49:74,-0.550231,0.884262,-9.76208,-5.10697,-2.75783,86.9908
2023-03-11 17:48:49:84,-0.521043,0.85822,-9.72004,-5.08475,-2.76287,86.9705
2023-03-11 17:48:49:94,-0.515617,0.830692,-9.69384,-5.06032,-2.76614,86.9489
2023-03-11 17:48:49:104,-0.495548,0.812039,-9.66035,-5.03866,-2.77015,86.9289
2023-03-11 17:48:49:114,-0.495543,0.80245,-9.65625,-5.02118,-2.77264,86.9071
2023-03-11 17:48:49:124,-0.511113,0.798591,-9.66718,-5.00708,-2.77576,86.8934
2023-03-11 17:48:49:134,-0.502496,0.80578,-9.69165,-4.99639,-2.77859,86.8764
2023-03-11 17:48:49:144,-0.497304,0.799434,-9.72414,-4.98849,-2.77864,86.8616
2023-03-11 17:48:49:154,-0.500334,0.82198,-9.71197,-4.98816,-2.78147,86.8494
2023-03-11 17:48:49:164,-0.517433,0.813938,-9.7038,-4.98407,-2.78049,86.8381
2023-03-11 17:48:49:174,-0.520169,0.802571,-9.68042,-4.98143,-2.77589,86.8266
2023-03-11 17:48:49:184,-0.504175,0.781763,-9.65564,-4.97926,-2.77081,86.8162
2023-03-11 17:48:49:194,-0.498093,0.774641,-9.65486,-4.98156,-2.76313,86.8068
2023-03-11 17:48:49:204,-0.470822,0.784101,-9.63596,-4.98917,-2.75162,86.7976
2023-03-11 17:48:49:214,-0.438472,0.802046,-9.62916,-5.00686,-2.7385,86.7923
2023-03-11 17:48:49:224,-0.430938,0.808072,-9.63763,-5.02612,-2.71988,86.7911
2023-03-11 17:48:49:234,-0.437078,0.816584,-9.65669,-5.04799,-2.70222,86.7897
2023-03-11 17:48:49:244,-0.449733,0.85506,-9.68271,-5.07647,-2.68455,86.7961
2023-03-11 17:48:49:254,-0.46129,0.879198,-9.70238,-5.10989,-2.66531,86.8042
2023-03-11 17:48:49:264,-0.4665,0.903163,-9.72282,-5.14295,-2.64626,86.8146
2023-03-11 17:48:49:274,-0.483018,0.928366,-9.73942,-5.17807,-2.62819,86.8245
2023-03-11 17:48:49:284,-0.484096,0.949221,-9.74795,-5.21233,-2.61011,86.8315
2023-03-11 17:48:49:294,-0.479306,0.968705,-9.75808,-5.24266,-2.59343,86.8389
2023-03-11 17:48:49:304,-0.451123,0.966566,-9.77751,-5.27402,-2.57681,86.8442
2023-03-11 17:48:49:314,-0.459368,0.973853,-9.79808,-5.30031,-2.55864,86.8464
2023-03-11 17:48:49:324,-0.466127,0.989074,-9.83031,-5.32714,-2.54239,86.8424
2023-03-11 17:48:49:334,-0.44327,1.00499,-9.83582,-5.34904,-2.53101,86.8332
2023-03-11 17:48:49:344,-0.413106,0.994364,-9.84419,-5.36789,-2.52713,86.8204
2023-03-11 17:48:49:354,-0.390787,0.97675,-9.832,-5.37793,-2.52832,86.8035
2023-03-11 17:48:49:364,-0.408368,0.971141,-9.81029,-5.38946,-2.53153,86.7832
2023-03-11 17:48:49:374,-0.409321,0.972441,-9.81832,-5.39693,-2.53784,86.7641
2023-03-11 17:48:49:384,-0.398871,0.978571,-9.8135,-5.40544,-2.54543,86.7453
2023-03-11 17:48:49:394,-0.380497,0.984908,-9.79328,-5.40878,-2.54886,86.7288
2023-03-11 17:48:49:404,-0.358204,0.976251,-9.75394,-5.40687,-2.54853,86.7153
2023-03-11 17:48:49:414,-0.337256,0.952834,-9.70357,-5.40164,-2.54877,86.7077
2023-03-11 17:48:49:424,-0.319419,0.925818,-9.66296,-5.40001,-2.54413,86.7064
2023-03-11 17:48:49:434,-0.314849,0.926471,-9.64191,-5.4,-2.53708,86.7099
2023-03-11 17:48:49:444,-0.331667,0.937179,-9.64495,-5.40467,-2.52743,86.7174
2023-03-11 17:48:49:454,-0.325771,0.959947,-9.65567,-5.41904,-2.51813,86.7268
2023-03-11 17:48:49:464,-0.321317,0.958684,-9.66375,-5.43262,-2.5118,86.739
2023-03-11 17:48:49:474,-0.320072,0.945495,-9.66962,-5.44336,-2.50952,86.7558
2023-03-11 17:48:49:484,-0.347381,0.959472,-9.66357,-5.45717,-2.51301,86.7758
2023-03-11 17:48:49:494,-0.381237,0.963248,-9.68117,-5.4761,-2.52187,86.7971
2023-03-11 17:48:49:504,-0.444999,0.98485,-9.69408,-5.50024,-2.53633,86.819
2023-03-11 17:48:49:514,-0.512277,1.02462,-9.7314,-5.53077,-2.55713,86.8433
2023-03-11 17:48:49:524,-0.556703,1.06036,-9.76098,-5.56556,-2.58084,86.8689
2023-03-11 17:48:49:534,-0.592988,1.08348,-9.77597,-5.5984,-2.61056,86.8882
2023-03-11 17:48:49:544,-0.635088,1.10723,-9.76072,-5.62648,-2.63146,86.8982
2023-03-11 17:48:49:554,-0.658791,1.11806,-9.7374,-5.64826,-2.65075,86.9049
2023-03-11 17:48:49:564,-0.649754,1.11398,-9.74746,-5.67135,-2.67094,86.9036
2023-03-11 17:48:49:574,-0.612113,1.10155,-9.78016,-5.68974,-2.68009,86.8949
2023-03-11 17:48:49:584,-0.553242,1.08872,-9.76871,-5.69858,-2.68746,86.8781
2023-03-11 17:48:49:594,-0.51158,1.0669,-9.7212,-5.70436,-2.6919,86.8606
2023-03-11 17:48:49:604,-0.504681,1.0419,-9.68982,-5.70932,-2.69344,86.8415
2023-03-11 17:48:49:614,-0.491626,1.0304,-9.66336,-5.71677,-2.69552,86.8258
2023-03-11 17:48:49:624,-0.494814,1.03745,-9.66417,-5.72637,-2.69235,86.81
2023-03-11 17:48:49:634,-0.47499,1.04846,-9.68253,-5.7362,-2.6898,86.7903
2023-03-11 17:48:49:644,-0.476956,1.05477,-9.72677,-5.74997,-2.68333,86.7748
2023-03-11 17:48:49:654,-0.475694,1.07482,-9.7561,-5.76214,-2.67195,86.763
2023-03-11 17:48:49:664,-0.479019,1.09346,-9.80299,-5.7716,-2.66113,86.7514
2023-03-11 17:48:49:674,-0.475671,1.09802,-9.81424,-5.77662,-2.64712,86.7403
2023-03-11 17:48:49:684,-0.455708,1.08468,-9.77916,-5.78256,-2.63736,86.728
2023-03-11 17:48:49:694,-0.420161,1.05446,-9.72833,-5.78432,-2.63099,86.7129
2023-03-11 17:48:49:704,-0.364955,1.02574,-9.6929,-5.77771,-2.61811,86.7016
2023-03-11 17:48:49:714,-0.334534,1.01586,-9.66573,-5.77746,-2.60883,86.6913
2023-03-11 17:48:49:724,-0.330205,1.01512,-9.67876,-5.78126,-2.60012,86.6857
2023-03-11 17:48:49:734,-0.351523,1.02742,-9.735,-5.79027,-2.59938,86.6889
2023-03-11 17:48:49:744,-0.382802,1.04732,-9.7833,-5.79985,-2.60052,86.6949
2023-03-11 17:48:49:754,-0.425489,1.06973,-9.82753,-5.80981,-2.60643,86.7052
2023-03-11 17:48:49:764,-0.466632,1.07925,-9.84687,-5.81499,-2.61185,86.7181
2023-03-11 17:48:49:774,-0.486235,1.07636,-9.84665,-5.81124,-2.61707,86.7337
2023-03-11 17:48:49:784,-0.519252,1.05365,-9.82768,-5.80104,-2.62102,86.7492
2023-03-11 17:48:49:794,-0.548063,1.02902,-9.80746,-5.7851,-2.62462,86.7644
2023-03-11 17:48:49:804,-0.571037,1.00992,-9.79869,-5.76183,-2.63026,86.7775
2023-03-11 17:48:49:814,-0.590831,0.988213,-9.77369,-5.73493,-2.63499,86.7859
2023-03-11 17:48:49:824,-0.61007,0.95101,-9.75302,-5.70611,-2.63923,86.7875
2023-03-11 17:48:49:834,-0.60154,0.935532,-9.72252,-5.66947,-2.63636,86.7869
2023-03-11 17:48:49:844,-0.570441,0.918349,-9.69638,-5.63626,-2.63237,86.7813
2023-03-11 17:48:49:854,-0.549655,0.886064,-9.66414,-5.60094,-2.62215,86.7731
2023-03-11 17:48:49:864,-0.51193,0.873113,-9.63054,-5.57173,-2.60674,86.7596
2023-03-11 17:48:49:874,-0.450709,0.855818,-9.6315,-5.5439,-2.58296,86.7408
2023-03-11 17:48:49:884,-0.388151,0.852754,-9.64747,-5.52221,-2.55581,86.727
2023-03-11 17:48:49:894,-0.328071,0.866419,-9.62472,-5.50422,-2.5223,86.7079
2023-03-11 17:48:49:904,-0.286933,0.858764,-9.59168,-5.49227,-2.48615,86.6955
2023-03-11 17:48:49:914,-0.246287,0.85026,-9.57364,-5.48842,-2.4511,86.6879
2023-03-11 17:48:49:924,-0.222322,0.867736,-9.56943,-5.49403,-2.41925,86.6848
2023-03-11 17:48:49:934,-0.243753,0.890673,-9.58821,-5.51032,-2.39199,86.6853
2023-03-11 17:48:49:944,-0.293741,0.94019,-9.6514,-5.53626,-2.3704,86.6868
2023-03-11 17:48:49:954,-0.347695,0.998628,-9.72076,-5.56794,-2.35384,86.6942
2023-03-11 17:48:49:964,-0.396363,1.06303,-9.79815,-5.60723,-2.34128,86.7013
2023-03-11 17:48:49:974,-0.429428,1.09992,-9.8557,-5.64334,-2.33285,86.7044
2023-03-11 17:48:49:984,-0.458983,1.11624,-9.86992,-5.67,-2.32784,86.6981
2023-03-11 17:48:49:994,-0.44392,1.10643,-9.86394,-5.68782,-2.3266,86.6836
2023-03-11 17:48:50:4,-0.403353,1.09326,-9.83743,-5.70188,-2.3278,86.6632
2023-03-11 17:48:50:14,-0.354729,1.0564,-9.80691,-5.7098,-2.32738,86.6381
2023-03-11 17:48:50:24,-0.313627,1.0308,-9.75154,-5.71098,-2.3323,86.6118
2023-03-11 17:48:50:34,-0.267709,1.00775,-9.72748,-5.71437,-2.33708,86.5802
2023-03-11 17:48:50:44,-0.248172,1.01695,-9.73129,-5.71585,-2.34646,86.5538
2023-03-11 17:48:50:54,-0.241466,1.02657,-9.75203,-5.72119,-2.35107,86.5327
2023-03-11 17:48:50:64,-0.24527,1.02816,-9.75402,-5.72311,-2.35614,86.5223
2023-03-11 17:48:50:74,-0.265548,1.02476,-9.74731,-5.7234,-2.35945,86.5188
2023-03-11 17:48:50:84,-0.292942,1.01356,-9.74217,-5.72001,-2.3628,86.5192
2023-03-11 17:48:50:94,-0.322831,1.00955,-9.74079,-5.71794,-2.36876,86.527
2023-03-11 17:48:50:104,-0.359082,1.01092,-9.7478,-5.71514,-2.37163,86.5351
2023-03-11 17:48:50:114,-0.391065,1.01738,-9.75066,-5.70714,-2.3744,86.5507
2023-03-11 17:48:50:124,-0.425616,1.03426,-9.7529,-5.69735,-2.38109,86.5676
2023-03-11 17:48:50:134,-0.444727,1.03403,-9.76049,-5.69473,-2.39028,86.582
2023-03-11 17:48:50:144,-0.440068,1.05661,-9.78573,-5.68444,-2.39863,86.5919
2023-03-11 17:48:50:154,-0.428569,1.04686,-9.77209,-5.67712,-2.40434,86.6008
2023-03-11 17:48:50:164,-0.414078,1.01794,-9.71894,-5.66627,-2.41314,86.6052
2023-03-11 17:48:50:174,-0.416515,0.9884,-9.69215,-5.65895,-2.42388,86.6078
2023-03-11 17:48:50:184,-0.42514,0.985965,-9.67501,-5.65371,-2.4392,86.6084
2023-03-11 17:48:50:194,-0.422581,0.998694,-9.6983,-5.64881,-2.45303,86.6133
2023-03-11 17:48:50:204,-0.434725,1.01328,-9.7084,-5.64963,-2.46284,86.6138
2023-03-11 17:48:50:214,-0.431976,1.01853,-9.71332,-5.65019,-2.47195,86.618
2023-03-11 17:48:50:224,-0.431757,1.01463,-9.73051,-5.65203,-2.47842,86.6206
2023-03-11 17:48:50:234,-0.445958,1.01015,-9.72887,-5.65071,-2.48822,86.6237
2023-03-11 17:48:50:244,-0.497598,1.00109,-9.7046,-5.65196,-2.49657,86.63
2023-03-11 17:48:50:254,-0.531883,1.00372,-9.67365,-5.64976,-2.50497,86.6326
2023-03-11 17:48:50:264,-0.544729,1.00391,-9.6594,-5.64688,-2.50792,86.6338
2023-03-11 17:48:50:274,-0.548852,0.99849,-9.65557,-5.63966,-2.5091,86.6333
2023-03-11 17:48:50:284,-0.54803,0.989703,-9.67176,-5.6401,-2.50809,86.6281
2023-03-11 17:48:50:294,-0.522796,0.999532,-9.70924,-5.64604,-2.50097,86.6181
2023-03-11 17:48:50:304,-0.485849,1.0107,-9.72901,-5.64393,-2.49515,86.6028
2023-03-11 17:48:50:314,-0.436424,1.00132,-9.74205,-5.64608,-2.48505,86.5825
2023-03-11 17:48:50:324,-0.399137,1.00656,-9.74117,-5.64685,-2.47182,86.5602
2023-03-11 17:48:50:334,-0.35189,1.00444,-9.71593,-5.65053,-2.46247,86.5368
2023-03-11 17:48:50:344,-0.329747,0.995871,-9.69566,-5.65535,-2.45174,86.5126
2023-03-11 17:48:50:354,-0.340262,1.00548,-9.69601,-5.65734,-2.4437,86.4935
2023-03-11 17:48:50:364,-0.359921,1.02842,-9.72521,-5.66685,-2.43632,86.4772
2023-03-11 17:48:50:374,-0.352332,1.05329,-9.76543,-5.67578,-2.42977,86.4667
2023-03-11 17:48:50:384,-0.327969,1.06884,-9.78702,-5.68276,-2.42196,86.455
2023-03-11 17:48:50:394,-0.321607,1.06175,-9.79176,-5.68699,-2.41785,86.4486
2023-03-11 17:48:50:404,-0.351664,1.04233,-9.78267,-5.68864,-2.41905,86.4436
2023-03-11 17:48:50:414,-0.378134,1.02916,-9.77405,-5.69059,-2.42422,86.4384
2023-03-11 17:48:50:424,-0.406574,1.045,-9.76637,-5.68723,-2.42386,86.4349
2023-03-11 17:48:50:434,-0.411783,1.05695,-9.76475,-5.68372,-2.4248,86.4277
2023-03-11 17:48:50:444,-0.402613,1.03921,-9.75802,-5.67445,-2.42744,86.4223
2023-03-11 17:48:50:454,-0.381968,1.03557,-9.75285,-5.66642,-2.42745,86.4197
2023-03-11 17:48:50:464,-0.376758,1.0262,-9.74174,-5.65619,-2.42718,86.4152
2023-03-11 17:48:50:474,-0.364826,1.00195,-9.73671,-5.64185,-2.4296,86.4086
2023-03-11 17:48:50:484,-0.352406,0.998446,-9.72458,-5.62848,-2.43339,86.4033
2023-03-11 17:48:50:494,-0.362613,0.983444,-9.71417,-5.61704,-2.43865,86.4018
2023-03-11 17:48:50:504,-0.36584,0.969805,-9.71601,-5.60763,-2.44857,86.4027
2023-03-11 17:48:50:514,-0.364342,0.978164,-9.71283,-5.59746,-2.46173,86.406
2023-03-11 17:48:50:524,-0.368016,0.974004,-9.71228,-5.58962,-2.47568,86.4082
2023-03-11 17:48:50:534,-0.396377,0.974342,-9.70833,-5.58071,-2.49301,86.415
2023-03-11 17:48:50:544,-0.418624,0.963955,-9.7126,-5.57006,-2.51015,86.4269
2023-03-11 17:48:50:554,-0.430627,0.965135,-9.71483,-5.56091,-2.5274,86.4355
2023-03-11 17:48:50:564,-0.436487,0.96296,-9.73691,-5.55236,-2.54695,86.4493
2023-03-11 17:48:50:574,-0.464231,0.986338,-9.7386,-5.54791,-2.56481,86.466
2023-03-11 17:48:50:584,-0.499121,0.994798,-9.75176,-5.53797,-2.5797,86.4853
2023-03-11 17:48:50:594,-0.503534,0.984335,-9.73656,-5.53113,-2.59411,86.5021
2023-03-11 17:48:50:604,-0.510651,0.971306,-9.70924,-5.52252,-2.60852,86.5186
2023-03-11 17:48:50:614,-0.524204,0.964318,-9.69976,-5.51418,-2.62571,86.5347
2023-03-11 17:48:50:624,-0.529405,0.954265,-9.70428,-5.509,-2.64269,86.5504
2023-03-11 17:48:50:634,-0.526559,0.967281,-9.71119,-5.50123,-2.65493,86.564
2023-03-11 17:48:50:644,-0.539998,0.967106,-9.71251,-5.49578,-2.66765,86.5755
2023-03-11 17:48:50:654,-0.543767,0.960901,-9.71641,-5.49072,-2.67799,86.5862
2023-03-11 17:48:50:664,-0.535471,0.976243,-9.71203,-5.48839,-2.68866,86.5969
2023-03-11 17:48:50:674,-0.544006,0.971802,-9.7064,-5.48322,-2.70043,86.6047
2023-03-11 17:48:50:684,-0.530432,0.962825,-9.71624,-5.47773,-2.70831,86.6104
2023-03-11 17:48:50:694,-0.522098,0.957718,-9.71378,-5.473,-2.71246,86.6168
2023-03-11 17:48:50:704,-0.51642,0.952451,-9.71129,-5.46799,-2.71856,86.6179
2023-03-11 17:48:50:714,-0.493904,0.944795,-9.7076,-5.4632,-2.72138,86.6192
2023-03-11 17:48:50:724,-0.491188,0.946632,-9.70828,-5.45914,-2.72557,86.6201
2023-03-11 17:48:50:734,-0.510887,0.955739,-9.70074,-5.45905,-2.73205,86.6195
2023-03-11 17:48:50:744,-0.52129,0.967962,-9.71579,-5.45934,-2.7368,86.6193
2023-03-11 17:48:50:754,-0.521795,0.979635,-9.73102,-5.458,-2.74078,86.6232
2023-03-11 17:48:50:764,-0.517429,1.0016,-9.74156,-5.45805,-2.74407,86.625
2023-03-11 17:48:50:774,-0.512545,0.992859,-9.7526,-5.45326,-2.74824,86.6229
2023-03-11 17:48:50:784,-0.523747,0.975404,-9.75914,-5.45055,-2.75003,86.617
2023-03-11 17:48:50:794,-0.532081,0.969225,-9.73897,-5.44422,-2.74897,86.6113
2023-03-11 17:48:50:804,-0.522868,0.94234,-9.73292,-5.43537,-2.74871,86.6032
2023-03-11 17:48:50:814,-0.501984,0.938691,-9.72858,-5.42711,-2.74734,86.5971
2023-03-11 17:48:50:824,-0.482563,0.934069,-9.71626,-5.41744,-2.74532,86.5928
2023-03-11 17:48:50:834,-0.455768,0.919173,-9.71606,-5.41124,-2.74146,86.5873
2023-03-11 17:48:50:844,-0.442099,0.901657,-9.73186,-5.40222,-2.74153,86.5827
2023-03-11 17:48:50:854,-0.435502,0.914253,-9.73142,-5.39956,-2.74146,86.5739
2023-03-11 17:48:50:864,-0.436794,0.916421,-9.74133,-5.39548,-2.74179,86.5697
2023-03-11 17:48:50:874,-0.428014,0.916431,-9.74052,-5.38929,-2.74235,86.5649
2023-03-11 17:48:50:884,-0.423284,0.919732,-9.7173,-5.383,-2.74522,86.5637
2023-03-11 17:48:50:894,-0.429745,0.904946,-9.701,-5.37755,-2.74482,86.5634
2023-03-11 17:48:50:904,-0.434113,0.901066,-9.67408,-5.37293,-2.74392,86.5651
2023-03-11 17:48:50:914,-0.423414,0.892759,-9.68097,-5.37136,-2.74627,86.571
2023-03-11 17:48:50:924,-0.433764,0.902146,-9.66922,-5.37658,-2.74976,86.5771
2023-03-11 17:48:50:934,-0.445163,0.907878,-9.68422,-5.3791,-2.75416,86.5851
2023-03-11 17:48:50:944,-0.437532,0.925269,-9.73673,-5.39011,-2.75705,86.5957
2023-03-11 17:48:50:954,-0.439463,0.956146,-9.79773,-5.40246,-2.76565,86.6057
2023-03-11 17:48:50:964,-0.434581,0.97612,-9.80649,-5.41318,-2.77419,86.6186
2023-03-11 17:48:50:974,-0.441521,0.967729,-9.76141,-5.41804,-2.78754,86.6323
2023-03-11 17:48:50:984,-0.471096,0.937101,-9.72946,-5.42049,-2.80185,86.6473
2023-03-11 17:48:50:994,-0.487007,0.939934,-9.71446,-5.42806,-2.81789,86.6655
2023-03-11 17:48:51:4,-0.51486,0.965958,-9.70691,-5.43854,-2.83909,86.6836
2023-03-11 17:48:51:14,-0.542264,0.981531,-9.70216,-5.44954,-2.85803,86.7065
2023-03-11 17:48:51:24,-0.58342,0.983148,-9.70815,-5.46202,-2.87057,86.7276
2023-03-11 17:48:51:34,-0.603702,0.990941,-9.72584,-5.47371,-2.88015,86.7507
2023-03-11 17:48:51:44,-0.62872,1.01536,-9.73916,-5.48509,-2.88497,86.7708
2023-03-11 17:48:51:54,-0.646423,1.02704,-9.74115,-5.4924,-2.88843,86.7904
2023-03-11 17:48:51:64,-0.643829,1.02666,-9.74896,-5.49472,-2.89138,86.8056
2023-03-11 17:48:51:74,-0.659368,1.02398,-9.72136,-5.49773,-2.89101,86.8113
2023-03-11 17:48:51:84,-0.653539,1.00854,-9.69651,-5.49575,-2.88881,86.811
2023-03-11 17:48:51:94,-0.621015,0.996663,-9.67983,-5.49325,-2.8882,86.8068
2023-03-11 17:48:51:104,-0.59343,0.995127,-9.69294,-5.49137,-2.88062,86.796
2023-03-11 17:48:51:114,-0.558276,0.995318,-9.70182,-5.49451,-2.8761,86.7818
2023-03-11 17:48:51:124,-0.521052,0.99201,-9.70649,-5.49843,-2.86813,86.7626
2023-03-11 17:48:51:134,-0.478206,0.99976,-9.69213,-5.50228,-2.85977,86.7421
2023-03-11 17:48:51:144,-0.434254,0.981349,-9.69063,-5.50686,-2.84975,86.7217
2023-03-11 17:48:51:154,-0.424122,0.989647,-9.7066,-5.51578,-2.84032,86.7054
2023-03-11 17:48:51:164,-0.432221,0.994025,-9.70978,-5.52513,-2.83099,86.6892
2023-03-11 17:48:51:174,-0.444868,0.998743,-9.74157,-5.53416,-2.82153,86.6812
2023-03-11 17:48:51:184,-0.407243,1.02494,-9.77699,-5.5425,-2.80747,86.6753
2023-03-11 17:48:51:194,-0.370528,1.01822,-9.79876,-5.54654,-2.79302,86.6698
2023-03-11 17:48:51:204,-0.383157,1.00532,-9.77624,-5.54402,-2.78064,86.6657
2023-03-11 17:48:51:214,-0.426386,0.994944,-9.75765,-5.54005,-2.77376,86.6662
2023-03-11 17:48:51:224,-0.447273,0.985922,-9.74107,-5.5387,-2.77231,86.6663
2023-03-11 17:48:51:234,-0.453603,0.986033,-9.7264,-5.53295,-2.76764,86.6697
2023-03-11 17:48:51:244,-0.458928,0.994158,-9.73231,-5.52976,-2.76513,86.6719
2023-03-11 17:48:51:254,-0.445805,0.981339,-9.753,-5.52256,-2.76394,86.6715
2023-03-11 17:48:51:264,-0.437116,0.98942,-9.74493,-5.51914,-2.76067,86.6707
2023-03-11 17:48:51:274,-0.449327,0.993536,-9.75132,-5.51996,-2.76082,86.6711
2023-03-11 17:48:51:284,-0.452792,0.991887,-9.75354,-5.51946,-2.76374,86.6682
2023-03-11 17:48:51:294,-0.45272,0.981467,-9.75251,-5.51732,-2.76522,86.6686
2023-03-11 17:48:51:304,-0.45587,0.975641,-9.74879,-5.51202,-2.77142,86.6695
2023-03-11 17:48:51:314,-0.445524,0.974106,-9.72081,-5.50297,-2.77698,86.6703
2023-03-11 17:48:51:324,-0.450853,0.965544,-9.69785,-5.4949,-2.77804,86.6725
2023-03-11 17:48:51:334,-0.457688,0.959411,-9.68151,-5.48952,-2.78603,86.6755
2023-03-11 17:48:51:344,-0.447122,0.939364,-9.68306,-5.48247,-2.7895,86.6779
2023-03-11 17:48:51:354,-0.468556,0.943668,-9.67442,-5.47944,-2.79511,86.6796
2023-03-11 17:48:51:364,-0.474164,0.944172,-9.68183,-5.47949,-2.80074,86.684
2023-03-11 17:48:51:374,-0.485856,0.936151,-9.69182,-5.4781,-2.80725,86.6872
2023-03-11 17:48:51:384,-0.498607,0.942133,-9.7047,-5.48444,-2.81397,86.6949
2023-03-11 17:48:51:394,-0.514759,0.952622,-9.72624,-5.48779,-2.81767,86.6997
2023-03-11 17:48:51:404,-0.538307,0.957071,-9.72059,-5.49097,-2.82098,86.7026
2023-03-11 17:48:51:414,-0.529617,0.950952,-9.71416,-5.49402,-2.82163,86.7011
2023-03-11 17:48:51:424,-0.513488,0.951882,-9.70783,-5.49493,-2.82019,86.7033
2023-03-11 17:48:51:434,-0.50081,0.939518,-9.72194,-5.49806,-2.81815,86.7061
2023-03-11 17:48:51:444,-0.47459,0.93081,-9.72931,-5.50072,-2.81179,86.7075
2023-03-11 17:48:51:454,-0.446484,0.946354,-9.73277,-5.50396,-2.80682,86.7033
2023-03-11 17:48:51:464,-0.430302,0.945251,-9.72093,-5.50609,-2.80106,86.6975
2023-03-11 17:48:51:474,-0.421244,0.936998,-9.70978,-5.50677,-2.79715,86.6939
2023-03-11 17:48:51:484,-0.40241,0.948483,-9.69827,-5.51009,-2.79321,86.6893
2023-03-11 17:48:51:494,-0.389341,0.943446,-9.69667,-5.51913,-2.79405,86.6892
2023-03-11 17:48:51:504,-0.402338,0.94557,-9.69095,-5.5283,-2.79816,86.6911
2023-03-11 17:48:51:514,-0.398849,0.94794,-9.70666,-5.53894,-2.8015,86.6894
2023-03-11 17:48:51:524,-0.40975,0.964505,-9.72034,-5.55585,-2.80582,86.6922
2023-03-11 17:48:51:534,-0.416619,0.985204,-9.72825,-5.57247,-2.81389,86.7001
2023-03-11 17:48:51:544,-0.421515,1.00077,-9.73614,-5.59,-2.82352,86.7073
2023-03-11 17:48:51:554,-0.438644,1.01376,-9.74634,-5.60621,-2.83043,86.7144
2023-03-11 17:48:51:564,-0.45484,1.03695,-9.74247,-5.62313,-2.83966,86.7244
2023-03-11 17:48:51:574,-0.486892,1.03658,-9.72583,-5.63678,-2.85166,86.7343
2023-03-11 17:48:51:584,-0.506982,1.04069,-9.73221,-5.64939,-2.86381,86.7436
2023-03-11 17:48:51:594,-0.518328,1.04084,-9.73184,-5.66274,-2.88136,86.7524
2023-03-11 17:48:51:604,-0.536922,1.03832,-9.73634,-5.67606,-2.89255,86.759
2023-03-11 17:48:51:614,-0.553831,1.04522,-9.74472,-5.68976,-2.90466,86.7695
2023-03-11 17:48:51:624,-0.572838,1.04832,-9.76735,-5.70494,-2.91787,86.7787
2023-03-11 17:48:51:634,-0.59062,1.05087,-9.77776,-5.71297,-2.92914,86.7873
2023-03-11 17:48:51:644,-0.585995,1.06165,-9.77405,-5.71737,-2.94282,86.7916
2023-03-11 17:48:51:654,-0.580162,1.05476,-9.77359,-5.72218,-2.94935,86.7931
2023-03-11 17:48:51:664,-0.571458,1.06132,-9.75455,-5.72299,-2.95391,86.7922
2023-03-11 17:48:51:674,-0.579062,1.03532,-9.72747,-5.71796,-2.96375,86.7901
2023-03-11 17:48:51:684,-0.573215,1.02224,-9.69825,-5.71228,-2.96887,86.7871
2023-03-11 17:48:51:694,-0.562076,1.02301,-9.703,-5.70996,-2.97323,86.7842
2023-03-11 17:48:51:704,-0.559603,1.02976,-9.72238,-5.7089,-2.97597,86.7786
2023-03-11 17:48:51:714,-0.562402,1.02727,-9.7117,-5.70619,-2.97645,86.7723
2023-03-11 17:48:51:724,-0.557269,1.00799,-9.69648,-5.70275,-2.98259,86.7646
2023-03-11 17:48:51:734,-0.548151,1.01309,-9.72103,-5.70235,-2.98117,86.7517
2023-03-11 17:48:51:744,-0.522797,1.02482,-9.73028,-5.70349,-2.98146,86.738
2023-03-11 17:48:51:754,-0.50873,1.00724,-9.69179,-5.70173,-2.98475,86.7246
2023-03-11 17:48:51:764,-0.483669,0.990385,-9.65464,-5.70263,-2.98914,86.7078
2023-03-11 17:48:51:774,-0.477422,0.988985,-9.65989,-5.70637,-2.99152,86.6932
2023-03-11 17:48:51:784,-0.498598,0.999756,-9.67627,-5.71503,-2.99819,86.6863
2023-03-11 17:48:51:794,-0.487726,1.01242,-9.70722,-5.72713,-2.99982,86.6776
2023-03-11 17:48:51:804,-0.46976,1.05866,-9.76274,-5.73879,-3.00153,86.6748
2023-03-11 17:48:51:814,-0.472781,1.07771,-9.80759,-5.74871,-2.99721,86.6761
2023-03-11 17:48:51:824,-0.474571,1.09923,-9.81353,-5.75352,-2.99236,86.6786
2023-03-11 17:48:51:834,-0.455737,1.08717,-9.78867,-5.75033,-2.98715,86.6833
2023-03-11 17:48:51:844,-0.468704,1.05036,-9.76839,-5.74233,-2.98163,86.691
2023-03-11 17:48:51:854,-0.489828,1.02853,-9.75012,-5.72653,-2.97618,86.6994
2023-03-11 17:48:51:864,-0.514646,1.01792,-9.71061,-5.71679,-2.97121,86.7121
2023-03-11 17:48:51:874,-0.523592,1.00113,-9.68276,-5.70043,-2.9653,86.7216
2023-03-11 17:48:51:884,-0.535293,0.994396,-9.67238,-5.68559,-2.96469,86.7322
2023-03-11 17:48:51:894,-0.5616,0.985582,-9.66987,-5.67607,-2.9693,86.74
2023-03-11 17:48:51:904,-0.60134,0.986283,-9.68147,-5.67188,-2.97485,86.7483
2023-03-11 17:48:51:914,-0.599978,1.03384,-9.73034,-5.6771,-2.98125,86.7483
2023-03-11 17:48:51:924,-0.587999,1.06498,-9.7694,-5.67846,-2.98506,86.7446
2023-03-11 17:48:51:934,-0.567931,1.05075,-9.76451,-5.67621,-2.98786,86.7372
2023-03-11 17:48:51:944,-0.534518,1.01395,-9.71452,-5.66526,-2.99057,86.7266
2023-03-11 17:48:51:954,-0.513135,0.977901,-9.69151,-5.6556,-2.99141,86.7136
2023-03-11 17:48:51:964,-0.512947,0.99667,-9.71547,-5.64976,-2.99379,86.6994
2023-03-11 17:48:51:974,-0.484681,1.01317,-9.72963,-5.64247,-2.9987,86.6873
2023-03-11 17:48:51:984,-0.460441,0.982976,-9.69621,-5.63201,-3.00362,86.6789
2023-03-11 17:48:51:994,-0.478904,0.97051,-9.6695,-5.62364,-3.01316,86.6729
2023-03-11 17:48:52:4,-0.502889,0.981441,-9.68447,-5.61962,-3.02109,86.6639
2023-03-11 17:48:52:14,-0.527332,1.00692,-9.71746,-5.61702,-3.02556,86.6612
2023-03-11 17:48:52:24,-0.531947,1.0101,-9.75151,-5.61741,-3.02676,86.6592
2023-03-11 17:48:52:34,-0.513002,1.0249,-9.77605,-5.62053,-3.02455,86.6588
2023-03-11 17:48:52:44,-0.48983,1.03274,-9.80076,-5.61946,-3.02146,86.6566
2023-03-11 17:48:52:54,-0.495922,1.03897,-9.79334,-5.6106,-3.01855,86.6586
2023-03-11 17:48:52:64,-0.509132,1.00847,-9.7558,-5.59836,-3.01745,86.6595
2023-03-11 17:48:52:74,-0.521885,0.985209,-9.70515,-5.58393,-3.01909,86.6629
2023-03-11 17:48:52:84,-0.52659,0.967976,-9.69309,-5.5706,-3.01808,86.6665
2023-03-11 17:48:52:94,-0.543094,0.96183,-9.6997,-5.56002,-3.01893,86.6716
2023-03-11 17:48:52:104,-0.543836,0.954951,-9.69746,-5.55472,-3.02124,86.6728
2023-03-11 17:48:52:114,-0.529227,0.952852,-9.66969,-5.5461,-3.01777,86.6725
2023-03-11 17:48:52:124,-0.521299,0.952978,-9.67448,-5.53941,-3.01538,86.6725
2023-03-11 17:48:52:134,-0.513763,0.948904,-9.69264,-5.54082,-3.01375,86.6733
2023-03-11 17:48:52:144,-0.496144,0.941574,-9.70853,-5.5425,-3.00831,86.67
2023-03-11 17:48:52:154,-0.496312,0.962384,-9.70352,-5.54142,-3.00631,86.6683
2023-03-11 17:48:52:164,-0.489335,0.962035,-9.71755,-5.54399,-3.00767,86.6669
2023-03-11 17:48:52:174,-0.495117,0.965594,-9.73438,-5.54668,-3.00855,86.6663
2023-03-11 17:48:52:184,-0.505336,0.981785,-9.74418,-5.54926,-3.00977,86.6661
2023-03-11 17:48:52:194,-0.499637,0.982257,-9.74546,-5.55177,-3.01551,86.6694
2023-03-11 17:48:52:204,-0.500565,0.979394,-9.73172,-5.55008,-3.01879,86.6693
2023-03-11 17:48:52:214,-0.492436,0.982728,-9.71665,-5.55033,-3.02156,86.6709
2023-03-11 17:48:52:224,-0.486112,0.971555,-9.71974,-5.54817,-3.0244,86.6735
2023-03-11 17:48:52:234,-0.484131,0.961616,-9.70997,-5.54915,-3.02684,86.6776
2023-03-11 17:48:52:244,-0.476696,0.979239,-9.71192,-5.54774,-3.03113,86.6819
2023-03-11 17:48:52:254,-0.481363,0.974383,-9.73815,-5.54941,-3.03772,86.6813
2023-03-11 17:48:52:264,-0.494512,0.968685,-9.73806,-5.55288,-3.04491,86.6849
2023-03-11 17:48:52:274,-0.504116,0.971719,-9.72905,-5.55511,-3.05024,86.6867
2023-03-11 17:48:52:284,-0.51793,0.970932,-9.72671,-5.55892,-3.06194,86.6921
2023-03-11 17:48:52:294,-0.524026,0.976678,-9.70866,-5.5592,-3.07273,86.6935
2023-03-11 17:48:52:304,-0.534631,0.981055,-9.69242,-5.56384,-3.07951,86.6968
2023-03-11 17:48:52:314,-0.524147,0.980105,-9.72228,-5.56997,-3.08585,86.7032
2023-03-11 17:48:52:324,-0.522002,0.989354,-9.72916,-5.57692,-3.0909,86.7069
2023-03-11 17:48:52:334,-0.534302,0.989443,-9.72782,-5.58007,-3.09697,86.7096
2023-03-11 17:48:52:344,-0.554743,0.98603,-9.71129,-5.582,-3.1049,86.7175
2023-03-11 17:48:52:354,-0.565961,0.974062,-9.6935,-5.58706,-3.11005,86.726
2023-03-11 17:48:52:364,-0.569032,0.979287,-9.7016,-5.59455,-3.11784,86.7347
2023-03-11 17:48:52:374,-0.575108,0.989162,-9.68902,-5.60059,-3.11937,86.7433
2023-03-11 17:48:52:384,-0.582743,0.971905,-9.69088,-5.60503,-3.1244,86.7503
2023-03-11 17:48:52:394,-0.583481,0.973503,-9.68098,-5.61182,-3.12929,86.761
2023-03-11 17:48:52:404,-0.588303,0.978497,-9.69816,-5.62006,-3.13032,86.7661
2023-03-11 17:48:52:414,-0.60572,0.981986,-9.72339,-5.6293,-3.12961,86.7688
2023-03-11 17:48:52:424,-0.598872,1.01127,-9.76321,-5.63739,-3.12905,86.7706
2023-03-11 17:48:52:434,-0.589722,1.01673,-9.79361,-5.6488,-3.12424,86.7729
2023-03-11 17:48:52:444,-0.599758,1.0165,-9.79099,-5.6497,-3.12091,86.7708
2023-03-11 17:48:52:454,-0.584145,1.01289,-9.77141,-5.65046,-3.11296,86.7701
2023-03-11 17:48:52:464,-0.576191,0.994991,-9.743,-5.64547,-3.10525,86.7606
2023-03-11 17:48:52:474,-0.551597,0.974829,-9.70817,-5.64051,-3.09586,86.7545
2023-03-11 17:48:52:483,-0.502976,0.968695,-9.68528,-5.63753,-3.08785,86.7433
2023-03-11 17:48:52:494,-0.495732,0.967981,-9.69549,-5.63499,-3.07733,86.7359
2023-03-11 17:48:52:504,-0.489255,0.977691,-9.72548,-5.63643,-3.06813,86.7276
2023-03-11 17:48:52:513,-0.473201,0.998547,-9.74588,-5.63945,-3.05595,86.7191
2023-03-11 17:48:52:524,-0.444221,1.00625,-9.75742,-5.64144,-3.0488,86.7102
2023-03-11 17:48:52:534,-0.417497,0.978941,-9.74409,-5.63876,-3.0468,86.699
2023-03-11 17:48:52:544,-0.401397,0.951067,-9.71092,-5.63695,-3.05083,86.6917
2023-03-11 17:48:52:554,-0.427771,0.965749,-9.69765,-5.63701,-3.05482,86.6901
2023-03-11 17:48:52:564,-0.459357,0.9948,-9.70283,-5.642,-3.06464,86.6903
2023-03-11 17:48:52:574,-0.480374,1.01711,-9.69801,-5.64895,-3.07565,86.6961
2023-03-11 17:48:52:584,-0.497301,1.02756,-9.68401,-5.65451,-3.08284,86.7041
2023-03-11 17:48:52:594,-0.512995,1.01891,-9.6709,-5.66065,-3.09166,86.7104
2023-03-11 17:48:52:604,-0.528472,1.02516,-9.68133,-5.67114,-3.09899,86.7212
2023-03-11 17:48:52:614,-0.555053,1.02477,-9.69865,-5.68181,-3.10557,86.7353
2023-03-11 17:48:52:624,-0.568501,1.03468,-9.69134,-5.69269,-3.11099,86.75
2023-03-11 17:48:52:634,-0.577988,1.04363,-9.69485,-5.70413,-3.11721,86.7633
2023-03-11 17:48:52:643,-0.592436,1.04204,-9.70379,-5.71355,-3.12188,86.7761
2023-03-11 17:48:52:653,-0.598079,1.05098,-9.70869,-5.72415,-3.12612,86.7842
2023-03-11 17:48:52:663,-0.596915,1.06368,-9.73587,-5.73516,-3.12957,86.7915
2023-03-11 17:48:52:674,-0.608511,1.08155,-9.7455,-5.74567,-3.13394,86.7973
2023-03-11 17:48:52:683,-0.619571,1.08626,-9.75759,-5.75684,-3.13888,86.8007
2023-03-11 17:48:52:693,-0.600397,1.08195,-9.75688,-5.76298,-3.14283,86.8001
2023-03-11 17:48:52:703,-0.577769,1.0548,-9.73254,-5.76894,-3.14197,86.799
2023-03-11 17:48:52:714,-0.561074,1.04624,-9.7111,-5.76839,-3.13806,86.7963
2023-03-11 17:48:52:724,-0.555142,1.05194,-9.71085,-5.76955,-3.13664,86.7911
2023-03-11 17:48:52:733,-0.558205,1.06509,-9.7113,-5.77213,-3.12628,86.7907
2023-03-11 17:48:52:743,-0.528323,1.09554,-9.74511,-5.77584,-3.11378,86.7897
2023-03-11 17:48:52:754,-0.49265,1.10277,-9.76589,-5.77583,-3.10128,86.784
2023-03-11 17:48:52:764,-0.496153,1.08224,-9.74571,-5.77163,-3.09489,86.782
2023-03-11 17:48:52:773,-0.522058,1.09175,-9.71652,-5.7709,-3.08965,86.7803
2023-03-11 17:48:52:783,-0.544039,1.08712,-9.7028,-5.76891,-3.07961,86.7818
2023-03-11 17:48:52:793,-0.5559,1.08433,-9.72116,-5.76762,-3.07053,86.7782
2023-03-11 17:48:52:803,-0.517491,1.08342,-9.72667,-5.75902,-3.0598,86.7752
2023-03-11 17:48:52:813,-0.480399,1.06426,-9.72947,-5.75372,-3.04398,86.77
2023-03-11 17:48:52:824,-0.440598,1.04563,-9.72468,-5.7458,-3.03149,86.7625
2023-03-11 17:48:52:834,-0.440133,1.04593,-9.71633,-5.74024,-3.02038,86.7587
2023-03-11 17:48:52:844,-0.448665,1.03383,-9.71674,-5.73241,-3.01531,86.7548
2023-03-11 17:48:52:854,-0.461399,1.04475,-9.73331,-5.72242,-3.01134,86.7497
2023-03-11 17:48:52:864,-0.453168,1.03688,-9.73563,-5.71533,-3.00732,86.7448
2023-03-11 17:48:52:873,-0.449907,1.02804,-9.75866,-5.70954,-3.0092,86.742
2023-03-11 17:48:52:884,-0.427591,1.03144,-9.82797,-5.7055,-3.01175,86.7399
2023-03-11 17:48:52:894,-0.381639,1.05349,-9.90355,-5.69766,-3.0153,86.7374
2023-03-11 17:48:52:904,-0.332063,1.07,-9.90739,-5.67821,-3.02749,86.7408
2023-03-11 17:48:52:914,-0.342692,1.01338,-9.83566,-5.64571,-3.04221,86.7492
2023-03-11 17:48:52:924,-0.381251,0.930226,-9.69193,-5.60564,-3.05986,86.7627
2023-03-11 17:48:52:934,-0.396484,0.857295,-9.595,-5.56508,-3.08108,86.781
2023-03-11 17:48:52:944,-0.427076,0.833137,-9.57548,-5.5344,-3.10972,86.808
2023-03-11 17:48:52:954,-0.499966,0.842927,-9.58102,-5.51532,-3.14123,86.8365
2023-03-11 17:48:52:964,-0.559666,0.868339,-9.63953,-5.50463,-3.17622,86.8672
2023-03-11 17:48:52:974,-0.614412,0.911145,-9.69914,-5.50061,-3.21142,86.8985
2023-03-11 17:48:52:984,-0.648526,0.934255,-9.74711,-5.50239,-3.24436,86.9287
2023-03-11 17:48:52:994,-0.67272,0.942406,-9.75944,-5.50467,-3.27576,86.9506
2023-03-11 17:48:53:4,-0.707574,0.949794,-9.73526,-5.50328,-3.308,86.9705
2023-03-11 17:48:53:14,-0.7448,0.961251,-9.72397,-5.50274,-3.33694,86.9871
2023-03-11 17:48:53:24,-0.751331,0.965419,-9.72289,-5.49487,-3.36314,86.998
2023-03-11 17:48:53:34,-0.722072,0.94994,-9.68407,-5.48515,-3.38379,87.001
2023-03-11 17:48:53:44,-0.657198,0.907134,-9.62505,-5.47635,-3.39279,87.0019
2023-03-11 17:48:53:54,-0.586296,0.871414,-9.59396,-5.47272,-3.39826,87.0014
2023-03-11 17:48:53:64,-0.533859,0.888549,-9.58875,-5.47587,-3.39387,87.0005
2023-03-11 17:48:53:74,-0.495017,0.906054,-9.61846,-5.48916,-3.39087,87.0025
2023-03-11 17:48:53:84,-0.495806,0.95583,-9.66187,-5.50837,-3.38314,87.0131
2023-03-11 17:48:53:94,-0.525077,1.00001,-9.72168,-5.53049,-3.37517,87.0254
2023-03-11 17:48:53:104,-0.568155,1.04434,-9.81211,-5.54721,-3.36797,87.0442
2023-03-11 17:48:53:114,-0.593909,1.07575,-9.8645,-5.55815,-3.3568,87.0605
2023-03-11 17:48:53:124,-0.562571,1.08704,-9.85864,-5.56155,-3.34738,87.0775
2023-03-11 17:48:53:134,-0.508248,1.05171,-9.80668,-5.55593,-3.32844,87.0918
2023-03-11 17:48:53:144,-0.436251,0.99361,-9.73402,-5.54126,-3.31222,87.1033
2023-03-11 17:48:53:154,-0.36323,0.943343,-9.6563,-5.52507,-3.29393,87.1167
2023-03-11 17:48:53:164,-0.327901,0.920167,-9.60721,-5.51582,-3.28012,87.1365
2023-03-11 17:48:53:174,-0.368072,0.925109,-9.60852,-5.51894,-3.2726,87.163
2023-03-11 17:48:53:184,-0.432753,0.96594,-9.65325,-5.52873,-3.2689,87.1955
2023-03-11 17:48:53:194,-0.480503,1.01255,-9.70914,-5.54742,-3.26903,87.2351
2023-03-11 17:48:53:204,-0.54886,1.04484,-9.76889,-5.56311,-3.26997,87.279
2023-03-11 17:48:53:214,-0.598263,1.07003,-9.79472,-5.57253,-3.26756,87.3222
2023-03-11 17:48:53:224,-0.564476,1.05376,-9.79596,-5.5778,-3.25858,87.3567
2023-03-11 17:48:53:234,-0.4973,1.02534,-9.78467,-5.57434,-3.25051,87.3857
2023-03-11 17:48:53:244,-0.417414,0.983871,-9.7504,-5.56698,-3.24544,87.4109
2023-03-11 17:48:53:254,-0.411373,0.959143,-9.70473,-5.56089,-3.2433,87.4362
2023-03-11 17:48:53:264,-0.442343,0.957673,-9.68533,-5.55659,-3.2523,87.4672
2023-03-11 17:48:53:274,-0.503953,0.985394,-9.68352,-5.55899,-3.26886,87.4989
2023-03-11 17:48:53:284,-0.585208,1.01007,-9.73239,-5.56738,-3.2923,87.5306
2023-03-11 17:48:53:294,-0.700398,1.03749,-9.7887,-5.57817,-3.31927,87.558
2023-03-11 17:48:53:304,-0.804701,1.06978,-9.81496,-5.58858,-3.34902,87.5864
2023-03-11 17:48:53:314,-0.878779,1.10951,-9.8363,-5.59023,-3.37702,87.6021
2023-03-11 17:48:53:324,-0.908328,1.11216,-9.84972,-5.58391,-3.40838,87.6043
2023-03-11 17:48:53:334,-0.855841,1.06644,-9.78322,-5.56958,-3.43733,87.5875
2023-03-11 17:48:53:344,-0.795197,1.00191,-9.65109,-5.54582,-3.47023,87.5498
2023-03-11 17:48:53:354,-0.686184,0.928768,-9.60981,-5.52285,-3.50851,87.497
2023-03-11 17:48:53:364,-0.576704,0.907465,-9.60208,-5.51024,-3.55461,87.4321
2023-03-11 17:48:53:374,-0.562843,0.890153,-9.59158,-5.50849,-3.60933,87.3605
2023-03-11 17:48:53:384,-0.564943,0.898212,-9.60751,-5.51427,-3.67352,87.2875
2023-03-11 17:48:53:394,-0.542078,0.92178,-9.65047,-5.52471,-3.73976,87.209
2023-03-11 17:48:53:404,-0.524011,0.931027,-9.70946,-5.5409,-3.80853,87.1359
2023-03-11 17:48:53:414,-0.525227,0.937863,-9.74869,-5.55782,-3.87486,87.0711
2023-03-11 17:48:53:424,-0.548709,0.935256,-9.77334,-5.56571,-3.94161,87.0152
2023-03-11 17:48:53:434,-0.556191,0.923219,-9.79503,-5.57019,-4.00834,86.9688
2023-03-11 17:48:53:444,-0.56901,0.91397,-9.82878,-5.5713,-4.06776,86.9336
2023-03-11 17:48:53:454,-0.551814,0.91195,-9.83227,-5.5679,-4.11823,86.9084
2023-03-11 17:48:53:464,-0.548455,0.90243,-9.79882,-5.55855,-4.1593,86.893
2023-03-11 17:48:53:474,-0.574885,0.886166,-9.75391,-5.5499,-4.19683,86.8936
2023-03-11 17:48:53:484,-0.595904,0.86986,-9.68431,-5.53467,-4.22888,86.9056
2023-03-11 17:48:53:494,-0.614056,0.845232,-9.60251,-5.52688,-4.25112,86.9339
2023-03-11 17:48:53:504,-0.650491,0.853937,-9.57426,-5.51829,-4.26744,86.9747
2023-03-11 17:48:53:514,-0.670266,0.890962,-9.58536,-5.52109,-4.27626,87.0249
2023-03-11 17:48:53:524,-0.684888,0.914263,-9.62915,-5.53132,-4.28664,87.0816
2023-03-11 17:48:53:534,-0.737296,0.936681,-9.66101,-5.54797,-4.29371,87.1435
2023-03-11 17:48:53:544,-0.80744,0.972365,-9.67621,-5.56803,-4.30419,87.2092
2023-03-11 17:48:53:554,-0.863707,0.999011,-9.67023,-5.58884,-4.31702,87.2705
2023-03-11 17:48:53:564,-0.916697,1.00511,-9.6861,-5.60951,-4.3317,87.325
2023-03-11 17:48:53:574,-0.912313,1.01861,-9.713,-5.63556,-4.34585,87.3706
2023-03-11 17:48:53:584,-0.892046,1.02903,-9.72543,-5.65944,-4.36144,87.4053
2023-03-11 17:48:53:594,-0.876773,1.02701,-9.71763,-5.68375,-4.37871,87.4374
2023-03-11 17:48:53:604,-0.861572,1.01526,-9.66222,-5.70703,-4.40512,87.4575
2023-03-11 17:48:53:614,-0.856334,1.01385,-9.61739,-5.7298,-4.43253,87.4712
2023-03-11 17:48:53:624,-0.839552,1.01207,-9.57957,-5.75963,-4.46431,87.4792
2023-03-11 17:48:53:634,-0.825091,1.01133,-9.5824,-5.78583,-4.49596,87.4851
2023-03-11 17:48:53:644,-0.835662,1.01532,-9.59391,-5.82173,-4.52573,87.4953
2023-03-11 17:48:53:654,-0.833133,1.01786,-9.59769,-5.8589,-4.55349,87.5088
2023-03-11 17:48:53:664,-0.819691,1.01348,-9.58952,-5.89697,-4.57549,87.5234
2023-03-11 17:48:53:674,-0.782052,1.01067,-9.59248,-5.93876,-4.59087,87.5369
2023-03-11 17:48:53:684,-0.745846,1.01215,-9.58921,-5.98297,-4.601,87.5542
2023-03-11 17:48:53:694,-0.735577,1.03159,-9.56426,-6.03451,-4.60948,87.5793
2023-03-11 17:48:53:704,-0.754184,1.03436,-9.57771,-6.09071,-4.61029,87.617
2023-03-11 17:48:53:714,-0.784776,1.05674,-9.59577,-6.15332,-4.61245,87.6533
2023-03-11 17:48:53:724,-0.832072,1.11026,-9.63799,-6.22454,-4.61314,87.6992
2023-03-11 17:48:53:734,-0.859784,1.15235,-9.72977,-6.29923,-4.61065,87.7459
2023-03-11 17:48:53:744,-0.864587,1.19137,-9.8041,-6.37153,-4.60111,87.7895
2023-03-11 17:48:53:754,-0.861764,1.2397,-9.8279,-6.43718,-4.59165,87.8308
2023-03-11 17:48:53:764,-0.832713,1.239,-9.82665,-6.4979,-4.58007,87.8706
2023-03-11 17:48:53:774,-0.827537,1.21201,-9.82374,-6.54792,-4.5702,87.8999
2023-03-11 17:48:53:784,-0.859724,1.21174,-9.80473,-6.59187,-4.56022,87.9275
2023-03-11 17:48:53:794,-0.863315,1.22679,-9.77653,-6.63263,-4.55595,87.9491
2023-03-11 17:48:53:804,-0.857467,1.20806,-9.76238,-6.66494,-4.5529,87.9601
2023-03-11 17:48:53:814,-0.863585,1.20975,-9.71866,-6.69552,-4.55379,87.9622
2023-03-11 17:48:53:824,-0.864133,1.20607,-9.71936,-6.7263,-4.55733,87.958
2023-03-11 17:48:53:834,-0.865099,1.20163,-9.7122,-6.75401,-4.56417,87.9501
2023-03-11 17:48:53:844,-0.867658,1.17172,-9.70228,-6.77727,-4.56902,87.9321
2023-03-11 17:48:53:854,-0.8754,1.17742,-9.69038,-6.8023,-4.574,87.908
2023-03-11 17:48:53:864,-0.836958,1.18744,-9.69245,-6.82513,-4.5799,87.8756
2023-03-11 17:48:53:874,-0.781861,1.17151,-9.67257,-6.8458,-4.5869,87.8382
2023-03-11 17:48:53:884,-0.72814,1.15889,-9.61797,-6.8631,-4.58846,87.7928
2023-03-11 17:48:53:894,-0.690201,1.14116,-9.5695,-6.88188,-4.58866,87.7462
2023-03-11 17:48:53:904,-0.651527,1.12504,-9.54158,-6.90715,-4.59564,87.7012
2023-03-11 17:48:53:914,-0.638502,1.14867,-9.56513,-6.94696,-4.59772,87.6657
2023-03-11 17:48:53:924,-0.629442,1.19597,-9.64922,-6.99312,-4.60513,87.6345
2023-03-11 17:48:53:934,-0.62342,1.24014,-9.71198,-7.04276,-4.61129,87.6092
2023-03-11 17:48:53:944,-0.617269,1.26284,-9.74203,-7.08848,-4.61994,87.5902
2023-03-11 17:48:53:954,-0.619842,1.27169,-9.76794,-7.13732,-4.6303,87.5773
2023-03-11 17:48:53:964,-0.631094,1.29203,-9.771,-7.17942,-4.64119,87.5771
2023-03-11 17:48:53:974,-0.648034,1.31771,-9.74571,-7.21882,-4.65541,87.5854
2023-03-11 17:48:53:984,-0.627914,1.32308,-9.69515,-7.25721,-4.67112,87.6007
2023-03-11 17:48:53:994,-0.626197,1.31612,-9.65326,-7.29255,-4.6804,87.6236
2023-03-11 17:48:54:4,-0.653426,1.31847,-9.63603,-7.32537,-4.70044,87.6505
2023-03-11 17:48:54:14,-0.695394,1.33548,-9.66379,-7.36011,-4.7198,87.685
2023-03-11 17:48:54:24,-0.768944,1.37699,-9.75428,-7.39897,-4.74622,87.7283
2023-03-11 17:48:54:34,-0.86042,1.46432,-9.85967,-7.44039,-4.7776,87.7768
2023-03-11 17:48:54:44,-0.943203,1.50255,-9.91905,-7.46671,-4.80981,87.8254
2023-03-11 17:48:54:54,-0.995535,1.49385,-9.90011,-7.47662,-4.83932,87.8685
2023-03-11 17:48:54:64,-1.01536,1.41534,-9.80862,-7.474,-4.86367,87.907
2023-03-11 17:48:54:74,-1.04556,1.37983,-9.72356,-7.46215,-4.87918,87.9353
2023-03-11 17:48:54:84,-1.05537,1.36864,-9.68891,-7.44666,-4.89429,87.954
2023-03-11 17:48:54:94,-1.05226,1.35522,-9.6815,-7.43117,-4.90668,87.9628
2023-03-11 17:48:54:104,-1.04197,1.35652,-9.68112,-7.41679,-4.91275,87.9638
2023-03-11 17:48:54:114,-1.01477,1.34073,-9.68205,-7.39707,-4.9155,87.9481
2023-03-11 17:48:54:124,-0.992492,1.33073,-9.68938,-7.37756,-4.92134,87.9249
2023-03-11 17:48:54:134,-0.985403,1.3301,-9.70008,-7.35465,-4.92308,87.8895
2023-03-11 17:48:54:144,-0.96237,1.33225,-9.69327,-7.32643,-4.91906,87.8439
2023-03-11 17:48:54:154,-0.90311,1.30789,-9.68355,-7.29549,-4.91073,87.7882
2023-03-11 17:48:54:164,-0.813868,1.26458,-9.68085,-7.25781,-4.89373,87.7261
2023-03-11 17:48:54:174,-0.710621,1.23341,-9.63324,-7.21696,-4.86722,87.6588
2023-03-11 17:48:54:184,-0.648925,1.1962,-9.5863,-7.17668,-4.83794,87.5894
2023-03-11 17:48:54:194,-0.588384,1.16049,-9.54277,-7.14306,-4.80218,87.5284
2023-03-11 17:48:54:204,-0.544062,1.16996,-9.54409,-7.11697,-4.75846,87.4731
2023-03-11 17:48:54:214,-0.503264,1.18871,-9.558,-7.10188,-4.7145,87.4244
2023-03-11 17:48:54:224,-0.49306,1.19263,-9.58986,-7.09378,-4.67636,87.3828
2023-03-11 17:48:54:234,-0.507713,1.2197,-9.63455,-7.08534,-4.63975,87.3512
2023-03-11 17:48:54:244,-0.550836,1.26022,-9.70086,-7.08837,-4.60763,87.3285
2023-03-11 17:48:54:254,-0.571178,1.32237,-9.80013,-7.09551,-4.57964,87.3109
2023-03-11 17:48:54:264,-0.566929,1.36708,-9.88569,-7.09751,-4.56015,87.2953
2023-03-11 17:48:54:274,-0.550491,1.35365,-9.88165,-7.09087,-4.55234,87.2804
2023-03-11 17:48:54:284,-0.549807,1.30339,-9.80918,-7.07286,-4.55637,87.2714
2023-03-11 17:48:54:294,-0.566048,1.27415,-9.70198,-7.05513,-4.57663,87.2684
2023-03-11 17:48:54:304,-0.624237,1.23637,-9.61841,-7.03694,-4.60857,87.2716
2023-03-11 17:48:54:314,-0.736392,1.22517,-9.55713,-7.02377,-4.65144,87.2849
2023-03-11 17:48:54:324,-0.84061,1.23596,-9.52445,-7.01928,-4.69771,87.2987
2023-03-11 17:48:54:334,-0.922415,1.25794,-9.5285,-7.02259,-4.74447,87.3189
2023-03-11 17:48:54:344,-0.965674,1.28872,-9.57802,-7.02703,-4.78515,87.3363
2023-03-11 17:48:54:354,-0.993353,1.31811,-9.64272,-7.03568,-4.82001,87.3539
2023-03-11 17:48:54:364,-1.02894,1.3336,-9.71165,-7.03854,-4.85136,87.3626
2023-03-11 17:48:54:374,-1.0462,1.33795,-9.75881,-7.03121,-4.8791,87.3663
2023-03-11 17:48:54:384,-1.05324,1.33645,-9.77666,-7.019,-4.90123,87.3653
2023-03-11 17:48:54:394,-1.04667,1.3169,-9.77509,-6.99887,-4.92035,87.3565
2023-03-11 17:48:54:404,-1.02107,1.28476,-9.74468,-6.97161,-4.9326,87.3416
2023-03-11 17:48:54:414,-0.989779,1.2485,-9.71837,-6.94332,-4.94583,87.3159
2023-03-11 17:48:54:424,-0.950128,1.21326,-9.67503,-6.90976,-4.9534,87.2839
2023-03-11 17:48:54:434,-0.892871,1.19224,-9.63892,-6.87647,-4.96152,87.2461
2023-03-11 17:48:54:444,-0.837035,1.16608,-9.62468,-6.84408,-4.964,87.2076
2023-03-11 17:48:54:454,-0.781446,1.15894,-9.61776,-6.81332,-4.96216,87.1683
2023-03-11 17:48:54:464,-0.738986,1.14814,-9.61652,-6.78979,-4.96291,87.1316
2023-03-11 17:48:54:474,-0.732542,1.16453,-9.61327,-6.76914,-4.96285,87.1045
2023-03-11 17:48:54:484,-0.731431,1.16411,-9.62667,-6.75351,-4.96417,87.0785
2023-03-11 17:48:54:494,-0.743039,1.16907,-9.65798,-6.74131,-4.96643,87.0642
2023-03-11 17:48:54:504,-0.752249,1.17409,-9.69247,-6.73235,-4.97102,87.0516
2023-03-11 17:48:54:514,-0.759845,1.17645,-9.7071,-6.71873,-4.97773,87.0452
2023-03-11 17:48:54:524,-0.775649,1.16495,-9.71158,-6.70608,-4.98327,87.0451
2023-03-11 17:48:54:534,-0.806661,1.16934,-9.68142,-6.68939,-4.98985,87.0472
2023-03-11 17:48:54:544,-0.826995,1.14951,-9.66293,-6.67134,-5.00211,87.0526
2023-03-11 17:48:54:554,-0.842435,1.12588,-9.62808,-6.65694,-5.01124,87.0649
2023-03-11 17:48:54:564,-0.862358,1.11695,-9.5995,-6.64261,-5.02568,87.0743
2023-03-11 17:48:54:574,-0.87837,1.10604,-9.60991,-6.63185,-5.03481,87.0866
2023-03-11 17:48:54:584,-0.882217,1.11227,-9.61379,-6.62465,-5.04177,87.1004
2023-03-11 17:48:54:594,-0.886831,1.11747,-9.62433,-6.62109,-5.0501,87.1172
2023-03-11 17:48:54:604,-0.892184,1.11476,-9.63294,-6.62063,-5.05764,87.1308
2023-03-11 17:48:54:614,-0.898745,1.11059,-9.65346,-6.62304,-5.06498,87.1416
2023-03-11 17:48:54:624,-0.893972,1.12554,-9.66966,-6.62903,-5.07777,87.1567
2023-03-11 17:48:54:634,-0.903985,1.14072,-9.69592,-6.63634,-5.08737,87.1756
2023-03-11 17:48:54:644,-0.909742,1.14672,-9.69703,-6.64093,-5.09291,87.1943
2023-03-11 17:48:54:654,-0.915509,1.15312,-9.69911,-6.64344,-5.0978,87.2131
2023-03-11 17:48:54:664,-0.908995,1.15061,-9.71256,-6.64446,-5.1028,87.2323
2023-03-11 17:48:54:674,-0.895333,1.13457,-9.70491,-6.64298,-5.10537,87.2493
2023-03-11 17:48:54:684,-0.895302,1.13416,-9.67918,-6.63939,-5.11012,87.269
2023-03-11 17:48:54:694,-0.917005,1.12829,-9.63888,-6.63878,-5.10723,87.2889
2023-03-11 17:48:54:704,-0.933046,1.11317,-9.62346,-6.63723,-5.10282,87.3085
2023-03-11 17:48:54:714,-0.910901,1.11901,-9.63695,-6.63629,-5.09541,87.3275
2023-03-11 17:48:54:724,-0.892498,1.1319,-9.67145,-6.6398,-5.0884,87.3442
2023-03-11 17:48:54:734,-0.894968,1.13714,-9.70822,-6.64955,-5.08314,87.3597
2023-03-11 17:48:54:744,-0.920714,1.16331,-9.75377,-6.65373,-5.07816,87.3771
2023-03-11 17:48:54:754,-0.920085,1.19016,-9.7763,-6.65429,-5.07343,87.3934
2023-03-11 17:48:54:764,-0.915039,1.18708,-9.77059,-6.64934,-5.07379,87.4014
2023-03-11 17:48:54:774,-0.93034,1.17167,-9.72011,-6.64063,-5.07886,87.4114
2023-03-11 17:48:54:784,-0.994583,1.14804,-9.66219,-6.62986,-5.08348,87.4211
2023-03-11 17:48:54:794,-1.0455,1.13762,-9.62761,-6.61625,-5.08695,87.4296
2023-03-11 17:48:54:804,-1.07854,1.1323,-9.61872,-6.60937,-5.08774,87.4336
2023-03-11 17:48:54:814,-1.06685,1.14951,-9.62355,-6.60315,-5.08339,87.4365
2023-03-11 17:48:54:824,-1.05007,1.15965,-9.63011,-6.60528,-5.07294,87.4368
2023-03-11 17:48:54:834,-1.05809,1.1541,-9.65255,-6.60589,-5.0588,87.4378
2023-03-11 17:48:54:844,-1.01923,1.18211,-9.67079,-6.6046,-5.04054,87.4309
2023-03-11 17:48:54:854,-0.986917,1.18065,-9.69563,-6.60454,-5.01749,87.4213
2023-03-11 17:48:54:864,-0.984613,1.18708,-9.70501,-6.60117,-4.99773,87.4119
2023-03-11 17:48:54:874,-0.985902,1.19336,-9.70066,-6.59375,-4.97138,87.398
2023-03-11 17:48:54:884,-0.96613,1.18078,-9.69097,-6.58251,-4.94261,87.3775
2023-03-11 17:48:54:894,-0.941037,1.15174,-9.68305,-6.56627,-4.91171,87.3547
2023-03-11 17:48:54:904,-0.886948,1.13441,-9.63736,-6.54908,-4.88125,87.3284
2023-03-11 17:48:54:914,-0.855617,1.10099,-9.63719,-6.53029,-4.84627,87.3007
2023-03-11 17:48:54:924,-0.800542,1.09794,-9.64157,-6.52069,-4.80846,87.2687
2023-03-11 17:48:54:934,-0.755869,1.10445,-9.63103,-6.51409,-4.76942,87.2361
2023-03-11 17:48:54:944,-0.718523,1.09013,-9.64003,-6.51247,-4.73247,87.2049
2023-03-11 17:48:54:954,-0.696975,1.09811,-9.66618,-6.51251,-4.69785,87.1761
2023-03-11 17:48:54:964,-0.712041,1.12275,-9.7038,-6.51337,-4.66583,87.1519
2023-03-11 17:48:54:974,-0.689231,1.15005,-9.75108,-6.5174,-4.63209,87.1291
2023-03-11 17:48:54:984,-0.651142,1.18777,-9.79947,-6.52112,-4.59862,87.1105
2023-03-11 17:48:54:994,-0.629029,1.17906,-9.80785,-6.51517,-4.56932,87.0908
2023-03-11 17:48:55:4,-0.632703,1.15385,-9.78156,-6.50535,-4.54583,87.0753
2023-03-11 17:48:55:14,-0.639107,1.14132,-9.71188,-6.4941,-4.52749,87.0585
2023-03-11 17:48:55:24,-0.644733,1.1154,-9.6682,-6.4767,-4.51329,87.0456
2023-03-11 17:48:55:34,-0.62982,1.10471,-9.66151,-6.4642,-4.50239,87.0338
2023-03-11 17:48:55:44,-0.594086,1.10791,-9.66595,-6.45984,-4.49545,87.0259
2023-03-11 17:48:55:54,-0.579838,1.11613,-9.70161,-6.45452,-4.48925,87.0181
2023-03-11 17:48:55:64,-0.59798,1.12325,-9.72378,-6.4516,-4.49252,87.0145
2023-03-11 17:48:55:74,-0.622779,1.13991,-9.73432,-6.44767,-4.50102,87.0152
2023-03-11 17:48:55:84,-0.664969,1.16001,-9.73446,-6.4436,-4.51575,87.0219
2023-03-11 17:48:55:94,-0.700985,1.16799,-9.72699,-6.43794,-4.5286,87.0318
2023-03-11 17:48:55:104,-0.736157,1.15377,-9.71827,-6.43036,-4.54296,87.0464
2023-03-11 17:48:55:114,-0.761576,1.15312,-9.68659,-6.422,-4.55656,87.0616
2023-03-11 17:48:55:124,-0.786404,1.13556,-9.67635,-6.40824,-4.57161,87.0839
2023-03-11 17:48:55:134,-0.814024,1.13253,-9.67191,-6.39488,-4.58476,87.1029
2023-03-11 17:48:55:144,-0.848047,1.12896,-9.66447,-6.3825,-4.59774,87.124
2023-03-11 17:48:55:154,-0.876074,1.13269,-9.66736,-6.37302,-4.60959,87.1444
2023-03-11 17:48:55:164,-0.890047,1.12844,-9.67815,-6.36534,-4.62474,87.1613
2023-03-11 17:48:55:174,-0.894001,1.14124,-9.68085,-6.35861,-4.63276,87.1737
2023-03-11 17:48:55:184,-0.911788,1.12742,-9.70454,-6.35039,-4.63996,87.1871
2023-03-11 17:48:55:194,-0.895546,1.14435,-9.72435,-6.34243,-4.64604,87.1943
2023-03-11 17:48:55:204,-0.885353,1.15208,-9.72101,-6.33446,-4.64734,87.1992
2023-03-11 17:48:55:214,-0.866783,1.13725,-9.70108,-6.31882,-4.64649,87.2017
2023-03-11 17:48:55:224,-0.843318,1.12008,-9.66342,-6.30579,-4.6435,87.2016
2023-03-11 17:48:55:234,-0.845505,1.0949,-9.63211,-6.29088,-4.64372,87.2015
2023-03-11 17:48:55:244,-0.834926,1.08341,-9.63622,-6.27971,-4.63672,87.2041
2023-03-11 17:48:55:254,-0.820102,1.09103,-9.64786,-6.26988,-4.62868,87.201
2023-03-11 17:48:55:264,-0.806418,1.10007,-9.67118,-6.26431,-4.61652,87.1986
2023-03-11 17:48:55:274,-0.801993,1.10427,-9.67846,-6.26264,-4.60911,87.1976
2023-03-11 17:48:55:284,-0.793836,1.10308,-9.68665,-6.25493,-4.5957,87.192
2023-03-11 17:48:55:294,-0.761842,1.12236,-9.68359,-6.25218,-4.58401,87.1827
2023-03-11 17:48:55:304,-0.730262,1.11557,-9.69225,-6.25102,-4.57291,87.1741
2023-03-11 17:48:55:314,-0.70511,1.0995,-9.70891,-6.24828,-4.55868,87.1673
2023-03-11 17:48:55:324,-0.697405,1.09934,-9.6891,-6.24391,-4.54918,87.1594
2023-03-11 17:48:55:334,-0.684144,1.09659,-9.69263,-6.24202,-4.54351,87.1535
2023-03-11 17:48:55:344,-0.694279,1.0853,-9.69118,-6.23865,-4.53584,87.1524
2023-03-11 17:48:55:354,-0.699151,1.09613,-9.67803,-6.23465,-4.53177,87.151
2023-03-11 17:48:55:364,-0.720433,1.10418,-9.6893,-6.23016,-4.52735,87.1546
2023-03-11 17:48:55:374,-0.742464,1.0915,-9.73154,-6.23046,-4.5188,87.1584
2023-03-11 17:48:55:384,-0.741917,1.10035,-9.7484,-6.22695,-4.50707,87.1657
2023-03-11 17:48:55:394,-0.742256,1.10089,-9.76073,-6.22325,-4.50036,87.1708
2023-03-11 17:48:55:404,-0.744145,1.0911,-9.74135,-6.21506,-4.49164,87.1758
2023-03-11 17:48:55:414,-0.746627,1.08054,-9.72772,-6.20177,-4.48332,87.1785
2023-03-11 17:48:55:424,-0.750037,1.06373,-9.71339,-6.18846,-4.47489,87.1789
2023-03-11 17:48:55:434,-0.736325,1.05073,-9.69635,-6.17664,-4.47007,87.18
2023-03-11 17:48:55:444,-0.721129,1.0433,-9.69331,-6.1634,-4.4633,87.178
2023-03-11 17:48:55:454,-0.724525,1.04715,-9.70328,-6.15264,-4.4596,87.1745
2023-03-11 17:48:55:464,-0.742194,1.06514,-9.73897,-6.14306,-4.45286,87.173
2023-03-11 17:48:55:474,-0.735694,1.07254,-9.76788,-6.13408,-4.44903,87.1729
2023-03-11 17:48:55:484,-0.718201,1.06994,-9.75328,-6.11797,-4.44683,87.1692
2023-03-11 17:48:55:494,-0.73165,1.04702,-9.72007,-6.0983,-4.4507,87.1676
2023-03-11 17:48:55:504,-0.755273,1.03059,-9.67674,-6.07919,-4.45342,87.1654
2023-03-11 17:48:55:514,-0.765868,1.01311,-9.65592,-6.06065,-4.45834,87.1646
2023-03-11 17:48:55:524,-0.758202,1.01476,-9.63986,-6.04492,-4.46181,87.1609
2023-03-11 17:48:55:534,-0.754557,1.02615,-9.64848,-6.03377,-4.46515,87.1558
2023-03-11 17:48:55:544,-0.748111,1.04133,-9.66648,-6.03139,-4.47089,87.1524
2023-03-11 17:48:55:554,-0.7475,1.03362,-9.67838,-6.0254,-4.47401,87.1487
2023-03-11 17:48:55:564,-0.756176,1.03315,-9.6769,-6.01961,-4.47658,87.1463
2023-03-11 17:48:55:574,-0.749934,1.04111,-9.67498,-6.0164,-4.47909,87.1487
2023-03-11 17:48:55:584,-0.74761,1.03248,-9.66092,-6.01117,-4.47785,87.1516
2023-03-11 17:48:55:594,-0.74337,1.02399,-9.64907,-6.00673,-4.47684,87.1535
2023-03-11 17:48:55:604,-0.740728,1.01188,-9.63963,-6.00368,-4.47663,87.1574
2023-03-11 17:48:55:614,-0.74898,1.01675,-9.65296,-6.00329,-4.47425,87.1646
2023-03-11 17:48:55:624,-0.770033,1.0332,-9.67976,-6.00759,-4.47462,87.1697
2023-03-11 17:48:55:634,-0.7926,1.0504,-9.69398,-6.01441,-4.47185,87.1749
2023-03-11 17:48:55:644,-0.801137,1.0695,-9.71224,-6.02587,-4.47027,87.1808
2023-03-11 17:48:55:654,-0.810684,1.06072,-9.71697,-6.03379,-4.4676,87.1844
2023-03-11 17:48:55:664,-0.812713,1.06917,-9.7333,-6.0405,-4.46747,87.1844
2023-03-11 17:48:55:674,-0.827326,1.0991,-9.738,-6.04894,-4.46759,87.181
2023-03-11 17:48:55:684,-0.828645,1.10425,-9.71562,-6.05556,-4.46581,87.1777
2023-03-11 17:48:55:694,-0.788379,1.10834,-9.73878,-6.05906,-4.46037,87.1705
2023-03-11 17:48:55:704,-0.743884,1.10543,-9.76041,-6.05991,-4.45661,87.1593
2023-03-11 17:48:55:714,-0.712153,1.08137,-9.73111,-6.0592,-4.45646,87.1462
2023-03-11 17:48:55:724,-0.70835,1.06408,-9.6874,-6.05501,-4.45629,87.1338
2023-03-11 17:48:55:734,-0.723059,1.06676,-9.65124,-6.05252,-4.4543,87.1249
2023-03-11 17:48:55:744,-0.712702,1.0607,-9.6475,-6.04811,-4.45086,87.1157
2023-03-11 17:48:55:754,-0.699761,1.05351,-9.66642,-6.04767,-4.44471,87.1049
2023-03-11 17:48:55:764,-0.674963,1.05603,-9.70395,-6.04914,-4.43806,87.1009
2023-03-11 17:48:55:774,-0.672953,1.07175,-9.73383,-6.0508,-4.43219,87.0957
2023-03-11 17:48:55:784,-0.684978,1.08387,-9.76331,-6.05041,-4.42696,87.0934
2023-03-11 17:48:55:794,-0.694327,1.07981,-9.76928,-6.0505,-4.42579,87.0952
2023-03-11 17:48:55:804,-0.703519,1.07591,-9.75358,-6.04624,-4.42721,87.0977
2023-03-11 17:48:55:814,-0.726789,1.07113,-9.71793,-6.04414,-4.42971,87.1003
2023-03-11 17:48:55:824,-0.721392,1.05034,-9.71163,-6.03572,-4.43258,87.1053
2023-03-11 17:48:55:834,-0.713847,1.03492,-9.69443,-6.02747,-4.43928,87.1134
2023-03-11 17:48:55:844,-0.72593,1.02247,-9.6858,-6.0184,-4.446,87.1172
2023-03-11 17:48:55:854,-0.73134,1.02915,-9.66087,-6.01321,-4.45194,87.124
2023-03-11 17:48:55:864,-0.73856,1.01862,-9.64547,-6.00692,-4.45981,87.1316
2023-03-11 17:48:55:874,-0.742791,1.00945,-9.63776,-6.00315,-4.46655,87.1438
2023-03-11 17:48:55:884,-0.77532,1.01431,-9.64961,-6.00356,-4.47438,87.1522
2023-03-11 17:48:55:894,-0.791569,1.02897,-9.69237,-6.00602,-4.48664,87.1636
2023-03-11 17:48:55:904,-0.779226,1.04004,-9.74393,-6.01244,-4.49579,87.172
2023-03-11 17:48:55:914,-0.777968,1.05678,-9.77665,-6.02292,-4.50614,87.181
2023-03-11 17:48:55:924,-0.786687,1.06578,-9.77424,-6.02514,-4.51544,87.1916
2023-03-11 17:48:55:934,-0.787332,1.0649,-9.76393,-6.023,-4.525,87.2061
2023-03-11 17:48:55:944,-0.802701,1.04867,-9.73504,-6.01948,-4.53375,87.2185
2023-03-11 17:48:55:954,-0.826542,1.02848,-9.6912,-6.01334,-4.53948,87.2328
2023-03-11 17:48:55:964,-0.835972,1.01274,-9.65255,-6.00295,-4.54587,87.2427
2023-03-11 17:48:55:974,-0.848686,0.997098,-9.61192,-5.99443,-4.55421,87.2497
2023-03-11 17:48:55:984,-0.842359,0.980061,-9.5861,-5.99196,-4.55758,87.2545
2023-03-11 17:48:55:994,-0.810926,0.98208,-9.58684,-5.99343,-4.55934,87.2565
2023-03-11 17:48:56:4,-0.806538,0.996555,-9.62258,-6.00261,-4.56147,87.259
2023-03-11 17:48:56:14,-0.824804,1.03056,-9.66063,-6.01636,-4.55933,87.2557
2023-03-11 17:48:56:24,-0.821553,1.05777,-9.68774,-6.03724,-4.55966,87.2535
2023-03-11 17:48:56:34,-0.811308,1.07014,-9.71697,-6.05579,-4.56072,87.2478
2023-03-11 17:48:56:44,-0.782194,1.0754,-9.7125,-6.06764,-4.5557,87.2396
2023-03-11 17:48:56:54,-0.767339,1.08296,-9.70969,-6.08379,-4.55319,87.2304
2023-03-11 17:48:56:64,-0.772847,1.07075,-9.69237,-6.09593,-4.55435,87.2241
2023-03-11 17:48:56:74,-0.774217,1.05398,-9.66338,-6.10542,-4.55596,87.2148
2023-03-11 17:48:56:84,-0.770213,1.04703,-9.64894,-6.11921,-4.55756,87.2031
2023-03-11 17:48:56:94,-0.765984,1.06297,-9.6627,-6.13216,-4.56276,87.1932
2023-03-11 17:48:56:104,-0.761366,1.08002,-9.67655,-6.15024,-4.56283,87.1849
2023-03-11 17:48:56:114,-0.74542,1.07979,-9.70641,-6.17147,-4.5627,87.177
2023-03-11 17:48:56:124,-0.743248,1.10263,-9.70826,-6.18828,-4.5634,87.1715
2023-03-11 17:48:56:134,-0.743166,1.11843,-9.72733,-6.20631,-4.56197,87.1696
2023-03-11 17:48:56:144,-0.737402,1.12405,-9.73724,-6.22336,-4.56097,87.1681
2023-03-11 17:48:56:154,-0.731427,1.13868,-9.7325,-6.23721,-4.55838,87.1684
2023-03-11 17:48:56:164,-0.724409,1.14669,-9.72361,-6.25,-4.55411,87.1714
2023-03-11 17:48:56:174,-0.735292,1.13883,-9.72216,-6.25967,-4.55245,87.1766
2023-03-11 17:48:56:184,-0.74576,1.14938,-9.73719,-6.27456,-4.54694,87.1802
2023-03-11 17:48:56:194,-0.752393,1.15393,-9.76004,-6.28333,-4.54387,87.1864
2023-03-11 17:48:56:204,-0.741163,1.15987,-9.75954,-6.28961,-4.54128,87.1939
2023-03-11 17:48:56:214,-0.735106,1.14644,-9.73405,-6.29426,-4.54182,87.2002
2023-03-11 17:48:56:224,-0.760482,1.14101,-9.6789,-6.29645,-4.54275,87.2086
2023-03-11 17:48:56:234,-0.766737,1.1453,-9.66189,-6.29947,-4.54699,87.2164
2023-03-11 17:48:56:244,-0.768081,1.15259,-9.66297,-6.30848,-4.54769,87.2228
2023-03-11 17:48:56:254,-0.768701,1.15703,-9.68976,-6.31697,-4.55419,87.2322
2023-03-11 17:48:56:264,-0.764875,1.17902,-9.69681,-6.32956,-4.55696,87.2426
2023-03-11 17:48:56:274,-0.757915,1.18383,-9.70876,-6.34113,-4.56162,87.2529
2023-03-11 17:48:56:284,-0.760864,1.1807,-9.70871,-6.35073,-4.56652,87.2614
2023-03-11 17:48:56:294,-0.783097,1.18171,-9.70143,-6.35662,-4.5719,87.2738
2023-03-11 17:48:56:304,-0.803295,1.17467,-9.6985,-6.35821,-4.576,87.2839
2023-03-11 17:48:56:314,-0.793529,1.16059,-9.6948,-6.35725,-4.57909,87.2976
2023-03-11 17:48:56:324,-0.786604,1.15851,-9.68407,-6.35454,-4.58312,87.3072
2023-03-11 17:48:56:334,-0.792619,1.15498,-9.68472,-6.35198,-4.58624,87.3178
2023-03-11 17:48:56:344,-0.815221,1.13367,-9.68113,-6.34663,-4.59311,87.3244
2023-03-11 17:48:56:354,-0.823903,1.12391,-9.66654,-6.34271,-4.59507,87.3304
2023-03-11 17:48:56:364,-0.811604,1.12843,-9.66402,-6.33908,-4.59715,87.333
2023-03-11 17:48:56:374,-0.807917,1.12415,-9.66874,-6.3389,-4.60167,87.3375
2023-03-11 17:48:56:384,-0.796532,1.1125,-9.66198,-6.34321,-4.60376,87.3427
2023-03-11 17:48:56:394,-0.818866,1.1226,-9.6607,-6.34727,-4.60603,87.3459
2023-03-11 17:48:56:404,-0.845163,1.13169,-9.68659,-6.35457,-4.60696,87.3486
2023-03-11 17:48:56:414,-0.827412,1.15859,-9.74284,-6.36453,-4.60339,87.3523
2023-03-11 17:48:56:424,-0.794938,1.17567,-9.78545,-6.37158,-4.59564,87.3514
2023-03-11 17:48:56:434,-0.786432,1.16179,-9.75682,-6.37327,-4.59297,87.347
2023-03-11 17:48:56:444,-0.807166,1.13971,-9.70739,-6.36733,-4.59197,87.3453
2023-03-11 17:48:56:454,-0.833458,1.12505,-9.67434,-6.36366,-4.59085,87.3461
2023-03-11 17:48:56:464,-0.830814,1.12004,-9.66899,-6.35404,-4.58917,87.3419
2023-03-11 17:48:56:474,-0.811791,1.12307,-9.65046,-6.34836,-4.58118,87.3374
2023-03-11 17:48:56:484,-0.786542,1.11123,-9.66048,-6.34024,-4.56916,87.3281
2023-03-11 17:48:56:494,-0.750979,1.1027,-9.68799,-6.33193,-4.5598,87.3155
2023-03-11 17:48:56:504,-0.743008,1.09706,-9.70201,-6.32691,-4.55123,87.3076
2023-03-11 17:48:56:514,-0.731755,1.09504,-9.69351,-6.31912,-4.54023,87.299
2023-03-11 17:48:56:524,-0.720953,1.09805,-9.71012,-6.31225,-4.53315,87.2902
2023-03-11 17:48:56:534,-0.707586,1.09596,-9.72054,-6.30576,-4.52716,87.2798
2023-03-11 17:48:56:544,-0.69678,1.08422,-9.71573,-6.29834,-4.52213,87.2722
2023-03-11 17:48:56:554,-0.696149,1.06735,-9.69927,-6.29194,-4.52062,87.2664
2023-03-11 17:48:56:564,-0.686905,1.05946,-9.68439,-6.2871,-4.51764,87.2599
2023-03-11 17:48:56:574,-0.679361,1.05775,-9.68778,-6.27883,-4.51781,87.2576
2023-03-11 17:48:56:584,-0.686924,1.05903,-9.68731,-6.27305,-4.51848,87.2602
2023-03-11 17:48:56:594,-0.701355,1.0711,-9.68113,-6.27244,-4.52221,87.2621
2023-03-11 17:48:56:604,-0.716108,1.06661,-9.69053,-6.27031,-4.5257,87.2663
2023-03-11 17:48:56:614,-0.730889,1.06131,-9.68126,-6.26646,-4.53185,87.2722
2023-03-11 17:48:56:624,-0.750733,1.06673,-9.67337,-6.26538,-4.5404,87.282
2023-03-11 17:48:56:634,-0.752971,1.05762,-9.66891,-6.26447,-4.54517,87.2933
2023-03-11 17:48:56:644,-0.75285,1.05169,-9.66906,-6.26614,-4.55009,87.3049
2023-03-11 17:48:56:654,-0.7638,1.06272,-9.67224,-6.26964,-4.55353,87.3174
2023-03-11 17:48:56:664,-0.783867,1.07486,-9.67753,-6.27515,-4.55566,87.3314
2023-03-11 17:48:56:674,-0.802544,1.0879,-9.68024,-6.28592,-4.55729,87.3484
2023-03-11 17:48:56:684,-0.797811,1.09216,-9.68915,-6.29405,-4.55915,87.3617
2023-03-11 17:48:56:694,-0.794883,1.0922,-9.68448,-6.30165,-4.5637,87.3759
2023-03-11 17:48:56:704,-0.810648,1.08726,-9.68949,-6.31127,-4.56526,87.3896
2023-03-11 17:48:56:714,-0.805674,1.07927,-9.67611,-6.32002,-4.56739,87.4045
2023-03-11 17:48:56:724,-0.804096,1.09203,-9.68017,-6.32716,-4.56941,87.4168
2023-03-11 17:48:56:734,-0.812148,1.10242,-9.68323,-6.33702,-4.5772,87.4209
2023-03-11 17:48:56:744,-0.817606,1.10719,-9.68839,-6.34769,-4.58236,87.4234
2023-03-11 17:48:56:754,-0.795646,1.11825,-9.69054,-6.35873,-4.59057,87.4252
2023-03-11 17:48:56:764,-0.780604,1.1185,-9.70053,-6.36795,-4.59206,87.4275
2023-03-11 17:48:56:774,-0.77306,1.13172,-9.70157,-6.37799,-4.59583,87.4305
2023-03-11 17:48:56:784,-0.76731,1.12788,-9.71119,-6.3857,-4.60214,87.4305
2023-03-11 17:48:56:794,-0.762887,1.13031,-9.70881,-6.3942,-4.60476,87.4322
2023-03-11 17:48:56:804,-0.756737,1.12631,-9.70764,-6.40072,-4.60938,87.4338
2023-03-11 17:48:56:814,-0.765432,1.1292,-9.69562,-6.40464,-4.61335,87.4366
2023-03-11 17:48:56:824,-0.764981,1.12071,-9.69535,-6.4103,-4.62219,87.4382
2023-03-11 17:48:56:834,-0.790047,1.11209,-9.6995,-6.41631,-4.62609,87.4435
2023-03-11 17:48:56:844,-0.821501,1.1282,-9.70803,-6.419,-4.62613,87.4477
2023-03-11 17:48:56:854,-0.823704,1.13003,-9.69981,-6.42139,-4.62834,87.4528
2023-03-11 17:48:56:864,-0.832153,1.11333,-9.69266,-6.42578,-4.62877,87.4581
2023-03-11 17:48:56:874,-0.848643,1.1067,-9.67736,-6.42986,-4.62894,87.4599
2023-03-11 17:48:56:884,-0.855568,1.09952,-9.66256,-6.43154,-4.62907,87.461
2023-03-11 17:48:56:894,-0.852715,1.1111,-9.65819,-6.43757,-4.63045,87.4589
2023-03-11 17:48:56:904,-0.834229,1.13013,-9.65442,-6.447,-4.62898,87.4513
2023-03-11 17:48:56:914,-0.810301,1.11889,-9.65899,-6.45628,-4.62711,87.4453
2023-03-11 17:48:56:924,-0.791238,1.11808,-9.68069,-6.4638,-4.62635,87.4336
2023-03-11 17:48:56:934,-0.784193,1.14104,-9.70937,-6.47474,-4.62169,87.4231
2023-03-11 17:48:56:944,-0.765903,1.14857,-9.73184,-6.48552,-4.61569,87.4122
2023-03-11 17:48:56:954,-0.736321,1.1468,-9.71306,-6.49273,-4.61028,87.4003
2023-03-11 17:48:56:964,-0.732338,1.11999,-9.68627,-6.49979,-4.60884,87.3822
2023-03-11 17:48:56:974,-0.73874,1.10851,-9.6476,-6.50701,-4.61071,87.3715
2023-03-11 17:48:56:984,-0.729183,1.12722,-9.63416,-6.5208,-4.61458,87.3617
2023-03-11 17:48:56:994,-0.728571,1.14331,-9.64633,-6.53711,-4.6154,87.3524
2023-03-11 17:48:57:4,-0.724704,1.15331,-9.68108,-6.55584,-4.61309,87.3465
2023-03-11 17:48:57:14,-0.722742,1.17334,-9.69208,-6.57616,-4.61096,87.3463
2023-03-11 17:48:57:24,-0.731592,1.19092,-9.68875,-6.59634,-4.60948,87.3484
2023-03-11 17:48:57:34,-0.739005,1.20397,-9.69117,-6.61375,-4.60618,87.3513
2023-03-11 17:48:57:44,-0.751364,1.21005,-9.69277,-6.62692,-4.6068,87.3544
2023-03-11 17:48:57:54,-0.770804,1.22635,-9.68746,-6.63901,-4.60758,87.3602
2023-03-11 17:48:57:64,-0.788931,1.23119,-9.68762,-6.65164,-4.60695,87.3669
2023-03-11 17:48:57:74,-0.799196,1.22259,-9.68996,-6.6603,-4.60788,87.3714
2023-03-11 17:48:57:84,-0.797148,1.21407,-9.69294,-6.67234,-4.60777,87.3787
2023-03-11 17:48:57:94,-0.806654,1.20405,-9.69199,-6.67857,-4.61142,87.3824
2023-03-11 17:48:57:104,-0.797233,1.20503,-9.70077,-6.68788,-4.61192,87.3874
2023-03-11 17:48:57:114,-0.797369,1.21658,-9.70942,-6.70003,-4.61354,87.3884
2023-03-11 17:48:57:124,-0.78472,1.22905,-9.69615,-6.70763,-4.61939,87.3916
2023-03-11 17:48:57:134,-0.771674,1.20132,-9.69509,-6.71357,-4.62009,87.3967
2023-03-11 17:48:57:144,-0.795508,1.21668,-9.7075,-6.7241,-4.62642,87.4004
2023-03-11 17:48:57:154,-0.817348,1.23083,-9.72276,-6.73425,-4.631,87.4026
2023-03-11 17:48:57:164,-0.802379,1.23292,-9.76431,-6.74212,-4.63137,87.4097
2023-03-11 17:48:57:174,-0.76238,1.24376,-9.79506,-6.74043,-4.63036,87.4108
2023-03-11 17:48:57:184,-0.788502,1.22426,-9.75459,-6.73141,-4.63079,87.4121
2023-03-11 17:48:57:194,-0.833997,1.18219,-9.68769,-6.71973,-4.63363,87.4159
2023-03-11 17:48:57:204,-0.838652,1.15413,-9.65609,-6.70641,-4.63325,87.4185
2023-03-11 17:48:57:214,-0.830659,1.13926,-9.64166,-6.69304,-4.62849,87.4201
2023-03-11 17:48:57:224,-0.80017,1.13088,-9.63731,-6.68373,-4.62769,87.4228
2023-03-11 17:48:57:234,-0.774006,1.13527,-9.64126,-6.67826,-4.62149,87.4239
2023-03-11 17:48:57:244,-0.766291,1.12888,-9.65875,-6.67499,-4.61659,87.4237
2023-03-11 17:48:57:254,-0.772219,1.1369,-9.65954,-6.67467,-4.61276,87.4248
2023-03-11 17:48:57:264,-0.764177,1.13746,-9.65874,-6.67797,-4.61537,87.429
2023-03-11 17:48:57:274,-0.753995,1.13945,-9.66177,-6.68521,-4.61408,87.431
2023-03-11 17:48:57:284,-0.751057,1.14675,-9.67142,-6.69296,-4.61785,87.4325
2023-03-11 17:48:57:294,-0.731552,1.15196,-9.68293,-6.69753,-4.62468,87.4343
2023-03-11 17:48:57:304,-0.731251,1.15968,-9.7009,-6.70465,-4.63248,87.4378
2023-03-11 17:48:57:314,-0.749617,1.16923,-9.71934,-6.71299,-4.64251,87.4424
2023-03-11 17:48:57:324,-0.761404,1.17515,-9.72022,-6.72067,-4.65748,87.45
2023-03-11 17:48:57:334,-0.766857,1.18477,-9.69862,-6.72863,-4.66998,87.4582
2023-03-11 17:48:57:344,-0.777693,1.18656,-9.684,-6.73065,-4.68682,87.4671
2023-03-11 17:48:57:354,-0.802901,1.16814,-9.6709,-6.73274,-4.70758,87.4783
2023-03-11 17:48:57:364,-0.813451,1.17669,-9.64356,-6.73174,-4.72157,87.4892
2023-03-11 17:48:57:374,-0.84587,1.17425,-9.64646,-6.73927,-4.73289,87.5045
2023-03-11 17:48:57:384,-0.880319,1.17847,-9.65716,-6.74773,-4.74512,87.5204
2023-03-11 17:48:57:394,-0.908553,1.18757,-9.67225,-6.75735,-4.75327,87.5328
2023-03-11 17:48:57:404,-0.952408,1.17658,-9.68561,-6.76348,-4.76136,87.547
2023-03-11 17:48:57:414,-0.99077,1.1777,-9.68377,-6.77089,-4.76573,87.5619
2023-03-11 17:48:57:424,-1.00016,1.18708,-9.6834,-6.77687,-4.76509,87.5727
2023-03-11 17:48:57:434,-1.00063,1.17958,-9.68888,-6.77915,-4.76068,87.5785
2023-03-11 17:48:57:444,-0.977942,1.1753,-9.71393,-6.78132,-4.7496,87.5782
2023-03-11 17:48:57:454,-0.946762,1.177,-9.70437,-6.77952,-4.7322,87.5754
2023-03-11 17:48:57:464,-0.937709,1.16592,-9.68615,-6.77641,-4.71359,87.5686
2023-03-11 17:48:57:474,-0.887466,1.15005,-9.64707,-6.77371,-4.69111,87.5589
2023-03-11 17:48:57:484,-0.849787,1.13591,-9.62207,-6.77081,-4.66576,87.5411
2023-03-11 17:48:57:494,-0.806771,1.13439,-9.62462,-6.77093,-4.63919,87.5218
2023-03-11 17:48:57:504,-0.756312,1.11555,-9.6369,-6.77431,-4.61185,87.5048
2023-03-11 17:48:57:514,-0.703896,1.1362,-9.65484,-6.78384,-4.58661,87.4835
2023-03-11 17:48:57:524,-0.665858,1.14161,-9.68374,-6.79438,-4.56007,87.4634
2023-03-11 17:48:57:534,-0.631868,1.16248,-9.69248,-6.8074,-4.53827,87.4478
2023-03-11 17:48:57:544,-0.621696,1.16688,-9.69342,-6.82164,-4.51959,87.4313
2023-03-11 17:48:57:554,-0.609564,1.17107,-9.69211,-6.83394,-4.50294,87.4248
2023-03-11 17:48:57:564,-0.615815,1.16576,-9.68285,-6.84842,-4.48964,87.4151
2023-03-11 17:48:57:574,-0.619431,1.16699,-9.66975,-6.85819,-4.48081,87.4142
2023-03-11 17:48:57:584,-0.630055,1.16795,-9.65901,-6.87543,-4.47174,87.4175
2023-03-11 17:48:57:594,-0.652219,1.17749,-9.6684,-6.89068,-4.46573,87.4249
2023-03-11 17:48:57:604,-0.665394,1.20032,-9.69135,-6.90944,-4.46088,87.4364
2023-03-11 17:48:57:614,-0.686709,1.22836,-9.71196,-6.92642,-4.45868,87.4459
2023-03-11 17:48:57:624,-0.715522,1.25172,-9.71665,-6.94628,-4.45853,87.4592
2023-03-11 17:48:57:634,-0.74728,1.25286,-9.71389,-6.96485,-4.46383,87.4709
2023-03-11 17:48:57:644,-0.769539,1.24326,-9.71912,-6.98196,-4.46838,87.4828
2023-03-11 17:48:57:654,-0.768423,1.23534,-9.72786,-6.99652,-4.47451,87.4931
2023-03-11 17:48:57:664,-0.755627,1.24044,-9.73289,-7.01165,-4.48089,87.5016
2023-03-11 17:48:57:674,-0.745407,1.24456,-9.73927,-7.02544,-4.48648,87.5083
2023-03-11 17:48:57:684,-0.751141,1.22968,-9.74465,-7.03197,-4.49476,87.5133
2023-03-11 17:48:57:694,-0.760681,1.22077,-9.72551,-7.03784,-4.50353,87.5206
2023-03-11 17:48:57:704,-0.770733,1.20447,-9.72858,-7.03887,-4.51345,87.5236
2023-03-11 17:48:57:714,-0.758491,1.18634,-9.70937,-7.03533,-4.52341,87.5257
2023-03-11 17:48:57:724,-0.739435,1.15427,-9.65966,-7.03313,-4.53902,87.5249
2023-03-11 17:48:57:734,-0.77364,1.13408,-9.61425,-7.03308,-4.55179,87.5293
2023-03-11 17:48:57:744,-0.777834,1.13911,-9.61244,-7.03745,-4.56449,87.529
2023-03-11 17:48:57:754,-0.774924,1.15913,-9.61504,-7.0448,-4.57803,87.5271
2023-03-11 17:48:57:764,-0.776173,1.1807,-9.62431,-7.05813,-4.59054,87.5327
2023-03-11 17:48:57:774,-0.76276,1.1898,-9.63058,-7.07547,-4.60002,87.537
2023-03-11 17:48:57:784,-0.770239,1.20981,-9.63483,-7.09584,-4.6119,87.5416
2023-03-11 17:48:57:794,-0.778826,1.2266,-9.63994,-7.1204,-4.62368,87.5498
2023-03-11 17:48:57:804,-0.812305,1.24567,-9.64837,-7.14676,-4.63067,87.555
2023-03-11 17:48:57:814,-0.841636,1.25641,-9.65866,-7.16887,-4.63826,87.5684
2023-03-11 17:48:57:824,-0.841649,1.26754,-9.64971,-7.18735,-4.64534,87.5802
2023-03-11 17:48:57:834,-0.847311,1.26492,-9.6567,-7.20818,-4.64747,87.5888
2023-03-11 17:48:57:844,-0.853736,1.27704,-9.64469,-7.23038,-4.6482,87.5935
2023-03-11 17:48:57:854,-0.854273,1.27618,-9.64159,-7.25326,-4.65055,87.5982
2023-03-11 17:48:57:864,-0.864608,1.28822,-9.65899,-7.27858,-4.64918,87.602
2023-03-11 17:48:57:874,-0.862657,1.30049,-9.68975,-7.30458,-4.64629,87.6046
2023-03-11 17:48:57:884,-0.84695,1.32279,-9.6893,-7.33377,-4.64183,87.6059
2023-03-11 17:48:57:893,-0.811168,1.31933,-9.68251,-7.36037,-4.63502,87.6032
2023-03-11 17:48:57:904,-0.825937,1.32694,-9.68247,-7.38345,-4.62853,87.5989
2023-03-11 17:48:57:914,-0.846993,1.34816,-9.68512,-7.40976,-4.62169,87.5942
2023-03-11 17:48:57:924,-0.826791,1.37366,-9.72709,-7.43467,-4.61074,87.5895
2023-03-11 17:48:57:934,-0.768126,1.4,-9.76573,-7.4578,-4.59601,87.5803
2023-03-11 17:48:57:944,-0.72607,1.38107,-9.73913,-7.47254,-4.57714,87.569
2023-03-11 17:48:57:954,-0.721962,1.34077,-9.67332,-7.48162,-4.56921,87.5555
2023-03-11 17:48:57:964,-0.736689,1.32319,-9.62341,-7.48623,-4.55828,87.5455
2023-03-11 17:48:57:974,-0.728481,1.32748,-9.60842,-7.49188,-4.54786,87.5333
2023-03-11 17:48:57:984,-0.709716,1.31937,-9.6012,-7.50394,-4.53519,87.5267
2023-03-11 17:48:57:994,-0.688719,1.31607,-9.61446,-7.51512,-4.52052,87.519
2023-03-11 17:48:58:4,-0.663881,1.31863,-9.64647,-7.52902,-4.50787,87.5159
2023-03-11 17:48:58:14,-0.67146,1.33619,-9.66644,-7.55203,-4.49486,87.5129
2023-03-11 17:48:58:24,-0.682431,1.35356,-9.70066,-7.5696,-4.48422,87.5145
2023-03-11 17:48:58:34,-0.68688,1.39071,-9.71662,-7.58578,-4.47797,87.5179
2023-03-11 17:48:58:44,-0.704717,1.41395,-9.7168,-7.6056,-4.47462,87.5197
2023-03-11 17:48:58:54,-0.709139,1.40323,-9.71459,-7.62514,-4.46992,87.5234
2023-03-11 17:48:58:64,-0.704929,1.40762,-9.69583,-7.63826,-4.46728,87.5279
2023-03-11 17:48:58:74,-0.720947,1.41302,-9.68172,-7.65162,-4.46961,87.5327
2023-03-11 17:48:58:84,-0.714652,1.40485,-9.66438,-7.66314,-4.47259,87.5333
2023-03-11 17:48:58:94,-0.709774,1.39781,-9.67346,-7.66929,-4.48015,87.5329
2023-03-11 17:48:58:104,-0.71556,1.38813,-9.67002,-7.67502,-4.48817,87.5346
2023-03-11 17:48:58:114,-0.715493,1.39506,-9.66657,-7.68229,-4.49748,87.5358
2023-03-11 17:48:58:124,-0.721077,1.40292,-9.67588,-7.69321,-4.50789,87.5408
2023-03-11 17:48:58:134,-0.72408,1.41369,-9.69189,-7.70383,-4.51956,87.5461
2023-03-11 17:48:58:144,-0.743883,1.40511,-9.70203,-7.70757,-4.5323,87.5499
2023-03-11 17:48:58:154,-0.771547,1.40705,-9.69932,-7.70857,-4.54553,87.5588
2023-03-11 17:48:58:164,-0.78411,1.40228,-9.69307,-7.7075,-4.55793,87.5685
2023-03-11 17:48:58:174,-0.799118,1.404,-9.68692,-7.70497,-4.571,87.5809
2023-03-11 17:48:58:184,-0.799385,1.40995,-9.67461,-7.7005,-4.58332,87.5938
2023-03-11 17:48:58:194,-0.818795,1.39708,-9.66802,-7.69299,-4.59705,87.606
2023-03-11 17:48:58:204,-0.837033,1.38371,-9.65388,-7.68966,-4.61074,87.6164
2023-03-11 17:48:58:214,-0.836215,1.37728,-9.63641,-7.68392,-4.62387,87.6249
2023-03-11 17:48:58:224,-0.841268,1.37487,-9.6258,-7.67433,-4.63341,87.633
2023-03-11 17:48:58:234,-0.828302,1.36949,-9.62695,-7.66987,-4.64118,87.6362
2023-03-11 17:48:58:244,-0.823205,1.35386,-9.64812,-7.66396,-4.64809,87.6402
2023-03-11 17:48:58:254,-0.834059,1.35806,-9.65443,-7.65769,-4.65438,87.6471
2023-03-11 17:48:58:264,-0.833101,1.3561,-9.66815,-7.65219,-4.66274,87.6509
2023-03-11 17:48:58:274,-0.827605,1.35759,-9.67437,-7.64624,-4.67221,87.6504
2023-03-11 17:48:58:284,-0.825641,1.35076,-9.68605,-7.64034,-4.67855,87.6492
2023-03-11 17:48:58:294,-0.816866,1.33649,-9.68664,-7.63224,-4.68282,87.6489
2023-03-11 17:48:58:304,-0.816284,1.3404,-9.64762,-7.62217,-4.68766,87.6501
2023-03-11 17:48:58:314,-0.817315,1.33228,-9.63062,-7.61412,-4.69119,87.6508
2023-03-11 17:48:58:324,-0.809623,1.31886,-9.63541,-7.60834,-4.69248,87.6511
2023-03-11 17:48:58:334,-0.804843,1.30623,-9.64076,-7.60164,-4.69233,87.6544
2023-03-11 17:48:58:344,-0.810444,1.32375,-9.65458,-7.59624,-4.69471,87.6551
2023-03-11 17:48:58:354,-0.809678,1.32563,-9.6809,-7.59551,-4.69436,87.6569
2023-03-11 17:48:58:364,-0.823818,1.33735,-9.67902,-7.59276,-4.69203,87.6585
2023-03-11 17:48:58:374,-0.822529,1.34017,-9.67686,-7.58705,-4.69123,87.6631
2023-03-11 17:48:58:384,-0.828311,1.33582,-9.69017,-7.5767,-4.69004,87.6672
2023-03-11 17:48:58:394,-0.833553,1.33394,-9.70496,-7.56973,-4.69063,87.6725
2023-03-11 17:48:58:404,-0.845143,1.33796,-9.70242,-7.55882,-4.68853,87.677
2023-03-11 17:48:58:414,-0.855085,1.32089,-9.70134,-7.54704,-4.68367,87.6819
2023-03-11 17:48:58:424,-0.855639,1.32232,-9.66636,-7.53499,-4.67857,87.6857
2023-03-11 17:48:58:434,-0.857517,1.30414,-9.6526,-7.51563,-4.67043,87.6854
2023-03-11 17:48:58:444,-0.850653,1.2966,-9.64459,-7.50153,-4.66528,87.6885
2023-03-11 17:48:58:454,-0.827393,1.30145,-9.67132,-7.48486,-4.65654,87.6889
2023-03-11 17:48:58:464,-0.811938,1.31509,-9.69086,-7.46979,-4.64797,87.6873
2023-03-11 17:48:58:474,-0.801876,1.31358,-9.69006,-7.45378,-4.64074,87.6834
2023-03-11 17:48:58:484,-0.783841,1.32191,-9.70287,-7.43546,-4.63383,87.6788
2023-03-11 17:48:58:494,-0.767545,1.33841,-9.73632,-7.4203,-4.63,87.672
2023-03-11 17:48:58:504,-0.750938,1.33988,-9.74405,-7.39924,-4.62408,87.6675
2023-03-11 17:48:58:514,-0.745736,1.30825,-9.7196,-7.37415,-4.62218,87.6588
2023-03-11 17:48:58:524,-0.766031,1.29524,-9.69002,-7.34786,-4.62881,87.6537
2023-03-11 17:48:58:534,-0.780251,1.2934,-9.67851,-7.31974,-4.63429,87.6474
2023-03-11 17:48:58:544,-0.783719,1.2946,-9.67871,-7.2946,-4.63851,87.6445
2023-03-11 17:48:58:554,-0.789032,1.31386,-9.69669,-7.26983,-4.64129,87.6447
2023-03-11 17:48:58:564,-0.788372,1.30742,-9.69959,-7.24178,-4.64537,87.6435
2023-03-11 17:48:58:574,-0.81683,1.31968,-9.6987,-7.21098,-4.64855,87.6469
2023-03-11 17:48:58:584,-0.835039,1.31851,-9.70354,-7.17925,-4.64707,87.6519
2023-03-11 17:48:58:594,-0.845255,1.31746,-9.68249,-7.14515,-4.64361,87.6556
2023-03-11 17:48:58:604,-0.874985,1.29142,-9.66923,-7.10586,-4.64107,87.6617
2023-03-11 17:48:58:614,-0.885224,1.2822,-9.6685,-7.06789,-4.63788,87.6631
2023-03-11 17:48:58:624,-0.885717,1.27702,-9.68617,-7.02726,-4.63254,87.6609
2023-03-11 17:48:58:634,-0.885154,1.26621,-9.68425,-6.98535,-4.6248,87.6585
2023-03-11 17:48:58:644,-0.879671,1.24985,-9.68552,-6.94397,-4.61554,87.6488
2023-03-11 17:48:58:654,-0.856902,1.23317,-9.69737,-6.90114,-4.60638,87.6383
2023-03-11 17:48:58:664,-0.845034,1.21635,-9.70625,-6.85549,-4.59385,87.624
2023-03-11 17:48:58:674,-0.824078,1.20882,-9.69539,-6.81288,-4.57994,87.607
2023-03-11 17:48:58:684,-0.786676,1.17877,-9.65481,-6.76869,-4.56356,87.5881
2023-03-11 17:48:58:694,-0.790016,1.14615,-9.63295,-6.72317,-4.54902,87.5714
2023-03-11 17:48:58:704,-0.779521,1.13337,-9.62763,-6.68,-4.53296,87.5525
2023-03-11 17:48:58:714,-0.775374,1.12592,-9.62747,-6.64064,-4.51459,87.5371
2023-03-11 17:48:58:724,-0.734238,1.14362,-9.66175,-6.60565,-4.49397,87.5168
2023-03-11 17:48:58:734,-0.67267,1.14264,-9.68,-6.5676,-4.4734,87.4991
2023-03-11 17:48:58:744,-0.662322,1.10955,-9.66712,-6.53254,-4.45079,87.4813
2023-03-11 17:48:58:754,-0.672013,1.08789,-9.64719,-6.49448,-4.43604,87.4654
2023-03-11 17:48:58:764,-0.678025,1.091,-9.65339,-6.46097,-4.42126,87.4509
2023-03-11 17:48:58:774,-0.664354,1.08989,-9.65375,-6.42819,-4.40757,87.4381
2023-03-11 17:48:58:784,-0.658028,1.05832,-9.66225,-6.40014,-4.39298,87.4264
2023-03-11 17:48:58:794,-0.63464,1.05074,-9.64883,-6.37261,-4.3767,87.4142
2023-03-11 17:48:58:804,-0.624186,1.05855,-9.66503,-6.34646,-4.36212,87.4058
2023-03-11 17:48:58:814,-0.622948,1.05301,-9.68734,-6.32213,-4.3478,87.4012
2023-03-11 17:48:58:824,-0.628095,1.04188,-9.68537,-6.30108,-4.33937,87.3999
2023-03-11 17:48:58:834,-0.652919,1.04778,-9.66606,-6.28091,-4.33435,87.3997
2023-03-11 17:48:58:844,-0.649525,1.04642,-9.65546,-6.2665,-4.32943,87.3992
2023-03-11 17:48:58:854,-0.649612,1.03819,-9.67433,-6.25028,-4.32472,87.4013
2023-03-11 17:48:58:864,-0.680763,1.03266,-9.67162,-6.23768,-4.3212,87.4051
2023-03-11 17:48:58:874,-0.682865,1.02426,-9.65825,-6.22568,-4.32447,87.4081
2023-03-11 17:48:58:884,-0.670779,1.02156,-9.63563,-6.21419,-4.326,87.4107
2023-03-11 17:48:58:894,-0.669538,1.0224,-9.63022,-6.20778,-4.33038,87.4106
2023-03-11 17:48:58:904,-0.672182,1.00981,-9.64027,-6.20811,-4.33863,87.4143
2023-03-11 17:48:58:914,-0.673632,1.00965,-9.65186,-6.21235,-4.3471,87.4212
2023-03-11 17:48:58:924,-0.681025,1.02981,-9.65578,-6.21781,-4.35722,87.4278
2023-03-11 17:48:58:934,-0.707938,1.04935,-9.66818,-6.22517,-4.36711,87.4356
2023-03-11 17:48:58:944,-0.731622,1.04977,-9.69463,-6.23345,-4.3768,87.4465
2023-03-11 17:48:58:954,-0.745469,1.04393,-9.7128,-6.24132,-4.38889,87.4559
2023-03-11 17:48:58:964,-0.753608,1.05279,-9.70724,-6.2476,-4.3971,87.4661
2023-03-11 17:48:58:974,-0.764393,1.06441,-9.69777,-6.25578,-4.40705,87.4777
2023-03-11 17:48:58:984,-0.787478,1.0719,-9.6815,-6.26179,-4.41661,87.487
2023-03-11 17:48:58:994,-0.793525,1.07391,-9.66002,-6.26597,-4.42496,87.4978
2023-03-11 17:48:59:4,-0.802189,1.06513,-9.6538,-6.27356,-4.43089,87.507
2023-03-11 17:48:59:14,-0.828366,1.08582,-9.65217,-6.28228,-4.43598,87.5175
2023-03-11 17:48:59:24,-0.832697,1.11011,-9.67327,-6.29669,-4.44311,87.5268
2023-03-11 17:48:59:34,-0.832482,1.12991,-9.70421,-6.31257,-4.44762,87.5323
2023-03-11 17:48:59:44,-0.842813,1.16438,-9.72391,-6.32749,-4.44849,87.5306
2023-03-11 17:48:59:54,-0.846116,1.17172,-9.72854,-6.34234,-4.45184,87.5269
2023-03-11 17:48:59:64,-0.847291,1.19046,-9.73016,-6.35483,-4.45073,87.527
2023-03-11 17:48:59:74,-0.838248,1.19397,-9.73425,-6.36273,-4.44909,87.5247
2023-03-11 17:48:59:84,-0.842525,1.19428,-9.72479,-6.36636,-4.44731,87.5184
2023-03-11 17:48:59:94,-0.825538,1.20157,-9.72712,-6.36859,-4.44056,87.5095
2023-03-11 17:48:59:104,-0.810159,1.21057,-9.76092,-6.36629,-4.432,87.5003
2023-03-11 17:48:59:114,-0.802066,1.24117,-9.79449,-6.36202,-4.42201,87.4876
2023-03-11 17:48:59:124,-0.793281,1.27911,-9.81344,-6.35499,-4.41223,87.4803
2023-03-11 17:48:59:134,-0.793778,1.28174,-9.82505,-6.34064,-4.40284,87.4672
2023-03-11 17:48:59:144,-0.793135,1.29537,-9.84655,-6.31815,-4.39309,87.4544
2023-03-11 17:48:59:154,-0.797181,1.34889,-9.90293,-6.29194,-4.38068,87.4416
2023-03-11 17:48:59:164,-0.804159,1.43317,-9.9924,-6.25887,-4.37057,87.4268
2023-03-11 17:48:59:174,-0.810315,1.5165,-10.0811,-6.21183,-4.36396,87.4099
2023-03-11 17:48:59:184,-0.822881,1.55751,-10.1262,-6.14705,-4.3603,87.394
2023-03-11 17:48:59:194,-0.844018,1.54955,-10.1082,-6.05711,-4.35466,87.3756
2023-03-11 17:48:59:204,-0.851225,1.51603,-10.0451,-5.93648,-4.34803,87.3586
2023-03-11 17:48:59:214,-0.845582,1.48477,-9.9936,-5.79343,-4.33495,87.337
2023-03-11 17:48:59:224,-0.83338,1.49758,-9.99598,-5.63098,-4.31894,87.3129
2023-03-11 17:48:59:234,-0.830942,1.50737,-10.006,-5.4526,-4.30135,87.2834
2023-03-11 17:48:59:244,-0.791418,1.44991,-9.97443,-5.25331,-4.28363,87.2528
2023-03-11 17:48:59:254,-0.739856,1.35543,-9.90974,-5.03377,-4.2664,87.2162
2023-03-11 17:48:59:264,-0.726466,1.26215,-9.85325,-4.79748,-4.25427,87.1761
2023-03-11 17:48:59:274,-0.75329,1.21129,-9.83623,-4.5573,-4.24727,87.1371
2023-03-11 17:48:59:284,-0.773562,1.16488,-9.86525,-4.30453,-4.23923,87.0987
2023-03-11 17:48:59:294,-0.756708,1.11852,-9.91981,-4.03727,-4.22464,87.0558
2023-03-11 17:48:59:304,-0.724856,1.05261,-9.96493,-3.75466,-4.2089,87.0108
2023-03-11 17:48:59:314,-0.701438,1.00405,-10.0259,-3.45775,-4.19373,86.9596
2023-03-11 17:48:59:324,-0.693881,0.959016,-10.0541,-3.13858,-4.17559,86.9105
2023-03-11 17:48:59:334,-0.645659,0.860913,-10.0329,-2.798,-4.15769,86.8612
2023-03-11 17:48:59:344,-0.620287,0.747644,-9.98137,-2.43347,-4.14338,86.8116
2023-03-11 17:48:59:354,-0.654017,0.668724,-9.93137,-2.05036,-4.13229,86.7622
2023-03-11 17:48:59:364,-0.67213,0.586355,-9.87257,-1.65447,-4.12631,86.716
2023-03-11 17:48:59:374,-0.665793,0.496243,-9.84207,-1.2499,-4.12181,86.672
2023-03-11 17:48:59:384,-0.677186,0.422304,-9.81359,-0.832782,-4.11743,86.6271
2023-03-11 17:48:59:394,-0.664214,0.366437,-9.80281,-0.405909,-4.11464,86.5841
2023-03-11 17:48:59:404,-0.647091,0.296186,-9.77537,0.0312403,-4.10702,86.5416
2023-03-11 17:48:59:414,-0.616834,0.234827,-9.76028,0.481386,-4.09988,86.4969
2023-03-11 17:48:59:424,-0.596196,0.174452,-9.78243,0.940787,-4.09392,86.4572
2023-03-11 17:48:59:434,-0.636758,0.122037,-9.82021,1.41266,-4.08838,86.4221
2023-03-11 17:48:59:444,-0.672554,0.0693201,-9.85479,1.89894,-4.08467,86.3904
2023-03-11 17:48:59:454,-0.677317,-0.0188094,-9.87759,2.40872,-4.0803,86.3603
2023-03-11 17:48:59:464,-0.689702,-0.132387,-9.86383,2.93913,-4.07095,86.3313
2023-03-11 17:48:59:474,-0.744044,-0.251927,-9.8199,3.48996,-4.0583,86.3039
2023-03-11 17:48:59:484,-0.817689,-0.375582,-9.76826,4.055,-4.04206,86.2745
2023-03-11 17:48:59:494,-0.810072,-0.509103,-9.74268,4.64127,-4.01779,86.24
2023-03-11 17:48:59:504,-0.752177,-0.654442,-9.70344,5.23781,-3.98639,86.2015
2023-03-11 17:48:59:514,-0.675736,-0.79801,-9.62292,5.84875,-3.9502,86.1561
2023-03-11 17:48:59:524,-0.629016,-0.953472,-9.52371,6.46697,-3.91774,86.1049
2023-03-11 17:48:59:534,-0.569353,-1.07235,-9.49452,7.08069,-3.89166,86.0488
2023-03-11 17:48:59:544,-0.534041,-1.1815,-9.53248,7.69944,-3.8677,85.9926
2023-03-11 17:48:59:554,-0.511647,-1.3123,-9.53961,8.31521,-3.8451,85.9325
2023-03-11 17:48:59:564,-0.53855,-1.47507,-9.51919,8.94073,-3.82633,85.8778
2023-03-11 17:48:59:574,-0.591621,-1.59872,-9.46892,9.57177,-3.81448,85.8223
2023-03-11 17:48:59:584,-0.66339,-1.70112,-9.38488,10.2052,-3.79727,85.7727
2023-03-11 17:48:59:594,-0.690236,-1.82168,-9.29894,10.8418,-3.77691,85.7239
2023-03-11 17:48:59:604,-0.638019,-1.96948,-9.23528,11.4767,-3.748,85.6787
2023-03-11 17:48:59:614,-0.609846,-2.11215,-9.233,12.1044,-3.71686,85.6327
2023-03-11 17:48:59:624,-0.63773,-2.18919,-9.26193,12.7221,-3.68763,85.5931
2023-03-11 17:48:59:634,-0.695109,-2.28373,-9.26014,13.3326,-3.65415,85.5544
2023-03-11 17:48:59:644,-0.752381,-2.39958,-9.19516,13.9426,-3.61464,85.5195
2023-03-11 17:48:59:654,-0.754926,-2.51061,-9.14305,14.546,-3.56787,85.4853
2023-03-11 17:48:59:664,-0.681931,-2.58884,-9.10422,15.1438,-3.51117,85.4481
2023-03-11 17:48:59:674,-0.578001,-2.68768,-9.09807,15.734,-3.4493,85.409
2023-03-11 17:48:59:684,-0.490376,-2.80894,-9.11866,16.3187,-3.38544,85.3679
2023-03-11 17:48:59:694,-0.503476,-2.86984,-9.12545,16.8945,-3.32479,85.3307
2023-03-11 17:48:59:704,-0.594097,-2.93043,-9.08589,17.4629,-3.27215,85.297
2023-03-11 17:48:59:714,-0.714153,-2.9815,-9.02806,18.0301,-3.22277,85.2734
2023-03-11 17:48:59:724,-0.66597,-3.05164,-8.99859,18.5919,-3.15678,85.2542
2023-03-11 17:48:59:734,-0.630662,-3.27308,-8.84731,19.1561,-3.09487,85.2265
2023-03-11 17:48:59:744,-0.590642,-3.36541,-8.89733,19.7009,-3.02856,85.1878
2023-03-11 17:48:59:754,-0.40518,-3.35798,-9.08774,20.2318,-2.94867,85.156
2023-03-11 17:48:59:764,-0.396595,-3.39253,-9.09797,20.7636,-2.86968,85.1299
2023-03-11 17:48:59:774,-0.563048,-3.47657,-8.93553,21.297,-2.80478,85.1003
2023-03-11 17:48:59:784,-0.573279,-3.58421,-8.83238,21.8301,-2.74212,85.0639
2023-03-11 17:48:59:794,-0.403443,-3.60134,-8.83932,22.3574,-2.6673,85.0266
2023-03-11 17:48:59:804,-0.310044,-3.64381,-8.88333,22.8788,-2.59216,84.9962
2023-03-11 17:48:59:814,-0.38206,-3.73934,-8.94669,23.4034,-2.51986,84.9754
2023-03-11 17:48:59:824,-0.484526,-3.83951,-8.95591,23.9323,-2.45659,84.9644
2023-03-11 17:48:59:834,-0.518424,-3.97668,-8.90245,24.47,-2.38724,84.9559
2023-03-11 17:48:59:844,-0.492312,-4.13071,-8.77315,25.0143,-2.31203,84.9478
2023-03-11 17:48:59:854,-0.416017,-4.26601,-8.60796,25.5619,-2.2321,84.9367
2023-03-11 17:48:59:864,-0.31527,-4.36993,-8.48237,26.1003,-2.14363,84.9253
2023-03-11 17:48:59:874,-0.218678,-4.46741,-8.44492,26.6276,-2.05599,84.9117
2023-03-11 17:48:59:884,-0.181487,-4.52164,-8.42019,27.1397,-1.97292,84.9014
2023-03-11 17:48:59:894,-0.181891,-4.58788,-8.44428,27.6401,-1.8952,84.8954
2023-03-11 17:48:59:904,-0.202824,-4.62981,-8.49417,28.1318,-1.8223,84.8923
2023-03-11 17:48:59:914,-0.217818,-4.67929,-8.48606,28.619,-1.75688,84.8894
2023-03-11 17:48:59:924,-0.22705,-4.78994,-8.41375,29.1063,-1.6886,84.8921
2023-03-11 17:48:59:934,-0.264145,-4.88658,-8.34413,29.5913,-1.62399,84.8939
2023-03-11 17:48:59:944,-0.292453,-4.9724,-8.27508,30.0719,-1.5553,84.8987
2023-03-11 17:48:59:954,-0.301421,-5.04225,-8.17449,30.5513,-1.48501,84.9018
2023-03-11 17:48:59:964,-0.286244,-5.12628,-8.05282,31.0276,-1.41116,84.9083
2023-03-11 17:48:59:974,-0.252219,-5.21611,-8.00687,31.4873,-1.33854,84.9029
2023-03-11 17:48:59:984,-0.152935,-5.25962,-8.0718,31.9254,-1.26397,84.8921
2023-03-11 17:48:59:994,0.00366258,-5.22884,-8.16537,32.3455,-1.19639,84.8743
2023-03-11 17:49:00:4,0.0327892,-5.21409,-8.24934,32.7563,-1.13832,84.852
2023-03-11 17:49:00:14,-0.05637,-5.19379,-8.29379,33.1682,-1.08951,84.8338
2023-03-11 17:49:00:24,-0.205299,-5.14996,-8.30885,33.5865,-1.04695,84.8249
2023-03-11 17:49:00:34,-0.321244,-5.15256,-8.31762,34.0191,-1.00646,84.826
2023-03-11 17:49:00:44,-0.351568,-5.16741,-8.28703,34.4691,-0.957543,84.8378
2023-03-11 17:49:00:54,-0.34354,-5.20643,-8.21259,34.9385,-0.898461,84.8583
2023-03-11 17:49:00:64,-0.315097,-5.3212,-8.11622,35.4354,-0.833689,84.884
2023-03-11 17:49:00:74,-0.215585,-5.46784,-8.03983,35.9472,-0.757328,84.9136
2023-03-11 17:49:00:84,-0.0790668,-5.64164,-7.96418,36.4717,-0.680671,84.9374
2023-03-11 17:49:00:94,-0.0468719,-5.76822,-7.88167,37.0003,-0.610404,84.9541
2023-03-11 17:49:00:104,-0.127921,-5.79258,-7.85546,37.524,-0.546371,84.971
2023-03-11 17:49:00:114,-0.236377,-5.76867,-7.92952,38.0458,-0.484835,84.9953
2023-03-11 17:49:00:124,-0.250451,-5.76871,-7.98399,38.5805,-0.417857,85.0213
2023-03-11 17:49:00:134,-0.213227,-5.86265,-7.90116,39.1404,-0.340446,85.0445
2023-03-11 17:49:00:144,-0.191463,-6.01159,-7.72559,39.7324,-0.258734,85.0682
2023-03-11 17:49:00:154,-0.179619,-6.18365,-7.57276,40.3418,-0.168392,85.0922
2023-03-11 17:49:00:164,-0.184218,-6.3177,-7.46962,40.9629,-0.0739228,85.1117
2023-03-11 17:49:00:174,-0.144295,-6.41887,-7.42976,41.5836,0.0292896,85.1296
2023-03-11 17:49:00:184,-0.00883755,-6.50583,-7.41329,42.2087,0.133395,85.14
2023-03-11 17:49:00:194,0.0568276,-6.56366,-7.34779,42.8336,0.237873,85.1409
2023-03-11 17:49:00:204,-0.0109525,-6.63888,-7.2442,43.4593,0.337556,85.1378
2023-03-11 17:49:00:214,-0.117333,-6.66136,-7.0965,44.088,0.434556,85.1323
2023-03-11 17:49:00:224,-0.141981,-6.69465,-6.94261,44.7176,0.533916,85.1193
2023-03-11 17:49:00:234,-0.09049,-6.78586,-6.77682,45.356,0.648903,85.1014
2023-03-11 17:49:00:244,-0.00972888,-6.93304,-6.59359,46.0005,0.77474,85.0807
2023-03-11 17:49:00:254,0.0631447,-7.07433,-6.40521,46.6424,0.906531,85.0531
2023-03-11 17:49:00:264,0.159644,-7.20684,-6.22311,47.2774,1.04341,85.0191
2023-03-11 17:49:00:274,0.257898,-7.38319,-6.0917,47.8997,1.18479,84.9844
2023-03-11 17:49:00:284,0.289266,-7.56836,-6.01823,48.4968,1.32193,84.9434
2023-03-11 17:49:00:294,0.29519,-7.68163,-5.98655,49.0653,1.45722,84.8958
2023-03-11 17:49:00:304,0.280738,-7.70164,-6.01113,49.5982,1.58507,84.8446
2023-03-11 17:49:00:314,0.265966,-7.70454,-6.05389,50.1028,1.70938,84.7925
2023-03-11 17:49:00:324,0.278004,-7.73135,-6.08026,50.5931,1.83729,84.7389
2023-03-11 17:49:00:334,0.34127,-7.77901,-6.0371,51.0743,1.96818,84.6872
2023-03-11 17:49:00:344,0.424541,-7.81772,-5.95646,51.5514,2.10281,84.637
2023-03-11 17:49:00:354,0.508613,-7.88237,-5.83196,52.031,2.24163,84.5954
2023-03-11 17:49:00:364,0.614889,-8.03581,-5.65124,52.5153,2.38109,84.5549
2023-03-11 17:49:00:374,0.714365,-8.21243,-5.44063,52.9992,2.51324,84.5197
2023-03-11 17:49:00:384,0.739138,-8.3924,-5.26405,53.4636,2.63966,84.4902
2023-03-11 17:49:00:394,0.752269,-8.53496,-5.15245,53.8946,2.75738,84.4628
2023-03-11 17:49:00:404,0.769424,-8.62027,-5.14506,54.2867,2.86421,84.4416
2023-03-11 17:49:00:414,0.759484,-8.61427,-5.15683,54.6334,2.95697,84.4201
2023-03-11 17:49:00:424,0.706497,-8.59042,-5.17912,54.9424,3.03664,84.3931
2023-03-11 17:49:00:434,0.646263,-8.59334,-5.16988,55.2241,3.10747,84.367
2023-03-11 17:49:00:444,0.645368,-8.61528,-5.13518,55.4778,3.1753,84.3426
2023-03-11 17:49:00:454,0.695883,-8.66459,-5.0772,55.7132,3.24309,84.3169
2023-03-11 17:49:00:464,0.76281,-8.72624,-5.00731,55.9269,3.31036,84.2896
2023-03-11 17:49:00:474,0.808439,-8.76699,-4.96124,56.1165,3.37726,84.2663
2023-03-11 17:49:00:484,0.837202,-8.83248,-4.90027,56.2834,3.44154,84.2463
2023-03-11 17:49:00:494,0.861602,-8.89696,-4.85239,56.4241,3.49542,84.2277
2023-03-11 17:49:00:504,0.884084,-8.9581,-4.78885,56.5282,3.53947,84.2025
2023-03-11 17:49:00:514,0.923363,-8.98547,-4.76372,56.5936,3.57402,84.1747
2023-03-11 17:49:00:524,0.906051,-8.95461,-4.77328,56.6228,3.60242,84.1434
2023-03-11 17:49:00:534,0.869566,-8.95178,-4.81098,56.6175,3.62252,84.1148
2023-03-11 17:49:00:544,0.809772,-8.96499,-4.80525,56.5782,3.63,84.0891
2023-03-11 17:49:00:554,0.801505,-8.98022,-4.77214,56.5063,3.63081,84.0583
2023-03-11 17:49:00:564,0.841829,-8.98913,-4.78607,56.4002,3.63022,84.0249
2023-03-11 17:49:00:574,0.916127,-9.00705,-4.85825,56.262,3.62341,83.9947
2023-03-11 17:49:00:584,0.923098,-8.97597,-4.92357,56.0939,3.61232,83.9609
2023-03-11 17:49:00:594,0.821726,-8.90418,-4.94389,55.8959,3.58864,83.9362
2023-03-11 17:49:00:604,0.708568,-8.94209,-4.83386,55.6764,3.56169,83.9236
2023-03-11 17:49:00:614,0.620431,-9.06411,-4.67302,55.4368,3.5304,83.9138
2023-03-11 17:49:00:624,0.592217,-9.10715,-4.59784,55.1502,3.50579,83.9115
2023-03-11 17:49:00:634,0.683896,-9.05486,-4.65254,54.8055,3.49042,83.9112
2023-03-11 17:49:00:644,0.786162,-8.90559,-4.79402,54.3956,3.4688,83.9067
2023-03-11 17:49:00:654,0.86734,-8.75596,-4.98081,53.932,3.44311,83.8951
2023-03-11 17:49:00:664,0.878402,-8.61167,-5.14826,53.4168,3.40676,83.8743
2023-03-11 17:49:00:674,0.833693,-8.49266,-5.2543,52.8688,3.35993,83.86
2023-03-11 17:49:00:684,0.795327,-8.47204,-5.29231,52.2933,3.30066,83.8473
2023-03-11 17:49:00:694,0.714927,-8.40907,-5.32311,51.6872,3.23871,83.8402
2023-03-11 17:49:00:704,0.62705,-8.24262,-5.44047,51.0399,3.17272,83.8452
2023-03-11 17:49:00:714,0.572161,-8.08931,-5.58941,50.3619,3.10891,83.8629
2023-03-11 17:49:00:724,0.594795,-7.94775,-5.72791,49.6525,3.04573,83.8864
2023-03-11 17:49:00:734,0.657464,-7.82555,-5.88451,48.9152,2.98744,83.9092
2023-03-11 17:49:00:744,0.667202,-7.70853,-5.98202,48.1534,2.92911,83.932
2023-03-11 17:49:00:754,0.767833,-7.62767,-6.05311,47.3703,2.86858,83.947
2023-03-11 17:49:00:764,1.01528,-7.53752,-6.15506,46.5574,2.80399,83.946
2023-03-11 17:49:00:774,1.18094,-7.40481,-6.30751,45.7164,2.72602,83.9361
2023-03-11 17:49:00:784,1.12684,-7.20427,-6.4955,44.8441,2.61599,83.9259
2023-03-11 17:49:00:794,0.83463,-6.92167,-6.68605,43.9464,2.47195,83.9182
2023-03-11 17:49:00:804,0.491064,-6.65638,-6.84237,43.0349,2.30635,83.9236
2023-03-11 17:49:00:814,0.324888,-6.47533,-6.93225,42.1241,2.14271,83.9445
2023-03-11 17:49:00:824,0.343727,-6.38485,-6.89654,41.2167,1.98449,83.9663
2023-03-11 17:49:00:834,0.404873,-6.28003,-6.93552,40.3057,1.83678,83.9916
2023-03-11 17:49:00:844,0.450275,-6.13575,-6.99378,39.3813,1.68862,84.015
2023-03-11 17:49:00:854,0.413735,-5.92628,-7.15935,38.4303,1.5287,84.0363
2023-03-11 17:49:00:864,0.258139,-5.67457,-7.3915,37.4572,1.36455,84.0565
2023-03-11 17:49:00:874,0.0554642,-5.38895,-7.63153,36.4719,1.18717,84.0773
2023-03-11 17:49:00:884,-0.0363328,-5.07491,-7.8726,35.4747,1.01566,84.1013
2023-03-11 17:49:00:894,0.0452908,-4.84642,-8.05233,34.4893,0.854947,84.1182
2023-03-11 17:49:00:904,0.194906,-4.68158,-8.19422,33.5228,0.700388,84.1244
2023-03-11 17:49:00:914,0.334273,-4.56622,-8.29509,32.5776,0.546567,84.1266
2023-03-11 17:49:00:924,0.338703,-4.52814,-8.32755,31.6621,0.386326,84.1222
2023-03-11 17:49:00:934,0.254844,-4.48723,-8.27819,30.7688,0.215225,84.1164
2023-03-11 17:49:00:944,0.207675,-4.43136,-8.21428,29.8835,0.0366558,84.1093
2023-03-11 17:49:00:954,0.220532,-4.31825,-8.19623,28.989,-0.155075,84.0969
2023-03-11 17:49:00:964,0.236708,-4.13288,-8.25665,28.0832,-0.35777,84.0834
2023-03-11 17:49:00:974,0.155759,-3.8944,-8.42118,27.1595,-0.574051,84.076
2023-03-11 17:49:00:984,-0.0211519,-3.63284,-8.6013,26.226,-0.814134,84.0803
2023-03-11 17:49:00:994,-0.282123,-3.39076,-8.75618,25.2891,-1.06879,84.0953
2023-03-11 17:49:01:4,-0.520328,-3.20829,-8.94938,24.3685,-1.32482,84.1289
2023-03-11 17:49:01:14,-0.665659,-3.07582,-9.14394,23.4665,-1.56816,84.1743
2023-03-11 17:49:01:24,-0.733301,-2.93974,-9.27102,22.5976,-1.79354,84.2305
2023-03-11 17:49:01:34,-0.710475,-2.83934,-9.32978,21.7628,-1.99397,84.2956
2023-03-11 17:49:01:44,-0.640767,-2.78012,-9.34858,20.9617,-2.17502,84.3606
2023-03-11 17:49:01:54,-0.66285,-2.7453,-9.30234,20.193,-2.34809,84.4304
2023-03-11 17:49:01:64,-0.816237,-2.68614,-9.2323,19.4415,-2.51875,84.5056
2023-03-11 17:49:01:74,-0.964023,-2.6046,-9.19181,18.7,-2.68047,84.5861
2023-03-11 17:49:01:84,-1.00087,-2.48716,-9.18082,17.9674,-2.82773,84.6699
2023-03-11 17:49:01:94,-0.934344,-2.36903,-9.19972,17.2402,-2.95547,84.7451
2023-03-11 17:49:01:104,-0.836707,-2.25938,-9.25997,16.5207,-3.07014,84.8171
2023-03-11 17:49:01:114,-0.766471,-2.10962,-9.30454,15.8035,-3.17293,84.8866
2023-03-11 17:49:01:124,-0.793934,-1.98626,-9.34732,15.101,-3.27681,84.9531
2023-03-11 17:49:01:134,-0.8392,-1.89567,-9.36646,14.4109,-3.37487,85.0152
2023-03-11 17:49:01:144,-0.894994,-1.80772,-9.39813,13.7355,-3.47048,85.0755
2023-03-11 17:49:01:154,-0.932677,-1.70325,-9.44708,13.0699,-3.55812,85.1366
2023-03-11 17:49:01:164,-0.893728,-1.55369,-9.52615,12.4157,-3.63395,85.1911
2023-03-11 17:49:01:174,-0.824826,-1.44731,-9.61342,11.7737,-3.69546,85.2464
2023-03-11 17:49:01:184,-0.785038,-1.37805,-9.68998,11.1488,-3.752,85.2959
2023-03-11 17:49:01:194,-0.778829,-1.29827,-9.75098,10.5409,-3.80433,85.347
2023-03-11 17:49:01:204,-0.804955,-1.20841,-9.77089,9.95017,-3.85703,85.4007
2023-03-11 17:49:01:214,-0.819043,-1.13777,-9.76841,9.37594,-3.90888,85.4516
2023-03-11 17:49:01:224,-0.807232,-1.04918,-9.76987,8.82078,-3.95308,85.4983
2023-03-11 17:49:01:234,-0.777607,-0.953407,-9.80629,8.28019,-3.98739,85.5473
2023-03-11 17:49:01:244,-0.729536,-0.859449,-9.87097,7.75458,-4.02027,85.5963
2023-03-11 17:49:01:254,-0.701863,-0.76651,-9.90102,7.24687,-4.05287,85.649
2023-03-11 17:49:01:264,-0.7069,-0.668713,-9.90187,6.75722,-4.08305,85.7024
2023-03-11 17:49:01:274,-0.726821,-0.578429,-9.9198,6.285,-4.11307,85.7545
2023-03-11 17:49:01:284,-0.73673,-0.479318,-9.93749,5.831,-4.14056,85.8134
2023-03-11 17:49:01:294,-0.74734,-0.395426,-9.96352,5.39561,-4.16295,85.8707
2023-03-11 17:49:01:304,-0.735199,-0.281606,-9.98726,4.97769,-4.18222,85.9319
2023-03-11 17:49:01:314,-0.720423,-0.214278,-10.0215,4.5818,-4.19886,85.9907
2023-03-11 17:49:01:324,-0.70855,-0.146223,-10.0334,4.20962,-4.21267,86.0491
2023-03-11 17:49:01:334,-0.728564,-0.10095,-10.0148,3.86093,-4.22632,86.1051
2023-03-11 17:49:01:344,-0.788435,-0.0671173,-9.99055,3.53522,-4.24447,86.1642
2023-03-11 17:49:01:354,-0.83576,-0.0282928,-9.99512,3.22837,-4.26165,86.2214
2023-03-11 17:49:01:364,-0.854068,0.0260176,-9.99974,2.93919,-4.27141,86.2748
2023-03-11 17:49:01:374,-0.860892,0.0688601,-10.0058,2.67058,-4.27494,86.3266
2023-03-11 17:49:01:384,-0.863613,0.103481,-9.99647,2.42399,-4.27981,86.3769
2023-03-11 17:49:01:394,-0.842821,0.123462,-10.0064,2.20249,-4.28121,86.4205
2023-03-11 17:49:01:404,-0.812463,0.152218,-10.0218,1.9996,-4.27562,86.4636
2023-03-11 17:49:01:414,-0.797782,0.151539,-10.0484,1.81297,-4.26832,86.5022
2023-03-11 17:49:01:424,-0.787854,0.145439,-10.0492,1.64765,-4.26335,86.5378
2023-03-11 17:49:01:434,-0.773503,0.151706,-10.0174,1.49821,-4.25746,86.5668
2023-03-11 17:49:01:444,-0.782609,0.126695,-9.97454,1.3649,-4.25411,86.5935
2023-03-11 17:49:01:454,-0.783459,0.116666,-9.92424,1.24524,-4.25406,86.6162
2023-03-11 17:49:01:464,-0.780558,0.11355,-9.89237,1.13426,-4.25447,86.6387
2023-03-11 17:49:01:474,-0.77733,0.135989,-9.87271,1.03223,-4.25819,86.658
2023-03-11 17:49:01:484,-0.769128,0.153094,-9.87962,0.934335,-4.25971,86.6762
2023-03-11 17:49:01:494,-0.738957,0.163754,-9.90246,0.851599,-4.26128,86.6884
2023-03-11 17:49:01:504,-0.72157,0.162981,-9.88925,0.776352,-4.26422,86.7016
2023-03-11 17:49:01:514,-0.724769,0.159795,-9.83459,0.714189,-4.26639,86.7122
2023-03-11 17:49:01:524,-0.723668,0.139615,-9.80066,0.653915,-4.27088,86.7239
2023-03-11 17:49:01:534,-0.711657,0.13336,-9.79134,0.598669,-4.27744,86.7368
2023-03-11 17:49:01:544,-0.716453,0.132662,-9.78779,0.547076,-4.28425,86.7523
2023-03-11 17:49:01:554,-0.728478,0.147214,-9.79205,0.496217,-4.28787,86.7653
2023-03-11 17:49:01:564,-0.740228,0.174547,-9.8031,0.449013,-4.29083,86.778
2023-03-11 17:49:01:574,-0.741151,0.194992,-9.8126,0.400097,-4.29046,86.7934
2023-03-11 17:49:01:584,-0.758145,0.207767,-9.84949,0.358457,-4.29085,86.8103
2023-03-11 17:49:01:594,-0.770357,0.218584,-9.86046,0.322446,-4.29445,86.8259
2023-03-11 17:49:01:604,-0.79395,0.226873,-9.83445,0.29219,-4.29411,86.8413
2023-03-11 17:49:01:614,-0.810666,0.217924,-9.81849,0.266494,-4.29183,86.8554
2023-03-11 17:49:01:624,-0.790141,0.202701,-9.81879,0.24893,-4.29057,86.8688
2023-03-11 17:49:01:634,-0.76592,0.199661,-9.80872,0.235845,-4.28526,86.879
2023-03-11 17:49:01:644,-0.754106,0.185958,-9.79919,0.226875,-4.28389,86.8874
2023-03-11 17:49:01:654,-0.763508,0.176364,-9.79523,0.219121,-4.28192,86.896
2023-03-11 17:49:01:664,-0.764562,0.161512,-9.7768,0.213784,-4.28339,86.9005
2023-03-11 17:49:01:674,-0.754549,0.141464,-9.78817,0.211729,-4.28336,86.9041
2023-03-11 17:49:01:684,-0.749786,0.122774,-9.7792,0.208866,-4.27829,86.9039
2023-03-11 17:49:01:694,-0.760128,0.0995048,-9.75049,0.210923,-4.27359,86.9025
2023-03-11 17:49:01:704,-0.776625,0.0689933,-9.73459,0.210318,-4.27101,86.8987
2023-03-11 17:49:01:714,-0.77687,0.0505237,-9.7284,0.210195,-4.26834,86.898
2023-03-11 17:49:01:724,-0.744676,0.034589,-9.72793,0.205693,-4.26417,86.8913
2023-03-11 17:49:01:734,-0.704957,0.00862058,-9.72911,0.201939,-4.25716,86.8843
2023-03-11 17:49:01:744,-0.714352,-0.0296071,-9.7267,0.199802,-4.25107,86.8785
2023-03-11 17:49:01:754,-0.726914,-0.0787515,-9.70531,0.189339,-4.247,86.8725
2023-03-11 17:49:01:764,-0.748643,-0.121845,-9.67841,0.181515,-4.24065,86.8653
2023-03-11 17:49:01:774,-0.766609,-0.175677,-9.65125,0.171209,-4.23715,86.8561
2023-03-11 17:49:01:784,-0.74758,-0.235056,-9.60789,0.15451,-4.23447,86.8499
2023-03-11 17:49:01:794,-0.760818,-0.274053,-9.5596,0.127027,-4.23114,86.8432
2023-03-11 17:49:01:804,-0.769505,-0.318091,-9.52082,0.0913389,-4.22385,86.8354
2023-03-11 17:49:01:814,-0.772386,-0.348564,-9.51163,0.0440917,-4.2196,86.8286
2023-03-11 17:49:01:824,-0.773645,-0.373729,-9.50678,-0.0207762,-4.21671,86.8228
2023-03-11 17:49:01:834,-0.771769,-0.407015,-9.50928,-0.0973411,-4.21268,86.815
2023-03-11 17:49:01:844,-0.807154,-0.437354,-9.48035,-0.187718,-4.21007,86.8063
2023-03-11 17:49:01:854,-0.838404,-0.446437,-9.45044,-0.298162,-4.20122,86.798
2023-03-11 17:49:01:864,-0.833694,-0.424749,-9.40413,-0.422081,-4.18857,86.7909
2023-03-11 17:49:01:874,-0.790141,-0.443626,-9.35961,-0.563339,-4.16323,86.7769
2023-03-11 17:49:01:884,-0.728075,-0.453819,-9.26119,-0.724003,-4.13552,86.7668
2023-03-11 17:49:01:894,-0.721926,-0.479863,-9.13623,-0.907431,-4.10315,86.7554
2023-03-11 17:49:01:904,-0.761775,-0.484519,-9.00018,-1.12319,-4.07281,86.7479
2023-03-11 17:49:01:914,-0.744379,-0.465512,-8.95859,-1.3834,-4.0398,86.7389
2023-03-11 17:49:01:924,-0.686651,-0.392109,-8.98731,-1.68645,-4.00266,86.7328
2023-03-11 17:49:01:934,-0.659434,-0.309002,-9.0544,-2.03422,-3.96755,86.7269
2023-03-11 17:49:01:944,-0.665698,-0.165995,-9.13921,-2.41922,-3.93189,86.7238
2023-03-11 17:49:01:954,-0.668499,-0.0208971,-9.23331,-2.84438,-3.89877,86.7248
2023-03-11 17:49:01:964,-0.653608,0.108403,-9.30846,-3.29205,-3.86067,86.7242
2023-03-11 17:49:01:974,-0.595436,0.246142,-9.33118,-3.75896,-3.82601,86.7267
2023-03-11 17:49:01:984,-0.560046,0.351441,-9.33922,-4.24722,-3.78908,86.7321
2023-03-11 17:49:01:994,-0.540587,0.448661,-9.31224,-4.74864,-3.75378,86.7403
2023-03-11 17:49:02:4,-0.530603,0.544362,-9.30625,-5.26792,-3.71852,86.7525
2023-03-11 17:49:02:14,-0.513033,0.654677,-9.32785,-5.80128,-3.68749,86.7663
2023-03-11 17:49:02:24,-0.507512,0.77403,-9.35122,-6.35311,-3.65582,86.7807
2023-03-11 17:49:02:34,-0.498794,0.892657,-9.35451,-6.91423,-3.62535,86.7997
2023-03-11 17:49:02:44,-0.482508,0.994516,-9.33985,-7.48679,-3.59358,86.8211
2023-03-11 17:49:02:54,-0.465331,1.09146,-9.32745,-8.06307,-3.56302,86.8447
2023-03-11 17:49:02:64,-0.45125,1.2008,-9.31022,-8.65349,-3.53245,86.8736
2023-03-11 17:49:02:74,-0.445656,1.28724,-9.28612,-9.25313,-3.50176,86.9053
2023-03-11 17:49:02:84,-0.47115,1.37712,-9.26358,-9.87102,-3.47708,86.9414
2023-03-11 17:49:02:94,-0.465524,1.50111,-9.2469,-10.5013,-3.45339,86.9795
2023-03-11 17:49:02:104,-0.465104,1.60594,-9.19946,-11.1407,-3.42887,87.0207
2023-03-11 17:49:02:114,-0.48008,1.68171,-9.11569,-11.7914,-3.41379,87.0606
2023-03-11 17:49:02:124,-0.497292,1.75757,-9.02833,-12.4515,-3.39673,87.0998
2023-03-11 17:49:02:134,-0.508666,1.83139,-8.93826,-13.1279,-3.38122,87.1406
2023-03-11 17:49:02:144,-0.483281,1.91821,-8.8574,-13.8241,-3.36401,87.1768
2023-03-11 17:49:02:154,-0.457835,2.01403,-8.80434,-14.5372,-3.34556,87.2127
2023-03-11 17:49:02:164,-0.484427,2.10429,-8.78853,-15.27,-3.33425,87.251
2023-03-11 17:49:02:174,-0.596764,2.21227,-8.81527,-16.0264,-3.32817,87.2863
2023-03-11 17:49:02:184,-0.772309,2.39337,-8.88837,-16.8068,-3.33008,87.3176
2023-03-11 17:49:02:194,-0.914672,2.58633,-8.93387,-17.6013,-3.3431,87.3372
2023-03-11 17:49:02:204,-0.946369,2.75104,-8.8942,-18.4004,-3.37175,87.3363
2023-03-11 17:49:02:214,-0.84438,2.89422,-8.70511,-19.1925,-3.41649,87.3083
2023-03-11 17:49:02:224,-0.703302,2.98176,-8.29939,-19.9744,-3.47233,87.2599
2023-03-11 17:49:02:234,-0.606216,2.9734,-7.81164,-20.7628,-3.53561,87.1982
2023-03-11 17:49:02:244,-0.545902,2.96814,-7.50054,-21.5852,-3.60218,87.1314
2023-03-11 17:49:02:254,-0.613546,3.15534,-7.50735,-22.4807,-3.67854,87.0742
2023-03-11 17:49:02:264,-0.772889,3.52831,-7.76295,-23.4517,-3.76426,87.0274
2023-03-11 17:49:02:274,-0.917553,3.90697,-8.06321,-24.4743,-3.85621,86.9815
2023-03-11 17:49:02:284,-0.939319,4.29916,-8.20835,-25.5213,-3.94625,86.9281
2023-03-11 17:49:02:294,-0.776034,4.76045,-8.02166,-26.5552,-4.02072,86.8584
2023-03-11 17:49:02:304,-0.554258,5.08597,-7.61756,-27.567,-4.06928,86.7796
2023-03-11 17:49:02:314,-0.422045,5.3325,-7.34345,-28.5767,-4.08095,86.7042
2023-03-11 17:49:02:324,-0.486351,5.57249,-7.2216,-29.6192,-4.07686,86.6556
2023-03-11 17:49:02:334,-0.669508,5.91918,-7.40273,-30.7286,-4.07908,86.6347
2023-03-11 17:49:02:344,-0.769249,6.37747,-7.83655,-31.8881,-4.07907,86.6274
2023-03-11 17:49:02:354,-0.814071,6.86161,-8.38321,-33.0694,-4.06748,86.622
2023-03-11 17:49:02:364,-0.832123,7.25607,-8.91827,-34.2153,-4.05063,86.6112
2023-03-11 17:49:02:374,-0.823291,7.49905,-9.24112,-35.2771,-4.03163,86.5941
2023-03-11 17:49:02:384,-0.764865,7.56233,-9.30282,-36.2177,-4.00834,86.5676
2023-03-11 17:49:02:394,-0.648892,7.38573,-9.10213,-37.0213,-3.97824,86.533
2023-03-11 17:49:02:404,-0.536758,7.04905,-8.6176,-37.6966,-3.94869,86.4931
2023-03-11 17:49:02:414,-0.4582,6.69142,-7.94857,-38.2884,-3.91397,86.4514
2023-03-11 17:49:02:424,-0.372803,6.3721,-7.32191,-38.8379,-3.87937,86.4161
2023-03-11 17:49:02:434,-0.340604,6.22931,-6.84776,-39.3985,-3.85247,86.3946
2023-03-11 17:49:02:444,-0.413661,6.22063,-6.63993,-40.0042,-3.82308,86.3872
2023-03-11 17:49:02:454,-0.533839,6.38622,-6.72156,-40.6584,-3.79645,86.3985
2023-03-11 17:49:02:464,-0.624315,6.61944,-6.99454,-41.3522,-3.7764,86.4173
2023-03-11 17:49:02:474,-0.652024,6.7925,-7.21497,-42.043,-3.76186,86.4345
2023-03-11 17:49:02:484,-0.636354,6.85314,-7.25253,-42.7065,-3.74412,86.4484
2023-03-11 17:49:02:494,-0.599541,6.8663,-7.05764,-43.33,-3.72232,86.4584
2023-03-11 17:49:02:504,-0.507624,6.88484,-6.65933,-43.933,-3.70228,86.4599
2023-03-11 17:49:02:514,-0.32803,6.89339,-6.31217,-44.5341,-3.68244,86.4612
2023-03-11 17:49:02:524,-0.15937,6.94797,-6.23078,-45.1674,-3.66264,86.4733
2023-03-11 17:49:02:534,-0.231485,7.28815,-6.43195,-45.8635,-3.64454,86.5175
2023-03-11 17:49:02:544,-0.506583,7.76361,-6.82254,-46.5999,-3.63052,86.5935
2023-03-11 17:49:02:554,-0.750253,8.15833,-7.18596,-47.3275,-3.6199,86.6839
2023-03-11 17:49:02:564,-0.873521,8.42012,-7.44268,-48.0051,-3.61148,86.7672
2023-03-11 17:49:02:574,-0.908456,8.57817,-7.50974,-48.6066,-3.6007,86.8381
2023-03-11 17:49:02:584,-0.892104,8.6158,-7.34146,-49.1224,-3.58145,86.8916
2023-03-11 17:49:02:594,-0.852272,8.50004,-7.04232,-49.5544,-3.56535,86.9276
2023-03-11 17:49:02:604,-0.784751,8.39442,-6.70919,-49.9352,-3.54628,86.9472
2023-03-11 17:49:02:614,-0.721467,8.31888,-6.47834,-50.287,-3.52663,86.9608
2023-03-11 17:49:02:624,-0.733225,8.31028,-6.36684,-50.6293,-3.5137,86.9772
2023-03-11 17:49:02:634,-0.730697,8.41412,-6.38354,-50.9683,-3.5061,86.9958
2023-03-11 17:49:02:644,-0.696901,8.49835,-6.45224,-51.2863,-3.50031,87.0129
2023-03-11 17:49:02:654,-0.687127,8.51122,-6.44632,-51.5781,-3.49467,87.0284
2023-03-11 17:49:02:664,-0.661434,8.53809,-6.3745,-51.835,-3.49607,87.0458
2023-03-11 17:49:02:674,-0.635618,8.57826,-6.20908,-52.0687,-3.49723,87.0601
2023-03-11 17:49:02:684,-0.584834,8.57355,-6.04428,-52.2746,-3.49456,87.0718
2023-03-11 17:49:02:694,-0.555041,8.57661,-5.99267,-52.4715,-3.48805,87.0841
2023-03-11 17:49:02:704,-0.602864,8.64047,-6.06586,-52.6658,-3.46886,87.0997
2023-03-11 17:49:02:714,-0.672779,8.75449,-6.25689,-52.853,-3.43517,87.1145
2023-03-11 17:49:02:724,-0.682665,8.85112,-6.46001,-53.0137,-3.39194,87.1261
2023-03-11 17:49:02:734,-0.621032,8.87461,-6.55652,-53.1297,-3.33766,87.1332
2023-03-11 17:49:02:744,-0.596878,8.80911,-6.45436,-53.1917,-3.28159,87.1422
2023-03-11 17:49:02:754,-0.662365,8.67245,-6.15718,-53.2079,-3.23229,87.1549
2023-03-11 17:49:02:764,-0.72642,8.5294,-5.87833,-53.1988,-3.19001,87.1695
2023-03-11 17:49:02:774,-0.701848,8.4723,-5.77888,-53.1928,-3.15128,87.1805
2023-03-11 17:49:02:784,-0.61393,8.53184,-5.87952,-53.1956,-3.11849,87.188
2023-03-11 17:49:02:794,-0.608554,8.65398,-6.05142,-53.2052,-3.07696,87.1919
2023-03-11 17:49:02:804,-0.640736,8.71666,-6.18643,-53.1969,-3.04538,87.1988
2023-03-11 17:49:02:814,-0.596823,8.73833,-6.27701,-53.1654,-3.02043,87.2016
2023-03-11 17:49:02:824,-0.528009,8.69736,-6.26128,-53.0977,-2.99482,87.2004
2023-03-11 17:49:02:834,-0.503377,8.63344,-6.20311,-52.9969,-2.9671,87.2012
2023-03-11 17:49:02:844,-0.502636,8.63313,-6.21156,-52.8778,-2.93565,87.2023
2023-03-11 17:49:02:854,-0.497947,8.66566,-6.22446,-52.7375,-2.90078,87.2071
2023-03-11 17:49:02:864,-0.463078,8.68716,-6.27728,-52.5756,-2.86522,87.2139
2023-03-11 17:49:02:874,-0.396916,8.71763,-6.33234,-52.3956,-2.82643,87.2207
2023-03-11 17:49:02:884,-0.366521,8.68544,-6.34944,-52.1771,-2.77646,87.232
2023-03-11 17:49:02:894,-0.377105,8.61611,-6.31587,-51.9255,-2.71995,87.2436
2023-03-11 17:49:02:904,-0.392715,8.59318,-6.3255,-51.6478,-2.66077,87.261
2023-03-11 17:49:02:914,-0.388606,8.61921,-6.40098,-51.3518,-2.60323,87.2843
2023-03-11 17:49:02:924,-0.353389,8.62548,-6.50413,-51.04,-2.55056,87.3097
2023-03-11 17:49:02:934,-0.288769,8.57991,-6.62605,-50.697,-2.49862,87.3403
2023-03-11 17:49:02:944,-0.235466,8.52851,-6.67164,-50.3175,-2.45962,87.3764
2023-03-11 17:49:02:954,-0.207852,8.4537,-6.67626,-49.9103,-2.42977,87.4239
2023-03-11 17:49:02:964,-0.195825,8.35291,-6.65778,-49.469,-2.40618,87.4783
2023-03-11 17:49:02:974,-0.184711,8.18806,-6.58824,-48.9951,-2.3887,87.5398
2023-03-11 17:49:02:984,-0.138121,8.04398,-6.50977,-48.5043,-2.37905,87.6091
2023-03-11 17:49:02:994,-0.0464436,7.89817,-6.50318,-47.9994,-2.38319,87.6872
2023-03-11 17:49:03:4,0.024145,7.858,-6.66124,-47.4952,-2.3952,87.7774
2023-03-11 17:49:03:14,-0.00060666,7.99542,-6.98036,-46.9959,-2.41019,87.8867
2023-03-11 17:49:03:24,-0.150946,8.2376,-7.32556,-46.4909,-2.42956,88.0143
2023-03-11 17:49:03:34,-0.370886,8.40217,-7.5226,-45.945,-2.45578,88.1547
2023-03-11 17:49:03:44,-0.516355,8.32429,-7.49829,-45.3321,-2.48731,88.289
2023-03-11 17:49:03:54,-0.542015,8.06788,-7.34433,-44.6441,-2.52296,88.4095
2023-03-11 17:49:03:64,-0.517077,7.76585,-7.20543,-43.9033,-2.54899,88.5148
2023-03-11 17:49:03:74,-0.562376,7.49488,-7.09826,-43.1372,-2.58356,88.6148
2023-03-11 17:49:03:84,-0.555451,7.43216,-7.18404,-42.3774,-2.63996,88.7169
2023-03-11 17:49:03:94,-0.508868,7.48215,-7.51232,-41.6064,-2.67749,88.8098
2023-03-11 17:49:03:104,-0.587748,7.40329,-7.58754,-40.8047,-2.72038,88.9028
2023-03-11 17:49:03:114,-0.651221,7.18278,-7.54723,-39.9523,-2.75084,88.9783
2023-03-11 17:49:03:124,-0.618313,6.7838,-7.39097,-39.0541,-2.77587,89.0375
2023-03-11 17:49:03:134,-0.542871,6.39749,-7.23684,-38.1369,-2.80053,89.0942
2023-03-11 17:49:03:144,-0.519902,6.06727,-7.08317,-37.2229,-2.82851,89.1485
2023-03-11 17:49:03:154,-0.53763,5.77919,-6.99276,-36.3198,-2.85588,89.1993
2023-03-11 17:49:03:164,-0.574158,5.5634,-7.0692,-35.4409,-2.88301,89.251
2023-03-11 17:49:03:174,-0.645824,5.50211,-7.2974,-34.6028,-2.91409,89.31
2023-03-11 17:49:03:184,-0.759659,5.52273,-7.56924,-33.7868,-2.94919,89.3683
2023-03-11 17:49:03:194,-0.837792,5.41851,-7.70813,-32.9666,-2.98295,89.4168
2023-03-11 17:49:03:204,-0.863147,5.16206,-7.654,-32.1357,-3.0239,89.4502
2023-03-11 17:49:03:214,-0.825298,4.8399,-7.5157,-31.3007,-3.06353,89.4625
2023-03-11 17:49:03:224,-0.752186,4.52496,-7.42058,-30.4741,-3.10169,89.4595
2023-03-11 17:49:03:234,-0.68864,4.29427,-7.40823,-29.6753,-3.13544,89.4395
2023-03-11 17:49:03:244,-0.660273,4.17653,-7.52139,-28.9224,-3.16899,89.4126
2023-03-11 17:49:03:254,-0.641025,4.15382,-7.84512,-28.2179,-3.20417,89.3809
2023-03-11 17:49:03:264,-0.672245,4.17275,-8.18443,-27.5527,-3.24302,89.3454
2023-03-11 17:49:03:274,-0.736029,4.12293,-8.38186,-26.8944,-3.28629,89.3052
2023-03-11 17:49:03:284,-0.745922,3.92285,-8.39747,-26.2265,-3.32415,89.2504
2023-03-11 17:49:03:294,-0.657875,3.72226,-8.33027,-25.5514,-3.35588,89.1799
2023-03-11 17:49:03:304,-0.554025,3.56513,-8.29599,-24.8858,-3.37827,89.1049
2023-03-11 17:49:03:314,-0.487599,3.46681,-8.28199,-24.2382,-3.40147,89.0269
2023-03-11 17:49:03:324,-0.458997,3.38828,-8.31955,-23.6233,-3.42357,88.9535
2023-03-11 17:49:03:334,-0.466111,3.37657,-8.45526,-23.0424,-3.45309,88.8855
2023-03-11 17:49:03:344,-0.53625,3.38226,-8.62766,-22.487,-3.48557,88.8245
2023-03-11 17:49:03:354,-0.611739,3.31904,-8.73222,-21.9402,-3.51736,88.7618
2023-03-11 17:49:03:364,-0.648757,3.19533,-8.73049,-21.3921,-3.54486,88.6969
2023-03-11 17:49:03:374,-0.613765,3.04237,-8.63975,-20.8427,-3.56428,88.6268
2023-03-11 17:49:03:384,-0.521058,2.88424,-8.51406,-20.301,-3.57425,88.5533
2023-03-11 17:49:03:394,-0.435281,2.74155,-8.46562,-19.78,-3.57609,88.4752
2023-03-11 17:49:03:404,-0.419413,2.71436,-8.57277,-19.3,-3.57764,88.409
2023-03-11 17:49:03:414,-0.446297,2.80674,-8.82648,-18.8615,-3.58459,88.3509
2023-03-11 17:49:03:424,-0.501659,2.89263,-9.11979,-18.4515,-3.6002,88.2982
2023-03-11 17:49:03:434,-0.550641,2.91857,-9.31767,-18.0476,-3.62081,88.2518
2023-03-11 17:49:03:444,-0.610778,2.88926,-9.37175,-17.6329,-3.64581,88.2058
2023-03-11 17:49:03:454,-0.63296,2.76717,-9.28732,-17.1988,-3.66226,88.1566
2023-03-11 17:49:03:464,-0.579631,2.58963,-9.10893,-16.749,-3.67259,88.1041
2023-03-11 17:49:03:474,-0.503219,2.40194,-8.98129,-16.2972,-3.67904,88.0515
2023-03-11 17:49:03:484,-0.457513,2.28559,-8.94597,-15.8696,-3.68849,87.9988
2023-03-11 17:49:03:494,-0.485013,2.27239,-9.02247,-15.4647,-3.70615,87.9524
2023-03-11 17:49:03:504,-0.534422,2.3006,-9.16614,-15.0884,-3.72771,87.9105
2023-03-11 17:49:03:514,-0.61465,2.30328,-9.3019,-14.7248,-3.75757,87.8725
2023-03-11 17:49:03:524,-0.660521,2.24381,-9.38974,-14.3639,-3.79026,87.8368
2023-03-11 17:49:03:534,-0.666041,2.15709,-9.43733,-13.9981,-3.81842,87.7981
2023-03-11 17:49:03:544,-0.664615,2.06478,-9.45253,-13.6305,-3.84037,87.763
2023-03-11 17:49:03:554,-0.645751,1.967,-9.40907,-13.2545,-3.8613,87.7254
2023-03-11 17:49:03:564,-0.642221,1.85087,-9.32208,-12.8796,-3.87952,87.687
2023-03-11 17:49:03:574,-0.619077,1.74813,-9.21453,-12.5099,-3.89946,87.6484
2023-03-11 17:49:03:584,-0.599957,1.65199,-9.15671,-12.1551,-3.92177,87.6136
2023-03-11 17:49:03:594,-0.599747,1.61023,-9.19699,-11.8207,-3.94931,87.5807
2023-03-11 17:49:03:604,-0.629062,1.60383,-9.30702,-11.5071,-3.98065,87.5544
2023-03-11 17:49:03:614,-0.675344,1.60187,-9.42258,-11.2112,-4.01259,87.5286
2023-03-11 17:49:03:624,-0.703693,1.5845,-9.54133,-10.9209,-4.04501,87.5075
2023-03-11 17:49:03:634,-0.720413,1.54791,-9.61628,-10.6273,-4.07697,87.4803
2023-03-11 17:49:03:644,-0.704156,1.47098,-9.61371,-10.3334,-4.10659,87.4544
2023-03-11 17:49:03:654,-0.702484,1.36531,-9.56296,-10.0327,-4.1389,87.4246
2023-03-11 17:49:03:664,-0.708858,1.25696,-9.50514,-9.72998,-4.17124,87.3968
2023-03-11 17:49:03:674,-0.711378,1.1671,-9.44193,-9.43151,-4.2014,87.374
2023-03-11 17:49:03:684,-0.723956,1.10828,-9.37577,-9.14751,-4.23619,87.3498
2023-03-11 17:49:03:694,-0.735236,1.04875,-9.30921,-8.88219,-4.26869,87.3266
2023-03-11 17:49:03:704,-0.732404,0.982951,-9.27458,-8.62971,-4.3001,87.3048
2023-03-11 17:49:03:714,-0.737293,0.932635,-9.26048,-8.39582,-4.32648,87.2857
2023-03-11 17:49:03:724,-0.744129,0.896559,-9.26972,-8.18553,-4.35288,87.2721
2023-03-11 17:49:03:734,-0.755222,0.876313,-9.29588,-7.99402,-4.37607,87.2549
2023-03-11 17:49:03:744,-0.762823,0.88625,-9.33691,-7.82328,-4.39959,87.2434
2023-03-11 17:49:03:754,-0.774875,0.907677,-9.4058,-7.67425,-4.42171,87.2341
2023-03-11 17:49:03:764,-0.769802,0.93121,-9.47284,-7.53664,-4.4459,87.2224
2023-03-11 17:49:03:774,-0.778205,0.958742,-9.53116,-7.41269,-4.4643,87.2153
2023-03-11 17:49:03:784,-0.791815,0.959425,-9.55504,-7.29537,-4.48424,87.204
2023-03-11 17:49:03:794,-0.800787,0.940424,-9.54414,-7.18136,-4.5012,87.1957
2023-03-11 17:49:03:804,-0.799277,0.925814,-9.5371,-7.07838,-4.51489,87.1901
2023-03-11 17:49:03:814,-0.789192,0.927557,-9.49826,-6.98322,-4.52503,87.1844
2023-03-11 17:49:03:824,-0.787188,0.901906,-9.49872,-6.89936,-4.53224,87.1772
2023-03-11 17:49:03:834,-0.794122,0.892925,-9.49828,-6.82595,-4.54281,87.1734
2023-03-11 17:49:03:844,-0.806743,0.905516,-9.48644,-6.76454,-4.55029,87.1696
2023-03-11 17:49:03:854,-0.822071,0.92054,-9.50234,-6.71364,-4.55323,87.1646
2023-03-11 17:49:03:864,-0.810637,0.937698,-9.50807,-6.672,-4.55038,87.1604
2023-03-11 17:49:03:874,-0.78467,0.933985,-9.51227,-6.63833,-4.54519,87.1557
2023-03-11 17:49:03:884,-0.77746,0.951382,-9.51292,-6.61471,-4.54317,87.1524
2023-03-11 17:49:03:894,-0.779924,0.988101,-9.56445,-6.60241,-4.54339,87.1482
2023-03-11 17:49:03:904,-0.801576,1.03435,-9.6271,-6.59797,-4.54456,87.1445
2023-03-11 17:49:03:914,-0.822021,1.05569,-9.65434,-6.60239,-4.5424,87.1372
2023-03-11 17:49:03:924,-0.811407,1.0485,-9.67178,-6.60533,-4.54391,87.1266
2023-03-11 17:49:03:934,-0.798763,1.04586,-9.67206,-6.61271,-4.54646,87.1158
2023-03-11 17:49:03:944,-0.788096,1.04987,-9.65223,-6.6166,-4.54353,87.103
2023-03-11 17:49:03:954,-0.772781,1.0512,-9.63577,-6.62444,-4.53967,87.0911
2023-03-11 17:49:03:964,-0.744662,1.04554,-9.62313,-6.63339,-4.53751,87.0759
2023-03-11 17:49:03:974,-0.724084,1.0482,-9.63334,-6.64826,-4.53543,87.0576
2023-03-11 17:49:03:984,-0.736346,1.0613,-9.65949,-6.67028,-4.53295,87.0447
2023-03-11 17:49:03:994,-0.756172,1.08543,-9.70014,-6.69347,-4.53378,87.0325
2023-03-11 17:49:04:4,-0.773811,1.13804,-9.75751,-6.72097,-4.53855,87.0197
2023-03-11 17:49:04:14,-0.778183,1.17397,-9.81811,-6.74148,-4.54027,87.0012
2023-03-11 17:49:04:24,-0.794748,1.1984,-9.81993,-6.758,-4.54354,86.9848
2023-03-11 17:49:04:34,-0.779296,1.20037,-9.80484,-6.76626,-4.55031,86.965
2023-03-11 17:49:04:44,-0.76094,1.19315,-9.76507,-6.76776,-4.55631,86.9479
2023-03-11 17:49:04:54,-0.731567,1.17287,-9.72519,-6.76316,-4.56109,86.9284
2023-03-11 17:49:04:64,-0.723442,1.1599,-9.70264,-6.75924,-4.56399,86.9088
2023-03-11 17:49:04:74,-0.742524,1.16391,-9.69102,-6.75502,-4.56905,86.8945
2023-03-11 17:49:04:84,-0.743763,1.18217,-9.71333,-6.74914,-4.57318,86.8817
2023-03-11 17:49:04:94,-0.757704,1.21207,-9.71382,-6.74209,-4.57634,86.8732
2023-03-11 17:49:04:104,-0.780135,1.21393,-9.69948,-6.73272,-4.58163,86.8731
2023-03-11 17:49:04:114,-0.795425,1.22602,-9.70109,-6.72225,-4.58533,86.8723
2023-03-11 17:49:04:124,-0.822276,1.26271,-9.7238,-6.71304,-4.58983,86.8743
2023-03-11 17:49:04:134,-0.85881,1.28704,-9.73822,-6.70153,-4.58799,86.8777
2023-03-11 17:49:04:144,-0.883949,1.30342,-9.74268,-6.6802,-4.58231,86.8803
2023-03-11 17:49:04:154,-0.884956,1.32581,-9.75048,-6.6585,-4.57646,86.8856
2023-03-11 17:49:04:164,-0.885116,1.33574,-9.74201,-6.62982,-4.56657,86.8866
2023-03-11 17:49:04:174,-0.899634,1.36851,-9.76345,-6.60067,-4.55671,86.8844
2023-03-11 17:49:04:184,-0.900343,1.44901,-9.81359,-6.56888,-4.54422,86.8777
2023-03-11 17:49:04:194,-0.908103,1.52581,-9.89651,-6.53271,-4.53325,86.8657
2023-03-11 17:49:04:204,-0.904682,1.57904,-9.95532,-6.48505,-4.51934,86.8506
2023-03-11 17:49:04:214,-0.89766,1.59365,-9.99434,-6.42101,-4.50726,86.8364
2023-03-11 17:49:04:224,-0.880598,1.59455,-10.0253,-6.33525,-4.49264,86.8137
2023-03-11 17:49:04:234,-0.853122,1.60074,-10.0454,-6.22874,-4.47664,86.7858
2023-03-11 17:49:04:244,-0.835158,1.61272,-10.0312,-6.10201,-4.4585,86.7523
2023-03-11 17:49:04:254,-0.824169,1.59674,-9.99352,-5.95072,-4.44126,86.7192
2023-03-11 17:49:04:264,-0.79359,1.55394,-9.99459,-5.78096,-4.42171,86.6806
2023-03-11 17:49:04:274,-0.768344,1.55811,-10.0261,-5.59321,-4.4043,86.6405
2023-03-11 17:49:04:284,-0.770048,1.58753,-10.0689,-5.38595,-4.38793,86.5998
2023-03-11 17:49:04:294,-0.759817,1.61567,-10.1408,-5.15592,-4.36625,86.5621
