Timestamp,Acceleration_x,Acceleration_y,Acceleration_z,roll,pitch,yaw
2023-03-14 22:27:36:87,-0.561961,1.79697,-9.57928,-11.0693,-3.90462,26.271
2023-03-14 22:27:36:95,-0.573818,1.75854,-9.54009,-11.072,-3.90113,26.292
2023-03-14 22:27:36:105,-0.604688,1.74773,-9.53687,-11.0754,-3.89448,26.3187
2023-03-14 22:27:36:115,-0.660213,1.77083,-9.55345,-11.0842,-3.89081,26.3508
2023-03-14 22:27:36:125,-0.731211,1.79021,-9.55751,-11.0971,-3.88532,26.3828
2023-03-14 22:27:36:135,-0.806626,1.84439,-9.60608,-11.1146,-3.8792,26.4179
2023-03-14 22:27:36:146,-0.779798,1.87749,-9.68143,-11.1293,-3.86622,26.4503
2023-03-14 22:27:36:155,-0.897712,1.85559,-9.63546,-11.1331,-3.85526,26.4869
2023-03-14 22:27:36:165,-0.920372,1.85336,-9.57985,-11.1333,-3.84211,26.5103
2023-03-14 22:27:36:176,-0.875823,1.86984,-9.5662,-11.1264,-3.83256,26.5201
2023-03-14 22:27:36:186,-0.911447,1.84607,-9.47684,-11.1141,-3.83207,26.5224
2023-03-14 22:27:36:196,-0.815439,1.84796,-9.44499,-11.1072,-3.82967,26.5036
2023-03-14 22:27:36:206,-0.638534,1.83434,-9.47484,-11.104,-3.82454,26.4717
2023-03-14 22:27:36:216,-0.48386,1.8353,-9.50495,-11.1022,-3.82221,26.433
2023-03-14 22:27:36:226,-0.450987,1.84424,-9.50006,-11.106,-3.81584,26.3988
2023-03-14 22:27:36:236,-0.499614,1.83273,-9.47304,-11.113,-3.80779,26.3683
2023-03-14 22:27:36:246,-0.470149,1.84987,-9.49794,-11.1292,-3.79634,26.3374
2023-03-14 22:27:36:256,-0.436616,1.87914,-9.5503,-11.1515,-3.78499,26.3081
2023-03-14 22:27:36:266,-0.391928,1.9214,-9.56274,-11.1732,-3.77554,26.285
2023-03-14 22:27:36:276,-0.349055,1.94966,-9.55935,-11.1954,-3.75972,26.265
2023-03-14 22:27:36:286,-0.295856,1.9302,-9.52775,-11.2164,-3.74964,26.2558
2023-03-14 22:27:36:296,-0.275835,1.95079,-9.52158,-11.2419,-3.74779,26.2555
2023-03-14 22:27:36:306,-0.302837,1.99773,-9.5561,-11.2732,-3.75021,26.2652
2023-03-14 22:27:36:316,-0.334542,2.0589,-9.61573,-11.3045,-3.75568,26.281
2023-03-14 22:27:36:326,-0.379762,2.07007,-9.62027,-11.3311,-3.76878,26.3026
2023-03-14 22:27:36:336,-0.440237,2.05667,-9.59748,-11.3609,-3.78612,26.3358
2023-03-14 22:27:36:345,-0.520706,2.1107,-9.65543,-11.3921,-3.80741,26.3768
2023-03-14 22:27:36:356,-0.639028,2.13023,-9.6633,-11.4159,-3.84027,26.4186
2023-03-14 22:27:36:365,-0.727287,2.13194,-9.64438,-11.4329,-3.87813,26.46
2023-03-14 22:27:36:376,-0.82976,2.11988,-9.60122,-11.4492,-3.92047,26.4991
2023-03-14 22:27:36:386,-0.838179,2.09458,-9.58582,-11.4573,-3.96034,26.5273
2023-03-14 22:27:36:396,-0.816685,2.08394,-9.62502,-11.4655,-4.00487,26.5481
2023-03-14 22:27:36:406,-0.818469,2.11134,-9.67027,-11.4723,-4.0477,26.5578
2023-03-14 22:27:36:415,-0.781525,2.10839,-9.70123,-11.4753,-4.08246,26.5639
2023-03-14 22:27:36:426,-0.774951,2.08039,-9.67308,-11.4738,-4.11187,26.5677
2023-03-14 22:27:36:435,-0.76339,2.04279,-9.65281,-11.4648,-4.13476,26.5652
2023-03-14 22:27:36:445,-0.712941,2.03089,-9.6389,-11.451,-4.15263,26.5604
2023-03-14 22:27:36:455,-0.699157,2.00367,-9.63567,-11.4346,-4.16024,26.5602
2023-03-14 22:27:36:465,-0.701678,1.95898,-9.57788,-11.4113,-4.16499,26.5609
2023-03-14 22:27:36:475,-0.68227,1.90908,-9.56224,-11.3868,-4.1612,26.5606
2023-03-14 22:27:36:485,-0.659371,1.88825,-9.55094,-11.3648,-4.15492,26.5624
2023-03-14 22:27:36:495,-0.654024,1.87612,-9.55573,-11.3465,-4.14675,26.5606
2023-03-14 22:27:36:506,-0.63157,1.87451,-9.57721,-11.3292,-4.1366,26.5601
2023-03-14 22:27:36:516,-0.618609,1.86494,-9.57226,-11.3101,-4.11946,26.5641
2023-03-14 22:27:36:525,-0.628922,1.85225,-9.56406,-11.2922,-4.10445,26.5686
2023-03-14 22:27:36:535,-0.65918,1.84827,-9.56925,-11.2738,-4.09657,26.5749
2023-03-14 22:27:36:545,-0.671385,1.84385,-9.57031,-11.2538,-4.09198,26.5843
2023-03-14 22:27:36:555,-0.675891,1.83061,-9.57142,-11.2317,-4.0865,26.5939
2023-03-14 22:27:36:565,-0.65587,1.809,-9.56762,-11.2102,-4.07826,26.6017
2023-03-14 22:27:36:576,-0.630044,1.80258,-9.52785,-11.1876,-4.07229,26.6049
2023-03-14 22:27:36:585,-0.589854,1.76894,-9.49458,-11.1683,-4.06539,26.6103
2023-03-14 22:27:36:595,-0.562604,1.75161,-9.47815,-11.1561,-4.05889,26.6171
2023-03-14 22:27:36:605,-0.578161,1.74826,-9.47537,-11.1494,-4.05674,26.629
2023-03-14 22:27:36:615,-0.59033,1.77623,-9.47611,-11.1506,-4.05337,26.6416
2023-03-14 22:27:36:625,-0.601302,1.81159,-9.49509,-11.1597,-4.05038,26.6553
2023-03-14 22:27:36:635,-0.599982,1.83227,-9.51606,-11.1695,-4.04661,26.669
2023-03-14 22:27:36:645,-0.613722,1.84147,-9.52854,-11.1842,-4.04349,26.6821
2023-03-14 22:27:36:655,-0.614453,1.86218,-9.54511,-11.1999,-4.03994,26.6978
2023-03-14 22:27:36:665,-0.60941,1.8524,-9.54552,-11.2114,-4.03758,26.7119
2023-03-14 22:27:36:675,-0.610492,1.84042,-9.5504,-11.2263,-4.03509,26.7279
2023-03-14 22:27:36:685,-0.598637,1.85651,-9.55361,-11.2399,-4.03858,26.7444
2023-03-14 22:27:36:696,-0.599486,1.86574,-9.56257,-11.2557,-4.04452,26.7659
2023-03-14 22:27:36:705,-0.620996,1.86786,-9.57778,-11.2718,-4.05131,26.7838
2023-03-14 22:27:36:715,-0.627435,1.87794,-9.5797,-11.2931,-4.06141,26.8066
2023-03-14 22:27:36:725,-0.634788,1.87945,-9.57217,-11.3105,-4.06855,26.8309
2023-03-14 22:27:36:735,-0.642345,1.89356,-9.55991,-11.3333,-4.07822,26.8531
2023-03-14 22:27:36:745,-0.610655,1.93333,-9.59249,-11.3558,-4.08653,26.8781
2023-03-14 22:27:36:756,-0.637023,1.93625,-9.57681,-11.3691,-4.09556,26.9034
2023-03-14 22:27:36:765,-0.668986,1.91895,-9.54174,-11.3866,-4.10045,26.9284
2023-03-14 22:27:36:776,-0.607365,1.92624,-9.57659,-11.4024,-4.10503,26.9548
2023-03-14 22:27:36:785,-0.602871,1.91791,-9.6071,-11.4212,-4.112,26.9891
2023-03-14 22:27:36:795,-0.63055,1.92513,-9.62503,-11.4403,-4.1199,27.0268
2023-03-14 22:27:36:805,-0.676743,1.94219,-9.6248,-11.4584,-4.13132,27.0662
2023-03-14 22:27:36:815,-0.706676,1.97065,-9.61335,-11.4738,-4.14483,27.1075
2023-03-14 22:27:36:826,-0.722773,1.96362,-9.58832,-11.4812,-4.15427,27.148
2023-03-14 22:27:36:835,-0.712002,1.94104,-9.55382,-11.4847,-4.16337,27.189
2023-03-14 22:27:36:845,-0.690194,1.92768,-9.5526,-11.4887,-4.17777,27.2242
2023-03-14 22:27:36:855,-0.684163,1.91469,-9.55219,-11.4934,-4.19024,27.2612
2023-03-14 22:27:36:865,-0.708425,1.94027,-9.57057,-11.5003,-4.19981,27.2982
2023-03-14 22:27:36:875,-0.748706,1.95647,-9.58873,-11.5089,-4.20768,27.3334
2023-03-14 22:27:36:885,-0.759753,1.95444,-9.58025,-11.5197,-4.21896,27.3643
2023-03-14 22:27:36:895,-0.70275,1.96453,-9.60622,-11.5285,-4.22981,27.3962
2023-03-14 22:27:36:905,-0.771772,1.92739,-9.55338,-11.5393,-4.24188,27.4325
2023-03-14 22:27:36:916,-0.794679,1.92733,-9.518,-11.5588,-4.25587,27.4705
2023-03-14 22:27:36:925,-0.79684,1.95146,-9.52864,-11.577,-4.26728,27.5072
2023-03-14 22:27:36:935,-0.810257,1.96461,-9.5271,-11.5981,-4.27859,27.5388
2023-03-14 22:27:36:945,-0.799924,1.96152,-9.5242,-11.6155,-4.28693,27.5694
2023-03-14 22:27:36:955,-0.796391,1.96749,-9.50909,-11.6324,-4.29571,27.5932
2023-03-14 22:27:36:965,-0.790939,1.99014,-9.53539,-11.6442,-4.30644,27.6154
2023-03-14 22:27:36:975,-0.787709,2.01539,-9.55673,-11.6568,-4.3164,27.6353
2023-03-14 22:27:36:985,-0.794891,2.01914,-9.56771,-11.666,-4.32668,27.654
2023-03-14 22:27:36:995,-0.765746,2.0099,-9.58161,-11.6706,-4.33957,27.6706
2023-03-14 22:27:37:6,-0.750258,1.97536,-9.56187,-11.6728,-4.35066,27.6865
2023-03-14 22:27:37:15,-0.750321,1.98741,-9.52671,-11.6797,-4.36285,27.6987
2023-03-14 22:27:37:26,-0.772315,1.98068,-9.51517,-11.6811,-4.37434,27.7109
2023-03-14 22:27:37:36,-0.796999,1.98285,-9.52368,-11.6917,-4.3868,27.7226
2023-03-14 22:27:37:46,-0.766737,2.00279,-9.54796,-11.701,-4.39737,27.7278
2023-03-14 22:27:37:55,-0.787231,2.00846,-9.51929,-11.7161,-4.40886,27.7316
2023-03-14 22:27:37:66,-0.796047,2.03591,-9.535,-11.7347,-4.41988,27.7354
2023-03-14 22:27:37:76,-0.795083,2.05896,-9.58195,-11.7514,-4.43212,27.7386
2023-03-14 22:27:37:86,-0.814868,2.06944,-9.5835,-11.7692,-4.44216,27.7407
2023-03-14 22:27:37:96,-0.847391,2.06866,-9.589,-11.7814,-4.45971,27.7453
2023-03-14 22:27:37:105,-0.900485,2.07935,-9.60343,-11.7877,-4.47672,27.7488
2023-03-14 22:27:37:115,-0.93055,2.08694,-9.60591,-11.7882,-4.49435,27.7522
2023-03-14 22:27:37:125,-0.917729,2.10256,-9.57667,-11.7802,-4.50902,27.751
2023-03-14 22:27:37:136,-0.901148,2.05227,-9.48675,-11.7682,-4.52007,27.7394
2023-03-14 22:27:37:145,-0.832289,1.97663,-9.43937,-11.7539,-4.53067,27.7222
2023-03-14 22:27:37:156,-0.738896,1.95628,-9.44237,-11.7444,-4.53833,27.6991
2023-03-14 22:27:37:165,-0.773789,1.96282,-9.41396,-11.7404,-4.54867,27.6795
2023-03-14 22:27:37:175,-0.792756,1.98516,-9.44821,-11.7424,-4.56033,27.6562
2023-03-14 22:27:37:185,-0.764783,2.03566,-9.47205,-11.7482,-4.56938,27.6239
2023-03-14 22:27:37:195,-0.737482,2.07095,-9.47081,-11.76,-4.57881,27.5896
2023-03-14 22:27:37:205,-0.77323,2.08397,-9.46474,-11.7776,-4.58581,27.5579
2023-03-14 22:27:37:215,-0.831495,2.12867,-9.48707,-11.8017,-4.59735,27.5273
2023-03-14 22:27:37:225,-0.866582,2.19965,-9.56384,-11.8308,-4.60698,27.4969
2023-03-14 22:27:37:235,-0.864981,2.25261,-9.63992,-11.8604,-4.6122,27.4726
2023-03-14 22:27:37:245,-0.830524,2.27619,-9.6817,-11.8812,-4.6157,27.4458
2023-03-14 22:27:37:255,-0.794173,2.27267,-9.67322,-11.8994,-4.62126,27.4223
2023-03-14 22:27:37:265,-0.817118,2.26425,-9.66182,-11.913,-4.62017,27.3939
2023-03-14 22:27:37:275,-0.853468,2.24852,-9.6414,-11.9208,-4.61938,27.361
2023-03-14 22:27:37:285,-0.828447,2.22361,-9.63975,-11.9227,-4.62184,27.3246
2023-03-14 22:27:37:295,-0.798161,2.19398,-9.62604,-11.911,-4.6175,27.2855
2023-03-14 22:27:37:305,-0.755026,2.14079,-9.60229,-11.8929,-4.60734,27.2491
2023-03-14 22:27:37:315,-0.731111,2.09438,-9.59362,-11.8721,-4.59871,27.215
2023-03-14 22:27:37:325,-0.732018,2.04184,-9.58596,-11.8461,-4.5942,27.1878
2023-03-14 22:27:37:335,-0.767107,2.02687,-9.58065,-11.8218,-4.59756,27.1656
2023-03-14 22:27:37:345,-0.800866,1.99929,-9.57951,-11.7984,-4.60048,27.1486
2023-03-14 22:27:37:355,-0.793271,1.9786,-9.58061,-11.776,-4.60755,27.1366
2023-03-14 22:27:37:365,-0.781126,1.94788,-9.56363,-11.75,-4.61295,27.1245
2023-03-14 22:27:37:375,-0.767493,1.89743,-9.5455,-11.724,-4.61802,27.1195
2023-03-14 22:27:37:385,-0.780409,1.86488,-9.52475,-11.692,-4.6153,27.1192
2023-03-14 22:27:37:395,-0.778578,1.82985,-9.51307,-11.6611,-4.61254,27.1169
2023-03-14 22:27:37:405,-0.801558,1.80711,-9.51864,-11.6259,-4.60477,27.1162
2023-03-14 22:27:37:415,-0.802707,1.80071,-9.51624,-11.5955,-4.59179,27.1125
2023-03-14 22:27:37:425,-0.772032,1.77866,-9.52002,-11.5674,-4.57211,27.107
2023-03-14 22:27:37:435,-0.732828,1.76144,-9.50826,-11.5344,-4.55239,27.0961
2023-03-14 22:27:37:445,-0.67343,1.7396,-9.45455,-11.5051,-4.52903,27.0804
2023-03-14 22:27:37:455,-0.604514,1.71544,-9.42106,-11.4767,-4.50823,27.0632
2023-03-14 22:27:37:465,-0.548673,1.70928,-9.41244,-11.4533,-4.49418,27.0493
2023-03-14 22:27:37:475,-0.522327,1.75522,-9.45523,-11.4463,-4.48513,27.0399
2023-03-14 22:27:37:485,-0.573324,1.81734,-9.47928,-11.4447,-4.4861,27.0306
2023-03-14 22:27:37:496,-0.621444,1.82424,-9.45493,-11.4455,-4.48805,27.0262
2023-03-14 22:27:37:505,-0.597528,1.82913,-9.43589,-11.4518,-4.48953,27.0221
2023-03-14 22:27:37:515,-0.483957,1.88085,-9.52304,-11.4624,-4.49509,27.014
2023-03-14 22:27:37:525,-0.523115,1.88787,-9.49352,-11.4764,-4.50254,27.0116
2023-03-14 22:27:37:535,-0.539619,1.90141,-9.49496,-11.4911,-4.51329,27.0141
2023-03-14 22:27:37:545,-0.59124,1.94648,-9.53125,-11.509,-4.52618,27.0209
2023-03-14 22:27:37:555,-0.650168,1.99324,-9.57672,-11.5303,-4.54235,27.0337
2023-03-14 22:27:37:565,-0.711633,2.0528,-9.60503,-11.5524,-4.56073,27.0493
2023-03-14 22:27:37:575,-0.794684,2.06691,-9.61081,-11.5773,-4.5776,27.0687
2023-03-14 22:27:37:585,-0.752483,2.09335,-9.65699,-11.6009,-4.59309,27.0881
2023-03-14 22:27:37:595,-0.784015,2.08195,-9.65709,-11.6184,-4.60672,27.1069
2023-03-14 22:27:37:605,-0.836784,2.07676,-9.64076,-11.6368,-4.62187,27.1261
2023-03-14 22:27:37:615,-0.83645,2.07469,-9.62908,-11.6515,-4.63505,27.1433
2023-03-14 22:27:37:625,-0.820769,2.05049,-9.61792,-11.6621,-4.64979,27.1621
2023-03-14 22:27:37:635,-0.830348,2.05186,-9.61709,-11.6686,-4.66094,27.1803
2023-03-14 22:27:37:645,-0.872258,2.07263,-9.6338,-11.6719,-4.67783,27.2039
2023-03-14 22:27:37:655,-0.925884,2.05601,-9.64509,-11.6689,-4.69104,27.2243
2023-03-14 22:27:37:665,-0.962631,2.03632,-9.62822,-11.6597,-4.70303,27.2436
2023-03-14 22:27:37:676,-0.968683,2.015,-9.6054,-11.647,-4.70496,27.262
2023-03-14 22:27:37:685,-0.946556,1.98809,-9.57206,-11.6296,-4.70478,27.2709
2023-03-14 22:27:37:695,-0.894327,1.94558,-9.52663,-11.6097,-4.70122,27.2752
2023-03-14 22:27:37:706,-0.874908,1.91538,-9.50419,-11.5893,-4.69582,27.2824
2023-03-14 22:27:37:716,-0.880896,1.93027,-9.51767,-11.5776,-4.69077,27.2898
2023-03-14 22:27:37:726,-0.912906,1.95145,-9.54374,-11.5682,-4.68145,27.2986
2023-03-14 22:27:37:736,-0.934221,1.97217,-9.54865,-11.5536,-4.67514,27.3074
2023-03-14 22:27:37:746,-0.915571,1.95854,-9.55032,-11.5392,-4.66299,27.3134
2023-03-14 22:27:37:755,-0.860582,1.94944,-9.52804,-11.5218,-4.64845,27.3182
2023-03-14 22:27:37:765,-0.777325,1.93852,-9.51336,-11.504,-4.62942,27.3165
2023-03-14 22:27:37:776,-0.727177,1.8939,-9.49118,-11.485,-4.61068,27.3199
2023-03-14 22:27:37:786,-0.6898,1.86543,-9.4528,-11.4693,-4.59333,27.3245
2023-03-14 22:27:37:796,-0.685785,1.84792,-9.45737,-11.4556,-4.5805,27.3336
2023-03-14 22:27:37:805,-0.705899,1.86412,-9.4656,-11.4438,-4.57149,27.3422
2023-03-14 22:27:37:815,-0.746285,1.8678,-9.45352,-11.4392,-4.56313,27.351
2023-03-14 22:27:37:826,-0.768832,1.85793,-9.45445,-11.4369,-4.55474,27.3598
2023-03-14 22:27:37:836,-0.778804,1.87542,-9.48329,-11.4435,-4.54735,27.3681
2023-03-14 22:27:37:846,-0.781968,1.92579,-9.53261,-11.4499,-4.53555,27.3741
2023-03-14 22:27:37:856,-0.742944,1.94638,-9.56721,-11.4588,-4.52383,27.3792
2023-03-14 22:27:37:866,-0.696422,1.93425,-9.57243,-11.4673,-4.51264,27.387
2023-03-14 22:27:37:876,-0.679057,1.94442,-9.57608,-11.4807,-4.50017,27.4025
2023-03-14 22:27:37:885,-0.672256,1.96747,-9.55053,-11.4937,-4.49146,27.4134
2023-03-14 22:27:37:896,-0.696139,1.99078,-9.53068,-11.5077,-4.4904,27.4311
2023-03-14 22:27:37:906,-0.741223,2.01179,-9.53786,-11.5239,-4.49051,27.4529
2023-03-14 22:27:37:916,-0.759867,2.01074,-9.54789,-11.5393,-4.49157,27.4765
2023-03-14 22:27:37:926,-0.754253,2.04032,-9.56944,-11.5507,-4.48768,27.4989
2023-03-14 22:27:37:936,-0.756668,2.04975,-9.59388,-11.5562,-4.48425,27.5183
2023-03-14 22:27:37:945,-0.759946,2.0341,-9.62615,-11.5609,-4.48214,27.5403
2023-03-14 22:27:37:955,-0.771956,2.02569,-9.60407,-11.5606,-4.47697,27.5622
2023-03-14 22:27:37:965,-0.812309,2.00634,-9.58522,-11.5631,-4.47365,27.5828
2023-03-14 22:27:37:975,-0.824732,2.01049,-9.5972,-11.5659,-4.46626,27.6022
2023-03-14 22:27:37:985,-0.80518,2.00074,-9.58307,-11.5664,-4.45937,27.6218
2023-03-14 22:27:37:995,-0.748633,1.98416,-9.57441,-11.5686,-4.4531,27.6395
2023-03-14 22:27:38:5,-0.764353,1.96131,-9.54362,-11.5692,-4.44802,27.6624
2023-03-14 22:27:38:15,-0.760164,1.94865,-9.54221,-11.5705,-4.44205,27.6869
2023-03-14 22:27:38:25,-0.674379,1.99428,-9.62831,-11.5724,-4.43837,27.7113
2023-03-14 22:27:38:35,-0.782444,1.99323,-9.59285,-11.5711,-4.43624,27.735
2023-03-14 22:27:38:45,-0.820408,1.98781,-9.5654,-11.5722,-4.43433,27.756
2023-03-14 22:27:38:55,-0.840945,2.00132,-9.57954,-11.5688,-4.42844,27.7763
2023-03-14 22:27:38:66,-0.856969,1.98345,-9.59755,-11.5629,-4.42009,27.7879
2023-03-14 22:27:38:76,-0.802045,1.94839,-9.59461,-11.5436,-4.40761,27.7946
2023-03-14 22:27:38:86,-0.737023,1.91387,-9.55348,-11.5225,-4.39483,27.7982
2023-03-14 22:27:38:96,-0.6912,1.83386,-9.49318,-11.4966,-4.38335,27.7969
2023-03-14 22:27:38:106,-0.620106,1.79922,-9.45682,-11.4754,-4.37351,27.7963
2023-03-14 22:27:38:116,-0.58113,1.78348,-9.44157,-11.4572,-4.36671,27.7934
2023-03-14 22:27:38:126,-0.589958,1.76961,-9.46186,-11.4481,-4.36065,27.7921
2023-03-14 22:27:38:136,-0.613897,1.81914,-9.49294,-11.4498,-4.35759,27.7914
2023-03-14 22:27:38:145,-0.639178,1.84782,-9.50491,-11.4548,-4.35395,27.7935
2023-03-14 22:27:38:156,-0.669023,1.86062,-9.51667,-11.466,-4.35023,27.7947
2023-03-14 22:27:38:166,-0.670964,1.89335,-9.5453,-11.4773,-4.33927,27.8045
2023-03-14 22:27:38:176,-0.658351,1.92406,-9.58695,-11.4915,-4.33167,27.8156
2023-03-14 22:27:38:186,-0.675957,1.94729,-9.60968,-11.5008,-4.32061,27.8328
2023-03-14 22:27:38:195,-0.689361,1.92787,-9.61091,-11.5078,-4.30727,27.8532
2023-03-14 22:27:38:206,-0.72628,1.88713,-9.56999,-11.512,-4.29235,27.874
2023-03-14 22:27:38:215,-0.755226,1.8594,-9.51534,-11.5221,-4.2805,27.8945
2023-03-14 22:27:38:226,-0.828836,1.8479,-9.49568,-11.542,-4.27099,27.9148
2023-03-14 22:27:38:236,-0.933358,1.89902,-9.50215,-11.5701,-4.26213,27.9322
2023-03-14 22:27:38:246,-0.977182,1.9659,-9.50918,-11.596,-4.2445,27.9351
2023-03-14 22:27:38:255,-0.950431,2.02724,-9.53898,-11.6156,-4.22033,27.9296
2023-03-14 22:27:38:266,-0.836972,2.02249,-9.57885,-11.6247,-4.19252,27.9121
2023-03-14 22:27:38:276,-0.747218,1.98275,-9.6127,-11.6254,-4.16261,27.8909
2023-03-14 22:27:38:286,-0.687388,1.9622,-9.58782,-11.624,-4.13728,27.8733
2023-03-14 22:27:38:296,-0.673647,1.94504,-9.53813,-11.6289,-4.12273,27.8499
2023-03-14 22:27:38:306,-0.704896,1.93378,-9.50991,-11.6398,-4.11081,27.8343
2023-03-14 22:27:38:316,-0.773096,1.97644,-9.49424,-11.6584,-4.09754,27.8187
2023-03-14 22:27:38:326,-0.788125,2.04348,-9.50229,-11.6818,-4.09101,27.8051
2023-03-14 22:27:38:336,-0.78846,2.11443,-9.54282,-11.7019,-4.084,27.7895
2023-03-14 22:27:38:346,-0.771122,2.19376,-9.61084,-11.716,-4.06932,27.7746
2023-03-14 22:27:38:355,-0.730739,2.24153,-9.64648,-11.7225,-4.05035,27.7635
2023-03-14 22:27:38:366,-0.674266,2.22358,-9.63756,-11.721,-4.02294,27.7525
2023-03-14 22:27:38:376,-0.617601,2.16904,-9.62334,-11.7174,-3.99318,27.7472
2023-03-14 22:27:38:386,-0.606712,2.14884,-9.59244,-11.7134,-3.96391,27.7438
2023-03-14 22:27:38:396,-0.587868,2.17016,-9.62529,-11.7123,-3.9384,27.7484
2023-03-14 22:27:38:405,-0.565403,2.20405,-9.67032,-11.7057,-3.91374,27.7521
2023-03-14 22:27:38:416,-0.692459,2.16944,-9.58759,-11.6924,-3.89685,27.7609
2023-03-14 22:27:38:426,-0.627167,2.16292,-9.59498,-11.6719,-3.88291,27.7729
2023-03-14 22:27:38:435,-0.585262,2.11784,-9.62156,-11.6397,-3.87598,27.7947
2023-03-14 22:27:38:445,-0.654784,2.03422,-9.57627,-11.601,-3.87677,27.8275
2023-03-14 22:27:38:456,-0.76192,1.9515,-9.51703,-11.5608,-3.87979,27.8614
2023-03-14 22:27:38:465,-0.794152,1.92446,-9.56939,-11.5248,-3.88402,27.8946
2023-03-14 22:27:38:475,-0.845217,1.86428,-9.53195,-11.4985,-3.88738,27.9137
2023-03-14 22:27:38:485,-0.81924,1.87567,-9.52327,-11.4822,-3.88567,27.9253
2023-03-14 22:27:38:496,-0.778648,1.87406,-9.48377,-11.4675,-3.87685,27.9287
2023-03-14 22:27:38:506,-0.722534,1.85967,-9.39987,-11.4557,-3.86051,27.9241
2023-03-14 22:27:38:516,-0.618111,1.8471,-9.36265,-11.4427,-3.84224,27.9103
2023-03-14 22:27:38:526,-0.532013,1.81264,-9.3546,-11.4308,-3.81498,27.8983
2023-03-14 22:27:38:536,-0.451139,1.78125,-9.37502,-11.4257,-3.79192,27.8834
2023-03-14 22:27:38:546,-0.379832,1.74698,-9.35319,-11.4303,-3.76862,27.874
2023-03-14 22:27:38:555,-0.371306,1.73118,-9.35547,-11.4504,-3.75114,27.8727
2023-03-14 22:27:38:565,-0.433061,1.79172,-9.41227,-11.4897,-3.73828,27.8802
2023-03-14 22:27:38:576,-0.503386,1.909,-9.51373,-11.5459,-3.73582,27.8906
2023-03-14 22:27:38:586,-0.56142,1.95931,-9.54486,-11.6056,-3.73345,27.8994
2023-03-14 22:27:38:596,-0.518988,1.99348,-9.57616,-11.6641,-3.72831,27.9072
2023-03-14 22:27:38:605,-0.578234,2.04329,-9.49658,-11.714,-3.73224,27.9117
2023-03-14 22:27:38:616,-0.53337,1.98846,-9.45693,-11.7463,-3.73119,27.9135
2023-03-14 22:27:38:626,-0.33692,1.98012,-9.49043,-11.773,-3.72105,27.9183
2023-03-14 22:27:38:636,-0.272744,2.00956,-9.55381,-11.8028,-3.71175,27.9248
2023-03-14 22:27:38:646,-0.25016,2.04682,-9.54636,-11.8399,-3.71387,27.9284
2023-03-14 22:27:38:656,-0.210538,2.0354,-9.4611,-11.8797,-3.72734,27.9274
2023-03-14 22:27:38:666,-0.192468,1.99807,-9.34342,-11.9332,-3.74998,27.9303
2023-03-14 22:27:38:676,-0.170209,1.9659,-9.29659,-11.9936,-3.79296,27.9427
2023-03-14 22:27:38:686,-0.202104,2.0026,-9.36964,-12.0682,-3.85961,27.9674
2023-03-14 22:27:38:695,-0.25587,2.03382,-9.40422,-12.155,-3.95876,28.0023
2023-03-14 22:27:38:706,-0.480591,2.16087,-9.53796,-12.2601,-4.07464,28.0548
2023-03-14 22:27:38:715,-0.64766,2.39534,-9.79117,-12.3764,-4.2057,28.116
2023-03-14 22:27:38:726,-0.803692,2.54649,-9.86066,-12.4802,-4.33166,28.1813
2023-03-14 22:27:38:736,-0.939419,2.58084,-9.8272,-12.5658,-4.44631,28.2509
2023-03-14 22:27:38:746,-0.998856,2.53495,-9.72401,-12.6237,-4.53875,28.3222
2023-03-14 22:27:38:756,-1.01393,2.37446,-9.55717,-12.6574,-4.6076,28.3978
2023-03-14 22:27:38:766,-1.03812,2.23446,-9.43382,-12.6775,-4.65599,28.4779
2023-03-14 22:27:38:776,-1.15057,2.2057,-9.40516,-12.692,-4.68847,28.5546
2023-03-14 22:27:38:786,-1.17772,2.22563,-9.45894,-12.6978,-4.70785,28.6135
2023-03-14 22:27:38:796,-1.11063,2.23119,-9.55211,-12.6919,-4.7232,28.6573
2023-03-14 22:27:38:806,-1.11342,2.20997,-9.60018,-12.6784,-4.73495,28.691
2023-03-14 22:27:38:816,-1.1454,2.20723,-9.65291,-12.6544,-4.74144,28.7185
2023-03-14 22:27:38:826,-1.09617,2.19836,-9.70289,-12.6218,-4.73951,28.7429
2023-03-14 22:27:38:836,-0.998794,2.11967,-9.65229,-12.578,-4.73278,28.7614
2023-03-14 22:27:38:845,-0.952637,2.03167,-9.55203,-12.519,-4.72347,28.781
2023-03-14 22:27:38:856,-0.919776,1.96311,-9.47336,-12.4635,-4.7142,28.8008
2023-03-14 22:27:38:866,-0.849419,1.897,-9.42167,-12.4114,-4.71182,28.815
2023-03-14 22:27:38:876,-0.779255,1.84327,-9.37554,-12.358,-4.71745,28.8304
2023-03-14 22:27:38:886,-0.774568,1.83539,-9.37928,-12.319,-4.73125,28.8443
2023-03-14 22:27:38:896,-0.720112,1.87711,-9.44166,-12.2952,-4.75725,28.856
2023-03-14 22:27:38:906,-0.790918,1.92763,-9.41366,-12.2804,-4.79241,28.8581
2023-03-14 22:27:38:916,-0.874799,1.96995,-9.42111,-12.2638,-4.8267,28.8515
2023-03-14 22:27:38:926,-0.832116,1.96834,-9.44467,-12.241,-4.8555,28.8368
2023-03-14 22:27:38:936,-0.766981,1.9173,-9.43561,-12.2173,-4.88098,28.8125
2023-03-14 22:27:38:946,-0.767618,1.89882,-9.46107,-12.1994,-4.90568,28.7892
2023-03-14 22:27:38:956,-0.8128,1.93276,-9.51677,-12.2014,-4.92852,28.7646
2023-03-14 22:27:38:966,-0.866033,1.99951,-9.5796,-12.2173,-4.94653,28.7434
2023-03-14 22:27:38:975,-0.907375,2.07046,-9.62904,-12.2402,-4.9542,28.7247
2023-03-14 22:27:38:985,-0.961995,2.08712,-9.62798,-12.2642,-4.95469,28.7083
2023-03-14 22:27:38:995,-0.950221,2.06878,-9.57388,-12.2806,-4.95337,28.6867
2023-03-14 22:27:39:6,-0.936587,2.03982,-9.53735,-12.2846,-4.94455,28.6605
2023-03-14 22:27:39:16,-0.874819,2.03088,-9.55581,-12.2768,-4.93567,28.6347
2023-03-14 22:27:39:26,-0.783665,2.03287,-9.58299,-12.2677,-4.93,28.6087
2023-03-14 22:27:39:36,-0.774201,2.05416,-9.57881,-12.2618,-4.93692,28.5843
2023-03-14 22:27:39:46,-0.810338,2.09621,-9.5909,-12.2552,-4.95083,28.5564
2023-03-14 22:27:39:56,-0.795234,2.11427,-9.58888,-12.2473,-4.96436,28.5211
2023-03-14 22:27:39:66,-0.764975,2.10495,-9.5833,-12.2323,-4.97678,28.4862
2023-03-14 22:27:39:76,-0.718174,2.0814,-9.59357,-12.2076,-4.97884,28.4536
2023-03-14 22:27:39:86,-0.712465,2.066,-9.58519,-12.1803,-4.97808,28.4225
2023-03-14 22:27:39:96,-0.746418,2.07123,-9.55938,-12.1524,-4.98393,28.3943
2023-03-14 22:27:39:106,-0.770591,2.07188,-9.5881,-12.1096,-4.98389,28.3647
2023-03-14 22:27:39:116,-0.72131,2.06211,-9.62127,-12.0625,-4.98565,28.338
2023-03-14 22:27:39:126,-0.657821,2.01508,-9.5903,-12.0198,-4.98532,28.3215
2023-03-14 22:27:39:136,-0.610953,1.97339,-9.54115,-11.9944,-4.98814,28.3189
2023-03-14 22:27:39:145,-0.606116,1.94325,-9.50997,-11.9855,-4.98739,28.326
2023-03-14 22:27:39:155,-0.63367,1.91375,-9.47658,-11.995,-4.9921,28.3452
2023-03-14 22:27:39:166,-0.675762,1.92999,-9.49878,-12.0177,-5.00157,28.3748
2023-03-14 22:27:39:176,-0.742231,1.97484,-9.55366,-12.0509,-5.01158,28.4086
2023-03-14 22:27:39:186,-0.831086,2.00994,-9.57604,-12.0897,-5.02542,28.4418
2023-03-14 22:27:39:196,-0.892247,2.04463,-9.5956,-12.1346,-5.03867,28.4738
2023-03-14 22:27:39:206,-0.933952,2.08691,-9.62005,-12.1786,-5.04701,28.5003
2023-03-14 22:27:39:216,-0.934662,2.0933,-9.60213,-12.2157,-5.05822,28.5196
2023-03-14 22:27:39:226,-0.96316,2.07312,-9.53526,-12.2492,-5.06254,28.5379
2023-03-14 22:27:39:236,-0.976194,2.06135,-9.51308,-12.2742,-5.05953,28.554
2023-03-14 22:27:39:246,-0.964331,2.05226,-9.53799,-12.2942,-5.05155,28.5645
2023-03-14 22:27:39:256,-0.926479,2.03385,-9.55728,-12.3097,-5.04992,28.5692
2023-03-14 22:27:39:266,-0.89105,2.02206,-9.54931,-12.3247,-5.05046,28.5773
2023-03-14 22:27:39:276,-0.895677,2.01701,-9.57018,-12.3443,-5.05327,28.5857
2023-03-14 22:27:39:286,-0.936118,2.03442,-9.57561,-12.3726,-5.0527,28.5954
2023-03-14 22:27:39:296,-0.974984,2.05327,-9.55152,-12.4073,-5.05252,28.6051
2023-03-14 22:27:39:306,-0.987134,2.08054,-9.51825,-12.4438,-5.04537,28.6108
2023-03-14 22:27:39:316,-1.00337,2.05103,-9.48807,-12.4771,-5.02797,28.6093
2023-03-14 22:27:39:326,-0.961161,2.05483,-9.49665,-12.5124,-5.00137,28.6047
2023-03-14 22:27:39:336,-0.945929,2.08179,-9.53525,-12.5503,-4.97181,28.5978
2023-03-14 22:27:39:346,-0.939234,2.12899,-9.55901,-12.5885,-4.93941,28.5849
2023-03-14 22:27:39:356,-0.911402,2.16013,-9.60831,-12.6267,-4.91285,28.5676
2023-03-14 22:27:39:366,-0.879257,2.19165,-9.62836,-12.6604,-4.88968,28.548
2023-03-14 22:27:39:376,-0.867048,2.22199,-9.60462,-12.6883,-4.86817,28.5243
2023-03-14 22:27:39:386,-0.862849,2.21983,-9.60441,-12.71,-4.85353,28.4975
2023-03-14 22:27:39:395,-0.880365,2.20782,-9.60116,-12.7217,-4.84429,28.4689
2023-03-14 22:27:39:406,-0.884195,2.2443,-9.61048,-12.7345,-4.83562,28.4389
2023-03-14 22:27:39:416,-0.890249,2.28146,-9.62545,-12.7419,-4.82293,28.4017
2023-03-14 22:27:39:426,-0.860847,2.28281,-9.61854,-12.7391,-4.80923,28.3639
2023-03-14 22:27:39:436,-0.835777,2.26829,-9.58976,-12.7302,-4.79415,28.3173
2023-03-14 22:27:39:445,-0.795845,2.2344,-9.55844,-12.7148,-4.78103,28.2782
2023-03-14 22:27:39:456,-0.762567,2.16393,-9.47849,-12.6933,-4.76478,28.242
2023-03-14 22:27:39:466,-0.717417,2.1164,-9.43733,-12.677,-4.74711,28.2105
2023-03-14 22:27:39:476,-0.694558,2.14013,-9.45911,-12.6685,-4.7209,28.1873
2023-03-14 22:27:39:485,-0.72658,2.15664,-9.47923,-12.6745,-4.70209,28.1667
2023-03-14 22:27:39:495,-0.736017,2.18177,-9.48397,-12.6868,-4.68484,28.1525
2023-03-14 22:27:39:505,-0.70107,2.20079,-9.4949,-12.7011,-4.66713,28.1365
2023-03-14 22:27:39:515,-0.692321,2.21189,-9.52109,-12.7142,-4.65364,28.1252
2023-03-14 22:27:39:525,-0.722718,2.22234,-9.57667,-12.7238,-4.6487,28.112
2023-03-14 22:27:39:535,-0.759581,2.2744,-9.60202,-12.7339,-4.64572,28.0972
2023-03-14 22:27:39:546,-0.792154,2.27802,-9.61055,-12.739,-4.65329,28.0788
2023-03-14 22:27:39:556,-0.806361,2.26658,-9.60532,-12.7329,-4.66475,28.054
2023-03-14 22:27:39:566,-0.827379,2.24551,-9.57179,-12.7191,-4.67564,28.024
2023-03-14 22:27:39:576,-0.822918,2.20734,-9.52166,-12.7032,-4.68561,27.9945
2023-03-14 22:27:39:586,-0.82147,2.1613,-9.45206,-12.6842,-4.68628,27.9615
2023-03-14 22:27:39:596,-0.854601,2.16556,-9.44743,-12.6666,-4.67948,27.9289
2023-03-14 22:27:39:606,-0.837272,2.18171,-9.47528,-12.6494,-4.67278,27.8924
2023-03-14 22:27:39:616,-0.799706,2.15826,-9.47248,-12.6293,-4.6674,27.8526
2023-03-14 22:27:39:625,-0.743836,2.12084,-9.46337,-12.6129,-4.66418,27.8129
2023-03-14 22:27:39:635,-0.681646,2.11595,-9.48761,-12.6032,-4.66729,27.7769
2023-03-14 22:27:39:646,-0.677598,2.12031,-9.53466,-12.5973,-4.6782,27.7472
2023-03-14 22:27:39:655,-0.708845,2.13672,-9.52622,-12.5948,-4.69777,27.7245
2023-03-14 22:27:39:666,-0.791161,2.17932,-9.51795,-12.596,-4.7174,27.7052
2023-03-14 22:27:39:676,-0.865038,2.20394,-9.50278,-12.5993,-4.74157,27.6857
2023-03-14 22:27:39:686,-0.879986,2.20379,-9.48997,-12.5993,-4.76668,27.6607
2023-03-14 22:27:39:696,-0.851015,2.18921,-9.4897,-12.5943,-4.78862,27.6262
2023-03-14 22:27:39:706,-0.841776,2.13985,-9.44524,-12.5785,-4.8061,27.5886
2023-03-14 22:27:39:716,-0.870997,2.11877,-9.44443,-12.5586,-4.81772,27.5477
2023-03-14 22:27:39:726,-0.860832,2.0996,-9.4562,-12.539,-4.82448,27.5009
2023-03-14 22:27:39:736,-0.805792,2.07101,-9.45509,-12.5169,-4.8337,27.4522
2023-03-14 22:27:39:745,-0.776045,2.03148,-9.45755,-12.4972,-4.84123,27.4085
2023-03-14 22:27:39:755,-0.771477,2.0775,-9.53071,-12.4861,-4.85093,27.3668
2023-03-14 22:27:39:766,-0.763729,2.11027,-9.57478,-12.4769,-4.86941,27.3246
2023-03-14 22:27:39:776,-0.802144,2.12231,-9.55018,-12.4647,-4.88787,27.2849
2023-03-14 22:27:39:786,-0.820814,2.11342,-9.53711,-12.445,-4.90193,27.2483
2023-03-14 22:27:39:796,-0.828834,2.0561,-9.49568,-12.4167,-4.91317,27.2134
2023-03-14 22:27:39:806,-0.810435,2.02568,-9.45847,-12.3895,-4.91969,27.177
2023-03-14 22:27:39:816,-0.820209,1.99846,-9.45336,-12.3602,-4.9278,27.1483
2023-03-14 22:27:39:826,-0.842159,2.00072,-9.42953,-12.3351,-4.93515,27.114
2023-03-14 22:27:39:836,-0.849161,2.00539,-9.44725,-12.3161,-4.94069,27.0822
2023-03-14 22:27:39:846,-0.834983,2.02105,-9.48627,-12.3012,-4.94114,27.0494
2023-03-14 22:27:39:856,-0.832044,2.04206,-9.52779,-12.2901,-4.94574,27.0176
2023-03-14 22:27:39:865,-0.828009,2.04575,-9.51154,-12.2761,-4.94773,26.9847
2023-03-14 22:27:39:876,-0.864056,2.03547,-9.51214,-12.2595,-4.95039,26.9531
2023-03-14 22:27:39:886,-0.851764,2.01192,-9.48951,-12.2416,-4.94869,26.9202
2023-03-14 22:27:39:896,-0.811566,2.01101,-9.50437,-12.2226,-4.94309,26.8796
2023-03-14 22:27:39:906,-0.752905,2.01009,-9.54498,-12.1997,-4.93792,26.8381
2023-03-14 22:27:39:916,-0.703585,1.9861,-9.50764,-12.1757,-4.93773,26.7982
2023-03-14 22:27:39:926,-0.748672,1.95492,-9.45296,-12.1548,-4.93533,26.7663
2023-03-14 22:27:39:936,-0.794097,1.96879,-9.47146,-12.1411,-4.93907,26.7393
2023-03-14 22:27:39:946,-0.772992,2.03342,-9.54342,-12.133,-4.94253,26.7079
2023-03-14 22:27:39:955,-0.748992,2.07401,-9.59323,-12.1196,-4.94916,26.6742
2023-03-14 22:27:39:966,-0.752049,2.0791,-9.57779,-12.1062,-4.95895,26.6431
2023-03-14 22:27:39:976,-0.742902,2.07006,-9.55521,-12.0913,-4.96508,26.6135
2023-03-14 22:27:39:985,-0.745211,2.04194,-9.53167,-12.0741,-4.96999,26.5904
2023-03-14 22:27:39:995,-0.743642,2.04093,-9.53825,-12.0572,-4.9739,26.5681
2023-03-14 22:27:40:6,-0.759765,2.01484,-9.49964,-12.0368,-4.98256,26.5472
2023-03-14 22:27:40:16,-0.792149,1.99002,-9.47322,-12.0211,-4.99125,26.5318
2023-03-14 22:27:40:26,-0.823351,2.00048,-9.50743,-12.009,-4.99742,26.5197
2023-03-14 22:27:40:36,-0.87709,2.09779,-9.57984,-11.9984,-5.0042,26.5036
2023-03-14 22:27:40:46,-0.901027,2.1156,-9.64914,-11.9708,-5.01748,26.4756
2023-03-14 22:27:40:56,-0.787856,1.97786,-9.5227,-11.9429,-5.02765,26.4544
2023-03-14 22:27:40:65,-0.756503,1.95932,-9.46443,-11.9172,-5.03283,26.4384
2023-03-14 22:27:40:76,-0.817043,2.00682,-9.49779,-11.9002,-5.04234,26.4277
2023-03-14 22:27:40:86,-0.817251,2.03451,-9.52438,-11.8859,-5.05302,26.4146
2023-03-14 22:27:40:96,-0.813351,2.02221,-9.51852,-11.8713,-5.06365,26.3989
2023-03-14 22:27:40:106,-0.807927,1.96666,-9.51757,-11.8541,-5.07416,26.3865
2023-03-14 22:27:40:116,-0.781442,1.933,-9.48692,-11.8406,-5.08367,26.3781
2023-03-14 22:27:40:126,-0.792047,1.95026,-9.48283,-11.8322,-5.0895,26.3721
2023-03-14 22:27:40:136,-0.831038,1.96469,-9.53347,-11.8283,-5.10064,26.3675
2023-03-14 22:27:40:146,-0.864382,2.01326,-9.55366,-11.8272,-5.10981,26.3651
2023-03-14 22:27:40:156,-0.899536,2.05398,-9.55228,-11.8289,-5.11448,26.3614
2023-03-14 22:27:40:166,-0.908671,2.05723,-9.55625,-11.8281,-5.11676,26.3545
2023-03-14 22:27:40:176,-0.896639,2.05697,-9.53893,-11.8258,-5.11868,26.3484
2023-03-14 22:27:40:186,-0.879158,2.05638,-9.50242,-11.8252,-5.1177,26.3439
2023-03-14 22:27:40:196,-0.881816,2.02735,-9.4732,-11.8288,-5.11325,26.3372
2023-03-14 22:27:40:206,-0.876561,2.0097,-9.4631,-11.8318,-5.10805,26.3327
2023-03-14 22:27:40:216,-0.908376,2.0115,-9.47774,-11.8361,-5.10392,26.3253
2023-03-14 22:27:40:226,-0.920085,2.01201,-9.48412,-11.8375,-5.10329,26.3215
2023-03-14 22:27:40:236,-0.908937,2.00423,-9.48452,-11.8411,-5.09736,26.3148
2023-03-14 22:27:40:246,-0.90299,2.00938,-9.50204,-11.8423,-5.09351,26.3044
2023-03-14 22:27:40:256,-0.903764,2.0145,-9.49403,-11.8415,-5.09029,26.2942
2023-03-14 22:27:40:266,-0.872296,2.00421,-9.49918,-11.8458,-5.08479,26.2791
2023-03-14 22:27:40:276,-0.839986,1.98741,-9.49537,-11.8499,-5.07474,26.2633
2023-03-14 22:27:40:286,-0.827321,1.98657,-9.5015,-11.8576,-5.06737,26.2493
2023-03-14 22:27:40:296,-0.859818,2.01067,-9.50412,-11.8678,-5.06011,26.2355
2023-03-14 22:27:40:306,-0.87309,2.01454,-9.501,-11.8821,-5.0521,26.2205
2023-03-14 22:27:40:316,-0.878677,2.02176,-9.49976,-11.8985,-5.04786,26.2017
2023-03-14 22:27:40:326,-0.863839,2.04206,-9.47697,-11.9167,-5.0418,26.1786
2023-03-14 22:27:40:336,-0.826937,2.05425,-9.49049,-11.9345,-5.03781,26.157
2023-03-14 22:27:40:346,-0.850093,2.07536,-9.53668,-11.9554,-5.03594,26.136
2023-03-14 22:27:40:355,-0.880297,2.11175,-9.56699,-11.9761,-5.03437,26.1153
2023-03-14 22:27:40:365,-0.86967,2.14476,-9.56004,-11.9977,-5.03212,26.0894
2023-03-14 22:27:40:376,-0.824897,2.15935,-9.57276,-12.0121,-5.02625,26.0623
2023-03-14 22:27:40:386,-0.775894,2.13972,-9.56351,-12.0202,-5.02184,26.0349
2023-03-14 22:27:40:396,-0.783067,2.11123,-9.52483,-12.0259,-5.01705,26.0117
2023-03-14 22:27:40:406,-0.844989,2.11986,-9.49428,-12.0339,-5.01823,25.9924
2023-03-14 22:27:40:416,-0.895472,2.121,-9.48978,-12.0417,-5.01856,25.9726
2023-03-14 22:27:40:426,-0.926462,2.12369,-9.52356,-12.0472,-5.01911,25.9502
2023-03-14 22:27:40:436,-0.93988,2.12553,-9.56408,-12.0517,-5.01599,25.9228
2023-03-14 22:27:40:446,-0.926759,2.12079,-9.58846,-12.0576,-5.0073,25.8983
2023-03-14 22:27:40:456,-0.858016,2.12512,-9.6327,-12.0595,-4.99954,25.8687
2023-03-14 22:27:40:466,-0.876999,2.12157,-9.62437,-12.0568,-5.00071,25.8393
2023-03-14 22:27:40:476,-0.998006,2.07971,-9.55708,-12.052,-5.00518,25.8061
2023-03-14 22:27:40:486,-0.987425,2.05612,-9.54928,-12.0477,-5.0046,25.7701
2023-03-14 22:27:40:496,-0.922141,2.05717,-9.5834,-12.0395,-5.00724,25.723
2023-03-14 22:27:40:505,-0.916574,2.05938,-9.56788,-12.0328,-5.01078,25.6708
2023-03-14 22:27:40:515,-0.95865,2.06678,-9.54136,-12.0244,-5.02106,25.6097
2023-03-14 22:27:40:525,-0.958586,2.05999,-9.53848,-12.0149,-5.02968,25.5413
2023-03-14 22:27:40:536,-0.925557,2.05594,-9.52461,-12.0028,-5.04254,25.462
2023-03-14 22:27:40:545,-0.898535,2.03569,-9.48655,-11.9902,-5.05277,25.3719
2023-03-14 22:27:40:556,-0.854946,2.02701,-9.45037,-11.9763,-5.06567,25.282
2023-03-14 22:27:40:566,-0.837132,2.03576,-9.47113,-11.9686,-5.07845,25.1897
2023-03-14 22:27:40:576,-0.858252,2.08239,-9.52511,-11.9667,-5.09688,25.1009
2023-03-14 22:27:40:586,-0.880961,2.09088,-9.57631,-11.964,-5.11913,25.0141
2023-03-14 22:27:40:596,-0.866992,2.12102,-9.58788,-11.9617,-5.13854,24.9251
2023-03-14 22:27:40:606,-0.875019,2.13312,-9.61958,-11.9539,-5.15518,24.8313
2023-03-14 22:27:40:616,-0.884824,2.1336,-9.62858,-11.9392,-5.17227,24.7425
2023-03-14 22:27:40:626,-0.878132,2.12339,-9.60246,-11.9108,-5.1898,24.6495
2023-03-14 22:27:40:636,-0.853809,2.06174,-9.5512,-11.8787,-5.20094,24.5519
2023-03-14 22:27:40:646,-0.811729,2.03678,-9.53682,-11.8425,-5.20948,24.4575
2023-03-14 22:27:40:656,-0.771242,2.03149,-9.59183,-11.8066,-5.21984,24.3655
2023-03-14 22:27:40:666,-0.802111,2.00253,-9.58204,-11.7659,-5.23466,24.2796
2023-03-14 22:27:40:675,-0.854019,1.99223,-9.56188,-11.7235,-5.25377,24.1987
2023-03-14 22:27:40:685,-0.855284,1.97726,-9.56066,-11.6844,-5.27032,24.116
2023-03-14 22:27:40:695,-0.860777,1.96165,-9.58788,-11.6409,-5.28993,24.0339
2023-03-14 22:27:40:706,-0.873309,1.96712,-9.61488,-11.5926,-5.30366,23.9518
2023-03-14 22:27:40:715,-0.894098,1.96707,-9.60947,-11.5438,-5.31837,23.8696
2023-03-14 22:27:40:726,-0.904686,1.96268,-9.58677,-11.49,-5.3347,23.7858
2023-03-14 22:27:40:736,-0.878631,1.90527,-9.52694,-11.4312,-5.34925,23.6969
2023-03-14 22:27:40:746,-0.878599,1.82492,-9.43679,-11.3788,-5.36252,23.6107
2023-03-14 22:27:40:756,-0.918406,1.84169,-9.42185,-11.3343,-5.38003,23.5198
2023-03-14 22:27:40:766,-0.945033,1.8978,-9.4733,-11.303,-5.40229,23.4273
2023-03-14 22:27:40:776,-0.948032,1.92364,-9.52104,-11.2763,-5.43209,23.3272
2023-03-14 22:27:40:786,-0.938621,1.91631,-9.52662,-11.2445,-5.46478,23.2238
2023-03-14 22:27:40:796,-0.951227,1.92963,-9.53524,-11.2161,-5.49441,23.1166
2023-03-14 22:27:40:806,-0.992191,1.9391,-9.55198,-11.1834,-5.5255,23.009
2023-03-14 22:27:40:815,-1.00251,1.92746,-9.5325,-11.1501,-5.5529,22.9019
2023-03-14 22:27:40:826,-0.982191,1.90155,-9.50426,-11.1167,-5.57838,22.7912
2023-03-14 22:27:40:836,-0.971486,1.86053,-9.47122,-11.0832,-5.60078,22.6802
2023-03-14 22:27:40:846,-0.954788,1.80895,-9.47568,-11.0496,-5.62161,22.5687
2023-03-14 22:27:40:855,-0.91616,1.78291,-9.50622,-11.0209,-5.64358,22.4598
2023-03-14 22:27:40:866,-0.882922,1.78334,-9.54626,-11.0009,-5.6623,22.3557
2023-03-14 22:27:40:875,-0.884093,1.80902,-9.58508,-10.98,-5.67911,22.2581
2023-03-14 22:27:40:885,-0.908724,1.82865,-9.60488,-10.9635,-5.69837,22.1648
2023-03-14 22:27:40:895,-0.929,1.83219,-9.59195,-10.945,-5.71881,22.0803
2023-03-14 22:27:40:906,-0.932581,1.80578,-9.57579,-10.9265,-5.73678,21.9971
2023-03-14 22:27:40:916,-0.910357,1.78129,-9.56073,-10.903,-5.74661,21.9174
2023-03-14 22:27:40:926,-0.906393,1.76221,-9.54014,-10.8834,-5.75619,21.8448
2023-03-14 22:27:40:936,-0.858771,1.73521,-9.54034,-10.8616,-5.7621,21.7777
2023-03-14 22:27:40:946,-0.782239,1.72584,-9.58548,-10.8407,-5.76919,21.7246
2023-03-14 22:27:40:956,-0.662642,1.70434,-9.62517,-10.8192,-5.77587,21.6814
2023-03-14 22:27:40:965,-0.659489,1.72155,-9.59826,-10.8086,-5.78227,21.6567
2023-03-14 22:27:40:976,-0.923978,1.82328,-9.60486,-10.7937,-5.79226,21.646
2023-03-14 22:27:40:986,-0.904976,1.82176,-9.61511,-10.7791,-5.79855,21.635
2023-03-14 22:27:40:996,-0.904239,1.84042,-9.60791,-10.7622,-5.79495,21.635
2023-03-14 22:27:41:6,-0.976518,1.85268,-9.57289,-10.7443,-5.78815,21.6391
2023-03-14 22:27:41:16,-0.98898,1.84448,-9.52354,-10.7213,-5.77616,21.6435
2023-03-14 22:27:41:26,-0.996162,1.80114,-9.47699,-10.6992,-5.76569,21.6491
2023-03-14 22:27:41:36,-1.00034,1.77865,-9.45199,-10.6791,-5.75101,21.6547
2023-03-14 22:27:41:46,-0.969589,1.77338,-9.4191,-10.6686,-5.73616,21.6594
2023-03-14 22:27:41:56,-0.93951,1.77895,-9.46903,-10.6662,-5.72404,21.6651
2023-03-14 22:27:41:66,-0.967432,1.81939,-9.52404,-10.6673,-5.71999,21.6712
2023-03-14 22:27:41:76,-1.03561,1.83647,-9.5394,-10.6702,-5.71435,21.678
2023-03-14 22:27:41:86,-0.993876,1.8452,-9.55441,-10.67,-5.71033,21.6775
2023-03-14 22:27:41:96,-0.962875,1.80725,-9.54919,-10.6688,-5.70524,21.6762
2023-03-14 22:27:41:106,-0.916643,1.79298,-9.54164,-10.6671,-5.69637,21.6745
2023-03-14 22:27:41:116,-0.957367,1.8281,-9.56939,-10.6647,-5.69658,21.6725
2023-03-14 22:27:41:126,-0.921309,1.92092,-9.71827,-10.6614,-5.69676,21.6668
2023-03-14 22:27:41:136,-0.861386,1.78661,-9.60128,-10.6426,-5.69667,21.6583
2023-03-14 22:27:41:146,-0.865543,1.7432,-9.48147,-10.6355,-5.69123,21.6625
2023-03-14 22:27:41:156,-0.808228,1.75861,-9.50422,-10.6363,-5.68418,21.6717
2023-03-14 22:27:41:166,-0.851192,1.79842,-9.51728,-10.6463,-5.68632,21.6883
2023-03-14 22:27:41:176,-0.955466,1.85043,-9.55468,-10.6579,-5.6876,21.704
2023-03-14 22:27:41:186,-0.960293,1.86873,-9.56121,-10.6707,-5.68403,21.7191
2023-03-14 22:27:41:196,-0.936721,1.87084,-9.55944,-10.6819,-5.67632,21.7354
2023-03-14 22:27:41:206,-0.895975,1.84995,-9.53704,-10.6849,-5.66666,21.7504
2023-03-14 22:27:41:215,-0.87806,1.84131,-9.53572,-10.6835,-5.65564,21.7625
2023-03-14 22:27:41:226,-0.920953,1.80048,-9.54083,-10.6845,-5.65038,21.7784
2023-03-14 22:27:41:236,-1.0156,1.79401,-9.5009,-10.6911,-5.64296,21.8014
2023-03-14 22:27:41:246,-1.01272,1.82312,-9.52186,-10.7044,-5.63777,21.8215
2023-03-14 22:27:41:256,-1.01213,1.83506,-9.5414,-10.7194,-5.62707,21.8402
2023-03-14 22:27:41:266,-0.964067,1.83498,-9.54546,-10.7365,-5.60787,21.8533
2023-03-14 22:27:41:276,-0.925018,1.82276,-9.57235,-10.7543,-5.59107,21.8664
2023-03-14 22:27:41:285,-0.923906,1.83613,-9.5842,-10.775,-5.57675,21.8855
2023-03-14 22:27:41:296,-0.957188,1.86186,-9.60508,-10.7975,-5.5678,21.9
2023-03-14 22:27:41:306,-0.987863,1.91867,-9.63727,-10.8164,-5.55942,21.9108
2023-03-14 22:27:41:316,-0.99474,1.95765,-9.69744,-10.8253,-5.55573,21.9182
2023-03-14 22:27:41:326,-1.03591,1.8891,-9.63442,-10.8231,-5.55069,21.9225
2023-03-14 22:27:41:336,-1.00482,1.89587,-9.59996,-10.8208,-5.5438,21.9251
2023-03-14 22:27:41:346,-0.986052,1.89444,-9.63058,-10.8131,-5.5362,21.926
2023-03-14 22:27:41:355,-0.931825,1.83148,-9.61534,-10.7999,-5.53081,21.9259
2023-03-14 22:27:41:366,-1.00667,1.83376,-9.55508,-10.7872,-5.52977,21.9287
2023-03-14 22:27:41:376,-1.02837,1.80514,-9.54326,-10.7762,-5.52865,21.9281
2023-03-14 22:27:41:385,-0.968851,1.79106,-9.53343,-10.7706,-5.52899,21.9262
2023-03-14 22:27:41:396,-0.936362,1.78002,-9.54264,-10.7641,-5.53078,21.9276
2023-03-14 22:27:41:406,-0.910175,1.76571,-9.53749,-10.7577,-5.52719,21.9246
2023-03-14 22:27:41:416,-0.9342,1.77016,-9.54156,-10.7542,-5.53042,21.9201
2023-03-14 22:27:41:425,-0.941982,1.78881,-9.55609,-10.75,-5.53483,21.9121
2023-03-14 22:27:41:435,-0.919073,1.77686,-9.56796,-10.7488,-5.52949,21.9078
2023-03-14 22:27:41:445,-0.895421,1.7822,-9.56279,-10.7438,-5.52509,21.9029
2023-03-14 22:27:41:455,-0.921532,1.80223,-9.55272,-10.742,-5.5205,21.901
2023-03-14 22:27:41:465,-0.935943,1.80914,-9.54953,-10.7392,-5.51804,21.8977
2023-03-14 22:27:41:475,-0.938169,1.80579,-9.53706,-10.7328,-5.5152,21.8979
2023-03-14 22:27:41:486,-0.931591,1.78271,-9.52599,-10.7316,-5.51127,21.9012
2023-03-14 22:27:41:496,-0.923304,1.76416,-9.51957,-10.7305,-5.50616,21.9071
2023-03-14 22:27:41:505,-0.917911,1.76319,-9.54202,-10.7325,-5.50157,21.9152
2023-03-14 22:27:41:516,-0.921291,1.76843,-9.54867,-10.7358,-5.49788,21.9235
2023-03-14 22:27:41:526,-0.901082,1.78153,-9.54618,-10.7426,-5.49341,21.9273
2023-03-14 22:27:41:535,-0.896651,1.77847,-9.54743,-10.7507,-5.4886,21.9312
2023-03-14 22:27:41:545,-0.940841,1.82827,-9.54308,-10.7608,-5.48515,21.9343
2023-03-14 22:27:41:556,-0.950966,1.79899,-9.5554,-10.7674,-5.48584,21.9295
2023-03-14 22:27:41:565,-0.843336,1.78687,-9.57399,-10.7775,-5.48421,21.9289
2023-03-14 22:27:41:576,-0.902356,1.81227,-9.5833,-10.7815,-5.48449,21.9301
2023-03-14 22:27:41:585,-0.915031,1.78642,-9.54587,-10.7925,-5.48562,21.9291
2023-03-14 22:27:41:596,-0.869856,1.77721,-9.54719,-10.7999,-5.48746,21.9251
2023-03-14 22:27:41:606,-0.921777,1.81078,-9.54674,-10.8157,-5.4903,21.9198
2023-03-14 22:27:41:616,-0.898705,1.85191,-9.58891,-10.8274,-5.49235,21.9082
2023-03-14 22:27:41:625,-0.879919,1.85026,-9.59526,-10.8391,-5.49973,21.8954
2023-03-14 22:27:41:636,-0.914627,1.85176,-9.55604,-10.8468,-5.50724,21.8853
2023-03-14 22:27:41:646,-0.959719,1.83016,-9.5376,-10.8594,-5.51368,21.874
2023-03-14 22:27:41:656,-0.96042,1.87445,-9.57369,-10.8729,-5.51805,21.859
2023-03-14 22:27:41:666,-0.990797,1.89582,-9.60692,-10.8832,-5.52065,21.8415
2023-03-14 22:27:41:676,-1.06571,2.0401,-9.71009,-10.8908,-5.5244,21.8137
2023-03-14 22:27:41:685,-0.95175,1.90142,-9.66262,-10.8731,-5.53343,21.7746
2023-03-14 22:27:41:695,-0.824848,1.85683,-9.53809,-10.8641,-5.53391,21.752
2023-03-14 22:27:41:706,-0.939885,1.88392,-9.57354,-10.8549,-5.53483,21.7316
2023-03-14 22:27:41:715,-1.03348,1.90925,-9.54892,-10.8507,-5.54032,21.7092
2023-03-14 22:27:41:726,-1.013,1.90243,-9.57068,-10.8484,-5.54732,21.68
2023-03-14 22:27:41:736,-0.956704,1.88932,-9.55936,-10.8432,-5.54574,21.648
2023-03-14 22:27:41:746,-0.899137,1.87126,-9.56588,-10.837,-5.54075,21.6167
2023-03-14 22:27:41:756,-0.866959,1.86956,-9.58892,-10.8336,-5.53758,21.5885
2023-03-14 22:27:41:766,-0.856674,1.87891,-9.61416,-10.8297,-5.53858,21.5572
2023-03-14 22:27:41:776,-0.84185,1.87877,-9.6337,-10.8186,-5.53793,21.5289
2023-03-14 22:27:41:786,-0.791705,1.84874,-9.64203,-10.8045,-5.53801,21.5028
2023-03-14 22:27:41:795,-0.755057,1.81356,-9.62137,-10.7882,-5.54053,21.4834
2023-03-14 22:27:41:806,-0.763692,1.75789,-9.57386,-10.7714,-5.54686,21.4668
2023-03-14 22:27:41:816,-0.795057,1.70668,-9.51825,-10.7577,-5.55542,21.4604
2023-03-14 22:27:41:826,-0.83486,1.69635,-9.49376,-10.747,-5.56773,21.4634
2023-03-14 22:27:41:835,-0.872333,1.72852,-9.50862,-10.744,-5.57699,21.4698
2023-03-14 22:27:41:846,-0.899416,1.75957,-9.54591,-10.7442,-5.58755,21.4832
2023-03-14 22:27:41:856,-0.925132,1.76514,-9.55987,-10.7444,-5.5976,21.5012
2023-03-14 22:27:41:866,-0.921214,1.76327,-9.54254,-10.7441,-5.60158,21.5241
2023-03-14 22:27:41:876,-0.921087,1.74726,-9.5388,-10.7485,-5.60177,21.5514
2023-03-14 22:27:41:886,-0.95476,1.74994,-9.52199,-10.7492,-5.60142,21.5842
2023-03-14 22:27:41:896,-1.0279,1.7532,-9.50186,-10.7524,-5.60841,21.6228
2023-03-14 22:27:41:906,-1.0739,1.74774,-9.48357,-10.7613,-5.60872,21.6584
2023-03-14 22:27:41:916,-1.07802,1.739,-9.49425,-10.7649,-5.60671,21.6975
2023-03-14 22:27:41:926,-1.08214,1.75012,-9.49776,-10.7739,-5.60068,21.7294
2023-03-14 22:27:41:936,-1.0754,1.73954,-9.4985,-10.7851,-5.59125,21.7598
2023-03-14 22:27:41:945,-1.08427,1.71975,-9.47461,-10.8014,-5.58403,21.7948
2023-03-14 22:27:41:956,-1.0999,1.73294,-9.47849,-10.8259,-5.57165,21.8258
2023-03-14 22:27:41:966,-1.12546,1.8027,-9.52718,-10.8548,-5.56164,21.8537
2023-03-14 22:27:41:976,-1.14399,1.89163,-9.59714,-10.8887,-5.54772,21.8703
2023-03-14 22:27:41:986,-1.12881,1.94686,-9.63905,-10.9179,-5.5364,21.8782
2023-03-14 22:27:41:996,-1.10978,1.95951,-9.63242,-10.9395,-5.51859,21.8738
2023-03-14 22:27:42:6,-1.07116,1.95117,-9.57192,-10.9582,-5.50703,21.8669
2023-03-14 22:27:42:16,-1.05401,1.92234,-9.53883,-10.9755,-5.49623,21.8533
2023-03-14 22:27:42:26,-1.04654,1.93749,-9.53826,-10.9925,-5.48381,21.8402
2023-03-14 22:27:42:35,-1.00008,1.96619,-9.56153,-11.0106,-5.46609,21.8189
2023-03-14 22:27:42:45,-0.936049,1.97276,-9.58658,-11.0257,-5.45008,21.7913
2023-03-14 22:27:42:56,-0.869368,1.94989,-9.5728,-11.0341,-5.43606,21.7616
2023-03-14 22:27:42:66,-0.831314,1.94186,-9.56601,-11.0424,-5.42317,21.7325
2023-03-14 22:27:42:76,-0.845382,1.94541,-9.55224,-11.0529,-5.41415,21.7059
2023-03-14 22:27:42:86,-0.881646,1.93823,-9.5567,-11.0621,-5.40752,21.6801
2023-03-14 22:27:42:96,-0.900493,1.96473,-9.55939,-11.0688,-5.39995,21.654
2023-03-14 22:27:42:106,-0.888945,1.97624,-9.57629,-11.0816,-5.39064,21.6244
2023-03-14 22:27:42:116,-0.862806,1.99027,-9.59733,-11.0899,-5.38371,21.5953
2023-03-14 22:27:42:126,-0.843508,2.01052,-9.61403,-11.0966,-5.37392,21.5673
2023-03-14 22:27:42:136,-0.83829,2.00591,-9.61844,-11.1003,-5.36377,21.5373
2023-03-14 22:27:42:146,-0.824641,2.01042,-9.59645,-11.0989,-5.35816,21.5064
2023-03-14 22:27:42:156,-0.808281,1.99554,-9.59386,-11.0978,-5.35381,21.4782
2023-03-14 22:27:42:165,-0.810287,1.98127,-9.58274,-11.0906,-5.35166,21.4509
2023-03-14 22:27:42:176,-0.814297,1.96015,-9.56652,-11.0855,-5.34984,21.4212
2023-03-14 22:27:42:186,-0.819321,1.95019,-9.56869,-11.0802,-5.35187,21.3957
2023-03-14 22:27:42:196,-0.832977,1.95439,-9.57392,-11.0741,-5.36362,21.3737
2023-03-14 22:27:42:206,-0.876856,1.95247,-9.57127,-11.0704,-5.37448,21.3556
2023-03-14 22:27:42:216,-0.91048,1.94374,-9.57931,-11.0652,-5.38738,21.3346
2023-03-14 22:27:42:225,-0.910033,1.92934,-9.5743,-11.0593,-5.39871,21.3139
2023-03-14 22:27:42:236,-0.917239,1.93002,-9.56927,-11.0521,-5.40699,21.2925
2023-03-14 22:27:42:246,-0.925394,1.92223,-9.56988,-11.0419,-5.41353,21.273
2023-03-14 22:27:42:256,-0.941568,1.89277,-9.5526,-11.032,-5.41822,21.2558
2023-03-14 22:27:42:266,-0.960143,1.87543,-9.55557,-11.0226,-5.42047,21.2374
2023-03-14 22:27:42:276,-0.976374,1.89577,-9.55761,-11.0168,-5.41879,21.2125
2023-03-14 22:27:42:286,-0.976406,1.9092,-9.56222,-11.0112,-5.41693,21.184
2023-03-14 22:27:42:296,-0.957303,1.90554,-9.57068,-11.004,-5.40948,21.1487
2023-03-14 22:27:42:306,-0.918683,1.90743,-9.56695,-10.9972,-5.4034,21.1148
2023-03-14 22:27:42:316,-0.89584,1.90914,-9.5646,-10.9844,-5.39501,21.0722
2023-03-14 22:27:42:326,-0.886109,1.90092,-9.54916,-10.9706,-5.3874,21.0294
2023-03-14 22:27:42:335,-0.882416,1.88981,-9.51514,-10.9615,-5.38141,20.9817
2023-03-14 22:27:42:346,-0.888276,1.9103,-9.51924,-10.953,-5.37542,20.9338
2023-03-14 22:27:42:356,-0.893403,1.89892,-9.55849,-10.9489,-5.36939,20.8837
2023-03-14 22:27:42:366,-0.878861,1.92972,-9.61073,-10.9437,-5.36457,20.8305
2023-03-14 22:27:42:376,-0.850533,1.94142,-9.64241,-10.9331,-5.35943,20.7744
2023-03-14 22:27:42:386,-0.867201,1.92165,-9.59686,-10.9172,-5.35849,20.7188
2023-03-14 22:27:42:396,-0.919506,1.875,-9.54089,-10.8975,-5.36188,20.6601
2023-03-14 22:27:42:406,-0.963923,1.85522,-9.48401,-10.8809,-5.36588,20.5993
2023-03-14 22:27:42:416,-0.963642,1.83638,-9.47336,-10.8701,-5.36865,20.53
2023-03-14 22:27:42:425,-0.965757,1.85474,-9.50444,-10.863,-5.36983,20.4522
2023-03-14 22:27:42:436,-0.980978,1.89705,-9.53655,-10.8617,-5.37368,20.3656
2023-03-14 22:27:42:446,-0.988166,1.9187,-9.58836,-10.8569,-5.37572,20.2773
2023-03-14 22:27:42:456,-0.963121,1.94154,-9.6522,-10.8513,-5.37501,20.1785
2023-03-14 22:27:42:466,-0.861353,1.93772,-9.71752,-10.8384,-5.37904,20.0692
2023-03-14 22:27:42:476,-0.743589,1.90784,-9.7509,-10.8149,-5.38993,19.9579
2023-03-14 22:27:42:486,-0.734362,1.87428,-9.72802,-10.7852,-5.40529,19.8555
2023-03-14 22:27:42:496,-0.816847,1.81235,-9.63384,-10.7456,-5.43321,19.7552
2023-03-14 22:27:42:505,-0.933862,1.73122,-9.49376,-10.7014,-5.47224,19.656
2023-03-14 22:27:42:516,-1.04633,1.63705,-9.35812,-10.6564,-5.51775,19.5596
2023-03-14 22:27:42:526,-1.14197,1.56345,-9.29159,-10.6234,-5.55783,19.4654
2023-03-14 22:27:42:536,-1.18822,1.56785,-9.30996,-10.6077,-5.59348,19.3639
2023-03-14 22:27:42:546,-1.14854,1.62327,-9.44488,-10.6075,-5.62537,19.2563
2023-03-14 22:27:42:555,-1.05249,1.71376,-9.61766,-10.6161,-5.65214,19.1431
2023-03-14 22:27:42:565,-0.924611,1.7598,-9.79785,-10.6202,-5.68343,19.0277
2023-03-14 22:27:42:575,-0.817322,1.77409,-9.8957,-10.6052,-5.72132,18.9142
2023-03-14 22:27:42:586,-0.833842,1.72577,-9.79895,-10.5709,-5.76238,18.81
2023-03-14 22:27:42:595,-0.968621,1.59474,-9.56738,-10.5218,-5.80683,18.7265
2023-03-14 22:27:42:606,-1.12808,1.46297,-9.34771,-10.4731,-5.84837,18.6522
2023-03-14 22:27:42:616,-1.22323,1.40127,-9.21388,-10.4385,-5.87864,18.587
2023-03-14 22:27:42:626,-1.2166,1.4188,-9.22759,-10.4259,-5.89401,18.5246
2023-03-14 22:27:42:636,-1.15085,1.4836,-9.36373,-10.4365,-5.90308,18.4592
2023-03-14 22:27:42:646,-1.07257,1.60839,-9.52813,-10.4572,-5.90272,18.393
2023-03-14 22:27:42:656,-1.00968,1.697,-9.66274,-10.4781,-5.90388,18.3231
2023-03-14 22:27:42:666,-0.974524,1.715,-9.71107,-10.4893,-5.90153,18.2581
2023-03-14 22:27:42:676,-0.942099,1.68994,-9.69855,-10.4899,-5.89784,18.1983
2023-03-14 22:27:42:686,-0.914261,1.65004,-9.66488,-10.48,-5.89067,18.1412
2023-03-14 22:27:42:696,-0.895225,1.58784,-9.62297,-10.4645,-5.8816,18.0953
2023-03-14 22:27:42:705,-0.901017,1.53222,-9.53863,-10.4476,-5.8719,18.0601
2023-03-14 22:27:42:716,-0.947929,1.50534,-9.47714,-10.437,-5.8624,18.0314
2023-03-14 22:27:42:725,-0.998424,1.53098,-9.47536,-10.436,-5.8544,18.0061
2023-03-14 22:27:42:736,-1.04496,1.59052,-9.50796,-10.4468,-5.84923,17.9852
2023-03-14 22:27:42:746,-1.04885,1.65741,-9.55476,-10.4646,-5.84828,17.9645
2023-03-14 22:27:42:756,-1.01317,1.70315,-9.56259,-10.4857,-5.84217,17.9395
2023-03-14 22:27:42:766,-0.980506,1.69875,-9.53175,-10.5008,-5.83265,17.9133
2023-03-14 22:27:42:776,-0.935121,1.65833,-9.46401,-10.5171,-5.82324,17.8946
2023-03-14 22:27:42:786,-0.956819,1.63707,-9.39242,-10.535,-5.81348,17.8811
2023-03-14 22:27:42:796,-1.00722,1.64257,-9.37268,-10.5662,-5.80715,17.8725
2023-03-14 22:27:42:806,-1.05078,1.69903,-9.40879,-10.6063,-5.79828,17.8676
2023-03-14 22:27:42:816,-1.08613,1.76582,-9.46841,-10.6559,-5.79062,17.8613
2023-03-14 22:27:42:826,-1.15093,1.83228,-9.49573,-10.7101,-5.78037,17.8515
2023-03-14 22:27:42:836,-1.1766,1.88088,-9.52177,-10.7663,-5.76212,17.8374
2023-03-14 22:27:42:846,-1.12773,1.93484,-9.53464,-10.8201,-5.73828,17.8124
2023-03-14 22:27:42:856,-1.06779,1.95297,-9.51539,-10.877,-5.7073,17.778
2023-03-14 22:27:42:866,-0.995912,1.95403,-9.50811,-10.931,-5.67721,17.7379
2023-03-14 22:27:42:876,-0.931494,1.94784,-9.52385,-10.9897,-5.65089,17.6966
2023-03-14 22:27:42:886,-0.885826,1.968,-9.5422,-11.0521,-5.62599,17.6563
2023-03-14 22:27:42:896,-0.86869,2.02441,-9.54801,-11.1177,-5.60314,17.6145
2023-03-14 22:27:42:906,-0.851905,2.07286,-9.58666,-11.1833,-5.58411,17.5715
2023-03-14 22:27:42:916,-0.841043,2.11333,-9.64037,-11.2472,-5.5657,17.523
2023-03-14 22:27:42:926,-0.81858,2.14692,-9.66269,-11.3027,-5.55271,17.476
2023-03-14 22:27:42:936,-0.823834,2.16793,-9.69301,-11.3559,-5.53954,17.4279
2023-03-14 22:27:42:946,-0.787003,2.17825,-9.72819,-11.4002,-5.52299,17.3772
2023-03-14 22:27:42:956,-0.714548,2.16713,-9.76135,-11.4367,-5.50863,17.3216
2023-03-14 22:27:42:965,-0.684696,2.12748,-9.74839,-11.4638,-5.5025,17.2708
2023-03-14 22:27:42:976,-0.690865,2.07242,-9.70471,-11.481,-5.50887,17.2262
2023-03-14 22:27:42:985,-0.713161,2.02692,-9.64647,-11.4917,-5.51463,17.185
2023-03-14 22:27:42:996,-0.730774,1.97176,-9.58384,-11.4961,-5.51961,17.1531
2023-03-14 22:27:43:6,-0.756135,1.91956,-9.51109,-11.5027,-5.52747,17.1291
2023-03-14 22:27:43:16,-0.784334,1.88604,-9.45853,-11.5121,-5.53967,17.1078
2023-03-14 22:27:43:26,-0.803436,1.87309,-9.43189,-11.5294,-5.55122,17.0946
2023-03-14 22:27:43:35,-0.89367,1.90662,-9.42503,-11.5582,-5.56268,17.0844
2023-03-14 22:27:43:46,-1.02984,1.9784,-9.47476,-11.5932,-5.57231,17.0742
2023-03-14 22:27:43:56,-1.13451,2.04421,-9.53179,-11.6297,-5.5817,17.0528
2023-03-14 22:27:43:65,-1.16077,2.08998,-9.52144,-11.6691,-5.58507,17.0189
2023-03-14 22:27:43:75,-1.08886,2.10987,-9.51433,-11.7022,-5.58377,16.9676
2023-03-14 22:27:43:85,-1.00272,2.10459,-9.51764,-11.7346,-5.58193,16.9029
2023-03-14 22:27:43:96,-0.953507,2.09194,-9.51907,-11.7656,-5.58423,16.8315
2023-03-14 22:27:43:106,-0.902267,2.08301,-9.53619,-11.7986,-5.59345,16.7506
2023-03-14 22:27:43:116,-0.863319,2.06569,-9.5594,-11.8255,-5.61007,16.6685
2023-03-14 22:27:43:125,-0.83409,2.02854,-9.56504,-11.8454,-5.6279,16.5873
2023-03-14 22:27:43:136,-0.810133,1.97675,-9.57704,-11.8611,-5.64472,16.5103
2023-03-14 22:27:43:146,-0.805023,1.98509,-9.58654,-11.8742,-5.65761,16.4406
2023-03-14 22:27:43:155,-0.807389,1.96329,-9.57545,-11.8876,-5.66623,16.3802
2023-03-14 22:27:43:166,-0.789573,1.92848,-9.56744,-11.9005,-5.67348,16.3291
2023-03-14 22:27:43:176,-0.769825,1.90975,-9.5548,-11.9157,-5.68258,16.2931
2023-03-14 22:27:43:186,-0.776369,1.90439,-9.55333,-11.9339,-5.69051,16.2711
2023-03-14 22:27:43:196,-0.82986,1.92454,-9.53672,-11.9577,-5.69834,16.2684
2023-03-14 22:27:43:206,-0.896228,1.98113,-9.51262,-11.9884,-5.70417,16.2758
2023-03-14 22:27:43:216,-0.968906,2.02932,-9.45651,-12.0242,-5.70177,16.2941
2023-03-14 22:27:43:225,-1.01109,2.08364,-9.41641,-12.062,-5.68974,16.3207
2023-03-14 22:27:43:236,-1.02764,2.1282,-9.39715,-12.1006,-5.66573,16.3548
2023-03-14 22:27:43:246,-1.03689,2.17588,-9.38966,-12.1332,-5.62596,16.3909
2023-03-14 22:27:43:256,-1.02217,2.19557,-9.38375,-12.1602,-5.5751,16.4264
2023-03-14 22:27:43:266,-0.969035,2.17701,-9.38178,-12.189,-5.51459,16.4629
2023-03-14 22:27:43:276,-0.908322,2.1792,-9.41383,-12.2184,-5.45225,16.4986
2023-03-14 22:27:43:286,-0.894515,2.18109,-9.43792,-12.2449,-5.38873,16.533
2023-03-14 22:27:43:296,-0.884243,2.21309,-9.46878,-12.2748,-5.33038,16.5647
2023-03-14 22:27:43:306,-0.843804,2.21461,-9.52448,-12.3036,-5.27734,16.5934
2023-03-14 22:27:43:316,-0.800431,2.21059,-9.57945,-12.3318,-5.2287,16.6154
2023-03-14 22:27:43:326,-0.763861,2.22153,-9.62785,-12.3574,-5.18617,16.6364
2023-03-14 22:27:43:336,-0.746202,2.23383,-9.6552,-12.3838,-5.15399,16.6561
2023-03-14 22:27:43:346,-0.754976,2.24953,-9.67767,-12.4091,-5.13876,16.675
2023-03-14 22:27:43:356,-0.760694,2.24508,-9.68245,-12.4319,-5.14044,16.6926
2023-03-14 22:27:43:365,-0.805862,2.23817,-9.65151,-12.4468,-5.1492,16.7148
2023-03-14 22:27:43:376,-0.871671,2.24321,-9.60662,-12.4628,-5.16829,16.7373
2023-03-14 22:27:43:386,-0.933682,2.24046,-9.58625,-12.4752,-5.19211,16.7587
2023-03-14 22:27:43:396,-1.00145,2.23869,-9.5723,-12.485,-5.21808,16.7782
2023-03-14 22:27:43:406,-1.0256,2.22697,-9.55332,-12.4919,-5.24288,16.7942
2023-03-14 22:27:43:416,-1.0451,2.21548,-9.52361,-12.4901,-5.26519,16.8076
2023-03-14 22:27:43:426,-1.05031,2.18226,-9.50626,-12.4857,-5.28117,16.8168
2023-03-14 22:27:43:436,-1.03743,2.15552,-9.4716,-12.4759,-5.29345,16.8247
2023-03-14 22:27:43:446,-1.02931,2.13148,-9.44965,-12.464,-5.29998,16.8336
2023-03-14 22:27:43:456,-1.00942,2.10111,-9.4601,-12.4561,-5.30946,16.8403
2023-03-14 22:27:43:465,-0.99014,2.09698,-9.46702,-12.448,-5.31342,16.843
2023-03-14 22:27:43:476,-0.990238,2.1021,-9.50949,-12.4392,-5.3172,16.8498
2023-03-14 22:27:43:486,-0.99516,2.11933,-9.54003,-12.428,-5.32202,16.8504
2023-03-14 22:27:43:495,-0.973263,2.11427,-9.55298,-12.4145,-5.32107,16.8429
2023-03-14 22:27:43:506,-0.9585,2.10344,-9.52313,-12.4037,-5.32197,16.8363
2023-03-14 22:27:43:516,-0.936166,2.0836,-9.48902,-12.3895,-5.32281,16.8321
2023-03-14 22:27:43:526,-0.924063,2.09018,-9.47814,-12.3804,-5.32053,16.8279
2023-03-14 22:27:43:536,-0.919408,2.10581,-9.5203,-12.3776,-5.32047,16.8216
2023-03-14 22:27:43:546,-0.905055,2.13231,-9.53641,-12.3689,-5.31637,16.8119
2023-03-14 22:27:43:556,-0.908003,2.14571,-9.56591,-12.3608,-5.31191,16.8048
2023-03-14 22:27:43:566,-0.886706,2.15778,-9.623,-12.354,-5.30558,16.7987
2023-03-14 22:27:43:575,-0.840344,2.17017,-9.64059,-12.3431,-5.30536,16.7874
2023-03-14 22:27:43:585,-0.785273,2.16179,-9.62838,-12.3235,-5.30187,16.775
2023-03-14 22:27:43:596,-0.775968,2.14904,-9.58881,-12.3018,-5.30533,16.7613
2023-03-14 22:27:43:606,-0.804851,2.14783,-9.55709,-12.2833,-5.30926,16.7533
2023-03-14 22:27:43:616,-0.833688,2.14914,-9.52978,-12.2608,-5.31508,16.7457
2023-03-14 22:27:43:626,-0.815209,2.14412,-9.53709,-12.2399,-5.32487,16.7429
2023-03-14 22:27:43:636,-0.803982,2.14281,-9.53151,-12.2166,-5.33292,16.737
2023-03-14 22:27:43:646,-0.791605,2.14113,-9.5223,-12.1919,-5.34852,16.7297
2023-03-14 22:27:43:656,-0.775215,2.14644,-9.52047,-12.1674,-5.36494,16.7253
2023-03-14 22:27:43:666,-0.795657,2.15665,-9.53605,-12.1434,-5.38584,16.7267
2023-03-14 22:27:43:676,-0.839124,2.14836,-9.54814,-12.118,-5.41478,16.7248
2023-03-14 22:27:43:686,-0.84006,2.12493,-9.55036,-12.0869,-5.43964,16.7257
2023-03-14 22:27:43:696,-0.844768,2.10472,-9.55151,-12.0577,-5.46629,16.7312
2023-03-14 22:27:43:706,-0.862626,2.09825,-9.53611,-12.0252,-5.49502,16.7385
2023-03-14 22:27:43:716,-0.897912,2.07045,-9.50184,-11.9907,-5.52554,16.7463
2023-03-14 22:27:43:725,-0.932704,2.05054,-9.4923,-11.9603,-5.55642,16.7524
2023-03-14 22:27:43:736,-0.961801,2.04708,-9.49295,-11.9307,-5.58734,16.7608
2023-03-14 22:27:43:745,-0.960803,2.03888,-9.50647,-11.8988,-5.61746,16.7655
2023-03-14 22:27:43:756,-0.984046,2.02877,-9.51527,-11.872,-5.64488,16.7745
2023-03-14 22:27:43:766,-0.991884,2.03115,-9.5294,-11.8446,-5.67797,16.7805
2023-03-14 22:27:43:776,-1.01089,2.03442,-9.53002,-11.8187,-5.71597,16.7828
2023-03-14 22:27:43:786,-1.0185,2.02608,-9.52066,-11.7924,-5.75273,16.788
2023-03-14 22:27:43:796,-1.07783,2.00817,-9.48943,-11.7625,-5.79218,16.7923
2023-03-14 22:27:43:806,-1.17808,2.00157,-9.45597,-11.7367,-5.83352,16.7955
2023-03-14 22:27:43:816,-1.2471,2.00185,-9.45712,-11.7129,-5.86848,16.7931
2023-03-14 22:27:43:825,-1.22606,2.0189,-9.50328,-11.6884,-5.89513,16.7833
2023-03-14 22:27:43:836,-1.17003,1.99203,-9.50779,-11.6642,-5.91699,16.7693
2023-03-14 22:27:43:846,-1.16413,1.95917,-9.47676,-11.6359,-5.9364,16.753
2023-03-14 22:27:43:856,-1.20188,1.92881,-9.45122,-11.61,-5.95704,16.7329
2023-03-14 22:27:43:866,-1.21962,1.91277,-9.45031,-11.585,-5.97572,16.7119
2023-03-14 22:27:43:876,-1.2023,1.91539,-9.46486,-11.5614,-5.98708,16.6857
2023-03-14 22:27:43:886,-1.16573,1.92505,-9.48217,-11.5402,-5.99533,16.6526
2023-03-14 22:27:43:896,-1.13421,1.90949,-9.47504,-11.5185,-5.99747,16.6125
2023-03-14 22:27:43:906,-1.08949,1.8842,-9.45209,-11.4966,-5.99913,16.5797
2023-03-14 22:27:43:916,-1.04577,1.86506,-9.46129,-11.4762,-5.99334,16.5429
2023-03-14 22:27:43:925,-1.01033,1.8531,-9.46542,-11.4614,-5.98876,16.5064
2023-03-14 22:27:43:935,-0.977507,1.84747,-9.47952,-11.4505,-5.98044,16.4733
2023-03-14 22:27:43:945,-0.971885,1.85564,-9.50657,-11.4431,-5.97775,16.4419
2023-03-14 22:27:43:956,-0.98047,1.88598,-9.52178,-11.4388,-5.97298,16.4144
2023-03-14 22:27:43:965,-0.987023,1.89602,-9.52906,-11.436,-5.96578,16.3857
2023-03-14 22:27:43:976,-0.97259,1.89147,-9.51694,-11.4334,-5.95805,16.3585
2023-03-14 22:27:43:986,-0.954576,1.87357,-9.52158,-11.4319,-5.95119,16.3334
2023-03-14 22:27:43:995,-0.934731,1.86129,-9.51328,-11.4335,-5.94317,16.3134
2023-03-14 22:27:44:6,-0.935858,1.86267,-9.51157,-11.4332,-5.94181,16.2935
2023-03-14 22:27:44:16,-0.94208,1.86893,-9.50001,-11.4343,-5.93776,16.2764
2023-03-14 22:27:44:26,-0.935624,1.86751,-9.5077,-11.4374,-5.9362,16.2653
2023-03-14 22:27:44:36,-0.934514,1.88919,-9.52413,-11.4457,-5.93202,16.252
2023-03-14 22:27:44:46,-0.920485,1.89625,-9.53552,-11.4524,-5.92857,16.2388
2023-03-14 22:27:44:55,-0.904637,1.90561,-9.5488,-11.4589,-5.92561,16.2284
2023-03-14 22:27:44:66,-0.923375,1.9252,-9.54391,-11.4676,-5.92248,16.2228
2023-03-14 22:27:44:76,-0.910142,1.91759,-9.54384,-11.4708,-5.92066,16.2158
2023-03-14 22:27:44:86,-0.906162,1.90851,-9.53581,-11.4741,-5.91969,16.2095
2023-03-14 22:27:44:95,-0.897167,1.91013,-9.53526,-11.4801,-5.91864,16.204
2023-03-14 22:27:44:105,-0.899159,1.91368,-9.54159,-11.4855,-5.91938,16.2042
2023-03-14 22:27:44:116,-0.903545,1.9084,-9.52983,-11.4919,-5.92379,16.2054
2023-03-14 22:27:44:126,-0.915061,1.90871,-9.52038,-11.4949,-5.92705,16.2092
2023-03-14 22:27:44:136,-0.945261,1.91181,-9.51172,-11.5042,-5.92874,16.2158
2023-03-14 22:27:44:146,-0.960012,1.92758,-9.51384,-11.5149,-5.93369,16.2256
2023-03-14 22:27:44:156,-0.958699,1.94148,-9.52082,-11.5273,-5.93634,16.2333
2023-03-14 22:27:44:166,-0.961577,1.96004,-9.53509,-11.5414,-5.94024,16.2454
2023-03-14 22:27:44:176,-0.969595,1.9741,-9.53183,-11.5563,-5.94444,16.2536
2023-03-14 22:27:44:186,-0.989433,1.98105,-9.54367,-11.5714,-5.95133,16.2656
2023-03-14 22:27:44:196,-0.985436,1.98465,-9.5546,-11.5842,-5.95733,16.2755
2023-03-14 22:27:44:206,-0.984063,1.99466,-9.56708,-11.5982,-5.96375,16.2866
2023-03-14 22:27:44:216,-0.998565,2.02608,-9.58754,-11.6121,-5.97189,16.2949
2023-03-14 22:27:44:226,-1.00152,2.0357,-9.58715,-11.6196,-5.97775,16.3014
2023-03-14 22:27:44:236,-1.01248,2.02705,-9.56565,-11.6222,-5.98284,16.3085
2023-03-14 22:27:44:246,-1.01592,2.00852,-9.56754,-11.6239,-5.98814,16.3143
2023-03-14 22:27:44:256,-1.02673,1.9992,-9.54815,-11.624,-5.99456,16.3217
2023-03-14 22:27:44:266,-1.03513,1.99862,-9.51876,-11.6245,-6.00197,16.3313
2023-03-14 22:27:44:276,-1.02864,2.00134,-9.50976,-11.6296,-6.00551,16.3381
2023-03-14 22:27:44:286,-1.03561,2.00096,-9.51739,-11.63,-6.00561,16.3471
2023-03-14 22:27:44:296,-1.03377,2.01796,-9.52602,-11.631,-6.00632,16.3523
2023-03-14 22:27:44:306,-1.04751,2.02467,-9.53995,-11.6351,-6.00778,16.3569
2023-03-14 22:27:44:316,-1.07831,2.02367,-9.56235,-11.6358,-6.01287,16.3665
2023-03-14 22:27:44:326,-1.08386,2.0177,-9.55707,-11.6357,-6.00741,16.3707
2023-03-14 22:27:44:336,-1.06333,1.9979,-9.53762,-11.632,-5.9991,16.3713
2023-03-14 22:27:44:345,-1.05805,1.997,-9.51982,-11.623,-5.99362,16.371
2023-03-14 22:27:44:356,-1.04829,1.98219,-9.50703,-11.6156,-5.98708,16.3695
2023-03-14 22:27:44:366,-1.03934,1.96897,-9.51735,-11.6102,-5.98204,16.364
2023-03-14 22:27:44:376,-1.05069,1.9912,-9.54396,-11.6051,-5.97609,16.3584
2023-03-14 22:27:44:385,-1.06311,2.00471,-9.56923,-11.5984,-5.97176,16.3521
2023-03-14 22:27:44:396,-1.0773,2.00224,-9.58668,-11.5873,-5.96479,16.3427
2023-03-14 22:27:44:406,-1.0638,1.99159,-9.59699,-11.5778,-5.95619,16.325
2023-03-14 22:27:44:416,-1.00409,1.96407,-9.58214,-11.5552,-5.94879,16.3048
2023-03-14 22:27:44:426,-0.945302,1.91392,-9.5502,-11.5379,-5.94073,16.2832
2023-03-14 22:27:44:436,-0.945586,1.87776,-9.49889,-11.5211,-5.93788,16.2638
2023-03-14 22:27:44:446,-0.97653,1.88261,-9.48082,-11.5063,-5.94107,16.2441
2023-03-14 22:27:44:456,-0.98336,1.91036,-9.489,-11.4984,-5.94367,16.2224
2023-03-14 22:27:44:465,-0.97592,1.93532,-9.51745,-11.4964,-5.94708,16.2013
2023-03-14 22:27:44:475,-0.94515,1.94376,-9.52592,-11.4936,-5.94773,16.1793
2023-03-14 22:27:44:485,-0.887369,1.93448,-9.50732,-11.4874,-5.95107,16.1571
2023-03-14 22:27:44:496,-0.876947,1.91565,-9.50572,-11.4856,-5.95648,16.1402
2023-03-14 22:27:44:506,-0.884899,1.92413,-9.50844,-11.4821,-5.96228,16.1278
2023-03-14 22:27:44:516,-0.907577,1.92607,-9.50569,-11.4798,-5.96552,16.1169
2023-03-14 22:27:44:526,-0.935856,1.93778,-9.50262,-11.4801,-5.97175,16.1071
2023-03-14 22:27:44:536,-0.93862,1.93541,-9.4973,-11.4787,-5.97539,16.1003
2023-03-14 22:27:44:546,-0.965674,1.90238,-9.49637,-11.4777,-5.98153,16.0958
2023-03-14 22:27:44:556,-0.980054,1.88343,-9.48898,-11.4761,-5.98894,16.0938
2023-03-14 22:27:44:565,-0.977763,1.88637,-9.48123,-11.4738,-5.99296,16.093
2023-03-14 22:27:44:576,-0.984266,1.88646,-9.50177,-11.4784,-5.99742,16.0933
2023-03-14 22:27:44:586,-0.985807,1.90579,-9.53091,-11.482,-6.00027,16.0948
2023-03-14 22:27:44:596,-0.982863,1.89568,-9.5429,-11.4877,-5.99855,16.0959
2023-03-14 22:27:44:606,-0.968845,1.89667,-9.52885,-11.4912,-5.99641,16.0992
2023-03-14 22:27:44:615,-0.957762,1.91007,-9.5188,-11.5,-5.99414,16.1028
2023-03-14 22:27:44:626,-0.961709,1.92147,-9.52166,-11.5102,-5.9966,16.113
2023-03-14 22:27:44:635,-1.01134,1.93814,-9.50867,-11.5221,-5.99946,16.1207
2023-03-14 22:27:44:646,-1.04753,1.93798,-9.49685,-11.535,-6.00204,16.1295
2023-03-14 22:27:44:656,-1.05947,1.96277,-9.51447,-11.5477,-6.00279,16.1351
2023-03-14 22:27:44:666,-1.00556,1.99265,-9.55113,-11.5609,-5.99816,16.1364
2023-03-14 22:27:44:676,-0.957522,1.97907,-9.54824,-11.5694,-5.99581,16.1376
2023-03-14 22:27:44:686,-0.982917,1.96892,-9.52147,-11.5746,-5.99818,16.1399
2023-03-14 22:27:44:696,-1.04308,1.9588,-9.52039,-11.5798,-6.00498,16.1413
2023-03-14 22:27:44:706,-1.08736,1.97094,-9.49385,-11.5861,-6.01344,16.1441
2023-03-14 22:27:44:716,-1.08151,1.96624,-9.5003,-11.5956,-6.01995,16.1433
2023-03-14 22:27:44:726,-1.06351,1.96825,-9.48995,-11.6025,-6.02313,16.1373
2023-03-14 22:27:44:735,-1.04788,1.96667,-9.49798,-11.6129,-6.01867,16.132
2023-03-14 22:27:44:746,-1.02273,1.9731,-9.5085,-11.625,-6.01741,16.1248
2023-03-14 22:27:44:756,-1.00667,1.98195,-9.52518,-11.6375,-6.01413,16.1175
2023-03-14 22:27:44:766,-1.00111,1.98631,-9.54141,-11.6487,-6.01499,16.1147
2023-03-14 22:27:44:776,-1.00775,1.98763,-9.54686,-11.6596,-6.01274,16.1108
2023-03-14 22:27:44:786,-1.00456,1.9877,-9.52872,-11.6712,-6.01278,16.1055
2023-03-14 22:27:44:796,-1.0011,1.98398,-9.53272,-11.682,-6.01367,16.0989
2023-03-14 22:27:44:806,-0.976678,1.99978,-9.53257,-11.6929,-6.01747,16.0929
2023-03-14 22:27:44:816,-0.96749,1.9957,-9.52331,-11.7024,-6.02133,16.087
2023-03-14 22:27:44:826,-0.974103,1.99197,-9.51697,-11.7146,-6.02809,16.0785
2023-03-14 22:27:44:836,-0.967936,1.98839,-9.52351,-11.7269,-6.0346,16.0734
2023-03-14 22:27:44:845,-0.957213,2.00084,-9.53123,-11.7333,-6.04005,16.0712
2023-03-14 22:27:44:856,-0.973537,2.00583,-9.53863,-11.746,-6.04722,16.069
2023-03-14 22:27:44:865,-0.973826,2.00611,-9.5327,-11.7533,-6.0538,16.0722
2023-03-14 22:27:44:876,-0.988388,2.01417,-9.52724,-11.7601,-6.06182,16.0786
2023-03-14 22:27:44:886,-1.00113,2.03106,-9.54018,-11.7682,-6.06818,16.0871
2023-03-14 22:27:44:896,-1.02704,2.02725,-9.54427,-11.7767,-6.07256,16.0988
2023-03-14 22:27:44:905,-1.03346,2.01951,-9.53873,-11.7826,-6.07761,16.1113
2023-03-14 22:27:44:916,-1.02738,2.01313,-9.52561,-11.7881,-6.07834,16.1213
2023-03-14 22:27:44:926,-1.03697,2.00463,-9.51395,-11.7918,-6.08057,16.1327
2023-03-14 22:27:44:936,-1.04174,2.01178,-9.51117,-11.7962,-6.08526,16.1466
2023-03-14 22:27:44:946,-1.05452,2.01872,-9.51561,-11.8039,-6.08832,16.1562
2023-03-14 22:27:44:956,-1.06323,2.01886,-9.50741,-11.8114,-6.09527,16.1646
2023-03-14 22:27:44:966,-1.06049,2.00805,-9.4944,-11.8163,-6.10415,16.1778
2023-03-14 22:27:44:976,-1.04869,2.00651,-9.49723,-11.8219,-6.11011,16.1854
2023-03-14 22:27:44:986,-1.03661,2.00911,-9.49372,-11.8299,-6.11865,16.1947
2023-03-14 22:27:44:996,-1.01345,1.99525,-9.4947,-11.8328,-6.12505,16.2017
2023-03-14 22:27:45:6,-0.991435,1.98941,-9.50373,-11.8387,-6.13001,16.2121
2023-03-14 22:27:45:16,-0.991729,1.99999,-9.53479,-11.8454,-6.13637,16.2233
2023-03-14 22:27:45:26,-1.00522,2.0188,-9.55966,-11.855,-6.14156,16.241
2023-03-14 22:27:45:36,-1.04527,2.02339,-9.55382,-11.8609,-6.14763,16.2573
2023-03-14 22:27:45:46,-1.07043,2.02865,-9.52681,-11.8646,-6.14867,16.2751
2023-03-14 22:27:45:56,-1.07687,2.0234,-9.52079,-11.8666,-6.14877,16.2939
2023-03-14 22:27:45:66,-1.08117,2.01529,-9.52167,-11.868,-6.14852,16.3126
2023-03-14 22:27:45:75,-1.09194,2.01305,-9.52115,-11.8702,-6.14899,16.3291
2023-03-14 22:27:45:86,-1.10462,2.02613,-9.51808,-11.8717,-6.14956,16.3462
2023-03-14 22:27:45:96,-1.10049,2.02761,-9.52389,-11.873,-6.15199,16.3539
2023-03-14 22:27:45:106,-1.09394,2.02548,-9.51007,-11.8739,-6.156,16.362
2023-03-14 22:27:45:116,-1.09346,2.0262,-9.50991,-11.8769,-6.15928,16.3695
2023-03-14 22:27:45:126,-1.09589,2.02021,-9.51667,-11.8765,-6.16498,16.3744
2023-03-14 22:27:45:135,-1.09688,2.01874,-9.50043,-11.8779,-6.16917,16.3736
2023-03-14 22:27:45:146,-1.09132,2.01682,-9.48887,-11.8757,-6.17,16.374
2023-03-14 22:27:45:156,-1.08088,2.00825,-9.48804,-11.878,-6.17651,16.372
2023-03-14 22:27:45:166,-1.07097,2.0128,-9.49287,-11.881,-6.18092,16.3706
2023-03-14 22:27:45:176,-1.08847,2.02411,-9.51093,-11.8854,-6.18121,16.3699
2023-03-14 22:27:45:186,-1.10676,2.02454,-9.52721,-11.8869,-6.18054,16.3704
2023-03-14 22:27:45:196,-1.10482,2.03141,-9.51907,-11.8899,-6.1795,16.3641
2023-03-14 22:27:45:206,-1.10158,2.02805,-9.4975,-11.8883,-6.17784,16.3605
2023-03-14 22:27:45:216,-1.07879,2.02174,-9.48675,-11.8895,-6.17496,16.3501
2023-03-14 22:27:45:226,-1.04564,2.0074,-9.49701,-11.8919,-6.16994,16.3419
2023-03-14 22:27:45:236,-1.03106,1.99661,-9.50393,-11.8933,-6.16572,16.3359
2023-03-14 22:27:45:246,-1.02021,1.9945,-9.50736,-11.8945,-6.1644,16.3294
2023-03-14 22:27:45:256,-1.01748,1.98433,-9.51609,-11.8975,-6.16329,16.3226
2023-03-14 22:27:45:266,-0.99358,2.00346,-9.56318,-11.9011,-6.16273,16.3115
2023-03-14 22:27:45:276,-0.936144,2.02639,-9.60797,-11.9019,-6.15822,16.2993
2023-03-14 22:27:45:286,-0.899366,2.01755,-9.60238,-11.8981,-6.16036,16.2896
2023-03-14 22:27:45:296,-0.927466,1.9968,-9.55751,-11.8943,-6.16415,16.2852
2023-03-14 22:27:45:306,-0.984604,1.99648,-9.50814,-11.8916,-6.16959,16.289
2023-03-14 22:27:45:315,-1.04487,2.01313,-9.49702,-11.8928,-6.17801,16.2901
2023-03-14 22:27:45:326,-1.05472,2.0301,-9.50974,-11.8982,-6.18578,16.2943
2023-03-14 22:27:45:336,-1.03811,2.05112,-9.52966,-11.9008,-6.18963,16.2959
2023-03-14 22:27:45:346,-1.02478,2.05585,-9.55132,-11.901,-6.1918,16.3004
2023-03-14 22:27:45:355,-1.0273,2.05479,-9.53271,-11.9014,-6.19601,16.3019
2023-03-14 22:27:45:366,-1.03562,2.0312,-9.49249,-11.8977,-6.20345,16.3101
2023-03-14 22:27:45:376,-1.05355,2.01984,-9.45816,-11.8945,-6.2091,16.3151
2023-03-14 22:27:45:386,-1.06186,2.01942,-9.45068,-11.8924,-6.21153,16.3211
2023-03-14 22:27:45:396,-1.06354,2.01756,-9.44116,-11.8906,-6.21133,16.3269
2023-03-14 22:27:45:406,-1.04474,2.0119,-9.44774,-11.8931,-6.21279,16.329
2023-03-14 22:27:45:416,-1.04408,2.01837,-9.47302,-11.8968,-6.21206,16.3345
2023-03-14 22:27:45:426,-1.05099,2.02811,-9.50741,-11.905,-6.21317,16.3388
2023-03-14 22:27:45:436,-1.05804,2.06119,-9.54207,-11.9108,-6.21638,16.3429
2023-03-14 22:27:45:446,-1.05999,2.06261,-9.56601,-11.9149,-6.21791,16.3436
2023-03-14 22:27:45:455,-1.04351,2.06737,-9.57415,-11.9144,-6.21884,16.3455
2023-03-14 22:27:45:465,-1.01957,2.05881,-9.57363,-11.9183,-6.21508,16.3482
2023-03-14 22:27:45:476,-1.00155,2.04487,-9.54104,-11.9177,-6.21185,16.3507
2023-03-14 22:27:45:486,-0.985217,2.03999,-9.48932,-11.9163,-6.20946,16.3544
2023-03-14 22:27:45:496,-0.999208,2.02111,-9.48283,-11.9169,-6.20961,16.3601
2023-03-14 22:27:45:506,-1.01273,2.03328,-9.50613,-11.9245,-6.21446,16.3691
2023-03-14 22:27:45:516,-1.03096,2.05966,-9.53545,-11.9363,-6.21791,16.3734
2023-03-14 22:27:45:526,-1.03027,2.07718,-9.59203,-11.9445,-6.22,16.3763
2023-03-14 22:27:45:536,-0.960412,2.0879,-9.61975,-11.9444,-6.22571,16.3799
2023-03-14 22:27:45:546,-0.941917,2.06798,-9.5938,-11.9411,-6.23536,16.3829
2023-03-14 22:27:45:555,-0.995811,2.03675,-9.55502,-11.934,-6.25087,16.3904
2023-03-14 22:27:45:565,-1.0331,2.02016,-9.53215,-11.9236,-6.26483,16.3994
2023-03-14 22:27:45:576,-1.04666,2.0026,-9.53127,-11.9144,-6.27658,16.4113
2023-03-14 22:27:45:586,-1.03907,1.98562,-9.50927,-11.9027,-6.29471,16.4248
2023-03-14 22:27:45:596,-1.03991,1.96791,-9.49716,-11.8947,-6.3103,16.4367
2023-03-14 22:27:45:606,-1.04992,1.9561,-9.50032,-11.8859,-6.32157,16.4508
2023-03-14 22:27:45:616,-1.03545,1.95674,-9.51176,-11.8781,-6.3374,16.4713
2023-03-14 22:27:45:626,-1.04253,1.95948,-9.50983,-11.8677,-6.34595,16.4892
2023-03-14 22:27:45:636,-1.06311,1.95181,-9.51493,-11.8621,-6.36165,16.5094
2023-03-14 22:27:45:646,-1.08107,1.97196,-9.50097,-11.8563,-6.37691,16.5297
2023-03-14 22:27:45:655,-1.09604,1.97977,-9.48549,-11.8543,-6.39509,16.5482
2023-03-14 22:27:45:666,-1.09316,1.96589,-9.47716,-11.8523,-6.40869,16.5683
2023-03-14 22:27:45:676,-1.08742,1.96408,-9.46302,-11.853,-6.4218,16.5894
2023-03-14 22:27:45:686,-1.10271,1.96098,-9.46804,-11.8558,-6.43484,16.6135
2023-03-14 22:27:45:696,-1.10677,1.96537,-9.48109,-11.8615,-6.45142,16.636
2023-03-14 22:27:45:706,-1.12313,1.98533,-9.51137,-11.868,-6.47041,16.6574
2023-03-14 22:27:45:716,-1.13467,2.01964,-9.53106,-11.8755,-6.48587,16.6804
2023-03-14 22:27:45:726,-1.1374,2.0403,-9.53462,-11.8818,-6.50216,16.7021
2023-03-14 22:27:45:736,-1.16531,2.03448,-9.52936,-11.8888,-6.51714,16.7249
2023-03-14 22:27:45:745,-1.18568,2.03897,-9.51732,-11.8928,-6.53129,16.7485
2023-03-14 22:27:45:756,-1.18104,2.05097,-9.50038,-11.8974,-6.54393,16.7704
2023-03-14 22:27:45:765,-1.182,2.06832,-9.50623,-11.9009,-6.55621,16.7928
2023-03-14 22:27:45:776,-1.20115,2.07895,-9.51022,-11.9017,-6.56612,16.8125
2023-03-14 22:27:45:786,-1.2202,2.06105,-9.4902,-11.9013,-6.57451,16.8334
2023-03-14 22:27:45:796,-1.22802,2.0466,-9.47252,-11.8975,-6.58253,16.8499
2023-03-14 22:27:45:806,-1.23183,2.04786,-9.47476,-11.8943,-6.58737,16.8605
2023-03-14 22:27:45:816,-1.22025,2.0506,-9.47295,-11.8896,-6.59416,16.8683
2023-03-14 22:27:45:826,-1.23081,2.03267,-9.44808,-11.8843,-6.59867,16.8753
2023-03-14 22:27:45:836,-1.22082,2.02705,-9.43923,-11.884,-6.60178,16.8746
2023-03-14 22:27:45:846,-1.19616,2.0196,-9.45032,-11.8825,-6.60462,16.8733
2023-03-14 22:27:45:856,-1.15669,2.01695,-9.45372,-11.8818,-6.60735,16.8684
2023-03-14 22:27:45:866,-1.11901,2.01515,-9.45021,-11.8858,-6.6108,16.8639
2023-03-14 22:27:45:876,-1.07466,2.02593,-9.45819,-11.8899,-6.60977,16.8569
2023-03-14 22:27:45:886,-1.02299,2.02307,-9.46724,-11.8975,-6.60694,16.8501
2023-03-14 22:27:45:896,-0.992388,2.02304,-9.48428,-11.9051,-6.60838,16.8473
2023-03-14 22:27:45:906,-0.972895,2.03057,-9.51739,-11.9109,-6.60683,16.853
2023-03-14 22:27:45:916,-0.970564,2.04508,-9.53802,-11.9202,-6.60588,16.8615
2023-03-14 22:27:45:926,-0.969542,2.05586,-9.56429,-11.9265,-6.60693,16.8734
2023-03-14 22:27:45:936,-0.964015,2.04985,-9.58437,-11.9321,-6.60528,16.8933
2023-03-14 22:27:45:946,-0.979775,2.05131,-9.58194,-11.9364,-6.60066,16.9195
2023-03-14 22:27:45:956,-1.01968,2.03547,-9.58615,-11.9357,-6.59826,16.9499
2023-03-14 22:27:45:966,-1.03656,2.02877,-9.59032,-11.9343,-6.59673,16.9857
2023-03-14 22:27:45:976,-1.04478,2.03375,-9.58864,-11.932,-6.59643,17.0232
2023-03-14 22:27:45:985,-1.07105,2.02488,-9.58232,-11.927,-6.60116,17.0624
2023-03-14 22:27:45:995,-1.09444,2.00353,-9.55404,-11.9203,-6.60459,17.0984
2023-03-14 22:27:46:6,-1.10809,1.98518,-9.51136,-11.9136,-6.6108,17.137
2023-03-14 22:27:46:16,-1.11543,1.957,-9.49476,-11.9055,-6.62,17.1746
2023-03-14 22:27:46:26,-1.12216,1.95927,-9.51125,-11.9004,-6.63205,17.2114
2023-03-14 22:27:46:36,-1.14918,1.96313,-9.52933,-11.9005,-6.6442,17.2445
2023-03-14 22:27:46:46,-1.15822,1.95487,-9.52887,-11.8944,-6.65518,17.2782
2023-03-14 22:27:46:56,-1.13975,1.94785,-9.49568,-11.8874,-6.66651,17.3103
2023-03-14 22:27:46:66,-1.13531,1.94964,-9.47017,-11.8829,-6.67903,17.3418
2023-03-14 22:27:46:76,-1.1183,1.92518,-9.46219,-11.8791,-6.69248,17.3709
2023-03-14 22:27:46:86,-1.1226,1.91637,-9.43118,-11.8764,-6.7061,17.4034
2023-03-14 22:27:46:96,-1.12677,1.90187,-9.40842,-11.8757,-6.71807,17.4356
2023-03-14 22:27:46:106,-1.13092,1.89818,-9.40884,-11.8818,-6.72822,17.4687
2023-03-14 22:27:46:116,-1.12975,1.91629,-9.4199,-11.8912,-6.73786,17.5008
2023-03-14 22:27:46:126,-1.14148,1.94897,-9.43333,-11.9075,-6.74798,17.5348
2023-03-14 22:27:46:136,-1.14584,1.98371,-9.43971,-11.9228,-6.76013,17.5626
2023-03-14 22:27:46:146,-1.14563,1.98715,-9.4519,-11.9409,-6.77077,17.5926
2023-03-14 22:27:46:156,-1.14545,1.99012,-9.50191,-11.957,-6.77759,17.6209
2023-03-14 22:27:46:165,-1.17068,2.01763,-9.55129,-11.9762,-6.7906,17.6501
2023-03-14 22:27:46:175,-1.17057,2.05579,-9.58135,-11.9939,-6.80167,17.6757
2023-03-14 22:27:46:185,-1.123,2.05827,-9.57439,-12.0033,-6.81137,17.6955
2023-03-14 22:27:46:195,-1.07618,2.02009,-9.52868,-12.0092,-6.82702,17.7186
2023-03-14 22:27:46:206,-1.07133,1.97901,-9.46043,-12.018,-6.84012,17.746
2023-03-14 22:27:46:216,-1.11218,1.96683,-9.42659,-12.0292,-6.85438,17.7718
2023-03-14 22:27:46:225,-1.13218,1.98,-9.43334,-12.0487,-6.86745,17.801
2023-03-14 22:27:46:236,-1.13856,2.02297,-9.44421,-12.0746,-6.88492,17.833
2023-03-14 22:27:46:246,-1.13181,2.05337,-9.45141,-12.1018,-6.89522,17.8631
2023-03-14 22:27:46:256,-1.09683,2.06797,-9.45192,-12.1311,-6.90289,17.8976
2023-03-14 22:27:46:266,-1.06509,2.07153,-9.42979,-12.1586,-6.91118,17.9333
2023-03-14 22:27:46:276,-1.06475,2.07598,-9.40337,-12.1917,-6.92349,17.976
2023-03-14 22:27:46:286,-1.09655,2.11193,-9.38673,-12.2273,-6.93649,18.0215
2023-03-14 22:27:46:296,-1.13639,2.14648,-9.40581,-12.2651,-6.95258,18.0677
2023-03-14 22:27:46:306,-1.16455,2.17122,-9.42909,-12.3018,-6.96585,18.1164
2023-03-14 22:27:46:316,-1.168,2.19002,-9.43468,-12.3338,-6.97932,18.1628
2023-03-14 22:27:46:326,-1.18419,2.19784,-9.45345,-12.3668,-6.9948,18.2106
2023-03-14 22:27:46:336,-1.20359,2.21393,-9.4863,-12.3984,-7.00868,18.2599
2023-03-14 22:27:46:346,-1.2326,2.20861,-9.52964,-12.4258,-7.0247,18.3093
2023-03-14 22:27:46:356,-1.24668,2.21497,-9.53666,-12.4504,-7.03834,18.3563
2023-03-14 22:27:46:366,-1.26964,2.19863,-9.53319,-12.47,-7.05247,18.3997
2023-03-14 22:27:46:376,-1.27539,2.17092,-9.51935,-12.4878,-7.06184,18.4424
2023-03-14 22:27:46:386,-1.27683,2.14914,-9.51574,-12.5032,-7.07544,18.4867
2023-03-14 22:27:46:396,-1.27751,2.14911,-9.48757,-12.5195,-7.08956,18.5307
2023-03-14 22:27:46:406,-1.32112,2.15151,-9.48575,-12.5362,-7.10468,18.5676
2023-03-14 22:27:46:416,-1.37706,2.16339,-9.45999,-12.5549,-7.12428,18.6037
2023-03-14 22:27:46:426,-1.40416,2.17475,-9.45099,-12.5745,-7.14118,18.6339
2023-03-14 22:27:46:436,-1.35328,2.1992,-9.46618,-12.5922,-7.15275,18.6528
2023-03-14 22:27:46:445,-1.29692,2.21235,-9.44703,-12.6054,-7.16722,18.6666
2023-03-14 22:27:46:455,-1.31379,2.21255,-9.4006,-12.6193,-7.18584,18.68
2023-03-14 22:27:46:466,-1.35811,2.22738,-9.3563,-12.6374,-7.20917,18.6902
2023-03-14 22:27:46:476,-1.36893,2.23775,-9.34204,-12.6564,-7.23315,18.6944
2023-03-14 22:27:46:486,-1.35525,2.2693,-9.36782,-12.6752,-7.25718,18.6939
2023-03-14 22:27:46:496,-1.33247,2.29642,-9.38702,-12.6925,-7.2765,18.6871
2023-03-14 22:27:46:506,-1.33152,2.30978,-9.41064,-12.7087,-7.29175,18.6769
2023-03-14 22:27:46:516,-1.3292,2.30783,-9.44603,-12.7209,-7.30499,18.6655
2023-03-14 22:27:46:526,-1.31635,2.29642,-9.49172,-12.7327,-7.31522,18.6545
2023-03-14 22:27:46:536,-1.29978,2.29713,-9.54554,-12.7426,-7.32199,18.6456
2023-03-14 22:27:46:546,-1.2977,2.31784,-9.58413,-12.7508,-7.32334,18.6336
2023-03-14 22:27:46:556,-1.31069,2.31875,-9.60007,-12.7519,-7.32303,18.622
2023-03-14 22:27:46:566,-1.31114,2.32862,-9.60953,-12.7537,-7.32304,18.6101
2023-03-14 22:27:46:576,-1.30182,2.32355,-9.59167,-12.7496,-7.32376,18.589
2023-03-14 22:27:46:586,-1.28159,2.2957,-9.54402,-12.7378,-7.3285,18.5678
2023-03-14 22:27:46:596,-1.27386,2.2817,-9.51132,-12.7278,-7.33028,18.5455
2023-03-14 22:27:46:606,-1.25114,2.27731,-9.48801,-12.7173,-7.3358,18.5243
2023-03-14 22:27:46:616,-1.22693,2.27248,-9.49196,-12.7049,-7.34206,18.5007
2023-03-14 22:27:46:626,-1.23037,2.26031,-9.51069,-12.6906,-7.35351,18.479
2023-03-14 22:27:46:636,-1.23415,2.25925,-9.53394,-12.6795,-7.36847,18.4651
2023-03-14 22:27:46:646,-1.242,2.25371,-9.5559,-12.6654,-7.38223,18.4521
2023-03-14 22:27:46:656,-1.24906,2.25347,-9.56419,-12.6446,-7.39475,18.4414
2023-03-14 22:27:46:666,-1.23877,2.22129,-9.5479,-12.6161,-7.40508,18.4327
2023-03-14 22:27:46:676,-1.24658,2.17417,-9.51418,-12.5811,-7.41473,18.4275
2023-03-14 22:27:46:686,-1.25443,2.11832,-9.46853,-12.5419,-7.42402,18.4261
2023-03-14 22:27:46:696,-1.24537,2.07587,-9.45421,-12.5035,-7.43207,18.4334
2023-03-14 22:27:46:706,-1.24183,2.04183,-9.45009,-12.4642,-7.43473,18.4424
2023-03-14 22:27:46:716,-1.24252,2.00904,-9.42898,-12.4246,-7.43797,18.452
2023-03-14 22:27:46:726,-1.24299,1.97575,-9.40073,-12.3894,-7.44312,18.4674
2023-03-14 22:27:46:736,-1.28201,1.96887,-9.37546,-12.3576,-7.44906,18.489
2023-03-14 22:27:46:746,-1.31221,1.96131,-9.38744,-12.3351,-7.4563,18.5124
2023-03-14 22:27:46:756,-1.33473,1.97509,-9.39863,-12.3122,-7.46468,18.5386
2023-03-14 22:27:46:766,-1.35584,1.99698,-9.4064,-12.2954,-7.47432,18.5642
2023-03-14 22:27:46:776,-1.3879,1.98263,-9.40445,-12.2765,-7.47921,18.5864
2023-03-14 22:27:46:786,-1.40048,1.97921,-9.39034,-12.2643,-7.48243,18.6073
2023-03-14 22:27:46:796,-1.38382,1.98068,-9.38679,-12.2479,-7.48644,18.6288
2023-03-14 22:27:46:806,-1.37994,1.97651,-9.38778,-12.2347,-7.48947,18.6501
2023-03-14 22:27:46:816,-1.39883,1.97394,-9.38773,-12.2278,-7.49285,18.6666
2023-03-14 22:27:46:826,-1.41554,1.98062,-9.43467,-12.2182,-7.49575,18.6781
2023-03-14 22:27:46:836,-1.41182,2.01088,-9.46099,-12.2144,-7.49757,18.6905
2023-03-14 22:27:46:846,-1.37642,2.01865,-9.46383,-12.2086,-7.49826,18.6942
2023-03-14 22:27:46:856,-1.33473,1.9954,-9.43615,-12.2001,-7.4995,18.6987
2023-03-14 22:27:46:866,-1.33023,1.96137,-9.38944,-12.1953,-7.49981,18.7006
2023-03-14 22:27:46:876,-1.31226,1.9352,-9.37367,-12.1928,-7.501,18.7043
2023-03-14 22:27:46:886,-1.32027,1.96119,-9.42331,-12.1969,-7.50202,18.7099
2023-03-14 22:27:46:896,-1.34019,1.99869,-9.49746,-12.208,-7.50447,18.7165
2023-03-14 22:27:46:906,-1.34016,2.04329,-9.56585,-12.2201,-7.50689,18.7243
2023-03-14 22:27:46:916,-1.33088,2.04929,-9.59999,-12.2246,-7.50494,18.73
2023-03-14 22:27:46:926,-1.30924,2.02646,-9.60789,-12.2234,-7.49915,18.7364
2023-03-14 22:27:46:935,-1.30142,2.00867,-9.5768,-12.2146,-7.48998,18.7416
2023-03-14 22:27:46:946,-1.28876,1.97003,-9.49445,-12.2069,-7.47953,18.7497
2023-03-14 22:27:46:956,-1.26618,1.94069,-9.40234,-12.1982,-7.46438,18.7569
2023-03-14 22:27:46:966,-1.24566,1.94188,-9.32286,-12.1981,-7.44932,18.7678
2023-03-14 22:27:46:976,-1.22978,1.983,-9.27268,-12.2075,-7.43303,18.7773
2023-03-14 22:27:46:986,-1.22983,2.03392,-9.31221,-12.2272,-7.41872,18.791
2023-03-14 22:27:46:996,-1.24256,2.10008,-9.42263,-12.2477,-7.40398,18.8048
2023-03-14 22:27:47:5,-1.23967,2.15931,-9.51775,-12.2708,-7.38309,18.8142
2023-03-14 22:27:47:16,-1.23232,2.20216,-9.59667,-12.2861,-7.3601,18.8245
2023-03-14 22:27:47:26,-1.22127,2.21927,-9.66472,-12.2929,-7.33575,18.833
2023-03-14 22:27:47:36,-1.17455,2.1862,-9.69434,-12.29,-7.30697,18.8371
2023-03-14 22:27:47:46,-1.12687,2.13073,-9.62363,-12.2768,-7.27778,18.8445
2023-03-14 22:27:47:56,-1.13267,2.06123,-9.50854,-12.2555,-7.25541,18.8541
2023-03-14 22:27:47:65,-1.16007,2.02746,-9.44641,-12.2418,-7.24113,18.8657
2023-03-14 22:27:47:76,-1.19253,2.04716,-9.46825,-12.2373,-7.23004,18.8778
2023-03-14 22:27:47:86,-1.22646,2.08876,-9.49854,-12.2363,-7.21923,18.8858
2023-03-14 22:27:47:96,-1.23133,2.12356,-9.52942,-12.2361,-7.20899,18.8922
2023-03-14 22:27:47:106,-1.21398,2.13005,-9.57077,-12.2293,-7.19373,18.8965
2023-03-14 22:27:47:116,-1.18507,2.14092,-9.57795,-12.2222,-7.18353,18.8938
2023-03-14 22:27:47:126,-1.14743,2.12731,-9.55645,-12.2126,-7.16643,18.8951
2023-03-14 22:27:47:136,-1.1233,2.11426,-9.53447,-12.2017,-7.14698,18.8949
2023-03-14 22:27:47:146,-1.11154,2.10606,-9.50688,-12.1831,-7.12758,18.8958
2023-03-14 22:27:47:156,-1.1181,2.07609,-9.49506,-12.1688,-7.10838,18.9003
2023-03-14 22:27:47:166,-1.1264,2.06251,-9.50788,-12.1502,-7.08585,18.9081
2023-03-14 22:27:47:176,-1.15676,2.06326,-9.535,-12.1336,-7.06134,18.9147
2023-03-14 22:27:47:186,-1.16779,2.05863,-9.56189,-12.1108,-7.04112,18.9232
2023-03-14 22:27:47:195,-1.17034,2.03574,-9.5667,-12.0898,-7.01729,18.9307
2023-03-14 22:27:47:205,-1.16776,2.00776,-9.5463,-12.0654,-6.99743,18.9377
2023-03-14 22:27:47:215,-1.14921,1.97944,-9.53004,-12.0407,-6.97253,18.9397
2023-03-14 22:27:47:225,-1.12752,1.96257,-9.50486,-12.0152,-6.95044,18.9435
2023-03-14 22:27:47:236,-1.1109,1.95119,-9.47405,-11.9919,-6.92766,18.9428
2023-03-14 22:27:47:245,-1.12278,1.94701,-9.47431,-11.9708,-6.90591,18.944
2023-03-14 22:27:47:255,-1.1569,1.97199,-9.47732,-11.9551,-6.88661,18.9392
2023-03-14 22:27:47:265,-1.19086,1.97411,-9.52178,-11.9369,-6.86468,18.936
2023-03-14 22:27:47:276,-1.18312,1.98671,-9.54221,-11.9208,-6.83948,18.9251
2023-03-14 22:27:47:286,-1.10745,1.98705,-9.55429,-11.9023,-6.81439,18.909
2023-03-14 22:27:47:296,-1.03416,1.96033,-9.52927,-11.8783,-6.78759,18.8885
2023-03-14 22:27:47:306,-1.04754,1.92932,-9.49513,-11.8532,-6.7655,18.8691
2023-03-14 22:27:47:316,-1.09174,1.93572,-9.48383,-11.83,-6.74799,18.8542
2023-03-14 22:27:47:326,-1.12877,1.94131,-9.50677,-11.8034,-6.73167,18.8333
2023-03-14 22:27:47:336,-1.13817,1.93953,-9.51802,-11.7773,-6.71434,18.8093
2023-03-14 22:27:47:346,-1.14394,1.92694,-9.51432,-11.7497,-6.69517,18.78
2023-03-14 22:27:47:356,-1.13835,1.89688,-9.51334,-11.7204,-6.67806,18.7494
2023-03-14 22:27:47:366,-1.09249,1.87193,-9.49778,-11.6875,-6.65364,18.7143
2023-03-14 22:27:47:376,-1.04981,1.8621,-9.46596,-11.659,-6.62877,18.6763
2023-03-14 22:27:47:386,-1.02082,1.83335,-9.44203,-11.6344,-6.60664,18.6379
2023-03-14 22:27:47:396,-1.01998,1.84154,-9.43047,-11.6124,-6.58753,18.5995
2023-03-14 22:27:47:405,-1.01977,1.85012,-9.46136,-11.6025,-6.56502,18.5585
2023-03-14 22:27:47:415,-1.02304,1.87305,-9.50307,-11.5926,-6.54831,18.5172
2023-03-14 22:27:47:425,-1.01963,1.90348,-9.53791,-11.584,-6.53365,18.4774
2023-03-14 22:27:47:435,-1.01697,1.9105,-9.55323,-11.5719,-6.51374,18.4364
2023-03-14 22:27:47:445,-0.980082,1.89951,-9.57685,-11.5599,-6.4947,18.3945
2023-03-14 22:27:47:456,-0.951837,1.90301,-9.57157,-11.5431,-6.47232,18.356
2023-03-14 22:27:47:465,-0.937434,1.86932,-9.54469,-11.5291,-6.45298,18.3212
2023-03-14 22:27:47:476,-0.932117,1.82955,-9.54495,-11.5157,-6.43219,18.2918
2023-03-14 22:27:47:486,-0.940631,1.84545,-9.55111,-11.5063,-6.41212,18.2658
2023-03-14 22:27:47:496,-0.945783,1.85512,-9.55532,-11.5,-6.39227,18.2414
2023-03-14 22:27:47:505,-0.952992,1.85821,-9.58074,-11.4924,-6.37435,18.2239
2023-03-14 22:27:47:516,-0.964848,1.8884,-9.5936,-11.4856,-6.35724,18.2106
2023-03-14 22:27:47:526,-0.956875,1.89786,-9.60485,-11.4808,-6.34082,18.1938
2023-03-14 22:27:47:536,-0.952673,1.90514,-9.61816,-11.4724,-6.32093,18.183
2023-03-14 22:27:47:546,-0.961704,1.91326,-9.61404,-11.4634,-6.304,18.1775
2023-03-14 22:27:47:556,-0.953967,1.89715,-9.59327,-11.4496,-6.29176,18.1711
2023-03-14 22:27:47:566,-0.94436,1.85211,-9.57204,-11.4352,-6.28101,18.1695
2023-03-14 22:27:47:576,-0.966092,1.83781,-9.54269,-11.4209,-6.27685,18.1718
2023-03-14 22:27:47:586,-0.97815,1.82734,-9.50705,-11.405,-6.27489,18.1721
2023-03-14 22:27:47:596,-0.998491,1.83242,-9.50183,-11.3952,-6.2779,18.1727
2023-03-14 22:27:47:606,-1.00922,1.8457,-9.50462,-11.389,-6.28203,18.1801
2023-03-14 22:27:47:616,-1.03789,1.8454,-9.52128,-11.3864,-6.29291,18.1856
2023-03-14 22:27:47:626,-1.05367,1.86667,-9.52772,-11.3804,-6.30643,18.1911
2023-03-14 22:27:47:636,-1.08482,1.88953,-9.54585,-11.3756,-6.32093,18.1928
2023-03-14 22:27:47:646,-1.12089,1.90794,-9.56724,-11.3728,-6.33525,18.1981
2023-03-14 22:27:47:656,-1.1536,1.92487,-9.60504,-11.3631,-6.34923,18.1981
2023-03-14 22:27:47:665,-1.15845,1.94494,-9.60087,-11.3497,-6.36634,18.1964
2023-03-14 22:27:47:676,-1.16972,1.91702,-9.56223,-11.3307,-6.39057,18.1909
2023-03-14 22:27:47:686,-1.16961,1.88215,-9.49891,-11.3136,-6.41527,18.1822
2023-03-14 22:27:47:696,-1.17625,1.85937,-9.46943,-11.2984,-6.44246,18.1699
2023-03-14 22:27:47:705,-1.19384,1.85785,-9.47792,-11.2864,-6.46913,18.1554
2023-03-14 22:27:47:715,-1.20894,1.87439,-9.50536,-11.2787,-6.49813,18.1396
2023-03-14 22:27:47:725,-1.21108,1.85973,-9.51436,-11.2686,-6.52238,18.12
2023-03-14 22:27:47:736,-1.20399,1.8545,-9.52739,-11.2571,-6.54808,18.0953
2023-03-14 22:27:47:746,-1.2171,1.86901,-9.53665,-11.2463,-6.57371,18.0737
2023-03-14 22:27:47:756,-1.23003,1.86256,-9.56124,-11.2332,-6.59747,18.0471
2023-03-14 22:27:47:766,-1.23453,1.88069,-9.57118,-11.2154,-6.61565,18.0154
2023-03-14 22:27:47:776,-1.2215,1.87674,-9.55256,-11.1933,-6.63357,17.9887
2023-03-14 22:27:47:786,-1.19327,1.83443,-9.50021,-11.1708,-6.64488,17.9562
2023-03-14 22:27:47:796,-1.164,1.79551,-9.43483,-11.1496,-6.65415,17.9235
2023-03-14 22:27:47:806,-1.13204,1.7519,-9.42496,-11.1312,-6.66196,17.8885
2023-03-14 22:27:47:816,-1.07364,1.74877,-9.47003,-11.121,-6.66703,17.8585
2023-03-14 22:27:47:825,-1.04141,1.79004,-9.53679,-11.1138,-6.67629,17.8303
2023-03-14 22:27:47:836,-1.06445,1.82903,-9.56288,-11.1065,-6.68813,17.8042
2023-03-14 22:27:47:846,-1.12839,1.83949,-9.55391,-11.099,-6.69739,17.7781
2023-03-14 22:27:47:856,-1.11047,1.83328,-9.55049,-11.0896,-6.70488,17.753
2023-03-14 22:27:47:866,-1.05226,1.81488,-9.5476,-11.0777,-6.71156,17.7242
2023-03-14 22:27:47:876,-1.02549,1.8157,-9.52638,-11.0682,-6.72295,17.7025
2023-03-14 22:27:47:886,-1.06736,1.81606,-9.49851,-11.0617,-6.73563,17.6801
2023-03-14 22:27:47:896,-1.12423,1.8411,-9.50121,-11.0564,-6.74681,17.6601
2023-03-14 22:27:47:906,-1.10923,1.85406,-9.5278,-11.0574,-6.75902,17.638
2023-03-14 22:27:47:916,-1.07447,1.86941,-9.54602,-11.0583,-6.773,17.6159
2023-03-14 22:27:47:926,-1.07452,1.89088,-9.55659,-11.0608,-6.78232,17.5953
2023-03-14 22:27:47:936,-1.08959,1.90084,-9.57483,-11.0602,-6.7955,17.5763
2023-03-14 22:27:47:946,-1.08316,1.89632,-9.57934,-11.0596,-6.80801,17.5595
2023-03-14 22:27:47:956,-1.07701,1.89686,-9.57259,-11.0566,-6.817,17.5445
2023-03-14 22:27:47:966,-1.06272,1.88047,-9.54628,-11.051,-6.83045,17.5302
2023-03-14 22:27:47:976,-1.05382,1.83254,-9.50344,-11.0412,-6.84248,17.5208
2023-03-14 22:27:47:986,-1.04512,1.81151,-9.48638,-11.0334,-6.85204,17.5119
2023-03-14 22:27:47:996,-1.03554,1.81081,-9.48575,-11.0285,-6.86259,17.5106
2023-03-14 22:27:48:6,-1.04143,1.78633,-9.47672,-11.0242,-6.87648,17.5126
2023-03-14 22:27:48:16,-1.0474,1.79333,-9.49422,-11.0231,-6.89037,17.5216
2023-03-14 22:27:48:26,-1.06866,1.82077,-9.52011,-11.0236,-6.90172,17.5295
2023-03-14 22:27:48:36,-1.08721,1.82216,-9.53617,-11.0247,-6.9209,17.5413
2023-03-14 22:27:48:46,-1.11992,1.82856,-9.5159,-11.0277,-6.93506,17.5579
2023-03-14 22:27:48:56,-1.13649,1.81083,-9.46557,-11.0324,-6.94824,17.5774
2023-03-14 22:27:48:66,-1.14533,1.80584,-9.42552,-11.0409,-6.96167,17.5952
2023-03-14 22:27:48:76,-1.18524,1.81548,-9.44186,-11.0521,-6.97543,17.6158
2023-03-14 22:27:48:85,-1.24028,1.84495,-9.46424,-11.0719,-6.9897,17.6374
2023-03-14 22:27:48:96,-1.29107,1.87988,-9.48418,-11.0962,-7.00455,17.6533
2023-03-14 22:27:48:106,-1.27665,1.92541,-9.51693,-11.1276,-7.02053,17.665
2023-03-14 22:27:48:116,-1.20864,1.94848,-9.53358,-11.1523,-7.03495,17.6709
2023-03-14 22:27:48:126,-1.19893,1.97532,-9.52571,-11.1767,-7.04958,17.6774
2023-03-14 22:27:48:136,-1.23203,2.00561,-9.50612,-11.1986,-7.06753,17.6844
2023-03-14 22:27:48:146,-1.24278,2.02783,-9.49361,-11.2195,-7.08397,17.6891
2023-03-14 22:27:48:155,-1.2449,2.04095,-9.48685,-11.2387,-7.09271,17.6906
2023-03-14 22:27:48:165,-1.24607,2.02806,-9.50414,-11.2556,-7.10351,17.6936
2023-03-14 22:27:48:176,-1.32472,2.04279,-9.53406,-11.2765,-7.11589,17.7013
2023-03-14 22:27:48:186,-1.44492,2.07648,-9.56625,-11.2934,-7.12952,17.7047
2023-03-14 22:27:48:196,-1.53425,2.10776,-9.58025,-11.314,-7.145,17.7013
2023-03-14 22:27:48:206,-1.60029,2.13798,-9.54466,-11.3263,-7.15158,17.6845
2023-03-14 22:27:48:215,-1.6376,2.15696,-9.49363,-11.3279,-7.15225,17.6492
2023-03-14 22:27:48:226,-1.60818,2.12583,-9.4571,-11.3235,-7.1395,17.6023
2023-03-14 22:27:48:236,-1.53,2.0849,-9.45821,-11.3116,-7.11955,17.5353
2023-03-14 22:27:48:246,-1.37929,2.03783,-9.47723,-11.2941,-7.08821,17.454
2023-03-14 22:27:48:255,-1.18403,1.97417,-9.46832,-11.2743,-7.04647,17.3609
2023-03-14 22:27:48:266,-1.00049,1.92208,-9.43491,-11.2527,-7.0065,17.2668
2023-03-14 22:27:48:276,-0.876176,1.86581,-9.39924,-11.2344,-6.96905,17.1704
2023-03-14 22:27:48:286,-0.774791,1.82349,-9.37355,-11.2264,-6.93722,17.0832
2023-03-14 22:27:48:296,-0.693615,1.82797,-9.40972,-11.2269,-6.91055,17.0037
2023-03-14 22:27:48:306,-0.664712,1.84662,-9.47796,-11.2412,-6.89297,16.9341
2023-03-14 22:27:48:316,-0.691287,1.87574,-9.54527,-11.2594,-6.88072,16.8796
2023-03-14 22:27:48:326,-0.722557,1.91139,-9.5788,-11.2836,-6.86637,16.8365
2023-03-14 22:27:48:336,-0.748059,1.9404,-9.61042,-11.3056,-6.85812,16.8078
2023-03-14 22:27:48:346,-0.781464,1.96414,-9.63688,-11.328,-6.85145,16.7909
2023-03-14 22:27:48:356,-0.836434,2.00521,-9.66281,-11.3496,-6.84646,16.7833
2023-03-14 22:27:48:366,-0.936266,2.03374,-9.68513,-11.3659,-6.8517,16.7861
2023-03-14 22:27:48:376,-1.04596,2.03935,-9.66879,-11.3773,-6.85965,16.7934
2023-03-14 22:27:48:386,-1.12229,2.03343,-9.64125,-11.3866,-6.87284,16.8007
2023-03-14 22:27:48:396,-1.17809,2.01608,-9.62152,-11.3947,-6.88906,16.8089
2023-03-14 22:27:48:405,-1.21197,1.99491,-9.61968,-11.3992,-6.90463,16.8107
2023-03-14 22:27:48:416,-1.24837,2.01107,-9.6232,-11.3996,-6.92556,16.8085
2023-03-14 22:27:48:426,-1.29453,2.00339,-9.60759,-11.3997,-6.95015,16.805
2023-03-14 22:27:48:436,-1.32895,1.98234,-9.56946,-11.3937,-6.97735,16.7944
2023-03-14 22:27:48:446,-1.34542,1.95713,-9.53296,-11.3864,-7.00333,16.7755
2023-03-14 22:27:48:456,-1.31577,1.91898,-9.48139,-11.3745,-7.02448,16.7542
2023-03-14 22:27:48:466,-1.2848,1.89369,-9.4578,-11.3692,-7.04132,16.7313
2023-03-14 22:27:48:476,-1.28603,1.92139,-9.50273,-11.3628,-7.05623,16.7096
2023-03-14 22:27:48:486,-1.28358,1.93592,-9.5628,-11.3623,-7.06409,16.6871
2023-03-14 22:27:48:496,-1.27675,1.9681,-9.60094,-11.3575,-7.07446,16.6643
2023-03-14 22:27:48:506,-1.31662,1.98615,-9.61708,-11.3461,-7.08391,16.6375
2023-03-14 22:27:48:516,-1.33753,1.958,-9.59717,-11.3274,-7.08512,16.6068
2023-03-14 22:27:48:526,-1.30537,1.90921,-9.57364,-11.3004,-7.08256,16.5692
2023-03-14 22:27:48:536,-1.25115,1.83722,-9.5452,-11.2637,-7.07461,16.531
2023-03-14 22:27:48:546,-1.19581,1.75635,-9.50374,-11.2254,-7.06651,16.4892
2023-03-14 22:27:48:556,-1.14833,1.70647,-9.49862,-11.1822,-7.05757,16.4555
2023-03-14 22:27:48:566,-1.11967,1.68633,-9.52284,-11.1423,-7.04633,16.4209
2023-03-14 22:27:48:576,-1.11472,1.67371,-9.53866,-11.1033,-7.03796,16.3878
2023-03-14 22:27:48:586,-1.09823,1.64234,-9.52066,-11.0645,-7.03262,16.3516
2023-03-14 22:27:48:596,-1.09442,1.6181,-9.51554,-11.0269,-7.03276,16.3163
2023-03-14 22:27:48:606,-1.07063,1.60177,-9.55442,-10.9858,-7.03756,16.2826
2023-03-14 22:27:48:616,-1.07816,1.57735,-9.54927,-10.948,-7.04528,16.2471
2023-03-14 22:27:48:626,-1.0656,1.54929,-9.57117,-10.913,-7.0554,16.2108
2023-03-14 22:27:48:636,-1.03972,1.54573,-9.60843,-10.8753,-7.07186,16.1741
2023-03-14 22:27:48:646,-1.03802,1.53274,-9.62883,-10.833,-7.09451,16.1378
2023-03-14 22:27:48:656,-1.03446,1.5084,-9.62428,-10.7965,-7.12247,16.1016
2023-03-14 22:27:48:666,-1.01213,1.49903,-9.61489,-10.76,-7.15762,16.0701
2023-03-14 22:27:48:676,-0.945012,1.50895,-9.59033,-10.725,-7.19702,16.0401
2023-03-14 22:27:48:686,-0.892346,1.49269,-9.52838,-10.6925,-7.24295,16.0263
2023-03-14 22:27:48:696,-0.920362,1.45511,-9.41063,-10.6723,-7.298,16.0267
2023-03-14 22:27:48:706,-1.03094,1.46105,-9.30571,-10.6682,-7.35909,16.0472
2023-03-14 22:27:48:716,-1.13878,1.53565,-9.27384,-10.6877,-7.42263,16.0785
2023-03-14 22:27:48:726,-1.20554,1.68017,-9.28272,-10.7298,-7.48547,16.1161
2023-03-14 22:27:48:736,-1.25335,1.84313,-9.32541,-10.7848,-7.54389,16.1599
2023-03-14 22:27:48:746,-1.34692,1.9771,-9.39075,-10.8436,-7.59995,16.2083
2023-03-14 22:27:48:756,-1.46779,2.06294,-9.45996,-10.9009,-7.64761,16.2609
2023-03-14 22:27:48:765,-1.57062,2.09929,-9.52229,-10.9496,-7.68157,16.3115
2023-03-14 22:27:48:776,-1.63251,2.12389,-9.57225,-10.9832,-7.70693,16.3589
2023-03-14 22:27:48:786,-1.64215,2.11619,-9.61252,-11.0017,-7.72219,16.3991
2023-03-14 22:27:48:796,-1.62393,2.05389,-9.6154,-10.9997,-7.72615,16.4356
2023-03-14 22:27:48:806,-1.61742,1.99114,-9.57092,-10.9859,-7.72785,16.458
2023-03-14 22:27:48:816,-1.59678,1.91942,-9.52688,-10.9661,-7.72508,16.4746
2023-03-14 22:27:48:826,-1.5381,1.85667,-9.50623,-10.9425,-7.72281,16.4794
2023-03-14 22:27:48:836,-1.47551,1.80292,-9.47245,-10.9186,-7.7217,16.4744
2023-03-14 22:27:48:846,-1.38845,1.7567,-9.46307,-10.9031,-7.72325,16.4662
2023-03-14 22:27:48:856,-1.33778,1.75866,-9.46149,-10.8942,-7.73128,16.4532
2023-03-14 22:27:48:866,-1.31795,1.76975,-9.5016,-10.8956,-7.74356,16.4396
2023-03-14 22:27:48:876,-1.30733,1.81136,-9.53195,-10.9044,-7.7618,16.4277
2023-03-14 22:27:48:886,-1.33585,1.85754,-9.50916,-10.9176,-7.78656,16.4151
2023-03-14 22:27:48:896,-1.3786,1.87266,-9.4799,-10.9355,-7.81247,16.4067
2023-03-14 22:27:48:905,-1.43251,1.92172,-9.51943,-10.954,-7.83528,16.3995
2023-03-14 22:27:48:916,-1.47234,1.97976,-9.54803,-10.9737,-7.85662,16.3934
2023-03-14 22:27:48:926,-1.44936,2.00716,-9.57203,-10.9878,-7.86703,16.3819
2023-03-14 22:27:48:936,-1.38595,1.99108,-9.58113,-10.9927,-7.87092,16.3709
2023-03-14 22:27:48:946,-1.39886,1.94919,-9.54549,-10.9899,-7.87489,16.3605
2023-03-14 22:27:48:956,-1.44141,1.91119,-9.47026,-10.9847,-7.87751,16.3549
2023-03-14 22:27:48:966,-1.46913,1.87905,-9.41666,-10.9773,-7.88022,16.345
2023-03-14 22:27:48:976,-1.43172,1.87647,-9.45015,-10.9716,-7.87441,16.332
2023-03-14 22:27:48:986,-1.38631,1.88306,-9.49212,-10.9639,-7.87003,16.317
2023-03-14 22:27:48:996,-1.36975,1.86209,-9.4887,-10.9591,-7.86552,16.3068
2023-03-14 22:27:49:6,-1.36221,1.84635,-9.46192,-10.9532,-7.85567,16.2907
2023-03-14 22:27:49:16,-1.34203,1.84628,-9.4627,-10.9543,-7.8416,16.275
2023-03-14 22:27:49:26,-1.30703,1.84487,-9.44975,-10.9554,-7.82871,16.2597
2023-03-14 22:27:49:35,-1.27185,1.83103,-9.42594,-10.9606,-7.81933,16.2486
2023-03-14 22:27:49:46,-1.23701,1.82748,-9.43643,-10.9702,-7.80467,16.2398
2023-03-14 22:27:49:55,-1.22525,1.84288,-9.47727,-10.9834,-7.79652,16.2309
2023-03-14 22:27:49:66,-1.21752,1.86773,-9.53079,-11.0023,-7.78802,16.2269
2023-03-14 22:27:49:76,-1.23684,1.89963,-9.58204,-11.0189,-7.78468,16.2249
2023-03-14 22:27:49:86,-1.26139,1.93687,-9.58627,-11.0304,-7.7844,16.2256
2023-03-14 22:27:49:96,-1.28031,1.92039,-9.54866,-11.0385,-7.78665,16.2261
2023-03-14 22:27:49:106,-1.28981,1.86474,-9.48717,-11.04,-7.78709,16.2298
2023-03-14 22:27:49:116,-1.26131,1.86487,-9.4934,-11.0437,-7.78761,16.2358
2023-03-14 22:27:49:126,-1.24703,1.87595,-9.52289,-11.0492,-7.79493,16.2425
2023-03-14 22:27:49:136,-1.27843,1.86558,-9.54597,-11.0565,-7.80399,16.2537
2023-03-14 22:27:49:146,-1.32287,1.89865,-9.56847,-11.0627,-7.81655,16.2659
2023-03-14 22:27:49:156,-1.35635,1.91557,-9.55677,-11.0687,-7.83152,16.2764
2023-03-14 22:27:49:166,-1.37894,1.91518,-9.50207,-11.0681,-7.84636,16.2854
2023-03-14 22:27:49:176,-1.38488,1.88899,-9.45644,-11.0647,-7.85836,16.2932
2023-03-14 22:27:49:186,-1.36009,1.8679,-9.4281,-11.0642,-7.86911,16.3024
2023-03-14 22:27:49:196,-1.34819,1.86669,-9.42952,-11.0686,-7.8781,16.3116
2023-03-14 22:27:49:206,-1.34392,1.87589,-9.44252,-11.0739,-7.8911,16.3213
2023-03-14 22:27:49:216,-1.35883,1.91432,-9.48037,-11.0883,-7.89888,16.3338
2023-03-14 22:27:49:226,-1.36573,1.96505,-9.52251,-11.1044,-7.90946,16.3468
2023-03-14 22:27:49:236,-1.38903,1.97466,-9.53254,-11.1195,-7.92194,16.359
2023-03-14 22:27:49:245,-1.37865,1.95694,-9.51373,-11.1303,-7.93184,16.3751
2023-03-14 22:27:49:255,-1.35815,1.94104,-9.51744,-11.1378,-7.94141,16.3874
2023-03-14 22:27:49:265,-1.35264,1.94237,-9.53324,-11.1443,-7.94946,16.4035
2023-03-14 22:27:49:275,-1.35548,1.97201,-9.57646,-11.1548,-7.95794,16.4237
2023-03-14 22:27:49:286,-1.3739,1.99619,-9.57883,-11.1626,-7.96457,16.4422
2023-03-14 22:27:49:296,-1.39945,1.97267,-9.55166,-11.1621,-7.97295,16.4624
2023-03-14 22:27:49:306,-1.39556,1.95359,-9.52028,-11.1585,-7.97965,16.4811
2023-03-14 22:27:49:316,-1.40906,1.94747,-9.5016,-11.1544,-7.98579,16.4991
2023-03-14 22:27:49:326,-1.42116,1.95873,-9.5077,-11.1537,-7.99178,16.5187
2023-03-14 22:27:49:336,-1.42154,1.97487,-9.52425,-11.1503,-7.99504,16.5339
2023-03-14 22:27:49:346,-1.41392,1.98582,-9.53996,-11.1456,-7.99785,16.548
2023-03-14 22:27:49:356,-1.42253,1.98186,-9.5539,-11.137,-8.00017,16.557
2023-03-14 22:27:49:366,-1.41969,1.9626,-9.55643,-11.1246,-8.00074,16.5632
2023-03-14 22:27:49:376,-1.40536,1.93624,-9.5549,-11.1108,-8.00338,16.5676
2023-03-14 22:27:49:386,-1.38124,1.93162,-9.53849,-11.0951,-8.00729,16.5706
2023-03-14 22:27:49:396,-1.36538,1.93141,-9.51433,-11.0773,-8.01301,16.5712
2023-03-14 22:27:49:406,-1.34815,1.92546,-9.50644,-11.0585,-8.02051,16.5708
2023-03-14 22:27:49:416,-1.3343,1.89871,-9.49363,-11.0376,-8.02919,16.5706
2023-03-14 22:27:49:426,-1.33988,1.85894,-9.45369,-11.0176,-8.03947,16.5675
2023-03-14 22:27:49:436,-1.35023,1.82619,-9.4462,-11.0003,-8.05319,16.5676
2023-03-14 22:27:49:446,-1.33321,1.84892,-9.45266,-10.9842,-8.06514,16.5658
2023-03-14 22:27:49:456,-1.2783,1.84149,-9.48323,-10.9657,-8.07421,16.5619
2023-03-14 22:27:49:466,-1.24098,1.81502,-9.47641,-10.9496,-8.08593,16.558
2023-03-14 22:27:49:476,-1.22925,1.78012,-9.42994,-10.9368,-8.10014,16.5647
2023-03-14 22:27:49:486,-1.25682,1.76077,-9.41138,-10.928,-8.11629,16.5731
2023-03-14 22:27:49:496,-1.30368,1.78199,-9.42236,-10.9287,-8.13679,16.5899
2023-03-14 22:27:49:506,-1.36916,1.80686,-9.44655,-10.9354,-8.15717,16.6111
2023-03-14 22:27:49:516,-1.40072,1.84504,-9.47361,-10.9494,-8.17577,16.6348
2023-03-14 22:27:49:526,-1.41965,1.89525,-9.51124,-10.9632,-8.18541,16.6568
2023-03-14 22:27:49:536,-1.44583,1.92908,-9.52063,-10.9737,-8.19335,16.68
2023-03-14 22:27:49:546,-1.46833,1.93529,-9.53519,-10.9824,-8.19381,16.6978
2023-03-14 22:27:49:556,-1.47672,1.96075,-9.52769,-10.9902,-8.19333,16.7189
2023-03-14 22:27:49:566,-1.4683,1.96549,-9.53819,-10.9964,-8.19045,16.7315
2023-03-14 22:27:49:576,-1.45352,1.95087,-9.54281,-10.9956,-8.18241,16.7432
2023-03-14 22:27:49:586,-1.45904,1.95574,-9.53458,-10.992,-8.17376,16.7492
2023-03-14 22:27:49:596,-1.44191,1.94631,-9.54202,-10.9805,-8.16478,16.7559
2023-03-14 22:27:49:606,-1.41444,1.93466,-9.54622,-10.9675,-8.15461,16.7556
2023-03-14 22:27:49:616,-1.40484,1.92817,-9.53728,-10.9515,-8.14403,16.7558
2023-03-14 22:27:49:626,-1.4153,1.91001,-9.51988,-10.9291,-8.1324,16.7539
2023-03-14 22:27:49:636,-1.42227,1.89051,-9.52198,-10.9109,-8.1205,16.753
2023-03-14 22:27:49:646,-1.38527,1.8827,-9.51778,-10.8913,-8.1066,16.7451
2023-03-14 22:27:49:656,-1.33222,1.87116,-9.53158,-10.875,-8.08662,16.7335
2023-03-14 22:27:49:666,-1.29976,1.865,-9.55258,-10.8574,-8.07514,16.7212
2023-03-14 22:27:49:676,-1.32131,1.88113,-9.56981,-10.84,-8.06926,16.7092
2023-03-14 22:27:49:686,-1.38303,1.87816,-9.57695,-10.8221,-8.06477,16.6948
2023-03-14 22:27:49:696,-1.39161,1.87883,-9.56281,-10.8008,-8.05821,16.678
2023-03-14 22:27:49:706,-1.31916,1.87675,-9.56583,-10.7768,-8.05014,16.6567
2023-03-14 22:27:49:716,-1.26266,1.85326,-9.5586,-10.7514,-8.04129,16.6378
2023-03-14 22:27:49:726,-1.30651,1.82424,-9.52098,-10.7216,-8.04231,16.6191
2023-03-14 22:27:49:736,-1.37555,1.81403,-9.48932,-10.6918,-8.0442,16.5978
2023-03-14 22:27:49:746,-1.40497,1.81137,-9.48989,-10.6659,-8.04288,16.5771
2023-03-14 22:27:49:755,-1.39439,1.82625,-9.51491,-10.6406,-8.03979,16.5533
2023-03-14 22:27:49:766,-1.37209,1.82223,-9.54792,-10.6141,-8.03543,16.5257
2023-03-14 22:27:49:776,-1.36804,1.79983,-9.55263,-10.5866,-8.03037,16.4983
2023-03-14 22:27:49:786,-1.35304,1.78836,-9.5335,-10.5594,-8.02018,16.47
2023-03-14 22:27:49:796,-1.34112,1.78741,-9.52218,-10.5284,-8.0134,16.4402
2023-03-14 22:27:49:806,-1.34078,1.77904,-9.5275,-10.4981,-8.00459,16.4113
2023-03-14 22:27:49:816,-1.33238,1.76496,-9.53303,-10.4688,-7.99353,16.3809
2023-03-14 22:27:49:826,-1.31966,1.76765,-9.51816,-10.4413,-7.98175,16.3478
2023-03-14 22:27:49:836,-1.31572,1.75892,-9.53731,-10.4098,-7.97064,16.3148
2023-03-14 22:27:49:846,-1.32743,1.75507,-9.54723,-10.3804,-7.95919,16.2831
2023-03-14 22:27:49:856,-1.35189,1.76893,-9.5477,-10.349,-7.94619,16.2539
2023-03-14 22:27:49:866,-1.35336,1.77535,-9.56679,-10.3194,-7.93433,16.2248
2023-03-14 22:27:49:876,-1.3412,1.77053,-9.56941,-10.2868,-7.92429,16.1968
2023-03-14 22:27:49:886,-1.33588,1.7499,-9.5636,-10.256,-7.91119,16.1736
2023-03-14 22:27:49:896,-1.34211,1.73381,-9.54908,-10.22,-7.90092,16.1461
2023-03-14 22:27:49:906,-1.33964,1.72443,-9.53892,-10.1829,-7.8911,16.1205
2023-03-14 22:27:49:916,-1.33039,1.70129,-9.54564,-10.1482,-7.8781,16.098
2023-03-14 22:27:49:926,-1.32393,1.68332,-9.54796,-10.115,-7.86576,16.0753
2023-03-14 22:27:49:936,-1.33205,1.67631,-9.54159,-10.0798,-7.85578,16.0563
2023-03-14 22:27:49:946,-1.34396,1.66475,-9.54304,-10.0455,-7.85032,16.0364
2023-03-14 22:27:49:956,-1.34707,1.65575,-9.53485,-10.0093,-7.8411,16.0166
2023-03-14 22:27:49:966,-1.34038,1.63215,-9.49796,-9.97233,-7.83354,15.9939
2023-03-14 22:27:49:976,-1.33302,1.61954,-9.48043,-9.93536,-7.82427,15.9746
2023-03-14 22:27:49:986,-1.31878,1.58575,-9.47579,-9.90035,-7.81318,15.9535
2023-03-14 22:27:49:996,-1.31509,1.5529,-9.47274,-9.86809,-7.8016,15.9369
2023-03-14 22:27:50:6,-1.30708,1.54038,-9.46627,-9.8415,-7.79034,15.9203
2023-03-14 22:27:50:16,-1.29499,1.5325,-9.46879,-9.81822,-7.78199,15.8997
2023-03-14 22:27:50:26,-1.29471,1.53761,-9.49268,-9.79891,-7.77426,15.8838
2023-03-14 22:27:50:36,-1.27236,1.55786,-9.49853,-9.78327,-7.76797,15.865
2023-03-14 22:27:50:46,-1.26052,1.56054,-9.50565,-9.77035,-7.76122,15.8465
2023-03-14 22:27:50:56,-1.26659,1.56058,-9.51994,-9.7577,-7.75654,15.8326
2023-03-14 22:27:50:65,-1.26182,1.55863,-9.50822,-9.74812,-7.75167,15.8216
2023-03-14 22:27:50:75,-1.25667,1.55033,-9.50364,-9.73937,-7.75241,15.8113
2023-03-14 22:27:50:85,-1.25021,1.5531,-9.49925,-9.73363,-7.74899,15.801
2023-03-14 22:27:50:95,-1.2544,1.54778,-9.48165,-9.72877,-7.74235,15.7961
2023-03-14 22:27:50:105,-1.278,1.54167,-9.49169,-9.72626,-7.736,15.7928
2023-03-14 22:27:50:115,-1.28011,1.54415,-9.51408,-9.72744,-7.72818,15.7917
2023-03-14 22:27:50:125,-1.25679,1.57085,-9.5362,-9.73203,-7.71979,15.7898
2023-03-14 22:27:50:135,-1.22332,1.60748,-9.56961,-9.73458,-7.71002,15.7907
2023-03-14 22:27:50:145,-1.2133,1.61222,-9.56827,-9.74172,-7.7035,15.7917
2023-03-14 22:27:50:155,-1.23734,1.60408,-9.56239,-9.7468,-7.69999,15.7963
2023-03-14 22:27:50:165,-1.27245,1.61724,-9.56889,-9.75436,-7.69887,15.7997
2023-03-14 22:27:50:175,-1.2955,1.6251,-9.55774,-9.75493,-7.69958,15.8088
2023-03-14 22:27:50:185,-1.29876,1.60924,-9.5754,-9.75861,-7.70359,15.8139
2023-03-14 22:27:50:195,-1.31073,1.62134,-9.58613,-9.76474,-7.70432,15.8169
2023-03-14 22:27:50:205,-1.29165,1.6317,-9.59644,-9.76951,-7.70238,15.8195
2023-03-14 22:27:50:216,-1.25512,1.63431,-9.60244,-9.77147,-7.70266,15.8209
2023-03-14 22:27:50:226,-1.24663,1.62048,-9.59807,-9.77464,-7.70643,15.8257
2023-03-14 22:27:50:236,-1.27516,1.61767,-9.57545,-9.7773,-7.71128,15.8302
2023-03-14 22:27:50:246,-1.29735,1.65567,-9.57491,-9.7828,-7.7183,15.8365
2023-03-14 22:27:50:256,-1.32479,1.6883,-9.59305,-9.78821,-7.72787,15.8417
2023-03-14 22:27:50:265,-1.33644,1.69508,-9.58648,-9.79297,-7.73568,15.8472
2023-03-14 22:27:50:276,-1.34772,1.67943,-9.56859,-9.79395,-7.73863,15.8522
2023-03-14 22:27:50:286,-1.34817,1.66994,-9.55084,-9.79423,-7.74289,15.8574
2023-03-14 22:27:50:296,-1.33573,1.67211,-9.54117,-9.79323,-7.74475,15.8618
2023-03-14 22:27:50:306,-1.33,1.66163,-9.55822,-9.78989,-7.74736,15.8636
2023-03-14 22:27:50:316,-1.33235,1.65968,-9.54073,-9.78545,-7.75172,15.867
2023-03-14 22:27:50:325,-1.34304,1.6613,-9.5386,-9.78154,-7.75665,15.8691
2023-03-14 22:27:50:336,-1.33272,1.63948,-9.53032,-9.77779,-7.75747,15.8718
2023-03-14 22:27:50:346,-1.32081,1.62464,-9.53199,-9.77468,-7.75705,15.8711
2023-03-14 22:27:50:355,-1.31618,1.62146,-9.52902,-9.76911,-7.75762,15.8695
2023-03-14 22:27:50:366,-1.31574,1.62094,-9.53438,-9.76524,-7.75749,15.8707
2023-03-14 22:27:50:376,-1.30986,1.6244,-9.54242,-9.76201,-7.75715,15.8686
2023-03-14 22:27:50:386,-1.3097,1.62077,-9.54564,-9.76086,-7.75603,15.8662
2023-03-14 22:27:50:396,-1.29541,1.61236,-9.5563,-9.75519,-7.75705,15.866
2023-03-14 22:27:50:406,-1.28204,1.61039,-9.53217,-9.75239,-7.75655,15.8641
2023-03-14 22:27:50:416,-1.29433,1.61066,-9.49731,-9.7528,-7.75496,15.8614
2023-03-14 22:27:50:426,-1.32393,1.60234,-9.48316,-9.75953,-7.75472,15.862
2023-03-14 22:27:50:436,-1.36876,1.62463,-9.50049,-9.76792,-7.75371,15.8598
2023-03-14 22:27:50:446,-1.37541,1.65109,-9.51947,-9.77686,-7.75141,15.8569
2023-03-14 22:27:50:456,-1.29599,1.66566,-9.56825,-9.78797,-7.74498,15.8474
2023-03-14 22:27:50:466,-1.21904,1.67995,-9.60183,-9.79478,-7.74285,15.8382
2023-03-14 22:27:50:476,-1.21234,1.67515,-9.58005,-9.79983,-7.74305,15.8304
2023-03-14 22:27:50:486,-1.26896,1.67304,-9.55891,-9.80515,-7.74642,15.8273
2023-03-14 22:27:50:496,-1.30897,1.66597,-9.5484,-9.80874,-7.75189,15.8296
2023-03-14 22:27:50:506,-1.31983,1.65661,-9.52421,-9.80863,-7.75633,15.8282
2023-03-14 22:27:50:516,-1.31382,1.64596,-9.50328,-9.81048,-7.75578,15.8278
2023-03-14 22:27:50:526,-1.30448,1.64274,-9.50409,-9.80968,-7.7557,15.8264
2023-03-14 22:27:50:535,-1.27474,1.65362,-9.51955,-9.81586,-7.74889,15.8275
2023-03-14 22:27:50:545,-1.25497,1.6711,-9.55117,-9.82614,-7.74135,15.8344
2023-03-14 22:27:50:555,-1.23772,1.68638,-9.57691,-9.83585,-7.7271,15.8391
2023-03-14 22:27:50:566,-1.20796,1.68744,-9.58696,-9.84272,-7.71948,15.848
2023-03-14 22:27:50:576,-1.21143,1.68413,-9.57953,-9.84904,-7.70975,15.8599
2023-03-14 22:27:50:586,-1.23298,1.67042,-9.55822,-9.85129,-7.70161,15.8769
2023-03-14 22:27:50:596,-1.24828,1.66427,-9.54236,-9.85612,-7.68875,15.8981
2023-03-14 22:27:50:606,-1.24541,1.66376,-9.54726,-9.8661,-7.68211,15.9238
2023-03-14 22:27:50:616,-1.23945,1.66272,-9.55851,-9.87647,-7.67328,15.9471
2023-03-14 22:27:50:626,-1.24145,1.67047,-9.5712,-9.88433,-7.66386,15.971
2023-03-14 22:27:50:636,-1.24855,1.68691,-9.55993,-9.89164,-7.65394,15.9952
2023-03-14 22:27:50:646,-1.23715,1.67302,-9.55348,-9.89532,-7.64976,16.0218
2023-03-14 22:27:50:656,-1.2429,1.65054,-9.54624,-9.90447,-7.64781,16.0497
2023-03-14 22:27:50:666,-1.24396,1.64916,-9.54833,-9.91172,-7.64762,16.0814
2023-03-14 22:27:50:676,-1.2576,1.66056,-9.53486,-9.9189,-7.65023,16.1117
2023-03-14 22:27:50:686,-1.29079,1.65993,-9.53143,-9.9292,-7.65841,16.1446
2023-03-14 22:27:50:696,-1.30962,1.67266,-9.52261,-9.9409,-7.66207,16.1767
2023-03-14 22:27:50:706,-1.33881,1.68597,-9.52067,-9.95196,-7.66834,16.2093
2023-03-14 22:27:50:716,-1.36382,1.68161,-9.52388,-9.96195,-7.67217,16.2372
2023-03-14 22:27:50:726,-1.3829,1.69682,-9.52473,-9.9754,-7.67405,16.2652
2023-03-14 22:27:50:735,-1.37482,1.71325,-9.5266,-9.99151,-7.67441,16.2895
2023-03-14 22:27:50:745,-1.35183,1.70379,-9.53742,-9.99915,-7.67348,16.31
2023-03-14 22:27:50:755,-1.32937,1.70432,-9.53401,-10.0115,-7.6731,16.328
2023-03-14 22:27:50:765,-1.31024,1.68648,-9.53907,-10.0241,-7.67385,16.3467
2023-03-14 22:27:50:775,-1.29734,1.6899,-9.54352,-10.0377,-7.67524,16.3599
2023-03-14 22:27:50:785,-1.28982,1.70156,-9.55048,-10.0515,-7.6773,16.3711
2023-03-14 22:27:50:795,-1.27318,1.70285,-9.55033,-10.0637,-7.68241,16.3823
2023-03-14 22:27:50:805,-1.27731,1.69782,-9.54726,-10.0717,-7.68469,16.4004
2023-03-14 22:27:50:815,-1.26502,1.68402,-9.528,-10.0829,-7.69201,16.4125
2023-03-14 22:27:50:825,-1.26469,1.69143,-9.52398,-10.0952,-7.69323,16.4294
2023-03-14 22:27:50:835,-1.28088,1.69883,-9.4987,-10.1083,-7.69603,16.4467
2023-03-14 22:27:50:845,-1.28067,1.70195,-9.50009,-10.1249,-7.69806,16.4664
2023-03-14 22:27:50:855,-1.27904,1.70528,-9.50483,-10.1434,-7.69776,16.4898
2023-03-14 22:27:50:866,-1.30278,1.71306,-9.5233,-10.1602,-7.69622,16.5115
2023-03-14 22:27:50:876,-1.31888,1.72779,-9.54576,-10.18,-7.69536,16.5365
2023-03-14 22:27:50:886,-1.28305,1.72527,-9.55318,-10.2008,-7.69042,16.5608
2023-03-14 22:27:50:896,-1.23991,1.70944,-9.53951,-10.2173,-7.68654,16.5878
2023-03-14 22:27:50:906,-1.2185,1.69818,-9.52458,-10.2335,-7.68501,16.6157
2023-03-14 22:27:50:916,-1.21227,1.70565,-9.50374,-10.2564,-7.68257,16.6476
2023-03-14 22:27:50:926,-1.21696,1.70531,-9.4951,-10.2776,-7.68752,16.6835
2023-03-14 22:27:50:936,-1.24495,1.71133,-9.49167,-10.3004,-7.68933,16.7211
2023-03-14 22:27:50:946,-1.2714,1.74422,-9.5499,-10.3318,-7.69545,16.76
2023-03-14 22:27:50:956,-1.29948,1.80944,-9.61511,-10.3637,-7.69575,16.7971
2023-03-14 22:27:50:965,-1.26982,1.84153,-9.63424,-10.3839,-7.69333,16.8305
2023-03-14 22:27:50:976,-1.21287,1.81116,-9.6157,-10.4,-7.69189,16.8666
2023-03-14 22:27:50:986,-1.18969,1.77266,-9.54717,-10.4121,-7.69198,16.9071
2023-03-14 22:27:50:996,-1.2294,1.75428,-9.51656,-10.4312,-7.69473,16.9506
2023-03-14 22:27:51:6,-1.26168,1.77657,-9.53508,-10.4512,-7.69887,16.9923
2023-03-14 22:27:51:16,-1.2707,1.83253,-9.55417,-10.4712,-7.70804,17.0384
2023-03-14 22:27:51:26,-1.27709,1.8683,-9.58367,-10.4927,-7.71665,17.0854
2023-03-14 22:27:51:36,-1.27442,1.888,-9.59759,-10.5105,-7.72136,17.1313
2023-03-14 22:27:51:46,-1.2913,1.90358,-9.59294,-10.5266,-7.727,17.1762
2023-03-14 22:27:51:56,-1.30702,1.91322,-9.56767,-10.5367,-7.73485,17.2171
2023-03-14 22:27:51:66,-1.32068,1.88952,-9.55427,-10.5478,-7.7397,17.2641
2023-03-14 22:27:51:76,-1.33084,1.85908,-9.51846,-10.5541,-7.74705,17.3049
2023-03-14 22:27:51:85,-1.34126,1.84315,-9.50456,-10.5588,-7.75458,17.3481
2023-03-14 22:27:51:96,-1.35393,1.84713,-9.50688,-10.5689,-7.76527,17.3878
2023-03-14 22:27:51:106,-1.37702,1.84784,-9.50705,-10.5755,-7.77652,17.4251
2023-03-14 22:27:51:116,-1.38423,1.84286,-9.52935,-10.5829,-7.78687,17.4594
2023-03-14 22:27:51:126,-1.39401,1.84514,-9.54467,-10.5908,-7.79717,17.4895
2023-03-14 22:27:51:136,-1.36849,1.85387,-9.56738,-10.5967,-7.80571,17.5178
2023-03-14 22:27:51:146,-1.38397,1.85383,-9.58329,-10.597,-7.81515,17.5408
2023-03-14 22:27:51:156,-1.391,1.84225,-9.57682,-10.596,-7.82849,17.5606
2023-03-14 22:27:51:166,-1.38616,1.82641,-9.54109,-10.5941,-7.8405,17.5832
2023-03-14 22:27:51:176,-1.36364,1.79709,-9.48843,-10.5893,-7.8487,17.5977
2023-03-14 22:27:51:186,-1.37159,1.7679,-9.46799,-10.5863,-7.85583,17.6112
2023-03-14 22:27:51:196,-1.41061,1.77158,-9.46744,-10.5876,-7.86254,17.6266
2023-03-14 22:27:51:206,-1.4165,1.79042,-9.49742,-10.5943,-7.86916,17.6394
2023-03-14 22:27:51:216,-1.3646,1.82214,-9.54462,-10.5971,-7.87013,17.6446
2023-03-14 22:27:51:226,-1.30342,1.80955,-9.56914,-10.5957,-7.87712,17.6467
2023-03-14 22:27:51:236,-1.31608,1.75727,-9.51851,-10.588,-7.8888,17.6517
2023-03-14 22:27:51:246,-1.36626,1.72734,-9.47799,-10.5797,-7.89847,17.6558
2023-03-14 22:27:51:256,-1.38841,1.71867,-9.44696,-10.5745,-7.90721,17.6617
2023-03-14 22:27:51:266,-1.38085,1.7207,-9.45419,-10.5735,-7.91162,17.6679
2023-03-14 22:27:51:276,-1.35133,1.72247,-9.49751,-10.5735,-7.91334,17.6719
2023-03-14 22:27:51:286,-1.32443,1.73106,-9.51756,-10.5784,-7.91727,17.6764
2023-03-14 22:27:51:295,-1.34498,1.7598,-9.54257,-10.5844,-7.91849,17.6819
2023-03-14 22:27:51:305,-1.34457,1.7844,-9.56468,-10.589,-7.91721,17.6868
2023-03-14 22:27:51:316,-1.31218,1.79157,-9.57204,-10.5932,-7.91306,17.6908
2023-03-14 22:27:51:326,-1.31111,1.7895,-9.54932,-10.596,-7.90811,17.696
2023-03-14 22:27:51:336,-1.30863,1.78651,-9.53213,-10.5997,-7.90335,17.7046
2023-03-14 22:27:51:345,-1.31113,1.79079,-9.51775,-10.6051,-7.89588,17.7144
2023-03-14 22:27:51:355,-1.30903,1.79853,-9.54314,-10.6063,-7.88973,17.7284
2023-03-14 22:27:51:365,-1.31202,1.79585,-9.55819,-10.6098,-7.88558,17.742
2023-03-14 22:27:51:375,-1.33398,1.81972,-9.5601,-10.6134,-7.88171,17.7542
2023-03-14 22:27:51:386,-1.35328,1.83576,-9.55665,-10.6137,-7.88056,17.7639
2023-03-14 22:27:51:396,-1.35971,1.83335,-9.53693,-10.6136,-7.87907,17.7705
2023-03-14 22:27:51:406,-1.36161,1.80935,-9.52024,-10.6116,-7.87849,17.7791
2023-03-14 22:27:51:415,-1.35873,1.80038,-9.50765,-10.6082,-7.87487,17.7852
2023-03-14 22:27:51:425,-1.354,1.79569,-9.53478,-10.6073,-7.87451,17.7915
2023-03-14 22:27:51:435,-1.35472,1.79963,-9.55435,-10.6033,-7.87423,17.7942
2023-03-14 22:27:51:445,-1.36763,1.79111,-9.55588,-10.5978,-7.87242,17.7995
2023-03-14 22:27:51:455,-1.38433,1.79639,-9.5356,-10.5911,-7.87055,17.8027
2023-03-14 22:27:51:465,-1.37472,1.78852,-9.53843,-10.585,-7.87085,17.8062
2023-03-14 22:27:51:475,-1.36711,1.78995,-9.5407,-10.577,-7.87226,17.8051
2023-03-14 22:27:51:485,-1.37273,1.79866,-9.54393,-10.5707,-7.87129,17.8032
2023-03-14 22:27:51:495,-1.38752,1.79334,-9.53539,-10.5604,-7.86833,17.7967
2023-03-14 22:27:51:505,-1.37459,1.79212,-9.53942,-10.55,-7.8673,17.7911
2023-03-14 22:27:51:515,-1.35872,1.79143,-9.54623,-10.5418,-7.86661,17.7847
2023-03-14 22:27:51:525,-1.34499,1.78567,-9.55609,-10.5277,-7.86495,17.775
2023-03-14 22:27:51:535,-1.34792,1.79709,-9.56115,-10.5165,-7.8637,17.7659
2023-03-14 22:27:51:545,-1.33976,1.79811,-9.54395,-10.5009,-7.86441,17.757
2023-03-14 22:27:51:555,-1.33663,1.78464,-9.53393,-10.4839,-7.86171,17.7461
2023-03-14 22:27:51:565,-1.33422,1.77012,-9.5248,-10.4695,-7.85913,17.7387
2023-03-14 22:27:51:576,-1.33416,1.75566,-9.51799,-10.4524,-7.85567,17.7272
2023-03-14 22:27:51:586,-1.32141,1.73732,-9.5065,-10.436,-7.85217,17.7186
2023-03-14 22:27:51:596,-1.30938,1.74996,-9.51067,-10.4208,-7.84751,17.7106
2023-03-14 22:27:51:605,-1.33016,1.76153,-9.51643,-10.4072,-7.84818,17.7042
2023-03-14 22:27:51:616,-1.33593,1.7647,-9.5211,-10.3935,-7.84886,17.7002
2023-03-14 22:27:51:626,-1.33913,1.76898,-9.52676,-10.3779,-7.84862,17.6925
2023-03-14 22:27:51:636,-1.33838,1.75643,-9.5121,-10.3607,-7.84503,17.6861
2023-03-14 22:27:51:646,-1.32977,1.73451,-9.48594,-10.3442,-7.84369,17.6785
2023-03-14 22:27:51:656,-1.31999,1.72092,-9.49183,-10.327,-7.83923,17.6739
2023-03-14 22:27:51:666,-1.32482,1.72963,-9.49449,-10.3158,-7.83398,17.6677
2023-03-14 22:27:51:676,-1.32799,1.71015,-9.49404,-10.3048,-7.83006,17.6654
2023-03-14 22:27:51:686,-1.31053,1.68791,-9.4899,-10.2937,-7.82059,17.6607
2023-03-14 22:27:51:696,-1.30062,1.68284,-9.48161,-10.2836,-7.81332,17.6588
2023-03-14 22:27:51:706,-1.28921,1.68583,-9.49027,-10.2748,-7.80446,17.6547
2023-03-14 22:27:51:716,-1.29273,1.69955,-9.50962,-10.2667,-7.79899,17.652
2023-03-14 22:27:51:726,-1.3075,1.69021,-9.50333,-10.2614,-7.79744,17.6497
2023-03-14 22:27:51:736,-1.32719,1.68101,-9.52052,-10.2561,-7.79368,17.6462
2023-03-14 22:27:51:746,-1.3239,1.69681,-9.55123,-10.2568,-7.79235,17.6411
2023-03-14 22:27:51:756,-1.28735,1.71443,-9.57589,-10.254,-7.78762,17.6328
2023-03-14 22:27:51:766,-1.22668,1.70496,-9.59124,-10.2495,-7.78358,17.6244
2023-03-14 22:27:51:776,-1.21388,1.68312,-9.57536,-10.2436,-7.7797,17.6203
2023-03-14 22:27:51:786,-1.22326,1.67655,-9.54333,-10.2383,-7.78417,17.618
2023-03-14 22:27:51:796,-1.29158,1.71569,-9.53616,-10.2351,-7.78885,17.6303
2023-03-14 22:27:51:816,-1.30029,1.72565,-9.56477,-10.2342,-7.79157,17.6359
2023-03-14 22:27:51:825,-1.3057,1.72901,-9.57569,-10.2348,-7.79684,17.6438
2023-03-14 22:27:51:835,-1.31095,1.73723,-9.54954,-10.2334,-7.80105,17.6473
2023-03-14 22:27:51:845,-1.31558,1.72694,-9.53289,-10.2336,-7.80245,17.6525
2023-03-14 22:27:51:855,-1.31824,1.71645,-9.5419,-10.2313,-7.8042,17.6595
2023-03-14 22:27:51:865,-1.33125,1.72961,-9.52851,-10.23,-7.80015,17.6701
2023-03-14 22:27:51:875,-1.32931,1.731,-9.52473,-10.2288,-7.7959,17.6815
2023-03-14 22:27:51:885,-1.34347,1.73905,-9.51991,-10.2274,-7.79614,17.6928
2023-03-14 22:27:51:895,-1.3618,1.75074,-9.53001,-10.2259,-7.79145,17.7068
2023-03-14 22:27:51:905,-1.38084,1.74953,-9.5509,-10.2208,-7.79273,17.7168
2023-03-14 22:27:51:915,-1.3885,1.73249,-9.55626,-10.2114,-7.78955,17.7216
