Timestamp,Acceleration_x,Acceleration_y,Acceleration_z,roll,pitch,yaw
2023-03-10 21:46:03:933,-1.29821,1.4751,-9.84422,-7.37443,-8.13476,89.3215
2023-03-10 21:46:03:941,-1.32952,1.44798,-9.82559,-7.36948,-8.13995,89.329
2023-03-10 21:46:03:951,-1.33916,1.41692,-9.81886,-7.35338,-8.14749,89.3413
2023-03-10 21:46:03:961,-1.35811,1.37491,-9.80701,-7.32476,-8.15672,89.3534
2023-03-10 21:46:03:972,-1.41703,1.29615,-9.73678,-7.28603,-8.17607,89.3714
2023-03-10 21:46:03:982,-1.50986,1.21915,-9.67301,-7.24232,-8.20104,89.3893
2023-03-10 21:46:03:992,-1.61042,1.20497,-9.63423,-7.19322,-8.23372,89.4032
2023-03-10 21:46:04:2,-1.68378,1.18818,-9.58364,-7.13388,-8.27359,89.4063
2023-03-10 21:46:04:12,-1.7362,1.11971,-9.52974,-7.07456,-8.30916,89.3957
2023-03-10 21:46:04:21,-1.80245,1.07074,-9.50317,-7.01465,-8.34674,89.3709
2023-03-10 21:46:04:32,-1.79017,1.05451,-9.47675,-6.95241,-8.37702,89.3289
2023-03-10 21:46:04:42,-1.63581,1.04476,-9.48221,-6.89544,-8.39764,89.2692
2023-03-10 21:46:04:52,-1.42584,1.06713,-9.58677,-6.84158,-8.40172,89.2037
2023-03-10 21:46:04:62,-1.32756,1.12142,-9.66233,-6.79285,-8.39899,89.1408
2023-03-10 21:46:04:72,-1.32268,1.13996,-9.63918,-6.74056,-8.40049,89.0849
2023-03-10 21:46:04:82,-1.30488,1.12078,-9.53003,-6.69077,-8.39839,89.0381
2023-03-10 21:46:04:92,-1.25986,1.1271,-9.45109,-6.65284,-8.39043,89.0006
2023-03-10 21:46:04:102,-1.25098,1.16418,-9.43667,-6.62853,-8.38274,88.9737
2023-03-10 21:46:04:112,-1.3132,1.19338,-9.45151,-6.61767,-8.37581,88.963
2023-03-10 21:46:04:122,-1.44778,1.27015,-9.49967,-6.61548,-8.3671,88.9618
2023-03-10 21:46:04:132,-1.55722,1.35027,-9.57189,-6.61892,-8.35617,88.9687
2023-03-10 21:46:04:142,-1.61088,1.36295,-9.63964,-6.61694,-8.33829,88.9665
2023-03-10 21:46:04:152,-1.61063,1.35351,-9.67872,-6.60909,-8.31604,88.9607
2023-03-10 21:46:04:162,-1.57124,1.31123,-9.67356,-6.59061,-8.29173,88.9437
2023-03-10 21:46:04:172,-1.52864,1.23572,-9.6544,-6.56444,-8.2697,88.9153
2023-03-10 21:46:04:182,-1.4583,1.18837,-9.64393,-6.53206,-8.25144,88.8788
2023-03-10 21:46:04:192,-1.41874,1.16434,-9.64333,-6.49772,-8.24158,88.8327
2023-03-10 21:46:04:202,-1.38881,1.11645,-9.63854,-6.4636,-8.23597,88.7846
2023-03-10 21:46:04:212,-1.3624,1.04752,-9.62815,-6.42409,-8.23598,88.7324
2023-03-10 21:46:04:222,-1.35654,0.99104,-9.61227,-6.38351,-8.24252,88.6789
2023-03-10 21:46:04:232,-1.35582,0.949677,-9.60224,-6.34805,-8.25107,88.6245
2023-03-10 21:46:04:242,-1.36004,0.933402,-9.60115,-6.31671,-8.26094,88.5669
2023-03-10 21:46:04:252,-1.37854,0.931868,-9.60168,-6.28832,-8.26548,88.5136
2023-03-10 21:46:04:262,-1.38188,0.932795,-9.5958,-6.26084,-8.26654,88.4575
2023-03-10 21:46:04:272,-1.38162,0.929842,-9.57323,-6.23305,-8.26185,88.4018
2023-03-10 21:46:04:281,-1.37007,0.898628,-9.56167,-6.20269,-8.25591,88.3482
2023-03-10 21:46:04:291,-1.34457,0.889786,-9.54629,-6.17708,-8.24883,88.2913
2023-03-10 21:46:04:301,-1.31345,0.887392,-9.5152,-6.15563,-8.23841,88.2353
2023-03-10 21:46:04:311,-1.30067,0.886184,-9.49593,-6.13926,-8.22539,88.1798
2023-03-10 21:46:04:321,-1.27533,0.890883,-9.4911,-6.1268,-8.21395,88.1221
2023-03-10 21:46:04:331,-1.28009,0.901281,-9.48388,-6.12065,-8.2006,88.0672
2023-03-10 21:46:04:341,-1.29615,0.905394,-9.48925,-6.11911,-8.19019,88.011
2023-03-10 21:46:04:351,-1.29941,0.939314,-9.5298,-6.12874,-8.17893,87.9565
2023-03-10 21:46:04:362,-1.30482,1.00251,-9.58907,-6.14401,-8.1669,87.902
2023-03-10 21:46:04:372,-1.29576,1.02982,-9.60292,-6.15433,-8.1544,87.8463
2023-03-10 21:46:04:381,-1.27809,1.03417,-9.60232,-6.1658,-8.14761,87.7897
2023-03-10 21:46:04:392,-1.27319,1.05367,-9.61976,-6.17806,-8.14472,87.7277
2023-03-10 21:46:04:402,-1.27269,1.09337,-9.63879,-6.19375,-8.14559,87.6706
2023-03-10 21:46:04:412,-1.27931,1.11859,-9.65272,-6.21584,-8.15079,87.6081
2023-03-10 21:46:04:422,-1.28239,1.15438,-9.66967,-6.23799,-8.15948,87.5455
2023-03-10 21:46:04:432,-1.29815,1.18761,-9.66367,-6.2674,-8.17756,87.4812
2023-03-10 21:46:04:442,-1.29034,1.19924,-9.65261,-6.29323,-8.20184,87.4226
2023-03-10 21:46:04:452,-1.29803,1.21096,-9.68132,-6.32084,-8.23227,87.3647
2023-03-10 21:46:04:462,-1.31811,1.24435,-9.70538,-6.35237,-8.26719,87.3116
2023-03-10 21:46:04:472,-1.34933,1.27515,-9.70261,-6.38257,-8.30244,87.2695
2023-03-10 21:46:04:482,-1.39035,1.28682,-9.70427,-6.40893,-8.3413,87.2325
2023-03-10 21:46:04:492,-1.44143,1.29929,-9.72701,-6.42749,-8.38179,87.1996
2023-03-10 21:46:04:502,-1.48702,1.3191,-9.76396,-6.4426,-8.41927,87.17
2023-03-10 21:46:04:512,-1.52856,1.33744,-9.76443,-6.44575,-8.45274,87.1434
2023-03-10 21:46:04:522,-1.52664,1.27954,-9.71629,-6.43525,-8.47698,87.1185
2023-03-10 21:46:04:532,-1.51116,1.20524,-9.63159,-6.41263,-8.49075,87.0959
2023-03-10 21:46:04:542,-1.44836,1.13179,-9.55421,-6.38659,-8.49901,87.0725
2023-03-10 21:46:04:551,-1.36399,1.06095,-9.51432,-6.3647,-8.50026,87.0534
2023-03-10 21:46:04:562,-1.35094,1.02831,-9.48492,-6.34509,-8.49723,87.0415
2023-03-10 21:46:04:572,-1.37349,1.0156,-9.48899,-6.33472,-8.49282,87.0327
2023-03-10 21:46:04:582,-1.3784,1.04526,-9.53032,-6.33426,-8.49253,87.0338
2023-03-10 21:46:04:592,-1.39299,1.08658,-9.57599,-6.33867,-8.48914,87.0413
2023-03-10 21:46:04:602,-1.42296,1.09151,-9.60175,-6.34344,-8.48753,87.051
2023-03-10 21:46:04:612,-1.45868,1.09746,-9.59727,-6.35022,-8.48551,87.066
2023-03-10 21:46:04:622,-1.47952,1.11436,-9.61774,-6.35816,-8.48624,87.0775
2023-03-10 21:46:04:632,-1.46368,1.13669,-9.66496,-6.36636,-8.4888,87.087
2023-03-10 21:46:04:642,-1.44138,1.13398,-9.66429,-6.37111,-8.49487,87.0945
2023-03-10 21:46:04:652,-1.42799,1.10589,-9.6268,-6.38067,-8.50569,87.0982
2023-03-10 21:46:04:662,-1.42919,1.10422,-9.60509,-6.38961,-8.51832,87.1046
2023-03-10 21:46:04:672,-1.45385,1.13127,-9.58915,-6.40013,-8.53167,87.107
2023-03-10 21:46:04:682,-1.49544,1.1485,-9.58751,-6.41411,-8.54926,87.1103
2023-03-10 21:46:04:692,-1.51019,1.17758,-9.60024,-6.42745,-8.56229,87.1124
2023-03-10 21:46:04:702,-1.48255,1.20109,-9.5987,-6.44097,-8.57105,87.1104
2023-03-10 21:46:04:712,-1.44626,1.20403,-9.59333,-6.45617,-8.57801,87.1172
2023-03-10 21:46:04:722,-1.43962,1.20479,-9.60931,-6.47152,-8.58428,87.1237
2023-03-10 21:46:04:732,-1.4521,1.22252,-9.63921,-6.48445,-8.58759,87.1358
2023-03-10 21:46:04:742,-1.47014,1.22482,-9.64123,-6.49692,-8.59479,87.1496
2023-03-10 21:46:04:752,-1.48605,1.22538,-9.64999,-6.51006,-8.60012,87.1686
2023-03-10 21:46:04:762,-1.53973,1.23347,-9.65888,-6.52093,-8.61258,87.1942
2023-03-10 21:46:04:772,-1.61236,1.23103,-9.6276,-6.52714,-8.62261,87.2196
2023-03-10 21:46:04:782,-1.64515,1.2042,-9.59174,-6.52239,-8.62572,87.2442
2023-03-10 21:46:04:792,-1.68857,1.17635,-9.58255,-6.52118,-8.62907,87.268
2023-03-10 21:46:04:802,-1.712,1.15566,-9.6029,-6.51687,-8.62823,87.2865
2023-03-10 21:46:04:812,-1.7188,1.15688,-9.63099,-6.50906,-8.62725,87.2981
2023-03-10 21:46:04:821,-1.66466,1.14167,-9.6525,-6.49607,-8.62059,87.3024
2023-03-10 21:46:04:831,-1.58234,1.15062,-9.66062,-6.48902,-8.61383,87.3008
2023-03-10 21:46:04:841,-1.54186,1.14326,-9.63001,-6.47561,-8.60729,87.2989
2023-03-10 21:46:04:851,-1.57565,1.10719,-9.58557,-6.46131,-8.60637,87.2985
2023-03-10 21:46:04:861,-1.6147,1.11077,-9.55491,-6.45067,-8.60055,87.2961
2023-03-10 21:46:04:871,-1.59314,1.11054,-9.56568,-6.44463,-8.58981,87.2894
2023-03-10 21:46:04:881,-1.48636,1.08692,-9.58972,-6.43766,-8.57107,87.2787
2023-03-10 21:46:04:891,-1.37248,1.04799,-9.6011,-6.42773,-8.55383,87.267
2023-03-10 21:46:04:901,-1.33225,1.01842,-9.61217,-6.41873,-8.54298,87.2541
2023-03-10 21:46:04:911,-1.36684,1.01743,-9.60434,-6.41088,-8.53517,87.2484
2023-03-10 21:46:04:921,-1.41076,1.02756,-9.60799,-6.40885,-8.53138,87.2495
2023-03-10 21:46:04:932,-1.43347,1.05519,-9.61065,-6.41251,-8.52381,87.2537
2023-03-10 21:46:04:942,-1.43891,1.08039,-9.61761,-6.41398,-8.51427,87.2605
2023-03-10 21:46:04:952,-1.39848,1.10837,-9.619,-6.41312,-8.4987,87.2657
2023-03-10 21:46:04:962,-1.33882,1.11202,-9.61792,-6.41391,-8.47968,87.2723
2023-03-10 21:46:04:972,-1.29235,1.09791,-9.57817,-6.41222,-8.45893,87.2866
2023-03-10 21:46:04:982,-1.26276,1.08285,-9.55795,-6.41524,-8.43859,87.3029
2023-03-10 21:46:04:992,-1.27272,1.07673,-9.56138,-6.42046,-8.42219,87.3256
2023-03-10 21:46:05:2,-1.33345,1.08258,-9.55786,-6.4282,-8.41318,87.3563
2023-03-10 21:46:05:12,-1.38811,1.09355,-9.56733,-6.43609,-8.40545,87.3898
2023-03-10 21:46:05:22,-1.4646,1.1182,-9.56795,-6.44751,-8.39969,87.4221
2023-03-10 21:46:05:32,-1.51852,1.11458,-9.5974,-6.45497,-8.39769,87.4513
2023-03-10 21:46:05:42,-1.54288,1.12903,-9.60396,-6.46093,-8.39371,87.4731
2023-03-10 21:46:05:51,-1.53584,1.11141,-9.60175,-6.46543,-8.3865,87.4893
2023-03-10 21:46:05:61,-1.49547,1.07029,-9.58305,-6.46502,-8.3808,87.4985
2023-03-10 21:46:05:72,-1.44053,1.04137,-9.58356,-6.46767,-8.37572,87.501
2023-03-10 21:46:05:82,-1.36583,1.0312,-9.61618,-6.47401,-8.36797,87.5005
2023-03-10 21:46:05:91,-1.34459,1.03016,-9.65966,-6.48743,-8.36645,87.5021
2023-03-10 21:46:05:101,-1.34763,1.03112,-9.69079,-6.5003,-8.36913,87.5063
2023-03-10 21:46:05:112,-1.37561,1.05667,-9.72228,-6.5135,-8.37007,87.5111
2023-03-10 21:46:05:122,-1.39804,1.07328,-9.74038,-6.52133,-8.3721,87.5189
2023-03-10 21:46:05:132,-1.41388,1.05183,-9.735,-6.52517,-8.3741,87.5216
2023-03-10 21:46:05:142,-1.42089,1.01755,-9.67844,-6.52224,-8.37016,87.5231
2023-03-10 21:46:05:152,-1.4026,0.98149,-9.5951,-6.51526,-8.36622,87.5196
2023-03-10 21:46:05:162,-1.35663,0.943573,-9.55522,-6.50704,-8.35754,87.5124
2023-03-10 21:46:05:172,-1.29725,0.921775,-9.53698,-6.50127,-8.34991,87.5017
2023-03-10 21:46:05:182,-1.23375,0.922735,-9.53074,-6.49988,-8.33785,87.4869
2023-03-10 21:46:05:192,-1.1941,0.933325,-9.52181,-6.50279,-8.32727,87.4761
2023-03-10 21:46:05:202,-1.16311,0.965865,-9.54598,-6.51244,-8.31584,87.4682
2023-03-10 21:46:05:215,-1.13375,1.00048,-9.57009,-6.52602,-8.30477,87.4651
2023-03-10 21:46:05:222,-1.10877,1.01005,-9.56698,-6.53966,-8.29225,87.4648
2023-03-10 21:46:05:232,-1.10205,0.999704,-9.55807,-6.55636,-8.2798,87.4696
2023-03-10 21:46:05:242,-1.07298,0.992823,-9.54811,-6.57634,-8.27275,87.477
2023-03-10 21:46:05:252,-1.0522,1.00753,-9.56455,-6.60346,-8.27195,87.4898
2023-03-10 21:46:05:262,-1.10172,1.07828,-9.57746,-6.63976,-8.2787,87.5142
2023-03-10 21:46:05:272,-1.18009,1.15233,-9.60761,-6.68054,-8.29456,87.5475
2023-03-10 21:46:05:282,-1.26175,1.19808,-9.64814,-6.72459,-8.31609,87.5815
2023-03-10 21:46:05:292,-1.29956,1.26251,-9.64961,-6.76403,-8.33456,87.6135
2023-03-10 21:46:05:302,-1.29931,1.27486,-9.64869,-6.80334,-8.36175,87.6519
2023-03-10 21:46:05:312,-1.33224,1.25496,-9.64936,-6.8361,-8.3941,87.6874
2023-03-10 21:46:05:322,-1.4138,1.255,-9.64015,-6.86866,-8.4383,87.7231
2023-03-10 21:46:05:332,-1.5013,1.26319,-9.65454,-6.90398,-8.48665,87.7608
2023-03-10 21:46:05:342,-1.56404,1.27598,-9.66604,-6.93205,-8.53426,87.7911
2023-03-10 21:46:05:352,-1.57099,1.27232,-9.63065,-6.96021,-8.58008,87.8156
2023-03-10 21:46:05:362,-1.55298,1.25098,-9.57117,-6.98328,-8.62684,87.8378
2023-03-10 21:46:05:372,-1.55738,1.24271,-9.54251,-7.01022,-8.66975,87.8565
2023-03-10 21:46:05:382,-1.58663,1.28103,-9.55019,-7.0396,-8.70641,87.883
2023-03-10 21:46:05:392,-1.59945,1.3293,-9.56864,-7.07301,-8.73675,87.9084
2023-03-10 21:46:05:402,-1.62143,1.32726,-9.58423,-7.10325,-8.76284,87.9407
2023-03-10 21:46:05:412,-1.64034,1.31021,-9.61032,-7.12859,-8.7836,87.9674
2023-03-10 21:46:05:422,-1.65584,1.33256,-9.61059,-7.15445,-8.80263,87.9921
2023-03-10 21:46:05:432,-1.66381,1.35103,-9.60646,-7.17783,-8.82376,88.015
2023-03-10 21:46:05:442,-1.69038,1.33398,-9.5919,-7.19789,-8.84504,88.0331
2023-03-10 21:46:05:452,-1.71583,1.32286,-9.62842,-7.21291,-8.86909,88.0475
2023-03-10 21:46:05:462,-1.73863,1.34408,-9.67081,-7.23018,-8.88999,88.0563
2023-03-10 21:46:05:472,-1.72358,1.35934,-9.6898,-7.24401,-8.90818,88.058
2023-03-10 21:46:05:482,-1.68103,1.35025,-9.70642,-7.24725,-8.92379,88.0504
2023-03-10 21:46:05:492,-1.61108,1.33508,-9.713,-7.24613,-8.93612,88.0354
2023-03-10 21:46:05:502,-1.56105,1.30641,-9.68051,-7.2451,-8.94844,88.0173
2023-03-10 21:46:05:512,-1.53432,1.28469,-9.60789,-7.24528,-8.95914,88.0027
2023-03-10 21:46:05:522,-1.50066,1.28542,-9.5585,-7.24482,-8.9662,87.9878
2023-03-10 21:46:05:532,-1.46534,1.309,-9.5688,-7.25001,-8.97174,87.9749
2023-03-10 21:46:05:542,-1.42135,1.33707,-9.60138,-7.25928,-8.97582,87.9685
2023-03-10 21:46:05:552,-1.4047,1.37563,-9.63323,-7.26752,-8.97933,87.9689
2023-03-10 21:46:05:562,-1.43296,1.39793,-9.65204,-7.27371,-8.97838,87.9766
2023-03-10 21:46:05:572,-1.46414,1.37818,-9.64261,-7.27605,-8.98265,87.9932
2023-03-10 21:46:05:582,-1.50659,1.36545,-9.60737,-7.26958,-8.98205,88.0096
2023-03-10 21:46:05:592,-1.56405,1.33596,-9.56004,-7.25908,-8.98227,88.0312
2023-03-10 21:46:05:602,-1.60823,1.29415,-9.50117,-7.24401,-8.98249,88.0568
2023-03-10 21:46:05:612,-1.63275,1.25262,-9.44796,-7.22711,-8.97909,88.074
2023-03-10 21:46:05:622,-1.64223,1.22231,-9.43853,-7.21586,-8.97325,88.0855
2023-03-10 21:46:05:632,-1.63794,1.21524,-9.45137,-7.20974,-8.96514,88.0936
2023-03-10 21:46:05:642,-1.57682,1.24689,-9.5024,-7.20879,-8.9534,88.0957
2023-03-10 21:46:05:652,-1.48291,1.26715,-9.55374,-7.21232,-8.93404,88.0914
2023-03-10 21:46:05:662,-1.41755,1.27407,-9.5745,-7.21657,-8.91921,88.0887
2023-03-10 21:46:05:672,-1.40528,1.28921,-9.57682,-7.22804,-8.9111,88.0913
2023-03-10 21:46:05:682,-1.4264,1.33739,-9.57587,-7.24081,-8.89788,88.0945
2023-03-10 21:46:05:692,-1.42315,1.36267,-9.58236,-7.25682,-8.88229,88.1034
2023-03-10 21:46:05:702,-1.44306,1.34842,-9.59012,-7.27547,-8.87151,88.116
2023-03-10 21:46:05:712,-1.46823,1.35211,-9.58671,-7.29119,-8.86243,88.1266
2023-03-10 21:46:05:722,-1.46756,1.34819,-9.58588,-7.30695,-8.84969,88.1361
2023-03-10 21:46:05:732,-1.45884,1.342,-9.63049,-7.31521,-8.84135,88.1422
2023-03-10 21:46:05:742,-1.44701,1.3595,-9.67948,-7.32731,-8.83728,88.1511
2023-03-10 21:46:05:752,-1.47184,1.37732,-9.71737,-7.3338,-8.83827,88.1539
2023-03-10 21:46:05:762,-1.50048,1.3727,-9.72167,-7.32998,-8.84597,88.1506
2023-03-10 21:46:05:772,-1.51231,1.34995,-9.69912,-7.32172,-8.85554,88.1489
2023-03-10 21:46:05:782,-1.50731,1.29601,-9.67683,-7.30701,-8.8654,88.1407
2023-03-10 21:46:05:792,-1.50653,1.26783,-9.67085,-7.29312,-8.87144,88.1349
2023-03-10 21:46:05:802,-1.49871,1.26252,-9.67375,-7.2765,-8.88026,88.1279
2023-03-10 21:46:05:812,-1.47386,1.266,-9.69204,-7.25905,-8.88965,88.1208
2023-03-10 21:46:05:822,-1.46714,1.26572,-9.67612,-7.23401,-8.8995,88.1141
2023-03-10 21:46:05:832,-1.45498,1.26593,-9.64046,-7.20767,-8.90552,88.1091
2023-03-10 21:46:05:842,-1.43085,1.24764,-9.61246,-7.18153,-8.91113,88.1074
2023-03-10 21:46:05:852,-1.43128,1.21535,-9.57772,-7.1566,-8.92061,88.1095
2023-03-10 21:46:05:862,-1.45567,1.22284,-9.55169,-7.13188,-8.93024,88.1155
2023-03-10 21:46:05:872,-1.46943,1.22695,-9.54898,-7.11193,-8.93976,88.1249
2023-03-10 21:46:05:882,-1.49233,1.22138,-9.57289,-7.08954,-8.95003,88.1327
2023-03-10 21:46:05:892,-1.51169,1.2104,-9.59106,-7.06678,-8.9613,88.1444
2023-03-10 21:46:05:902,-1.52649,1.21089,-9.56858,-7.04383,-8.97056,88.1577
2023-03-10 21:46:05:912,-1.55067,1.18954,-9.54964,-7.02258,-8.98831,88.1718
2023-03-10 21:46:05:922,-1.58645,1.18097,-9.58818,-7.00103,-9.00144,88.1866
2023-03-10 21:46:05:932,-1.61312,1.21172,-9.62336,-6.97727,-9.01312,88.1961
2023-03-10 21:46:05:942,-1.62381,1.213,-9.63283,-6.953,-9.02769,88.2049
2023-03-10 21:46:05:952,-1.63005,1.18431,-9.631,-6.92287,-9.03999,88.2071
2023-03-10 21:46:05:962,-1.60087,1.15755,-9.5897,-6.89313,-9.052,88.2067
2023-03-10 21:46:05:972,-1.58485,1.13023,-9.55629,-6.86252,-9.06177,88.2074
2023-03-10 21:46:05:982,-1.6007,1.09638,-9.53121,-6.83413,-9.07319,88.2069
2023-03-10 21:46:05:992,-1.61065,1.0823,-9.50594,-6.80747,-9.08131,88.2009
2023-03-10 21:46:06:2,-1.6004,1.08605,-9.499,-6.78279,-9.08817,88.1989
2023-03-10 21:46:06:12,-1.58973,1.082,-9.50575,-6.75896,-9.09416,88.1917
2023-03-10 21:46:06:22,-1.58327,1.07138,-9.50031,-6.73814,-9.10061,88.1848
2023-03-10 21:46:06:32,-1.58017,1.06675,-9.49708,-6.72124,-9.10045,88.1776
2023-03-10 21:46:06:42,-1.56294,1.06998,-9.51578,-6.70724,-9.09676,88.165
2023-03-10 21:46:06:52,-1.54494,1.0753,-9.53442,-6.69867,-9.08887,88.154
2023-03-10 21:46:06:62,-1.52151,1.07315,-9.55429,-6.69463,-9.08959,88.1418
2023-03-10 21:46:06:72,-1.51088,1.10197,-9.55057,-6.69054,-9.08741,88.1273
2023-03-10 21:46:06:82,-1.49097,1.10977,-9.54887,-6.68998,-9.08397,88.1137
2023-03-10 21:46:06:92,-1.46357,1.10579,-9.57656,-6.68954,-9.08536,88.0981
2023-03-10 21:46:06:102,-1.44503,1.13697,-9.59996,-6.69209,-9.0846,88.0825
2023-03-10 21:46:06:112,-1.42834,1.15927,-9.62987,-6.69725,-9.08595,88.0667
2023-03-10 21:46:06:122,-1.43242,1.18596,-9.68157,-6.7028,-9.08892,88.0525
2023-03-10 21:46:06:132,-1.44435,1.2086,-9.68773,-6.70583,-9.09596,88.0451
2023-03-10 21:46:06:142,-1.45205,1.20548,-9.66508,-6.70485,-9.10196,88.0411
2023-03-10 21:46:06:152,-1.46737,1.21142,-9.63257,-6.70389,-9.11129,88.0401
2023-03-10 21:46:06:162,-1.49538,1.21808,-9.62963,-6.70208,-9.11897,88.0413
2023-03-10 21:46:06:172,-1.51325,1.19378,-9.63053,-6.70013,-9.13229,88.0443
2023-03-10 21:46:06:182,-1.57612,1.17547,-9.62167,-6.69627,-9.14345,88.0499
2023-03-10 21:46:06:191,-1.62625,1.16275,-9.63464,-6.69152,-9.15439,88.0548
2023-03-10 21:46:06:201,-1.63921,1.16804,-9.65466,-6.68205,-9.16963,88.058
2023-03-10 21:46:06:211,-1.64614,1.17818,-9.67014,-6.67058,-9.18297,88.0551
2023-03-10 21:46:06:221,-1.64713,1.18229,-9.64702,-6.65511,-9.1938,88.0479
2023-03-10 21:46:06:231,-1.66447,1.17457,-9.6274,-6.63565,-9.21064,88.0364
2023-03-10 21:46:06:241,-1.6845,1.1904,-9.59189,-6.61466,-9.22948,88.0237
2023-03-10 21:46:06:251,-1.72619,1.16824,-9.57244,-6.58987,-9.25011,88.005
2023-03-10 21:46:06:261,-1.71403,1.16068,-9.59727,-6.56606,-9.27073,87.9809
2023-03-10 21:46:06:271,-1.62873,1.14605,-9.65831,-6.53822,-9.29192,87.9478
2023-03-10 21:46:06:281,-1.61813,1.11862,-9.65074,-6.50388,-9.31619,87.9123
2023-03-10 21:46:06:291,-1.6563,1.09394,-9.6468,-6.46481,-9.35059,87.8778
2023-03-10 21:46:06:301,-1.70309,1.07324,-9.61618,-6.42227,-9.38336,87.8422
2023-03-10 21:46:06:311,-1.71003,1.04804,-9.56543,-6.37623,-9.41491,87.8015
2023-03-10 21:46:06:321,-1.67766,1.01549,-9.52137,-6.3292,-9.43988,87.7581
2023-03-10 21:46:06:331,-1.67122,0.969054,-9.46233,-6.28246,-9.46003,87.7133
2023-03-10 21:46:06:341,-1.66636,0.955702,-9.44714,-6.24006,-9.47397,87.6686
2023-03-10 21:46:06:351,-1.61772,0.972221,-9.52232,-6.20713,-9.48261,87.6231
2023-03-10 21:46:06:361,-1.53922,1.00295,-9.60549,-6.17942,-9.49179,87.5782
2023-03-10 21:46:06:371,-1.50912,0.994675,-9.62061,-6.14785,-9.50142,87.5363
2023-03-10 21:46:06:381,-1.51241,0.992186,-9.5998,-6.12107,-9.51595,87.496
2023-03-10 21:46:06:391,-1.5438,1.03047,-9.5926,-6.1005,-9.5372,87.4641
2023-03-10 21:46:06:401,-1.59203,1.09815,-9.60818,-6.08303,-9.55999,87.4388
2023-03-10 21:46:06:411,-1.62381,1.14186,-9.59476,-6.06984,-9.58067,87.417
2023-03-10 21:46:06:421,-1.63571,1.14438,-9.55829,-6.05467,-9.59939,87.3986
2023-03-10 21:46:06:431,-1.63823,1.14249,-9.5434,-6.04541,-9.62128,87.3846
2023-03-10 21:46:06:441,-1.65582,1.13122,-9.54836,-6.03372,-9.64674,87.3714
2023-03-10 21:46:06:451,-1.69499,1.12264,-9.56714,-6.0227,-9.66645,87.3616
2023-03-10 21:46:06:461,-1.7415,1.13129,-9.59592,-6.00843,-9.68528,87.3534
2023-03-10 21:46:06:471,-1.78324,1.14401,-9.62922,-5.98998,-9.70152,87.343
2023-03-10 21:46:06:481,-1.81335,1.14435,-9.66534,-5.96664,-9.71704,87.3273
2023-03-10 21:46:06:491,-1.82902,1.15525,-9.66507,-5.93732,-9.72703,87.3107
2023-03-10 21:46:06:501,-1.81995,1.13264,-9.65508,-5.90086,-9.73373,87.2933
2023-03-10 21:46:06:511,-1.80017,1.07459,-9.60564,-5.85577,-9.73529,87.266
2023-03-10 21:46:06:521,-1.75976,1.0065,-9.53861,-5.80783,-9.72236,87.2387
2023-03-10 21:46:06:531,-1.70092,0.985119,-9.52857,-5.76353,-9.69837,87.212
2023-03-10 21:46:06:541,-1.60925,1.01674,-9.61311,-5.71987,-9.66036,87.1801
2023-03-10 21:46:06:551,-1.5363,1.01241,-9.62611,-5.68082,-9.62058,87.1562
2023-03-10 21:46:06:561,-1.47544,1.00453,-9.56032,-5.65204,-9.58939,87.1348
2023-03-10 21:46:06:571,-1.45518,1.03069,-9.54905,-5.62929,-9.56243,87.1189
2023-03-10 21:46:06:581,-1.52235,1.0962,-9.62707,-5.61324,-9.53485,87.1129
2023-03-10 21:46:06:591,-1.61904,1.14088,-9.67913,-5.59398,-9.50721,87.1162
2023-03-10 21:46:06:601,-1.70155,1.13425,-9.66175,-5.56532,-9.47708,87.1163
2023-03-10 21:46:06:611,-1.69148,1.07786,-9.68658,-5.5229,-9.43726,87.1105
2023-03-10 21:46:06:621,-1.60426,1.0245,-9.76017,-5.46546,-9.39121,87.0957
2023-03-10 21:46:06:631,-1.52435,0.944228,-9.77684,-5.3984,-9.35197,87.0708
2023-03-10 21:46:06:641,-1.44364,0.849365,-9.74303,-5.33023,-9.32715,87.0485
2023-03-10 21:46:06:651,-1.37607,0.849475,-9.78489,-5.26143,-9.31217,87.0212
2023-03-10 21:46:06:661,-1.36836,0.942706,-9.83802,-5.19378,-9.31376,87.0005
2023-03-10 21:46:06:671,-1.41973,0.996102,-9.83451,-5.11657,-9.31872,86.9852
2023-03-10 21:46:06:681,-1.48534,0.990793,-9.78113,-5.02736,-9.319,86.9723
2023-03-10 21:46:06:691,-1.52643,0.946772,-9.69697,-4.92356,-9.31585,86.9612
2023-03-10 21:46:06:701,-1.53926,0.854972,-9.58373,-4.81398,-9.30768,86.9509
2023-03-10 21:46:06:711,-1.53794,0.747435,-9.4945,-4.70518,-9.30261,86.9366
2023-03-10 21:46:06:721,-1.5265,0.663827,-9.43122,-4.60623,-9.29233,86.9218
2023-03-10 21:46:06:731,-1.51571,0.632227,-9.41299,-4.5181,-9.28234,86.902
2023-03-10 21:46:06:741,-1.47249,0.624361,-9.44733,-4.44419,-9.27795,86.8788
2023-03-10 21:46:06:752,-1.44796,0.647403,-9.53778,-4.37987,-9.277,86.8513
2023-03-10 21:46:06:761,-1.47307,0.678961,-9.61259,-4.31665,-9.27978,86.8208
2023-03-10 21:46:06:772,-1.49989,0.689087,-9.60766,-4.25779,-9.28587,86.7865
2023-03-10 21:46:06:781,-1.48412,0.634351,-9.54448,-4.19728,-9.29751,86.7461
2023-03-10 21:46:06:792,-1.48074,0.56986,-9.46645,-4.13902,-9.30719,86.7013
2023-03-10 21:46:06:802,-1.4801,0.552512,-9.42831,-4.09004,-9.31429,86.6593
2023-03-10 21:46:06:812,-1.49903,0.581771,-9.42802,-4.05184,-9.32131,86.6112
2023-03-10 21:46:06:822,-1.50645,0.596258,-9.44083,-4.02076,-9.32378,86.5684
2023-03-10 21:46:06:832,-1.48362,0.594886,-9.44341,-3.99909,-9.32372,86.5272
2023-03-10 21:46:06:842,-1.45571,0.61053,-9.48485,-3.98699,-9.31899,86.484
2023-03-10 21:46:06:852,-1.45858,0.630052,-9.55269,-3.98182,-9.30967,86.4432
2023-03-10 21:46:06:862,-1.48273,0.643,-9.5766,-3.97802,-9.30513,86.404
2023-03-10 21:46:06:872,-1.48088,0.628298,-9.60073,-3.97632,-9.29354,86.3632
2023-03-10 21:46:06:882,-1.45087,0.645818,-9.61842,-3.96915,-9.27745,86.3158
2023-03-10 21:46:06:892,-1.42667,0.616951,-9.62055,-3.96498,-9.26235,86.2701
2023-03-10 21:46:06:902,-1.43475,0.609401,-9.62206,-3.96413,-9.24897,86.224
2023-03-10 21:46:06:912,-1.43735,0.636063,-9.64634,-3.96939,-9.23658,86.1782
2023-03-10 21:46:06:922,-1.39677,0.647068,-9.72944,-3.97413,-9.22598,86.1343
2023-03-10 21:46:06:932,-1.33742,0.682556,-9.7881,-3.98123,-9.22314,86.0964
2023-03-10 21:46:06:942,-1.28811,0.711775,-9.8067,-3.98249,-9.22981,86.0644
2023-03-10 21:46:06:952,-1.27826,0.723112,-9.81359,-3.98605,-9.24605,86.0451
2023-03-10 21:46:06:962,-1.32562,0.781818,-9.84894,-3.99054,-9.27374,86.0347
2023-03-10 21:46:06:972,-1.41904,0.863368,-9.84083,-3.99008,-9.31826,86.0439
2023-03-10 21:46:06:982,-1.5361,0.896556,-9.75229,-3.9879,-9.3636,86.0722
2023-03-10 21:46:06:992,-1.64476,0.884716,-9.58749,-3.97881,-9.41074,86.1096
2023-03-10 21:46:07:2,-1.75187,0.869203,-9.42155,-3.96446,-9.44685,86.1586
2023-03-10 21:46:07:12,-1.82908,0.878526,-9.39247,-3.95201,-9.45606,86.219
2023-03-10 21:46:07:22,-1.88994,0.906335,-9.44237,-3.94057,-9.44603,86.2792
2023-03-10 21:46:07:32,-1.92655,0.897565,-9.4856,-3.92987,-9.42519,86.3323
2023-03-10 21:46:07:42,-1.87327,0.867939,-9.50492,-3.92095,-9.39877,86.3725
2023-03-10 21:46:07:52,-1.80752,0.857156,-9.59693,-3.90994,-9.37149,86.4022
2023-03-10 21:46:07:62,-1.82854,0.880153,-9.67961,-3.90031,-9.34478,86.426
2023-03-10 21:46:07:72,-1.87353,0.90204,-9.69808,-3.88343,-9.314,86.4388
2023-03-10 21:46:07:82,-1.86652,0.846219,-9.67977,-3.85593,-9.28758,86.4322
2023-03-10 21:46:07:92,-1.80986,0.783136,-9.65099,-3.82523,-9.26369,86.4093
2023-03-10 21:46:07:102,-1.74797,0.715608,-9.6263,-3.7955,-9.253,86.3673
2023-03-10 21:46:07:112,-1.70771,0.691389,-9.62976,-3.76868,-9.25012,86.3097
2023-03-10 21:46:07:122,-1.66889,0.675633,-9.66839,-3.74944,-9.26144,86.2444
2023-03-10 21:46:07:132,-1.60119,0.653282,-9.70137,-3.72476,-9.27766,86.1669
2023-03-10 21:46:07:142,-1.53463,0.642557,-9.70355,-3.69647,-9.29978,86.086
2023-03-10 21:46:07:152,-1.48872,0.61458,-9.67443,-3.67118,-9.32282,86.0059
2023-03-10 21:46:07:162,-1.45653,0.570667,-9.64257,-3.63549,-9.34821,85.9285
2023-03-10 21:46:07:172,-1.44119,0.510321,-9.60972,-3.6088,-9.38069,85.8596
2023-03-10 21:46:07:182,-1.47028,0.471388,-9.56321,-3.58656,-9.42421,85.7991
2023-03-10 21:46:07:192,-1.5025,0.479222,-9.57371,-3.57102,-9.47618,85.7467
2023-03-10 21:46:07:202,-1.5539,0.533785,-9.6378,-3.56062,-9.53092,85.7039
2023-03-10 21:46:07:212,-1.64597,0.593419,-9.71683,-3.55032,-9.582,85.674
2023-03-10 21:46:07:222,-1.69974,0.626962,-9.77155,-3.53342,-9.63015,85.6486
2023-03-10 21:46:07:232,-1.6938,0.619789,-9.73488,-3.49727,-9.65992,85.6266
2023-03-10 21:46:07:242,-1.63015,0.536326,-9.63645,-3.45067,-9.68037,85.609
2023-03-10 21:46:07:252,-1.61911,0.501054,-9.54298,-3.40282,-9.69257,85.6024
2023-03-10 21:46:07:262,-1.64138,0.478256,-9.4734,-3.36068,-9.702,85.6064
2023-03-10 21:46:07:272,-1.62823,0.449685,-9.42698,-3.32951,-9.70442,85.6137
2023-03-10 21:46:07:282,-1.61915,0.420473,-9.42068,-3.31245,-9.70063,85.6322
2023-03-10 21:46:07:292,-1.64668,0.468181,-9.48076,-3.30772,-9.69579,85.658
2023-03-10 21:46:07:302,-1.6644,0.525632,-9.53541,-3.30959,-9.68791,85.69
2023-03-10 21:46:07:312,-1.68238,0.52961,-9.53759,-3.31336,-9.67917,85.725
2023-03-10 21:46:07:322,-1.70087,0.550428,-9.52939,-3.3246,-9.66593,85.7629
2023-03-10 21:46:07:332,-1.70729,0.569876,-9.54476,-3.337,-9.64913,85.8051
2023-03-10 21:46:07:342,-1.70136,0.615034,-9.57337,-3.35284,-9.62913,85.8477
2023-03-10 21:46:07:351,-1.70632,0.649983,-9.58401,-3.36678,-9.60351,85.8914
2023-03-10 21:46:07:361,-1.75091,0.653476,-9.56474,-3.37581,-9.58095,85.9322
2023-03-10 21:46:07:371,-1.77388,0.659793,-9.56655,-3.39162,-9.55078,85.9701
2023-03-10 21:46:07:381,-1.76397,0.674974,-9.60497,-3.40706,-9.52049,85.9976
2023-03-10 21:46:07:392,-1.6977,0.695782,-9.65373,-3.4175,-9.48777,86.0148
2023-03-10 21:46:07:402,-1.62945,0.699725,-9.67751,-3.42639,-9.45758,86.0245
2023-03-10 21:46:07:412,-1.58643,0.686425,-9.66742,-3.42982,-9.42918,86.0314
2023-03-10 21:46:07:422,-1.54441,0.670676,-9.64359,-3.43411,-9.40727,86.0359
2023-03-10 21:46:07:432,-1.50923,0.656437,-9.65241,-3.43945,-9.39098,86.036
2023-03-10 21:46:07:442,-1.49038,0.671778,-9.70081,-3.44802,-9.37576,86.0376
2023-03-10 21:46:07:452,-1.50607,0.6949,-9.73745,-3.45286,-9.36551,86.0362
2023-03-10 21:46:07:462,-1.50936,0.697168,-9.73433,-3.45216,-9.35747,86.0369
2023-03-10 21:46:07:472,-1.49972,0.669667,-9.7145,-3.44737,-9.3485,86.0387
2023-03-10 21:46:07:482,-1.50536,0.630125,-9.69582,-3.43734,-9.34321,86.0404
2023-03-10 21:46:07:492,-1.53061,0.627956,-9.69547,-3.42717,-9.3422,86.0434
2023-03-10 21:46:07:502,-1.55467,0.618729,-9.68445,-3.41342,-9.34438,86.0498
2023-03-10 21:46:07:512,-1.56505,0.574292,-9.63519,-3.39576,-9.3489,86.0552
2023-03-10 21:46:07:522,-1.55391,0.523135,-9.58514,-3.38453,-9.35449,86.0569
2023-03-10 21:46:07:532,-1.55585,0.525309,-9.5736,-3.37849,-9.35845,86.0583
2023-03-10 21:46:07:542,-1.56483,0.572838,-9.60588,-3.37731,-9.3613,86.0619
2023-03-10 21:46:07:552,-1.56411,0.609348,-9.67367,-3.37494,-9.36678,86.0648
2023-03-10 21:46:07:562,-1.55922,0.642059,-9.70448,-3.37225,-9.37485,86.0661
2023-03-10 21:46:07:572,-1.58788,0.629119,-9.69722,-3.36341,-9.38258,86.0693
2023-03-10 21:46:07:582,-1.60468,0.59735,-9.66776,-3.35402,-9.39222,86.0738
2023-03-10 21:46:07:592,-1.6089,0.575462,-9.62606,-3.34021,-9.40095,86.0759
2023-03-10 21:46:07:602,-1.60287,0.536034,-9.59329,-3.32803,-9.40872,86.0765
2023-03-10 21:46:07:612,-1.62253,0.528101,-9.5502,-3.31809,-9.41486,86.0811
2023-03-10 21:46:07:622,-1.64506,0.502768,-9.51794,-3.3084,-9.41915,86.0846
2023-03-10 21:46:07:632,-1.67654,0.500862,-9.51354,-3.3055,-9.42353,86.0865
2023-03-10 21:46:07:642,-1.68625,0.521038,-9.52686,-3.30421,-9.42515,86.0912
2023-03-10 21:46:07:652,-1.67326,0.543986,-9.55608,-3.30687,-9.42702,86.0956
2023-03-10 21:46:07:662,-1.66323,0.53944,-9.59527,-3.31069,-9.42083,86.0957
2023-03-10 21:46:07:672,-1.64745,0.552593,-9.63738,-3.31573,-9.4178,86.0942
2023-03-10 21:46:07:682,-1.62335,0.585306,-9.68974,-3.31873,-9.41349,86.0913
2023-03-10 21:46:07:692,-1.62528,0.618445,-9.7062,-3.32284,-9.41425,86.0866
2023-03-10 21:46:07:702,-1.6238,0.61026,-9.7078,-3.32231,-9.41599,86.0785
2023-03-10 21:46:07:712,-1.60498,0.596066,-9.70986,-3.31908,-9.41733,86.0697
2023-03-10 21:46:07:722,-1.60396,0.566778,-9.66063,-3.30761,-9.41859,86.0606
2023-03-10 21:46:07:732,-1.59738,0.520478,-9.60422,-3.29722,-9.41818,86.0515
2023-03-10 21:46:07:742,-1.5999,0.52321,-9.58255,-3.28859,-9.41185,86.0435
2023-03-10 21:46:07:752,-1.61115,0.555549,-9.63014,-3.28339,-9.39997,86.0384
2023-03-10 21:46:07:762,-1.62444,0.566722,-9.66674,-3.2776,-9.38672,86.0301
2023-03-10 21:46:07:772,-1.60182,0.522877,-9.64606,-3.2672,-9.37927,86.0187
2023-03-10 21:46:07:782,-1.55995,0.51135,-9.61569,-3.2602,-9.37781,86.0066
2023-03-10 21:46:07:792,-1.56418,0.549989,-9.67752,-3.25317,-9.36563,85.9961
2023-03-10 21:46:07:802,-1.5878,0.55895,-9.69947,-3.24307,-9.34787,85.9872
2023-03-10 21:46:07:812,-1.53689,0.479306,-9.63484,-3.22414,-9.33208,85.9754
2023-03-10 21:46:07:822,-1.46524,0.395715,-9.54249,-3.20785,-9.32758,85.9604
2023-03-10 21:46:07:832,-1.44829,0.394085,-9.52586,-3.20506,-9.32829,85.9528
2023-03-10 21:46:07:842,-1.48311,0.420918,-9.55776,-3.21379,-9.33406,85.9545
2023-03-10 21:46:07:852,-1.51481,0.425334,-9.56558,-3.22617,-9.34526,85.9557
2023-03-10 21:46:07:862,-1.54255,0.442916,-9.56099,-3.24311,-9.35248,85.9611
2023-03-10 21:46:07:872,-1.57921,0.472679,-9.57716,-3.26139,-9.36141,85.9712
2023-03-10 21:46:07:882,-1.61557,0.514749,-9.58721,-3.28003,-9.36615,85.9805
2023-03-10 21:46:07:892,-1.61829,0.51937,-9.60173,-3.30295,-9.36932,85.9896
2023-03-10 21:46:07:902,-1.61398,0.516181,-9.60979,-3.32188,-9.36677,85.9978
2023-03-10 21:46:07:912,-1.58599,0.514268,-9.62071,-3.34189,-9.36087,86.0073
2023-03-10 21:46:07:922,-1.56152,0.535505,-9.63365,-3.36059,-9.35101,86.0192
2023-03-10 21:46:07:932,-1.54966,0.568357,-9.66729,-3.37881,-9.34281,86.03
2023-03-10 21:46:07:942,-1.54419,0.610299,-9.68663,-3.39854,-9.33409,86.0428
2023-03-10 21:46:07:952,-1.5635,0.62376,-9.7076,-3.41656,-9.32839,86.0597
2023-03-10 21:46:07:962,-1.56617,0.632757,-9.73578,-3.42812,-9.32255,86.0743
2023-03-10 21:46:07:972,-1.59689,0.652433,-9.73004,-3.43648,-9.31881,86.0921
2023-03-10 21:46:07:982,-1.63771,0.645847,-9.70832,-3.43975,-9.32377,86.1087
2023-03-10 21:46:07:992,-1.65885,0.605363,-9.67576,-3.43914,-9.32424,86.1212
2023-03-10 21:46:08:2,-1.62769,0.592743,-9.69233,-3.44115,-9.32585,86.1308
2023-03-10 21:46:08:12,-1.55914,0.597629,-9.7278,-3.43846,-9.32222,86.1338
2023-03-10 21:46:08:22,-1.52633,0.59285,-9.76562,-3.42997,-9.32281,86.135
2023-03-10 21:46:08:32,-1.49924,0.576636,-9.75967,-3.41547,-9.32717,86.1393
2023-03-10 21:46:08:42,-1.51872,0.576063,-9.72944,-3.40164,-9.33469,86.1469
2023-03-10 21:46:08:52,-1.57599,0.570561,-9.69051,-3.38922,-9.34286,86.1574
2023-03-10 21:46:08:62,-1.63575,0.595629,-9.6698,-3.37467,-9.35268,86.1705
2023-03-10 21:46:08:72,-1.66182,0.596835,-9.62668,-3.35765,-9.36113,86.1816
2023-03-10 21:46:08:82,-1.6447,0.596513,-9.60746,-3.3431,-9.36753,86.1918
2023-03-10 21:46:08:92,-1.61918,0.598244,-9.60247,-3.3264,-9.36906,86.2038
2023-03-10 21:46:08:102,-1.61008,0.60329,-9.58351,-3.31243,-9.36981,86.2169
2023-03-10 21:46:08:112,-1.6064,0.581879,-9.59457,-3.30074,-9.37548,86.2327
2023-03-10 21:46:08:122,-1.61834,0.61377,-9.63704,-3.28711,-9.38049,86.2487
2023-03-10 21:46:08:132,-1.67414,0.673686,-9.67206,-3.2725,-9.3867,86.2619
2023-03-10 21:46:08:142,-1.71574,0.630584,-9.6452,-3.24481,-9.39125,86.2765
2023-03-10 21:46:08:152,-1.72413,0.582417,-9.56932,-3.21707,-9.3938,86.2858
2023-03-10 21:46:08:162,-1.71864,0.57753,-9.54922,-3.19457,-9.39536,86.2949
2023-03-10 21:46:08:172,-1.69298,0.573422,-9.56319,-3.17338,-9.38979,86.3005
2023-03-10 21:46:08:182,-1.66012,0.558628,-9.5805,-3.15618,-9.38152,86.3008
2023-03-10 21:46:08:192,-1.6115,0.584658,-9.61766,-3.14236,-9.36812,86.2948
2023-03-10 21:46:08:202,-1.58735,0.591771,-9.65284,-3.12914,-9.35585,86.2901
2023-03-10 21:46:08:212,-1.57507,0.574174,-9.64865,-3.11624,-9.34229,86.2826
2023-03-10 21:46:08:222,-1.55626,0.54805,-9.6178,-3.1054,-9.33047,86.281
2023-03-10 21:46:08:232,-1.52188,0.542943,-9.60596,-3.09859,-9.31781,86.2765
2023-03-10 21:46:08:242,-1.50573,0.553011,-9.62192,-3.09522,-9.3073,86.2694
2023-03-10 21:46:08:252,-1.49859,0.584777,-9.64025,-3.09341,-9.29904,86.2649
2023-03-10 21:46:08:262,-1.47966,0.562719,-9.61202,-3.0929,-9.2951,86.2614
2023-03-10 21:46:08:272,-1.42505,0.5146,-9.57615,-3.09197,-9.28681,86.2592
2023-03-10 21:46:08:282,-1.37689,0.499832,-9.58007,-3.09458,-9.28522,86.2531
2023-03-10 21:46:08:292,-1.38441,0.503591,-9.571,-3.1002,-9.29016,86.2548
2023-03-10 21:46:08:302,-1.45013,0.49832,-9.53328,-3.10697,-9.29754,86.2608
2023-03-10 21:46:08:312,-1.53672,0.486304,-9.51739,-3.1186,-9.30378,86.2727
2023-03-10 21:46:08:322,-1.56207,0.519164,-9.55762,-3.1443,-9.31184,86.2865
2023-03-10 21:46:08:332,-1.57115,0.545934,-9.61001,-3.17038,-9.31931,86.2978
2023-03-10 21:46:08:342,-1.57051,0.544299,-9.64515,-3.19498,-9.322,86.3111
2023-03-10 21:46:08:352,-1.56153,0.571689,-9.69131,-3.22164,-9.32349,86.3222
2023-03-10 21:46:08:362,-1.5679,0.596634,-9.70476,-3.24448,-9.32141,86.3337
2023-03-10 21:46:08:372,-1.54288,0.575442,-9.66818,-3.26157,-9.31944,86.3416
2023-03-10 21:46:08:382,-1.50471,0.526503,-9.58199,-3.27699,-9.31663,86.3501
2023-03-10 21:46:08:392,-1.4958,0.480292,-9.53486,-3.29775,-9.31219,86.3616
2023-03-10 21:46:08:402,-1.49586,0.494664,-9.5424,-3.32748,-9.31274,86.3708
2023-03-10 21:46:08:412,-1.49953,0.497077,-9.61387,-3.35739,-9.31351,86.3826
2023-03-10 21:46:08:422,-1.5404,0.621946,-9.76055,-3.39956,-9.32073,86.3986
2023-03-10 21:46:08:432,-1.59687,0.767736,-9.81434,-3.42658,-9.32359,86.4123
2023-03-10 21:46:08:442,-1.6346,0.651432,-9.70608,-3.43519,-9.32772,86.4201
2023-03-10 21:46:08:452,-1.59118,0.587601,-9.58627,-3.44173,-9.32846,86.4237
2023-03-10 21:46:08:462,-1.54266,0.567869,-9.61126,-3.45453,-9.32431,86.4285
2023-03-10 21:46:08:472,-1.55346,0.630726,-9.70333,-3.46962,-9.32364,86.4352
2023-03-10 21:46:08:482,-1.56343,0.675151,-9.74216,-3.48215,-9.32734,86.4363
2023-03-10 21:46:08:492,-1.56882,0.6408,-9.71677,-3.48658,-9.32762,86.4402
2023-03-10 21:46:08:502,-1.54011,0.604213,-9.67022,-3.48825,-9.33322,86.4398
2023-03-10 21:46:08:512,-1.5274,0.599223,-9.64209,-3.49006,-9.3358,86.4392
2023-03-10 21:46:08:522,-1.52991,0.616149,-9.65091,-3.49581,-9.34154,86.4377
2023-03-10 21:46:08:532,-1.54778,0.629905,-9.67514,-3.50034,-9.34821,86.4441
2023-03-10 21:46:08:542,-1.5687,0.648523,-9.67177,-3.50422,-9.35519,86.4475
2023-03-10 21:46:08:552,-1.57726,0.660362,-9.65422,-3.50626,-9.35972,86.4518
2023-03-10 21:46:08:562,-1.57219,0.638337,-9.65131,-3.5068,-9.36961,86.4515
2023-03-10 21:46:08:572,-1.56358,0.619238,-9.63346,-3.50975,-9.37577,86.4512
2023-03-10 21:46:08:582,-1.57067,0.622616,-9.61059,-3.51073,-9.38568,86.4553
2023-03-10 21:46:08:592,-1.56935,0.608946,-9.58514,-3.51504,-9.39646,86.4598
2023-03-10 21:46:08:602,-1.57016,0.591686,-9.5671,-3.51679,-9.40481,86.4641
2023-03-10 21:46:08:612,-1.55309,0.595578,-9.57266,-3.52091,-9.41475,86.4661
2023-03-10 21:46:08:622,-1.5673,0.604709,-9.59382,-3.53061,-9.424,86.468
2023-03-10 21:46:08:632,-1.59339,0.618767,-9.61983,-3.5396,-9.43255,86.4748
2023-03-10 21:46:08:642,-1.63438,0.641033,-9.64045,-3.54451,-9.43743,86.4813
2023-03-10 21:46:08:652,-1.65456,0.629481,-9.66185,-3.55076,-9.44454,86.4895
2023-03-10 21:46:08:662,-1.66011,0.641105,-9.65155,-3.55468,-9.45442,86.4972
2023-03-10 21:46:08:672,-1.65276,0.615485,-9.64703,-3.55829,-9.46322,86.5005
2023-03-10 21:46:08:682,-1.64399,0.614287,-9.62634,-3.55989,-9.47368,86.4957
2023-03-10 21:46:08:692,-1.63407,0.628763,-9.62108,-3.56852,-9.48822,86.4933
2023-03-10 21:46:08:702,-1.63373,0.63356,-9.6022,-3.57649,-9.50599,86.4881
2023-03-10 21:46:08:712,-1.6415,0.629388,-9.58124,-3.58639,-9.52377,86.4872
2023-03-10 21:46:08:722,-1.6688,0.613534,-9.58753,-3.59554,-9.53862,86.4811
2023-03-10 21:46:08:732,-1.70657,0.632328,-9.61157,-3.60659,-9.55267,86.4777
2023-03-10 21:46:08:742,-1.7125,0.663476,-9.64706,-3.61297,-9.56496,86.4732
2023-03-10 21:46:08:752,-1.6854,0.66227,-9.65999,-3.61459,-9.57123,86.4613
2023-03-10 21:46:08:762,-1.65544,0.649187,-9.64303,-3.61394,-9.57718,86.4521
2023-03-10 21:46:08:772,-1.64945,0.646975,-9.60754,-3.61297,-9.58563,86.4414
2023-03-10 21:46:08:782,-1.64348,0.626522,-9.56789,-3.61257,-9.59146,86.43
2023-03-10 21:46:08:792,-1.63682,0.620071,-9.54237,-3.61252,-9.59837,86.4211
2023-03-10 21:46:08:802,-1.64692,0.620994,-9.53659,-3.61439,-9.60477,86.4098
2023-03-10 21:46:08:812,-1.67375,0.639138,-9.57235,-3.62435,-9.61048,86.4004
2023-03-10 21:46:08:822,-1.66517,0.671293,-9.6243,-3.63529,-9.62039,86.3868
2023-03-10 21:46:08:832,-1.61351,0.677794,-9.63696,-3.64428,-9.63099,86.3737
2023-03-10 21:46:08:842,-1.60076,0.657032,-9.62669,-3.65472,-9.63829,86.3596
2023-03-10 21:46:08:852,-1.61236,0.639818,-9.62267,-3.66606,-9.64746,86.3497
2023-03-10 21:46:08:862,-1.60607,0.634761,-9.62457,-3.67985,-9.66024,86.3399
2023-03-10 21:46:08:872,-1.6361,0.661887,-9.63949,-3.70036,-9.67258,86.3285
2023-03-10 21:46:08:882,-1.65787,0.710146,-9.64956,-3.72354,-9.6872,86.3228
2023-03-10 21:46:08:892,-1.64082,0.734747,-9.68257,-3.74431,-9.70191,86.3159
2023-03-10 21:46:08:902,-1.64652,0.74935,-9.69151,-3.76437,-9.71777,86.3111
2023-03-10 21:46:08:912,-1.68071,0.778859,-9.66777,-3.78147,-9.73222,86.31
2023-03-10 21:46:08:922,-1.70118,0.798101,-9.65564,-3.79554,-9.74473,86.3064
2023-03-10 21:46:08:932,-1.68647,0.770358,-9.63698,-3.80302,-9.75807,86.3046
2023-03-10 21:46:08:942,-1.66838,0.720027,-9.60439,-3.8065,-9.76464,86.3029
2023-03-10 21:46:08:952,-1.68165,0.683169,-9.58077,-3.80834,-9.77209,86.3023
2023-03-10 21:46:08:962,-1.69256,0.672709,-9.57452,-3.8125,-9.77956,86.3063
2023-03-10 21:46:08:972,-1.72514,0.678972,-9.59255,-3.81441,-9.78724,86.3071
2023-03-10 21:46:08:982,-1.78857,0.712442,-9.61493,-3.81991,-9.7858,86.3051
2023-03-10 21:46:08:992,-1.82065,0.721208,-9.6506,-3.82163,-9.78245,86.3007
2023-03-10 21:46:09:2,-1.77929,0.72584,-9.67597,-3.81805,-9.7762,86.2944
2023-03-10 21:46:09:12,-1.71184,0.714309,-9.66818,-3.81387,-9.76647,86.283
2023-03-10 21:46:09:22,-1.69719,0.678358,-9.6309,-3.80746,-9.75681,86.2682
2023-03-10 21:46:09:32,-1.68243,0.668594,-9.57882,-3.79893,-9.7509,86.2522
2023-03-10 21:46:09:42,-1.63657,0.6532,-9.53418,-3.79381,-9.74064,86.2358
2023-03-10 21:46:09:52,-1.63341,0.618928,-9.53913,-3.79537,-9.72868,86.2199
2023-03-10 21:46:09:62,-1.65328,0.645838,-9.59342,-3.80433,-9.71776,86.2099
2023-03-10 21:46:09:72,-1.6622,0.716407,-9.67362,-3.81767,-9.70629,86.1976
2023-03-10 21:46:09:82,-1.65435,0.752568,-9.73596,-3.82461,-9.69025,86.1897
2023-03-10 21:46:09:92,-1.59203,0.739996,-9.72641,-3.82053,-9.67647,86.1782
2023-03-10 21:46:09:102,-1.54457,0.677856,-9.65785,-3.80798,-9.65998,86.1677
2023-03-10 21:46:09:112,-1.54228,0.610974,-9.5888,-3.79495,-9.64879,86.1574
2023-03-10 21:46:09:122,-1.53199,0.585749,-9.54447,-3.78572,-9.63631,86.1512
2023-03-10 21:46:09:132,-1.53322,0.589428,-9.5448,-3.78192,-9.62531,86.1492
2023-03-10 21:46:09:142,-1.57543,0.59111,-9.56295,-3.78319,-9.61836,86.1488
2023-03-10 21:46:09:152,-1.64802,0.644655,-9.61173,-3.79306,-9.61046,86.1531
2023-03-10 21:46:09:162,-1.66304,0.696753,-9.68568,-3.8006,-9.59932,86.161
2023-03-10 21:46:09:172,-1.64812,0.720432,-9.70308,-3.80474,-9.59117,86.1648
2023-03-10 21:46:09:182,-1.6167,0.694202,-9.68656,-3.80732,-9.58032,86.1675
2023-03-10 21:46:09:192,-1.60064,0.660647,-9.64087,-3.80411,-9.56664,86.1706
2023-03-10 21:46:09:202,-1.60536,0.637454,-9.59177,-3.80502,-9.5617,86.1721
2023-03-10 21:46:09:212,-1.62048,0.627301,-9.5565,-3.79925,-9.55686,86.171
2023-03-10 21:46:09:222,-1.62665,0.625387,-9.56552,-3.79505,-9.552,86.1728
2023-03-10 21:46:09:232,-1.65059,0.644676,-9.58833,-3.79365,-9.54674,86.1763
2023-03-10 21:46:09:242,-1.65924,0.638642,-9.59048,-3.79589,-9.54408,86.1745
2023-03-10 21:46:09:252,-1.64546,0.627786,-9.59561,-3.79756,-9.53713,86.1731
2023-03-10 21:46:09:262,-1.6265,0.617131,-9.58593,-3.79842,-9.53219,86.1672
2023-03-10 21:46:09:272,-1.61822,0.582152,-9.53804,-3.80008,-9.52644,86.1636
2023-03-10 21:46:09:282,-1.61315,0.559182,-9.48133,-3.80752,-9.51927,86.16
2023-03-10 21:46:09:292,-1.63444,0.519598,-9.46719,-3.82306,-9.51253,86.1535
2023-03-10 21:46:09:302,-1.67661,0.542115,-9.50753,-3.8493,-9.50847,86.1516
2023-03-10 21:46:09:312,-1.67741,0.591312,-9.54193,-3.88304,-9.50159,86.1449
2023-03-10 21:46:09:322,-1.6525,0.600989,-9.53607,-3.91516,-9.49357,86.1398
2023-03-10 21:46:09:332,-1.65107,0.593464,-9.54457,-3.94949,-9.4855,86.1324
2023-03-10 21:46:09:342,-1.63039,0.633574,-9.57453,-3.98709,-9.47576,86.1285
2023-03-10 21:46:09:352,-1.6479,0.676728,-9.61189,-4.02833,-9.4655,86.1223
2023-03-10 21:46:09:362,-1.65311,0.725454,-9.64503,-4.06996,-9.45738,86.1115
2023-03-10 21:46:09:372,-1.65795,0.743895,-9.67526,-4.11056,-9.44907,86.1014
2023-03-10 21:46:09:382,-1.66361,0.779425,-9.69332,-4.14583,-9.44311,86.0893
2023-03-10 21:46:09:392,-1.64781,0.808897,-9.71846,-4.17921,-9.43429,86.0734
2023-03-10 21:46:09:402,-1.63009,0.81774,-9.7277,-4.20527,-9.42808,86.0529
2023-03-10 21:46:09:412,-1.59987,0.790791,-9.69964,-4.22607,-9.42067,86.0303
2023-03-10 21:46:09:422,-1.56453,0.77488,-9.66486,-4.23969,-9.40789,86.0069
2023-03-10 21:46:09:432,-1.54088,0.757325,-9.64506,-4.25628,-9.39747,85.9818
2023-03-10 21:46:09:442,-1.52712,0.743372,-9.66786,-4.26974,-9.3921,85.9544
2023-03-10 21:46:09:452,-1.54932,0.766909,-9.68081,-4.28268,-9.38494,85.9316
2023-03-10 21:46:09:462,-1.5457,0.788616,-9.6937,-4.29273,-9.38194,85.9062
2023-03-10 21:46:09:472,-1.53215,0.773913,-9.66779,-4.3044,-9.38417,85.8776
2023-03-10 21:46:09:482,-1.55642,0.782066,-9.64844,-4.31916,-9.38665,85.8543
2023-03-10 21:46:09:492,-1.59604,0.801829,-9.66127,-4.33388,-9.39145,85.8306
2023-03-10 21:46:09:502,-1.5654,0.802405,-9.68204,-4.34283,-9.39468,85.8052
2023-03-10 21:46:09:512,-1.5248,0.800879,-9.68481,-4.34772,-9.39559,85.7776
2023-03-10 21:46:09:522,-1.53273,0.783724,-9.67352,-4.34815,-9.40066,85.7535
2023-03-10 21:46:09:532,-1.55553,0.767316,-9.62784,-4.3499,-9.40542,85.7274
2023-03-10 21:46:09:542,-1.56965,0.739937,-9.57999,-4.34645,-9.41252,85.7056
2023-03-10 21:46:09:552,-1.55144,0.709583,-9.55674,-4.3465,-9.41254,85.684
2023-03-10 21:46:09:562,-1.48688,0.687887,-9.55714,-4.35051,-9.41204,85.6631
2023-03-10 21:46:09:572,-1.44799,0.676731,-9.55993,-4.35333,-9.41552,85.6416
2023-03-10 21:46:09:582,-1.45266,0.684477,-9.52275,-4.36734,-9.4281,85.6264
2023-03-10 21:46:09:592,-1.49798,0.682416,-9.52786,-4.38895,-9.44485,85.617
2023-03-10 21:46:09:602,-1.57375,0.707436,-9.57427,-4.41794,-9.46765,85.6075
2023-03-10 21:46:09:612,-1.60557,0.782428,-9.67162,-4.45135,-9.48917,85.6005
2023-03-10 21:46:09:622,-1.6128,0.860239,-9.7582,-4.48074,-9.50952,85.5916
2023-03-10 21:46:09:632,-1.57839,0.874028,-9.79093,-4.50236,-9.52383,85.582
2023-03-10 21:46:09:642,-1.50345,0.830172,-9.76495,-4.51099,-9.53383,85.5734
2023-03-10 21:46:09:652,-1.46828,0.779103,-9.67336,-4.51296,-9.54497,85.5676
2023-03-10 21:46:09:662,-1.46764,0.753643,-9.59695,-4.51851,-9.55915,85.5679
2023-03-10 21:46:09:672,-1.52823,0.778666,-9.61357,-4.53443,-9.57649,85.5782
2023-03-10 21:46:09:682,-1.63206,0.862246,-9.67394,-4.55263,-9.59483,85.5969
2023-03-10 21:46:09:692,-1.70626,0.937085,-9.73652,-4.57191,-9.60584,85.6184
2023-03-10 21:46:09:702,-1.74883,1.00397,-9.80401,-4.58327,-9.60951,85.6384
2023-03-10 21:46:09:712,-1.75582,1.06196,-9.85194,-4.58193,-9.60526,85.661
2023-03-10 21:46:09:722,-1.75553,1.02452,-9.81086,-4.56169,-9.59859,85.6818
2023-03-10 21:46:09:732,-1.75563,0.944351,-9.70658,-4.52503,-9.58961,85.7004
2023-03-10 21:46:09:742,-1.74727,0.874463,-9.59051,-4.4839,-9.57778,85.7126
2023-03-10 21:46:09:752,-1.72244,0.795344,-9.50881,-4.44246,-9.56494,85.7229
2023-03-10 21:46:09:762,-1.70048,0.748996,-9.45954,-4.40543,-9.54789,85.7273
2023-03-10 21:46:09:772,-1.67215,0.724169,-9.45695,-4.37815,-9.53313,85.727
2023-03-10 21:46:09:782,-1.63338,0.7287,-9.50623,-4.35518,-9.5186,85.722
2023-03-10 21:46:09:792,-1.61948,0.728496,-9.57447,-4.33788,-9.50611,85.7158
2023-03-10 21:46:09:802,-1.60446,0.733441,-9.61986,-4.32226,-9.49379,85.7067
2023-03-10 21:46:09:812,-1.61193,0.731424,-9.63121,-4.31161,-9.48493,85.6961
2023-03-10 21:46:09:822,-1.58942,0.720458,-9.60964,-4.29883,-9.47869,85.6849
2023-03-10 21:46:09:832,-1.54833,0.724603,-9.58388,-4.2924,-9.47142,85.6721
2023-03-10 21:46:09:842,-1.52,0.696815,-9.55124,-4.28813,-9.46938,85.6593
2023-03-10 21:46:09:852,-1.5286,0.704226,-9.56678,-4.28867,-9.46776,85.6481
2023-03-10 21:46:09:862,-1.55598,0.746041,-9.60054,-4.29386,-9.46992,85.6407
2023-03-10 21:46:09:872,-1.54548,0.759557,-9.61613,-4.29847,-9.46632,85.633
2023-03-10 21:46:09:882,-1.49223,0.742483,-9.61848,-4.29518,-9.45893,85.6262
2023-03-10 21:46:09:892,-1.47958,0.733944,-9.62392,-4.29745,-9.45518,85.624
2023-03-10 21:46:09:902,-1.51516,0.717366,-9.62014,-4.29686,-9.45666,85.6194
2023-03-10 21:46:09:912,-1.5559,0.713443,-9.60638,-4.29928,-9.46124,85.6201
2023-03-10 21:46:09:922,-1.55061,0.716158,-9.61878,-4.29974,-9.46296,85.617
2023-03-10 21:46:09:932,-1.53325,0.717686,-9.63959,-4.3011,-9.46379,85.6167
2023-03-10 21:46:09:942,-1.51727,0.723063,-9.65098,-4.30586,-9.46759,85.6227
2023-03-10 21:46:09:952,-1.51396,0.734376,-9.64986,-4.30864,-9.46861,85.6252
2023-03-10 21:46:09:962,-1.50377,0.757988,-9.66591,-4.31394,-9.47383,85.6327
2023-03-10 21:46:09:972,-1.51192,0.765851,-9.67398,-4.31644,-9.47931,85.6418
2023-03-10 21:46:09:982,-1.53472,0.77202,-9.65243,-4.32445,-9.48734,85.6523
2023-03-10 21:46:09:992,-1.56196,0.776252,-9.6128,-4.32846,-9.49985,85.6666
2023-03-10 21:46:10:2,-1.61189,0.781983,-9.59413,-4.33279,-9.51172,85.6821
2023-03-10 21:46:10:12,-1.6433,0.765309,-9.59201,-4.3365,-9.52485,85.7005
2023-03-10 21:46:10:22,-1.64623,0.749455,-9.59978,-4.33816,-9.5358,85.7178
2023-03-10 21:46:10:32,-1.616,0.754206,-9.61886,-4.34578,-9.54924,85.732
2023-03-10 21:46:10:42,-1.60498,0.773894,-9.6345,-4.34836,-9.56262,85.7459
2023-03-10 21:46:10:52,-1.61585,0.770488,-9.63948,-4.35058,-9.58019,85.7591
2023-03-10 21:46:10:62,-1.62343,0.744699,-9.62011,-4.34938,-9.59895,85.7746
2023-03-10 21:46:10:72,-1.60995,0.738387,-9.61839,-4.34989,-9.61449,85.7865
2023-03-10 21:46:10:82,-1.59859,0.75702,-9.67687,-4.35388,-9.63032,85.8022
2023-03-10 21:46:10:92,-1.64957,0.827237,-9.73707,-4.35902,-9.64963,85.8228
2023-03-10 21:46:10:102,-1.72624,0.869616,-9.72683,-4.35519,-9.67123,85.8428
2023-03-10 21:46:10:112,-1.7359,0.849059,-9.66812,-4.3428,-9.68648,85.8579
2023-03-10 21:46:10:122,-1.69108,0.791773,-9.60475,-4.32807,-9.70306,85.8704
2023-03-10 21:46:10:132,-1.6518,0.733779,-9.53775,-4.31039,-9.71607,85.8805
2023-03-10 21:46:10:142,-1.65998,0.699932,-9.51867,-4.3052,-9.72971,85.8928
2023-03-10 21:46:10:152,-1.67781,0.727994,-9.56869,-4.3031,-9.74317,85.9033
2023-03-10 21:46:10:162,-1.70363,0.793697,-9.65511,-4.30502,-9.75471,85.9137
2023-03-10 21:46:10:172,-1.73876,0.851356,-9.71346,-4.30352,-9.76511,85.9246
2023-03-10 21:46:10:182,-1.7426,0.850234,-9.7234,-4.29228,-9.77407,85.9318
2023-03-10 21:46:10:192,-1.70274,0.818384,-9.67618,-4.27257,-9.77925,85.9303
2023-03-10 21:46:10:202,-1.66403,0.75883,-9.61525,-4.25042,-9.7834,85.9328
2023-03-10 21:46:10:212,-1.63463,0.695993,-9.55324,-4.22386,-9.78648,85.9322
2023-03-10 21:46:10:222,-1.6227,0.683787,-9.50436,-4.20273,-9.79081,85.9326
2023-03-10 21:46:10:232,-1.60699,0.674781,-9.50847,-4.19046,-9.79381,85.9353
2023-03-10 21:46:10:242,-1.61977,0.695509,-9.52312,-4.18463,-9.80025,85.9399
2023-03-10 21:46:10:252,-1.64973,0.721416,-9.56076,-4.1854,-9.80665,85.9438
2023-03-10 21:46:10:262,-1.65434,0.750821,-9.58366,-4.18873,-9.81409,85.9488
2023-03-10 21:46:10:272,-1.65148,0.75207,-9.59847,-4.18947,-9.82206,85.9554
2023-03-10 21:46:10:282,-1.65957,0.737751,-9.59458,-4.18726,-9.82708,85.9644
2023-03-10 21:46:10:292,-1.64923,0.718111,-9.59451,-4.18937,-9.83283,85.9716
2023-03-10 21:46:10:302,-1.6536,0.721707,-9.58482,-4.18837,-9.83688,85.9792
2023-03-10 21:46:10:312,-1.65883,0.702756,-9.57859,-4.18702,-9.8362,85.9861
2023-03-10 21:46:10:322,-1.68166,0.690968,-9.58787,-4.18955,-9.83826,85.9955
2023-03-10 21:46:10:332,-1.69063,0.72996,-9.60396,-4.19573,-9.84079,86.0048
2023-03-10 21:46:10:342,-1.70429,0.753197,-9.62584,-4.2017,-9.84534,86.015
2023-03-10 21:46:10:352,-1.7118,0.753494,-9.61862,-4.20277,-9.85267,86.0257
2023-03-10 21:46:10:362,-1.71104,0.727233,-9.60316,-4.20164,-9.85556,86.029
2023-03-10 21:46:10:372,-1.69586,0.712693,-9.59757,-4.20392,-9.85811,86.0331
2023-03-10 21:46:10:382,-1.6677,0.718842,-9.62272,-4.20514,-9.86235,86.038
2023-03-10 21:46:10:392,-1.64318,0.719478,-9.64636,-4.20645,-9.8646,86.0419
2023-03-10 21:46:10:402,-1.63777,0.722053,-9.65081,-4.21022,-9.87186,86.0451
2023-03-10 21:46:10:412,-1.67023,0.724975,-9.63313,-4.21112,-9.87844,86.047
2023-03-10 21:46:10:422,-1.70064,0.729084,-9.60922,-4.21103,-9.89057,86.0506
2023-03-10 21:46:10:432,-1.72557,0.732212,-9.60654,-4.21367,-9.89986,86.0551
2023-03-10 21:46:10:442,-1.72685,0.763445,-9.60118,-4.21911,-9.90312,86.0648
2023-03-10 21:46:10:452,-1.71795,0.76827,-9.58887,-4.22447,-9.90556,86.0702
2023-03-10 21:46:10:462,-1.70076,0.753824,-9.58208,-4.22979,-9.90819,86.076
2023-03-10 21:46:10:472,-1.68309,0.752192,-9.56579,-4.23499,-9.91203,86.0856
2023-03-10 21:46:10:482,-1.70039,0.758961,-9.58114,-4.24026,-9.91371,86.0958
2023-03-10 21:46:10:492,-1.72259,0.78112,-9.60707,-4.24946,-9.91672,86.1025
2023-03-10 21:46:10:502,-1.7405,0.768549,-9.60358,-4.25185,-9.91594,86.1107
2023-03-10 21:46:10:512,-1.7432,0.755995,-9.59894,-4.25265,-9.91654,86.1162
2023-03-10 21:46:10:522,-1.73168,0.754083,-9.59775,-4.25315,-9.91167,86.1189
2023-03-10 21:46:10:532,-1.70849,0.757024,-9.60271,-4.25784,-9.90787,86.1215
2023-03-10 21:46:10:542,-1.70149,0.747022,-9.6111,-4.2594,-9.90265,86.1239
2023-03-10 21:46:10:552,-1.68535,0.73192,-9.61622,-4.25899,-9.89812,86.1272
2023-03-10 21:46:10:562,-1.67175,0.738383,-9.6099,-4.26092,-9.89202,86.1256
2023-03-10 21:46:10:572,-1.6417,0.730709,-9.61991,-4.26519,-9.88927,86.1222
2023-03-10 21:46:10:582,-1.63524,0.747265,-9.62477,-4.27168,-9.88841,86.124
2023-03-10 21:46:10:592,-1.64561,0.766789,-9.62882,-4.27807,-9.88934,86.1247
2023-03-10 21:46:10:602,-1.70134,0.761777,-9.61052,-4.28026,-9.88663,86.1279
2023-03-10 21:46:10:612,-1.72751,0.760197,-9.60554,-4.28584,-9.88109,86.1294
2023-03-10 21:46:10:622,-1.71317,0.776135,-9.59854,-4.28783,-9.87115,86.1287
2023-03-10 21:46:10:632,-1.65177,0.77353,-9.61816,-4.29006,-9.8651,86.1256
2023-03-10 21:46:10:642,-1.57752,0.75839,-9.63038,-4.28739,-9.85639,86.1198
2023-03-10 21:46:10:652,-1.56719,0.734557,-9.62339,-4.28387,-9.85381,86.1183
2023-03-10 21:46:10:662,-1.61193,0.727011,-9.62232,-4.28343,-9.85208,86.1172
2023-03-10 21:46:10:672,-1.6276,0.72768,-9.60779,-4.28229,-9.85041,86.1193
2023-03-10 21:46:10:682,-1.61392,0.716965,-9.60439,-4.28024,-9.84764,86.1237
2023-03-10 21:46:10:692,-1.60819,0.724964,-9.61756,-4.28061,-9.84565,86.1287
2023-03-10 21:46:10:702,-1.62007,0.743619,-9.64155,-4.28691,-9.84256,86.1318
2023-03-10 21:46:10:712,-1.61347,0.777892,-9.66736,-4.29294,-9.84157,86.1397
2023-03-10 21:46:10:722,-1.62787,0.780776,-9.6871,-4.29618,-9.84087,86.1495
2023-03-10 21:46:10:732,-1.6532,0.785538,-9.65066,-4.29583,-9.84238,86.1622
2023-03-10 21:46:10:742,-1.66806,0.77332,-9.602,-4.29508,-9.84321,86.1723
2023-03-10 21:46:10:752,-1.66817,0.75975,-9.56366,-4.29378,-9.84522,86.1792
2023-03-10 21:46:10:762,-1.67262,0.738588,-9.55182,-4.28939,-9.84988,86.1812
2023-03-10 21:46:10:772,-1.69561,0.745123,-9.55584,-4.28735,-9.85496,86.1912
2023-03-10 21:46:10:782,-1.73676,0.764247,-9.56863,-4.28742,-9.86246,86.2006
2023-03-10 21:46:10:792,-1.75073,0.775214,-9.61099,-4.28809,-9.86972,86.2087
2023-03-10 21:46:10:802,-1.72546,0.774419,-9.65328,-4.28778,-9.8727,86.2087
2023-03-10 21:46:10:812,-1.70226,0.764631,-9.64472,-4.28067,-9.87478,86.2074
2023-03-10 21:46:10:822,-1.68805,0.738641,-9.6169,-4.27593,-9.8755,86.2111
2023-03-10 21:46:10:832,-1.67513,0.706611,-9.59253,-4.27053,-9.87643,86.2116
2023-03-10 21:46:10:842,-1.66859,0.692443,-9.56866,-4.26318,-9.87908,86.2105
2023-03-10 21:46:10:852,-1.67251,0.69367,-9.56522,-4.26222,-9.88098,86.2175
2023-03-10 21:46:10:862,-1.70224,0.714582,-9.57589,-4.26432,-9.88082,86.2235
2023-03-10 21:46:10:872,-1.73414,0.750236,-9.59707,-4.26951,-9.87793,86.231
2023-03-10 21:46:10:883,-1.75167,0.764181,-9.62838,-4.27239,-9.87627,86.2372
2023-03-10 21:46:10:892,-1.75356,0.756068,-9.61922,-4.27262,-9.87355,86.2384
2023-03-10 21:46:10:902,-1.7127,0.74424,-9.59605,-4.27105,-9.86892,86.2391
2023-03-10 21:46:10:912,-1.69401,0.725424,-9.56296,-4.2678,-9.86456,86.2378
2023-03-10 21:46:10:922,-1.66524,0.702032,-9.54139,-4.26727,-9.85871,86.2309
2023-03-10 21:46:10:932,-1.63191,0.692646,-9.53487,-4.26815,-9.85388,86.2233
2023-03-10 21:46:10:942,-1.6152,0.677704,-9.53879,-4.27582,-9.84917,86.2165
2023-03-10 21:46:10:952,-1.6171,0.706693,-9.55369,-4.2882,-9.84438,86.2121
2023-03-10 21:46:10:962,-1.63333,0.74724,-9.63788,-4.30378,-9.84084,86.2122
2023-03-10 21:46:10:972,-1.64016,0.796912,-9.70404,-4.31802,-9.8406,86.212
2023-03-10 21:46:10:982,-1.6285,0.808613,-9.70536,-4.32999,-9.83603,86.2105
2023-03-10 21:46:10:992,-1.61555,0.774262,-9.66888,-4.33308,-9.83087,86.2079
2023-03-10 21:46:11:2,-1.59233,0.752821,-9.61342,-4.34132,-9.82546,86.2094
2023-03-10 21:46:11:12,-1.61188,0.753615,-9.59237,-4.34836,-9.82549,86.2159
2023-03-10 21:46:11:22,-1.62439,0.746149,-9.59244,-4.35288,-9.82574,86.2209
2023-03-10 21:46:11:32,-1.64027,0.761751,-9.60647,-4.36049,-9.82831,86.2239
2023-03-10 21:46:11:42,-1.64726,0.776021,-9.62677,-4.36839,-9.82872,86.2275
2023-03-10 21:46:11:52,-1.64487,0.786714,-9.64364,-4.37628,-9.83145,86.2312
2023-03-10 21:46:11:62,-1.6446,0.795294,-9.66406,-4.38397,-9.835,86.2362
2023-03-10 21:46:11:72,-1.65915,0.807547,-9.675,-4.38758,-9.83392,86.2408
2023-03-10 21:46:11:82,-1.66064,0.809118,-9.66858,-4.38677,-9.83397,86.247
2023-03-10 21:46:11:92,-1.65926,0.770908,-9.63367,-4.37933,-9.83801,86.2525
2023-03-10 21:46:11:102,-1.66991,0.748295,-9.6026,-4.37457,-9.84262,86.2596
2023-03-10 21:46:11:112,-1.68242,0.751406,-9.58358,-4.36796,-9.84725,86.2661
2023-03-10 21:46:11:122,-1.68056,0.748523,-9.55194,-4.36197,-9.85263,86.2723
2023-03-10 21:46:11:132,-1.68288,0.717574,-9.53155,-4.3612,-9.85433,86.2801
2023-03-10 21:46:11:142,-1.68238,0.703051,-9.54349,-4.36044,-9.85672,86.2831
2023-03-10 21:46:11:152,-1.6863,0.727425,-9.58521,-4.36954,-9.86058,86.2888
2023-03-10 21:46:11:162,-1.6736,0.758606,-9.65878,-4.37803,-9.86293,86.2917
2023-03-10 21:46:11:172,-1.66456,0.770965,-9.70966,-4.38281,-9.86573,86.2928
2023-03-10 21:46:11:182,-1.65424,0.772047,-9.69435,-4.38455,-9.87222,86.2949
2023-03-10 21:46:11:192,-1.67191,0.76313,-9.64372,-4.38769,-9.87864,86.2984
2023-03-10 21:46:11:202,-1.71203,0.774356,-9.62096,-4.39117,-9.88819,86.3058
2023-03-10 21:46:11:212,-1.74019,0.793602,-9.6284,-4.3961,-9.89458,86.3107
2023-03-10 21:46:11:222,-1.74428,0.806047,-9.60553,-4.39926,-9.89811,86.3168
2023-03-10 21:46:11:232,-1.74001,0.801467,-9.58567,-4.39972,-9.90219,86.3198
2023-03-10 21:46:11:242,-1.72873,0.80197,-9.59422,-4.40199,-9.90273,86.3213
2023-03-10 21:46:11:252,-1.73475,0.821106,-9.59767,-4.40459,-9.89819,86.3232
2023-03-10 21:46:11:262,-1.74161,0.82857,-9.6064,-4.40531,-9.89605,86.3257
2023-03-10 21:46:11:272,-1.7256,0.83665,-9.6303,-4.40269,-9.89283,86.3257
2023-03-10 21:46:11:282,-1.71883,0.859869,-9.66539,-4.39342,-9.88787,86.3197
2023-03-10 21:46:11:292,-1.71876,0.849852,-9.68498,-4.38036,-9.88324,86.3127
2023-03-10 21:46:11:302,-1.6969,0.828895,-9.62886,-4.3612,-9.87887,86.3038
2023-03-10 21:46:11:312,-1.6423,0.752714,-9.55163,-4.33521,-9.87523,86.288
2023-03-10 21:46:11:322,-1.59679,0.696753,-9.50273,-4.31485,-9.87322,86.2735
2023-03-10 21:46:11:332,-1.59268,0.681512,-9.51421,-4.30115,-9.87041,86.2611
2023-03-10 21:46:11:342,-1.60642,0.709651,-9.56542,-4.29719,-9.8708,86.2537
2023-03-10 21:46:11:352,-1.62916,0.760531,-9.62996,-4.29833,-9.86779,86.2482
2023-03-10 21:46:11:362,-1.61631,0.790453,-9.63933,-4.30043,-9.87014,86.2441
2023-03-10 21:46:11:372,-1.61606,0.779094,-9.6151,-4.29724,-9.87053,86.241
2023-03-10 21:46:11:383,-1.66925,0.773082,-9.60112,-4.29645,-9.86916,86.2436
2023-03-10 21:46:11:392,-1.68615,0.790885,-9.60021,-4.29769,-9.86494,86.2437
2023-03-10 21:46:11:402,-1.66013,0.809325,-9.62127,-4.30205,-9.85661,86.2448
2023-03-10 21:46:11:412,-1.59927,0.806324,-9.68106,-4.30137,-9.84862,86.242
2023-03-10 21:46:11:423,-1.58111,0.808682,-9.70463,-4.29665,-9.8447,86.2379
2023-03-10 21:46:11:432,-1.60308,0.79206,-9.67578,-4.28595,-9.84243,86.2363
2023-03-10 21:46:11:443,-1.63789,0.759958,-9.64701,-4.26991,-9.84565,86.2347
2023-03-10 21:46:11:452,-1.64018,0.729121,-9.6121,-4.25578,-9.84714,86.2366
2023-03-10 21:46:11:462,-1.61321,0.72013,-9.6052,-4.24503,-9.85132,86.2368
2023-03-10 21:46:11:472,-1.61557,0.714765,-9.63534,-4.23594,-9.85328,86.2404
2023-03-10 21:46:11:483,-1.62833,0.736639,-9.64651,-4.22556,-9.8551,86.2405
2023-03-10 21:46:11:493,-1.62117,0.718825,-9.62759,-4.21662,-9.85803,86.2445
2023-03-10 21:46:11:502,-1.61937,0.705487,-9.59102,-4.2072,-9.8596,86.252
2023-03-10 21:46:11:512,-1.62948,0.706644,-9.56479,-4.19993,-9.86104,86.2622
2023-03-10 21:46:11:523,-1.6361,0.70783,-9.55564,-4.19218,-9.8656,86.2721
2023-03-10 21:46:11:532,-1.65268,0.704499,-9.56137,-4.18806,-9.86803,86.2823
2023-03-10 21:46:11:542,-1.66279,0.704776,-9.54569,-4.1838,-9.87297,86.2913
2023-03-10 21:46:11:552,-1.67724,0.684389,-9.52669,-4.18183,-9.87945,86.2963
2023-03-10 21:46:11:562,-1.6657,0.676614,-9.52677,-4.18408,-9.88732,86.3018
2023-03-10 21:46:11:572,-1.65697,0.663087,-9.54529,-4.18783,-9.89551,86.3086
2023-03-10 21:46:11:582,-1.64159,0.66842,-9.59263,-4.19497,-9.90315,86.3241
2023-03-10 21:46:11:592,-1.64861,0.678803,-9.61875,-4.2048,-9.90908,86.3354
2023-03-10 21:46:11:602,-1.65347,0.678429,-9.62429,-4.2117,-9.91826,86.3513
2023-03-10 21:46:11:612,-1.69362,0.685412,-9.61076,-4.21996,-9.92472,86.3721
2023-03-10 21:46:11:622,-1.73868,0.692728,-9.60603,-4.2325,-9.93168,86.398
2023-03-10 21:46:11:632,-1.78375,0.715419,-9.62385,-4.241,-9.93204,86.4179
2023-03-10 21:46:11:643,-1.80594,0.746463,-9.61972,-4.25346,-9.93467,86.4396
2023-03-10 21:46:11:652,-1.79538,0.750546,-9.60021,-4.26038,-9.93594,86.4531
2023-03-10 21:46:11:662,-1.76152,0.721608,-9.57079,-4.2674,-9.93321,86.4669
2023-03-10 21:46:11:673,-1.725,0.714699,-9.56489,-4.27437,-9.93011,86.475
2023-03-10 21:46:11:683,-1.7237,0.718583,-9.5814,-4.28717,-9.92724,86.4804
2023-03-10 21:46:11:693,-1.71824,0.748082,-9.60254,-4.30017,-9.92682,86.4834
2023-03-10 21:46:11:702,-1.70164,0.779577,-9.6467,-4.3125,-9.92532,86.4879
2023-03-10 21:46:11:713,-1.67598,0.786685,-9.66202,-4.32395,-9.92242,86.4872
2023-03-10 21:46:11:723,-1.66023,0.762964,-9.64096,-4.33065,-9.91721,86.4896
2023-03-10 21:46:11:733,-1.66697,0.754279,-9.61204,-4.33435,-9.91559,86.4931
2023-03-10 21:46:11:742,-1.67178,0.743247,-9.59749,-4.33627,-9.91058,86.4962
2023-03-10 21:46:11:752,-1.66383,0.748386,-9.60757,-4.34381,-9.90923,86.5005
2023-03-10 21:46:11:762,-1.67747,0.757785,-9.60513,-4.3523,-9.90877,86.5041
2023-03-10 21:46:11:772,-1.70568,0.774902,-9.59872,-4.36395,-9.90637,86.5081
2023-03-10 21:46:11:782,-1.70799,0.772974,-9.61946,-4.37085,-9.90685,86.5084
2023-03-10 21:46:11:792,-1.69351,0.781939,-9.62242,-4.37671,-9.90831,86.5043
2023-03-10 21:46:11:802,-1.66628,0.79255,-9.64046,-4.37957,-9.90741,86.4983
2023-03-10 21:46:11:812,-1.65652,0.778956,-9.64699,-4.38034,-9.90738,86.4923
2023-03-10 21:46:11:822,-1.6532,0.788661,-9.63627,-4.38422,-9.91109,86.4865
2023-03-10 21:46:11:832,-1.63375,0.776157,-9.62634,-4.38667,-9.91522,86.4851
2023-03-10 21:46:11:842,-1.63358,0.759073,-9.60751,-4.38655,-9.92228,86.4832
2023-03-10 21:46:11:852,-1.63473,0.748971,-9.5969,-4.38967,-9.92785,86.4878
2023-03-10 21:46:11:862,-1.64318,0.746292,-9.60013,-4.39473,-9.93332,86.4915
2023-03-10 21:46:11:872,-1.67555,0.77738,-9.61171,-4.39931,-9.94038,86.498
2023-03-10 21:46:11:882,-1.70014,0.807059,-9.64893,-4.40147,-9.94569,86.5065
2023-03-10 21:46:11:892,-1.72665,0.817794,-9.66974,-4.39919,-9.94832,86.5132
2023-03-10 21:46:11:902,-1.72695,0.795074,-9.64219,-4.39365,-9.95076,86.5196
2023-03-10 21:46:11:912,-1.71996,0.759202,-9.59566,-4.38429,-9.9502,86.5288
2023-03-10 21:46:11:922,-1.69915,0.746137,-9.55508,-4.3762,-9.94754,86.5378
2023-03-10 21:46:11:932,-1.67552,0.749437,-9.55493,-4.36911,-9.94784,86.5412
2023-03-10 21:46:11:942,-1.66991,0.748056,-9.54687,-4.36493,-9.94684,86.5473
2023-03-10 21:46:11:952,-1.69501,0.72624,-9.56727,-4.3605,-9.9472,86.55
2023-03-10 21:46:11:962,-1.69121,0.744068,-9.61528,-4.36079,-9.94638,86.5569
2023-03-10 21:46:11:972,-1.66611,0.775602,-9.67559,-4.36364,-9.94359,86.5582
2023-03-10 21:46:11:982,-1.63066,0.781566,-9.69474,-4.36482,-9.94389,86.5627
2023-03-10 21:46:11:992,-1.6546,0.768196,-9.68014,-4.36358,-9.95121,86.5667
2023-03-10 21:46:12:2,-1.69888,0.763379,-9.64703,-4.36242,-9.96122,86.5702
2023-03-10 21:46:12:12,-1.75419,0.766379,-9.63008,-4.36141,-9.97146,86.576
2023-03-10 21:46:12:22,-1.75978,0.780232,-9.59032,-4.36191,-9.98118,86.5747
2023-03-10 21:46:12:32,-1.76038,0.78084,-9.5628,-4.36346,-9.989,86.5736
2023-03-10 21:46:12:42,-1.75177,0.780043,-9.56305,-4.36329,-9.99589,86.5651
2023-03-10 21:46:12:52,-1.73317,0.804534,-9.53886,-4.36827,-10.0027,86.5583
2023-03-10 21:46:12:62,-1.71694,0.804519,-9.54171,-4.3726,-10.0019,86.5535
2023-03-10 21:46:12:72,-1.71373,0.798696,-9.56833,-4.37299,-10.0042,86.55
2023-03-10 21:46:12:82,-1.69868,0.804666,-9.5953,-4.37191,-10.0027,86.5449
2023-03-10 21:46:12:92,-1.69007,0.788786,-9.59734,-4.36732,-9.99851,86.5404
2023-03-10 21:46:12:102,-1.67344,0.771056,-9.60408,-4.36033,-9.99592,86.5344
2023-03-10 21:46:12:112,-1.67175,0.757422,-9.62616,-4.35579,-9.99313,86.5304
2023-03-10 21:46:12:122,-1.6895,0.756554,-9.61233,-4.35122,-9.99278,86.5245
2023-03-10 21:46:12:132,-1.69916,0.744771,-9.60234,-4.34611,-9.98991,86.5244
2023-03-10 21:46:12:142,-1.69908,0.7409,-9.5938,-4.34715,-9.98529,86.5224
2023-03-10 21:46:12:152,-1.69855,0.74263,-9.61922,-4.35033,-9.98591,86.5185
2023-03-10 21:46:12:162,-1.70193,0.75674,-9.63979,-4.35465,-9.98502,86.5165
2023-03-10 21:46:12:172,-1.71964,0.799382,-9.6498,-4.35864,-9.98721,86.5156
2023-03-10 21:46:12:182,-1.71631,0.802006,-9.64238,-4.35871,-9.98725,86.5076
2023-03-10 21:46:12:192,-1.7408,0.774378,-9.60669,-4.3562,-9.98773,86.5008
2023-03-10 21:46:12:202,-1.76436,0.762932,-9.58277,-4.35807,-9.98238,86.4925
2023-03-10 21:46:12:212,-1.73909,0.782161,-9.57477,-4.35732,-9.97631,86.4845
2023-03-10 21:46:12:222,-1.64535,0.771831,-9.59899,-4.35464,-9.96655,86.4731
2023-03-10 21:46:12:233,-1.58051,0.762679,-9.62591,-4.34888,-9.95885,86.4579
2023-03-10 21:46:12:242,-1.59425,0.750091,-9.61402,-4.33894,-9.95427,86.4499
2023-03-10 21:46:12:252,-1.63817,0.715615,-9.60138,-4.33139,-9.9527,86.4434
2023-03-10 21:46:12:262,-1.64024,0.722353,-9.5914,-4.3272,-9.95161,86.4396
2023-03-10 21:46:12:272,-1.63988,0.712461,-9.59493,-4.32295,-9.95155,86.4375
2023-03-10 21:46:12:282,-1.66757,0.731214,-9.61511,-4.32024,-9.951,86.4372
2023-03-10 21:46:12:292,-1.69195,0.753283,-9.6415,-4.32289,-9.9475,86.4384
2023-03-10 21:46:12:303,-1.67519,0.763561,-9.66185,-4.32294,-9.94678,86.4405
2023-03-10 21:46:12:312,-1.65649,0.782579,-9.63958,-4.31932,-9.94343,86.4396
2023-03-10 21:46:12:322,-1.65401,0.772409,-9.61732,-4.31443,-9.94573,86.4389
2023-03-10 21:46:12:332,-1.66299,0.732667,-9.60355,-4.31233,-9.94992,86.4393
2023-03-10 21:46:12:342,-1.66447,0.720223,-9.56412,-4.30746,-9.95465,86.4357
2023-03-10 21:46:12:352,-1.65322,0.709668,-9.53017,-4.30459,-9.95925,86.4347
2023-03-10 21:46:12:362,-1.6645,0.691169,-9.51634,-4.30276,-9.96402,86.4336
2023-03-10 21:46:12:372,-1.6705,0.699093,-9.53846,-4.30445,-9.96897,86.4346
2023-03-10 21:46:12:382,-1.6787,0.711662,-9.58178,-4.30795,-9.97704,86.4396
2023-03-10 21:46:12:392,-1.68375,0.710539,-9.61248,-4.31255,-9.9869,86.441
2023-03-10 21:46:12:402,-1.67715,0.707234,-9.61496,-4.31384,-10.0001,86.4468
2023-03-10 21:46:12:412,-1.67501,0.709555,-9.60542,-4.31746,-10.0084,86.4506
2023-03-10 21:46:12:422,-1.70792,0.710017,-9.57538,-4.31923,-10.0181,86.4552
2023-03-10 21:46:12:432,-1.72805,0.704271,-9.56045,-4.32588,-10.0311,86.4608
2023-03-10 21:46:12:442,-1.72603,0.708826,-9.5674,-4.3335,-10.0457,86.4631
2023-03-10 21:46:12:453,-1.75725,0.729284,-9.59523,-4.34589,-10.0614,86.47
2023-03-10 21:46:12:462,-1.83524,0.771041,-9.62271,-4.36014,-10.0777,86.473
2023-03-10 21:46:12:472,-1.85946,0.791749,-9.6284,-4.37052,-10.0902,86.4707
2023-03-10 21:46:12:482,-1.80743,0.795083,-9.60493,-4.37278,-10.1013,86.4614
2023-03-10 21:46:12:492,-1.77574,0.777117,-9.59747,-4.37609,-10.1115,86.446
2023-03-10 21:46:12:502,-1.78183,0.755203,-9.59047,-4.37826,-10.1185,86.4319
2023-03-10 21:46:12:512,-1.77008,0.761179,-9.5752,-4.38317,-10.1228,86.4169
2023-03-10 21:46:12:522,-1.73698,0.7627,-9.56639,-4.38748,-10.1269,86.401
2023-03-10 21:46:12:532,-1.71158,0.7605,-9.59342,-4.3929,-10.1262,86.3833
2023-03-10 21:46:12:542,-1.69746,0.772075,-9.62089,-4.39993,-10.1253,86.3676
2023-03-10 21:46:12:553,-1.70496,0.783353,-9.62477,-4.40735,-10.1292,86.3533
2023-03-10 21:46:12:563,-1.71351,0.779288,-9.61054,-4.41438,-10.1276,86.3425
2023-03-10 21:46:12:573,-1.70684,0.771389,-9.60578,-4.4202,-10.1254,86.3307
2023-03-10 21:46:12:582,-1.69132,0.769772,-9.60805,-4.42759,-10.1206,86.3226
2023-03-10 21:46:12:592,-1.70102,0.782305,-9.61482,-4.43571,-10.1167,86.3157
2023-03-10 21:46:12:602,-1.70823,0.808718,-9.61026,-4.44354,-10.1112,86.307
2023-03-10 21:46:12:612,-1.69288,0.791854,-9.61479,-4.44508,-10.1074,86.3007
2023-03-10 21:46:12:622,-1.6753,0.788599,-9.60051,-4.44909,-10.1017,86.2966
2023-03-10 21:46:12:632,-1.65903,0.783147,-9.59092,-4.45433,-10.0962,86.2932
2023-03-10 21:46:12:642,-1.68074,0.796762,-9.61251,-4.46469,-10.0965,86.2929
2023-03-10 21:46:12:652,-1.68713,0.821483,-9.6288,-4.47426,-10.0984,86.2929
2023-03-10 21:46:12:662,-1.68312,0.834644,-9.60732,-4.47758,-10.0983,86.2943
2023-03-10 21:46:12:672,-1.67317,0.807437,-9.59089,-4.47808,-10.096,86.2954
2023-03-10 21:46:12:683,-1.68716,0.767584,-9.5912,-4.47915,-10.0962,86.3004
2023-03-10 21:46:12:693,-1.69464,0.77089,-9.58846,-4.48376,-10.0977,86.307
2023-03-10 21:46:12:702,-1.71325,0.782711,-9.58232,-4.49301,-10.0953,86.3128
2023-03-10 21:46:12:712,-1.72034,0.767941,-9.56383,-4.49706,-10.0913,86.3176
2023-03-10 21:46:12:722,-1.70995,0.757789,-9.56032,-4.50283,-10.0895,86.3221
2023-03-10 21:46:12:732,-1.71301,0.780054,-9.57363,-4.51421,-10.0874,86.3295
2023-03-10 21:46:12:742,-1.73753,0.814737,-9.58717,-4.52374,-10.0907,86.3315
2023-03-10 21:46:12:752,-1.74479,0.808086,-9.60606,-4.5294,-10.0894,86.3328
2023-03-10 21:46:12:762,-1.73031,0.809138,-9.6166,-4.53801,-10.0883,86.33
2023-03-10 21:46:12:772,-1.68823,0.818675,-9.65036,-4.54566,-10.0875,86.3269
2023-03-10 21:46:12:782,-1.63421,0.828191,-9.656,-4.55386,-10.0888,86.3225
2023-03-10 21:46:12:792,-1.59549,0.801622,-9.65221,-4.55981,-10.0907,86.3185
2023-03-10 21:46:12:802,-1.60893,0.787811,-9.63335,-4.56023,-10.1026,86.3185
2023-03-10 21:46:12:812,-1.67079,0.80578,-9.60836,-4.56813,-10.1136,86.3262
2023-03-10 21:46:12:822,-1.72878,0.82488,-9.60266,-4.57722,-10.1227,86.332
2023-03-10 21:46:12:832,-1.73774,0.844275,-9.62343,-4.58813,-10.131,86.3414
2023-03-10 21:46:12:842,-1.73099,0.846123,-9.62295,-4.59396,-10.1411,86.3518
2023-03-10 21:46:12:852,-1.72243,0.838357,-9.59151,-4.59889,-10.1439,86.364
2023-03-10 21:46:12:862,-1.71552,0.835145,-9.56146,-4.60171,-10.1448,86.3738
2023-03-10 21:46:12:872,-1.72118,0.829377,-9.55009,-4.6049,-10.1489,86.3822
2023-03-10 21:46:12:882,-1.73491,0.826249,-9.54928,-4.60911,-10.1516,86.3967
2023-03-10 21:46:12:892,-1.77054,0.849617,-9.58441,-4.61669,-10.1564,86.4122
2023-03-10 21:46:12:902,-1.78091,0.878725,-9.61382,-4.62014,-10.1537,86.4248
2023-03-10 21:46:12:912,-1.77749,0.860216,-9.62261,-4.61998,-10.1538,86.4349
2023-03-10 21:46:12:922,-1.76707,0.831226,-9.59864,-4.61511,-10.1515,86.4414
2023-03-10 21:46:12:932,-1.74063,0.801702,-9.57174,-4.61012,-10.1485,86.4452
2023-03-10 21:46:12:942,-1.72546,0.78127,-9.5821,-4.60624,-10.144,86.4504
2023-03-10 21:46:12:952,-1.71749,0.808706,-9.5906,-4.61005,-10.1421,86.4543
2023-03-10 21:46:12:962,-1.71439,0.813258,-9.62418,-4.61131,-10.141,86.4551
2023-03-10 21:46:12:972,-1.73587,0.824194,-9.63861,-4.6136,-10.1409,86.4594
2023-03-10 21:46:12:982,-1.75054,0.83982,-9.62904,-4.61423,-10.1408,86.4628
2023-03-10 21:46:12:992,-1.77805,0.844729,-9.61474,-4.6142,-10.1438,86.4618
2023-03-10 21:46:13:2,-1.8001,0.853011,-9.62007,-4.61538,-10.1442,86.4613
2023-03-10 21:46:13:12,-1.81635,0.873406,-9.63623,-4.61607,-10.1406,86.4579
2023-03-10 21:46:13:23,-1.76628,0.872503,-9.64171,-4.61106,-10.1324,86.4453
2023-03-10 21:46:13:32,-1.64748,0.83425,-9.63966,-4.59759,-10.1211,86.4304
2023-03-10 21:46:13:42,-1.59413,0.790512,-9.61785,-4.58423,-10.112,86.4159
2023-03-10 21:46:13:52,-1.60761,0.773042,-9.58492,-4.56756,-10.1109,86.4053
2023-03-10 21:46:13:62,-1.64583,0.760013,-9.56668,-4.55527,-10.1092,86.4005
2023-03-10 21:46:13:72,-1.66135,0.748724,-9.5641,-4.54566,-10.1102,86.3938
2023-03-10 21:46:13:82,-1.66156,0.761162,-9.5933,-4.53724,-10.108,86.3928
2023-03-10 21:46:13:92,-1.66139,0.767453,-9.6193,-4.53308,-10.1062,86.3911
2023-03-10 21:46:13:102,-1.64424,0.763355,-9.64235,-4.52969,-10.1025,86.3919
2023-03-10 21:46:13:112,-1.65631,0.786078,-9.65784,-4.52174,-10.1006,86.3972
2023-03-10 21:46:13:122,-1.69177,0.810618,-9.6558,-4.51333,-10.098,86.4065
2023-03-10 21:46:13:132,-1.70663,0.820311,-9.63459,-4.50383,-10.1021,86.4164
2023-03-10 21:46:13:142,-1.69545,0.80635,-9.63643,-4.49192,-10.1066,86.4265
2023-03-10 21:46:13:152,-1.69226,0.813985,-9.65524,-4.47921,-10.1145,86.4328
2023-03-10 21:46:13:162,-1.69573,0.830676,-9.64223,-4.46219,-10.1211,86.438
2023-03-10 21:46:13:172,-1.71041,0.802722,-9.61759,-4.4412,-10.1311,86.4438
2023-03-10 21:46:13:182,-1.69504,0.759761,-9.57581,-4.4189,-10.1433,86.4477
2023-03-10 21:46:13:192,-1.67077,0.717284,-9.50363,-4.39698,-10.1548,86.4562
2023-03-10 21:46:13:202,-1.67298,0.682878,-9.4734,-4.37801,-10.1666,86.4633
2023-03-10 21:46:13:212,-1.69715,0.683299,-9.49036,-4.36629,-10.1833,86.4743
2023-03-10 21:46:13:223,-1.72955,0.702562,-9.53784,-4.36284,-10.2002,86.4889
2023-03-10 21:46:13:233,-1.76088,0.739996,-9.57787,-4.36324,-10.2145,86.5039
2023-03-10 21:46:13:243,-1.79387,0.760356,-9.59638,-4.36712,-10.2283,86.5195
2023-03-10 21:46:13:253,-1.83539,0.749518,-9.58631,-4.36584,-10.2405,86.5374
2023-03-10 21:46:13:263,-1.85172,0.751135,-9.56334,-4.36705,-10.2516,86.5539
2023-03-10 21:46:13:272,-1.84699,0.736925,-9.55578,-4.36918,-10.2571,86.5695
2023-03-10 21:46:13:282,-1.85498,0.730281,-9.5434,-4.36948,-10.2621,86.5817
2023-03-10 21:46:13:292,-1.84378,0.742656,-9.54018,-4.37488,-10.2646,86.591
2023-03-10 21:46:13:302,-1.83167,0.75826,-9.55442,-4.37865,-10.2662,86.593
2023-03-10 21:46:13:312,-1.83,0.766634,-9.56008,-4.38142,-10.2668,86.5987
2023-03-10 21:46:13:322,-1.81452,0.766441,-9.57623,-4.38629,-10.2612,86.5984
2023-03-10 21:46:13:332,-1.78832,0.770535,-9.58773,-4.39094,-10.2566,86.5974
2023-03-10 21:46:13:342,-1.77834,0.774742,-9.59337,-4.39394,-10.2472,86.595
2023-03-10 21:46:13:352,-1.76393,0.774043,-9.57038,-4.39825,-10.2393,86.5902
2023-03-10 21:46:13:362,-1.74242,0.757953,-9.57848,-4.40228,-10.2337,86.5856
2023-03-10 21:46:13:372,-1.72993,0.761436,-9.59527,-4.41046,-10.2255,86.5799
2023-03-10 21:46:13:382,-1.74375,0.769594,-9.59776,-4.41422,-10.219,86.5755
2023-03-10 21:46:13:392,-1.75509,0.787728,-9.61502,-4.42057,-10.2135,86.5722
2023-03-10 21:46:13:402,-1.75647,0.796349,-9.63112,-4.42659,-10.2052,86.569
2023-03-10 21:46:13:412,-1.72395,0.790333,-9.64319,-4.43155,-10.1993,86.5622
2023-03-10 21:46:13:422,-1.70126,0.80496,-9.65064,-4.43196,-10.193,86.5582
2023-03-10 21:46:13:432,-1.71724,0.810619,-9.64329,-4.43569,-10.1822,86.5519
2023-03-10 21:46:13:442,-1.71404,0.795209,-9.62547,-4.43284,-10.1758,86.5461
2023-03-10 21:46:13:453,-1.68753,0.779296,-9.60018,-4.42917,-10.1677,86.5407
2023-03-10 21:46:13:462,-1.67616,0.762157,-9.57806,-4.42689,-10.1613,86.5364
2023-03-10 21:46:13:472,-1.6809,0.753534,-9.58364,-4.42423,-10.153,86.5316
2023-03-10 21:46:13:482,-1.68488,0.746879,-9.58382,-4.42183,-10.1467,86.5288
2023-03-10 21:46:13:492,-1.67979,0.767394,-9.58462,-4.42471,-10.1394,86.5256
2023-03-10 21:46:13:502,-1.6751,0.763212,-9.59714,-4.42725,-10.133,86.5241
2023-03-10 21:46:13:512,-1.68284,0.754576,-9.58371,-4.42884,-10.126,86.5265
2023-03-10 21:46:13:522,-1.69939,0.744256,-9.59055,-4.43109,-10.1203,86.5277
2023-03-10 21:46:13:532,-1.70739,0.748644,-9.59251,-4.43322,-10.1182,86.5299
2023-03-10 21:46:13:542,-1.71153,0.75086,-9.60692,-4.4371,-10.1134,86.5312
2023-03-10 21:46:13:552,-1.71008,0.755941,-9.61321,-4.43737,-10.1138,86.5308
2023-03-10 21:46:13:563,-1.68018,0.763935,-9.58606,-4.44312,-10.115,86.5287
2023-03-10 21:46:13:573,-1.6863,0.756199,-9.54984,-4.44347,-10.1163,86.5248
2023-03-10 21:46:13:583,-1.69792,0.724374,-9.52789,-4.44503,-10.1157,86.525
2023-03-10 21:46:13:593,-1.70006,0.715209,-9.55266,-4.45078,-10.118,86.5269
2023-03-10 21:46:13:602,-1.66804,0.758118,-9.61359,-4.45983,-10.1156,86.5243
2023-03-10 21:46:13:613,-1.63926,0.791322,-9.68652,-4.47246,-10.121,86.5209
2023-03-10 21:46:13:622,-1.63505,0.801909,-9.70626,-4.48085,-10.1283,86.5193
2023-03-10 21:46:13:632,-1.67321,0.790334,-9.67748,-4.48848,-10.1408,86.5234
2023-03-10 21:46:13:642,-1.72268,0.788543,-9.63662,-4.49127,-10.1543,86.5278
2023-03-10 21:46:13:652,-1.75126,0.787385,-9.59769,-4.49528,-10.1626,86.5345
2023-03-10 21:46:13:662,-1.75402,0.799635,-9.5892,-4.50238,-10.1706,86.5434
2023-03-10 21:46:13:672,-1.76885,0.827576,-9.60404,-4.51231,-10.1776,86.5552
2023-03-10 21:46:13:682,-1.77313,0.844671,-9.60181,-4.52155,-10.1844,86.5619
2023-03-10 21:46:13:693,-1.75482,0.84876,-9.59171,-4.52425,-10.1903,86.5714
2023-03-10 21:46:13:702,-1.75747,0.836589,-9.56906,-4.52698,-10.1922,86.5803
2023-03-10 21:46:13:713,-1.77519,0.823422,-9.55047,-4.52706,-10.1963,86.583
2023-03-10 21:46:13:723,-1.77457,0.815009,-9.54986,-4.52631,-10.1928,86.5869
2023-03-10 21:46:13:732,-1.77677,0.818525,-9.56154,-4.52646,-10.1885,86.5904
2023-03-10 21:46:13:742,-1.76378,0.816863,-9.5792,-4.52219,-10.1874,86.5886
2023-03-10 21:46:13:752,-1.7323,0.806583,-9.58362,-4.52191,-10.1876,86.5836
2023-03-10 21:46:13:762,-1.70246,0.788041,-9.58855,-4.52168,-10.1846,86.5767
2023-03-10 21:46:13:772,-1.68429,0.788604,-9.59945,-4.52521,-10.1855,86.57
2023-03-10 21:46:13:782,-1.68923,0.803004,-9.61399,-4.52845,-10.187,86.5644
2023-03-10 21:46:13:793,-1.66889,0.79042,-9.62534,-4.52996,-10.1925,86.5572
2023-03-10 21:46:13:803,-1.65133,0.789794,-9.62357,-4.53507,-10.1983,86.5514
2023-03-10 21:46:13:813,-1.63658,0.822596,-9.63355,-4.54091,-10.2041,86.5461
2023-03-10 21:46:13:822,-1.64006,0.842162,-9.65317,-4.54861,-10.2099,86.5438
2023-03-10 21:46:13:833,-1.68119,0.847028,-9.66429,-4.55064,-10.2202,86.5435
2023-03-10 21:46:13:843,-1.70067,0.855483,-9.64863,-4.55227,-10.2325,86.5447
2023-03-10 21:46:13:852,-1.65129,0.852135,-9.61789,-4.54822,-10.2391,86.5424
2023-03-10 21:46:13:862,-1.5479,0.811963,-9.61406,-4.54099,-10.2445,86.5386
2023-03-10 21:46:13:872,-1.488,0.780828,-9.62118,-4.53091,-10.2568,86.537
2023-03-10 21:46:13:882,-1.52438,0.771446,-9.6296,-4.52126,-10.2759,86.5422
2023-03-10 21:46:13:892,-1.60862,0.787431,-9.63147,-4.51467,-10.2964,86.5571
2023-03-10 21:46:13:903,-1.64448,0.794196,-9.63535,-4.50311,-10.3185,86.5722
2023-03-10 21:46:13:912,-1.62097,0.788341,-9.64791,-4.49021,-10.3396,86.5921
2023-03-10 21:46:13:923,-1.62268,0.781054,-9.64606,-4.48024,-10.3654,86.6115
2023-03-10 21:46:13:933,-1.63579,0.785013,-9.63159,-4.47144,-10.3941,86.6347
2023-03-10 21:46:13:943,-1.67777,0.789514,-9.62777,-4.45997,-10.4252,86.6572
2023-03-10 21:46:13:952,-1.73611,0.792447,-9.60729,-4.45281,-10.4634,86.6828
2023-03-10 21:46:13:962,-1.77834,0.808487,-9.59361,-4.4433,-10.5053,86.7123
2023-03-10 21:46:13:972,-1.81228,0.818468,-9.59721,-4.43323,-10.5484,86.7386
2023-03-10 21:46:13:982,-1.8013,0.797629,-9.58707,-4.42255,-10.5928,86.7594
2023-03-10 21:46:13:992,-1.80624,0.770727,-9.57155,-4.40717,-10.6378,86.7745
2023-03-10 21:46:14:2,-1.84707,0.782843,-9.57824,-4.39058,-10.6867,86.7931
2023-03-10 21:46:14:13,-1.87593,0.795666,-9.59845,-4.37411,-10.7371,86.8075
2023-03-10 21:46:14:23,-1.87971,0.797759,-9.59729,-4.35604,-10.789,86.816
2023-03-10 21:46:14:32,-1.88146,0.769713,-9.57449,-4.33722,-10.8421,86.819
2023-03-10 21:46:14:43,-1.95028,0.757854,-9.55878,-4.31603,-10.9008,86.8217
2023-03-10 21:46:14:53,-1.99111,0.781571,-9.57885,-4.29884,-10.9662,86.8154
2023-03-10 21:46:14:62,-1.96562,0.789394,-9.60617,-4.27886,-11.0327,86.8018
2023-03-10 21:46:14:72,-1.94001,0.758957,-9.57212,-4.25455,-11.1042,86.7822
2023-03-10 21:46:14:82,-1.91217,0.718111,-9.51759,-4.22977,-11.1804,86.7564
2023-03-10 21:46:14:92,-1.87388,0.676107,-9.49782,-4.21086,-11.2603,86.7248
2023-03-10 21:46:14:102,-1.87214,0.685105,-9.50558,-4.19398,-11.3411,86.6916
2023-03-10 21:46:14:112,-1.95621,0.747533,-9.58699,-4.18589,-11.4245,86.658
2023-03-10 21:46:14:122,-2.03566,0.825814,-9.66097,-4.1733,-11.5147,86.6243
2023-03-10 21:46:14:132,-2.02695,0.846243,-9.67302,-4.15437,-11.6097,86.5765
2023-03-10 21:46:14:142,-1.96295,0.804573,-9.6019,-4.12536,-11.7018,86.52
2023-03-10 21:46:14:152,-1.8894,0.759338,-9.55747,-4.09032,-11.7978,86.4545
2023-03-10 21:46:14:162,-1.81216,0.757128,-9.58879,-4.05838,-11.8994,86.3893
2023-03-10 21:46:14:172,-1.76636,0.777181,-9.62126,-4.02885,-12.0031,86.3244
2023-03-10 21:46:14:182,-1.78909,0.776543,-9.65015,-3.99528,-12.114,86.2629
2023-03-10 21:46:14:192,-1.84596,0.756101,-9.6467,-3.96023,-12.2336,86.2058
2023-03-10 21:46:14:202,-1.86299,0.734326,-9.63083,-3.91987,-12.3623,86.1505
2023-03-10 21:46:14:212,-1.86951,0.727475,-9.6041,-3.87416,-12.4917,86.0947
2023-03-10 21:46:14:222,-1.87148,0.710644,-9.60335,-3.82951,-12.628,86.0459
2023-03-10 21:46:14:232,-1.86197,0.689284,-9.60821,-3.78545,-12.7685,86.0018
2023-03-10 21:46:14:242,-1.85764,0.679198,-9.597,-3.73681,-12.9096,85.9626
2023-03-10 21:46:14:252,-1.84793,0.670878,-9.58498,-3.6863,-13.0575,85.932
2023-03-10 21:46:14:262,-1.89594,0.659092,-9.57192,-3.63876,-13.2138,85.9063
2023-03-10 21:46:14:272,-1.96616,0.658262,-9.54034,-3.59239,-13.3751,85.8882
2023-03-10 21:46:14:282,-2.02848,0.656469,-9.51963,-3.54222,-13.5425,85.8733
2023-03-10 21:46:14:292,-2.08247,0.647786,-9.5192,-3.49502,-13.7132,85.866
2023-03-10 21:46:14:302,-2.16248,0.64713,-9.4962,-3.44691,-13.8894,85.8601
2023-03-10 21:46:14:312,-2.25564,0.653124,-9.48357,-3.3974,-14.0698,85.8552
2023-03-10 21:46:14:322,-2.3124,0.655221,-9.49946,-3.34547,-14.2592,85.8479
2023-03-10 21:46:14:332,-2.37669,0.651523,-9.49659,-3.28902,-14.4586,85.8292
2023-03-10 21:46:14:342,-2.43957,0.62982,-9.47975,-3.23051,-14.6728,85.8009
2023-03-10 21:46:14:352,-2.40766,0.602398,-9.45106,-3.1642,-14.9014,85.7522
2023-03-10 21:46:14:362,-2.34065,0.548563,-9.4187,-3.09791,-15.1432,85.6878
2023-03-10 21:46:14:372,-2.31853,0.50858,-9.38578,-3.02756,-15.4002,85.6195
2023-03-10 21:46:14:382,-2.34803,0.510037,-9.37184,-2.96525,-15.6664,85.5501
2023-03-10 21:46:14:392,-2.39077,0.53128,-9.38019,-2.90741,-15.9385,85.4834
2023-03-10 21:46:14:403,-2.44307,0.552778,-9.38657,-2.85002,-16.2192,85.4192
2023-03-10 21:46:14:413,-2.49175,0.52682,-9.41166,-2.79273,-16.5052,85.3593
2023-03-10 21:46:14:422,-2.52724,0.514761,-9.41398,-2.73522,-16.7904,85.297
2023-03-10 21:46:14:433,-2.52721,0.511968,-9.41308,-2.67533,-17.0853,85.2417
2023-03-10 21:46:14:443,-2.55223,0.487752,-9.41237,-2.61494,-17.3813,85.1965
2023-03-10 21:46:14:452,-2.60709,0.48402,-9.40464,-2.55134,-17.6822,85.16
2023-03-10 21:46:14:462,-2.67946,0.46997,-9.372,-2.48501,-17.9833,85.131
2023-03-10 21:46:14:472,-2.7494,0.438291,-9.32786,-2.41539,-18.2933,85.1026
2023-03-10 21:46:14:482,-2.82232,0.410013,-9.27323,-2.34234,-18.6074,85.083
2023-03-10 21:46:14:492,-2.87117,0.376426,-9.24988,-2.26836,-18.917,85.0709
2023-03-10 21:46:14:502,-2.9001,0.355791,-9.2317,-2.19156,-19.229,85.0602
2023-03-10 21:46:14:512,-2.89995,0.330533,-9.22135,-2.12024,-19.5398,85.0581
2023-03-10 21:46:14:522,-2.94094,0.318037,-9.21793,-2.05082,-19.8564,85.0671
2023-03-10 21:46:14:532,-3.04082,0.310187,-9.20078,-1.98672,-20.1733,85.0909
2023-03-10 21:46:14:542,-3.15308,0.321619,-9.17751,-1.92736,-20.5001,85.1167
2023-03-10 21:46:14:553,-3.28629,0.331384,-9.15126,-1.86597,-20.8279,85.1491
2023-03-10 21:46:14:562,-3.43074,0.354625,-9.13477,-1.80554,-21.1596,85.1849
2023-03-10 21:46:14:573,-3.51135,0.396834,-9.11466,-1.74413,-21.4978,85.2129
2023-03-10 21:46:14:582,-3.52292,0.387983,-9.07652,-1.67858,-21.8379,85.2338
2023-03-10 21:46:14:593,-3.48275,0.338532,-9.01404,-1.60701,-22.1806,85.2518
2023-03-10 21:46:14:603,-3.42969,0.271606,-8.94276,-1.52904,-22.524,85.2661
2023-03-10 21:46:14:613,-3.40944,0.23017,-8.87045,-1.4557,-22.8753,85.2911
2023-03-10 21:46:14:622,-3.4754,0.203771,-8.80714,-1.39052,-23.2335,85.3238
2023-03-10 21:46:14:632,-3.6319,0.183395,-8.76897,-1.33396,-23.5994,85.3697
2023-03-10 21:46:14:642,-3.81355,0.194643,-8.80787,-1.28186,-23.9661,85.4226
2023-03-10 21:46:14:653,-3.98648,0.256069,-8.85718,-1.24163,-24.345,85.4808
2023-03-10 21:46:14:662,-4.10549,0.29281,-8.89922,-1.19586,-24.7197,85.5304
2023-03-10 21:46:14:672,-4.12352,0.287138,-8.89535,-1.14388,-25.0941,85.5747
2023-03-10 21:46:14:682,-4.04838,0.229224,-8.83229,-1.08157,-25.4688,85.6083
2023-03-10 21:46:14:693,-3.96999,0.162064,-8.75016,-1.01853,-25.846,85.6454
2023-03-10 21:46:14:703,-3.97302,0.125172,-8.69022,-0.962316,-26.2302,85.6911
2023-03-10 21:46:14:713,-4.05922,0.142593,-8.64006,-0.916842,-26.6212,85.7473
2023-03-10 21:46:14:723,-4.16424,0.17712,-8.60732,-0.87791,-27.0145,85.8131
2023-03-10 21:46:14:733,-4.28892,0.171312,-8.59439,-0.84156,-27.4136,85.8847
2023-03-10 21:46:14:743,-4.42522,0.198933,-8.6121,-0.809006,-27.8126,85.96
2023-03-10 21:46:14:752,-4.53967,0.244849,-8.63905,-0.778224,-28.2133,86.0421
2023-03-10 21:46:14:762,-4.59779,0.271722,-8.63412,-0.739208,-28.6156,86.1226
2023-03-10 21:46:14:773,-4.58027,0.253413,-8.58632,-0.690417,-29.016,86.2035
2023-03-10 21:46:14:783,-4.58133,0.203665,-8.50889,-0.638501,-29.4189,86.2849
2023-03-10 21:46:14:792,-4.61342,0.155129,-8.42967,-0.580607,-29.8221,86.3708
2023-03-10 21:46:14:802,-4.67971,0.135989,-8.3814,-0.525899,-30.2288,86.4685
2023-03-10 21:46:14:812,-4.74941,0.119687,-8.37037,-0.476779,-30.6376,86.5723
2023-03-10 21:46:14:823,-4.8069,0.145659,-8.35676,-0.428322,-31.0511,86.6801
2023-03-10 21:46:14:833,-4.83452,0.163134,-8.33578,-0.383131,-31.4691,86.793
2023-03-10 21:46:14:843,-4.86151,0.164462,-8.28649,-0.329706,-31.8932,86.9016
2023-03-10 21:46:14:853,-4.96176,0.120117,-8.20933,-0.279654,-32.3303,87.0186
2023-03-10 21:46:14:863,-5.12561,0.0944091,-8.13486,-0.228768,-32.7709,87.1423
2023-03-10 21:46:14:872,-5.26133,0.100137,-8.10199,-0.181798,-33.2207,87.2667
2023-03-10 21:46:14:882,-5.31567,0.102739,-8.05283,-0.132846,-33.6709,87.3899
2023-03-10 21:46:14:893,-5.30307,0.0782188,-8.00017,-0.0795643,-34.125,87.5021
2023-03-10 21:46:14:903,-5.27249,0.0516815,-7.93965,-0.0264219,-34.5827,87.6183
2023-03-10 21:46:14:912,-5.31134,0.0230576,-7.87588,0.0268,-35.041,87.7394
2023-03-10 21:46:14:923,-5.42519,0.0290351,-7.81206,0.074849,-35.5102,87.8653
2023-03-10 21:46:14:933,-5.56422,0.0448243,-7.77304,0.119286,-35.9882,87.9951
2023-03-10 21:46:14:943,-5.69739,0.0460822,-7.74796,0.162218,-36.4675,88.1298
2023-03-10 21:46:14:953,-5.78459,0.0492764,-7.70356,0.205199,-36.9474,88.2636
2023-03-10 21:46:14:962,-5.79203,0.0333579,-7.66721,0.250654,-37.4267,88.3944
2023-03-10 21:46:14:973,-5.75083,-0.00699106,-7.58986,0.299091,-37.9112,88.5247
2023-03-10 21:46:14:982,-5.76414,-0.0404082,-7.52536,0.341126,-38.3961,88.6576
2023-03-10 21:46:14:992,-5.79174,-0.0528325,-7.49279,0.381222,-38.8844,88.8033
2023-03-10 21:46:15:3,-5.8843,-0.0342928,-7.45369,0.409642,-39.3809,88.9642
2023-03-10 21:46:15:12,-6.04124,-0.0246816,-7.38345,0.433005,-39.8853,89.1333
2023-03-10 21:46:15:22,-6.21972,-0.0436098,-7.28134,0.455981,-40.4003,89.311
2023-03-10 21:46:15:32,-6.42478,-0.0439537,-7.17938,0.473657,-40.9151,89.4952
2023-03-10 21:46:15:43,-6.57332,-0.0598735,-7.1254,0.486414,-41.4161,89.6788
2023-03-10 21:46:15:53,-6.60534,-0.0764212,-7.06518,0.505466,-41.9073,89.8515
2023-03-10 21:46:15:63,-6.5838,-0.119469,-7.0143,0.524501,-42.3928,90.024
2023-03-10 21:46:15:73,-6.59248,-0.123644,-6.96339,0.536457,-42.8787,90.1999
2023-03-10 21:46:15:83,-6.63511,-0.124859,-6.91043,0.54193,-43.3628,90.3784
2023-03-10 21:46:15:93,-6.76453,-0.0776296,-6.85008,0.533586,-43.8486,90.5675
2023-03-10 21:46:15:102,-6.92029,-0.0312484,-6.78376,0.521523,-44.3319,90.7594
2023-03-10 21:46:15:112,-7.07353,-0.000653506,-6.69613,0.511633,-44.8165,90.9444
2023-03-10 21:46:15:123,-7.18221,-0.0181935,-6.6256,0.508111,-45.2956,91.123
2023-03-10 21:46:15:133,-7.24916,-0.0588302,-6.58948,0.516353,-45.7819,91.2821
2023-03-10 21:46:15:143,-7.27101,-0.0581587,-6.57432,0.522823,-46.272,91.4256
2023-03-10 21:46:15:152,-7.24584,-0.0159714,-6.59403,0.537394,-46.7572,91.5517
2023-03-10 21:46:15:162,-7.2437,0.00713751,-6.5557,0.562883,-47.2436,91.6645
2023-03-10 21:46:15:172,-7.2806,-0.0244201,-6.40505,0.604479,-47.7269,91.7732
2023-03-10 21:46:15:182,-7.39236,-0.0823644,-6.20963,0.639868,-48.2091,91.8953
2023-03-10 21:46:15:192,-7.55053,-0.160669,-6.06321,0.668957,-48.6914,92.0191
2023-03-10 21:46:15:202,-7.6574,-0.16867,-6.02457,0.680052,-49.1632,92.1426
2023-03-10 21:46:15:212,-7.68424,-0.13446,-6.04629,0.676311,-49.6301,92.263
2023-03-10 21:46:15:222,-7.69371,-0.07623,-6.10451,0.662908,-50.0868,92.3861
2023-03-10 21:46:15:232,-7.68575,-0.0130734,-6.14874,0.639768,-50.5361,92.5205
2023-03-10 21:46:15:242,-7.72102,0.0205154,-6.15738,0.615575,-50.9754,92.6623
2023-03-10 21:46:15:252,-7.77444,0.0601941,-6.08227,0.599102,-51.4045,92.8079
2023-03-10 21:46:15:262,-7.85907,0.0630085,-5.96276,0.581317,-51.831,92.9702
2023-03-10 21:46:15:273,-7.94657,0.0438955,-5.86851,0.563913,-52.2498,93.1367
2023-03-10 21:46:15:282,-8.02631,0.0449942,-5.79489,0.546674,-52.66,93.3081
2023-03-10 21:46:15:292,-8.06712,0.0516603,-5.73915,0.530518,-53.0623,93.4794
2023-03-10 21:46:15:302,-8.07262,0.0392231,-5.678,0.518473,-53.4585,93.6507
2023-03-10 21:46:15:313,-8.04099,0.0232436,-5.62143,0.500341,-53.8457,93.828
2023-03-10 21:46:15:322,-8.02944,-0.00764946,-5.55331,0.470281,-54.2201,94.0267
2023-03-10 21:46:15:332,-8.10694,-0.0125262,-5.43318,0.422294,-54.5863,94.2487
2023-03-10 21:46:15:343,-8.26366,-0.0351953,-5.33859,0.357043,-54.9417,94.4947
2023-03-10 21:46:15:353,-8.40345,-0.0421718,-5.26884,0.272482,-55.2814,94.7533
2023-03-10 21:46:15:362,-8.48155,-0.0211442,-5.25142,0.172725,-55.6043,95.0228
2023-03-10 21:46:15:373,-8.53022,0.00914843,-5.27062,0.0587567,-55.908,95.298
2023-03-10 21:46:15:383,-8.5255,0.0541182,-5.3023,-0.0537632,-56.1932,95.5688
2023-03-10 21:46:15:393,-8.5309,0.0905771,-5.28417,-0.161104,-56.4693,95.8379
2023-03-10 21:46:15:403,-8.57549,0.0909609,-5.22178,-0.255481,-56.7357,96.0906
2023-03-10 21:46:15:413,-8.53385,0.0763702,-5.16177,-0.334997,-56.9917,96.3286
2023-03-10 21:46:15:423,-8.39862,0.0360667,-5.12516,-0.402935,-57.2363,96.5509
2023-03-10 21:46:15:432,-8.23871,0.00407287,-5.08333,-0.464081,-57.478,96.7662
2023-03-10 21:46:15:442,-8.08511,-0.0322213,-5.02746,-0.541977,-57.7217,96.9908
2023-03-10 21:46:15:452,-8.01924,-0.0801758,-4.96005,-0.6466,-57.968,97.2369
2023-03-10 21:46:15:462,-8.00017,-0.0781776,-4.87967,-0.78322,-58.2185,97.5117
2023-03-10 21:46:15:472,-8.01281,-0.0602593,-4.81138,-0.952684,-58.4758,97.8121
2023-03-10 21:46:15:482,-8.12926,-0.0254975,-4.74704,-1.16743,-58.7404,98.1508
2023-03-10 21:46:15:493,-8.3013,0.0471141,-4.70893,-1.40661,-59.0036,98.505
2023-03-10 21:46:15:503,-8.33121,0.099072,-4.76309,-1.66658,-59.2534,98.8658
2023-03-10 21:46:15:513,-8.24534,0.151657,-4.84177,-1.94675,-59.4955,99.2406
2023-03-10 21:46:15:523,-8.17955,0.198381,-4.86825,-2.2344,-59.7368,99.625
2023-03-10 21:46:15:533,-8.2076,0.210612,-4.77826,-2.532,-59.9829,100.029
2023-03-10 21:46:15:543,-8.24387,0.212655,-4.68831,-2.83083,-60.2274,100.436
2023-03-10 21:46:15:553,-8.18774,0.209781,-4.65869,-3.13729,-60.4736,100.853
2023-03-10 21:46:15:562,-8.05107,0.196476,-4.64488,-3.45975,-60.7231,101.28
2023-03-10 21:46:15:572,-7.92979,0.163553,-4.60742,-3.81685,-60.9902,101.741
2023-03-10 21:46:15:583,-7.86662,0.133557,-4.5198,-4.20463,-61.2756,102.235
2023-03-10 21:46:15:593,-7.95431,0.141772,-4.38583,-4.64583,-61.5693,102.783
2023-03-10 21:46:15:603,-8.2804,0.213155,-4.17673,-5.16095,-61.8727,103.402
2023-03-10 21:46:15:613,-8.75109,0.320831,-4.01379,-5.72042,-62.1757,104.057
2023-03-10 21:46:15:623,-9.06589,0.468889,-4.00874,-6.31306,-62.4747,104.716
2023-03-10 21:46:15:633,-9.09385,0.646792,-4.17189,-6.90117,-62.7663,105.334
2023-03-10 21:46:15:643,-8.92078,0.834714,-4.42987,-7.47432,-63.0526,105.922
2023-03-10 21:46:15:653,-8.7855,0.945932,-4.63035,-8.04112,-63.3404,106.506
2023-03-10 21:46:15:663,-8.89785,1.01107,-4.64095,-8.60685,-63.6305,107.109
2023-03-10 21:46:15:673,-9.14202,1.05044,-4.56271,-9.15502,-63.9214,107.72
2023-03-10 21:46:15:682,-9.32482,1.10873,-4.5,-9.67111,-64.2036,108.312
2023-03-10 21:46:15:692,-9.32164,1.16197,-4.42774,-10.1349,-64.4652,108.875
2023-03-10 21:46:15:703,-9.21727,1.12856,-4.30555,-10.5583,-64.7146,109.412
2023-03-10 21:46:15:713,-9.16322,1.06784,-4.14804,-10.9569,-64.9499,109.941
2023-03-10 21:46:15:723,-9.12495,1.03208,-4.01606,-11.3629,-65.1812,110.483
2023-03-10 21:46:15:733,-9.09076,0.98906,-3.91005,-11.7752,-65.4035,111.037
2023-03-10 21:46:15:743,-9.13601,0.96894,-3.8452,-12.2127,-65.619,111.612
2023-03-10 21:46:15:753,-9.19868,0.996732,-3.82431,-12.6643,-65.8209,112.201
2023-03-10 21:46:15:763,-9.15743,1.01998,-3.81634,-13.1126,-66.0057,112.787
2023-03-10 21:46:15:773,-9.08238,1.05327,-3.78718,-13.5606,-66.1733,113.374
2023-03-10 21:46:15:783,-9.0511,1.06364,-3.72393,-14.0047,-66.3316,113.963
2023-03-10 21:46:15:792,-9.10905,1.08048,-3.5952,-14.4632,-66.4838,114.568
2023-03-10 21:46:15:802,-9.24871,1.08875,-3.47148,-14.9398,-66.6307,115.191
2023-03-10 21:46:15:812,-9.37774,1.07508,-3.37738,-15.4023,-66.7653,115.795
2023-03-10 21:46:15:822,-9.4055,1.06611,-3.32162,-15.8587,-66.8938,116.376
2023-03-10 21:46:15:833,-9.36659,1.08596,-3.31791,-16.3064,-67.0115,116.935
2023-03-10 21:46:15:843,-9.35537,1.11052,-3.34679,-16.7505,-67.1237,117.476
2023-03-10 21:46:15:853,-9.4453,1.17289,-3.38301,-17.2066,-67.2367,118.014
2023-03-10 21:46:15:863,-9.59555,1.22709,-3.43642,-17.6579,-67.3465,118.541
2023-03-10 21:46:15:873,-9.70426,1.28877,-3.44687,-18.0751,-67.4458,119.02
2023-03-10 21:46:15:883,-9.69665,1.31763,-3.41545,-18.4417,-67.5438,119.454
2023-03-10 21:46:15:893,-9.5796,1.31806,-3.3666,-18.761,-67.6342,119.838
2023-03-10 21:46:15:903,-9.44707,1.31416,-3.31837,-19.0567,-67.7147,120.194
2023-03-10 21:46:15:912,-9.4567,1.28733,-3.32601,-19.3648,-67.7912,120.56
2023-03-10 21:46:15:923,-9.70055,1.33739,-3.36965,-19.685,-67.869,120.927
2023-03-10 21:46:15:933,-9.94427,1.42387,-3.44164,-19.9804,-67.9504,121.267
2023-03-10 21:46:15:943,-10.0782,1.48727,-3.45566,-20.2103,-68.0311,121.544
2023-03-10 21:46:15:953,-10.0474,1.49416,-3.3656,-20.3409,-68.1004,121.727
2023-03-10 21:46:15:963,-9.74998,1.435,-3.21608,-20.3709,-68.1563,121.812
2023-03-10 21:46:15:973,-9.33457,1.32763,-3.11867,-20.3562,-68.1936,121.848
2023-03-10 21:46:15:983,-9.1195,1.24682,-3.12051,-20.367,-68.2256,121.9
2023-03-10 21:46:15:993,-9.19171,1.25307,-3.14722,-20.4303,-68.2627,121.991
2023-03-10 21:46:16:3,-9.48273,1.28887,-3.20855,-20.5311,-68.301,122.104
2023-03-10 21:46:16:13,-9.68682,1.37016,-3.31023,-20.6154,-68.3355,122.195
2023-03-10 21:46:16:23,-9.68835,1.44853,-3.37675,-20.6364,-68.3578,122.227
2023-03-10 21:46:16:33,-9.54404,1.45106,-3.36009,-20.599,-68.3641,122.208
2023-03-10 21:46:16:43,-9.33166,1.38065,-3.30255,-20.5284,-68.3648,122.163
2023-03-10 21:46:16:53,-9.20738,1.31421,-3.22373,-20.4569,-68.362,122.117
2023-03-10 21:46:16:63,-9.22677,1.26468,-3.17873,-20.4081,-68.3617,122.089
2023-03-10 21:46:16:73,-9.30316,1.24247,-3.16411,-20.3698,-68.3619,122.063
2023-03-10 21:46:16:83,-9.46488,1.25283,-3.16319,-20.3264,-68.3619,122.028
2023-03-10 21:46:16:93,-9.57396,1.30609,-3.14285,-20.2636,-68.3548,121.965
2023-03-10 21:46:16:103,-9.3903,1.34608,-3.1349,-20.1492,-68.3378,121.842
2023-03-10 21:46:16:113,-9.0537,1.33549,-3.17634,-20.0156,-68.3122,121.692
2023-03-10 21:46:16:123,-8.8236,1.31152,-3.2722,-19.9057,-68.2862,121.558
2023-03-10 21:46:16:133,-8.82668,1.30692,-3.389,-19.8549,-68.2647,121.484
2023-03-10 21:46:16:142,-8.99172,1.33946,-3.50512,-19.8397,-68.243,121.447
2023-03-10 21:46:16:153,-9.1985,1.38418,-3.59935,-19.8285,-68.2272,121.425
2023-03-10 21:46:16:163,-9.33412,1.41926,-3.61662,-19.7897,-68.2098,121.386
2023-03-10 21:46:16:172,-9.36449,1.38865,-3.53962,-19.7093,-68.1832,121.321
2023-03-10 21:46:16:182,-9.31529,1.31008,-3.36656,-19.5827,-68.148,121.223
2023-03-10 21:46:16:192,-9.22629,1.22738,-3.20135,-19.446,-68.1005,121.115
2023-03-10 21:46:16:203,-9.13771,1.16626,-3.14954,-19.32,-68.0472,121.005
2023-03-10 21:46:16:212,-9.06723,1.12958,-3.21006,-19.2082,-67.9865,120.895
2023-03-10 21:46:16:222,-9.06272,1.15245,-3.32181,-19.1422,-67.9159,120.816
2023-03-10 21:46:16:232,-9.19292,1.20001,-3.45663,-19.0965,-67.8411,120.751
2023-03-10 21:46:16:243,-9.3421,1.25171,-3.55288,-19.0622,-67.7623,120.697
2023-03-10 21:46:16:253,-9.39924,1.27197,-3.59475,-18.9985,-67.675,120.624
2023-03-10 21:46:16:262,-9.43599,1.24346,-3.57678,-18.9189,-67.5802,120.546
2023-03-10 21:46:16:273,-9.49661,1.19283,-3.49668,-18.8101,-67.475,120.447
2023-03-10 21:46:16:283,-9.5912,1.16821,-3.42002,-18.6794,-67.364,120.328
2023-03-10 21:46:16:293,-9.67906,1.18542,-3.38762,-18.5135,-67.2447,120.167
2023-03-10 21:46:16:303,-9.69138,1.19506,-3.40458,-18.31,-67.1207,119.957
2023-03-10 21:46:16:313,-9.63145,1.18427,-3.44541,-18.0808,-66.9892,119.709
2023-03-10 21:46:16:324,-9.53756,1.16465,-3.46828,-17.8284,-66.8507,119.432
2023-03-10 21:46:16:333,-9.46811,1.13978,-3.49566,-17.5681,-66.7116,119.14
2023-03-10 21:46:16:342,-9.45124,1.13348,-3.50253,-17.3047,-66.5635,118.841
2023-03-10 21:46:16:352,-9.52974,1.15568,-3.54963,-17.0503,-66.4037,118.546
2023-03-10 21:46:16:362,-9.66785,1.18221,-3.57405,-16.7892,-66.236,118.244
2023-03-10 21:46:16:372,-9.81493,1.19151,-3.60705,-16.5174,-66.0533,117.929
2023-03-10 21:46:16:382,-9.89405,1.20779,-3.64437,-16.2091,-65.8471,117.575
2023-03-10 21:46:16:392,-9.82411,1.22244,-3.7019,-15.8531,-65.6149,117.177
2023-03-10 21:46:16:402,-9.63797,1.19044,-3.71407,-15.4563,-65.361,116.74
2023-03-10 21:46:16:412,-9.38156,1.12218,-3.66186,-15.0332,-65.0864,116.281
2023-03-10 21:46:16:422,-9.193,1.00794,-3.61043,-14.6044,-64.7948,115.82
2023-03-10 21:46:16:432,-9.20285,0.971843,-3.58068,-14.2041,-64.498,115.376
2023-03-10 21:46:16:442,-9.35966,1.02462,-3.61007,-13.8538,-64.1898,114.969
2023-03-10 21:46:16:452,-9.44602,1.06456,-3.73768,-13.5183,-63.8679,114.567
2023-03-10 21:46:16:463,-9.34648,1.10306,-3.88507,-13.1806,-63.5305,114.156
2023-03-10 21:46:16:472,-9.17193,1.09545,-4.00794,-12.8368,-63.1765,113.738
2023-03-10 21:46:16:483,-9.04835,1.07598,-4.11738,-12.493,-62.8033,113.319
2023-03-10 21:46:16:493,-8.97609,1.03401,-4.14796,-12.164,-62.4113,112.916
2023-03-10 21:46:16:503,-9.03648,1.03893,-4.09841,-11.8595,-62.0142,112.538
2023-03-10 21:46:16:513,-9.15309,1.06961,-4.12584,-11.5557,-61.6049,112.156
2023-03-10 21:46:16:523,-9.0665,1.0696,-4.27233,-11.2612,-61.1772,111.768
2023-03-10 21:46:16:533,-8.86334,1.08444,-4.46855,-10.9494,-60.7392,111.356
2023-03-10 21:46:16:543,-8.70557,1.11209,-4.62388,-10.6554,-60.2921,110.961
2023-03-10 21:46:16:553,-8.63015,1.09391,-4.71863,-10.3609,-59.8392,110.577
2023-03-10 21:46:16:563,-8.59554,1.05265,-4.73908,-10.0672,-59.3829,110.201
2023-03-10 21:46:16:573,-8.57746,0.989395,-4.73959,-9.76671,-58.9231,109.82
2023-03-10 21:46:16:583,-8.59984,0.919482,-4.76928,-9.47044,-58.4603,109.438
2023-03-10 21:46:16:593,-8.58091,0.941104,-4.85707,-9.18093,-58.0006,109.052
2023-03-10 21:46:16:603,-8.46713,0.967427,-5.00455,-8.88868,-57.5389,108.65
2023-03-10 21:46:16:613,-8.31682,0.99784,-5.15471,-8.58844,-57.0764,108.236
2023-03-10 21:46:16:623,-8.18397,1.02824,-5.27416,-8.28661,-56.6118,107.822
2023-03-10 21:46:16:633,-8.09244,1.00082,-5.34079,-7.98314,-56.1479,107.414
2023-03-10 21:46:16:643,-8.05301,0.925269,-5.35844,-7.67605,-55.6847,107.009
2023-03-10 21:46:16:653,-8.07096,0.85587,-5.3536,-7.37929,-55.2299,106.614
2023-03-10 21:46:16:663,-8.0771,0.815898,-5.37939,-7.09032,-54.7781,106.221
2023-03-10 21:46:16:673,-8.00457,0.799241,-5.49506,-6.80873,-54.3225,105.824
2023-03-10 21:46:16:683,-7.83543,0.8075,-5.61867,-6.53505,-53.8572,105.432
2023-03-10 21:46:16:693,-7.65431,0.802367,-5.73253,-6.26128,-53.3862,105.038
2023-03-10 21:46:16:702,-7.56453,0.784575,-5.79927,-5.99871,-52.9149,104.664
2023-03-10 21:46:16:712,-7.59355,0.761485,-5.8288,-5.75213,-52.4455,104.314
2023-03-10 21:46:16:723,-7.60079,0.731125,-5.88725,-5.51829,-51.9823,103.971
2023-03-10 21:46:16:733,-7.52653,0.68903,-5.9856,-5.28872,-51.5187,103.634
2023-03-10 21:46:16:743,-7.43066,0.647164,-6.06528,-5.06213,-51.0567,103.299
2023-03-10 21:46:16:753,-7.34924,0.622931,-6.11405,-4.8506,-50.5938,102.981
2023-03-10 21:46:16:763,-7.32215,0.623975,-6.12643,-4.64221,-50.1324,102.667
2023-03-10 21:46:16:773,-7.42402,0.622113,-6.11229,-4.45183,-49.6742,102.373
2023-03-10 21:46:16:783,-7.50988,0.601427,-6.17987,-4.26329,-49.2257,102.073
2023-03-10 21:46:16:793,-7.34159,0.610191,-6.33156,-4.06951,-48.7732,101.757
2023-03-10 21:46:16:803,-7.02873,0.625247,-6.51612,-3.87912,-48.3158,101.434
2023-03-10 21:46:16:813,-6.73052,0.594477,-6.68739,-3.69587,-47.8634,101.123
2023-03-10 21:46:16:823,-6.6027,0.56289,-6.77743,-3.52484,-47.4172,100.84
2023-03-10 21:46:16:833,-6.82364,0.549004,-6.74536,-3.36956,-46.9824,100.596
2023-03-10 21:46:16:843,-7.38723,0.539328,-6.62808,-3.2368,-46.5625,100.392
2023-03-10 21:46:16:853,-7.82257,0.531974,-6.57855,-3.09352,-46.1318,100.173
2023-03-10 21:46:16:863,-7.79221,0.542616,-6.70674,-2.92928,-45.6702,99.9127
2023-03-10 21:46:16:873,-7.37916,0.550823,-6.94317,-2.7352,-45.1775,99.6126
2023-03-10 21:46:16:883,-6.86202,0.521214,-7.08995,-2.5124,-44.6532,99.2836
2023-03-10 21:46:16:893,-6.38219,0.426877,-7.09351,-2.27069,-44.1153,98.9533
2023-03-10 21:46:16:903,-6.12139,0.295852,-6.967,-2.03347,-43.5906,98.6425
2023-03-10 21:46:16:913,-6.26385,0.198173,-6.76725,-1.83501,-43.0883,98.3778
2023-03-10 21:46:16:923,-6.51234,0.177064,-6.70426,-1.67209,-42.6044,98.1321
2023-03-10 21:46:16:933,-6.42553,0.211805,-6.89126,-1.53775,-42.1212,97.884
2023-03-10 21:46:16:942,-6.11372,0.25314,-7.16173,-1.41903,-41.6307,97.6325
2023-03-10 21:46:16:953,-5.82305,0.260614,-7.35234,-1.30856,-41.1366,97.3879
2023-03-10 21:46:16:963,-5.59496,0.234381,-7.45059,-1.20459,-40.6447,97.1634
2023-03-10 21:46:16:973,-5.59817,0.202699,-7.41064,-1.11742,-40.163,96.9762
2023-03-10 21:46:16:983,-5.9256,0.175159,-7.28332,-1.04746,-39.7001,96.8213
2023-03-10 21:46:16:993,-6.26057,0.164334,-7.19278,-0.991353,-39.2478,96.6715
2023-03-10 21:46:17:3,-6.2028,0.14441,-7.29391,-0.939053,-38.7866,96.5071
2023-03-10 21:46:17:13,-5.84848,0.154434,-7.5313,-0.88873,-38.3149,96.3198
2023-03-10 21:46:17:23,-5.51776,0.164418,-7.73128,-0.839191,-37.842,96.1333
2023-03-10 21:46:17:33,-5.33861,0.167235,-7.83274,-0.792235,-37.3693,95.959
2023-03-10 21:46:17:43,-5.44541,0.194153,-7.81917,-0.749896,-36.9202,95.8038
2023-03-10 21:46:17:53,-5.67041,0.186758,-7.75674,-0.714849,-36.4836,95.6595
2023-03-10 21:46:17:62,-5.62457,0.144592,-7.76926,-0.672009,-36.0522,95.4983
2023-03-10 21:46:17:72,-5.31143,0.0971285,-7.88055,-0.627658,-35.6238,95.3227
2023-03-10 21:46:17:83,-5.00779,0.0725451,-8.0085,-0.583724,-35.2069,95.1434
2023-03-10 21:46:17:93,-4.8656,0.0747415,-8.11572,-0.554666,-34.8053,94.9815
2023-03-10 21:46:17:103,-5.03028,0.108978,-8.12676,-0.531851,-34.4308,94.8437
2023-03-10 21:46:17:113,-5.38083,0.143569,-8.03887,-0.51408,-34.079,94.7126
2023-03-10 21:46:17:123,-5.52164,0.121914,-8.01133,-0.489018,-33.7326,94.5718
2023-03-10 21:46:17:133,-5.34715,0.077876,-8.11827,-0.456147,-33.3786,94.4035
2023-03-10 21:46:17:143,-5.05812,0.0806547,-8.25212,-0.419694,-33.0206,94.2239
2023-03-10 21:46:17:153,-4.93416,0.0963606,-8.31168,-0.386501,-32.669,94.0529
2023-03-10 21:46:17:163,-5.01651,0.109012,-8.27826,-0.362807,-32.3285,93.896
2023-03-10 21:46:17:173,-5.14557,0.119895,-8.23161,-0.343035,-31.9884,93.75
2023-03-10 21:46:17:183,-5.19881,0.139075,-8.21581,-0.33178,-31.6391,93.6096
2023-03-10 21:46:17:193,-5.1301,0.138709,-8.25726,-0.3221,-31.279,93.4677
2023-03-10 21:46:17:203,-4.93925,0.128712,-8.332,-0.312365,-30.9058,93.3259
2023-03-10 21:46:17:213,-4.68392,0.10358,-8.44366,-0.304734,-30.5177,93.1894
2023-03-10 21:46:17:223,-4.51039,0.0814196,-8.50006,-0.301115,-30.1251,93.0721
2023-03-10 21:46:17:233,-4.58995,0.10301,-8.46087,-0.302134,-29.7371,92.9797
2023-03-10 21:46:17:243,-4.92632,0.130883,-8.34242,-0.312476,-29.3482,92.9103
2023-03-10 21:46:17:253,-5.10258,0.123583,-8.30077,-0.326791,-28.9394,92.8484
2023-03-10 21:46:17:263,-4.87718,0.111725,-8.46781,-0.337187,-28.4922,92.7694
2023-03-10 21:46:17:273,-4.4764,0.111738,-8.68673,-0.345997,-28.0252,92.6884
2023-03-10 21:46:17:283,-4.18793,0.0715523,-8.77775,-0.351846,-27.5552,92.6127
2023-03-10 21:46:17:293,-4.11083,0.0443018,-8.7501,-0.360693,-27.0941,92.553
2023-03-10 21:46:17:303,-4.26103,0.0420466,-8.6603,-0.375039,-26.6484,92.5121
2023-03-10 21:46:17:313,-4.46432,0.0713139,-8.58593,-0.39565,-26.2048,92.4809
2023-03-10 21:46:17:323,-4.51177,0.112824,-8.59555,-0.426079,-25.7571,92.446
2023-03-10 21:46:17:333,-4.34984,0.0919273,-8.67423,-0.450943,-25.2914,92.398
2023-03-10 21:46:17:343,-4.09153,0.0609156,-8.76953,-0.473249,-24.813,92.3392
2023-03-10 21:46:17:353,-3.83233,0.0722891,-8.83762,-0.493767,-24.3294,92.2792
2023-03-10 21:46:17:363,-3.69341,0.0919572,-8.86319,-0.516641,-23.8492,92.2207
2023-03-10 21:46:17:373,-3.82216,0.110583,-8.78971,-0.546169,-23.3819,92.1788
2023-03-10 21:46:17:383,-4.1586,0.145391,-8.70734,-0.577658,-22.9258,92.1431
2023-03-10 21:46:17:393,-4.3022,0.162687,-8.74284,-0.614224,-22.4586,92.0973
2023-03-10 21:46:17:403,-4.03567,0.184917,-8.89978,-0.645293,-21.9654,92.0202
2023-03-10 21:46:17:413,-3.63126,0.176735,-9.09978,-0.670248,-21.4594,91.9246
2023-03-10 21:46:17:423,-3.28934,0.143695,-9.23432,-0.683835,-20.9503,91.8181
2023-03-10 21:46:17:433,-3.07802,0.161251,-9.25658,-0.691494,-20.4509,91.7136
2023-03-10 21:46:17:443,-3.10119,0.142964,-9.13208,-0.695251,-19.9657,91.624
2023-03-10 21:46:17:453,-3.33,0.105672,-8.96549,-0.703769,-19.4987,91.5519
2023-03-10 21:46:17:463,-3.4711,0.10206,-8.90703,-0.725581,-19.0226,91.4781
2023-03-10 21:46:17:473,-3.3415,0.119783,-8.98549,-0.75461,-18.5383,91.3937
2023-03-10 21:46:17:483,-3.06723,0.113246,-9.11013,-0.780672,-18.0412,91.2908
2023-03-10 21:46:17:493,-2.78018,0.114863,-9.21855,-0.807373,-17.5388,91.1795
2023-03-10 21:46:17:503,-2.56656,0.148592,-9.27435,-0.837622,-17.0368,91.0695
2023-03-10 21:46:17:513,-2.54202,0.161616,-9.21957,-0.868763,-16.5474,90.9689
2023-03-10 21:46:17:523,-2.74678,0.16391,-9.12882,-0.900416,-16.0741,90.8821
2023-03-10 21:46:17:533,-2.88878,0.182031,-9.1306,-0.936078,-15.5989,90.7895
2023-03-10 21:46:17:543,-2.71878,0.200665,-9.28293,-0.970901,-15.1092,90.6835
2023-03-10 21:46:17:553,-2.38919,0.215263,-9.45606,-1.00671,-14.6119,90.5648
2023-03-10 21:46:17:563,-2.06162,0.181795,-9.56255,-1.03962,-14.1142,90.441
2023-03-10 21:46:17:573,-1.84107,0.170612,-9.56957,-1.06798,-13.6306,90.3186
2023-03-10 21:46:17:583,-1.82257,0.170668,-9.48085,-1.09133,-13.1714,90.2049
2023-03-10 21:46:17:593,-2.03477,0.164732,-9.29268,-1.11488,-12.7306,90.1068
2023-03-10 21:46:17:603,-2.2376,0.16913,-9.17907,-1.14575,-12.2943,90.0104
2023-03-10 21:46:17:613,-2.13164,0.189841,-9.25486,-1.18996,-11.8506,89.9028
2023-03-10 21:46:17:623,-1.82907,0.198275,-9.44602,-1.24303,-11.3896,89.7835
2023-03-10 21:46:17:633,-1.50419,0.217731,-9.61262,-1.29811,-10.9233,89.6629
2023-03-10 21:46:17:643,-1.22301,0.22129,-9.71751,-1.34842,-10.4678,89.5434
2023-03-10 21:46:17:653,-1.06071,0.232914,-9.69621,-1.39636,-10.0248,89.4329
2023-03-10 21:46:17:663,-1.13617,0.210418,-9.56384,-1.43709,-9.60204,89.3441
2023-03-10 21:46:17:673,-1.39457,0.196485,-9.42181,-1.4823,-9.19235,89.2721
2023-03-10 21:46:17:683,-1.56446,0.218252,-9.40733,-1.54024,-8.78146,89.2037
2023-03-10 21:46:17:693,-1.43368,0.275638,-9.49954,-1.60598,-8.35823,89.1221
2023-03-10 21:46:17:703,-1.1421,0.295593,-9.61079,-1.66943,-7.92309,89.0305
2023-03-10 21:46:17:712,-0.828929,0.272769,-9.69704,-1.73301,-7.49206,88.9302
2023-03-10 21:46:17:723,-0.56929,0.283611,-9.75069,-1.79526,-7.07905,88.8286
2023-03-10 21:46:17:733,-0.488366,0.29828,-9.73554,-1.85716,-6.68749,88.7398
2023-03-10 21:46:17:743,-0.585652,0.316202,-9.68317,-1.92515,-6.32443,88.6703
2023-03-10 21:46:17:753,-0.675939,0.35645,-9.67796,-1.99385,-5.97417,88.6075
2023-03-10 21:46:17:763,-0.619515,0.389338,-9.70955,-2.06912,-5.62776,88.547
2023-03-10 21:46:17:773,-0.426357,0.379131,-9.75509,-2.13729,-5.28402,88.4847
2023-03-10 21:46:17:783,-0.189611,0.357322,-9.79941,-2.20146,-4.94528,88.4267
2023-03-10 21:46:17:793,0.00608008,0.367677,-9.77764,-2.26849,-4.61914,88.3695
2023-03-10 21:46:17:803,0.0236345,0.356759,-9.73996,-2.33516,-4.31193,88.3293
2023-03-10 21:46:17:813,-0.151941,0.375333,-9.68141,-2.41197,-4.02764,88.3117
2023-03-10 21:46:17:823,-0.347944,0.438975,-9.67124,-2.49715,-3.76292,88.3032
2023-03-10 21:46:17:833,-0.375647,0.509815,-9.73608,-2.5862,-3.50213,88.2934
2023-03-10 21:46:17:843,-0.22401,0.554554,-9.83697,-2.67615,-3.24401,88.2756
2023-03-10 21:46:17:853,-0.0419487,0.583046,-9.93624,-2.75883,-2.99221,88.2587
2023-03-10 21:46:17:863,0.110068,0.600365,-9.99651,-2.83252,-2.74848,88.2375
2023-03-10 21:46:17:873,0.188417,0.621561,-9.98753,-2.89739,-2.52186,88.2179
2023-03-10 21:46:17:882,0.164793,0.619462,-9.92064,-2.95406,-2.31705,88.2058
2023-03-10 21:46:17:893,0.0602494,0.637294,-9.82731,-3.00638,-2.13267,88.2025
2023-03-10 21:46:17:903,-0.0509497,0.627209,-9.79843,-3.0582,-1.9624,88.1971
2023-03-10 21:46:17:913,-0.0515948,0.630329,-9.82977,-3.11052,-1.7978,88.1898
2023-03-10 21:46:17:922,0.0496378,0.650009,-9.89285,-3.16036,-1.63315,88.179
2023-03-10 21:46:17:933,0.172758,0.657627,-9.92079,-3.20443,-1.46571,88.1664
2023-03-10 21:46:17:943,0.280743,0.647401,-9.9226,-3.24333,-1.3024,88.1624
2023-03-10 21:46:17:953,0.303463,0.637697,-9.9141,-3.27471,-1.14579,88.1653
2023-03-10 21:46:17:963,0.240651,0.626558,-9.847,-3.30075,-1.00731,88.1757
2023-03-10 21:46:17:973,0.124469,0.610763,-9.77884,-3.33047,-0.879446,88.1941
2023-03-10 21:46:17:983,-0.00356523,0.626456,-9.74309,-3.3661,-0.759636,88.2093
2023-03-10 21:46:17:993,-0.0891538,0.669967,-9.73057,-3.4063,-0.642879,88.23
2023-03-10 21:46:18:2,-0.0837516,0.695237,-9.73968,-3.44924,-0.526463,88.2361
2023-03-10 21:46:18:13,0.00627141,0.695047,-9.76935,-3.4933,-0.414343,88.2298
2023-03-10 21:46:18:23,0.0746718,0.685834,-9.78251,-3.53766,-0.304991,88.2134
2023-03-10 21:46:18:33,0.137667,0.672097,-9.75843,-3.57842,-0.211213,88.1895
2023-03-10 21:46:18:43,0.199714,0.643059,-9.71202,-3.62266,-0.132405,88.1538
2023-03-10 21:46:18:53,0.243236,0.631091,-9.67687,-3.66907,-0.0725004,88.1116
2023-03-10 21:46:18:63,0.218442,0.633961,-9.66632,-3.71809,-0.0290047,88.0654
2023-03-10 21:46:18:73,0.156383,0.671469,-9.68534,-3.77461,0.00316318,88.0163
2023-03-10 21:46:18:83,0.112008,0.699923,-9.73533,-3.83547,0.031324,87.9644
2023-03-10 21:46:18:93,0.146229,0.72207,-9.76607,-3.89912,0.054633,87.9033
2023-03-10 21:46:18:103,0.203404,0.741769,-9.77204,-3.96238,0.0804418,87.8416
2023-03-10 21:46:18:113,0.278201,0.739458,-9.77386,-4.02229,0.107546,87.7806
2023-03-10 21:46:18:123,0.324344,0.729214,-9.7855,-4.08076,0.131324,87.7197
2023-03-10 21:46:18:133,0.35969,0.740389,-9.79298,-4.14561,0.151756,87.6631
2023-03-10 21:46:18:143,0.338969,0.795743,-9.80765,-4.21306,0.159394,87.6152
2023-03-10 21:46:18:153,0.263363,0.836282,-9.80699,-4.28034,0.161571,87.5744
2023-03-10 21:46:18:163,0.117188,0.865722,-9.78694,-4.34931,0.162486,87.544
2023-03-10 21:46:18:173,-0.00510128,0.889577,-9.79431,-4.4137,0.164852,87.5153
2023-03-10 21:46:18:183,-0.0195026,0.908749,-9.82298,-4.47397,0.179571,87.4804
2023-03-10 21:46:18:193,0.0661662,0.918704,-9.87806,-4.52909,0.199774,87.4418
2023-03-10 21:46:18:203,0.152897,0.923353,-9.92451,-4.57438,0.219906,87.3994
2023-03-10 21:46:18:213,0.181239,0.93517,-9.93241,-4.60883,0.233603,87.3617
2023-03-10 21:46:18:223,0.151563,0.938116,-9.89665,-4.63956,0.244177,87.3221
2023-03-10 21:46:18:233,0.111209,0.91709,-9.83499,-4.66156,0.24417,87.2865
2023-03-10 21:46:18:243,0.0566345,0.888329,-9.77771,-4.68555,0.24421,87.2491
2023-03-10 21:46:18:253,0.0101677,0.882595,-9.76932,-4.7065,0.241596,87.2172
2023-03-10 21:46:18:263,-0.000739827,0.880362,-9.77804,-4.73003,0.241894,87.1842
2023-03-10 21:46:18:273,0.0272239,0.868982,-9.7691,-4.75242,0.24032,87.1456
2023-03-10 21:46:18:283,0.127321,0.85906,-9.78219,-4.77583,0.238,87.1017
2023-03-10 21:46:18:293,0.204373,0.880708,-9.80705,-4.79992,0.235081,87.062
2023-03-10 21:46:18:303,0.226282,0.88753,-9.83839,-4.82314,0.2295,87.0282
2023-03-10 21:46:18:313,0.183077,0.897822,-9.83174,-4.83975,0.214119,87.0028
2023-03-10 21:46:18:323,0.116172,0.910888,-9.78688,-4.84881,0.191584,86.9868
2023-03-10 21:46:18:333,0.0646105,0.891604,-9.7386,-4.85853,0.175989,86.9739
2023-03-10 21:46:18:343,0.0122307,0.861477,-9.70131,-4.86497,0.160054,86.9665
2023-03-10 21:46:18:353,-0.00574252,0.840312,-9.68073,-4.87371,0.149046,86.9596
2023-03-10 21:46:18:363,-0.0186106,0.826982,-9.70276,-4.88564,0.139201,86.9564
2023-03-10 21:46:18:373,-0.0342322,0.838815,-9.70615,-4.90049,0.130521,86.9557
2023-03-10 21:46:18:383,-0.0212737,0.839322,-9.69362,-4.91864,0.123647,86.9534
2023-03-10 21:46:18:393,-0.00867315,0.829763,-9.72755,-4.93569,0.119478,86.9502
2023-03-10 21:46:18:403,0.00569894,0.837886,-9.74584,-4.95735,0.112616,86.9518
2023-03-10 21:46:18:413,-0.0139401,0.8727,-9.77308,-4.97828,0.109981,86.9581
2023-03-10 21:46:18:423,-0.0654488,0.922012,-9.76921,-4.99902,0.105783,86.9713
2023-03-10 21:46:18:433,-0.13292,0.942091,-9.75052,-5.01481,0.104805,86.9829
2023-03-10 21:46:18:443,-0.189886,0.922865,-9.70406,-5.02869,0.103299,86.9935
2023-03-10 21:46:18:453,-0.195435,0.905379,-9.65311,-5.03976,0.110695,87.0024
2023-03-10 21:46:18:463,-0.186763,0.885353,-9.65074,-5.05317,0.122976,87.0074
2023-03-10 21:46:18:472,-0.146878,0.887946,-9.66026,-5.0752,0.138752,87.0034
2023-03-10 21:46:18:483,-0.0969187,0.9116,-9.7035,-5.09993,0.156494,86.994
2023-03-10 21:46:18:493,-0.0181685,0.93123,-9.75109,-5.12517,0.170688,86.9776
2023-03-10 21:46:18:503,0.0444827,0.96229,-9.80197,-5.15149,0.179844,86.9574
2023-03-10 21:46:18:513,0.0682619,0.992921,-9.82348,-5.17471,0.185233,86.9405
2023-03-10 21:46:18:523,0.03335,0.987338,-9.80726,-5.19421,0.182945,86.9265
2023-03-10 21:46:18:533,-0.00726763,0.9758,-9.76255,-5.21081,0.181363,86.9137
2023-03-10 21:46:18:543,-0.039413,0.954923,-9.7548,-5.22608,0.182167,86.8999
2023-03-10 21:46:18:553,-0.0441204,0.963521,-9.7423,-5.23818,0.184374,86.8868
2023-03-10 21:46:18:563,-0.0182903,0.961524,-9.75286,-5.25441,0.189146,86.8685
2023-03-10 21:46:18:573,0.0167056,0.956785,-9.75547,-5.27124,0.193062,86.8515
2023-03-10 21:46:18:583,0.0281719,0.949979,-9.74444,-5.28286,0.200904,86.8357
2023-03-10 21:46:18:593,0.043727,0.949302,-9.74063,-5.29729,0.21118,86.8222
2023-03-10 21:46:18:603,0.0684492,0.946596,-9.73836,-5.3113,0.220448,86.8062
2023-03-10 21:46:18:613,0.0663063,0.937585,-9.76385,-5.32251,0.225456,86.7906
2023-03-10 21:46:18:623,0.023551,0.954696,-9.76715,-5.33572,0.228113,86.7769
2023-03-10 21:46:18:633,-0.00714695,0.980203,-9.7642,-5.35153,0.235766,86.7631
2023-03-10 21:46:18:643,0.00462554,0.997152,-9.77089,-5.36521,0.245476,86.745
2023-03-10 21:46:18:653,0.0301451,0.983789,-9.78976,-5.376,0.255577,86.7288
2023-03-10 21:46:18:663,0.0498338,0.966278,-9.7738,-5.38213,0.262329,86.7103
2023-03-10 21:46:18:673,0.0750759,0.955164,-9.73027,-5.38766,0.270156,86.6941
2023-03-10 21:46:18:683,0.0952053,0.954974,-9.69412,-5.39321,0.279405,86.6793
2023-03-10 21:46:18:693,0.115678,0.949772,-9.71436,-5.40336,0.287054,86.6658
2023-03-10 21:46:18:703,0.0949641,0.976658,-9.73043,-5.41353,0.29165,86.6575
2023-03-10 21:46:18:713,0.0711289,0.999443,-9.72639,-5.42177,0.298374,86.6514
2023-03-10 21:46:18:723,0.0621577,1.00723,-9.72537,-5.43231,0.30353,86.6407
2023-03-10 21:46:18:733,0.0135063,1.00552,-9.72615,-5.44274,0.309237,86.6336
2023-03-10 21:46:18:743,-0.0181603,1.00488,-9.72395,-5.45124,0.318976,86.627
2023-03-10 21:46:18:753,0.00576518,0.98379,-9.72515,-5.45597,0.330834,86.618
2023-03-10 21:46:18:763,0.039009,0.976087,-9.72821,-5.46507,0.34442,86.6076
2023-03-10 21:46:18:773,0.0676073,0.98865,-9.7332,-5.47417,0.361316,86.5926
2023-03-10 21:46:18:783,0.0909875,0.990661,-9.72355,-5.48417,0.373491,86.5749
2023-03-10 21:46:18:793,0.0668589,0.972265,-9.68466,-5.49424,0.379203,86.5608
2023-03-10 21:46:18:803,0.00688336,0.975574,-9.67861,-5.50663,0.38548,86.5447
2023-03-10 21:46:18:813,5.30276e-06,0.996394,-9.75444,-5.52429,0.393108,86.5272
2023-03-10 21:46:18:823,0.0397536,1.03841,-9.84808,-5.5436,0.400291,86.5041
2023-03-10 21:46:18:833,0.0840337,1.05774,-9.90212,-5.56007,0.406313,86.4808
2023-03-10 21:46:18:843,0.105299,1.07132,-9.93008,-5.56818,0.411461,86.4541
2023-03-10 21:46:18:853,0.113643,1.07109,-9.87774,-5.56412,0.421214,86.4328
2023-03-10 21:46:18:863,0.123726,1.01365,-9.76946,-5.55537,0.431738,86.4101
2023-03-10 21:46:18:873,0.143796,0.962114,-9.6751,-5.54952,0.435079,86.3871
2023-03-10 21:46:18:883,0.131995,0.974157,-9.65159,-5.55234,0.434076,86.3663
2023-03-10 21:46:18:893,0.0924482,1.03055,-9.67679,-5.56132,0.43133,86.3528
2023-03-10 21:46:18:903,0.0143294,1.04308,-9.65842,-5.56721,0.426936,86.3455
2023-03-10 21:46:18:913,-0.0407576,1.03122,-9.61298,-5.57669,0.418858,86.3318
2023-03-10 21:46:18:923,-0.0468538,1.03476,-9.65214,-5.58675,0.419154,86.3152
2023-03-10 21:46:18:933,-0.0075658,1.07158,-9.71401,-5.59613,0.432927,86.2963
2023-03-10 21:46:18:943,0.0493665,1.05142,-9.75419,-5.59559,0.454744,86.2804
2023-03-10 21:46:18:953,0.125363,1.01257,-9.73343,-5.59465,0.473286,86.2591
2023-03-10 21:46:18:963,0.169397,0.970357,-9.71981,-5.59572,0.490976,86.2371
2023-03-10 21:46:18:973,0.164937,0.945,-9.70251,-5.5976,0.500491,86.2175
2023-03-10 21:46:18:983,0.128134,0.944615,-9.68711,-5.60361,0.505927,86.2019
2023-03-10 21:46:18:993,0.088508,0.972119,-9.71564,-5.61431,0.509815,86.1887
2023-03-10 21:46:19:3,0.0479401,1.02278,-9.77577,-5.62893,0.50937,86.1796
2023-03-10 21:46:19:13,0.0549474,1.04707,-9.79755,-5.64166,0.517569,86.1625
2023-03-10 21:46:19:23,0.100388,1.02394,-9.79556,-5.65235,0.526328,86.1458
2023-03-10 21:46:19:33,0.164475,1.03799,-9.7963,-5.66165,0.53325,86.1284
2023-03-10 21:46:19:43,0.164063,1.05646,-9.79241,-5.67006,0.535572,86.1151
2023-03-10 21:46:19:53,0.0989133,1.06563,-9.77425,-5.67982,0.534427,86.1021
2023-03-10 21:46:19:63,0.0683266,1.08471,-9.76161,-5.6812,0.535327,86.0878
2023-03-10 21:46:19:73,0.131309,1.07056,-9.73955,-5.67699,0.542696,86.0725
2023-03-10 21:46:19:83,0.210102,1.01507,-9.74618,-5.66715,0.545379,86.051
2023-03-10 21:46:19:93,0.196242,0.996406,-9.73264,-5.65788,0.540033,86.0345
2023-03-10 21:46:19:103,0.101018,1.00097,-9.70675,-5.65628,0.531051,86.0221
2023-03-10 21:46:19:113,0.0336243,1.00997,-9.72102,-5.65296,0.520615,86.0117
2023-03-10 21:46:19:123,0.0417262,0.997123,-9.73436,-5.65096,0.510702,85.9959
2023-03-10 21:46:19:133,0.114971,0.983814,-9.74901,-5.65,0.507111,85.9768
2023-03-10 21:46:19:143,0.173311,0.983783,-9.7781,-5.64851,0.502246,85.9596
2023-03-10 21:46:19:153,0.17887,1.02137,-9.81057,-5.64624,0.495672,85.9451
2023-03-10 21:46:19:163,0.165764,1.04693,-9.83207,-5.64052,0.488171,85.935
2023-03-10 21:46:19:173,0.157878,1.04863,-9.80903,-5.63243,0.476145,85.9264
2023-03-10 21:46:19:183,0.140834,1.04138,-9.77067,-5.6172,0.462387,85.9195
2023-03-10 21:46:19:193,0.180737,1.03037,-9.74563,-5.59596,0.449733,85.9144
2023-03-10 21:46:19:203,0.258699,1.01147,-9.76899,-5.58085,0.435622,85.9122
2023-03-10 21:46:19:213,0.307327,1.02339,-9.79544,-5.56361,0.41541,85.9124
2023-03-10 21:46:19:223,0.303672,1.02972,-9.81678,-5.54477,0.388499,85.9142
2023-03-10 21:46:19:233,0.281664,1.01295,-9.81639,-5.52283,0.353554,85.9185
2023-03-10 21:46:19:243,0.214965,1.01919,-9.80379,-5.49469,0.308894,85.9296
2023-03-10 21:46:19:253,0.181309,1.01308,-9.81413,-5.46545,0.255972,85.9419
2023-03-10 21:46:19:263,0.189274,1.02487,-9.82514,-5.43735,0.196789,85.9485
2023-03-10 21:46:19:273,0.24888,1.01885,-9.84018,-5.40605,0.13054,85.9521
2023-03-10 21:46:19:283,0.372553,0.99959,-9.85931,-5.372,0.0577261,85.9536
2023-03-10 21:46:19:293,0.4486,0.963932,-9.86179,-5.33781,-0.028629,85.9565
2023-03-10 21:46:19:303,0.443325,0.929765,-9.83202,-5.29711,-0.130557,85.9647
2023-03-10 21:46:19:313,0.385003,0.932727,-9.79799,-5.2602,-0.247625,85.979
2023-03-10 21:46:19:323,0.319626,0.95182,-9.82427,-5.22184,-0.38076,85.9975
2023-03-10 21:46:19:333,0.293805,0.971218,-9.88504,-5.18473,-0.526213,86.0152
2023-03-10 21:46:19:343,0.282766,1.00483,-9.90311,-5.14365,-0.687424,86.0325
2023-03-10 21:46:19:353,0.270615,1.00562,-9.90332,-5.09523,-0.864366,86.0466
2023-03-10 21:46:19:363,0.23006,0.988815,-9.87644,-5.04087,-1.05441,86.0596
2023-03-10 21:46:19:373,0.227427,0.966763,-9.80504,-4.98173,-1.26764,86.0674
2023-03-10 21:46:19:383,0.328787,0.923382,-9.72895,-4.92178,-1.49368,86.065
2023-03-10 21:46:19:393,0.488956,0.869869,-9.68108,-4.86231,-1.7409,86.0611
2023-03-10 21:46:19:403,0.60852,0.832781,-9.68393,-4.80832,-2.01537,86.058
2023-03-10 21:46:19:413,0.614207,0.831698,-9.70995,-4.76603,-2.32098,86.0638
2023-03-10 21:46:19:423,0.494945,0.85622,-9.78666,-4.7352,-2.65818,86.0883
2023-03-10 21:46:19:433,0.291597,0.897526,-9.89796,-4.7071,-3.02887,86.1214
2023-03-10 21:46:19:443,0.0967702,0.954543,-10.019,-4.67865,-3.4287,86.1646
2023-03-10 21:46:19:453,-0.0550269,1.0116,-10.0956,-4.64066,-3.85208,86.2047
2023-03-10 21:46:19:463,-0.19184,1.04467,-10.1344,-4.58533,-4.2934,86.2493
2023-03-10 21:46:19:473,-0.336903,1.06012,-10.1178,-4.51218,-4.76016,86.2902
2023-03-10 21:46:19:483,-0.511945,1.04344,-10.0269,-4.41544,-5.23772,86.3306
2023-03-10 21:46:19:493,-0.699995,0.978459,-9.89744,-4.29429,-5.72499,86.3652
2023-03-10 21:46:19:503,-0.804329,0.901261,-9.74591,-4.15551,-6.21575,86.3897
2023-03-10 21:46:19:513,-0.805138,0.801543,-9.55793,-4.00957,-6.71429,86.4071
2023-03-10 21:46:19:523,-0.832726,0.671807,-9.38315,-3.8609,-7.21933,86.4198
2023-03-10 21:46:19:533,-1.00482,0.602743,-9.28509,-3.72605,-7.73876,86.4402
2023-03-10 21:46:19:543,-1.21385,0.634562,-9.34596,-3.61595,-8.26328,86.4706
2023-03-10 21:46:19:552,-1.38267,0.765012,-9.51073,-3.52166,-8.79132,86.5032
2023-03-10 21:46:19:562,-1.48257,0.869035,-9.67569,-3.42292,-9.31924,86.5273
2023-03-10 21:46:19:572,-1.52663,0.853737,-9.75363,-3.30718,-9.84839,86.541
2023-03-10 21:46:19:582,-1.57108,0.745549,-9.70994,-3.17438,-10.3841,86.5468
2023-03-10 21:46:19:592,-1.63044,0.636102,-9.57384,-3.02916,-10.9268,86.5464
2023-03-10 21:46:19:602,-1.74285,0.563685,-9.47776,-2.88668,-11.4764,86.5473
2023-03-10 21:46:19:612,-1.85717,0.54917,-9.46147,-2.74686,-12.0336,86.5529
2023-03-10 21:46:19:622,-1.96276,0.540509,-9.43461,-2.60305,-12.5928,86.5546
2023-03-10 21:46:19:632,-2.04819,0.514912,-9.3711,-2.45757,-13.1491,86.5585
2023-03-10 21:46:19:642,-2.1828,0.433109,-9.28342,-2.30925,-13.7083,86.5618
2023-03-10 21:46:19:652,-2.36853,0.394721,-9.19892,-2.16327,-14.2648,86.5723
