Timestamp,Acceleration_x,Acceleration_y,Acceleration_z,roll,pitch,yaw
2023-03-14 18:15:21:298,-0.774513,2.70188,-9.40021,-15.8711,-4.10262,61.9595
2023-03-14 18:15:21:307,-0.787541,2.72744,-9.41091,-15.88,-4.10518,61.9655
2023-03-14 18:15:21:317,-0.775289,2.73757,-9.39851,-15.8896,-4.10366,61.967
2023-03-14 18:15:21:327,-0.764448,2.75174,-9.43238,-15.8993,-4.10087,61.962
2023-03-14 18:15:21:337,-0.72624,2.7473,-9.45816,-15.9074,-4.09921,61.9581
2023-03-14 18:15:21:347,-0.699527,2.73815,-9.43088,-15.907,-4.09314,61.95
2023-03-14 18:15:21:357,-0.680891,2.74258,-9.419,-15.9049,-4.08543,61.9412
2023-03-14 18:15:21:367,-0.685689,2.73461,-9.41176,-15.901,-4.08034,61.9346
2023-03-14 18:15:21:377,-0.692268,2.7056,-9.39021,-15.8958,-4.07935,61.9301
2023-03-14 18:15:21:387,-0.71389,2.66972,-9.37462,-15.8897,-4.07937,61.9263
2023-03-14 18:15:21:397,-0.736616,2.66417,-9.36422,-15.8833,-4.0812,61.9235
2023-03-14 18:15:21:407,-0.753742,2.66175,-9.36516,-15.8836,-4.0783,61.9184
2023-03-14 18:15:21:417,-0.754427,2.66178,-9.39299,-15.8808,-4.0781,61.9102
2023-03-14 18:15:21:427,-0.737475,2.66759,-9.40902,-15.8792,-4.07155,61.9025
2023-03-14 18:15:21:437,-0.718667,2.68533,-9.41751,-15.8785,-4.06393,61.8915
2023-03-14 18:15:21:447,-0.682485,2.69477,-9.42248,-15.8761,-4.05652,61.8804
2023-03-14 18:15:21:457,-0.665011,2.71119,-9.40456,-15.8742,-4.04588,61.8675
2023-03-14 18:15:21:467,-0.652768,2.69323,-9.39543,-15.8664,-4.03577,61.8554
2023-03-14 18:15:21:477,-0.643224,2.66248,-9.37062,-15.8652,-4.02471,61.8451
2023-03-14 18:15:21:487,-0.632304,2.66383,-9.37261,-15.8648,-4.01765,61.8327
2023-03-14 18:15:21:497,-0.639421,2.6708,-9.39383,-15.8611,-4.00798,61.824
2023-03-14 18:15:21:507,-0.651409,2.67765,-9.40973,-15.8546,-4.00447,61.8151
2023-03-14 18:15:21:517,-0.639374,2.66867,-9.39942,-15.8513,-3.99746,61.8061
2023-03-14 18:15:21:527,-0.613719,2.65183,-9.36999,-15.8477,-3.99306,61.7948
2023-03-14 18:15:21:537,-0.600942,2.64643,-9.37634,-15.8444,-3.98685,61.787
2023-03-14 18:15:21:547,-0.639128,2.64779,-9.38374,-15.8426,-3.98252,61.7786
2023-03-14 18:15:21:557,-0.636653,2.65101,-9.3725,-15.842,-3.9804,61.7683
2023-03-14 18:15:21:567,-0.616748,2.64991,-9.37992,-15.8415,-3.97632,61.7611
2023-03-14 18:15:21:577,-0.604767,2.6625,-9.38052,-15.8469,-3.97407,61.7551
2023-03-14 18:15:21:587,-0.618497,2.68502,-9.39064,-15.8508,-3.97203,61.7535
2023-03-14 18:15:21:597,-0.641423,2.70137,-9.41077,-15.8516,-3.97021,61.7503
2023-03-14 18:15:21:607,-0.67413,2.69309,-9.40267,-15.8525,-3.96637,61.7487
2023-03-14 18:15:21:617,-0.68948,2.67494,-9.39454,-15.8513,-3.96396,61.7481
2023-03-14 18:15:21:627,-0.699822,2.69425,-9.39519,-15.8532,-3.96119,61.7481
2023-03-14 18:15:21:637,-0.704958,2.70127,-9.39947,-15.8543,-3.9586,61.7449
2023-03-14 18:15:21:647,-0.691338,2.70431,-9.38128,-15.8539,-3.95315,61.7386
2023-03-14 18:15:21:657,-0.6605,2.69185,-9.37651,-15.8523,-3.94704,61.729
2023-03-14 18:15:21:667,-0.662358,2.67514,-9.38063,-15.8486,-3.9408,61.7158
2023-03-14 18:15:21:677,-0.639626,2.6806,-9.40191,-15.8511,-3.93367,61.7024
2023-03-14 18:15:21:687,-0.598553,2.68876,-9.43095,-15.8532,-3.92683,61.6887
2023-03-14 18:15:21:697,-0.574502,2.69079,-9.43978,-15.8495,-3.92201,61.6762
2023-03-14 18:15:21:707,-0.551444,2.68255,-9.44996,-15.8461,-3.91649,61.6625
2023-03-14 18:15:21:717,-0.549105,2.66312,-9.43285,-15.8431,-3.91464,61.6529
2023-03-14 18:15:21:727,-0.572285,2.64986,-9.42539,-15.8425,-3.91054,61.6473
2023-03-14 18:15:21:737,-0.600481,2.6532,-9.417,-15.8401,-3.91328,61.647
2023-03-14 18:15:21:747,-0.632222,2.66741,-9.41227,-15.842,-3.91752,61.6493
2023-03-14 18:15:21:757,-0.634419,2.67247,-9.3902,-15.8452,-3.91911,61.6484
2023-03-14 18:15:21:767,-0.627501,2.66959,-9.3694,-15.8415,-3.92093,61.6478
2023-03-14 18:15:21:777,-0.622035,2.64475,-9.35847,-15.8399,-3.91969,61.6471
2023-03-14 18:15:21:787,-0.625546,2.6284,-9.34609,-15.8341,-3.92085,61.6393
2023-03-14 18:15:21:797,-0.649034,2.63379,-9.34295,-15.8347,-3.92241,61.6401
2023-03-14 18:15:21:807,-0.686524,2.64256,-9.33644,-15.8362,-3.92481,61.6396
2023-03-14 18:15:21:817,-0.687728,2.63264,-9.34449,-15.8402,-3.92902,61.6365
2023-03-14 18:15:21:827,-0.684626,2.64034,-9.36485,-15.8437,-3.92982,61.6344
2023-03-14 18:15:21:837,-0.660807,2.65133,-9.37571,-15.8483,-3.92909,61.6294
2023-03-14 18:15:21:847,-0.635053,2.65282,-9.37111,-15.8552,-3.92561,61.6233
2023-03-14 18:15:21:857,-0.637919,2.66696,-9.37732,-15.8643,-3.92354,61.6208
2023-03-14 18:15:21:867,-0.633258,2.68914,-9.37058,-15.8753,-3.91859,61.6162
2023-03-14 18:15:21:877,-0.630444,2.69348,-9.41113,-15.893,-3.91657,61.6127
2023-03-14 18:15:21:887,-0.642746,2.70913,-9.40848,-15.9041,-3.91577,61.6115
2023-03-14 18:15:21:897,-0.665267,2.73768,-9.40539,-15.9201,-3.91661,61.6126
2023-03-14 18:15:21:907,-0.696365,2.77583,-9.45719,-15.9378,-3.91874,61.6161
2023-03-14 18:15:21:917,-0.717552,2.80297,-9.4494,-15.9531,-3.92214,61.6172
2023-03-14 18:15:21:927,-0.742197,2.78535,-9.42568,-15.964,-3.93173,61.6155
2023-03-14 18:15:21:937,-0.765992,2.76639,-9.40806,-15.9688,-3.93926,61.6095
2023-03-14 18:15:21:947,-0.762548,2.74832,-9.39201,-15.9739,-3.94523,61.6
2023-03-14 18:15:21:957,-0.728279,2.71625,-9.37427,-15.9787,-3.95147,61.5821
2023-03-14 18:15:21:967,-0.677551,2.69873,-9.39273,-15.9813,-3.9579,61.564
2023-03-14 18:15:21:977,-0.606027,2.67715,-9.42924,-15.9851,-3.96269,61.547
2023-03-14 18:15:21:987,-0.586424,2.65002,-9.46534,-15.9886,-3.96832,61.5332
2023-03-14 18:15:21:997,-0.640856,2.66541,-9.48351,-15.9946,-3.97674,61.5255
2023-03-14 18:15:22:7,-0.737173,2.67031,-9.5184,-16.0013,-3.9825,61.5201
2023-03-14 18:15:22:17,-0.823977,2.66409,-9.58158,-16.0001,-3.98488,61.5179
2023-03-14 18:15:22:27,-0.915772,2.69296,-9.62711,-15.9949,-3.97654,61.5132
2023-03-14 18:15:22:37,-1.01656,2.68484,-9.61457,-15.9785,-3.96224,61.4971
2023-03-14 18:15:22:47,-1.0179,2.60706,-9.51191,-15.9451,-3.93407,61.4575
2023-03-14 18:15:22:57,-0.881482,2.52791,-9.3572,-15.8963,-3.89403,61.3895
2023-03-14 18:15:22:67,-0.647153,2.434,-9.17917,-15.8462,-3.84732,61.2937
2023-03-14 18:15:22:77,-0.368213,2.34974,-9.0286,-15.8069,-3.79644,61.1802
2023-03-14 18:15:22:87,-0.149357,2.30673,-8.96371,-15.7881,-3.75311,61.0591
2023-03-14 18:15:22:97,-0.0173419,2.37295,-9.01217,-15.7958,-3.72395,60.9495
2023-03-14 18:15:22:107,0.0293183,2.53346,-9.14915,-15.8303,-3.71098,60.8513
2023-03-14 18:15:22:117,0.034711,2.6737,-9.25972,-15.88,-3.71233,60.7758
2023-03-14 18:15:22:127,0.0481215,2.73862,-9.27276,-15.9232,-3.72208,60.7125
2023-03-14 18:15:22:137,0.0103484,2.73915,-9.1917,-15.9737,-3.74137,60.6765
2023-03-14 18:15:22:147,-0.0471413,2.73456,-9.16057,-16.0292,-3.77117,60.6653
2023-03-14 18:15:22:157,-0.106636,2.78704,-9.21231,-16.0949,-3.80387,60.6792
2023-03-14 18:15:22:167,-0.191853,2.85406,-9.26021,-16.1693,-3.84768,60.7219
2023-03-14 18:15:22:177,-0.3186,2.96569,-9.36194,-16.2554,-3.90169,60.7947
2023-03-14 18:15:22:187,-0.498635,3.09291,-9.45679,-16.3456,-3.96023,60.8935
2023-03-14 18:15:22:197,-0.685551,3.16074,-9.47636,-16.4309,-4.0196,61.0083
2023-03-14 18:15:22:207,-0.80776,3.15664,-9.4086,-16.5064,-4.07521,61.1362
2023-03-14 18:15:22:217,-0.915079,3.12819,-9.36044,-16.5758,-4.1279,61.2715
2023-03-14 18:15:22:227,-1.0055,3.09893,-9.33386,-16.6359,-4.17555,61.4089
2023-03-14 18:15:22:237,-1.07831,3.06355,-9.30071,-16.6983,-4.21852,61.5521
2023-03-14 18:15:22:247,-1.14517,3.00264,-9.202,-16.7558,-4.25988,61.6926
2023-03-14 18:15:22:257,-1.17998,2.87513,-9.09061,-16.8174,-4.28898,61.8262
2023-03-14 18:15:22:267,-1.15875,2.74481,-9.02559,-16.884,-4.3021,61.9535
2023-03-14 18:15:22:277,-1.08385,2.65371,-9.01243,-16.9616,-4.30951,62.0764
2023-03-14 18:15:22:287,-0.990504,2.65731,-9.10116,-17.0607,-4.31234,62.1941
2023-03-14 18:15:22:297,-0.977112,2.78782,-9.26921,-17.1774,-4.31701,62.3072
2023-03-14 18:15:22:307,-0.980993,2.89328,-9.34753,-17.3015,-4.3188,62.4176
2023-03-14 18:15:22:317,-0.962869,2.85278,-9.26758,-17.4141,-4.31747,62.523
2023-03-14 18:15:22:327,-0.971002,2.73842,-9.14754,-17.5201,-4.31405,62.6229
2023-03-14 18:15:22:337,-1.0387,2.64422,-9.07105,-17.629,-4.30804,62.7178
2023-03-14 18:15:22:347,-1.16495,2.60416,-9.08089,-17.7482,-4.30252,62.806
2023-03-14 18:15:22:357,-1.31971,2.70414,-9.21685,-17.879,-4.29265,62.878
2023-03-14 18:15:22:367,-1.46395,2.88897,-9.41656,-18.0159,-4.28223,62.9205
2023-03-14 18:15:22:377,-1.40525,3.02727,-9.55318,-18.147,-4.2706,62.924
2023-03-14 18:15:22:387,-1.08507,3.04767,-9.55614,-18.2606,-4.25026,62.8791
2023-03-14 18:15:22:397,-0.740386,2.98961,-9.4227,-18.3601,-4.23057,62.8009
2023-03-14 18:15:22:407,-0.569158,2.93772,-9.27977,-18.4516,-4.21791,62.7093
2023-03-14 18:15:22:417,-0.511219,2.96257,-9.21055,-18.5514,-4.21478,62.619
2023-03-14 18:15:22:427,-0.447913,3.04245,-9.27264,-18.6657,-4.22281,62.5277
2023-03-14 18:15:22:437,-0.390556,3.15408,-9.39537,-18.7821,-4.23839,62.4432
2023-03-14 18:15:22:447,-0.392078,3.24555,-9.4583,-18.8926,-4.25414,62.365
2023-03-14 18:15:22:457,-0.427201,3.26548,-9.44976,-18.9905,-4.26729,62.2939
2023-03-14 18:15:22:467,-0.403561,3.24156,-9.38245,-19.0751,-4.27673,62.2289
2023-03-14 18:15:22:477,-0.349014,3.19213,-9.25803,-19.1501,-4.28074,62.1697
2023-03-14 18:15:22:487,-0.326495,3.16707,-9.1812,-19.2237,-4.28076,62.1221
2023-03-14 18:15:22:497,-0.303884,3.19213,-9.15721,-19.3007,-4.2788,62.0921
2023-03-14 18:15:22:507,-0.302953,3.26452,-9.18851,-19.3863,-4.2808,62.0742
2023-03-14 18:15:22:517,-0.334953,3.33249,-9.22869,-19.4766,-4.28568,62.0706
2023-03-14 18:15:22:527,-0.418777,3.39486,-9.28729,-19.5744,-4.29147,62.0924
2023-03-14 18:15:22:537,-0.555077,3.44675,-9.33904,-19.6667,-4.293,62.1286
2023-03-14 18:15:22:547,-0.697535,3.4873,-9.37396,-19.7514,-4.2947,62.1759
2023-03-14 18:15:22:557,-0.843624,3.50495,-9.37463,-19.823,-4.29591,62.2254
2023-03-14 18:15:22:567,-0.988875,3.554,-9.399,-19.8851,-4.291,62.2777
2023-03-14 18:15:22:577,-1.0821,3.6226,-9.40755,-19.9326,-4.28529,62.3185
2023-03-14 18:15:22:587,-1.10601,3.62581,-9.38508,-19.9673,-4.28326,62.3401
2023-03-14 18:15:22:597,-1.09626,3.59099,-9.32585,-19.9897,-4.28987,62.3415
2023-03-14 18:15:22:607,-1.05653,3.54981,-9.30454,-20.0029,-4.2998,62.325
2023-03-14 18:15:22:617,-0.975968,3.52398,-9.33139,-20.0115,-4.31254,62.296
2023-03-14 18:15:22:627,-0.916612,3.50309,-9.39318,-20.0102,-4.32681,62.2505
2023-03-14 18:15:22:637,-0.899698,3.50747,-9.41828,-20.0063,-4.34743,62.1971
2023-03-14 18:15:22:647,-0.848868,3.48241,-9.41756,-19.9877,-4.36447,62.1351
2023-03-14 18:15:22:657,-0.788369,3.43851,-9.36489,-19.9597,-4.38005,62.0617
2023-03-14 18:15:22:667,-0.73853,3.36109,-9.30213,-19.9196,-4.39533,61.9868
2023-03-14 18:15:22:677,-0.683626,3.30908,-9.24052,-19.8781,-4.4088,61.9096
2023-03-14 18:15:22:687,-0.626473,3.28796,-9.18655,-19.8372,-4.42133,61.8347
2023-03-14 18:15:22:697,-0.621892,3.29112,-9.14003,-19.796,-4.4304,61.7628
2023-03-14 18:15:22:707,-0.655384,3.28947,-9.11257,-19.758,-4.43896,61.697
2023-03-14 18:15:22:717,-0.690118,3.32019,-9.11896,-19.7213,-4.44833,61.6397
2023-03-14 18:15:22:727,-0.685679,3.34634,-9.15971,-19.6869,-4.45356,61.5785
2023-03-14 18:15:22:737,-0.660167,3.33587,-9.18809,-19.6492,-4.45693,61.5211
2023-03-14 18:15:22:747,-0.673501,3.34677,-9.18751,-19.609,-4.4603,61.4678
2023-03-14 18:15:22:757,-0.669576,3.34878,-9.16597,-19.5684,-4.46681,61.4183
2023-03-14 18:15:22:767,-0.668741,3.3304,-9.20013,-19.5255,-4.47216,61.3687
2023-03-14 18:15:22:777,-0.673958,3.35863,-9.23982,-19.4825,-4.47756,61.3202
2023-03-14 18:15:22:787,-0.686687,3.38007,-9.25562,-19.442,-4.48254,61.2736
2023-03-14 18:15:22:797,-0.693537,3.35303,-9.24755,-19.3995,-4.48545,61.2298
2023-03-14 18:15:22:807,-0.67874,3.33466,-9.21953,-19.3546,-4.49039,61.1863
2023-03-14 18:15:22:817,-0.671826,3.31643,-9.19183,-19.3095,-4.49825,61.147
2023-03-14 18:15:22:827,-0.684741,3.31267,-9.19022,-19.2681,-4.50662,61.1135
2023-03-14 18:15:22:837,-0.720042,3.3104,-9.22368,-19.2286,-4.51064,61.0772
2023-03-14 18:15:22:847,-0.71927,3.34631,-9.27548,-19.1916,-4.51265,61.0449
2023-03-14 18:15:22:857,-0.750614,3.38752,-9.32479,-19.1539,-4.5175,61.0101
2023-03-14 18:15:22:867,-0.786239,3.37042,-9.31606,-19.1071,-4.52505,60.9756
2023-03-14 18:15:22:877,-0.811326,3.31002,-9.23603,-19.05,-4.54073,60.9352
2023-03-14 18:15:22:887,-0.797334,3.25987,-9.15835,-18.9923,-4.5617,60.8877
2023-03-14 18:15:22:897,-0.763171,3.21762,-9.13034,-18.9362,-4.58446,60.8368
2023-03-14 18:15:22:907,-0.740014,3.18163,-9.15076,-18.883,-4.61206,60.7832
2023-03-14 18:15:22:917,-0.720695,3.17302,-9.16731,-18.8309,-4.64147,60.7247
2023-03-14 18:15:22:927,-0.706895,3.14892,-9.22496,-18.7781,-4.67031,60.6697
2023-03-14 18:15:22:937,-0.692556,3.14055,-9.26239,-18.7266,-4.6973,60.6167
2023-03-14 18:15:22:947,-0.682037,3.11472,-9.25344,-18.6745,-4.72656,60.5652
2023-03-14 18:15:22:957,-0.67551,3.08055,-9.22518,-18.6248,-4.75503,60.5164
2023-03-14 18:15:22:967,-0.64952,3.03581,-9.21752,-18.5775,-4.78575,60.4761
2023-03-14 18:15:22:977,-0.622479,3.00316,-9.20019,-18.5335,-4.81169,60.4448
2023-03-14 18:15:22:987,-0.651166,2.99552,-9.1807,-18.4931,-4.83257,60.4203
2023-03-14 18:15:22:997,-0.674814,3.00244,-9.1968,-18.4591,-4.85103,60.402
2023-03-14 18:15:23:7,-0.716183,3.03611,-9.20571,-18.4317,-4.86753,60.3947
2023-03-14 18:15:23:17,-0.773847,3.05505,-9.21047,-18.4007,-4.88445,60.3927
2023-03-14 18:15:23:27,-0.780583,3.04644,-9.2046,-18.3706,-4.89719,60.3927
2023-03-14 18:15:23:37,-0.757164,3.03549,-9.2013,-18.3438,-4.90378,60.392
2023-03-14 18:15:23:47,-0.755393,3.02166,-9.19005,-18.316,-4.9101,60.3944
2023-03-14 18:15:23:57,-0.751684,3.00851,-9.20055,-18.2931,-4.91821,60.3988
2023-03-14 18:15:23:67,-0.746124,2.992,-9.20183,-18.2739,-4.92752,60.4111
2023-03-14 18:15:23:77,-0.758427,2.99795,-9.19726,-18.257,-4.93572,60.4259
2023-03-14 18:15:23:87,-0.781753,2.98922,-9.20461,-18.2458,-4.94763,60.4481
2023-03-14 18:15:23:97,-0.819161,3.00653,-9.2349,-18.2379,-4.95846,60.4738
2023-03-14 18:15:23:107,-0.851548,3.04508,-9.28612,-18.2355,-4.96822,60.5034
2023-03-14 18:15:23:117,-0.90052,3.0903,-9.33501,-18.2308,-4.97805,60.5352
2023-03-14 18:15:23:127,-0.923194,3.11875,-9.35545,-18.2251,-4.98807,60.5676
2023-03-14 18:15:23:137,-0.923941,3.11842,-9.33686,-18.2144,-4.99326,60.6001
2023-03-14 18:15:23:147,-0.904269,3.09792,-9.30393,-18.1944,-4.99091,60.6311
2023-03-14 18:15:23:157,-0.890823,3.1069,-9.29414,-18.1756,-4.98638,60.6601
2023-03-14 18:15:23:167,-0.869059,3.1038,-9.30166,-18.149,-4.97344,60.6879
2023-03-14 18:15:23:177,-0.871287,3.0593,-9.27064,-18.121,-4.95457,60.7161
2023-03-14 18:15:23:187,-0.876336,3.04126,-9.26117,-18.0926,-4.93981,60.7455
2023-03-14 18:15:23:197,-0.891447,3.05238,-9.2726,-18.0684,-4.92873,60.7756
2023-03-14 18:15:23:207,-0.901845,3.05476,-9.30698,-18.0448,-4.92034,60.8004
2023-03-14 18:15:23:217,-0.895875,3.06624,-9.30565,-18.0153,-4.91283,60.8204
2023-03-14 18:15:23:227,-0.882244,3.03032,-9.29725,-17.9885,-4.90841,60.8383
2023-03-14 18:15:23:237,-0.855617,2.98976,-9.27631,-17.965,-4.90671,60.8539
2023-03-14 18:15:23:247,-0.832801,2.98103,-9.26594,-17.9403,-4.90954,60.8687
2023-03-14 18:15:23:257,-0.813902,2.99266,-9.27765,-17.914,-4.90923,60.8799
2023-03-14 18:15:23:267,-0.813836,2.98239,-9.29926,-17.8842,-4.90694,60.8877
2023-03-14 18:15:23:277,-0.814163,2.9653,-9.25941,-17.8558,-4.90504,60.8966
2023-03-14 18:15:23:287,-0.805665,2.93939,-9.22017,-17.8261,-4.9089,60.9088
2023-03-14 18:15:23:297,-0.829563,2.95776,-9.23868,-17.8049,-4.91492,60.9181
2023-03-14 18:15:23:307,-0.853036,2.9755,-9.25516,-17.7834,-4.92351,60.9306
2023-03-14 18:15:23:317,-0.872771,2.97996,-9.28849,-17.766,-4.92906,60.9429
2023-03-14 18:15:23:327,-0.873654,2.95963,-9.30542,-17.7454,-4.93256,60.9557
2023-03-14 18:15:23:337,-0.856113,2.9311,-9.273,-17.7212,-4.93083,60.9692
2023-03-14 18:15:23:347,-0.831496,2.92169,-9.26956,-17.7028,-4.92975,60.9795
2023-03-14 18:15:23:357,-0.831053,2.94083,-9.30212,-17.686,-4.93278,60.9939
2023-03-14 18:15:23:367,-0.847809,2.96402,-9.30782,-17.6724,-4.93135,61.0076
2023-03-14 18:15:23:377,-0.873154,2.98667,-9.3235,-17.653,-4.92477,61.0239
2023-03-14 18:15:23:387,-0.88508,2.96854,-9.30851,-17.6309,-4.91963,61.0399
2023-03-14 18:15:23:397,-0.878794,2.92501,-9.24533,-17.6125,-4.91468,61.0507
2023-03-14 18:15:23:407,-0.878044,2.91924,-9.22509,-17.5986,-4.90901,61.0631
2023-03-14 18:15:23:417,-0.869262,2.93312,-9.24449,-17.5862,-4.90465,61.0699
2023-03-14 18:15:23:427,-0.873064,2.95851,-9.24774,-17.5797,-4.90197,61.0745
2023-03-14 18:15:23:437,-0.869165,2.99533,-9.26567,-17.5743,-4.89849,61.079
2023-03-14 18:15:23:447,-0.859125,2.98152,-9.27966,-17.5727,-4.89646,61.0821
2023-03-14 18:15:23:457,-0.857934,2.98958,-9.28524,-17.5669,-4.89733,61.0812
2023-03-14 18:15:23:467,-0.850952,3.00616,-9.3073,-17.561,-4.89405,61.0818
2023-03-14 18:15:23:477,-0.866961,3.01099,-9.30407,-17.5566,-4.89094,61.0799
2023-03-14 18:15:23:487,-0.855855,3.0082,-9.28274,-17.5476,-4.88723,61.0736
2023-03-14 18:15:23:497,-0.804294,2.97961,-9.25093,-17.5383,-4.88064,61.0673
2023-03-14 18:15:23:507,-0.747957,2.94855,-9.20607,-17.5315,-4.87614,61.0563
2023-03-14 18:15:23:517,-0.729358,2.95383,-9.18828,-17.5279,-4.87285,61.0468
2023-03-14 18:15:23:527,-0.718033,2.97509,-9.2273,-17.5311,-4.87167,61.04
2023-03-14 18:15:23:537,-0.708586,3.01658,-9.27508,-17.543,-4.86834,61.0385
2023-03-14 18:15:23:547,-0.703826,3.02974,-9.30497,-17.5528,-4.86451,61.0459
2023-03-14 18:15:23:557,-0.685295,3.03573,-9.32922,-17.5627,-4.86436,61.0623
2023-03-14 18:15:23:567,-0.706698,3.02828,-9.34706,-17.5712,-4.86108,61.0848
2023-03-14 18:15:23:577,-0.833684,3.02637,-9.35936,-17.5773,-4.86433,61.1162
2023-03-14 18:15:23:587,-0.965611,3.04958,-9.39835,-17.5782,-4.86731,61.1556
2023-03-14 18:15:23:597,-1.06375,3.03878,-9.41017,-17.5692,-4.86849,61.1901
2023-03-14 18:15:23:607,-1.11293,3.01895,-9.43245,-17.559,-4.8676,61.2115
2023-03-14 18:15:23:617,-1.05852,3.0181,-9.49315,-17.5342,-4.85118,61.2203
2023-03-14 18:15:23:627,-0.958348,2.97448,-9.45891,-17.4932,-4.82519,61.2159
2023-03-14 18:15:23:637,-0.865576,2.88226,-9.32235,-17.445,-4.80063,61.2006
2023-03-14 18:15:23:647,-0.780844,2.79237,-9.18523,-17.4013,-4.7817,61.1824
2023-03-14 18:15:23:657,-0.756674,2.77662,-9.15943,-17.3704,-4.76508,61.162
2023-03-14 18:15:23:667,-0.756435,2.85491,-9.23627,-17.3552,-4.75232,61.1441
2023-03-14 18:15:23:677,-0.749935,2.9173,-9.32762,-17.3458,-4.74309,61.1261
2023-03-14 18:15:23:687,-0.722369,2.9364,-9.37978,-17.334,-4.73479,61.1075
2023-03-14 18:15:23:697,-0.713405,2.90933,-9.37569,-17.3178,-4.72505,61.0891
2023-03-14 18:15:23:707,-0.722386,2.905,-9.36518,-17.3019,-4.7173,61.0717
2023-03-14 18:15:23:717,-0.744914,2.92563,-9.35953,-17.2867,-4.70854,61.0548
2023-03-14 18:15:23:727,-0.745791,2.90662,-9.3204,-17.2654,-4.69912,61.0355
2023-03-14 18:15:23:737,-0.715893,2.88906,-9.27206,-17.2407,-4.68735,61.0192
2023-03-14 18:15:23:747,-0.686262,2.88774,-9.2464,-17.2172,-4.67643,61.0037
2023-03-14 18:15:23:757,-0.646565,2.87483,-9.22914,-17.1921,-4.6627,60.9872
2023-03-14 18:15:23:767,-0.627493,2.84847,-9.21752,-17.1719,-4.64914,60.9738
2023-03-14 18:15:23:777,-0.64167,2.86505,-9.22801,-17.1598,-4.64327,60.9669
2023-03-14 18:15:23:787,-0.694204,2.903,-9.25224,-17.1548,-4.64626,60.9655
2023-03-14 18:15:23:797,-0.730016,2.93996,-9.3117,-17.1539,-4.65349,60.9677
2023-03-14 18:15:23:807,-0.762469,2.94069,-9.35008,-17.149,-4.66213,60.9678
2023-03-14 18:15:23:817,-0.779032,2.92819,-9.35983,-17.1397,-4.67457,60.9669
2023-03-14 18:15:23:827,-0.792377,2.93584,-9.37514,-17.1301,-4.68566,60.9656
2023-03-14 18:15:23:837,-0.829022,2.9352,-9.40406,-17.1194,-4.69855,60.963
2023-03-14 18:15:23:847,-0.841749,2.9138,-9.41363,-17.1033,-4.709,60.9627
2023-03-14 18:15:23:857,-0.824833,2.89181,-9.38505,-17.087,-4.72006,60.9596
2023-03-14 18:15:23:867,-0.805018,2.8662,-9.37029,-17.0714,-4.73427,60.9518
2023-03-14 18:15:23:877,-0.806174,2.86335,-9.36588,-17.0544,-4.74735,60.9425
2023-03-14 18:15:23:887,-0.813677,2.87735,-9.39013,-17.0382,-4.76044,60.9384
2023-03-14 18:15:23:897,-0.805686,2.87448,-9.37729,-17.0162,-4.77325,60.9333
2023-03-14 18:15:23:907,-0.829777,2.85227,-9.32564,-16.9923,-4.78225,60.9295
2023-03-14 18:15:23:917,-0.846166,2.83608,-9.29301,-16.9678,-4.78535,60.9209
2023-03-14 18:15:23:927,-0.852729,2.84185,-9.2834,-16.9451,-4.78823,60.9133
2023-03-14 18:15:23:937,-0.800466,2.83508,-9.27993,-16.9222,-4.78608,60.9083
2023-03-14 18:15:23:947,-0.745374,2.80849,-9.2699,-16.9017,-4.78155,60.9024
2023-03-14 18:15:23:957,-0.712781,2.77916,-9.24835,-16.8821,-4.77809,60.8992
2023-03-14 18:15:23:967,-0.695928,2.74227,-9.2192,-16.8662,-4.77645,60.8981
2023-03-14 18:15:23:977,-0.705817,2.76569,-9.2085,-16.8601,-4.77272,60.9011
2023-03-14 18:15:23:987,-0.762837,2.83428,-9.27098,-16.8594,-4.76809,60.9168
2023-03-14 18:15:23:997,-0.808955,2.88413,-9.34315,-16.8676,-4.76829,60.9317
2023-03-14 18:15:24:7,-0.833184,2.91628,-9.35149,-16.8719,-4.77114,60.9437
2023-03-14 18:15:24:17,-0.89221,2.92351,-9.36682,-16.8737,-4.77741,60.954
2023-03-14 18:15:24:27,-0.928908,2.9425,-9.40808,-16.8748,-4.78378,60.9626
2023-03-14 18:15:24:37,-0.949597,2.95207,-9.40272,-16.8689,-4.78996,60.965
2023-03-14 18:15:24:47,-0.922293,2.93649,-9.35562,-16.8576,-4.79773,60.9632
2023-03-14 18:15:24:57,-0.889418,2.89489,-9.306,-16.8454,-4.80221,60.9535
2023-03-14 18:15:24:67,-0.859554,2.86879,-9.30301,-16.836,-4.80803,60.9418
2023-03-14 18:15:24:77,-0.819654,2.87454,-9.30784,-16.825,-4.80988,60.925
2023-03-14 18:15:24:87,-0.775815,2.86302,-9.31717,-16.8127,-4.81306,60.9063
2023-03-14 18:15:24:97,-0.727447,2.84072,-9.34264,-16.7951,-4.81412,60.8888
2023-03-14 18:15:24:107,-0.691472,2.84405,-9.36941,-16.7841,-4.81922,60.8748
2023-03-14 18:15:24:117,-0.704333,2.85566,-9.42322,-16.7702,-4.8217,60.8685
2023-03-14 18:15:24:127,-0.732438,2.86044,-9.43593,-16.7555,-4.82883,60.8651
2023-03-14 18:15:24:137,-0.757899,2.8503,-9.41801,-16.7391,-4.83251,60.8645
2023-03-14 18:15:24:147,-0.776441,2.81937,-9.405,-16.7176,-4.83418,60.8654
2023-03-14 18:15:24:157,-0.789609,2.77866,-9.36002,-16.6945,-4.83488,60.8623
2023-03-14 18:15:24:167,-0.783801,2.78595,-9.36247,-16.6754,-4.83246,60.866
2023-03-14 18:15:24:177,-0.772075,2.83189,-9.40292,-16.6537,-4.82785,60.8693
2023-03-14 18:15:24:187,-0.764429,2.817,-9.35999,-16.6269,-4.82504,60.874
2023-03-14 18:15:24:197,-0.762029,2.75489,-9.29381,-16.5978,-4.82487,60.8798
2023-03-14 18:15:24:207,-0.76433,2.72954,-9.24488,-16.5762,-4.82542,60.8924
2023-03-14 18:15:24:217,-0.79478,2.72415,-9.23504,-16.5636,-4.82865,60.9062
2023-03-14 18:15:24:227,-0.827174,2.74343,-9.25979,-16.5541,-4.83258,60.9252
2023-03-14 18:15:24:237,-0.851167,2.7692,-9.2953,-16.5538,-4.8368,60.9441
2023-03-14 18:15:24:247,-0.870495,2.75949,-9.28523,-16.5472,-4.84498,60.9575
2023-03-14 18:15:24:257,-0.877729,2.73876,-9.28042,-16.5444,-4.85366,60.971
2023-03-14 18:15:24:267,-0.883329,2.74451,-9.29371,-16.5442,-4.86543,60.978
2023-03-14 18:15:24:277,-0.888208,2.75518,-9.28161,-16.5486,-4.88179,60.9854
2023-03-14 18:15:24:287,-0.875132,2.7751,-9.24622,-16.5579,-4.8985,60.9851
2023-03-14 18:15:24:297,-0.850823,2.76675,-9.21836,-16.5763,-4.92484,60.9877
2023-03-14 18:15:24:307,-0.867281,2.80307,-9.22761,-16.6065,-4.95423,60.9907
2023-03-14 18:15:24:317,-0.921059,2.89098,-9.28,-16.651,-4.98956,60.9973
2023-03-14 18:15:24:327,-1.02583,2.9707,-9.36242,-16.6999,-5.0237,61.0066
2023-03-14 18:15:24:337,-1.14265,3.05287,-9.43992,-16.7509,-5.05363,61.0181
2023-03-14 18:15:24:347,-1.1812,3.10982,-9.51675,-16.7932,-5.07356,61.0228
2023-03-14 18:15:24:357,-1.16198,3.12515,-9.54713,-16.8176,-5.07585,61.0143
2023-03-14 18:15:24:367,-1.08619,3.09455,-9.52708,-16.8253,-5.06594,60.9963
2023-03-14 18:15:24:377,-1.03177,3.04036,-9.49889,-16.8221,-5.04319,60.9703
2023-03-14 18:15:24:387,-1.01994,3.02373,-9.53439,-16.8109,-5.00845,60.9326
2023-03-14 18:15:24:397,-0.960341,3.03979,-9.58638,-16.785,-4.96259,60.8841
2023-03-14 18:15:24:407,-0.814111,2.99804,-9.59719,-16.7399,-4.90272,60.8237
2023-03-14 18:15:24:417,-0.631206,2.92146,-9.51777,-16.6811,-4.83584,60.7552
2023-03-14 18:15:24:427,-0.464263,2.84973,-9.47225,-16.6131,-4.76824,60.6828
2023-03-14 18:15:24:437,-0.330562,2.82968,-9.41885,-16.5408,-4.70054,60.621
2023-03-14 18:15:24:447,-0.318807,2.77764,-9.29697,-16.4648,-4.64139,60.5724
2023-03-14 18:15:24:457,-0.434688,2.72352,-9.1658,-16.3928,-4.59052,60.5463
2023-03-14 18:15:24:467,-0.627644,2.71391,-9.16479,-16.3305,-4.54692,60.5415
2023-03-14 18:15:24:477,-0.758837,2.77234,-9.30371,-16.2704,-4.49901,60.5498
2023-03-14 18:15:24:487,-0.757858,2.71965,-9.3153,-16.2032,-4.45361,60.5573
2023-03-14 18:15:24:497,-0.762614,2.61731,-9.22847,-16.1379,-4.41435,60.5692
2023-03-14 18:15:24:507,-0.861823,2.64289,-9.21206,-16.0833,-4.38748,60.5908
2023-03-14 18:15:24:517,-0.918567,2.65458,-9.25179,-16.0381,-4.37515,60.6088
2023-03-14 18:15:24:527,-0.888971,2.62126,-9.27993,-16.0013,-4.36781,60.6197
2023-03-14 18:15:24:537,-0.944617,2.6185,-9.29272,-15.9683,-4.36679,60.6306
2023-03-14 18:15:24:547,-1.01939,2.60178,-9.30371,-15.9402,-4.38046,60.6405
2023-03-14 18:15:24:557,-0.967858,2.60296,-9.37128,-15.915,-4.39817,60.6403
2023-03-14 18:15:24:567,-0.897136,2.64146,-9.46627,-15.8855,-4.40072,60.6337
2023-03-14 18:15:24:577,-0.89768,2.56337,-9.32151,-15.846,-4.39921,60.6256
2023-03-14 18:15:24:587,-0.944366,2.44056,-9.09105,-15.81,-4.40415,60.6152
2023-03-14 18:15:24:597,-0.940593,2.44816,-9.01988,-15.7896,-4.40656,60.6035
2023-03-14 18:15:24:607,-0.897166,2.53986,-9.12865,-15.7948,-4.39724,60.5936
2023-03-14 18:15:24:617,-0.836641,2.59537,-9.26167,-15.8095,-4.38354,60.5815
2023-03-14 18:15:24:627,-0.753945,2.63923,-9.46329,-15.8256,-4.36351,60.5674
2023-03-14 18:15:24:637,-0.659814,2.70267,-9.71203,-15.838,-4.33542,60.5497
2023-03-14 18:15:24:647,-0.5532,2.69277,-9.87881,-15.8286,-4.30066,60.5271
2023-03-14 18:15:24:657,-0.428353,2.60879,-9.89179,-15.7938,-4.26247,60.5106
2023-03-14 18:15:24:667,-0.321359,2.48357,-9.72039,-15.741,-4.22495,60.501
2023-03-14 18:15:24:677,-0.336525,2.39228,-9.53084,-15.6861,-4.20336,60.5016
2023-03-14 18:15:24:687,-0.461142,2.39102,-9.43816,-15.6422,-4.19656,60.5174
2023-03-14 18:15:24:697,-0.551112,2.4683,-9.43403,-15.6093,-4.20382,60.5405
2023-03-14 18:15:24:707,-0.557843,2.49931,-9.40402,-15.5854,-4.2145,60.5618
2023-03-14 18:15:24:717,-0.606949,2.49506,-9.37062,-15.5632,-4.23255,60.5884
2023-03-14 18:15:24:727,-0.65148,2.51677,-9.38145,-15.548,-4.25331,60.6153
2023-03-14 18:15:24:737,-0.72323,2.5547,-9.42732,-15.5394,-4.28238,60.6417
2023-03-14 18:15:24:747,-0.728761,2.65383,-9.59218,-15.5228,-4.29276,60.6701
2023-03-14 18:15:24:757,-0.590762,2.63014,-9.64711,-15.4808,-4.28411,60.6935
2023-03-14 18:15:24:767,-0.472165,2.50356,-9.50764,-15.4178,-4.26594,60.7127
2023-03-14 18:15:24:777,-0.451067,2.40226,-9.33733,-15.3483,-4.25711,60.7382
2023-03-14 18:15:24:787,-0.463486,2.35945,-9.22426,-15.2902,-4.26022,60.7732
2023-03-14 18:15:24:797,-0.505269,2.37957,-9.15859,-15.2477,-4.27219,60.8168
2023-03-14 18:15:24:807,-0.589076,2.42283,-9.199,-15.2131,-4.28402,60.8704
2023-03-14 18:15:24:817,-0.654971,2.44384,-9.20621,-15.1864,-4.29984,60.9285
2023-03-14 18:15:24:827,-0.605492,2.39751,-9.16616,-15.1694,-4.32537,60.9842
2023-03-14 18:15:24:837,-0.581749,2.43625,-9.17544,-15.1735,-4.35453,61.0466
2023-03-14 18:15:24:847,-0.612302,2.49263,-9.20301,-15.1935,-4.392,61.1133
2023-03-14 18:15:24:857,-0.671507,2.57243,-9.25691,-15.2271,-4.43523,61.1848
2023-03-14 18:15:24:867,-0.735129,2.66578,-9.34243,-15.2679,-4.47803,61.2593
2023-03-14 18:15:24:877,-0.772818,2.72142,-9.42346,-15.3094,-4.52196,61.3333
2023-03-14 18:15:24:887,-0.817763,2.7547,-9.49125,-15.3488,-4.56566,61.4122
2023-03-14 18:15:24:897,-0.886278,2.81201,-9.55113,-15.382,-4.60959,61.4863
2023-03-14 18:15:24:907,-0.951189,2.89592,-9.61238,-15.4115,-4.64706,61.5579
2023-03-14 18:15:24:917,-0.928427,2.93423,-9.66832,-15.4239,-4.66987,61.6217
2023-03-14 18:15:24:927,-0.827749,2.88845,-9.6211,-15.4193,-4.68133,61.6805
2023-03-14 18:15:24:937,-0.720328,2.78545,-9.63606,-15.3948,-4.69061,61.7323
2023-03-14 18:15:24:947,-0.688918,2.7177,-9.74172,-15.3566,-4.69335,61.7855
2023-03-14 18:15:24:957,-0.696323,2.68063,-9.8076,-15.3039,-4.69627,61.8466
2023-03-14 18:15:24:967,-0.71348,2.57908,-9.71066,-15.2345,-4.69586,61.9114
2023-03-14 18:15:24:977,-0.790045,2.45894,-9.48462,-15.1569,-4.70134,61.9838
2023-03-14 18:15:24:987,-0.911376,2.3731,-9.26762,-15.0874,-4.71789,62.056
2023-03-14 18:15:24:997,-0.965202,2.44243,-9.26651,-15.0311,-4.72874,62.1235
2023-03-14 18:15:25:7,-0.879091,2.51748,-9.4038,-14.9834,-4.72934,62.178
2023-03-14 18:15:25:17,-0.796815,2.47352,-9.31963,-14.9312,-4.73486,62.2267
2023-03-14 18:15:25:27,-0.763607,2.40568,-9.14799,-14.8858,-4.74798,62.2692
2023-03-14 18:15:25:37,-0.75237,2.40803,-9.07241,-14.8549,-4.76581,62.3121
2023-03-14 18:15:25:47,-0.817941,2.45913,-9.05485,-14.8456,-4.79175,62.3594
2023-03-14 18:15:25:57,-0.927808,2.52784,-9.16102,-14.8473,-4.80894,62.4069
2023-03-14 18:15:25:67,-0.969133,2.5827,-9.32081,-14.854,-4.82354,62.4492
2023-03-14 18:15:25:77,-0.975328,2.59405,-9.37714,-14.8589,-4.83923,62.482
2023-03-14 18:15:25:87,-0.96994,2.60226,-9.41424,-14.8641,-4.84473,62.5061
2023-03-14 18:15:25:97,-0.936554,2.66462,-9.48039,-14.8681,-4.83625,62.521
2023-03-14 18:15:25:107,-0.872225,2.68543,-9.53018,-14.8662,-4.81975,62.5227
2023-03-14 18:15:25:117,-0.763725,2.66921,-9.48871,-14.8598,-4.80148,62.517
2023-03-14 18:15:25:127,-0.676517,2.66021,-9.3719,-14.8561,-4.78716,62.5074
2023-03-14 18:15:25:137,-0.628437,2.63767,-9.29414,-14.8554,-4.77818,62.501
2023-03-14 18:15:25:147,-0.633281,2.61471,-9.32781,-14.8599,-4.76867,62.501
2023-03-14 18:15:25:157,-0.659558,2.66122,-9.4387,-14.8728,-4.7525,62.5101
2023-03-14 18:15:25:167,-0.641241,2.72241,-9.55185,-14.884,-4.73223,62.519
2023-03-14 18:15:25:177,-0.606839,2.76713,-9.6473,-14.8938,-4.70204,62.5297
2023-03-14 18:15:25:187,-0.551338,2.75134,-9.68165,-14.895,-4.66493,62.5462
2023-03-14 18:15:25:197,-0.52556,2.68173,-9.58256,-14.8845,-4.63153,62.5606
2023-03-14 18:15:25:207,-0.610093,2.63804,-9.44374,-14.8729,-4.60457,62.5907
2023-03-14 18:15:25:217,-0.718426,2.60946,-9.33736,-14.8661,-4.5903,62.6209
2023-03-14 18:15:25:227,-0.801395,2.61118,-9.30899,-14.8712,-4.58583,62.6499
2023-03-14 18:15:25:237,-0.822688,2.74746,-9.44271,-14.8888,-4.57371,62.6725
2023-03-14 18:15:25:247,-0.755662,2.84791,-9.53912,-14.9018,-4.55025,62.6822
2023-03-14 18:15:25:257,-0.58562,2.82253,-9.51488,-14.9036,-4.52819,62.6819
2023-03-14 18:15:25:267,-0.405549,2.77225,-9.54628,-14.8994,-4.5078,62.6801
2023-03-14 18:15:25:277,-0.291908,2.76998,-9.70198,-14.8842,-4.49454,62.6855
2023-03-14 18:15:25:287,-0.290416,2.76972,-9.81747,-14.8597,-4.49254,62.7117
2023-03-14 18:15:25:297,-0.329128,2.76243,-9.80486,-14.8161,-4.50151,62.7576
2023-03-14 18:15:25:307,-0.346295,2.66878,-9.67038,-14.75,-4.51989,62.8173
2023-03-14 18:15:25:317,-0.360806,2.50983,-9.45941,-14.6712,-4.54083,62.8985
2023-03-14 18:15:25:327,-0.546201,2.41719,-9.3205,-14.5905,-4.57154,63.0102
2023-03-14 18:15:25:337,-0.878665,2.447,-9.29243,-14.5237,-4.60251,63.1471
2023-03-14 18:15:25:347,-1.21395,2.46484,-9.31929,-14.4587,-4.63023,63.29
2023-03-14 18:15:25:357,-1.44353,2.41014,-9.32904,-14.3838,-4.64499,63.4298
2023-03-14 18:15:25:367,-1.51745,2.36242,-9.36934,-14.2988,-4.63458,63.5436
2023-03-14 18:15:25:377,-1.4148,2.26027,-9.3983,-14.2101,-4.60799,63.6258
2023-03-14 18:15:25:387,-1.2236,2.09911,-9.41101,-14.1061,-4.5691,63.6748
2023-03-14 18:15:25:397,-1.02341,2.02622,-9.38392,-14.0093,-4.52861,63.6993
2023-03-14 18:15:25:407,-0.874971,1.974,-9.32337,-13.925,-4.49888,63.6992
2023-03-14 18:15:25:417,-0.80868,2.00554,-9.27139,-13.8621,-4.49295,63.6902
2023-03-14 18:15:25:427,-0.752058,2.05526,-9.25137,-13.8175,-4.50372,63.6718
2023-03-14 18:15:25:437,-0.788452,2.06723,-9.23542,-13.7869,-4.53642,63.6495
2023-03-14 18:15:25:447,-0.962241,2.145,-9.26589,-13.7737,-4.58483,63.6266
2023-03-14 18:15:25:457,-1.0092,2.24725,-9.35251,-13.7692,-4.64221,63.5987
2023-03-14 18:15:25:467,-0.895426,2.23304,-9.40296,-13.7626,-4.69168,63.5523
2023-03-14 18:15:25:477,-0.834936,2.22164,-9.35605,-13.7555,-4.74483,63.498
2023-03-14 18:15:25:487,-0.882885,2.22098,-9.31473,-13.752,-4.79951,63.4464
2023-03-14 18:15:25:497,-0.883228,2.22896,-9.26729,-13.7541,-4.85642,63.3931
2023-03-14 18:15:25:507,-0.885192,2.26257,-9.26484,-13.7651,-4.9089,63.3354
2023-03-14 18:15:25:517,-0.919465,2.29788,-9.2688,-13.7834,-4.96499,63.281
2023-03-14 18:15:25:527,-0.968419,2.32739,-9.30682,-13.8127,-5.02107,63.2274
2023-03-14 18:15:25:537,-0.981374,2.39283,-9.43816,-13.8483,-5.08267,63.1702
2023-03-14 18:15:25:547,-0.961055,2.47222,-9.57138,-13.8835,-5.14081,63.113
2023-03-14 18:15:25:557,-0.941922,2.50881,-9.6405,-13.9138,-5.19697,63.0562
2023-03-14 18:15:25:567,-0.951458,2.49132,-9.66149,-13.9289,-5.2464,63.0005
2023-03-14 18:15:25:577,-0.974911,2.43916,-9.63567,-13.9318,-5.28726,62.9544
2023-03-14 18:15:25:587,-0.987235,2.41527,-9.60402,-13.9276,-5.31593,62.9109
2023-03-14 18:15:25:597,-0.969752,2.43077,-9.65264,-13.9139,-5.31915,62.8769
2023-03-14 18:15:25:607,-0.908916,2.39106,-9.64935,-13.8883,-5.30524,62.8419
2023-03-14 18:15:25:617,-0.844976,2.26505,-9.53665,-13.8569,-5.28994,62.8092
2023-03-14 18:15:25:627,-0.78882,2.17438,-9.44638,-13.8309,-5.28011,62.7833
2023-03-14 18:15:25:637,-0.77298,2.2006,-9.43604,-13.8194,-5.27307,62.7737
2023-03-14 18:15:25:647,-0.841707,2.26731,-9.47324,-13.8173,-5.27091,62.7786
2023-03-14 18:15:25:657,-0.923898,2.29591,-9.49209,-13.821,-5.26617,62.791
2023-03-14 18:15:25:667,-0.985417,2.31034,-9.46725,-13.8211,-5.25244,62.804
2023-03-14 18:15:25:677,-0.952442,2.27552,-9.44194,-13.8162,-5.22589,62.8171
2023-03-14 18:15:25:687,-0.885797,2.24368,-9.40717,-13.8114,-5.19567,62.8299
2023-03-14 18:15:25:697,-0.789976,2.22793,-9.42732,-13.8095,-5.15394,62.8405
2023-03-14 18:15:25:707,-0.750411,2.20199,-9.38403,-13.8155,-5.12532,62.8539
2023-03-14 18:15:25:717,-0.698519,2.225,-9.39555,-13.8254,-5.09395,62.8725
2023-03-14 18:15:25:727,-0.754234,2.25244,-9.39073,-13.8429,-5.07245,62.8938
2023-03-14 18:15:25:737,-0.79366,2.26266,-9.37325,-13.8636,-5.07297,62.9241
2023-03-14 18:15:25:747,-0.894745,2.36414,-9.48259,-13.8866,-5.06026,62.9585
2023-03-14 18:15:25:757,-1.00715,2.44297,-9.58666,-13.8989,-5.0346,62.9962
2023-03-14 18:15:25:767,-1.02979,2.40123,-9.53063,-13.899,-4.99756,63.0294
2023-03-14 18:15:25:777,-0.97852,2.33196,-9.44013,-13.8923,-4.95307,63.0588
2023-03-14 18:15:25:787,-0.929392,2.32989,-9.42197,-13.8914,-4.90663,63.0868
2023-03-14 18:15:25:797,-0.935487,2.38966,-9.46838,-13.8912,-4.86501,63.1134
2023-03-14 18:15:25:807,-0.926072,2.45458,-9.53277,-13.8973,-4.8276,63.1338
2023-03-14 18:15:25:817,-0.894761,2.46574,-9.56293,-13.9006,-4.79492,63.148
2023-03-14 18:15:25:827,-0.875602,2.40159,-9.48409,-13.9019,-4.76806,63.1582
2023-03-14 18:15:25:837,-0.897144,2.41461,-9.416,-13.9131,-4.75167,63.1671
2023-03-14 18:15:25:847,-0.900987,2.4934,-9.4592,-13.9305,-4.73506,63.1731
2023-03-14 18:15:25:857,-0.844403,2.50953,-9.4292,-13.945,-4.71604,63.1707
2023-03-14 18:15:25:867,-0.773383,2.44852,-9.38183,-13.9551,-4.7006,63.1653
2023-03-14 18:15:25:877,-0.761874,2.41696,-9.44063,-13.9651,-4.6861,63.1622
2023-03-14 18:15:25:887,-0.817748,2.44863,-9.51942,-13.9726,-4.67208,63.1592
2023-03-14 18:15:25:897,-0.846201,2.46515,-9.57991,-13.9776,-4.65777,63.1564
2023-03-14 18:15:25:907,-0.819722,2.43483,-9.60372,-13.9695,-4.63814,63.1428
2023-03-14 18:15:25:917,-0.750884,2.39398,-9.58347,-13.9615,-4.61765,63.122
2023-03-14 18:15:25:927,-0.68704,2.3393,-9.5453,-13.9482,-4.60205,63.096
2023-03-14 18:15:25:937,-0.662405,2.35074,-9.48817,-13.9359,-4.5844,63.0749
2023-03-14 18:15:25:947,-0.657177,2.36801,-9.48425,-13.9246,-4.56663,63.0532
2023-03-14 18:15:25:957,-0.639665,2.35928,-9.49405,-13.9086,-4.547,63.0338
2023-03-14 18:15:25:967,-0.627712,2.31063,-9.45165,-13.8853,-4.53053,63.0136
2023-03-14 18:15:25:977,-0.694498,2.26236,-9.3874,-13.8604,-4.52925,62.9977
2023-03-14 18:15:25:987,-0.777293,2.28995,-9.38027,-13.8444,-4.52901,62.9829
2023-03-14 18:15:25:997,-0.800927,2.29521,-9.34182,-13.8298,-4.52665,62.9631
2023-03-14 18:15:26:7,-0.77228,2.24807,-9.30293,-13.8167,-4.52806,62.9357
2023-03-14 18:15:26:17,-0.736564,2.2369,-9.25642,-13.8152,-4.53201,62.9036
2023-03-14 18:15:26:27,-0.682857,2.25658,-9.25334,-13.8269,-4.54008,62.8737
2023-03-14 18:15:26:37,-0.663405,2.2885,-9.30476,-13.8504,-4.55314,62.8465
2023-03-14 18:15:26:47,-0.701197,2.36727,-9.41099,-13.883,-4.56256,62.8226
2023-03-14 18:15:26:57,-0.731878,2.46744,-9.50734,-13.9158,-4.57098,62.8066
2023-03-14 18:15:26:67,-0.731406,2.50725,-9.58399,-13.9408,-4.57261,62.79
2023-03-14 18:15:26:77,-0.697272,2.46398,-9.59419,-13.9542,-4.5698,62.7768
2023-03-14 18:15:26:87,-0.718109,2.42648,-9.5283,-13.9614,-4.56264,62.7663
2023-03-14 18:15:26:97,-0.729162,2.43452,-9.50436,-13.9701,-4.55359,62.7619
2023-03-14 18:15:26:107,-0.670764,2.46837,-9.54102,-13.9772,-4.54038,62.7567
2023-03-14 18:15:26:117,-0.596143,2.45492,-9.54284,-13.9815,-4.52909,62.7536
2023-03-14 18:15:26:127,-0.598104,2.42892,-9.51501,-13.9846,-4.52398,62.7569
2023-03-14 18:15:26:137,-0.64019,2.46565,-9.55233,-13.992,-4.52303,62.767
2023-03-14 18:15:26:147,-0.689619,2.49781,-9.6195,-13.9946,-4.52178,62.7858
2023-03-14 18:15:26:157,-0.719252,2.49383,-9.60505,-13.9907,-4.52267,62.8101
2023-03-14 18:15:26:167,-0.754111,2.47039,-9.5756,-13.9798,-4.52651,62.8363
2023-03-14 18:15:26:177,-0.808446,2.43608,-9.5006,-13.9647,-4.53371,62.8673
2023-03-14 18:15:26:187,-0.901813,2.43197,-9.40441,-13.9451,-4.54521,62.8959
2023-03-14 18:15:26:197,-0.99426,2.43334,-9.39769,-13.9315,-4.55919,62.9263
2023-03-14 18:15:26:207,-1.06516,2.44422,-9.43823,-13.9251,-4.57506,62.9527
2023-03-14 18:15:26:217,-1.09936,2.48939,-9.53459,-13.93,-4.58362,62.9728
2023-03-14 18:15:26:227,-1.08638,2.53135,-9.62567,-13.9294,-4.59019,62.9824
2023-03-14 18:15:26:237,-1.05462,2.54947,-9.67787,-13.9209,-4.59142,62.9796
2023-03-14 18:15:26:247,-1.0297,2.53739,-9.65591,-13.9014,-4.58325,62.9694
2023-03-14 18:15:26:257,-1.01495,2.47334,-9.553,-13.8704,-4.56996,62.9461
2023-03-14 18:15:26:267,-0.994618,2.39127,-9.39488,-13.8263,-4.55398,62.9169
2023-03-14 18:15:26:277,-0.967895,2.3136,-9.27158,-13.7788,-4.52778,62.8778
2023-03-14 18:15:26:287,-0.918243,2.26154,-9.2784,-13.7374,-4.49744,62.8362
2023-03-14 18:15:26:297,-0.806807,2.27924,-9.41048,-13.7092,-4.46479,62.7833
2023-03-14 18:15:26:307,-0.742066,2.32897,-9.58783,-13.6851,-4.43331,62.723
2023-03-14 18:15:26:317,-0.675268,2.34261,-9.71333,-13.6663,-4.40956,62.6628
2023-03-14 18:15:26:327,-0.615869,2.30207,-9.78606,-13.6397,-4.39177,62.6005
2023-03-14 18:15:26:337,-0.643746,2.27621,-9.74855,-13.6063,-4.38375,62.5406
2023-03-14 18:15:26:347,-0.736695,2.27373,-9.65943,-13.5671,-4.38234,62.4857
2023-03-14 18:15:26:357,-0.778589,2.26311,-9.56951,-13.5256,-4.3734,62.4325
2023-03-14 18:15:26:367,-0.760509,2.19702,-9.41841,-13.4738,-4.36268,62.376
2023-03-14 18:15:26:377,-0.722672,2.09502,-9.24869,-13.4206,-4.34974,62.3173
2023-03-14 18:15:26:387,-0.662275,2.07352,-9.20108,-13.3785,-4.33864,62.2566
2023-03-14 18:15:26:397,-0.603634,2.09517,-9.22526,-13.3452,-4.32762,62.1999
2023-03-14 18:15:26:407,-0.596213,2.12389,-9.28521,-13.3146,-4.31215,62.1441
2023-03-14 18:15:26:417,-0.610715,2.11611,-9.28502,-13.2874,-4.29436,62.0904
2023-03-14 18:15:26:427,-0.585066,2.07458,-9.26585,-13.2553,-4.26842,62.0378
2023-03-14 18:15:26:437,-0.494057,2.03392,-9.26164,-13.2265,-4.23597,61.9856
2023-03-14 18:15:26:447,-0.412537,2.01565,-9.2818,-13.2047,-4.19827,61.9316
2023-03-14 18:15:26:457,-0.349172,1.97583,-9.25127,-13.1896,-4.16344,61.8895
2023-03-14 18:15:26:467,-0.314696,1.9305,-9.21651,-13.1962,-4.14223,61.8555
2023-03-14 18:15:26:477,-0.312965,2.03318,-9.3533,-13.226,-4.12655,61.8393
2023-03-14 18:15:26:487,-0.39285,2.13367,-9.4683,-13.2681,-4.12135,61.8373
2023-03-14 18:15:26:497,-0.455399,2.18309,-9.5118,-13.3193,-4.12498,61.8476
2023-03-14 18:15:26:507,-0.511458,2.25033,-9.55343,-13.3771,-4.13148,61.8655
2023-03-14 18:15:26:517,-0.594536,2.31433,-9.57569,-13.4428,-4.147,61.8904
2023-03-14 18:15:26:527,-0.70077,2.40211,-9.67403,-13.5034,-4.15513,61.9175
2023-03-14 18:15:26:537,-0.780637,2.49952,-9.84443,-13.5573,-4.15526,61.9472
2023-03-14 18:15:26:547,-0.804499,2.50671,-9.88942,-13.5948,-4.14839,61.9728
2023-03-14 18:15:26:557,-0.746781,2.40141,-9.74123,-13.6187,-4.14867,61.9937
2023-03-14 18:15:26:567,-0.780208,2.33453,-9.58562,-13.643,-4.15849,62.0156
2023-03-14 18:15:26:577,-0.898542,2.40546,-9.55147,-13.6739,-4.17427,62.0385
2023-03-14 18:15:26:587,-0.953699,2.47716,-9.5653,-13.6997,-4.18378,62.0562
2023-03-14 18:15:26:597,-0.94218,2.40423,-9.47034,-13.7083,-4.18663,62.0637
2023-03-14 18:15:26:607,-0.905885,2.28896,-9.32422,-13.7127,-4.1873,62.0651
2023-03-14 18:15:26:617,-0.915328,2.25338,-9.26048,-13.7211,-4.18612,62.0603
2023-03-14 18:15:26:627,-0.905709,2.26866,-9.28533,-13.7358,-4.17955,62.0514
2023-03-14 18:15:26:637,-0.804394,2.2623,-9.32588,-13.7547,-4.16911,62.0321
2023-03-14 18:15:26:647,-0.665526,2.22094,-9.33272,-13.7813,-4.15706,62.0048
2023-03-14 18:15:26:657,-0.588155,2.2067,-9.33297,-13.8086,-4.14757,61.9781
2023-03-14 18:15:26:667,-0.578911,2.2446,-9.37821,-13.8476,-4.13987,61.9556
2023-03-14 18:15:26:677,-0.57671,2.29261,-9.43179,-13.8966,-4.13411,61.9343
2023-03-14 18:15:26:687,-0.544911,2.34087,-9.48585,-13.946,-4.12607,61.914
2023-03-14 18:15:26:697,-0.490746,2.38988,-9.51629,-13.9953,-4.11673,61.8986
2023-03-14 18:15:26:707,-0.493399,2.38914,-9.53801,-14.0398,-4.11145,61.8853
2023-03-14 18:15:26:717,-0.519197,2.41448,-9.5579,-14.0847,-4.11408,61.8762
2023-03-14 18:15:26:727,-0.582408,2.42784,-9.56803,-14.1269,-4.12273,61.8785
2023-03-14 18:15:26:737,-0.652421,2.45349,-9.58415,-14.1731,-4.13029,61.8799
2023-03-14 18:15:26:747,-0.715726,2.51079,-9.63539,-14.2162,-4.13811,61.8826
2023-03-14 18:15:26:757,-0.76344,2.57697,-9.64779,-14.2596,-4.14401,61.8839
2023-03-14 18:15:26:767,-0.735668,2.61347,-9.65841,-14.2968,-4.14452,61.8828
2023-03-14 18:15:26:778,-0.708249,2.59067,-9.59017,-14.3233,-4.14791,61.873
2023-03-14 18:15:26:787,-0.70878,2.57476,-9.55519,-14.3451,-4.15114,61.8598
2023-03-14 18:15:26:797,-0.697087,2.58733,-9.65041,-14.3587,-4.14912,61.8386
2023-03-14 18:15:26:807,-0.646715,2.57356,-9.70264,-14.361,-4.15967,61.813
2023-03-14 18:15:26:817,-0.620216,2.48975,-9.62524,-14.3568,-4.19515,61.7835
2023-03-14 18:15:26:827,-0.658275,2.45571,-9.52583,-14.3471,-4.2418,61.7528
2023-03-14 18:15:26:837,-0.709421,2.42425,-9.47506,-14.3325,-4.29707,61.721
2023-03-14 18:15:26:847,-0.725534,2.35812,-9.3702,-14.314,-4.36079,61.6869
2023-03-14 18:15:26:857,-0.680306,2.28406,-9.29847,-14.3034,-4.42431,61.651
2023-03-14 18:15:26:867,-0.659544,2.25689,-9.29863,-14.3001,-4.48661,61.6175
2023-03-14 18:15:26:877,-0.700895,2.28331,-9.31018,-14.3093,-4.54991,61.5941
2023-03-14 18:15:26:887,-0.772437,2.35809,-9.3297,-14.3276,-4.60772,61.5731
2023-03-14 18:15:26:897,-0.799883,2.43306,-9.38944,-14.352,-4.65509,61.5559
2023-03-14 18:15:26:907,-0.778797,2.41421,-9.38072,-14.3719,-4.69872,61.5371
2023-03-14 18:15:26:917,-0.68674,2.35736,-9.33472,-14.3962,-4.73725,61.5195
2023-03-14 18:15:26:927,-0.731645,2.36476,-9.29948,-14.4273,-4.7723,61.5134
2023-03-14 18:15:26:937,-0.808427,2.38564,-9.30064,-14.4698,-4.81623,61.509
2023-03-14 18:15:26:947,-0.78904,2.44969,-9.33355,-14.5215,-4.85506,61.5005
2023-03-14 18:15:26:957,-0.733544,2.54188,-9.45154,-14.5724,-4.89114,61.4927
2023-03-14 18:15:26:967,-0.726397,2.64676,-9.59457,-14.6172,-4.90143,61.4862
2023-03-14 18:15:26:977,-0.723562,2.62541,-9.56535,-14.6521,-4.9079,61.4849
2023-03-14 18:15:26:987,-0.720883,2.56288,-9.47296,-14.6794,-4.91928,61.4858
2023-03-14 18:15:26:997,-0.740688,2.59237,-9.49473,-14.7035,-4.92323,61.4932
2023-03-14 18:15:27:7,-0.766631,2.63176,-9.47867,-14.7217,-4.92624,61.5046
2023-03-14 18:15:27:17,-0.809505,2.6253,-9.4519,-14.7397,-4.92659,61.5234
2023-03-14 18:15:27:27,-0.843694,2.62988,-9.43841,-14.7556,-4.92785,61.545
2023-03-14 18:15:27:37,-0.84331,2.63147,-9.4605,-14.7745,-4.9283,61.5677
2023-03-14 18:15:27:47,-0.84509,2.65256,-9.51058,-14.7918,-4.93511,61.593
2023-03-14 18:15:27:57,-0.881964,2.69055,-9.57133,-14.8105,-4.94203,61.6171
2023-03-14 18:15:27:67,-0.897078,2.71048,-9.57566,-14.8208,-4.95226,61.6414
2023-03-14 18:15:27:77,-0.90062,2.70888,-9.53317,-14.829,-4.9671,61.6605
2023-03-14 18:15:27:87,-0.91904,2.67138,-9.47817,-14.8318,-4.98861,61.6784
2023-03-14 18:15:27:97,-0.952776,2.67081,-9.40592,-14.8382,-5.00725,61.6979
2023-03-14 18:15:27:107,-1.01471,2.66378,-9.33617,-14.84,-5.0287,61.7186
2023-03-14 18:15:27:117,-1.06368,2.66007,-9.31608,-14.8437,-5.04511,61.7362
2023-03-14 18:15:27:127,-1.08594,2.66473,-9.34306,-14.849,-5.0617,61.749
2023-03-14 18:15:27:137,-1.09398,2.68287,-9.37077,-14.8528,-5.07425,61.7565
2023-03-14 18:15:27:147,-1.12698,2.68026,-9.35459,-14.8507,-5.08791,61.7581
2023-03-14 18:15:27:157,-1.15979,2.64789,-9.34882,-14.8457,-5.10497,61.7531
2023-03-14 18:15:27:167,-1.16841,2.60956,-9.34024,-14.8411,-5.11822,61.7395
2023-03-14 18:15:27:177,-1.1592,2.59244,-9.31567,-14.8331,-5.1284,61.7199
2023-03-14 18:15:27:187,-1.12491,2.56707,-9.3012,-14.8258,-5.13465,61.6981
2023-03-14 18:15:27:197,-1.02239,2.53765,-9.30594,-14.8167,-5.13307,61.6639
2023-03-14 18:15:27:207,-0.914566,2.49958,-9.33163,-14.8126,-5.13032,61.6249
2023-03-14 18:15:27:217,-0.845314,2.47896,-9.33792,-14.8091,-5.11704,61.5929
2023-03-14 18:15:27:227,-0.804063,2.4914,-9.34946,-14.8084,-5.09783,61.5651
2023-03-14 18:15:27:237,-0.758916,2.48112,-9.33348,-14.8043,-5.07504,61.5472
2023-03-14 18:15:27:247,-0.706974,2.44744,-9.2643,-14.8017,-5.04516,61.5341
2023-03-14 18:15:27:257,-0.686631,2.42472,-9.21888,-14.8043,-5.01117,61.5335
2023-03-14 18:15:27:267,-0.763585,2.44203,-9.22457,-14.8179,-4.97294,61.5445
2023-03-14 18:15:27:277,-0.873977,2.51801,-9.2535,-14.8387,-4.93484,61.5576
2023-03-14 18:15:27:287,-0.840748,2.56195,-9.36817,-14.8601,-4.89691,61.571
2023-03-14 18:15:27:297,-0.722484,2.56183,-9.46216,-14.8764,-4.85594,61.5789
2023-03-14 18:15:27:307,-0.645862,2.52734,-9.43917,-14.8863,-4.82292,61.5857
2023-03-14 18:15:27:317,-0.62545,2.50602,-9.44869,-14.8954,-4.8007,61.5977
2023-03-14 18:15:27:327,-0.581146,2.54141,-9.53073,-14.9055,-4.7752,61.6167
2023-03-14 18:15:27:337,-0.527263,2.5061,-9.50539,-14.9132,-4.76491,61.6429
2023-03-14 18:15:27:347,-0.501285,2.47097,-9.46945,-14.922,-4.76614,61.6773
2023-03-14 18:15:27:357,-0.54158,2.47642,-9.48708,-14.9324,-4.77389,61.7294
2023-03-14 18:15:27:367,-0.612701,2.49684,-9.51727,-14.9392,-4.78437,61.8002
2023-03-14 18:15:27:377,-0.668567,2.48377,-9.52385,-14.946,-4.80204,61.8837
2023-03-14 18:15:27:387,-0.719141,2.46167,-9.49773,-14.9543,-4.82297,61.9761
2023-03-14 18:15:27:397,-0.791134,2.44219,-9.48276,-14.9669,-4.83904,62.0797
2023-03-14 18:15:27:407,-0.871002,2.45255,-9.51785,-14.9825,-4.86314,62.1928
2023-03-14 18:15:27:417,-0.973241,2.47651,-9.53305,-15.0022,-4.87753,62.3131
2023-03-14 18:15:27:427,-1.07998,2.5038,-9.53329,-15.0232,-4.88081,62.4245
2023-03-14 18:15:27:437,-1.10055,2.51414,-9.52217,-15.0403,-4.86999,62.5247
2023-03-14 18:15:27:447,-1.02788,2.52938,-9.51465,-15.0542,-4.84748,62.6122
2023-03-14 18:15:27:457,-0.942893,2.57554,-9.5221,-15.0727,-4.81653,62.6838
2023-03-14 18:15:27:467,-0.85568,2.58543,-9.51965,-15.0893,-4.79054,62.7438
2023-03-14 18:15:27:477,-0.806028,2.60346,-9.51185,-15.1071,-4.7684,62.7989
2023-03-14 18:15:27:487,-0.787474,2.59651,-9.51055,-15.1195,-4.76122,62.8509
2023-03-14 18:15:27:497,-0.794154,2.59078,-9.48294,-15.1265,-4.76191,62.9002
2023-03-14 18:15:27:507,-0.823013,2.56919,-9.44471,-15.1307,-4.76742,62.9492
2023-03-14 18:15:27:517,-0.832722,2.51841,-9.38519,-15.1297,-4.76756,62.996
2023-03-14 18:15:27:527,-0.796052,2.46946,-9.35133,-15.1302,-4.77033,63.0405
2023-03-14 18:15:27:537,-0.739927,2.46342,-9.36941,-15.1351,-4.76275,63.0827
2023-03-14 18:15:27:547,-0.662993,2.49189,-9.43423,-15.1452,-4.75526,63.1224
2023-03-14 18:15:27:557,-0.574729,2.53855,-9.52181,-15.1581,-4.75563,63.1628
2023-03-14 18:15:27:567,-0.591556,2.57548,-9.51395,-15.1758,-4.77677,63.2031
2023-03-14 18:15:27:577,-0.663058,2.59628,-9.475,-15.1967,-4.81494,63.2461
2023-03-14 18:15:27:587,-0.759961,2.66306,-9.45996,-15.2215,-4.85945,63.2928
2023-03-14 18:15:27:597,-0.879786,2.74811,-9.45273,-15.2512,-4.8972,63.3366
2023-03-14 18:15:27:607,-0.892898,2.77997,-9.45933,-15.2708,-4.9244,63.3695
2023-03-14 18:15:27:617,-0.82553,2.77796,-9.45352,-15.284,-4.93753,63.3904
2023-03-14 18:15:27:627,-0.786684,2.75628,-9.42866,-15.2897,-4.94571,63.4009
2023-03-14 18:15:27:637,-0.766088,2.74935,-9.44451,-15.2952,-4.94836,63.407
2023-03-14 18:15:27:647,-0.756093,2.77413,-9.48588,-15.2973,-4.94655,63.4061
2023-03-14 18:15:27:657,-0.726771,2.78183,-9.52802,-15.3005,-4.94598,63.4034
2023-03-14 18:15:27:667,-0.705639,2.77762,-9.54551,-15.2977,-4.93941,63.3923
2023-03-14 18:15:27:677,-0.696837,2.76072,-9.5331,-15.2916,-4.93673,63.3824
2023-03-14 18:15:27:687,-0.666712,2.75918,-9.51733,-15.2769,-4.9332,63.3706
2023-03-14 18:15:27:697,-0.624158,2.75478,-9.5081,-15.2564,-4.92439,63.3573
2023-03-14 18:15:27:707,-0.625249,2.70779,-9.46679,-15.2309,-4.91973,63.3448
2023-03-14 18:15:27:717,-0.64045,2.6653,-9.41529,-15.2009,-4.91594,63.3344
2023-03-14 18:15:27:727,-0.603199,2.62292,-9.37245,-15.1728,-4.91502,63.3345
2023-03-14 18:15:27:737,-0.563903,2.57071,-9.36627,-15.1455,-4.9165,63.3379
2023-03-14 18:15:27:747,-0.572525,2.54851,-9.34375,-15.1155,-4.91649,63.3465
2023-03-14 18:15:27:757,-0.60198,2.54735,-9.34766,-15.091,-4.91483,63.3643
2023-03-14 18:15:27:767,-0.614499,2.52689,-9.32811,-15.0662,-4.91575,63.3952
2023-03-14 18:15:27:777,-0.651301,2.48739,-9.30229,-15.0429,-4.9159,63.4264
2023-03-14 18:15:27:787,-0.711154,2.48501,-9.28437,-15.0198,-4.91641,63.4669
2023-03-14 18:15:27:797,-0.762537,2.48538,-9.31597,-15.0035,-4.92051,63.5153
2023-03-14 18:15:27:807,-0.82387,2.4862,-9.33262,-14.9932,-4.92361,63.5639
2023-03-14 18:15:27:817,-0.862746,2.48977,-9.35627,-14.9854,-4.92817,63.6119
2023-03-14 18:15:27:827,-0.896559,2.49964,-9.37439,-14.9775,-4.93143,63.6615
2023-03-14 18:15:27:837,-0.943373,2.50695,-9.39008,-14.9765,-4.9384,63.7092
2023-03-14 18:15:27:847,-0.948862,2.51716,-9.40625,-14.9744,-4.94736,63.7471
2023-03-14 18:15:27:857,-0.9347,2.50363,-9.37338,-14.9654,-4.95501,63.7796
2023-03-14 18:15:27:867,-0.926919,2.48984,-9.3432,-14.9569,-4.96455,63.8073
2023-03-14 18:15:27:877,-0.920752,2.47053,-9.35274,-14.9518,-4.97707,63.8322
2023-03-14 18:15:27:887,-0.907874,2.46796,-9.34418,-14.9503,-4.99335,63.8576
2023-03-14 18:15:27:897,-0.895977,2.47165,-9.37541,-14.95,-5.00969,63.8793
2023-03-14 18:15:27:907,-0.892803,2.47766,-9.39763,-14.9519,-5.02697,63.8985
2023-03-14 18:15:27:917,-0.873515,2.46627,-9.39899,-14.9551,-5.04641,63.9218
2023-03-14 18:15:27:927,-0.857831,2.45725,-9.37313,-14.9551,-5.06333,63.9455
2023-03-14 18:15:27:937,-0.861101,2.44696,-9.35609,-14.959,-5.08089,63.9675
2023-03-14 18:15:27:947,-0.880706,2.47172,-9.39813,-14.9651,-5.09718,63.993
2023-03-14 18:15:27:957,-0.916402,2.51614,-9.45731,-14.9747,-5.11345,64.0234
2023-03-14 18:15:27:967,-0.954615,2.53586,-9.47575,-14.982,-5.13375,64.0547
2023-03-14 18:15:27:977,-0.981043,2.54106,-9.45603,-14.9817,-5.15138,64.0897
2023-03-14 18:15:27:987,-0.994809,2.51515,-9.44666,-14.98,-5.16589,64.1266
2023-03-14 18:15:27:997,-0.987488,2.49765,-9.42848,-14.9779,-5.1772,64.1626
2023-03-14 18:15:28:7,-0.971004,2.48848,-9.40279,-14.9768,-5.18283,64.2001
2023-03-14 18:15:28:17,-0.974366,2.49205,-9.39815,-14.9744,-5.18456,64.2353
2023-03-14 18:15:28:27,-1.01528,2.51004,-9.40211,-14.9712,-5.18979,64.2748
2023-03-14 18:15:28:37,-1.01622,2.51149,-9.44074,-14.9725,-5.19187,64.312
2023-03-14 18:15:28:47,-1.00339,2.53033,-9.47359,-14.9732,-5.19236,64.3459
2023-03-14 18:15:28:57,-1.04804,2.55143,-9.48995,-14.974,-5.19197,64.3817
2023-03-14 18:15:28:67,-1.07128,2.57486,-9.54761,-14.9693,-5.18329,64.4148
2023-03-14 18:15:28:77,-1.04834,2.48337,-9.45804,-14.9558,-5.17913,64.4391
2023-03-14 18:15:28:87,-1.02487,2.44764,-9.43538,-14.9425,-5.17749,64.459
2023-03-14 18:15:28:97,-1.01712,2.48717,-9.49636,-14.9289,-5.16864,64.4755
2023-03-14 18:15:28:107,-1.00144,2.43346,-9.46534,-14.9111,-5.16017,64.4889
2023-03-14 18:15:28:117,-0.9643,2.4041,-9.46014,-14.8923,-5.15192,64.4987
2023-03-14 18:15:28:127,-0.930385,2.41119,-9.47919,-14.8715,-5.13504,64.507
2023-03-14 18:15:28:137,-0.917317,2.33777,-9.3944,-14.8485,-5.12459,64.5133
2023-03-14 18:15:28:147,-0.919968,2.34447,-9.39943,-14.8334,-5.11382,64.5181
2023-03-14 18:15:28:157,-0.902193,2.41025,-9.51835,-14.8194,-5.09159,64.5219
2023-03-14 18:15:28:167,-0.864005,2.35065,-9.48307,-14.7991,-5.07599,64.521
2023-03-14 18:15:28:177,-0.831874,2.31879,-9.42774,-14.7823,-5.06849,64.5229
2023-03-14 18:15:28:187,-0.830818,2.37048,-9.50332,-14.768,-5.05074,64.5244
2023-03-14 18:15:28:197,-0.840762,2.3617,-9.51729,-14.747,-5.03354,64.528
2023-03-14 18:15:28:207,-0.825169,2.28444,-9.44233,-14.732,-5.02347,64.531
2023-03-14 18:15:28:217,-0.814906,2.29788,-9.4567,-14.7201,-5.01756,64.535
2023-03-14 18:15:28:227,-0.806667,2.32486,-9.4837,-14.708,-5.00639,64.5391
2023-03-14 18:15:28:237,-0.791996,2.31547,-9.46514,-14.6969,-4.99618,64.5403
2023-03-14 18:15:28:247,-0.806748,2.30849,-9.45473,-14.6877,-4.98993,64.5419
2023-03-14 18:15:28:257,-0.822078,2.33185,-9.44065,-14.6846,-4.98334,64.5465
2023-03-14 18:15:28:267,-0.845341,2.36528,-9.44852,-14.6832,-4.97948,64.5512
2023-03-14 18:15:28:277,-0.886175,2.39996,-9.49299,-14.6852,-4.97726,64.5576
2023-03-14 18:15:28:287,-0.907223,2.43644,-9.49043,-14.6875,-4.97592,64.5621
2023-03-14 18:15:28:297,-0.927131,2.43155,-9.48988,-14.6825,-4.9745,64.5626
2023-03-14 18:15:28:307,-0.913375,2.42471,-9.46281,-14.677,-4.96996,64.5605
2023-03-14 18:15:28:317,-0.909649,2.4003,-9.44714,-14.6672,-4.96096,64.5543
2023-03-14 18:15:28:327,-0.89115,2.41177,-9.43643,-14.659,-4.95513,64.5457
2023-03-14 18:15:28:337,-0.87911,2.40924,-9.45342,-14.6504,-4.95056,64.5374
2023-03-14 18:15:28:347,-0.841449,2.38944,-9.45631,-14.6382,-4.94108,64.5188
2023-03-14 18:15:28:357,-0.80633,2.32322,-9.38517,-14.6292,-4.9394,64.4989
2023-03-14 18:15:28:367,-0.781244,2.35258,-9.39403,-14.6278,-4.93738,64.4803
2023-03-14 18:15:28:377,-0.773188,2.38227,-9.43207,-14.6258,-4.93391,64.4614
2023-03-14 18:15:28:387,-0.751202,2.35764,-9.41612,-14.6265,-4.93764,64.4409
2023-03-14 18:15:28:397,-0.731266,2.34836,-9.41474,-14.6278,-4.9402,64.4227
2023-03-14 18:15:28:407,-0.759794,2.36975,-9.4259,-14.6322,-4.94443,64.4113
2023-03-14 18:15:28:417,-0.77739,2.42113,-9.43482,-14.6384,-4.94657,64.4016
2023-03-14 18:15:28:427,-0.776536,2.44409,-9.44144,-14.6453,-4.94631,64.3947
2023-03-14 18:15:28:437,-0.787324,2.44601,-9.44191,-14.6526,-4.94337,64.3879
2023-03-14 18:15:28:447,-0.849492,2.44937,-9.44947,-14.6608,-4.93933,64.3867
2023-03-14 18:15:28:457,-0.885561,2.47666,-9.46352,-14.6685,-4.93667,64.3831
2023-03-14 18:15:28:467,-0.879031,2.50821,-9.47924,-14.6743,-4.92732,64.3755
2023-03-14 18:15:28:477,-0.832723,2.50554,-9.5056,-14.6777,-4.91776,64.3621
2023-03-14 18:15:28:487,-0.81091,2.47535,-9.50754,-14.6778,-4.90874,64.3445
2023-03-14 18:15:28:497,-0.819807,2.46159,-9.48204,-14.6712,-4.90516,64.3276
2023-03-14 18:15:28:507,-0.823034,2.46425,-9.46993,-14.6669,-4.90107,64.3099
2023-03-14 18:15:28:517,-0.822827,2.47591,-9.47551,-14.6631,-4.89669,64.2868
2023-03-14 18:15:28:527,-0.79247,2.49274,-9.48954,-14.6598,-4.88885,64.2635
2023-03-14 18:15:28:537,-0.780188,2.51634,-9.50537,-14.6584,-4.87951,64.2414
2023-03-14 18:15:28:547,-0.774954,2.5107,-9.50969,-14.6531,-4.87845,64.2141
2023-03-14 18:15:28:557,-0.7887,2.49064,-9.47074,-14.6436,-4.8789,64.1867
2023-03-14 18:15:28:567,-0.802032,2.47381,-9.42662,-14.6344,-4.88136,64.1574
2023-03-14 18:15:28:577,-0.837366,2.47926,-9.41564,-14.6282,-4.88347,64.1275
2023-03-14 18:15:28:587,-0.86136,2.50155,-9.45551,-14.6248,-4.88222,64.0952
2023-03-14 18:15:28:597,-0.841616,2.4691,-9.42285,-14.6126,-4.88137,64.0635
2023-03-14 18:15:28:607,-0.817558,2.42092,-9.34097,-14.6056,-4.89136,64.0276
2023-03-14 18:15:28:617,-0.816811,2.45343,-9.39779,-14.6032,-4.9011,63.9931
2023-03-14 18:15:28:627,-0.828298,2.47351,-9.42285,-14.5973,-4.91025,63.9588
2023-03-14 18:15:28:637,-0.844367,2.45385,-9.40488,-14.5935,-4.92191,63.9216
2023-03-14 18:15:28:647,-0.896279,2.44564,-9.40536,-14.5939,-4.93629,63.8828
2023-03-14 18:15:28:657,-0.920465,2.4555,-9.40492,-14.5946,-4.94835,63.838
2023-03-14 18:15:28:667,-0.92138,2.4724,-9.40596,-14.599,-4.96058,63.792
2023-03-14 18:15:28:677,-0.958631,2.4885,-9.41596,-14.6052,-4.97264,63.7432
2023-03-14 18:15:28:687,-0.976685,2.50595,-9.43907,-14.6081,-4.983,63.6898
2023-03-14 18:15:28:697,-0.919205,2.51103,-9.44927,-14.6087,-4.993,63.6246
2023-03-14 18:15:28:707,-0.890916,2.50409,-9.43655,-14.6065,-5.00306,63.554
2023-03-14 18:15:28:717,-0.872291,2.50149,-9.42058,-14.6042,-5.0175,63.4758
2023-03-14 18:15:28:727,-0.85791,2.50002,-9.42461,-14.6043,-5.03025,63.3984
2023-03-14 18:15:28:737,-0.841044,2.51501,-9.43688,-14.6051,-5.0453,63.3214
2023-03-14 18:15:28:747,-0.806112,2.51191,-9.4352,-14.6064,-5.05859,63.2451
2023-03-14 18:15:28:757,-0.7866,2.49487,-9.4212,-14.602,-5.07289,63.1662
2023-03-14 18:15:28:767,-0.756583,2.51659,-9.43379,-14.6014,-5.08168,63.0956
2023-03-14 18:15:28:777,-0.733167,2.52032,-9.44023,-14.6058,-5.09172,63.0296
2023-03-14 18:15:28:787,-0.708107,2.50852,-9.43247,-14.6045,-5.09866,62.9676
2023-03-14 18:15:28:797,-0.697896,2.50367,-9.45909,-14.6037,-5.10574,62.9126
2023-03-14 18:15:28:807,-0.672343,2.50592,-9.47106,-14.6066,-5.10893,62.8642
2023-03-14 18:15:28:817,-0.664873,2.5022,-9.48637,-14.6108,-5.11079,62.8276
2023-03-14 18:15:28:827,-0.647864,2.50401,-9.49037,-14.6112,-5.11641,62.8013
2023-03-14 18:15:28:837,-0.668756,2.50281,-9.47808,-14.6113,-5.11811,62.7799
2023-03-14 18:15:28:847,-0.735841,2.49657,-9.46258,-14.6146,-5.123,62.7748
2023-03-14 18:15:28:857,-0.815065,2.48807,-9.43744,-14.6168,-5.12445,62.7761
2023-03-14 18:15:28:867,-0.806368,2.4822,-9.42995,-14.6184,-5.12671,62.7835
2023-03-14 18:15:28:877,-0.72243,2.49035,-9.44872,-14.6207,-5.12541,62.7926
2023-03-14 18:15:28:887,-0.615144,2.50804,-9.48872,-14.6231,-5.13261,62.8082
2023-03-14 18:15:28:897,-0.550311,2.50726,-9.532,-14.6226,-5.14149,62.8339
2023-03-14 18:15:28:907,-0.570403,2.52009,-9.52983,-14.6167,-5.15761,62.8744
2023-03-14 18:15:28:917,-0.610585,2.48488,-9.46763,-14.6103,-5.1842,62.9241
2023-03-14 18:15:28:927,-0.687151,2.43348,-9.39151,-14.6029,-5.21899,62.9789
2023-03-14 18:15:28:937,-0.799138,2.41954,-9.35326,-14.5988,-5.26012,63.0423
2023-03-14 18:15:28:947,-0.89701,2.42968,-9.354,-14.5989,-5.30238,63.1083
2023-03-14 18:15:28:957,-0.958198,2.45369,-9.38651,-14.6036,-5.33869,63.1752
2023-03-14 18:15:28:967,-1.00256,2.49612,-9.43333,-14.6086,-5.36985,63.2387
2023-03-14 18:15:28:977,-1.03267,2.5043,-9.44182,-14.6102,-5.39831,63.298
2023-03-14 18:15:28:987,-1.03532,2.49431,-9.40628,-14.6082,-5.42793,63.3521
2023-03-14 18:15:28:997,-1.03485,2.48464,-9.37158,-14.6081,-5.45168,63.4024
2023-03-14 18:15:29:7,-1.04651,2.47471,-9.36898,-14.6105,-5.47101,63.4453
2023-03-14 18:15:29:17,-1.04681,2.48013,-9.37346,-14.6142,-5.48966,63.4798
2023-03-14 18:15:29:27,-1.04781,2.45785,-9.35151,-14.6209,-5.5046,63.5118
2023-03-14 18:15:29:37,-1.02929,2.43803,-9.35517,-14.6247,-5.52037,63.535
2023-03-14 18:15:29:47,-1.0417,2.44315,-9.37641,-14.6324,-5.52765,63.5562
2023-03-14 18:15:29:57,-1.05981,2.47803,-9.43638,-14.6483,-5.53508,63.5749
2023-03-14 18:15:29:67,-1.08756,2.52204,-9.49757,-14.66,-5.54226,63.5935
2023-03-14 18:15:29:77,-1.08304,2.51811,-9.49817,-14.6663,-5.54706,63.6054
2023-03-14 18:15:29:87,-1.03554,2.47011,-9.45607,-14.6697,-5.55257,63.6088
2023-03-14 18:15:29:97,-1.02733,2.45827,-9.43207,-14.67,-5.55356,63.6082
2023-03-14 18:15:29:107,-1.04689,2.44495,-9.41304,-14.6729,-5.55434,63.6125
2023-03-14 18:15:29:117,-1.04293,2.44829,-9.38567,-14.6787,-5.5519,63.6155
2023-03-14 18:15:29:127,-0.973604,2.45291,-9.38277,-14.6869,-5.54533,63.6166
2023-03-14 18:15:29:137,-0.882704,2.44392,-9.409,-14.6928,-5.53923,63.6133
2023-03-14 18:15:29:147,-0.883307,2.42364,-9.39915,-14.7045,-5.5369,63.6138
2023-03-14 18:15:29:157,-0.973277,2.44333,-9.3682,-14.7166,-5.53617,63.6235
2023-03-14 18:15:29:167,-1.01438,2.45709,-9.3788,-14.7303,-5.5286,63.6351
2023-03-14 18:15:29:177,-0.989943,2.46362,-9.40789,-14.7418,-5.52696,63.6465
2023-03-14 18:15:29:187,-1.0232,2.46058,-9.38245,-14.7526,-5.52242,63.6609
2023-03-14 18:15:29:197,-1.03968,2.43154,-9.36371,-14.7666,-5.51353,63.6743
2023-03-14 18:15:29:207,-1.03509,2.43294,-9.34998,-14.7808,-5.49672,63.6859
2023-03-14 18:15:29:217,-1.05566,2.4519,-9.35326,-14.8013,-5.4755,63.6954
2023-03-14 18:15:29:227,-1.04187,2.47872,-9.3804,-14.8268,-5.44786,63.7044
2023-03-14 18:15:29:237,-1.03726,2.50011,-9.40158,-14.8518,-5.42135,63.7104
2023-03-14 18:15:29:247,-1.01618,2.53683,-9.42512,-14.8768,-5.39103,63.71
2023-03-14 18:15:29:257,-1.00233,2.58797,-9.45667,-14.9046,-5.35683,63.7098
2023-03-14 18:15:29:267,-1.00332,2.5989,-9.4736,-14.9287,-5.32565,63.7011
2023-03-14 18:15:29:277,-0.961325,2.60734,-9.47416,-14.9476,-5.29305,63.6861
2023-03-14 18:15:29:287,-0.906451,2.6136,-9.46592,-14.9645,-5.26611,63.6656
2023-03-14 18:15:29:297,-0.887535,2.60685,-9.44717,-14.9833,-5.24028,63.6436
2023-03-14 18:15:29:307,-0.891775,2.61051,-9.44139,-14.9977,-5.21432,63.6152
2023-03-14 18:15:29:317,-0.862692,2.61016,-9.44583,-15.0117,-5.192,63.587
2023-03-14 18:15:29:327,-0.818699,2.59793,-9.44501,-15.023,-5.16792,63.5545
2023-03-14 18:15:29:337,-0.746286,2.58247,-9.47734,-15.0285,-5.14134,63.5212
2023-03-14 18:15:29:347,-0.692114,2.57142,-9.47939,-15.0356,-5.11756,63.4921
2023-03-14 18:15:29:357,-0.687146,2.54535,-9.47184,-15.0378,-5.10014,63.4657
2023-03-14 18:15:29:367,-0.689218,2.52029,-9.43509,-15.0366,-5.08495,63.4425
2023-03-14 18:15:29:377,-0.677776,2.49775,-9.38617,-15.0387,-5.0693,63.4254
2023-03-14 18:15:29:387,-0.664658,2.47478,-9.37117,-15.0467,-5.05806,63.412
2023-03-14 18:15:29:397,-0.661659,2.48182,-9.37399,-15.0592,-5.05099,63.407
2023-03-14 18:15:29:407,-0.6741,2.49274,-9.371,-15.0747,-5.04403,63.4075
2023-03-14 18:15:29:417,-0.694606,2.50031,-9.37586,-15.0941,-5.03587,63.4175
2023-03-14 18:15:29:427,-0.721795,2.53474,-9.37972,-15.1131,-5.03092,63.4333
2023-03-14 18:15:29:437,-0.754629,2.57987,-9.39884,-15.1389,-5.02561,63.4544
2023-03-14 18:15:29:447,-0.783691,2.57379,-9.37505,-15.1602,-5.0162,63.4792
2023-03-14 18:15:29:457,-0.807953,2.53929,-9.35718,-15.182,-5.009,63.5031
2023-03-14 18:15:29:467,-0.832911,2.55949,-9.37609,-15.2057,-5.00194,63.5284
2023-03-14 18:15:29:477,-0.866968,2.59976,-9.39135,-15.2338,-4.9993,63.5525
2023-03-14 18:15:29:487,-0.893211,2.62626,-9.41564,-15.2633,-4.99866,63.5726
2023-03-14 18:15:29:497,-0.888978,2.66622,-9.45208,-15.2857,-4.98995,63.5904
2023-03-14 18:15:29:507,-0.883954,2.63833,-9.42563,-15.3048,-4.98418,63.5992
2023-03-14 18:15:29:517,-0.869924,2.6191,-9.40525,-15.3261,-4.98346,63.6082
2023-03-14 18:15:29:527,-0.874131,2.67505,-9.44809,-15.3509,-4.98395,63.6126
2023-03-14 18:15:29:537,-0.867764,2.70746,-9.48541,-15.3747,-4.98043,63.6149
2023-03-14 18:15:29:547,-0.862494,2.70534,-9.47028,-15.3938,-4.97632,63.6123
2023-03-14 18:15:29:557,-0.844551,2.72053,-9.46666,-15.4081,-4.97272,63.6097
2023-03-14 18:15:29:567,-0.850091,2.73175,-9.46714,-15.4207,-4.97062,63.6051
2023-03-14 18:15:29:577,-0.843191,2.72311,-9.45507,-15.4287,-4.96802,63.6019
2023-03-14 18:15:29:587,-0.83216,2.71409,-9.44938,-15.4361,-4.96172,63.5937
2023-03-14 18:15:29:597,-0.816761,2.69269,-9.42923,-15.441,-4.95627,63.587
2023-03-14 18:15:29:608,-0.796365,2.67073,-9.40928,-15.4421,-4.9485,63.5818
2023-03-14 18:15:29:617,-0.791157,2.63829,-9.40649,-15.4439,-4.94309,63.5765
2023-03-14 18:15:29:627,-0.798171,2.61771,-9.38181,-15.4437,-4.93699,63.5766
2023-03-14 18:15:29:637,-0.834519,2.60253,-9.37243,-15.4438,-4.93327,63.5764
2023-03-14 18:15:29:647,-0.868162,2.59628,-9.37067,-15.4454,-4.92585,63.5731
2023-03-14 18:15:29:657,-0.884761,2.59165,-9.36722,-15.4516,-4.92214,63.5715
2023-03-14 18:15:29:667,-0.884382,2.59734,-9.37748,-15.4562,-4.91502,63.5683
2023-03-14 18:15:29:677,-0.864943,2.59506,-9.3827,-15.4596,-4.90543,63.5616
2023-03-14 18:15:29:687,-0.866768,2.60712,-9.38988,-15.4633,-4.90017,63.5551
2023-03-14 18:15:29:697,-0.860198,2.61079,-9.40207,-15.4702,-4.89774,63.5439
2023-03-14 18:15:29:707,-0.832813,2.6144,-9.39321,-15.4743,-4.89249,63.5289
2023-03-14 18:15:29:718,-0.810008,2.62727,-9.40957,-15.4802,-4.88966,63.5151
2023-03-14 18:15:29:727,-0.810083,2.64889,-9.42339,-15.4851,-4.88669,63.5033
2023-03-14 18:15:29:737,-0.799406,2.64986,-9.40209,-15.4911,-4.8848,63.4924
2023-03-14 18:15:29:747,-0.780313,2.63295,-9.39108,-15.4981,-4.87984,63.4823
2023-03-14 18:15:29:757,-0.787231,2.61198,-9.38701,-15.5043,-4.87801,63.4713
2023-03-14 18:15:29:767,-0.783369,2.61054,-9.37706,-15.5112,-4.87377,63.4666
2023-03-14 18:15:29:777,-0.773517,2.61663,-9.38815,-15.5164,-4.86801,63.463
2023-03-14 18:15:29:787,-0.781374,2.61875,-9.39368,-15.5254,-4.86384,63.4602
2023-03-14 18:15:29:797,-0.792703,2.6231,-9.41055,-15.5297,-4.86094,63.4606
2023-03-14 18:15:29:807,-0.79979,2.64035,-9.41891,-15.5397,-4.85737,63.4644
2023-03-14 18:15:29:817,-0.806548,2.65429,-9.4405,-15.5477,-4.85566,63.4669
2023-03-14 18:15:29:827,-0.82355,2.65892,-9.44156,-15.5513,-4.85271,63.4685
2023-03-14 18:15:29:837,-0.825597,2.64696,-9.43401,-15.5529,-4.84789,63.4748
2023-03-14 18:15:29:847,-0.828993,2.64459,-9.41717,-15.554,-4.84775,63.4781
2023-03-14 18:15:29:857,-0.83278,2.6329,-9.40628,-15.5575,-4.84728,63.4843
2023-03-14 18:15:29:867,-0.816817,2.61133,-9.38654,-15.5618,-4.84289,63.4872
2023-03-14 18:15:29:877,-0.809717,2.59283,-9.3543,-15.5634,-4.84188,63.49
2023-03-14 18:15:29:887,-0.813369,2.5656,-9.34974,-15.566,-4.84199,63.4915
2023-03-14 18:15:29:897,-0.814202,2.55234,-9.3538,-15.5733,-4.84138,63.4901
2023-03-14 18:15:29:907,-0.798252,2.56947,-9.36834,-15.5823,-4.8427,63.4914
2023-03-14 18:15:29:917,-0.794667,2.59023,-9.41069,-15.5933,-4.84147,63.4921
2023-03-14 18:15:29:927,-0.791663,2.62276,-9.43344,-15.607,-4.84174,63.4922
2023-03-14 18:15:29:937,-0.779597,2.62559,-9.42051,-15.6191,-4.84551,63.4932
2023-03-14 18:15:29:947,-0.773193,2.60162,-9.39019,-15.6275,-4.8493,63.4949
2023-03-14 18:15:29:957,-0.796624,2.6104,-9.36345,-15.6407,-4.8533,63.4952
2023-03-14 18:15:29:967,-0.826946,2.66344,-9.41761,-15.6576,-4.8523,63.4984
2023-03-14 18:15:29:977,-0.849463,2.69263,-9.41477,-15.6711,-4.8527,63.5021
2023-03-14 18:15:29:987,-0.842285,2.66235,-9.36129,-15.6819,-4.85332,63.5038
2023-03-14 18:15:29:997,-0.853394,2.68927,-9.38306,-15.6971,-4.85128,63.5048
2023-03-14 18:15:30:7,-0.865006,2.71487,-9.39857,-15.7114,-4.84499,63.5036
2023-03-14 18:15:30:17,-0.87084,2.713,-9.36165,-15.7233,-4.83644,63.5015
2023-03-14 18:15:30:27,-0.860455,2.698,-9.35145,-15.7363,-4.83361,63.4964
2023-03-14 18:15:30:37,-0.835919,2.68166,-9.33143,-15.7477,-4.82474,63.4908
2023-03-14 18:15:30:47,-0.839775,2.71463,-9.3692,-15.7614,-4.81596,63.4817
2023-03-14 18:15:30:57,-0.837123,2.75599,-9.43249,-15.7749,-4.80573,63.4738
2023-03-14 18:15:30:67,-0.823371,2.75318,-9.43466,-15.7887,-4.79885,63.4598
2023-03-14 18:15:30:77,-0.815585,2.74179,-9.42502,-15.7982,-4.79453,63.446
2023-03-14 18:15:30:87,-0.813598,2.76636,-9.46209,-15.809,-4.79011,63.4351
2023-03-14 18:15:30:97,-0.815682,2.79031,-9.49587,-15.8202,-4.78045,63.4172
2023-03-14 18:15:30:107,-0.777743,2.76281,-9.44557,-15.8233,-4.77334,63.4
2023-03-14 18:15:30:117,-0.75869,2.73701,-9.41415,-15.8244,-4.76645,63.3829
2023-03-14 18:15:30:127,-0.763941,2.73723,-9.39478,-15.8256,-4.76007,63.3665
2023-03-14 18:15:30:137,-0.74687,2.73815,-9.39115,-15.825,-4.7532,63.3538
2023-03-14 18:15:30:147,-0.75729,2.71487,-9.3846,-15.8269,-4.75242,63.3394
2023-03-14 18:15:30:157,-0.793732,2.7209,-9.38019,-15.825,-4.7472,63.3295
2023-03-14 18:15:30:167,-0.785304,2.7246,-9.3794,-15.8256,-4.74014,63.3183
2023-03-14 18:15:30:177,-0.761325,2.70726,-9.41438,-15.8233,-4.73431,63.304
2023-03-14 18:15:30:187,-0.736179,2.68997,-9.43298,-15.8175,-4.72912,63.2883
2023-03-14 18:15:30:197,-0.727911,2.67796,-9.41198,-15.8111,-4.72754,63.2768
2023-03-14 18:15:30:207,-0.745428,2.67958,-9.3972,-15.8072,-4.73164,63.2644
2023-03-14 18:15:30:217,-0.754485,2.67646,-9.39595,-15.8006,-4.73935,63.2515
2023-03-14 18:15:30:227,-0.764299,2.68185,-9.41365,-15.7932,-4.74417,63.2417
2023-03-14 18:15:30:237,-0.794957,2.69094,-9.41849,-15.7876,-4.75391,63.2342
2023-03-14 18:15:30:247,-0.820694,2.70844,-9.41482,-15.7816,-4.76364,63.2278
2023-03-14 18:15:30:257,-0.822559,2.69317,-9.40848,-15.7751,-4.77138,63.2203
2023-03-14 18:15:30:267,-0.814396,2.68727,-9.4056,-15.7699,-4.77318,63.2143
2023-03-14 18:15:30:277,-0.815249,2.68908,-9.40983,-15.7661,-4.78044,63.2112
2023-03-14 18:15:30:287,-0.820945,2.69247,-9.41628,-15.755,-4.78339,63.2056
2023-03-14 18:15:30:297,-0.829144,2.68521,-9.40057,-15.7459,-4.78518,63.2032
2023-03-14 18:15:30:307,-0.832272,2.65813,-9.38872,-15.7316,-4.78378,63.1983
2023-03-14 18:15:30:317,-0.829681,2.64354,-9.37683,-15.7192,-4.78685,63.1924
2023-03-14 18:15:30:327,-0.824513,2.63478,-9.35939,-15.7083,-4.79279,63.1907
2023-03-14 18:15:30:337,-0.817915,2.63148,-9.3622,-15.6963,-4.79532,63.1846
2023-03-14 18:15:30:347,-0.808422,2.61721,-9.36247,-15.6857,-4.7989,63.1778
2023-03-14 18:15:30:357,-0.79391,2.6186,-9.37967,-15.6775,-4.80207,63.1742
2023-03-14 18:15:30:367,-0.774784,2.63126,-9.39292,-15.6694,-4.80305,63.1717
2023-03-14 18:15:30:377,-0.769981,2.61641,-9.38543,-15.6622,-4.80327,63.171
2023-03-14 18:15:30:387,-0.780821,2.6178,-9.37161,-15.657,-4.80003,63.17
2023-03-14 18:15:30:397,-0.7813,2.6249,-9.37561,-15.656,-4.80086,63.1725
2023-03-14 18:15:30:407,-0.800815,2.63274,-9.37609,-15.6527,-4.80153,63.1761
2023-03-14 18:15:30:417,-0.824501,2.62849,-9.37477,-15.6497,-4.79614,63.1801
2023-03-14 18:15:30:427,-0.813873,2.62481,-9.37576,-15.6481,-4.79627,63.1829
2023-03-14 18:15:30:437,-0.797815,2.61898,-9.36307,-15.6471,-4.79172,63.1868
2023-03-14 18:15:30:447,-0.786311,2.62253,-9.38106,-15.6486,-4.78544,63.1889
2023-03-14 18:15:30:457,-0.792768,2.64613,-9.38688,-15.6505,-4.77957,63.1907
2023-03-14 18:15:30:467,-0.797791,2.65061,-9.38806,-15.651,-4.77418,63.1913
2023-03-14 18:15:30:477,-0.79362,2.65157,-9.38779,-15.6513,-4.76994,63.1912
2023-03-14 18:15:30:487,-0.767288,2.64437,-9.37878,-15.6517,-4.76739,63.1915
2023-03-14 18:15:30:497,-0.768934,2.64472,-9.39467,-15.6518,-4.7657,63.1923
2023-03-14 18:15:30:507,-0.769383,2.66225,-9.4191,-15.6555,-4.76387,63.1923
2023-03-14 18:15:30:517,-0.767361,2.66386,-9.43763,-15.654,-4.76365,63.1898
2023-03-14 18:15:30:527,-0.77925,2.66683,-9.43314,-15.6571,-4.76028,63.1868
2023-03-14 18:15:30:537,-0.771771,2.67497,-9.43832,-15.658,-4.76052,63.1891
2023-03-14 18:15:30:547,-0.759554,2.67908,-9.4461,-15.6565,-4.76286,63.1915
2023-03-14 18:15:30:557,-0.757493,2.68785,-9.43139,-15.6501,-4.76184,63.1957
2023-03-14 18:15:30:567,-0.773273,2.68945,-9.42134,-15.6463,-4.75814,63.2009
2023-03-14 18:15:30:577,-0.770829,2.67545,-9.40726,-15.6408,-4.7594,63.2076
2023-03-14 18:15:30:587,-0.772128,2.65721,-9.39157,-15.6326,-4.75717,63.2087
2023-03-14 18:15:30:597,-0.758028,2.65023,-9.37188,-15.6267,-4.75738,63.2141
2023-03-14 18:15:30:607,-0.755027,2.65116,-9.38726,-15.6193,-4.76139,63.221
2023-03-14 18:15:30:617,-0.752379,2.65776,-9.40468,-15.6148,-4.76392,63.2266
2023-03-14 18:15:30:627,-0.742525,2.66045,-9.43004,-15.6077,-4.76448,63.2289
2023-03-14 18:15:30:637,-0.751067,2.66568,-9.42729,-15.5983,-4.76818,63.2351
2023-03-14 18:15:30:647,-0.770143,2.67994,-9.41767,-15.5877,-4.77348,63.2463
2023-03-14 18:15:30:657,-0.789909,2.68271,-9.38997,-15.5813,-4.77928,63.2569
2023-03-14 18:15:30:667,-0.793773,2.66116,-9.38763,-15.5705,-4.7836,63.2669
2023-03-14 18:15:30:677,-0.792342,2.64356,-9.38228,-15.5601,-4.78406,63.2805
2023-03-14 18:15:30:687,-0.803625,2.6478,-9.40458,-15.5496,-4.78472,63.2949
2023-03-14 18:15:30:697,-0.815936,2.66117,-9.41524,-15.5378,-4.78532,63.3116
2023-03-14 18:15:30:707,-0.824486,2.6538,-9.42557,-15.5272,-4.79115,63.323
2023-03-14 18:15:30:717,-0.824387,2.64729,-9.42798,-15.5126,-4.79563,63.3376
2023-03-14 18:15:30:727,-0.810163,2.64776,-9.41831,-15.4982,-4.80219,63.3461
2023-03-14 18:15:30:737,-0.804013,2.63919,-9.39788,-15.4839,-4.80785,63.3545
2023-03-14 18:15:30:747,-0.790685,2.6236,-9.39299,-15.4728,-4.81531,63.3643
2023-03-14 18:15:30:757,-0.798893,2.61221,-9.39236,-15.4596,-4.82204,63.3718
2023-03-14 18:15:30:767,-0.808953,2.59785,-9.3831,-15.4494,-4.8325,63.3791
2023-03-14 18:15:30:777,-0.813512,2.60158,-9.39897,-15.4382,-4.84147,63.3895
2023-03-14 18:15:30:787,-0.821183,2.58677,-9.41521,-15.4257,-4.84824,63.3958
2023-03-14 18:15:30:797,-0.809278,2.58371,-9.42919,-15.4151,-4.85897,63.4074
2023-03-14 18:15:30:807,-0.792341,2.58788,-9.41925,-15.4036,-4.86793,63.4203
2023-03-14 18:15:30:817,-0.787441,2.56554,-9.41651,-15.3881,-4.87574,63.4305
2023-03-14 18:15:30:827,-0.78238,2.55473,-9.40514,-15.375,-4.88362,63.4445
2023-03-14 18:15:30:837,-0.814801,2.58085,-9.39439,-15.3691,-4.89601,63.4563
2023-03-14 18:15:30:847,-0.835206,2.59675,-9.38858,-15.3628,-4.90422,63.4707
2023-03-14 18:15:30:857,-0.85536,2.60888,-9.3851,-15.3559,-4.91684,63.4867
2023-03-14 18:15:30:867,-0.877033,2.61529,-9.37395,-15.3486,-4.92953,63.5037
2023-03-14 18:15:30:877,-0.88987,2.61428,-9.35937,-15.3404,-4.93731,63.5205
2023-03-14 18:15:30:887,-0.897296,2.59746,-9.36716,-15.3365,-4.94134,63.5344
2023-03-14 18:15:30:897,-0.897012,2.60186,-9.37871,-15.3316,-4.94667,63.5452
2023-03-14 18:15:30:907,-0.863133,2.60464,-9.38459,-15.3252,-4.94992,63.5548
2023-03-14 18:15:30:917,-0.840873,2.59971,-9.38001,-15.3159,-4.95348,63.5656
2023-03-14 18:15:30:927,-0.847336,2.58184,-9.37815,-15.3067,-4.95594,63.5717
2023-03-14 18:15:30:937,-0.846882,2.59215,-9.38332,-15.3013,-4.95877,63.5805
2023-03-14 18:15:30:947,-0.853268,2.59563,-9.40924,-15.2967,-4.96326,63.5859
2023-03-14 18:15:30:957,-0.848679,2.61015,-9.42933,-15.2931,-4.96968,63.5949
2023-03-14 18:15:30:967,-0.845038,2.62775,-9.44479,-15.2904,-4.97336,63.6007
2023-03-14 18:15:30:977,-0.848544,2.6327,-9.44697,-15.2864,-4.97533,63.6055
2023-03-14 18:15:30:987,-0.837707,2.62841,-9.44179,-15.2837,-4.97772,63.6123
2023-03-14 18:15:30:997,-0.832372,2.61215,-9.44143,-15.2761,-4.9805,63.6205
2023-03-14 18:15:31:7,-0.841542,2.62327,-9.43199,-15.27,-4.98093,63.6246
2023-03-14 18:15:31:17,-0.840033,2.62101,-9.41438,-15.2637,-4.98489,63.632
2023-03-14 18:15:31:27,-0.847417,2.60481,-9.40432,-15.2567,-4.99105,63.6383
2023-03-14 18:15:31:37,-0.865942,2.60243,-9.39932,-15.2479,-4.99192,63.6436
2023-03-14 18:15:31:47,-0.861374,2.59806,-9.41639,-15.2416,-4.99437,63.6493
2023-03-14 18:15:31:57,-0.809093,2.58848,-9.43475,-15.2304,-4.99576,63.6481
2023-03-14 18:15:31:67,-0.766283,2.57552,-9.44292,-15.2161,-4.99593,63.6514
2023-03-14 18:15:31:77,-0.764613,2.53663,-9.42301,-15.2031,-4.99962,63.6572
2023-03-14 18:15:31:87,-0.802897,2.52356,-9.41232,-15.1864,-5.0054,63.6656
2023-03-14 18:15:31:97,-0.825054,2.54229,-9.42452,-15.1727,-5.01262,63.6727
2023-03-14 18:15:31:107,-0.813556,2.54697,-9.43084,-15.1615,-5.0225,63.6806
2023-03-14 18:15:31:117,-0.825357,2.54998,-9.43616,-15.1566,-5.03179,63.6899
2023-03-14 18:15:31:127,-0.84116,2.56098,-9.43281,-15.1505,-5.04423,63.7025
2023-03-14 18:15:31:137,-0.842914,2.57519,-9.42986,-15.142,-5.05412,63.7142
2023-03-14 18:15:31:147,-0.829561,2.55882,-9.43259,-15.1325,-5.06242,63.7257
2023-03-14 18:15:31:157,-0.828329,2.55748,-9.40833,-15.1238,-5.06633,63.736
2023-03-14 18:15:31:167,-0.836832,2.56219,-9.40072,-15.1122,-5.0728,63.75
2023-03-14 18:15:31:177,-0.841548,2.55253,-9.40557,-15.0983,-5.0799,63.7637
2023-03-14 18:15:31:187,-0.84614,2.50881,-9.37739,-15.0862,-5.09221,63.7768
2023-03-14 18:15:31:197,-0.856818,2.51374,-9.38217,-15.0759,-5.10388,63.796
2023-03-14 18:15:31:207,-0.876959,2.53216,-9.41412,-15.0678,-5.11708,63.8106
2023-03-14 18:15:31:217,-0.885787,2.52217,-9.42078,-15.0586,-5.12875,63.8257
2023-03-14 18:15:31:227,-0.881799,2.53408,-9.426,-15.0532,-5.13703,63.8409
2023-03-14 18:15:31:237,-0.877502,2.53427,-9.44268,-15.0456,-5.14352,63.8523
2023-03-14 18:15:31:247,-0.882092,2.53903,-9.42821,-15.039,-5.15025,63.8658
2023-03-14 18:15:31:257,-0.893933,2.53851,-9.43174,-15.0313,-5.16231,63.8785
2023-03-14 18:15:31:267,-0.913288,2.54072,-9.41516,-15.0257,-5.17098,63.89
2023-03-14 18:15:31:277,-0.923105,2.54983,-9.4082,-15.0224,-5.1765,63.9048
2023-03-14 18:15:31:287,-0.924981,2.53448,-9.39301,-15.0129,-5.18134,63.9218
2023-03-14 18:15:31:297,-0.929964,2.52358,-9.4123,-15.0045,-5.18317,63.9346
2023-03-14 18:15:31:307,-0.920595,2.53064,-9.41138,-14.9959,-5.1888,63.9426
2023-03-14 18:15:31:317,-0.918049,2.5357,-9.4107,-14.9935,-5.19095,63.9547
2023-03-14 18:15:31:327,-0.92599,2.54112,-9.41446,-14.989,-5.19126,63.9639
2023-03-14 18:15:31:337,-0.919538,2.55751,-9.42045,-14.9843,-5.19231,63.9713
2023-03-14 18:15:31:347,-0.926047,2.58541,-9.45014,-14.9766,-5.18823,63.9757
2023-03-14 18:15:31:357,-0.916475,2.54106,-9.42283,-14.9641,-5.18546,63.9765
2023-03-14 18:15:31:367,-0.898154,2.51945,-9.36684,-14.955,-5.18283,63.9811
2023-03-14 18:15:31:377,-0.893567,2.5305,-9.38991,-14.9509,-5.17712,63.9813
2023-03-14 18:15:31:387,-0.893545,2.52713,-9.41164,-14.9484,-5.17143,63.9793
2023-03-14 18:15:31:397,-0.868247,2.52993,-9.39245,-14.9468,-5.16425,63.9797
2023-03-14 18:15:31:407,-0.866907,2.54991,-9.41114,-14.9479,-5.16054,63.978
2023-03-14 18:15:31:417,-0.867729,2.56737,-9.45447,-14.9506,-5.15714,63.9769
2023-03-14 18:15:31:427,-0.869346,2.58092,-9.47571,-14.9507,-5.15223,63.9792
2023-03-14 18:15:31:437,-0.873669,2.58424,-9.47122,-14.9489,-5.15073,63.9769
2023-03-14 18:15:31:447,-0.866359,2.57133,-9.46092,-14.9443,-5.14632,63.9761
2023-03-14 18:15:31:457,-0.855045,2.5685,-9.4344,-14.934,-5.14338,63.9751
2023-03-14 18:15:31:467,-0.850788,2.54574,-9.43238,-14.9233,-5.13845,63.9773
2023-03-14 18:15:31:477,-0.85412,2.54305,-9.4174,-14.9153,-5.13586,63.9782
2023-03-14 18:15:31:487,-0.863696,2.5299,-9.40678,-14.906,-5.13002,63.9779
2023-03-14 18:15:31:497,-0.877051,2.55287,-9.42185,-14.8954,-5.13009,63.9819
2023-03-14 18:15:31:507,-0.85963,2.54106,-9.43527,-14.8813,-5.12258,63.9829
2023-03-14 18:15:31:517,-0.845709,2.47214,-9.35116,-14.8714,-5.12555,63.9844
2023-03-14 18:15:31:527,-0.869453,2.50203,-9.39294,-14.8694,-5.12483,63.9859
2023-03-14 18:15:31:537,-0.872523,2.53201,-9.42496,-14.8651,-5.12297,63.9871
2023-03-14 18:15:31:547,-0.850398,2.50711,-9.40047,-14.861,-5.12564,63.9874
2023-03-14 18:15:31:557,-0.830061,2.50106,-9.40714,-14.8525,-5.12478,63.9868
2023-03-14 18:15:31:567,-0.84075,2.50548,-9.43578,-14.8477,-5.1249,63.9866
2023-03-14 18:15:31:577,-0.844335,2.50227,-9.46721,-14.845,-5.12641,63.9895
2023-03-14 18:15:31:587,-0.855277,2.51622,-9.45524,-14.8417,-5.12945,63.9896
2023-03-14 18:15:31:597,-0.875875,2.53218,-9.44358,-14.8356,-5.13076,63.989
2023-03-14 18:15:31:607,-0.861817,2.52968,-9.43601,-14.8286,-5.13259,63.9902
2023-03-14 18:15:31:617,-0.852405,2.5183,-9.42428,-14.8202,-5.13406,63.9871
2023-03-14 18:15:31:627,-0.85147,2.49651,-9.41306,-14.8106,-5.13814,63.9874
2023-03-14 18:15:31:637,-0.860189,2.48646,-9.42688,-14.8043,-5.13801,63.9894
2023-03-14 18:15:31:647,-0.861614,2.48421,-9.43667,-14.7958,-5.14021,63.9876
2023-03-14 18:15:31:657,-0.86595,2.4897,-9.45272,-14.7953,-5.14054,63.9871
2023-03-14 18:15:31:667,-0.850375,2.4812,-9.46445,-14.7864,-5.14161,63.9877
2023-03-14 18:15:31:677,-0.826384,2.4802,-9.46072,-14.7797,-5.13997,63.9883
2023-03-14 18:15:31:687,-0.789719,2.45672,-9.46114,-14.7711,-5.14454,63.9882
2023-03-14 18:15:31:697,-0.811826,2.45874,-9.45768,-14.7616,-5.14876,63.9929
2023-03-14 18:15:31:707,-0.86096,2.46494,-9.45127,-14.7568,-5.15367,64.0013
2023-03-14 18:15:31:717,-0.893233,2.47959,-9.43137,-14.7483,-5.161,64.0105
2023-03-14 18:15:31:728,-0.905138,2.48484,-9.43736,-14.7459,-5.16573,64.0184
2023-03-14 18:15:31:737,-0.899753,2.49815,-9.42694,-14.7409,-5.16814,64.0246
2023-03-14 18:15:31:747,-0.915558,2.50755,-9.40206,-14.7345,-5.17065,64.0298
2023-03-14 18:15:31:757,-0.910491,2.48504,-9.39998,-14.7261,-5.17262,64.0319
2023-03-14 18:15:31:767,-0.913982,2.48251,-9.40641,-14.7184,-5.16483,64.0334
2023-03-14 18:15:31:777,-0.886418,2.43128,-9.3657,-14.7051,-5.15599,64.0349
2023-03-14 18:15:31:787,-0.864952,2.38412,-9.29712,-14.6983,-5.15477,64.0354
2023-03-14 18:15:31:797,-0.878742,2.42697,-9.35335,-14.7008,-5.15198,64.0383
2023-03-14 18:15:31:807,-0.912182,2.4784,-9.42792,-14.7078,-5.14846,64.0405
2023-03-14 18:15:31:817,-0.906595,2.49345,-9.44242,-14.7094,-5.1428,64.0382
2023-03-14 18:15:31:827,-0.882406,2.50706,-9.45588,-14.7115,-5.13376,64.033
2023-03-14 18:15:31:837,-0.873183,2.51479,-9.47436,-14.7143,-5.1288,64.0293
2023-03-14 18:15:31:847,-0.85754,2.51976,-9.45377,-14.7175,-5.12287,64.0268
2023-03-14 18:15:31:857,-0.84072,2.51608,-9.44444,-14.7182,-5.1155,64.0185
2023-03-14 18:15:31:867,-0.843877,2.51798,-9.45691,-14.7179,-5.1079,64.0136
2023-03-14 18:15:31:877,-0.839647,2.52134,-9.44788,-14.7219,-5.10019,64.0088
2023-03-14 18:15:31:887,-0.838378,2.51536,-9.43285,-14.7269,-5.09452,64.0054
2023-03-14 18:15:31:897,-0.864588,2.52511,-9.43482,-14.7305,-5.09092,64.0073
2023-03-14 18:15:31:907,-0.898381,2.52,-9.45132,-14.7318,-5.08272,64.0092
2023-03-14 18:15:31:917,-0.910943,2.5361,-9.45152,-14.7312,-5.07437,64.0106
2023-03-14 18:15:31:927,-0.855148,2.55659,-9.48044,-14.7309,-5.06646,64.0059
2023-03-14 18:15:31:937,-0.78892,2.56085,-9.49373,-14.7269,-5.05768,64.0002
2023-03-14 18:15:31:947,-0.77403,2.52385,-9.47917,-14.7188,-5.05614,63.9947
2023-03-14 18:15:31:957,-0.786214,2.49703,-9.45278,-14.7123,-5.05536,63.9917
2023-03-14 18:15:31:967,-0.784256,2.49107,-9.4466,-14.7038,-5.05714,63.9912
2023-03-14 18:15:31:977,-0.801614,2.48229,-9.44094,-14.6971,-5.06378,63.9925
2023-03-14 18:15:31:987,-0.834185,2.47945,-9.44318,-14.6943,-5.07105,63.9943
2023-03-14 18:15:31:997,-0.850105,2.48476,-9.43883,-14.6913,-5.07689,63.998
2023-03-14 18:15:32:7,-0.855602,2.47619,-9.43864,-14.6827,-5.08002,64.004
2023-03-14 18:15:32:17,-0.847292,2.47324,-9.42614,-14.6773,-5.08129,64.008
2023-03-14 18:15:32:27,-0.846316,2.4772,-9.43233,-14.673,-5.08091,64.0139
2023-03-14 18:15:32:37,-0.87505,2.48362,-9.43036,-14.6714,-5.08261,64.0211
2023-03-14 18:15:32:47,-0.874732,2.47377,-9.42747,-14.668,-5.08357,64.0277
2023-03-14 18:15:32:57,-0.877502,2.48818,-9.4203,-14.6638,-5.08407,64.0312
2023-03-14 18:15:32:67,-0.882603,2.48323,-9.41835,-14.6611,-5.08532,64.036
2023-03-14 18:15:32:77,-0.879307,2.46418,-9.43501,-14.6562,-5.0884,64.0409
2023-03-14 18:15:32:87,-0.884642,2.45472,-9.425,-14.6525,-5.0881,64.0433
2023-03-14 18:15:32:97,-0.876287,2.45407,-9.40448,-14.6471,-5.08794,64.0451
2023-03-14 18:15:32:107,-0.866924,2.44692,-9.41768,-14.6423,-5.08907,64.042
2023-03-14 18:15:32:117,-0.867641,2.45265,-9.43353,-14.6407,-5.0883,64.0454
2023-03-14 18:15:32:127,-0.871498,2.47298,-9.4267,-14.6388,-5.09229,64.0492
2023-03-14 18:15:32:137,-0.874211,2.46566,-9.43028,-14.6398,-5.09047,64.0496
2023-03-14 18:15:32:147,-0.878508,2.46103,-9.43793,-14.6401,-5.08984,64.052
2023-03-14 18:15:32:157,-0.896398,2.48799,-9.4537,-14.6438,-5.08668,64.0591
2023-03-14 18:15:32:167,-0.91305,2.50041,-9.45447,-14.6475,-5.08264,64.062
2023-03-14 18:15:32:177,-0.913139,2.49169,-9.44064,-14.6475,-5.0786,64.0677
2023-03-14 18:15:32:187,-0.912149,2.49359,-9.43506,-14.6464,-5.07181,64.0649
2023-03-14 18:15:32:197,-0.910451,2.49488,-9.44401,-14.6448,-5.0641,64.0644
2023-03-14 18:15:32:207,-0.900474,2.49432,-9.44387,-14.6413,-5.05619,64.0626
2023-03-14 18:15:32:217,-0.879142,2.49806,-9.44914,-14.6389,-5.04579,64.0571
2023-03-14 18:15:32:227,-0.876547,2.48405,-9.43627,-14.6321,-5.0379,64.051
2023-03-14 18:15:32:237,-0.865094,2.47223,-9.44226,-14.6258,-5.03195,64.0423
2023-03-14 18:15:32:247,-0.836132,2.47701,-9.44729,-14.6228,-5.02647,64.034
2023-03-14 18:15:32:257,-0.834581,2.48655,-9.44736,-14.6202,-5.01758,64.0285
2023-03-14 18:15:32:267,-0.825995,2.4913,-9.44601,-14.6109,-5.00935,64.0191
2023-03-14 18:15:32:277,-0.809796,2.47714,-9.45316,-14.6078,-5.00284,64.0105
2023-03-14 18:15:32:287,-0.811542,2.47368,-9.45394,-14.6015,-4.99791,64.0045
2023-03-14 18:15:32:297,-0.801971,2.47741,-9.45009,-14.5998,-4.99006,63.9981
2023-03-14 18:15:32:307,-0.793068,2.47432,-9.44546,-14.5946,-4.98431,63.9946
2023-03-14 18:15:32:317,-0.794033,2.4623,-9.44465,-14.5927,-4.97993,63.9914
2023-03-14 18:15:32:328,-0.785462,2.45396,-9.43455,-14.588,-4.97768,63.9874
2023-03-14 18:15:32:337,-0.791275,2.46386,-9.43998,-14.585,-4.97379,63.9849
2023-03-14 18:15:32:347,-0.801452,2.46824,-9.44233,-14.581,-4.97204,63.9825
2023-03-14 18:15:32:357,-0.798278,2.47102,-9.43516,-14.5776,-4.96706,63.9811
2023-03-14 18:15:32:367,-0.802923,2.47024,-9.4433,-14.5745,-4.96666,63.9794
2023-03-14 18:15:32:377,-0.801437,2.47325,-9.45794,-14.5703,-4.96821,63.98
2023-03-14 18:15:32:387,-0.813409,2.47206,-9.44636,-14.5706,-4.97271,63.9783
2023-03-14 18:15:32:397,-0.813093,2.46536,-9.43092,-14.5679,-4.97418,63.9807
2023-03-14 18:15:32:407,-0.807534,2.45319,-9.44008,-14.5643,-4.97914,63.9842
2023-03-14 18:15:32:417,-0.81839,2.46156,-9.45462,-14.564,-4.98005,63.9892
2023-03-14 18:15:32:428,-0.841008,2.4688,-9.47268,-14.5602,-4.98336,63.9964
2023-03-14 18:15:32:437,-0.848443,2.47892,-9.46909,-14.5566,-4.98614,64.0008
2023-03-14 18:15:32:447,-0.850976,2.47695,-9.45371,-14.5483,-4.98639,64.006
2023-03-14 18:15:32:457,-0.856191,2.46768,-9.43892,-14.5418,-4.98764,64.0149
2023-03-14 18:15:32:467,-0.857974,2.46081,-9.44625,-14.5371,-4.98523,64.0174
2023-03-14 18:15:32:477,-0.844675,2.45827,-9.44451,-14.5337,-4.98271,64.0193
2023-03-14 18:15:32:487,-0.858204,2.45906,-9.42384,-14.5319,-4.98162,64.0212
2023-03-14 18:15:32:497,-0.854397,2.45707,-9.43329,-14.5244,-4.97483,64.0238
2023-03-14 18:15:32:507,-0.825699,2.43166,-9.42412,-14.5162,-4.96773,64.024
2023-03-14 18:15:32:517,-0.812584,2.41894,-9.37908,-14.5164,-4.96618,64.0257
2023-03-14 18:15:32:527,-0.831999,2.4739,-9.43506,-14.5178,-4.96507,64.0303
2023-03-14 18:15:32:537,-0.860394,2.46992,-9.43945,-14.5143,-4.9658,64.0329
2023-03-14 18:15:32:547,-0.843411,2.44462,-9.42636,-14.5126,-4.96697,64.0336
2023-03-14 18:15:32:557,-0.822607,2.44041,-9.43337,-14.5114,-4.96707,64.0359
2023-03-14 18:15:32:567,-0.808787,2.44092,-9.44545,-14.5129,-4.96115,64.0387
2023-03-14 18:15:32:577,-0.797963,2.43249,-9.44687,-14.5139,-4.95981,64.0414
2023-03-14 18:15:32:587,-0.769899,2.41371,-9.45178,-14.5144,-4.957,64.0443
2023-03-14 18:15:32:597,-0.764104,2.40395,-9.43831,-14.5164,-4.9566,64.0477
2023-03-14 18:15:32:607,-0.794206,2.42765,-9.42058,-14.5235,-4.9615,64.0546
2023-03-14 18:15:32:617,-0.840764,2.4674,-9.42907,-14.5307,-4.96645,64.064
2023-03-14 18:15:32:627,-0.857787,2.50791,-9.44613,-14.5407,-4.97088,64.0712
2023-03-14 18:15:32:637,-0.88066,2.51819,-9.44237,-14.5457,-4.97167,64.0785
2023-03-14 18:15:32:647,-0.881927,2.50773,-9.43647,-14.5505,-4.97098,64.0872
2023-03-14 18:15:32:657,-0.871199,2.50649,-9.43332,-14.556,-4.97138,64.0988
2023-03-14 18:15:32:667,-0.8661,2.49483,-9.42772,-14.5594,-4.96777,64.1048
2023-03-14 18:15:32:677,-0.876908,2.4898,-9.4137,-14.5646,-4.96727,64.1128
2023-03-14 18:15:32:687,-0.889948,2.47815,-9.41538,-14.5673,-4.96515,64.1212
2023-03-14 18:15:32:697,-0.893814,2.4775,-9.41607,-14.57,-4.96158,64.1278
2023-03-14 18:15:32:707,-0.873349,2.46665,-9.44162,-14.5725,-4.95867,64.1299
2023-03-14 18:15:32:717,-0.867781,2.46909,-9.43723,-14.574,-4.95728,64.1322
2023-03-14 18:15:32:727,-0.867873,2.48626,-9.4352,-14.582,-4.95569,64.1309
2023-03-14 18:15:32:737,-0.86697,2.51555,-9.4735,-14.5858,-4.95432,64.1283
2023-03-14 18:15:32:747,-0.862123,2.51612,-9.50358,-14.5915,-4.94739,64.1249
2023-03-14 18:15:32:757,-0.855269,2.52736,-9.50274,-14.5972,-4.94505,64.1215
2023-03-14 18:15:32:767,-0.838487,2.52621,-9.49641,-14.5983,-4.94041,64.1183
2023-03-14 18:15:32:777,-0.829465,2.50607,-9.47856,-14.5992,-4.93606,64.112
2023-03-14 18:15:32:787,-0.816022,2.50408,-9.45669,-14.5991,-4.93438,64.1105
2023-03-14 18:15:32:797,-0.821053,2.48977,-9.44163,-14.5995,-4.93373,64.1059
2023-03-14 18:15:32:807,-0.828018,2.48188,-9.44444,-14.6004,-4.92665,64.1062
2023-03-14 18:15:32:817,-0.844982,2.48672,-9.43902,-14.5996,-4.9236,64.1026
2023-03-14 18:15:32:827,-0.842998,2.49129,-9.44986,-14.5973,-4.91936,64.1004
2023-03-14 18:15:32:837,-0.797366,2.50045,-9.47083,-14.5952,-4.91192,64.0986
2023-03-14 18:15:32:847,-0.765031,2.48199,-9.47521,-14.5908,-4.90863,64.0965
2023-03-14 18:15:32:857,-0.756697,2.46438,-9.4834,-14.585,-4.90755,64.0959
2023-03-14 18:15:32:867,-0.789026,2.45429,-9.45875,-14.5781,-4.90886,64.0969
2023-03-14 18:15:32:877,-0.822119,2.45964,-9.45973,-14.5722,-4.91308,64.1019
2023-03-14 18:15:32:887,-0.825696,2.45234,-9.47045,-14.5656,-4.91624,64.107
2023-03-14 18:15:32:897,-0.824454,2.44761,-9.45932,-14.5538,-4.92073,64.1061
2023-03-14 18:15:32:907,-0.820849,2.45108,-9.46854,-14.5452,-4.92701,64.1051
2023-03-14 18:15:32:917,-0.816518,2.45864,-9.48592,-14.5383,-4.93122,64.1102
2023-03-14 18:15:32:928,-0.823831,2.46002,-9.46279,-14.5297,-4.93588,64.1148
2023-03-14 18:15:32:937,-0.832956,2.45385,-9.45017,-14.52,-4.94229,64.1189
2023-03-14 18:15:32:947,-0.830669,2.45262,-9.42471,-14.5119,-4.9474,64.1246
2023-03-14 18:15:32:957,-0.826499,2.44002,-9.42591,-14.5045,-4.95503,64.1288
2023-03-14 18:15:32:967,-0.849983,2.4296,-9.42407,-14.4973,-4.96047,64.1334
2023-03-14 18:15:32:977,-0.871503,2.45915,-9.43787,-14.4886,-4.96115,64.1398
2023-03-14 18:15:32:987,-0.856826,2.47256,-9.49685,-14.4749,-4.94979,64.1422
2023-03-14 18:15:32:997,-0.821178,2.38511,-9.41522,-14.4546,-4.9424,64.145
2023-03-14 18:15:33:7,-0.794545,2.36488,-9.40963,-14.4382,-4.92835,64.1464
2023-03-14 18:15:33:17,-0.796429,2.35759,-9.39765,-14.4228,-4.92477,64.1489
2023-03-14 18:15:33:27,-0.827434,2.3827,-9.40411,-14.4221,-4.92853,64.1537
2023-03-14 18:15:33:37,-0.848861,2.46305,-9.49453,-14.4208,-4.92885,64.1565
2023-03-14 18:15:33:47,-0.853802,2.44615,-9.49114,-14.4163,-4.9304,64.164
2023-03-14 18:15:33:57,-0.860204,2.4166,-9.43566,-14.4073,-4.92947,64.1706
2023-03-14 18:15:33:67,-0.851834,2.40855,-9.40901,-14.4025,-4.92709,64.1762
2023-03-14 18:15:33:78,-0.875929,2.41721,-9.3972,-14.402,-4.92519,64.1789
2023-03-14 18:15:33:88,-0.888665,2.42289,-9.42874,-14.4027,-4.91849,64.1831
2023-03-14 18:15:33:97,-0.878651,2.43438,-9.45683,-14.4019,-4.91304,64.1879
2023-03-14 18:15:33:107,-0.86658,2.46021,-9.45578,-14.3996,-4.90401,64.189
2023-03-14 18:15:33:117,-0.846083,2.45302,-9.46351,-14.3956,-4.89348,64.188
2023-03-14 18:15:33:127,-0.835977,2.4413,-9.44488,-14.393,-4.88551,64.1854
2023-03-14 18:15:33:137,-0.830883,2.43933,-9.44209,-14.3902,-4.87925,64.1863
2023-03-14 18:15:33:147,-0.808336,2.4409,-9.44809,-14.3914,-4.87221,64.183
2023-03-14 18:15:33:157,-0.766291,2.4451,-9.4471,-14.3875,-4.86697,64.1768
2023-03-14 18:15:33:167,-0.781627,2.44003,-9.44772,-14.3864,-4.86076,64.1713
2023-03-14 18:15:33:177,-0.787367,2.41797,-9.44844,-14.3885,-4.85845,64.1691
2023-03-14 18:15:33:187,-0.774812,2.42331,-9.45412,-14.3863,-4.85426,64.1673
2023-03-14 18:15:33:197,-0.782618,2.44911,-9.45554,-14.3859,-4.85289,64.1638
2023-03-14 18:15:33:207,-0.789122,2.45848,-9.46705,-14.3921,-4.85379,64.1662
2023-03-14 18:15:33:217,-0.793149,2.45347,-9.4613,-14.3916,-4.85569,64.1655
2023-03-14 18:15:33:227,-0.792701,2.44182,-9.45386,-14.3911,-4.85778,64.1639
2023-03-14 18:15:33:237,-0.780673,2.42799,-9.47047,-14.3909,-4.86048,64.1622
2023-03-14 18:15:33:248,-0.801994,2.44395,-9.45848,-14.39,-4.8631,64.1634
2023-03-14 18:15:33:257,-0.805159,2.49424,-9.50666,-14.386,-4.85882,64.1637
2023-03-14 18:15:33:267,-0.770713,2.40435,-9.43816,-14.3781,-4.854,64.1641
2023-03-14 18:15:33:277,-0.760615,2.36175,-9.36988,-14.3771,-4.8623,64.1646
2023-03-14 18:15:33:288,-0.80111,2.45483,-9.47129,-14.3824,-4.86611,64.1698
2023-03-14 18:15:33:298,-0.841561,2.47409,-9.48703,-14.3882,-4.86883,64.1751
2023-03-14 18:15:33:308,-0.815816,2.44145,-9.47026,-14.3894,-4.87168,64.1788
2023-03-14 18:15:33:318,-0.782355,2.42065,-9.4658,-14.3873,-4.87488,64.1805
2023-03-14 18:15:33:328,-0.787063,2.43416,-9.47044,-14.3857,-4.87632,64.1842
2023-03-14 18:15:33:337,-0.810781,2.47207,-9.48125,-14.3882,-4.88205,64.1911
2023-03-14 18:15:33:347,-0.839398,2.4836,-9.48085,-14.3869,-4.88792,64.1995
2023-03-14 18:15:33:358,-0.872651,2.48065,-9.46556,-14.3856,-4.89319,64.2094
2023-03-14 18:15:33:368,-0.88779,2.47369,-9.45254,-14.3809,-4.89985,64.2153
2023-03-14 18:15:33:378,-0.88254,2.4625,-9.45952,-14.3795,-4.90329,64.2206
2023-03-14 18:15:33:387,-0.868294,2.44736,-9.44855,-14.3736,-4.90685,64.2243
2023-03-14 18:15:33:397,-0.877505,2.44231,-9.44803,-14.3669,-4.90999,64.2269
2023-03-14 18:15:33:407,-0.871384,2.44183,-9.45816,-14.3652,-4.91396,64.2277
2023-03-14 18:15:33:418,-0.855052,2.44797,-9.46346,-14.3598,-4.91659,64.2257
2023-03-14 18:15:33:427,-0.868652,2.43513,-9.46408,-14.355,-4.91891,64.2268
2023-03-14 18:15:33:437,-0.869431,2.42299,-9.44826,-14.3506,-4.92115,64.2305
2023-03-14 18:15:33:447,-0.857871,2.42362,-9.42899,-14.3447,-4.92198,64.2284
2023-03-14 18:15:33:457,-0.84746,2.44326,-9.44105,-14.3399,-4.92081,64.2242
2023-03-14 18:15:33:468,-0.842219,2.47439,-9.51088,-14.3336,-4.91339,64.2183
2023-03-14 18:15:33:477,-0.794856,2.39561,-9.45799,-14.3228,-4.90645,64.213
2023-03-14 18:15:33:487,-0.792836,2.35814,-9.37894,-14.3132,-4.9088,64.2053
2023-03-14 18:15:33:497,-0.815265,2.42119,-9.45604,-14.3141,-4.90626,64.2019
2023-03-14 18:15:33:507,-0.836454,2.4171,-9.47519,-14.3079,-4.90638,64.2024
2023-03-14 18:15:33:517,-0.800509,2.40582,-9.46448,-14.304,-4.9074,64.1991
2023-03-14 18:15:33:527,-0.774944,2.38791,-9.48039,-14.2998,-4.90658,64.1917
2023-03-14 18:15:33:537,-0.746788,2.38019,-9.47489,-14.2947,-4.90659,64.1899
2023-03-14 18:15:33:547,-0.75096,2.37068,-9.4709,-14.291,-4.91078,64.1931
2023-03-14 18:15:33:557,-0.781817,2.39368,-9.45901,-14.2869,-4.91986,64.195
2023-03-14 18:15:33:568,-0.818367,2.3988,-9.44835,-14.2861,-4.92572,64.201
2023-03-14 18:15:33:577,-0.83648,2.39078,-9.44715,-14.2882,-4.92766,64.2096
2023-03-14 18:15:33:587,-0.850865,2.40916,-9.42923,-14.2928,-4.93149,64.2183
2023-03-14 18:15:33:597,-0.855307,2.42004,-9.41141,-14.3014,-4.93607,64.2242
2023-03-14 18:15:33:607,-0.855091,2.41292,-9.40984,-14.3027,-4.93418,64.231
2023-03-14 18:15:33:617,-0.882082,2.41011,-9.39778,-14.3078,-4.93658,64.2423
2023-03-14 18:15:33:627,-0.903212,2.4069,-9.39657,-14.3114,-4.93872,64.2537
2023-03-14 18:15:33:637,-0.905888,2.39752,-9.39674,-14.3136,-4.94082,64.2622
2023-03-14 18:15:33:647,-0.90425,2.39028,-9.40963,-14.3184,-4.93842,64.2674
2023-03-14 18:15:33:657,-0.913429,2.38736,-9.41455,-14.3239,-4.93909,64.2712
2023-03-14 18:15:33:667,-0.931904,2.41635,-9.41726,-14.3344,-4.93534,64.2701
2023-03-14 18:15:33:677,-0.917509,2.42699,-9.45268,-14.3441,-4.93355,64.2702
2023-03-14 18:15:33:687,-0.886021,2.45034,-9.48169,-14.3558,-4.92679,64.2627
2023-03-14 18:15:33:697,-0.877615,2.47652,-9.50853,-14.368,-4.92291,64.2538
2023-03-14 18:15:33:707,-0.857339,2.48542,-9.49921,-14.3795,-4.91691,64.2435
2023-03-14 18:15:33:717,-0.840663,2.47989,-9.4893,-14.3861,-4.90969,64.2325
2023-03-14 18:15:33:727,-0.815102,2.46771,-9.48033,-14.3948,-4.90503,64.2218
2023-03-14 18:15:33:737,-0.815177,2.46698,-9.46937,-14.4027,-4.90148,64.2121
2023-03-14 18:15:33:747,-0.821633,2.47972,-9.47131,-14.4112,-4.89616,64.2066
2023-03-14 18:15:33:757,-0.831521,2.47809,-9.47291,-14.4194,-4.894,64.2015
2023-03-14 18:15:33:767,-0.855452,2.46273,-9.44758,-14.422,-4.89192,64.1939
2023-03-14 18:15:33:777,-0.857201,2.47411,-9.46815,-14.4274,-4.88429,64.1866
2023-03-14 18:15:33:787,-0.812756,2.47981,-9.51134,-14.4262,-4.8764,64.1805
2023-03-14 18:15:33:797,-0.750842,2.46434,-9.51531,-14.4229,-4.86338,64.1704
2023-03-14 18:15:33:807,-0.734137,2.42803,-9.4839,-14.4189,-4.8564,64.1555
2023-03-14 18:15:33:817,-0.77116,2.41179,-9.4465,-14.4161,-4.85296,64.1452
2023-03-14 18:15:33:827,-0.782099,2.41233,-9.44696,-14.4137,-4.85237,64.1368
2023-03-14 18:15:33:837,-0.784934,2.42392,-9.47272,-14.4155,-4.85508,64.1337
2023-03-14 18:15:33:847,-0.795506,2.43268,-9.45853,-14.4149,-4.85432,64.1303
2023-03-14 18:15:33:857,-0.791877,2.42342,-9.45479,-14.4157,-4.85767,64.129
2023-03-14 18:15:33:867,-0.800901,2.43389,-9.44777,-14.4156,-4.8611,64.1311
2023-03-14 18:15:33:877,-0.808471,2.45324,-9.4649,-14.4178,-4.86381,64.1328
2023-03-14 18:15:33:887,-0.81129,2.4571,-9.46303,-14.4182,-4.86452,64.1372
2023-03-14 18:15:33:897,-0.801248,2.44338,-9.45358,-14.4209,-4.8666,64.1406
2023-03-14 18:15:33:907,-0.817999,2.44667,-9.43191,-14.4187,-4.86993,64.1432
2023-03-14 18:15:33:917,-0.82235,2.42779,-9.4269,-14.414,-4.87293,64.149
2023-03-14 18:15:33:927,-0.837106,2.42524,-9.43501,-14.4097,-4.87647,64.1552
2023-03-14 18:15:33:937,-0.822197,2.39785,-9.42123,-14.4066,-4.87756,64.1583
2023-03-14 18:15:33:948,-0.827103,2.40407,-9.41537,-14.4059,-4.87911,64.1639
2023-03-14 18:15:33:957,-0.849473,2.39371,-9.42612,-14.4076,-4.88127,64.1697
2023-03-14 18:15:33:967,-0.843331,2.41052,-9.43024,-14.4103,-4.88522,64.1713
2023-03-14 18:15:33:977,-0.852011,2.41318,-9.43812,-14.4121,-4.88563,64.1715
2023-03-14 18:15:33:987,-0.848329,2.40517,-9.43633,-14.4138,-4.88502,64.1728
2023-03-14 18:15:33:997,-0.847052,2.42525,-9.44189,-14.4173,-4.88968,64.1759
2023-03-14 18:15:34:7,-0.84718,2.43423,-9.44266,-14.4236,-4.8934,64.1796
2023-03-14 18:15:34:17,-0.883138,2.43349,-9.43327,-14.4287,-4.89328,64.1822
2023-03-14 18:15:34:27,-0.88782,2.45421,-9.41799,-14.4343,-4.89179,64.1859
2023-03-14 18:15:34:37,-0.886332,2.46633,-9.44631,-14.4388,-4.88302,64.1828
2023-03-14 18:15:34:47,-0.872948,2.46492,-9.45383,-14.4422,-4.87878,64.1789
2023-03-14 18:15:34:57,-0.859353,2.45718,-9.44962,-14.4431,-4.87324,64.1736
2023-03-14 18:15:34:68,-0.842561,2.44644,-9.45023,-14.4495,-4.86869,64.1664
2023-03-14 18:15:34:77,-0.823927,2.46506,-9.44842,-14.4548,-4.86117,64.1546
2023-03-14 18:15:34:87,-0.825756,2.47467,-9.46986,-14.4549,-4.85005,64.1403
2023-03-14 18:15:34:97,-0.799078,2.46683,-9.46938,-14.4589,-4.83784,64.1299
2023-03-14 18:15:34:108,-0.772325,2.46916,-9.46025,-14.4613,-4.83182,64.1165
2023-03-14 18:15:34:117,-0.759694,2.47264,-9.46738,-14.4664,-4.82417,64.1035
2023-03-14 18:15:34:127,-0.765178,2.48036,-9.47353,-14.4667,-4.82206,64.0882
2023-03-14 18:15:34:137,-0.769083,2.47895,-9.46991,-14.4665,-4.81877,64.0755
2023-03-14 18:15:34:147,-0.763233,2.46682,-9.473,-14.4655,-4.81522,64.0658
2023-03-14 18:15:34:157,-0.772993,2.4651,-9.47767,-14.4637,-4.8124,64.0569
2023-03-14 18:15:34:167,-0.775631,2.46841,-9.48375,-14.4592,-4.81681,64.0498
2023-03-14 18:15:34:177,-0.769554,2.46854,-9.46718,-14.4585,-4.81632,64.0454
2023-03-14 18:15:34:188,-0.766445,2.46392,-9.46353,-14.4584,-4.81426,64.045
2023-03-14 18:15:34:197,-0.767565,2.46361,-9.4623,-14.4545,-4.81273,64.0451
2023-03-14 18:15:34:207,-0.781255,2.46221,-9.46686,-14.4523,-4.81219,64.0423
2023-03-14 18:15:34:217,-0.782065,2.4414,-9.46252,-14.4485,-4.81032,64.0422
2023-03-14 18:15:34:227,-0.789232,2.43277,-9.43838,-14.4414,-4.81128,64.0395
2023-03-14 18:15:34:237,-0.779289,2.42015,-9.44273,-14.4377,-4.81504,64.0372
2023-03-14 18:15:34:247,-0.777462,2.41947,-9.45759,-14.4381,-4.81612,64.0369
2023-03-14 18:15:34:257,-0.785491,2.42586,-9.46103,-14.4372,-4.82162,64.0377
2023-03-14 18:15:34:267,-0.808102,2.43293,-9.45637,-14.4367,-4.82754,64.0421
2023-03-14 18:15:34:277,-0.811539,2.43481,-9.45182,-14.4347,-4.83001,64.0443
2023-03-14 18:15:34:287,-0.80202,2.42904,-9.43096,-14.4308,-4.8367,64.0457
2023-03-14 18:15:34:297,-0.807863,2.43294,-9.43408,-14.4286,-4.84394,64.0532
2023-03-14 18:15:34:307,-0.81646,2.44763,-9.44233,-14.4326,-4.84705,64.0563
2023-03-14 18:15:34:317,-0.849602,2.43857,-9.44031,-14.4311,-4.85116,64.0633
2023-03-14 18:15:34:327,-0.870911,2.44188,-9.42582,-14.429,-4.85659,64.0682
2023-03-14 18:15:34:337,-0.851414,2.43845,-9.44582,-14.4291,-4.86333,64.0728
2023-03-14 18:15:34:347,-0.838615,2.45975,-9.45993,-14.4286,-4.86512,64.0762
2023-03-14 18:15:34:357,-0.845784,2.45336,-9.47768,-14.4339,-4.86658,64.0765
2023-03-14 18:15:34:367,-0.857232,2.44799,-9.4652,-14.4292,-4.86529,64.0806
2023-03-14 18:15:34:377,-0.846439,2.43987,-9.46924,-14.4291,-4.86518,64.0791
2023-03-14 18:15:34:387,-0.856662,2.43461,-9.46433,-14.428,-4.86696,64.0759
2023-03-14 18:15:34:397,-0.850981,2.43073,-9.43839,-14.4273,-4.86741,64.0758
2023-03-14 18:15:34:407,-0.834654,2.43645,-9.44468,-14.4253,-4.86683,64.0694
2023-03-14 18:15:34:417,-0.823658,2.43958,-9.4565,-14.4225,-4.86633,64.0624
2023-03-14 18:15:34:427,-0.823798,2.43066,-9.4601,-14.4216,-4.86635,64.0574
2023-03-14 18:15:34:437,-0.810342,2.40535,-9.4563,-14.4168,-4.86557,64.053
2023-03-14 18:15:34:447,-0.803666,2.4189,-9.46747,-14.4149,-4.86799,64.049
2023-03-14 18:15:34:457,-0.795487,2.42782,-9.47426,-14.4142,-4.86958,64.0431
2023-03-14 18:15:34:467,-0.771195,2.42285,-9.46638,-14.4122,-4.86848,64.0385
2023-03-14 18:15:34:477,-0.752993,2.4036,-9.45802,-14.4058,-4.86727,64.0342
2023-03-14 18:15:34:487,-0.75941,2.3862,-9.43669,-14.4019,-4.87046,64.0317
2023-03-14 18:15:34:497,-0.791579,2.38603,-9.42678,-14.4046,-4.87579,64.035
2023-03-14 18:15:34:507,-0.806011,2.40857,-9.43363,-14.4099,-4.88077,64.041
2023-03-14 18:15:34:517,-0.818472,2.43568,-9.44289,-14.4182,-4.88561,64.0485
2023-03-14 18:15:34:527,-0.839517,2.47166,-9.45325,-14.4258,-4.8895,64.053
2023-03-14 18:15:34:537,-0.851839,2.50173,-9.46293,-14.4298,-4.89258,64.058
2023-03-14 18:15:34:547,-0.864204,2.50506,-9.47799,-14.4354,-4.8931,64.064
2023-03-14 18:15:34:557,-0.871228,2.49896,-9.47707,-14.4345,-4.89752,64.0701
2023-03-14 18:15:34:567,-0.877122,2.47572,-9.45482,-14.4272,-4.90312,64.0732
2023-03-14 18:15:34:577,-0.889081,2.45922,-9.41087,-14.425,-4.90614,64.074
2023-03-14 18:15:34:587,-0.885045,2.44279,-9.38981,-14.4247,-4.90747,64.0708
2023-03-14 18:15:34:597,-0.870267,2.43479,-9.38895,-14.4239,-4.9094,64.0671
2023-03-14 18:15:34:607,-0.876402,2.44463,-9.4063,-14.4298,-4.91204,64.0633
2023-03-14 18:15:34:617,-0.860038,2.45531,-9.43544,-14.4339,-4.91143,64.0619
2023-03-14 18:15:34:627,-0.832992,2.48292,-9.46386,-14.4379,-4.90903,64.0562
2023-03-14 18:15:34:637,-0.82538,2.50047,-9.47505,-14.4432,-4.90499,64.051
2023-03-14 18:15:34:647,-0.818004,2.49351,-9.49432,-14.4504,-4.9008,64.0474
2023-03-14 18:15:34:657,-0.814744,2.49146,-9.4898,-14.4519,-4.89561,64.0454
2023-03-14 18:15:34:667,-0.820203,2.50334,-9.47876,-14.4531,-4.89176,64.044
2023-03-14 18:15:34:677,-0.818368,2.49477,-9.47736,-14.4545,-4.88551,64.0392
2023-03-14 18:15:34:687,-0.830154,2.4723,-9.45862,-14.4524,-4.88509,64.0386
2023-03-14 18:15:34:697,-0.860643,2.46713,-9.43077,-14.4512,-4.88118,64.0431
2023-03-14 18:15:34:707,-0.868406,2.45999,-9.43121,-14.4488,-4.8802,64.0452
2023-03-14 18:15:34:717,-0.862143,2.46948,-9.45851,-14.4488,-4.87467,64.0431
2023-03-14 18:15:34:727,-0.805156,2.47979,-9.47629,-14.4492,-4.86889,64.0336
2023-03-14 18:15:34:737,-0.773601,2.45289,-9.48362,-14.4418,-4.86672,64.027
2023-03-14 18:15:34:747,-0.787641,2.44113,-9.48942,-14.4348,-4.86499,64.0214
2023-03-14 18:15:34:757,-0.812067,2.45502,-9.49629,-14.4266,-4.8614,64.0175
2023-03-14 18:15:34:767,-0.823134,2.45528,-9.50283,-14.4222,-4.86274,64.0114
2023-03-14 18:15:34:777,-0.834113,2.44145,-9.4977,-14.4173,-4.86131,64.0084
2023-03-14 18:15:34:787,-0.829748,2.44584,-9.46936,-14.4036,-4.85948,64.0077
2023-03-14 18:15:34:797,-0.822478,2.46564,-9.4598,-14.3927,-4.85598,64.0024
2023-03-14 18:15:34:807,-0.815342,2.45796,-9.46877,-14.3837,-4.8509,64.0007
2023-03-14 18:15:34:817,-0.809979,2.44051,-9.47579,-14.3721,-4.8461,64.0006
2023-03-14 18:15:34:827,-0.80679,2.4121,-9.45978,-14.3574,-4.84528,64.0025
2023-03-14 18:15:34:837,-0.805218,2.39408,-9.43682,-14.3433,-4.84213,64.0001
2023-03-14 18:15:34:847,-0.815301,2.37783,-9.43233,-14.333,-4.84116,64.0002
2023-03-14 18:15:34:857,-0.831356,2.3856,-9.42246,-14.3205,-4.84498,63.9984
2023-03-14 18:15:34:867,-0.81243,2.40192,-9.438,-14.3111,-4.84318,63.9988
2023-03-14 18:15:34:877,-0.798288,2.40505,-9.46949,-14.2999,-4.84198,63.9974
2023-03-14 18:15:34:887,-0.798325,2.39516,-9.48291,-14.2882,-4.84494,63.995
2023-03-14 18:15:34:897,-0.790866,2.3737,-9.45951,-14.2748,-4.84579,63.9937
2023-03-14 18:15:34:907,-0.770695,2.35635,-9.44454,-14.2644,-4.84666,63.9941
2023-03-14 18:15:34:917,-0.771204,2.35012,-9.42032,-14.2543,-4.84839,63.9928
2023-03-14 18:15:34:927,-0.77634,2.36183,-9.41927,-14.2466,-4.84777,63.9954
2023-03-14 18:15:34:937,-0.796103,2.37249,-9.42926,-14.2448,-4.84969,63.9987
2023-03-14 18:15:34:947,-0.812968,2.39768,-9.44819,-14.2428,-4.8494,64.0022
2023-03-14 18:15:34:957,-0.823244,2.41574,-9.47428,-14.2437,-4.84775,64.0101
2023-03-14 18:15:34:967,-0.820985,2.41986,-9.48155,-14.2431,-4.84941,64.0164
2023-03-14 18:15:34:977,-0.827973,2.411,-9.46519,-14.2415,-4.84662,64.0217
2023-03-14 18:15:34:987,-0.825058,2.39805,-9.42963,-14.2366,-4.84739,64.0247
2023-03-14 18:15:34:997,-0.827759,2.38752,-9.42387,-14.2356,-4.84534,64.032
2023-03-14 18:15:35:7,-0.828361,2.40409,-9.43661,-14.2335,-4.84218,64.0345
2023-03-14 18:15:35:17,-0.83296,2.40625,-9.4373,-14.2326,-4.83807,64.0384
2023-03-14 18:15:35:27,-0.830117,2.40168,-9.4468,-14.2307,-4.84004,64.0379
2023-03-14 18:15:35:37,-0.837214,2.41618,-9.44859,-14.2341,-4.83904,64.0358
2023-03-14 18:15:35:47,-0.827755,2.42019,-9.44951,-14.2356,-4.83597,64.0329
2023-03-14 18:15:35:57,-0.808682,2.41956,-9.44785,-14.2362,-4.83417,64.0295
2023-03-14 18:15:35:67,-0.802549,2.4116,-9.46264,-14.2368,-4.82845,64.021
2023-03-14 18:15:35:77,-0.78828,2.41824,-9.47507,-14.2395,-4.82685,64.0113
2023-03-14 18:15:35:87,-0.776284,2.42157,-9.49177,-14.2432,-4.82641,64.0045
2023-03-14 18:15:35:97,-0.776041,2.41665,-9.48469,-14.243,-4.82561,63.9963
2023-03-14 18:15:35:107,-0.774524,2.40123,-9.46702,-14.2471,-4.81937,63.9858
2023-03-14 18:15:35:117,-0.779231,2.40596,-9.45709,-14.2467,-4.81405,63.9816
2023-03-14 18:15:35:127,-0.773046,2.41789,-9.4698,-14.2493,-4.81165,63.9792
2023-03-14 18:15:35:137,-0.767318,2.43363,-9.49785,-14.2505,-4.80495,63.9778
2023-03-14 18:15:35:147,-0.778053,2.4368,-9.50165,-14.2511,-4.79785,63.9757
2023-03-14 18:15:35:157,-0.769013,2.42716,-9.49423,-14.2499,-4.79157,63.9781
2023-03-14 18:15:35:167,-0.790993,2.45238,-9.5089,-14.2433,-4.78829,63.9815
2023-03-14 18:15:35:177,-0.804197,2.46276,-9.51287,-14.2366,-4.78399,63.9865
2023-03-14 18:15:35:187,-0.797065,2.44766,-9.48495,-14.2265,-4.78029,63.9895
2023-03-14 18:15:35:197,-0.780831,2.41742,-9.47921,-14.2134,-4.77658,63.9927
2023-03-14 18:15:35:207,-0.787255,2.41313,-9.48228,-14.203,-4.77413,63.9961
2023-03-14 18:15:35:217,-0.807524,2.44523,-9.48791,-14.1974,-4.77215,64.0023
2023-03-14 18:15:35:228,-0.796538,2.43512,-9.47897,-14.1866,-4.7753,64.008
2023-03-14 18:15:35:237,-0.791723,2.4068,-9.48261,-14.1774,-4.78061,64.0139
2023-03-14 18:15:35:248,-0.799824,2.40127,-9.45077,-14.1674,-4.78194,64.0203
2023-03-14 18:15:35:257,-0.833914,2.409,-9.46481,-14.1544,-4.78309,64.025
2023-03-14 18:15:35:267,-0.840786,2.46154,-9.51273,-14.1409,-4.77719,64.0324
2023-03-14 18:15:35:277,-0.816946,2.43675,-9.49597,-14.1192,-4.76786,64.0348
2023-03-14 18:15:35:287,-0.790525,2.36701,-9.41872,-14.092,-4.75892,64.0351
2023-03-14 18:15:35:297,-0.77819,2.31641,-9.3592,-14.0693,-4.75508,64.0392
2023-03-14 18:15:35:307,-0.815714,2.29764,-9.34865,-14.0548,-4.75768,64.0438
2023-03-14 18:15:35:317,-0.843886,2.37638,-9.43722,-14.0561,-4.76085,64.0505
2023-03-14 18:15:35:327,-0.854371,2.42094,-9.49122,-14.0527,-4.76227,64.0581
2023-03-14 18:15:35:337,-0.839182,2.36899,-9.44981,-14.0433,-4.76206,64.0582
2023-03-14 18:15:35:347,-0.80441,2.33081,-9.40218,-14.0355,-4.76454,64.0575
2023-03-14 18:15:35:357,-0.787122,2.33509,-9.40977,-14.0333,-4.76673,64.0624
2023-03-14 18:15:35:367,-0.809712,2.35421,-9.43576,-14.0343,-4.76764,64.0604
2023-03-14 18:15:35:377,-0.82007,2.37171,-9.45165,-14.0332,-4.77073,64.0593
2023-03-14 18:15:35:387,-0.805168,2.37229,-9.49214,-14.0327,-4.77168,64.059
2023-03-14 18:15:35:397,-0.784108,2.39366,-9.50804,-14.0319,-4.77165,64.0578
2023-03-14 18:15:35:407,-0.775455,2.39879,-9.50873,-14.0308,-4.76916,64.0555
2023-03-14 18:15:35:417,-0.75503,2.37403,-9.50776,-14.0262,-4.76715,64.0548
2023-03-14 18:15:35:427,-0.748412,2.36542,-9.51226,-14.0229,-4.76726,64.0571
2023-03-14 18:15:35:437,-0.777041,2.39842,-9.51578,-14.0228,-4.76824,64.0642
2023-03-14 18:15:35:448,-0.822336,2.41484,-9.50419,-14.0195,-4.76981,64.0748
2023-03-14 18:15:35:457,-0.850508,2.39908,-9.49837,-14.0169,-4.7699,64.0839
2023-03-14 18:15:35:467,-0.858381,2.40514,-9.47065,-14.0144,-4.77112,64.0929
2023-03-14 18:15:35:477,-0.861634,2.41995,-9.46338,-14.0133,-4.76574,64.0982
2023-03-14 18:15:35:487,-0.869737,2.42932,-9.45248,-14.0081,-4.76167,64.1044
2023-03-14 18:15:35:497,-0.875938,2.42287,-9.43728,-13.9997,-4.76165,64.1074
2023-03-14 18:15:35:507,-0.862588,2.39917,-9.4132,-13.9917,-4.75681,64.1094
2023-03-14 18:15:35:517,-0.853743,2.3911,-9.3988,-13.9833,-4.75085,64.1083
2023-03-14 18:15:35:527,-0.841074,2.3847,-9.40913,-13.976,-4.74637,64.106
2023-03-14 18:15:35:537,-0.834024,2.38685,-9.42147,-13.9722,-4.74758,64.1029
2023-03-14 18:15:35:547,-0.802541,2.39004,-9.43626,-13.9735,-4.74491,64.0945
2023-03-14 18:15:35:557,-0.792126,2.40936,-9.45838,-13.9776,-4.74195,64.0862
2023-03-14 18:15:35:568,-0.799764,2.4278,-9.50871,-13.9808,-4.73771,64.08
2023-03-14 18:15:35:577,-0.783697,2.44594,-9.52828,-13.9805,-4.73492,64.0762
2023-03-14 18:15:35:587,-0.773363,2.43808,-9.51901,-13.979,-4.73115,64.0705
2023-03-14 18:15:35:597,-0.761188,2.43142,-9.51976,-13.9799,-4.7267,64.0658
2023-03-14 18:15:35:607,-0.749072,2.42518,-9.50776,-13.9781,-4.72474,64.0643
2023-03-14 18:15:35:617,-0.757152,2.42137,-9.48307,-13.9757,-4.71998,64.0637
2023-03-14 18:15:35:627,-0.768403,2.41081,-9.46862,-13.9736,-4.71623,64.0619
2023-03-14 18:15:35:637,-0.78372,2.37843,-9.45645,-13.9689,-4.71176,64.0628
2023-03-14 18:15:35:647,-0.821797,2.36611,-9.44007,-13.9614,-4.70815,64.0658
2023-03-14 18:15:35:657,-0.810525,2.37709,-9.46151,-13.9578,-4.70437,64.0652
2023-03-14 18:15:35:667,-0.769616,2.39659,-9.51374,-13.9536,-4.69924,64.0597
2023-03-14 18:15:35:677,-0.711734,2.40084,-9.54698,-13.9455,-4.69222,64.0532
2023-03-14 18:15:35:687,-0.692519,2.36988,-9.51967,-13.9343,-4.69134,64.0512
2023-03-14 18:15:35:697,-0.720208,2.33235,-9.48828,-13.9205,-4.6924,64.051
2023-03-14 18:15:35:707,-0.768694,2.32605,-9.47111,-13.9092,-4.69543,64.0538
2023-03-14 18:15:35:717,-0.783147,2.32558,-9.46836,-13.9,-4.70134,64.0576
2023-03-14 18:15:35:727,-0.780159,2.32617,-9.45492,-13.8929,-4.7052,64.0663
2023-03-14 18:15:35:737,-0.792933,2.32086,-9.45728,-13.8861,-4.71043,64.0751
2023-03-14 18:15:35:747,-0.797454,2.34414,-9.46279,-13.8828,-4.71308,64.0821
2023-03-14 18:15:35:757,-0.795092,2.33271,-9.46795,-13.876,-4.71447,64.0884
2023-03-14 18:15:35:767,-0.791535,2.32975,-9.45709,-13.8701,-4.71316,64.0938
2023-03-14 18:15:35:777,-0.792133,2.3344,-9.45759,-13.868,-4.71348,64.099
2023-03-14 18:15:35:787,-0.798929,2.33403,-9.45274,-13.8648,-4.7175,64.1049
2023-03-14 18:15:35:798,-0.796,2.32875,-9.44219,-13.857,-4.72297,64.1118
2023-03-14 18:15:35:808,-0.788162,2.31483,-9.45965,-13.8536,-4.72689,64.1136
2023-03-14 18:15:35:817,-0.794273,2.2912,-9.45711,-13.8496,-4.73219,64.119
2023-03-14 18:15:35:828,-0.80943,2.298,-9.44636,-13.8461,-4.73287,64.1234
2023-03-14 18:15:35:837,-0.80934,2.32068,-9.44696,-13.845,-4.73721,64.1272
2023-03-14 18:15:35:848,-0.794344,2.32266,-9.46189,-13.843,-4.73956,64.1354
2023-03-14 18:15:35:857,-0.790673,2.32633,-9.48508,-13.844,-4.73877,64.1406
2023-03-14 18:15:35:867,-0.806986,2.33053,-9.47999,-13.8464,-4.74397,64.1473
2023-03-14 18:15:35:877,-0.814906,2.33486,-9.47026,-13.8484,-4.74908,64.1561
2023-03-14 18:15:35:887,-0.820357,2.35552,-9.48273,-13.853,-4.74967,64.1624
2023-03-14 18:15:35:897,-0.830214,2.37022,-9.48805,-13.8575,-4.75087,64.1693
2023-03-14 18:15:35:907,-0.845607,2.36398,-9.4756,-13.8611,-4.74723,64.1737
2023-03-14 18:15:35:917,-0.836674,2.36634,-9.46102,-13.8619,-4.74571,64.1797
2023-03-14 18:15:35:927,-0.830625,2.36233,-9.46212,-13.8666,-4.74199,64.1847
2023-03-14 18:15:35:937,-0.838805,2.38218,-9.47601,-13.8719,-4.7379,64.1853
2023-03-14 18:15:35:947,-0.836294,2.39671,-9.5042,-13.8753,-4.7364,64.1827
2023-03-14 18:15:35:957,-0.827094,2.38013,-9.50405,-13.8766,-4.73394,64.1806
2023-03-14 18:15:35:967,-0.81947,2.38467,-9.51307,-13.8768,-4.72873,64.1756
2023-03-14 18:15:35:977,-0.788726,2.3881,-9.49607,-13.8735,-4.72671,64.1728
2023-03-14 18:15:35:987,-0.772471,2.39522,-9.48913,-13.8705,-4.72584,64.1714
2023-03-14 18:15:35:997,-0.777415,2.3905,-9.49767,-13.8654,-4.72584,64.1632
2023-03-14 18:15:36:7,-0.773328,2.38015,-9.49806,-13.8621,-4.72855,64.1605
2023-03-14 18:15:36:17,-0.763185,2.37267,-9.49254,-13.859,-4.72617,64.1578
2023-03-14 18:15:36:28,-0.761006,2.37704,-9.4873,-13.8495,-4.72593,64.1527
2023-03-14 18:15:36:37,-0.789318,2.3763,-9.47751,-13.8436,-4.72603,64.1497
2023-03-14 18:15:36:47,-0.789256,2.3612,-9.48068,-13.8399,-4.72625,64.1444
2023-03-14 18:15:36:57,-0.766891,2.35372,-9.47552,-13.8337,-4.72693,64.1429
2023-03-14 18:15:36:67,-0.764846,2.3628,-9.46268,-13.8271,-4.7234,64.1424
2023-03-14 18:15:36:77,-0.773608,2.35578,-9.45793,-13.8239,-4.72581,64.1434
2023-03-14 18:15:36:87,-0.776798,2.34758,-9.46029,-13.8201,-4.72811,64.1436
2023-03-14 18:15:36:97,-0.780783,2.35963,-9.47808,-13.8197,-4.73015,64.1471
2023-03-14 18:15:36:107,-0.775568,2.3529,-9.50789,-13.8167,-4.72908,64.1477
2023-03-14 18:15:36:117,-0.788009,2.37092,-9.47838,-13.8104,-4.73361,64.1493
2023-03-14 18:15:36:127,-0.786049,2.36225,-9.45881,-13.805,-4.73993,64.1549
2023-03-14 18:15:36:137,-0.759042,2.33546,-9.4514,-13.8003,-4.74508,64.1552
2023-03-14 18:15:36:147,-0.779185,2.34808,-9.46798,-13.7987,-4.75105,64.1573
2023-03-14 18:15:36:157,-0.808994,2.37068,-9.47679,-13.7972,-4.75417,64.1624
2023-03-14 18:15:36:167,-0.794903,2.36723,-9.47822,-13.7959,-4.76261,64.1703
2023-03-14 18:15:36:177,-0.803067,2.36413,-9.4747,-13.7947,-4.76641,64.1769
2023-03-14 18:15:36:188,-0.816994,2.36387,-9.47716,-13.7918,-4.7713,64.1851
2023-03-14 18:15:36:197,-0.842021,2.35642,-9.4853,-13.79,-4.77526,64.1931
2023-03-14 18:15:36:208,-0.866322,2.34438,-9.4651,-13.7868,-4.77636,64.2057
2023-03-14 18:15:36:217,-0.869788,2.33808,-9.45984,-13.7869,-4.77875,64.2128
2023-03-14 18:15:36:227,-0.859304,2.32673,-9.47677,-13.7816,-4.78044,64.219
2023-03-14 18:15:36:237,-0.852038,2.32894,-9.47118,-13.7784,-4.77929,64.2205
2023-03-14 18:15:36:247,-0.871994,2.32086,-9.45787,-13.7748,-4.77834,64.2246
2023-03-14 18:15:36:257,-0.887479,2.33041,-9.45491,-13.7718,-4.78047,64.2206
2023-03-14 18:15:36:268,-0.871228,2.36944,-9.52028,-13.7726,-4.77697,64.2178
2023-03-14 18:15:36:277,-0.833897,2.36955,-9.53975,-13.7592,-4.7648,64.2125
2023-03-14 18:15:36:288,-0.807778,2.33648,-9.50446,-13.7416,-4.75049,64.2027
2023-03-14 18:15:36:297,-0.782577,2.27798,-9.44129,-13.7221,-4.73608,64.1923
2023-03-14 18:15:36:308,-0.765071,2.22357,-9.38171,-13.7143,-4.73812,64.1822
2023-03-14 18:15:36:317,-0.781705,2.31122,-9.50236,-13.7153,-4.73482,64.1785
2023-03-14 18:15:36:327,-0.782912,2.35716,-9.58423,-13.7172,-4.73133,64.174
2023-03-14 18:15:36:337,-0.74965,2.32248,-9.51963,-13.712,-4.72598,64.1665
2023-03-14 18:15:36:347,-0.719221,2.26995,-9.46208,-13.7036,-4.72468,64.16
2023-03-14 18:15:36:357,-0.722357,2.25937,-9.46045,-13.6981,-4.72566,64.1575
2023-03-14 18:15:36:367,-0.768829,2.30479,-9.48446,-13.703,-4.731,64.1583
2023-03-14 18:15:36:377,-0.812769,2.33531,-9.49592,-13.7094,-4.73391,64.1607
2023-03-14 18:15:36:387,-0.830138,2.33263,-9.49808,-13.713,-4.73588,64.1625
2023-03-14 18:15:36:397,-0.806697,2.32358,-9.46703,-13.7142,-4.73376,64.168
2023-03-14 18:15:36:408,-0.806682,2.32393,-9.44277,-13.7115,-4.73215,64.1714
2023-03-14 18:15:36:417,-0.81059,2.31557,-9.43538,-13.713,-4.73195,64.1767
2023-03-14 18:15:36:428,-0.82017,2.32331,-9.41909,-13.7123,-4.73316,64.175
2023-03-14 18:15:36:437,-0.820577,2.30944,-9.41959,-13.7173,-4.72967,64.1744
2023-03-14 18:15:36:447,-0.796041,2.30606,-9.42194,-13.7197,-4.72954,64.1724
2023-03-14 18:15:36:457,-0.795525,2.31891,-9.44992,-13.7247,-4.73071,64.169
2023-03-14 18:15:36:467,-0.802935,2.33946,-9.4674,-13.732,-4.72933,64.1652
2023-03-14 18:15:36:477,-0.812634,2.3444,-9.49167,-13.7378,-4.72723,64.1614
2023-03-14 18:15:36:487,-0.798357,2.36412,-9.51236,-13.7451,-4.72629,64.1563
2023-03-14 18:15:36:497,-0.794309,2.38027,-9.52888,-13.7502,-4.71926,64.1493
2023-03-14 18:15:36:507,-0.800449,2.38218,-9.53037,-13.7563,-4.71535,64.1428
2023-03-14 18:15:36:517,-0.799568,2.39218,-9.52256,-13.7632,-4.70946,64.1362
2023-03-14 18:15:36:527,-0.782006,2.37044,-9.51492,-13.7679,-4.70656,64.1306
2023-03-14 18:15:36:537,-0.757385,2.37684,-9.49752,-13.7684,-4.70374,64.1233
2023-03-14 18:15:36:547,-0.757051,2.37734,-9.49525,-13.7715,-4.70155,64.1157
2023-03-14 18:15:36:557,-0.780173,2.37617,-9.49014,-13.7698,-4.70341,64.1105
2023-03-14 18:15:36:567,-0.829447,2.35819,-9.46949,-13.7679,-4.70324,64.1079
2023-03-14 18:15:36:577,-0.837441,2.35679,-9.45292,-13.7645,-4.70007,64.1043
2023-03-14 18:15:36:587,-0.808904,2.36783,-9.47843,-13.7638,-4.69353,64.1
2023-03-14 18:15:36:597,-0.735085,2.35985,-9.51958,-13.7585,-4.68615,64.0883
2023-03-14 18:15:36:607,-0.685955,2.34002,-9.51618,-13.7535,-4.67978,64.081
2023-03-14 18:15:36:617,-0.713422,2.33029,-9.4863,-13.7495,-4.67872,64.0747
2023-03-14 18:15:36:627,-0.755306,2.31851,-9.4936,-13.746,-4.68069,64.0709
2023-03-14 18:15:36:637,-0.767454,2.30592,-9.49397,-13.7431,-4.68459,64.0694
2023-03-14 18:15:36:647,-0.765555,2.30463,-9.49951,-13.7383,-4.68865,64.0665
2023-03-14 18:15:36:657,-0.764451,2.32373,-9.49731,-13.7402,-4.69149,64.068
2023-03-14 18:15:36:667,-0.754781,2.34973,-9.50476,-13.7377,-4.69268,64.0684
2023-03-14 18:15:36:677,-0.761371,2.35949,-9.50702,-13.7365,-4.69393,64.0703
2023-03-14 18:15:36:687,-0.778287,2.34478,-9.47941,-13.7359,-4.6955,64.071
2023-03-14 18:15:36:697,-0.782467,2.33164,-9.46802,-13.7304,-4.69875,64.0773
2023-03-14 18:15:36:707,-0.79824,2.3292,-9.47214,-13.7255,-4.69975,64.0831
2023-03-14 18:15:36:717,-0.818069,2.3189,-9.4654,-13.7215,-4.70472,64.0863
2023-03-14 18:15:36:727,-0.822077,2.30312,-9.44312,-13.7164,-4.70583,64.0911
2023-03-14 18:15:36:737,-0.814462,2.30713,-9.43202,-13.7141,-4.71068,64.0938
2023-03-14 18:15:36:747,-0.804606,2.29926,-9.44418,-13.7099,-4.71431,64.0938
2023-03-14 18:15:36:757,-0.79141,2.30992,-9.44526,-13.7096,-4.71949,64.0924
2023-03-14 18:15:36:767,-0.779633,2.31287,-9.4484,-13.7114,-4.72616,64.0884
2023-03-14 18:15:36:777,-0.782138,2.30003,-9.47193,-13.7105,-4.72922,64.091
2023-03-14 18:15:36:787,-0.783871,2.30417,-9.4966,-13.7117,-4.73378,64.0933
2023-03-14 18:15:36:797,-0.785619,2.32652,-9.49743,-13.7143,-4.73354,64.0918
2023-03-14 18:15:36:807,-0.801766,2.35018,-9.49559,-13.7203,-4.7337,64.0941
2023-03-14 18:15:36:817,-0.80508,2.347,-9.50171,-13.7245,-4.73209,64.0956
2023-03-14 18:15:36:827,-0.822845,2.34886,-9.4986,-13.7271,-4.73479,64.0972
2023-03-14 18:15:36:837,-0.821692,2.35261,-9.49117,-13.7283,-4.73479,64.106
2023-03-14 18:15:36:847,-0.827744,2.35977,-9.47751,-13.7266,-4.73154,64.1084
2023-03-14 18:15:36:857,-0.839793,2.36381,-9.47205,-13.7283,-4.72631,64.1138
2023-03-14 18:15:36:867,-0.844448,2.35947,-9.47433,-13.728,-4.72161,64.1148
2023-03-14 18:15:36:877,-0.841206,2.35941,-9.47055,-13.7272,-4.71749,64.1146
2023-03-14 18:15:36:887,-0.834983,2.35404,-9.48244,-13.7274,-4.71439,64.1102
2023-03-14 18:15:36:897,-0.823451,2.35884,-9.48413,-13.7304,-4.70923,64.1056
2023-03-14 18:15:36:907,-0.816549,2.34543,-9.48746,-13.7339,-4.7064,64.0948
2023-03-14 18:15:36:917,-0.799953,2.34934,-9.49073,-13.7335,-4.70486,64.0846
2023-03-14 18:15:36:927,-0.792163,2.3507,-9.47987,-13.7321,-4.70326,64.0737
2023-03-14 18:15:36:937,-0.784179,2.3542,-9.4742,-13.7309,-4.69791,64.0613
2023-03-14 18:15:36:947,-0.765675,2.34953,-9.4777,-13.7302,-4.69299,64.0528
2023-03-14 18:15:36:957,-0.734169,2.33985,-9.47725,-13.7293,-4.68669,64.0428
2023-03-14 18:15:36:967,-0.743513,2.3441,-9.487,-13.7307,-4.68224,64.0323
2023-03-14 18:15:36:977,-0.743396,2.34575,-9.49139,-13.7297,-4.67754,64.0243
2023-03-14 18:15:36:987,-0.733618,2.34426,-9.48694,-13.7287,-4.67363,64.0186
2023-03-14 18:15:36:997,-0.748491,2.34087,-9.48866,-13.7277,-4.66591,64.013
2023-03-14 18:15:37:7,-0.753464,2.33621,-9.47925,-13.7297,-4.66295,64.0102
2023-03-14 18:15:37:17,-0.757936,2.32978,-9.49176,-13.7275,-4.6619,64.0094
2023-03-14 18:15:37:27,-0.766175,2.32692,-9.488,-13.7252,-4.66076,64.007
2023-03-14 18:15:37:37,-0.766649,2.33637,-9.48942,-13.7218,-4.65703,64.0077
