Timestamp,Acceleration_x,Acceleration_y,Acceleration_z,roll,pitch,yaw
2023-03-11 22:47:13:824,-0.369947,1.0444,-9.70469,-6.03922,-2.19257,-45.9764
2023-03-11 22:47:13:834,-0.324911,1.08029,-9.75201,-6.03597,-2.17926,-45.9809
2023-03-11 22:47:13:844,-0.380909,1.02186,-9.69448,-6.03144,-2.16471,-45.9844
2023-03-11 22:47:13:855,-0.3777,0.993138,-9.68739,-6.0251,-2.14585,-45.9847
2023-03-11 22:47:13:864,-0.331681,1.06526,-9.75624,-6.02296,-2.13181,-45.9846
2023-03-11 22:47:13:874,-0.34289,1.06934,-9.75565,-6.02371,-2.11662,-45.9856
2023-03-11 22:47:13:884,-0.357498,1.02099,-9.69529,-6.02066,-2.10471,-45.9885
2023-03-11 22:47:13:894,-0.34511,1.01705,-9.67624,-6.01607,-2.0953,-45.9943
2023-03-11 22:47:13:904,-0.312766,1.03602,-9.71312,-6.0143,-2.08644,-46.0038
2023-03-11 22:47:13:914,-0.309347,1.04041,-9.73663,-6.01259,-2.08206,-46.0132
2023-03-11 22:47:13:924,-0.32072,1.04683,-9.72437,-6.01313,-2.08169,-46.0244
2023-03-11 22:47:13:934,-0.301629,1.02154,-9.71949,-6.01293,-2.08639,-46.0372
2023-03-11 22:47:13:944,-0.287814,1.01072,-9.73142,-6.01311,-2.08731,-46.0444
2023-03-11 22:47:13:954,-0.291572,1.01066,-9.73885,-6.00901,-2.09274,-46.0501
2023-03-11 22:47:13:965,-0.303676,1.01561,-9.75174,-6.0085,-2.10143,-46.0519
2023-03-11 22:47:13:974,-0.320144,1.0189,-9.74931,-6.00932,-2.1074,-46.054
2023-03-11 22:47:13:984,-0.338443,1.02636,-9.75906,-6.00973,-2.11744,-46.0529
2023-03-11 22:47:13:994,-0.33247,1.04098,-9.75465,-6.00609,-2.12125,-46.0449
2023-03-11 22:47:14:4,-0.347529,1.04943,-9.73952,-5.99857,-2.1283,-46.0373
2023-03-11 22:47:14:14,-0.367608,1.03291,-9.72835,-5.99331,-2.13353,-46.0294
2023-03-11 22:47:14:24,-0.383867,1.03677,-9.70475,-5.9866,-2.13647,-46.0215
2023-03-11 22:47:14:34,-0.410695,1.0455,-9.72489,-5.98222,-2.14098,-46.0078
2023-03-11 22:47:14:44,-0.425666,1.03741,-9.7453,-5.97994,-2.14336,-45.9987
2023-03-11 22:47:14:54,-0.4338,1.05408,-9.77605,-5.97583,-2.14565,-45.9907
2023-03-11 22:47:14:64,-0.438631,1.09543,-9.81882,-5.97008,-2.15163,-45.9891
2023-03-11 22:47:14:74,-0.4458,1.10276,-9.80312,-5.96016,-2.15734,-45.9919
2023-03-11 22:47:14:84,-0.453693,1.02729,-9.71493,-5.93743,-2.15793,-45.9964
2023-03-11 22:47:14:94,-0.423996,0.979986,-9.66395,-5.91729,-2.15745,-46.001
2023-03-11 22:47:14:104,-0.378699,0.993006,-9.68373,-5.9011,-2.15292,-46.0103
2023-03-11 22:47:14:114,-0.340919,0.995098,-9.6851,-5.88869,-2.15481,-46.0198
2023-03-11 22:47:14:124,-0.348631,0.97582,-9.6786,-5.87542,-2.15811,-46.0299
2023-03-11 22:47:14:134,-0.360277,0.975757,-9.66541,-5.86766,-2.1616,-46.0398
2023-03-11 22:47:14:144,-0.362311,0.972498,-9.6821,-5.86135,-2.16571,-46.0504
2023-03-11 22:47:14:154,-0.344742,0.983753,-9.71098,-5.8563,-2.16978,-46.0603
2023-03-11 22:47:14:164,-0.332129,0.989383,-9.7199,-5.8512,-2.17187,-46.0678
2023-03-11 22:47:14:174,-0.330462,0.980412,-9.71874,-5.84534,-2.1731,-46.0743
2023-03-11 22:47:14:184,-0.366461,0.971067,-9.72229,-5.84151,-2.17724,-46.0821
2023-03-11 22:47:14:194,-0.405789,0.98693,-9.73162,-5.83579,-2.18387,-46.0924
2023-03-11 22:47:14:204,-0.406796,0.981491,-9.71933,-5.83036,-2.19327,-46.1079
2023-03-11 22:47:14:214,-0.412467,0.956616,-9.681,-5.82354,-2.20244,-46.1256
2023-03-11 22:47:14:225,-0.43317,0.937704,-9.67866,-5.81945,-2.21464,-46.1485
2023-03-11 22:47:14:234,-0.465572,0.954946,-9.69594,-5.81858,-2.22949,-46.1758
2023-03-11 22:47:14:245,-0.536173,0.981693,-9.7271,-5.81758,-2.24703,-46.2092
2023-03-11 22:47:14:254,-0.692716,1.02272,-9.7725,-5.81781,-2.26963,-46.2528
2023-03-11 22:47:14:264,-0.7692,1.06857,-9.81073,-5.81762,-2.29773,-46.3217
2023-03-11 22:47:14:274,-0.721558,1.05489,-9.8406,-5.81436,-2.32675,-46.4108
2023-03-11 22:47:14:285,-0.66086,1.04522,-9.82926,-5.80496,-2.36168,-46.5182
2023-03-11 22:47:14:294,-0.704727,1.02218,-9.79922,-5.79199,-2.40536,-46.6385
2023-03-11 22:47:14:304,-0.902697,1.03086,-9.76483,-5.77785,-2.46236,-46.7731
2023-03-11 22:47:14:314,-1.14496,1.07568,-9.74045,-5.76541,-2.53401,-46.9424
2023-03-11 22:47:14:324,-1.30678,1.11253,-9.76516,-5.75435,-2.61478,-47.1571
2023-03-11 22:47:14:334,-1.40914,1.14847,-9.81913,-5.73976,-2.70696,-47.4205
2023-03-11 22:47:14:344,-1.45997,1.22579,-9.85251,-5.72607,-2.80733,-47.7387
2023-03-11 22:47:14:355,-1.48349,1.18824,-9.83365,-5.69838,-2.91708,-48.112
2023-03-11 22:47:14:364,-1.49437,1.16694,-9.77889,-5.65988,-3.03899,-48.5323
2023-03-11 22:47:14:374,-1.50058,1.17324,-9.75192,-5.62158,-3.16514,-49.0012
2023-03-11 22:47:14:384,-1.5026,1.14967,-9.74098,-5.5786,-3.30734,-49.5167
2023-03-11 22:47:14:394,-1.4861,1.12694,-9.73682,-5.527,-3.45112,-50.0782
2023-03-11 22:47:14:404,-1.46421,1.11026,-9.73802,-5.46845,-3.6036,-50.684
2023-03-11 22:47:14:415,-1.45278,1.08995,-9.75378,-5.40491,-3.75961,-51.3274
2023-03-11 22:47:14:424,-1.52634,1.09592,-9.74501,-5.33634,-3.92311,-52.0124
2023-03-11 22:47:14:435,-1.53745,1.0897,-9.72888,-5.26348,-4.09792,-52.7392
2023-03-11 22:47:14:444,-1.4207,1.04857,-9.73597,-5.1863,-4.27516,-53.507
2023-03-11 22:47:14:454,-1.33447,1.02152,-9.72408,-5.10245,-4.45749,-54.3052
2023-03-11 22:47:14:464,-1.33154,1.03867,-9.71584,-5.0222,-4.64522,-55.1318
2023-03-11 22:47:14:474,-1.35487,1.05875,-9.67787,-4.93848,-4.8449,-55.9883
2023-03-11 22:47:14:484,-1.31963,1.00709,-9.63204,-4.85311,-5.04544,-56.8801
2023-03-11 22:47:14:494,-1.3322,0.96844,-9.59131,-4.76534,-5.25067,-57.7915
2023-03-11 22:47:14:505,-1.46178,1.01732,-9.62769,-4.68545,-5.4603,-58.7248
2023-03-11 22:47:14:514,-1.48215,1.08501,-9.71636,-4.60773,-5.67404,-59.6926
2023-03-11 22:47:14:524,-1.41991,1.09961,-9.74979,-4.52021,-5.8879,-60.6892
2023-03-11 22:47:14:534,-1.45795,1.09993,-9.75873,-4.429,-6.10405,-61.705
2023-03-11 22:47:14:544,-1.43276,1.09558,-9.77277,-4.32616,-6.31729,-62.746
2023-03-11 22:47:14:554,-1.23189,1.03175,-9.77608,-4.21719,-6.519,-63.8022
2023-03-11 22:47:14:564,-1.11859,0.979365,-9.7249,-4.098,-6.71822,-64.8565
2023-03-11 22:47:14:574,-1.1752,0.91488,-9.65777,-3.97778,-6.92115,-65.9115
2023-03-11 22:47:14:584,-1.33652,0.922431,-9.60529,-3.85623,-7.12398,-66.9728
2023-03-11 22:47:14:594,-1.45698,0.92005,-9.61579,-3.73442,-7.32278,-68.0462
2023-03-11 22:47:14:604,-1.41144,0.921288,-9.6454,-3.61135,-7.5092,-69.1311
2023-03-11 22:47:14:614,-1.27414,0.866594,-9.61401,-3.48157,-7.67939,-70.2149
2023-03-11 22:47:14:624,-1.17479,0.767543,-9.57243,-3.34647,-7.83941,-71.2935
2023-03-11 22:47:14:634,-1.17761,0.751882,-9.56624,-3.22215,-7.99163,-72.3563
2023-03-11 22:47:14:644,-1.21171,0.746772,-9.59198,-3.10196,-8.13925,-73.4145
2023-03-11 22:47:14:655,-1.27675,0.772982,-9.67219,-2.98273,-8.28468,-74.4677
2023-03-11 22:47:14:664,-1.31683,0.846131,-9.77902,-2.8637,-8.42212,-75.5154
2023-03-11 22:47:14:674,-1.30609,0.887124,-9.85927,-2.73938,-8.54888,-76.5578
2023-03-11 22:47:14:684,-1.22879,0.833603,-9.85981,-2.6026,-8.66457,-77.5887
2023-03-11 22:47:14:694,-1.08906,0.722806,-9.79538,-2.45658,-8.76148,-78.6025
2023-03-11 22:47:14:704,-0.933543,0.607116,-9.73288,-2.30469,-8.84996,-79.589
2023-03-11 22:47:14:714,-0.884757,0.547979,-9.71093,-2.15398,-8.93187,-80.54
2023-03-11 22:47:14:725,-1.04327,0.535161,-9.71075,-2.01013,-9.00857,-81.4626
2023-03-11 22:47:14:734,-1.22135,0.566673,-9.75134,-1.87181,-9.08721,-82.366
2023-03-11 22:47:14:744,-1.34728,0.611624,-9.81006,-1.73957,-9.16125,-83.2571
2023-03-11 22:47:14:754,-1.46378,0.620476,-9.82983,-1.59579,-9.21851,-84.1354
2023-03-11 22:47:14:764,-1.52045,0.577727,-9.81832,-1.44431,-9.25677,-85.0123
2023-03-11 22:47:14:774,-1.53988,0.529743,-9.85414,-1.28481,-9.28775,-85.8809
2023-03-11 22:47:14:785,-1.565,0.569034,-9.92404,-1.11442,-9.31093,-86.7475
2023-03-11 22:47:14:794,-1.63306,0.570359,-9.91521,-0.929478,-9.33861,-87.6214
2023-03-11 22:47:14:804,-1.85824,0.510075,-9.78791,-0.728112,-9.37541,-88.5057
2023-03-11 22:47:14:814,-2.10386,0.482423,-9.65902,-0.518408,-9.41458,-89.4246
2023-03-11 22:47:14:824,-2.12737,0.394488,-9.5835,-0.294088,-9.45399,-90.3852
2023-03-11 22:47:14:834,-1.91487,0.244184,-9.5004,-0.062744,-9.4848,-91.3759
2023-03-11 22:47:14:844,-1.77154,0.142943,-9.46511,0.165971,-9.51516,-92.3811
2023-03-11 22:47:14:854,-1.78105,0.14752,-9.48492,0.386521,-9.5545,-93.3984
2023-03-11 22:47:14:864,-1.81977,0.162779,-9.49944,0.598054,-9.59658,-94.4269
2023-03-11 22:47:14:874,-1.95561,0.160227,-9.50102,0.807393,-9.64062,-95.4749
2023-03-11 22:47:14:884,-2.02408,0.163631,-9.52336,1.01598,-9.67795,-96.5403
2023-03-11 22:47:14:894,-1.86779,0.108671,-9.5795,1.2252,-9.70082,-97.6144
2023-03-11 22:47:14:904,-1.57137,0.0431007,-9.59509,1.43994,-9.70718,-98.6888
2023-03-11 22:47:14:915,-1.28357,-0.0573361,-9.58858,1.65485,-9.69541,-99.7442
2023-03-11 22:47:14:924,-1.17665,-0.130151,-9.52489,1.86522,-9.67919,-100.771
2023-03-11 22:47:14:934,-1.26517,-0.180705,-9.4531,2.06726,-9.6638,-101.777
2023-03-11 22:47:14:944,-1.41709,-0.220837,-9.39914,2.2582,-9.64956,-102.769
2023-03-11 22:47:14:954,-1.38801,-0.263865,-9.40799,2.43486,-9.63034,-103.753
2023-03-11 22:47:14:964,-1.19908,-0.342039,-9.4508,2.60367,-9.5922,-104.715
2023-03-11 22:47:14:974,-1.0241,-0.3797,-9.53074,2.75804,-9.54751,-105.648
2023-03-11 22:47:14:984,-0.979268,-0.3758,-9.59924,2.9025,-9.50095,-106.544
2023-03-11 22:47:14:994,-0.989132,-0.37274,-9.64873,3.03406,-9.45265,-107.411
2023-03-11 22:47:15:4,-0.974511,-0.408656,-9.65975,3.16066,-9.4039,-108.25
2023-03-11 22:47:15:14,-1.02923,-0.466785,-9.65758,3.28168,-9.36206,-109.057
2023-03-11 22:47:15:24,-1.08162,-0.47273,-9.65611,3.39468,-9.3198,-109.84
2023-03-11 22:47:15:34,-1.00998,-0.483041,-9.63538,3.49814,-9.27363,-110.591
2023-03-11 22:47:15:44,-0.882461,-0.533089,-9.58339,3.59556,-9.22465,-111.308
2023-03-11 22:47:15:58,-0.804396,-0.61461,-9.51416,3.68488,-9.17744,-111.997
2023-03-11 22:47:15:64,-0.810285,-0.608499,-9.51137,3.76256,-9.1345,-112.647
2023-03-11 22:47:15:74,-0.999397,-0.531691,-9.59273,3.8266,-9.10383,-113.267
2023-03-11 22:47:15:84,-1.25758,-0.450944,-9.65893,3.87974,-9.07958,-113.863
2023-03-11 22:47:15:94,-1.25494,-0.442251,-9.69568,3.93396,-9.05212,-114.447
2023-03-11 22:47:15:104,-0.935303,-0.530349,-9.71302,3.9944,-9.00909,-115.007
2023-03-11 22:47:15:114,-0.661887,-0.60618,-9.73773,4.05112,-8.95647,-115.524
2023-03-11 22:47:15:124,-0.694074,-0.61041,-9.74403,4.10784,-8.91784,-115.995
2023-03-11 22:47:15:134,-0.937186,-0.570577,-9.75216,4.15323,-8.90045,-116.439
2023-03-11 22:47:15:145,-1.17606,-0.536172,-9.76802,4.19731,-8.89059,-116.866
2023-03-11 22:47:15:154,-1.2615,-0.524239,-9.81629,4.24652,-8.88127,-117.282
2023-03-11 22:47:15:164,-1.11894,-0.527221,-9.86799,4.29732,-8.8648,-117.681
2023-03-11 22:47:15:174,-0.933923,-0.60498,-9.77467,4.3568,-8.85099,-118.062
2023-03-11 22:47:15:184,-0.881266,-0.738586,-9.6171,4.41765,-8.84592,-118.419
2023-03-11 22:47:15:194,-0.963088,-0.764437,-9.54455,4.46669,-8.84896,-118.756
2023-03-11 22:47:15:204,-1.1555,-0.703526,-9.62944,4.50258,-8.86426,-119.072
2023-03-11 22:47:15:214,-1.30785,-0.608818,-9.78292,4.52529,-8.89034,-119.378
2023-03-11 22:47:15:224,-1.27844,-0.563291,-9.88896,4.55575,-8.90546,-119.672
2023-03-11 22:47:15:235,-1.13122,-0.59819,-9.88009,4.60116,-8.91123,-119.952
2023-03-11 22:47:15:245,-1.02033,-0.671049,-9.78106,4.65431,-8.92131,-120.214
2023-03-11 22:47:15:254,-1.07719,-0.75036,-9.66183,4.71181,-8.94093,-120.465
2023-03-11 22:47:15:264,-1.22808,-0.783308,-9.57011,4.76304,-8.97014,-120.701
2023-03-11 22:47:15:274,-1.39151,-0.751773,-9.58853,4.80418,-8.99708,-120.922
2023-03-11 22:47:15:284,-1.51099,-0.721645,-9.66624,4.84152,-9.01777,-121.139
2023-03-11 22:47:15:294,-1.49513,-0.699473,-9.7441,4.87348,-9.02462,-121.341
2023-03-11 22:47:15:304,-1.33949,-0.715778,-9.77787,4.91391,-9.02377,-121.529
2023-03-11 22:47:15:314,-1.20317,-0.800723,-9.72936,4.9639,-9.0125,-121.701
2023-03-11 22:47:15:324,-1.15705,-0.855501,-9.67275,5.01283,-8.99928,-121.85
2023-03-11 22:47:15:334,-1.23228,-0.835092,-9.65227,5.05861,-8.98957,-121.978
2023-03-11 22:47:15:344,-1.37826,-0.795718,-9.65241,5.0969,-8.97679,-122.092
2023-03-11 22:47:15:354,-1.38183,-0.809546,-9.6678,5.13741,-8.95938,-122.195
2023-03-11 22:47:15:364,-1.20183,-0.863269,-9.65853,5.18059,-8.92712,-122.279
2023-03-11 22:47:15:374,-0.957151,-0.958969,-9.63828,5.22321,-8.86993,-122.333
2023-03-11 22:47:15:384,-0.726981,-1.03436,-9.60412,5.2586,-8.80346,-122.346
2023-03-11 22:47:15:394,-0.584311,-1.07011,-9.59146,5.28426,-8.73982,-122.319
2023-03-11 22:47:15:404,-0.507962,-1.02644,-9.63931,5.29838,-8.67703,-122.243
2023-03-11 22:47:15:414,-0.513292,-0.950598,-9.75292,5.30041,-8.62269,-122.122
2023-03-11 22:47:15:424,-0.65706,-0.879416,-9.8081,5.29836,-8.57941,-121.962
2023-03-11 22:47:15:434,-0.755222,-0.837792,-9.77945,5.29549,-8.54113,-121.766
2023-03-11 22:47:15:444,-0.667291,-0.865694,-9.72253,5.29374,-8.49332,-121.539
2023-03-11 22:47:15:454,-0.502908,-0.910604,-9.63044,5.29723,-8.44209,-121.272
2023-03-11 22:47:15:464,-0.340846,-0.997355,-9.51646,5.29625,-8.38482,-120.959
2023-03-11 22:47:15:474,-0.139783,-1.04371,-9.45803,5.27956,-8.33235,-120.597
2023-03-11 22:47:15:484,0.00381775,-0.981861,-9.57532,5.23496,-8.28548,-120.169
2023-03-11 22:47:15:495,-0.109705,-0.787165,-9.83197,5.16987,-8.24138,-119.664
2023-03-11 22:47:15:504,-0.413411,-0.520753,-10.1346,5.09177,-8.20188,-119.09
2023-03-11 22:47:15:514,-0.620438,-0.314496,-10.301,5.02683,-8.15574,-118.462
2023-03-11 22:47:15:524,-0.531614,-0.32151,-10.291,4.99215,-8.09344,-117.786
2023-03-11 22:47:15:534,-0.251453,-0.541245,-10.0672,4.98744,-8.01805,-117.063
2023-03-11 22:47:15:544,0.0504792,-0.816375,-9.77213,5.00361,-7.9473,-116.292
2023-03-11 22:47:15:554,0.428702,-1.0416,-9.54967,5.00968,-7.89023,-115.462
2023-03-11 22:47:15:564,0.881118,-1.16655,-9.47764,4.99378,-7.84628,-114.547
2023-03-11 22:47:15:574,1.1193,-1.17479,-9.45784,4.94035,-7.82921,-113.516
2023-03-11 22:47:15:584,0.877923,-1.00159,-9.35653,4.8417,-7.83874,-112.359
2023-03-11 22:47:15:594,0.267493,-0.762586,-9.27379,4.70486,-7.86007,-111.085
2023-03-11 22:47:15:604,-0.381278,-0.470108,-9.30691,4.53195,-7.86998,-109.727
2023-03-11 22:47:15:614,-0.788631,-0.155027,-9.5094,4.33366,-7.8385,-108.309
2023-03-11 22:47:15:625,-1.11893,0.0722088,-9.76557,4.13308,-7.77173,-106.848
2023-03-11 22:47:15:634,-1.5432,0.208057,-9.83974,3.94885,-7.67883,-105.365
2023-03-11 22:47:15:644,-1.73573,0.119462,-9.73674,3.79233,-7.56654,-103.886
2023-03-11 22:47:15:654,-1.6025,-0.0726006,-9.54393,3.64982,-7.42639,-102.417
2023-03-11 22:47:15:664,-1.34642,-0.219784,-9.37155,3.50833,-7.25724,-100.933
2023-03-11 22:47:15:674,-1.20908,-0.279115,-9.20388,3.35312,-7.06724,-99.4205
2023-03-11 22:47:15:684,-1.36271,-0.235588,-9.09261,3.17084,-6.86014,-97.8834
2023-03-11 22:47:15:694,-1.86344,0.0498081,-9.1789,2.94671,-6.64098,-96.3389
2023-03-11 22:47:15:704,-2.37149,0.455379,-9.48192,2.68944,-6.41577,-94.8317
2023-03-11 22:47:15:714,-2.65846,0.740024,-9.83313,2.42683,-6.17997,-93.3977
2023-03-11 22:47:15:724,-2.62823,0.831959,-10.0961,2.18596,-5.92819,-92.0491
2023-03-11 22:47:15:734,-2.26776,0.813716,-10.2874,1.97427,-5.66115,-90.7759
2023-03-11 22:47:15:744,-1.72721,0.67333,-10.3605,1.80996,-5.38282,-89.551
2023-03-11 22:47:15:754,-1.16718,0.463245,-10.2842,1.68283,-5.10151,-88.3411
2023-03-11 22:47:15:764,-0.89167,0.302341,-10.0631,1.58806,-4.8321,-87.1177
2023-03-11 22:47:15:774,-1.34539,0.297151,-9.76483,1.50201,-4.59471,-85.88
2023-03-11 22:47:15:785,-1.97243,0.34288,-9.62161,1.41823,-4.38336,-84.6892
2023-03-11 22:47:15:794,-2.05386,0.363196,-9.63344,1.3293,-4.18087,-83.5767
2023-03-11 22:47:15:804,-1.78502,0.364311,-9.72195,1.24154,-3.97694,-82.5225
2023-03-11 22:47:15:814,-1.4148,0.260975,-9.75305,1.16395,-3.77376,-81.5098
2023-03-11 22:47:15:825,-1.0568,0.181609,-9.78292,1.08861,-3.58223,-80.5225
2023-03-11 22:47:15:834,-0.723026,0.0940814,-9.75902,1.01322,-3.40837,-79.5502
2023-03-11 22:47:15:844,-0.509658,0.00458727,-9.68126,0.938951,-3.24775,-78.5748
2023-03-11 22:47:15:854,-0.529927,-0.0184541,-9.57041,0.861197,-3.10241,-77.5867
2023-03-11 22:47:15:864,-0.747186,0.0218721,-9.50601,0.770331,-2.96558,-76.598
2023-03-11 22:47:15:874,-0.999292,0.107703,-9.49595,0.668821,-2.82895,-75.6199
2023-03-11 22:47:15:884,-1.09064,0.160319,-9.57017,0.559116,-2.68948,-74.6747
2023-03-11 22:47:15:894,-1.04867,0.203929,-9.65522,0.446828,-2.545,-73.7523
2023-03-11 22:47:15:905,-0.912072,0.240074,-9.69545,0.335335,-2.39738,-72.8583
2023-03-11 22:47:15:914,-0.655699,0.19007,-9.69732,0.2258,-2.2445,-71.982
2023-03-11 22:47:15:924,-0.412637,0.132419,-9.72269,0.114395,-2.09793,-71.1108
2023-03-11 22:47:15:934,-0.316814,0.157983,-9.75108,-0.00067773,-1.9643,-70.2339
2023-03-11 22:47:15:945,-0.369076,0.184776,-9.71558,-0.121489,-1.84268,-69.3473
2023-03-11 22:47:15:954,-0.543125,0.22772,-9.65718,-0.242103,-1.73188,-68.4671
2023-03-11 22:47:15:964,-0.667069,0.270574,-9.64473,-0.372346,-1.62092,-67.597
2023-03-11 22:47:15:974,-0.712737,0.293229,-9.6671,-0.50296,-1.49899,-66.7461
2023-03-11 22:47:15:984,-0.752114,0.35806,-9.76107,-0.63777,-1.36736,-65.91
2023-03-11 22:47:15:994,-0.832371,0.475444,-9.84686,-0.770085,-1.22731,-65.0924
2023-03-11 22:47:16:4,-0.84087,0.557962,-9.93702,-0.898648,-1.08126,-64.3042
2023-03-11 22:47:16:14,-0.733483,0.590444,-9.98277,-1.01896,-0.928489,-63.5439
2023-03-11 22:47:16:24,-0.648205,0.594769,-9.99805,-1.12417,-0.775909,-62.8061
2023-03-11 22:47:16:34,-0.605494,0.586502,-9.96047,-1.21952,-0.625128,-62.086
2023-03-11 22:47:16:44,-0.547822,0.563,-9.91356,-1.30427,-0.485381,-61.3919
2023-03-11 22:47:16:54,-0.523302,0.529949,-9.86634,-1.38305,-0.352846,-60.7187
2023-03-11 22:47:16:64,-0.52284,0.489071,-9.78279,-1.45398,-0.226754,-60.0678
2023-03-11 22:47:16:74,-0.516005,0.438198,-9.71646,-1.52373,-0.106695,-59.4424
2023-03-11 22:47:16:85,-0.524455,0.426404,-9.72727,-1.59793,0.0116524,-58.8401
2023-03-11 22:47:16:94,-0.506587,0.471172,-9.77549,-1.68224,0.122486,-58.2631
2023-03-11 22:47:16:104,-0.480841,0.508848,-9.83,-1.7675,0.233809,-57.7179
2023-03-11 22:47:16:114,-0.457972,0.516042,-9.86443,-1.84954,0.338267,-57.1993
2023-03-11 22:47:16:124,-0.448103,0.510697,-9.88302,-1.931,0.43497,-56.7036
2023-03-11 22:47:16:134,-0.440599,0.517665,-9.89482,-2.00797,0.524483,-56.2427
2023-03-11 22:47:16:144,-0.412139,0.507346,-9.86162,-2.07963,0.60598,-55.8089
2023-03-11 22:47:16:154,-0.346731,0.484755,-9.81155,-2.1482,0.677036,-55.405
2023-03-11 22:47:16:164,-0.27841,0.477974,-9.78001,-2.21442,0.740971,-55.0265
2023-03-11 22:47:16:174,-0.152433,0.465959,-9.78589,-2.28185,0.791862,-54.6667
2023-03-11 22:47:16:184,-0.0688068,0.468477,-9.79675,-2.35045,0.831072,-54.3244
2023-03-11 22:47:16:194,-0.0883787,0.506034,-9.79131,-2.4209,0.855938,-53.9968
2023-03-11 22:47:16:204,-0.159611,0.517581,-9.75556,-2.49417,0.874146,-53.6934
2023-03-11 22:47:16:214,-0.210118,0.505634,-9.72194,-2.56842,0.884001,-53.4067
2023-03-11 22:47:16:224,-0.231212,0.492965,-9.68011,-2.64744,0.89217,-53.144
2023-03-11 22:47:16:234,-0.193065,0.451859,-9.66821,-2.72474,0.899451,-52.904
2023-03-11 22:47:16:244,-0.141829,0.449378,-9.69186,-2.80713,0.903433,-52.6789
2023-03-11 22:47:16:254,-0.111455,0.500393,-9.77229,-2.89117,0.903155,-52.4699
2023-03-11 22:47:16:264,-0.101697,0.604369,-9.86714,-2.98195,0.895516,-52.2767
2023-03-11 22:47:16:274,-0.0996889,0.662229,-9.9387,-3.06943,0.874343,-52.1015
2023-03-11 22:47:16:284,-0.132659,0.682857,-9.94323,-3.14445,0.847543,-51.9471
2023-03-11 22:47:16:294,-0.199175,0.681475,-9.91161,-3.21552,0.820271,-51.8051
2023-03-11 22:47:16:304,-0.199939,0.663627,-9.86639,-3.27905,0.783302,-51.685
2023-03-11 22:47:16:314,-0.153476,0.616539,-9.80004,-3.33414,0.752942,-51.5793
2023-03-11 22:47:16:324,-0.0973237,0.572726,-9.73596,-3.38483,0.721016,-51.4888
2023-03-11 22:47:16:334,-0.0334622,0.548661,-9.67954,-3.43749,0.691837,-51.4049
2023-03-11 22:47:16:344,0.0285526,0.530474,-9.6611,-3.49513,0.661262,-51.3254
2023-03-11 22:47:16:354,0.0396144,0.557762,-9.70964,-3.5559,0.630603,-51.2467
2023-03-11 22:47:16:364,-0.0137073,0.625549,-9.78376,-3.62302,0.598743,-51.1706
2023-03-11 22:47:16:374,-0.0397007,0.677523,-9.8404,-3.6909,0.565584,-51.1036
2023-03-11 22:47:16:384,0.00370432,0.66629,-9.8752,-3.75063,0.541532,-51.0417
2023-03-11 22:47:16:394,0.0732589,0.633408,-9.86092,-3.80285,0.524119,-50.9845
2023-03-11 22:47:16:404,0.101062,0.605667,-9.80036,-3.85538,0.501523,-50.9241
2023-03-11 22:47:16:414,0.101226,0.575291,-9.73763,-3.90545,0.47882,-50.8628
2023-03-11 22:47:16:424,0.0967697,0.598251,-9.70118,-3.96095,0.456627,-50.8046
2023-03-11 22:47:16:434,0.0722386,0.684949,-9.73707,-4.02182,0.43518,-50.7475
2023-03-11 22:47:16:444,0.0652313,0.750271,-9.75989,-4.08635,0.415494,-50.6911
2023-03-11 22:47:16:454,0.0531947,0.792559,-9.77483,-4.15108,0.395776,-50.6385
2023-03-11 22:47:16:464,0.0501299,0.793364,-9.76409,-4.21128,0.380603,-50.5871
2023-03-11 22:47:16:474,0.024527,0.775269,-9.7178,-4.27031,0.359556,-50.5365
2023-03-11 22:47:16:484,0.0172648,0.825079,-9.7661,-4.32779,0.348605,-50.4896
2023-03-11 22:47:16:494,0.0729072,0.770903,-9.71544,-4.37953,0.34582,-50.4399
2023-03-11 22:47:16:504,0.109276,0.729898,-9.6709,-4.42791,0.343637,-50.388
2023-03-11 22:47:16:514,0.134699,0.699277,-9.61931,-4.47892,0.337353,-50.3346
2023-03-11 22:47:16:524,0.109908,0.716602,-9.60696,-4.53906,0.330216,-50.2789
2023-03-11 22:47:16:534,0.073825,0.748302,-9.63134,-4.59733,0.322575,-50.2261
2023-03-11 22:47:16:544,0.0660611,0.73164,-9.62915,-4.6636,0.313838,-50.1724
2023-03-11 22:47:16:554,0.0616058,0.710809,-9.59637,-4.73485,0.306228,-50.1243
2023-03-11 22:47:16:564,0.0351932,0.74819,-9.61332,-4.81656,0.29771,-50.0802
2023-03-11 22:47:16:574,0.0171307,0.837327,-9.66471,-4.90819,0.285797,-50.0431
2023-03-11 22:47:16:585,-0.0255799,0.899311,-9.74395,-5.00267,0.276012,-50.0126
2023-03-11 22:47:16:594,-0.0510181,0.955638,-9.80856,-5.09702,0.259328,-49.9914
2023-03-11 22:47:16:604,-0.042606,0.998264,-9.84295,-5.1886,0.243824,-49.9817
2023-03-11 22:47:16:614,0.0167639,1.01092,-9.86271,-5.2725,0.230503,-49.9781
2023-03-11 22:47:16:624,0.0767646,1.02756,-9.87016,-5.34898,0.218367,-49.9776
2023-03-11 22:47:16:634,0.0811797,1.03369,-9.84444,-5.42022,0.197805,-49.9783
2023-03-11 22:47:16:644,0.0242787,1.02493,-9.824,-5.48468,0.174065,-49.9761
2023-03-11 22:47:16:654,-0.018646,1.0305,-9.80563,-5.54878,0.148478,-49.9793
2023-03-11 22:47:16:665,-0.0558643,1.05874,-9.81236,-5.60837,0.120447,-49.9859
2023-03-11 22:47:16:674,-0.0887062,1.0704,-9.81605,-5.66679,0.095896,-49.9994
2023-03-11 22:47:16:685,-0.081184,1.07399,-9.8077,-5.72455,0.0743266,-50.0164
2023-03-11 22:47:16:694,-0.0502952,1.07183,-9.81037,-5.7735,0.0504485,-50.0398
2023-03-11 22:47:16:704,-0.0129331,1.0688,-9.82941,-5.81952,0.0307824,-50.0683
2023-03-11 22:47:16:714,0.000193245,1.07391,-9.82284,-5.86394,0.0112831,-50.0966
2023-03-11 22:47:16:724,0.0190172,1.0816,-9.8044,-5.90751,-0.00740469,-50.1241
2023-03-11 22:47:16:734,0.0423097,1.10456,-9.8223,-5.94673,-0.029148,-50.1534
2023-03-11 22:47:16:744,0.0574614,1.1375,-9.85581,-5.98209,-0.0476837,-50.1845
2023-03-11 22:47:16:754,0.0664665,1.13138,-9.83923,-6.01459,-0.0657419,-50.2114
2023-03-11 22:47:16:764,0.0745086,1.09825,-9.8015,-6.03945,-0.0831794,-50.233
2023-03-11 22:47:16:774,0.0781225,1.06817,-9.75131,-6.05874,-0.0986905,-50.251
2023-03-11 22:47:16:784,0.0790665,1.03363,-9.72843,-6.07618,-0.114202,-50.2629
2023-03-11 22:47:16:794,0.0933774,1.02347,-9.7269,-6.09234,-0.126614,-50.2658
2023-03-11 22:47:16:804,0.070691,1.02789,-9.7348,-6.1084,-0.137933,-50.2683
2023-03-11 22:47:16:814,0.0502021,1.05057,-9.72374,-6.12787,-0.148391,-50.2689
2023-03-11 22:47:16:824,0.0660896,1.05795,-9.73393,-6.14624,-0.157185,-50.2628
2023-03-11 22:47:16:834,0.0718656,1.06649,-9.73971,-6.16109,-0.15936,-50.2504
2023-03-11 22:47:16:844,0.0609689,1.05483,-9.73248,-6.17636,-0.160531,-50.2321
2023-03-11 22:47:16:854,0.025028,1.05128,-9.72381,-6.18709,-0.162105,-50.2102
2023-03-11 22:47:16:864,0.0255856,1.0667,-9.7002,-6.20257,-0.161199,-50.1825
2023-03-11 22:47:16:874,0.018896,1.06072,-9.68508,-6.21686,-0.156272,-50.1551
2023-03-11 22:47:16:884,-0.00957575,1.06522,-9.67085,-6.22995,-0.15135,-50.126
2023-03-11 22:47:16:894,-0.00923385,1.06024,-9.68309,-6.24745,-0.142142,-50.0926
2023-03-11 22:47:16:904,0.000517928,1.08042,-9.70682,-6.26456,-0.131923,-50.0609
2023-03-11 22:47:16:915,-0.00436586,1.10084,-9.73082,-6.282,-0.123137,-50.0222
2023-03-11 22:47:16:924,0.00202483,1.11661,-9.75588,-6.29929,-0.113757,-49.9844
2023-03-11 22:47:16:935,0.0168975,1.13709,-9.76157,-6.31686,-0.105809,-49.9417
2023-03-11 22:47:16:944,0.0342908,1.14244,-9.76478,-6.33031,-0.0941081,-49.9001
2023-03-11 22:47:16:954,0.0504541,1.13889,-9.76785,-6.34534,-0.0865249,-49.8616
2023-03-11 22:47:16:964,0.0691898,1.13034,-9.76498,-6.36044,-0.0842752,-49.823
2023-03-11 22:47:16:975,0.101976,1.12242,-9.76447,-6.37074,-0.0841036,-49.7772
2023-03-11 22:47:16:984,0.161793,1.12645,-9.77493,-6.38125,-0.0853716,-49.7253
2023-03-11 22:47:16:994,0.220257,1.14785,-9.80087,-6.39204,-0.0829843,-49.66
2023-03-11 22:47:17:4,0.285132,1.16253,-9.80332,-6.40257,-0.079557,-49.5861
2023-03-11 22:47:17:14,0.35374,1.15892,-9.81676,-6.40605,-0.0781797,-49.4956
2023-03-11 22:47:17:24,0.390667,1.14612,-9.82625,-6.40746,-0.072837,-49.3836
2023-03-11 22:47:17:34,0.436826,1.12091,-9.81363,-6.40451,-0.0605118,-49.253
2023-03-11 22:47:17:44,0.585733,1.07632,-9.81324,-6.39363,-0.0445881,-49.0981
2023-03-11 22:47:17:54,0.845827,1.03721,-9.83638,-6.3753,-0.0185305,-48.9109
2023-03-11 22:47:17:64,1.05064,1.02775,-9.84845,-6.35617,0.0127777,-48.673
2023-03-11 22:47:17:74,1.2199,1.00141,-9.84286,-6.33398,0.0478507,-48.3794
2023-03-11 22:47:17:84,1.46367,0.990536,-9.86385,-6.30678,0.0938704,-48.0221
2023-03-11 22:47:17:94,1.66668,0.968859,-9.86862,-6.27066,0.152327,-47.5839
2023-03-11 22:47:17:104,1.79893,0.942978,-9.865,-6.2248,0.225793,-47.0634
2023-03-11 22:47:17:114,1.89327,0.95795,-9.85145,-6.16947,0.319389,-46.4528
2023-03-11 22:47:17:124,1.96969,0.953569,-9.83193,-6.11,0.43497,-45.7505
2023-03-11 22:47:17:134,2.10261,0.920844,-9.84103,-6.0371,0.572197,-44.952
2023-03-11 22:47:17:144,2.19133,0.962213,-9.8252,-5.96194,0.727723,-44.0548
2023-03-11 22:47:17:154,2.33186,1.00432,-9.84173,-5.88074,0.908147,-43.0567
2023-03-11 22:47:17:165,2.55259,1.10416,-9.88268,-5.79014,1.11876,-41.9517
2023-03-11 22:47:17:174,2.77323,1.15823,-9.9311,-5.6868,1.3516,-40.7347
2023-03-11 22:47:17:184,2.86971,1.24882,-9.97882,-5.56468,1.61268,-39.3885
2023-03-11 22:47:17:194,2.8082,1.35344,-9.96483,-5.42103,1.89098,-37.9162
2023-03-11 22:47:17:204,2.5117,1.41872,-9.89382,-5.25554,2.18363,-36.3254
2023-03-11 22:47:17:214,2.09355,1.50409,-9.7253,-5.06901,2.49161,-34.6445
2023-03-11 22:47:17:224,1.94684,1.51593,-9.62879,-4.87053,2.808,-32.895
2023-03-11 22:47:17:235,1.99818,1.56258,-9.68434,-4.66303,3.14157,-31.0751
2023-03-11 22:47:17:244,2.00138,1.68722,-9.81088,-4.45124,3.47727,-29.1897
2023-03-11 22:47:17:255,1.87876,1.80373,-9.91504,-4.22806,3.80162,-27.2463
2023-03-11 22:47:17:264,1.55572,1.84669,-9.91902,-3.98537,4.11117,-25.264
2023-03-11 22:47:17:274,1.08544,1.82582,-9.85265,-3.72466,4.39192,-23.2588
2023-03-11 22:47:17:284,0.653795,1.82082,-9.79116,-3.45979,4.6452,-21.2581
2023-03-11 22:47:17:294,0.449904,1.84421,-9.87177,-3.1911,4.87595,-19.2838
2023-03-11 22:47:17:304,0.523061,1.85058,-10.0571,-2.91698,5.09286,-17.3444
2023-03-11 22:47:17:314,0.564879,1.85723,-10.2052,-2.63534,5.27742,-15.4395
2023-03-11 22:47:17:324,0.366223,1.82212,-10.2135,-2.33771,5.42387,-13.5699
2023-03-11 22:47:17:334,0.0104066,1.68049,-10.1383,-2.01908,5.52698,-11.7452
2023-03-11 22:47:17:344,-0.498768,1.56101,-9.98785,-1.68979,5.59457,-9.97356
2023-03-11 22:47:17:354,-0.951623,1.43056,-9.77715,-1.35431,5.64279,-8.27975
2023-03-11 22:47:17:364,-1.159,1.211,-9.60752,-1.02302,5.68484,-6.67666
2023-03-11 22:47:17:374,-1.0541,1.04635,-9.5272,-0.709254,5.72055,-5.1682
2023-03-11 22:47:17:384,-0.755466,0.882096,-9.52186,-0.415613,5.75308,-3.75679
2023-03-11 22:47:17:394,-0.73051,0.720424,-9.44737,-0.144681,5.76205,-2.43182
2023-03-11 22:47:17:404,-1.09501,0.604706,-9.31744,0.101517,5.73287,-1.18991
2023-03-11 22:47:17:414,-1.48403,0.526462,-9.2738,0.308629,5.679,-0.0518368
2023-03-11 22:47:17:425,-1.47022,0.487835,-9.36611,0.477795,5.61633,0.963669
2023-03-11 22:47:17:434,-1.05693,0.466468,-9.55014,0.615596,5.5587,1.85486
2023-03-11 22:47:17:444,-0.719189,0.389086,-9.64417,0.734634,5.49347,2.64916
2023-03-11 22:47:17:454,-0.68912,0.283206,-9.54997,0.845154,5.41113,3.36727
2023-03-11 22:47:17:465,-0.648482,0.186559,-9.46405,0.940401,5.31695,4.01037
2023-03-11 22:47:17:474,-0.460196,0.0834838,-9.44067,1.0124,5.22576,4.58552
2023-03-11 22:47:17:485,-0.315054,0.0338252,-9.45345,1.06323,5.1318,5.09843
2023-03-11 22:47:17:494,-0.268157,0.00577083,-9.47628,1.09649,5.04054,5.56275
2023-03-11 22:47:17:505,-0.237061,0.0137915,-9.53962,1.11355,4.94853,5.98432
2023-03-11 22:47:17:514,-0.132979,0.0264652,-9.64806,1.12226,4.86978,6.36326
2023-03-11 22:47:17:525,0.098822,0.0514599,-9.75659,1.1239,4.81299,6.70997
2023-03-11 22:47:17:534,0.337427,0.012719,-9.82494,1.13063,4.77306,7.0318
2023-03-11 22:47:17:545,0.452114,-0.0377919,-9.77987,1.14465,4.74383,7.34678
2023-03-11 22:47:17:554,0.389954,-0.0477794,-9.6994,1.16215,4.72811,7.66241
2023-03-11 22:47:17:565,0.293331,-0.0513887,-9.66315,1.18259,4.72797,7.96803
2023-03-11 22:47:17:574,0.275759,-0.0899978,-9.66829,1.20288,4.74426,8.27055
2023-03-11 22:47:17:584,0.373975,-0.134965,-9.69376,1.21612,4.76602,8.55903
2023-03-11 22:47:17:594,0.512318,-0.143372,-9.72089,1.22075,4.78088,8.82651
2023-03-11 22:47:17:604,0.482105,-0.0600788,-9.8437,1.21654,4.79318,9.08243
2023-03-11 22:47:17:614,0.374964,0.0218616,-9.92999,1.21647,4.81069,9.32803
2023-03-11 22:47:17:625,0.283216,0.0013703,-9.87878,1.23215,4.83966,9.55992
2023-03-11 22:47:17:634,0.204337,-0.0990376,-9.7093,1.25596,4.8783,9.77813
2023-03-11 22:47:17:644,0.147522,-0.158334,-9.57815,1.27904,4.92477,9.97685
2023-03-11 22:47:17:654,0.183585,-0.126589,-9.60149,1.28535,4.96424,10.1461
2023-03-11 22:47:17:665,0.312937,-0.0440457,-9.74722,1.27394,5.00203,10.282
2023-03-11 22:47:17:674,0.359977,0.0268225,-9.87452,1.26017,5.04105,10.3841
2023-03-11 22:47:17:684,0.272991,0.0319838,-9.86544,1.25064,5.06956,10.4627
2023-03-11 22:47:17:694,0.221622,-0.0753271,-9.72332,1.2463,5.09466,10.5092
2023-03-11 22:47:17:704,0.142918,-0.0731188,-9.65085,1.23756,5.11962,10.5365
2023-03-11 22:47:17:714,-0.0124147,0.000187195,-9.70049,1.22023,5.15055,10.5281
2023-03-11 22:47:17:724,0.0167618,-0.130685,-9.5513,1.19659,5.17409,10.4745
2023-03-11 22:47:17:734,-0.0626846,-0.177526,-9.44578,1.15857,5.19179,10.3838
2023-03-11 22:47:17:744,-0.282289,-0.0893337,-9.44329,1.09843,5.20751,10.2521
2023-03-11 22:47:17:754,-0.365921,0.0580372,-9.61163,1.01833,5.23479,10.0654
2023-03-11 22:47:17:764,-0.255315,0.169123,-9.76713,0.929106,5.27769,9.82128
2023-03-11 22:47:17:774,-0.149618,0.153549,-9.74487,0.839452,5.32407,9.52755
2023-03-11 22:47:17:784,-0.243741,0.147472,-9.65442,0.750653,5.38025,9.19398
2023-03-11 22:47:17:794,-0.505021,0.175825,-9.52921,0.652717,5.43606,8.8164
2023-03-11 22:47:17:804,-0.833884,0.222853,-9.37986,0.533656,5.49805,8.37676
2023-03-11 22:47:17:814,-1.19787,0.242242,-9.18464,0.397468,5.56404,7.86589
2023-03-11 22:47:17:824,-1.39175,0.319106,-9.093,0.22472,5.64451,7.25753
2023-03-11 22:47:17:834,-0.934636,0.542959,-9.33506,0.0074952,5.74146,6.52988
2023-03-11 22:47:17:844,0.109122,0.705343,-9.84448,-0.24379,5.82606,5.67508
2023-03-11 22:47:17:855,0.97191,0.858264,-10.3753,-0.497929,5.88288,4.75182
2023-03-11 22:47:17:864,1.1003,0.997607,-10.5164,-0.727774,5.88909,3.80428
2023-03-11 22:47:17:874,0.684359,0.948014,-10.2812,-0.912814,5.86821,2.85105
2023-03-11 22:47:17:884,0.243808,0.771053,-9.8144,-1.06316,5.84067,1.87796
2023-03-11 22:47:17:894,-0.0596688,0.661184,-9.42901,-1.21334,5.82813,0.88182
2023-03-11 22:47:17:904,-0.259122,0.66462,-9.31593,-1.38219,5.82798,-0.161708
2023-03-11 22:47:17:914,-0.209285,0.869624,-9.6175,-1.57984,5.85019,-1.2684
2023-03-11 22:47:17:924,0.158702,1.15634,-10.0592,-1.80223,5.86546,-2.45377
2023-03-11 22:47:17:934,0.634399,1.42458,-10.4811,-2.02057,5.86053,-3.71414
2023-03-11 22:47:17:944,1.239,1.49258,-10.6594,-2.21103,5.80837,-5.03347
2023-03-11 22:47:17:954,1.82274,1.35259,-10.5902,-2.35144,5.7166,-6.37619
2023-03-11 22:47:17:965,2.14814,1.0914,-10.2871,-2.45017,5.57405,-7.70241
2023-03-11 22:47:17:974,2.01197,0.866653,-9.85369,-2.52564,5.37819,-8.9944
2023-03-11 22:47:17:984,1.58017,0.775153,-9.47027,-2.60233,5.14404,-10.2516
2023-03-11 22:47:17:994,1.26614,0.759262,-9.22735,-2.70042,4.89557,-11.4959
2023-03-11 22:47:18:4,1.18764,0.769093,-9.17505,-2.82406,4.64813,-12.7433
2023-03-11 22:47:18:14,1.25317,0.869233,-9.31224,-2.97588,4.40447,-13.9862
2023-03-11 22:47:18:24,1.37425,1.04556,-9.57295,-3.14784,4.14905,-15.2257
2023-03-11 22:47:18:35,1.51177,1.16329,-9.80335,-3.32058,3.88168,-16.4571
2023-03-11 22:47:18:44,1.55817,1.14045,-9.86766,-3.48143,3.59356,-17.6706
2023-03-11 22:47:18:54,1.44582,1.10074,-9.82345,-3.63074,3.279,-18.8608
2023-03-11 22:47:18:64,1.31601,1.04826,-9.7595,-3.77152,2.94894,-20.0255
2023-03-11 22:47:18:74,1.27677,0.99542,-9.73756,-3.90701,2.61476,-21.1628
2023-03-11 22:47:18:84,1.28606,0.925601,-9.73634,-4.03448,2.27817,-22.272
2023-03-11 22:47:18:94,1.2534,0.89267,-9.74313,-4.15673,1.94233,-23.3434
2023-03-11 22:47:18:104,1.15764,0.908769,-9.79148,-4.27605,1.61327,-24.3781
2023-03-11 22:47:18:114,1.07926,0.93328,-9.81984,-4.39072,1.28965,-25.381
2023-03-11 22:47:18:124,1.01498,0.943703,-9.84714,-4.50047,0.980725,-26.3499
2023-03-11 22:47:18:134,0.936145,0.954807,-9.78575,-4.59614,0.693168,-27.2791
2023-03-11 22:47:18:144,0.883615,0.940049,-9.70129,-4.68812,0.421902,-28.1755
2023-03-11 22:47:18:154,0.888584,0.910949,-9.62929,-4.77972,0.170862,-29.0338
2023-03-11 22:47:18:165,0.877684,0.889933,-9.59832,-4.86963,-0.0576964,-29.8491
2023-03-11 22:47:18:174,0.815907,0.899738,-9.60243,-4.95791,-0.268876,-30.6194
2023-03-11 22:47:18:185,0.762798,0.913067,-9.62767,-5.0519,-0.470523,-31.3563
2023-03-11 22:47:18:194,0.686293,0.949144,-9.65465,-5.14442,-0.654411,-32.0536
2023-03-11 22:47:18:204,0.510836,0.979343,-9.66846,-5.23478,-0.821594,-32.711
2023-03-11 22:47:18:214,0.41364,0.976751,-9.67612,-5.3219,-0.968857,-33.3461
2023-03-11 22:47:18:224,0.430122,0.955231,-9.65103,-5.40576,-1.0974,-33.9515
2023-03-11 22:47:18:234,0.499939,0.926719,-9.6306,-5.48983,-1.20619,-34.5267
2023-03-11 22:47:18:244,0.502334,0.905157,-9.6405,-5.58212,-1.30264,-35.0676
2023-03-11 22:47:18:254,0.361315,0.960626,-9.67468,-5.68194,-1.39003,-35.5752
2023-03-11 22:47:18:264,0.233521,1.02688,-9.70533,-5.78498,-1.47435,-36.0636
2023-03-11 22:47:18:274,0.198314,1.01649,-9.65712,-5.89182,-1.56238,-36.5347
2023-03-11 22:47:18:284,0.159015,1.11634,-9.73243,-6.00156,-1.63821,-36.9887
2023-03-11 22:47:18:294,0.159419,1.2172,-9.86588,-6.10561,-1.69259,-37.4214
2023-03-11 22:47:18:305,0.138327,1.16622,-9.7909,-6.2,-1.74002,-37.8352
2023-03-11 22:47:18:314,0.0569128,1.12984,-9.70449,-6.28573,-1.77738,-38.2307
2023-03-11 22:47:18:324,0.00522546,1.08568,-9.61819,-6.37544,-1.82059,-38.6128
2023-03-11 22:47:18:334,-0.0798599,1.16516,-9.68068,-6.47278,-1.86205,-38.9827
2023-03-11 22:47:18:344,-0.174415,1.25094,-9.75868,-6.57197,-1.90524,-39.3495
2023-03-11 22:47:18:354,-0.167665,1.25246,-9.7687,-6.66151,-1.94747,-39.7192
2023-03-11 22:47:18:364,-0.0736943,1.21705,-9.76099,-6.74908,-1.98895,-40.088
2023-03-11 22:47:18:374,0.0129161,1.22587,-9.76631,-6.83491,-2.03151,-40.4428
2023-03-11 22:47:18:384,0.0283178,1.2648,-9.78249,-6.91724,-2.08227,-40.7831
2023-03-11 22:47:18:394,-0.00628812,1.28022,-9.77547,-7.00166,-2.13601,-41.1088
2023-03-11 22:47:18:404,-0.0239256,1.26865,-9.77807,-7.08619,-2.19136,-41.4265
2023-03-11 22:47:18:414,-0.0913781,1.31397,-9.81258,-7.17039,-2.25244,-41.7329
2023-03-11 22:47:18:424,-0.170612,1.38367,-9.86493,-7.24751,-2.31437,-42.0318
2023-03-11 22:47:18:434,-0.161592,1.40933,-9.90735,-7.3144,-2.38073,-42.3295
2023-03-11 22:47:18:444,-0.0836597,1.40171,-9.8807,-7.37154,-2.44187,-42.6155
2023-03-11 22:47:18:454,-0.0220306,1.34797,-9.82491,-7.41716,-2.50035,-42.8899
2023-03-11 22:47:18:465,0.0133049,1.31344,-9.77373,-7.45751,-2.56261,-43.1483
2023-03-11 22:47:18:474,0.0281312,1.29114,-9.73409,-7.49898,-2.62103,-43.3876
2023-03-11 22:47:18:484,0.0191704,1.28385,-9.73356,-7.53882,-2.68033,-43.6065
2023-03-11 22:47:18:494,-0.00777435,1.30989,-9.74469,-7.57952,-2.73501,-43.8018
2023-03-11 22:47:18:504,-0.0510494,1.34543,-9.76982,-7.61783,-2.78389,-43.9753
2023-03-11 22:47:18:515,-0.109462,1.37287,-9.80456,-7.65343,-2.82578,-44.1282
2023-03-11 22:47:18:524,-0.13696,1.38971,-9.83341,-7.68633,-2.85927,-44.2636
2023-03-11 22:47:18:534,-0.15444,1.40636,-9.86634,-7.71091,-2.8854,-44.3877
2023-03-11 22:47:18:544,-0.159491,1.40621,-9.86516,-7.7289,-2.90542,-44.4956
2023-03-11 22:47:18:554,-0.151755,1.37286,-9.80372,-7.73661,-2.92181,-44.5869
2023-03-11 22:47:18:564,-0.146209,1.33731,-9.74598,-7.74044,-2.93465,-44.6611
2023-03-11 22:47:18:574,-0.145998,1.32317,-9.71897,-7.74057,-2.94128,-44.7173
2023-03-11 22:47:18:585,-0.130982,1.30685,-9.7351,-7.74453,-2.94711,-44.7572
2023-03-11 22:47:18:594,-0.143644,1.31165,-9.74709,-7.74929,-2.95065,-44.7779
2023-03-11 22:47:18:604,-0.204049,1.32581,-9.7467,-7.75241,-2.95331,-44.7843
2023-03-11 22:47:18:614,-0.297169,1.34531,-9.7291,-7.75394,-2.95629,-44.7783
2023-03-11 22:47:18:624,-0.384206,1.36591,-9.72424,-7.75464,-2.95519,-44.7617
2023-03-11 22:47:18:634,-0.42729,1.36753,-9.73094,-7.75028,-2.95241,-44.7423
2023-03-11 22:47:18:644,-0.426714,1.36658,-9.71869,-7.74285,-2.94672,-44.7217
2023-03-11 22:47:18:654,-0.435639,1.34032,-9.69729,-7.73453,-2.93965,-44.6955
2023-03-11 22:47:18:664,-0.461116,1.33,-9.69211,-7.72764,-2.93298,-44.6659
2023-03-11 22:47:18:674,-0.479066,1.3562,-9.68345,-7.71981,-2.92635,-44.6363
2023-03-11 22:47:18:684,-0.497135,1.35445,-9.6697,-7.70941,-2.92114,-44.6089
2023-03-11 22:47:18:695,-0.511875,1.34201,-9.65064,-7.70061,-2.91633,-44.5828
2023-03-11 22:47:18:705,-0.528978,1.33227,-9.6328,-7.69104,-2.91284,-44.5564
2023-03-11 22:47:18:714,-0.50882,1.32322,-9.63435,-7.68484,-2.90761,-44.5317
2023-03-11 22:47:18:724,-0.47177,1.32199,-9.65972,-7.67825,-2.90139,-44.5076
2023-03-11 22:47:18:735,-0.486235,1.3294,-9.67487,-7.66848,-2.89619,-44.4809
2023-03-11 22:47:18:744,-0.565362,1.34293,-9.69359,-7.66268,-2.8932,-44.4582
2023-03-11 22:47:18:754,-0.666114,1.37073,-9.70087,-7.65684,-2.89103,-44.4439
2023-03-11 22:47:18:764,-0.721282,1.36587,-9.71448,-7.64657,-2.90247,-44.4417
2023-03-11 22:47:18:774,-0.724832,1.3715,-9.72209,-7.63479,-2.90999,-44.4539
2023-03-11 22:47:18:784,-0.660996,1.36512,-9.73125,-7.62032,-2.91858,-44.4784
2023-03-11 22:47:18:794,-0.57089,1.34923,-9.71856,-7.60548,-2.93142,-44.5096
2023-03-11 22:47:18:804,-0.538015,1.31091,-9.69955,-7.59534,-2.95021,-44.5419
2023-03-11 22:47:18:814,-0.537103,1.29192,-9.65686,-7.58546,-2.96769,-44.573
2023-03-11 22:47:18:824,-0.597175,1.32052,-9.67602,-7.57792,-2.98801,-44.6096
2023-03-11 22:47:18:834,-0.686033,1.41751,-9.76696,-7.57802,-3.00691,-44.6517
2023-03-11 22:47:18:844,-0.726614,1.48705,-9.8013,-7.57414,-3.03105,-44.7088
2023-03-11 22:47:18:854,-0.77901,1.4828,-9.78863,-7.56194,-3.05797,-44.7808
2023-03-11 22:47:18:864,-0.816514,1.46592,-9.71853,-7.54096,-3.09435,-44.8665
2023-03-11 22:47:18:874,-0.715128,1.44023,-9.67831,-7.51104,-3.13444,-44.9701
2023-03-11 22:47:18:884,-0.546249,1.37697,-9.64681,-7.47832,-3.17568,-45.0825
2023-03-11 22:47:18:894,-0.458293,1.30312,-9.58202,-7.44919,-3.21641,-45.1843
2023-03-11 22:47:18:904,-0.453749,1.23057,-9.53942,-7.41934,-3.26008,-45.2827
2023-03-11 22:47:18:914,-0.430567,1.20688,-9.54588,-7.39992,-3.29916,-45.3726
2023-03-11 22:47:18:924,-0.489467,1.22996,-9.59618,-7.38417,-3.33496,-45.4534
2023-03-11 22:47:18:934,-0.531691,1.25307,-9.66403,-7.37041,-3.37194,-45.5295
2023-03-11 22:47:18:944,-0.514809,1.25692,-9.69514,-7.35981,-3.40113,-45.6057
2023-03-11 22:47:18:954,-0.441512,1.24198,-9.6822,-7.34621,-3.42033,-45.6745
2023-03-11 22:47:18:964,-0.349059,1.21132,-9.68074,-7.33244,-3.42954,-45.7314
2023-03-11 22:47:18:974,-0.287507,1.19565,-9.70069,-7.31983,-3.43183,-45.7706
2023-03-11 22:47:18:984,-0.334767,1.23179,-9.72059,-7.31038,-3.43089,-45.7897
2023-03-11 22:47:18:994,-0.565355,1.31626,-9.75911,-7.30381,-3.42588,-45.7949
2023-03-11 22:47:19:4,-0.831857,1.39973,-9.78374,-7.29343,-3.42509,-45.8047
2023-03-11 22:47:19:14,-0.882968,1.42946,-9.74164,-7.27409,-3.4291,-45.8396
2023-03-11 22:47:19:24,-0.633282,1.33589,-9.695,-7.24834,-3.42862,-45.8904
2023-03-11 22:47:19:34,-0.384783,1.24193,-9.67831,-7.2212,-3.4254,-45.9328
2023-03-11 22:47:19:44,-0.288752,1.19817,-9.68202,-7.19189,-3.42326,-45.9544
2023-03-11 22:47:19:54,-0.38978,1.1961,-9.67511,-7.16946,-3.42274,-45.9579
2023-03-11 22:47:19:64,-0.660328,1.25146,-9.71501,-7.14917,-3.42564,-45.954
2023-03-11 22:47:19:74,-0.853179,1.34117,-9.79785,-7.12891,-3.43101,-45.96
2023-03-11 22:47:19:84,-0.910785,1.36871,-9.81046,-7.10549,-3.43324,-45.9829
2023-03-11 22:47:19:94,-0.921821,1.31095,-9.731,-7.07286,-3.43777,-46.0259
2023-03-11 22:47:19:104,-0.869552,1.24267,-9.65817,-7.03482,-3.44136,-46.0863
2023-03-11 22:47:19:114,-0.780788,1.19575,-9.62477,-7.00208,-3.44549,-46.1556
2023-03-11 22:47:19:124,-0.671102,1.14053,-9.5974,-6.96937,-3.45256,-46.2295
2023-03-11 22:47:19:134,-0.545895,1.09742,-9.57017,-6.95047,-3.45922,-46.2978
2023-03-11 22:47:19:144,-0.530493,1.08869,-9.55032,-6.93118,-3.46607,-46.3598
2023-03-11 22:47:19:154,-0.695662,1.1405,-9.58952,-6.91843,-3.47011,-46.4129
2023-03-11 22:47:19:164,-1.04817,1.25243,-9.68159,-6.91429,-3.47953,-46.4759
2023-03-11 22:47:19:174,-1.3261,1.35774,-9.76354,-6.90526,-3.4947,-46.5715
2023-03-11 22:47:19:184,-1.41055,1.37391,-9.76185,-6.88519,-3.50754,-46.7143
2023-03-11 22:47:19:194,-1.36018,1.32251,-9.70368,-6.85549,-3.52423,-46.8902
2023-03-11 22:47:19:204,-1.23553,1.23409,-9.63808,-6.82133,-3.54814,-47.0981
2023-03-11 22:47:19:214,-1.14846,1.17232,-9.58487,-6.7855,-3.57344,-47.3327
2023-03-11 22:47:19:224,-1.21031,1.12181,-9.5404,-6.75341,-3.60971,-47.5875
2023-03-11 22:47:19:234,-1.42932,1.16721,-9.53679,-6.73416,-3.65013,-47.8692
2023-03-11 22:47:19:244,-1.69562,1.25909,-9.60257,-6.71965,-3.70561,-48.194
2023-03-11 22:47:19:254,-1.94573,1.33448,-9.67792,-6.71055,-3.76946,-48.5746
2023-03-11 22:47:19:264,-2.15531,1.43519,-9.76689,-6.70019,-3.83577,-49.0187
2023-03-11 22:47:19:274,-2.22969,1.505,-9.83796,-6.67851,-3.90417,-49.5371
2023-03-11 22:47:19:284,-2.18869,1.49257,-9.82924,-6.64031,-3.97163,-50.1313
2023-03-11 22:47:19:294,-2.18486,1.45029,-9.79222,-6.58902,-4.05109,-50.7962
2023-03-11 22:47:19:304,-2.3951,1.49771,-9.77533,-6.52953,-4.15627,-51.5347
2023-03-11 22:47:19:314,-2.74905,1.62158,-9.88807,-6.46893,-4.28755,-52.3633
2023-03-11 22:47:19:324,-3.04514,1.84826,-10.0741,-6.40094,-4.45675,-53.3117
2023-03-11 22:47:19:334,-3.08194,2.04706,-10.2515,-6.30777,-4.66132,-54.3971
2023-03-11 22:47:19:344,-2.83017,2.05373,-10.2831,-6.17156,-4.91348,-55.617
2023-03-11 22:47:19:354,-2.40695,1.86026,-10.0726,-5.98621,-5.20866,-56.9441
2023-03-11 22:47:19:365,-2.05687,1.58651,-9.75801,-5.76851,-5.52839,-58.3588
2023-03-11 22:47:19:374,-1.88491,1.50513,-9.55173,-5.53866,-5.8625,-59.8327
2023-03-11 22:47:19:384,-1.98763,1.57528,-9.47319,-5.31535,-6.2227,-61.3695
2023-03-11 22:47:19:395,-2.10572,1.66732,-9.49676,-5.09394,-6.59566,-62.9757
2023-03-11 22:47:19:404,-1.97546,1.733,-9.51104,-4.86682,-6.97366,-64.6566
2023-03-11 22:47:19:414,-1.65129,1.63335,-9.46733,-4.63334,-7.34421,-66.3883
2023-03-11 22:47:19:424,-1.34285,1.51421,-9.40356,-4.38886,-7.70313,-68.1394
2023-03-11 22:47:19:434,-1.24475,1.42407,-9.36104,-4.14231,-8.05732,-69.8997
2023-03-11 22:47:19:444,-1.37656,1.41393,-9.3696,-3.90531,-8.41487,-71.6626
2023-03-11 22:47:19:454,-1.63124,1.47084,-9.44935,-3.67843,-8.78,-73.4418
2023-03-11 22:47:19:464,-1.8028,1.51031,-9.55984,-3.45252,-9.14753,-75.2485
2023-03-11 22:47:19:474,-1.72213,1.48257,-9.64787,-3.21992,-9.50134,-77.0762
2023-03-11 22:47:19:484,-1.4805,1.37198,-9.75939,-2.97819,-9.83263,-78.9003
2023-03-11 22:47:19:494,-1.24371,1.30469,-9.86929,-2.72655,-10.1467,-80.7003
2023-03-11 22:47:19:504,-1.11891,1.19886,-9.89717,-2.46121,-10.4469,-82.4724
2023-03-11 22:47:19:514,-1.22983,1.10452,-9.82607,-2.18608,-10.7351,-84.2056
2023-03-11 22:47:19:524,-1.40048,1.02729,-9.77958,-1.90964,-11.0036,-85.9042
2023-03-11 22:47:19:534,-1.27957,0.921849,-9.78787,-1.6269,-11.2383,-87.572
2023-03-11 22:47:19:544,-0.966201,0.788256,-9.81035,-1.33651,-11.434,-89.1823
2023-03-11 22:47:19:554,-0.701985,0.669247,-9.78832,-1.04153,-11.5876,-90.7181
2023-03-11 22:47:19:564,-0.64182,0.550484,-9.72407,-0.748996,-11.7172,-92.1702
2023-03-11 22:47:19:574,-0.842846,0.462869,-9.61767,-0.464558,-11.8258,-93.5449
2023-03-11 22:47:19:584,-1.08471,0.366518,-9.55006,-0.192537,-11.9155,-94.8598
2023-03-11 22:47:19:594,-0.974452,0.253237,-9.52564,0.0700084,-11.9746,-96.1193
2023-03-11 22:47:19:604,-0.570142,0.0652208,-9.50944,0.328064,-11.9901,-97.3068
2023-03-11 22:47:19:614,-0.377679,-0.144815,-9.45715,0.571778,-11.9914,-98.4053
2023-03-11 22:47:19:624,-0.5346,-0.203616,-9.43209,0.787237,-11.9985,-99.4218
2023-03-11 22:47:19:634,-0.740531,-0.161537,-9.40103,0.972183,-12.0149,-100.375
2023-03-11 22:47:19:644,-0.869201,-0.187374,-9.34469,1.13676,-12.0354,-101.281
2023-03-11 22:47:19:654,-1.04293,-0.229741,-9.34997,1.27897,-12.0509,-102.131
2023-03-11 22:47:19:664,-1.05606,-0.234316,-9.42252,1.39783,-12.059,-102.934
2023-03-11 22:47:19:674,-0.894796,-0.189646,-9.56856,1.49855,-12.0539,-103.686
2023-03-11 22:47:19:684,-0.877752,-0.162243,-9.62317,1.58774,-12.053,-104.376
2023-03-11 22:47:19:694,-1.04471,-0.184457,-9.54203,1.67157,-12.0639,-105.017
2023-03-11 22:47:19:704,-1.27751,-0.199436,-9.48548,1.74592,-12.0781,-105.62
2023-03-11 22:47:19:714,-1.55665,-0.163811,-9.49685,1.81345,-12.0985,-106.197
2023-03-11 22:47:19:725,-1.70568,-0.144524,-9.50293,1.87635,-12.1175,-106.761
2023-03-11 22:47:19:734,-1.47315,-0.222084,-9.52113,1.93762,-12.1245,-107.312
2023-03-11 22:47:19:744,-1.12797,-0.329247,-9.53717,1.99861,-12.1171,-107.826
2023-03-11 22:47:19:754,-1.15054,-0.326661,-9.5647,2.04322,-12.1247,-108.293
2023-03-11 22:47:19:764,-1.43944,-0.228637,-9.60308,2.07495,-12.153,-108.728
2023-03-11 22:47:19:774,-1.81235,-0.116729,-9.60349,2.09948,-12.1944,-109.151
2023-03-11 22:47:19:784,-2.10026,-0.03483,-9.66355,2.11715,-12.2373,-109.568
2023-03-11 22:47:19:794,-2.08184,0.00941556,-9.80038,2.14281,-12.26,-109.985
2023-03-11 22:47:19:804,-1.60509,-0.0534726,-9.97725,2.17981,-12.2579,-110.395
2023-03-11 22:47:19:814,-1.1351,-0.149932,-9.97469,2.23618,-12.2523,-110.77
2023-03-11 22:47:19:824,-1.13962,-0.269908,-9.79347,2.2998,-12.2643,-111.098
2023-03-11 22:47:19:834,-1.6111,-0.292549,-9.60568,2.35854,-12.3019,-111.397
2023-03-11 22:47:19:844,-2.14048,-0.232354,-9.52483,2.41195,-12.3488,-111.69
2023-03-11 22:47:19:854,-2.45448,-0.185028,-9.60708,2.46273,-12.3849,-111.984
2023-03-11 22:47:19:864,-2.25979,-0.196567,-9.75245,2.51552,-12.3921,-112.284
2023-03-11 22:47:19:874,-1.71421,-0.351669,-9.80078,2.57871,-12.3693,-112.563
2023-03-11 22:47:19:884,-1.25747,-0.544393,-9.72278,2.6543,-12.3372,-112.806
2023-03-11 22:47:19:894,-1.19507,-0.640147,-9.56461,2.72469,-12.3145,-112.998
2023-03-11 22:47:19:905,-1.70706,-0.615361,-9.38897,2.77691,-12.3216,-113.158
2023-03-11 22:47:19:914,-2.35247,-0.488893,-9.34676,2.807,-12.3416,-113.311
2023-03-11 22:47:19:924,-2.51805,-0.380266,-9.49263,2.82409,-12.335,-113.472
2023-03-11 22:47:19:934,-2.06974,-0.405618,-9.66565,2.84338,-12.2891,-113.639
2023-03-11 22:47:19:944,-1.3559,-0.619028,-9.68591,2.87603,-12.2101,-113.774
2023-03-11 22:47:19:955,-0.813536,-0.82414,-9.54559,2.91197,-12.1237,-113.857
2023-03-11 22:47:19:964,-0.918474,-0.904277,-9.35939,2.92741,-12.0682,-113.883
2023-03-11 22:47:19:974,-1.71328,-0.727225,-9.24706,2.91316,-12.0549,-113.867
2023-03-11 22:47:19:984,-2.50251,-0.447296,-9.33981,2.87341,-12.0581,-113.854
2023-03-11 22:47:19:994,-2.65398,-0.226955,-9.59522,2.82879,-12.0298,-113.862
2023-03-11 22:47:20:4,-2.15586,-0.229172,-9.76562,2.80678,-11.9602,-113.886
2023-03-11 22:47:20:14,-1.54642,-0.453071,-9.63184,2.81275,-11.8708,-113.9
2023-03-11 22:47:20:24,-1.14643,-0.752882,-9.31041,2.82205,-11.783,-113.887
2023-03-11 22:47:20:35,-0.87993,-0.987927,-9.05442,2.80505,-11.7053,-113.835
2023-03-11 22:47:20:44,-0.606376,-1.0174,-9.09812,2.74393,-11.6292,-113.723
2023-03-11 22:47:20:54,-0.470131,-0.75702,-9.46927,2.62805,-11.5454,-113.526
2023-03-11 22:47:20:64,-0.440986,-0.404463,-9.8888,2.48548,-11.4611,-113.244
2023-03-11 22:47:20:74,-0.327154,-0.200868,-10.1066,2.34636,-11.3764,-112.892
2023-03-11 22:47:20:84,-0.145933,-0.222107,-10.0337,2.22627,-11.2947,-112.475
2023-03-11 22:47:20:95,0.127129,-0.367577,-9.81693,2.12416,-11.2226,-111.996
2023-03-11 22:47:20:104,0.567882,-0.547245,-9.59477,2.00827,-11.1651,-111.441
2023-03-11 22:47:20:114,1.08335,-0.69608,-9.43279,1.87,-11.1139,-110.785
2023-03-11 22:47:20:125,1.43367,-0.746149,-9.31332,1.68491,-11.0791,-109.983
2023-03-11 22:47:20:134,1.46515,-0.608022,-9.20195,1.44302,-11.0463,-109.006
2023-03-11 22:47:20:144,1.24724,-0.332288,-9.26858,1.13917,-10.999,-107.851
2023-03-11 22:47:20:154,0.862381,0.0737842,-9.44182,0.791835,-10.9261,-106.535
2023-03-11 22:47:20:164,0.125975,0.556203,-9.55083,0.41386,-10.841,-105.089
2023-03-11 22:47:20:174,-0.92196,0.843886,-9.59969,0.032323,-10.7397,-103.568
2023-03-11 22:47:20:184,-1.56357,0.932412,-9.66388,-0.344086,-10.5978,-102.033
2023-03-11 22:47:20:194,-1.3536,0.871843,-9.7742,-0.701157,-10.3931,-100.486
2023-03-11 22:47:20:204,-0.754448,0.748112,-9.7502,-1.04714,-10.1372,-98.8916
2023-03-11 22:47:20:214,-0.366885,0.670007,-9.6094,-1.40142,-9.84592,-97.2087
2023-03-11 22:47:20:224,-0.226514,0.742285,-9.47772,-1.7765,-9.53489,-95.4293
2023-03-11 22:47:20:234,-0.431138,0.998267,-9.53766,-2.18481,-9.21048,-93.5616
2023-03-11 22:47:20:244,-0.804018,1.40852,-9.77256,-2.61922,-8.88034,-91.6387
2023-03-11 22:47:20:254,-1.20964,1.81777,-10.0112,-3.04931,-8.5563,-89.7028
2023-03-11 22:47:20:265,-1.65099,2.06241,-10.0726,-3.45364,-8.24584,-87.7921
2023-03-11 22:47:20:274,-1.78367,2.08952,-9.97076,-3.81634,-7.9376,-85.936
2023-03-11 22:47:20:284,-1.53435,1.94749,-9.78396,-4.13667,-7.62618,-84.129
2023-03-11 22:47:20:294,-1.43602,1.83741,-9.55274,-4.43648,-7.31429,-82.3405
2023-03-11 22:47:20:304,-1.61981,1.8536,-9.38754,-4.73292,-7.00346,-80.5695
2023-03-11 22:47:20:314,-1.83776,1.9635,-9.48069,-5.03127,-6.67598,-78.8319
2023-03-11 22:47:20:324,-2.13992,2.15192,-9.79166,-5.32801,-6.33717,-77.1336
2023-03-11 22:47:20:334,-2.42846,2.38475,-10.0834,-5.6018,-5.99965,-75.5084
2023-03-11 22:47:20:344,-2.47699,2.45717,-10.2126,-5.8326,-5.68295,-73.9816
2023-03-11 22:47:20:355,-2.46418,2.33979,-10.0795,-6.01439,-5.40064,-72.5474
2023-03-11 22:47:20:364,-2.43881,2.12499,-9.77449,-6.15818,-5.1553,-71.1979
2023-03-11 22:47:20:374,-2.33607,1.92223,-9.49189,-6.28937,-4.93377,-69.9236
2023-03-11 22:47:20:385,-2.20809,1.7633,-9.328,-6.4199,-4.72147,-68.7071
2023-03-11 22:47:20:394,-2.1783,1.69358,-9.29437,-6.56037,-4.51026,-67.5412
2023-03-11 22:47:20:404,-2.28597,1.75432,-9.4049,-6.70981,-4.29429,-66.4248
2023-03-11 22:47:20:415,-2.33165,1.87085,-9.65692,-6.86825,-4.07327,-65.3797
2023-03-11 22:47:20:424,-2.20187,2.00535,-9.84325,-7.02091,-3.8504,-64.4065
2023-03-11 22:47:20:434,-1.96356,1.96062,-9.877,-7.14838,-3.62905,-63.4969
2023-03-11 22:47:20:444,-1.72488,1.8357,-9.78894,-7.25512,-3.4123,-62.6396
2023-03-11 22:47:20:454,-1.44389,1.74613,-9.72544,-7.35656,-3.20483,-61.8208
2023-03-11 22:47:20:464,-1.12342,1.72388,-9.76941,-7.45643,-3.00404,-61.036
2023-03-11 22:47:20:474,-0.841087,1.71951,-9.80114,-7.56,-2.81576,-60.2683
2023-03-11 22:47:20:484,-0.762829,1.70102,-9.73938,-7.65735,-2.64236,-59.5057
2023-03-11 22:47:20:494,-0.846099,1.69816,-9.68023,-7.75695,-2.47383,-58.7579
2023-03-11 22:47:20:504,-1.00879,1.71593,-9.66303,-7.85898,-2.31747,-58.0333
2023-03-11 22:47:20:514,-1.21893,1.82497,-9.73297,-7.96891,-2.17745,-57.342
2023-03-11 22:47:20:524,-1.27258,1.9442,-9.84143,-8.07674,-2.0487,-56.6965
2023-03-11 22:47:20:534,-1.18512,2.0285,-9.84155,-8.17323,-1.92994,-56.0896
2023-03-11 22:47:20:544,-0.849327,2.00407,-9.82676,-8.25642,-1.80844,-55.5195
2023-03-11 22:47:20:554,-0.350195,1.94718,-9.84068,-8.33491,-1.69164,-54.96
2023-03-11 22:47:20:564,0.0290357,1.94162,-9.88648,-8.40971,-1.58455,-54.3834
2023-03-11 22:47:20:574,0.0526629,1.96306,-9.91467,-8.48399,-1.48986,-53.7757
2023-03-11 22:47:20:584,-0.289541,1.96762,-9.87663,-8.55285,-1.41175,-53.1535
2023-03-11 22:47:20:594,-0.628942,1.94868,-9.83891,-8.60721,-1.33053,-52.5407
2023-03-11 22:47:20:604,-0.796801,1.93034,-9.87774,-8.64965,-1.23582,-51.9465
2023-03-11 22:47:20:614,-0.909767,1.94054,-9.93073,-8.67665,-1.12528,-51.3725
2023-03-11 22:47:20:624,-0.928743,1.93748,-9.92094,-8.68568,-1.0138,-50.8339
2023-03-11 22:47:20:635,-0.816552,1.84538,-9.81331,-8.67645,-0.901699,-50.3263
2023-03-11 22:47:20:644,-0.641242,1.71979,-9.71486,-8.65755,-0.793174,-49.8386
2023-03-11 22:47:20:654,-0.487989,1.64828,-9.67106,-8.63367,-0.693232,-49.3671
2023-03-11 22:47:20:665,-0.486627,1.6201,-9.55292,-8.60771,-0.600588,-48.9113
2023-03-11 22:47:20:674,-0.609033,1.52582,-9.35876,-8.58581,-0.516439,-48.4696
2023-03-11 22:47:20:684,-0.720875,1.44213,-9.21742,-8.56973,-0.440158,-48.0486
2023-03-11 22:47:20:694,-0.842229,1.46376,-9.20912,-8.57595,-0.365217,-47.6611
2023-03-11 22:47:20:704,-0.911512,1.53972,-9.31416,-8.59983,-0.286774,-47.309
2023-03-11 22:47:20:714,-0.888978,1.60818,-9.43996,-8.63202,-0.208787,-46.9935
2023-03-11 22:47:20:724,-0.779029,1.6098,-9.53656,-8.66611,-0.129691,-46.7171
2023-03-11 22:47:20:734,-0.645581,1.60825,-9.60078,-8.70146,-0.058803,-46.476
2023-03-11 22:47:20:744,-0.518589,1.617,-9.62666,-8.73865,-0.000404661,-46.2664
2023-03-11 22:47:20:754,-0.40759,1.58914,-9.62687,-8.7727,0.043843,-46.0846
2023-03-11 22:47:20:764,-0.343845,1.57431,-9.62096,-8.8126,0.0696805,-45.9218
2023-03-11 22:47:20:774,-0.353368,1.57225,-9.60649,-8.85547,0.0807322,-45.7864
2023-03-11 22:47:20:784,-0.401804,1.5835,-9.59971,-8.90855,0.0787743,-45.6737
2023-03-11 22:47:20:794,-0.427871,1.61042,-9.61119,-8.96716,0.0673523,-45.5844
2023-03-11 22:47:20:804,-0.3837,1.63939,-9.68215,-9.02548,0.0526455,-45.5237
2023-03-11 22:47:20:815,-0.282465,1.67237,-9.75666,-9.08426,0.0373966,-45.4815
2023-03-11 22:47:20:824,-0.177312,1.6919,-9.76718,-9.1408,0.0152059,-45.4521
2023-03-11 22:47:20:834,-0.173852,1.70344,-9.7469,-9.19251,-0.00701724,-45.4361
2023-03-11 22:47:20:844,-0.174144,1.69719,-9.72521,-9.2366,-0.0374605,-45.4266
2023-03-11 22:47:20:854,-0.132124,1.66541,-9.6707,-9.27679,-0.0757925,-45.4269
2023-03-11 22:47:20:864,-0.0537951,1.62593,-9.63894,-9.3143,-0.115183,-45.4322
2023-03-11 22:47:20:874,0.0763664,1.58746,-9.62363,-9.35049,-0.156568,-45.439
2023-03-11 22:47:20:884,0.221766,1.54064,-9.63246,-9.38702,-0.201131,-45.4385
2023-03-11 22:47:20:894,0.197273,1.52718,-9.64934,-9.43121,-0.255008,-45.426
2023-03-11 22:47:20:904,-0.0197815,1.59075,-9.67028,-9.48131,-0.326443,-45.4062
2023-03-11 22:47:20:914,-0.236871,1.66984,-9.68213,-9.53187,-0.40953,-45.3957
2023-03-11 22:47:20:924,-0.364752,1.73682,-9.69127,-9.58319,-0.498516,-45.4043
2023-03-11 22:47:20:934,-0.390735,1.73704,-9.69214,-9.62975,-0.582347,-45.4301
2023-03-11 22:47:20:944,-0.327286,1.71465,-9.67905,-9.67004,-0.658121,-45.4713
2023-03-11 22:47:20:954,-0.260236,1.68369,-9.63188,-9.71089,-0.72807,-45.5173
2023-03-11 22:47:20:964,-0.228983,1.64295,-9.59459,-9.74823,-0.793771,-45.5671
2023-03-11 22:47:20:974,-0.177891,1.63477,-9.57715,-9.78892,-0.854071,-45.6202
2023-03-11 22:47:20:984,-0.186327,1.66575,-9.60367,-9.83264,-0.915383,-45.6738
2023-03-11 22:47:20:994,-0.229227,1.69949,-9.62344,-9.8802,-0.96935,-45.7283
2023-03-11 22:47:21:4,-0.286423,1.71227,-9.61463,-9.92337,-1.01942,-45.7891
2023-03-11 22:47:21:14,-0.32178,1.7169,-9.60617,-9.96283,-1.06793,-45.8557
2023-03-11 22:47:21:24,-0.353349,1.70757,-9.57617,-10.0001,-1.11515,-45.9305
2023-03-11 22:47:21:34,-0.347521,1.69926,-9.56743,-10.0374,-1.16099,-46.0157
2023-03-11 22:47:21:44,-0.283305,1.70754,-9.59959,-10.084,-1.20599,-46.1093
2023-03-11 22:47:21:54,-0.186116,1.72897,-9.65347,-10.1236,-1.2546,-46.2053
2023-03-11 22:47:21:64,-0.0733962,1.76358,-9.7053,-10.1641,-1.30375,-46.3036
2023-03-11 22:47:21:75,0.0173712,1.78768,-9.75537,-10.2047,-1.3589,-46.395
2023-03-11 22:47:21:84,0.0124975,1.79803,-9.76406,-10.2375,-1.41294,-46.4741
2023-03-11 22:47:21:94,-0.073135,1.79931,-9.73825,-10.2682,-1.46681,-46.5454
2023-03-11 22:47:21:104,-0.179623,1.80243,-9.69269,-10.2915,-1.51848,-46.609
2023-03-11 22:47:21:114,-0.295211,1.78075,-9.63797,-10.3108,-1.56746,-46.6745
2023-03-11 22:47:21:124,-0.32234,1.77162,-9.60519,-10.3248,-1.60984,-46.7476
2023-03-11 22:47:21:134,-0.299684,1.77088,-9.59828,-10.3407,-1.65394,-46.823
2023-03-11 22:47:21:144,-0.277305,1.80105,-9.63631,-10.359,-1.69088,-46.9006
2023-03-11 22:47:21:154,-0.266579,1.84633,-9.68121,-10.3801,-1.73054,-46.9778
2023-03-11 22:47:21:164,-0.219954,1.85584,-9.68726,-10.3935,-1.76869,-47.0547
2023-03-11 22:47:21:174,-0.181286,1.81762,-9.65591,-10.408,-1.80459,-47.1258
2023-03-11 22:47:21:184,-0.192807,1.78211,-9.62363,-10.4151,-1.84071,-47.1911
2023-03-11 22:47:21:194,-0.24075,1.73452,-9.56617,-10.4263,-1.87975,-47.2487
2023-03-11 22:47:21:204,-0.337731,1.79336,-9.60205,-10.4383,-1.91418,-47.3046
2023-03-11 22:47:21:214,-0.383513,1.88249,-9.72618,-10.4494,-1.93538,-47.361
2023-03-11 22:47:21:224,-0.361963,1.86009,-9.68045,-10.4486,-1.95496,-47.4169
2023-03-11 22:47:21:234,-0.362056,1.82477,-9.62419,-10.4463,-1.96882,-47.4734
2023-03-11 22:47:21:244,-0.329003,1.80389,-9.60983,-10.4469,-1.9735,-47.5244
2023-03-11 22:47:21:254,-0.253515,1.83952,-9.6715,-10.4449,-1.96909,-47.573
2023-03-11 22:47:21:264,-0.176651,1.84622,-9.70122,-10.4324,-1.95924,-47.6105
2023-03-11 22:47:21:274,-0.135466,1.79109,-9.64814,-10.4183,-1.94635,-47.6414
2023-03-11 22:47:21:284,-0.108358,1.73925,-9.6045,-10.4004,-1.92965,-47.6581
2023-03-11 22:47:21:294,-0.102957,1.73692,-9.58335,-10.3867,-1.91487,-47.664
2023-03-11 22:47:21:304,-0.169663,1.77679,-9.6081,-10.3762,-1.90074,-47.6612
2023-03-11 22:47:21:314,-0.248698,1.76298,-9.61694,-10.3603,-1.87895,-47.6508
2023-03-11 22:47:21:324,-0.312699,1.75402,-9.58937,-10.3452,-1.85831,-47.642
2023-03-11 22:47:21:334,-0.324683,1.75733,-9.59746,-10.3308,-1.83036,-47.6338
2023-03-11 22:47:21:344,-0.260235,1.75463,-9.61776,-10.3154,-1.7985,-47.6269
2023-03-11 22:47:21:354,-0.196992,1.71709,-9.62366,-10.2992,-1.76454,-47.6202
2023-03-11 22:47:21:364,-0.200886,1.70038,-9.5764,-10.2856,-1.74007,-47.6065
2023-03-11 22:47:21:374,-0.244634,1.70594,-9.52767,-10.2787,-1.72093,-47.5929
2023-03-11 22:47:21:384,-0.296867,1.73855,-9.52695,-10.2812,-1.70559,-47.5815
2023-03-11 22:47:21:394,-0.297115,1.77798,-9.56067,-10.2874,-1.69399,-47.5737
2023-03-11 22:47:21:404,-0.265913,1.81475,-9.59543,-10.2942,-1.68076,-47.5716
2023-03-11 22:47:21:414,-0.237138,1.83547,-9.63419,-10.3025,-1.67082,-47.5716
2023-03-11 22:47:21:424,-0.232804,1.85014,-9.64511,-10.3083,-1.66647,-47.5699
2023-03-11 22:47:21:434,-0.234556,1.84565,-9.63597,-10.3126,-1.65972,-47.5666
2023-03-11 22:47:21:444,-0.231999,1.82458,-9.61236,-10.3066,-1.65782,-47.5645
2023-03-11 22:47:21:454,-0.229648,1.78639,-9.57479,-10.3023,-1.65826,-47.5619
2023-03-11 22:47:21:465,-0.251237,1.76208,-9.55642,-10.295,-1.65454,-47.5573
2023-03-11 22:47:21:474,-0.264965,1.75331,-9.55948,-10.2906,-1.6532,-47.5532
2023-03-11 22:47:21:484,-0.260746,1.75357,-9.58801,-10.2862,-1.65238,-47.5509
2023-03-11 22:47:21:495,-0.227566,1.76353,-9.62776,-10.2814,-1.64886,-47.5449
2023-03-11 22:47:21:504,-0.214168,1.7751,-9.65588,-10.2797,-1.64168,-47.5442
2023-03-11 22:47:21:514,-0.201497,1.78403,-9.66442,-10.2819,-1.637,-47.5376
2023-03-11 22:47:21:524,-0.201274,1.764,-9.65109,-10.2816,-1.63337,-47.529
2023-03-11 22:47:21:534,-0.224469,1.77293,-9.62549,-10.2824,-1.6254,-47.5212
2023-03-11 22:47:21:545,-0.289287,1.79478,-9.60602,-10.2818,-1.62146,-47.5111
2023-03-11 22:47:21:554,-0.325477,1.82017,-9.59578,-10.2865,-1.61736,-47.5055
2023-03-11 22:47:21:564,-0.338285,1.83111,-9.63263,-10.2879,-1.61194,-47.5057
2023-03-11 22:47:21:574,-0.300451,1.85883,-9.65889,-10.2875,-1.60569,-47.5084
2023-03-11 22:47:21:584,-0.202934,1.85252,-9.69153,-10.2879,-1.59617,-47.5118
2023-03-11 22:47:21:594,-0.122401,1.8295,-9.72958,-10.2811,-1.58631,-47.5064
2023-03-11 22:47:21:604,-0.067452,1.80202,-9.73984,-10.2678,-1.57729,-47.4911
2023-03-11 22:47:21:614,-0.107095,1.77581,-9.70585,-10.2486,-1.57623,-47.4725
2023-03-11 22:47:21:625,-0.173503,1.76759,-9.65496,-10.2314,-1.58012,-47.4525
2023-03-11 22:47:21:634,-0.205554,1.75222,-9.63029,-10.2097,-1.5854,-47.4313
2023-03-11 22:47:21:644,-0.228202,1.73208,-9.62045,-10.1881,-1.5883,-47.4089
2023-03-11 22:47:21:654,-0.211574,1.72497,-9.60818,-10.1661,-1.59077,-47.3863
2023-03-11 22:47:21:664,-0.170848,1.71317,-9.61293,-10.1491,-1.5913,-47.3645
2023-03-11 22:47:21:674,-0.152511,1.71995,-9.60779,-10.1335,-1.59372,-47.3361
2023-03-11 22:47:21:684,-0.124705,1.71873,-9.6007,-10.1203,-1.59683,-47.3035
2023-03-11 22:47:21:694,-0.0665456,1.71353,-9.59251,-10.1072,-1.59683,-47.2649
2023-03-11 22:47:21:704,-0.038003,1.70248,-9.60331,-10.0941,-1.5984,-47.22
2023-03-11 22:47:21:714,-0.0342993,1.69329,-9.61052,-10.0795,-1.60364,-47.1651
2023-03-11 22:47:21:724,-0.036917,1.67574,-9.59876,-10.0667,-1.61215,-47.1012
2023-03-11 22:47:21:734,0.0096902,1.67662,-9.58116,-10.0508,-1.61485,-47.0271
2023-03-11 22:47:21:744,0.0987703,1.65735,-9.58012,-10.0374,-1.61594,-46.942
2023-03-11 22:47:21:754,0.225403,1.64049,-9.62146,-10.0268,-1.61434,-46.838
2023-03-11 22:47:21:764,0.324059,1.62469,-9.63864,-10.0128,-1.60418,-46.7063
2023-03-11 22:47:21:774,0.387747,1.62462,-9.64019,-10.0019,-1.58701,-46.5509
2023-03-11 22:47:21:785,0.468455,1.6259,-9.66628,-9.98558,-1.56475,-46.3621
2023-03-11 22:47:21:794,0.484489,1.64085,-9.68228,-9.9738,-1.52999,-46.1323
2023-03-11 22:47:21:804,0.408099,1.64174,-9.62515,-9.95848,-1.48917,-45.8714
2023-03-11 22:47:21:814,0.311424,1.63132,-9.55739,-9.94121,-1.44275,-45.5832
2023-03-11 22:47:21:825,0.277618,1.62266,-9.54652,-9.92818,-1.38841,-45.2732
2023-03-11 22:47:21:834,0.288224,1.64289,-9.56361,-9.91724,-1.32335,-44.9374
2023-03-11 22:47:21:844,0.341402,1.66824,-9.61632,-9.91193,-1.25576,-44.5818
2023-03-11 22:47:21:854,0.423846,1.70891,-9.67946,-9.91237,-1.18504,-44.2083
2023-03-11 22:47:21:864,0.481052,1.72612,-9.73842,-9.90753,-1.11838,-43.8055
2023-03-11 22:47:21:874,0.466521,1.76574,-9.75583,-9.89759,-1.05023,-43.3769
2023-03-11 22:47:21:884,0.389095,1.78025,-9.75137,-9.8808,-0.98412,-42.9211
2023-03-11 22:47:21:894,0.331217,1.786,-9.72068,-9.85862,-0.91432,-42.4441
2023-03-11 22:47:21:904,0.37806,1.75001,-9.68106,-9.83231,-0.845962,-41.9498
2023-03-11 22:47:21:914,0.495466,1.73326,-9.6973,-9.80538,-0.770395,-41.4346
2023-03-11 22:47:21:924,0.629403,1.74277,-9.73996,-9.7755,-0.689245,-40.8861
2023-03-11 22:47:21:934,0.734339,1.7498,-9.7695,-9.74341,-0.605536,-40.3076
2023-03-11 22:47:21:944,0.797787,1.76424,-9.80221,-9.70617,-0.521415,-39.6876
2023-03-11 22:47:21:954,0.858844,1.76307,-9.80154,-9.6607,-0.435237,-39.0325
2023-03-11 22:47:21:964,0.883873,1.76787,-9.78446,-9.60969,-0.341812,-38.3367
2023-03-11 22:47:21:974,0.886074,1.79598,-9.77789,-9.55211,-0.239911,-37.5943
2023-03-11 22:47:21:985,0.824983,1.81737,-9.75569,-9.48212,-0.126719,-36.8121
2023-03-11 22:47:21:994,0.826601,1.8103,-9.71647,-9.40724,0.00136028,-35.9949
2023-03-11 22:47:22:4,0.882051,1.7986,-9.68867,-9.32088,0.146217,-35.1366
2023-03-11 22:47:22:14,0.87485,1.78582,-9.6611,-9.22971,0.302096,-34.2383
2023-03-11 22:47:22:24,0.8762,1.77065,-9.63256,-9.13463,0.472335,-33.3003
2023-03-11 22:47:22:34,0.888368,1.77376,-9.58287,-9.031,0.659095,-32.3234
2023-03-11 22:47:22:44,0.885619,1.75667,-9.53341,-8.93496,0.854092,-31.3123
2023-03-11 22:47:22:54,0.901217,1.76306,-9.5177,-8.83423,1.05751,-30.262
2023-03-11 22:47:22:64,1.01935,1.78556,-9.57809,-8.73346,1.28089,-29.1786
2023-03-11 22:47:22:74,1.09838,1.81904,-9.65099,-8.63422,1.5208,-28.0502
2023-03-11 22:47:22:84,1.08472,1.84822,-9.67964,-8.5288,1.78096,-26.8816
2023-03-11 22:47:22:94,0.98564,1.85797,-9.6376,-8.41018,2.05519,-25.6729
2023-03-11 22:47:22:104,0.835853,1.81643,-9.56848,-8.28361,2.33807,-24.4341
2023-03-11 22:47:22:114,0.802668,1.80257,-9.57569,-8.15542,2.6344,-23.1776
2023-03-11 22:47:22:124,0.88206,1.85406,-9.62936,-8.02695,2.94427,-21.9062
2023-03-11 22:47:22:134,1.10477,1.85766,-9.73639,-7.89091,3.26214,-20.612
2023-03-11 22:47:22:144,1.32321,1.85124,-9.87336,-7.74157,3.58927,-19.293
2023-03-11 22:47:22:154,1.37055,1.88524,-9.95825,-7.57964,3.91047,-17.9338
2023-03-11 22:47:22:164,1.21274,1.89266,-9.96411,-7.39988,4.22545,-16.5484
2023-03-11 22:47:22:174,0.884888,1.88775,-9.8641,-7.20396,4.52047,-15.1445
2023-03-11 22:47:22:184,0.591029,1.83315,-9.75436,-6.99586,4.80248,-13.7434
2023-03-11 22:47:22:194,0.537306,1.80798,-9.7316,-6.78856,5.08597,-12.3578
2023-03-11 22:47:22:204,0.623384,1.78856,-9.80017,-6.57424,5.37215,-10.9819
2023-03-11 22:47:22:214,0.643557,1.78378,-9.84994,-6.35929,5.65083,-9.62185
2023-03-11 22:47:22:224,0.544454,1.76183,-9.89311,-6.1353,5.91234,-8.27288
2023-03-11 22:47:22:234,0.435711,1.73208,-9.90854,-5.90223,6.14762,-6.9538
2023-03-11 22:47:22:244,0.338351,1.68504,-9.9107,-5.66288,6.35786,-5.66978
2023-03-11 22:47:22:254,0.327199,1.65352,-9.92243,-5.41619,6.54053,-4.42517
2023-03-11 22:47:22:264,0.428732,1.56679,-9.94756,-5.16401,6.70083,-3.22861
2023-03-11 22:47:22:274,0.433879,1.47469,-9.88378,-4.89743,6.82913,-2.0715
2023-03-11 22:47:22:284,0.312241,1.34205,-9.72667,-4.62498,6.92885,-0.95885
2023-03-11 22:47:22:294,0.28317,1.19394,-9.59496,-4.35759,7.00266,0.103668
2023-03-11 22:47:22:304,0.362077,1.07373,-9.5421,-4.0998,7.05897,1.12242
2023-03-11 22:47:22:315,0.366043,0.987043,-9.51387,-3.85614,7.09951,2.09928
2023-03-11 22:47:22:324,0.307765,0.900426,-9.46268,-3.62524,7.12741,3.04101
2023-03-11 22:47:22:334,0.239939,0.814311,-9.41901,-3.40409,7.15029,3.94215
2023-03-11 22:47:22:344,0.261115,0.713194,-9.40306,-3.2037,7.16879,4.80333
2023-03-11 22:47:22:354,0.297071,0.658681,-9.40447,-3.01823,7.18808,5.62364
2023-03-11 22:47:22:364,0.328244,0.625503,-9.40438,-2.8499,7.20392,6.40477
2023-03-11 22:47:22:374,0.501564,0.598321,-9.39396,-2.7022,7.226,7.14919
2023-03-11 22:47:22:384,0.723214,0.513205,-9.45614,-2.56559,7.25513,7.86072
2023-03-11 22:47:22:394,0.806685,0.450913,-9.45589,-2.43695,7.28162,8.55304
2023-03-11 22:47:22:404,0.838707,0.431841,-9.42634,-2.32359,7.30738,9.22911
2023-03-11 22:47:22:414,0.859475,0.390741,-9.3822,-2.22016,7.33233,9.88516
2023-03-11 22:47:22:424,0.863043,0.328835,-9.34282,-2.13656,7.35143,10.5201
2023-03-11 22:47:22:434,0.924723,0.31868,-9.37418,-2.07089,7.36905,11.1388
2023-03-11 22:47:22:444,1.00388,0.389972,-9.53102,-2.02358,7.38096,11.7352
2023-03-11 22:47:22:454,1.05701,0.472973,-9.72725,-1.98867,7.38718,12.314
2023-03-11 22:47:22:464,1.13233,0.506886,-9.84596,-1.95415,7.39293,12.8809
2023-03-11 22:47:22:474,1.15933,0.507689,-9.84689,-1.91372,7.39573,13.4401
2023-03-11 22:47:22:484,1.10903,0.466045,-9.75615,-1.86229,7.40182,13.9969
2023-03-11 22:47:22:494,1.00394,0.387427,-9.61094,-1.80571,7.41254,14.552
2023-03-11 22:47:22:504,0.927482,0.328193,-9.48154,-1.75632,7.4296,15.1031
2023-03-11 22:47:22:514,0.93308,0.342118,-9.47428,-1.71974,7.44811,15.6425
2023-03-11 22:47:22:524,1.06215,0.440929,-9.6218,-1.70512,7.464,16.1583
2023-03-11 22:47:22:534,1.19154,0.521218,-9.8305,-1.70014,7.4663,16.6482
2023-03-11 22:47:22:544,1.27725,0.572556,-9.97675,-1.69262,7.45775,17.1221
2023-03-11 22:47:22:554,1.16696,0.586843,-9.96829,-1.67118,7.43495,17.5855
2023-03-11 22:47:22:564,0.869544,0.529592,-9.79715,-1.63742,7.40647,18.0481
2023-03-11 22:47:22:574,0.695013,0.424484,-9.59159,-1.59703,7.37729,18.4962
2023-03-11 22:47:22:584,0.824852,0.323695,-9.50812,-1.56277,7.35936,18.9204
2023-03-11 22:47:22:595,0.876836,0.345579,-9.56274,-1.54657,7.33403,19.3232
2023-03-11 22:47:22:604,0.725442,0.459987,-9.65645,-1.55309,7.29307,19.7026
2023-03-11 22:47:22:614,0.73729,0.51258,-9.75041,-1.56567,7.24665,20.0528
2023-03-11 22:47:22:624,0.777791,0.481483,-9.79271,-1.57401,7.20086,20.3807
2023-03-11 22:47:22:635,0.656294,0.434396,-9.68627,-1.57728,7.14923,20.6909
2023-03-11 22:47:22:644,0.532473,0.401081,-9.6332,-1.58171,7.09869,20.9859
2023-03-11 22:47:22:654,0.522298,0.42909,-9.65896,-1.59564,7.05167,21.2512
2023-03-11 22:47:22:664,0.580986,0.489715,-9.75328,-1.61283,7.00684,21.493
2023-03-11 22:47:22:675,0.633209,0.540159,-9.81657,-1.63737,6.95647,21.7092
2023-03-11 22:47:22:684,0.615327,0.528434,-9.79734,-1.65972,6.8986,21.8897
2023-03-11 22:47:22:694,0.426497,0.514679,-9.71998,-1.68422,6.82912,22.0475
2023-03-11 22:47:22:704,0.275803,0.514884,-9.70551,-1.7094,6.75762,22.174
2023-03-11 22:47:22:714,0.238339,0.499576,-9.67234,-1.73613,6.69727,22.2704
2023-03-11 22:47:22:724,0.340494,0.46932,-9.63016,-1.76436,6.6509,22.3335
2023-03-11 22:47:22:734,0.554769,0.460348,-9.66797,-1.792,6.61919,22.3699
2023-03-11 22:47:22:744,0.682228,0.531327,-9.77461,-1.82757,6.59327,22.3924
2023-03-11 22:47:22:754,0.757759,0.542246,-9.81863,-1.86539,6.55478,22.3857
2023-03-11 22:47:22:764,0.733377,0.59868,-9.84901,-1.90631,6.50436,22.3647
2023-03-11 22:47:22:774,0.569817,0.672426,-9.89231,-1.94055,6.45317,22.3281
2023-03-11 22:47:22:784,0.577527,0.587977,-9.83427,-1.96023,6.40913,22.273
2023-03-11 22:47:22:795,0.634163,0.498684,-9.73257,-1.97101,6.39043,22.2106
2023-03-11 22:47:22:804,0.645516,0.446714,-9.63212,-1.97727,6.39104,22.1445
2023-03-11 22:47:22:814,0.69459,0.424312,-9.60768,-1.99109,6.40834,22.0731
2023-03-11 22:47:22:824,0.760122,0.490522,-9.70674,-2.01377,6.43207,21.9912
2023-03-11 22:47:22:835,0.829267,0.587664,-9.86847,-2.04038,6.45002,21.8908
2023-03-11 22:47:22:844,0.934723,0.679531,-10.0511,-2.07149,6.44667,21.7654
2023-03-11 22:47:22:854,0.919039,0.747173,-10.1365,-2.09524,6.42302,21.6187
2023-03-11 22:47:22:864,0.819762,0.7147,-10.0477,-2.09695,6.39153,21.4605
2023-03-11 22:47:22:875,0.784023,0.600272,-9.86343,-2.07964,6.36285,21.2952
2023-03-11 22:47:22:884,0.801876,0.499423,-9.69771,-2.04728,6.35667,21.127
2023-03-11 22:47:22:894,0.844338,0.406718,-9.59041,-2.01632,6.36366,20.9522
2023-03-11 22:47:22:904,0.907074,0.351176,-9.5709,-1.99254,6.37059,20.7728
2023-03-11 22:47:22:915,0.962112,0.433696,-9.71658,-1.98985,6.36898,20.5817
2023-03-11 22:47:22:924,0.927043,0.61581,-9.94575,-1.99799,6.35013,20.3696
2023-03-11 22:47:22:934,0.70324,0.744276,-10.0531,-2.00194,6.30822,20.1386
2023-03-11 22:47:22:944,0.452087,0.707588,-9.9721,-1.98435,6.26452,19.8896
2023-03-11 22:47:22:955,0.350821,0.593541,-9.79672,-1.94945,6.24635,19.624
2023-03-11 22:47:22:964,0.277099,0.462521,-9.61894,-1.90806,6.24748,19.3378
2023-03-11 22:47:22:974,-0.00710836,0.403682,-9.4472,-1.87375,6.25894,19.0392
2023-03-11 22:47:22:984,-0.316475,0.432089,-9.35354,-1.85927,6.27224,18.7014
2023-03-11 22:47:22:995,-0.236876,0.532624,-9.52303,-1.87678,6.28667,18.3055
2023-03-11 22:47:23:4,0.136258,0.762351,-9.8703,-1.92693,6.28524,17.8274
2023-03-11 22:47:23:14,0.487626,0.950024,-10.1403,-1.98685,6.2578,17.2744
2023-03-11 22:47:23:24,0.566247,0.995682,-10.1389,-2.03272,6.19537,16.673
2023-03-11 22:47:23:34,0.378947,0.877463,-9.87626,-2.05581,6.10541,16.0325
2023-03-11 22:47:23:44,0.193362,0.698471,-9.54061,-2.06713,6.0059,15.352
2023-03-11 22:47:23:54,-0.00127436,0.549415,-9.2731,-2.08914,5.89867,14.6303
2023-03-11 22:47:23:64,-0.365153,0.4909,-9.07571,-2.13372,5.7879,13.8562
2023-03-11 22:47:23:74,-0.733714,0.555454,-8.99379,-2.2205,5.66953,13.0139
2023-03-11 22:47:23:84,-0.772329,0.762791,-9.08244,-2.35375,5.54894,12.0789
2023-03-11 22:47:23:94,-0.169881,0.932891,-9.36852,-2.52461,5.43269,11.0371
2023-03-11 22:47:23:104,0.660663,0.990344,-9.77099,-2.71086,5.30604,9.91943
2023-03-11 22:47:23:114,1.1205,1.08001,-10.0513,-2.89702,5.13963,8.76808
2023-03-11 22:47:23:124,1.20554,1.10022,-10.1179,-3.07005,4.93167,7.59961
2023-03-11 22:47:23:134,1.09331,1.01791,-9.98449,-3.22342,4.69307,6.43146
2023-03-11 22:47:23:144,0.79365,0.945624,-9.70476,-3.36229,4.4323,5.26259
2023-03-11 22:47:23:154,0.417189,0.881044,-9.42962,-3.5086,4.15884,4.07787
2023-03-11 22:47:23:164,0.0547908,0.885323,-9.23977,-3.66857,3.88116,2.86139
2023-03-11 22:47:23:174,-0.155128,0.994566,-9.15885,-3.85535,3.6118,1.59915
2023-03-11 22:47:23:184,-0.0239437,1.15253,-9.29702,-4.07051,3.34553,0.274992
2023-03-11 22:47:23:194,0.327329,1.33043,-9.54447,-4.31209,3.08139,-1.09726
2023-03-11 22:47:23:204,0.798933,1.46462,-9.76123,-4.55738,2.8161,-2.50148
2023-03-11 22:47:23:214,1.32797,1.47653,-9.97099,-4.7904,2.54444,-3.90927
2023-03-11 22:47:23:224,1.57068,1.43277,-10.0866,-5.00104,2.24845,-5.27978
2023-03-11 22:47:23:234,1.55747,1.33901,-10.0711,-5.19379,1.915,-6.61567
2023-03-11 22:47:23:244,1.44595,1.27535,-10.0441,-5.36746,1.56537,-7.90509
2023-03-11 22:47:23:254,1.27389,1.29307,-10.0443,-5.52706,1.20625,-9.14875
2023-03-11 22:47:23:264,1.20708,1.30218,-10.0546,-5.66588,0.85285,-10.3522
2023-03-11 22:47:23:275,1.13952,1.31669,-10.0202,-5.78674,0.522382,-11.507
2023-03-11 22:47:23:284,0.882857,1.29469,-9.83445,-5.88743,0.20898,-12.6139
2023-03-11 22:47:23:294,0.626777,1.19772,-9.56616,-5.96808,-0.0770609,-13.6803
2023-03-11 22:47:23:304,0.557291,1.06126,-9.40788,-6.04966,-0.34504,-14.7199
2023-03-11 22:47:23:314,0.549528,0.988123,-9.42082,-6.14625,-0.606666,-15.7378
2023-03-11 22:47:23:324,0.417483,1.12563,-9.58764,-6.26522,-0.889285,-16.7351
2023-03-11 22:47:23:334,0.373346,1.3542,-9.87334,-6.39404,-1.17373,-17.7208
2023-03-11 22:47:23:344,0.396481,1.5044,-10.0564,-6.51249,-1.4328,-18.6844
2023-03-11 22:47:23:354,0.323829,1.51637,-10.0282,-6.59658,-1.65909,-19.6154
2023-03-11 22:47:23:364,0.203286,1.41977,-9.83383,-6.65561,-1.84938,-20.5098
2023-03-11 22:47:23:374,0.133839,1.31113,-9.61393,-6.69545,-1.99753,-21.3719
2023-03-11 22:47:23:384,0.148621,1.19736,-9.47101,-6.73084,-2.11294,-22.2041
2023-03-11 22:47:23:395,0.226258,1.12218,-9.42202,-6.7782,-2.20289,-23.0061
2023-03-11 22:47:23:404,0.291855,1.14402,-9.46258,-6.83897,-2.2777,-23.7742
2023-03-11 22:47:23:414,0.273526,1.22995,-9.5749,-6.91284,-2.34617,-24.5109
2023-03-11 22:47:23:424,0.210499,1.29703,-9.67827,-6.99614,-2.40685,-25.2233
2023-03-11 22:47:23:434,0.146714,1.31602,-9.6854,-7.0758,-2.46555,-25.9109
2023-03-11 22:47:23:444,0.0875321,1.28288,-9.62407,-7.1492,-2.5137,-26.5756
2023-03-11 22:47:23:454,0.0627776,1.25692,-9.59989,-7.22671,-2.55947,-27.2177
2023-03-11 22:47:23:464,0.107351,1.27074,-9.64108,-7.30825,-2.59577,-27.8423
2023-03-11 22:47:23:475,0.0988323,1.30921,-9.66212,-7.39588,-2.63506,-28.4467
2023-03-11 22:47:23:484,0.0455748,1.35619,-9.67901,-7.48347,-2.6708,-29.0322
2023-03-11 22:47:23:494,0.0320945,1.35212,-9.67577,-7.56914,-2.70389,-29.6011
2023-03-11 22:47:23:504,0.0684463,1.3544,-9.66293,-7.65457,-2.73882,-30.1562
2023-03-11 22:47:23:514,0.103526,1.36919,-9.68114,-7.74428,-2.77023,-30.6916
2023-03-11 22:47:23:524,0.140391,1.38374,-9.71966,-7.8296,-2.80153,-31.2045
2023-03-11 22:47:23:534,0.133556,1.40002,-9.76065,-7.91717,-2.83192,-31.6931
2023-03-11 22:47:23:544,0.0522795,1.43678,-9.79058,-8.00348,-2.86062,-32.163
2023-03-11 22:47:23:554,-0.00647086,1.45245,-9.78242,-8.08486,-2.88978,-32.6176
2023-03-11 22:47:23:564,-0.0576142,1.45083,-9.76119,-8.1566,-2.91704,-33.0545
2023-03-11 22:47:23:574,-0.115898,1.44103,-9.68863,-8.22482,-2.95275,-33.4816
2023-03-11 22:47:23:584,-0.136916,1.42093,-9.60025,-8.29776,-2.99631,-33.9067
2023-03-11 22:47:23:594,-0.147731,1.40085,-9.51263,-8.37329,-3.05291,-34.3257
2023-03-11 22:47:23:604,-0.122108,1.38133,-9.47832,-8.4581,-3.11493,-34.743
2023-03-11 22:47:23:614,-0.0882206,1.35152,-9.45669,-8.55811,-3.20697,-35.1551
2023-03-11 22:47:23:624,-0.0513731,1.57003,-9.77329,-8.66874,-3.28183,-35.548
2023-03-11 22:47:23:634,0.0853573,1.56772,-9.87315,-8.76583,-3.36029,-35.9265
2023-03-11 22:47:23:644,0.107411,1.48329,-9.84414,-8.85814,-3.45869,-36.2747
2023-03-11 22:47:23:654,0.0178828,1.44406,-9.78061,-8.94036,-3.5808,-36.6033
2023-03-11 22:47:23:664,-0.184194,1.5113,-9.7411,-9.03021,-3.72542,-36.9182
2023-03-11 22:47:23:675,-0.349987,1.62556,-9.80187,-9.11711,-3.87737,-37.2278
2023-03-11 22:47:23:684,-0.414602,1.65246,-9.76197,-9.19488,-4.03056,-37.5335
2023-03-11 22:47:23:695,-0.467924,1.59948,-9.66376,-9.26514,-4.18752,-37.8328
2023-03-11 22:47:23:704,-0.515065,1.55003,-9.57569,-9.33233,-4.34299,-38.1275
2023-03-11 22:47:23:714,-0.539213,1.54186,-9.55333,-9.40338,-4.4963,-38.4191
2023-03-11 22:47:23:724,-0.479224,1.61261,-9.60373,-9.47667,-4.64248,-38.7035
2023-03-11 22:47:23:734,-0.445279,1.66988,-9.66345,-9.55176,-4.78035,-38.9693
2023-03-11 22:47:23:744,-0.465553,1.68274,-9.73107,-9.62442,-4.90629,-39.2164
2023-03-11 22:47:23:754,-0.495124,1.72049,-9.77162,-9.69255,-5.01935,-39.4475
2023-03-11 22:47:23:764,-0.519888,1.74225,-9.79621,-9.75154,-5.11907,-39.6597
2023-03-11 22:47:23:775,-0.528553,1.74607,-9.77935,-9.80295,-5.20693,-39.8552
2023-03-11 22:47:23:784,-0.54979,1.72672,-9.70875,-9.84535,-5.28861,-40.0319
2023-03-11 22:47:23:794,-0.642721,1.71442,-9.62551,-9.88598,-5.36426,-40.1954
2023-03-11 22:47:23:804,-0.703293,1.71657,-9.59259,-9.93221,-5.43243,-40.344
2023-03-11 22:47:23:815,-0.687788,1.76277,-9.6213,-9.98264,-5.49069,-40.4865
2023-03-11 22:47:23:824,-0.679773,1.83638,-9.68286,-10.0319,-5.54524,-40.615
2023-03-11 22:47:23:834,-0.675708,1.89843,-9.74538,-10.0789,-5.58652,-40.7305
2023-03-11 22:47:23:844,-0.64546,1.90813,-9.76879,-10.1193,-5.61221,-40.8247
2023-03-11 22:47:23:855,-0.636823,1.88638,-9.73923,-10.1483,-5.62578,-40.8986
2023-03-11 22:47:23:864,-0.718262,1.8714,-9.70285,-10.1729,-5.62706,-40.9567
2023-03-11 22:47:23:874,-0.808044,1.87434,-9.66062,-10.1911,-5.62573,-41.0031
2023-03-11 22:47:23:884,-0.865407,1.8423,-9.60215,-10.2012,-5.62397,-41.0454
2023-03-11 22:47:23:894,-0.87137,1.83052,-9.55903,-10.2124,-5.62416,-41.0851
2023-03-11 22:47:23:904,-0.859782,1.8385,-9.59522,-10.2218,-5.61979,-41.1223
2023-03-11 22:47:23:914,-0.851246,1.8674,-9.60194,-10.2339,-5.61767,-41.1566
2023-03-11 22:47:23:924,-0.836253,1.83921,-9.57729,-10.2387,-5.61726,-41.1826
2023-03-11 22:47:23:934,-0.820425,1.78678,-9.53661,-10.2449,-5.61529,-41.207
2023-03-11 22:47:23:944,-0.811499,1.76115,-9.49284,-10.2477,-5.61278,-41.226
2023-03-11 22:47:23:954,-0.790388,1.73716,-9.48636,-10.2557,-5.60664,-41.2358
2023-03-11 22:47:23:964,-0.845672,1.7609,-9.49272,-10.2744,-5.59898,-41.238
2023-03-11 22:47:23:974,-0.897918,1.83429,-9.55682,-10.2965,-5.59022,-41.2414
2023-03-11 22:47:23:984,-0.937717,1.88928,-9.6074,-10.3157,-5.58071,-41.2415
2023-03-11 22:47:23:994,-0.94145,1.90046,-9.6032,-10.3325,-5.56568,-41.2422
2023-03-11 22:47:24:4,-0.93268,1.88556,-9.58171,-10.3492,-5.5465,-41.2419
2023-03-11 22:47:24:15,-0.889097,1.88274,-9.57484,-10.3626,-5.52759,-41.2398
2023-03-11 22:47:24:24,-0.833074,1.86717,-9.56983,-10.375,-5.4998,-41.2286
2023-03-11 22:47:24:34,-0.827502,1.85945,-9.57358,-10.3867,-5.47356,-41.212
2023-03-11 22:47:24:44,-0.886309,1.8819,-9.60027,-10.4014,-5.45265,-41.1895
2023-03-11 22:47:24:54,-0.979446,1.92014,-9.66791,-10.4164,-5.43016,-41.1676
2023-03-11 22:47:24:64,-1.05391,1.97141,-9.72006,-10.4244,-5.40783,-41.1498
2023-03-11 22:47:24:74,-1.0462,1.98632,-9.74286,-10.4296,-5.38086,-41.1451
2023-03-11 22:47:24:84,-1.00383,1.94672,-9.72337,-10.4213,-5.35162,-41.1449
2023-03-11 22:47:24:94,-0.959126,1.89573,-9.66945,-10.4051,-5.32739,-41.146
2023-03-11 22:47:24:104,-0.948255,1.86156,-9.63117,-10.392,-5.30921,-41.1478
2023-03-11 22:47:24:114,-0.949714,1.84722,-9.57874,-10.3767,-5.29016,-41.1529
2023-03-11 22:47:24:124,-0.924422,1.83033,-9.56675,-10.3634,-5.27986,-41.1596
2023-03-11 22:47:24:134,-0.908515,1.81813,-9.59032,-10.3523,-5.27119,-41.1669
2023-03-11 22:47:24:144,-0.927185,1.81972,-9.61204,-10.3382,-5.26352,-41.1732
2023-03-11 22:47:24:154,-0.965968,1.83323,-9.61455,-10.3202,-5.25728,-41.1802
2023-03-11 22:47:24:164,-0.999303,1.83713,-9.60472,-10.3036,-5.25058,-41.1917
2023-03-11 22:47:24:174,-0.99414,1.81132,-9.60513,-10.2807,-5.24365,-41.2076
2023-03-11 22:47:24:184,-0.944385,1.77583,-9.57342,-10.2515,-5.23301,-41.2254
2023-03-11 22:47:24:194,-0.902248,1.74051,-9.54974,-10.2221,-5.22541,-41.2426
2023-03-11 22:47:24:204,-0.891013,1.7135,-9.50963,-10.1973,-5.21734,-41.2575
2023-03-11 22:47:24:215,-0.890375,1.69196,-9.48478,-10.1756,-5.20869,-41.2696
2023-03-11 22:47:24:224,-0.892242,1.70243,-9.47848,-10.1623,-5.20287,-41.2797
2023-03-11 22:47:24:234,-0.923056,1.71497,-9.52359,-10.1514,-5.19557,-41.2888
2023-03-11 22:47:24:245,-0.942028,1.74616,-9.59472,-10.1414,-5.18428,-41.2951
2023-03-11 22:47:24:254,-0.937066,1.75798,-9.61114,-10.1326,-5.17806,-41.3011
2023-03-11 22:47:24:264,-0.963945,1.75368,-9.60565,-10.1204,-5.16965,-41.3117
2023-03-11 22:47:24:274,-0.970687,1.74467,-9.5893,-10.1097,-5.1599,-41.3249
2023-03-11 22:47:24:284,-0.966229,1.73963,-9.55629,-10.0977,-5.14864,-41.3405
2023-03-11 22:47:24:295,-0.9586,1.72447,-9.5481,-10.0837,-5.13791,-41.3587
2023-03-11 22:47:24:304,-0.946932,1.71472,-9.54484,-10.0707,-5.1235,-41.3772
2023-03-11 22:47:24:314,-0.906189,1.71236,-9.5623,-10.0576,-5.10762,-41.3954
2023-03-11 22:47:24:324,-0.848392,1.71895,-9.59353,-10.0483,-5.08164,-41.4148
2023-03-11 22:47:24:334,-0.819287,1.72644,-9.62179,-10.0364,-5.06003,-41.4246
2023-03-11 22:47:24:344,-0.802618,1.708,-9.62381,-10.0238,-5.03823,-41.4326
2023-03-11 22:47:24:354,-0.814051,1.69766,-9.62243,-10.0106,-5.0168,-41.4389
2023-03-11 22:47:24:364,-0.833499,1.69944,-9.64074,-9.99666,-4.99743,-41.4384
2023-03-11 22:47:24:374,-0.851998,1.70305,-9.64892,-9.98122,-4.9794,-41.438
2023-03-11 22:47:24:385,-0.883878,1.71882,-9.64006,-9.96682,-4.96329,-41.437
2023-03-11 22:47:24:394,-0.915597,1.72153,-9.62035,-9.95161,-4.95127,-41.441
2023-03-11 22:47:24:404,-0.926085,1.72013,-9.59305,-9.93409,-4.94022,-41.4514
2023-03-11 22:47:24:414,-0.898267,1.69803,-9.59055,-9.91591,-4.92919,-41.4659
2023-03-11 22:47:24:424,-0.885989,1.70712,-9.58699,-9.90014,-4.92247,-41.4845
2023-03-11 22:47:24:434,-0.864313,1.69513,-9.59097,-9.88417,-4.9131,-41.5051
2023-03-11 22:47:24:444,-0.846984,1.6904,-9.60188,-9.87184,-4.90763,-41.5258
2023-03-11 22:47:24:454,-0.839731,1.68211,-9.61718,-9.85641,-4.90717,-41.5483
2023-03-11 22:47:24:464,-0.841589,1.68323,-9.61773,-9.84033,-4.90546,-41.5615
2023-03-11 22:47:24:474,-0.851867,1.66985,-9.61564,-9.8233,-4.90249,-41.5837
2023-03-11 22:47:24:484,-0.866371,1.66369,-9.59249,-9.80646,-4.90193,-41.6039
2023-03-11 22:47:24:494,-0.853001,1.64017,-9.56541,-9.79205,-4.89858,-41.6235
2023-03-11 22:47:24:504,-0.83777,1.62715,-9.53928,-9.77508,-4.89548,-41.6445
2023-03-11 22:47:24:514,-0.827562,1.59827,-9.54306,-9.75873,-4.89026,-41.6644
2023-03-11 22:47:24:525,-0.81767,1.58627,-9.53076,-9.74481,-4.88291,-41.68
2023-03-11 22:47:24:534,-0.785179,1.58556,-9.51033,-9.73308,-4.87481,-41.6961
2023-03-11 22:47:24:544,-0.773967,1.58357,-9.53957,-9.72694,-4.86139,-41.7048
2023-03-11 22:47:24:554,-0.784584,1.60664,-9.54233,-9.72417,-4.8482,-41.7152
2023-03-11 22:47:24:564,-0.804257,1.59875,-9.53413,-9.72443,-4.83533,-41.7242
2023-03-11 22:47:24:574,-0.827385,1.58434,-9.54112,-9.72314,-4.82458,-41.7288
2023-03-11 22:47:24:584,-0.879122,1.58621,-9.57606,-9.72377,-4.81068,-41.7363
2023-03-11 22:47:24:594,-0.880946,1.59816,-9.61659,-9.72758,-4.79857,-41.7473
2023-03-11 22:47:24:604,-0.874456,1.58707,-9.64071,-9.72767,-4.78609,-41.7634
2023-03-11 22:47:24:614,-0.852407,1.58614,-9.6075,-9.72979,-4.77592,-41.7804
2023-03-11 22:47:24:624,-0.839568,1.56193,-9.56612,-9.73284,-4.77143,-41.7977
2023-03-11 22:47:24:634,-0.851983,1.59168,-9.54496,-9.73995,-4.77124,-41.8241
2023-03-11 22:47:24:644,-0.864947,1.61699,-9.55753,-9.75204,-4.77889,-41.8506
2023-03-11 22:47:24:654,-0.875569,1.64876,-9.55369,-9.7706,-4.78783,-41.8812
2023-03-11 22:47:24:665,-0.869122,1.68064,-9.55741,-9.7897,-4.79465,-41.915
2023-03-11 22:47:24:674,-0.840185,1.68765,-9.57552,-9.80961,-4.79808,-41.9536
2023-03-11 22:47:24:684,-0.816295,1.6874,-9.59784,-9.82987,-4.80035,-41.9876
2023-03-11 22:47:24:694,-0.806289,1.69793,-9.59572,-9.84801,-4.80184,-42.0227
2023-03-11 22:47:24:704,-0.836614,1.72051,-9.58748,-9.86196,-4.80452,-42.0559
2023-03-11 22:47:24:714,-0.859096,1.72262,-9.60292,-9.87754,-4.80128,-42.0867
2023-03-11 22:47:24:724,-0.860949,1.70293,-9.60889,-9.88678,-4.80074,-42.1238
2023-03-11 22:47:24:734,-0.843999,1.68631,-9.60314,-9.89445,-4.79851,-42.1578
2023-03-11 22:47:24:744,-0.848135,1.66828,-9.59132,-9.90221,-4.7974,-42.1952
2023-03-11 22:47:24:754,-0.849198,1.67287,-9.57818,-9.91041,-4.79456,-42.2303
2023-03-11 22:47:24:764,-0.848637,1.68561,-9.57825,-9.92169,-4.78784,-42.2644
2023-03-11 22:47:24:774,-0.829763,1.69087,-9.58838,-9.93498,-4.77792,-42.2986
2023-03-11 22:47:24:784,-0.794405,1.69448,-9.61163,-9.9539,-4.76857,-42.3341
2023-03-11 22:47:24:794,-0.766564,1.73216,-9.64392,-9.97155,-4.75848,-42.3696
2023-03-11 22:47:24:804,-0.7763,1.782,-9.67855,-9.99059,-4.74842,-42.401
2023-03-11 22:47:24:815,-0.794316,1.80384,-9.68262,-10.0123,-4.73961,-42.4324
2023-03-11 22:47:24:824,-0.832479,1.78976,-9.65625,-10.0244,-4.73069,-42.4635
2023-03-11 22:47:24:834,-0.8543,1.7912,-9.61416,-10.0349,-4.72226,-42.5006
2023-03-11 22:47:24:844,-0.807555,1.75841,-9.59606,-10.0404,-4.71342,-42.5401
2023-03-11 22:47:24:854,-0.739284,1.72699,-9.5885,-10.0465,-4.70163,-42.58
2023-03-11 22:47:24:865,-0.716388,1.70608,-9.58783,-10.0526,-4.6932,-42.6177
2023-03-11 22:47:24:874,-0.722295,1.71547,-9.60656,-10.0632,-4.68802,-42.6494
2023-03-11 22:47:24:884,-0.736182,1.73283,-9.64253,-10.0706,-4.68737,-42.6798
2023-03-11 22:47:24:894,-0.775092,1.73525,-9.6384,-10.0806,-4.68834,-42.7104
2023-03-11 22:47:24:904,-0.760865,1.71581,-9.63374,-10.0831,-4.68675,-42.7386
2023-03-11 22:47:24:914,-0.753049,1.71688,-9.60924,-10.0851,-4.68586,-42.7654
2023-03-11 22:47:24:924,-0.746632,1.71002,-9.59596,-10.0895,-4.68752,-42.7939
2023-03-11 22:47:24:934,-0.745344,1.70728,-9.5872,-10.1007,-4.68452,-42.8152
2023-03-11 22:47:24:944,-0.764785,1.73641,-9.59169,-10.1082,-4.68461,-42.8341
2023-03-11 22:47:24:954,-0.773509,1.75209,-9.60604,-10.1167,-4.68372,-42.8554
2023-03-11 22:47:24:965,-0.795018,1.76778,-9.60833,-10.1265,-4.68583,-42.8747
2023-03-11 22:47:24:974,-0.802931,1.78291,-9.61035,-10.134,-4.68329,-42.8964
2023-03-11 22:47:24:984,-0.803507,1.78232,-9.62389,-10.1395,-4.68,-42.9184
2023-03-11 22:47:24:994,-0.807215,1.77257,-9.61083,-10.1374,-4.68259,-42.9417
2023-03-11 22:47:25:4,-0.812331,1.74953,-9.58273,-10.1317,-4.68433,-42.9676
2023-03-11 22:47:25:14,-0.832653,1.73213,-9.56183,-10.1282,-4.68565,-42.9923
2023-03-11 22:47:25:24,-0.857539,1.7358,-9.55144,-10.1293,-4.69222,-43.0187
2023-03-11 22:47:25:34,-0.865042,1.72618,-9.54173,-10.1338,-4.69934,-43.0467
2023-03-11 22:47:25:44,-0.865252,1.73039,-9.56692,-10.1396,-4.7037,-43.0751
2023-03-11 22:47:25:54,-0.851695,1.76069,-9.59967,-10.1455,-4.70546,-43.1051
2023-03-11 22:47:25:70,-0.845703,1.77637,-9.61361,-10.1565,-4.70669,-43.1386
2023-03-11 22:47:25:75,-0.838137,1.78396,-9.6177,-10.1635,-4.7025,-43.1713
2023-03-11 22:47:25:84,-0.842562,1.79017,-9.62337,-10.165,-4.69915,-43.1996
2023-03-11 22:47:25:95,-0.842623,1.78963,-9.61038,-10.1702,-4.69147,-43.2286
2023-03-11 22:47:25:104,-0.84804,1.77734,-9.59224,-10.1687,-4.68329,-43.2601
2023-03-11 22:47:25:114,-0.85358,1.77538,-9.57042,-10.1661,-4.67043,-43.293
2023-03-11 22:47:25:124,-0.863696,1.77073,-9.53879,-10.1637,-4.66064,-43.326
2023-03-11 22:47:25:134,-0.864639,1.76285,-9.53152,-10.1625,-4.6475,-43.3649
2023-03-11 22:47:25:145,-0.833988,1.75867,-9.54521,-10.162,-4.63842,-43.4037
2023-03-11 22:47:25:154,-0.804121,1.76178,-9.54902,-10.1628,-4.62681,-43.4443
2023-03-11 22:47:25:164,-0.775734,1.74225,-9.56699,-10.1635,-4.61538,-43.4859
2023-03-11 22:47:25:174,-0.766051,1.73397,-9.59156,-10.1654,-4.60249,-43.5269
2023-03-11 22:47:25:184,-0.765239,1.74866,-9.59951,-10.166,-4.58991,-43.5659
2023-03-11 22:47:25:194,-0.760264,1.75525,-9.6069,-10.1701,-4.57787,-43.602
2023-03-11 22:47:25:204,-0.757335,1.77014,-9.61115,-10.1764,-4.56608,-43.6382
2023-03-11 22:47:25:214,-0.744359,1.77307,-9.62704,-10.1802,-4.55236,-43.6737
2023-03-11 22:47:25:224,-0.723188,1.77728,-9.63207,-10.1822,-4.54226,-43.7084
2023-03-11 22:47:25:234,-0.734609,1.78132,-9.6284,-10.1846,-4.52942,-43.7409
2023-03-11 22:47:25:244,-0.745429,1.7682,-9.62286,-10.182,-4.51887,-43.773
2023-03-11 22:47:25:254,-0.753084,1.76424,-9.61741,-10.1778,-4.50979,-43.803
2023-03-11 22:47:25:264,-0.765161,1.7626,-9.61037,-10.1748,-4.49928,-43.8337
2023-03-11 22:47:25:274,-0.773708,1.76872,-9.60748,-10.1771,-4.4894,-43.8623
2023-03-11 22:47:25:284,-0.803094,1.78464,-9.60928,-10.1788,-4.48215,-43.8933
2023-03-11 22:47:25:294,-0.811119,1.79005,-9.62464,-10.179,-4.47044,-43.9274
2023-03-11 22:47:25:304,-0.802061,1.77953,-9.62704,-10.1733,-4.45865,-43.9616
2023-03-11 22:47:25:314,-0.792856,1.76321,-9.61309,-10.1652,-4.44575,-43.9949
2023-03-11 22:47:25:324,-0.758788,1.74077,-9.59272,-10.1601,-4.4294,-44.0278
2023-03-11 22:47:25:334,-0.723785,1.71088,-9.5836,-10.1522,-4.40914,-44.0608
2023-03-11 22:47:25:345,-0.705479,1.69957,-9.58633,-10.1437,-4.38376,-44.0898
2023-03-11 22:47:25:354,-0.675298,1.73283,-9.577,-10.1423,-4.35479,-44.1106
2023-03-11 22:47:25:364,-0.669672,1.73421,-9.57592,-10.1356,-4.32462,-44.13
2023-03-11 22:47:25:374,-0.701142,1.70407,-9.59395,-10.1301,-4.28981,-44.1424
2023-03-11 22:47:25:384,-0.694436,1.70256,-9.62412,-10.1221,-4.25182,-44.1487
2023-03-11 22:47:25:394,-0.647356,1.71704,-9.65131,-10.1157,-4.20473,-44.1549
2023-03-11 22:47:25:405,-0.643259,1.71534,-9.64282,-10.1049,-4.15582,-44.1566
2023-03-11 22:47:25:414,-0.64014,1.69687,-9.61614,-10.0947,-4.1071,-44.1526
2023-03-11 22:47:25:424,-0.622681,1.68858,-9.60085,-10.0859,-4.0564,-44.14
2023-03-11 22:47:25:434,-0.637338,1.71873,-9.59981,-10.0851,-4.0027,-44.1191
2023-03-11 22:47:25:444,-0.652333,1.75692,-9.61615,-10.0843,-3.94948,-44.1041
2023-03-11 22:47:25:454,-0.661052,1.78285,-9.63145,-10.0844,-3.89612,-44.0831
2023-03-11 22:47:25:464,-0.682332,1.80732,-9.6169,-10.0848,-3.83731,-44.0574
2023-03-11 22:47:25:474,-0.695248,1.81332,-9.60722,-10.0815,-3.7784,-44.0295
2023-03-11 22:47:25:484,-0.692653,1.81456,-9.60319,-10.0749,-3.71162,-43.9983
2023-03-11 22:47:25:494,-0.699725,1.8028,-9.56857,-10.0666,-3.63967,-43.9663
2023-03-11 22:47:25:504,-0.723283,1.797,-9.52926,-10.0566,-3.55999,-43.9349
2023-03-11 22:47:25:514,-0.741814,1.79559,-9.5345,-10.044,-3.47568,-43.9016
2023-03-11 22:47:25:524,-0.758946,1.79201,-9.58226,-10.0303,-3.38164,-43.8707
2023-03-11 22:47:25:534,-0.773531,1.80744,-9.62764,-10.0167,-3.27897,-43.8424
2023-03-11 22:47:25:544,-0.77043,1.8116,-9.63945,-9.99678,-3.16737,-43.8156
2023-03-11 22:47:25:554,-0.733493,1.77912,-9.64252,-9.97441,-3.04769,-43.7904
2023-03-11 22:47:25:564,-0.668463,1.76403,-9.64921,-9.94958,-2.92553,-43.7671
2023-03-11 22:47:25:574,-0.603946,1.7693,-9.66484,-9.92554,-2.79522,-43.7393
2023-03-11 22:47:25:584,-0.598269,1.78904,-9.68489,-9.90024,-2.65894,-43.7097
2023-03-11 22:47:25:594,-0.634791,1.8262,-9.69824,-9.87685,-2.51581,-43.6749
2023-03-11 22:47:25:604,-0.623534,1.85338,-9.69777,-9.85088,-2.36512,-43.6411
2023-03-11 22:47:25:615,-0.599052,1.84012,-9.68261,-9.8163,-2.19387,-43.6037
2023-03-11 22:47:25:624,-0.600344,1.82577,-9.6512,-9.77226,-2.01072,-43.5623
2023-03-11 22:47:25:634,-0.554529,1.79633,-9.61453,-9.72457,-1.81213,-43.5194
2023-03-11 22:47:25:644,-0.448345,1.75977,-9.63242,-9.67246,-1.5968,-43.4765
2023-03-11 22:47:25:654,-0.347307,1.75216,-9.65769,-9.61537,-1.36677,-43.4233
2023-03-11 22:47:25:664,-0.300007,1.73073,-9.67382,-9.55608,-1.13284,-43.358
2023-03-11 22:47:25:674,-0.326498,1.73205,-9.68783,-9.49272,-0.891554,-43.2861
2023-03-11 22:47:25:684,-0.357493,1.74143,-9.70639,-9.42622,-0.640745,-43.212
2023-03-11 22:47:25:694,-0.317778,1.72821,-9.71907,-9.3534,-0.375961,-43.138
2023-03-11 22:47:25:704,-0.2688,1.69862,-9.71254,-9.26875,-0.103606,-43.0642
2023-03-11 22:47:25:715,-0.210312,1.66962,-9.71202,-9.18451,0.183777,-42.9838
2023-03-11 22:47:25:724,-0.129295,1.64396,-9.69773,-9.09568,0.478848,-42.8976
2023-03-11 22:47:25:734,-0.098126,1.6354,-9.66636,-9.00298,0.785396,-42.8071
2023-03-11 22:47:25:744,-0.117106,1.65904,-9.6563,-8.90662,1.10258,-42.7137
2023-03-11 22:47:25:754,-0.110971,1.64914,-9.65063,-8.80787,1.42716,-42.6212
2023-03-11 22:47:25:764,-0.0437092,1.61145,-9.6466,-8.70283,1.76467,-42.5327
2023-03-11 22:47:25:774,0.0491646,1.59202,-9.64373,-8.59334,2.11354,-42.4466
2023-03-11 22:47:25:784,0.0893612,1.56719,-9.62317,-8.48411,2.4661,-42.3587
2023-03-11 22:47:25:794,0.089997,1.5407,-9.58085,-8.36927,2.82629,-42.2695
2023-03-11 22:47:25:804,0.0767471,1.51128,-9.5594,-8.25505,3.19185,-42.1854
2023-03-11 22:47:25:814,0.103617,1.4767,-9.55488,-8.1402,3.57014,-42.1075
2023-03-11 22:47:25:824,0.189806,1.45079,-9.60224,-8.02687,3.96068,-42.0322
2023-03-11 22:47:25:834,0.384084,1.44298,-9.69009,-7.91115,4.36297,-41.9607
2023-03-11 22:47:25:844,0.583532,1.42215,-9.74149,-7.78873,4.77464,-41.8869
2023-03-11 22:47:25:854,0.709047,1.38186,-9.70332,-7.65453,5.19495,-41.7975
2023-03-11 22:47:25:864,0.747224,1.32404,-9.61351,-7.51337,5.62522,-41.7004
2023-03-11 22:47:25:874,0.691919,1.29449,-9.51393,-7.36759,6.06552,-41.5896
2023-03-11 22:47:25:884,0.567273,1.28383,-9.44408,-7.22243,6.51601,-41.481
2023-03-11 22:47:25:895,0.485808,1.26945,-9.39033,-7.07839,6.98069,-41.3764
2023-03-11 22:47:25:904,0.508773,1.22475,-9.35618,-6.93864,7.46579,-41.2889
2023-03-11 22:47:25:914,0.708658,1.18744,-9.35166,-6.80092,7.96602,-41.2193
2023-03-11 22:47:25:924,0.950414,1.13477,-9.3859,-6.66991,8.48601,-41.1509
2023-03-11 22:47:25:934,1.13518,1.07944,-9.41839,-6.53764,9.01631,-41.0774
2023-03-11 22:47:25:944,1.30811,1.04693,-9.45468,-6.40303,9.55507,-41.0001
2023-03-11 22:47:25:954,1.41513,1.05406,-9.45177,-6.26941,10.1089,-40.9205
2023-03-11 22:47:25:964,1.41987,1.03931,-9.41044,-6.12788,10.6701,-40.8332
2023-03-11 22:47:25:974,1.37668,1.01036,-9.32593,-5.98233,11.2436,-40.7452
2023-03-11 22:47:25:984,1.32506,0.966658,-9.23038,-5.83241,11.8287,-40.6605
2023-03-11 22:47:25:995,1.35525,0.939888,-9.14892,-5.68806,12.4264,-40.5957
2023-03-11 22:47:26:4,1.56663,0.901995,-9.16749,-5.55271,13.0508,-40.5475
2023-03-11 22:47:26:14,1.89672,0.865098,-9.25109,-5.41775,13.6873,-40.5079
2023-03-11 22:47:26:24,2.19784,0.837776,-9.33891,-5.28401,14.3391,-40.468
2023-03-11 22:47:26:34,2.36017,0.814067,-9.35622,-5.13872,15.0005,-40.4094
2023-03-11 22:47:26:45,2.35338,0.798181,-9.26355,-4.98095,15.67,-40.3452
2023-03-11 22:47:26:54,2.30071,0.762486,-9.11789,-4.81732,16.3538,-40.278
2023-03-11 22:47:26:64,2.32727,0.718702,-8.96586,-4.6494,17.0496,-40.2163
2023-03-11 22:47:26:74,2.4875,0.662031,-8.90126,-4.48781,17.7578,-40.1674
2023-03-11 22:47:26:84,2.6796,0.600949,-8.85963,-4.32655,18.4805,-40.1233
2023-03-11 22:47:26:95,2.7695,0.584937,-8.82145,-4.17347,19.202,-40.091
2023-03-11 22:47:26:104,2.85744,0.582103,-8.81886,-4.0229,19.9305,-40.0671
2023-03-11 22:47:26:114,3.11192,0.579948,-8.87393,-3.87985,20.6737,-40.0589
2023-03-11 22:47:26:124,3.51039,0.551005,-8.98004,-3.73657,21.4309,-40.0553
2023-03-11 22:47:26:134,3.81218,0.552891,-9.00803,-3.57667,22.1912,-40.038
2023-03-11 22:47:26:145,3.88181,0.534637,-8.89426,-3.39822,22.9479,-40.0083
2023-03-11 22:47:26:154,3.77774,0.483474,-8.66252,-3.20841,23.6978,-39.9717
2023-03-11 22:47:26:164,3.60719,0.429472,-8.45271,-3.01463,24.4455,-39.9349
2023-03-11 22:47:26:174,3.60104,0.381227,-8.3775,-2.83067,25.1991,-39.9217
2023-03-11 22:47:26:184,3.84207,0.336355,-8.46062,-2.66316,25.9597,-39.9343
2023-03-11 22:47:26:195,4.131,0.328569,-8.5605,-2.50546,26.7281,-39.9629
2023-03-11 22:47:26:204,4.36532,0.288466,-8.54553,-2.33532,27.5058,-39.9956
2023-03-11 22:47:26:214,4.57735,0.232022,-8.3927,-2.16061,28.2844,-40.035
2023-03-11 22:47:26:224,4.71697,0.169003,-8.19429,-1.98406,29.057,-40.0724
2023-03-11 22:47:26:234,4.78712,0.127193,-8.00709,-1.8125,29.8225,-40.1079
2023-03-11 22:47:26:245,4.8638,0.118778,-7.86689,-1.65838,30.5777,-40.1603
2023-03-11 22:47:26:254,4.98222,0.103229,-7.81067,-1.52556,31.3249,-40.2249
2023-03-11 22:47:26:264,5.159,0.134545,-7.79376,-1.41571,32.065,-40.3112
2023-03-11 22:47:26:274,5.39521,0.151754,-7.79063,-1.32059,32.802,-40.4097
2023-03-11 22:47:26:284,5.60549,0.15561,-7.77061,-1.23055,33.5343,-40.5126
2023-03-11 22:47:26:294,5.71306,0.161157,-7.68175,-1.13881,34.2564,-40.6144
2023-03-11 22:47:26:305,5.7262,0.141887,-7.55162,-1.05567,34.9602,-40.7246
2023-03-11 22:47:26:314,5.74422,0.139748,-7.47714,-0.984518,35.6537,-40.8429
2023-03-11 22:47:26:324,5.86648,0.147293,-7.5131,-0.93239,36.3396,-40.9851
2023-03-11 22:47:26:334,6.06128,0.168915,-7.54795,-0.89655,37.0092,-41.1431
2023-03-11 22:47:26:344,6.24909,0.188472,-7.51787,-0.868203,37.6688,-41.3213
2023-03-11 22:47:26:354,6.45773,0.13521,-7.46224,-0.846732,38.3051,-41.5111
2023-03-11 22:47:26:365,6.7164,0.12525,-7.45783,-0.832135,38.9297,-41.7053
2023-03-11 22:47:26:374,6.93268,0.145937,-7.48129,-0.809587,39.5427,-41.8902
2023-03-11 22:47:26:384,6.98676,0.180478,-7.3818,-0.771454,40.1447,-42.0583
2023-03-11 22:47:26:394,6.97135,0.147704,-7.14142,-0.722153,40.7297,-42.2254
2023-03-11 22:47:26:404,7.06167,0.0434482,-6.91265,-0.67716,41.2956,-42.3968
2023-03-11 22:47:26:414,7.17827,-0.0250469,-6.80917,-0.641482,41.8458,-42.5615
2023-03-11 22:47:26:424,7.23171,0.00931266,-6.79617,-0.619818,42.3783,-42.7218
2023-03-11 22:47:26:434,7.31055,0.0151607,-6.84256,-0.615306,42.8841,-42.8916
2023-03-11 22:47:26:444,7.54402,-0.00753259,-6.93959,-0.624551,43.3681,-43.0651
2023-03-11 22:47:26:454,7.85719,-0.0227609,-7.00835,-0.643728,43.8247,-43.2401
2023-03-11 22:47:26:465,8.03824,-0.0180271,-6.91523,-0.65474,44.2465,-43.4014
2023-03-11 22:47:26:474,7.97628,-0.0721778,-6.7029,-0.653858,44.6351,-43.5363
2023-03-11 22:47:26:484,7.71744,-0.0866808,-6.51128,-0.651047,44.9882,-43.6483
2023-03-11 22:47:26:494,7.48238,-0.00364997,-6.47013,-0.658862,45.3167,-43.7571
2023-03-11 22:47:26:504,7.51985,0.0572128,-6.58413,-0.702475,45.6303,-43.8936
2023-03-11 22:47:26:515,7.86004,0.0929252,-6.78521,-0.772351,45.9263,-44.0581
2023-03-11 22:47:26:524,8.23255,0.125368,-6.89241,-0.842976,46.1987,-44.223
2023-03-11 22:47:26:534,8.40802,0.0704603,-6.78773,-0.894817,46.4404,-44.3718
2023-03-11 22:47:26:544,8.23957,-0.0354545,-6.49993,-0.916958,46.6476,-44.481
2023-03-11 22:47:26:554,7.8847,-0.0488573,-6.24329,-0.940011,46.8298,-44.5633
2023-03-11 22:47:26:564,7.65838,0.00124244,-6.22105,-0.995039,46.9927,-44.6482
2023-03-11 22:47:26:575,7.89222,0.0884603,-6.51455,-1.0877,47.1467,-44.7525
2023-03-11 22:47:26:584,8.2343,0.22708,-6.87524,-1.19675,47.2741,-44.8636
2023-03-11 22:47:26:594,8.23718,0.324248,-6.93768,-1.28382,47.3729,-44.9647
2023-03-11 22:47:26:604,8.15906,0.214156,-6.7176,-1.34384,47.4488,-45.0558
2023-03-11 22:47:26:614,8.28076,0.0112054,-6.48169,-1.38671,47.5107,-45.1324
2023-03-11 22:47:26:624,8.25902,-0.0739951,-6.2607,-1.42189,47.5542,-45.1692
2023-03-11 22:47:26:634,8.0671,-0.0998744,-6.15404,-1.46487,47.576,-45.1734
2023-03-11 22:47:26:644,8.04672,-0.0473517,-6.22438,-1.53932,47.5816,-45.1732
2023-03-11 22:47:26:654,8.25199,0.0371926,-6.47812,-1.6461,47.5618,-45.1765
2023-03-11 22:47:26:664,8.49291,0.0856122,-6.77165,-1.75264,47.509,-45.1738
2023-03-11 22:47:26:674,8.5114,0.175424,-6.91569,-1.8369,47.4212,-45.1427
2023-03-11 22:47:26:684,8.38287,0.206668,-6.88935,-1.88233,47.3043,-45.0784
2023-03-11 22:47:26:694,8.21589,0.182693,-6.72566,-1.88642,47.1728,-44.9776
2023-03-11 22:47:26:704,7.98814,0.115897,-6.51771,-1.86784,47.0245,-44.8497
2023-03-11 22:47:26:714,7.79693,0.0650176,-6.37905,-1.84936,46.8604,-44.7006
2023-03-11 22:47:26:724,7.75312,0.0428479,-6.36167,-1.85092,46.6821,-44.5515
2023-03-11 22:47:26:734,7.98476,0.0390045,-6.54967,-1.8864,46.4818,-44.4168
2023-03-11 22:47:26:744,8.38874,0.0330634,-6.89519,-1.93018,46.2482,-44.2741
2023-03-11 22:47:26:754,8.5167,0.135788,-7.13645,-1.95167,45.9702,-44.0934
2023-03-11 22:47:26:764,8.3099,0.224646,-7.16208,-1.93972,45.6466,-43.879
2023-03-11 22:47:26:774,8.01842,0.23135,-6.97372,-1.89268,45.2968,-43.6439
2023-03-11 22:47:26:784,7.67268,0.156556,-6.70551,-1.82761,44.9205,-43.3897
2023-03-11 22:47:26:794,7.24896,0.122372,-6.49884,-1.77309,44.5237,-43.1345
2023-03-11 22:47:26:805,6.98769,0.135702,-6.45009,-1.76303,44.1064,-42.9031
2023-03-11 22:47:26:814,7.14149,0.151202,-6.59849,-1.81079,43.6716,-42.7166
2023-03-11 22:47:26:824,7.55182,0.173204,-6.89738,-1.90224,43.2162,-42.5517
2023-03-11 22:47:26:834,7.78507,0.245308,-7.1851,-2.00905,42.723,-42.381
2023-03-11 22:47:26:844,7.70351,0.350693,-7.38256,-2.11228,42.1796,-42.1952
2023-03-11 22:47:26:854,7.41251,0.463127,-7.4648,-2.20615,41.5913,-42.0002
2023-03-11 22:47:26:864,7.05046,0.532598,-7.48944,-2.2862,40.9679,-41.8016
2023-03-11 22:47:26:874,6.7763,0.564358,-7.48269,-2.35718,40.3198,-41.6122
2023-03-11 22:47:26:884,6.72117,0.564255,-7.55467,-2.43043,39.6564,-41.4314
2023-03-11 22:47:26:894,6.784,0.611362,-7.69766,-2.50786,38.9751,-41.2573
2023-03-11 22:47:26:904,6.76513,0.671327,-7.86186,-2.57149,38.272,-41.0716
2023-03-11 22:47:26:914,6.64279,0.741631,-7.99038,-2.62308,37.5431,-40.879
2023-03-11 22:47:26:924,6.3918,0.785873,-8.08139,-2.65867,36.7828,-40.6829
2023-03-11 22:47:26:934,6.06339,0.769395,-8.08908,-2.66593,36.0022,-40.4871
2023-03-11 22:47:26:944,5.78132,0.719575,-8.04604,-2.65839,35.2097,-40.2972
2023-03-11 22:47:26:955,5.75333,0.636245,-8.01742,-2.63527,34.4147,-40.1113
2023-03-11 22:47:26:964,6.01287,0.508477,-8.05982,-2.6068,33.6169,-39.9288
2023-03-11 22:47:26:975,6.14922,0.420301,-8.0767,-2.56924,32.8013,-39.7248
2023-03-11 22:47:26:984,5.90347,0.422665,-8.03763,-2.53119,31.953,-39.4999
2023-03-11 22:47:26:994,5.55632,0.437865,-8.08326,-2.49225,31.0784,-39.2608
2023-03-11 22:47:27:4,5.20402,0.486196,-8.16813,-2.4563,30.1771,-39.0215
2023-03-11 22:47:27:14,4.89023,0.531475,-8.2356,-2.42965,29.2593,-38.7869
2023-03-11 22:47:27:25,4.74647,0.514817,-8.2978,-2.40468,28.3318,-38.5632
2023-03-11 22:47:27:34,4.75609,0.497972,-8.37111,-2.38218,27.4099,-38.3437
2023-03-11 22:47:27:44,4.6197,0.504061,-8.36427,-2.35342,26.4857,-38.1098
2023-03-11 22:47:27:54,4.29567,0.48796,-8.33339,-2.32504,25.5512,-37.8721
2023-03-11 22:47:27:64,3.87984,0.480484,-8.3226,-2.30049,24.6075,-37.6343
2023-03-11 22:47:27:74,3.47734,0.489532,-8.33216,-2.27637,23.6551,-37.4058
2023-03-11 22:47:27:84,3.17007,0.486259,-8.38526,-2.26674,22.7044,-37.1932
2023-03-11 22:47:27:94,2.98569,0.487066,-8.45606,-2.26505,21.7671,-36.9991
2023-03-11 22:47:27:104,2.96136,0.47424,-8.54834,-2.27647,20.8524,-36.8252
2023-03-11 22:47:27:114,2.94234,0.473743,-8.62109,-2.29253,19.9534,-36.6559
2023-03-11 22:47:27:124,2.79226,0.473487,-8.66611,-2.30851,19.0613,-36.4863
2023-03-11 22:47:27:134,2.45095,0.457939,-8.69866,-2.3245,18.1738,-36.3155
2023-03-11 22:47:27:144,2.04375,0.443386,-8.70075,-2.34725,17.2906,-36.1539
2023-03-11 22:47:27:154,1.63587,0.43498,-8.69102,-2.37919,16.4174,-36.0097
2023-03-11 22:47:27:164,1.40506,0.401717,-8.7294,-2.42348,15.5717,-35.8964
2023-03-11 22:47:27:174,1.4695,0.425035,-8.83739,-2.48701,14.7609,-35.8169
2023-03-11 22:47:27:184,1.70122,0.440963,-9.00893,-2.56691,13.9839,-35.7571
2023-03-11 22:47:27:194,1.77418,0.437872,-9.16346,-2.65199,13.2229,-35.7027
2023-03-11 22:47:27:204,1.56631,0.545963,-9.22165,-2.74297,12.4617,-35.6477
2023-03-11 22:47:27:214,1.29953,0.578282,-9.21602,-2.83338,11.6974,-35.6062
2023-03-11 22:47:27:224,0.992311,0.569846,-9.18981,-2.92455,10.9312,-35.5773
2023-03-11 22:47:27:234,0.662473,0.589128,-9.1971,-3.0236,10.1781,-35.5597
2023-03-11 22:47:27:244,0.435055,0.62759,-9.23753,-3.13302,9.43991,-35.5588
2023-03-11 22:47:27:254,0.339766,0.68118,-9.29978,-3.25017,8.73251,-35.5815
2023-03-11 22:47:27:264,0.325351,0.688212,-9.39535,-3.37192,8.05528,-35.6222
2023-03-11 22:47:27:275,0.308593,0.709283,-9.45776,-3.4947,7.41074,-35.6686
2023-03-11 22:47:27:284,0.237332,0.727947,-9.49778,-3.6133,6.7913,-35.7235
2023-03-11 22:47:27:294,0.100925,0.737139,-9.5343,-3.72773,6.19644,-35.794
2023-03-11 22:47:27:304,-0.00154424,0.778301,-9.56573,-3.84007,5.61818,-35.8842
2023-03-11 22:47:27:314,-0.0537039,0.844931,-9.61348,-3.95257,5.05951,-35.9923
2023-03-11 22:47:27:324,-0.0391397,0.9133,-9.71948,-4.06325,4.52542,-36.1174
2023-03-11 22:47:27:334,0.0198281,0.946285,-9.84297,-4.16546,4.01597,-36.25
2023-03-11 22:47:27:344,0.130086,0.977259,-9.93801,-4.25067,3.53121,-36.3851
2023-03-11 22:47:27:354,0.206324,0.962204,-9.94051,-4.31808,3.06995,-36.5136
2023-03-11 22:47:27:364,0.256444,0.858212,-9.86204,-4.36329,2.62892,-36.6357
2023-03-11 22:47:27:374,0.2908,0.749791,-9.7445,-4.39128,2.19695,-36.7421
2023-03-11 22:47:27:384,0.267191,0.679692,-9.6126,-4.41228,1.77719,-36.8324
2023-03-11 22:47:27:394,0.204708,0.639213,-9.5249,-4.43657,1.36783,-36.9119
2023-03-11 22:47:27:404,0.0776571,0.645315,-9.50608,-4.47002,0.967109,-36.9756
2023-03-11 22:47:27:414,-0.0923259,0.69125,-9.53838,-4.50718,0.575011,-37.0284
2023-03-11 22:47:27:424,-0.233774,0.740223,-9.60329,-4.54962,0.196079,-37.078
2023-03-11 22:47:27:434,-0.342617,0.790546,-9.65239,-4.59618,-0.168417,-37.1244
2023-03-11 22:47:27:444,-0.426094,0.816719,-9.68412,-4.64089,-0.516739,-37.168
2023-03-11 22:47:27:454,-0.495115,0.824898,-9.69034,-4.68319,-0.845889,-37.2131
2023-03-11 22:47:27:465,-0.495496,0.842349,-9.68376,-4.71841,-1.15741,-37.2587
2023-03-11 22:47:27:474,-0.494198,0.845024,-9.67926,-4.75435,-1.45649,-37.3
2023-03-11 22:47:27:484,-0.538118,0.839036,-9.66383,-4.78663,-1.73846,-37.3407
2023-03-11 22:47:27:494,-0.616432,0.838451,-9.66212,-4.82334,-2.01007,-37.3728
2023-03-11 22:47:27:504,-0.716338,0.866463,-9.68353,-4.85886,-2.27182,-37.4049
2023-03-11 22:47:27:514,-0.791589,0.878779,-9.71333,-4.88978,-2.51514,-37.4374
2023-03-11 22:47:27:525,-0.817156,0.872637,-9.72845,-4.91684,-2.73983,-37.4694
2023-03-11 22:47:27:534,-0.808371,0.872994,-9.72537,-4.94415,-2.94457,-37.4979
2023-03-11 22:47:27:544,-0.796317,0.876681,-9.75701,-4.96689,-3.13672,-37.5249
2023-03-11 22:47:27:554,-0.832855,0.898884,-9.79699,-4.98651,-3.31731,-37.5445
2023-03-11 22:47:27:564,-0.90546,0.940402,-9.84594,-5.00118,-3.479,-37.5614
2023-03-11 22:47:27:574,-0.960346,0.952373,-9.81833,-5.00524,-3.63366,-37.5841
2023-03-11 22:47:27:584,-0.9919,0.922653,-9.78182,-5.00245,-3.77658,-37.61
2023-03-11 22:47:27:594,-0.987923,0.870283,-9.73396,-4.99278,-3.90296,-37.638
2023-03-11 22:47:27:604,-0.973604,0.830053,-9.68034,-4.97926,-4.01412,-37.6683
2023-03-11 22:47:27:614,-0.94524,0.79521,-9.62585,-4.96542,-4.11293,-37.6978
2023-03-11 22:47:27:624,-0.917939,0.774378,-9.61572,-4.95247,-4.20233,-37.7317
2023-03-11 22:47:27:635,-0.916437,0.77821,-9.63897,-4.9443,-4.28304,-37.7583
2023-03-11 22:47:27:644,-0.925248,0.805408,-9.69793,-4.94353,-4.35597,-37.784
2023-03-11 22:47:27:654,-0.953486,0.84918,-9.72771,-4.93959,-4.4269,-37.8096
2023-03-11 22:47:27:664,-0.961157,0.836058,-9.7438,-4.93559,-4.4867,-37.843
2023-03-11 22:47:27:674,-0.949277,0.841448,-9.74241,-4.9248,-4.53894,-37.8771
2023-03-11 22:47:27:684,-0.917318,0.847218,-9.74415,-4.90918,-4.58348,-37.9133
2023-03-11 22:47:27:694,-0.866675,0.834069,-9.73683,-4.89314,-4.62252,-37.9494
2023-03-11 22:47:27:704,-0.827069,0.814931,-9.72578,-4.87719,-4.6631,-37.9833
2023-03-11 22:47:27:714,-0.81496,0.814733,-9.73142,-4.85801,-4.69871,-38.0165
2023-03-11 22:47:27:724,-0.828987,0.823249,-9.76046,-4.83746,-4.73635,-38.047
2023-03-11 22:47:27:734,-0.858455,0.829398,-9.77146,-4.81457,-4.77203,-38.084
2023-03-11 22:47:27:745,-0.887993,0.834201,-9.78156,-4.79125,-4.80982,-38.1201
2023-03-11 22:47:27:754,-0.89005,0.840759,-9.80332,-4.76529,-4.84645,-38.1562
2023-03-11 22:47:27:764,-0.874419,0.844091,-9.81917,-4.73472,-4.87939,-38.1982
2023-03-11 22:47:27:774,-0.818264,0.835121,-9.79058,-4.69664,-4.91858,-38.2469
2023-03-11 22:47:27:784,-0.747235,0.791624,-9.73859,-4.6539,-4.95959,-38.2968
2023-03-11 22:47:27:794,-0.707402,0.744645,-9.70988,-4.61046,-5.00944,-38.3468
2023-03-11 22:47:27:804,-0.730072,0.720758,-9.7178,-4.57055,-5.06929,-38.396
2023-03-11 22:47:27:814,-0.742464,0.731704,-9.75327,-4.53126,-5.13802,-38.4486
2023-03-11 22:47:27:824,-0.711443,0.749254,-9.80725,-4.4949,-5.21753,-38.5038
2023-03-11 22:47:27:834,-0.69417,0.759116,-9.8237,-4.45588,-5.30647,-38.5598
2023-03-11 22:47:27:844,-0.666998,0.748646,-9.80038,-4.41316,-5.40538,-38.6164
2023-03-11 22:47:27:855,-0.627997,0.731243,-9.7727,-4.36931,-5.51521,-38.6754
2023-03-11 22:47:27:864,-0.545507,0.71981,-9.74218,-4.32889,-5.63544,-38.7352
2023-03-11 22:47:27:874,-0.46116,0.70418,-9.73567,-4.28985,-5.77366,-38.794
2023-03-11 22:47:27:884,-0.435962,0.717755,-9.77609,-4.25359,-5.92715,-38.8396
2023-03-11 22:47:27:894,-0.487003,0.800587,-9.82207,-4.21966,-6.10448,-38.8758
2023-03-11 22:47:27:905,-0.577375,0.845913,-9.83442,-4.18472,-6.30907,-38.9153
2023-03-11 22:47:27:914,-0.613143,0.79874,-9.79494,-4.13631,-6.53392,-38.9532
2023-03-11 22:47:27:924,-0.57754,0.739047,-9.76142,-4.0795,-6.77583,-38.9901
2023-03-11 22:47:27:934,-0.531131,0.716259,-9.73565,-4.01977,-7.03929,-39.0219
2023-03-11 22:47:27:944,-0.501944,0.655521,-9.7337,-3.96103,-7.33233,-39.0458
2023-03-11 22:47:27:954,-0.546183,0.625647,-9.71637,-3.90437,-7.65072,-39.053
2023-03-11 22:47:27:964,-0.706039,0.641342,-9.6992,-3.85534,-8.00196,-39.0451
2023-03-11 22:47:27:974,-0.892517,0.64517,-9.69168,-3.80471,-8.37974,-39.0321
2023-03-11 22:47:27:984,-1.05633,0.680518,-9.71442,-3.75413,-8.77577,-39.0211
2023-03-11 22:47:27:994,-1.14914,0.716608,-9.73773,-3.70455,-9.18747,-39.0144
2023-03-11 22:47:28:4,-1.18914,0.728885,-9.76472,-3.65129,-9.61371,-39.0101
2023-03-11 22:47:28:14,-1.26909,0.756756,-9.77401,-3.59096,-10.0532,-39.0072
2023-03-11 22:47:28:24,-1.34195,0.759984,-9.72668,-3.5263,-10.5088,-39.004
2023-03-11 22:47:28:34,-1.36833,0.710452,-9.68177,-3.45132,-10.9725,-38.9966
2023-03-11 22:47:28:44,-1.34555,0.660815,-9.62292,-3.36889,-11.4457,-38.9791
2023-03-11 22:47:28:54,-1.31696,0.597081,-9.56139,-3.27932,-11.9324,-38.9535
2023-03-11 22:47:28:64,-1.35811,0.523483,-9.45565,-3.1845,-12.4401,-38.9234
2023-03-11 22:47:28:74,-1.46321,0.43574,-9.33125,-3.09371,-12.9635,-38.8802
2023-03-11 22:47:28:85,-1.6329,0.366408,-9.26786,-3.01241,-13.5105,-38.8248
2023-03-11 22:47:28:94,-1.89672,0.389171,-9.28437,-2.94202,-14.0771,-38.7558
2023-03-11 22:47:28:104,-2.20419,0.476383,-9.30944,-2.88582,-14.657,-38.6798
2023-03-11 22:47:28:114,-2.39728,0.518401,-9.3487,-2.82804,-15.2346,-38.6022
2023-03-11 22:47:28:124,-2.38286,0.471508,-9.28686,-2.76298,-15.8113,-38.5217
2023-03-11 22:47:28:134,-2.34718,0.357961,-9.16769,-2.69536,-16.3807,-38.4347
2023-03-11 22:47:28:144,-2.42397,0.2724,-9.05194,-2.63069,-16.9518,-38.3301
2023-03-11 22:47:28:154,-2.60741,0.263486,-8.99261,-2.57938,-17.5196,-38.202
2023-03-11 22:47:28:164,-2.77944,0.297703,-8.96331,-2.53802,-18.0941,-38.068
2023-03-11 22:47:28:174,-2.87214,0.339615,-8.95598,-2.50023,-18.6685,-37.9379
2023-03-11 22:47:28:184,-2.8727,0.344142,-8.91982,-2.46467,-19.2446,-37.8044
2023-03-11 22:47:28:194,-2.88393,0.252678,-8.74144,-2.43584,-19.8343,-37.663
2023-03-11 22:47:28:205,-3.0787,0.192912,-8.58061,-2.42356,-20.4382,-37.5077
2023-03-11 22:47:28:214,-3.34086,0.221674,-8.46433,-2.44122,-21.0492,-37.3345
2023-03-11 22:47:28:224,-3.43215,0.293762,-8.42625,-2.48413,-21.6494,-37.1513
2023-03-11 22:47:28:234,-3.29691,0.331244,-8.56314,-2.54864,-22.2355,-36.9571
2023-03-11 22:47:28:244,-3.19911,0.429558,-8.75228,-2.6349,-22.8242,-36.7341
2023-03-11 22:47:28:254,-3.33019,0.5128,-8.83418,-2.72829,-23.4269,-36.491
2023-03-11 22:47:28:264,-3.61521,0.537816,-8.74539,-2.82517,-24.0505,-36.2344
2023-03-11 22:47:28:274,-3.91454,0.55711,-8.59653,-2.92271,-24.6947,-35.9698
2023-03-11 22:47:28:284,-3.97586,0.59945,-8.49881,-3.02327,-25.3343,-35.7047
2023-03-11 22:47:28:294,-3.7998,0.59026,-8.49459,-3.12597,-25.9724,-35.4357
2023-03-11 22:47:28:304,-3.70577,0.586619,-8.46301,-3.23707,-26.6228,-35.1508
2023-03-11 22:47:28:314,-3.93373,0.617439,-8.33167,-3.36181,-27.2963,-34.832
2023-03-11 22:47:28:324,-4.3039,0.63587,-8.13622,-3.50012,-27.988,-34.4902
2023-03-11 22:47:28:334,-4.68694,0.604091,-7.96212,-3.65282,-28.6786,-34.1337
2023-03-11 22:47:28:344,-5.05108,0.558602,-7.84286,-3.81619,-29.3641,-33.7682
2023-03-11 22:47:28:354,-5.22061,0.528773,-7.82341,-3.99084,-30.0268,-33.4047
2023-03-11 22:47:28:364,-5.1762,0.518842,-7.90725,-4.1819,-30.661,-33.0427
2023-03-11 22:47:28:374,-5.08296,0.55969,-8.00014,-4.39597,-31.2779,-32.6701
2023-03-11 22:47:28:384,-5.14049,0.648353,-8.07034,-4.6301,-31.8832,-32.2821
2023-03-11 22:47:28:394,-5.29643,0.798168,-8.06346,-4.88197,-32.4851,-31.8781
2023-03-11 22:47:28:404,-5.36797,0.883569,-7.97436,-5.13158,-33.0814,-31.4722
2023-03-11 22:47:28:414,-5.38365,0.905054,-7.91173,-5.37978,-33.6746,-31.0628
2023-03-11 22:47:28:424,-5.4293,0.961805,-7.84783,-5.63436,-34.264,-30.6407
2023-03-11 22:47:28:434,-5.56905,0.99844,-7.74715,-5.89307,-34.8559,-30.2082
2023-03-11 22:47:28:444,-5.81256,1.01905,-7.65033,-6.15471,-35.4481,-29.7654
2023-03-11 22:47:28:454,-6.05909,1.10529,-7.5151,-6.41931,-36.0375,-29.3176
2023-03-11 22:47:28:465,-6.12792,1.15962,-7.41093,-6.68549,-36.6065,-28.8759
2023-03-11 22:47:28:474,-5.92686,1.16841,-7.38346,-6.95314,-37.1527,-28.4332
2023-03-11 22:47:28:484,-5.79996,1.16109,-7.4672,-7.22813,-37.6874,-27.9727
2023-03-11 22:47:28:494,-5.99666,1.21406,-7.55176,-7.52447,-38.2265,-27.4828
2023-03-11 22:47:28:504,-6.34352,1.32235,-7.54487,-7.83516,-38.7706,-26.9682
2023-03-11 22:47:28:514,-6.70436,1.46505,-7.37595,-8.15217,-39.3072,-26.4444
2023-03-11 22:47:28:524,-6.77263,1.48293,-7.21618,-8.45754,-39.8201,-25.9305
2023-03-11 22:47:28:534,-6.49875,1.4509,-7.20556,-8.73772,-40.2965,-25.4342
2023-03-11 22:47:28:544,-6.33643,1.47633,-7.23531,-9.01969,-40.7701,-24.9295
2023-03-11 22:47:28:554,-6.50774,1.46949,-7.16605,-9.30002,-41.2584,-24.419
2023-03-11 22:47:28:564,-6.85675,1.41361,-7.03188,-9.5896,-41.7703,-23.9
2023-03-11 22:47:28:574,-7.26126,1.44927,-6.86545,-9.88077,-42.2834,-23.3824
2023-03-11 22:47:28:584,-7.39723,1.53893,-6.72003,-10.1665,-42.7732,-22.8885
2023-03-11 22:47:28:594,-7.02626,1.50858,-6.73721,-10.4342,-43.2332,-22.4169
2023-03-11 22:47:28:605,-6.60954,1.4539,-6.82374,-10.6924,-43.6805,-21.9513
2023-03-11 22:47:28:614,-6.74212,1.48429,-6.84629,-10.9801,-44.1429,-21.4499
2023-03-11 22:47:28:624,-7.30953,1.53753,-6.80128,-11.2903,-44.6335,-20.9271
2023-03-11 22:47:28:634,-7.85396,1.6171,-6.69398,-11.5991,-45.1338,-20.4093
2023-03-11 22:47:28:644,-8.17791,1.70612,-6.4635,-11.8882,-45.6114,-19.9207
2023-03-11 22:47:28:654,-8.09255,1.69071,-6.25323,-12.1388,-46.0473,-19.4806
2023-03-11 22:47:28:664,-7.62917,1.57019,-6.26224,-12.3641,-46.4461,-19.0795
2023-03-11 22:47:28:674,-7.35123,1.54935,-6.41265,-12.587,-46.8333,-18.6828
2023-03-11 22:47:28:685,-7.59386,1.60555,-6.44019,-12.8228,-47.2366,-18.2729
2023-03-11 22:47:28:694,-7.90114,1.62462,-6.32071,-13.0512,-47.6533,-17.8724
2023-03-11 22:47:28:704,-8.02653,1.54896,-6.11322,-13.2609,-48.0583,-17.4939
2023-03-11 22:47:28:714,-8.12428,1.48654,-5.90648,-13.4638,-48.4276,-17.1254
2023-03-11 22:47:28:724,-8.14014,1.48595,-5.7233,-13.6657,-48.7563,-16.7659
2023-03-11 22:47:28:734,-8.01619,1.46963,-5.76728,-13.8802,-49.0388,-16.4155
2023-03-11 22:47:28:744,-7.91722,1.52479,-6.00029,-14.115,-49.2944,-16.0648
2023-03-11 22:47:28:754,-8.0634,1.71819,-6.22641,-14.3537,-49.5416,-15.7154
2023-03-11 22:47:28:765,-8.35936,1.79452,-6.2801,-14.5746,-49.787,-15.3791
2023-03-11 22:47:28:774,-8.66493,1.73161,-6.06333,-14.7612,-50.0243,-15.0734
2023-03-11 22:47:28:784,-8.81234,1.71192,-5.78236,-14.9181,-50.2373,-14.8032
2023-03-11 22:47:28:794,-8.65966,1.65649,-5.62866,-15.0432,-50.4008,-14.5812
2023-03-11 22:47:28:805,-8.36411,1.60238,-5.68641,-15.1656,-50.5144,-14.3781
2023-03-11 22:47:28:814,-8.37046,1.71476,-5.87584,-15.3077,-50.5971,-14.1733
2023-03-11 22:47:28:824,-8.64166,1.92679,-6.06998,-15.4648,-50.6541,-13.9706
2023-03-11 22:47:28:835,-8.87309,2.01154,-6.16855,-15.5887,-50.6809,-13.8013
2023-03-11 22:47:28:844,-9.03062,1.97204,-6.17717,-15.6662,-50.6786,-13.669
2023-03-11 22:47:28:854,-9.19154,1.83658,-6.09212,-15.7012,-50.6426,-13.5714
2023-03-11 22:47:28:864,-9.33265,1.72229,-5.95524,-15.6888,-50.5721,-13.5243
2023-03-11 22:47:28:874,-9.43605,1.67033,-5.79735,-15.6423,-50.4645,-13.5271
2023-03-11 22:47:28:884,-9.4979,1.62213,-5.60908,-15.5682,-50.3102,-13.5793
2023-03-11 22:47:28:894,-9.57801,1.58238,-5.4791,-15.47,-50.102,-13.6858
2023-03-11 22:47:28:904,-9.56858,1.59364,-5.42237,-15.3523,-49.8276,-13.8461
2023-03-11 22:47:28:914,-9.33573,1.59067,-5.48792,-15.1971,-49.4828,-14.0784
2023-03-11 22:47:28:924,-9.00358,1.58623,-5.61464,-15.0263,-49.0685,-14.3571
2023-03-11 22:47:28:934,-8.80735,1.57539,-5.72107,-14.8419,-48.6007,-14.6641
2023-03-11 22:47:28:944,-8.72812,1.60784,-5.83243,-14.6492,-48.0898,-15.0059
2023-03-11 22:47:28:954,-8.63643,1.64555,-5.99857,-14.4485,-47.5427,-15.3779
2023-03-11 22:47:28:965,-8.50857,1.69723,-6.16457,-14.2254,-46.9686,-15.7918
2023-03-11 22:47:28:974,-8.44998,1.7488,-6.2802,-13.975,-46.3796,-16.2526
2023-03-11 22:47:28:984,-8.33432,1.76544,-6.3848,-13.6954,-45.7772,-16.7591
2023-03-11 22:47:28:994,-8.03127,1.74398,-6.4906,-13.3794,-45.1568,-17.3141
2023-03-11 22:47:29:4,-7.75913,1.72767,-6.57329,-13.0414,-44.5224,-17.8989
2023-03-11 22:47:29:14,-7.63409,1.72647,-6.62068,-12.6981,-43.8819,-18.5031
2023-03-11 22:47:29:25,-7.45267,1.70821,-6.65064,-12.3449,-43.2259,-19.1292
2023-03-11 22:47:29:34,-7.19316,1.67162,-6.76264,-11.9872,-42.5573,-19.7665
2023-03-11 22:47:29:44,-6.91221,1.64525,-6.90145,-11.6364,-41.8706,-20.4088
2023-03-11 22:47:29:54,-6.6761,1.61979,-7.02463,-11.2831,-41.1756,-21.0509
2023-03-11 22:47:29:64,-6.50844,1.58575,-7.12287,-10.9255,-40.4711,-21.6953
2023-03-11 22:47:29:74,-6.31342,1.54175,-7.18449,-10.5696,-39.761,-22.3406
2023-03-11 22:47:29:84,-6.14328,1.48191,-7.2082,-10.2233,-39.0679,-22.9805
2023-03-11 22:47:29:94,-6.16841,1.56254,-7.37487,-9.89069,-38.3795,-23.6153
2023-03-11 22:47:29:104,-6.09014,1.63569,-7.53065,-9.5546,-37.6861,-24.259
2023-03-11 22:47:29:114,-5.79208,1.5566,-7.56477,-9.20179,-37.0023,-24.9183
2023-03-11 22:47:29:124,-5.42715,1.46433,-7.59408,-8.85194,-36.3106,-25.5723
2023-03-11 22:47:29:134,-5.03456,1.35641,-7.63822,-8.50582,-35.6303,-26.2114
2023-03-11 22:47:29:144,-4.82521,1.25315,-7.71373,-8.18007,-34.9586,-26.8185
2023-03-11 22:47:29:154,-4.9654,1.26488,-7.805,-7.88847,-34.3103,-27.3846
2023-03-11 22:47:29:164,-5.20765,1.31984,-7.87822,-7.61477,-33.6818,-27.9364
2023-03-11 22:47:29:174,-5.22459,1.32659,-7.98951,-7.34716,-33.0522,-28.4907
2023-03-11 22:47:29:184,-4.98339,1.27267,-8.11267,-7.0729,-32.4099,-29.0451
2023-03-11 22:47:29:194,-4.57061,1.11229,-8.18832,-6.78548,-31.7544,-29.5909
2023-03-11 22:47:29:204,-4.22194,0.931272,-8.19704,-6.4977,-31.089,-30.1088
2023-03-11 22:47:29:214,-4.12557,0.806156,-8.12534,-6.21789,-30.4295,-30.5966
2023-03-11 22:47:29:224,-4.20423,0.756372,-8.05911,-5.96536,-29.7836,-31.0529
2023-03-11 22:47:29:234,-4.28334,0.77411,-8.09326,-5.73823,-29.1467,-31.4958
2023-03-11 22:47:29:244,-4.26886,0.805213,-8.18795,-5.53279,-28.5049,-31.9253
2023-03-11 22:47:29:254,-4.09213,0.797054,-8.29923,-5.34337,-27.8538,-32.3453
2023-03-11 22:47:29:264,-3.85221,0.765261,-8.38095,-5.16019,-27.1979,-32.7493
2023-03-11 22:47:29:275,-3.64931,0.676306,-8.45013,-4.98457,-26.5378,-33.1343
2023-03-11 22:47:29:284,-3.50873,0.589134,-8.50261,-4.82651,-25.8797,-33.4887
2023-03-11 22:47:29:294,-3.4734,0.555204,-8.52821,-4.68387,-25.2349,-33.8186
2023-03-11 22:47:29:304,-3.63249,0.605534,-8.55165,-4.57678,-24.6049,-34.1228
2023-03-11 22:47:29:314,-3.7986,0.653897,-8.59211,-4.4848,-23.9801,-34.4195
2023-03-11 22:47:29:324,-3.81455,0.675757,-8.67637,-4.39602,-23.347,-34.7167
2023-03-11 22:47:29:335,-3.68542,0.693904,-8.75337,-4.30711,-22.702,-35.0206
2023-03-11 22:47:29:344,-3.42884,0.654168,-8.80511,-4.21187,-22.0388,-35.3295
2023-03-11 22:47:29:354,-3.13915,0.572827,-8.79749,-4.11739,-21.3668,-35.6271
2023-03-11 22:47:29:364,-2.98352,0.538705,-8.75058,-4.03238,-20.7056,-35.9109
2023-03-11 22:47:29:374,-3.01113,0.527467,-8.72978,-3.96668,-20.0706,-36.1809
2023-03-11 22:47:29:384,-3.07494,0.573954,-8.72845,-3.92424,-19.4507,-36.4503
2023-03-11 22:47:29:394,-3.0172,0.617817,-8.82284,-3.89798,-18.8311,-36.7175
2023-03-11 22:47:29:405,-2.8528,0.647387,-8.92762,-3.87843,-18.2062,-36.9863
