Timestamp,Acceleration_x,Acceleration_y,Acceleration_z,roll,pitch,yaw
2023-03-14 22:30:06:805,-0.618975,2.58511,-9.32434,-15.55,-3.39298,32.9129
2023-03-14 22:30:06:813,-0.636832,2.60543,-9.32977,-15.558,-3.39273,32.9214
2023-03-14 22:30:06:823,-0.638029,2.63213,-9.33915,-15.5701,-3.39228,32.9323
2023-03-14 22:30:06:833,-0.597242,2.63344,-9.36953,-15.5791,-3.38287,32.9424
2023-03-14 22:30:06:843,-0.576626,2.62767,-9.37004,-15.587,-3.37427,32.9506
2023-03-14 22:30:06:853,-0.564835,2.6395,-9.37541,-15.59,-3.36236,32.959
2023-03-14 22:30:06:863,-0.554502,2.6397,-9.39151,-15.5923,-3.34886,32.9669
2023-03-14 22:30:06:873,-0.564897,2.62587,-9.39547,-15.5901,-3.33605,32.9735
2023-03-14 22:30:06:883,-0.490149,2.59325,-9.41962,-15.5801,-3.31878,32.9809
2023-03-14 22:30:06:893,-0.378137,2.56754,-9.433,-15.5639,-3.29934,32.9965
2023-03-14 22:30:06:903,-0.485072,2.51958,-9.33742,-15.5466,-3.28396,33.0154
2023-03-14 22:30:06:913,-0.507407,2.48209,-9.27905,-15.537,-3.26514,33.033
2023-03-14 22:30:06:923,-0.451471,2.48062,-9.29585,-15.5322,-3.24729,33.0541
2023-03-14 22:30:06:933,-0.457438,2.49826,-9.31707,-15.5358,-3.22728,33.0762
2023-03-14 22:30:06:943,-0.461686,2.51053,-9.34727,-15.5453,-3.20726,33.0969
2023-03-14 22:30:06:953,-0.42659,2.55863,-9.39032,-15.5629,-3.19017,33.1184
2023-03-14 22:30:06:963,-0.389266,2.59027,-9.41733,-15.5836,-3.17723,33.1428
2023-03-14 22:30:06:973,-0.372148,2.62615,-9.43278,-15.6056,-3.16716,33.1734
2023-03-14 22:30:06:984,-0.378727,2.65787,-9.43661,-15.6252,-3.16372,33.2058
2023-03-14 22:30:06:993,-0.412309,2.67031,-9.44289,-15.6483,-3.16539,33.2425
2023-03-14 22:30:07:3,-0.476377,2.68935,-9.43396,-15.6688,-3.16843,33.2799
2023-03-14 22:30:07:13,-0.528875,2.70113,-9.44199,-15.6912,-3.17219,33.3201
2023-03-14 22:30:07:23,-0.546094,2.71151,-9.446,-15.7084,-3.17266,33.3525
2023-03-14 22:30:07:33,-0.555119,2.70738,-9.45149,-15.7204,-3.1745,33.381
2023-03-14 22:30:07:43,-0.572736,2.67906,-9.43217,-15.7289,-3.17327,33.4081
2023-03-14 22:30:07:53,-0.582102,2.66329,-9.4182,-15.7334,-3.17459,33.4348
2023-03-14 22:30:07:63,-0.609536,2.66674,-9.41631,-15.7355,-3.17276,33.4581
2023-03-14 22:30:07:73,-0.639979,2.68855,-9.41448,-15.7401,-3.16809,33.4823
2023-03-14 22:30:07:83,-0.621272,2.69525,-9.43467,-15.739,-3.16496,33.5031
2023-03-14 22:30:07:93,-0.587062,2.68182,-9.43104,-15.7362,-3.15811,33.5222
2023-03-14 22:30:07:103,-0.546132,2.66957,-9.42126,-15.7348,-3.14505,33.5386
2023-03-14 22:30:07:113,-0.516618,2.68145,-9.43242,-15.734,-3.13325,33.5588
2023-03-14 22:30:07:123,-0.503333,2.68233,-9.46315,-15.7333,-3.12336,33.5837
2023-03-14 22:30:07:133,-0.504401,2.6815,-9.48861,-15.7296,-3.11732,33.6049
2023-03-14 22:30:07:143,-0.532706,2.67011,-9.48704,-15.7214,-3.10989,33.6271
2023-03-14 22:30:07:153,-0.558504,2.64601,-9.47172,-15.7117,-3.10562,33.6473
2023-03-14 22:30:07:164,-0.587181,2.62378,-9.43106,-15.6955,-3.10444,33.6658
2023-03-14 22:30:07:173,-0.602273,2.59219,-9.38895,-15.6786,-3.0969,33.6832
2023-03-14 22:30:07:183,-0.571852,2.57667,-9.36647,-15.66,-3.08774,33.6965
2023-03-14 22:30:07:193,-0.519086,2.57308,-9.34573,-15.6411,-3.07747,33.7062
2023-03-14 22:30:07:203,-0.435756,2.55563,-9.33824,-15.6223,-3.06698,33.7158
2023-03-14 22:30:07:213,-0.391248,2.54697,-9.32981,-15.6083,-3.05808,33.7244
2023-03-14 22:30:07:224,-0.378171,2.54073,-9.32935,-15.5962,-3.04951,33.7411
2023-03-14 22:30:07:233,-0.369837,2.56853,-9.34265,-15.5951,-3.04804,33.7581
2023-03-14 22:30:07:243,-0.388683,2.59712,-9.36539,-15.5943,-3.04585,33.7765
2023-03-14 22:30:07:253,-0.41114,2.6112,-9.37749,-15.5936,-3.04458,33.7942
2023-03-14 22:30:07:264,-0.373134,2.60295,-9.37865,-15.5926,-3.04334,33.8105
2023-03-14 22:30:07:273,-0.356259,2.6094,-9.39704,-15.5964,-3.04262,33.8322
2023-03-14 22:30:07:283,-0.399954,2.64444,-9.39311,-15.6024,-3.04451,33.8555
2023-03-14 22:30:07:293,-0.446212,2.66982,-9.39454,-15.6086,-3.04756,33.8807
2023-03-14 22:30:07:303,-0.484729,2.7078,-9.41591,-15.6175,-3.04912,33.9046
2023-03-14 22:30:07:313,-0.511377,2.73721,-9.40548,-15.6265,-3.05455,33.9285
2023-03-14 22:30:07:323,-0.494841,2.73977,-9.40778,-15.6346,-3.05819,33.9514
2023-03-14 22:30:07:333,-0.474102,2.72435,-9.42301,-15.6397,-3.06624,33.9753
2023-03-14 22:30:07:343,-0.454479,2.71944,-9.43747,-15.6416,-3.07659,33.9996
2023-03-14 22:30:07:353,-0.45713,2.71137,-9.4228,-15.6454,-3.08689,34.0239
2023-03-14 22:30:07:363,-0.502367,2.7101,-9.42857,-15.6515,-3.10087,34.0525
2023-03-14 22:30:07:373,-0.56941,2.7572,-9.46089,-15.6541,-3.11355,34.0786
2023-03-14 22:30:07:383,-0.610647,2.773,-9.50948,-15.653,-3.12789,34.1024
2023-03-14 22:30:07:393,-0.63382,2.77724,-9.52987,-15.6449,-3.13664,34.1183
2023-03-14 22:30:07:403,-0.640161,2.76565,-9.50482,-15.6272,-3.14239,34.134
2023-03-14 22:30:07:413,-0.634354,2.72616,-9.47004,-15.6018,-3.14784,34.1426
2023-03-14 22:30:07:423,-0.594426,2.68652,-9.4339,-15.5681,-3.15277,34.153
2023-03-14 22:30:07:433,-0.559335,2.63052,-9.38998,-15.5352,-3.15197,34.1656
2023-03-14 22:30:07:443,-0.540857,2.59486,-9.37855,-15.5039,-3.14882,34.1754
2023-03-14 22:30:07:453,-0.525084,2.59261,-9.36823,-15.4785,-3.14684,34.1819
2023-03-14 22:30:07:463,-0.508887,2.57095,-9.36162,-15.4564,-3.14534,34.1899
2023-03-14 22:30:07:473,-0.502801,2.5723,-9.36339,-15.4339,-3.14348,34.195
2023-03-14 22:30:07:483,-0.483027,2.57069,-9.36602,-15.4165,-3.14162,34.1985
2023-03-14 22:30:07:493,-0.484039,2.56974,-9.39556,-15.3977,-3.13791,34.2032
2023-03-14 22:30:07:503,-0.498967,2.57195,-9.4204,-15.3837,-3.13568,34.2049
2023-03-14 22:30:07:513,-0.526199,2.57751,-9.43411,-15.3663,-3.13745,34.2063
2023-03-14 22:30:07:523,-0.548557,2.56591,-9.42107,-15.3494,-3.13625,34.2015
2023-03-14 22:30:07:533,-0.531671,2.54711,-9.41572,-15.3309,-3.13349,34.1928
2023-03-14 22:30:07:543,-0.499387,2.53974,-9.39589,-15.3153,-3.13363,34.18
2023-03-14 22:30:07:553,-0.494153,2.51362,-9.3739,-15.301,-3.13801,34.1679
2023-03-14 22:30:07:563,-0.503215,2.47347,-9.3715,-15.2851,-3.14473,34.1544
2023-03-14 22:30:07:573,-0.492771,2.47452,-9.3717,-15.2756,-3.15253,34.1433
2023-03-14 22:30:07:583,-0.503948,2.47564,-9.38083,-15.266,-3.16081,34.134
2023-03-14 22:30:07:593,-0.503746,2.47462,-9.40948,-15.2621,-3.16607,34.1246
2023-03-14 22:30:07:603,-0.50792,2.486,-9.40982,-15.2594,-3.17583,34.117
2023-03-14 22:30:07:613,-0.516762,2.491,-9.40447,-15.2581,-3.18417,34.1131
2023-03-14 22:30:07:623,-0.520981,2.49952,-9.40196,-15.2555,-3.1875,34.1116
2023-03-14 22:30:07:633,-0.50017,2.51169,-9.40564,-15.2555,-3.18407,34.1102
2023-03-14 22:30:07:643,-0.487243,2.5074,-9.41249,-15.2561,-3.18076,34.1112
2023-03-14 22:30:07:653,-0.484748,2.49708,-9.3985,-15.2535,-3.17638,34.1143
2023-03-14 22:30:07:663,-0.472364,2.45425,-9.38097,-15.2549,-3.17264,34.116
2023-03-14 22:30:07:673,-0.462317,2.44193,-9.34774,-15.2562,-3.16429,34.1174
2023-03-14 22:30:07:683,-0.462905,2.41188,-9.35578,-15.2567,-3.15377,34.1213
2023-03-14 22:30:07:693,-0.450227,2.42154,-9.36156,-15.2624,-3.14194,34.1249
2023-03-14 22:30:07:703,-0.404692,2.45017,-9.42418,-15.2711,-3.1281,34.1276
2023-03-14 22:30:07:713,-0.369839,2.50957,-9.47914,-15.2783,-3.11697,34.1418
2023-03-14 22:30:07:723,-0.390359,2.52166,-9.48069,-15.285,-3.11022,34.1597
2023-03-14 22:30:07:733,-0.42553,2.50001,-9.45878,-15.2912,-3.10685,34.1814
2023-03-14 22:30:07:743,-0.430898,2.50857,-9.45999,-15.2971,-3.10628,34.2052
2023-03-14 22:30:07:753,-0.447981,2.52056,-9.43244,-15.3046,-3.10225,34.23
2023-03-14 22:30:07:763,-0.475187,2.54012,-9.38568,-15.3172,-3.10136,34.2605
2023-03-14 22:30:07:773,-0.48264,2.55579,-9.39,-15.3326,-3.09747,34.2906
2023-03-14 22:30:07:783,-0.450399,2.57458,-9.41933,-15.3497,-3.08896,34.3235
2023-03-14 22:30:07:793,-0.446437,2.59468,-9.44422,-15.3625,-3.0831,34.3618
2023-03-14 22:30:07:803,-0.462756,2.62338,-9.47301,-15.3776,-3.0746,34.4029
2023-03-14 22:30:07:813,-0.483811,2.63362,-9.49516,-15.3883,-3.07394,34.4431
2023-03-14 22:30:07:823,-0.512646,2.6418,-9.48354,-15.3963,-3.07707,34.4859
2023-03-14 22:30:07:833,-0.536161,2.62717,-9.45612,-15.4004,-3.07498,34.5291
2023-03-14 22:30:07:843,-0.582149,2.60772,-9.4294,-15.4019,-3.07344,34.5699
2023-03-14 22:30:07:853,-0.608601,2.60949,-9.41591,-15.4052,-3.07248,34.6095
2023-03-14 22:30:07:863,-0.612293,2.6116,-9.424,-15.4062,-3.07064,34.6409
2023-03-14 22:30:07:873,-0.620325,2.62523,-9.43324,-15.4019,-3.0687,34.6679
2023-03-14 22:30:07:883,-0.61098,2.61291,-9.41996,-15.3952,-3.06186,34.6886
2023-03-14 22:30:07:893,-0.557894,2.59317,-9.41425,-15.3931,-3.0554,34.7046
2023-03-14 22:30:07:903,-0.511136,2.57628,-9.42341,-15.3896,-3.05018,34.7199
2023-03-14 22:30:07:913,-0.482198,2.58008,-9.41197,-15.3893,-3.04853,34.7324
2023-03-14 22:30:07:923,-0.451306,2.56203,-9.41496,-15.3868,-3.0462,34.7468
2023-03-14 22:30:07:933,-0.438485,2.56392,-9.4091,-15.3895,-3.0439,34.7602
2023-03-14 22:30:07:943,-0.457566,2.56874,-9.39658,-15.3911,-3.04444,34.7722
2023-03-14 22:30:07:953,-0.480812,2.56921,-9.40706,-15.3938,-3.05126,34.7897
2023-03-14 22:30:07:963,-0.505332,2.56977,-9.40608,-15.3986,-3.05534,34.8041
2023-03-14 22:30:07:973,-0.538655,2.56377,-9.39272,-15.4006,-3.05848,34.8156
2023-03-14 22:30:07:983,-0.540428,2.57021,-9.4092,-15.4054,-3.06047,34.8195
2023-03-14 22:30:07:993,-0.524932,2.5472,-9.40032,-15.4054,-3.06764,34.8203
2023-03-14 22:30:08:3,-0.503935,2.5356,-9.39756,-15.4077,-3.06992,34.8203
2023-03-14 22:30:08:13,-0.51148,2.54214,-9.40174,-15.4127,-3.07672,34.8192
2023-03-14 22:30:08:23,-0.546613,2.55514,-9.39916,-15.416,-3.08853,34.8186
2023-03-14 22:30:08:33,-0.555772,2.57967,-9.39862,-15.4232,-3.09844,34.8133
2023-03-14 22:30:08:43,-0.519767,2.58828,-9.4065,-15.4278,-3.10485,34.8128
2023-03-14 22:30:08:53,-0.51676,2.5755,-9.38001,-15.4352,-3.10909,34.8118
2023-03-14 22:30:08:63,-0.507208,2.57678,-9.37054,-15.4417,-3.11245,34.8072
2023-03-14 22:30:08:73,-0.462969,2.57768,-9.38042,-15.4466,-3.11372,34.8051
2023-03-14 22:30:08:83,-0.455755,2.58494,-9.36593,-15.4577,-3.11645,34.8044
2023-03-14 22:30:08:93,-0.448652,2.59099,-9.39087,-15.4728,-3.12114,34.8051
2023-03-14 22:30:08:103,-0.472897,2.61151,-9.41125,-15.4874,-3.13,34.8081
2023-03-14 22:30:08:113,-0.504816,2.63853,-9.4302,-15.5025,-3.14106,34.8135
2023-03-14 22:30:08:123,-0.532683,2.66863,-9.46464,-15.5184,-3.15636,34.8209
2023-03-14 22:30:08:133,-0.57345,2.68572,-9.4712,-15.5283,-3.166,34.8284
2023-03-14 22:30:08:143,-0.569426,2.67533,-9.46843,-15.5338,-3.17315,34.8343
2023-03-14 22:30:08:153,-0.567816,2.67661,-9.46764,-15.5371,-3.18152,34.8427
2023-03-14 22:30:08:163,-0.555367,2.67097,-9.45207,-15.5311,-3.18796,34.8498
2023-03-14 22:30:08:173,-0.520389,2.65985,-9.41887,-15.5243,-3.19547,34.8595
2023-03-14 22:30:08:183,-0.519252,2.64486,-9.4089,-15.5219,-3.19927,34.8742
2023-03-14 22:30:08:193,-0.531397,2.64485,-9.43028,-15.5162,-3.2026,34.8906
2023-03-14 22:30:08:203,-0.558764,2.63819,-9.4393,-15.5133,-3.21075,34.9081
2023-03-14 22:30:08:213,-0.589029,2.6317,-9.43733,-15.5081,-3.2157,34.9257
2023-03-14 22:30:08:223,-0.594017,2.64824,-9.43379,-15.5011,-3.21658,34.9384
2023-03-14 22:30:08:233,-0.565731,2.63274,-9.42882,-15.4909,-3.21676,34.9508
2023-03-14 22:30:08:243,-0.525124,2.58549,-9.40416,-15.4837,-3.21119,34.9591
2023-03-14 22:30:08:253,-0.474359,2.55174,-9.37604,-15.4754,-3.20427,34.9617
2023-03-14 22:30:08:263,-0.447526,2.52189,-9.35003,-15.4658,-3.19413,34.9637
2023-03-14 22:30:08:273,-0.408648,2.50638,-9.32601,-15.4623,-3.18466,34.9693
2023-03-14 22:30:08:283,-0.373462,2.51804,-9.33374,-15.4613,-3.17982,34.9773
2023-03-14 22:30:08:293,-0.3681,2.5435,-9.34814,-15.4676,-3.17784,34.9889
2023-03-14 22:30:08:303,-0.367634,2.55179,-9.35467,-15.4827,-3.17694,35.0073
2023-03-14 22:30:08:313,-0.376961,2.57396,-9.37895,-15.498,-3.17928,35.0211
2023-03-14 22:30:08:323,-0.393254,2.60513,-9.40223,-15.5177,-3.17968,35.0395
2023-03-14 22:30:08:333,-0.424206,2.63722,-9.41741,-15.5368,-3.18146,35.0658
2023-03-14 22:30:08:343,-0.426634,2.65453,-9.4703,-15.5561,-3.18438,35.0935
2023-03-14 22:30:08:353,-0.467242,2.67677,-9.4945,-15.5734,-3.18876,35.1279
2023-03-14 22:30:08:363,-0.506827,2.69997,-9.47732,-15.5858,-3.19122,35.157
2023-03-14 22:30:08:373,-0.523667,2.69768,-9.47259,-15.5968,-3.19319,35.1917
2023-03-14 22:30:08:383,-0.54756,2.71163,-9.4608,-15.601,-3.19569,35.2223
2023-03-14 22:30:08:393,-0.533695,2.70724,-9.449,-15.5966,-3.19691,35.2504
2023-03-14 22:30:08:403,-0.508848,2.70345,-9.45305,-15.5921,-3.20009,35.2739
2023-03-14 22:30:08:413,-0.507263,2.68914,-9.44707,-15.5862,-3.20406,35.2937
2023-03-14 22:30:08:423,-0.478738,2.66631,-9.42591,-15.5768,-3.20809,35.3118
2023-03-14 22:30:08:433,-0.456631,2.65607,-9.41464,-15.5696,-3.21581,35.3319
2023-03-14 22:30:08:443,-0.537645,2.64417,-9.37284,-15.5694,-3.22664,35.3503
2023-03-14 22:30:08:453,-0.44718,2.64829,-9.41519,-15.5706,-3.23752,35.3736
2023-03-14 22:30:08:463,-0.472847,2.63665,-9.42664,-15.5676,-3.25467,35.3957
2023-03-14 22:30:08:473,-0.562463,2.64225,-9.39148,-15.5688,-3.27348,35.4178
2023-03-14 22:30:08:483,-0.564297,2.64001,-9.38009,-15.5691,-3.29125,35.4325
2023-03-14 22:30:08:493,-0.547234,2.63004,-9.3648,-15.5667,-3.31238,35.4411
2023-03-14 22:30:08:503,-0.515983,2.6071,-9.34618,-15.5618,-3.33505,35.4498
2023-03-14 22:30:08:513,-0.48386,2.58337,-9.33901,-15.5577,-3.35887,35.4577
2023-03-14 22:30:08:523,-0.501113,2.61533,-9.36139,-15.5614,-3.38635,35.4715
2023-03-14 22:30:08:533,-0.562441,2.62637,-9.39173,-15.5652,-3.41487,35.4845
2023-03-14 22:30:08:543,-0.630771,2.63806,-9.43173,-15.5695,-3.44465,35.4935
2023-03-14 22:30:08:553,-0.679916,2.65795,-9.45891,-15.576,-3.4766,35.5034
2023-03-14 22:30:08:563,-0.722669,2.6686,-9.46809,-15.5775,-3.50716,35.5066
2023-03-14 22:30:08:573,-0.750352,2.67059,-9.45759,-15.5791,-3.53559,35.503
2023-03-14 22:30:08:583,-0.750608,2.6647,-9.4423,-15.5731,-3.56423,35.4963
2023-03-14 22:30:08:593,-0.726864,2.64764,-9.41017,-15.567,-3.58952,35.4864
2023-03-14 22:30:08:603,-0.720951,2.61961,-9.40651,-15.5593,-3.61431,35.4741
2023-03-14 22:30:08:613,-0.710682,2.59968,-9.40482,-15.551,-3.63591,35.4596
2023-03-14 22:30:08:623,-0.690741,2.59121,-9.41229,-15.5438,-3.65428,35.4472
2023-03-14 22:30:08:633,-0.678946,2.58948,-9.41833,-15.531,-3.67371,35.4322
2023-03-14 22:30:08:643,-0.669827,2.59847,-9.42796,-15.5225,-3.68665,35.4137
2023-03-14 22:30:08:653,-0.663591,2.58583,-9.44436,-15.5109,-3.70231,35.3896
2023-03-14 22:30:08:663,-0.63371,2.56113,-9.43788,-15.4958,-3.72096,35.3666
2023-03-14 22:30:08:673,-0.612883,2.54082,-9.4117,-15.4771,-3.7337,35.3434
2023-03-14 22:30:08:683,-0.605117,2.52837,-9.39412,-15.4599,-3.74739,35.3236
2023-03-14 22:30:08:693,-0.559955,2.52111,-9.37232,-15.4452,-3.76075,35.3039
2023-03-14 22:30:08:703,-0.629845,2.48327,-9.30599,-15.4364,-3.77739,35.2858
2023-03-14 22:30:08:713,-0.600428,2.45349,-9.32221,-15.4302,-3.78939,35.2649
2023-03-14 22:30:08:723,-0.59661,2.4657,-9.33992,-15.4306,-3.80393,35.2434
2023-03-14 22:30:08:733,-0.580154,2.49479,-9.3628,-15.4328,-3.81535,35.2227
2023-03-14 22:30:08:743,-0.541596,2.51838,-9.394,-15.4417,-3.82581,35.2069
2023-03-14 22:30:08:753,-0.564342,2.51331,-9.38473,-15.4504,-3.8427,35.195
2023-03-14 22:30:08:763,-0.592713,2.53711,-9.3839,-15.4629,-3.86401,35.1857
2023-03-14 22:30:08:773,-0.636033,2.56535,-9.40014,-15.4773,-3.88649,35.1823
2023-03-14 22:30:08:783,-0.670852,2.59043,-9.41013,-15.4903,-3.90697,35.1741
2023-03-14 22:30:08:793,-0.674851,2.60239,-9.40799,-15.5033,-3.92521,35.1733
2023-03-14 22:30:08:803,-0.684396,2.5958,-9.39917,-15.515,-3.93947,35.1728
2023-03-14 22:30:08:813,-0.706568,2.59839,-9.41551,-15.5248,-3.95177,35.1743
2023-03-14 22:30:08:823,-0.740917,2.63586,-9.44983,-15.5345,-3.96436,35.1769
2023-03-14 22:30:08:833,-0.774309,2.64453,-9.47833,-15.542,-3.97216,35.177
2023-03-14 22:30:08:843,-0.797603,2.63616,-9.48089,-15.5422,-3.98287,35.1767
2023-03-14 22:30:08:853,-0.810853,2.64337,-9.46042,-15.5404,-3.98857,35.1764
2023-03-14 22:30:08:863,-0.784364,2.62162,-9.44362,-15.534,-3.99425,35.1755
2023-03-14 22:30:08:873,-0.805862,2.58264,-9.41382,-15.5246,-3.99714,35.1651
2023-03-14 22:30:08:883,-0.763162,2.5654,-9.3969,-15.5175,-4.00449,35.1513
2023-03-14 22:30:08:893,-0.735663,2.5708,-9.40427,-15.5105,-4.00822,35.1354
2023-03-14 22:30:08:903,-0.787189,2.57429,-9.3859,-15.5059,-4.01175,35.1147
2023-03-14 22:30:08:913,-0.769306,2.57521,-9.38195,-15.4964,-4.0128,35.088
2023-03-14 22:30:08:923,-0.700994,2.55494,-9.37363,-15.4917,-4.00978,35.0556
2023-03-14 22:30:08:933,-0.630602,2.54435,-9.35736,-15.4822,-4.00163,35.0237
2023-03-14 22:30:08:943,-0.554539,2.51751,-9.33983,-15.4798,-3.99466,34.9977
2023-03-14 22:30:08:953,-0.514014,2.5231,-9.31359,-15.4771,-3.98557,34.9741
2023-03-14 22:30:08:963,-0.482201,2.51404,-9.31574,-15.4819,-3.97963,34.9548
2023-03-14 22:30:08:973,-0.480137,2.5187,-9.32593,-15.4926,-3.97603,34.9429
2023-03-14 22:30:08:983,-0.513455,2.54058,-9.36521,-15.5097,-3.97316,34.9348
2023-03-14 22:30:08:993,-0.550509,2.59913,-9.41113,-15.5278,-3.96876,34.931
2023-03-14 22:30:09:3,-0.533829,2.65513,-9.46913,-15.543,-3.96184,34.9253
2023-03-14 22:30:09:13,-0.538126,2.67607,-9.46659,-15.5528,-3.95586,34.9236
2023-03-14 22:30:09:24,-0.581262,2.64636,-9.40812,-15.5585,-3.95186,34.9244
2023-03-14 22:30:09:33,-0.561098,2.62628,-9.37318,-15.5646,-3.94733,34.9323
2023-03-14 22:30:09:43,-0.560947,2.60699,-9.36902,-15.5685,-3.94364,34.9427
2023-03-14 22:30:09:53,-0.553352,2.61484,-9.39089,-15.569,-3.9419,34.956
2023-03-14 22:30:09:63,-0.591928,2.6189,-9.37185,-15.579,-3.93667,34.9719
2023-03-14 22:30:09:73,-0.546942,2.61345,-9.39574,-15.5928,-3.93265,34.9856
2023-03-14 22:30:09:83,-0.536245,2.62603,-9.39535,-15.6076,-3.92721,35.0023
2023-03-14 22:30:09:93,-0.580278,2.6489,-9.38096,-15.6277,-3.92373,35.0187
2023-03-14 22:30:09:103,-0.557811,2.67328,-9.42223,-15.6519,-3.91531,35.0345
2023-03-14 22:30:09:113,-0.508306,2.69689,-9.43998,-15.6709,-3.90353,35.0507
2023-03-14 22:30:09:123,-0.542843,2.70132,-9.43039,-15.6892,-3.88873,35.0722
2023-03-14 22:30:09:133,-0.512678,2.714,-9.44077,-15.7067,-3.8784,35.0983
2023-03-14 22:30:09:143,-0.414405,2.72143,-9.49117,-15.7179,-3.87345,35.134
2023-03-14 22:30:09:153,-0.514035,2.72949,-9.45967,-15.7277,-3.87108,35.1873
2023-03-14 22:30:09:163,-0.74852,2.72019,-9.36352,-15.737,-3.87538,35.2367
2023-03-14 22:30:09:173,-0.756919,2.72942,-9.37135,-15.7454,-3.87864,35.2818
2023-03-14 22:30:09:183,-0.720926,2.71116,-9.39217,-15.7496,-3.87942,35.3246
2023-03-14 22:30:09:193,-0.734022,2.70601,-9.3946,-15.7566,-3.87807,35.3679
2023-03-14 22:30:09:204,-0.732996,2.70196,-9.38915,-15.7633,-3.8711,35.4079
2023-03-14 22:30:09:213,-0.752567,2.68796,-9.38369,-15.7684,-3.86635,35.4465
2023-03-14 22:30:09:223,-0.762459,2.67948,-9.39044,-15.7751,-3.86081,35.4785
2023-03-14 22:30:09:233,-0.736445,2.67163,-9.39172,-15.7771,-3.85657,35.5055
2023-03-14 22:30:09:243,-0.707141,2.67563,-9.38426,-15.7767,-3.8502,35.5275
2023-03-14 22:30:09:253,-0.689518,2.70299,-9.37151,-15.7797,-3.84292,35.5451
2023-03-14 22:30:09:263,-0.651717,2.69608,-9.37651,-15.7849,-3.83173,35.5596
2023-03-14 22:30:09:273,-0.629424,2.68628,-9.34975,-15.7859,-3.82137,35.5739
2023-03-14 22:30:09:283,-0.641251,2.68731,-9.33973,-15.7885,-3.81398,35.5879
2023-03-14 22:30:09:293,-0.641017,2.68803,-9.35085,-15.7938,-3.8079,35.6018
2023-03-14 22:30:09:303,-0.645886,2.71234,-9.35798,-15.8015,-3.80353,35.6157
2023-03-14 22:30:09:313,-0.641624,2.7141,-9.38961,-15.8076,-3.8008,35.6281
2023-03-14 22:30:09:323,-0.651159,2.70767,-9.4113,-15.8128,-3.80376,35.6417
2023-03-14 22:30:09:333,-0.675957,2.71062,-9.41285,-15.8172,-3.80766,35.6533
2023-03-14 22:30:09:343,-0.686481,2.7149,-9.41892,-15.8191,-3.81168,35.6606
2023-03-14 22:30:09:353,-0.679434,2.72213,-9.41708,-15.8224,-3.82223,35.6595
2023-03-14 22:30:09:363,-0.683725,2.71734,-9.41377,-15.828,-3.83351,35.6598
2023-03-14 22:30:09:373,-0.704076,2.70401,-9.42542,-15.8322,-3.84618,35.6614
2023-03-14 22:30:09:383,-0.722589,2.71657,-9.43819,-15.8337,-3.86023,35.6615
2023-03-14 22:30:09:393,-0.751957,2.71992,-9.45981,-15.8329,-3.87726,35.6604
2023-03-14 22:30:09:403,-0.748448,2.71466,-9.44587,-15.8264,-3.89084,35.6558
2023-03-14 22:30:09:413,-0.758039,2.70343,-9.43557,-15.8158,-3.90247,35.6471
2023-03-14 22:30:09:423,-0.755417,2.67525,-9.43099,-15.8011,-3.91037,35.6409
2023-03-14 22:30:09:433,-0.730629,2.66382,-9.42787,-15.7829,-3.92091,35.6296
2023-03-14 22:30:09:443,-0.698544,2.63891,-9.4064,-15.7575,-3.92252,35.6151
2023-03-14 22:30:09:453,-0.670826,2.60914,-9.37002,-15.7298,-3.92079,35.6029
2023-03-14 22:30:09:463,-0.711576,2.53972,-9.30401,-15.7024,-3.92107,35.5923
2023-03-14 22:30:09:473,-0.645689,2.51187,-9.28179,-15.6816,-3.92328,35.5766
2023-03-14 22:30:09:483,-0.470747,2.51547,-9.38613,-15.665,-3.92104,35.5673
2023-03-14 22:30:09:493,-0.537391,2.51636,-9.35955,-15.6546,-3.92443,35.5613
2023-03-14 22:30:09:503,-0.636619,2.52377,-9.32911,-15.651,-3.92934,35.5539
2023-03-14 22:30:09:513,-0.535347,2.54841,-9.3724,-15.651,-3.93436,35.5454
2023-03-14 22:30:09:523,-0.525242,2.56226,-9.38605,-15.6461,-3.93719,35.5427
2023-03-14 22:30:09:533,-0.589964,2.56888,-9.35611,-15.6458,-3.93606,35.5386
2023-03-14 22:30:09:543,-0.525621,2.5515,-9.33641,-15.6467,-3.93226,35.5307
2023-03-14 22:30:09:553,-0.49076,2.52559,-9.32017,-15.6522,-3.92814,35.5239
2023-03-14 22:30:09:563,-0.477894,2.54414,-9.32738,-15.6611,-3.92589,35.5209
2023-03-14 22:30:09:573,-0.471982,2.55021,-9.36042,-15.679,-3.9264,35.5208
2023-03-14 22:30:09:583,-0.407284,2.58397,-9.43641,-15.6977,-3.92904,35.5306
2023-03-14 22:30:09:593,-0.518591,2.63579,-9.44727,-15.716,-3.93479,35.5526
2023-03-14 22:30:09:603,-0.625243,2.6555,-9.45227,-15.7398,-3.94162,35.5791
2023-03-14 22:30:09:613,-0.604276,2.66541,-9.45838,-15.7606,-3.95246,35.6134
2023-03-14 22:30:09:623,-0.681772,2.66864,-9.42919,-15.7815,-3.96673,35.6566
2023-03-14 22:30:09:633,-0.773177,2.66874,-9.40105,-15.8005,-3.98378,35.6996
2023-03-14 22:30:09:643,-0.83925,2.67004,-9.38495,-15.8247,-4.00157,35.7396
2023-03-14 22:30:09:653,-0.908227,2.67908,-9.38313,-15.847,-4.01795,35.7819
2023-03-14 22:30:09:663,-0.956419,2.70429,-9.38641,-15.863,-4.03527,35.8197
2023-03-14 22:30:09:673,-0.981096,2.70961,-9.39113,-15.8777,-4.04477,35.8481
2023-03-14 22:30:09:683,-0.962461,2.70662,-9.38579,-15.8858,-4.05146,35.8697
2023-03-14 22:30:09:693,-0.957966,2.69693,-9.39536,-15.8867,-4.05761,35.8838
2023-03-14 22:30:09:703,-0.96189,2.67886,-9.40862,-15.884,-4.05959,35.8964
2023-03-14 22:30:09:713,-0.932283,2.68301,-9.38145,-15.8782,-4.05219,35.8994
2023-03-14 22:30:09:723,-0.850657,2.65128,-9.34342,-15.8713,-4.03946,35.8948
2023-03-14 22:30:09:733,-0.728476,2.58535,-9.33203,-15.8684,-4.02001,35.8889
2023-03-14 22:30:09:743,-0.62434,2.57135,-9.32485,-15.87,-3.99813,35.8865
2023-03-14 22:30:09:753,-0.641801,2.57264,-9.31298,-15.873,-3.97475,35.885
2023-03-14 22:30:09:764,-0.614516,2.60565,-9.33762,-15.8814,-3.95087,35.8816
2023-03-14 22:30:09:773,-0.554837,2.63407,-9.36752,-15.8956,-3.92703,35.8816
2023-03-14 22:30:09:783,-0.534366,2.67001,-9.38577,-15.9132,-3.90542,35.8873
2023-03-14 22:30:09:793,-0.540466,2.71446,-9.39064,-15.9318,-3.88459,35.8975
2023-03-14 22:30:09:803,-0.550578,2.73399,-9.41506,-15.9524,-3.86339,35.9079
2023-03-14 22:30:09:813,-0.529552,2.75501,-9.43592,-15.9693,-3.84496,35.9209
2023-03-14 22:30:09:824,-0.511538,2.74638,-9.42218,-15.9796,-3.82564,35.9386
2023-03-14 22:30:09:833,-0.503007,2.72083,-9.38846,-15.9895,-3.80599,35.9593
2023-03-14 22:30:09:843,-0.514839,2.70695,-9.36863,-15.9956,-3.79183,35.9837
2023-03-14 22:30:09:853,-0.569983,2.70285,-9.34621,-16.0057,-3.78149,36.0164
2023-03-14 22:30:09:863,-0.630257,2.70771,-9.33578,-16.0184,-3.77596,36.0492
2023-03-14 22:30:09:873,-0.670598,2.73563,-9.36253,-16.032,-3.76883,36.084
2023-03-14 22:30:09:883,-0.617148,2.75874,-9.43526,-16.0412,-3.7623,36.1183
2023-03-14 22:30:09:893,-0.614498,2.77373,-9.44551,-16.048,-3.75478,36.1582
2023-03-14 22:30:09:903,-0.690289,2.73506,-9.37222,-16.0465,-3.74303,36.1913
2023-03-14 22:30:09:913,-0.559613,2.72817,-9.3694,-16.0458,-3.72431,36.2201
2023-03-14 22:30:09:923,-0.470761,2.72771,-9.33982,-16.0415,-3.70232,36.2529
2023-03-14 22:30:09:933,-0.497065,2.7266,-9.29693,-16.0408,-3.67473,36.2858
2023-03-14 22:30:09:944,-0.435717,2.72118,-9.31555,-16.0427,-3.64225,36.3206
2023-03-14 22:30:09:953,-0.386843,2.72666,-9.33589,-16.0459,-3.60967,36.3565
2023-03-14 22:30:09:963,-0.41738,2.75143,-9.35591,-16.054,-3.5771,36.3956
2023-03-14 22:30:09:973,-0.457469,2.74394,-9.36673,-16.064,-3.546,36.4334
2023-03-14 22:30:09:983,-0.47077,2.75487,-9.38345,-16.0778,-3.51398,36.4692
2023-03-14 22:30:09:993,-0.464223,2.78111,-9.41173,-16.0926,-3.48539,36.4992
2023-03-14 22:30:10:3,-0.384375,2.78999,-9.45059,-16.098,-3.45551,36.5346
2023-03-14 22:30:10:13,-0.601327,2.77504,-9.38073,-16.1057,-3.43216,36.5694
2023-03-14 22:30:10:24,-0.638815,2.80219,-9.41359,-16.1145,-3.4076,36.5997
2023-03-14 22:30:10:33,-0.600693,2.82801,-9.43562,-16.1189,-3.38829,36.6281
2023-03-14 22:30:10:44,-0.613755,2.85846,-9.44692,-16.1202,-3.36691,36.6541
2023-03-14 22:30:10:53,-0.563992,2.87515,-9.47901,-16.1155,-3.34442,36.6776
2023-03-14 22:30:10:64,-0.539736,2.85803,-9.45426,-16.1047,-3.31823,36.6994
2023-03-14 22:30:10:73,-0.491548,2.83226,-9.40967,-16.0857,-3.29314,36.7259
2023-03-14 22:30:10:83,-0.560373,2.79639,-9.34937,-16.0718,-3.26421,36.7433
2023-03-14 22:30:10:93,-0.426177,2.78388,-9.4201,-16.0544,-3.24042,36.7559
2023-03-14 22:30:10:103,-0.318716,2.76521,-9.4557,-16.0323,-3.22122,36.7701
2023-03-14 22:30:10:113,-0.410543,2.74431,-9.40512,-16.0119,-3.206,36.7857
2023-03-14 22:30:10:123,-0.430437,2.73363,-9.39594,-15.9909,-3.19835,36.7971
2023-03-14 22:30:10:133,-0.41812,2.73308,-9.39533,-15.9716,-3.19069,36.8085
2023-03-14 22:30:10:143,-0.486802,2.73298,-9.37262,-15.9586,-3.19124,36.8172
2023-03-14 22:30:10:153,-0.508475,2.72938,-9.38142,-15.9465,-3.19605,36.8178
2023-03-14 22:30:10:163,-0.562084,2.75204,-9.41222,-15.9369,-3.20843,36.8182
2023-03-14 22:30:10:173,-0.626012,2.78292,-9.42819,-15.931,-3.22586,36.8154
2023-03-14 22:30:10:183,-0.658973,2.79542,-9.43706,-15.9245,-3.24683,36.8101
2023-03-14 22:30:10:193,-0.692752,2.80637,-9.43928,-15.9093,-3.26971,36.797
2023-03-14 22:30:10:203,-0.714069,2.79313,-9.43997,-15.889,-3.29223,36.7765
2023-03-14 22:30:10:213,-0.78193,2.77175,-9.41205,-15.8728,-3.31555,36.7467
2023-03-14 22:30:10:223,-0.660377,2.77037,-9.45185,-15.8504,-3.34547,36.7059
2023-03-14 22:30:10:233,-0.663192,2.73278,-9.45131,-15.8229,-3.37466,36.6614
2023-03-14 22:30:10:243,-0.70943,2.70542,-9.41912,-15.7945,-3.40051,36.613
2023-03-14 22:30:10:253,-0.689012,2.68212,-9.40632,-15.765,-3.4248,36.5579
2023-03-14 22:30:10:263,-0.670827,2.67205,-9.40281,-15.7347,-3.44765,36.5013
2023-03-14 22:30:10:273,-0.634971,2.64681,-9.39421,-15.699,-3.46913,36.442
2023-03-14 22:30:10:283,-0.588092,2.61109,-9.38113,-15.6645,-3.48891,36.3878
2023-03-14 22:30:10:293,-0.571601,2.58826,-9.37907,-15.6298,-3.50747,36.3372
2023-03-14 22:30:10:303,-0.581765,2.57993,-9.3674,-15.5983,-3.52798,36.2892
2023-03-14 22:30:10:313,-0.589505,2.55942,-9.35553,-15.5671,-3.55053,36.2444
2023-03-14 22:30:10:323,-0.602471,2.55706,-9.34807,-15.54,-3.57123,36.2001
2023-03-14 22:30:10:333,-0.595093,2.55599,-9.3634,-15.5168,-3.58873,36.156
2023-03-14 22:30:10:343,-0.601201,2.57082,-9.38297,-15.493,-3.60043,36.113
2023-03-14 22:30:10:353,-0.592507,2.57332,-9.40223,-15.4727,-3.60934,36.0705
2023-03-14 22:30:10:363,-0.572222,2.577,-9.37438,-15.4536,-3.61676,36.0267
2023-03-14 22:30:10:373,-0.571987,2.55126,-9.36419,-15.4351,-3.62602,35.9878
2023-03-14 22:30:10:383,-0.597696,2.53651,-9.36222,-15.4196,-3.63221,35.9512
2023-03-14 22:30:10:393,-0.620655,2.54993,-9.3778,-15.4021,-3.64026,35.9176
2023-03-14 22:30:10:403,-0.632893,2.55644,-9.40627,-15.3881,-3.64652,35.8791
2023-03-14 22:30:10:413,-0.628301,2.56764,-9.44014,-15.3726,-3.65355,35.8405
2023-03-14 22:30:10:423,-0.633175,2.54371,-9.45555,-15.3502,-3.65863,35.8001
2023-03-14 22:30:10:433,-0.604482,2.51403,-9.42891,-15.3317,-3.66344,35.7663
2023-03-14 22:30:10:443,-0.598739,2.50884,-9.39567,-15.309,-3.66818,35.7304
2023-03-14 22:30:10:453,-0.600166,2.48861,-9.38898,-15.2891,-3.67557,35.6983
2023-03-14 22:30:10:463,-0.603987,2.47881,-9.39133,-15.2742,-3.68012,35.6665
2023-03-14 22:30:10:473,-0.604253,2.48765,-9.39835,-15.2619,-3.68739,35.6371
2023-03-14 22:30:10:483,-0.597333,2.49427,-9.40268,-15.2522,-3.69126,35.6041
2023-03-14 22:30:10:493,-0.566053,2.49677,-9.41226,-15.2454,-3.69645,35.5664
2023-03-14 22:30:10:503,-0.552277,2.48275,-9.42207,-15.2398,-3.70269,35.5326
2023-03-14 22:30:10:513,-0.548562,2.48012,-9.42161,-15.2312,-3.70968,35.4976
2023-03-14 22:30:10:523,-0.577299,2.48556,-9.42078,-15.2224,-3.72066,35.4706
2023-03-14 22:30:10:533,-0.617237,2.48986,-9.4229,-15.216,-3.73225,35.4434
2023-03-14 22:30:10:543,-0.627273,2.48196,-9.4165,-15.2097,-3.74669,35.4157
2023-03-14 22:30:10:553,-0.615073,2.47608,-9.39145,-15.203,-3.75591,35.3871
2023-03-14 22:30:10:563,-0.590403,2.45152,-9.39491,-15.196,-3.76452,35.358
2023-03-14 22:30:10:573,-0.567047,2.43842,-9.39062,-15.1954,-3.77173,35.3318
2023-03-14 22:30:10:583,-0.495861,2.43764,-9.4222,-15.1976,-3.78059,35.307
2023-03-14 22:30:10:593,-0.499603,2.4559,-9.43499,-15.1992,-3.7875,35.2914
2023-03-14 22:30:10:603,-0.626101,2.46694,-9.39039,-15.1986,-3.80078,35.2766
2023-03-14 22:30:10:613,-0.629171,2.46787,-9.41365,-15.1992,-3.81048,35.263
2023-03-14 22:30:10:623,-0.629958,2.46846,-9.41113,-15.2025,-3.81802,35.253
2023-03-14 22:30:10:633,-0.662764,2.46233,-9.3826,-15.2045,-3.82889,35.2469
2023-03-14 22:30:10:643,-0.67458,2.45686,-9.3637,-15.2082,-3.8407,35.2404
2023-03-14 22:30:10:653,-0.693712,2.46783,-9.36461,-15.2146,-3.85092,35.2343
2023-03-14 22:30:10:663,-0.681872,2.46841,-9.37277,-15.2259,-3.85842,35.2311
2023-03-14 22:30:10:673,-0.686395,2.49064,-9.41163,-15.2415,-3.8681,35.2273
2023-03-14 22:30:10:683,-0.683464,2.56133,-9.44537,-15.262,-3.87957,35.2234
2023-03-14 22:30:10:693,-0.736336,2.57103,-9.46248,-15.2774,-3.88929,35.2221
2023-03-14 22:30:10:703,-0.775138,2.60203,-9.45273,-15.2928,-3.89697,35.225
2023-03-14 22:30:10:713,-0.805666,2.62778,-9.46942,-15.3067,-3.90159,35.2233
2023-03-14 22:30:10:723,-0.790354,2.64477,-9.46188,-15.3162,-3.90335,35.2158
2023-03-14 22:30:10:733,-0.748672,2.63861,-9.44216,-15.3194,-3.90248,35.2057
2023-03-14 22:30:10:743,-0.716423,2.61014,-9.42311,-15.3236,-3.89928,35.1932
2023-03-14 22:30:10:753,-0.670113,2.6053,-9.44061,-15.3235,-3.89367,35.1773
2023-03-14 22:30:10:763,-0.673043,2.60703,-9.46599,-15.3211,-3.89154,35.1619
2023-03-14 22:30:10:773,-0.681597,2.60458,-9.45989,-15.3154,-3.89266,35.1446
2023-03-14 22:30:10:783,-0.677831,2.582,-9.43717,-15.3069,-3.89102,35.1256
2023-03-14 22:30:10:793,-0.635571,2.56972,-9.39901,-15.2931,-3.88937,35.1026
2023-03-14 22:30:10:803,-0.589301,2.55728,-9.37329,-15.2738,-3.8885,35.0788
2023-03-14 22:30:10:813,-0.554781,2.52166,-9.35781,-15.2562,-3.89248,35.0532
2023-03-14 22:30:10:823,-0.554297,2.48891,-9.34142,-15.2477,-3.899,35.026
2023-03-14 22:30:10:833,-0.491025,2.48141,-9.35145,-15.2418,-3.90309,34.9997
2023-03-14 22:30:10:844,-0.443522,2.48115,-9.36696,-15.2406,-3.90839,34.978
2023-03-14 22:30:10:854,-0.539603,2.49308,-9.36359,-15.2449,-3.91824,34.9572
2023-03-14 22:30:10:864,-0.57246,2.50415,-9.37109,-15.2543,-3.92543,34.9368
2023-03-14 22:30:10:873,-0.618345,2.53595,-9.38189,-15.271,-3.93382,34.915
2023-03-14 22:30:10:883,-0.584884,2.57741,-9.43374,-15.2845,-3.94694,34.893
2023-03-14 22:30:10:893,-0.630364,2.61777,-9.43849,-15.3037,-3.95724,34.8741
2023-03-14 22:30:10:903,-0.713812,2.63026,-9.44443,-15.3177,-3.96943,34.8543
2023-03-14 22:30:10:913,-0.679198,2.6548,-9.52956,-15.3307,-3.98595,34.8352
2023-03-14 22:30:10:923,-0.790206,2.67046,-9.51881,-15.3411,-4.00326,34.8164
2023-03-14 22:30:10:933,-0.821814,2.67119,-9.49593,-15.3436,-4.02015,34.7914
2023-03-14 22:30:10:944,-0.66975,2.67033,-9.52227,-15.3436,-4.03437,34.7626
2023-03-14 22:30:10:953,-0.662007,2.67859,-9.52214,-15.3377,-4.05888,34.7347
2023-03-14 22:30:10:964,-0.730871,2.64266,-9.46858,-15.3242,-4.08149,34.7078
2023-03-14 22:30:10:974,-0.755639,2.62701,-9.44844,-15.3117,-4.10491,34.6825
2023-03-14 22:30:10:984,-0.733104,2.61365,-9.43529,-15.2976,-4.12416,34.6536
2023-03-14 22:30:10:993,-0.739594,2.62124,-9.46943,-15.2833,-4.14679,34.6272
2023-03-14 22:30:11:3,-0.812897,2.61182,-9.46018,-15.2582,-4.16306,34.6012
2023-03-14 22:30:11:13,-0.815868,2.60192,-9.42382,-15.2368,-4.17338,34.5734
2023-03-14 22:30:11:23,-0.811145,2.57771,-9.37108,-15.2131,-4.17678,34.5389
2023-03-14 22:30:11:33,-0.798037,2.50965,-9.34182,-15.1897,-4.17379,34.5014
2023-03-14 22:30:11:44,-0.673194,2.49398,-9.36301,-15.1704,-4.16782,34.4596
2023-03-14 22:30:11:53,-0.647095,2.50565,-9.36959,-15.1548,-4.16545,34.4186
2023-03-14 22:30:11:64,-0.692279,2.50397,-9.35702,-15.1431,-4.16408,34.3807
2023-03-14 22:30:11:73,-0.641114,2.5136,-9.35825,-15.132,-4.16847,34.3398
2023-03-14 22:30:11:83,-0.619027,2.46743,-9.33642,-15.1224,-4.17342,34.306
2023-03-14 22:30:11:93,-0.648129,2.47131,-9.33159,-15.1214,-4.17593,34.272
2023-03-14 22:30:11:103,-0.714713,2.48565,-9.3394,-15.1228,-4.17815,34.2432
2023-03-14 22:30:11:113,-0.643854,2.50341,-9.41157,-15.131,-4.18417,34.2157
2023-03-14 22:30:11:123,-0.563133,2.55429,-9.47029,-15.1334,-4.1888,34.1937
2023-03-14 22:30:11:133,-0.76561,2.54862,-9.39413,-15.1404,-4.20129,34.173
2023-03-14 22:30:11:143,-0.674849,2.5212,-9.38942,-15.1466,-4.21209,34.1462
2023-03-14 22:30:11:153,-0.517832,2.47756,-9.39109,-15.149,-4.22046,34.127
2023-03-14 22:30:11:163,-0.553282,2.47367,-9.35864,-15.1574,-4.22924,34.1187
2023-03-14 22:30:11:173,-0.62457,2.5041,-9.35949,-15.1642,-4.23604,34.1163
2023-03-14 22:30:11:183,-0.675773,2.52973,-9.41054,-15.1684,-4.23699,34.1161
2023-03-14 22:30:11:193,-0.673909,2.55748,-9.47205,-15.1743,-4.23464,34.1172
2023-03-14 22:30:11:204,-0.678971,2.59343,-9.5289,-15.1845,-4.22847,34.1188
2023-03-14 22:30:11:213,-0.722645,2.6052,-9.51877,-15.1867,-4.21684,34.1262
2023-03-14 22:30:11:223,-0.712193,2.58633,-9.48088,-15.1871,-4.20507,34.1359
2023-03-14 22:30:11:233,-0.700348,2.60508,-9.4729,-15.1832,-4.18677,34.1492
2023-03-14 22:30:11:243,-0.652769,2.58073,-9.44203,-15.175,-4.16851,34.1692
2023-03-14 22:30:11:253,-0.747942,2.5455,-9.37796,-15.1616,-4.14761,34.19
2023-03-14 22:30:11:263,-0.833663,2.50461,-9.3332,-15.1486,-4.12664,34.2066
2023-03-14 22:30:11:273,-0.793715,2.49274,-9.34654,-15.1456,-4.11065,34.2187
2023-03-14 22:30:11:283,-0.746381,2.54117,-9.42073,-15.1483,-4.09819,34.2292
2023-03-14 22:30:11:293,-0.739561,2.60203,-9.49155,-15.154,-4.0906,34.2285
2023-03-14 22:30:11:303,-0.751245,2.62854,-9.49432,-15.1506,-4.08676,34.2204
2023-03-14 22:30:11:313,-0.750617,2.59998,-9.46512,-15.1474,-4.0813,34.2063
2023-03-14 22:30:11:324,-0.697165,2.57668,-9.4344,-15.1388,-4.07714,34.1911
2023-03-14 22:30:11:333,-0.675302,2.55362,-9.3902,-15.1319,-4.0712,34.173
2023-03-14 22:30:11:344,-0.703377,2.53941,-9.36988,-15.1296,-4.06812,34.1531
2023-03-14 22:30:11:353,-0.701478,2.54261,-9.3717,-15.128,-4.06906,34.1311
2023-03-14 22:30:11:363,-0.687899,2.5333,-9.41464,-15.1251,-4.07111,34.1096
2023-03-14 22:30:11:373,-0.678584,2.56062,-9.4488,-15.1241,-4.07123,34.0842
2023-03-14 22:30:11:383,-0.753311,2.56985,-9.45326,-15.1236,-4.07129,34.058
2023-03-14 22:30:11:393,-0.774848,2.58068,-9.44165,-15.1184,-4.07593,34.0221
2023-03-14 22:30:11:403,-0.738588,2.57488,-9.43729,-15.1127,-4.078,33.9841
2023-03-14 22:30:11:413,-0.696551,2.55405,-9.43673,-15.1018,-4.07717,33.9421
2023-03-14 22:30:11:423,-0.664956,2.51898,-9.4123,-15.088,-4.07835,33.9041
2023-03-14 22:30:11:433,-0.623921,2.48039,-9.37723,-15.0745,-4.08232,33.8736
2023-03-14 22:30:11:443,-0.650445,2.47112,-9.35061,-15.0627,-4.08532,33.8449
2023-03-14 22:30:11:453,-0.798329,2.48426,-9.29273,-15.0591,-4.08978,33.8103
2023-03-14 22:30:11:463,-0.685863,2.51996,-9.35657,-15.0638,-4.08983,33.7691
2023-03-14 22:30:11:473,-0.538784,2.52416,-9.44391,-15.0682,-4.09263,33.7305
2023-03-14 22:30:11:483,-0.559778,2.52802,-9.45157,-15.0694,-4.09193,33.6988
2023-03-14 22:30:11:493,-0.589707,2.53745,-9.43387,-15.0685,-4.0917,33.6746
2023-03-14 22:30:11:503,-0.600352,2.53969,-9.40301,-15.0724,-4.09636,33.6488
2023-03-14 22:30:11:513,-0.6026,2.54235,-9.41169,-15.0759,-4.10055,33.629
2023-03-14 22:30:11:523,-0.626108,2.55165,-9.44005,-15.0817,-4.10311,33.6129
2023-03-14 22:30:11:533,-0.637012,2.56951,-9.45301,-15.0845,-4.10639,33.5966
2023-03-14 22:30:11:543,-0.626773,2.5493,-9.43378,-15.0872,-4.10747,33.5804
2023-03-14 22:30:11:553,-0.619927,2.54279,-9.41572,-15.0888,-4.10698,33.5708
2023-03-14 22:30:11:563,-0.645239,2.55111,-9.4056,-15.091,-4.1064,33.5618
2023-03-14 22:30:11:573,-0.676939,2.57503,-9.43071,-15.0918,-4.10684,33.5514
2023-03-14 22:30:11:583,-0.704691,2.5938,-9.44885,-15.0911,-4.10852,33.5411
2023-03-14 22:30:11:593,-0.752716,2.59562,-9.47109,-15.0918,-4.10576,33.5272
2023-03-14 22:30:11:603,-0.735323,2.59869,-9.49879,-15.0922,-4.09907,33.5085
2023-03-14 22:30:11:613,-0.699636,2.57876,-9.49712,-15.0862,-4.09152,33.487
2023-03-14 22:30:11:623,-0.661775,2.56651,-9.4766,-15.0814,-4.08395,33.4655
2023-03-14 22:30:11:633,-0.630781,2.54106,-9.46169,-15.072,-4.0796,33.4481
2023-03-14 22:30:11:643,-0.607054,2.51131,-9.43242,-15.0643,-4.07797,33.4371
2023-03-14 22:30:11:653,-0.61392,2.49323,-9.40735,-15.0623,-4.07873,33.4318
2023-03-14 22:30:11:663,-0.628444,2.49294,-9.39209,-15.0603,-4.08028,33.4334
2023-03-14 22:30:11:673,-0.640779,2.50251,-9.38747,-15.0595,-4.08043,33.4394
2023-03-14 22:30:11:683,-0.640383,2.51395,-9.40092,-15.0585,-4.07779,33.4458
2023-03-14 22:30:11:693,-0.639922,2.52562,-9.4052,-15.0613,-4.07737,33.4525
2023-03-14 22:30:11:703,-0.648665,2.53266,-9.40645,-15.0599,-4.07436,33.4602
2023-03-14 22:30:11:713,-0.646249,2.53992,-9.41138,-15.0537,-4.0726,33.4632
2023-03-14 22:30:11:723,-0.657855,2.53997,-9.4261,-15.0512,-4.07337,33.4693
2023-03-14 22:30:11:733,-0.68321,2.54139,-9.41603,-15.0443,-4.07088,33.4733
2023-03-14 22:30:11:743,-0.694722,2.54445,-9.39344,-15.0346,-4.06961,33.4786
2023-03-14 22:30:11:753,-0.713257,2.53723,-9.38234,-15.0291,-4.07346,33.4796
2023-03-14 22:30:11:763,-0.730393,2.53245,-9.39821,-15.0217,-4.08063,33.4783
2023-03-14 22:30:11:773,-0.725809,2.53873,-9.43611,-15.0163,-4.08572,33.4697
2023-03-14 22:30:11:783,-0.739792,2.56486,-9.45703,-15.0131,-4.08544,33.4542
2023-03-14 22:30:11:793,-0.706166,2.54706,-9.45964,-15.0057,-4.08463,33.4362
2023-03-14 22:30:11:803,-0.693668,2.52516,-9.44092,-15.0008,-4.08252,33.4188
2023-03-14 22:30:11:813,-0.669735,2.522,-9.41624,-14.9944,-4.07654,33.4088
2023-03-14 22:30:11:823,-0.639267,2.51773,-9.40996,-14.993,-4.06724,33.4019
2023-03-14 22:30:11:833,-0.620884,2.53528,-9.42152,-14.9889,-4.05517,33.4011
2023-03-14 22:30:11:843,-0.629529,2.54629,-9.4292,-14.9873,-4.04416,33.4029
2023-03-14 22:30:11:853,-0.649831,2.53301,-9.44441,-14.9832,-4.03795,33.4066
2023-03-14 22:30:11:863,-0.639547,2.52075,-9.42385,-14.9792,-4.02856,33.4118
2023-03-14 22:30:11:873,-0.631691,2.48081,-9.39541,-14.9758,-4.0193,33.4143
2023-03-14 22:30:11:883,-0.614931,2.47318,-9.39766,-14.9719,-4.01378,33.4145
2023-03-14 22:30:11:893,-0.605752,2.48304,-9.37654,-14.9699,-4.00981,33.413
2023-03-14 22:30:11:903,-0.607328,2.46654,-9.36523,-14.9706,-4.00811,33.4116
2023-03-14 22:30:11:913,-0.623242,2.48687,-9.37938,-14.9784,-4.01215,33.409
2023-03-14 22:30:11:923,-0.659351,2.51613,-9.419,-14.9852,-4.01844,33.4053
2023-03-14 22:30:11:933,-0.686941,2.53425,-9.44761,-14.9924,-4.02503,33.4006
2023-03-14 22:30:11:943,-0.662013,2.52869,-9.45255,-14.9965,-4.0274,33.3946
2023-03-14 22:30:11:953,-0.619494,2.51393,-9.41461,-15.0034,-4.0289,33.3909
2023-03-14 22:30:11:963,-0.602657,2.5147,-9.4096,-15.0083,-4.02557,33.3877
2023-03-14 22:30:11:973,-0.602447,2.52531,-9.42718,-15.0176,-4.02448,33.3853
2023-03-14 22:30:11:983,-0.616658,2.55346,-9.46589,-15.0286,-4.02728,33.3855
2023-03-14 22:30:11:993,-0.637216,2.57574,-9.47553,-15.0378,-4.02928,33.3882
2023-03-14 22:30:12:3,-0.643048,2.59652,-9.48457,-15.044,-4.03489,33.3932
2023-03-14 22:30:12:13,-0.658177,2.57311,-9.46239,-15.0489,-4.04344,33.3969
2023-03-14 22:30:12:23,-0.722173,2.58313,-9.42808,-15.0489,-4.05252,33.3985
2023-03-14 22:30:12:33,-0.704961,2.57594,-9.45712,-15.0507,-4.06466,33.3944
2023-03-14 22:30:12:43,-0.647503,2.57009,-9.50144,-15.0473,-4.07818,33.3918
2023-03-14 22:30:12:53,-0.745731,2.55503,-9.47331,-15.0431,-4.09,33.3841
2023-03-14 22:30:12:64,-0.731484,2.55295,-9.46274,-15.0422,-4.10155,33.3726
2023-03-14 22:30:12:73,-0.730394,2.53745,-9.43645,-15.04,-4.11544,33.3576
2023-03-14 22:30:12:84,-0.728386,2.53849,-9.4252,-15.0336,-4.12674,33.34
2023-03-14 22:30:12:93,-0.714713,2.52866,-9.41215,-15.0276,-4.13615,33.323
2023-03-14 22:30:12:103,-0.684634,2.49851,-9.40508,-15.0244,-4.14621,33.3081
2023-03-14 22:30:12:113,-0.667505,2.494,-9.40849,-15.0201,-4.15613,33.2885
2023-03-14 22:30:12:123,-0.664999,2.51514,-9.42137,-15.0199,-4.167,33.2713
2023-03-14 22:30:12:133,-0.671544,2.54189,-9.44675,-15.0199,-4.18269,33.2563
2023-03-14 22:30:12:143,-0.684734,2.54445,-9.45547,-15.0199,-4.19779,33.2404
2023-03-14 22:30:12:153,-0.688561,2.54683,-9.43808,-15.0131,-4.21333,33.2216
2023-03-14 22:30:12:163,-0.681833,2.54971,-9.42948,-15.0043,-4.22939,33.2019
2023-03-14 22:30:12:173,-0.675243,2.54811,-9.39837,-14.995,-4.24183,33.1862
2023-03-14 22:30:12:184,-0.679011,2.54067,-9.36973,-14.9838,-4.25192,33.1672
2023-03-14 22:30:12:193,-0.786714,2.49297,-9.26946,-14.9785,-4.26315,33.142
2023-03-14 22:30:12:204,-0.487659,2.50834,-9.37337,-14.9762,-4.27285,33.1209
2023-03-14 22:30:12:213,-0.58913,2.49709,-9.40115,-14.9776,-4.28617,33.1053
2023-03-14 22:30:12:223,-0.758213,2.54619,-9.4286,-14.9842,-4.30915,33.0913
2023-03-14 22:30:12:233,-0.711578,2.57628,-9.46982,-14.9938,-4.33517,33.0743
2023-03-14 22:30:12:243,-0.698907,2.56881,-9.49231,-14.9995,-4.36537,33.0624
2023-03-14 22:30:12:253,-0.809106,2.56609,-9.48588,-15.0061,-4.39709,33.0573
2023-03-14 22:30:12:263,-0.894102,2.55533,-9.48234,-15.0075,-4.41965,33.0488
2023-03-14 22:30:12:273,-0.892549,2.54858,-9.49482,-15.0079,-4.44042,33.0465
2023-03-14 22:30:12:283,-0.854199,2.52672,-9.50453,-14.9989,-4.45001,33.041
2023-03-14 22:30:12:293,-0.812745,2.50015,-9.50093,-14.9818,-4.45433,33.0317
2023-03-14 22:30:12:303,-0.73888,2.44893,-9.47369,-14.9618,-4.45257,33.0257
2023-03-14 22:30:12:313,-0.672064,2.39256,-9.42622,-14.9385,-4.4431,33.021
2023-03-14 22:30:12:323,-0.684696,2.35047,-9.36331,-14.9195,-4.43304,33.0209
2023-03-14 22:30:12:333,-0.742217,2.36431,-9.33234,-14.9077,-4.41815,33.0256
2023-03-14 22:30:12:343,-0.792783,2.40093,-9.35269,-14.9076,-4.39903,33.0329
2023-03-14 22:30:12:353,-0.84723,2.46334,-9.38685,-14.9121,-4.37275,33.0365
2023-03-14 22:30:12:363,-0.888176,2.5287,-9.45394,-14.9172,-4.33911,33.0404
2023-03-14 22:30:12:373,-0.872484,2.54258,-9.49484,-14.9174,-4.30135,33.045
2023-03-14 22:30:12:383,-0.830248,2.55448,-9.46126,-14.9132,-4.25582,33.0526
2023-03-14 22:30:12:393,-0.794771,2.54649,-9.35738,-14.9004,-4.2071,33.0593
2023-03-14 22:30:12:403,-0.735863,2.49704,-9.27456,-14.8859,-4.1524,33.0666
2023-03-14 22:30:12:413,-0.677725,2.53134,-9.30123,-14.8727,-4.08177,33.0704
2023-03-14 22:30:12:423,-0.630055,2.57178,-9.4123,-14.851,-4.00326,33.0655
2023-03-14 22:30:12:433,-0.512219,2.53674,-9.45182,-14.8298,-3.92467,33.0524
2023-03-14 22:30:12:443,-0.398864,2.46179,-9.45636,-14.8121,-3.85288,33.0326
2023-03-14 22:30:12:453,-0.351057,2.46007,-9.47536,-14.8035,-3.79413,33.0159
2023-03-14 22:30:12:463,-0.425562,2.47122,-9.47999,-14.8052,-3.75167,33.0064
2023-03-14 22:30:12:473,-0.487063,2.52744,-9.48402,-14.8142,-3.71448,33.005
2023-03-14 22:30:12:483,-0.528862,2.54907,-9.47329,-14.8215,-3.6815,33.0096
2023-03-14 22:30:12:493,-0.544532,2.5453,-9.44252,-14.8165,-3.65579,33.0175
2023-03-14 22:30:12:503,-0.512968,2.51431,-9.40844,-14.8051,-3.62982,33.0366
2023-03-14 22:30:12:513,-0.492081,2.47223,-9.31552,-14.7787,-3.60121,33.0686
2023-03-14 22:30:12:523,-0.84653,2.49185,-9.19003,-14.7602,-3.57498,33.1087
2023-03-14 22:30:12:533,-1.21313,2.46274,-9.09699,-14.7689,-3.5594,33.1008
2023-03-14 22:30:12:543,0.00967171,2.44342,-9.49772,-14.7822,-3.53627,33.0987
2023-03-14 22:30:12:553,0.220006,2.47564,-9.67643,-14.7932,-3.52903,33.1523
2023-03-14 22:30:12:563,-0.438644,2.54805,-9.56516,-14.8054,-3.54538,33.2369
2023-03-14 22:30:12:573,-0.786069,2.56375,-9.49393,-14.8204,-3.57222,33.3193
2023-03-14 22:30:12:583,-0.743962,2.58568,-9.49124,-14.8299,-3.58737,33.3939
2023-03-14 22:30:12:593,-0.726958,2.5867,-9.44264,-14.826,-3.59613,33.4745
2023-03-14 22:30:12:603,-0.839742,2.54811,-9.35785,-14.8169,-3.5987,33.5602
2023-03-14 22:30:12:613,-0.864566,2.49322,-9.30148,-14.7982,-3.58024,33.6426
2023-03-14 22:30:12:623,-0.79804,2.44792,-9.31639,-14.7835,-3.55664,33.7138
2023-03-14 22:30:12:633,-0.695553,2.42755,-9.35306,-14.7702,-3.52877,33.7808
2023-03-14 22:30:12:643,-0.674326,2.38448,-9.33546,-14.7551,-3.50477,33.8462
2023-03-14 22:30:12:653,-0.741965,2.35512,-9.27244,-14.7489,-3.48474,33.907
2023-03-14 22:30:12:663,-0.781826,2.33803,-9.27186,-14.7608,-3.46704,33.9536
2023-03-14 22:30:12:673,-0.833398,2.30572,-9.2477,-14.7858,-3.44736,33.9926
2023-03-14 22:30:12:683,-0.905276,2.29767,-9.21769,-14.8241,-3.42968,34.0151
2023-03-14 22:30:12:693,-0.917787,2.27431,-9.22134,-14.8769,-3.40998,34.0187
2023-03-14 22:30:12:703,-0.864021,2.24993,-9.20401,-14.9384,-3.38579,34.0042
2023-03-14 22:30:12:713,-0.838101,2.25039,-9.15729,-15.0037,-3.35602,33.9719
2023-03-14 22:30:12:723,-0.733828,2.24428,-9.11306,-15.0759,-3.3336,33.9226
2023-03-14 22:30:12:733,-0.599834,2.23398,-9.02295,-15.1532,-3.3124,33.854
2023-03-14 22:30:12:743,-0.465113,2.26027,-8.99925,-15.2439,-3.30697,33.7727
2023-03-14 22:30:12:753,-0.34089,2.2914,-9.08704,-15.3658,-3.3211,33.6747
2023-03-14 22:30:12:763,-0.335148,2.37334,-9.19951,-15.5201,-3.36662,33.5639
2023-03-14 22:30:12:773,-0.362635,2.5197,-9.33646,-15.6999,-3.44438,33.4491
2023-03-14 22:30:12:783,-0.404027,2.6518,-9.4719,-15.8895,-3.53632,33.33
2023-03-14 22:30:12:793,-0.38079,2.75052,-9.52101,-16.0736,-3.62852,33.216
2023-03-14 22:30:12:803,-0.451413,2.81791,-9.53067,-16.2468,-3.71988,33.1031
2023-03-14 22:30:12:813,-0.572823,2.87132,-9.50152,-16.4037,-3.80576,32.9869
2023-03-14 22:30:12:823,-0.580542,2.9198,-9.50395,-16.5357,-3.88851,32.8686
2023-03-14 22:30:12:833,-0.561899,2.92576,-9.50149,-16.6535,-3.96807,32.7591
2023-03-14 22:30:12:843,-0.505297,2.94353,-9.48822,-16.7661,-4.04379,32.6598
2023-03-14 22:30:12:853,-0.433257,3.00586,-9.55924,-16.8686,-4.12547,32.579
2023-03-14 22:30:12:864,-0.497583,3.14139,-9.61752,-16.9661,-4.21813,32.5203
2023-03-14 22:30:12:873,-0.604777,3.26993,-9.66035,-17.045,-4.30832,32.4746
2023-03-14 22:30:12:883,-0.709743,3.34901,-9.6599,-17.0944,-4.39309,32.4432
2023-03-14 22:30:12:893,-0.830654,3.41104,-9.67623,-17.1199,-4.4633,32.4187
2023-03-14 22:30:12:903,-0.784189,3.45063,-9.71198,-17.1128,-4.53938,32.4035
2023-03-14 22:30:12:913,-0.858804,3.42452,-9.62203,-17.0692,-4.61076,32.3921
2023-03-14 22:30:12:923,-0.790713,3.26418,-9.53153,-17.003,-4.66022,32.4009
2023-03-14 22:30:12:933,-0.739455,3.13188,-9.48652,-16.9334,-4.69122,32.4372
2023-03-14 22:30:12:943,-0.84905,3.06693,-9.42889,-16.8688,-4.70872,32.4925
2023-03-14 22:30:12:953,-0.897996,3.06816,-9.41273,-16.8075,-4.7283,32.5607
2023-03-14 22:30:12:964,-0.939696,2.99762,-9.36779,-16.7529,-4.73627,32.6282
2023-03-14 22:30:12:973,-0.921024,2.96449,-9.35077,-16.7013,-4.73091,32.6956
2023-03-14 22:30:12:983,-0.88928,2.89994,-9.35427,-16.6412,-4.71194,32.7576
2023-03-14 22:30:12:993,-0.814497,2.77527,-9.28602,-16.5798,-4.68194,32.8223
2023-03-14 22:30:13:3,-0.726265,2.6512,-9.19428,-16.534,-4.62997,32.8881
2023-03-14 22:30:13:13,-0.720337,2.63825,-9.24135,-16.4918,-4.57783,32.9521
2023-03-14 22:30:13:23,-0.723647,2.60645,-9.25836,-16.4589,-4.52378,33.0141
2023-03-14 22:30:13:33,-0.739929,2.60606,-9.31856,-16.4307,-4.46864,33.0682
2023-03-14 22:30:13:43,-0.768079,2.63102,-9.36385,-16.4101,-4.41532,33.1106
2023-03-14 22:30:13:53,-0.761749,2.63624,-9.39591,-16.3879,-4.35667,33.1423
2023-03-14 22:30:13:63,-0.730525,2.61643,-9.37682,-16.364,-4.29572,33.1625
2023-03-14 22:30:13:73,-0.704471,2.56807,-9.33011,-16.3376,-4.23871,33.1753
2023-03-14 22:30:13:84,-0.696253,2.53615,-9.26867,-16.3164,-4.18828,33.1838
2023-03-14 22:30:13:93,-0.673137,2.5025,-9.23734,-16.2997,-4.14055,33.1892
2023-03-14 22:30:13:103,-0.666369,2.51969,-9.25349,-16.2907,-4.10465,33.1923
2023-03-14 22:30:13:113,-0.675578,2.56495,-9.31919,-16.2942,-4.08773,33.1917
2023-03-14 22:30:13:123,-0.706338,2.63546,-9.37441,-16.3017,-4.0782,33.1792
2023-03-14 22:30:13:133,-0.754138,2.72219,-9.43651,-16.3103,-4.06874,33.1561
2023-03-14 22:30:13:143,-0.771142,2.74674,-9.46332,-16.3092,-4.06268,33.1212
2023-03-14 22:30:13:153,-0.723678,2.71645,-9.44419,-16.3053,-4.058,33.0807
2023-03-14 22:30:13:163,-0.692985,2.69934,-9.42973,-16.3005,-4.05512,33.0353
2023-03-14 22:30:13:173,-0.662134,2.69755,-9.42444,-16.2927,-4.06024,32.9879
2023-03-14 22:30:13:183,-0.641537,2.67943,-9.38407,-16.2865,-4.06609,32.9419
2023-03-14 22:30:13:193,-0.637153,2.69593,-9.37495,-16.2875,-4.08032,32.8991
2023-03-14 22:30:13:203,-0.657748,2.72254,-9.37568,-16.2912,-4.10096,32.8583
2023-03-14 22:30:13:213,-0.712587,2.74238,-9.37861,-16.2985,-4.12388,32.8178
2023-03-14 22:30:13:223,-0.73804,2.76193,-9.37821,-16.2981,-4.14471,32.7787
2023-03-14 22:30:13:233,-0.712866,2.77209,-9.40303,-16.2944,-4.1608,32.7306
2023-03-14 22:30:13:244,-0.666319,2.73724,-9.4022,-16.2861,-4.17928,32.6809
2023-03-14 22:30:13:253,-0.638234,2.68799,-9.38642,-16.2758,-4.20058,32.6332
2023-03-14 22:30:13:263,-0.623415,2.66889,-9.38948,-16.2672,-4.22415,32.5856
2023-03-14 22:30:13:273,-0.641751,2.68461,-9.39725,-16.2656,-4.2499,32.5428
2023-03-14 22:30:13:283,-0.670577,2.73206,-9.45001,-16.2696,-4.28306,32.504
2023-03-14 22:30:13:293,-0.699773,2.79502,-9.50676,-16.2703,-4.31714,32.4664
2023-03-14 22:30:13:303,-0.723853,2.80999,-9.48743,-16.2644,-4.34498,32.4268
2023-03-14 22:30:13:313,-0.715133,2.7665,-9.40971,-16.255,-4.36946,32.3921
2023-03-14 22:30:13:323,-0.709201,2.70619,-9.31022,-16.2453,-4.38848,32.3584
2023-03-14 22:30:13:333,-0.70255,2.67375,-9.26492,-16.2387,-4.40533,32.3263
2023-03-14 22:30:13:343,-0.7343,2.68835,-9.29331,-16.2404,-4.42517,32.2974
2023-03-14 22:30:13:353,-0.752931,2.72521,-9.34638,-16.2447,-4.44161,32.2619
2023-03-14 22:30:13:363,-0.75755,2.73018,-9.34611,-16.2449,-4.45239,32.2238
2023-03-14 22:30:13:373,-0.733859,2.71087,-9.34635,-16.243,-4.46244,32.1829
2023-03-14 22:30:13:383,-0.736892,2.72023,-9.37931,-16.2464,-4.47204,32.1438
2023-03-14 22:30:13:394,-0.735704,2.76071,-9.40136,-16.2545,-4.479,32.1119
2023-03-14 22:30:13:403,-0.719423,2.79197,-9.41402,-16.2637,-4.47998,32.081
2023-03-14 22:30:13:413,-0.694384,2.79611,-9.42891,-16.2716,-4.47752,32.0564
2023-03-14 22:30:13:423,-0.65971,2.79049,-9.41073,-16.2794,-4.47394,32.0399
2023-03-14 22:30:13:433,-0.664471,2.78371,-9.38582,-16.285,-4.46934,32.0338
2023-03-14 22:30:13:443,-0.697085,2.77849,-9.39584,-16.2877,-4.4591,32.0357
2023-03-14 22:30:13:453,-0.721704,2.80112,-9.42174,-16.2913,-4.44678,32.0436
2023-03-14 22:30:13:463,-0.726397,2.83085,-9.44384,-16.2909,-4.43342,32.0558
2023-03-14 22:30:13:473,-0.739085,2.84763,-9.47106,-16.2905,-4.41311,32.069
2023-03-14 22:30:13:483,-0.741387,2.85677,-9.49186,-16.2798,-4.39584,32.0837
2023-03-14 22:30:13:493,-0.751618,2.85022,-9.47744,-16.2631,-4.37287,32.0968
2023-03-14 22:30:13:503,-0.736134,2.82673,-9.44753,-16.2405,-4.34901,32.1121
2023-03-14 22:30:13:513,-0.725562,2.75984,-9.37881,-16.2105,-4.32511,32.1245
2023-03-14 22:30:13:523,-0.697853,2.70337,-9.31251,-16.1784,-4.29858,32.1397
2023-03-14 22:30:13:533,-0.652765,2.67125,-9.30016,-16.1561,-4.27128,32.1608
2023-03-14 22:30:13:543,-0.670854,2.68961,-9.30542,-16.1418,-4.24441,32.1843
2023-03-14 22:30:13:553,-0.671053,2.70949,-9.33761,-16.1336,-4.22232,32.2067
2023-03-14 22:30:13:563,-0.6616,2.71445,-9.34876,-16.1257,-4.19482,32.2306
2023-03-14 22:30:13:573,-0.666441,2.7154,-9.32827,-16.1191,-4.16709,32.2614
2023-03-14 22:30:13:583,-0.635042,2.68908,-9.32425,-16.1141,-4.13314,32.2967
2023-03-14 22:30:13:593,-0.623113,2.6537,-9.30724,-16.1089,-4.09961,32.3348
2023-03-14 22:30:13:603,-0.609044,2.63177,-9.28252,-16.1141,-4.07312,32.3758
2023-03-14 22:30:13:613,-0.632816,2.6901,-9.32703,-16.1171,-4.05121,32.4177
2023-03-14 22:30:13:623,-0.735069,2.74774,-9.42478,-16.1175,-4.04088,32.4512
2023-03-14 22:30:13:633,-0.709186,2.7008,-9.41175,-16.1179,-4.03494,32.4847
2023-03-14 22:30:13:643,-0.705883,2.70597,-9.39518,-16.1146,-4.02304,32.5139
2023-03-14 22:30:13:653,-0.718099,2.7126,-9.36659,-16.106,-4.00746,32.5355
2023-03-14 22:30:13:663,-0.672609,2.68856,-9.34771,-16.0975,-3.98938,32.551
2023-03-14 22:30:13:673,-0.521744,2.68938,-9.41535,-16.0782,-3.97309,32.5703
2023-03-14 22:30:13:683,-0.72503,2.6191,-9.31679,-16.0679,-3.9666,32.586
2023-03-14 22:30:13:693,-0.615252,2.64624,-9.35979,-16.0567,-3.96207,32.5955
2023-03-14 22:30:13:703,-0.586752,2.63917,-9.37376,-16.0477,-3.96587,32.6091
2023-03-14 22:30:13:714,-0.655407,2.63184,-9.34306,-16.0449,-3.97391,32.6205
2023-03-14 22:30:13:724,-0.679476,2.63746,-9.33027,-16.0411,-3.97658,32.636
2023-03-14 22:30:13:733,-0.648426,2.64917,-9.35183,-16.0395,-3.9774,32.6558
2023-03-14 22:30:13:744,-0.647317,2.63464,-9.33391,-16.0379,-3.98002,32.6752
2023-03-14 22:30:13:754,-0.696361,2.61401,-9.28282,-16.036,-3.97641,32.6936
2023-03-14 22:30:13:764,-0.635794,2.63557,-9.30782,-16.0388,-3.97346,32.7115
2023-03-14 22:30:13:773,-0.607209,2.65093,-9.34504,-16.0396,-3.97396,32.7291
2023-03-14 22:30:13:784,-0.636814,2.68381,-9.36226,-16.0414,-3.98186,32.7528
2023-03-14 22:30:13:794,-0.672724,2.71521,-9.37422,-16.048,-3.99743,32.774
2023-03-14 22:30:13:803,-0.714053,2.73351,-9.37924,-16.0451,-4.01133,32.7897
2023-03-14 22:30:13:813,-0.685731,2.72249,-9.37583,-16.0421,-4.02334,32.8078
2023-03-14 22:30:13:823,-0.684259,2.68001,-9.3538,-16.0386,-4.03925,32.8237
2023-03-14 22:30:13:833,-0.646073,2.68816,-9.3385,-16.0353,-4.05652,32.8382
2023-03-14 22:30:13:844,-0.767182,2.6495,-9.30287,-16.0374,-4.07545,32.8541
2023-03-14 22:30:13:853,-0.72929,2.70896,-9.33927,-16.0425,-4.09211,32.8698
2023-03-14 22:30:13:864,-0.766513,2.7271,-9.36543,-16.0458,-4.11005,32.8831
2023-03-14 22:30:13:874,-0.746739,2.72386,-9.39126,-16.0534,-4.12441,32.8966
2023-03-14 22:30:13:883,-0.74578,2.76127,-9.42669,-16.0592,-4.13831,32.9093
2023-03-14 22:30:13:893,-0.744535,2.76487,-9.39653,-16.0594,-4.15015,32.92
2023-03-14 22:30:13:903,-0.730056,2.7649,-9.36275,-16.0579,-4.15609,32.9329
2023-03-14 22:30:13:914,-0.772157,2.73211,-9.30835,-16.059,-4.16561,32.9453
2023-03-14 22:30:13:924,-0.757238,2.71514,-9.31637,-16.0639,-4.1723,32.9601
2023-03-14 22:30:13:933,-0.739187,2.73559,-9.31675,-16.0704,-4.18203,32.9752
2023-03-14 22:30:13:944,-0.776674,2.73218,-9.32015,-16.0769,-4.1879,32.9851
2023-03-14 22:30:13:953,-0.747922,2.73811,-9.34263,-16.0793,-4.18976,32.9945
2023-03-14 22:30:13:963,-0.725411,2.74399,-9.37179,-16.0852,-4.18956,33.0048
2023-03-14 22:30:13:973,-0.735417,2.75177,-9.38008,-16.0842,-4.19119,33.0128
2023-03-14 22:30:13:983,-0.73453,2.7454,-9.38534,-16.0843,-4.19417,33.0226
2023-03-14 22:30:13:993,-0.722112,2.75914,-9.40242,-16.0832,-4.19607,33.0324
2023-03-14 22:30:14:3,-0.751865,2.74584,-9.3802,-16.0754,-4.19887,33.0471
2023-03-14 22:30:14:13,-0.748061,2.73651,-9.36283,-16.0651,-4.20063,33.0551
2023-03-14 22:30:14:24,-0.721981,2.72421,-9.35907,-16.0518,-4.19869,33.0643
2023-03-14 22:30:14:33,-0.697201,2.70011,-9.34589,-16.0405,-4.19462,33.075
2023-03-14 22:30:14:44,-0.699126,2.70197,-9.34337,-16.0351,-4.19218,33.0876
2023-03-14 22:30:14:54,-0.704684,2.72252,-9.36013,-16.0293,-4.18845,33.0991
2023-03-14 22:30:14:64,-0.711212,2.72429,-9.34919,-16.0256,-4.1849,33.1094
2023-03-14 22:30:14:73,-0.705992,2.73484,-9.36351,-16.0244,-4.1802,33.1206
2023-03-14 22:30:14:84,-0.705406,2.74688,-9.38264,-16.0231,-4.17546,33.1305
2023-03-14 22:30:14:94,-0.70203,2.75759,-9.40676,-16.0213,-4.17262,33.1402
2023-03-14 22:30:14:104,-0.717047,2.75873,-9.41391,-16.0176,-4.17109,33.1438
2023-03-14 22:30:14:113,-0.703477,2.73817,-9.37897,-16.0097,-4.17057,33.152
2023-03-14 22:30:14:124,-0.68261,2.70129,-9.32934,-16.0009,-4.16878,33.1593
2023-03-14 22:30:14:134,-0.680085,2.68722,-9.29253,-15.9985,-4.16519,33.1681
2023-03-14 22:30:14:144,-0.700691,2.68275,-9.30958,-15.9935,-4.16484,33.1759
2023-03-14 22:30:14:154,-0.715957,2.70259,-9.32461,-15.9929,-4.16815,33.1862
2023-03-14 22:30:14:163,-0.723204,2.70604,-9.34459,-15.9943,-4.16648,33.1935
2023-03-14 22:30:14:173,-0.721953,2.69414,-9.35899,-16.0002,-4.17116,33.2023
2023-03-14 22:30:14:184,-0.7074,2.69792,-9.38903,-16.0024,-4.16905,33.2118
2023-03-14 22:30:14:194,-0.72747,2.71657,-9.40199,-16.0067,-4.1707,33.2226
2023-03-14 22:30:14:203,-0.752833,2.72612,-9.43001,-16.0069,-4.17095,33.2343
2023-03-14 22:30:14:214,-0.772938,2.73902,-9.44098,-16.0026,-4.16813,33.2428
2023-03-14 22:30:14:224,-0.791297,2.74064,-9.43179,-15.997,-4.16144,33.2532
2023-03-14 22:30:14:234,-0.781899,2.73378,-9.40667,-15.9839,-4.15331,33.2589
2023-03-14 22:30:14:243,-0.736541,2.70849,-9.37341,-15.9681,-4.13834,33.2606
2023-03-14 22:30:14:253,-0.681393,2.67237,-9.34085,-15.954,-4.12716,33.2635
2023-03-14 22:30:14:264,-0.674046,2.64223,-9.32991,-15.9422,-4.11462,33.2709
2023-03-14 22:30:14:273,-0.667941,2.63641,-9.35826,-15.9328,-4.09924,33.2771
2023-03-14 22:30:14:283,-0.65762,2.64376,-9.39176,-15.9272,-4.08788,33.2876
2023-03-14 22:30:14:293,-0.645532,2.64048,-9.40291,-15.9217,-4.07594,33.2958
2023-03-14 22:30:14:304,-0.636984,2.62835,-9.3966,-15.9158,-4.06596,33.3088
2023-03-14 22:30:14:313,-0.629296,2.63349,-9.38608,-15.9109,-4.05796,33.3227
2023-03-14 22:30:14:323,-0.640931,2.61705,-9.37508,-15.9128,-4.04985,33.3402
2023-03-14 22:30:14:333,-0.650282,2.6084,-9.34142,-15.9152,-4.04383,33.3596
2023-03-14 22:30:14:343,-0.586778,2.63639,-9.36536,-15.9186,-4.036,33.389
2023-03-14 22:30:14:353,-0.732389,2.62913,-9.32209,-15.9236,-4.02538,33.4184
2023-03-14 22:30:14:363,-0.77182,2.64641,-9.35438,-15.9293,-4.01155,33.4431
2023-03-14 22:30:14:373,-0.754635,2.6479,-9.4221,-15.9315,-3.99192,33.4722
2023-03-14 22:30:14:383,-0.808077,2.61241,-9.45779,-15.9227,-3.97049,33.4962
2023-03-14 22:30:14:393,-0.806143,2.58723,-9.47895,-15.9072,-3.94097,33.5171
2023-03-14 22:30:14:403,-0.808635,2.56391,-9.46583,-15.8811,-3.90592,33.5341
2023-03-14 22:30:14:413,-0.784039,2.52467,-9.3801,-15.851,-3.85747,33.547
2023-03-14 22:30:14:423,-0.645317,2.46206,-9.30422,-15.8152,-3.79314,33.5586
2023-03-14 22:30:14:433,-0.692269,2.42242,-9.2141,-15.7852,-3.71801,33.5653
2023-03-14 22:30:14:443,-0.477922,2.40532,-9.22818,-15.7673,-3.63884,33.5694
2023-03-14 22:30:14:453,-0.377424,2.40833,-9.22957,-15.758,-3.55769,33.5785
2023-03-14 22:30:14:463,-0.359772,2.50765,-9.29428,-15.7625,-3.48522,33.5942
2023-03-14 22:30:14:473,-0.309137,2.62181,-9.41005,-15.7659,-3.41917,33.6144
2023-03-14 22:30:14:483,-0.313933,2.68776,-9.40392,-15.762,-3.36252,33.6361
2023-03-14 22:30:14:493,-0.28704,2.67726,-9.34288,-15.7578,-3.31255,33.6597
2023-03-14 22:30:14:504,-0.175495,2.6382,-9.30027,-15.7593,-3.26871,33.6951
2023-03-14 22:30:14:513,-0.149026,2.6459,-9.25984,-15.7696,-3.23425,33.7467
2023-03-14 22:30:14:524,-0.214886,2.70565,-9.27431,-15.788,-3.215,33.8082
2023-03-14 22:30:14:533,-0.282041,2.80021,-9.34704,-15.8185,-3.20672,33.8839
2023-03-14 22:30:14:543,-0.325496,2.8896,-9.44921,-15.8479,-3.19953,33.9657
2023-03-14 22:30:14:553,-0.377533,2.9427,-9.51353,-15.8783,-3.19199,34.0503
2023-03-14 22:30:14:563,-0.444247,2.94446,-9.4855,-15.9063,-3.18529,34.1391
2023-03-14 22:30:14:573,-0.485574,2.91714,-9.40827,-15.9332,-3.17247,34.2345
2023-03-14 22:30:14:583,-0.523327,2.91411,-9.39374,-15.9654,-3.15434,34.3323
2023-03-14 22:30:14:593,-0.585566,2.90707,-9.40823,-16.0036,-3.13909,34.4308
2023-03-14 22:30:14:603,-0.650415,2.95567,-9.4035,-16.0401,-3.12475,34.5252
2023-03-14 22:30:14:613,-0.673272,2.98524,-9.41331,-16.0775,-3.10926,34.6167
2023-03-14 22:30:14:623,-0.673897,3.00557,-9.43751,-16.1106,-3.09071,34.7017
2023-03-14 22:30:14:633,-0.658461,2.9958,-9.45767,-16.1356,-3.06999,34.7812
2023-03-14 22:30:14:643,-0.60574,2.97619,-9.43743,-16.1536,-3.04603,34.8522
2023-03-14 22:30:14:653,-0.542732,2.95835,-9.40479,-16.166,-3.02437,34.9181
2023-03-14 22:30:14:664,-0.507301,2.91638,-9.41186,-16.1739,-3.00772,34.9811
2023-03-14 22:30:14:673,-0.4969,2.9343,-9.45888,-16.179,-2.99766,35.0362
2023-03-14 22:30:14:683,-0.51641,2.92946,-9.50288,-16.1855,-2.99898,35.0829
2023-03-14 22:30:14:693,-0.520287,2.91193,-9.50932,-16.1865,-3.0088,35.1254
2023-03-14 22:30:14:703,-0.528615,2.86228,-9.49187,-16.1872,-3.02795,35.1616
2023-03-14 22:30:14:713,-0.445943,2.85181,-9.52319,-16.1824,-3.05326,35.1986
2023-03-14 22:30:14:723,-0.643363,2.7817,-9.39312,-16.1797,-3.08366,35.2343
2023-03-14 22:30:14:733,-0.6889,2.74458,-9.34953,-16.1762,-3.12022,35.2637
2023-03-14 22:30:14:743,-0.636442,2.72073,-9.36741,-16.1687,-3.15908,35.2913
2023-03-14 22:30:14:753,-0.671456,2.71674,-9.35282,-16.1609,-3.19874,35.3157
2023-03-14 22:30:14:763,-0.628945,2.71195,-9.38334,-16.1515,-3.24002,35.3362
2023-03-14 22:30:14:773,-0.605479,2.69733,-9.4206,-16.1385,-3.27828,35.354
2023-03-14 22:30:14:783,-0.591937,2.6846,-9.45988,-16.1231,-3.31912,35.3725
2023-03-14 22:30:14:793,-0.584048,2.66,-9.45764,-16.1011,-3.35546,35.3913
2023-03-14 22:30:14:803,-0.575708,2.60974,-9.4376,-16.0741,-3.39112,35.4086
2023-03-14 22:30:14:813,-0.565137,2.58625,-9.37575,-16.0444,-3.4189,35.4269
2023-03-14 22:30:14:823,-0.548674,2.54568,-9.31551,-16.0129,-3.43834,35.4454
2023-03-14 22:30:14:833,-0.483859,2.48585,-9.28042,-15.9853,-3.45534,35.4641
2023-03-14 22:30:14:843,-0.433108,2.44629,-9.25786,-15.9644,-3.46961,35.4839
2023-03-14 22:30:14:853,-0.401453,2.41971,-9.29644,-15.9541,-3.48184,35.5052
2023-03-14 22:30:14:863,-0.382637,2.43961,-9.33553,-15.9538,-3.48835,35.5331
2023-03-14 22:30:14:873,-0.0521645,2.49398,-9.50789,-15.9518,-3.48979,35.5709
2023-03-14 22:30:14:883,0.105101,2.58049,-9.68242,-15.9288,-3.48295,35.6411
2023-03-14 22:30:14:893,-0.449018,2.52808,-9.45052,-15.9021,-3.48203,35.7274
2023-03-14 22:30:14:903,-0.61746,2.44212,-9.31914,-15.8785,-3.47593,35.8009
2023-03-14 22:30:14:913,-0.41675,2.3978,-9.33948,-15.8643,-3.46192,35.8651
2023-03-14 22:30:14:923,-0.307043,2.40486,-9.38749,-15.8553,-3.44411,35.9351
2023-03-14 22:30:14:933,-0.392539,2.45362,-9.38992,-15.8417,-3.43274,36.0089
2023-03-14 22:30:14:943,-0.498191,2.46104,-9.34732,-15.8279,-3.42498,36.0804
2023-03-14 22:30:14:953,-0.552787,2.44743,-9.29036,-15.8166,-3.42023,36.1525
2023-03-14 22:30:14:963,-0.589476,2.44959,-9.24697,-15.8111,-3.41442,36.2209
2023-03-14 22:30:14:973,-0.601137,2.4567,-9.22976,-15.8103,-3.41129,36.2831
2023-03-14 22:30:14:984,-0.573343,2.46532,-9.23529,-15.8162,-3.41409,36.3426
2023-03-14 22:30:14:993,-0.553805,2.46209,-9.26112,-15.8312,-3.42762,36.3987
2023-03-14 22:30:15:3,-0.562066,2.49186,-9.29819,-15.854,-3.44856,36.4528
2023-03-14 22:30:15:13,-0.574497,2.52196,-9.33417,-15.8816,-3.47846,36.5035
2023-03-14 22:30:15:23,-0.587234,2.55595,-9.35327,-15.9142,-3.51423,36.5474
2023-03-14 22:30:15:33,-0.581448,2.55807,-9.32981,-15.9508,-3.55497,36.5946
2023-03-14 22:30:15:43,-0.623947,2.59529,-9.31381,-15.9925,-3.60302,36.6374
2023-03-14 22:30:15:53,-0.677446,2.61939,-9.29487,-16.0355,-3.65284,36.6802
2023-03-14 22:30:15:63,-0.746458,2.65364,-9.27769,-16.0839,-3.70705,36.7192
2023-03-14 22:30:15:73,-0.803881,2.68339,-9.27375,-16.1368,-3.76067,36.754
2023-03-14 22:30:15:83,-0.778409,2.71847,-9.26883,-16.193,-3.81419,36.7828
2023-03-14 22:30:15:93,-0.701918,2.72843,-9.26059,-16.2508,-3.86501,36.8105
2023-03-14 22:30:15:103,-0.662832,2.73458,-9.25535,-16.3104,-3.91252,36.8353
2023-03-14 22:30:15:113,-0.660379,2.75552,-9.26424,-16.3807,-3.96004,36.8678
2023-03-14 22:30:15:123,-0.662863,2.81794,-9.31972,-16.4564,-4.00056,36.9088
2023-03-14 22:30:15:133,-0.673638,2.90939,-9.39522,-16.5322,-4.03911,36.9543
2023-03-14 22:30:15:144,-0.693185,2.98542,-9.45261,-16.6036,-4.07215,37.0106
2023-03-14 22:30:15:153,-0.78853,3.06116,-9.49119,-16.6722,-4.10481,37.0721
2023-03-14 22:30:15:163,-0.91911,3.11768,-9.48248,-16.7293,-4.13175,37.1343
2023-03-14 22:30:15:173,-1.02881,3.13829,-9.46497,-16.7704,-4.15006,37.1976
2023-03-14 22:30:15:184,-1.07949,3.10044,-9.43324,-16.8009,-4.15657,37.2604
2023-03-14 22:30:15:193,-1.04179,3.04671,-9.43791,-16.8218,-4.15177,37.3187
2023-03-14 22:30:15:204,-0.959562,3.02789,-9.48177,-16.8303,-4.14074,37.3685
2023-03-14 22:30:15:213,-1.01415,3.00902,-9.45133,-16.8332,-4.12484,37.4115
2023-03-14 22:30:15:223,-0.987825,2.97412,-9.44485,-16.8342,-4.1097,37.4441
2023-03-14 22:30:15:233,-0.86267,2.91755,-9.45829,-16.8287,-4.09492,37.4732
2023-03-14 22:30:15:243,-0.846685,2.87843,-9.41825,-16.8266,-4.08622,37.4937
2023-03-14 22:30:15:253,-0.862968,2.86105,-9.40428,-16.8237,-4.08021,37.5118
2023-03-14 22:30:15:263,-0.846715,2.87075,-9.40579,-16.8186,-4.07677,37.5218
2023-03-14 22:30:15:273,-0.840653,2.86901,-9.39286,-16.8154,-4.07426,37.5268
2023-03-14 22:30:15:283,-0.826994,2.87465,-9.37875,-16.8068,-4.07133,37.5238
2023-03-14 22:30:15:293,-0.791242,2.88456,-9.36481,-16.7935,-4.06959,37.5141
2023-03-14 22:30:15:303,-0.786986,2.86987,-9.35594,-16.7702,-4.05884,37.4988
2023-03-14 22:30:15:313,-0.798395,2.87158,-9.35266,-16.744,-4.04902,37.4802
2023-03-14 22:30:15:323,-0.775561,2.85406,-9.35889,-16.7142,-4.03917,37.4548
2023-03-14 22:30:15:333,-0.737594,2.8299,-9.33409,-16.6803,-4.02714,37.4259
2023-03-14 22:30:15:343,-0.702478,2.79449,-9.30271,-16.6473,-4.01437,37.3984
2023-03-14 22:30:15:353,-0.686023,2.75009,-9.29056,-16.6162,-3.9994,37.3678
2023-03-14 22:30:15:364,-0.679439,2.75001,-9.2809,-16.5924,-3.98542,37.3396
2023-03-14 22:30:15:373,-0.683125,2.75226,-9.32145,-16.5745,-3.97549,37.308
2023-03-14 22:30:15:383,-0.694295,2.76912,-9.33814,-16.5603,-3.96432,37.2754
2023-03-14 22:30:15:393,-0.706963,2.80691,-9.34468,-16.5509,-3.95153,37.2391
2023-03-14 22:30:15:403,-0.699064,2.8178,-9.36608,-16.5391,-3.94024,37.2011
2023-03-14 22:30:15:413,-0.686356,2.8278,-9.3907,-16.5252,-3.92935,37.1597
2023-03-14 22:30:15:423,-0.659067,2.8347,-9.35985,-16.5059,-3.91745,37.113
2023-03-14 22:30:15:433,-0.657133,2.82803,-9.33184,-16.4912,-3.9084,37.0646
2023-03-14 22:30:15:444,-0.642835,2.82229,-9.31735,-16.4747,-3.90508,37.0158
2023-03-14 22:30:15:453,-0.604338,2.8005,-9.32876,-16.4596,-3.90538,36.9654
2023-03-14 22:30:15:463,-0.587911,2.78616,-9.34882,-16.4403,-3.91151,36.9185
2023-03-14 22:30:15:473,-0.590861,2.78339,-9.30357,-16.4251,-3.92149,36.8688
2023-03-14 22:30:15:483,-0.572632,2.75781,-9.27385,-16.4098,-3.93259,36.8197
2023-03-14 22:30:15:493,-0.556778,2.75426,-9.2869,-16.3989,-3.94176,36.7703
2023-03-14 22:30:15:503,-0.588863,2.76377,-9.29968,-16.3919,-3.94961,36.7269
2023-03-14 22:30:15:513,-0.645446,2.76911,-9.30098,-16.3871,-3.962,36.6795
2023-03-14 22:30:15:523,-0.6616,2.77234,-9.28663,-16.3825,-3.97236,36.6297
2023-03-14 22:30:15:533,-0.639272,2.74168,-9.25092,-16.3822,-3.97665,36.5828
2023-03-14 22:30:15:543,-0.651452,2.73303,-9.21894,-16.3856,-3.9821,36.538
2023-03-14 22:30:15:553,-0.676141,2.73656,-9.22689,-16.3988,-3.9875,36.4961
2023-03-14 22:30:15:563,-0.766825,2.7393,-9.20859,-16.4179,-3.98951,36.4525
2023-03-14 22:30:15:573,-0.747293,2.74953,-9.256,-16.4435,-3.98714,36.4016
2023-03-14 22:30:15:583,-0.602789,2.7874,-9.35882,-16.474,-3.98876,36.3476
2023-03-14 22:30:15:593,-0.634932,2.77022,-9.38028,-16.4977,-3.9939,36.301
2023-03-14 22:30:15:603,-0.739515,2.71973,-9.38251,-16.528,-4.00401,36.2596
2023-03-14 22:30:15:613,-0.799901,2.69397,-9.39165,-16.5572,-4.01629,36.2115
2023-03-14 22:30:15:623,-0.805902,2.7043,-9.45575,-16.5868,-4.03271,36.1555
2023-03-14 22:30:15:633,-0.823201,2.70354,-9.50198,-16.6157,-4.04488,36.0982
2023-03-14 22:30:15:643,-0.908011,2.6946,-9.4599,-16.6403,-4.04794,36.0334
2023-03-14 22:30:15:653,-0.916176,2.66642,-9.42389,-16.6551,-4.03851,35.956
2023-03-14 22:30:15:663,-0.847599,2.63443,-9.36617,-16.6649,-4.0239,35.8664
2023-03-14 22:30:15:674,-0.768525,2.62447,-9.35177,-16.669,-4.00614,35.7656
2023-03-14 22:30:15:683,-0.595443,2.62987,-9.37917,-16.6721,-3.98848,35.6642
2023-03-14 22:30:15:693,-0.560674,2.6776,-9.35648,-16.6724,-3.97234,35.5619
2023-03-14 22:30:15:703,-0.577702,2.6916,-9.29786,-16.6696,-3.95533,35.4593
2023-03-14 22:30:15:713,-0.552632,2.6991,-9.26204,-16.6655,-3.94009,35.3518
2023-03-14 22:30:15:723,-0.469137,2.69382,-9.27563,-16.6658,-3.92479,35.25
2023-03-14 22:30:15:733,-0.443643,2.7402,-9.32377,-16.6705,-3.90133,35.1553
2023-03-14 22:30:15:743,-0.44898,2.83227,-9.36012,-16.6783,-3.88125,35.0605
2023-03-14 22:30:15:753,-0.457201,2.86952,-9.36348,-16.6806,-3.85891,34.9717
2023-03-14 22:30:15:763,-0.425831,2.92583,-9.39225,-16.682,-3.83508,34.8878
2023-03-14 22:30:15:773,-0.351905,2.9512,-9.41221,-16.6833,-3.81135,34.8078
2023-03-14 22:30:15:783,-0.291891,2.94367,-9.39487,-16.6849,-3.7818,34.7399
2023-03-14 22:30:15:793,-0.255708,2.94658,-9.39355,-16.6874,-3.75617,34.6827
2023-03-14 22:30:15:803,-0.258803,2.93419,-9.4303,-16.6924,-3.73492,34.643
2023-03-14 22:30:15:813,-0.329701,2.95412,-9.43056,-16.6993,-3.71823,34.6228
2023-03-14 22:30:15:823,-0.483671,2.97261,-9.33174,-16.7055,-3.70182,34.6101
2023-03-14 22:30:15:833,-0.615929,2.98839,-9.20213,-16.7057,-3.68539,34.6087
2023-03-14 22:30:15:843,-0.760287,2.95102,-9.10217,-16.6993,-3.65545,34.6034
2023-03-14 22:30:15:853,-0.770282,2.9384,-9.12634,-16.693,-3.61608,34.5996
2023-03-14 22:30:15:863,-0.634437,2.90712,-9.21825,-16.6808,-3.55788,34.5885
2023-03-14 22:30:15:873,-0.431158,2.91308,-9.36096,-16.6609,-3.50181,34.5836
2023-03-14 22:30:15:883,-0.372504,2.87533,-9.44547,-16.642,-3.45675,34.5971
2023-03-14 22:30:15:893,-0.356331,2.88671,-9.49998,-16.6263,-3.42319,34.6264
2023-03-14 22:30:15:903,-0.382092,2.95168,-9.52488,-16.6036,-3.39899,34.671
2023-03-14 22:30:15:914,-0.614903,2.91213,-9.38031,-16.5777,-3.37972,34.7246
2023-03-14 22:30:15:924,-0.778145,2.89324,-9.21652,-16.5484,-3.35749,34.7694
2023-03-14 22:30:15:934,-0.779918,2.89964,-9.13544,-16.5144,-3.32574,34.802
2023-03-14 22:30:15:944,-0.677573,2.88142,-9.12278,-16.4746,-3.27816,34.8228
2023-03-14 22:30:15:953,-0.547237,2.82376,-9.12207,-16.4288,-3.2237,34.8393
2023-03-14 22:30:15:964,-0.345713,2.70943,-9.12432,-16.387,-3.17411,34.8584
2023-03-14 22:30:15:973,-0.273704,2.63882,-9.12626,-16.3712,-3.12913,34.8899
2023-03-14 22:30:15:984,-0.264106,2.64157,-9.17498,-16.3802,-3.09719,34.9286
2023-03-14 22:30:15:993,-0.349411,2.68696,-9.23129,-16.4117,-3.07483,34.972
2023-03-14 22:30:16:3,-0.458343,2.74765,-9.34781,-16.4539,-3.07504,35.015
2023-03-14 22:30:16:13,-0.542252,2.76233,-9.41607,-16.4988,-3.08615,35.0557
2023-03-14 22:30:16:23,-0.678488,2.7325,-9.40768,-16.543,-3.10383,35.0923
2023-03-14 22:30:16:33,-0.739082,2.73372,-9.44399,-16.5828,-3.11685,35.1219
2023-03-14 22:30:16:43,-0.783175,2.73092,-9.47126,-16.61,-3.12059,35.138
2023-03-14 22:30:16:53,-0.73032,2.70701,-9.45563,-16.6139,-3.11953,35.1427
2023-03-14 22:30:16:64,-0.573197,2.67821,-9.37491,-16.6063,-3.11533,35.1346
2023-03-14 22:30:16:73,-0.486222,2.64386,-9.32298,-16.5919,-3.11237,35.1248
2023-03-14 22:30:16:84,-0.415216,2.61671,-9.29241,-16.5791,-3.1169,35.1118
2023-03-14 22:30:16:93,-0.394038,2.60206,-9.28039,-16.5775,-3.1289,35.1082
2023-03-14 22:30:16:103,-0.434814,2.68664,-9.33996,-16.5897,-3.14314,35.1105
2023-03-14 22:30:16:113,-0.518452,2.79174,-9.46922,-16.61,-3.1641,35.1126
2023-03-14 22:30:16:123,-0.604028,2.86526,-9.53736,-16.6359,-3.18424,35.1066
2023-03-14 22:30:16:133,-0.656265,2.90181,-9.54535,-16.6608,-3.20335,35.0975
2023-03-14 22:30:16:143,-0.641027,2.90938,-9.50067,-16.6811,-3.21107,35.0811
2023-03-14 22:30:16:153,-0.618465,2.86937,-9.41915,-16.7058,-3.21027,35.0627
2023-03-14 22:30:16:164,-0.61223,2.87082,-9.34658,-16.7319,-3.20857,35.0419
2023-03-14 22:30:16:173,-0.590639,2.88129,-9.31083,-16.7711,-3.2108,35.0169
2023-03-14 22:30:16:184,-0.563576,2.90788,-9.30443,-16.8119,-3.2201,34.9952
2023-03-14 22:30:16:193,-0.520191,2.92439,-9.30821,-16.8617,-3.22738,34.975
2023-03-14 22:30:16:204,-0.574769,2.97037,-9.34073,-16.9077,-3.24242,34.9521
2023-03-14 22:30:16:213,-0.567769,2.94407,-9.34157,-16.9468,-3.25668,34.9283
2023-03-14 22:30:16:223,-0.554244,2.91828,-9.35067,-16.9856,-3.27351,34.9099
2023-03-14 22:30:16:233,-0.629305,2.99295,-9.47622,-17.0227,-3.29205,34.8888
2023-03-14 22:30:16:243,-0.653886,3.03691,-9.53405,-17.0488,-3.30996,34.8618
2023-03-14 22:30:16:253,-0.626589,2.99003,-9.48102,-17.0637,-3.31712,34.8304
2023-03-14 22:30:16:263,-0.580009,2.91971,-9.36445,-17.0778,-3.31908,34.8077
2023-03-14 22:30:16:273,-0.588868,2.8785,-9.3237,-17.0844,-3.32158,34.7844
2023-03-14 22:30:16:283,-0.57364,2.82183,-9.30288,-17.085,-3.32989,34.7667
2023-03-14 22:30:16:293,-0.547591,2.75426,-9.25136,-17.0873,-3.33645,34.752
2023-03-14 22:30:16:303,-0.514773,2.73023,-9.2498,-17.0908,-3.3464,34.7409
2023-03-14 22:30:16:313,-0.52468,2.71891,-9.28283,-17.1062,-3.35865,34.7289
2023-03-14 22:30:16:323,-0.56323,2.74144,-9.31144,-17.1286,-3.37028,34.7086
2023-03-14 22:30:16:333,-0.60276,2.80629,-9.37091,-17.1563,-3.38499,34.6912
2023-03-14 22:30:16:343,-0.593071,2.85067,-9.39745,-17.183,-3.39838,34.6656
2023-03-14 22:30:16:353,-0.562319,2.83588,-9.37302,-17.2101,-3.40716,34.642
2023-03-14 22:30:16:363,-0.547476,2.8174,-9.31693,-17.2345,-3.41787,34.6198
2023-03-14 22:30:16:373,-0.574426,2.78749,-9.26578,-17.2622,-3.43355,34.5998
2023-03-14 22:30:16:384,-0.602391,2.7646,-9.20563,-17.2896,-3.44111,34.584
2023-03-14 22:30:16:393,-0.577549,2.78565,-9.24334,-17.321,-3.44686,34.5663
2023-03-14 22:30:16:404,-0.582601,2.8255,-9.27383,-17.3533,-3.44972,34.5501
2023-03-14 22:30:16:413,-0.576287,2.86378,-9.27985,-17.3832,-3.45791,34.5247
2023-03-14 22:30:16:423,-0.557863,2.8721,-9.27173,-17.4162,-3.47027,34.4952
2023-03-14 22:30:16:433,-0.564326,2.852,-9.24868,-17.4508,-3.48744,34.4684
2023-03-14 22:30:16:443,-0.590775,2.85587,-9.24444,-17.4895,-3.51002,34.4394
2023-03-14 22:30:16:453,-0.62775,2.89298,-9.25276,-17.5291,-3.53262,34.4099
2023-03-14 22:30:16:463,-0.632971,2.9354,-9.30413,-17.5714,-3.55606,34.38
2023-03-14 22:30:16:473,-0.665893,2.99486,-9.35643,-17.6204,-3.58502,34.3458
2023-03-14 22:30:16:483,-0.685729,3.05141,-9.41324,-17.6635,-3.61007,34.3096
2023-03-14 22:30:16:493,-0.661172,3.09951,-9.44612,-17.7029,-3.63056,34.2654
2023-03-14 22:30:16:503,-0.670974,3.07614,-9.43129,-17.7381,-3.65046,34.2185
2023-03-14 22:30:16:513,-0.615769,3.04275,-9.35646,-17.7664,-3.66339,34.171
2023-03-14 22:30:16:523,-0.570271,3.01356,-9.2973,-17.7876,-3.67113,34.1307
2023-03-14 22:30:16:533,-0.637277,2.98443,-9.23519,-17.8133,-3.67812,34.0945
2023-03-14 22:30:16:543,-0.565517,3.0122,-9.29661,-17.8361,-3.68689,34.0607
2023-03-14 22:30:16:553,-0.618161,3.06495,-9.35671,-17.8605,-3.6994,34.0319
2023-03-14 22:30:16:563,-0.622963,3.10618,-9.3839,-17.8806,-3.70813,34.0018
2023-03-14 22:30:16:573,-0.584681,3.1117,-9.3474,-17.8964,-3.71187,33.9731
2023-03-14 22:30:16:583,-0.573564,3.10351,-9.31899,-17.914,-3.71584,33.9463
2023-03-14 22:30:16:593,-0.583734,3.07524,-9.30324,-17.9279,-3.71489,33.9196
2023-03-14 22:30:16:603,-0.573533,3.03543,-9.27368,-17.9415,-3.71067,33.8987
2023-03-14 22:30:16:613,-0.588925,3.01967,-9.25768,-17.9511,-3.70391,33.88
2023-03-14 22:30:16:623,-0.580777,3.03114,-9.30002,-17.9622,-3.69961,33.8649
2023-03-14 22:30:16:633,-0.603237,3.08134,-9.35888,-17.9745,-3.69055,33.8494
2023-03-14 22:30:16:643,-0.602761,3.11392,-9.37544,-17.9864,-3.67959,33.8286
2023-03-14 22:30:16:653,-0.574266,3.12935,-9.39269,-17.9982,-3.66824,33.8072
2023-03-14 22:30:16:663,-0.573897,3.13432,-9.38184,-18.0046,-3.65463,33.7858
2023-03-14 22:30:16:673,-0.544139,3.1254,-9.34535,-18.0001,-3.64245,33.7602
2023-03-14 22:30:16:683,-0.534467,3.09236,-9.31663,-17.9983,-3.63395,33.7403
2023-03-14 22:30:16:693,-0.552107,3.08297,-9.31649,-17.9933,-3.62659,33.7162
2023-03-14 22:30:16:703,-0.554003,3.103,-9.32785,-17.9898,-3.62573,33.6924
2023-03-14 22:30:16:713,-0.586621,3.11511,-9.36742,-17.9842,-3.62504,33.6687
2023-03-14 22:30:16:723,-0.602168,3.15515,-9.40357,-17.9758,-3.6251,33.64
2023-03-14 22:30:16:733,-0.596866,3.18822,-9.40809,-17.9618,-3.62677,33.6069
2023-03-14 22:30:16:744,-0.592446,3.17725,-9.39696,-17.938,-3.62637,33.5783
2023-03-14 22:30:16:753,-0.582677,3.16109,-9.37279,-17.91,-3.62914,33.5518
2023-03-14 22:30:16:764,-0.582526,3.11785,-9.34524,-17.8758,-3.63384,33.5247
2023-03-14 22:30:16:773,-0.57979,3.07188,-9.32864,-17.8406,-3.64089,33.4956
2023-03-14 22:30:16:783,-0.607394,3.05554,-9.3449,-17.8057,-3.64746,33.469
2023-03-14 22:30:16:793,-0.62938,3.06695,-9.37217,-17.7699,-3.65553,33.4391
2023-03-14 22:30:16:803,-0.63816,3.06549,-9.36378,-17.7382,-3.66428,33.4066
2023-03-14 22:30:16:813,-0.656611,3.04327,-9.34377,-17.705,-3.67187,33.3696
2023-03-14 22:30:16:823,-0.589437,3.02153,-9.34914,-17.6735,-3.67574,33.33
2023-03-14 22:30:16:833,-0.647428,2.97498,-9.29093,-17.643,-3.68504,33.2868
2023-03-14 22:30:16:844,-0.636262,2.93037,-9.27524,-17.6146,-3.70113,33.2443
2023-03-14 22:30:16:853,-0.609568,2.91366,-9.31219,-17.5856,-3.71703,33.2065
2023-03-14 22:30:16:863,-0.65783,2.92176,-9.33957,-17.5621,-3.74001,33.167
2023-03-14 22:30:16:873,-0.684261,2.96839,-9.39414,-17.5347,-3.7637,33.121
2023-03-14 22:30:16:883,-0.676254,2.98634,-9.41671,-17.4995,-3.78879,33.0668
2023-03-14 22:30:16:893,-0.658773,2.96242,-9.40014,-17.4567,-3.81158,33.0054
2023-03-14 22:30:16:903,-0.616914,2.91862,-9.33421,-17.4073,-3.82784,32.9411
2023-03-14 22:30:16:913,-0.544654,2.8595,-9.2691,-17.3596,-3.84148,32.8795
2023-03-14 22:30:16:923,-0.498729,2.82487,-9.19985,-17.3149,-3.85544,32.8255
2023-03-14 22:30:16:933,-0.497264,2.78358,-9.18952,-17.2724,-3.87333,32.7813
2023-03-14 22:30:16:943,-0.517132,2.76304,-9.18507,-17.2367,-3.89495,32.7408
2023-03-14 22:30:16:953,-0.536495,2.77006,-9.21957,-17.2134,-3.9129,32.7065
2023-03-14 22:30:16:963,-0.541522,2.80695,-9.25939,-17.1962,-3.93228,32.6748
2023-03-14 22:30:16:973,-0.530211,2.83707,-9.30429,-17.1828,-3.94861,32.6496
2023-03-14 22:30:16:983,-0.507419,2.87412,-9.34571,-17.1635,-3.96543,32.6263
2023-03-14 22:30:16:993,-0.50373,2.87861,-9.37605,-17.1354,-3.98288,32.6089
2023-03-14 22:30:17:4,-0.522641,2.8311,-9.32975,-17.0984,-4.00736,32.5975
2023-03-14 22:30:17:13,-0.560747,2.72927,-9.20557,-17.0716,-4.02179,32.596
2023-03-14 22:30:17:24,-0.575696,2.72234,-9.19872,-17.0572,-4.03486,32.6031
2023-03-14 22:30:17:33,-0.604229,2.77951,-9.25739,-17.0534,-4.0507,32.609
2023-03-14 22:30:17:43,-0.639207,2.85861,-9.35351,-17.0548,-4.07111,32.6145
2023-03-14 22:30:17:53,-0.662916,2.91546,-9.40224,-17.052,-4.09595,32.6172
2023-03-14 22:30:17:63,-0.719989,2.93935,-9.39925,-17.0424,-4.11671,32.622
2023-03-14 22:30:17:73,-0.739782,2.96426,-9.40128,-17.0205,-4.13785,32.621
2023-03-14 22:30:17:83,-0.739985,2.90414,-9.33751,-16.9926,-4.15875,32.6168
2023-03-14 22:30:17:93,-0.71815,2.82589,-9.2669,-16.9632,-4.17573,32.6178
2023-03-14 22:30:17:103,-0.692519,2.81911,-9.25407,-16.9344,-4.19149,32.6213
2023-03-14 22:30:17:113,-0.692963,2.83574,-9.29018,-16.9107,-4.21612,32.6277
2023-03-14 22:30:17:123,-0.7521,2.85312,-9.28884,-16.8893,-4.24639,32.6354
2023-03-14 22:30:17:133,-0.784982,2.85699,-9.27374,-16.8665,-4.27476,32.6409
2023-03-14 22:30:17:143,-0.820964,2.83607,-9.25135,-16.8399,-4.30261,32.6478
2023-03-14 22:30:17:153,-0.865166,2.81246,-9.20184,-16.8155,-4.32764,32.6488
2023-03-14 22:30:17:164,-0.867527,2.79445,-9.18825,-16.7932,-4.34713,32.6492
2023-03-14 22:30:17:173,-0.838002,2.79583,-9.21843,-16.7777,-4.35922,32.644
2023-03-14 22:30:17:183,-0.845297,2.79029,-9.2193,-16.7637,-4.36715,32.6393
2023-03-14 22:30:17:193,-0.859872,2.7871,-9.24697,-16.754,-4.37471,32.6393
2023-03-14 22:30:17:204,-0.81758,2.81459,-9.29145,-16.746,-4.37749,32.6348
2023-03-14 22:30:17:213,-0.75455,2.82386,-9.30855,-16.7344,-4.37701,32.6294
2023-03-14 22:30:17:223,-0.78291,2.80422,-9.28803,-16.7258,-4.37668,32.6264
2023-03-14 22:30:17:233,-0.855493,2.80851,-9.27804,-16.7203,-4.37308,32.6279
2023-03-14 22:30:17:243,-0.929176,2.80805,-9.28084,-16.7184,-4.37385,32.6284
2023-03-14 22:30:17:253,-0.97779,2.86436,-9.32542,-16.7179,-4.37439,32.6206
2023-03-14 22:30:17:264,-0.960236,2.90301,-9.37814,-16.712,-4.37863,32.6054
2023-03-14 22:30:17:273,-0.949267,2.91233,-9.38715,-16.7069,-4.37823,32.582
2023-03-14 22:30:17:283,-0.929853,2.867,-9.35515,-16.6957,-4.38007,32.5545
2023-03-14 22:30:17:293,-0.893356,2.81201,-9.30634,-16.6828,-4.38134,32.522
2023-03-14 22:30:17:303,-0.847716,2.78697,-9.31165,-16.6751,-4.38166,32.4862
2023-03-14 22:30:17:313,-0.826878,2.77779,-9.32854,-16.6677,-4.38448,32.4479
2023-03-14 22:30:17:323,-0.823185,2.77068,-9.33608,-16.6618,-4.38538,32.4079
2023-03-14 22:30:17:333,-0.817268,2.75274,-9.3234,-16.6566,-4.3937,32.3695
2023-03-14 22:30:17:344,-0.808891,2.73065,-9.32946,-16.6527,-4.40008,32.3281
2023-03-14 22:30:17:353,-0.786142,2.71822,-9.3199,-16.6517,-4.4021,32.2864
2023-03-14 22:30:17:363,-0.761833,2.71643,-9.28395,-16.6535,-4.40091,32.2436
2023-03-14 22:30:17:374,-0.73848,2.7126,-9.28352,-16.6551,-4.39632,32.2042
2023-03-14 22:30:17:383,-0.714507,2.7247,-9.30599,-16.6627,-4.39392,32.1661
2023-03-14 22:30:17:393,-0.714096,2.75028,-9.31553,-16.6739,-4.38897,32.1284
2023-03-14 22:30:17:403,-0.715389,2.76391,-9.31575,-16.6816,-4.38471,32.0927
2023-03-14 22:30:17:413,-0.720782,2.77939,-9.31448,-16.6909,-4.37868,32.0557
2023-03-14 22:30:17:423,-0.740566,2.78785,-9.31764,-16.7021,-4.37446,32.0211
2023-03-14 22:30:17:433,-0.733531,2.81016,-9.32642,-16.7125,-4.36652,31.9859
2023-03-14 22:30:17:443,-0.708698,2.82877,-9.35713,-16.7239,-4.35696,31.946
2023-03-14 22:30:17:453,-0.645254,2.84257,-9.39106,-16.7319,-4.34973,31.9083
2023-03-14 22:30:17:463,-0.5398,2.81664,-9.41086,-16.7362,-4.33813,31.8748
2023-03-14 22:30:17:473,-0.398038,2.79336,-9.43445,-16.7366,-4.32722,31.8496
2023-03-14 22:30:17:483,-0.2765,2.78155,-9.44288,-16.7347,-4.32052,31.8348
2023-03-14 22:30:17:493,-0.302411,2.75969,-9.37555,-16.7335,-4.32228,31.844
2023-03-14 22:30:17:503,-0.509063,2.74832,-9.26946,-16.7371,-4.33015,31.8665
2023-03-14 22:30:17:513,-0.684444,2.78023,-9.23849,-16.7482,-4.33742,31.8901
2023-03-14 22:30:17:523,-0.731234,2.80135,-9.26229,-16.7596,-4.3404,31.9169
2023-03-14 22:30:17:533,-0.733789,2.80023,-9.29294,-16.7782,-4.34826,31.9434
2023-03-14 22:30:17:543,-0.758801,2.81667,-9.31208,-16.7975,-4.3565,31.9642
2023-03-14 22:30:17:553,-0.801544,2.8692,-9.32796,-16.8158,-4.37089,31.979
2023-03-14 22:30:17:563,-0.803232,2.89598,-9.34772,-16.8346,-4.39127,31.9885
2023-03-14 22:30:17:573,-0.81146,2.88045,-9.35446,-16.8497,-4.41339,31.9959
2023-03-14 22:30:17:583,-0.839593,2.87724,-9.33272,-16.8651,-4.44609,31.9979
2023-03-14 22:30:17:593,-0.864403,2.88131,-9.32323,-16.8816,-4.47719,31.9943
2023-03-14 22:30:17:604,-0.893727,2.90036,-9.34599,-16.903,-4.50668,31.9842
2023-03-14 22:30:17:613,-0.918533,2.93095,-9.3906,-16.9175,-4.53838,31.9647
2023-03-14 22:30:17:624,-0.908125,2.94191,-9.42079,-16.9249,-4.56637,31.9436
2023-03-14 22:30:17:633,-0.887861,2.92844,-9.41162,-16.926,-4.58735,31.918
2023-03-14 22:30:17:643,-0.86551,2.89039,-9.35728,-16.9182,-4.6066,31.8889
2023-03-14 22:30:17:653,-0.840153,2.82778,-9.29686,-16.91,-4.61777,31.8561
2023-03-14 22:30:17:663,-0.795884,2.80418,-9.31319,-16.9017,-4.62634,31.8271
2023-03-14 22:30:17:673,-0.75289,2.81374,-9.38641,-16.8893,-4.63888,31.7943
2023-03-14 22:30:17:683,-0.75417,2.8067,-9.43448,-16.8768,-4.65454,31.7668
2023-03-14 22:30:17:693,-0.828779,2.78356,-9.3965,-16.8544,-4.6746,31.7459
2023-03-14 22:30:17:703,-0.9114,2.74941,-9.30749,-16.8323,-4.694,31.7228
2023-03-14 22:30:17:713,-0.971438,2.6951,-9.21619,-16.811,-4.70629,31.6991
2023-03-14 22:30:17:724,-0.972394,2.66054,-9.11375,-16.7973,-4.71207,31.6719
2023-03-14 22:30:17:733,-0.913294,2.64364,-9.06315,-16.7934,-4.70727,31.6398
2023-03-14 22:30:17:744,-0.832766,2.6749,-9.08914,-16.8029,-4.69661,31.6058
2023-03-14 22:30:17:753,-0.766478,2.74655,-9.1681,-16.8277,-4.68777,31.5742
2023-03-14 22:30:17:763,-0.714877,2.78224,-9.25217,-16.8586,-4.67849,31.5439
2023-03-14 22:30:17:773,-0.689116,2.82114,-9.28169,-16.8937,-4.67337,31.5167
2023-03-14 22:30:17:783,-0.709144,2.86171,-9.29094,-16.9273,-4.67212,31.4958
2023-03-14 22:30:17:793,-0.723348,2.90092,-9.34122,-16.9631,-4.67378,31.4796
2023-03-14 22:30:17:803,-0.736689,2.94664,-9.38911,-16.9998,-4.67886,31.4655
2023-03-14 22:30:17:813,-0.733792,2.97696,-9.4181,-17.0288,-4.6807,31.4461
2023-03-14 22:30:17:823,-0.677691,2.98478,-9.42635,-17.0468,-4.68084,31.4248
2023-03-14 22:30:17:833,-0.600826,2.98198,-9.41018,-17.0634,-4.68976,31.3994
2023-03-14 22:30:17:843,-0.542915,2.96032,-9.35224,-17.0797,-4.70037,31.3763
2023-03-14 22:30:17:853,-0.553098,2.95498,-9.2751,-17.0982,-4.71621,31.3591
2023-03-14 22:30:17:863,-0.573764,2.99331,-9.24212,-17.1213,-4.73572,31.3452
2023-03-14 22:30:17:873,-0.548367,3.01159,-9.29514,-17.1496,-4.7527,31.3318
2023-03-14 22:30:17:883,-0.543267,3.06234,-9.36752,-17.1786,-4.77406,31.3259
2023-03-14 22:30:17:893,-0.60506,3.11293,-9.39424,-17.2028,-4.80787,31.3218
2023-03-14 22:30:17:903,-0.786482,3.13353,-9.39602,-17.2206,-4.84632,31.3199
2023-03-14 22:30:17:913,-1.01043,3.14034,-9.35176,-17.233,-4.88897,31.3121
2023-03-14 22:30:17:923,-1.1342,3.13345,-9.31261,-17.2391,-4.92772,31.2891
2023-03-14 22:30:17:933,-1.11956,3.07997,-9.32492,-17.2399,-4.96142,31.2498
2023-03-14 22:30:17:943,-1.06416,3.03269,-9.36681,-17.2344,-4.99118,31.1963
2023-03-14 22:30:17:953,-1.00266,3.00652,-9.41553,-17.2246,-5.01931,31.1282
2023-03-14 22:30:17:964,-0.96194,2.96494,-9.4254,-17.2095,-5.04215,31.0518
2023-03-14 22:30:17:973,-0.877202,2.96582,-9.42867,-17.1911,-5.06231,30.9636
2023-03-14 22:30:17:983,-0.768115,2.91985,-9.42,-17.1674,-5.08515,30.8709
2023-03-14 22:30:17:993,-0.769421,2.86652,-9.37996,-17.1433,-5.11379,30.7799
2023-03-14 22:30:18:4,-0.883831,2.86178,-9.32363,-17.1209,-5.14764,30.6908
2023-03-14 22:30:18:13,-0.994377,2.84484,-9.2995,-17.1003,-5.18243,30.5995
2023-03-14 22:30:18:23,-1.03715,2.81433,-9.28072,-17.0742,-5.21491,30.5
2023-03-14 22:30:18:33,-1.06326,2.7683,-9.27145,-17.0424,-5.24181,30.3976
2023-03-14 22:30:18:43,-1.08516,2.72913,-9.28637,-17.0116,-5.2632,30.2908
2023-03-14 22:30:18:53,-1.08546,2.71383,-9.27501,-16.9764,-5.27623,30.1776
2023-03-14 22:30:18:63,-1.06696,2.69022,-9.24993,-16.9435,-5.28514,30.0586
2023-03-14 22:30:18:73,-1.06752,2.65925,-9.23183,-16.9122,-5.28732,29.9321
2023-03-14 22:30:18:83,-1.05386,2.64989,-9.2204,-16.8843,-5.28302,29.801
2023-03-14 22:30:18:93,-0.989959,2.64148,-9.22208,-16.8598,-5.27234,29.6654
2023-03-14 22:30:18:104,-0.911564,2.61826,-9.23316,-16.8381,-5.26127,29.5319
2023-03-14 22:30:18:113,-0.880907,2.5786,-9.24286,-16.8207,-5.25586,29.3991
2023-03-14 22:30:18:123,-0.932089,2.56951,-9.23311,-16.8091,-5.24653,29.2681
2023-03-14 22:30:18:133,-1.05124,2.58474,-9.24713,-16.8038,-5.23959,29.1353
2023-03-14 22:30:18:143,-1.11951,2.6124,-9.24387,-16.8021,-5.22786,28.9938
2023-03-14 22:30:18:153,-1.13527,2.6349,-9.25656,-16.8063,-5.21578,28.8473
2023-03-14 22:30:18:163,-1.09238,2.67857,-9.28328,-16.8134,-5.20152,28.6904
2023-03-14 22:30:18:173,-1.00242,2.71577,-9.26688,-16.8257,-5.18517,28.5235
2023-03-14 22:30:18:183,-0.8797,2.73365,-9.25348,-16.8433,-5.16365,28.3493
2023-03-14 22:30:18:193,-0.805915,2.75672,-9.19706,-16.8609,-5.14334,28.1762
2023-03-14 22:30:18:203,-0.74614,2.78131,-9.15155,-16.8888,-5.12458,28.0058
2023-03-14 22:30:18:213,-0.698075,2.80444,-9.17976,-16.921,-5.10929,27.8372
2023-03-14 22:30:18:223,-0.659292,2.85883,-9.25186,-16.958,-5.09652,27.6747
2023-03-14 22:30:18:233,-0.659534,2.90155,-9.31399,-16.9963,-5.08219,27.5167
2023-03-14 22:30:18:243,-0.664406,2.93093,-9.37252,-17.0329,-5.07212,27.3606
2023-03-14 22:30:18:253,-0.663005,2.92741,-9.38112,-17.0612,-5.06448,27.2142
2023-03-14 22:30:18:263,-0.682667,2.93431,-9.34849,-17.0883,-5.06127,27.0734
2023-03-14 22:30:18:273,-0.696174,2.9382,-9.32207,-17.1155,-5.05945,26.9372
2023-03-14 22:30:18:283,-0.714554,2.92733,-9.32644,-17.1422,-5.05493,26.8041
2023-03-14 22:30:18:293,-0.764063,2.94089,-9.34313,-17.1727,-5.05054,26.6779
2023-03-14 22:30:18:304,-0.815988,2.98376,-9.379,-17.2007,-5.04819,26.5481
2023-03-14 22:30:18:313,-0.829531,3.01718,-9.42113,-17.2278,-5.0445,26.4169
2023-03-14 22:30:18:323,-0.77317,3.01184,-9.472,-17.2442,-5.03548,26.2832
2023-03-14 22:30:18:333,-0.71478,3.0146,-9.4912,-17.2576,-5.02739,26.1526
2023-03-14 22:30:18:343,-0.661683,3.00416,-9.45429,-17.2626,-5.02425,26.0259
2023-03-14 22:30:18:353,-0.62841,2.96473,-9.41418,-17.2553,-5.0195,25.9082
2023-03-14 22:30:18:364,-0.594316,2.92523,-9.36119,-17.2462,-5.01604,25.794
2023-03-14 22:30:18:373,-0.564807,2.88887,-9.31635,-17.2395,-5.02001,25.6924
2023-03-14 22:30:18:383,-0.587485,2.85922,-9.2723,-17.235,-5.02893,25.6
2023-03-14 22:30:18:393,-0.618892,2.87386,-9.24349,-17.2395,-5.03413,25.5154
2023-03-14 22:30:18:403,-0.634895,2.90442,-9.26116,-17.249,-5.0403,25.4431
2023-03-14 22:30:18:413,-0.661914,2.94668,-9.27887,-17.2617,-5.04784,25.3787
2023-03-14 22:30:18:423,-0.692967,2.98699,-9.29043,-17.2744,-5.05222,25.3227
2023-03-14 22:30:18:433,-0.667496,2.99527,-9.31873,-17.2813,-5.05718,25.2695
2023-03-14 22:30:18:443,-0.648804,3.00378,-9.31897,-17.2894,-5.06447,25.227
2023-03-14 22:30:18:453,-0.688235,3.00737,-9.30778,-17.2915,-5.07227,25.1969
2023-03-14 22:30:18:463,-0.75412,2.99024,-9.28047,-17.2927,-5.08254,25.1788
2023-03-14 22:30:18:473,-0.800275,2.98243,-9.23061,-17.3002,-5.08895,25.1663
2023-03-14 22:30:18:488,-0.830034,2.98315,-9.2191,-17.3062,-5.09354,25.1611
2023-03-14 22:30:18:493,-0.85584,2.99427,-9.25208,-17.316,-5.09273,25.1632
2023-03-14 22:30:18:503,-0.867319,3.02571,-9.29976,-17.3238,-5.0886,25.1671
2023-03-14 22:30:18:513,-0.893938,3.06466,-9.34285,-17.3276,-5.07802,25.1728
2023-03-14 22:30:18:523,-0.944402,3.05839,-9.35236,-17.3298,-5.06627,25.1778
2023-03-14 22:30:18:533,-0.984608,3.04677,-9.31845,-17.3232,-5.05177,25.1795
2023-03-14 22:30:18:544,-0.999438,3.01875,-9.27985,-17.31,-5.03669,25.1756
2023-03-14 22:30:18:553,-0.965367,2.97575,-9.24452,-17.2974,-5.02072,25.1671
2023-03-14 22:30:18:563,-0.87672,2.94428,-9.24626,-17.2896,-5.0087,25.1541
2023-03-14 22:30:18:573,-0.795048,2.91536,-9.28828,-17.2797,-5.00011,25.1421
2023-03-14 22:30:18:583,-0.72454,2.91269,-9.33809,-17.2762,-4.99282,25.1279
2023-03-14 22:30:18:593,-0.685862,2.93584,-9.374,-17.27,-4.99246,25.117
2023-03-14 22:30:18:604,-0.666003,2.91736,-9.37947,-17.2619,-4.99373,25.1146
2023-03-14 22:30:18:614,-0.650855,2.89748,-9.34852,-17.2513,-4.99593,25.1155
2023-03-14 22:30:18:623,-0.697434,2.88181,-9.331,-17.2393,-4.99747,25.1225
2023-03-14 22:30:18:633,-0.747531,2.88131,-9.31904,-17.2276,-5.00155,25.1348
2023-03-14 22:30:18:644,-0.743101,2.87031,-9.31683,-17.2182,-5.00444,25.1508
2023-03-14 22:30:18:654,-0.723066,2.85508,-9.31726,-17.2102,-5.00261,25.1706
2023-03-14 22:30:18:664,-0.693308,2.8442,-9.31573,-17.2011,-5.00803,25.1979
2023-03-14 22:30:18:674,-0.670545,2.82052,-9.28038,-17.1933,-5.016,25.2369
2023-03-14 22:30:18:683,-0.671302,2.79557,-9.24032,-17.1902,-5.03058,25.2796
2023-03-14 22:30:18:693,-0.70433,2.78446,-9.2245,-17.1933,-5.05329,25.3361
2023-03-14 22:30:18:704,-0.802645,2.82746,-9.22556,-17.2014,-5.0821,25.3981
2023-03-14 22:30:18:713,-0.91843,2.85654,-9.26232,-17.2162,-5.1136,25.4637
2023-03-14 22:30:18:724,-1.01932,2.89372,-9.30129,-17.2319,-5.14874,25.5336
2023-03-14 22:30:18:734,-1.07436,2.92996,-9.30748,-17.2448,-5.18334,25.598
2023-03-14 22:30:18:743,-1.11313,2.9413,-9.33082,-17.2555,-5.21857,25.6615
2023-03-14 22:30:18:753,-1.11961,2.9314,-9.34629,-17.2636,-5.25006,25.7216
2023-03-14 22:30:18:764,-1.12432,2.92975,-9.35338,-17.2629,-5.279,25.7775
2023-03-14 22:30:18:774,-1.13199,2.91511,-9.35849,-17.2613,-5.30511,25.8354
2023-03-14 22:30:18:784,-1.14014,2.91857,-9.3254,-17.2545,-5.32565,25.8854
2023-03-14 22:30:18:793,-1.13372,2.91339,-9.31156,-17.2488,-5.34096,25.9321
2023-03-14 22:30:18:803,-1.11665,2.91898,-9.34699,-17.2397,-5.35712,25.9758
2023-03-14 22:30:18:814,-1.11553,2.91187,-9.35419,-17.2316,-5.37291,26.0171
2023-03-14 22:30:18:824,-1.15073,2.906,-9.32271,-17.2186,-5.38201,26.0551
2023-03-14 22:30:18:834,-1.16262,2.89893,-9.2935,-17.2022,-5.38681,26.0799
2023-03-14 22:30:18:844,-1.11059,2.87071,-9.27539,-17.1846,-5.38105,26.0945
2023-03-14 22:30:18:853,-1.00266,2.86719,-9.3002,-17.1675,-5.37208,26.1021
2023-03-14 22:30:18:863,-0.918589,2.85394,-9.30807,-17.1531,-5.36217,26.104
2023-03-14 22:30:18:873,-0.86752,2.8408,-9.31998,-17.1396,-5.35134,26.106
2023-03-14 22:30:18:884,-0.851182,2.8576,-9.3475,-17.1296,-5.34419,26.1076
2023-03-14 22:30:18:894,-0.86329,2.89028,-9.39128,-17.1186,-5.33738,26.1105
2023-03-14 22:30:18:904,-0.85554,2.86885,-9.39499,-17.102,-5.33039,26.1059
2023-03-14 22:30:18:913,-0.822378,2.83561,-9.32099,-17.0775,-5.31811,26.0998
2023-03-14 22:30:18:923,-0.761992,2.79339,-9.25925,-17.0557,-5.29863,26.0918
2023-03-14 22:30:18:933,-0.703912,2.77364,-9.26405,-17.0408,-5.27765,26.0899
2023-03-14 22:30:18:944,-0.686374,2.79357,-9.31165,-17.0324,-5.26084,26.0879
2023-03-14 22:30:18:953,-0.679406,2.81563,-9.36321,-17.0197,-5.2484,26.089
2023-03-14 22:30:18:963,-0.70478,2.80581,-9.36662,-17.0041,-5.23935,26.0878
2023-03-14 22:30:18:973,-0.727393,2.78459,-9.31954,-16.9865,-5.23224,26.0907
2023-03-14 22:30:18:983,-0.756691,2.763,-9.27554,-16.9707,-5.23135,26.0946
2023-03-14 22:30:18:993,-0.802897,2.7323,-9.23034,-16.9608,-5.23579,26.0998
2023-03-14 22:30:19:3,-0.848422,2.73406,-9.20732,-16.9581,-5.24157,26.1035
2023-03-14 22:30:19:14,-0.89291,2.77724,-9.26088,-16.9656,-5.2522,26.1071
2023-03-14 22:30:19:24,-0.940875,2.84039,-9.38585,-16.9791,-5.27289,26.1049
2023-03-14 22:30:19:33,-0.9956,2.93258,-9.45578,-16.9912,-5.29278,26.0947
2023-03-14 22:30:19:43,-1.02802,2.98097,-9.44757,-16.9935,-5.31673,26.0766
2023-03-14 22:30:19:54,-1.05446,2.95155,-9.39399,-16.9915,-5.34004,26.0534
2023-03-14 22:30:19:64,-1.0781,2.95662,-9.36893,-16.9888,-5.36488,26.0242
2023-03-14 22:30:19:74,-1.12127,2.96413,-9.33923,-16.9858,-5.3895,25.9866
2023-03-14 22:30:19:83,-1.19796,2.98809,-9.33538,-16.9784,-5.41523,25.9401
2023-03-14 22:30:19:93,-1.23192,3.03259,-9.35537,-16.9646,-5.43803,25.8782
2023-03-14 22:30:19:104,-1.1978,3.05496,-9.37654,-16.9408,-5.44949,25.8017
2023-03-14 22:30:19:114,-1.08695,3.02566,-9.37674,-16.9134,-5.45976,25.7099
2023-03-14 22:30:19:124,-0.939213,2.97401,-9.3992,-16.8775,-5.46871,25.6115
2023-03-14 22:30:19:133,-0.834758,2.93716,-9.43345,-16.8387,-5.48463,25.5134
2023-03-14 22:30:19:144,-0.816087,2.88055,-9.4147,-16.7941,-5.50372,25.4195
2023-03-14 22:30:19:153,-0.83301,2.81124,-9.34585,-16.7471,-5.52448,25.3318
2023-03-14 22:30:19:164,-0.857039,2.7836,-9.31218,-16.7071,-5.54488,25.2473
2023-03-14 22:30:19:174,-0.836692,2.80393,-9.31696,-16.6674,-5.56862,25.1683
2023-03-14 22:30:19:184,-0.82653,2.81253,-9.28359,-16.6321,-5.59823,25.0945
2023-03-14 22:30:19:194,-0.821652,2.82888,-9.26255,-16.6054,-5.62642,25.0294
2023-03-14 22:30:19:203,-0.800939,2.85385,-9.29064,-16.5806,-5.66142,24.9703
2023-03-14 22:30:19:214,-0.828499,2.94722,-9.26274,-16.5647,-5.69666,24.9244
2023-03-14 22:30:19:224,-0.871215,2.93188,-9.22205,-16.5496,-5.73693,24.89
2023-03-14 22:30:19:234,-0.948141,2.93406,-9.21492,-16.5394,-5.77494,24.8632
2023-03-14 22:30:19:244,-1.03078,2.9239,-9.2395,-16.5284,-5.80947,24.8447
2023-03-14 22:30:19:253,-1.09779,2.92454,-9.3288,-16.5167,-5.83922,24.8285
2023-03-14 22:30:19:263,-1.19899,2.96451,-9.46217,-16.4957,-5.86283,24.8123
2023-03-14 22:30:19:274,-1.28386,3.02786,-9.60891,-16.459,-5.88241,24.7897
2023-03-14 22:30:19:284,-1.29346,3.02748,-9.67901,-16.3978,-5.89672,24.7502
2023-03-14 22:30:19:294,-1.21773,2.9215,-9.6309,-16.3086,-5.90435,24.6954
2023-03-14 22:30:19:303,-1.11531,2.74458,-9.50147,-16.2085,-5.90968,24.6362
2023-03-14 22:30:19:313,-1.03037,2.61938,-9.38884,-16.1012,-5.91492,24.5721
2023-03-14 22:30:19:324,-0.963962,2.54186,-9.30385,-16,-5.9265,24.5063
2023-03-14 22:30:19:334,-0.881725,2.4767,-9.24443,-15.906,-5.94055,24.4387
2023-03-14 22:30:19:344,-0.813356,2.44739,-9.21269,-15.8246,-5.95802,24.3708
2023-03-14 22:30:19:354,-0.779046,2.43268,-9.24032,-15.7531,-5.97649,24.3099
2023-03-14 22:30:19:364,-0.788153,2.49256,-9.30287,-15.6929,-5.99617,24.2591
2023-03-14 22:30:19:373,-0.845669,2.52091,-9.33462,-15.631,-6.01823,24.2118
2023-03-14 22:30:19:384,-0.898004,2.50527,-9.31168,-15.5667,-6.0344,24.1685
2023-03-14 22:30:19:394,-0.893556,2.48443,-9.24978,-15.5007,-6.04484,24.125
2023-03-14 22:30:19:404,-0.848565,2.43619,-9.18719,-15.4397,-6.04415,24.09
2023-03-14 22:30:19:414,-0.812479,2.37423,-9.16697,-15.3828,-6.04284,24.0619
2023-03-14 22:30:19:423,-0.790301,2.36463,-9.16594,-15.343,-6.04141,24.0382
2023-03-14 22:30:19:434,-0.788103,2.38996,-9.21875,-15.3134,-6.04133,24.0219
2023-03-14 22:30:19:443,-0.799053,2.4418,-9.26305,-15.2878,-6.04803,24.0149
2023-03-14 22:30:19:453,-0.814997,2.4529,-9.2571,-15.2671,-6.05723,24.0167
2023-03-14 22:30:19:463,-0.847295,2.44559,-9.23603,-15.2502,-6.06947,24.0244
2023-03-14 22:30:19:473,-0.918274,2.47745,-9.25899,-15.2419,-6.0839,24.0393
2023-03-14 22:30:19:483,-1.0104,2.55712,-9.32781,-15.2448,-6.10092,24.0586
2023-03-14 22:30:19:493,-1.09573,2.63151,-9.41754,-15.2486,-6.11725,24.0765
2023-03-14 22:30:19:503,-1.17214,2.70759,-9.48586,-15.2479,-6.13129,24.0876
2023-03-14 22:30:19:513,-1.21003,2.73759,-9.493,-15.2386,-6.14615,24.0941
2023-03-14 22:30:19:524,-1.21403,2.73485,-9.49441,-15.2213,-6.1578,24.0943
2023-03-14 22:30:19:534,-1.20055,2.71796,-9.49048,-15.1995,-6.16707,24.0892
2023-03-14 22:30:19:544,-1.19951,2.70021,-9.47426,-15.1724,-6.17255,24.0821
2023-03-14 22:30:19:553,-1.20589,2.67511,-9.45435,-15.143,-6.17731,24.0688
2023-03-14 22:30:19:564,-1.20889,2.66807,-9.45176,-15.1139,-6.18038,24.0497
2023-03-14 22:30:19:574,-1.22763,2.65532,-9.44153,-15.0801,-6.18483,24.0238
2023-03-14 22:30:19:584,-1.21676,2.65196,-9.43131,-15.0434,-6.18696,23.9865
2023-03-14 22:30:19:594,-1.19157,2.60544,-9.40391,-15.0049,-6.18719,23.9444
2023-03-14 22:30:19:604,-1.18149,2.5708,-9.38477,-14.967,-6.1855,23.9005
2023-03-14 22:30:19:614,-1.13662,2.56355,-9.39177,-14.9252,-6.18278,23.8475
2023-03-14 22:30:19:624,-1.08998,2.52846,-9.4015,-14.8856,-6.17942,23.7886
2023-03-14 22:30:19:634,-1.06165,2.50921,-9.40454,-14.8424,-6.1759,23.7263
2023-03-14 22:30:19:644,-1.03298,2.46595,-9.39164,-14.7941,-6.17389,23.6631
2023-03-14 22:30:19:653,-0.98324,2.41293,-9.39863,-14.7473,-6.17426,23.5975
2023-03-14 22:30:19:664,-0.953737,2.37714,-9.38755,-14.7038,-6.17924,23.533
2023-03-14 22:30:19:674,-0.948076,2.35009,-9.36221,-14.657,-6.18659,23.4668
2023-03-14 22:30:19:684,-0.972173,2.32487,-9.32418,-14.6165,-6.19846,23.4074
2023-03-14 22:30:19:694,-0.989846,2.26731,-9.29369,-14.5758,-6.20538,23.3485
2023-03-14 22:30:19:703,-0.999113,2.26533,-9.3098,-14.5517,-6.21112,23.2905
2023-03-14 22:30:19:713,-1.0017,2.3112,-9.35991,-14.5323,-6.21698,23.2372
2023-03-14 22:30:19:723,-0.950972,2.35053,-9.43928,-14.5171,-6.22035,23.1831
2023-03-14 22:30:19:733,-0.961077,2.35378,-9.46508,-14.4982,-6.22569,23.1356
2023-03-14 22:30:19:743,-0.973961,2.35263,-9.45699,-14.4825,-6.23097,23.0938
2023-03-14 22:30:19:753,-0.953767,2.36177,-9.4471,-14.4654,-6.23214,23.0537
2023-03-14 22:30:19:763,-0.948949,2.35233,-9.43437,-14.4512,-6.23462,23.0192
2023-03-14 22:30:19:774,-0.95869,2.34724,-9.41881,-14.439,-6.23867,22.9896
2023-03-14 22:30:19:784,-0.947805,2.39793,-9.426,-14.4298,-6.24021,22.9633
2023-03-14 22:30:19:794,-0.9505,2.44426,-9.44812,-14.4207,-6.24099,22.9403
2023-03-14 22:30:19:804,-0.956728,2.46801,-9.4868,-14.4096,-6.24185,22.9231
2023-03-14 22:30:19:813,-0.968182,2.46755,-9.5249,-14.3937,-6.24447,22.9121
2023-03-14 22:30:19:824,-1.00504,2.44807,-9.52239,-14.3711,-6.2511,22.9092
2023-03-14 22:30:19:834,-1.08148,2.43655,-9.5148,-14.3476,-6.25747,22.9104
2023-03-14 22:30:19:844,-1.14271,2.43197,-9.52266,-14.3188,-6.26112,22.9128
2023-03-14 22:30:19:854,-1.20419,2.42393,-9.51207,-14.2858,-6.26322,22.9178
2023-03-14 22:30:19:863,-1.24549,2.41589,-9.49173,-14.2509,-6.25985,22.92
2023-03-14 22:30:19:873,-1.26055,2.41016,-9.46605,-14.2084,-6.25003,22.9125
2023-03-14 22:30:19:884,-1.23052,2.3681,-9.41081,-14.1668,-6.23705,22.9036
2023-03-14 22:30:19:893,-1.17199,2.31102,-9.38386,-14.1274,-6.22358,22.8911
2023-03-14 22:30:19:904,-1.12849,2.32286,-9.43039,-14.0894,-6.2028,22.8754
2023-03-14 22:30:19:913,-1.09108,2.33764,-9.44985,-14.0518,-6.18516,22.8534
2023-03-14 22:30:19:924,-1.06811,2.3479,-9.36825,-14.0163,-6.16339,22.827
2023-03-14 22:30:19:933,-1.01483,2.26645,-9.24699,-13.9854,-6.14055,22.8022
2023-03-14 22:30:19:944,-0.987575,2.23743,-9.20591,-13.9634,-6.1204,22.7796
2023-03-14 22:30:19:953,-1.03501,2.29119,-9.31207,-13.9531,-6.10554,22.755
2023-03-14 22:30:19:963,-1.09006,2.38886,-9.40978,-13.9441,-6.09166,22.7255
2023-03-14 22:30:19:973,-1.04637,2.43405,-9.45639,-13.9317,-6.0695,22.6848
2023-03-14 22:30:19:983,-0.951983,2.38911,-9.47752,-13.9132,-6.04124,22.6452
2023-03-14 22:30:19:993,-0.924198,2.3722,-9.5304,-13.893,-6.02003,22.6021
2023-03-14 22:30:20:3,-0.925748,2.38476,-9.55504,-13.8675,-6.00495,22.557
2023-03-14 22:30:20:13,-0.890902,2.31165,-9.48329,-13.8336,-5.99145,22.5106
2023-03-14 22:30:20:23,-0.850658,2.21694,-9.39567,-13.8041,-5.97936,22.4685
2023-03-14 22:30:20:33,-0.837624,2.20802,-9.35827,-13.7807,-5.98157,22.4273
2023-03-14 22:30:20:43,-0.85491,2.2606,-9.41135,-13.772,-5.9832,22.3867
2023-03-14 22:30:20:53,-0.876354,2.32747,-9.47176,-13.7671,-5.9922,22.3457
2023-03-14 22:30:20:63,-0.875485,2.39826,-9.53331,-13.7592,-6.00134,22.3077
2023-03-14 22:30:20:73,-0.8493,2.41362,-9.55858,-13.745,-6.01369,22.2667
2023-03-14 22:30:20:83,-0.836693,2.43434,-9.56587,-13.7244,-6.02507,22.2261
2023-03-14 22:30:20:93,-0.858778,2.42559,-9.535,-13.6963,-6.04289,22.1914
2023-03-14 22:30:20:103,-0.88602,2.399,-9.47851,-13.6641,-6.06232,22.1564
2023-03-14 22:30:20:113,-0.898922,2.36518,-9.43511,-13.6303,-6.08378,22.1234
2023-03-14 22:30:20:123,-0.892729,2.31364,-9.41333,-13.5976,-6.10679,22.0956
2023-03-14 22:30:20:133,-0.94278,2.31002,-9.46326,-13.5656,-6.13343,22.0692
2023-03-14 22:30:20:143,-0.978089,2.34588,-9.52062,-13.5348,-6.16349,22.0444
2023-03-14 22:30:20:153,-1.01045,2.36309,-9.54277,-13.5017,-6.19226,22.0254
2023-03-14 22:30:20:163,-1.04489,2.33371,-9.50411,-13.4599,-6.21917,22.0058
2023-03-14 22:30:20:173,-1.04755,2.30886,-9.47199,-13.4186,-6.24891,21.9855
2023-03-14 22:30:20:183,-1.04183,2.29443,-9.4723,-13.379,-6.2786,21.9642
2023-03-14 22:30:20:193,-1.04817,2.27435,-9.50914,-13.3396,-6.31124,21.9474
2023-03-14 22:30:20:203,-1.06544,2.32985,-9.54641,-13.2987,-6.34423,21.929
2023-03-14 22:30:20:213,-1.08535,2.30957,-9.50276,-13.2578,-6.37838,21.9118
2023-03-14 22:30:20:223,-1.10708,2.26036,-9.44889,-13.2152,-6.41207,21.8943
2023-03-14 22:30:20:233,-1.10549,2.24775,-9.4516,-13.1746,-6.45165,21.8737
2023-03-14 22:30:20:243,-1.1123,2.23027,-9.45176,-13.1363,-6.4921,21.8576
2023-03-14 22:30:20:253,-1.13737,2.21214,-9.4411,-13.0979,-6.53261,21.8381
2023-03-14 22:30:20:263,-1.15517,2.24291,-9.45252,-13.0611,-6.57672,21.8186
2023-03-14 22:30:20:273,-1.17469,2.24034,-9.45197,-13.0242,-6.61757,21.8008
2023-03-14 22:30:20:283,-1.20699,2.21094,-9.3847,-12.9884,-6.65762,21.7794
2023-03-14 22:30:20:293,-1.21846,2.22686,-9.38864,-12.9514,-6.69379,21.7596
2023-03-14 22:30:20:303,-1.25067,2.22025,-9.4437,-12.9156,-6.73119,21.7388
2023-03-14 22:30:20:313,-1.28149,2.21103,-9.44244,-12.8777,-6.76772,21.7129
2023-03-14 22:30:20:323,-1.27573,2.19696,-9.45793,-12.8385,-6.8007,21.6842
2023-03-14 22:30:20:333,-1.24706,2.19135,-9.47995,-12.7954,-6.83342,21.6559
2023-03-14 22:30:20:343,-1.25925,2.16995,-9.4931,-12.7518,-6.86739,21.6272
2023-03-14 22:30:20:353,-1.27706,2.15707,-9.5084,-12.7041,-6.89729,21.5917
2023-03-14 22:30:20:363,-1.26439,2.12727,-9.50765,-12.6545,-6.93055,21.5539
2023-03-14 22:30:20:373,-1.24475,2.09448,-9.46712,-12.6022,-6.96644,21.5126
2023-03-14 22:30:20:383,-1.22918,2.04004,-9.39632,-12.5541,-7.00015,21.4756
2023-03-14 22:30:20:393,-1.23361,1.98093,-9.31717,-12.5082,-7.03356,21.4366
2023-03-14 22:30:20:403,-1.23604,1.93551,-9.2692,-12.4709,-7.06664,21.4019
2023-03-14 22:30:20:413,-1.22426,1.92845,-9.29136,-12.4422,-7.09518,21.3677
2023-03-14 22:30:20:424,-1.21529,1.9505,-9.34407,-12.4228,-7.12593,21.3341
2023-03-14 22:30:20:433,-1.21212,1.97649,-9.37369,-12.4104,-7.15429,21.3015
2023-03-14 22:30:20:443,-1.21973,1.97714,-9.41192,-12.4002,-7.18265,21.2727
2023-03-14 22:30:20:453,-1.22746,1.99543,-9.45243,-12.3916,-7.20878,21.2473
2023-03-14 22:30:20:463,-1.231,2.00704,-9.46462,-12.3875,-7.23188,21.2253
2023-03-14 22:30:20:473,-1.22883,1.99971,-9.43759,-12.3807,-7.24912,21.2057
2023-03-14 22:30:20:483,-1.21823,1.98794,-9.39544,-12.3751,-7.26618,21.1915
2023-03-14 22:30:20:493,-1.2113,1.96207,-9.37176,-12.3782,-7.28126,21.1776
2023-03-14 22:30:20:503,-1.19916,1.97861,-9.37969,-12.3847,-7.29467,21.1683
2023-03-14 22:30:20:513,-1.18583,1.98704,-9.39902,-12.3937,-7.29979,21.1636
2023-03-14 22:30:20:523,-1.17807,1.99547,-9.42942,-12.4032,-7.30808,21.1604
2023-03-14 22:30:20:533,-1.15818,1.97427,-9.46628,-12.4142,-7.31229,21.166
2023-03-14 22:30:20:543,-1.10987,1.99732,-9.51584,-12.4257,-7.32013,21.1703
2023-03-14 22:30:20:553,-1.06296,2.01985,-9.56968,-12.4364,-7.32926,21.1871
2023-03-14 22:30:20:564,-1.06948,2.00209,-9.55329,-12.4463,-7.33957,21.2086
2023-03-14 22:30:20:573,-1.13401,1.99826,-9.50569,-12.4614,-7.35631,21.2402
2023-03-14 22:30:20:583,-1.17968,2.04473,-9.5074,-12.4761,-7.37142,21.2765
2023-03-14 22:30:20:593,-1.19846,2.06516,-9.49715,-12.4882,-7.38859,21.3172
2023-03-14 22:30:20:603,-1.2142,2.07294,-9.47576,-12.5002,-7.40607,21.3609
2023-03-14 22:30:20:613,-1.23446,2.07521,-9.44042,-12.511,-7.41718,21.4074
2023-03-14 22:30:20:623,-1.26985,2.06448,-9.39553,-12.5247,-7.42846,21.4593
2023-03-14 22:30:20:633,-1.30983,2.06625,-9.36071,-12.5394,-7.44264,21.5149
2023-03-14 22:30:20:643,-1.34643,2.08664,-9.36652,-12.5573,-7.45611,21.5672
2023-03-14 22:30:20:653,-1.3682,2.10132,-9.40418,-12.5796,-7.47329,21.6137
2023-03-14 22:30:20:663,-1.40004,2.12947,-9.42298,-12.6026,-7.48379,21.6573
2023-03-14 22:30:20:673,-1.39234,2.15847,-9.43522,-12.6237,-7.49532,21.6951
2023-03-14 22:30:20:683,-1.39337,2.16058,-9.45332,-12.6453,-7.50658,21.724
2023-03-14 22:30:20:693,-1.38952,2.155,-9.45966,-12.6655,-7.51479,21.7493
2023-03-14 22:30:20:703,-1.40542,2.17179,-9.47467,-12.6815,-7.52173,21.7684
2023-03-14 22:30:20:713,-1.40587,2.17238,-9.49229,-12.6979,-7.52294,21.7839
2023-03-14 22:30:20:723,-1.37284,2.15042,-9.51435,-12.7082,-7.5209,21.7927
2023-03-14 22:30:20:733,-1.31371,2.1423,-9.54081,-12.7172,-7.51782,21.7933
2023-03-14 22:30:20:743,-1.26496,2.14903,-9.54443,-12.7273,-7.51556,21.7965
2023-03-14 22:30:20:753,-1.19846,2.13712,-9.51229,-12.7339,-7.51301,21.7934
2023-03-14 22:30:20:763,-1.14781,2.12578,-9.48947,-12.74,-7.51252,21.7939
2023-03-14 22:30:20:773,-1.13861,2.12517,-9.47463,-12.7532,-7.51587,21.7998
2023-03-14 22:30:20:783,-1.17761,2.15791,-9.47852,-12.7675,-7.51932,21.8056
2023-03-14 22:30:20:794,-1.238,2.19354,-9.5124,-12.7818,-7.52098,21.8122
2023-03-14 22:30:20:803,-1.24168,2.25565,-9.57792,-12.7912,-7.52082,21.8153
2023-03-14 22:30:20:813,-1.21588,2.26113,-9.58544,-12.7918,-7.51872,21.8161
2023-03-14 22:30:20:823,-1.21552,2.20989,-9.51499,-12.7856,-7.51859,21.8181
2023-03-14 22:30:20:833,-1.23842,2.167,-9.46138,-12.7757,-7.52384,21.8218
2023-03-14 22:30:20:844,-1.24995,2.14431,-9.44086,-12.7685,-7.52778,21.8242
2023-03-14 22:30:20:853,-1.26517,2.15388,-9.43547,-12.7611,-7.53296,21.8255
2023-03-14 22:30:20:863,-1.28673,2.16112,-9.45094,-12.7547,-7.53658,21.8251
2023-03-14 22:30:20:873,-1.26699,2.16681,-9.4636,-12.7531,-7.53843,21.824
2023-03-14 22:30:20:883,-1.22783,2.18754,-9.50192,-12.7524,-7.53941,21.8193
2023-03-14 22:30:20:893,-1.21888,2.19489,-9.53565,-12.7486,-7.53865,21.8134
2023-03-14 22:30:20:903,-1.22678,2.23568,-9.54754,-12.7436,-7.53688,21.8104
2023-03-14 22:30:20:913,-1.24442,2.26283,-9.56154,-12.7301,-7.53729,21.8054
2023-03-14 22:30:20:923,-1.27362,2.27662,-9.54953,-12.7127,-7.53589,21.8041
2023-03-14 22:30:20:933,-1.30868,2.25362,-9.51456,-12.6874,-7.53227,21.8037
2023-03-14 22:30:20:943,-1.34015,2.23158,-9.48142,-12.6588,-7.52894,21.804
2023-03-14 22:30:20:953,-1.36909,2.2174,-9.44752,-12.6291,-7.51867,21.8017
2023-03-14 22:30:20:963,-1.40121,2.20936,-9.42702,-12.6008,-7.50596,21.7963
2023-03-14 22:30:20:973,-1.41209,2.21991,-9.43143,-12.5742,-7.49049,21.7874
2023-03-14 22:30:20:983,-1.37198,2.23272,-9.46672,-12.5459,-7.47307,21.7739
2023-03-14 22:30:20:993,-1.32205,2.22997,-9.47226,-12.5146,-7.44952,21.7515
2023-03-14 22:30:21:3,-1.28205,2.20268,-9.45802,-12.4831,-7.4281,21.7261
2023-03-14 22:30:21:13,-1.24368,2.19529,-9.43119,-12.4558,-7.40214,21.695
2023-03-14 22:30:21:23,-1.19592,2.19804,-9.44104,-12.4259,-7.37579,21.6697
2023-03-14 22:30:21:33,-1.15034,2.18489,-9.43309,-12.3959,-7.35002,21.6425
2023-03-14 22:30:21:43,-1.11055,2.16213,-9.46569,-12.3665,-7.32861,21.6222
2023-03-14 22:30:21:53,-1.0821,2.17784,-9.48855,-12.3421,-7.31231,21.5985
2023-03-14 22:30:21:63,-1.11982,2.1772,-9.44497,-12.3122,-7.29677,21.5822
2023-03-14 22:30:21:73,-1.15811,2.12389,-9.35983,-12.286,-7.28711,21.565
2023-03-14 22:30:21:83,-1.15785,2.06971,-9.32758,-12.2638,-7.27403,21.5536
2023-03-14 22:30:21:93,-1.12461,2.02731,-9.33729,-12.247,-7.26172,21.5441
2023-03-14 22:30:21:104,-1.1151,2.02217,-9.34986,-12.2396,-7.25227,21.5379
2023-03-14 22:30:21:113,-1.104,2.03303,-9.41747,-12.2401,-7.24907,21.536
2023-03-14 22:30:21:123,-1.10778,2.07349,-9.51421,-12.2426,-7.24727,21.5365
2023-03-14 22:30:21:133,-1.14981,2.13146,-9.62573,-12.2415,-7.2469,21.5481
2023-03-14 22:30:21:144,-1.17812,2.15289,-9.63999,-12.2273,-7.24711,21.5627
2023-03-14 22:30:21:154,-1.17805,2.09966,-9.567,-12.2081,-7.25243,21.5762
2023-03-14 22:30:21:163,-1.21074,2.04108,-9.49041,-12.1848,-7.2624,21.5933
2023-03-14 22:30:21:173,-1.25502,1.98605,-9.39886,-12.1726,-7.28109,21.6206
2023-03-14 22:30:21:183,-1.30523,2.00583,-9.40923,-12.1685,-7.29892,21.6491
2023-03-14 22:30:21:193,-1.41314,2.0621,-9.46609,-12.1563,-7.31232,21.6739
2023-03-14 22:30:21:203,-1.48985,2.05401,-9.48205,-12.136,-7.31885,21.6922
2023-03-14 22:30:21:213,-1.44456,1.98217,-9.44394,-12.1174,-7.32422,21.7054
2023-03-14 22:30:21:223,-1.36967,1.91318,-9.39105,-12.1038,-7.33085,21.7145
2023-03-14 22:30:21:233,-1.37085,1.91087,-9.38957,-12.0976,-7.33555,21.72
2023-03-14 22:30:21:243,-1.40549,1.94167,-9.43748,-12.0935,-7.3412,21.7192
2023-03-14 22:30:21:253,-1.40464,1.97913,-9.47583,-12.0889,-7.33942,21.7062
2023-03-14 22:30:21:263,-1.35562,1.96348,-9.4606,-12.0784,-7.33523,21.6896
2023-03-14 22:30:21:273,-1.30977,1.91214,-9.41561,-12.0664,-7.32855,21.6722
2023-03-14 22:30:21:283,-1.26912,1.906,-9.38354,-12.0636,-7.32513,21.6514
2023-03-14 22:30:21:293,-1.20423,1.91109,-9.39244,-12.0656,-7.3206,21.6247
2023-03-14 22:30:21:303,-1.17069,1.92595,-9.40074,-12.0784,-7.32171,21.6019
2023-03-14 22:30:21:313,-1.15419,1.9337,-9.42619,-12.094,-7.32545,21.5817
2023-03-14 22:30:21:323,-1.15691,1.98321,-9.48094,-12.1178,-7.32758,21.5626
2023-03-14 22:30:21:333,-1.1483,2.05829,-9.56979,-12.1468,-7.32971,21.5446
2023-03-14 22:30:21:343,-1.10637,2.11679,-9.65914,-12.1641,-7.33183,21.5297
2023-03-14 22:30:21:353,-1.04257,2.13013,-9.67805,-12.1732,-7.3362,21.5183
2023-03-14 22:30:21:363,-1.05385,2.0917,-9.63538,-12.1725,-7.34548,21.5149
2023-03-14 22:30:21:373,-1.14701,2.09592,-9.59197,-12.1725,-7.35855,21.5215
2023-03-14 22:30:21:383,-1.20333,2.13467,-9.59563,-12.1743,-7.37047,21.5338
2023-03-14 22:30:21:393,-1.22747,2.15931,-9.66278,-12.1692,-7.38129,21.5437
2023-03-14 22:30:21:403,-1.24472,2.18193,-9.66125,-12.1571,-7.38551,21.5569
2023-03-14 22:30:21:413,-1.28035,2.2046,-9.6407,-12.1372,-7.3853,21.5733
2023-03-14 22:30:21:423,-1.32058,2.19322,-9.57627,-12.1029,-7.37903,21.5933
2023-03-14 22:30:21:433,-1.34317,2.14484,-9.48571,-12.0617,-7.37236,21.6165
2023-03-14 22:30:21:443,-1.37471,2.08701,-9.40353,-12.0209,-7.36033,21.6375
2023-03-14 22:30:21:453,-1.40098,2.03688,-9.35415,-11.9807,-7.34831,21.6558
2023-03-14 22:30:21:463,-1.39809,2.00994,-9.33465,-11.946,-7.33814,21.6668
2023-03-14 22:30:21:473,-1.37316,1.998,-9.34459,-11.9188,-7.32699,21.672
2023-03-14 22:30:21:483,-1.38305,2.00896,-9.37838,-11.897,-7.3212,21.6755
2023-03-14 22:30:21:493,-1.41617,2.01943,-9.41185,-11.8761,-7.31803,21.6717
2023-03-14 22:30:21:503,-1.41792,2.01911,-9.44267,-11.8599,-7.31536,21.6582
2023-03-14 22:30:21:513,-1.4091,2.03022,-9.47934,-11.8445,-7.3105,21.641
2023-03-14 22:30:21:523,-1.36768,2.01979,-9.52256,-11.8265,-7.3082,21.6151
2023-03-14 22:30:21:533,-1.33979,2.00157,-9.50653,-11.808,-7.30482,21.5852
2023-03-14 22:30:21:543,-1.28895,1.96336,-9.49503,-11.791,-7.29945,21.5495
2023-03-14 22:30:21:553,-1.2114,1.97036,-9.49781,-11.7699,-7.2966,21.5093
2023-03-14 22:30:21:564,-1.14519,1.94362,-9.5172,-11.7486,-7.29496,21.4679
2023-03-14 22:30:21:573,-1.14722,1.96126,-9.5163,-11.732,-7.29522,21.4335
2023-03-14 22:30:21:584,-1.16658,1.95298,-9.49779,-11.7131,-7.29564,21.4034
2023-03-14 22:30:21:594,-1.17478,1.95485,-9.45194,-11.6929,-7.28912,21.3765
2023-03-14 22:30:21:604,-1.10111,1.91473,-9.3987,-11.6801,-7.27901,21.3538
2023-03-14 22:30:21:614,-1.01892,1.83765,-9.37758,-11.6692,-7.27241,21.3373
2023-03-14 22:30:21:623,-1.0424,1.83135,-9.39264,-11.6709,-7.27495,21.3252
2023-03-14 22:30:21:633,-1.12305,1.88325,-9.44587,-11.6814,-7.28617,21.3204
2023-03-14 22:30:21:644,-1.1768,1.95069,-9.54449,-11.6928,-7.30103,21.32
2023-03-14 22:30:21:654,-1.23349,1.99654,-9.60371,-11.7016,-7.31493,21.3199
2023-03-14 22:30:21:664,-1.27276,2.00886,-9.59419,-11.7051,-7.33123,21.32
2023-03-14 22:30:21:674,-1.26921,2.01704,-9.54282,-11.7039,-7.3399,21.3196
2023-03-14 22:30:21:684,-1.24888,2.006,-9.51027,-11.7019,-7.34586,21.317
2023-03-14 22:30:21:694,-1.23315,1.96369,-9.49683,-11.6947,-7.34942,21.317
2023-03-14 22:30:21:704,-1.21927,2.00056,-9.54657,-11.6966,-7.35208,21.322
2023-03-14 22:30:21:714,-1.20707,2.03086,-9.55702,-11.6867,-7.36279,21.327
2023-03-14 22:30:21:724,-1.26257,1.98262,-9.48933,-11.6799,-7.3748,21.337
2023-03-14 22:30:21:733,-1.35558,1.98014,-9.47374,-11.6724,-7.38598,21.3463
2023-03-14 22:30:21:743,-1.3433,2.02504,-9.51533,-11.6611,-7.39196,21.3485
2023-03-14 22:30:21:753,-1.30601,2.02517,-9.5304,-11.6476,-7.39704,21.3463
2023-03-14 22:30:21:764,-1.28019,1.98979,-9.48391,-11.6296,-7.40188,21.3446
2023-03-14 22:30:21:774,-1.2811,1.94179,-9.4193,-11.614,-7.40532,21.3402
2023-03-14 22:30:21:783,-1.26839,1.90622,-9.39613,-11.6028,-7.40539,21.3356
2023-03-14 22:30:21:793,-1.23567,1.90992,-9.41654,-11.5964,-7.4061,21.3308
2023-03-14 22:30:21:804,-1.19469,1.91183,-9.45228,-11.5983,-7.40643,21.3295
2023-03-14 22:30:21:814,-1.16986,1.92803,-9.463,-11.6038,-7.40924,21.3253
2023-03-14 22:30:21:824,-1.17221,1.95632,-9.47513,-11.6073,-7.40889,21.3239
2023-03-14 22:30:21:834,-1.15231,1.97853,-9.48535,-11.6147,-7.40498,21.3255
2023-03-14 22:30:21:844,-1.15488,1.98603,-9.50022,-11.6227,-7.40242,21.3308
2023-03-14 22:30:21:853,-1.16402,2.00525,-9.52319,-11.6305,-7.39684,21.3351
2023-03-14 22:30:21:863,-1.15635,2.02301,-9.54835,-11.6369,-7.39202,21.3421
2023-03-14 22:30:21:873,-1.12905,2.02298,-9.55431,-11.639,-7.38541,21.3523
2023-03-14 22:30:21:884,-1.12056,2.01642,-9.54309,-11.6392,-7.38139,21.3634
2023-03-14 22:30:21:894,-1.12872,2.00461,-9.53556,-11.6343,-7.37726,21.3784
2023-03-14 22:30:21:904,-1.14121,2.00232,-9.54012,-11.6335,-7.37876,21.3905
2023-03-14 22:30:21:914,-1.1756,2.00073,-9.54779,-11.6341,-7.37786,21.4075
2023-03-14 22:30:21:924,-1.20956,2.01949,-9.52472,-11.6284,-7.38359,21.4214
2023-03-14 22:30:21:933,-1.23336,2.03102,-9.51423,-11.6243,-7.39208,21.4357
2023-03-14 22:30:21:944,-1.25204,2.02035,-9.52566,-11.618,-7.40192,21.4497
2023-03-14 22:30:21:954,-1.26539,2.02549,-9.55322,-11.6112,-7.41485,21.4589
2023-03-14 22:30:21:963,-1.29876,2.03774,-9.54304,-11.6023,-7.43102,21.4659
2023-03-14 22:30:21:973,-1.31537,2.02149,-9.52939,-11.5914,-7.44034,21.47
2023-03-14 22:30:21:984,-1.29462,1.99666,-9.51715,-11.5784,-7.45181,21.4685
2023-03-14 22:30:21:994,-1.26421,1.96967,-9.50605,-11.5647,-7.46455,21.4664
2023-03-14 22:30:22:3,-1.25549,1.97671,-9.50675,-11.5532,-7.47911,21.4681
2023-03-14 22:30:22:13,-1.28187,1.96516,-9.51728,-11.5426,-7.49532,21.469
2023-03-14 22:30:22:23,-1.30547,1.94965,-9.48986,-11.5296,-7.5121,21.471
2023-03-14 22:30:22:34,-1.3111,1.94948,-9.4911,-11.5159,-7.52569,21.4695
2023-03-14 22:30:22:43,-1.30492,1.93414,-9.50586,-11.5044,-7.53542,21.4709
2023-03-14 22:30:22:53,-1.31086,1.91714,-9.48579,-11.4921,-7.54224,21.474
2023-03-14 22:30:22:63,-1.30299,1.89834,-9.44894,-11.4805,-7.54862,21.4805
2023-03-14 22:30:22:74,-1.30661,1.88295,-9.41733,-11.4726,-7.55143,21.4844
2023-03-14 22:30:22:84,-1.32149,1.86915,-9.41818,-11.4631,-7.55431,21.4918
2023-03-14 22:30:22:93,-1.34271,1.87995,-9.44016,-11.4573,-7.55633,21.5006
2023-03-14 22:30:22:104,-1.33551,1.882,-9.46629,-11.4529,-7.55607,21.5042
2023-03-14 22:30:22:113,-1.28386,1.88905,-9.49065,-11.4497,-7.55208,21.506
2023-03-14 22:30:22:124,-1.25085,1.88402,-9.51061,-11.4485,-7.54779,21.5121
2023-03-14 22:30:22:133,-1.2627,1.86779,-9.49392,-11.4486,-7.54535,21.521
2023-03-14 22:30:22:144,-1.3042,1.87591,-9.4885,-11.4549,-7.5445,21.529
2023-03-14 22:30:22:153,-1.33965,1.90374,-9.49444,-11.4599,-7.54357,21.5362
2023-03-14 22:30:22:163,-1.34681,1.91818,-9.50426,-11.4665,-7.53936,21.543
2023-03-14 22:30:22:173,-1.32985,1.9439,-9.50627,-11.4735,-7.53089,21.5501
2023-03-14 22:30:22:184,-1.30801,1.9755,-9.51696,-11.4771,-7.52258,21.5547
2023-03-14 22:30:22:194,-1.29508,1.96774,-9.51576,-11.4783,-7.51466,21.5607
2023-03-14 22:30:22:203,-1.27073,1.95806,-9.50403,-11.4752,-7.50676,21.5663
2023-03-14 22:30:22:213,-1.27724,1.95541,-9.49397,-11.4768,-7.50195,21.5709
2023-03-14 22:30:22:224,-1.25949,1.95208,-9.48967,-11.4797,-7.4945,21.5766
2023-03-14 22:30:22:234,-1.25755,1.95726,-9.47373,-11.4796,-7.48505,21.5812
2023-03-14 22:30:22:244,-1.27436,1.96,-9.48121,-11.4774,-7.4757,21.5858
2023-03-14 22:30:22:253,-1.27281,1.93783,-9.48663,-11.4766,-7.47113,21.5931
2023-03-14 22:30:22:264,-1.26136,1.92721,-9.48166,-11.477,-7.45925,21.5987
2023-03-14 22:30:22:274,-1.24805,1.9338,-9.47072,-11.4777,-7.45161,21.602
2023-03-14 22:30:22:283,-1.23084,1.92838,-9.48645,-11.4808,-7.44202,21.6061
2023-03-14 22:30:22:294,-1.2264,1.93913,-9.51788,-11.4865,-7.43091,21.6135
2023-03-14 22:30:22:304,-1.22685,1.94755,-9.53845,-11.49,-7.42731,21.6183
2023-03-14 22:30:22:313,-1.23167,1.9553,-9.53129,-11.4973,-7.42043,21.6248
2023-03-14 22:30:22:323,-1.23086,1.96684,-9.52162,-11.5056,-7.41391,21.627
2023-03-14 22:30:22:333,-1.24589,1.97553,-9.54675,-11.5119,-7.40991,21.6345
2023-03-14 22:30:22:344,-1.28435,1.97825,-9.54547,-11.5154,-7.40631,21.6412
2023-03-14 22:30:22:354,-1.3114,1.98661,-9.53103,-11.5173,-7.39983,21.6452
2023-03-14 22:30:22:364,-1.25477,1.96938,-9.54435,-11.5179,-7.39058,21.6461
2023-03-14 22:30:22:374,-1.1709,1.94488,-9.52441,-11.5154,-7.38555,21.6471
2023-03-14 22:30:22:384,-1.17493,1.91323,-9.4859,-11.5093,-7.38283,21.6535
2023-03-14 22:30:22:393,-1.22987,1.90529,-9.47163,-11.5086,-7.37842,21.6642
2023-03-14 22:30:22:404,-1.28027,1.92441,-9.49515,-11.51,-7.37849,21.6699
2023-03-14 22:30:22:414,-1.3029,1.95259,-9.5198,-11.5115,-7.37593,21.677
2023-03-14 22:30:22:423,-1.29781,1.95107,-9.53908,-11.508,-7.37032,21.6818
2023-03-14 22:30:22:433,-1.28051,1.93318,-9.52107,-11.5022,-7.36031,21.6863
2023-03-14 22:30:22:444,-1.265,1.90923,-9.48808,-11.5002,-7.34755,21.6897
2023-03-14 22:30:22:454,-1.24781,1.8919,-9.45067,-11.4961,-7.33738,21.6961
2023-03-14 22:30:22:464,-1.26292,1.89036,-9.46123,-11.4979,-7.32596,21.7002
2023-03-14 22:30:22:473,-1.25152,1.90486,-9.48414,-11.5031,-7.31231,21.7007
2023-03-14 22:30:22:484,-1.24866,1.90957,-9.50854,-11.5039,-7.29894,21.7032
2023-03-14 22:30:22:493,-1.23048,1.92192,-9.51813,-11.5098,-7.28467,21.7053
2023-03-14 22:30:22:503,-1.22071,1.92632,-9.52093,-11.5136,-7.27238,21.7052
2023-03-14 22:30:22:513,-1.21006,1.92305,-9.51891,-11.518,-7.26053,21.7068
2023-03-14 22:30:22:523,-1.19521,1.92576,-9.53166,-11.5198,-7.24753,21.706
2023-03-14 22:30:22:533,-1.18863,1.92841,-9.52086,-11.5216,-7.23441,21.7043
2023-03-14 22:30:22:543,-1.17611,1.89621,-9.51873,-11.5228,-7.22189,21.7005
2023-03-14 22:30:22:553,-1.1581,1.87259,-9.48488,-11.5223,-7.21128,21.7009
2023-03-14 22:30:22:564,-1.14355,1.85009,-9.46129,-11.5227,-7.20477,21.6996
2023-03-14 22:30:22:574,-1.12407,1.84754,-9.4511,-11.5303,-7.19899,21.7014
