Timestamp,Acceleration_x,Acceleration_y,Acceleration_z,roll,pitch,yaw
2023-03-11 17:56:33:413,-0.0693616,1.04386,-9.74672,-5.68397,-0.109019,85.0188
2023-03-11 17:56:33:421,-0.0880934,1.03096,-9.70305,-5.66994,-0.116403,85.008
2023-03-11 17:56:33:431,-0.0826759,1.0231,-9.67271,-5.65616,-0.124497,84.9936
2023-03-11 17:56:33:441,-0.0494845,0.998578,-9.66312,-5.64405,-0.12277,84.9753
2023-03-11 17:56:33:451,-4.58904e-05,0.997436,-9.67881,-5.6309,-0.117453,84.9535
2023-03-11 17:56:33:461,0.0480592,0.99899,-9.69797,-5.62026,-0.115351,84.9367
2023-03-11 17:56:33:471,0.065521,0.989572,-9.71531,-5.60901,-0.108286,84.9183
2023-03-11 17:56:33:481,0.0651461,0.985239,-9.70458,-5.60051,-0.105188,84.903
2023-03-11 17:56:33:491,0.0585142,0.986987,-9.68593,-5.5897,-0.104785,84.8905
2023-03-11 17:56:33:501,0.0481954,0.972598,-9.67999,-5.57778,-0.104437,84.8805
2023-03-11 17:56:33:511,0.0317699,0.96861,-9.6966,-5.56705,-0.10589,84.8756
2023-03-11 17:56:33:521,0.0219598,0.991994,-9.73118,-5.55914,-0.102043,84.8713
2023-03-11 17:56:33:531,0.0291395,0.998285,-9.76725,-5.56048,-0.0927564,84.8681
2023-03-11 17:56:33:541,0.044616,0.993476,-9.78856,-5.56004,-0.0853521,84.8644
2023-03-11 17:56:33:551,0.0505869,0.989078,-9.77813,-5.56158,-0.077037,84.8601
2023-03-11 17:56:33:561,0.0700135,0.957198,-9.74457,-5.55818,-0.0720555,84.8596
2023-03-11 17:56:33:571,0.0554544,0.957917,-9.72244,-5.55336,-0.071916,84.8579
2023-03-11 17:56:33:581,0.0357676,0.949797,-9.68283,-5.55572,-0.0704478,84.8531
2023-03-11 17:56:33:591,0.0336293,0.945799,-9.68222,-5.56186,-0.0728952,84.8528
2023-03-11 17:56:33:601,0.0629546,0.977066,-9.72505,-5.57343,-0.072893,84.8511
2023-03-11 17:56:33:611,0.0960018,0.993515,-9.74527,-5.58177,-0.0780475,84.8534
2023-03-11 17:56:33:621,0.116585,0.980458,-9.73528,-5.58652,-0.0856355,84.8547
2023-03-11 17:56:33:631,0.0809114,0.977097,-9.7112,-5.59259,-0.0975307,84.8613
2023-03-11 17:56:33:641,0.0283349,0.983382,-9.72512,-5.60405,-0.107669,84.8757
2023-03-11 17:56:33:651,0.0025378,1.00412,-9.73721,-5.61278,-0.118225,84.8921
2023-03-11 17:56:33:661,-0.0132641,1.01715,-9.73143,-5.62143,-0.128519,84.9104
2023-03-11 17:56:33:671,-0.0239139,1.0184,-9.73547,-5.63128,-0.13088,84.9289
2023-03-11 17:56:33:681,-0.0445121,1.03318,-9.72356,-5.6412,-0.138541,84.9476
2023-03-11 17:56:33:691,-0.0543804,1.0353,-9.7186,-5.65079,-0.143715,84.9713
2023-03-11 17:56:33:701,-0.0723087,1.03602,-9.73886,-5.65661,-0.147748,84.9901
2023-03-11 17:56:33:711,-0.0809155,1.03849,-9.77044,-5.66611,-0.152999,85.0037
2023-03-11 17:56:33:721,-0.0888615,1.05898,-9.80583,-5.67358,-0.156606,85.0152
2023-03-11 17:56:33:731,-0.0823094,1.06918,-9.82388,-5.67744,-0.162873,85.0233
2023-03-11 17:56:33:741,-0.0876861,1.06209,-9.8074,-5.677,-0.170611,85.0257
2023-03-11 17:56:33:751,-0.072957,1.05076,-9.76075,-5.67383,-0.178217,85.0252
2023-03-11 17:56:33:761,-0.073215,1.03397,-9.74337,-5.66717,-0.187985,85.0208
2023-03-11 17:56:33:771,-0.0523459,1.0254,-9.72334,-5.66401,-0.198392,85.0151
2023-03-11 17:56:33:781,-0.04849,1.02402,-9.72565,-5.66058,-0.212407,85.0042
2023-03-11 17:56:33:791,-0.0412792,1.02335,-9.7409,-5.65642,-0.220171,84.9938
2023-03-11 17:56:33:801,-0.0215105,1.02018,-9.75707,-5.65137,-0.223071,84.9827
2023-03-11 17:56:33:811,0.00586054,1.00714,-9.77507,-5.64548,-0.229684,84.9731
2023-03-11 17:56:33:821,0.0128418,0.999384,-9.78395,-5.63702,-0.232368,84.9661
2023-03-11 17:56:33:831,-0.00161059,1.00892,-9.79439,-5.62738,-0.238404,84.9629
2023-03-11 17:56:33:841,-0.0214558,1.01772,-9.78449,-5.61341,-0.239237,84.9639
2023-03-11 17:56:33:851,-0.0210431,1.00178,-9.75269,-5.59615,-0.238541,84.9657
2023-03-11 17:56:33:861,-0.0100105,0.993017,-9.72533,-5.58071,-0.236311,84.9668
2023-03-11 17:56:33:871,-0.0188402,0.984088,-9.70831,-5.56403,-0.235647,84.9716
2023-03-11 17:56:33:881,-0.0197373,0.978832,-9.6931,-5.54905,-0.235532,84.9792
2023-03-11 17:56:33:891,-0.0184444,0.968918,-9.68973,-5.53498,-0.235698,84.9813
2023-03-11 17:56:33:901,-0.0266355,0.96368,-9.69238,-5.52356,-0.236885,84.9878
2023-03-11 17:56:33:911,-0.0359878,0.963738,-9.69529,-5.51838,-0.241733,84.9925
2023-03-11 17:56:33:921,-0.0486514,0.963851,-9.70051,-5.51784,-0.247937,84.9968
2023-03-11 17:56:33:931,-0.0425882,0.979927,-9.71535,-5.51829,-0.253431,85.0012
2023-03-11 17:56:33:941,-0.0371952,0.995824,-9.74461,-5.51917,-0.259168,85.0034
2023-03-11 17:56:33:951,-0.0529614,1.01847,-9.76948,-5.52028,-0.265006,85.0032
2023-03-11 17:56:33:961,-0.028365,1.01273,-9.78756,-5.52189,-0.272543,85.0059
2023-03-11 17:56:33:971,-0.033381,1.01278,-9.79164,-5.52119,-0.280193,85.0044
2023-03-11 17:56:33:981,-0.0265275,0.989328,-9.77602,-5.51412,-0.28591,85.0051
2023-03-11 17:56:33:991,-0.0135511,0.974373,-9.73047,-5.5037,-0.293675,85.0058
2023-03-11 17:56:34:1,-0.00919941,0.968345,-9.7231,-5.49302,-0.299945,85.0046
2023-03-11 17:56:34:11,-0.00923135,0.961937,-9.71106,-5.48636,-0.304682,85.0034
2023-03-11 17:56:34:21,-0.0263813,0.948559,-9.70335,-5.47872,-0.312076,85.0048
2023-03-11 17:56:34:31,-0.0326868,0.944075,-9.7117,-5.4737,-0.319554,85.0055
2023-03-11 17:56:34:41,-0.0368322,0.960807,-9.72489,-5.47233,-0.332003,85.007
2023-03-11 17:56:34:51,-0.0557798,0.975246,-9.76388,-5.46719,-0.344744,85.0105
2023-03-11 17:56:34:61,-0.0791527,0.983821,-9.78476,-5.46363,-0.359385,85.0105
2023-03-11 17:56:34:71,-0.102154,0.985499,-9.80457,-5.46158,-0.371056,85.0157
2023-03-11 17:56:34:81,-0.118384,0.995427,-9.80511,-5.45439,-0.382746,85.0173
2023-03-11 17:56:34:91,-0.0940887,0.987786,-9.78877,-5.44159,-0.388221,85.0167
2023-03-11 17:56:34:101,-0.0784492,0.95381,-9.74648,-5.42205,-0.393917,85.0112
2023-03-11 17:56:34:111,-0.0674625,0.933161,-9.69114,-5.40416,-0.397801,85.008
2023-03-11 17:56:34:121,-0.0625434,0.900031,-9.66286,-5.39134,-0.398863,85.0042
2023-03-11 17:56:34:131,-0.0329509,0.89407,-9.65786,-5.38339,-0.399477,85.0006
2023-03-11 17:56:34:141,-0.0198366,0.912606,-9.71799,-5.37747,-0.400863,84.9994
2023-03-11 17:56:34:151,-0.0155131,0.962324,-9.79943,-5.37906,-0.404052,84.9958
2023-03-11 17:56:34:161,-0.0181642,0.999246,-9.87701,-5.38367,-0.408835,84.9945
2023-03-11 17:56:34:171,-0.022255,0.992226,-9.89268,-5.37457,-0.42356,84.9907
2023-03-11 17:56:34:181,-0.0392839,0.98887,-9.8593,-5.36548,-0.439972,84.9926
2023-03-11 17:56:34:191,-0.0643029,0.976772,-9.80542,-5.34892,-0.456918,84.9932
2023-03-11 17:56:34:201,-0.0806332,0.958719,-9.74453,-5.33327,-0.477114,84.995
2023-03-11 17:56:34:211,-0.0855681,0.930315,-9.69491,-5.31422,-0.494262,85.0006
2023-03-11 17:56:34:221,-0.0933533,0.931149,-9.65953,-5.29899,-0.512375,85.0051
2023-03-11 17:56:34:231,-0.0874915,0.927676,-9.65227,-5.28683,-0.530115,85.0128
2023-03-11 17:56:34:241,-0.10484,0.931875,-9.67922,-5.27133,-0.544283,85.0203
2023-03-11 17:56:34:251,-0.13134,0.937788,-9.69049,-5.26514,-0.561305,85.0267
2023-03-11 17:56:34:261,-0.151496,0.93352,-9.71153,-5.25692,-0.576046,85.0326
2023-03-11 17:56:34:271,-0.145761,0.938711,-9.72581,-5.24873,-0.591382,85.0411
2023-03-11 17:56:34:281,-0.152153,0.932297,-9.72507,-5.24304,-0.603128,85.0472
2023-03-11 17:56:34:291,-0.153107,0.925774,-9.71813,-5.23191,-0.614798,85.0505
2023-03-11 17:56:34:301,-0.159315,0.917934,-9.72687,-5.2201,-0.623465,85.0553
2023-03-11 17:56:34:311,-0.176154,0.919808,-9.75194,-5.21444,-0.632637,85.0611
2023-03-11 17:56:34:321,-0.178057,0.920406,-9.74746,-5.21153,-0.640619,85.062
2023-03-11 17:56:34:331,-0.181401,0.91899,-9.7445,-5.20717,-0.649641,85.0665
2023-03-11 17:56:34:341,-0.175413,0.914927,-9.71029,-5.20404,-0.656394,85.0676
2023-03-11 17:56:34:352,-0.182592,0.894508,-9.68609,-5.20217,-0.66306,85.0667
2023-03-11 17:56:34:361,-0.190744,0.896323,-9.67806,-5.20501,-0.666451,85.0651
2023-03-11 17:56:34:371,-0.18883,0.908978,-9.69032,-5.21151,-0.667989,85.063
2023-03-11 17:56:34:381,-0.17527,0.948936,-9.74917,-5.22134,-0.665638,85.0566
2023-03-11 17:56:34:391,-0.141121,0.952379,-9.78323,-5.23062,-0.662226,85.0487
2023-03-11 17:56:34:401,-0.094914,0.939623,-9.76619,-5.23671,-0.657321,85.0369
2023-03-11 17:56:34:411,-0.0888538,0.9286,-9.77172,-5.24054,-0.652806,85.0275
2023-03-11 17:56:34:421,-0.126262,0.935184,-9.76747,-5.24248,-0.649406,85.0187
2023-03-11 17:56:34:431,-0.125356,0.942784,-9.76995,-5.24717,-0.644672,85.0089
2023-03-11 17:56:34:441,-0.114023,0.954889,-9.76031,-5.24762,-0.637612,84.9974
2023-03-11 17:56:34:451,-0.0876583,0.947787,-9.77873,-5.24849,-0.630176,84.985
2023-03-11 17:56:34:461,-0.0587546,0.929434,-9.76896,-5.24855,-0.618622,84.971
2023-03-11 17:56:34:471,-0.053659,0.93021,-9.74175,-5.24633,-0.607773,84.9613
2023-03-11 17:56:34:481,-0.0529396,0.929642,-9.73153,-5.24365,-0.598101,84.952
2023-03-11 17:56:34:491,-0.0514782,0.934325,-9.74804,-5.24013,-0.590728,84.9428
2023-03-11 17:56:34:501,-0.0576477,0.931755,-9.76898,-5.23909,-0.582434,84.9373
2023-03-11 17:56:34:511,-0.0371865,0.93317,-9.77423,-5.23258,-0.581039,84.9307
2023-03-11 17:56:34:521,-0.0232515,0.921819,-9.77034,-5.22778,-0.579874,84.9209
2023-03-11 17:56:34:531,-0.00976305,0.908657,-9.7627,-5.22371,-0.580358,84.9159
2023-03-11 17:56:34:541,-0.0151904,0.909514,-9.75601,-5.21644,-0.585459,84.912
2023-03-11 17:56:34:551,-0.0392106,0.897267,-9.74084,-5.2118,-0.592176,84.9113
2023-03-11 17:56:34:561,-0.0426607,0.883647,-9.72937,-5.20546,-0.600137,84.9126
2023-03-11 17:56:34:571,-0.0552567,0.877789,-9.7086,-5.20541,-0.607179,84.9153
2023-03-11 17:56:34:581,-0.0694094,0.870684,-9.71418,-5.20454,-0.616369,84.921
2023-03-11 17:56:34:591,-0.0863706,0.882706,-9.71374,-5.20378,-0.624413,84.9286
2023-03-11 17:56:34:601,-0.101883,0.882388,-9.7126,-5.20828,-0.634237,84.9397
2023-03-11 17:56:34:611,-0.116217,0.890998,-9.70762,-5.21395,-0.642176,84.9518
2023-03-11 17:56:34:621,-0.139725,0.905245,-9.72028,-5.22195,-0.652482,84.9692
2023-03-11 17:56:34:631,-0.162628,0.905566,-9.73934,-5.22865,-0.664749,84.9792
2023-03-11 17:56:34:641,-0.191316,0.926063,-9.7308,-5.23793,-0.674914,84.9927
2023-03-11 17:56:34:651,-0.192334,0.935285,-9.7409,-5.25102,-0.68768,85.006
2023-03-11 17:56:34:661,-0.196751,0.929485,-9.73384,-5.26059,-0.699964,85.0186
2023-03-11 17:56:34:671,-0.209446,0.926998,-9.72306,-5.26902,-0.706072,85.0273
2023-03-11 17:56:34:681,-0.211021,0.927107,-9.72954,-5.28017,-0.714315,85.0355
2023-03-11 17:56:34:691,-0.193189,0.929998,-9.72966,-5.29086,-0.717684,85.0417
2023-03-11 17:56:34:701,-0.203921,0.933588,-9.73135,-5.30539,-0.718848,85.0445
2023-03-11 17:56:34:711,-0.195205,0.947569,-9.73768,-5.31757,-0.720052,85.0443
2023-03-11 17:56:34:721,-0.167807,0.94958,-9.72832,-5.32801,-0.717862,85.0441
2023-03-11 17:56:34:731,-0.153967,0.954825,-9.73481,-5.34008,-0.714168,85.0427
2023-03-11 17:56:34:741,-0.146393,0.965011,-9.7459,-5.3582,-0.705671,85.0395
2023-03-11 17:56:34:751,-0.132402,0.974118,-9.76078,-5.37048,-0.698808,85.0361
2023-03-11 17:56:34:761,-0.100965,0.985652,-9.78487,-5.38648,-0.694411,85.0339
2023-03-11 17:56:34:771,-0.096951,0.97968,-9.77985,-5.39719,-0.685118,85.0263
2023-03-11 17:56:34:781,-0.0906308,0.981095,-9.76247,-5.40446,-0.679303,85.0211
2023-03-11 17:56:34:791,-0.0780304,0.988759,-9.73676,-5.41328,-0.673801,85.015
2023-03-11 17:56:34:801,-0.0738262,0.989671,-9.73331,-5.42106,-0.669762,85.0145
2023-03-11 17:56:34:811,-0.0722916,0.987741,-9.73389,-5.43137,-0.664451,85.0092
2023-03-11 17:56:34:821,-0.0657015,0.984914,-9.74757,-5.44024,-0.65783,85.0053
2023-03-11 17:56:34:831,-0.0594683,0.987296,-9.73995,-5.44586,-0.655396,85.0002
2023-03-11 17:56:34:841,-0.0552915,0.991654,-9.72702,-5.45142,-0.655112,84.9976
2023-03-11 17:56:34:851,-0.0589742,0.978359,-9.73544,-5.45847,-0.65624,85.0002
2023-03-11 17:56:34:861,-0.0714235,0.975934,-9.75794,-5.4653,-0.656165,85.0038
2023-03-11 17:56:34:871,-0.102218,0.978584,-9.77548,-5.47034,-0.662306,85.0116
2023-03-11 17:56:34:881,-0.111428,0.993381,-9.77984,-5.47586,-0.668121,85.0208
2023-03-11 17:56:34:891,-0.113525,0.98902,-9.77388,-5.47887,-0.671351,85.0295
2023-03-11 17:56:34:901,-0.148907,0.985868,-9.76391,-5.47676,-0.676408,85.0369
2023-03-11 17:56:34:911,-0.162103,0.99094,-9.76097,-5.47696,-0.678951,85.0467
2023-03-11 17:56:34:921,-0.15566,0.984896,-9.7653,-5.47668,-0.681324,85.053
2023-03-11 17:56:34:931,-0.144364,0.976226,-9.76692,-5.46963,-0.674908,85.0591
2023-03-11 17:56:34:941,-0.138843,0.9812,-9.78859,-5.46344,-0.672732,85.0658
2023-03-11 17:56:34:951,-0.108163,0.987691,-9.8111,-5.45565,-0.673759,85.0719
2023-03-11 17:56:34:961,-0.0778985,0.971119,-9.79932,-5.44559,-0.66934,85.0711
2023-03-11 17:56:34:971,-0.0482122,0.948803,-9.76267,-5.43351,-0.675212,85.0701
2023-03-11 17:56:34:981,-0.0734928,0.915394,-9.71761,-5.42124,-0.683532,85.0695
2023-03-11 17:56:34:991,-0.101526,0.913649,-9.69263,-5.4117,-0.692449,85.0692
2023-03-11 17:56:35:1,-0.127496,0.927854,-9.66825,-5.40655,-0.702157,85.0758
2023-03-11 17:56:35:11,-0.111331,0.923662,-9.67294,-5.40484,-0.706063,85.0813
2023-03-11 17:56:35:21,-0.0973349,0.944489,-9.66548,-5.40644,-0.709804,85.0875
2023-03-11 17:56:35:31,-0.0918045,0.949548,-9.66402,-5.41227,-0.706802,85.0995
2023-03-11 17:56:35:41,-0.0947388,0.944992,-9.67347,-5.41781,-0.703688,85.109
2023-03-11 17:56:35:51,-0.117333,0.953198,-9.70923,-5.42912,-0.705756,85.1214
2023-03-11 17:56:35:61,-0.123979,0.96983,-9.73513,-5.43877,-0.707815,85.1324
2023-03-11 17:56:35:71,-0.126431,0.982128,-9.75196,-5.44556,-0.709818,85.1408
2023-03-11 17:56:35:81,-0.148731,0.982258,-9.75448,-5.44959,-0.70944,85.1498
2023-03-11 17:56:35:91,-0.148954,0.962516,-9.74643,-5.45516,-0.713095,85.1539
2023-03-11 17:56:35:101,-0.139078,0.963895,-9.71457,-5.45749,-0.71695,85.1541
2023-03-11 17:56:35:111,-0.130246,0.971309,-9.69912,-5.4655,-0.717908,85.1513
2023-03-11 17:56:35:121,-0.118138,0.967449,-9.73242,-5.47577,-0.719572,85.1511
2023-03-11 17:56:35:131,-0.0936453,0.982175,-9.75749,-5.48953,-0.720923,85.1476
2023-03-11 17:56:35:141,-0.0823409,0.978999,-9.75451,-5.50319,-0.724487,85.1416
2023-03-11 17:56:35:151,-0.0992365,0.988263,-9.74749,-5.52008,-0.725704,85.1367
2023-03-11 17:56:35:161,-0.137165,1.00264,-9.75236,-5.53612,-0.728748,85.1312
2023-03-11 17:56:35:171,-0.152311,1.03478,-9.77257,-5.55023,-0.728107,85.1301
2023-03-11 17:56:35:181,-0.141816,1.05321,-9.81667,-5.56472,-0.72703,85.1292
2023-03-11 17:56:35:191,-0.112208,1.04985,-9.80731,-5.57398,-0.724598,85.1286
2023-03-11 17:56:35:201,-0.111076,1.0247,-9.78358,-5.57418,-0.722044,85.1316
2023-03-11 17:56:35:211,-0.126035,1.01761,-9.74622,-5.57187,-0.720073,85.1309
2023-03-11 17:56:35:221,-0.162175,1.02121,-9.71421,-5.56859,-0.717243,85.1314
2023-03-11 17:56:35:231,-0.178754,1.0095,-9.70375,-5.56485,-0.716553,85.1331
2023-03-11 17:56:35:241,-0.174005,0.994104,-9.69382,-5.56132,-0.709477,85.1356
2023-03-11 17:56:35:251,-0.14645,0.996097,-9.69639,-5.56291,-0.702369,85.1326
2023-03-11 17:56:35:261,-0.122346,0.996399,-9.71101,-5.56573,-0.693419,85.1278
2023-03-11 17:56:35:271,-0.137851,0.999541,-9.72774,-5.57033,-0.682005,85.1221
2023-03-11 17:56:35:281,-0.147171,1.01406,-9.75766,-5.57469,-0.674568,85.1183
2023-03-11 17:56:35:291,-0.150807,1.03404,-9.7867,-5.58044,-0.666242,85.1143
2023-03-11 17:56:35:301,-0.121043,1.04792,-9.80689,-5.58337,-0.656879,85.1084
2023-03-11 17:56:35:311,-0.0928614,1.03926,-9.79869,-5.57802,-0.648114,85.0971
2023-03-11 17:56:35:321,-0.0911446,1.01445,-9.76174,-5.56603,-0.640635,85.0889
2023-03-11 17:56:35:331,-0.0737555,0.993755,-9.74461,-5.55412,-0.63494,85.0783
2023-03-11 17:56:35:341,-0.0635835,0.990502,-9.72004,-5.54363,-0.634384,85.0687
2023-03-11 17:56:35:351,-0.053435,0.98085,-9.70411,-5.53347,-0.63966,85.0591
2023-03-11 17:56:35:361,-0.0461531,0.976379,-9.70196,-5.52724,-0.640697,85.0507
2023-03-11 17:56:35:371,-0.0450209,0.987829,-9.72419,-5.52187,-0.645455,85.0436
2023-03-11 17:56:35:381,-0.0510336,0.984253,-9.7349,-5.51589,-0.646311,85.0393
2023-03-11 17:56:35:391,-0.0630236,0.986321,-9.74621,-5.5169,-0.648891,85.0351
2023-03-11 17:56:35:401,-0.0798098,0.988512,-9.75213,-5.51434,-0.656198,85.034
2023-03-11 17:56:35:411,-0.100262,0.985996,-9.73503,-5.5077,-0.664747,85.0362
2023-03-11 17:56:35:421,-0.106888,0.978936,-9.7449,-5.50069,-0.671298,85.0402
2023-03-11 17:56:35:431,-0.111823,0.983097,-9.74601,-5.49507,-0.677748,85.0435
2023-03-11 17:56:35:441,-0.11097,0.968866,-9.74083,-5.48788,-0.684407,85.0508
2023-03-11 17:56:35:451,-0.11648,0.964965,-9.71657,-5.47988,-0.689174,85.0558
2023-03-11 17:56:35:461,-0.126218,0.963757,-9.6961,-5.47098,-0.693755,85.0615
2023-03-11 17:56:35:471,-0.118952,0.951524,-9.70268,-5.4666,-0.697037,85.066
2023-03-11 17:56:35:481,-0.135755,0.93885,-9.72354,-5.46405,-0.700839,85.0696
2023-03-11 17:56:35:491,-0.140695,0.938806,-9.72892,-5.46205,-0.709627,85.0756
2023-03-11 17:56:35:501,-0.152463,0.948695,-9.72391,-5.45797,-0.719385,85.0818
2023-03-11 17:56:35:511,-0.161786,0.948784,-9.72284,-5.46042,-0.728311,85.0888
2023-03-11 17:56:35:521,-0.165119,0.943899,-9.72139,-5.46413,-0.735379,85.0916
2023-03-11 17:56:35:531,-0.169886,0.943482,-9.72402,-5.46522,-0.741378,85.0896
2023-03-11 17:56:35:541,-0.169534,0.945847,-9.72923,-5.46685,-0.748712,85.0941
2023-03-11 17:56:35:551,-0.152895,0.94617,-9.72965,-5.46995,-0.753639,85.0974
2023-03-11 17:56:35:561,-0.151133,0.955192,-9.74522,-5.47181,-0.751478,85.0997
2023-03-11 17:56:35:571,-0.15085,0.952717,-9.76395,-5.4766,-0.75683,85.1028
2023-03-11 17:56:35:581,-0.152969,0.957931,-9.77353,-5.48239,-0.761036,85.1054
2023-03-11 17:56:35:591,-0.156685,0.955586,-9.745,-5.48182,-0.762946,85.1084
2023-03-11 17:56:35:601,-0.154097,0.945441,-9.71941,-5.4808,-0.763442,85.1076
2023-03-11 17:56:35:611,-0.157714,0.951339,-9.72435,-5.48114,-0.762398,85.1118
2023-03-11 17:56:35:621,-0.164313,0.94392,-9.70906,-5.4832,-0.764136,85.1145
2023-03-11 17:56:35:631,-0.175722,0.949887,-9.70338,-5.48601,-0.763316,85.1138
2023-03-11 17:56:35:641,-0.171431,0.958713,-9.72376,-5.48993,-0.761493,85.1143
2023-03-11 17:56:35:651,-0.18808,0.958057,-9.72496,-5.49542,-0.757991,85.1154
2023-03-11 17:56:35:661,-0.197078,0.968468,-9.73636,-5.49623,-0.753219,85.1128
2023-03-11 17:56:35:671,-0.19395,0.986271,-9.75604,-5.50185,-0.750678,85.1088
2023-03-11 17:56:35:681,-0.190336,0.972157,-9.74683,-5.50189,-0.74361,85.104
2023-03-11 17:56:35:691,-0.171634,0.959235,-9.72911,-5.50638,-0.734514,85.0957
2023-03-11 17:56:35:701,-0.159547,0.962986,-9.69071,-5.50797,-0.727741,85.0832
2023-03-11 17:56:35:711,-0.154369,0.954553,-9.68196,-5.5085,-0.718009,85.0691
2023-03-11 17:56:35:721,-0.122738,0.94124,-9.6905,-5.51387,-0.705035,85.0567
2023-03-11 17:56:35:731,-0.0735274,0.960027,-9.72034,-5.52123,-0.69239,85.0387
2023-03-11 17:56:35:741,-0.0409082,0.978708,-9.76297,-5.53099,-0.679976,85.023
2023-03-11 17:56:35:751,-0.0238662,0.995791,-9.81567,-5.53927,-0.663495,85.0076
2023-03-11 17:56:35:761,0.012229,0.995043,-9.86222,-5.54536,-0.654684,84.9932
2023-03-11 17:56:35:771,0.0186984,0.981627,-9.82489,-5.5476,-0.646711,84.9856
2023-03-11 17:56:35:781,0.00298444,0.961047,-9.75921,-5.55193,-0.647258,84.9813
2023-03-11 17:56:35:791,-0.0279907,0.955954,-9.71025,-5.55341,-0.647084,84.9793
2023-03-11 17:56:35:801,-0.0475314,0.97298,-9.69552,-5.5568,-0.645843,84.9813
2023-03-11 17:56:35:811,-0.0489576,0.969129,-9.70628,-5.56089,-0.644271,84.9839
2023-03-11 17:56:35:821,-0.0458257,0.978486,-9.69922,-5.56615,-0.645099,84.9857
2023-03-11 17:56:35:831,-0.0467765,0.981887,-9.68332,-5.57109,-0.646001,84.9954
2023-03-11 17:56:35:841,-0.0609416,0.986714,-9.68044,-5.57807,-0.649774,85.0062
2023-03-11 17:56:35:851,-0.0910126,0.991546,-9.69768,-5.58626,-0.654635,85.0164
2023-03-11 17:56:35:861,-0.111394,1.02425,-9.69625,-5.59831,-0.660848,85.0293
2023-03-11 17:56:35:871,-0.131667,1.02762,-9.70498,-5.60923,-0.670286,85.0405
2023-03-11 17:56:35:881,-0.134346,1.02968,-9.73954,-5.62132,-0.67526,85.0491
2023-03-11 17:56:35:891,-0.127667,1.01847,-9.73784,-5.63223,-0.68058,85.0553
2023-03-11 17:56:35:901,-0.120231,1.01746,-9.74393,-5.64129,-0.691917,85.0636
2023-03-11 17:56:35:911,-0.131277,1.01702,-9.75971,-5.65466,-0.699661,85.0696
2023-03-11 17:56:35:921,-0.15234,1.03114,-9.76808,-5.66548,-0.706926,85.0764
2023-03-11 17:56:35:931,-0.154281,1.04152,-9.77201,-5.67696,-0.712944,85.0804
2023-03-11 17:56:35:941,-0.131126,1.043,-9.74913,-5.68951,-0.720184,85.0853
2023-03-11 17:56:35:951,-0.158528,1.04196,-9.7262,-5.69798,-0.723876,85.0874
2023-03-11 17:56:35:961,-0.186348,1.0443,-9.72259,-5.70965,-0.731709,85.0904
2023-03-11 17:56:35:971,-0.189972,1.04614,-9.73328,-5.72112,-0.736635,85.094
2023-03-11 17:56:35:981,-0.175434,1.06434,-9.77499,-5.73242,-0.737532,85.0942
2023-03-11 17:56:35:991,-0.130084,1.07613,-9.77682,-5.74134,-0.734603,85.0908
2023-03-11 17:56:36:1,-0.116285,1.0574,-9.74247,-5.74875,-0.732659,85.0848
2023-03-11 17:56:36:11,-0.124552,1.04565,-9.71797,-5.75193,-0.73072,85.0775
2023-03-11 17:56:36:21,-0.131621,1.04662,-9.72626,-5.75195,-0.732918,85.0739
2023-03-11 17:56:36:31,-0.140796,1.052,-9.75573,-5.75448,-0.735644,85.0722
2023-03-11 17:56:36:41,-0.133796,1.04265,-9.76266,-5.75582,-0.731378,85.0679
2023-03-11 17:56:36:51,-0.10003,1.04167,-9.77688,-5.75541,-0.725307,85.065
2023-03-11 17:56:36:61,-0.086879,1.03825,-9.77416,-5.75286,-0.717152,85.0654
2023-03-11 17:56:36:71,-0.0877828,1.02469,-9.76629,-5.74648,-0.706585,85.066
2023-03-11 17:56:36:81,-0.0982374,1.02154,-9.75773,-5.73886,-0.700956,85.0687
2023-03-11 17:56:36:91,-0.108563,1.02046,-9.75161,-5.73335,-0.696147,85.0727
2023-03-11 17:56:36:101,-0.106665,1.02446,-9.73104,-5.73,-0.690148,85.0716
2023-03-11 17:56:36:111,-0.112503,1.01838,-9.69824,-5.72424,-0.68499,85.0697
2023-03-11 17:56:36:121,-0.106128,1.0034,-9.68736,-5.72003,-0.684091,85.0678
2023-03-11 17:56:36:131,-0.119477,0.992185,-9.69601,-5.71956,-0.681938,85.0638
2023-03-11 17:56:36:141,-0.125517,0.98484,-9.69185,-5.72251,-0.68428,85.0571
2023-03-11 17:56:36:151,-0.122,0.978689,-9.68918,-5.72181,-0.688654,85.0501
2023-03-11 17:56:36:161,-0.116358,0.987896,-9.69074,-5.72236,-0.693979,85.0443
2023-03-11 17:56:36:171,-0.0936745,0.986528,-9.7025,-5.72684,-0.696705,85.0365
2023-03-11 17:56:36:181,-0.076317,0.985146,-9.71696,-5.73216,-0.696888,85.0306
2023-03-11 17:56:36:191,-0.0685351,0.988351,-9.71721,-5.73956,-0.695823,85.0292
2023-03-11 17:56:36:201,-0.0652108,0.98411,-9.72761,-5.74781,-0.693957,85.0337
2023-03-11 17:56:36:211,-0.0778897,1.00824,-9.75755,-5.75872,-0.690155,85.0398
2023-03-11 17:56:36:221,-0.0902531,1.02922,-9.78057,-5.76984,-0.685586,85.0499
2023-03-11 17:56:36:231,-0.10362,1.03638,-9.76586,-5.78264,-0.681548,85.062
2023-03-11 17:56:36:241,-0.119086,1.04805,-9.75967,-5.79268,-0.678,85.0748
2023-03-11 17:56:36:251,-0.132064,1.04196,-9.75845,-5.80447,-0.675795,85.088
2023-03-11 17:56:36:261,-0.14661,1.05908,-9.74183,-5.81163,-0.672777,85.0995
2023-03-11 17:56:36:271,-0.158123,1.05301,-9.72708,-5.81584,-0.674421,85.1129
2023-03-11 17:56:36:281,-0.174883,1.0425,-9.7068,-5.81845,-0.674878,85.1196
2023-03-11 17:56:36:291,-0.191723,1.05191,-9.69214,-5.82397,-0.677556,85.1228
2023-03-11 17:56:36:301,-0.184829,1.05061,-9.67468,-5.8265,-0.676107,85.1229
2023-03-11 17:56:36:311,-0.17274,1.03612,-9.6719,-5.83015,-0.675313,85.119
2023-03-11 17:56:36:321,-0.15065,1.05173,-9.69622,-5.83871,-0.674857,85.1127
2023-03-11 17:56:36:331,-0.119596,1.09159,-9.74853,-5.85254,-0.676861,85.1024
2023-03-11 17:56:36:341,-0.0833938,1.09779,-9.82919,-5.86096,-0.671509,85.0947
2023-03-11 17:56:36:351,-0.0592836,1.0935,-9.84679,-5.8677,-0.664033,85.0856
2023-03-11 17:56:36:361,-0.0598047,1.08839,-9.82323,-5.8714,-0.657131,85.0799
2023-03-11 17:56:36:371,-0.0698196,1.09465,-9.80197,-5.87112,-0.64944,85.0799
2023-03-11 17:56:36:381,-0.0927785,1.09008,-9.78913,-5.86267,-0.642769,85.0772
2023-03-11 17:56:36:391,-0.110862,1.07494,-9.74504,-5.85279,-0.641494,85.0777
2023-03-11 17:56:36:401,-0.119304,1.05505,-9.68448,-5.84142,-0.642174,85.0796
2023-03-11 17:56:36:411,-0.129614,1.02737,-9.66684,-5.83118,-0.644995,85.0789
2023-03-11 17:56:36:421,-0.130782,1.04104,-9.68207,-5.8299,-0.647736,85.0768
2023-03-11 17:56:36:431,-0.134518,1.04372,-9.71759,-5.82804,-0.65003,85.0772
2023-03-11 17:56:36:441,-0.147012,1.05215,-9.74729,-5.82685,-0.647426,85.0755
2023-03-11 17:56:36:451,-0.149264,1.06745,-9.77917,-5.82963,-0.648699,85.0724
2023-03-11 17:56:36:461,-0.156203,1.05533,-9.77043,-5.82718,-0.649109,85.07
2023-03-11 17:56:36:471,-0.162835,1.0461,-9.76122,-5.82315,-0.649909,85.0656
2023-03-11 17:56:36:481,-0.169021,1.03816,-9.72087,-5.81456,-0.648064,85.0621
2023-03-11 17:56:36:491,-0.163751,1.02023,-9.68569,-5.80766,-0.643824,85.0555
2023-03-11 17:56:36:501,-0.142601,0.999503,-9.68143,-5.80031,-0.637784,85.0526
2023-03-11 17:56:36:511,-0.114154,0.988674,-9.68386,-5.79745,-0.63236,85.0468
2023-03-11 17:56:36:521,-0.092388,0.998564,-9.73404,-5.79699,-0.624174,85.0415
2023-03-11 17:56:36:531,-0.0621586,1.02934,-9.81916,-5.8003,-0.616512,85.0359
2023-03-11 17:56:36:541,-0.0319795,1.06397,-9.85259,-5.80034,-0.607755,85.0333
2023-03-11 17:56:36:551,-0.0133637,1.03523,-9.82798,-5.79686,-0.600748,85.0306
2023-03-11 17:56:36:561,-0.0207058,0.997478,-9.76433,-5.78655,-0.597662,85.0302
2023-03-11 17:56:36:571,-0.0252527,0.99189,-9.70923,-5.77765,-0.598524,85.0293
2023-03-11 17:56:36:581,-0.0354139,0.986866,-9.68411,-5.76958,-0.598948,85.0333
2023-03-11 17:56:36:591,-0.0410455,0.98839,-9.68349,-5.76298,-0.598025,85.0377
2023-03-11 17:56:36:601,-0.0537711,0.994259,-9.6807,-5.7595,-0.599984,85.0456
2023-03-11 17:56:36:611,-0.0663963,0.998778,-9.67629,-5.7604,-0.604261,85.0577
2023-03-11 17:56:36:621,-0.0930909,1.02209,-9.6672,-5.76594,-0.610247,85.0707
2023-03-11 17:56:36:631,-0.143223,1.03841,-9.68949,-5.76876,-0.612226,85.0901
2023-03-11 17:56:36:641,-0.194487,1.03688,-9.71808,-5.77548,-0.617623,85.105
2023-03-11 17:56:36:651,-0.197409,1.05121,-9.73038,-5.78164,-0.620035,85.1194
2023-03-11 17:56:36:661,-0.194194,1.04556,-9.74661,-5.78608,-0.621662,85.1296
2023-03-11 17:56:36:671,-0.178565,1.04334,-9.73403,-5.78935,-0.62097,85.1329
2023-03-11 17:56:36:681,-0.155943,1.04135,-9.73279,-5.79568,-0.619134,85.1342
2023-03-11 17:56:36:691,-0.143906,1.04398,-9.75605,-5.79444,-0.617973,85.135
2023-03-11 17:56:36:701,-0.165123,1.05076,-9.76983,-5.79588,-0.615967,85.1352
2023-03-11 17:56:36:711,-0.165881,1.0622,-9.7323,-5.79867,-0.611686,85.1326
2023-03-11 17:56:36:721,-0.165922,1.03144,-9.69847,-5.80239,-0.60555,85.128
2023-03-11 17:56:36:731,-0.142801,1.02238,-9.68925,-5.8048,-0.598051,85.1222
2023-03-11 17:56:36:741,-0.13478,1.02817,-9.67662,-5.80722,-0.581669,85.1147
2023-03-11 17:56:36:751,-0.115524,1.02657,-9.71763,-5.81494,-0.564407,85.1087
2023-03-11 17:56:36:761,-0.059515,1.06234,-9.78146,-5.82346,-0.542102,85.1015
2023-03-11 17:56:36:771,0.0120031,1.0669,-9.81841,-5.82904,-0.518438,85.0912
2023-03-11 17:56:36:781,0.0323462,1.06561,-9.80929,-5.83119,-0.498289,85.0811
2023-03-11 17:56:36:791,0.000236124,1.05841,-9.78514,-5.83255,-0.483177,85.0709
2023-03-11 17:56:36:801,-0.0361461,1.05386,-9.76039,-5.82736,-0.47333,85.0643
2023-03-11 17:56:36:811,-0.0435263,1.05203,-9.74789,-5.82352,-0.466662,85.0576
2023-03-11 17:56:36:821,-0.0311054,1.04683,-9.73704,-5.81738,-0.459618,85.0495
2023-03-11 17:56:36:831,-0.00644434,1.03132,-9.73211,-5.8072,-0.450375,85.0389
2023-03-11 17:56:36:841,0.0138095,1.03858,-9.72789,-5.80056,-0.441893,85.0277
2023-03-11 17:56:36:851,0.0205945,1.05024,-9.72453,-5.79698,-0.435517,85.0182
2023-03-11 17:56:36:861,0.0210452,1.04285,-9.73553,-5.79,-0.435495,85.0042
2023-03-11 17:56:36:871,0.0398494,1.03252,-9.73511,-5.78476,-0.433867,84.9956
2023-03-11 17:56:36:881,0.0700347,1.02546,-9.74854,-5.78329,-0.433801,84.9873
2023-03-11 17:56:36:891,0.0839865,1.04114,-9.77399,-5.78112,-0.433738,84.9802
2023-03-11 17:56:36:901,0.0793559,1.05013,-9.77254,-5.77443,-0.439923,84.9756
2023-03-11 17:56:36:911,0.0807929,1.04012,-9.77209,-5.76729,-0.448369,84.9753
2023-03-11 17:56:36:921,0.082251,1.02713,-9.77066,-5.76042,-0.456555,84.9819
2023-03-11 17:56:36:931,0.0655108,1.0084,-9.76626,-5.74857,-0.474593,84.9942
2023-03-11 17:56:36:941,0.00698141,1.00033,-9.75911,-5.73512,-0.491248,85.0118
2023-03-11 17:56:36:951,-0.0643431,1.01114,-9.73667,-5.71993,-0.511724,85.0349
2023-03-11 17:56:36:961,-0.11842,0.998748,-9.71852,-5.70411,-0.533902,85.0623
2023-03-11 17:56:36:971,-0.153792,0.986083,-9.71654,-5.68822,-0.55277,85.0916
2023-03-11 17:56:36:981,-0.184428,0.986641,-9.71549,-5.67755,-0.571051,85.1208
2023-03-11 17:56:36:991,-0.206006,0.981589,-9.73448,-5.66638,-0.589941,85.1486
2023-03-11 17:56:37:1,-0.220373,0.993479,-9.74154,-5.65524,-0.60538,85.1762
2023-03-11 17:56:37:11,-0.223159,0.994939,-9.75904,-5.64354,-0.620032,85.1988
2023-03-11 17:56:37:21,-0.227136,0.997569,-9.75041,-5.63574,-0.637976,85.2159
2023-03-11 17:56:37:31,-0.214953,0.98221,-9.74721,-5.62517,-0.655184,85.2285
2023-03-11 17:56:37:41,-0.209564,0.963992,-9.72956,-5.61105,-0.668866,85.2389
2023-03-11 17:56:37:51,-0.204911,0.944546,-9.70411,-5.59876,-0.681528,85.2479
2023-03-11 17:56:37:61,-0.189329,0.940417,-9.69955,-5.58709,-0.690564,85.2537
2023-03-11 17:56:37:71,-0.178958,0.942184,-9.72068,-5.57596,-0.694976,85.2561
2023-03-11 17:56:37:81,-0.155625,0.950638,-9.72284,-5.56959,-0.701335,85.2566
2023-03-11 17:56:37:91,-0.131479,0.956229,-9.71554,-5.56215,-0.705334,85.2566
2023-03-11 17:56:37:101,-0.11474,0.943177,-9.72539,-5.55336,-0.704954,85.2561
2023-03-11 17:56:37:111,-0.104051,0.927521,-9.73978,-5.5459,-0.705211,85.2583
2023-03-11 17:56:37:121,-0.0899467,0.936187,-9.74979,-5.53935,-0.705199,85.2602
2023-03-11 17:56:37:131,-0.0804126,0.940266,-9.74042,-5.5341,-0.705898,85.2668
2023-03-11 17:56:37:141,-0.0944432,0.929494,-9.74403,-5.52875,-0.709848,85.2731
2023-03-11 17:56:37:151,-0.103322,0.925837,-9.72923,-5.52381,-0.711319,85.2773
2023-03-11 17:56:37:161,-0.126482,0.928183,-9.69427,-5.52168,-0.715972,85.2847
2023-03-11 17:56:37:171,-0.125926,0.92197,-9.67899,-5.51998,-0.723962,85.2924
2023-03-11 17:56:37:181,-0.12326,0.930212,-9.68116,-5.52763,-0.724496,85.2998
2023-03-11 17:56:37:191,-0.122184,0.955326,-9.67748,-5.5397,-0.73155,85.3053
2023-03-11 17:56:37:201,-0.133511,0.961134,-9.68267,-5.55168,-0.73707,85.3097
2023-03-11 17:56:37:211,-0.117607,0.961915,-9.71734,-5.56351,-0.74236,85.3171
2023-03-11 17:56:37:221,-0.122809,0.987345,-9.75733,-5.58243,-0.751647,85.3195
2023-03-11 17:56:37:231,-0.14878,1.00548,-9.78515,-5.5983,-0.762798,85.3236
2023-03-11 17:56:37:241,-0.132877,1.01224,-9.77115,-5.61201,-0.768571,85.3291
2023-03-11 17:56:37:251,-0.11988,1.0332,-9.73665,-5.62442,-0.773055,85.334
2023-03-11 17:56:37:261,-0.125795,1.01865,-9.70991,-5.63574,-0.77834,85.332
2023-03-11 17:56:37:271,-0.12534,1.00605,-9.69208,-5.64699,-0.783721,85.3289
2023-03-11 17:56:37:281,-0.12409,0.999544,-9.70325,-5.66014,-0.787092,85.3294
2023-03-11 17:56:37:291,-0.135457,1.00134,-9.74932,-5.67118,-0.796065,85.3281
2023-03-11 17:56:37:301,-0.148708,1.04829,-9.82635,-5.68923,-0.802765,85.3264
2023-03-11 17:56:37:311,-0.1525,1.11076,-9.89568,-5.70634,-0.81177,85.3244
2023-03-11 17:56:37:321,-0.124512,1.12003,-9.93206,-5.71525,-0.820441,85.3155
2023-03-11 17:56:37:331,-0.105876,1.10335,-9.88283,-5.7129,-0.831798,85.3006
2023-03-11 17:56:37:341,-0.0974837,1.05687,-9.78813,-5.69968,-0.845223,85.286
2023-03-11 17:56:37:351,-0.090839,1.01284,-9.69702,-5.6844,-0.860499,85.2727
2023-03-11 17:56:37:361,-0.0845441,0.998918,-9.64085,-5.67047,-0.879893,85.2623
2023-03-11 17:56:37:371,-0.0939014,0.984464,-9.61308,-5.66175,-0.904064,85.2545
2023-03-11 17:56:37:381,-0.113834,0.974375,-9.62021,-5.65922,-0.929474,85.2496
2023-03-11 17:56:37:391,-0.142138,0.98745,-9.60805,-5.66444,-0.955607,85.2484
2023-03-11 17:56:37:401,-0.170628,0.996516,-9.64643,-5.67781,-0.980853,85.2509
2023-03-11 17:56:37:411,-0.199985,1.01245,-9.69953,-5.69416,-1.00816,85.2567
2023-03-11 17:56:37:421,-0.239869,1.05111,-9.73062,-5.71486,-1.03239,85.2632
2023-03-11 17:56:37:431,-0.263346,1.0674,-9.72694,-5.73669,-1.05546,85.273
2023-03-11 17:56:37:441,-0.254884,1.06274,-9.71825,-5.75713,-1.07139,85.2815
2023-03-11 17:56:37:451,-0.238608,1.06368,-9.71241,-5.77421,-1.0865,85.2915
2023-03-11 17:56:37:461,-0.244033,1.04849,-9.676,-5.79365,-1.10266,85.2992
2023-03-11 17:56:37:471,-0.241946,1.03591,-9.65396,-5.81359,-1.11894,85.3068
2023-03-11 17:56:37:481,-0.246137,1.06783,-9.68306,-5.84264,-1.13456,85.3117
2023-03-11 17:56:37:491,-0.238449,1.10426,-9.69988,-5.88068,-1.14098,85.3225
2023-03-11 17:56:37:501,-0.206256,1.09252,-9.68578,-5.91429,-1.14139,85.3294
2023-03-11 17:56:37:511,-0.185997,1.08931,-9.66732,-5.94553,-1.14571,85.3393
2023-03-11 17:56:37:521,-0.171385,1.09766,-9.68544,-5.97566,-1.15138,85.3507
2023-03-11 17:56:37:531,-0.186033,1.15134,-9.76217,-6.01439,-1.1537,85.3627
2023-03-11 17:56:37:541,-0.194302,1.21197,-9.85117,-6.05218,-1.1581,85.3794
2023-03-11 17:56:37:551,-0.186229,1.22289,-9.89246,-6.08371,-1.16592,85.3931
2023-03-11 17:56:37:561,-0.17847,1.21238,-9.85223,-6.1029,-1.17159,85.4094
2023-03-11 17:56:37:571,-0.201829,1.20622,-9.79644,-6.11489,-1.17635,85.4244
2023-03-11 17:56:37:581,-0.224079,1.19246,-9.78211,-6.12218,-1.17755,85.4408
2023-03-11 17:56:37:591,-0.238124,1.18539,-9.76269,-6.12696,-1.18228,85.4584
2023-03-11 17:56:37:601,-0.245818,1.16468,-9.74352,-6.12751,-1.18055,85.476
2023-03-11 17:56:37:611,-0.230681,1.14971,-9.72137,-6.12684,-1.17905,85.4875
2023-03-11 17:56:37:621,-0.242713,1.14653,-9.70824,-6.12326,-1.17769,85.4984
2023-03-11 17:56:37:631,-0.269353,1.14569,-9.70066,-6.12272,-1.17698,85.5074
2023-03-11 17:56:37:641,-0.284444,1.15014,-9.7049,-6.12509,-1.17707,85.5147
2023-03-11 17:56:37:651,-0.290239,1.14053,-9.72443,-6.12433,-1.18155,85.5156
2023-03-11 17:56:37:661,-0.297291,1.14635,-9.7377,-6.12353,-1.18723,85.5113
2023-03-11 17:56:37:671,-0.278437,1.14114,-9.73778,-6.12495,-1.19385,85.5018
2023-03-11 17:56:37:681,-0.249323,1.12752,-9.74922,-6.11905,-1.2051,85.4876
2023-03-11 17:56:37:691,-0.227864,1.12405,-9.75365,-6.11628,-1.21598,85.4688
2023-03-11 17:56:37:701,-0.225292,1.11606,-9.7387,-6.10955,-1.23004,85.4486
2023-03-11 17:56:37:711,-0.209928,1.09995,-9.73034,-6.10208,-1.24222,85.432
2023-03-11 17:56:37:721,-0.194492,1.09938,-9.72084,-6.09413,-1.2527,85.4105
2023-03-11 17:56:37:731,-0.178714,1.09764,-9.71962,-6.08855,-1.26268,85.396
2023-03-11 17:56:37:741,-0.160755,1.08234,-9.71916,-6.08263,-1.27312,85.3847
2023-03-11 17:56:37:751,-0.171509,1.07325,-9.72314,-6.07734,-1.28225,85.378
2023-03-11 17:56:37:761,-0.181414,1.08972,-9.72182,-6.06956,-1.28945,85.3758
2023-03-11 17:56:37:771,-0.185413,1.0799,-9.72682,-6.06634,-1.29353,85.3756
2023-03-11 17:56:37:781,-0.186292,1.0724,-9.72191,-6.05911,-1.2993,85.3793
2023-03-11 17:56:37:791,-0.201382,1.07428,-9.72679,-6.05339,-1.30336,85.3858
2023-03-11 17:56:37:801,-0.234471,1.10503,-9.73909,-6.05084,-1.30962,85.3911
2023-03-11 17:56:37:811,-0.260932,1.11187,-9.76604,-6.04315,-1.3182,85.4029
2023-03-11 17:56:37:821,-0.269847,1.10195,-9.78342,-6.03657,-1.32625,85.4128
2023-03-11 17:56:37:831,-0.265219,1.08312,-9.77234,-6.02526,-1.33382,85.4218
2023-03-11 17:56:37:841,-0.255624,1.07276,-9.7439,-6.01386,-1.34062,85.4308
2023-03-11 17:56:37:851,-0.258306,1.05515,-9.71968,-6.00085,-1.34347,85.4403
2023-03-11 17:56:37:861,-0.261162,1.04915,-9.6965,-5.98608,-1.34375,85.4486
2023-03-11 17:56:37:871,-0.263535,1.03556,-9.69243,-5.97354,-1.34747,85.4554
2023-03-11 17:56:37:881,-0.265081,1.0432,-9.69877,-5.9642,-1.34348,85.4594
2023-03-11 17:56:37:891,-0.250008,1.05202,-9.72056,-5.95457,-1.34181,85.4658
2023-03-11 17:56:37:901,-0.241564,1.05814,-9.73724,-5.94527,-1.34126,85.4704
2023-03-11 17:56:37:911,-0.232356,1.04763,-9.73972,-5.935,-1.34125,85.4718
2023-03-11 17:56:37:921,-0.222709,1.05311,-9.7254,-5.92833,-1.34083,85.4725
2023-03-11 17:56:37:931,-0.208402,1.03633,-9.74088,-5.91837,-1.34342,85.4736
2023-03-11 17:56:37:941,-0.217171,1.0489,-9.76293,-5.91187,-1.34719,85.4751
2023-03-11 17:56:37:951,-0.222819,1.04815,-9.76652,-5.898,-1.3505,85.4808
2023-03-11 17:56:37:961,-0.223713,1.0321,-9.73746,-5.88579,-1.35389,85.4825
2023-03-11 17:56:37:971,-0.214044,1.01382,-9.71718,-5.86833,-1.35703,85.4829
2023-03-11 17:56:37:981,-0.226805,1.01311,-9.71518,-5.85324,-1.36106,85.486
2023-03-11 17:56:37:991,-0.239403,0.993617,-9.71592,-5.8348,-1.36342,85.4905
2023-03-11 17:56:38:1,-0.271567,1.00722,-9.74763,-5.82095,-1.36434,85.496
2023-03-11 17:56:38:11,-0.290015,1.02274,-9.77218,-5.80906,-1.36463,85.5036
2023-03-11 17:56:38:21,-0.289263,1.01842,-9.77095,-5.79352,-1.36222,85.509
2023-03-11 17:56:38:31,-0.28168,0.999493,-9.7517,-5.77837,-1.3602,85.5146
2023-03-11 17:56:38:41,-0.274502,0.989527,-9.73493,-5.76037,-1.35493,85.5135
2023-03-11 17:56:38:51,-0.266635,0.978963,-9.70192,-5.7424,-1.35011,85.5109
2023-03-11 17:56:38:61,-0.24023,0.958271,-9.69431,-5.72661,-1.3417,85.5061
2023-03-11 17:56:38:71,-0.227091,0.963458,-9.69739,-5.7102,-1.33372,85.5029
2023-03-11 17:56:38:81,-0.201227,0.950683,-9.71318,-5.6962,-1.32059,85.4949
2023-03-11 17:56:38:91,-0.162241,0.959693,-9.76265,-5.68071,-1.31267,85.4882
2023-03-11 17:56:38:101,-0.140746,0.957478,-9.76116,-5.66867,-1.30577,85.4775
2023-03-11 17:56:38:111,-0.128578,0.92274,-9.72256,-5.65597,-1.30236,85.4678
2023-03-11 17:56:38:121,-0.146981,0.903899,-9.69168,-5.64507,-1.30008,85.4628
2023-03-11 17:56:38:131,-0.154497,0.922647,-9.69178,-5.64,-1.30245,85.4621
2023-03-11 17:56:38:141,-0.148718,0.94626,-9.72807,-5.63903,-1.30275,85.4613
2023-03-11 17:56:38:151,-0.15158,0.967986,-9.749,-5.64555,-1.30146,85.4633
2023-03-11 17:56:38:161,-0.151168,0.96824,-9.72597,-5.64979,-1.30069,85.4698
2023-03-11 17:56:38:171,-0.181239,0.972444,-9.71041,-5.65427,-1.30175,85.4792
2023-03-11 17:56:38:181,-0.192814,0.976175,-9.68288,-5.6558,-1.30209,85.4884
2023-03-11 17:56:38:191,-0.212805,0.978691,-9.69892,-5.65955,-1.305,85.5038
2023-03-11 17:56:38:201,-0.220095,0.988076,-9.70831,-5.66328,-1.30696,85.5164
2023-03-11 17:56:38:211,-0.219246,0.993201,-9.70899,-5.66861,-1.30398,85.5308
2023-03-11 17:56:38:221,-0.211092,0.992026,-9.7059,-5.67334,-1.30513,85.541
2023-03-11 17:56:38:231,-0.218219,0.994708,-9.7,-5.67639,-1.30614,85.5513
2023-03-11 17:56:38:241,-0.220422,0.995086,-9.70322,-5.68329,-1.30727,85.5573
2023-03-11 17:56:38:251,-0.245365,1.00481,-9.72906,-5.69513,-1.31356,85.5664
2023-03-11 17:56:38:261,-0.267504,1.02357,-9.76057,-5.70648,-1.32051,85.5709
2023-03-11 17:56:38:271,-0.262888,1.06103,-9.76763,-5.72122,-1.33217,85.5722
2023-03-11 17:56:38:281,-0.262764,1.05108,-9.73731,-5.72908,-1.3405,85.5704
2023-03-11 17:56:38:291,-0.272362,1.04114,-9.71662,-5.73787,-1.34525,85.5642
2023-03-11 17:56:38:301,-0.285191,1.03585,-9.69439,-5.74796,-1.35315,85.559
2023-03-11 17:56:38:311,-0.279882,1.05279,-9.72326,-5.7599,-1.3541,85.553
2023-03-11 17:56:38:321,-0.241177,1.06885,-9.78331,-5.76912,-1.34759,85.5438
2023-03-11 17:56:38:331,-0.179897,1.05782,-9.78244,-5.77568,-1.34517,85.5313
2023-03-11 17:56:38:341,-0.193311,1.0392,-9.77417,-5.7782,-1.34496,85.5206
2023-03-11 17:56:38:351,-0.1965,1.05126,-9.76056,-5.77988,-1.34317,85.5133
2023-03-11 17:56:38:361,-0.207232,1.04856,-9.74582,-5.77911,-1.34376,85.5082
2023-03-11 17:56:38:371,-0.202676,1.0324,-9.73078,-5.77343,-1.33915,85.5085
2023-03-11 17:56:38:381,-0.180184,1.01504,-9.72695,-5.76792,-1.33608,85.5064
2023-03-11 17:56:38:391,-0.183017,1.01727,-9.73861,-5.76002,-1.33129,85.5044
2023-03-11 17:56:38:401,-0.183573,1.02245,-9.73288,-5.75317,-1.32698,85.5055
2023-03-11 17:56:38:411,-0.162542,1.01227,-9.71406,-5.74922,-1.32343,85.502
2023-03-11 17:56:38:421,-0.131876,0.984231,-9.71245,-5.74518,-1.32609,85.502
2023-03-11 17:56:38:431,-0.116046,0.999851,-9.75627,-5.74639,-1.33416,85.5025
2023-03-11 17:56:38:441,-0.141657,1.04447,-9.81141,-5.74947,-1.3456,85.5048
2023-03-11 17:56:38:451,-0.164498,1.06277,-9.82863,-5.75092,-1.35935,85.5143
2023-03-11 17:56:38:461,-0.200103,1.05414,-9.81118,-5.74787,-1.37836,85.5263
2023-03-11 17:56:38:471,-0.226506,1.06267,-9.78514,-5.7411,-1.40184,85.5389
2023-03-11 17:56:38:481,-0.246974,1.04877,-9.76838,-5.73229,-1.42199,85.5485
2023-03-11 17:56:38:491,-0.278983,1.04045,-9.75389,-5.7163,-1.44136,85.5631
2023-03-11 17:56:38:501,-0.27495,1.03877,-9.73225,-5.69958,-1.46198,85.5769
2023-03-11 17:56:38:511,-0.288229,1.01939,-9.72812,-5.68215,-1.47846,85.5878
2023-03-11 17:56:38:521,-0.295736,1.00355,-9.72423,-5.66278,-1.50284,85.5981
2023-03-11 17:56:38:531,-0.306071,1.00577,-9.70506,-5.64624,-1.52455,85.6108
2023-03-11 17:56:38:541,-0.3325,1.00845,-9.72102,-5.62932,-1.54735,85.6202
2023-03-11 17:56:38:551,-0.358654,1.00439,-9.72585,-5.61156,-1.56966,85.6293
2023-03-11 17:56:38:561,-0.370872,0.99528,-9.71082,-5.59436,-1.58843,85.6342
2023-03-11 17:56:38:571,-0.427969,0.993635,-9.71249,-5.57991,-1.60588,85.64
2023-03-11 17:56:38:581,-0.433842,1.00195,-9.7158,-5.56718,-1.61865,85.6428
2023-03-11 17:56:38:591,-0.370745,0.985158,-9.7137,-5.55169,-1.6293,85.6366
2023-03-11 17:56:38:601,-0.314704,0.971863,-9.69408,-5.53748,-1.63537,85.6256
2023-03-11 17:56:38:611,-0.330803,0.968538,-9.68814,-5.52723,-1.64179,85.6156
2023-03-11 17:56:38:621,-0.358373,0.959432,-9.68205,-5.52074,-1.64777,85.6085
2023-03-11 17:56:38:631,-0.331415,0.95559,-9.66169,-5.51613,-1.65067,85.6036
2023-03-11 17:56:38:641,-0.290449,0.951851,-9.66031,-5.51328,-1.64725,85.5933
2023-03-11 17:56:38:651,-0.279043,0.968449,-9.68194,-5.51565,-1.64341,85.5835
2023-03-11 17:56:38:661,-0.291744,0.990861,-9.70611,-5.52029,-1.63936,85.5769
2023-03-11 17:56:38:671,-0.284054,0.998252,-9.73592,-5.52386,-1.63162,85.5704
2023-03-11 17:56:38:681,-0.251282,0.99055,-9.74856,-5.52257,-1.62912,85.567
2023-03-11 17:56:38:691,-0.267033,0.987421,-9.72713,-5.52229,-1.62221,85.5593
2023-03-11 17:56:38:701,-0.259434,0.988611,-9.69881,-5.52209,-1.61337,85.5524
2023-03-11 17:56:38:711,-0.247394,0.991897,-9.68889,-5.52326,-1.6056,85.5445
2023-03-11 17:56:38:721,-0.229871,0.994066,-9.69971,-5.53011,-1.59892,85.5397
2023-03-11 17:56:38:731,-0.220711,0.996883,-9.70899,-5.53884,-1.59461,85.532
2023-03-11 17:56:38:741,-0.230382,1.0029,-9.74,-5.54494,-1.59212,85.5264
2023-03-11 17:56:38:751,-0.243278,1.03115,-9.78578,-5.55264,-1.58666,85.5232
2023-03-11 17:56:38:761,-0.242799,1.0443,-9.80687,-5.55848,-1.58317,85.5233
2023-03-11 17:56:38:771,-0.252099,1.0382,-9.79765,-5.56083,-1.58139,85.5235
2023-03-11 17:56:38:780,-0.256188,1.03789,-9.77456,-5.56035,-1.58154,85.5224
2023-03-11 17:56:38:791,-0.250686,1.02761,-9.76685,-5.5588,-1.57879,85.5242
2023-03-11 17:56:38:801,-0.240563,1.03494,-9.76311,-5.55407,-1.57797,85.5252
2023-03-11 17:56:38:811,-0.229384,1.01728,-9.75615,-5.54647,-1.57596,85.5273
2023-03-11 17:56:38:821,-0.203701,0.98836,-9.75506,-5.5356,-1.57269,85.5284
2023-03-11 17:56:38:831,-0.207355,0.984037,-9.78535,-5.52736,-1.56742,85.5313
2023-03-11 17:56:38:841,-0.218458,1.01072,-9.79616,-5.51747,-1.56876,85.5343
2023-03-11 17:56:38:851,-0.206356,0.999478,-9.77862,-5.50401,-1.57176,85.5384
2023-03-11 17:56:38:861,-0.207209,0.976784,-9.73808,-5.48653,-1.57498,85.5432
2023-03-11 17:56:38:871,-0.233722,0.95487,-9.70929,-5.47229,-1.58504,85.5484
2023-03-11 17:56:38:881,-0.264057,0.951298,-9.70287,-5.46051,-1.59572,85.5536
2023-03-11 17:56:38:891,-0.294479,0.95521,-9.72375,-5.45378,-1.61112,85.5629
2023-03-11 17:56:38:901,-0.30826,0.97114,-9.72588,-5.44467,-1.62855,85.5724
2023-03-11 17:56:38:911,-0.317535,0.963861,-9.71293,-5.4391,-1.64418,85.581
2023-03-11 17:56:38:921,-0.322225,0.954645,-9.69205,-5.42917,-1.65904,85.5887
2023-03-11 17:56:38:931,-0.321401,0.959592,-9.6744,-5.42129,-1.6703,85.5985
2023-03-11 17:56:38:941,-0.347509,0.962347,-9.67869,-5.41639,-1.68097,85.6077
2023-03-11 17:56:38:950,-0.355411,0.974576,-9.69319,-5.41332,-1.68937,85.6196
2023-03-11 17:56:38:961,-0.350686,0.960442,-9.70737,-5.40934,-1.69988,85.6263
2023-03-11 17:56:38:971,-0.361005,0.951864,-9.70673,-5.40589,-1.70532,85.6342
2023-03-11 17:56:38:981,-0.366689,0.967698,-9.70115,-5.40429,-1.70677,85.6424
2023-03-11 17:56:38:991,-0.359263,0.963933,-9.71216,-5.40529,-1.71073,85.6473
2023-03-11 17:56:39:1,-0.359193,0.973517,-9.72658,-5.40721,-1.70987,85.6527
2023-03-11 17:56:39:11,-0.353347,0.977355,-9.73835,-5.40925,-1.70775,85.6578
2023-03-11 17:56:39:21,-0.330354,0.98026,-9.74802,-5.41344,-1.70348,85.662
2023-03-11 17:56:39:31,-0.320543,0.97301,-9.73234,-5.41396,-1.69876,85.6635
2023-03-11 17:56:39:41,-0.337596,0.970729,-9.75658,-5.42161,-1.69685,85.6625
2023-03-11 17:56:39:51,-0.34528,0.975937,-9.74605,-5.42394,-1.69622,85.6644
2023-03-11 17:56:39:61,-0.34602,0.980919,-9.7554,-5.42445,-1.69108,85.6648
2023-03-11 17:56:39:71,-0.302408,1.00362,-9.76652,-5.42461,-1.68151,85.6608
2023-03-11 17:56:39:80,-0.257467,0.989264,-9.75896,-5.41883,-1.67296,85.6548
2023-03-11 17:56:39:91,-0.248459,0.973708,-9.72887,-5.41206,-1.66624,85.6482
2023-03-11 17:56:39:100,-0.277407,0.949274,-9.72577,-5.40617,-1.66388,85.6443
2023-03-11 17:56:39:111,-0.28255,0.964514,-9.72401,-5.40039,-1.66165,85.642
2023-03-11 17:56:39:121,-0.269326,0.954593,-9.71688,-5.39589,-1.65591,85.6377
2023-03-11 17:56:39:131,-0.24621,0.950854,-9.72555,-5.39283,-1.64687,85.6378
2023-03-11 17:56:39:141,-0.227686,0.944427,-9.7279,-5.38352,-1.63723,85.6389
2023-03-11 17:56:39:151,-0.220166,0.942369,-9.72473,-5.37875,-1.63033,85.6401
2023-03-11 17:56:39:161,-0.255694,0.944628,-9.74158,-5.37153,-1.62567,85.6391
2023-03-11 17:56:39:171,-0.265889,0.965693,-9.75407,-5.3696,-1.62326,85.6392
2023-03-11 17:56:39:181,-0.267772,0.962505,-9.76166,-5.36838,-1.62302,85.6447
2023-03-11 17:56:39:190,-0.289421,0.961275,-9.76404,-5.36413,-1.62366,85.6518
2023-03-11 17:56:39:201,-0.285731,0.953365,-9.75081,-5.35892,-1.62275,85.6544
2023-03-11 17:56:39:211,-0.273147,0.947129,-9.73913,-5.35149,-1.62596,85.6555
2023-03-11 17:56:39:220,-0.284372,0.934245,-9.72434,-5.34484,-1.62605,85.6555
2023-03-11 17:56:39:230,-0.291065,0.93013,-9.69731,-5.3383,-1.62972,85.6563
2023-03-11 17:56:39:241,-0.281956,0.924826,-9.69852,-5.33472,-1.63253,85.6607
2023-03-11 17:56:39:251,-0.265563,0.926921,-9.70916,-5.33573,-1.63497,85.6647
2023-03-11 17:56:39:261,-0.27409,0.929894,-9.71786,-5.3369,-1.63624,85.6662
2023-03-11 17:56:39:271,-0.282488,0.946063,-9.74155,-5.33881,-1.63865,85.6724
2023-03-11 17:56:39:281,-0.284353,0.961204,-9.75289,-5.34182,-1.63831,85.6759
2023-03-11 17:56:39:291,-0.288214,0.959748,-9.75495,-5.34363,-1.64144,85.6819
2023-03-11 17:56:39:301,-0.286254,0.954615,-9.7543,-5.34609,-1.64202,85.6873
2023-03-11 17:56:39:311,-0.296363,0.954087,-9.72976,-5.34795,-1.64256,85.6939
2023-03-11 17:56:39:321,-0.307891,0.94317,-9.7097,-5.34568,-1.64146,85.6999
2023-03-11 17:56:39:331,-0.319745,0.931368,-9.69102,-5.34787,-1.64048,85.7044
2023-03-11 17:56:39:341,-0.316468,0.927478,-9.67553,-5.34969,-1.63563,85.7063
2023-03-11 17:56:39:351,-0.311819,0.929568,-9.66431,-5.35556,-1.63566,85.7105
2023-03-11 17:56:39:361,-0.299142,0.948325,-9.69724,-5.36288,-1.63316,85.7142
2023-03-11 17:56:39:371,-0.305803,0.960742,-9.72872,-5.37397,-1.63202,85.718
2023-03-11 17:56:39:381,-0.304574,0.985285,-9.75872,-5.38839,-1.6303,85.7185
2023-03-11 17:56:39:391,-0.291272,0.986118,-9.77558,-5.40207,-1.62735,85.7196
2023-03-11 17:56:39:401,-0.292168,0.976986,-9.77439,-5.41313,-1.62186,85.7159
2023-03-11 17:56:39:411,-0.277734,0.982115,-9.76556,-5.42322,-1.61834,85.712
2023-03-11 17:56:39:421,-0.266829,0.987671,-9.74273,-5.43218,-1.61679,85.7065
2023-03-11 17:56:39:431,-0.2621,0.974027,-9.72388,-5.4361,-1.61432,85.6987
2023-03-11 17:56:39:441,-0.251972,0.970889,-9.70515,-5.44052,-1.61087,85.6958
2023-03-11 17:56:39:451,-0.235046,0.975867,-9.68441,-5.44639,-1.60686,85.6912
2023-03-11 17:56:39:461,-0.236631,0.982335,-9.69839,-5.45888,-1.60257,85.6891
2023-03-11 17:56:39:471,-0.231144,0.987895,-9.74611,-5.47494,-1.59754,85.6887
2023-03-11 17:56:39:481,-0.241689,1.00272,-9.75638,-5.4882,-1.5945,85.6914
2023-03-11 17:56:39:491,-0.26927,1.02473,-9.78072,-5.49647,-1.59551,85.6944
2023-03-11 17:56:39:501,-0.284527,1.03587,-9.80049,-5.5061,-1.59692,85.6962
2023-03-11 17:56:39:511,-0.280733,1.02267,-9.78789,-5.5109,-1.5929,85.6985
2023-03-11 17:56:39:521,-0.297901,1.00617,-9.75249,-5.50888,-1.5896,85.7045
2023-03-11 17:56:39:531,-0.315147,0.990008,-9.73778,-5.50875,-1.58591,85.7092
2023-03-11 17:56:39:541,-0.315213,0.985186,-9.71868,-5.50816,-1.58209,85.713
2023-03-11 17:56:39:551,-0.309802,0.977554,-9.69037,-5.50734,-1.57792,85.7129
2023-03-11 17:56:39:561,-0.294087,0.9809,-9.69348,-5.50596,-1.57066,85.7135
2023-03-11 17:56:39:571,-0.278864,0.994457,-9.73444,-5.5056,-1.56084,85.7118
2023-03-11 17:56:39:581,-0.247095,1.01043,-9.78542,-5.50885,-1.55006,85.706
2023-03-11 17:56:39:591,-0.228023,1.01318,-9.81444,-5.51423,-1.53779,85.7007
2023-03-11 17:56:39:601,-0.207718,0.989439,-9.79676,-5.51003,-1.53166,85.6936
2023-03-11 17:56:39:611,-0.21789,0.963277,-9.74742,-5.50423,-1.53226,85.6857
2023-03-11 17:56:39:621,-0.224757,0.942773,-9.70392,-5.49924,-1.5334,85.6802
2023-03-11 17:56:39:631,-0.242947,0.944613,-9.69334,-5.49605,-1.5375,85.6749
2023-03-11 17:56:39:641,-0.239828,0.952027,-9.68846,-5.49855,-1.54139,85.6714
2023-03-11 17:56:39:651,-0.241836,0.964362,-9.68956,-5.50324,-1.54181,85.6713
2023-03-11 17:56:39:661,-0.229898,0.962631,-9.67482,-5.51114,-1.54054,85.671
2023-03-11 17:56:39:671,-0.230515,0.972993,-9.66278,-5.52093,-1.53845,85.6727
2023-03-11 17:56:39:681,-0.245659,0.985466,-9.66601,-5.52928,-1.53769,85.6772
2023-03-11 17:56:39:691,-0.271555,1.00933,-9.68899,-5.54364,-1.53926,85.6823
2023-03-11 17:56:39:701,-0.288618,1.02074,-9.71451,-5.55455,-1.53899,85.6909
2023-03-11 17:56:39:711,-0.311632,1.03168,-9.72942,-5.56568,-1.53904,85.7017
2023-03-11 17:56:39:721,-0.31752,1.03167,-9.73163,-5.58218,-1.53441,85.7089
2023-03-11 17:56:39:731,-0.323496,1.03639,-9.74182,-5.5964,-1.53045,85.7161
2023-03-11 17:56:39:741,-0.325664,1.02921,-9.74671,-5.60836,-1.52521,85.7191
2023-03-11 17:56:39:751,-0.33118,1.02883,-9.76532,-5.618,-1.52007,85.7245
2023-03-11 17:56:39:761,-0.321755,1.04644,-9.76964,-5.62878,-1.50907,85.7228
2023-03-11 17:56:39:771,-0.290611,1.03785,-9.75199,-5.64059,-1.49863,85.7186
2023-03-11 17:56:39:781,-0.268188,1.04011,-9.72026,-5.65151,-1.48683,85.7158
2023-03-11 17:56:39:791,-0.259985,1.04755,-9.70196,-5.66163,-1.4758,85.7094
2023-03-11 17:56:39:801,-0.260909,1.03403,-9.70837,-5.67252,-1.46548,85.6989
2023-03-11 17:56:39:811,-0.230303,1.07038,-9.74767,-5.68579,-1.44819,85.6904
2023-03-11 17:56:39:821,-0.180479,1.0843,-9.78535,-5.69657,-1.43513,85.6776
2023-03-11 17:56:39:831,-0.144517,1.06553,-9.78895,-5.70125,-1.42369,85.6676
2023-03-11 17:56:39:841,-0.154081,1.05868,-9.78281,-5.70357,-1.41597,85.6582
2023-03-11 17:56:39:851,-0.191593,1.05492,-9.7682,-5.70706,-1.40928,85.6513
2023-03-11 17:56:39:861,-0.226965,1.05751,-9.75324,-5.70657,-1.40613,85.645
2023-03-11 17:56:39:871,-0.224695,1.0627,-9.74647,-5.70426,-1.40305,85.6408
2023-03-11 17:56:39:881,-0.18685,1.04613,-9.75482,-5.7009,-1.39726,85.6408
2023-03-11 17:56:39:891,-0.166678,1.0337,-9.75594,-5.69144,-1.38998,85.6351
2023-03-11 17:56:39:901,-0.1687,1.04419,-9.74907,-5.68526,-1.38443,85.632
2023-03-11 17:56:39:911,-0.186124,1.043,-9.74588,-5.68106,-1.38421,85.6308
2023-03-11 17:56:39:921,-0.204352,1.03889,-9.75712,-5.67497,-1.38583,85.6315
2023-03-11 17:56:39:931,-0.216117,1.03628,-9.76225,-5.66765,-1.38582,85.6335
2023-03-11 17:56:39:941,-0.216604,1.03361,-9.7654,-5.65938,-1.38944,85.6326
2023-03-11 17:56:39:951,-0.205907,1.01661,-9.75683,-5.64997,-1.39261,85.6329
2023-03-11 17:56:39:961,-0.169199,0.994383,-9.75028,-5.63706,-1.39607,85.6317
2023-03-11 17:56:39:971,-0.15789,0.987761,-9.72642,-5.62146,-1.40475,85.6308
2023-03-11 17:56:39:981,-0.164836,0.970549,-9.71279,-5.60737,-1.41586,85.6313
2023-03-11 17:56:39:991,-0.193126,0.955637,-9.7005,-5.59837,-1.43021,85.6345
2023-03-11 17:56:40:1,-0.210911,0.95482,-9.69097,-5.58867,-1.44774,85.644
2023-03-11 17:56:40:11,-0.227057,0.941917,-9.68928,-5.57843,-1.45657,85.6547
2023-03-11 17:56:40:21,-0.247093,0.940061,-9.68038,-5.57144,-1.46316,85.6673
2023-03-11 17:56:40:31,-0.270156,0.939015,-9.66852,-5.56699,-1.46661,85.6862
2023-03-11 17:56:40:41,-0.272781,0.944207,-9.6712,-5.56366,-1.46919,85.7048
2023-03-11 17:56:40:51,-0.294534,0.937296,-9.69253,-5.56009,-1.46968,85.7271
2023-03-11 17:56:40:61,-0.300813,0.947372,-9.68553,-5.56044,-1.46928,85.7458
2023-03-11 17:56:40:71,-0.319758,0.951191,-9.68754,-5.56369,-1.47037,85.7657
2023-03-11 17:56:40:81,-0.33503,0.965786,-9.686,-5.57154,-1.46477,85.7794
2023-03-11 17:56:40:91,-0.313318,0.966035,-9.69637,-5.57985,-1.46519,85.7912
2023-03-11 17:56:40:101,-0.309154,0.967717,-9.6978,-5.59351,-1.46158,85.7994
2023-03-11 17:56:40:111,-0.302041,0.980496,-9.70395,-5.61074,-1.45694,85.8011
2023-03-11 17:56:40:121,-0.296844,0.982978,-9.70523,-5.62428,-1.45284,85.8032
2023-03-11 17:56:40:131,-0.28483,0.991315,-9.71643,-5.64403,-1.44857,85.7984
2023-03-11 17:56:40:141,-0.276639,1.01291,-9.7327,-5.66562,-1.44352,85.793
2023-03-11 17:56:40:151,-0.270841,1.02089,-9.75787,-5.68345,-1.44053,85.7867
2023-03-11 17:56:40:161,-0.265608,1.02655,-9.76306,-5.70594,-1.43824,85.7764
2023-03-11 17:56:40:171,-0.264545,1.03262,-9.76717,-5.72466,-1.4335,85.77
2023-03-11 17:56:40:181,-0.253762,1.04393,-9.74583,-5.73991,-1.43129,85.7606
2023-03-11 17:56:40:191,-0.22849,1.04501,-9.74172,-5.75563,-1.42924,85.7512
2023-03-11 17:56:40:201,-0.203899,1.03781,-9.76174,-5.76551,-1.41945,85.7394
2023-03-11 17:56:40:211,-0.170039,1.04259,-9.76845,-5.77745,-1.41426,85.7294
2023-03-11 17:56:40:221,-0.160332,1.02176,-9.74523,-5.7878,-1.41003,85.7216
2023-03-11 17:56:40:231,-0.176742,1.02089,-9.70237,-5.79479,-1.40064,85.7213
2023-03-11 17:56:40:241,-0.229273,1.03046,-9.69643,-5.80681,-1.39196,85.7235
2023-03-11 17:56:40:251,-0.273015,1.04915,-9.72301,-5.81744,-1.38205,85.7311
2023-03-11 17:56:40:261,-0.289729,1.09232,-9.73831,-5.8316,-1.37168,85.7424
2023-03-11 17:56:40:271,-0.293188,1.09836,-9.75502,-5.84417,-1.36132,85.7515
2023-03-11 17:56:40:281,-0.270012,1.09774,-9.74268,-5.85336,-1.35245,85.7547
2023-03-11 17:56:40:291,-0.252605,1.09116,-9.75477,-5.86255,-1.33732,85.753
2023-03-11 17:56:40:301,-0.217653,1.09775,-9.76522,-5.86968,-1.32537,85.7499
2023-03-11 17:56:40:311,-0.207838,1.09252,-9.75759,-5.87443,-1.31457,85.7423
2023-03-11 17:56:40:321,-0.194866,1.08416,-9.75136,-5.87487,-1.30838,85.7318
2023-03-11 17:56:40:331,-0.151071,1.07292,-9.75491,-5.87422,-1.3009,85.7232
2023-03-11 17:56:40:341,-0.105297,1.08279,-9.77769,-5.87592,-1.30216,85.7104
2023-03-11 17:56:40:351,-0.0971039,1.0797,-9.8146,-5.87412,-1.30532,85.6957
2023-03-11 17:56:40:361,-0.0738011,1.06187,-9.79957,-5.87055,-1.31001,85.685
2023-03-11 17:56:40:371,-0.0809025,1.04838,-9.77054,-5.86962,-1.32187,85.6781
2023-03-11 17:56:40:381,-0.100967,1.04366,-9.75765,-5.86367,-1.33294,85.6758
2023-03-11 17:56:40:391,-0.124562,1.04355,-9.74044,-5.85726,-1.34665,85.6785
2023-03-11 17:56:40:401,-0.146516,1.04823,-9.72401,-5.85052,-1.36276,85.6843
2023-03-11 17:56:40:411,-0.160907,1.03841,-9.69889,-5.84811,-1.37629,85.7003
2023-03-11 17:56:40:421,-0.184415,1.02627,-9.66969,-5.84249,-1.38796,85.7176
2023-03-11 17:56:40:431,-0.210274,1.02332,-9.65505,-5.84016,-1.4038,85.7396
2023-03-11 17:56:40:441,-0.255304,1.03088,-9.67028,-5.84042,-1.41956,85.7648
2023-03-11 17:56:40:451,-0.300537,1.04228,-9.68666,-5.84276,-1.43379,85.7913
2023-03-11 17:56:40:461,-0.331629,1.04327,-9.68188,-5.84038,-1.45164,85.8201
2023-03-11 17:56:40:471,-0.363862,1.03754,-9.6945,-5.84042,-1.46916,85.8463
2023-03-11 17:56:40:481,-0.386277,1.02768,-9.69933,-5.8417,-1.4812,85.8669
2023-03-11 17:56:40:491,-0.403129,1.02246,-9.69867,-5.84332,-1.49258,85.8843
2023-03-11 17:56:40:501,-0.400014,1.02881,-9.69654,-5.84481,-1.50488,85.8956
2023-03-11 17:56:40:511,-0.398522,1.01974,-9.709,-5.85007,-1.51467,85.9078
2023-03-11 17:56:40:521,-0.39205,1.03397,-9.72554,-5.85666,-1.51626,85.9127
2023-03-11 17:56:40:531,-0.38324,1.04758,-9.71808,-5.8653,-1.51754,85.9132
2023-03-11 17:56:40:541,-0.3918,1.03157,-9.69348,-5.87587,-1.51449,85.9115
2023-03-11 17:56:40:551,-0.379081,1.04329,-9.69189,-5.886,-1.51162,85.9075
2023-03-11 17:56:40:561,-0.350148,1.03482,-9.70058,-5.89687,-1.49909,85.8962
2023-03-11 17:56:40:571,-0.298988,1.0583,-9.7561,-5.91193,-1.48574,85.8814
2023-03-11 17:56:40:581,-0.235498,1.0974,-9.79429,-5.92474,-1.46774,85.8658
2023-03-11 17:56:40:591,-0.175568,1.09791,-9.79296,-5.93642,-1.45137,85.8487
2023-03-11 17:56:40:601,-0.157826,1.08547,-9.78619,-5.93982,-1.43402,85.8341
2023-03-11 17:56:40:611,-0.165565,1.07004,-9.76867,-5.93754,-1.41837,85.818
2023-03-11 17:56:40:621,-0.186148,1.0557,-9.73575,-5.93773,-1.40717,85.8106
2023-03-11 17:56:40:631,-0.205708,1.05367,-9.72889,-5.93368,-1.39781,85.805
2023-03-11 17:56:40:641,-0.214101,1.06364,-9.71343,-5.92906,-1.38647,85.8004
2023-03-11 17:56:40:651,-0.216408,1.04858,-9.71179,-5.92614,-1.3734,85.7967
2023-03-11 17:56:40:661,-0.218106,1.04389,-9.70566,-5.92475,-1.36369,85.7956
2023-03-11 17:56:40:671,-0.237684,1.057,-9.71031,-5.92017,-1.35769,85.7903
2023-03-11 17:56:40:681,-0.233512,1.04562,-9.71014,-5.92019,-1.35096,85.7848
2023-03-11 17:56:40:691,-0.203859,1.0407,-9.69605,-5.92007,-1.34451,85.7778
2023-03-11 17:56:40:701,-0.177992,1.04098,-9.72213,-5.92063,-1.3413,85.7643
2023-03-11 17:56:40:711,-0.166927,1.04853,-9.73105,-5.92306,-1.34379,85.7487
2023-03-11 17:56:40:721,-0.150404,1.05044,-9.72409,-5.92839,-1.3452,85.7349
2023-03-11 17:56:40:731,-0.14246,1.05994,-9.7407,-5.93488,-1.34842,85.7242
2023-03-11 17:56:40:741,-0.14722,1.0637,-9.76192,-5.93698,-1.35606,85.7141
2023-03-11 17:56:40:751,-0.158082,1.0612,-9.75304,-5.94166,-1.36203,85.7117
2023-03-11 17:56:40:761,-0.176973,1.05692,-9.73415,-5.94077,-1.37033,85.7099
2023-03-11 17:56:40:771,-0.188,1.04337,-9.71352,-5.94241,-1.3775,85.7149
2023-03-11 17:56:40:781,-0.195446,1.04735,-9.70632,-5.94041,-1.38414,85.7234
2023-03-11 17:56:40:791,-0.228131,1.05142,-9.69626,-5.94456,-1.38935,85.7331
2023-03-11 17:56:40:801,-0.258017,1.05338,-9.71138,-5.95225,-1.40092,85.7458
2023-03-11 17:56:40:811,-0.283432,1.06329,-9.71401,-5.95896,-1.41331,85.7627
2023-03-11 17:56:40:821,-0.315235,1.05422,-9.73757,-5.96701,-1.42468,85.7783
2023-03-11 17:56:40:831,-0.340315,1.06656,-9.74765,-5.97393,-1.43448,85.7942
2023-03-11 17:56:40:841,-0.334552,1.0759,-9.74305,-5.97709,-1.44729,85.8045
2023-03-11 17:56:40:851,-0.346354,1.07873,-9.7383,-5.9822,-1.45777,85.8127
2023-03-11 17:56:40:861,-0.33668,1.072,-9.71906,-5.98216,-1.46832,85.8182
2023-03-11 17:56:40:871,-0.322209,1.05797,-9.70989,-5.98276,-1.47697,85.8222
2023-03-11 17:56:40:881,-0.303397,1.0562,-9.71145,-5.98394,-1.48386,85.8255
2023-03-11 17:56:40:891,-0.308372,1.06428,-9.69277,-5.98487,-1.48911,85.8276
2023-03-11 17:56:40:901,-0.320164,1.06455,-9.6567,-5.98726,-1.49418,85.8318
2023-03-11 17:56:40:911,-0.30066,1.06516,-9.67241,-5.99618,-1.49589,85.834
2023-03-11 17:56:40:921,-0.307398,1.06427,-9.7039,-6.00341,-1.4942,85.8397
2023-03-11 17:56:40:931,-0.320966,1.06694,-9.71018,-6.00985,-1.49222,85.8434
2023-03-11 17:56:40:941,-0.324738,1.07444,-9.72463,-6.01785,-1.4863,85.8426
2023-03-11 17:56:40:951,-0.32035,1.08119,-9.72325,-6.02139,-1.4778,85.84
2023-03-11 17:56:40:961,-0.29111,1.08309,-9.73785,-6.029,-1.46756,85.8399
2023-03-11 17:56:40:971,-0.282679,1.08638,-9.75873,-6.03405,-1.45282,85.8371
2023-03-11 17:56:40:981,-0.265754,1.1008,-9.74161,-6.03981,-1.44184,85.8319
2023-03-11 17:56:40:991,-0.252712,1.11744,-9.73664,-6.0431,-1.43047,85.8264
2023-03-11 17:56:41:1,-0.223813,1.10642,-9.7316,-6.04829,-1.42061,85.8199
2023-03-11 17:56:41:11,-0.211691,1.10084,-9.73868,-6.05005,-1.40772,85.8148
2023-03-11 17:56:41:21,-0.228116,1.10081,-9.75247,-6.05268,-1.39626,85.8165
2023-03-11 17:56:41:31,-0.229409,1.11016,-9.7667,-6.05395,-1.3846,85.8135
2023-03-11 17:56:41:41,-0.218973,1.1074,-9.75073,-6.05284,-1.36764,85.8146
2023-03-11 17:56:41:51,-0.218941,1.09607,-9.74442,-6.04943,-1.35027,85.8141
2023-03-11 17:56:41:61,-0.221694,1.0833,-9.74637,-6.04397,-1.33998,85.8117
2023-03-11 17:56:41:71,-0.211651,1.07861,-9.7419,-6.0358,-1.32795,85.8086
2023-03-11 17:56:41:81,-0.201557,1.06373,-9.73787,-6.03044,-1.31757,85.8047
2023-03-11 17:56:41:91,-0.1867,1.06251,-9.74102,-6.02223,-1.30885,85.8021
2023-03-11 17:56:41:101,-0.157446,1.06087,-9.77849,-6.01259,-1.29824,85.7971
2023-03-11 17:56:41:111,-0.135171,1.07499,-9.81093,-6.00504,-1.29303,85.7969
2023-03-11 17:56:41:121,-0.119615,1.06816,-9.81211,-5.99332,-1.28979,85.7944
2023-03-11 17:56:41:131,-0.134066,1.04409,-9.75203,-5.97654,-1.29451,85.7914
2023-03-11 17:56:41:141,-0.170977,1.01603,-9.68772,-5.95835,-1.29526,85.7911
2023-03-11 17:56:41:151,-0.203606,0.980722,-9.65985,-5.94327,-1.30035,85.7938
2023-03-11 17:56:41:161,-0.224961,0.996491,-9.64104,-5.9396,-1.30345,85.8016
2023-03-11 17:56:41:171,-0.235354,1.00494,-9.63602,-5.93911,-1.30802,85.8103
2023-03-11 17:56:41:181,-0.246782,1.01243,-9.63164,-5.94187,-1.31091,85.8206
2023-03-11 17:56:41:191,-0.244424,1.01648,-9.64605,-5.94807,-1.31246,85.8308
2023-03-11 17:56:41:201,-0.256115,1.04201,-9.67244,-5.95557,-1.31165,85.8414
2023-03-11 17:56:41:211,-0.282604,1.06335,-9.67932,-5.96569,-1.30788,85.8512
2023-03-11 17:56:41:221,-0.304381,1.08303,-9.69421,-5.97751,-1.30396,85.8626
2023-03-11 17:56:41:231,-0.312491,1.07126,-9.70227,-5.99163,-1.30242,85.8707
2023-03-11 17:56:41:241,-0.300505,1.06609,-9.7173,-6.00127,-1.29768,85.8715
2023-03-11 17:56:41:251,-0.279723,1.06928,-9.73124,-6.00918,-1.28836,85.8727
2023-03-11 17:56:41:261,-0.265326,1.07776,-9.73493,-6.01898,-1.28048,85.8681
2023-03-11 17:56:41:271,-0.24461,1.0895,-9.75192,-6.02902,-1.27242,85.8642
2023-03-11 17:56:41:281,-0.214463,1.08918,-9.75394,-6.03963,-1.26048,85.8595
2023-03-11 17:56:41:291,-0.186604,1.09293,-9.75725,-6.05141,-1.24822,85.8539
2023-03-11 17:56:41:301,-0.167898,1.0913,-9.73073,-6.06424,-1.23205,85.8445
2023-03-11 17:56:41:311,-0.168261,1.08724,-9.70661,-6.07424,-1.22208,85.8378
2023-03-11 17:56:41:321,-0.181353,1.09451,-9.71974,-6.08565,-1.20973,85.8321
2023-03-11 17:56:41:331,-0.189908,1.0985,-9.73143,-6.09638,-1.19824,85.8272
2023-03-11 17:56:41:341,-0.152636,1.12475,-9.78154,-6.11023,-1.18318,85.8236
2023-03-11 17:56:41:351,-0.108407,1.13751,-9.79277,-6.12219,-1.16839,85.8173
2023-03-11 17:56:41:361,-0.1097,1.12363,-9.78433,-6.12633,-1.15826,85.8105
2023-03-11 17:56:41:371,-0.148655,1.11826,-9.76978,-6.1279,-1.15489,85.8074
2023-03-11 17:56:41:381,-0.193772,1.1335,-9.74659,-6.12984,-1.15324,85.8097
2023-03-11 17:56:41:391,-0.215142,1.12174,-9.74176,-6.12792,-1.15063,85.8116
2023-03-11 17:56:41:401,-0.221508,1.11625,-9.72632,-6.12346,-1.14531,85.8097
2023-03-11 17:56:41:411,-0.215674,1.10452,-9.72998,-6.12221,-1.13738,85.8104
2023-03-11 17:56:41:421,-0.20948,1.11565,-9.72149,-6.1209,-1.12719,85.8067
2023-03-11 17:56:41:431,-0.202729,1.11356,-9.72293,-6.11785,-1.11899,85.8027
2023-03-11 17:56:41:441,-0.215049,1.11441,-9.73531,-6.1205,-1.1093,85.8013
2023-03-11 17:56:41:451,-0.195183,1.11676,-9.75533,-6.11852,-1.1037,85.7963
2023-03-11 17:56:41:461,-0.175195,1.12375,-9.76507,-6.11691,-1.09436,85.7877
2023-03-11 17:56:41:471,-0.152042,1.10511,-9.77122,-6.11381,-1.08599,85.7753
2023-03-11 17:56:41:481,-0.125142,1.10063,-9.77099,-6.10912,-1.07605,85.7673
2023-03-11 17:56:41:491,-0.108666,1.10757,-9.76616,-6.1044,-1.06621,85.7563
2023-03-11 17:56:41:501,-0.084133,1.0942,-9.76595,-6.09826,-1.05973,85.7482
2023-03-11 17:56:41:511,-0.0814112,1.08984,-9.74937,-6.08619,-1.05579,85.7399
2023-03-11 17:56:41:521,-0.0742313,1.07607,-9.74719,-6.07514,-1.05523,85.7354
2023-03-11 17:56:41:531,-0.0847867,1.06242,-9.73946,-6.06127,-1.05386,85.7329
2023-03-11 17:56:41:541,-0.12229,1.06319,-9.70955,-6.05053,-1.05134,85.7355
2023-03-11 17:56:41:551,-0.143938,1.05164,-9.71016,-6.03987,-1.05258,85.7442
2023-03-11 17:56:41:561,-0.168947,1.04582,-9.7145,-6.02936,-1.05096,85.7525
2023-03-11 17:56:41:571,-0.17208,1.05123,-9.70913,-6.01943,-1.05002,85.7585
2023-03-11 17:56:41:581,-0.178911,1.05452,-9.7176,-6.00908,-1.04972,85.7644
2023-03-11 17:56:41:591,-0.182416,1.0519,-9.71584,-6.00258,-1.05531,85.7714
2023-03-11 17:56:41:601,-0.198509,1.05479,-9.71415,-5.99753,-1.05993,85.7765
2023-03-11 17:56:41:611,-0.211112,1.05465,-9.71061,-5.99389,-1.06782,85.7775
2023-03-11 17:56:41:621,-0.20365,1.0431,-9.71185,-5.99358,-1.07375,85.7785
2023-03-11 17:56:41:631,-0.19251,1.03419,-9.71427,-5.99012,-1.08028,85.7715
2023-03-11 17:56:41:641,-0.189998,1.04591,-9.71257,-5.98841,-1.08539,85.7686
2023-03-11 17:56:41:651,-0.178198,1.04678,-9.71448,-5.98659,-1.08896,85.7654
2023-03-11 17:56:41:661,-0.171204,1.05928,-9.71527,-5.98722,-1.08977,85.7613
2023-03-11 17:56:41:671,-0.185448,1.05539,-9.73052,-5.989,-1.09436,85.7601
2023-03-11 17:56:41:681,-0.188765,1.05262,-9.73664,-5.99174,-1.09779,85.7598
2023-03-11 17:56:41:691,-0.193069,1.04427,-9.72665,-5.99216,-1.10249,85.7591
2023-03-11 17:56:41:701,-0.20561,1.04839,-9.71104,-5.99433,-1.10191,85.7603
2023-03-11 17:56:41:711,-0.223827,1.0389,-9.71389,-5.99635,-1.10443,85.7602
2023-03-11 17:56:41:721,-0.222512,1.05435,-9.70781,-5.99944,-1.10328,85.7608
2023-03-11 17:56:41:731,-0.219579,1.06245,-9.70699,-6.00289,-1.10647,85.7587
2023-03-11 17:56:41:741,-0.214569,1.06875,-9.73183,-6.00676,-1.11101,85.7561
2023-03-11 17:56:41:751,-0.221067,1.074,-9.75743,-6.01433,-1.11502,85.755
2023-03-11 17:56:41:761,-0.217227,1.08947,-9.76939,-6.0191,-1.11349,85.7518
2023-03-11 17:56:41:771,-0.210394,1.1019,-9.75882,-6.02067,-1.11562,85.7483
2023-03-11 17:56:41:781,-0.20196,1.08608,-9.75201,-6.02049,-1.11988,85.7437
2023-03-11 17:56:41:791,-0.191968,1.07537,-9.748,-6.01604,-1.12214,85.7375
2023-03-11 17:56:41:801,-0.201075,1.05309,-9.73644,-6.01102,-1.12331,85.7322
2023-03-11 17:56:41:811,-0.206776,1.06577,-9.72427,-6.00639,-1.12188,85.729
2023-03-11 17:56:41:821,-0.208987,1.05007,-9.72157,-6.00266,-1.11968,85.7276
2023-03-11 17:56:41:831,-0.206946,1.04156,-9.73461,-5.99897,-1.11724,85.7255
2023-03-11 17:56:41:841,-0.217479,1.03353,-9.72034,-5.99136,-1.11259,85.7228
2023-03-11 17:56:41:851,-0.223059,1.02771,-9.69576,-5.9866,-1.10987,85.7226
2023-03-11 17:56:41:861,-0.225722,1.02778,-9.68616,-5.98276,-1.10687,85.7205
2023-03-11 17:56:41:871,-0.221209,1.02625,-9.70819,-5.98158,-1.10312,85.7179
2023-03-11 17:56:41:881,-0.204554,1.02754,-9.73905,-5.97887,-1.0959,85.7112
2023-03-11 17:56:41:891,-0.179184,1.02193,-9.76072,-5.97858,-1.09044,85.7027
2023-03-11 17:56:41:901,-0.152763,1.04351,-9.79209,-5.97893,-1.08668,85.6946
2023-03-11 17:56:41:911,-0.113316,1.04137,-9.81011,-5.98054,-1.08228,85.6844
2023-03-11 17:56:41:921,-0.0979308,1.01302,-9.76557,-5.97832,-1.08432,85.6738
2023-03-11 17:56:41:931,-0.110358,1.02011,-9.71014,-5.97902,-1.08454,85.6619
2023-03-11 17:56:41:941,-0.122932,1.01274,-9.67678,-5.98469,-1.08689,85.6573
2023-03-11 17:56:41:951,-0.124483,1.03661,-9.68028,-5.99301,-1.09115,85.6538
2023-03-11 17:56:41:961,-0.126941,1.05382,-9.68335,-6.00315,-1.0942,85.6507
2023-03-11 17:56:41:971,-0.128514,1.05449,-9.6891,-6.01167,-1.09611,85.6514
2023-03-11 17:56:41:981,-0.126698,1.05455,-9.67151,-6.02267,-1.0993,85.6551
2023-03-11 17:56:41:991,-0.15727,1.06849,-9.65032,-6.03137,-1.10644,85.6598
2023-03-11 17:56:42:1,-0.181577,1.07807,-9.65507,-6.045,-1.115,85.6638
2023-03-11 17:56:42:11,-0.209508,1.09383,-9.67838,-6.0581,-1.1207,85.674
2023-03-11 17:56:42:21,-0.232146,1.09384,-9.71686,-6.06892,-1.12746,85.6817
2023-03-11 17:56:42:31,-0.244141,1.10463,-9.73042,-6.08287,-1.13553,85.6892
2023-03-11 17:56:42:41,-0.262845,1.10957,-9.74364,-6.09506,-1.14079,85.6969
2023-03-11 17:56:42:51,-0.257158,1.11276,-9.76604,-6.10721,-1.14827,85.6978
2023-03-11 17:56:42:61,-0.257483,1.12172,-9.76932,-6.11847,-1.14993,85.6987
2023-03-11 17:56:42:71,-0.257185,1.1091,-9.77284,-6.12924,-1.15293,85.6958
2023-03-11 17:56:42:81,-0.245256,1.12076,-9.76978,-6.14137,-1.15261,85.6943
2023-03-11 17:56:42:91,-0.212282,1.12216,-9.73563,-6.15561,-1.14807,85.6889
2023-03-11 17:56:42:101,-0.213604,1.10738,-9.69846,-6.16583,-1.14465,85.6808
2023-03-11 17:56:42:111,-0.239668,1.11648,-9.68103,-6.17714,-1.14187,85.6741
2023-03-11 17:56:42:121,-0.251285,1.12256,-9.69198,-6.19154,-1.13621,85.6661
2023-03-11 17:56:42:131,-0.229063,1.14468,-9.72478,-6.20691,-1.1289,85.6576
2023-03-11 17:56:42:141,-0.169617,1.1648,-9.75999,-6.21852,-1.11589,85.6438
2023-03-11 17:56:42:151,-0.135129,1.15197,-9.7628,-6.22793,-1.10487,85.6313
2023-03-11 17:56:42:161,-0.140115,1.13206,-9.73481,-6.23588,-1.09644,85.619
2023-03-11 17:56:42:171,-0.157687,1.13161,-9.73065,-6.24107,-1.08726,85.6086
2023-03-11 17:56:42:181,-0.15991,1.14566,-9.73646,-6.24493,-1.08411,85.5993
2023-03-11 17:56:42:191,-0.159607,1.13539,-9.74756,-6.24841,-1.08087,85.5895
2023-03-11 17:56:42:201,-0.138584,1.13665,-9.74186,-6.25097,-1.07142,85.5802
2023-03-11 17:56:42:211,-0.127944,1.14603,-9.74169,-6.252,-1.06521,85.5739
2023-03-11 17:56:42:221,-0.127101,1.14075,-9.75213,-6.24704,-1.06034,85.566
2023-03-11 17:56:42:231,-0.13175,1.1335,-9.75603,-6.24517,-1.05061,85.5599
2023-03-11 17:56:42:241,-0.135656,1.13394,-9.73943,-6.23792,-1.04238,85.5573
2023-03-11 17:56:42:251,-0.148468,1.13061,-9.73514,-6.23382,-1.03246,85.5522
2023-03-11 17:56:42:261,-0.162366,1.10657,-9.74227,-6.22881,-1.02537,85.5512
2023-03-11 17:56:42:271,-0.15888,1.10241,-9.73181,-6.22098,-1.02108,85.5507
2023-03-11 17:56:42:281,-0.150621,1.11022,-9.71708,-6.21147,-1.01777,85.5491
2023-03-11 17:56:42:291,-0.165977,1.10723,-9.71869,-6.20183,-1.01653,85.5447
2023-03-11 17:56:42:301,-0.159018,1.09946,-9.71971,-6.19334,-1.01743,85.5404
2023-03-11 17:56:42:311,-0.146017,1.08612,-9.72399,-6.18729,-1.01987,85.5303
2023-03-11 17:56:42:321,-0.131969,1.0869,-9.72657,-6.18619,-1.02681,85.5211
2023-03-11 17:56:42:331,-0.135475,1.07443,-9.72169,-6.18311,-1.03454,85.5126
2023-03-11 17:56:42:341,-0.152554,1.07795,-9.71244,-6.1787,-1.04429,85.5058
2023-03-11 17:56:42:351,-0.152891,1.0706,-9.69788,-6.17501,-1.05452,85.5031
2023-03-11 17:56:42:361,-0.162602,1.05957,-9.68327,-6.16683,-1.06472,85.4961
2023-03-11 17:56:42:371,-0.171157,1.05309,-9.67041,-6.1645,-1.0726,85.5002
2023-03-11 17:56:42:381,-0.181104,1.04932,-9.67028,-6.16052,-1.07984,85.5062
2023-03-11 17:56:42:391,-0.186532,1.05516,-9.67033,-6.16017,-1.08297,85.5091
2023-03-11 17:56:42:401,-0.216088,1.06592,-9.66757,-6.16459,-1.08798,85.517
2023-03-11 17:56:42:411,-0.226421,1.08008,-9.68165,-6.17284,-1.08963,85.5248
2023-03-11 17:56:42:421,-0.23057,1.1005,-9.70443,-6.18094,-1.09498,85.5344
2023-03-11 17:56:42:431,-0.234916,1.10268,-9.71308,-6.18928,-1.09818,85.5396
2023-03-11 17:56:42:441,-0.230928,1.09619,-9.71318,-6.19841,-1.10002,85.543
2023-03-11 17:56:42:451,-0.225142,1.08852,-9.71985,-6.21193,-1.09998,85.5428
2023-03-11 17:56:42:461,-0.21982,1.08829,-9.72948,-6.22362,-1.10167,85.5432
2023-03-11 17:56:42:471,-0.207728,1.10648,-9.72045,-6.23186,-1.10413,85.5359
2023-03-11 17:56:42:481,-0.190949,1.10864,-9.71187,-6.24423,-1.1086,85.531
2023-03-11 17:56:42:491,-0.187599,1.11344,-9.71234,-6.25551,-1.11186,85.5266
2023-03-11 17:56:42:501,-0.17366,1.11961,-9.72509,-6.26509,-1.11377,85.5231
2023-03-11 17:56:42:511,-0.173071,1.13318,-9.74253,-6.27331,-1.11593,85.5191
2023-03-11 17:56:42:521,-0.181564,1.1297,-9.752,-6.28342,-1.11396,85.5137
2023-03-11 17:56:42:531,-0.178712,1.12941,-9.74761,-6.28968,-1.11663,85.5089
2023-03-11 17:56:42:541,-0.174042,1.12958,-9.74685,-6.29296,-1.1155,85.5063
2023-03-11 17:56:42:551,-0.170482,1.13332,-9.72987,-6.29632,-1.11783,85.5067
2023-03-11 17:56:42:561,-0.163185,1.13347,-9.73205,-6.29943,-1.11843,85.5034
2023-03-11 17:56:42:571,-0.169742,1.11615,-9.72069,-6.30048,-1.12075,85.5013
2023-03-11 17:56:42:581,-0.179706,1.10971,-9.71358,-6.30109,-1.12002,85.5036
2023-03-11 17:56:42:591,-0.190257,1.12502,-9.71404,-6.30494,-1.12595,85.5048
2023-03-11 17:56:42:601,-0.20905,1.12633,-9.72967,-6.30703,-1.12985,85.5048
2023-03-11 17:56:42:611,-0.215276,1.10958,-9.7382,-6.31133,-1.1296,85.5053
2023-03-11 17:56:42:621,-0.209905,1.127,-9.72487,-6.31371,-1.12837,85.5071
2023-03-11 17:56:42:631,-0.213999,1.11708,-9.72211,-6.31543,-1.12514,85.5109
2023-03-11 17:56:42:641,-0.213641,1.10357,-9.71701,-6.3151,-1.12552,85.5137
2023-03-11 17:56:42:651,-0.214169,1.10433,-9.71247,-6.31394,-1.12432,85.5182
2023-03-11 17:56:42:661,-0.202709,1.108,-9.73646,-6.31521,-1.11938,85.5217
2023-03-11 17:56:42:671,-0.195731,1.10556,-9.76241,-6.3166,-1.11477,85.5229
2023-03-11 17:56:42:681,-0.196293,1.11918,-9.77359,-6.31475,-1.11366,85.5252
2023-03-11 17:56:42:691,-0.179577,1.13022,-9.79808,-6.3158,-1.10766,85.5243
2023-03-11 17:56:42:701,-0.148597,1.11759,-9.77408,-6.31383,-1.1044,85.5241
2023-03-11 17:56:42:711,-0.147493,1.09549,-9.71944,-6.30625,-1.10694,85.5189
2023-03-11 17:56:42:721,-0.162199,1.06437,-9.67815,-6.29969,-1.10818,85.5191
2023-03-11 17:56:42:731,-0.181753,1.07179,-9.66248,-6.29918,-1.11356,85.5187
2023-03-11 17:56:42:741,-0.17194,1.08745,-9.65926,-6.3006,-1.12127,85.5186
2023-03-11 17:56:42:751,-0.160292,1.10494,-9.66896,-6.30489,-1.12732,85.5188
2023-03-11 17:56:42:761,-0.166485,1.11331,-9.68387,-6.31404,-1.1353,85.518
2023-03-11 17:56:42:771,-0.161562,1.11809,-9.68825,-6.32325,-1.13868,85.5235
2023-03-11 17:56:42:781,-0.180916,1.12393,-9.67883,-6.33634,-1.14553,85.5269
2023-03-11 17:56:42:791,-0.202121,1.13597,-9.67614,-6.34667,-1.15239,85.535
2023-03-11 17:56:42:801,-0.211893,1.13915,-9.67842,-6.3551,-1.15863,85.5401
2023-03-11 17:56:42:811,-0.235391,1.12822,-9.69053,-6.36664,-1.16432,85.5463
2023-03-11 17:56:42:821,-0.24703,1.13025,-9.70673,-6.37982,-1.16984,85.5546
2023-03-11 17:56:42:831,-0.251138,1.14533,-9.71683,-6.39405,-1.17321,85.5597
2023-03-11 17:56:42:841,-0.269649,1.15386,-9.71221,-6.40441,-1.17683,85.5665
2023-03-11 17:56:42:851,-0.258244,1.16417,-9.7265,-6.41824,-1.17588,85.5704
2023-03-11 17:56:42:861,-0.254968,1.17805,-9.7512,-6.43141,-1.17409,85.5685
2023-03-11 17:56:42:871,-0.239581,1.18485,-9.76392,-6.44636,-1.16693,85.569
2023-03-11 17:56:42:881,-0.208175,1.18961,-9.74277,-6.45759,-1.16198,85.567
2023-03-11 17:56:42:891,-0.216545,1.17,-9.70557,-6.46507,-1.15717,85.5634
2023-03-11 17:56:42:901,-0.220748,1.18104,-9.68847,-6.47538,-1.15326,85.5574
2023-03-11 17:56:42:911,-0.225021,1.19289,-9.69043,-6.48946,-1.14424,85.5479
2023-03-11 17:56:42:921,-0.191922,1.21906,-9.73903,-6.50107,-1.13375,85.5445
2023-03-11 17:56:42:931,-0.130376,1.2032,-9.77148,-6.51061,-1.11877,85.5328
2023-03-11 17:56:42:941,-0.10793,1.19807,-9.76366,-6.51503,-1.10594,85.522
2023-03-11 17:56:42:951,-0.113737,1.18749,-9.74188,-6.51894,-1.09687,85.5149
2023-03-11 17:56:42:961,-0.141801,1.18417,-9.74433,-6.52107,-1.09479,85.5084
2023-03-11 17:56:42:971,-0.151651,1.19558,-9.7399,-6.52035,-1.08977,85.5068
2023-03-11 17:56:42:981,-0.148819,1.20633,-9.72879,-6.51896,-1.08459,85.5022
2023-03-11 17:56:42:991,-0.128002,1.1809,-9.74178,-6.51281,-1.07789,85.5008
2023-03-11 17:56:43:1,-0.125812,1.18214,-9.74806,-6.50436,-1.07377,85.5015
2023-03-11 17:56:43:11,-0.128267,1.18565,-9.7405,-6.49905,-1.06584,85.5031
2023-03-11 17:56:43:21,-0.155652,1.18495,-9.73543,-6.49229,-1.05975,85.5031
2023-03-11 17:56:43:31,-0.168746,1.17901,-9.71651,-6.48312,-1.05968,85.5012
2023-03-11 17:56:43:41,-0.167357,1.16571,-9.71451,-6.47554,-1.05996,85.5011
2023-03-11 17:56:43:51,-0.161289,1.15244,-9.72083,-6.46621,-1.06148,85.4974
2023-03-11 17:56:43:61,-0.145663,1.1532,-9.71638,-6.4591,-1.06189,85.4951
2023-03-11 17:56:43:71,-0.142446,1.15207,-9.71689,-6.45042,-1.0645,85.4942
2023-03-11 17:56:43:81,-0.14091,1.14763,-9.72078,-6.44385,-1.06964,85.49
2023-03-11 17:56:43:91,-0.1319,1.13885,-9.7167,-6.43675,-1.07442,85.4869
2023-03-11 17:56:43:101,-0.12759,1.13052,-9.71686,-6.43114,-1.07976,85.4857
2023-03-11 17:56:43:111,-0.13214,1.12958,-9.71356,-6.4219,-1.08162,85.4858
2023-03-11 17:56:43:121,-0.13962,1.12442,-9.70591,-6.41319,-1.08864,85.4879
2023-03-11 17:56:43:131,-0.158729,1.11316,-9.68917,-6.40215,-1.09568,85.4914
2023-03-11 17:56:43:141,-0.182529,1.11081,-9.69152,-6.39349,-1.10242,85.4963
2023-03-11 17:56:43:151,-0.190935,1.1181,-9.70185,-6.38637,-1.11224,85.5057
2023-03-11 17:56:43:161,-0.20796,1.12078,-9.70647,-6.38114,-1.11912,85.5147
2023-03-11 17:56:43:171,-0.216244,1.12836,-9.71162,-6.37719,-1.12244,85.523
2023-03-11 17:56:43:181,-0.229588,1.13828,-9.71315,-6.37621,-1.12768,85.5326
2023-03-11 17:56:43:191,-0.238459,1.13494,-9.71888,-6.37369,-1.13036,85.5384
2023-03-11 17:56:43:201,-0.236928,1.10854,-9.6971,-6.36966,-1.13593,85.5427
2023-03-11 17:56:43:211,-0.237857,1.10245,-9.67605,-6.36411,-1.13955,85.5482
2023-03-11 17:56:43:221,-0.230783,1.10737,-9.67233,-6.36021,-1.14647,85.5523
2023-03-11 17:56:43:231,-0.224937,1.09792,-9.68257,-6.35897,-1.15207,85.5518
2023-03-11 17:56:43:241,-0.216706,1.10931,-9.69173,-6.35832,-1.15932,85.5527
2023-03-11 17:56:43:251,-0.211205,1.11546,-9.71527,-6.35959,-1.16157,85.5495
2023-03-11 17:56:43:261,-0.193561,1.11211,-9.73606,-6.36452,-1.16407,85.5465
2023-03-11 17:56:43:271,-0.189292,1.11535,-9.74228,-6.36925,-1.16832,85.543
2023-03-11 17:56:43:281,-0.18798,1.11842,-9.75878,-6.36901,-1.17246,85.5396
2023-03-11 17:56:43:291,-0.184259,1.13692,-9.76249,-6.36753,-1.17428,85.5362
2023-03-11 17:56:43:301,-0.188288,1.12894,-9.74804,-6.36166,-1.17575,85.5373
2023-03-11 17:56:43:311,-0.179446,1.12587,-9.74025,-6.3583,-1.17723,85.5409
2023-03-11 17:56:43:321,-0.179232,1.11762,-9.73989,-6.3532,-1.17615,85.543
2023-03-11 17:56:43:331,-0.184345,1.11112,-9.72941,-6.34492,-1.17817,85.5505
2023-03-11 17:56:43:341,-0.176102,1.10431,-9.70869,-6.3378,-1.17608,85.5554
2023-03-11 17:56:43:351,-0.198343,1.10595,-9.70189,-6.33268,-1.17767,85.5619
2023-03-11 17:56:43:361,-0.209104,1.11202,-9.70538,-6.32945,-1.17789,85.5672
2023-03-11 17:56:43:371,-0.196411,1.11258,-9.70657,-6.32471,-1.18,85.5736
2023-03-11 17:56:43:381,-0.186376,1.10674,-9.71443,-6.32334,-1.18269,85.579
2023-03-11 17:56:43:391,-0.175197,1.11134,-9.72196,-6.31882,-1.18699,85.5844
2023-03-11 17:56:43:401,-0.19675,1.10472,-9.73769,-6.31344,-1.19271,85.5869
2023-03-11 17:56:43:411,-0.206464,1.11239,-9.75126,-6.30141,-1.19552,85.5923
2023-03-11 17:56:43:421,-0.209922,1.1052,-9.7572,-6.29092,-1.20024,85.5958
2023-03-11 17:56:43:431,-0.207945,1.09404,-9.73874,-6.27894,-1.20517,85.5966
2023-03-11 17:56:43:441,-0.217387,1.08087,-9.70992,-6.26722,-1.20776,85.5993
2023-03-11 17:56:43:451,-0.202224,1.06964,-9.69136,-6.25516,-1.21306,85.606
2023-03-11 17:56:43:461,-0.202467,1.05898,-9.68993,-6.24483,-1.21564,85.6069
2023-03-11 17:56:43:471,-0.202639,1.04962,-9.67762,-6.23662,-1.21795,85.6072
2023-03-11 17:56:43:481,-0.202638,1.05583,-9.68374,-6.22854,-1.21897,85.6062
2023-03-11 17:56:43:491,-0.171146,1.06378,-9.72542,-6.2299,-1.22352,85.6074
2023-03-11 17:56:43:501,-0.128424,1.08718,-9.7801,-6.23003,-1.22463,85.6084
2023-03-11 17:56:43:511,-0.1006,1.09865,-9.78175,-6.22958,-1.2289,85.6074
2023-03-11 17:56:43:521,-0.113045,1.05972,-9.73436,-6.22713,-1.23585,85.6063
2023-03-11 17:56:43:531,-0.13338,1.0365,-9.6984,-6.22602,-1.25366,85.609
2023-03-11 17:56:43:541,-0.162497,1.05659,-9.69203,-6.22636,-1.26879,85.6149
2023-03-11 17:56:43:551,-0.18457,1.07719,-9.70145,-6.23141,-1.28559,85.6252
2023-03-11 17:56:43:561,-0.218832,1.10355,-9.70122,-6.23812,-1.30244,85.638
2023-03-11 17:56:43:571,-0.23451,1.10299,-9.67923,-6.24476,-1.31811,85.6543
2023-03-11 17:56:43:581,-0.242885,1.10105,-9.67135,-6.25355,-1.33327,85.671
2023-03-11 17:56:43:591,-0.273526,1.10813,-9.67569,-6.26297,-1.34704,85.6918
2023-03-11 17:56:43:601,-0.319916,1.1241,-9.67131,-6.27057,-1.36244,85.7106
2023-03-11 17:56:43:611,-0.358882,1.13381,-9.66861,-6.28267,-1.37214,85.7294
2023-03-11 17:56:43:621,-0.369965,1.13768,-9.6961,-6.29233,-1.37946,85.7436
2023-03-11 17:56:43:631,-0.356241,1.13119,-9.72721,-6.30346,-1.38609,85.7578
2023-03-11 17:56:43:641,-0.368018,1.13139,-9.72133,-6.31037,-1.38943,85.7639
2023-03-11 17:56:43:651,-0.368583,1.12259,-9.72874,-6.31885,-1.39039,85.7716
2023-03-11 17:56:43:661,-0.348263,1.12579,-9.74147,-6.32867,-1.38892,85.7717
2023-03-11 17:56:43:671,-0.331685,1.14106,-9.75924,-6.33431,-1.38577,85.7672
2023-03-11 17:56:43:681,-0.299849,1.14412,-9.7479,-6.34223,-1.37873,85.7627
2023-03-11 17:56:43:691,-0.264497,1.12878,-9.743,-6.34752,-1.36997,85.7526
2023-03-11 17:56:43:701,-0.2287,1.126,-9.7118,-6.35651,-1.35874,85.742
2023-03-11 17:56:43:711,-0.213864,1.11621,-9.693,-6.3649,-1.34474,85.7325
2023-03-11 17:56:43:721,-0.223049,1.13651,-9.69957,-6.37158,-1.33497,85.7245
2023-03-11 17:56:43:731,-0.227552,1.14344,-9.72674,-6.38216,-1.32136,85.7182
2023-03-11 17:56:43:741,-0.187396,1.15041,-9.76112,-6.38922,-1.30414,85.7111
2023-03-11 17:56:43:751,-0.141194,1.14407,-9.76255,-6.39496,-1.28828,85.7023
2023-03-11 17:56:43:761,-0.10895,1.13684,-9.73631,-6.39808,-1.27448,85.6936
2023-03-11 17:56:43:771,-0.0936006,1.13071,-9.73173,-6.39699,-1.26446,85.6877
2023-03-11 17:56:43:781,-0.118075,1.12954,-9.73626,-6.39841,-1.25481,85.6826
2023-03-11 17:56:43:791,-0.138266,1.1213,-9.74372,-6.39741,-1.24905,85.6812
2023-03-11 17:56:43:801,-0.14447,1.13314,-9.73527,-6.39594,-1.24858,85.6815
2023-03-11 17:56:43:811,-0.140611,1.13775,-9.72048,-6.39792,-1.24541,85.6859
2023-03-11 17:56:43:821,-0.141966,1.13082,-9.72474,-6.39777,-1.24261,85.6884
2023-03-11 17:56:43:831,-0.15731,1.1289,-9.72391,-6.39758,-1.24056,85.6961
2023-03-11 17:56:43:841,-0.15639,1.12417,-9.72325,-6.39859,-1.24086,85.706
2023-03-11 17:56:43:851,-0.158581,1.12737,-9.72373,-6.39391,-1.24013,85.7123
2023-03-11 17:56:43:861,-0.15895,1.12178,-9.71193,-6.39435,-1.24319,85.7209
2023-03-11 17:56:43:871,-0.173473,1.11244,-9.71596,-6.39557,-1.24691,85.7291
2023-03-11 17:56:43:881,-0.187318,1.11239,-9.70704,-6.39635,-1.25571,85.7391
2023-03-11 17:56:43:891,-0.186719,1.10944,-9.70365,-6.39551,-1.26487,85.7445
2023-03-11 17:56:43:901,-0.208934,1.12135,-9.718,-6.39812,-1.27465,85.7499
2023-03-11 17:56:43:911,-0.223792,1.11982,-9.73919,-6.39955,-1.28266,85.7555
2023-03-11 17:56:43:921,-0.244332,1.11454,-9.73636,-6.4024,-1.29614,85.768
2023-03-11 17:56:43:931,-0.253709,1.11256,-9.72253,-6.40509,-1.30675,85.7789
2023-03-11 17:56:43:941,-0.269308,1.1123,-9.72286,-6.40436,-1.31576,85.7882
2023-03-11 17:56:43:951,-0.276892,1.10551,-9.72055,-6.40638,-1.32408,85.7977
2023-03-11 17:56:43:961,-0.269512,1.10115,-9.72425,-6.40609,-1.33274,85.8073
2023-03-11 17:56:43:971,-0.264001,1.10718,-9.71306,-6.40809,-1.33904,85.8118
2023-03-11 17:56:43:981,-0.268975,1.10823,-9.70027,-6.41233,-1.3471,85.8195
2023-03-11 17:56:43:991,-0.274697,1.11105,-9.68765,-6.41666,-1.35104,85.828
2023-03-11 17:56:44:1,-0.282275,1.10974,-9.69138,-6.42325,-1.35804,85.8342
2023-03-11 17:56:44:11,-0.283436,1.12495,-9.69412,-6.43145,-1.36349,85.8408
2023-03-11 17:56:44:21,-0.267773,1.13623,-9.70911,-6.43706,-1.36872,85.8453
2023-03-11 17:56:44:31,-0.260721,1.13184,-9.70616,-6.44472,-1.37224,85.8485
2023-03-11 17:56:44:41,-0.254825,1.14107,-9.70529,-6.4511,-1.37333,85.8507
2023-03-11 17:56:44:51,-0.2556,1.14053,-9.71251,-6.46078,-1.37472,85.8529
2023-03-11 17:56:44:61,-0.249585,1.14205,-9.71347,-6.47086,-1.37889,85.8544
2023-03-11 17:56:44:71,-0.248655,1.14217,-9.71891,-6.47913,-1.37716,85.8551
2023-03-11 17:56:44:81,-0.25515,1.15041,-9.73131,-6.48966,-1.37848,85.8549
2023-03-11 17:56:44:91,-0.264388,1.16477,-9.75028,-6.49944,-1.37827,85.8544
2023-03-11 17:56:44:101,-0.266192,1.16723,-9.75254,-6.5094,-1.37919,85.8559
2023-03-11 17:56:44:111,-0.253823,1.17327,-9.74945,-6.51848,-1.37525,85.8545
2023-03-11 17:56:44:121,-0.260741,1.16311,-9.73626,-6.52463,-1.36954,85.8528
2023-03-11 17:56:44:131,-0.247544,1.15303,-9.74454,-6.52893,-1.36663,85.8496
2023-03-11 17:56:44:141,-0.233448,1.15468,-9.72953,-6.53208,-1.36397,85.8453
2023-03-11 17:56:44:151,-0.215406,1.15666,-9.71333,-6.53554,-1.35589,85.8412
2023-03-11 17:56:44:161,-0.176507,1.14447,-9.71563,-6.53622,-1.34912,85.8346
2023-03-11 17:56:44:171,-0.177657,1.15,-9.71475,-6.54152,-1.34292,85.8316
2023-03-11 17:56:44:181,-0.175029,1.15402,-9.72575,-6.54346,-1.33724,85.8319
2023-03-11 17:56:44:191,-0.179257,1.14628,-9.74969,-6.54531,-1.33499,85.8339
2023-03-11 17:56:44:201,-0.180865,1.16081,-9.73692,-6.55184,-1.33257,85.8336
2023-03-11 17:56:44:211,-0.178818,1.16812,-9.71507,-6.55125,-1.33253,85.8362
2023-03-11 17:56:44:221,-0.188893,1.151,-9.71034,-6.55198,-1.33103,85.8369
2023-03-11 17:56:44:231,-0.201347,1.14593,-9.70231,-6.55214,-1.33295,85.8419
2023-03-11 17:56:44:241,-0.214471,1.14309,-9.68471,-6.55384,-1.3359,85.8474
2023-03-11 17:56:44:251,-0.235674,1.15255,-9.68396,-6.55797,-1.33903,85.8521
2023-03-11 17:56:44:261,-0.249015,1.15247,-9.69365,-6.55976,-1.33994,85.8609
2023-03-11 17:56:44:271,-0.263018,1.14269,-9.71325,-6.56274,-1.33905,85.8645
2023-03-11 17:56:44:281,-0.263942,1.15151,-9.72245,-6.5684,-1.33733,85.8649
2023-03-11 17:56:44:291,-0.254086,1.146,-9.69932,-6.57164,-1.3371,85.8639
2023-03-11 17:56:44:301,-0.232066,1.14962,-9.69957,-6.57701,-1.33404,85.8615
2023-03-11 17:56:44:311,-0.22816,1.1495,-9.71454,-6.58176,-1.33244,85.8595
2023-03-11 17:56:44:321,-0.212508,1.14826,-9.73133,-6.58926,-1.33179,85.8547
2023-03-11 17:56:44:331,-0.205266,1.15898,-9.76547,-6.59592,-1.33599,85.8491
2023-03-11 17:56:44:340,-0.181171,1.17604,-9.78877,-6.60118,-1.33869,85.845
2023-03-11 17:56:44:351,-0.145243,1.18039,-9.80954,-6.60301,-1.33871,85.8401
2023-03-11 17:56:44:361,-0.124344,1.15652,-9.7663,-6.60463,-1.34266,85.8352
2023-03-11 17:56:44:371,-0.144625,1.13596,-9.71924,-6.6016,-1.35417,85.835
2023-03-11 17:56:44:381,-0.169966,1.15225,-9.68457,-6.6002,-1.36636,85.8366
2023-03-11 17:56:44:391,-0.191402,1.15737,-9.67431,-6.60448,-1.37931,85.8401
2023-03-11 17:56:44:401,-0.197554,1.1537,-9.67195,-6.60887,-1.38681,85.8489
2023-03-11 17:56:44:411,-0.203556,1.16784,-9.67773,-6.615,-1.39027,85.8582
2023-03-11 17:56:44:421,-0.219397,1.17276,-9.67311,-6.62401,-1.39503,85.8681
2023-03-11 17:56:44:431,-0.234477,1.18521,-9.67927,-6.63531,-1.40447,85.884
2023-03-11 17:56:44:441,-0.267542,1.19042,-9.69843,-6.64887,-1.41289,85.8995
2023-03-11 17:56:44:451,-0.297921,1.20253,-9.69614,-6.65531,-1.42312,85.9169
2023-03-11 17:56:44:461,-0.317784,1.19897,-9.68829,-6.65899,-1.43406,85.9332
2023-03-11 17:56:44:471,-0.321869,1.19665,-9.68824,-6.66399,-1.44149,85.944
2023-03-11 17:56:44:481,-0.323807,1.18438,-9.68791,-6.66616,-1.44548,85.9498
2023-03-11 17:56:44:491,-0.320663,1.18907,-9.6831,-6.67059,-1.45135,85.9594
2023-03-11 17:56:44:501,-0.320253,1.1877,-9.69389,-6.67546,-1.4516,85.9659
2023-03-11 17:56:44:511,-0.307684,1.18715,-9.72445,-6.68406,-1.45509,85.9678
2023-03-11 17:56:44:521,-0.300382,1.20302,-9.73572,-6.69548,-1.45256,85.9689
2023-03-11 17:56:44:531,-0.282915,1.20022,-9.75708,-6.70734,-1.45035,85.9663
2023-03-11 17:56:44:541,-0.268542,1.21561,-9.74773,-6.71686,-1.44966,85.96
2023-03-11 17:56:44:551,-0.26748,1.19224,-9.73212,-6.7241,-1.44772,85.9561
2023-03-11 17:56:44:561,-0.259774,1.20579,-9.72237,-6.73254,-1.44432,85.9496
2023-03-11 17:56:44:571,-0.259364,1.2058,-9.71133,-6.7378,-1.43821,85.94
2023-03-11 17:56:44:581,-0.256738,1.20504,-9.73692,-6.74142,-1.43301,85.9309
2023-03-11 17:56:44:591,-0.227882,1.19446,-9.74886,-6.74047,-1.42544,85.919
2023-03-11 17:56:44:601,-0.186127,1.17844,-9.72746,-6.73693,-1.41718,85.9051
2023-03-11 17:56:44:611,-0.17702,1.15938,-9.6752,-6.73386,-1.41564,85.8967
2023-03-11 17:56:44:621,-0.190411,1.16015,-9.65753,-6.72771,-1.41215,85.8907
2023-03-11 17:56:44:631,-0.201074,1.1546,-9.67955,-6.72846,-1.41176,85.886
2023-03-11 17:56:44:641,-0.210532,1.15331,-9.69031,-6.72867,-1.40571,85.8815
2023-03-11 17:56:44:651,-0.219776,1.15194,-9.7015,-6.73134,-1.40017,85.8815
2023-03-11 17:56:44:661,-0.203944,1.17049,-9.71928,-6.73578,-1.39151,85.8837
2023-03-11 17:56:44:671,-0.204607,1.18474,-9.71026,-6.74075,-1.3798,85.886
2023-03-11 17:56:44:681,-0.214635,1.18879,-9.70425,-6.74849,-1.36739,85.8872
2023-03-11 17:56:44:691,-0.204804,1.19171,-9.72092,-6.7559,-1.3603,85.8911
2023-03-11 17:56:44:701,-0.192653,1.19423,-9.739,-6.76355,-1.35583,85.8909
2023-03-11 17:56:44:711,-0.194969,1.204,-9.76126,-6.77217,-1.35525,85.8901
2023-03-11 17:56:44:721,-0.20533,1.21063,-9.73286,-6.77533,-1.3561,85.8897
2023-03-11 17:56:44:731,-0.182874,1.20381,-9.71334,-6.77713,-1.35663,85.8899
2023-03-11 17:56:44:741,-0.179147,1.19142,-9.70918,-6.77912,-1.36324,85.8866
2023-03-11 17:56:44:751,-0.180838,1.18996,-9.71094,-6.78557,-1.37205,85.8854
2023-03-11 17:56:44:761,-0.176669,1.17374,-9.70505,-6.78611,-1.38067,85.8829
2023-03-11 17:56:44:771,-0.192241,1.16795,-9.70519,-6.78636,-1.38372,85.8826
2023-03-11 17:56:44:781,-0.213149,1.1827,-9.70343,-6.78932,-1.39067,85.8872
2023-03-11 17:56:44:791,-0.23083,1.17746,-9.71684,-6.7952,-1.40287,85.8906
2023-03-11 17:56:44:801,-0.234615,1.18681,-9.73154,-6.80032,-1.41409,85.8973
2023-03-11 17:56:44:811,-0.243433,1.18626,-9.72885,-6.80483,-1.42436,85.9023
2023-03-11 17:56:44:821,-0.246141,1.18799,-9.71236,-6.81074,-1.43593,85.911
2023-03-11 17:56:44:831,-0.253612,1.18164,-9.69423,-6.81627,-1.44069,85.9167
2023-03-11 17:56:44:841,-0.271244,1.18622,-9.67086,-6.82368,-1.44742,85.9208
2023-03-11 17:56:44:851,-0.288487,1.17085,-9.65632,-6.83072,-1.44999,85.9292
2023-03-11 17:56:44:861,-0.290827,1.16771,-9.65936,-6.84144,-1.45469,85.9352
2023-03-11 17:56:44:871,-0.293526,1.18524,-9.65131,-6.85059,-1.45789,85.9418
2023-03-11 17:56:44:881,-0.287091,1.19307,-9.66553,-6.86606,-1.4604,85.948
2023-03-11 17:56:44:891,-0.273317,1.21841,-9.68577,-6.88489,-1.45873,85.9521
2023-03-11 17:56:44:901,-0.273661,1.2421,-9.70098,-6.90261,-1.45775,85.955
2023-03-11 17:56:44:911,-0.275304,1.23931,-9.70901,-6.92072,-1.45386,85.9577
2023-03-11 17:56:44:921,-0.272289,1.23983,-9.73558,-6.9375,-1.45465,85.9583
2023-03-11 17:56:44:931,-0.270532,1.24159,-9.74649,-6.9556,-1.45047,85.9573
2023-03-11 17:56:44:941,-0.26526,1.24809,-9.7456,-6.97008,-1.44592,85.9545
2023-03-11 17:56:44:951,-0.245696,1.25369,-9.72691,-6.98087,-1.43963,85.9516
2023-03-11 17:56:44:961,-0.23269,1.25465,-9.70815,-6.99025,-1.43316,85.9458
2023-03-11 17:56:44:971,-0.214291,1.2394,-9.7016,-6.997,-1.42758,85.941
2023-03-11 17:56:44:981,-0.189986,1.23701,-9.68983,-7.01385,-1.42047,85.9371
2023-03-11 17:56:44:991,-0.189999,1.23941,-9.70105,-7.02741,-1.41517,85.9303
2023-03-11 17:56:45:1,-0.183636,1.26039,-9.71518,-7.04268,-1.409,85.9285
2023-03-11 17:56:45:11,-0.175405,1.25784,-9.72467,-7.05467,-1.40823,85.9252
2023-03-11 17:56:45:21,-0.179444,1.26346,-9.73212,-7.06727,-1.40645,85.9273
2023-03-11 17:56:45:31,-0.189905,1.2695,-9.72823,-7.07914,-1.40766,85.9269
2023-03-11 17:56:45:41,-0.214154,1.27929,-9.74799,-7.08723,-1.4113,85.9351
2023-03-11 17:56:45:51,-0.234319,1.28365,-9.74114,-7.09364,-1.41139,85.9387
2023-03-11 17:56:45:61,-0.242601,1.2714,-9.70748,-7.10043,-1.41543,85.9433
2023-03-11 17:56:45:71,-0.25221,1.25694,-9.68069,-7.10354,-1.41825,85.9486
2023-03-11 17:56:45:81,-0.283528,1.26166,-9.67008,-7.11093,-1.42498,85.9546
2023-03-11 17:56:45:91,-0.295833,1.26406,-9.69074,-7.11973,-1.42831,85.9587
2023-03-11 17:56:45:101,-0.304803,1.28603,-9.71023,-7.12565,-1.42912,85.9626
2023-03-11 17:56:45:111,-0.296866,1.28616,-9.73572,-7.13358,-1.43073,85.9613
2023-03-11 17:56:45:121,-0.295167,1.29828,-9.7237,-7.14068,-1.42938,85.9635
2023-03-11 17:56:45:131,-0.288837,1.28463,-9.71648,-7.14274,-1.42904,85.9575
2023-03-11 17:56:45:141,-0.304117,1.273,-9.71521,-7.14253,-1.4281,85.9531
2023-03-11 17:56:45:151,-0.312417,1.27863,-9.71255,-7.14429,-1.42671,85.9452
2023-03-11 17:56:45:161,-0.298612,1.2699,-9.71249,-7.14002,-1.42636,85.9363
2023-03-11 17:56:45:171,-0.248747,1.24958,-9.73011,-7.13932,-1.42252,85.9229
2023-03-11 17:56:45:181,-0.22266,1.2592,-9.78375,-7.13824,-1.41445,85.9133
2023-03-11 17:56:45:191,-0.197822,1.27573,-9.79358,-7.1378,-1.41202,85.902
2023-03-11 17:56:45:201,-0.179467,1.25963,-9.77203,-7.12901,-1.40809,85.89
2023-03-11 17:56:45:211,-0.191724,1.23573,-9.7312,-7.1198,-1.40714,85.8774
2023-03-11 17:56:45:221,-0.208335,1.22473,-9.69112,-7.10904,-1.41008,85.869
2023-03-11 17:56:45:231,-0.213469,1.24258,-9.6742,-7.1025,-1.41364,85.8583
2023-03-11 17:56:45:241,-0.213567,1.24972,-9.69307,-7.1018,-1.41759,85.8499
2023-03-11 17:56:45:251,-0.1898,1.24462,-9.69141,-7.09906,-1.419,85.8457
2023-03-11 17:56:45:261,-0.198091,1.22978,-9.66115,-7.09303,-1.4189,85.844
2023-03-11 17:56:45:271,-0.205741,1.22775,-9.64191,-7.09105,-1.41885,85.8457
2023-03-11 17:56:45:281,-0.210147,1.23003,-9.63806,-7.08566,-1.4192,85.8498
2023-03-11 17:56:45:291,-0.235172,1.23177,-9.65996,-7.08311,-1.423,85.8577
2023-03-11 17:56:45:301,-0.255985,1.24783,-9.66599,-7.08191,-1.42056,85.8655
2023-03-11 17:56:45:311,-0.265915,1.24318,-9.68608,-7.07898,-1.42394,85.8715
2023-03-11 17:56:45:321,-0.287038,1.23248,-9.68905,-7.07903,-1.42646,85.882
2023-03-11 17:56:45:331,-0.304371,1.2351,-9.70365,-7.07978,-1.42529,85.8916
2023-03-11 17:56:45:341,-0.308157,1.24887,-9.72494,-7.0822,-1.42032,85.8988
2023-03-11 17:56:45:351,-0.322745,1.25883,-9.74318,-7.08522,-1.4157,85.9018
2023-03-11 17:56:45:361,-0.326628,1.26462,-9.74082,-7.08885,-1.41083,85.9012
2023-03-11 17:56:45:371,-0.309334,1.27229,-9.72415,-7.09292,-1.40332,85.8995
2023-03-11 17:56:45:381,-0.284213,1.2679,-9.7119,-7.09626,-1.39897,85.8924
2023-03-11 17:56:45:391,-0.270051,1.25188,-9.68105,-7.09878,-1.39126,85.8826
2023-03-11 17:56:45:401,-0.269288,1.24749,-9.66813,-7.10029,-1.38625,85.87
2023-03-11 17:56:45:411,-0.264941,1.25184,-9.67574,-7.10443,-1.37906,85.8537
2023-03-11 17:56:45:421,-0.237883,1.27963,-9.70238,-7.10545,-1.36775,85.8399
2023-03-11 17:56:45:431,-0.164224,1.28584,-9.75309,-7.10694,-1.35554,85.8253
2023-03-11 17:56:45:441,-0.125444,1.26514,-9.74673,-7.10269,-1.34615,85.8096
2023-03-11 17:56:45:451,-0.13999,1.25144,-9.72411,-7.09216,-1.33722,85.7962
2023-03-11 17:56:45:461,-0.174874,1.25056,-9.72147,-7.08338,-1.3312,85.7876
2023-03-11 17:56:45:471,-0.188033,1.24752,-9.72034,-7.07629,-1.32653,85.7855
2023-03-11 17:56:45:481,-0.19413,1.24172,-9.72268,-7.07117,-1.32329,85.782
2023-03-11 17:56:45:491,-0.199952,1.23613,-9.72065,-7.06038,-1.31498,85.7798
2023-03-11 17:56:45:501,-0.199075,1.22966,-9.71705,-7.04896,-1.30961,85.7807
2023-03-11 17:56:45:511,-0.191932,1.22893,-9.71915,-7.04168,-1.29906,85.7798
2023-03-11 17:56:45:521,-0.189944,1.23213,-9.73055,-7.03329,-1.28887,85.7768
2023-03-11 17:56:45:531,-0.193688,1.23063,-9.72701,-7.02791,-1.28549,85.7714
2023-03-11 17:56:45:541,-0.19732,1.22723,-9.70992,-7.02028,-1.28011,85.7665
2023-03-11 17:56:45:551,-0.197939,1.21242,-9.70789,-7.01418,-1.2753,85.7631
2023-03-11 17:56:45:561,-0.18662,1.21199,-9.70054,-7.00114,-1.27018,85.7573
2023-03-11 17:56:45:571,-0.170723,1.21343,-9.70234,-6.98992,-1.26901,85.7501
2023-03-11 17:56:45:581,-0.159247,1.2024,-9.72626,-6.98043,-1.26896,85.7408
2023-03-11 17:56:45:591,-0.172764,1.18948,-9.7157,-6.9698,-1.27355,85.738
2023-03-11 17:56:45:601,-0.179006,1.18491,-9.70457,-6.95865,-1.28232,85.7383
2023-03-11 17:56:45:611,-0.17433,1.17678,-9.71002,-6.94641,-1.28746,85.7398
2023-03-11 17:56:45:621,-0.188656,1.17644,-9.70127,-6.93456,-1.29361,85.7418
2023-03-11 17:56:45:631,-0.216302,1.1679,-9.69485,-6.92474,-1.29819,85.7452
2023-03-11 17:56:45:641,-0.224226,1.17173,-9.6861,-6.91754,-1.30305,85.7529
2023-03-11 17:56:45:651,-0.231115,1.17232,-9.68165,-6.91382,-1.30167,85.76
2023-03-11 17:56:45:661,-0.247792,1.17052,-9.68633,-6.91264,-1.30445,85.7707
2023-03-11 17:56:45:671,-0.260695,1.17967,-9.69404,-6.91655,-1.30673,85.7775
2023-03-11 17:56:45:681,-0.26822,1.18713,-9.68312,-6.9183,-1.30693,85.7869
2023-03-11 17:56:45:691,-0.260899,1.19383,-9.68803,-6.91871,-1.30402,85.7953
2023-03-11 17:56:45:701,-0.265506,1.19889,-9.67575,-6.9207,-1.30266,85.7997
2023-03-11 17:56:45:711,-0.254162,1.19665,-9.6666,-6.92019,-1.29814,85.8059
2023-03-11 17:56:45:721,-0.259112,1.20353,-9.6661,-6.92101,-1.29776,85.8054
2023-03-11 17:56:45:731,-0.248231,1.20525,-9.67295,-6.92904,-1.29813,85.807
2023-03-11 17:56:45:741,-0.227913,1.21054,-9.69446,-6.93452,-1.29548,85.8023
2023-03-11 17:56:45:751,-0.221322,1.23554,-9.71778,-6.93873,-1.29281,85.7985
2023-03-11 17:56:45:761,-0.235508,1.25824,-9.75776,-6.95078,-1.29214,85.7931
2023-03-11 17:56:45:771,-0.249689,1.2791,-9.77556,-6.95689,-1.29072,85.7903
2023-03-11 17:56:45:781,-0.225024,1.27562,-9.76055,-6.96026,-1.28622,85.7841
2023-03-11 17:56:45:791,-0.215243,1.28348,-9.76953,-6.96465,-1.28242,85.7796
2023-03-11 17:56:45:801,-0.200484,1.30192,-9.79121,-6.96561,-1.27525,85.7739
2023-03-11 17:56:45:811,-0.191729,1.31892,-9.81159,-6.962,-1.26976,85.7681
2023-03-11 17:56:45:821,-0.197191,1.35798,-9.80978,-6.95157,-1.26411,85.7599
2023-03-11 17:56:45:831,-0.185969,1.37635,-9.79977,-6.93366,-1.26098,85.7518
2023-03-11 17:56:45:841,-0.159275,1.38715,-9.81333,-6.90876,-1.25525,85.7441
2023-03-11 17:56:45:851,-0.147201,1.40653,-9.81728,-6.88479,-1.25417,85.7358
2023-03-11 17:56:45:861,-0.139464,1.41219,-9.83314,-6.85217,-1.25192,85.728
2023-03-11 17:56:45:871,-0.145193,1.42506,-9.84645,-6.81148,-1.25653,85.723
2023-03-11 17:56:45:881,-0.166712,1.41436,-9.86094,-6.76377,-1.25879,85.7184
2023-03-11 17:56:45:891,-0.176296,1.42885,-9.89476,-6.70675,-1.26324,85.7166
2023-03-11 17:56:45:901,-0.18474,1.46577,-9.94046,-6.63829,-1.26644,85.7158
2023-03-11 17:56:45:911,-0.185645,1.47051,-9.94932,-6.55928,-1.2674,85.7175
2023-03-11 17:56:45:921,-0.184556,1.46095,-9.95155,-6.46663,-1.27112,85.7155
2023-03-11 17:56:45:931,-0.197061,1.4572,-9.92755,-6.36095,-1.2727,85.7199
2023-03-11 17:56:45:941,-0.207805,1.43079,-9.87918,-6.23929,-1.2781,85.7208
2023-03-11 17:56:45:951,-0.215252,1.3788,-9.84264,-6.10505,-1.28235,85.7223
2023-03-11 17:56:45:961,-0.19724,1.37129,-9.88232,-5.96428,-1.28518,85.7185
2023-03-11 17:56:45:971,-0.20106,1.41638,-9.97031,-5.81292,-1.29103,85.7186
2023-03-11 17:56:45:981,-0.224851,1.43008,-10.0221,-5.65356,-1.29535,85.7183
2023-03-11 17:56:45:991,-0.226415,1.41382,-10.0307,-5.4773,-1.30285,85.71
2023-03-11 17:56:46:1,-0.202967,1.34376,-9.99914,-5.28143,-1.31206,85.7024
2023-03-11 17:56:46:11,-0.198971,1.28536,-9.964,-5.06802,-1.31907,85.6955
2023-03-11 17:56:46:21,-0.220496,1.24442,-9.89581,-4.8432,-1.32814,85.6882
2023-03-11 17:56:46:31,-0.226797,1.18383,-9.85291,-4.60635,-1.33933,85.6787
2023-03-11 17:56:46:41,-0.218266,1.14736,-9.87213,-4.36188,-1.34871,85.6667
2023-03-11 17:56:46:51,-0.231705,1.12563,-9.91375,-4.11181,-1.36081,85.6583
2023-03-11 17:56:46:61,-0.256806,1.08504,-9.90485,-3.84959,-1.37318,85.6478
2023-03-11 17:56:46:71,-0.284689,1.049,-9.87824,-3.5744,-1.38781,85.6403
2023-03-11 17:56:46:81,-0.297934,0.985621,-9.85158,-3.28352,-1.3976,85.6303
2023-03-11 17:56:46:91,-0.29882,0.910605,-9.82806,-2.98293,-1.40502,85.6201
2023-03-11 17:56:46:101,-0.282949,0.857483,-9.82576,-2.67021,-1.40838,85.6088
2023-03-11 17:56:46:111,-0.275984,0.789365,-9.82193,-2.34693,-1.40993,85.5966
2023-03-11 17:56:46:121,-0.27015,0.737133,-9.82781,-2.0175,-1.40912,85.5808
2023-03-11 17:56:46:131,-0.2664,0.685869,-9.86395,-1.68055,-1.40483,85.5629
2023-03-11 17:56:46:141,-0.280165,0.641536,-9.89321,-1.33232,-1.40327,85.5462
2023-03-11 17:56:46:151,-0.315325,0.587883,-9.87407,-0.975792,-1.40209,85.5275
2023-03-11 17:56:46:161,-0.315922,0.510167,-9.85711,-0.605281,-1.40531,85.5084
2023-03-11 17:56:46:171,-0.296671,0.427347,-9.85869,-0.221387,-1.40242,85.4837
2023-03-11 17:56:46:181,-0.270476,0.357563,-9.84424,0.165694,-1.39715,85.4584
2023-03-11 17:56:46:191,-0.284226,0.274708,-9.83751,0.566774,-1.38672,85.4268
2023-03-11 17:56:46:201,-0.3088,0.202619,-9.83885,0.981133,-1.36737,85.3999
2023-03-11 17:56:46:211,-0.305486,0.0711731,-9.76218,1.40762,-1.34188,85.3721
2023-03-11 17:56:46:221,-0.295742,-0.0717104,-9.65127,1.84201,-1.31876,85.3377
2023-03-11 17:56:46:231,-0.262771,-0.140925,-9.66734,2.26697,-1.29461,85.3006
2023-03-11 17:56:46:241,-0.243304,-0.165061,-9.74127,2.69355,-1.27162,85.2562
2023-03-11 17:56:46:251,-0.255022,-0.227338,-9.79074,3.12319,-1.2509,85.212
2023-03-11 17:56:46:261,-0.272406,-0.339816,-9.78935,3.55999,-1.23217,85.164
2023-03-11 17:56:46:271,-0.29833,-0.432303,-9.77368,4.00632,-1.21043,85.1142
2023-03-11 17:56:46:281,-0.26311,-0.536591,-9.75323,4.46468,-1.18144,85.059
2023-03-11 17:56:46:291,-0.215581,-0.631099,-9.70262,4.92838,-1.14699,85.0059
2023-03-11 17:56:46:301,-0.176578,-0.742645,-9.67755,5.3935,-1.11334,84.9528
2023-03-11 17:56:46:311,-0.176883,-0.863142,-9.65722,5.86424,-1.08038,84.8932
2023-03-11 17:56:46:321,-0.17265,-0.966161,-9.60578,6.33776,-1.04605,84.8362
2023-03-11 17:56:46:331,-0.188551,-1.07124,-9.56037,6.8138,-1.01217,84.7764
2023-03-11 17:56:46:341,-0.181743,-1.16985,-9.54997,7.28715,-0.979286,84.7196
2023-03-11 17:56:46:351,-0.171934,-1.25536,-9.56781,7.76078,-0.946602,84.66
2023-03-11 17:56:46:361,-0.193985,-1.34938,-9.61654,8.23196,-0.90719,84.6042
2023-03-11 17:56:46:371,-0.201082,-1.4242,-9.62874,8.70608,-0.869622,84.5507
2023-03-11 17:56:46:381,-0.212279,-1.49675,-9.63776,9.18457,-0.827639,84.4962
2023-03-11 17:56:46:391,-0.229851,-1.60448,-9.60279,9.6678,-0.783592,84.4403
2023-03-11 17:56:46:401,-0.240329,-1.74381,-9.56019,10.1573,-0.736847,84.3843
2023-03-11 17:56:46:411,-0.213804,-1.87366,-9.49676,10.6484,-0.686821,84.3281
2023-03-11 17:56:46:421,-0.167265,-1.98853,-9.44545,11.1428,-0.636146,84.2706
2023-03-11 17:56:46:431,-0.135172,-2.08222,-9.38226,11.6348,-0.579127,84.2139
2023-03-11 17:56:46:441,-0.116995,-2.1552,-9.33436,12.1215,-0.518372,84.1647
2023-03-11 17:56:46:451,-0.0792222,-2.22507,-9.32077,12.6024,-0.453839,84.1178
2023-03-11 17:56:46:461,-0.0142992,-2.29084,-9.30797,13.0786,-0.384879,84.0748
2023-03-11 17:56:46:471,0.0448033,-2.33785,-9.30502,13.5463,-0.310781,84.0348
2023-03-11 17:56:46:481,0.0911619,-2.39685,-9.30732,14.0081,-0.242987,83.9953
2023-03-11 17:56:46:491,0.08926,-2.44279,-9.27673,14.4655,-0.181249,83.9651
2023-03-11 17:56:46:501,0.0832202,-2.47393,-9.25995,14.9172,-0.121341,83.9395
2023-03-11 17:56:46:511,0.0596098,-2.47579,-9.32275,15.3589,-0.0642698,83.9196
2023-03-11 17:56:46:521,0.0261906,-2.48251,-9.42211,15.7992,-0.00845196,83.9065
2023-03-11 17:56:46:531,-0.0073601,-2.53396,-9.51126,16.2442,0.0430572,83.9031
2023-03-11 17:56:46:541,-0.0232729,-2.61263,-9.54396,16.7039,0.101639,83.9035
2023-03-11 17:56:46:551,0.0319666,-2.73207,-9.48291,17.1792,0.160841,83.9003
2023-03-11 17:56:46:561,0.102612,-2.88288,-9.35459,17.6663,0.220948,83.8967
2023-03-11 17:56:46:571,0.100007,-2.99604,-9.22447,18.167,0.280661,83.8903
2023-03-11 17:56:46:581,0.105764,-3.08638,-9.11971,18.671,0.338071,83.8841
2023-03-11 17:56:46:591,0.210219,-3.17032,-9.09482,19.1782,0.398886,83.8795
2023-03-11 17:56:46:601,0.154274,-3.33724,-8.91469,19.6876,0.441384,83.8668
2023-03-11 17:56:46:611,0.078663,-3.43232,-8.93126,20.176,0.470675,83.8443
2023-03-11 17:56:46:621,0.0975596,-3.38547,-9.18774,20.6506,0.507987,83.8282
2023-03-11 17:56:46:631,0.125345,-3.36135,-9.29365,21.127,0.552917,83.8271
2023-03-11 17:56:46:641,0.122716,-3.46613,-9.14886,21.6218,0.594724,83.8155
2023-03-11 17:56:46:651,0.155415,-3.61006,-8.95768,22.1286,0.636488,83.8004
2023-03-11 17:56:46:661,0.230584,-3.74926,-8.86063,22.6401,0.678122,83.7778
2023-03-11 17:56:46:671,0.231586,-3.82803,-8.83542,23.1522,0.717896,83.7623
2023-03-11 17:56:46:681,0.173059,-3.91377,-8.79566,23.663,0.753903,83.7482
2023-03-11 17:56:46:691,0.101194,-4.01789,-8.73645,24.1735,0.786025,83.7293
2023-03-11 17:56:46:701,0.0695682,-4.12558,-8.66619,24.6844,0.816864,83.7039
2023-03-11 17:56:46:711,0.0891885,-4.2034,-8.61187,25.1868,0.849963,83.6791
2023-03-11 17:56:46:721,0.159603,-4.26923,-8.59629,25.6809,0.88431,83.6576
2023-03-11 17:56:46:731,0.244421,-4.31062,-8.61442,26.1694,0.922333,83.634
2023-03-11 17:56:46:741,0.263191,-4.33284,-8.60679,26.6558,0.958677,83.6137
2023-03-11 17:56:46:751,0.195903,-4.38057,-8.5561,27.1453,0.994356,83.5978
2023-03-11 17:56:46:761,0.125009,-4.4583,-8.49564,27.6407,1.02822,83.5911
2023-03-11 17:56:46:771,0.0875276,-4.56996,-8.45932,28.1382,1.06133,83.586
2023-03-11 17:56:46:781,0.0911559,-4.65926,-8.46847,28.6377,1.09795,83.5817
2023-03-11 17:56:46:791,0.185805,-4.72509,-8.54769,29.1317,1.13954,83.581
2023-03-11 17:56:46:801,0.309664,-4.7665,-8.57166,29.6228,1.18877,83.5828
2023-03-11 17:56:46:811,0.351864,-4.86369,-8.50393,30.1234,1.23299,83.5823
2023-03-11 17:56:46:821,0.320387,-4.95324,-8.41981,30.6331,1.26933,83.5782
2023-03-11 17:56:46:831,0.245038,-5.00317,-8.35133,31.1484,1.29907,83.5768
2023-03-11 17:56:46:841,0.170579,-5.04674,-8.30967,31.6633,1.32566,83.5787
2023-03-11 17:56:46:851,0.144697,-5.10238,-8.26725,32.1823,1.35426,83.5805
2023-03-11 17:56:46:861,0.182056,-5.14722,-8.18983,32.7017,1.38362,83.5844
2023-03-11 17:56:46:871,0.229446,-5.23667,-8.07667,33.2321,1.4177,83.5866
2023-03-11 17:56:46:881,0.217101,-5.31734,-7.9755,33.7673,1.45188,83.5906
2023-03-11 17:56:46:891,0.202222,-5.35717,-7.88872,34.3038,1.48588,83.5969
2023-03-11 17:56:46:901,0.187836,-5.41393,-7.83659,34.8396,1.52207,83.6081
2023-03-11 17:56:46:911,0.173138,-5.51459,-7.82075,35.3732,1.55836,83.6174
2023-03-11 17:56:46:921,0.203069,-5.57394,-7.82588,35.9083,1.59593,83.6267
2023-03-11 17:56:46:931,0.232431,-5.60456,-7.79625,36.439,1.63941,83.6333
2023-03-11 17:56:46:941,0.23526,-5.69502,-7.77262,36.9761,1.68772,83.6386
2023-03-11 17:56:46:951,0.223087,-5.76966,-7.74111,37.5184,1.73525,83.6437
2023-03-11 17:56:46:961,0.232372,-5.85962,-7.68119,38.0666,1.78764,83.6446
2023-03-11 17:56:46:971,0.263104,-5.97718,-7.59328,38.6279,1.8401,83.646
2023-03-11 17:56:46:981,0.296134,-6.11292,-7.51454,39.1926,1.89804,83.6375
2023-03-11 17:56:46:991,0.325091,-6.22194,-7.43127,39.7563,1.95704,83.6293
2023-03-11 17:56:47:1,0.36381,-6.32971,-7.36475,40.3219,2.02113,83.6221
2023-03-11 17:56:47:11,0.40942,-6.41935,-7.27534,40.8861,2.08699,83.6103
2023-03-11 17:56:47:21,0.414868,-6.54616,-7.16975,41.4503,2.14801,83.5963
2023-03-11 17:56:47:31,0.377299,-6.65449,-7.07637,42.0093,2.21219,83.5851
2023-03-11 17:56:47:41,0.375633,-6.74205,-7.00531,42.5623,2.28092,83.5767
2023-03-11 17:56:47:51,0.418819,-6.85003,-6.95499,43.106,2.35066,83.572
2023-03-11 17:56:47:61,0.461522,-6.90306,-6.89089,43.6453,2.41893,83.5648
2023-03-11 17:56:47:71,0.453735,-6.98022,-6.81162,44.179,2.48914,83.559
2023-03-11 17:56:47:81,0.414826,-7.03335,-6.73378,44.7003,2.55661,83.55
2023-03-11 17:56:47:91,0.462799,-7.09417,-6.68203,45.2137,2.62453,83.5381
2023-03-11 17:56:47:101,0.560193,-7.17857,-6.63337,45.719,2.69675,83.5245
2023-03-11 17:56:47:111,0.663064,-7.24488,-6.5678,46.2176,2.77042,83.5085
2023-03-11 17:56:47:121,0.696126,-7.32324,-6.49122,46.7098,2.83876,83.4909
2023-03-11 17:56:47:131,0.683696,-7.39665,-6.38385,47.1987,2.90173,83.4776
2023-03-11 17:56:47:141,0.650932,-7.49637,-6.29747,47.6788,2.9608,83.4647
2023-03-11 17:56:47:151,0.637446,-7.60102,-6.20761,48.1466,3.01413,83.454
2023-03-11 17:56:47:161,0.658032,-7.70182,-6.12925,48.6023,3.06223,83.444
2023-03-11 17:56:47:171,0.64237,-7.77633,-6.07986,49.0361,3.10774,83.4342
2023-03-11 17:56:47:181,0.606525,-7.79067,-6.05572,49.4483,3.14978,83.4215
2023-03-11 17:56:47:191,0.591197,-7.79863,-6.05852,49.8397,3.18617,83.4132
2023-03-11 17:56:47:201,0.582489,-7.81567,-6.06451,50.2141,3.21997,83.404
2023-03-11 17:56:47:211,0.595815,-7.83174,-6.04866,50.5805,3.25253,83.3979
2023-03-11 17:56:47:221,0.631898,-7.86804,-6.00698,50.9396,3.27844,83.3919
2023-03-11 17:56:47:231,0.643534,-7.87206,-5.93696,51.2911,3.3034,83.3842
2023-03-11 17:56:47:241,0.625666,-7.88342,-5.86028,51.6384,3.32462,83.3782
2023-03-11 17:56:47:251,0.628226,-7.93874,-5.77806,51.9879,3.34338,83.3757
2023-03-11 17:56:47:261,0.616745,-8.0183,-5.66733,52.3349,3.35941,83.3749
2023-03-11 17:56:47:271,0.599891,-8.11027,-5.56517,52.6734,3.37536,83.3743
2023-03-11 17:56:47:281,0.564152,-8.18423,-5.52272,52.9947,3.38584,83.3719
2023-03-11 17:56:47:291,0.537603,-8.21984,-5.54321,53.2875,3.3996,83.3704
2023-03-11 17:56:47:301,0.493931,-8.16051,-5.59135,53.5567,3.40947,83.3692
2023-03-11 17:56:47:311,0.473284,-8.09615,-5.66538,53.8105,3.42148,83.3734
2023-03-11 17:56:47:321,0.491699,-8.07348,-5.67908,54.0596,3.44005,83.3775
2023-03-11 17:56:47:331,0.56986,-8.09329,-5.63224,54.311,3.46239,83.3837
2023-03-11 17:56:47:341,0.603188,-8.15475,-5.53708,54.5691,3.48276,83.3899
2023-03-11 17:56:47:351,0.599703,-8.22402,-5.42471,54.8359,3.50993,83.4001
2023-03-11 17:56:47:361,0.581061,-8.27947,-5.3163,55.0941,3.53728,83.4119
2023-03-11 17:56:47:371,0.590931,-8.3356,-5.22499,55.3467,3.56611,83.4249
2023-03-11 17:56:47:381,0.586095,-8.36133,-5.193,55.5783,3.59629,83.4411
2023-03-11 17:56:47:391,0.575223,-8.39538,-5.16926,55.7916,3.62934,83.4566
2023-03-11 17:56:47:401,0.563545,-8.40524,-5.16877,55.9818,3.66112,83.4587
2023-03-11 17:56:47:411,0.553503,-8.35494,-5.25647,56.1444,3.69589,83.4558
2023-03-11 17:56:47:421,0.541443,-8.2885,-5.34141,56.2916,3.73129,83.4475
2023-03-11 17:56:47:431,0.560953,-8.26127,-5.36707,56.4297,3.77207,83.435
2023-03-11 17:56:47:441,0.656068,-8.27876,-5.34217,56.5692,3.81923,83.4138
2023-03-11 17:56:47:451,0.797686,-8.3169,-5.25508,56.708,3.87355,83.3856
2023-03-11 17:56:47:461,0.864718,-8.39449,-5.1735,56.8445,3.92579,83.3494
2023-03-11 17:56:47:471,0.837126,-8.44643,-5.11947,56.9791,3.97453,83.3093
2023-03-11 17:56:47:481,0.773164,-8.48268,-5.04429,57.1007,4.01121,83.2714
2023-03-11 17:56:47:491,0.720871,-8.48036,-5.02233,57.2075,4.04266,83.2375
2023-03-11 17:56:47:501,0.705864,-8.44422,-5.07486,57.2953,4.07708,83.2091
2023-03-11 17:56:47:511,0.762063,-8.44206,-5.13032,57.373,4.11447,83.1913
2023-03-11 17:56:47:521,0.80927,-8.43375,-5.15706,57.4433,4.14821,83.1755
2023-03-11 17:56:47:531,0.868561,-8.44073,-5.17136,57.5096,4.17615,83.154
2023-03-11 17:56:47:541,0.88493,-8.44558,-5.14757,57.5726,4.20199,83.1311
2023-03-11 17:56:47:551,0.841124,-8.49677,-5.07787,57.6334,4.21625,83.11
2023-03-11 17:56:47:561,0.791035,-8.51909,-4.98513,57.6879,4.22251,83.0953
2023-03-11 17:56:47:571,0.750138,-8.54568,-4.95859,57.7363,4.2283,83.0875
2023-03-11 17:56:47:581,0.731387,-8.56982,-4.95861,57.7678,4.23026,83.0868
2023-03-11 17:56:47:591,0.725222,-8.57197,-4.96762,57.7874,4.23517,83.0935
2023-03-11 17:56:47:601,0.695841,-8.53919,-4.9872,57.7956,4.23975,83.102
2023-03-11 17:56:47:611,0.67652,-8.51107,-5.00954,57.7864,4.24245,83.1115
2023-03-11 17:56:47:621,0.666511,-8.49567,-5.03426,57.7692,4.24705,83.1188
2023-03-11 17:56:47:631,0.666864,-8.46234,-5.06773,57.7414,4.25327,83.1278
2023-03-11 17:56:47:641,0.689992,-8.42722,-5.14136,57.7031,4.26739,83.1324
2023-03-11 17:56:47:651,0.781128,-8.41768,-5.21905,57.6619,4.28162,83.1395
2023-03-11 17:56:47:661,0.875585,-8.39681,-5.27248,57.6154,4.29591,83.143
2023-03-11 17:56:47:671,0.911373,-8.36889,-5.28192,57.5662,4.3044,83.143
2023-03-11 17:56:47:681,0.92221,-8.37816,-5.21609,57.5215,4.30911,83.142
2023-03-11 17:56:47:691,0.889617,-8.40905,-5.12446,57.4787,4.30743,83.1417
2023-03-11 17:56:47:701,0.852456,-8.41306,-5.08209,57.4326,4.2979,83.1452
2023-03-11 17:56:47:711,0.816992,-8.38728,-5.11464,57.3791,4.28923,83.1555
2023-03-11 17:56:47:721,0.804162,-8.37966,-5.11365,57.319,4.27588,83.1653
2023-03-11 17:56:47:731,0.825725,-8.34435,-5.20324,57.2493,4.2638,83.175
2023-03-11 17:56:47:741,0.893258,-8.36017,-5.24193,57.1737,4.25237,83.1856
2023-03-11 17:56:47:751,0.962081,-8.42159,-5.14341,57.0952,4.23089,83.1857
2023-03-11 17:56:47:761,0.974693,-8.44359,-5.0764,57.0109,4.20295,83.1858
2023-03-11 17:56:47:771,0.959622,-8.50281,-4.9887,56.9239,4.16481,83.1867
2023-03-11 17:56:47:781,0.900061,-8.58077,-4.90727,56.8259,4.1162,83.1874
2023-03-11 17:56:47:791,0.749259,-8.6574,-4.91838,56.7085,4.06474,83.1937
2023-03-11 17:56:47:801,0.604699,-8.6672,-4.96494,56.5644,4.00537,83.2025
2023-03-11 17:56:47:811,0.546079,-8.64827,-5.00175,56.3916,3.94776,83.2151
2023-03-11 17:56:47:821,0.615883,-8.63699,-5.05919,56.1956,3.90161,83.2276
2023-03-11 17:56:47:831,0.804736,-8.67297,-5.13125,55.9853,3.86627,83.2473
2023-03-11 17:56:47:841,0.947918,-8.71541,-5.14236,55.7616,3.8336,83.2591
2023-03-11 17:56:47:851,0.94817,-8.77297,-5.07982,55.5193,3.79038,83.2657
2023-03-11 17:56:47:861,0.796696,-8.81368,-4.96573,55.2504,3.73586,83.265
2023-03-11 17:56:47:871,0.600036,-8.78092,-4.8968,54.9492,3.66835,83.2638
2023-03-11 17:56:47:881,0.559671,-8.70997,-4.96669,54.6076,3.60235,83.2693
2023-03-11 17:56:47:891,0.715134,-8.63687,-5.11273,54.2245,3.54215,83.2788
2023-03-11 17:56:47:901,0.942217,-8.58113,-5.24587,53.8069,3.49273,83.2821
2023-03-11 17:56:47:911,1.04967,-8.54246,-5.30075,53.3573,3.43427,83.2782
2023-03-11 17:56:47:921,1.03285,-8.52489,-5.29774,52.879,3.35778,83.2624
2023-03-11 17:56:47:931,0.92386,-8.48057,-5.26217,52.3666,3.26409,83.2448
2023-03-11 17:56:47:941,0.767986,-8.38489,-5.26963,51.8141,3.14946,83.2249
2023-03-11 17:56:47:951,0.623456,-8.19649,-5.40622,51.2121,3.02378,83.2153
2023-03-11 17:56:47:961,0.538527,-7.96967,-5.65172,50.5691,2.89598,83.212
2023-03-11 17:56:47:971,0.492072,-7.77954,-5.90268,49.8945,2.76595,83.2166
2023-03-11 17:56:47:981,0.50006,-7.59979,-6.11922,49.1995,2.63833,83.2294
2023-03-11 17:56:47:991,0.545039,-7.47372,-6.23969,48.4989,2.51415,83.2422
2023-03-11 17:56:48:1,0.529639,-7.41696,-6.21839,47.7918,2.38164,83.2443
2023-03-11 17:56:48:11,0.434858,-7.40935,-6.15138,47.0721,2.24201,83.231
2023-03-11 17:56:48:21,0.302207,-7.36474,-6.13992,46.3349,2.09213,83.211
2023-03-11 17:56:48:31,0.148479,-7.23913,-6.24631,45.5616,1.94423,83.1783
2023-03-11 17:56:48:41,-0.0570565,-7.07195,-6.42842,44.758,1.79189,83.1307
2023-03-11 17:56:48:51,-0.223741,-6.8779,-6.62015,43.9201,1.6505,83.0798
2023-03-11 17:56:48:61,-0.246162,-6.7171,-6.7982,43.0604,1.52034,83.0185
2023-03-11 17:56:48:71,-0.183765,-6.57783,-6.93362,42.1884,1.40609,82.9397
2023-03-11 17:56:48:81,-0.0885715,-6.43683,-6.99334,41.3083,1.30278,82.8503
2023-03-11 17:56:48:91,-0.0592724,-6.41159,-6.91441,40.431,1.20991,82.7539
2023-03-11 17:56:48:101,-0.092107,-6.43028,-6.75784,39.5449,1.11491,82.643
2023-03-11 17:56:48:111,-0.153562,-6.36042,-6.68881,38.629,1.01723,82.53
2023-03-11 17:56:48:121,-0.232798,-6.20153,-6.83015,37.6721,0.928064,82.4206
2023-03-11 17:56:48:131,-0.291728,-5.98423,-7.07027,36.6673,0.843067,82.3185
2023-03-11 17:56:48:141,-0.332507,-5.71635,-7.29201,35.6203,0.760643,82.2242
2023-03-11 17:56:48:151,-0.293867,-5.46612,-7.44698,34.5516,0.692203,82.1382
2023-03-11 17:56:48:161,-0.147152,-5.29882,-7.46687,33.4769,0.641368,82.061
2023-03-11 17:56:48:171,0.0450098,-5.2347,-7.39778,32.4024,0.604628,81.9906
2023-03-11 17:56:48:181,0.144876,-5.16762,-7.33302,31.3142,0.571685,81.9302
2023-03-11 17:56:48:191,0.219855,-4.94642,-7.47068,30.1851,0.531446,81.8785
2023-03-11 17:56:48:201,0.267317,-4.60328,-7.81334,28.9963,0.48335,81.8396
2023-03-11 17:56:48:211,0.251376,-4.11365,-8.22198,27.7551,0.41894,81.8101
2023-03-11 17:56:48:221,0.217615,-3.6161,-8.68443,26.4825,0.335195,81.7939
2023-03-11 17:56:48:231,0.198234,-3.14831,-9.0981,25.2086,0.236745,81.789
2023-03-11 17:56:48:241,0.157066,-2.72357,-9.42645,23.9571,0.130139,81.7957
2023-03-11 17:56:48:251,0.101402,-2.37859,-9.6498,22.7628,0.0156011,81.8168
2023-03-11 17:56:48:261,-0.00976798,-2.18832,-9.74358,21.6491,-0.0967268,81.8598
2023-03-11 17:56:48:271,-0.127643,-2.10177,-9.72046,20.6229,-0.199249,81.9198
2023-03-11 17:56:48:281,-0.170426,-2.06772,-9.65859,19.6759,-0.289,81.9953
2023-03-11 17:56:48:291,-0.133491,-2.00128,-9.63181,18.7856,-0.360485,82.0763
2023-03-11 17:56:48:301,-0.0865398,-1.92181,-9.68803,17.9347,-0.42335,82.1652
2023-03-11 17:56:48:311,-0.0398306,-1.81269,-9.77265,17.1204,-0.487384,82.2599
2023-03-11 17:56:48:321,-0.0723634,-1.69023,-9.82762,16.3396,-0.552974,82.3595
2023-03-11 17:56:48:331,-0.220478,-1.61283,-9.84577,15.599,-0.622814,82.4631
2023-03-11 17:56:48:341,-0.337762,-1.54417,-9.84521,14.8991,-0.692168,82.568
2023-03-11 17:56:48:351,-0.366124,-1.49882,-9.84693,14.2396,-0.754925,82.6688
2023-03-11 17:56:48:361,-0.307215,-1.48059,-9.81551,13.6194,-0.80555,82.765
2023-03-11 17:56:48:371,-0.257943,-1.48023,-9.73056,13.0309,-0.851024,82.8497
2023-03-11 17:56:48:381,-0.281829,-1.47933,-9.66467,12.4687,-0.897012,82.9224
2023-03-11 17:56:48:391,-0.344569,-1.43015,-9.64584,11.9206,-0.945177,82.9913
2023-03-11 17:56:48:401,-0.381943,-1.38216,-9.67888,11.3872,-0.994179,83.0559
2023-03-11 17:56:48:411,-0.416931,-1.31257,-9.6972,10.8658,-1.03595,83.1118
2023-03-11 17:56:48:421,-0.475209,-1.25875,-9.69054,10.3543,-1.07543,83.1599
2023-03-11 17:56:48:431,-0.493822,-1.22151,-9.66375,9.8597,-1.10366,83.2015
2023-03-11 17:56:48:441,-0.414008,-1.19797,-9.66113,9.38211,-1.11836,83.2354
2023-03-11 17:56:48:451,-0.27195,-1.19821,-9.66951,8.91513,-1.12198,83.2578
2023-03-11 17:56:48:461,-0.216721,-1.20651,-9.66769,8.46022,-1.12517,83.2762
2023-03-11 17:56:48:471,-0.263581,-1.18689,-9.63679,8.00995,-1.13473,83.2889
2023-03-11 17:56:48:481,-0.283163,-1.11063,-9.66529,7.56224,-1.14858,83.2974
2023-03-11 17:56:48:491,-0.242045,-1.01601,-9.76779,7.10557,-1.1653,83.3012
2023-03-11 17:56:48:501,-0.158853,-0.897394,-9.84952,6.65458,-1.17828,83.299
2023-03-11 17:56:48:511,-0.114756,-0.789591,-9.89686,6.20646,-1.19214,83.2961
2023-03-11 17:56:48:521,-0.113892,-0.716415,-9.83767,5.77442,-1.21337,83.2898
2023-03-11 17:56:48:531,-0.135652,-0.69586,-9.74925,5.35702,-1.23373,83.2928
2023-03-11 17:56:48:541,-0.126688,-0.690623,-9.67398,4.94961,-1.2542,83.2984
2023-03-11 17:56:48:551,-0.185472,-0.646719,-9.58139,4.54369,-1.27452,83.3084
2023-03-11 17:56:48:561,-0.287677,-0.58708,-9.4731,4.13012,-1.29318,83.3248
2023-03-11 17:56:48:571,-0.333259,-0.533178,-9.4251,3.70859,-1.30734,83.3481
2023-03-11 17:56:48:581,-0.316844,-0.457246,-9.43555,3.27754,-1.30899,83.3717
2023-03-11 17:56:48:591,-0.269709,-0.337861,-9.49832,2.83072,-1.30848,83.3941
2023-03-11 17:56:48:601,-0.232012,-0.213269,-9.60346,2.37136,-1.30419,83.4166
2023-03-11 17:56:48:611,-0.23787,-0.0607619,-9.71356,1.90267,-1.30206,83.4451
2023-03-11 17:56:48:621,-0.239379,0.0853168,-9.80541,1.42923,-1.30006,83.4722
2023-03-11 17:56:48:631,-0.21394,0.211982,-9.86961,0.964566,-1.29186,83.4983
2023-03-11 17:56:48:641,-0.165706,0.330269,-9.9147,0.508551,-1.28275,83.5243
2023-03-11 17:56:48:651,-0.131792,0.440358,-9.93494,0.0691466,-1.27334,83.5459
2023-03-11 17:56:48:661,-0.112886,0.496941,-9.90734,-0.355156,-1.26243,83.5689
2023-03-11 17:56:48:671,-0.106416,0.528708,-9.85401,-0.766339,-1.25281,83.5916
2023-03-11 17:56:48:681,-0.117287,0.584855,-9.80809,-1.16588,-1.24916,83.6197
2023-03-11 17:56:48:691,-0.106542,0.651877,-9.78833,-1.56104,-1.24848,83.6486
2023-03-11 17:56:48:701,-0.0931544,0.698401,-9.76484,-1.95107,-1.24807,83.6779
2023-03-11 17:56:48:711,-0.107674,0.767716,-9.77859,-2.34243,-1.25094,83.7047
2023-03-11 17:56:48:721,-0.129994,0.86689,-9.78697,-2.72999,-1.25582,83.736
2023-03-11 17:56:48:731,-0.148748,0.956322,-9.79047,-3.11591,-1.25834,83.7695
2023-03-11 17:56:48:741,-0.11915,1.02555,-9.80817,-3.49318,-1.2569,83.8043
2023-03-11 17:56:48:751,-0.0828501,1.0761,-9.80433,-3.85674,-1.25863,83.8373
2023-03-11 17:56:48:761,-0.0919302,1.10257,-9.78108,-4.21289,-1.26297,83.8731
2023-03-11 17:56:48:771,-0.102423,1.13981,-9.74342,-4.55628,-1.27193,83.9122
2023-03-11 17:56:48:781,-0.0940034,1.16763,-9.72312,-4.89635,-1.28117,83.9541
2023-03-11 17:56:48:791,-0.0926104,1.19179,-9.72082,-5.23268,-1.28902,83.9955
2023-03-11 17:56:48:801,-0.119809,1.23838,-9.72727,-5.56706,-1.3008,84.0401
2023-03-11 17:56:48:811,-0.136131,1.29282,-9.7578,-5.90041,-1.31303,84.0883
2023-03-11 17:56:48:821,-0.159877,1.35442,-9.77296,-6.22691,-1.32394,84.1402
2023-03-11 17:56:48:831,-0.172644,1.41912,-9.79198,-6.54786,-1.33052,84.1956
2023-03-11 17:56:48:841,-0.19416,1.47391,-9.80688,-6.85987,-1.34034,84.2492
2023-03-11 17:56:48:851,-0.213058,1.53982,-9.81529,-7.15806,-1.34468,84.3061
2023-03-11 17:56:48:861,-0.217714,1.60444,-9.81428,-7.45184,-1.34974,84.3637
2023-03-11 17:56:48:871,-0.216444,1.67636,-9.85498,-7.73753,-1.35238,84.4255
2023-03-11 17:56:48:881,-0.213332,1.79193,-9.90169,-8.01171,-1.35366,84.4866
2023-03-11 17:56:48:891,-0.212138,1.88524,-9.92286,-8.26884,-1.35593,84.5487
2023-03-11 17:56:48:901,-0.222027,1.94236,-9.90682,-8.50905,-1.36186,84.6096
2023-03-11 17:56:48:911,-0.23888,1.95394,-9.87009,-8.72975,-1.36493,84.6727
2023-03-11 17:56:48:921,-0.259265,1.96707,-9.82028,-8.9296,-1.36714,84.736
2023-03-11 17:56:48:931,-0.264265,1.98959,-9.7594,-9.11827,-1.3711,84.8005
2023-03-11 17:56:48:941,-0.275199,1.98678,-9.71691,-9.29609,-1.37866,84.8612
2023-03-11 17:56:48:951,-0.274712,2.02043,-9.70921,-9.46456,-1.3856,84.9252
2023-03-11 17:56:48:961,-0.276269,2.12007,-9.81504,-9.63416,-1.39594,84.9841
2023-03-11 17:56:48:971,-0.28819,2.23485,-9.9511,-9.80334,-1.40985,85.0443
2023-03-11 17:56:48:981,-0.299265,2.32326,-10.0366,-9.95747,-1.42453,85.1014
2023-03-11 17:56:48:991,-0.323106,2.38493,-10.0544,-10.0837,-1.43742,85.1602
2023-03-11 17:56:49:1,-0.351043,2.38796,-10.0121,-10.1803,-1.44771,85.2179
2023-03-11 17:56:49:11,-0.363724,2.34131,-9.92785,-10.2461,-1.45135,85.273
2023-03-11 17:56:49:21,-0.347218,2.27708,-9.84842,-10.2887,-1.44914,85.3254
