Timestamp,Acceleration_x,Acceleration_y,Acceleration_z,roll,pitch,yaw
2023-03-14 22:08:46:855,-0.716158,1.2578,-9.72995,-7.05901,-4.01298,14.1147
2023-03-14 22:08:46:864,-0.712681,1.25766,-9.69549,-7.05277,-4.01404,14.1033
2023-03-14 22:08:46:874,-0.670238,1.23194,-9.67592,-7.04702,-4.01046,14.0894
2023-03-14 22:08:46:884,-0.634125,1.21074,-9.67254,-7.03991,-4.00849,14.0767
2023-03-14 22:08:46:894,-0.604093,1.22546,-9.68786,-7.034,-4.00115,14.0642
2023-03-14 22:08:46:904,-0.568449,1.22791,-9.69489,-7.03018,-3.99343,14.0559
2023-03-14 22:08:46:914,-0.535885,1.21856,-9.6822,-7.02722,-3.9866,14.0452
2023-03-14 22:08:46:924,-0.554269,1.20867,-9.67458,-7.02403,-3.98574,14.0365
2023-03-14 22:08:46:934,-0.588403,1.20629,-9.66983,-7.02447,-3.98221,14.0353
2023-03-14 22:08:46:944,-0.61687,1.21255,-9.68677,-7.02671,-3.98055,14.0349
2023-03-14 22:08:46:954,-0.624142,1.2009,-9.70132,-7.03217,-3.9786,14.0342
2023-03-14 22:08:46:964,-0.627971,1.19455,-9.7019,-7.03806,-3.9757,14.033
2023-03-14 22:08:46:974,-0.639055,1.2003,-9.70595,-7.048,-3.97204,14.0301
2023-03-14 22:08:46:984,-0.672617,1.19465,-9.70305,-7.0566,-3.96905,14.0289
2023-03-14 22:08:46:994,-0.707797,1.19928,-9.70372,-7.06244,-3.96466,14.0278
2023-03-14 22:08:47:4,-0.715719,1.19519,-9.71303,-7.06346,-3.95668,14.0247
2023-03-14 22:08:47:14,-0.673598,1.18253,-9.69417,-7.06039,-3.95231,14.0203
2023-03-14 22:08:47:24,-0.651862,1.15305,-9.67275,-7.05354,-3.94357,14.0131
2023-03-14 22:08:47:34,-0.62941,1.1426,-9.64663,-7.04811,-3.93563,14.0039
2023-03-14 22:08:47:44,-0.606674,1.13863,-9.6419,-7.04332,-3.92168,14.0012
2023-03-14 22:08:47:54,-0.584593,1.14362,-9.63144,-7.04062,-3.90908,13.9983
2023-03-14 22:08:47:64,-0.575311,1.14447,-9.60533,-7.0394,-3.89523,14.0012
2023-03-14 22:08:47:74,-0.565921,1.1318,-9.58483,-7.03889,-3.88556,14.0103
2023-03-14 22:08:47:84,-0.573006,1.15429,-9.60013,-7.03851,-3.87636,14.0214
2023-03-14 22:08:47:94,-0.574769,1.16703,-9.63175,-7.04304,-3.87011,14.0368
2023-03-14 22:08:47:104,-0.570135,1.18328,-9.65565,-7.05133,-3.85969,14.0527
2023-03-14 22:08:47:114,-0.595296,1.23756,-9.68479,-7.06317,-3.85375,14.0762
2023-03-14 22:08:47:124,-0.578119,1.258,-9.72712,-7.07286,-3.84524,14.0953
2023-03-14 22:08:47:134,-0.544307,1.26104,-9.73041,-7.08583,-3.84429,14.1158
2023-03-14 22:08:47:144,-0.569425,1.27223,-9.70285,-7.10159,-3.84934,14.1391
2023-03-14 22:08:47:154,-0.614667,1.29314,-9.70078,-7.11667,-3.86038,14.1611
2023-03-14 22:08:47:164,-0.629083,1.3253,-9.69861,-7.13326,-3.87589,14.1768
2023-03-14 22:08:47:174,-0.640853,1.34139,-9.72193,-7.14967,-3.89146,14.1878
2023-03-14 22:08:47:184,-0.64103,1.35573,-9.73385,-7.16409,-3.90803,14.194
2023-03-14 22:08:47:194,-0.623474,1.34761,-9.73724,-7.17836,-3.92672,14.1961
2023-03-14 22:08:47:204,-0.611166,1.32874,-9.73168,-7.18735,-3.94274,14.1943
2023-03-14 22:08:47:214,-0.627641,1.32884,-9.72899,-7.19354,-3.96186,14.1912
2023-03-14 22:08:47:224,-0.65768,1.3312,-9.73234,-7.19905,-3.9812,14.1868
2023-03-14 22:08:47:234,-0.67723,1.31626,-9.73506,-7.20023,-4.00211,14.1791
2023-03-14 22:08:47:244,-0.688832,1.29212,-9.71445,-7.19508,-4.02193,14.1714
2023-03-14 22:08:47:254,-0.694954,1.26372,-9.70718,-7.18852,-4.0414,14.1665
2023-03-14 22:08:47:264,-0.705282,1.26231,-9.70171,-7.18157,-4.06016,14.1616
2023-03-14 22:08:47:274,-0.706644,1.25586,-9.69631,-7.17238,-4.07655,14.1575
2023-03-14 22:08:47:284,-0.697013,1.23447,-9.69541,-7.1639,-4.09078,14.156
2023-03-14 22:08:47:294,-0.693801,1.22464,-9.67064,-7.15809,-4.10262,14.1563
2023-03-14 22:08:47:304,-0.695009,1.21705,-9.66694,-7.15313,-4.11482,14.1562
2023-03-14 22:08:47:314,-0.720736,1.20769,-9.6732,-7.1431,-4.12563,14.1591
2023-03-14 22:08:47:324,-0.746652,1.21923,-9.6772,-7.14007,-4.13466,14.1652
2023-03-14 22:08:47:334,-0.764178,1.23472,-9.68524,-7.13549,-4.14183,14.1714
2023-03-14 22:08:47:344,-0.774273,1.21403,-9.67465,-7.13096,-4.14757,14.1759
2023-03-14 22:08:47:354,-0.792044,1.21096,-9.66641,-7.12445,-4.15724,14.1845
2023-03-14 22:08:47:364,-0.820735,1.20436,-9.65796,-7.11487,-4.16663,14.1929
2023-03-14 22:08:47:374,-0.806171,1.20042,-9.64941,-7.11047,-4.17179,14.1971
2023-03-14 22:08:47:384,-0.762837,1.20809,-9.64577,-7.09779,-4.17652,14.1939
2023-03-14 22:08:47:394,-0.723521,1.1939,-9.62639,-7.08695,-4.18027,14.1903
2023-03-14 22:08:47:404,-0.69496,1.17321,-9.59866,-7.07337,-4.18213,14.1839
2023-03-14 22:08:47:414,-0.690236,1.16577,-9.57513,-7.06458,-4.18686,14.1823
2023-03-14 22:08:47:424,-0.738613,1.17667,-9.60415,-7.06294,-4.19806,14.1834
2023-03-14 22:08:47:434,-0.765305,1.19811,-9.63993,-7.06613,-4.2095,14.1818
2023-03-14 22:08:47:444,-0.767309,1.204,-9.6448,-7.07361,-4.21498,14.1804
2023-03-14 22:08:47:454,-0.743522,1.21311,-9.65005,-7.08314,-4.21454,14.1868
2023-03-14 22:08:47:464,-0.733071,1.22544,-9.67327,-7.0955,-4.2158,14.1913
2023-03-14 22:08:47:474,-0.748478,1.24483,-9.68457,-7.10873,-4.2128,14.1984
2023-03-14 22:08:47:484,-0.764627,1.26265,-9.70089,-7.1211,-4.20693,14.2067
2023-03-14 22:08:47:494,-0.776858,1.26384,-9.72259,-7.13335,-4.20447,14.2116
2023-03-14 22:08:47:504,-0.78325,1.27455,-9.6958,-7.14148,-4.20723,14.2157
2023-03-14 22:08:47:514,-0.810081,1.27594,-9.69042,-7.14251,-4.20893,14.2152
2023-03-14 22:08:47:524,-0.786779,1.26965,-9.67731,-7.14467,-4.21408,14.2112
2023-03-14 22:08:47:534,-0.746285,1.25833,-9.65942,-7.14436,-4.21681,14.2088
2023-03-14 22:08:47:544,-0.73407,1.2413,-9.6649,-7.14153,-4.21532,14.2028
2023-03-14 22:08:47:554,-0.717218,1.234,-9.67623,-7.1402,-4.21645,14.2018
2023-03-14 22:08:47:564,-0.71711,1.22676,-9.69982,-7.13832,-4.2161,14.2011
2023-03-14 22:08:47:574,-0.717355,1.23402,-9.70513,-7.141,-4.21916,14.2097
2023-03-14 22:08:47:584,-0.736664,1.23972,-9.71283,-7.14235,-4.22361,14.2223
2023-03-14 22:08:47:594,-0.780196,1.25437,-9.71415,-7.14954,-4.22687,14.2369
2023-03-14 22:08:47:604,-0.794313,1.25788,-9.69422,-7.15279,-4.2301,14.252
2023-03-14 22:08:47:614,-0.788978,1.25397,-9.67177,-7.15774,-4.23135,14.2682
2023-03-14 22:08:47:624,-0.794786,1.23347,-9.65863,-7.16079,-4.22776,14.2808
2023-03-14 22:08:47:634,-0.795965,1.22889,-9.64853,-7.16328,-4.2238,14.2924
2023-03-14 22:08:47:644,-0.75662,1.22804,-9.65753,-7.16401,-4.21983,14.3012
2023-03-14 22:08:47:654,-0.725041,1.21027,-9.66557,-7.16594,-4.21097,14.3083
2023-03-14 22:08:47:664,-0.70276,1.18742,-9.66309,-7.16683,-4.20384,14.3137
2023-03-14 22:08:47:674,-0.663116,1.17291,-9.66483,-7.17234,-4.19906,14.3207
2023-03-14 22:08:47:684,-0.664387,1.17566,-9.66102,-7.17844,-4.19624,14.3331
2023-03-14 22:08:47:694,-0.698194,1.18715,-9.67695,-7.18742,-4.19161,14.344
2023-03-14 22:08:47:704,-0.704141,1.19208,-9.66118,-7.19303,-4.18921,14.3522
2023-03-14 22:08:47:714,-0.700975,1.19624,-9.63193,-7.20059,-4.1889,14.3606
2023-03-14 22:08:47:724,-0.700124,1.20822,-9.64848,-7.20886,-4.18147,14.3674
2023-03-14 22:08:47:734,-0.685334,1.21627,-9.68633,-7.21921,-4.1785,14.3739
2023-03-14 22:08:47:744,-0.693269,1.21984,-9.71142,-7.23182,-4.17311,14.378
2023-03-14 22:08:47:754,-0.712591,1.22577,-9.7205,-7.24114,-4.16908,14.3819
2023-03-14 22:08:47:764,-0.720788,1.23949,-9.71878,-7.25243,-4.16381,14.3887
2023-03-14 22:08:47:774,-0.734959,1.25335,-9.70905,-7.25783,-4.16123,14.3949
2023-03-14 22:08:47:784,-0.741205,1.24152,-9.69293,-7.26439,-4.15985,14.3958
2023-03-14 22:08:47:794,-0.720315,1.23023,-9.67239,-7.26455,-4.15622,14.3919
2023-03-14 22:08:47:804,-0.693273,1.21832,-9.66946,-7.26698,-4.15487,14.3899
2023-03-14 22:08:47:814,-0.687451,1.22247,-9.65096,-7.26924,-4.15034,14.3832
2023-03-14 22:08:47:824,-0.681638,1.225,-9.66702,-7.27188,-4.14496,14.379
2023-03-14 22:08:47:834,-0.668784,1.23514,-9.68303,-7.2746,-4.14066,14.3737
2023-03-14 22:08:47:844,-0.655068,1.22196,-9.68748,-7.279,-4.13837,14.3708
2023-03-14 22:08:47:854,-0.652467,1.23862,-9.66958,-7.28104,-4.1368,14.372
2023-03-14 22:08:47:864,-0.654744,1.25456,-9.67085,-7.28851,-4.13581,14.3707
2023-03-14 22:08:47:874,-0.665901,1.26934,-9.67722,-7.29402,-4.12872,14.37
2023-03-14 22:08:47:884,-0.647784,1.26123,-9.66974,-7.29846,-4.12318,14.368
2023-03-14 22:08:47:894,-0.58939,1.23713,-9.66892,-7.29738,-4.11507,14.3666
2023-03-14 22:08:47:904,-0.576228,1.2314,-9.64347,-7.29392,-4.10989,14.3721
2023-03-14 22:08:47:914,-0.580935,1.23959,-9.63202,-7.30214,-4.11104,14.3812
2023-03-14 22:08:47:924,-0.601914,1.25466,-9.6395,-7.31289,-4.11043,14.3935
2023-03-14 22:08:47:934,-0.614403,1.27617,-9.65734,-7.32944,-4.11035,14.4057
2023-03-14 22:08:47:944,-0.639921,1.28388,-9.66426,-7.34619,-4.11043,14.4201
2023-03-14 22:08:47:954,-0.679088,1.29869,-9.67438,-7.36655,-4.11927,14.4356
2023-03-14 22:08:47:964,-0.699233,1.31412,-9.72092,-7.38277,-4.12618,14.452
2023-03-14 22:08:47:974,-0.698027,1.33767,-9.73428,-7.40368,-4.13628,14.4616
2023-03-14 22:08:47:984,-0.760641,1.3514,-9.72826,-7.41981,-4.14439,14.4721
2023-03-14 22:08:47:994,-0.832314,1.36418,-9.72968,-7.43472,-4.15536,14.4825
2023-03-14 22:08:48:4,-0.810479,1.33501,-9.70477,-7.44502,-4.16355,14.486
2023-03-14 22:08:48:14,-0.793158,1.29609,-9.66875,-7.45226,-4.17028,14.4853
2023-03-14 22:08:48:24,-0.786851,1.28718,-9.63882,-7.45588,-4.177,14.4835
2023-03-14 22:08:48:34,-0.786991,1.28801,-9.64557,-7.46225,-4.18242,14.4801
2023-03-14 22:08:48:44,-0.771774,1.26656,-9.65155,-7.4665,-4.19417,14.4739
2023-03-14 22:08:48:54,-0.789155,1.2601,-9.65726,-7.46711,-4.20287,14.4695
2023-03-14 22:08:48:64,-0.778111,1.279,-9.67102,-7.47234,-4.20908,14.4627
2023-03-14 22:08:48:74,-0.768763,1.28087,-9.68898,-7.48036,-4.21296,14.4552
2023-03-14 22:08:48:84,-0.764306,1.28422,-9.67086,-7.48631,-4.2109,14.4471
2023-03-14 22:08:48:94,-0.744302,1.26963,-9.63123,-7.48915,-4.20586,14.4369
2023-03-14 22:08:48:104,-0.728604,1.25901,-9.60489,-7.49383,-4.20085,14.4289
2023-03-14 22:08:48:114,-0.702612,1.26041,-9.60265,-7.49858,-4.19547,14.4188
2023-03-14 22:08:48:124,-0.683739,1.26379,-9.59159,-7.50779,-4.1877,14.4113
2023-03-14 22:08:48:134,-0.662282,1.26329,-9.60528,-7.51861,-4.18081,14.4045
2023-03-14 22:08:48:144,-0.665113,1.29948,-9.63164,-7.53704,-4.16998,14.4018
2023-03-14 22:08:48:154,-0.676435,1.34279,-9.67995,-7.55542,-4.16053,14.3995
2023-03-14 22:08:48:163,-0.689265,1.37152,-9.70593,-7.57543,-4.15285,14.3943
2023-03-14 22:08:48:174,-0.674726,1.3649,-9.70313,-7.59001,-4.14977,14.388
2023-03-14 22:08:48:184,-0.667027,1.349,-9.67569,-7.60057,-4.14204,14.3837
2023-03-14 22:08:48:194,-0.660864,1.33681,-9.65655,-7.60596,-4.13797,14.3784
2023-03-14 22:08:48:204,-0.660652,1.32991,-9.66698,-7.61193,-4.13522,14.3732
2023-03-14 22:08:48:214,-0.66106,1.33588,-9.66222,-7.62145,-4.13169,14.3731
2023-03-14 22:08:48:224,-0.670699,1.33039,-9.67678,-7.62759,-4.13138,14.3757
2023-03-14 22:08:48:234,-0.676807,1.34201,-9.68757,-7.63879,-4.13027,14.3799
2023-03-14 22:08:48:244,-0.704079,1.34497,-9.70767,-7.64318,-4.13183,14.3779
2023-03-14 22:08:48:254,-0.722547,1.34443,-9.71518,-7.65308,-4.13517,14.3824
2023-03-14 22:08:48:264,-0.729339,1.34744,-9.71862,-7.66443,-4.13626,14.3853
2023-03-14 22:08:48:274,-0.726928,1.35156,-9.72556,-7.67124,-4.1388,14.3875
2023-03-14 22:08:48:284,-0.72412,1.35769,-9.71012,-7.67965,-4.13819,14.3877
2023-03-14 22:08:48:294,-0.713152,1.35798,-9.69482,-7.68599,-4.13807,14.3873
2023-03-14 22:08:48:304,-0.731666,1.37416,-9.69446,-7.69076,-4.13441,14.3892
2023-03-14 22:08:48:314,-0.768475,1.37724,-9.6988,-7.69108,-4.13104,14.3911
2023-03-14 22:08:48:324,-0.786402,1.36974,-9.68219,-7.6888,-4.13124,14.393
2023-03-14 22:08:48:334,-0.759119,1.35121,-9.68537,-7.68101,-4.126,14.3949
2023-03-14 22:08:48:344,-0.699484,1.32409,-9.68099,-7.67236,-4.12154,14.3977
2023-03-14 22:08:48:354,-0.661673,1.29445,-9.6603,-7.65515,-4.11886,14.3976
2023-03-14 22:08:48:364,-0.660975,1.27491,-9.637,-7.64489,-4.11845,14.398
2023-03-14 22:08:48:374,-0.691167,1.27697,-9.62801,-7.6342,-4.11989,14.3992
2023-03-14 22:08:48:384,-0.715521,1.27656,-9.64893,-7.63048,-4.12525,14.4015
2023-03-14 22:08:48:394,-0.722513,1.28292,-9.66513,-7.62527,-4.12651,14.4044
2023-03-14 22:08:48:404,-0.713199,1.29315,-9.69084,-7.62025,-4.13129,14.4041
2023-03-14 22:08:48:414,-0.708288,1.2904,-9.72529,-7.61835,-4.1341,14.4073
2023-03-14 22:08:48:424,-0.74147,1.30346,-9.75487,-7.61584,-4.14016,14.412
2023-03-14 22:08:48:434,-0.768828,1.33998,-9.75818,-7.61145,-4.14231,14.4146
2023-03-14 22:08:48:444,-0.750767,1.34747,-9.73471,-7.60534,-4.14254,14.4157
2023-03-14 22:08:48:454,-0.715691,1.30993,-9.67718,-7.59336,-4.13658,14.4121
2023-03-14 22:08:48:464,-0.671282,1.25504,-9.62381,-7.57642,-4.13248,14.4106
2023-03-14 22:08:48:474,-0.629744,1.21881,-9.59395,-7.56159,-4.12912,14.4071
2023-03-14 22:08:48:484,-0.623612,1.2156,-9.61648,-7.55296,-4.12926,14.402
2023-03-14 22:08:48:494,-0.650793,1.22292,-9.63197,-7.54589,-4.13716,14.3964
2023-03-14 22:08:48:504,-0.700024,1.23934,-9.65208,-7.54084,-4.14598,14.3871
2023-03-14 22:08:48:514,-0.707971,1.2408,-9.65873,-7.53618,-4.15941,14.3746
2023-03-14 22:08:48:524,-0.687176,1.22691,-9.64306,-7.53572,-4.17156,14.3541
2023-03-14 22:08:48:534,-0.680913,1.21972,-9.63952,-7.5347,-4.18293,14.3326
2023-03-14 22:08:48:543,-0.672512,1.22903,-9.64914,-7.53987,-4.19731,14.3087
2023-03-14 22:08:48:554,-0.698735,1.23772,-9.66401,-7.54664,-4.21048,14.29
2023-03-14 22:08:48:564,-0.737364,1.26293,-9.66763,-7.55524,-4.2286,14.2748
2023-03-14 22:08:48:574,-0.777506,1.2696,-9.67374,-7.56806,-4.24366,14.2619
2023-03-14 22:08:48:584,-0.812911,1.27594,-9.67145,-7.57969,-4.26013,14.2551
2023-03-14 22:08:48:594,-0.835805,1.27934,-9.66482,-7.58893,-4.27112,14.2493
2023-03-14 22:08:48:604,-0.85116,1.2637,-9.65524,-7.59451,-4.28224,14.2437
2023-03-14 22:08:48:614,-0.837661,1.25507,-9.6314,-7.59678,-4.28822,14.2383
2023-03-14 22:08:48:624,-0.800385,1.25174,-9.62902,-7.5974,-4.28904,14.2313
2023-03-14 22:08:48:634,-0.763933,1.25128,-9.63776,-7.59713,-4.28426,14.2233
2023-03-14 22:08:48:644,-0.719447,1.2564,-9.64238,-7.59857,-4.27915,14.2196
2023-03-14 22:08:48:654,-0.697863,1.24716,-9.64621,-7.59697,-4.27323,14.214
2023-03-14 22:08:48:664,-0.663008,1.25028,-9.61779,-7.59757,-4.26724,14.2105
2023-03-14 22:08:48:674,-0.648658,1.26316,-9.60217,-7.60092,-4.26439,14.2082
2023-03-14 22:08:48:684,-0.632508,1.27786,-9.60323,-7.60986,-4.26089,14.202
2023-03-14 22:08:48:694,-0.617492,1.2864,-9.60981,-7.6242,-4.25256,14.1993
2023-03-14 22:08:48:704,-0.611731,1.30201,-9.63348,-7.63937,-4.24227,14.1945
2023-03-14 22:08:48:714,-0.618573,1.32191,-9.66151,-7.65693,-4.2355,14.1892
2023-03-14 22:08:48:724,-0.615898,1.34428,-9.67228,-7.67963,-4.22722,14.1831
2023-03-14 22:08:48:734,-0.623806,1.36079,-9.66205,-7.70328,-4.22222,14.1733
2023-03-14 22:08:48:744,-0.653567,1.374,-9.67227,-7.72535,-4.22004,14.1676
2023-03-14 22:08:48:754,-0.700076,1.39041,-9.68356,-7.75045,-4.22227,14.1615
2023-03-14 22:08:48:764,-0.732159,1.40772,-9.70352,-7.77225,-4.22095,14.1547
2023-03-14 22:08:48:774,-0.75697,1.43775,-9.73782,-7.7982,-4.22483,14.1443
2023-03-14 22:08:48:784,-0.788139,1.4506,-9.74365,-7.81623,-4.2281,14.1325
2023-03-14 22:08:48:794,-0.775756,1.44528,-9.72654,-7.83083,-4.23298,14.1236
2023-03-14 22:08:48:804,-0.76784,1.43612,-9.71895,-7.84125,-4.23932,14.1109
2023-03-14 22:08:48:814,-0.761348,1.43467,-9.68971,-7.84514,-4.24573,14.0985
2023-03-14 22:08:48:824,-0.750859,1.41955,-9.67693,-7.84635,-4.25153,14.0811
2023-03-14 22:08:48:834,-0.743114,1.40675,-9.66242,-7.84718,-4.25728,14.0681
2023-03-14 22:08:48:844,-0.743558,1.40098,-9.67261,-7.84925,-4.26189,14.0568
2023-03-14 22:08:48:854,-0.723263,1.39497,-9.6529,-7.84887,-4.2681,14.0432
2023-03-14 22:08:48:864,-0.711727,1.38348,-9.63576,-7.84733,-4.27173,14.0337
2023-03-14 22:08:48:874,-0.712508,1.37818,-9.63614,-7.84733,-4.27208,14.0242
2023-03-14 22:08:48:884,-0.705811,1.3862,-9.6377,-7.84808,-4.27001,14.0141
2023-03-14 22:08:48:894,-0.709361,1.39118,-9.6355,-7.85068,-4.26792,14.0032
2023-03-14 22:08:48:904,-0.722984,1.38961,-9.6515,-7.85088,-4.26214,13.9964
2023-03-14 22:08:48:914,-0.731011,1.37856,-9.65931,-7.8519,-4.25642,13.9925
2023-03-14 22:08:48:924,-0.714231,1.39145,-9.65169,-7.85483,-4.25063,13.9859
2023-03-14 22:08:48:934,-0.705403,1.38418,-9.639,-7.8566,-4.24486,13.9827
2023-03-14 22:08:48:944,-0.697674,1.36556,-9.63168,-7.86149,-4.2386,13.984
2023-03-14 22:08:48:954,-0.69364,1.36163,-9.62213,-7.86438,-4.22943,13.987
2023-03-14 22:08:48:964,-0.693376,1.35495,-9.62518,-7.8691,-4.22214,13.9906
2023-03-14 22:08:48:974,-0.709741,1.36119,-9.63576,-7.87754,-4.21511,13.9965
2023-03-14 22:08:48:984,-0.724978,1.3801,-9.66815,-7.88027,-4.20999,13.9979
2023-03-14 22:08:48:994,-0.735169,1.3705,-9.69584,-7.88418,-4.20463,13.9985
2023-03-14 22:08:49:4,-0.741675,1.37374,-9.6806,-7.88936,-4.19872,13.999
2023-03-14 22:08:49:14,-0.756545,1.37851,-9.66473,-7.89302,-4.18871,13.9945
2023-03-14 22:08:49:24,-0.7276,1.38241,-9.68437,-7.90093,-4.17718,13.9926
2023-03-14 22:08:49:34,-0.702823,1.37807,-9.68694,-7.9086,-4.16444,13.9954
2023-03-14 22:08:49:44,-0.719718,1.35411,-9.67463,-7.91534,-4.14874,14.0004
2023-03-14 22:08:49:54,-0.751976,1.39135,-9.69899,-7.92447,-4.13821,14.0083
2023-03-14 22:08:49:64,-0.772863,1.39902,-9.72226,-7.9324,-4.12803,14.0094
2023-03-14 22:08:49:74,-0.765611,1.39332,-9.7034,-7.93433,-4.11686,14.0103
2023-03-14 22:08:49:84,-0.749126,1.39454,-9.68036,-7.93315,-4.10403,14.0028
2023-03-14 22:08:49:94,-0.712113,1.36472,-9.66063,-7.92713,-4.08747,13.9909
2023-03-14 22:08:49:104,-0.651042,1.33213,-9.6297,-7.91758,-4.06537,13.9731
2023-03-14 22:08:49:114,-0.587249,1.30894,-9.6141,-7.90839,-4.04574,13.9525
2023-03-14 22:08:49:124,-0.555188,1.31087,-9.62694,-7.90588,-4.03058,13.9352
2023-03-14 22:08:49:134,-0.549012,1.33439,-9.63232,-7.8977,-4.01793,13.9208
2023-03-14 22:08:49:144,-0.56065,1.34732,-9.6287,-7.89598,-4.00712,13.906
2023-03-14 22:08:49:154,-0.579407,1.35158,-9.62657,-7.8913,-3.99865,13.8919
2023-03-14 22:08:49:164,-0.590568,1.34409,-9.63056,-7.89461,-3.98783,13.8807
2023-03-14 22:08:49:174,-0.623717,1.3397,-9.64739,-7.89622,-3.97844,13.8762
2023-03-14 22:08:49:184,-0.643183,1.35008,-9.65057,-7.90213,-3.9686,13.8719
2023-03-14 22:08:49:194,-0.6536,1.35075,-9.67725,-7.90681,-3.95998,13.8668
2023-03-14 22:08:49:204,-0.689165,1.35443,-9.69791,-7.91758,-3.95432,13.862
2023-03-14 22:08:49:214,-0.703476,1.38725,-9.70264,-7.9269,-3.94719,13.855
2023-03-14 22:08:49:224,-0.701763,1.36865,-9.69314,-7.93182,-3.94159,13.8461
2023-03-14 22:08:49:234,-0.681484,1.34826,-9.67621,-7.93661,-3.9378,13.8357
2023-03-14 22:08:49:244,-0.668057,1.32689,-9.673,-7.94105,-3.93921,13.8207
2023-03-14 22:08:49:254,-0.666824,1.3278,-9.69046,-7.94624,-3.94064,13.8033
2023-03-14 22:08:49:264,-0.667675,1.3375,-9.72118,-7.94959,-3.94539,13.7873
2023-03-14 22:08:49:274,-0.651617,1.35933,-9.75051,-7.95286,-3.94905,13.7661
2023-03-14 22:08:49:284,-0.637715,1.36737,-9.8002,-7.95496,-3.95674,13.744
2023-03-14 22:08:49:294,-0.64629,1.35014,-9.7773,-7.95475,-3.9681,13.7234
2023-03-14 22:08:49:304,-0.690179,1.36484,-9.73991,-7.9534,-3.98059,13.7008
2023-03-14 22:08:49:314,-0.744555,1.41016,-9.71335,-7.95095,-3.99571,13.6793
2023-03-14 22:08:49:324,-0.761126,1.42492,-9.70108,-7.9485,-4.0014,13.6529
2023-03-14 22:08:49:334,-0.732705,1.41642,-9.68203,-7.93752,-4.00056,13.63
2023-03-14 22:08:49:344,-0.685982,1.37805,-9.66024,-7.92264,-3.99954,13.6068
2023-03-14 22:08:49:354,-0.651357,1.3677,-9.64237,-7.90505,-3.99233,13.5841
2023-03-14 22:08:49:364,-0.646807,1.38376,-9.65476,-7.89078,-3.98781,13.5676
2023-03-14 22:08:49:374,-0.6294,1.38413,-9.66089,-7.86946,-3.97869,13.553
2023-03-14 22:08:49:384,-0.592506,1.36266,-9.66067,-7.84888,-3.97093,13.5399
2023-03-14 22:08:49:394,-0.57753,1.36155,-9.65896,-7.82927,-3.96039,13.5334
2023-03-14 22:08:49:404,-0.577184,1.37118,-9.66916,-7.8045,-3.95219,13.5308
2023-03-14 22:08:49:414,-0.627219,1.39744,-9.69149,-7.782,-3.94324,13.5357
2023-03-14 22:08:49:424,-0.664926,1.43324,-9.69291,-7.75904,-3.93726,13.5438
2023-03-14 22:08:49:434,-0.682986,1.40134,-9.65977,-7.72586,-3.9295,13.5532
2023-03-14 22:08:49:444,-0.647868,1.36335,-9.63033,-7.69088,-3.91745,13.5615
2023-03-14 22:08:49:454,-0.604239,1.3239,-9.59317,-7.65559,-3.90152,13.5736
2023-03-14 22:08:49:464,-0.561477,1.28793,-9.55034,-7.61945,-3.88481,13.5893
2023-03-14 22:08:49:474,-0.495167,1.27879,-9.56389,-7.59314,-3.87214,13.6013
2023-03-14 22:08:49:484,-0.52342,1.26626,-9.54454,-7.57666,-3.86437,13.615
2023-03-14 22:08:49:494,-0.547913,1.27966,-9.57268,-7.56666,-3.86384,13.6294
2023-03-14 22:08:49:504,-0.518757,1.30423,-9.6218,-7.56392,-3.86652,13.6413
2023-03-14 22:08:49:514,-0.537706,1.30174,-9.631,-7.56032,-3.87126,13.6494
2023-03-14 22:08:49:524,-0.539971,1.29503,-9.63841,-7.5608,-3.87508,13.6596
2023-03-14 22:08:49:534,-0.553991,1.29104,-9.63483,-7.56503,-3.88036,13.6738
2023-03-14 22:08:49:544,-0.578674,1.28708,-9.64836,-7.56972,-3.89014,13.6853
2023-03-14 22:08:49:554,-0.602737,1.27664,-9.6702,-7.57854,-3.90068,13.6989
2023-03-14 22:08:49:564,-0.61564,1.27232,-9.67776,-7.58447,-3.9163,13.7096
2023-03-14 22:08:49:574,-0.635736,1.27289,-9.66595,-7.59042,-3.92999,13.7186
2023-03-14 22:08:49:584,-0.594173,1.26442,-9.66431,-7.59724,-3.94562,13.7246
2023-03-14 22:08:49:594,-0.575589,1.23871,-9.65171,-7.60287,-3.96472,13.7294
2023-03-14 22:08:49:604,-0.590131,1.2258,-9.66139,-7.61099,-3.9864,13.7369
2023-03-14 22:08:49:614,-0.623409,1.23968,-9.66858,-7.6247,-4.01402,13.7482
2023-03-14 22:08:49:624,-0.633637,1.25232,-9.70303,-7.63729,-4.04054,13.7592
2023-03-14 22:08:49:634,-0.658837,1.26501,-9.72921,-7.65087,-4.06628,13.7648
2023-03-14 22:08:49:644,-0.708108,1.26284,-9.71659,-7.66079,-4.09186,13.7744
2023-03-14 22:08:49:654,-0.73144,1.26911,-9.72344,-7.67126,-4.11475,13.7864
2023-03-14 22:08:49:664,-0.753089,1.2932,-9.7377,-7.68121,-4.13529,13.8027
2023-03-14 22:08:49:674,-0.793057,1.28641,-9.75324,-7.68862,-4.15823,13.8212
2023-03-14 22:08:49:684,-0.843076,1.29335,-9.72418,-7.69195,-4.17784,13.843
2023-03-14 22:08:49:694,-0.841586,1.26952,-9.69551,-7.69543,-4.19888,13.8699
2023-03-14 22:08:49:704,-0.885479,1.25127,-9.65333,-7.69404,-4.21934,13.8959
2023-03-14 22:08:49:714,-0.930262,1.28113,-9.63624,-7.69936,-4.23705,13.9261
2023-03-14 22:08:49:724,-0.888792,1.29676,-9.64998,-7.70105,-4.25308,13.9535
2023-03-14 22:08:49:734,-0.84879,1.28874,-9.6308,-7.70424,-4.26552,13.9767
2023-03-14 22:08:49:744,-0.784529,1.26121,-9.57697,-7.69991,-4.27125,13.9978
2023-03-14 22:08:49:754,-0.698242,1.25317,-9.55283,-7.69795,-4.27329,14.0223
2023-03-14 22:08:49:764,-0.663677,1.24493,-9.57344,-7.70244,-4.27339,14.0526
2023-03-14 22:08:49:774,-0.697233,1.24934,-9.59324,-7.71582,-4.27572,14.0905
2023-03-14 22:08:49:784,-0.7569,1.27634,-9.62254,-7.73587,-4.27716,14.1291
2023-03-14 22:08:49:794,-0.826534,1.30165,-9.64239,-7.76189,-4.28005,14.1659
2023-03-14 22:08:49:804,-0.875606,1.31893,-9.69528,-7.7902,-4.28259,14.202
2023-03-14 22:08:49:814,-0.891433,1.36491,-9.74136,-7.81999,-4.28683,14.2356
2023-03-14 22:08:49:824,-0.953933,1.35891,-9.73654,-7.84709,-4.29194,14.2679
2023-03-14 22:08:49:834,-0.950488,1.34608,-9.71598,-7.86932,-4.29735,14.2903
2023-03-14 22:08:49:844,-0.922907,1.32375,-9.69205,-7.88553,-4.29917,14.3104
2023-03-14 22:08:49:854,-0.881181,1.31384,-9.66947,-7.89963,-4.30357,14.3242
2023-03-14 22:08:49:864,-0.851265,1.30586,-9.65554,-7.91912,-4.3038,14.3315
2023-03-14 22:08:49:874,-0.842222,1.28921,-9.66399,-7.92946,-4.30555,14.3337
2023-03-14 22:08:49:884,-0.83406,1.29433,-9.66597,-7.94201,-4.30803,14.3338
2023-03-14 22:08:49:894,-0.814081,1.30809,-9.67128,-7.95127,-4.30475,14.3315
2023-03-14 22:08:49:904,-0.769365,1.30132,-9.67787,-7.96439,-4.29882,14.3264
2023-03-14 22:08:49:914,-0.708618,1.27589,-9.6516,-7.9708,-4.28834,14.3209
2023-03-14 22:08:49:924,-0.666412,1.26865,-9.61646,-7.98044,-4.27707,14.3151
2023-03-14 22:08:49:934,-0.65948,1.28022,-9.59314,-7.99523,-4.26202,14.3115
2023-03-14 22:08:49:944,-0.669485,1.31085,-9.5716,-8.01388,-4.24746,14.3143
2023-03-14 22:08:49:954,-0.68029,1.34188,-9.54965,-8.03891,-4.22614,14.3237
2023-03-14 22:08:49:964,-0.677495,1.36195,-9.53565,-8.06196,-4.20474,14.3299
2023-03-14 22:08:49:974,-0.67587,1.37922,-9.56166,-8.09113,-4.18452,14.3361
2023-03-14 22:08:49:984,-0.687042,1.41842,-9.58267,-8.12051,-4.16409,14.3438
2023-03-14 22:08:49:994,-0.674069,1.45595,-9.61326,-8.1504,-4.14577,14.3512
2023-03-14 22:08:50:4,-0.661347,1.4784,-9.61359,-8.17908,-4.12707,14.3577
2023-03-14 22:08:50:14,-0.658182,1.47247,-9.59323,-8.20614,-4.10823,14.3649
2023-03-14 22:08:50:24,-0.620603,1.47243,-9.56862,-8.23301,-4.08945,14.3701
2023-03-14 22:08:50:34,-0.5909,1.46764,-9.55787,-8.25986,-4.07469,14.38
2023-03-14 22:08:50:44,-0.567028,1.46819,-9.57054,-8.28709,-4.06114,14.3892
2023-03-14 22:08:50:54,-0.545214,1.49555,-9.61083,-8.32205,-4.05087,14.3971
2023-03-14 22:08:50:64,-0.571441,1.50576,-9.6365,-8.36101,-4.04273,14.4091
2023-03-14 22:08:50:74,-0.599954,1.54048,-9.64457,-8.40518,-4.0396,14.4173
2023-03-14 22:08:50:84,-0.63195,1.56829,-9.67465,-8.45419,-4.03866,14.4221
2023-03-14 22:08:50:94,-0.664862,1.60383,-9.69072,-8.50237,-4.04053,14.4216
2023-03-14 22:08:50:104,-0.650343,1.62154,-9.71352,-8.54758,-4.04171,14.4164
2023-03-14 22:08:50:114,-0.604357,1.62419,-9.72529,-8.58962,-4.03627,14.403
2023-03-14 22:08:50:124,-0.587624,1.61655,-9.70806,-8.62652,-4.03323,14.3866
2023-03-14 22:08:50:134,-0.582281,1.61094,-9.70922,-8.65716,-4.029,14.3715
2023-03-14 22:08:50:144,-0.604424,1.60204,-9.70821,-8.68658,-4.03557,14.3547
2023-03-14 22:08:50:154,-0.636443,1.59652,-9.71451,-8.71896,-4.04787,14.3421
2023-03-14 22:08:50:164,-0.66175,1.60135,-9.76199,-8.74655,-4.06199,14.3347
2023-03-14 22:08:50:174,-0.672559,1.62444,-9.8128,-8.76712,-4.08026,14.3259
2023-03-14 22:08:50:184,-0.690889,1.61494,-9.80785,-8.78043,-4.09926,14.3126
2023-03-14 22:08:50:194,-0.731395,1.59205,-9.76901,-8.78558,-4.11934,14.3023
2023-03-14 22:08:50:204,-0.776993,1.58802,-9.71722,-8.78585,-4.14127,14.2957
2023-03-14 22:08:50:214,-0.806401,1.58748,-9.69224,-8.78098,-4.1617,14.2862
2023-03-14 22:08:50:224,-0.812249,1.58041,-9.68346,-8.77422,-4.18075,14.275
2023-03-14 22:08:50:234,-0.795796,1.57375,-9.69456,-8.76408,-4.19418,14.2609
2023-03-14 22:08:50:244,-0.763398,1.55869,-9.6863,-8.75013,-4.20318,14.2445
2023-03-14 22:08:50:254,-0.738961,1.54045,-9.6815,-8.73641,-4.20626,14.2303
2023-03-14 22:08:50:264,-0.730442,1.50811,-9.64491,-8.72266,-4.20882,14.2219
2023-03-14 22:08:50:274,-0.71499,1.47611,-9.61634,-8.70848,-4.21192,14.2136
2023-03-14 22:08:50:284,-0.712333,1.47023,-9.60985,-8.69961,-4.21851,14.2082
2023-03-14 22:08:50:294,-0.73152,1.45677,-9.62736,-8.6914,-4.22585,14.2072
2023-03-14 22:08:50:304,-0.762318,1.4608,-9.64418,-8.68518,-4.23438,14.2056
2023-03-14 22:08:50:314,-0.771419,1.45143,-9.62205,-8.67929,-4.24241,14.2021
2023-03-14 22:08:50:324,-0.793234,1.44279,-9.59808,-8.66981,-4.2496,14.1982
2023-03-14 22:08:50:334,-0.801111,1.42295,-9.56057,-8.66655,-4.25518,14.1963
2023-03-14 22:08:50:344,-0.801425,1.40433,-9.55244,-8.66245,-4.26131,14.1958
2023-03-14 22:08:50:354,-0.812861,1.39648,-9.56209,-8.6604,-4.26458,14.1921
2023-03-14 22:08:50:364,-0.814325,1.40138,-9.5815,-8.66577,-4.26312,14.1936
2023-03-14 22:08:50:374,-0.823133,1.42996,-9.59648,-8.66894,-4.26304,14.191
2023-03-14 22:08:50:384,-0.811641,1.42502,-9.62344,-8.67687,-4.25876,14.1863
2023-03-14 22:08:50:394,-0.797952,1.42447,-9.63237,-8.68351,-4.25834,14.1869
2023-03-14 22:08:50:404,-0.818162,1.43985,-9.63379,-8.69306,-4.25067,14.1838
2023-03-14 22:08:50:414,-0.815046,1.45975,-9.64171,-8.70386,-4.24174,14.1828
2023-03-14 22:08:50:424,-0.794044,1.47316,-9.66073,-8.70993,-4.2301,14.1812
2023-03-14 22:08:50:434,-0.783778,1.45475,-9.64784,-8.71482,-4.21314,14.1746
2023-03-14 22:08:50:444,-0.75322,1.43951,-9.62844,-8.71784,-4.19614,14.169
2023-03-14 22:08:50:454,-0.71946,1.4404,-9.63034,-8.71825,-4.18295,14.1599
2023-03-14 22:08:50:464,-0.678707,1.43565,-9.61517,-8.71779,-4.16708,14.1471
2023-03-14 22:08:50:474,-0.662589,1.43109,-9.60468,-8.71521,-4.14859,14.1337
2023-03-14 22:08:50:484,-0.649052,1.44934,-9.61846,-8.71983,-4.13156,14.1185
2023-03-14 22:08:50:494,-0.639646,1.46031,-9.62073,-8.72234,-4.11213,14.1019
2023-03-14 22:08:50:504,-0.626476,1.47483,-9.61039,-8.72419,-4.09248,14.0893
2023-03-14 22:08:50:514,-0.608466,1.48846,-9.61065,-8.72679,-4.07404,14.079
2023-03-14 22:08:50:524,-0.577852,1.47313,-9.59514,-8.7402,-4.05573,14.0702
2023-03-14 22:08:50:534,-0.529328,1.48504,-9.5703,-8.75236,-4.04013,14.0625
2023-03-14 22:08:50:544,-0.537471,1.50962,-9.58536,-8.76913,-4.02755,14.0593
2023-03-14 22:08:50:554,-0.538411,1.50165,-9.60982,-8.78892,-4.0175,14.0571
2023-03-14 22:08:50:564,-0.534841,1.52813,-9.63766,-8.80714,-4.00523,14.0548
2023-03-14 22:08:50:574,-0.536815,1.56469,-9.66753,-8.82815,-3.99224,14.052
2023-03-14 22:08:50:584,-0.534148,1.58229,-9.68355,-8.85204,-3.98291,14.0516
2023-03-14 22:08:50:594,-0.524376,1.57942,-9.69265,-8.87303,-3.96885,14.0517
2023-03-14 22:08:50:604,-0.522178,1.58204,-9.68619,-8.88886,-3.95825,14.0573
2023-03-14 22:08:50:614,-0.509882,1.58671,-9.68399,-8.90439,-3.94462,14.0641
2023-03-14 22:08:50:624,-0.514086,1.59685,-9.6999,-8.91979,-3.93673,14.0762
2023-03-14 22:08:50:634,-0.539431,1.63189,-9.72675,-8.9341,-3.93452,14.0911
2023-03-14 22:08:50:644,-0.581567,1.65844,-9.72434,-8.94576,-3.93445,14.1122
2023-03-14 22:08:50:654,-0.615391,1.6491,-9.71656,-8.9562,-3.93492,14.1313
2023-03-14 22:08:50:664,-0.622179,1.63487,-9.70067,-8.95627,-3.93706,14.1496
2023-03-14 22:08:50:674,-0.615922,1.6105,-9.66888,-8.95581,-3.94378,14.1723
2023-03-14 22:08:50:684,-0.612123,1.57794,-9.6604,-8.95388,-3.95123,14.1933
2023-03-14 22:08:50:694,-0.630665,1.57789,-9.67757,-8.95498,-3.9608,14.2187
2023-03-14 22:08:50:704,-0.668332,1.59962,-9.68418,-8.95577,-3.97337,14.2419
2023-03-14 22:08:50:714,-0.708351,1.59826,-9.69179,-8.9571,-3.98711,14.2619
2023-03-14 22:08:50:724,-0.729428,1.59457,-9.7069,-8.95766,-4.00156,14.2799
2023-03-14 22:08:50:734,-0.741958,1.59071,-9.71841,-8.95358,-4.01397,14.297
2023-03-14 22:08:50:744,-0.745332,1.58804,-9.71048,-8.94437,-4.02678,14.3084
2023-03-14 22:08:50:754,-0.751249,1.55559,-9.66708,-8.93305,-4.03676,14.3152
2023-03-14 22:08:50:764,-0.741411,1.52013,-9.64988,-8.9197,-4.05198,14.3191
2023-03-14 22:08:50:774,-0.743155,1.50096,-9.64051,-8.90308,-4.07008,14.319
2023-03-14 22:08:50:784,-0.77307,1.45521,-9.62415,-8.8876,-4.08529,14.3159
2023-03-14 22:08:50:794,-0.77383,1.45382,-9.60814,-8.87257,-4.09826,14.3107
2023-03-14 22:08:50:804,-0.751783,1.43447,-9.6013,-8.85674,-4.10759,14.2998
2023-03-14 22:08:50:814,-0.707746,1.43269,-9.5856,-8.84203,-4.11293,14.284
2023-03-14 22:08:50:824,-0.684532,1.42235,-9.56606,-8.83316,-4.1181,14.2678
2023-03-14 22:08:50:834,-0.670589,1.41683,-9.54468,-8.82781,-4.12134,14.2494
2023-03-14 22:08:50:844,-0.654942,1.43785,-9.54324,-8.82869,-4.12444,14.234
2023-03-14 22:08:50:854,-0.64804,1.45041,-9.57852,-8.82719,-4.12733,14.2228
2023-03-14 22:08:50:864,-0.630541,1.44918,-9.59411,-8.82633,-4.1277,14.2176
2023-03-14 22:08:50:874,-0.640337,1.45701,-9.58537,-8.82932,-4.12727,14.2154
2023-03-14 22:08:50:884,-0.684049,1.4655,-9.59461,-8.83569,-4.13112,14.2231
2023-03-14 22:08:50:894,-0.735927,1.47732,-9.61831,-8.84123,-4.13915,14.2304
2023-03-14 22:08:50:904,-0.801053,1.51732,-9.63699,-8.84824,-4.15018,14.246
2023-03-14 22:08:50:914,-0.826544,1.53247,-9.63388,-8.85351,-4.15915,14.2585
2023-03-14 22:08:50:924,-0.811708,1.53688,-9.6248,-8.85965,-4.16984,14.2669
2023-03-14 22:08:50:934,-0.780551,1.53525,-9.59948,-8.86326,-4.17668,14.266
2023-03-14 22:08:50:944,-0.753694,1.52993,-9.58407,-8.86378,-4.18382,14.2662
2023-03-14 22:08:50:954,-0.713557,1.53827,-9.57617,-8.86661,-4.18689,14.2657
2023-03-14 22:08:50:964,-0.683751,1.53686,-9.61412,-8.87156,-4.19079,14.2642
2023-03-14 22:08:50:974,-0.673064,1.57169,-9.6515,-8.88361,-4.18844,14.2681
2023-03-14 22:08:50:984,-0.650575,1.59287,-9.68211,-8.89628,-4.188,14.2729
2023-03-14 22:08:50:994,-0.642493,1.58492,-9.69473,-8.90982,-4.18656,14.2816
2023-03-14 22:08:51:4,-0.658129,1.60457,-9.68185,-8.92072,-4.18319,14.2977
2023-03-14 22:08:51:14,-0.691612,1.61477,-9.68804,-8.93457,-4.18437,14.3162
2023-03-14 22:08:51:24,-0.712422,1.60785,-9.66937,-8.94478,-4.1893,14.3345
2023-03-14 22:08:51:34,-0.717834,1.59888,-9.64654,-8.95451,-4.19191,14.3522
2023-03-14 22:08:51:44,-0.734957,1.58516,-9.6579,-8.95979,-4.1977,14.3704
2023-03-14 22:08:51:54,-0.779314,1.58922,-9.65997,-8.96344,-4.20292,14.3835
2023-03-14 22:08:51:64,-0.807276,1.57831,-9.66515,-8.96475,-4.21215,14.3936
2023-03-14 22:08:51:74,-0.793457,1.57709,-9.6684,-8.96424,-4.22183,14.3948
2023-03-14 22:08:51:84,-0.74459,1.54287,-9.65794,-8.9552,-4.22781,14.3906
2023-03-14 22:08:51:94,-0.735007,1.50683,-9.66452,-8.95016,-4.24227,14.389
2023-03-14 22:08:51:104,-0.779893,1.50663,-9.66649,-8.94624,-4.26179,14.384
2023-03-14 22:08:51:114,-0.821247,1.52434,-9.67539,-8.94581,-4.28146,14.3781
2023-03-14 22:08:51:124,-0.846158,1.52379,-9.68373,-8.94339,-4.303,14.3679
2023-03-14 22:08:51:134,-0.8495,1.50382,-9.67443,-8.9397,-4.32241,14.3541
2023-03-14 22:08:51:144,-0.822205,1.47934,-9.66826,-8.93324,-4.33973,14.3414
2023-03-14 22:08:51:154,-0.793382,1.48293,-9.67142,-8.92646,-4.34859,14.3275
2023-03-14 22:08:51:164,-0.741014,1.46918,-9.67117,-8.91703,-4.35182,14.3145
2023-03-14 22:08:51:174,-0.711969,1.42226,-9.64332,-8.9009,-4.3556,14.2985
2023-03-14 22:08:51:184,-0.679002,1.40235,-9.62846,-8.89032,-4.35701,14.2861
2023-03-14 22:08:51:194,-0.69293,1.43525,-9.60268,-8.88123,-4.36667,14.2728
2023-03-14 22:08:51:204,-0.715866,1.44492,-9.58488,-8.87476,-4.37864,14.2624
2023-03-14 22:08:51:214,-0.725253,1.4193,-9.57069,-8.86349,-4.39101,14.2504
2023-03-14 22:08:51:224,-0.745332,1.40124,-9.56074,-8.85703,-4.40084,14.237
2023-03-14 22:08:51:234,-0.744338,1.42862,-9.55617,-8.85162,-4.4104,14.2288
2023-03-14 22:08:51:244,-0.730811,1.43421,-9.54863,-8.84488,-4.41712,14.2206
2023-03-14 22:08:51:254,-0.727552,1.41798,-9.51255,-8.84151,-4.42405,14.2111
2023-03-14 22:08:51:264,-0.702941,1.41058,-9.49662,-8.83929,-4.43279,14.207
2023-03-14 22:08:51:274,-0.698499,1.44987,-9.52706,-8.8519,-4.43801,14.2055
2023-03-14 22:08:51:284,-0.718554,1.49563,-9.56903,-8.86658,-4.44177,14.2084
2023-03-14 22:08:51:294,-0.74471,1.52091,-9.60427,-8.88382,-4.44415,14.2177
2023-03-14 22:08:51:304,-0.774516,1.55094,-9.6076,-8.90332,-4.44191,14.2258
2023-03-14 22:08:51:314,-0.786297,1.5526,-9.6113,-8.92077,-4.44233,14.2319
2023-03-14 22:08:51:324,-0.783946,1.56972,-9.60516,-8.94154,-4.43762,14.2415
2023-03-14 22:08:51:334,-0.794752,1.58128,-9.64349,-8.96321,-4.4326,14.2499
2023-03-14 22:08:51:344,-0.79103,1.59687,-9.67023,-8.98544,-4.42441,14.2574
2023-03-14 22:08:51:354,-0.780898,1.616,-9.64358,-9.00791,-4.41212,14.2654
2023-03-14 22:08:51:364,-0.764676,1.61405,-9.63731,-9.02976,-4.40128,14.2689
2023-03-14 22:08:51:374,-0.742832,1.62396,-9.62291,-9.04853,-4.38976,14.2709
2023-03-14 22:08:51:384,-0.712798,1.63353,-9.61012,-9.06682,-4.37605,14.2742
2023-03-14 22:08:51:394,-0.67295,1.62907,-9.58714,-9.07848,-4.36436,14.2777
2023-03-14 22:08:51:404,-0.645076,1.66656,-9.61367,-9.09309,-4.35048,14.2802
2023-03-14 22:08:51:414,-0.604583,1.65822,-9.61657,-9.10512,-4.3317,14.2861
2023-03-14 22:08:51:424,-0.569169,1.65108,-9.60797,-9.11596,-4.31843,14.2951
2023-03-14 22:08:51:434,-0.560354,1.66428,-9.63361,-9.12848,-4.30713,14.3043
2023-03-14 22:08:51:444,-0.588756,1.674,-9.67094,-9.14555,-4.29874,14.316
2023-03-14 22:08:51:454,-0.623118,1.69896,-9.69571,-9.15918,-4.29812,14.3326
2023-03-14 22:08:51:464,-0.671291,1.70088,-9.70462,-9.17023,-4.29771,14.35
2023-03-14 22:08:51:474,-0.731718,1.68751,-9.7088,-9.17785,-4.30024,14.3649
2023-03-14 22:08:51:484,-0.784217,1.6725,-9.71913,-9.18279,-4.30847,14.3804
2023-03-14 22:08:51:494,-0.826802,1.67438,-9.71147,-9.18744,-4.31673,14.3889
2023-03-14 22:08:51:504,-0.84144,1.65509,-9.69597,-9.18308,-4.32199,14.3878
2023-03-14 22:08:51:514,-0.795621,1.63089,-9.68634,-9.17754,-4.33028,14.383
2023-03-14 22:08:51:524,-0.758189,1.61578,-9.68438,-9.17113,-4.33962,14.3733
2023-03-14 22:08:51:534,-0.755124,1.57626,-9.67277,-9.16283,-4.34793,14.3588
2023-03-14 22:08:51:544,-0.767511,1.55908,-9.66583,-9.15539,-4.36573,14.3418
2023-03-14 22:08:51:554,-0.785014,1.59432,-9.74137,-9.1497,-4.37815,14.3255
2023-03-14 22:08:51:564,-0.824076,1.58537,-9.73418,-9.13368,-4.38735,14.3134
2023-03-14 22:08:51:574,-0.826779,1.49373,-9.62162,-9.11451,-4.40674,14.2988
2023-03-14 22:08:51:584,-0.797928,1.49582,-9.61203,-9.10052,-4.42154,14.2829
2023-03-14 22:08:51:594,-0.795262,1.51439,-9.60541,-9.08112,-4.4246,14.2704
2023-03-14 22:08:51:604,-0.777292,1.46518,-9.54368,-9.0599,-4.42762,14.257
2023-03-14 22:08:51:614,-0.727983,1.45424,-9.54049,-9.0403,-4.42354,14.2442
2023-03-14 22:08:51:624,-0.718377,1.45282,-9.5478,-9.01942,-4.42161,14.2347
2023-03-14 22:08:51:634,-0.725052,1.45652,-9.55659,-9.00645,-4.41844,14.2235
2023-03-14 22:08:51:644,-0.710713,1.47963,-9.56595,-8.99461,-4.41517,14.2162
2023-03-14 22:08:51:654,-0.697951,1.47847,-9.57071,-8.98469,-4.40871,14.2091
2023-03-14 22:08:51:664,-0.693335,1.47053,-9.55083,-8.9725,-4.41052,14.2049
2023-03-14 22:08:51:674,-0.685506,1.47515,-9.5653,-8.96271,-4.40744,14.2027
2023-03-14 22:08:51:684,-0.707301,1.49304,-9.58286,-8.95537,-4.40692,14.2023
2023-03-14 22:08:51:694,-0.723257,1.48518,-9.58305,-8.95227,-4.40443,14.1995
2023-03-14 22:08:51:704,-0.72376,1.47371,-9.5739,-8.95047,-4.40746,14.1965
2023-03-14 22:08:51:714,-0.749565,1.5087,-9.58655,-8.95364,-4.41025,14.1929
2023-03-14 22:08:51:724,-0.757913,1.54532,-9.65141,-8.96137,-4.41053,14.1861
2023-03-14 22:08:51:734,-0.760816,1.56241,-9.67037,-8.9709,-4.41064,14.1798
2023-03-14 22:08:51:744,-0.74097,1.56293,-9.65103,-8.98281,-4.41125,14.1718
2023-03-14 22:08:51:754,-0.727748,1.56313,-9.63564,-8.99155,-4.41191,14.1645
2023-03-14 22:08:51:764,-0.742708,1.58362,-9.62876,-9.00313,-4.41262,14.163
2023-03-14 22:08:51:774,-0.78333,1.61456,-9.63726,-9.01478,-4.41491,14.1598
2023-03-14 22:08:51:784,-0.788815,1.6285,-9.63808,-9.02926,-4.41601,14.1565
2023-03-14 22:08:51:794,-0.7693,1.63445,-9.64773,-9.03901,-4.41135,14.1476
2023-03-14 22:08:51:804,-0.751533,1.62065,-9.66067,-9.04018,-4.40786,14.1371
2023-03-14 22:08:51:814,-0.746736,1.6207,-9.66461,-9.03788,-4.40748,14.127
2023-03-14 22:08:51:824,-0.741418,1.60713,-9.66679,-9.03136,-4.40462,14.116
2023-03-14 22:08:51:834,-0.732689,1.59775,-9.63608,-9.02257,-4.40522,14.1099
2023-03-14 22:08:51:844,-0.764656,1.58683,-9.61677,-9.00989,-4.40654,14.1035
2023-03-14 22:08:51:854,-0.786009,1.60824,-9.60441,-9.00063,-4.40473,14.0978
2023-03-14 22:08:51:864,-0.763446,1.58828,-9.62662,-8.98896,-4.40237,14.0894
2023-03-14 22:08:51:874,-0.745039,1.5811,-9.63392,-8.97428,-4.39894,14.0823
2023-03-14 22:08:51:884,-0.726526,1.57796,-9.6569,-8.96039,-4.39348,14.0784
2023-03-14 22:08:51:894,-0.702197,1.5818,-9.65839,-8.9503,-4.38693,14.0722
2023-03-14 22:08:51:904,-0.69248,1.57582,-9.65449,-8.9404,-4.38,14.068
2023-03-14 22:08:51:914,-0.714052,1.57725,-9.64525,-8.93125,-4.37289,14.0697
2023-03-14 22:08:51:924,-0.742225,1.55204,-9.63737,-8.92347,-4.36689,14.0705
2023-03-14 22:08:51:934,-0.758259,1.55492,-9.62756,-8.9165,-4.35808,14.0757
2023-03-14 22:08:51:944,-0.753783,1.55062,-9.62361,-8.91051,-4.35161,14.0762
2023-03-14 22:08:51:954,-0.72222,1.52091,-9.60025,-8.89944,-4.34728,14.0754
2023-03-14 22:08:51:964,-0.698775,1.50137,-9.57881,-8.89051,-4.34472,14.0744
2023-03-14 22:08:51:974,-0.676219,1.50925,-9.56675,-8.88024,-4.34159,14.0749
2023-03-14 22:08:51:984,-0.633034,1.51782,-9.57114,-8.87152,-4.33286,14.0719
2023-03-14 22:08:51:994,-0.586557,1.5062,-9.59356,-8.859,-4.3233,14.0727
2023-03-14 22:08:52:4,-0.568957,1.50224,-9.59891,-8.85034,-4.31718,14.0751
2023-03-14 22:08:52:14,-0.597733,1.49805,-9.60014,-8.84364,-4.31486,14.0861
2023-03-14 22:08:52:24,-0.678966,1.51793,-9.59469,-8.84288,-4.31826,14.1046
2023-03-14 22:08:52:34,-0.725149,1.53693,-9.61321,-8.84283,-4.32443,14.1255
2023-03-14 22:08:52:44,-0.730226,1.54965,-9.65858,-8.84918,-4.33003,14.1426
2023-03-14 22:08:52:54,-0.737438,1.55902,-9.69069,-8.85439,-4.3332,14.1598
2023-03-14 22:08:52:64,-0.74316,1.56455,-9.72093,-8.86003,-4.33374,14.1763
2023-03-14 22:08:52:74,-0.768026,1.5633,-9.7352,-8.85785,-4.32871,14.1896
2023-03-14 22:08:52:84,-0.783568,1.55539,-9.71113,-8.8525,-4.32324,14.2049
2023-03-14 22:08:52:94,-0.786619,1.53281,-9.68623,-8.84219,-4.31833,14.2163
2023-03-14 22:08:52:104,-0.797131,1.50654,-9.66148,-8.83108,-4.30923,14.226
2023-03-14 22:08:52:114,-0.822724,1.48765,-9.63564,-8.81968,-4.30829,14.2323
2023-03-14 22:08:52:124,-0.823906,1.47363,-9.64424,-8.80835,-4.30999,14.2334
2023-03-14 22:08:52:134,-0.821858,1.46979,-9.6638,-8.79273,-4.31882,14.231
2023-03-14 22:08:52:144,-0.817905,1.46455,-9.66771,-8.77901,-4.33159,14.2213
2023-03-14 22:08:52:154,-0.810644,1.44337,-9.64926,-8.76303,-4.34616,14.21
2023-03-14 22:08:52:164,-0.785558,1.44566,-9.62461,-8.74389,-4.35851,14.1937
2023-03-14 22:08:52:174,-0.770819,1.43464,-9.62009,-8.72448,-4.37078,14.1789
2023-03-14 22:08:52:184,-0.781289,1.4314,-9.62402,-8.70757,-4.38092,14.1624
2023-03-14 22:08:52:194,-0.799375,1.41995,-9.60024,-8.69235,-4.3891,14.1456
2023-03-14 22:08:52:204,-0.806505,1.40498,-9.58662,-8.67839,-4.3952,14.1272
2023-03-14 22:08:52:214,-0.810419,1.39468,-9.56997,-8.66577,-4.39725,14.1116
2023-03-14 22:08:52:224,-0.801963,1.3826,-9.55685,-8.65796,-4.39717,14.0959
2023-03-14 22:08:52:234,-0.798267,1.38413,-9.55665,-8.65551,-4.39344,14.0798
2023-03-14 22:08:52:244,-0.811581,1.4057,-9.57642,-8.65691,-4.39197,14.0659
2023-03-14 22:08:52:254,-0.807619,1.42,-9.58295,-8.66087,-4.38566,14.0499
2023-03-14 22:08:52:264,-0.8037,1.42432,-9.58341,-8.67052,-4.3771,14.0345
2023-03-14 22:08:52:274,-0.823634,1.43127,-9.58657,-8.68089,-4.36982,14.0177
2023-03-14 22:08:52:284,-0.842426,1.44387,-9.59366,-8.69471,-4.35686,14.0005
2023-03-14 22:08:52:294,-0.85174,1.44187,-9.59299,-8.71111,-4.34287,13.9817
2023-03-14 22:08:52:304,-0.819269,1.4346,-9.59134,-8.72655,-4.32248,13.9658
2023-03-14 22:08:52:314,-0.785361,1.45095,-9.60354,-8.74021,-4.30139,13.9431
2023-03-14 22:08:52:324,-0.758897,1.47662,-9.63593,-8.75161,-4.27815,13.9176
2023-03-14 22:08:52:334,-0.732496,1.46696,-9.64135,-8.7624,-4.2572,13.8901
2023-03-14 22:08:52:344,-0.588339,1.48446,-9.69942,-8.77322,-4.23569,13.8672
2023-03-14 22:08:52:354,-0.703036,1.497,-9.66753,-8.7773,-4.2147,13.8509
2023-03-14 22:08:52:364,-0.693141,1.44226,-9.59343,-8.78408,-4.19571,13.8366
2023-03-14 22:08:52:374,-0.656293,1.46027,-9.6197,-8.79844,-4.17225,13.8256
2023-03-14 22:08:52:384,-0.735894,1.585,-9.73052,-8.81355,-4.15122,13.8138
2023-03-14 22:08:52:394,-0.612251,1.53303,-9.74956,-8.82419,-4.12225,13.7963
2023-03-14 22:08:52:404,-0.570526,1.57402,-9.77115,-8.82933,-4.09659,13.7801
2023-03-14 22:08:52:414,-0.608431,1.58332,-9.78857,-8.83154,-4.08103,13.7675
2023-03-14 22:08:52:424,-0.540302,1.52615,-9.7158,-8.82715,-4.07293,13.7505
2023-03-14 22:08:52:434,-0.739228,1.51712,-9.64009,-8.81725,-4.06688,13.7394
2023-03-14 22:08:52:444,-0.731966,1.53851,-9.68426,-8.80561,-4.05999,13.7242
2023-03-14 22:08:52:454,-0.62602,1.55041,-9.74744,-8.79406,-4.0523,13.7031
2023-03-14 22:08:52:464,-0.603844,1.51161,-9.71769,-8.77609,-4.04938,13.686
2023-03-14 22:08:52:474,-0.574099,1.42565,-9.61726,-8.75697,-4.05124,13.672
2023-03-14 22:08:52:484,-0.505474,1.49644,-9.66354,-8.74153,-4.04788,13.6676
2023-03-14 22:08:52:494,-0.285122,1.58948,-9.97063,-8.7231,-4.04877,13.6574
2023-03-14 22:08:52:504,-0.702101,1.36336,-9.59963,-8.67355,-4.08115,13.6691
2023-03-14 22:08:52:514,-0.907201,1.37309,-9.4284,-8.63753,-4.09749,13.6864
2023-03-14 22:08:52:524,-0.679077,1.36684,-9.47223,-8.61531,-4.09648,13.6918
2023-03-14 22:08:52:534,-0.565424,1.41768,-9.58112,-8.60193,-4.08623,13.6945
2023-03-14 22:08:52:544,-0.661024,1.45292,-9.58094,-8.59327,-4.07336,13.702
2023-03-14 22:08:52:554,-0.730168,1.43753,-9.50313,-8.58691,-4.0638,13.7085
2023-03-14 22:08:52:564,-0.677892,1.42401,-9.49208,-8.58588,-4.05267,13.711
2023-03-14 22:08:52:574,-0.61505,1.43743,-9.53257,-8.59326,-4.04035,13.7116
2023-03-14 22:08:52:584,-0.575214,1.43963,-9.59289,-8.59774,-4.03341,13.7103
2023-03-14 22:08:52:594,-0.540694,1.46504,-9.67851,-8.60979,-4.02583,13.7042
2023-03-14 22:08:52:604,-0.486879,1.48876,-9.74468,-8.62504,-4.02147,13.703
2023-03-14 22:08:52:614,-0.453871,1.51856,-9.79119,-8.63716,-4.02819,13.7018
2023-03-14 22:08:52:624,-0.47045,1.51103,-9.80023,-8.6439,-4.0397,13.7069
2023-03-14 22:08:52:634,-0.499811,1.49239,-9.77256,-8.65015,-4.05606,13.7171
2023-03-14 22:08:52:644,-0.548115,1.48371,-9.7312,-8.65062,-4.0794,13.7361
2023-03-14 22:08:52:654,-0.631158,1.47027,-9.66031,-8.65042,-4.10865,13.7608
2023-03-14 22:08:52:664,-0.693845,1.47699,-9.6381,-8.65017,-4.14108,13.7921
2023-03-14 22:08:52:674,-0.743538,1.49836,-9.6398,-8.64932,-4.17049,13.8253
2023-03-14 22:08:52:684,-0.755559,1.50065,-9.6435,-8.65006,-4.19936,13.8571
2023-03-14 22:08:52:694,-0.758659,1.50286,-9.64786,-8.65101,-4.22098,13.8915
2023-03-14 22:08:52:704,-0.777228,1.46825,-9.64287,-8.64731,-4.24185,13.9281
2023-03-14 22:08:52:714,-0.829956,1.47055,-9.60297,-8.64384,-4.26874,13.962
2023-03-14 22:08:52:724,-0.901451,1.47424,-9.57757,-8.64178,-4.29555,13.9984
2023-03-14 22:08:52:734,-0.914201,1.46276,-9.53818,-8.6424,-4.31717,14.03
2023-03-14 22:08:52:744,-0.92486,1.44973,-9.50035,-8.64258,-4.3329,14.0614
2023-03-14 22:08:52:754,-0.925078,1.46864,-9.47033,-8.64825,-4.33894,14.0854
2023-03-14 22:08:52:764,-0.915205,1.48617,-9.49065,-8.6593,-4.34385,14.1031
2023-03-14 22:08:52:774,-0.915602,1.52577,-9.51107,-8.67535,-4.34119,14.1143
2023-03-14 22:08:52:784,-0.912158,1.57383,-9.54941,-8.69426,-4.33914,14.117
2023-03-14 22:08:52:794,-0.878618,1.59932,-9.58227,-8.71618,-4.3367,14.1096
2023-03-14 22:08:52:804,-0.84462,1.60422,-9.61374,-8.73528,-4.33031,14.0938
2023-03-14 22:08:52:814,-0.815006,1.5915,-9.62193,-8.75247,-4.3271,14.07
2023-03-14 22:08:52:824,-0.788438,1.58621,-9.63436,-8.76776,-4.32381,14.038
2023-03-14 22:08:52:834,-0.720609,1.59449,-9.64566,-8.78673,-4.32301,14.0037
2023-03-14 22:08:52:844,-0.639217,1.58881,-9.61734,-8.80576,-4.3247,13.9673
2023-03-14 22:08:52:854,-0.603964,1.58354,-9.58547,-8.82603,-4.32616,13.9284
2023-03-14 22:08:52:864,-0.592024,1.60207,-9.57497,-8.8527,-4.33003,13.89
2023-03-14 22:08:52:874,-0.566944,1.63521,-9.60332,-8.88271,-4.33746,13.8547
2023-03-14 22:08:52:884,-0.564985,1.63675,-9.64214,-8.9104,-4.34847,13.8225
2023-03-14 22:08:52:894,-0.651968,1.6669,-9.68829,-8.9323,-4.36461,13.7939
2023-03-14 22:08:52:904,-0.749184,1.73107,-9.75163,-8.95647,-4.38298,13.7653
2023-03-14 22:08:52:914,-0.739793,1.74023,-9.77937,-8.97158,-4.40551,13.7379
2023-03-14 22:08:52:924,-0.687516,1.67873,-9.71127,-8.9753,-4.4242,13.7057
2023-03-14 22:08:52:934,-0.648949,1.60946,-9.61086,-8.97304,-4.44655,13.6784
2023-03-14 22:08:52:944,-0.612364,1.5614,-9.59809,-8.96775,-4.46631,13.6506
2023-03-14 22:08:52:954,-0.590816,1.57396,-9.65389,-8.96834,-4.48973,13.633
2023-03-14 22:08:52:964,-0.610037,1.56408,-9.73861,-8.96935,-4.51297,13.6256
2023-03-14 22:08:52:974,-0.702131,1.56514,-9.77149,-8.97065,-4.54237,13.6308
2023-03-14 22:08:52:984,-0.754903,1.5614,-9.76589,-8.97108,-4.57327,13.6416
2023-03-14 22:08:52:994,-0.792545,1.54785,-9.71163,-8.97178,-4.60418,13.6521
2023-03-14 22:08:53:4,-0.827713,1.55631,-9.64192,-8.97226,-4.63298,13.6668
2023-03-14 22:08:53:14,-0.846112,1.60706,-9.64003,-8.9706,-4.66023,13.6838
2023-03-14 22:08:53:24,-0.877979,1.63535,-9.62896,-8.96743,-4.68503,13.7004
2023-03-14 22:08:53:34,-0.983337,1.58394,-9.58476,-8.9585,-4.72217,13.7145
2023-03-14 22:08:53:44,-1.09189,1.58408,-9.58127,-8.9472,-4.75964,13.726
2023-03-14 22:08:53:54,-1.15496,1.5524,-9.61032,-8.93283,-4.79558,13.7268
2023-03-14 22:08:53:64,-1.12597,1.51073,-9.65091,-8.91451,-4.82344,13.716
2023-03-14 22:08:53:74,-1.01482,1.46663,-9.68918,-8.89327,-4.84104,13.6949
2023-03-14 22:08:53:84,-0.844661,1.42761,-9.73742,-8.86921,-4.84918,13.6642
2023-03-14 22:08:53:94,-0.697676,1.41183,-9.74423,-8.84637,-4.85256,13.6329
2023-03-14 22:08:53:104,-0.57921,1.41934,-9.74891,-8.82243,-4.8595,13.6044
2023-03-14 22:08:53:114,-0.564461,1.4235,-9.71994,-8.79485,-4.86925,13.5847
2023-03-14 22:08:53:124,-0.617313,1.36994,-9.64543,-8.76349,-4.88535,13.5751
2023-03-14 22:08:53:134,-0.710387,1.30594,-9.54975,-8.72729,-4.90559,13.5754
2023-03-14 22:08:53:144,-0.769918,1.27574,-9.52179,-8.69754,-4.92376,13.5866
2023-03-14 22:08:53:154,-0.789764,1.27824,-9.53985,-8.67652,-4.93807,13.6059
2023-03-14 22:08:53:164,-0.842663,1.28897,-9.53797,-8.66154,-4.95007,13.6262
2023-03-14 22:08:53:174,-0.917035,1.3348,-9.50781,-8.65648,-4.9625,13.6477
2023-03-14 22:08:53:184,-0.970504,1.37384,-9.49397,-8.65692,-4.97595,13.664
2023-03-14 22:08:53:194,-1.00855,1.41905,-9.55491,-8.66265,-4.98444,13.674
2023-03-14 22:08:53:204,-0.993005,1.45672,-9.60777,-8.67029,-4.99423,13.6694
2023-03-14 22:08:53:214,-0.903736,1.43192,-9.61799,-8.67143,-5.00133,13.6553
2023-03-14 22:08:53:224,-0.845128,1.38885,-9.60281,-8.66812,-5.00605,13.6328
2023-03-14 22:08:53:234,-0.816271,1.37109,-9.59896,-8.66974,-5.01493,13.6154
2023-03-14 22:08:53:244,-0.798486,1.41014,-9.66207,-8.67915,-5.02264,13.5953
2023-03-14 22:08:53:254,-0.770017,1.42712,-9.74718,-8.68743,-5.02387,13.5792
2023-03-14 22:08:53:264,-0.743024,1.42483,-9.78648,-8.69053,-5.01751,13.567
2023-03-14 22:08:53:274,-0.700887,1.4146,-9.76326,-8.68563,-5.00041,13.5585
2023-03-14 22:08:53:284,-0.642405,1.38812,-9.73955,-8.67837,-4.98013,13.5555
2023-03-14 22:08:53:294,-0.614503,1.3699,-9.71216,-8.67069,-4.95746,13.5602
2023-03-14 22:08:53:304,-0.595537,1.3399,-9.67431,-8.66138,-4.93746,13.5731
2023-03-14 22:08:53:314,-0.616586,1.34994,-9.61855,-8.65542,-4.91894,13.5913
2023-03-14 22:08:53:324,-0.690032,1.37613,-9.57653,-8.65335,-4.91146,13.615
2023-03-14 22:08:53:334,-0.749798,1.39911,-9.5149,-8.65973,-4.91153,13.6394
2023-03-14 22:08:53:344,-0.7785,1.40542,-9.4752,-8.66936,-4.9129,13.6596
2023-03-14 22:08:53:354,-0.78769,1.40485,-9.43468,-8.68289,-4.91995,13.6777
2023-03-14 22:08:53:364,-0.82154,1.41236,-9.39419,-8.70244,-4.93533,13.6925
2023-03-14 22:08:53:374,-0.871158,1.43082,-9.38809,-8.73342,-4.95683,13.7069
2023-03-14 22:08:53:384,-0.93155,1.47218,-9.39619,-8.77059,-4.98422,13.7178
2023-03-14 22:08:53:394,-1.01235,1.53823,-9.42391,-8.82019,-5.01686,13.7234
2023-03-14 22:08:53:404,-1.06965,1.56553,-9.42606,-8.86848,-5.05192,13.72
2023-03-14 22:08:53:414,-1.09831,1.57169,-9.42546,-8.91911,-5.0794,13.7072
2023-03-14 22:08:53:424,-1.0883,1.57972,-9.42439,-8.97366,-5.10085,13.6855
2023-03-14 22:08:53:434,-1.05023,1.60976,-9.44985,-9.03589,-5.10905,13.6577
2023-03-14 22:08:53:444,-0.99478,1.65633,-9.54773,-9.1038,-5.11099,13.628
2023-03-14 22:08:53:454,-0.904709,1.73723,-9.6773,-9.17728,-5.10108,13.5952
2023-03-14 22:08:53:464,-0.826238,1.8197,-9.79767,-9.24925,-5.08537,13.5622
2023-03-14 22:08:53:474,-0.77531,1.89231,-9.87542,-9.31159,-5.06777,13.5297
2023-03-14 22:08:53:484,-0.768915,1.91365,-9.90675,-9.36407,-5.05594,13.4982
2023-03-14 22:08:53:494,-0.827197,1.92849,-9.90143,-9.39943,-5.04613,13.4724
2023-03-14 22:08:53:504,-0.915569,1.90526,-9.85357,-9.42295,-5.04259,13.4478
2023-03-14 22:08:53:514,-0.985607,1.88581,-9.82384,-9.43228,-5.04298,13.4198
2023-03-14 22:08:53:524,-0.98548,1.90691,-9.82209,-9.4374,-5.0406,13.3862
2023-03-14 22:08:53:534,-0.949692,1.86595,-9.79118,-9.43521,-5.04471,13.342
2023-03-14 22:08:53:544,-0.897673,1.82066,-9.7329,-9.42128,-5.0511,13.2906
2023-03-14 22:08:53:554,-0.862229,1.80695,-9.67176,-9.40774,-5.06435,13.2347
2023-03-14 22:08:53:564,-0.789964,1.80051,-9.63824,-9.39286,-5.07515,13.1743
2023-03-14 22:08:53:574,-0.700298,1.78247,-9.62195,-9.36954,-5.08033,13.1137
2023-03-14 22:08:53:584,-0.608587,1.69738,-9.57022,-9.34444,-5.08453,13.0573
2023-03-14 22:08:53:594,-0.543144,1.66358,-9.56993,-9.31885,-5.0879,13.0093
2023-03-14 22:08:53:604,-0.576224,1.66408,-9.6272,-9.29722,-5.0884,12.9821
2023-03-14 22:08:53:614,-0.651517,1.66683,-9.67066,-9.27246,-5.09488,12.9629
2023-03-14 22:08:53:624,-0.695878,1.66812,-9.74113,-9.24505,-5.10174,12.9515
2023-03-14 22:08:53:634,-0.718349,1.66733,-9.75753,-9.21134,-5.11165,12.951
2023-03-14 22:08:53:644,-0.655913,1.5879,-9.64578,-9.16896,-5.1222,12.9494
2023-03-14 22:08:53:654,-0.607163,1.50168,-9.49873,-9.12757,-5.14057,12.9589
2023-03-14 22:08:53:664,-0.703838,1.44489,-9.39323,-9.0862,-5.1708,12.9845
2023-03-14 22:08:53:674,-0.87005,1.41395,-9.3825,-9.06683,-5.21281,13.0213
2023-03-14 22:08:53:684,-1.00296,1.47752,-9.51079,-9.06615,-5.25802,13.0623
2023-03-14 22:08:53:694,-1.07932,1.60209,-9.67326,-9.0723,-5.2946,13.1028
2023-03-14 22:08:53:704,-1.10133,1.67992,-9.75676,-9.07734,-5.31996,13.1423
2023-03-14 22:08:53:714,-1.04558,1.66593,-9.75525,-9.06625,-5.33057,13.1773
2023-03-14 22:08:53:724,-0.953292,1.5886,-9.662,-9.04104,-5.33065,13.2098
2023-03-14 22:08:53:734,-0.908112,1.5338,-9.54712,-9.0105,-5.323,13.2482
2023-03-14 22:08:53:744,-0.894384,1.50678,-9.49616,-8.98648,-5.31755,13.288
2023-03-14 22:08:53:754,-0.920138,1.50584,-9.52194,-8.96614,-5.31023,13.33
2023-03-14 22:08:53:764,-0.973859,1.55671,-9.57617,-8.95432,-5.30818,13.3698
2023-03-14 22:08:53:774,-1.01314,1.59974,-9.58775,-8.94785,-5.30355,13.4045
2023-03-14 22:08:53:784,-1.00511,1.61235,-9.59041,-8.93605,-5.30435,13.4319
2023-03-14 22:08:53:794,-0.993287,1.6097,-9.59192,-8.92238,-5.30576,13.4461
2023-03-14 22:08:53:804,-0.989151,1.57803,-9.58191,-8.90953,-5.31361,13.456
2023-03-14 22:08:53:814,-0.999247,1.56266,-9.56817,-8.8928,-5.32719,13.4597
2023-03-14 22:08:53:824,-0.989959,1.56053,-9.55398,-8.87966,-5.34248,13.4598
2023-03-14 22:08:53:834,-0.910331,1.53581,-9.56272,-8.86265,-5.35471,13.4563
2023-03-14 22:08:53:844,-0.806354,1.53355,-9.62108,-8.84961,-5.36386,13.4528
2023-03-14 22:08:53:854,-0.745413,1.5319,-9.7139,-8.84015,-5.3708,13.4559
2023-03-14 22:08:53:864,-0.779736,1.54373,-9.81019,-8.82839,-5.37872,13.4727
2023-03-14 22:08:53:874,-0.868931,1.56508,-9.91373,-8.8128,-5.38922,13.5017
2023-03-14 22:08:53:884,-0.94688,1.59994,-9.99514,-8.78672,-5.40183,13.5387
2023-03-14 22:08:53:894,-1.04091,1.61721,-10.005,-8.74725,-5.4114,13.5797
2023-03-14 22:08:53:904,-1.14296,1.57335,-9.89663,-8.68606,-5.41556,13.6207
2023-03-14 22:08:53:914,-1.20732,1.43738,-9.69741,-8.60751,-5.41444,13.6587
2023-03-14 22:08:53:924,-1.25815,1.32088,-9.48886,-8.52372,-5.41477,13.6907
2023-03-14 22:08:53:934,-1.30846,1.27105,-9.29639,-8.44592,-5.4148,13.7137
2023-03-14 22:08:53:944,-1.34115,1.23441,-9.19102,-8.37802,-5.41168,13.7219
2023-03-14 22:08:53:954,-1.34512,1.24036,-9.17761,-8.32853,-5.41069,13.7154
2023-03-14 22:08:53:964,-1.31885,1.26515,-9.281,-8.29587,-5.40566,13.694
2023-03-14 22:08:53:974,-1.32344,1.3246,-9.42944,-8.27843,-5.39764,13.6529
2023-03-14 22:08:53:984,-1.33311,1.40035,-9.5651,-8.26907,-5.38494,13.5939
2023-03-14 22:08:53:994,-1.26094,1.41142,-9.67221,-8.26077,-5.37022,13.518
2023-03-14 22:08:54:4,-1.10277,1.3974,-9.72176,-8.24883,-5.3421,13.4228
2023-03-14 22:08:54:14,-0.921516,1.37139,-9.7253,-8.22866,-5.31013,13.3155
2023-03-14 22:08:54:24,-0.754768,1.34011,-9.71593,-8.20746,-5.27175,13.2069
2023-03-14 22:08:54:34,-0.624941,1.311,-9.70496,-8.19004,-5.23775,13.1016
2023-03-14 22:08:54:44,-0.555249,1.33091,-9.70433,-8.17535,-5.21557,13.0108
2023-03-14 22:08:54:54,-0.576486,1.36493,-9.70915,-8.16208,-5.20656,12.9293
2023-03-14 22:08:54:64,-0.658113,1.3783,-9.68572,-8.14878,-5.21004,12.86
2023-03-14 22:08:54:74,-0.740573,1.37463,-9.64784,-8.13424,-5.21831,12.8015
2023-03-14 22:08:54:84,-0.815346,1.35327,-9.5972,-8.11578,-5.22594,12.7492
2023-03-14 22:08:54:94,-0.872931,1.334,-9.5362,-8.09501,-5.23151,12.7088
2023-03-14 22:08:54:104,-0.917952,1.33425,-9.50092,-8.08114,-5.23286,12.6741
2023-03-14 22:08:54:114,-0.925879,1.31968,-9.50831,-8.06778,-5.22357,12.6419
2023-03-14 22:08:54:124,-0.904265,1.3178,-9.54553,-8.05875,-5.21187,12.6099
2023-03-14 22:08:54:134,-0.844863,1.35075,-9.61064,-8.06309,-5.19901,12.5772
2023-03-14 22:08:54:144,-0.779149,1.37923,-9.69522,-8.06827,-5.18156,12.5433
2023-03-14 22:08:54:154,-0.738455,1.39923,-9.7442,-8.07041,-5.16525,12.5141
2023-03-14 22:08:54:164,-0.746239,1.41611,-9.71686,-8.07091,-5.15642,12.4867
2023-03-14 22:08:54:174,-0.766997,1.3874,-9.6545,-8.06854,-5.15157,12.4619
2023-03-14 22:08:54:184,-0.781466,1.33428,-9.57779,-8.05854,-5.14656,12.4446
2023-03-14 22:08:54:194,-0.808313,1.31325,-9.53845,-8.05573,-5.14551,12.4315
2023-03-14 22:08:54:204,-0.835016,1.31686,-9.55743,-8.05675,-5.14744,12.4255
2023-03-14 22:08:54:214,-0.857782,1.35457,-9.6133,-8.06326,-5.15102,12.4196
2023-03-14 22:08:54:224,-0.840328,1.3824,-9.66564,-8.07525,-5.15834,12.4073
2023-03-14 22:08:54:234,-0.85016,1.37881,-9.69336,-8.08499,-5.16807,12.3988
2023-03-14 22:08:54:244,-0.859037,1.37128,-9.67131,-8.09329,-5.18278,12.3898
2023-03-14 22:08:54:254,-0.866372,1.37069,-9.68495,-8.10417,-5.20078,12.3822
2023-03-14 22:08:54:264,-0.834266,1.37476,-9.66801,-8.1165,-5.21887,12.3745
2023-03-14 22:08:54:274,-0.820632,1.34602,-9.63263,-8.12757,-5.23682,12.3687
2023-03-14 22:08:54:284,-0.829106,1.32462,-9.61117,-8.13648,-5.25402,12.3654
2023-03-14 22:08:54:294,-0.84244,1.33963,-9.62888,-8.14831,-5.26876,12.3673
2023-03-14 22:08:54:304,-0.86263,1.36606,-9.67222,-8.16089,-5.28643,12.3694
2023-03-14 22:08:54:314,-0.903013,1.38925,-9.7086,-8.17771,-5.30354,12.3752
2023-03-14 22:08:54:324,-0.948485,1.42653,-9.7471,-8.19595,-5.31967,12.376
2023-03-14 22:08:54:334,-0.980342,1.43844,-9.77045,-8.2049,-5.33636,12.3773
2023-03-14 22:08:54:344,-1.00141,1.40457,-9.73265,-8.20478,-5.3534,12.373
2023-03-14 22:08:54:354,-1.02635,1.38127,-9.65501,-8.20191,-5.36995,12.3649
2023-03-14 22:08:54:364,-0.9955,1.35998,-9.59071,-8.19488,-5.38171,12.3518
2023-03-14 22:08:54:374,-0.96088,1.34173,-9.56874,-8.1901,-5.39043,12.332
2023-03-14 22:08:54:384,-0.962117,1.34,-9.57432,-8.19124,-5.38928,12.3167
2023-03-14 22:08:54:394,-0.911798,1.34127,-9.60942,-8.19093,-5.37727,12.2992
2023-03-14 22:08:54:404,-0.787007,1.33813,-9.66037,-8.18995,-5.35314,12.2785
2023-03-14 22:08:54:414,-0.683684,1.37015,-9.71339,-8.19017,-5.32694,12.2565
2023-03-14 22:08:54:424,-0.691542,1.37866,-9.69168,-8.18447,-5.30406,12.2398
2023-03-14 22:08:54:434,-0.725777,1.35184,-9.60184,-8.18069,-5.28869,12.2238
2023-03-14 22:08:54:444,-0.685549,1.33898,-9.56624,-8.18003,-5.27934,12.2123
2023-03-14 22:08:54:454,-0.611101,1.3797,-9.6125,-8.18456,-5.26868,12.2025
2023-03-14 22:08:54:464,-0.593436,1.4044,-9.63879,-8.19542,-5.27056,12.198
2023-03-14 22:08:54:474,-0.604206,1.40907,-9.66652,-8.20533,-5.27764,12.2029
2023-03-14 22:08:54:484,-0.639039,1.43831,-9.68764,-8.21425,-5.28576,12.219
2023-03-14 22:08:54:494,-0.695909,1.44536,-9.70477,-8.2193,-5.30382,12.2445
2023-03-14 22:08:54:504,-0.83179,1.43045,-9.66741,-8.21903,-5.32697,12.2751
2023-03-14 22:08:54:514,-0.914796,1.42222,-9.56506,-8.22052,-5.35154,12.3104
2023-03-14 22:08:54:524,-0.92367,1.41795,-9.4846,-8.22358,-5.37492,12.3421
2023-03-14 22:08:54:534,-0.905278,1.42583,-9.4927,-8.23755,-5.39859,12.3711
2023-03-14 22:08:54:544,-0.856993,1.45963,-9.57323,-8.2584,-5.42409,12.3938
2023-03-14 22:08:54:554,-0.850169,1.51879,-9.66685,-8.28536,-5.45811,12.4184
2023-03-14 22:08:54:563,-0.896011,1.57224,-9.69837,-8.31446,-5.49827,12.443
2023-03-14 22:08:54:574,-0.942177,1.60585,-9.7138,-8.34042,-5.53838,12.4679
2023-03-14 22:08:54:583,-0.98136,1.62487,-9.67745,-8.36146,-5.57628,12.4919
2023-03-14 22:08:54:594,-1.02365,1.61095,-9.60926,-8.37571,-5.6073,12.5167
2023-03-14 22:08:54:604,-1.05116,1.57554,-9.55312,-8.38743,-5.63751,12.5398
2023-03-14 22:08:54:614,-1.09002,1.56721,-9.52923,-8.39777,-5.66046,12.5655
2023-03-14 22:08:54:624,-1.11133,1.56897,-9.5493,-8.40862,-5.68254,12.5864
2023-03-14 22:08:54:634,-1.10482,1.58113,-9.60567,-8.42248,-5.70427,12.6019
2023-03-14 22:08:54:644,-1.08214,1.58692,-9.66525,-8.43532,-5.72236,12.611
2023-03-14 22:08:54:654,-1.0585,1.58248,-9.69218,-8.44568,-5.74156,12.6159
2023-03-14 22:08:54:664,-1.05929,1.55643,-9.69172,-8.44936,-5.76506,12.6217
2023-03-14 22:08:54:674,-1.09037,1.52211,-9.659,-8.44497,-5.79238,12.6265
2023-03-14 22:08:54:684,-1.09885,1.47887,-9.59085,-8.43805,-5.81886,12.6308
2023-03-14 22:08:54:694,-1.09481,1.43889,-9.54476,-8.43064,-5.84331,12.635
2023-03-14 22:08:54:704,-1.1234,1.42933,-9.52607,-8.42884,-5.86745,12.6404
2023-03-14 22:08:54:714,-1.196,1.45472,-9.54524,-8.42839,-5.88929,12.6492
2023-03-14 22:08:54:724,-1.26696,1.46321,-9.54219,-8.43127,-5.90687,12.6547
2023-03-14 22:08:54:734,-1.2835,1.44977,-9.5275,-8.43174,-5.91617,12.6534
2023-03-14 22:08:54:744,-1.26716,1.46325,-9.56848,-8.43517,-5.91582,12.6427
2023-03-14 22:08:54:754,-1.26803,1.47945,-9.63989,-8.43783,-5.90663,12.6314
2023-03-14 22:08:54:764,-1.29987,1.47662,-9.63022,-8.43827,-5.89531,12.6066
2023-03-14 22:08:54:774,-1.30438,1.43937,-9.59662,-8.43161,-5.87337,12.5799
2023-03-14 22:08:54:784,-1.22922,1.41943,-9.58627,-8.4246,-5.83947,12.5416
2023-03-14 22:08:54:794,-1.13712,1.40401,-9.54341,-8.41753,-5.79785,12.4952
2023-03-14 22:08:54:804,-1.105,1.38601,-9.48847,-8.40883,-5.75347,12.4453
2023-03-14 22:08:54:814,-1.09167,1.35786,-9.44914,-8.40923,-5.70064,12.3939
2023-03-14 22:08:54:824,-1.12217,1.34305,-9.46474,-8.41099,-5.64602,12.3426
2023-03-14 22:08:54:834,-1.17778,1.36967,-9.53465,-8.42475,-5.58779,12.2901
2023-03-14 22:08:54:844,-1.1439,1.40056,-9.61581,-8.4411,-5.53212,12.2255
2023-03-14 22:08:54:854,-1.06129,1.40373,-9.66653,-8.45803,-5.47589,12.1518
2023-03-14 22:08:54:864,-0.985514,1.3978,-9.68002,-8.47071,-5.42326,12.066
2023-03-14 22:08:54:874,-0.957454,1.38944,-9.63296,-8.48881,-5.37857,11.9789
2023-03-14 22:08:54:884,-0.896417,1.36076,-9.61365,-8.50415,-5.34284,11.8807
2023-03-14 22:08:54:894,-0.802551,1.36301,-9.59849,-8.52451,-5.31389,11.7853
2023-03-14 22:08:54:904,-0.778067,1.38155,-9.53416,-8.54961,-5.28714,11.6905
2023-03-14 22:08:54:914,-0.758334,1.38756,-9.51524,-8.5765,-5.26151,11.5957
2023-03-14 22:08:54:924,-0.704699,1.41685,-9.55628,-8.60852,-5.22964,11.5052
2023-03-14 22:08:54:934,-0.693802,1.4438,-9.61667,-8.64394,-5.20458,11.4235
2023-03-14 22:08:54:944,-0.680248,1.45748,-9.63189,-8.68064,-5.18048,11.3474
2023-03-14 22:08:54:954,-0.646372,1.47531,-9.69093,-8.72355,-5.16551,11.2732
2023-03-14 22:08:54:964,-0.670571,1.52771,-9.76658,-8.75983,-5.15193,11.2154
2023-03-14 22:08:54:974,-0.70342,1.53902,-9.80492,-8.79563,-5.14229,11.1656
2023-03-14 22:08:54:984,-0.748406,1.54455,-9.79263,-8.82378,-5.13607,11.123
2023-03-14 22:08:54:994,-0.790079,1.52847,-9.77605,-8.84787,-5.12534,11.0882
2023-03-14 22:08:55:4,-0.798964,1.50771,-9.74331,-8.86533,-5.1127,11.0626
2023-03-14 22:08:55:14,-0.787757,1.4938,-9.6971,-8.87913,-5.09407,11.0419
2023-03-14 22:08:55:24,-0.763453,1.49401,-9.6614,-8.89192,-5.07418,11.0276
2023-03-14 22:08:55:34,-0.727363,1.49417,-9.64303,-8.90346,-5.04725,11.0187
2023-03-14 22:08:55:44,-0.72336,1.48932,-9.6385,-8.91389,-5.01938,11.0192
2023-03-14 22:08:55:54,-0.711065,1.50988,-9.65513,-8.92291,-4.99017,11.0269
2023-03-14 22:08:55:64,-0.696963,1.53652,-9.68357,-8.92937,-4.95029,11.0413
2023-03-14 22:08:55:74,-0.704049,1.50256,-9.64794,-8.93194,-4.91418,11.0596
2023-03-14 22:08:55:84,-0.710523,1.45504,-9.5944,-8.93573,-4.8788,11.0821
2023-03-14 22:08:55:94,-0.726247,1.4524,-9.58034,-8.94214,-4.84505,11.1088
2023-03-14 22:08:55:104,-0.73857,1.47353,-9.55403,-8.94802,-4.81649,11.136
2023-03-14 22:08:55:114,-0.711902,1.4828,-9.52879,-8.96425,-4.78697,11.1644
2023-03-14 22:08:55:124,-0.673573,1.49053,-9.52638,-8.98423,-4.76402,11.1919
2023-03-14 22:08:55:134,-0.670122,1.52002,-9.56926,-9.01163,-4.75144,11.2243
2023-03-14 22:08:55:144,-0.693208,1.56647,-9.60617,-9.05012,-4.74498,11.2577
2023-03-14 22:08:55:154,-0.751097,1.60236,-9.59501,-9.09345,-4.75141,11.2919
2023-03-14 22:08:55:164,-0.839586,1.64189,-9.63047,-9.13675,-4.77132,11.3241
2023-03-14 22:08:55:174,-0.975254,1.70274,-9.6641,-9.18098,-4.79882,11.3514
2023-03-14 22:08:55:184,-1.07734,1.71776,-9.66605,-9.21617,-4.82403,11.3736
2023-03-14 22:08:55:194,-1.15746,1.71538,-9.64783,-9.24491,-4.84625,11.3826
2023-03-14 22:08:55:204,-1.18353,1.67302,-9.59808,-9.26891,-4.86333,11.383
2023-03-14 22:08:55:214,-1.18642,1.65748,-9.53394,-9.28571,-4.87426,11.3724
2023-03-14 22:08:55:224,-1.15675,1.63668,-9.51946,-9.30439,-4.88154,11.3484
2023-03-14 22:08:55:234,-1.10462,1.62471,-9.52709,-9.3187,-4.87832,11.3106
2023-03-14 22:08:55:244,-1.03442,1.64608,-9.55479,-9.337,-4.87157,11.2585
2023-03-14 22:08:55:254,-0.91382,1.6323,-9.56044,-9.35571,-4.85617,11.1972
2023-03-14 22:08:55:264,-0.774017,1.60771,-9.53483,-9.37392,-4.83651,11.124
2023-03-14 22:08:55:274,-0.643765,1.62127,-9.57245,-9.392,-4.81459,11.0507
2023-03-14 22:08:55:284,-0.555719,1.66402,-9.61619,-9.41618,-4.79105,10.9813
2023-03-14 22:08:55:294,-0.56497,1.66691,-9.61433,-9.43757,-4.77114,10.9209
2023-03-14 22:08:55:304,-0.665587,1.64374,-9.56787,-9.45752,-4.76414,10.8675
2023-03-14 22:08:55:314,-0.656082,1.6362,-9.52873,-9.48436,-4.76923,10.8171
2023-03-14 22:08:55:324,-0.627228,1.68675,-9.58675,-9.51909,-4.77986,10.77
2023-03-14 22:08:55:334,-0.737065,1.74147,-9.64659,-9.55605,-4.78407,10.7346
2023-03-14 22:08:55:344,-0.827325,1.76722,-9.66013,-9.5867,-4.78711,10.7045
2023-03-14 22:08:55:354,-0.784946,1.74046,-9.62968,-9.61204,-4.78778,10.6717
2023-03-14 22:08:55:364,-0.766858,1.73086,-9.61708,-9.63764,-4.78371,10.6449
2023-03-14 22:08:55:374,-0.804434,1.74542,-9.62894,-9.66222,-4.77314,10.622
2023-03-14 22:08:55:384,-0.835884,1.75719,-9.60838,-9.67973,-4.75589,10.5992
2023-03-14 22:08:55:394,-0.837272,1.72662,-9.57056,-9.69386,-4.73566,10.5777
2023-03-14 22:08:55:404,-0.826081,1.69615,-9.56249,-9.70716,-4.71111,10.5589
2023-03-14 22:08:55:414,-0.827941,1.69822,-9.58431,-9.72325,-4.68324,10.5366
2023-03-14 22:08:55:424,-0.817804,1.7154,-9.61274,-9.74104,-4.65026,10.5135
2023-03-14 22:08:55:434,-0.814544,1.75292,-9.68511,-9.76055,-4.61617,10.4904
2023-03-14 22:08:55:444,-0.779331,1.76501,-9.74146,-9.77069,-4.57071,10.4624
2023-03-14 22:08:55:454,-0.708229,1.72487,-9.71018,-9.77544,-4.52942,10.4319
2023-03-14 22:08:55:464,-0.6517,1.71609,-9.71925,-9.77768,-4.48789,10.4016
2023-03-14 22:08:55:474,-0.612359,1.72465,-9.77611,-9.77768,-4.44856,10.372
2023-03-14 22:08:55:484,-0.565729,1.7176,-9.77242,-9.77017,-4.41689,10.342
2023-03-14 22:08:55:494,-0.544,1.69303,-9.74783,-9.75706,-4.38953,10.3137
2023-03-14 22:08:55:504,-0.575189,1.68384,-9.72107,-9.74122,-4.36749,10.2889
2023-03-14 22:08:55:514,-0.597605,1.66281,-9.69193,-9.72414,-4.35046,10.2695
2023-03-14 22:08:55:524,-0.586519,1.63925,-9.6808,-9.70352,-4.33414,10.2488
2023-03-14 22:08:55:534,-0.544218,1.63627,-9.705,-9.68182,-4.31978,10.2292
2023-03-14 22:08:55:544,-0.510832,1.59508,-9.69589,-9.65417,-4.31557,10.212
2023-03-14 22:08:55:554,-0.53267,1.57277,-9.6764,-9.62971,-4.31835,10.1974
2023-03-14 22:08:55:564,-0.543205,1.56147,-9.68573,-9.60265,-4.32927,10.1879
2023-03-14 22:08:55:574,-0.537134,1.55804,-9.70509,-9.58101,-4.35048,10.1839
2023-03-14 22:08:55:584,-0.557807,1.55908,-9.68288,-9.55573,-4.37729,10.1833
2023-03-14 22:08:55:594,-0.589833,1.56929,-9.67685,-9.53669,-4.40578,10.1847
2023-03-14 22:08:55:604,-0.597457,1.57664,-9.67948,-9.52057,-4.44283,10.1937
2023-03-14 22:08:55:614,-0.622988,1.55506,-9.66936,-9.49561,-4.48042,10.2059
2023-03-14 22:08:55:624,-0.653527,1.55912,-9.6302,-9.47024,-4.51632,10.2252
2023-03-14 22:08:55:634,-0.667609,1.54533,-9.60993,-9.44883,-4.55439,10.2483
2023-03-14 22:08:55:644,-0.698019,1.52216,-9.58653,-9.42491,-4.59556,10.2716
2023-03-14 22:08:55:654,-0.736862,1.5304,-9.5567,-9.40313,-4.63959,10.3019
2023-03-14 22:08:55:664,-0.758754,1.54876,-9.55495,-9.38674,-4.68236,10.3312
2023-03-14 22:08:55:674,-0.817394,1.5551,-9.55056,-9.37071,-4.72602,10.3624
2023-03-14 22:08:55:684,-0.875255,1.54859,-9.54976,-9.3526,-4.76866,10.395
2023-03-14 22:08:55:694,-0.927884,1.54756,-9.54417,-9.33568,-4.81088,10.4255
2023-03-14 22:08:55:704,-0.938398,1.55138,-9.54806,-9.32533,-4.85244,10.4576
2023-03-14 22:08:55:714,-0.953667,1.56178,-9.54949,-9.31555,-4.89167,10.4868
2023-03-14 22:08:55:724,-0.971439,1.56347,-9.55784,-9.31029,-4.93027,10.5174
2023-03-14 22:08:55:734,-0.993333,1.56553,-9.55867,-9.30563,-4.96932,10.5455
2023-03-14 22:08:55:744,-1.02217,1.56452,-9.54384,-9.30515,-5.00219,10.571
2023-03-14 22:08:55:754,-1.06801,1.57732,-9.55463,-9.30711,-5.03507,10.5961
2023-03-14 22:08:55:764,-1.10097,1.60506,-9.57284,-9.31192,-5.06944,10.6159
2023-03-14 22:08:55:774,-1.1044,1.60952,-9.58744,-9.31025,-5.09597,10.6289
2023-03-14 22:08:55:784,-1.10692,1.62314,-9.57831,-9.31428,-5.12213,10.6363
2023-03-14 22:08:55:794,-1.09819,1.62191,-9.56192,-9.31784,-5.14156,10.6418
2023-03-14 22:08:55:804,-1.09725,1.62082,-9.56745,-9.32194,-5.15793,10.6415
2023-03-14 22:08:55:814,-1.09693,1.63179,-9.57975,-9.32229,-5.16893,10.6353
2023-03-14 22:08:55:824,-1.08535,1.64929,-9.58735,-9.32415,-5.18051,10.6243
2023-03-14 22:08:55:834,-1.06044,1.64945,-9.57958,-9.32486,-5.18509,10.606
2023-03-14 22:08:55:844,-1.02873,1.63732,-9.55364,-9.32145,-5.18351,10.585
2023-03-14 22:08:55:854,-1.02311,1.61916,-9.53778,-9.31744,-5.17965,10.5597
2023-03-14 22:08:55:864,-0.998885,1.60265,-9.54906,-9.31849,-5.17152,10.5303
2023-03-14 22:08:55:874,-0.96525,1.60937,-9.55262,-9.31668,-5.1579,10.5005
2023-03-14 22:08:55:884,-0.916937,1.60992,-9.58818,-9.31596,-5.14364,10.47
2023-03-14 22:08:55:894,-0.85934,1.62325,-9.61912,-9.32086,-5.128,10.4337
2023-03-14 22:08:55:904,-0.831427,1.64238,-9.6458,-9.32671,-5.11164,10.4013
2023-03-14 22:08:55:914,-0.806592,1.63228,-9.66848,-9.32835,-5.0983,10.3677
2023-03-14 22:08:55:924,-0.782623,1.64439,-9.66831,-9.33033,-5.08832,10.3362
2023-03-14 22:08:55:934,-0.77633,1.63781,-9.66023,-9.33016,-5.07543,10.3031
2023-03-14 22:08:55:944,-0.780269,1.63483,-9.65117,-9.33012,-5.0658,10.2714
2023-03-14 22:08:55:954,-0.779731,1.65133,-9.6627,-9.32787,-5.06086,10.2469
2023-03-14 22:08:55:964,-0.767538,1.64847,-9.68091,-9.3193,-5.04732,10.2256
2023-03-14 22:08:55:974,-0.754425,1.59493,-9.63865,-9.30937,-5.03164,10.2039
2023-03-14 22:08:55:984,-0.751684,1.58285,-9.61444,-9.29771,-5.02206,10.1877
2023-03-14 22:08:55:994,-0.738055,1.58975,-9.62532,-9.28742,-5.01312,10.1733
2023-03-14 22:08:56:4,-0.725725,1.59485,-9.65023,-9.27595,-5.00588,10.1585
2023-03-14 22:08:56:14,-0.743545,1.59656,-9.65606,-9.26242,-5.00091,10.15
2023-03-14 22:08:56:24,-0.755909,1.59271,-9.64504,-9.251,-4.99804,10.1425
2023-03-14 22:08:56:34,-0.758662,1.58301,-9.64431,-9.23642,-5.00018,10.1363
2023-03-14 22:08:56:44,-0.773336,1.57369,-9.64712,-9.22529,-5.00487,10.1305
2023-03-14 22:08:56:54,-0.81048,1.57079,-9.63664,-9.21448,-5.01541,10.1307
2023-03-14 22:08:56:64,-0.825943,1.55826,-9.62758,-9.19957,-5.0252,10.1272
2023-03-14 22:08:56:74,-0.817916,1.55309,-9.61311,-9.18272,-5.03513,10.1236
2023-03-14 22:08:56:84,-0.830887,1.53137,-9.6011,-9.16686,-5.04616,10.1203
2023-03-14 22:08:56:94,-0.851508,1.52092,-9.62526,-9.15217,-5.05824,10.1138
2023-03-14 22:08:56:104,-0.871084,1.52627,-9.6362,-9.13565,-5.07431,10.1031
2023-03-14 22:08:56:114,-0.842185,1.53269,-9.63816,-9.12145,-5.08743,10.094
2023-03-14 22:08:56:124,-0.785044,1.5262,-9.63888,-9.11078,-5.09762,10.0823
2023-03-14 22:08:56:134,-0.754348,1.50741,-9.60364,-9.09701,-5.11226,10.0755
2023-03-14 22:08:56:144,-0.784246,1.49904,-9.57497,-9.08428,-5.13024,10.0725
2023-03-14 22:08:56:154,-0.84355,1.52457,-9.56773,-9.07561,-5.14964,10.0709
2023-03-14 22:08:56:164,-0.858302,1.54722,-9.57573,-9.07045,-5.1678,10.0758
2023-03-14 22:08:56:174,-0.869055,1.56379,-9.57942,-9.0645,-5.18627,10.0771
2023-03-14 22:08:56:184,-0.892732,1.57753,-9.58338,-9.06128,-5.19973,10.0805
2023-03-14 22:08:56:194,-0.898789,1.58905,-9.57696,-9.05867,-5.20872,10.0866
2023-03-14 22:08:56:204,-0.910092,1.58513,-9.57544,-9.0528,-5.21867,10.0931
2023-03-14 22:08:56:214,-0.920744,1.59767,-9.55859,-9.05021,-5.2307,10.0971
2023-03-14 22:08:56:224,-0.945871,1.56731,-9.54462,-9.04634,-5.24232,10.1019
2023-03-14 22:08:56:234,-0.983469,1.55773,-9.54783,-9.03732,-5.25268,10.1054
2023-03-14 22:08:56:244,-0.993627,1.55987,-9.55984,-9.03453,-5.25683,10.1067
2023-03-14 22:08:56:254,-0.987138,1.56452,-9.59255,-9.03205,-5.2639,10.1033
2023-03-14 22:08:56:264,-0.982523,1.58083,-9.62928,-9.03424,-5.27064,10.0981
2023-03-14 22:08:56:274,-0.971283,1.58435,-9.67308,-9.03701,-5.27657,10.0906
2023-03-14 22:08:56:284,-0.979349,1.5997,-9.71762,-9.03549,-5.27859,10.0819
2023-03-14 22:08:56:294,-0.981479,1.62612,-9.74403,-9.03726,-5.28013,10.0699
2023-03-14 22:08:56:304,-0.977643,1.68496,-9.77496,-9.03342,-5.27845,10.0553
2023-03-14 22:08:56:314,-0.958918,1.70394,-9.73857,-9.01653,-5.27417,10.0386
2023-03-14 22:08:56:324,-0.927414,1.62322,-9.63421,-8.99181,-5.27045,10.0178
2023-03-14 22:08:56:334,-0.920088,1.59897,-9.59918,-8.96486,-5.2656,9.99752
2023-03-14 22:08:56:344,-0.915078,1.59899,-9.61774,-8.94115,-5.26326,9.97564
2023-03-14 22:08:56:354,-0.909123,1.5985,-9.61829,-8.91677,-5.26703,9.95303
2023-03-14 22:08:56:364,-0.951126,1.59281,-9.6252,-8.8921,-5.27272,9.93112
2023-03-14 22:08:56:374,-0.956064,1.57689,-9.60008,-8.86316,-5.27449,9.90636
2023-03-14 22:08:56:384,-0.920257,1.56596,-9.59626,-8.83811,-5.27355,9.88112
2023-03-14 22:08:56:394,-0.87469,1.55151,-9.60128,-8.80885,-5.27114,9.85402
2023-03-14 22:08:56:404,-0.837066,1.51392,-9.57041,-8.77816,-5.26657,9.82752
2023-03-14 22:08:56:414,-0.846529,1.47588,-9.55518,-8.74775,-5.26684,9.80564
2023-03-14 22:08:56:424,-0.849445,1.48367,-9.57345,-8.72248,-5.26305,9.78291
2023-03-14 22:08:56:434,-0.850051,1.50524,-9.58256,-8.69949,-5.2619,9.76362
2023-03-14 22:08:56:444,-0.851238,1.47477,-9.58402,-8.67842,-5.26108,9.74317
2023-03-14 22:08:56:454,-0.851091,1.4737,-9.60853,-8.65812,-5.25824,9.72806
2023-03-14 22:08:56:464,-0.859988,1.48517,-9.62699,-8.64152,-5.25376,9.71189
2023-03-14 22:08:56:474,-0.852494,1.48116,-9.62892,-8.62169,-5.24886,9.69841
2023-03-14 22:08:56:484,-0.831146,1.4578,-9.64371,-8.60226,-5.24563,9.68576
2023-03-14 22:08:56:494,-0.816612,1.43891,-9.63005,-8.58133,-5.24784,9.67756
2023-03-14 22:08:56:504,-0.826815,1.41706,-9.61466,-8.56121,-5.25144,9.67131
2023-03-14 22:08:56:514,-0.827133,1.38167,-9.58924,-8.53431,-5.25639,9.66988
2023-03-14 22:08:56:524,-0.825637,1.33793,-9.53287,-8.5111,-5.26726,9.66996
2023-03-14 22:08:56:534,-0.829777,1.30113,-9.48103,-8.49574,-5.27933,9.67349
2023-03-14 22:08:56:544,-0.844832,1.29691,-9.48629,-8.48612,-5.29219,9.67964
2023-03-14 22:08:56:554,-0.865312,1.315,-9.48884,-8.48494,-5.30582,9.6915
2023-03-14 22:08:56:564,-0.887294,1.34521,-9.52131,-8.49267,-5.31887,9.70165
2023-03-14 22:08:56:574,-0.917904,1.38142,-9.56346,-8.50543,-5.32977,9.71336
2023-03-14 22:08:56:584,-0.91031,1.42564,-9.62,-8.52252,-5.34099,9.72535
2023-03-14 22:08:56:594,-0.936292,1.46685,-9.62959,-8.54056,-5.35219,9.73358
2023-03-14 22:08:56:604,-0.980045,1.49714,-9.64787,-8.55703,-5.36513,9.74222
2023-03-14 22:08:56:614,-0.969829,1.50764,-9.66094,-8.57444,-5.36802,9.75096
2023-03-14 22:08:56:624,-0.948417,1.53702,-9.67729,-8.58882,-5.36998,9.75849
2023-03-14 22:08:56:634,-0.949332,1.5407,-9.66789,-8.5987,-5.37016,9.76546
2023-03-14 22:08:56:644,-0.956557,1.52451,-9.64631,-8.60888,-5.37116,9.7727
2023-03-14 22:08:56:654,-0.978285,1.51666,-9.6445,-8.61787,-5.37632,9.77612
2023-03-14 22:08:56:664,-0.979921,1.51516,-9.67085,-8.62304,-5.37933,9.77724
2023-03-14 22:08:56:674,-0.992592,1.5469,-9.68297,-8.62971,-5.38237,9.7782
2023-03-14 22:08:56:684,-0.997996,1.54568,-9.66392,-8.6344,-5.38665,9.77761
2023-03-14 22:08:56:694,-0.987726,1.51259,-9.64114,-8.63154,-5.38803,9.76982
2023-03-14 22:08:56:704,-0.991855,1.53716,-9.65631,-8.62507,-5.38807,9.76386
2023-03-14 22:08:56:714,-0.977802,1.54762,-9.68337,-8.61665,-5.38169,9.75252
2023-03-14 22:08:56:724,-0.955026,1.52354,-9.6684,-8.60709,-5.37318,9.74114
2023-03-14 22:08:56:734,-0.949393,1.52451,-9.67836,-8.59588,-5.36841,9.7298
2023-03-14 22:08:56:744,-0.929612,1.51571,-9.67584,-8.58177,-5.36007,9.71573
2023-03-14 22:08:56:754,-0.894914,1.48383,-9.65478,-8.56408,-5.35056,9.70039
2023-03-14 22:08:56:764,-0.886612,1.46135,-9.63804,-8.54265,-5.33455,9.68493
2023-03-14 22:08:56:774,-0.893716,1.4548,-9.61383,-8.52055,-5.32543,9.67427
2023-03-14 22:08:56:784,-0.888452,1.42661,-9.59978,-8.50347,-5.31554,9.66133
2023-03-14 22:08:56:794,-0.912392,1.41743,-9.58196,-8.48551,-5.30573,9.65343
2023-03-14 22:08:56:804,-0.95075,1.42387,-9.58776,-8.46807,-5.2998,9.64261
2023-03-14 22:08:56:814,-0.96762,1.41614,-9.56985,-8.45466,-5.29458,9.63173
2023-03-14 22:08:56:824,-0.944945,1.39978,-9.55052,-8.44059,-5.29099,9.61378
2023-03-14 22:08:56:834,-0.894581,1.41087,-9.55062,-8.43438,-5.28825,9.59399
2023-03-14 22:08:56:844,-0.876381,1.4145,-9.56552,-8.42663,-5.28349,9.57797
2023-03-14 22:08:56:854,-0.891041,1.41544,-9.56774,-8.42161,-5.27784,9.55911
2023-03-14 22:08:56:864,-0.882397,1.4141,-9.58544,-8.42197,-5.27434,9.5439
2023-03-14 22:08:56:874,-0.858379,1.41001,-9.64889,-8.42346,-5.26971,9.52808
2023-03-14 22:08:56:884,-0.886338,1.46291,-9.75235,-8.42606,-5.26561,9.5136
2023-03-14 22:08:56:894,-0.944251,1.49336,-9.78249,-8.42385,-5.26279,9.50082
2023-03-14 22:08:56:904,-0.9779,1.44841,-9.69369,-8.41357,-5.2614,9.48651
2023-03-14 22:08:56:914,-0.960753,1.36291,-9.55524,-8.39175,-5.26117,9.46719
2023-03-14 22:08:56:924,-0.926271,1.30719,-9.47473,-8.37551,-5.25864,9.4487
2023-03-14 22:08:56:934,-0.91704,1.30324,-9.46855,-8.36993,-5.26148,9.42986
2023-03-14 22:08:56:944,-0.910378,1.33215,-9.5341,-8.37,-5.26764,9.40756
2023-03-14 22:08:56:954,-0.949624,1.41446,-9.61713,-8.38014,-5.27054,9.39012
2023-03-14 22:08:56:964,-0.991349,1.46251,-9.70604,-8.3911,-5.27782,9.36902
2023-03-14 22:08:56:974,-0.954383,1.48384,-9.77901,-8.3992,-5.28211,9.34064
2023-03-14 22:08:56:984,-0.877387,1.49953,-9.82826,-8.40305,-5.28495,9.31116
2023-03-14 22:08:56:994,-0.861542,1.51379,-9.87118,-8.40051,-5.28537,9.28434
2023-03-14 22:08:57:4,-0.899034,1.47855,-9.77127,-8.38609,-5.28958,9.25859
2023-03-14 22:08:57:14,-0.911068,1.39629,-9.59553,-8.36824,-5.30185,9.22934
2023-03-14 22:08:57:24,-0.939994,1.40334,-9.54202,-8.35205,-5.31007,9.20706
2023-03-14 22:08:57:34,-0.934687,1.42126,-9.51635,-8.33563,-5.31025,9.18889
2023-03-14 22:08:57:44,-0.89518,1.37003,-9.44728,-8.32033,-5.30667,9.16619
2023-03-14 22:08:57:54,-0.888003,1.35044,-9.47226,-8.31545,-5.30306,9.15194
2023-03-14 22:08:57:64,-0.902316,1.41039,-9.5969,-8.31942,-5.2945,9.1377
2023-03-14 22:08:57:74,-0.938833,1.47545,-9.67322,-8.33008,-5.28816,9.12232
2023-03-14 22:08:57:84,-0.952859,1.46673,-9.58578,-8.33159,-5.27794,9.1035
2023-03-14 22:08:57:94,-0.965336,1.40619,-9.46354,-8.32988,-5.27032,9.08004
2023-03-14 22:08:57:104,-0.955106,1.33013,-9.4609,-8.33452,-5.26497,9.05939
2023-03-14 22:08:57:114,-0.917311,1.32146,-9.589,-8.35026,-5.25143,9.041
2023-03-14 22:08:57:124,-0.861293,1.4229,-9.68318,-8.36803,-5.22789,9.02237
2023-03-14 22:08:57:134,-0.771822,1.41808,-9.58451,-8.38053,-5.19812,9.00729
2023-03-14 22:08:57:144,-0.711533,1.30026,-9.48083,-8.39168,-5.17025,8.99261
2023-03-14 22:08:57:154,-0.727432,1.30736,-9.52598,-8.41424,-5.14754,8.98137
2023-03-14 22:08:57:164,-0.778208,1.4367,-9.91264,-8.44883,-5.12967,8.98029
2023-03-14 22:08:57:174,-0.865625,1.83952,-10.151,-8.49476,-5.12602,8.97131
2023-03-14 22:08:57:184,-0.829432,1.68575,-9.95256,-8.49771,-5.13028,8.94652
2023-03-14 22:08:57:194,-0.740521,1.43599,-9.5783,-8.47572,-5.12355,8.92507
2023-03-14 22:08:57:204,-0.742892,1.34051,-9.41207,-8.45836,-5.11452,8.91559
2023-03-14 22:08:57:214,-0.862788,1.34523,-9.43771,-8.45309,-5.11035,8.91167
2023-03-14 22:08:57:224,-0.947832,1.28184,-9.40843,-8.45264,-5.11367,8.90906
2023-03-14 22:08:57:234,-0.953177,1.26408,-9.52766,-8.45862,-5.10846,8.90525
2023-03-14 22:08:57:244,-0.867028,1.39667,-9.70997,-8.47847,-5.09881,8.89967
2023-03-14 22:08:57:254,-0.755116,1.42871,-9.70983,-8.49693,-5.09079,8.88444
2023-03-14 22:08:57:264,-0.730848,1.45973,-9.59873,-8.50966,-5.08607,8.87353
2023-03-14 22:08:57:274,-0.731607,1.40443,-9.42031,-8.51523,-5.08529,8.86746
2023-03-14 22:08:57:284,-0.687183,1.34245,-9.38126,-8.5319,-5.08448,8.86324
2023-03-14 22:08:57:294,-0.690586,1.44931,-9.58993,-8.56746,-5.08589,8.87251
2023-03-14 22:08:57:304,-0.77826,1.62098,-9.85039,-8.61151,-5.08823,8.88351
2023-03-14 22:08:57:314,-0.855508,1.70208,-9.98454,-8.64988,-5.09927,8.89493
2023-03-14 22:08:57:324,-0.877192,1.71894,-10.0212,-8.66745,-5.10538,8.90529
2023-03-14 22:08:57:334,-0.841557,1.68296,-9.90798,-8.66401,-5.1028,8.91622
2023-03-14 22:08:57:344,-0.754183,1.53397,-9.66914,-8.64011,-5.098,8.93018
2023-03-14 22:08:57:354,-0.729164,1.42725,-9.49568,-8.61552,-5.09307,8.9474
2023-03-14 22:08:57:364,-0.796141,1.4587,-9.52079,-8.60452,-5.09191,8.97644
2023-03-14 22:08:57:374,-0.84918,1.52038,-9.62701,-8.60073,-5.0952,9.00545
2023-03-14 22:08:57:384,-0.87787,1.56206,-9.70979,-8.6018,-5.10419,9.03282
2023-03-14 22:08:57:394,-0.909745,1.59031,-9.76543,-8.59458,-5.1122,9.05835
2023-03-14 22:08:57:404,-0.953986,1.61521,-9.76737,-8.58796,-5.12654,9.08411
2023-03-14 22:08:57:414,-0.996766,1.56635,-9.6766,-8.56878,-5.14415,9.10117
2023-03-14 22:08:57:424,-1.00074,1.44836,-9.51876,-8.54436,-5.161,9.11756
2023-03-14 22:08:57:434,-0.970652,1.41678,-9.47761,-8.51741,-5.17312,9.13443
2023-03-14 22:08:57:444,-0.976414,1.40994,-9.51217,-8.49958,-5.17847,9.14754
2023-03-14 22:08:57:454,-0.991239,1.43715,-9.55841,-8.48963,-5.18544,9.15838
2023-03-14 22:08:57:464,-1.01956,1.47881,-9.62284,-8.48716,-5.19515,9.16688
2023-03-14 22:08:57:474,-0.969889,1.5095,-9.70094,-8.48086,-5.21432,9.16722
2023-03-14 22:08:57:494,-0.939225,1.51486,-9.70347,-8.47154,-5.22012,9.16181
2023-03-14 22:08:57:504,-0.909315,1.47889,-9.68072,-8.45614,-5.22321,9.15275
2023-03-14 22:08:57:514,-0.890601,1.44429,-9.62588,-8.43507,-5.23055,9.1439
2023-03-14 22:08:57:524,-0.879619,1.44854,-9.5951,-8.41257,-5.2361,9.1333
2023-03-14 22:08:57:534,-0.866276,1.44314,-9.58977,-8.38802,-5.24073,9.12376
2023-03-14 22:08:57:544,-0.854092,1.41116,-9.58909,-8.36715,-5.2434,9.11589
2023-03-14 22:08:57:554,-0.860919,1.39972,-9.56445,-8.34745,-5.24552,9.11121
2023-03-14 22:08:57:564,-0.870506,1.37656,-9.54329,-8.3307,-5.24981,9.10932
2023-03-14 22:08:57:574,-0.857201,1.39459,-9.53354,-8.31782,-5.25805,9.10663
2023-03-14 22:08:57:584,-0.850782,1.41038,-9.56631,-8.31211,-5.26294,9.10297
2023-03-14 22:08:57:594,-0.850931,1.40385,-9.58056,-8.31188,-5.26802,9.10172
2023-03-14 22:08:57:604,-0.843222,1.41835,-9.57219,-8.30995,-5.27254,9.09883
2023-03-14 22:08:57:614,-0.839989,1.42547,-9.57518,-8.31132,-5.2758,9.09918
2023-03-14 22:08:57:624,-0.838651,1.44333,-9.59728,-8.31412,-5.27723,9.09639
2023-03-14 22:08:57:634,-0.848352,1.44167,-9.61576,-8.31899,-5.28302,9.10039
2023-03-14 22:08:57:644,-0.863154,1.44205,-9.62769,-8.32178,-5.28803,9.10649
2023-03-14 22:08:57:654,-0.879899,1.4342,-9.61466,-8.32264,-5.28921,9.11348
2023-03-14 22:08:57:664,-0.88047,1.43299,-9.62674,-8.32343,-5.29465,9.12158
2023-03-14 22:08:57:674,-0.904231,1.43511,-9.64168,-8.32621,-5.30238,9.12946
2023-03-14 22:08:57:684,-0.942274,1.46356,-9.65011,-8.33339,-5.30876,9.13468
2023-03-14 22:08:57:694,-0.94943,1.4634,-9.66091,-8.33931,-5.31222,9.13978
2023-03-14 22:08:57:704,-0.948478,1.45039,-9.66288,-8.34187,-5.31638,9.14493
2023-03-14 22:08:57:714,-0.946045,1.44008,-9.66894,-8.3434,-5.32353,9.1474
2023-03-14 22:08:57:724,-0.923907,1.44101,-9.65424,-8.34477,-5.32762,9.14743
2023-03-14 22:08:57:734,-0.894581,1.42333,-9.65187,-8.34266,-5.33115,9.14325
2023-03-14 22:08:57:744,-0.900843,1.40478,-9.65398,-8.34321,-5.33326,9.14003
2023-03-14 22:08:57:754,-0.907112,1.4026,-9.65601,-8.33795,-5.33514,9.14315
2023-03-14 22:08:57:764,-0.914365,1.4142,-9.64821,-8.33258,-5.33977,9.14231
2023-03-14 22:08:57:774,-0.916251,1.41077,-9.65645,-8.32763,-5.34392,9.14388
2023-03-14 22:08:57:784,-0.935239,1.40576,-9.64989,-8.32107,-5.34546,9.14524
2023-03-14 22:08:57:794,-0.932558,1.39095,-9.64773,-8.31259,-5.34668,9.14359
2023-03-14 22:08:57:804,-0.938231,1.39083,-9.62081,-8.30396,-5.3499,9.14408
2023-03-14 22:08:57:814,-0.939854,1.3721,-9.61762,-8.29679,-5.35331,9.14529
2023-03-14 22:08:57:824,-0.953782,1.35821,-9.63047,-8.28903,-5.35627,9.14205
2023-03-14 22:08:57:834,-0.938389,1.37115,-9.63718,-8.2836,-5.35574,9.13705
2023-03-14 22:08:57:844,-0.906433,1.37513,-9.65239,-8.27953,-5.3585,9.13028
2023-03-14 22:08:57:854,-0.856082,1.37812,-9.68296,-8.27522,-5.36101,9.12288
2023-03-14 22:08:57:864,-0.822641,1.3777,-9.66261,-8.27038,-5.36848,9.11524
2023-03-14 22:08:57:874,-0.829378,1.35401,-9.62592,-8.2647,-5.38036,9.11441
2023-03-14 22:08:57:884,-0.858339,1.37297,-9.59918,-8.26805,-5.3941,9.11779
2023-03-14 22:08:57:894,-0.899651,1.40814,-9.6094,-8.27402,-5.4066,9.12562
2023-03-14 22:08:57:904,-0.896887,1.40672,-9.59611,-8.28121,-5.41443,9.13564
2023-03-14 22:08:57:914,-0.903576,1.4059,-9.58744,-8.29176,-5.4188,9.14801
2023-03-14 22:08:57:924,-0.924473,1.42075,-9.58413,-8.29799,-5.42281,9.16818
2023-03-14 22:08:57:934,-0.934811,1.4299,-9.59282,-8.30453,-5.42691,9.18381
2023-03-14 22:08:57:944,-0.960067,1.44829,-9.58714,-8.30971,-5.42983,9.19942
2023-03-14 22:08:57:954,-0.985153,1.44732,-9.57575,-8.31618,-5.43321,9.21614
2023-03-14 22:08:57:964,-1.01714,1.43726,-9.55913,-8.32556,-5.43641,9.22971
2023-03-14 22:08:57:974,-1.01036,1.43851,-9.55386,-8.337,-5.43493,9.24696
2023-03-14 22:08:57:984,-1.00189,1.43851,-9.56311,-8.35102,-5.43532,9.25799
2023-03-14 22:08:57:994,-1.00284,1.46337,-9.60527,-8.36218,-5.43871,9.26578
2023-03-14 22:08:58:4,-1.01118,1.5004,-9.64676,-8.37885,-5.43663,9.27122
2023-03-14 22:08:58:14,-1.02349,1.52642,-9.6806,-8.39359,-5.43166,9.27091
2023-03-14 22:08:58:24,-1.00865,1.51389,-9.69611,-8.4052,-5.42687,9.2681
2023-03-14 22:08:58:34,-0.996585,1.5218,-9.68979,-8.41197,-5.4207,9.26272
2023-03-14 22:08:58:44,-0.979552,1.51332,-9.68773,-8.41507,-5.41608,9.25456
2023-03-14 22:08:58:54,-0.963406,1.51404,-9.6793,-8.41871,-5.41048,9.24717
2023-03-14 22:08:58:64,-0.947509,1.51201,-9.65187,-8.42057,-5.4041,9.2344
2023-03-14 22:08:58:74,-0.962942,1.49565,-9.63165,-8.42163,-5.40341,9.22056
2023-03-14 22:08:58:84,-0.980471,1.48516,-9.62882,-8.42273,-5.39814,9.20463
2023-03-14 22:08:58:94,-0.985174,1.49004,-9.62969,-8.42235,-5.39787,9.19185
2023-03-14 22:08:58:104,-0.954933,1.49439,-9.64845,-8.41797,-5.38948,9.17632
2023-03-14 22:08:58:114,-0.911071,1.46605,-9.64576,-8.41445,-5.38256,9.15878
2023-03-14 22:08:58:124,-0.906949,1.44922,-9.62495,-8.40442,-5.38134,9.14123
2023-03-14 22:08:58:134,-0.920072,1.4505,-9.62562,-8.39765,-5.37963,9.12828
2023-03-14 22:08:58:144,-0.936709,1.45155,-9.62375,-8.38806,-5.37587,9.11344
2023-03-14 22:08:58:154,-0.932227,1.42871,-9.60129,-8.37731,-5.3668,9.09787
2023-03-14 22:08:58:164,-0.909088,1.40328,-9.60489,-8.37001,-5.35703,9.08768
2023-03-14 22:08:58:174,-0.886473,1.42307,-9.61821,-8.36657,-5.34772,9.07631
2023-03-14 22:08:58:184,-0.864062,1.43756,-9.63191,-8.36072,-5.34095,9.06656
2023-03-14 22:08:58:194,-0.852664,1.44568,-9.65025,-8.35488,-5.32831,9.05707
2023-03-14 22:08:58:204,-0.865862,1.43061,-9.66472,-8.34716,-5.31753,9.04999
2023-03-14 22:08:58:214,-0.858891,1.44101,-9.63708,-8.33713,-5.30745,9.04341
2023-03-14 22:08:58:224,-0.864825,1.43192,-9.63153,-8.32881,-5.29973,9.04039
2023-03-14 22:08:58:234,-0.883344,1.43438,-9.64336,-8.32077,-5.29484,9.03731
2023-03-14 22:08:58:244,-0.898491,1.43217,-9.63775,-8.31373,-5.28963,9.03647
2023-03-14 22:08:58:254,-0.89814,1.43705,-9.62941,-8.30535,-5.28682,9.04029
2023-03-14 22:08:58:264,-0.89965,1.41616,-9.64488,-8.29422,-5.28241,9.03716
2023-03-14 22:08:58:274,-0.879165,1.40728,-9.63376,-8.2806,-5.2807,9.03417
2023-03-14 22:08:58:284,-0.873663,1.38313,-9.60578,-8.2674,-5.27891,9.02959
2023-03-14 22:08:58:294,-0.879562,1.36172,-9.58395,-8.25834,-5.27863,9.02905
2023-03-14 22:08:58:304,-0.894675,1.37366,-9.57322,-8.25398,-5.27927,9.03336
2023-03-14 22:08:58:314,-0.921812,1.39298,-9.58277,-8.25091,-5.27695,9.03521
2023-03-14 22:08:58:324,-0.937636,1.3962,-9.61078,-8.2491,-5.27665,9.03734
2023-03-14 22:08:58:334,-0.949966,1.41932,-9.6274,-8.25131,-5.27199,9.03745
2023-03-14 22:08:58:344,-0.952417,1.42331,-9.65118,-8.2494,-5.26447,9.04034
2023-03-14 22:08:58:354,-0.954629,1.42875,-9.65118,-8.24716,-5.25339,9.04094
2023-03-14 22:08:58:364,-0.955777,1.42155,-9.64935,-8.24267,-5.23831,9.04011
2023-03-14 22:08:58:374,-0.941786,1.42042,-9.65103,-8.2374,-5.22519,9.03519
2023-03-14 22:08:58:384,-0.918096,1.40273,-9.63845,-8.22792,-5.21039,9.02861
2023-03-14 22:08:58:394,-0.891056,1.3826,-9.63116,-8.22071,-5.19627,9.02239
2023-03-14 22:08:58:404,-0.868933,1.37196,-9.63986,-8.21572,-5.18248,9.01446
2023-03-14 22:08:58:414,-0.878246,1.38078,-9.61838,-8.21101,-5.17169,9.00602
2023-03-14 22:08:58:424,-0.873853,1.37536,-9.59463,-8.20441,-5.16246,8.9926
2023-03-14 22:08:58:434,-0.873912,1.3711,-9.59468,-8.19965,-5.15201,8.98142
2023-03-14 22:08:58:444,-0.875378,1.38793,-9.61585,-8.19804,-5.14189,8.96824
2023-03-14 22:08:58:454,-0.865792,1.3881,-9.63616,-8.19713,-5.13245,8.95849
2023-03-14 22:08:58:464,-0.862946,1.40031,-9.64381,-8.19717,-5.12131,8.94628
2023-03-14 22:08:58:474,-0.856663,1.39783,-9.64377,-8.19726,-5.10893,8.93361
2023-03-14 22:08:58:484,-0.843073,1.4009,-9.64125,-8.19674,-5.09653,8.91898
2023-03-14 22:08:58:494,-0.829606,1.39771,-9.63902,-8.19798,-5.08759,8.90488
2023-03-14 22:08:58:504,-0.813937,1.40763,-9.64411,-8.1956,-5.07495,8.89227
2023-03-14 22:08:58:514,-0.794451,1.40394,-9.65566,-8.19658,-5.06591,8.87793
2023-03-14 22:08:58:524,-0.775762,1.3997,-9.66573,-8.19496,-5.05598,8.86853
2023-03-14 22:08:58:534,-0.773919,1.40057,-9.67719,-8.19561,-5.04803,8.85813
2023-03-14 22:08:58:544,-0.770149,1.41223,-9.65708,-8.19123,-5.04313,8.8483
2023-03-14 22:08:58:554,-0.767378,1.40871,-9.66639,-8.1889,-5.03864,8.84329
2023-03-14 22:08:58:564,-0.771292,1.40672,-9.66457,-8.18494,-5.0391,8.83901
2023-03-14 22:08:58:574,-0.775618,1.40215,-9.64404,-8.17992,-5.04166,8.83726
2023-03-14 22:08:58:584,-0.782651,1.39937,-9.64022,-8.17704,-5.04373,8.83394
2023-03-14 22:08:58:594,-0.793291,1.37869,-9.62823,-8.17362,-5.04267,8.83393
2023-03-14 22:08:58:604,-0.806763,1.37906,-9.61162,-8.17234,-5.04684,8.8415
2023-03-14 22:08:58:614,-0.807199,1.38104,-9.60391,-8.17129,-5.0493,8.84568
2023-03-14 22:08:58:624,-0.814467,1.37206,-9.60404,-8.17082,-5.05186,8.85156
2023-03-14 22:08:58:634,-0.821361,1.37554,-9.61956,-8.16828,-5.05603,8.85537
2023-03-14 22:08:58:644,-0.822603,1.37977,-9.6427,-8.16958,-5.05663,8.85929
2023-03-14 22:08:58:654,-0.843967,1.39229,-9.66129,-8.17095,-5.06266,8.86603
2023-03-14 22:08:58:664,-0.850899,1.40121,-9.66719,-8.17309,-5.06846,8.87488
2023-03-14 22:08:58:674,-0.845358,1.39662,-9.66089,-8.17264,-5.07467,8.87846
2023-03-14 22:08:58:684,-0.852588,1.38324,-9.63778,-8.17331,-5.08269,8.88293
2023-03-14 22:08:58:694,-0.86779,1.39396,-9.6298,-8.17393,-5.0905,8.8859
2023-03-14 22:08:58:704,-0.855236,1.40744,-9.67107,-8.17256,-5.09541,8.88922
2023-03-14 22:08:58:714,-0.858535,1.40758,-9.67225,-8.17306,-5.10517,8.89445
2023-03-14 22:08:58:724,-0.876349,1.38867,-9.64998,-8.17463,-5.11247,8.89845
2023-03-14 22:08:58:734,-0.876203,1.3855,-9.65459,-8.17408,-5.12175,8.90422
2023-03-14 22:08:58:744,-0.851548,1.40524,-9.68547,-8.17373,-5.12643,8.90923
2023-03-14 22:08:58:754,-0.814322,1.41532,-9.69004,-8.1747,-5.13018,8.91171
2023-03-14 22:08:58:764,-0.811977,1.38841,-9.65665,-8.17284,-5.1392,8.91368
2023-03-14 22:08:58:774,-0.838488,1.38151,-9.60319,-8.16879,-5.15026,8.91928
2023-03-14 22:08:58:784,-0.869989,1.38477,-9.58535,-8.16952,-5.1629,8.92906
2023-03-14 22:08:58:794,-0.898049,1.40525,-9.58873,-8.17276,-5.17604,8.93654
2023-03-14 22:08:58:804,-0.910072,1.41989,-9.59257,-8.17716,-5.18774,8.94756
2023-03-14 22:08:58:814,-0.924532,1.43755,-9.60857,-8.18297,-5.19441,8.95709
2023-03-14 22:08:58:824,-0.906732,1.44171,-9.60172,-8.18542,-5.19834,8.96513
2023-03-14 22:08:58:834,-0.887499,1.42123,-9.61708,-8.18875,-5.20272,8.97531
2023-03-14 22:08:58:844,-0.896097,1.41969,-9.60716,-8.19123,-5.20473,8.986
2023-03-14 22:08:58:854,-0.922444,1.42981,-9.59404,-8.19064,-5.20816,8.99656
2023-03-14 22:08:58:864,-0.9356,1.4213,-9.57397,-8.19368,-5.21128,9.00326
2023-03-14 22:08:58:874,-0.928601,1.41606,-9.55713,-8.19763,-5.21105,9.01063
2023-03-14 22:08:58:884,-0.915991,1.40515,-9.57945,-8.20672,-5.21026,9.01623
2023-03-14 22:08:58:894,-0.9136,1.41512,-9.60736,-8.21347,-5.20625,9.02015
2023-03-14 22:08:58:904,-0.9076,1.42307,-9.61517,-8.22469,-5.20381,9.02103
2023-03-14 22:08:58:914,-0.898779,1.42289,-9.62963,-8.23793,-5.199,9.02523
2023-03-14 22:08:58:924,-0.892958,1.45485,-9.66459,-8.24928,-5.19364,9.02659
2023-03-14 22:08:58:934,-0.895205,1.47928,-9.70859,-8.26311,-5.19349,9.02586
2023-03-14 22:08:58:944,-0.898047,1.48981,-9.72606,-8.27729,-5.18976,9.0237
2023-03-14 22:08:58:954,-0.879816,1.48367,-9.7013,-8.28743,-5.1886,9.02036
2023-03-14 22:08:58:964,-0.87004,1.47131,-9.68325,-8.29484,-5.19342,9.01757
2023-03-14 22:08:58:974,-0.891369,1.46241,-9.67154,-8.29639,-5.19659,9.01531
2023-03-14 22:08:58:984,-0.925605,1.45759,-9.66085,-8.29564,-5.19973,9.01407
2023-03-14 22:08:58:994,-0.944431,1.45154,-9.63441,-8.29732,-5.20096,9.01186
2023-03-14 22:08:59:4,-0.900354,1.43922,-9.62223,-8.29493,-5.20431,9.00715
2023-03-14 22:08:59:14,-0.844837,1.41772,-9.63747,-8.29371,-5.20374,9.00198
2023-03-14 22:08:59:24,-0.868408,1.42351,-9.63376,-8.29238,-5.20476,8.99808
2023-03-14 22:08:59:34,-0.898698,1.43152,-9.62277,-8.29205,-5.20802,8.99873
2023-03-14 22:08:59:44,-0.915764,1.41699,-9.60385,-8.29066,-5.21458,8.99786
2023-03-14 22:08:59:54,-0.916691,1.40347,-9.61076,-8.28831,-5.21467,8.9982
2023-03-14 22:08:59:64,-0.922141,1.43017,-9.62942,-8.29009,-5.21585,8.99761
2023-03-14 22:08:59:74,-0.924244,1.4392,-9.65542,-8.2858,-5.2127,8.99786
2023-03-14 22:08:59:84,-0.912251,1.4429,-9.67341,-8.28374,-5.2102,8.99587
2023-03-14 22:08:59:94,-0.898344,1.47025,-9.68425,-8.28364,-5.20361,8.99368
2023-03-14 22:08:59:104,-0.889082,1.47584,-9.67723,-8.28084,-5.20073,8.99184
2023-03-14 22:08:59:114,-0.87641,1.45727,-9.65389,-8.27401,-5.19725,8.99003
2023-03-14 22:08:59:124,-0.879182,1.43496,-9.63436,-8.26489,-5.19785,8.98562
2023-03-14 22:08:59:134,-0.893001,1.4111,-9.63052,-8.25485,-5.20234,8.98265
2023-03-14 22:08:59:144,-0.902235,1.41587,-9.62485,-8.24487,-5.20034,8.98036
2023-03-14 22:08:59:154,-0.900122,1.41258,-9.62478,-8.23341,-5.20011,8.97934
2023-03-14 22:08:59:164,-0.875387,1.36958,-9.60047,-8.22159,-5.20355,8.9754
2023-03-14 22:08:59:174,-0.876314,1.37035,-9.58359,-8.21467,-5.20973,8.97512
2023-03-14 22:08:59:184,-0.875875,1.40119,-9.60671,-8.215,-5.21676,8.97744
2023-03-14 22:08:59:194,-0.875693,1.40088,-9.61563,-8.21325,-5.22187,8.97846
2023-03-14 22:08:59:204,-0.877849,1.4001,-9.59159,-8.21062,-5.22701,8.9795
2023-03-14 22:08:59:214,-0.88718,1.40317,-9.58899,-8.21194,-5.23395,8.98483
2023-03-14 22:08:59:224,-0.894253,1.39393,-9.5961,-8.21437,-5.23909,8.99237
2023-03-14 22:08:59:234,-0.898491,1.39725,-9.61216,-8.21617,-5.24367,8.9967
2023-03-14 22:08:59:244,-0.923791,1.418,-9.63351,-8.22352,-5.24769,9.00179
2023-03-14 22:08:59:254,-0.946144,1.42969,-9.64494,-8.2282,-5.24708,9.00753
2023-03-14 22:08:59:264,-0.94413,1.42677,-9.6697,-8.23102,-5.24501,9.01132
2023-03-14 22:08:59:274,-0.943277,1.44343,-9.68181,-8.23531,-5.24345,9.01653
2023-03-14 22:08:59:284,-0.939604,1.43026,-9.67415,-8.23231,-5.2376,9.01617
2023-03-14 22:08:59:294,-0.927934,1.41577,-9.64126,-8.22618,-5.23212,9.0177
2023-03-14 22:08:59:304,-0.934072,1.41307,-9.62722,-8.22504,-5.22887,9.01581
2023-03-14 22:08:59:314,-0.914403,1.41297,-9.62101,-8.22367,-5.22497,9.01369
2023-03-14 22:08:59:324,-0.895313,1.41389,-9.61708,-8.22188,-5.21753,9.00841
2023-03-14 22:08:59:334,-0.879616,1.4165,-9.62318,-8.2223,-5.20957,9.00321
2023-03-14 22:08:59:344,-0.878625,1.41772,-9.64129,-8.22145,-5.20297,8.99635
2023-03-14 22:08:59:354,-0.873799,1.42385,-9.6361,-8.224,-5.19693,8.98868
2023-03-14 22:08:59:364,-0.869124,1.42282,-9.63557,-8.22795,-5.18929,8.98223
2023-03-14 22:08:59:374,-0.867072,1.41617,-9.64546,-8.22806,-5.18346,8.97513
2023-03-14 22:08:59:384,-0.849286,1.42005,-9.65232,-8.22332,-5.17598,8.97064
2023-03-14 22:08:59:394,-0.838023,1.40877,-9.65036,-8.22069,-5.1655,8.96531
2023-03-14 22:08:59:404,-0.843678,1.40326,-9.63704,-8.21602,-5.15738,8.96088
2023-03-14 22:08:59:414,-0.851456,1.40586,-9.63121,-8.21454,-5.15252,8.95753
2023-03-14 22:08:59:424,-0.833395,1.40261,-9.64916,-8.2123,-5.14829,8.94931
2023-03-14 22:08:59:434,-0.836438,1.41488,-9.65909,-8.21298,-5.1414,8.94667
2023-03-14 22:08:59:444,-0.835438,1.4162,-9.66421,-8.20942,-5.13399,8.94178
2023-03-14 22:08:59:454,-0.820202,1.40834,-9.65475,-8.20359,-5.13217,8.94065
2023-03-14 22:08:59:464,-0.821578,1.40203,-9.66145,-8.19953,-5.13129,8.93859
2023-03-14 22:08:59:474,-0.830339,1.39671,-9.66538,-8.19119,-5.12967,8.93704
2023-03-14 22:08:59:484,-0.842096,1.39323,-9.64836,-8.18559,-5.12747,8.93874
2023-03-14 22:08:59:494,-0.832294,1.39098,-9.6194,-8.17684,-5.1266,8.9374
2023-03-14 22:08:59:504,-0.838275,1.37627,-9.60311,-8.17134,-5.13004,8.93434
2023-03-14 22:08:59:514,-0.845157,1.36332,-9.58731,-8.16414,-5.13634,8.93439
2023-03-14 22:08:59:524,-0.859709,1.35718,-9.59128,-8.16165,-5.14268,8.93745
2023-03-14 22:08:59:534,-0.875908,1.35673,-9.61821,-8.1629,-5.14707,8.94122
2023-03-14 22:08:59:544,-0.878141,1.37868,-9.64069,-8.1628,-5.14867,8.94092
2023-03-14 22:08:59:554,-0.879386,1.37937,-9.64531,-8.16303,-5.15162,8.94087
2023-03-14 22:08:59:564,-0.905447,1.37867,-9.64601,-8.16469,-5.15526,8.94021
2023-03-14 22:08:59:574,-0.916593,1.37652,-9.63319,-8.16358,-5.15917,8.94379
2023-03-14 22:08:59:584,-0.895041,1.38186,-9.61745,-8.16548,-5.16156,8.9467
2023-03-14 22:08:59:594,-0.879035,1.3654,-9.63118,-8.16352,-5.16358,8.94853
2023-03-14 22:08:59:604,-0.878893,1.36353,-9.6353,-8.16321,-5.16568,8.95103
2023-03-14 22:08:59:614,-0.895133,1.35916,-9.64931,-8.16267,-5.16413,8.95629
2023-03-14 22:08:59:624,-0.877908,1.3745,-9.66775,-8.16388,-5.1627,8.95587
2023-03-14 22:08:59:634,-0.839551,1.39322,-9.68553,-8.16857,-5.16188,8.95353
2023-03-14 22:08:59:644,-0.819347,1.39245,-9.67251,-8.17028,-5.16448,8.95006
2023-03-14 22:08:59:654,-0.844688,1.37518,-9.6444,-8.17348,-5.16721,8.95123
2023-03-14 22:08:59:664,-0.886412,1.40834,-9.63544,-8.18117,-5.1746,8.95468
2023-03-14 22:08:59:674,-0.901962,1.41928,-9.61944,-8.19011,-5.18589,8.9559
2023-03-14 22:08:59:684,-0.919305,1.41536,-9.60755,-8.19827,-5.19807,8.9555
2023-03-14 22:08:59:694,-0.92505,1.4545,-9.64566,-8.20894,-5.20277,8.95599
2023-03-14 22:08:59:704,-0.921102,1.47284,-9.63914,-8.21217,-5.20345,8.95658
2023-03-14 22:08:59:714,-0.905719,1.45053,-9.60015,-8.2112,-5.2036,8.95552
2023-03-14 22:08:59:724,-0.892854,1.42601,-9.57858,-8.20948,-5.20323,8.95698
2023-03-14 22:08:59:734,-0.883936,1.42286,-9.5823,-8.21257,-5.19977,8.95874
2023-03-14 22:08:59:744,-0.88693,1.42542,-9.58229,-8.21274,-5.19681,8.95679
2023-03-14 22:08:59:754,-0.895538,1.41736,-9.56763,-8.21658,-5.19242,8.95628
2023-03-14 22:08:59:764,-0.899976,1.41549,-9.57171,-8.21964,-5.18696,8.95697
2023-03-14 22:08:59:774,-0.900168,1.4315,-9.58429,-8.22603,-5.18141,8.95971
2023-03-14 22:08:59:784,-0.91537,1.44245,-9.6186,-8.23599,-5.17585,8.95978
2023-03-14 22:08:59:794,-0.939832,1.47242,-9.66045,-8.24597,-5.17098,8.9618
2023-03-14 22:08:59:804,-0.965201,1.48728,-9.68591,-8.2563,-5.16681,8.96147
2023-03-14 22:08:59:814,-0.972316,1.49773,-9.69237,-8.26307,-5.16133,8.95844
2023-03-14 22:08:59:824,-0.97073,1.49828,-9.6838,-8.26649,-5.15366,8.95281
2023-03-14 22:08:59:834,-0.949618,1.48874,-9.66498,-8.26858,-5.14913,8.94293
2023-03-14 22:08:59:844,-0.934024,1.47059,-9.65912,-8.27108,-5.13975,8.92986
2023-03-14 22:08:59:854,-0.958098,1.46829,-9.65367,-8.27234,-5.13627,8.91716
2023-03-14 22:08:59:864,-0.980753,1.45911,-9.63674,-8.26847,-5.13188,8.90399
2023-03-14 22:08:59:874,-0.979087,1.45466,-9.62157,-8.26492,-5.12445,8.88351
2023-03-14 22:08:59:884,-0.933378,1.49173,-9.64171,-8.26079,-5.10865,8.85865
2023-03-14 22:08:59:894,-0.871058,1.49198,-9.66443,-8.25451,-5.08809,8.83492
2023-03-14 22:08:59:904,-0.846087,1.4384,-9.61695,-8.2445,-5.07231,8.80985
2023-03-14 22:08:59:914,-0.834259,1.40116,-9.60357,-8.23368,-5.06055,8.78714
2023-03-14 22:08:59:924,-0.826242,1.42911,-9.6279,-8.22818,-5.05007,8.76891
2023-03-14 22:08:59:934,-0.811641,1.4431,-9.65434,-8.22243,-5.03793,8.75158
2023-03-14 22:08:59:944,-0.826251,1.44911,-9.64423,-8.21767,-5.02578,8.7356
2023-03-14 22:08:59:954,-0.823397,1.44317,-9.64448,-8.21104,-5.01108,8.71971
2023-03-14 22:08:59:964,-0.81626,1.44283,-9.65851,-8.2051,-4.99532,8.70728
2023-03-14 22:08:59:974,-0.810644,1.44716,-9.67945,-8.19662,-4.98063,8.69429
2023-03-14 22:08:59:984,-0.821104,1.44417,-9.69076,-8.18533,-4.96774,8.68338
2023-03-14 22:08:59:994,-0.830077,1.43985,-9.67904,-8.16952,-4.95113,8.67272
2023-03-14 22:09:00:4,-0.828674,1.41256,-9.66383,-8.1519,-4.93696,8.66185
2023-03-14 22:09:00:14,-0.810108,1.38667,-9.63337,-8.13345,-4.92116,8.65199
2023-03-14 22:09:00:24,-0.81536,1.37606,-9.63497,-8.11868,-4.90754,8.64059
2023-03-14 22:09:00:34,-0.822461,1.35765,-9.64211,-8.10091,-4.89538,8.62952
2023-03-14 22:09:00:44,-0.814885,1.35202,-9.63437,-8.08201,-4.88818,8.6167
2023-03-14 22:09:00:54,-0.794554,1.33475,-9.62954,-8.06598,-4.88107,8.60472
2023-03-14 22:09:00:64,-0.781994,1.31952,-9.61856,-8.05084,-4.87253,8.59404
2023-03-14 22:09:00:74,-0.779178,1.30671,-9.60667,-8.03621,-4.86416,8.58408
2023-03-14 22:09:00:84,-0.787854,1.31471,-9.60947,-8.02203,-4.85643,8.5756
2023-03-14 22:09:00:94,-0.797289,1.33089,-9.61132,-8.01225,-4.85354,8.57205
2023-03-14 22:09:00:104,-0.802295,1.31698,-9.6142,-8.00472,-4.85073,8.57083
2023-03-14 22:09:00:114,-0.805747,1.30062,-9.6157,-7.99764,-4.84479,8.56701
2023-03-14 22:09:00:124,-0.827692,1.32175,-9.61874,-7.99324,-4.84044,8.56894
2023-03-14 22:09:00:134,-0.851131,1.33751,-9.63213,-7.9914,-4.83519,8.56557
2023-03-14 22:09:00:144,-0.853631,1.35477,-9.63965,-7.99247,-4.82905,8.56369
2023-03-14 22:09:00:154,-0.843113,1.35854,-9.63906,-7.99201,-4.81964,8.56301
2023-03-14 22:09:00:164,-0.836402,1.3468,-9.64394,-7.98963,-4.80996,8.56261
2023-03-14 22:09:00:174,-0.825194,1.34757,-9.62888,-7.99058,-4.79505,8.55928
2023-03-14 22:09:00:184,-0.818096,1.36098,-9.63665,-7.98958,-4.78346,8.55256
2023-03-14 22:09:00:194,-0.815107,1.37188,-9.64777,-7.98962,-4.77428,8.54412
2023-03-14 22:09:00:204,-0.820294,1.36305,-9.6493,-7.99107,-4.76902,8.53857
2023-03-14 22:09:00:214,-0.818397,1.3689,-9.64911,-7.98875,-4.76218,8.52651
2023-03-14 22:09:00:224,-0.791778,1.38318,-9.65968,-7.99177,-4.75359,8.51434
2023-03-14 22:09:00:234,-0.77654,1.37799,-9.65794,-7.99072,-4.74518,8.50552
2023-03-14 22:09:00:244,-0.77273,1.37447,-9.65683,-7.99314,-4.73246,8.49248
2023-03-14 22:09:00:254,-0.76444,1.37376,-9.65659,-7.99258,-4.72034,8.47928
2023-03-14 22:09:00:264,-0.742646,1.36707,-9.65167,-7.99283,-4.71387,8.46545
2023-03-14 22:09:00:274,-0.728211,1.36001,-9.65309,-7.9905,-4.7076,8.45591
2023-03-14 22:09:00:284,-0.722796,1.35787,-9.64006,-7.98939,-4.70146,8.44675
2023-03-14 22:09:00:294,-0.709887,1.34218,-9.64734,-7.99185,-4.69461,8.44092
2023-03-14 22:09:00:304,-0.706794,1.33947,-9.64566,-7.99223,-4.68899,8.43372
2023-03-14 22:09:00:314,-0.715153,1.3528,-9.63282,-7.99502,-4.68418,8.43006
2023-03-14 22:09:00:324,-0.717576,1.3518,-9.62613,-7.99537,-4.67998,8.42695
2023-03-14 22:09:00:334,-0.718321,1.34864,-9.62123,-7.99578,-4.67267,8.42668
2023-03-14 22:09:00:344,-0.710892,1.35851,-9.63045,-7.99718,-4.66493,8.42506
2023-03-14 22:09:00:354,-0.707768,1.36415,-9.63798,-8.00073,-4.66024,8.43282
2023-03-14 22:09:00:364,-0.709544,1.3722,-9.64328,-8.00594,-4.65376,8.44265
2023-03-14 22:09:00:374,-0.736249,1.37888,-9.64968,-8.01233,-4.64958,8.45403
2023-03-14 22:09:00:384,-0.771332,1.37755,-9.66408,-8.01787,-4.64762,8.463
2023-03-14 22:09:00:394,-0.779008,1.38138,-9.66524,-8.02377,-4.64603,8.47524
2023-03-14 22:09:00:404,-0.79979,1.38189,-9.6802,-8.03185,-4.65023,8.48485
2023-03-14 22:09:00:414,-0.834643,1.41056,-9.69305,-8.03934,-4.65399,8.49539
2023-03-14 22:09:00:424,-0.830216,1.40171,-9.65596,-8.04389,-4.65876,8.49794
2023-03-14 22:09:00:434,-0.824384,1.38619,-9.6411,-8.04508,-4.66192,8.49993
2023-03-14 22:09:00:444,-0.837798,1.38759,-9.62611,-8.04661,-4.66692,8.50036
2023-03-14 22:09:00:454,-0.843714,1.38567,-9.64535,-8.04923,-4.6713,8.49546
2023-03-14 22:09:00:464,-0.830137,1.4076,-9.67231,-8.05139,-4.67566,8.4941
2023-03-14 22:09:00:474,-0.787969,1.41698,-9.71564,-8.05569,-4.68059,8.48864
2023-03-14 22:09:00:484,-0.742052,1.38376,-9.70167,-8.05629,-4.68214,8.47845
2023-03-14 22:09:00:494,-0.737942,1.3821,-9.66827,-8.05189,-4.6913,8.47843
2023-03-14 22:09:00:504,-0.788637,1.37585,-9.63346,-8.05349,-4.70823,8.47854
2023-03-14 22:09:00:514,-0.823797,1.39148,-9.61183,-8.05572,-4.72134,8.48063
2023-03-14 22:09:00:524,-0.841033,1.41596,-9.6164,-8.06115,-4.73193,8.48605
2023-03-14 22:09:00:534,-0.852176,1.41357,-9.62398,-8.06349,-4.73933,8.48949
2023-03-14 22:09:00:544,-0.856833,1.42141,-9.61618,-8.06431,-4.74072,8.49367
2023-03-14 22:09:00:554,-0.867297,1.42333,-9.61608,-8.06382,-4.73976,8.49855
2023-03-14 22:09:00:564,-0.869802,1.42389,-9.61663,-8.06178,-4.73815,8.50338
2023-03-14 22:09:00:574,-0.866917,1.43524,-9.61963,-8.06257,-4.73321,8.50988
2023-03-14 22:09:00:584,-0.877214,1.42072,-9.61085,-8.06271,-4.72658,8.51111
2023-03-14 22:09:00:594,-0.8677,1.40696,-9.6078,-8.06266,-4.72262,8.51329
2023-03-14 22:09:00:604,-0.859039,1.41315,-9.59494,-8.0641,-4.71791,8.51038
2023-03-14 22:09:00:614,-0.855567,1.40251,-9.61375,-8.06343,-4.7111,8.50435
2023-03-14 22:09:00:624,-0.832569,1.40638,-9.64379,-8.06743,-4.70859,8.4972
2023-03-14 22:09:00:634,-0.832772,1.42391,-9.65662,-8.07184,-4.70788,8.48847
2023-03-14 22:09:00:644,-0.822802,1.43609,-9.67853,-8.07449,-4.7036,8.47998
2023-03-14 22:09:00:654,-0.801442,1.44219,-9.68966,-8.07891,-4.69821,8.46931
2023-03-14 22:09:00:664,-0.777475,1.43727,-9.71585,-8.0849,-4.69568,8.46305
2023-03-14 22:09:00:674,-0.753484,1.44376,-9.70721,-8.08358,-4.69335,8.45393
2023-03-14 22:09:00:684,-0.746564,1.44693,-9.69261,-8.08141,-4.69296,8.44261
2023-03-14 22:09:00:694,-0.755046,1.43664,-9.68452,-8.08074,-4.69485,8.43159
2023-03-14 22:09:00:704,-0.787786,1.46146,-9.69777,-8.07523,-4.69457,8.42615
2023-03-14 22:09:00:714,-0.7935,1.43919,-9.67341,-8.06425,-4.69063,8.42148
2023-03-14 22:09:00:724,-0.757676,1.4011,-9.65704,-8.05328,-4.68578,8.41844
2023-03-14 22:09:00:734,-0.699871,1.39658,-9.653,-8.04603,-4.68038,8.41284
2023-03-14 22:09:00:744,-0.683282,1.37387,-9.6361,-8.03232,-4.67953,8.40922
2023-03-14 22:09:00:754,-0.711663,1.36878,-9.64981,-8.02017,-4.68216,8.40751
2023-03-14 22:09:00:764,-0.74086,1.36449,-9.66474,-8.00739,-4.68994,8.40829
2023-03-14 22:09:00:774,-0.757602,1.35907,-9.64929,-7.99618,-4.69662,8.41319
2023-03-14 22:09:00:784,-0.757795,1.35009,-9.6395,-7.98235,-4.70483,8.41761
2023-03-14 22:09:00:794,-0.765032,1.35056,-9.66085,-7.97259,-4.70848,8.42619
2023-03-14 22:09:00:804,-0.769744,1.3739,-9.66912,-7.96317,-4.71002,8.4331
2023-03-14 22:09:00:814,-0.76124,1.35798,-9.66433,-7.95222,-4.70985,8.44016
2023-03-14 22:09:00:824,-0.77698,1.35357,-9.66423,-7.93998,-4.71141,8.44846
2023-03-14 22:09:00:834,-0.798619,1.34839,-9.66982,-7.9268,-4.71078,8.4582
2023-03-14 22:09:00:844,-0.807184,1.33721,-9.67381,-7.91169,-4.71658,8.46543
2023-03-14 22:09:00:854,-0.789903,1.3481,-9.65498,-7.90061,-4.7221,8.47005
2023-03-14 22:09:00:864,-0.78709,1.32851,-9.64915,-7.88854,-4.73089,8.47585
2023-03-14 22:09:00:874,-0.777981,1.3228,-9.64061,-7.87312,-4.74311,8.48043
2023-03-14 22:09:00:884,-0.774625,1.31215,-9.63029,-7.85874,-4.75285,8.48679
2023-03-14 22:09:00:894,-0.794166,1.30133,-9.61802,-7.849,-4.76433,8.49246
2023-03-14 22:09:00:904,-0.784827,1.29287,-9.60216,-7.84271,-4.77793,8.49843
2023-03-14 22:09:00:914,-0.774826,1.28516,-9.60482,-7.83675,-4.78751,8.5081
2023-03-14 22:09:00:924,-0.800012,1.30128,-9.61447,-7.83528,-4.79589,8.51924
2023-03-14 22:09:00:934,-0.818845,1.329,-9.62594,-7.83726,-4.80361,8.53072
2023-03-14 22:09:00:944,-0.831135,1.32232,-9.62893,-7.83969,-4.81228,8.54489
2023-03-14 22:09:00:954,-0.847711,1.32834,-9.63634,-7.84046,-4.81959,8.55416
2023-03-14 22:09:00:964,-0.862576,1.34303,-9.6434,-7.84021,-4.82727,8.56411
2023-03-14 22:09:00:974,-0.86388,1.3351,-9.65309,-7.83948,-4.83485,8.5731
2023-03-14 22:09:00:984,-0.85692,1.325,-9.6329,-7.83872,-4.83892,8.58306
2023-03-14 22:09:00:994,-0.870158,1.32091,-9.62171,-7.84342,-4.83943,8.59268
2023-03-14 22:09:01:4,-0.885428,1.34415,-9.62264,-7.84703,-4.83939,8.60064
2023-03-14 22:09:01:14,-0.90299,1.34805,-9.63391,-7.85111,-4.84085,8.60157
2023-03-14 22:09:01:24,-0.926182,1.3523,-9.63369,-7.85324,-4.84069,8.59896
2023-03-14 22:09:01:34,-0.929845,1.35483,-9.62726,-7.85357,-4.84361,8.59477
2023-03-14 22:09:01:44,-0.909524,1.34271,-9.61953,-7.85363,-4.84295,8.58874
2023-03-14 22:09:01:54,-0.897,1.32776,-9.63501,-7.85859,-4.83846,8.58008
2023-03-14 22:09:01:64,-0.881054,1.34149,-9.66463,-7.86502,-4.83712,8.56988
2023-03-14 22:09:01:74,-0.856897,1.35548,-9.67063,-7.87275,-4.83294,8.5564
2023-03-14 22:09:01:84,-0.84808,1.35748,-9.66189,-7.87546,-4.8273,8.54071
2023-03-14 22:09:01:94,-0.816246,1.3637,-9.65835,-7.87926,-4.82196,8.52128
2023-03-14 22:09:01:104,-0.788096,1.36274,-9.65953,-7.88387,-4.81172,8.50784
2023-03-14 22:09:01:114,-0.780095,1.36471,-9.68495,-7.88505,-4.80303,8.49438
2023-03-14 22:09:01:124,-0.762201,1.37122,-9.68509,-7.8895,-4.79224,8.48259
2023-03-14 22:09:01:134,-0.760413,1.36181,-9.65754,-7.8903,-4.78172,8.47127
2023-03-14 22:09:01:144,-0.763174,1.34428,-9.64282,-7.89191,-4.77318,8.46607
2023-03-14 22:09:01:154,-0.774724,1.34583,-9.63816,-7.89271,-4.76697,8.46103
2023-03-14 22:09:01:164,-0.774387,1.35078,-9.63178,-7.89217,-4.76151,8.46148
2023-03-14 22:09:01:174,-0.792162,1.34488,-9.62508,-7.89451,-4.75461,8.4594
2023-03-14 22:09:01:184,-0.79972,1.33956,-9.62959,-7.89603,-4.74993,8.45559
2023-03-14 22:09:01:194,-0.80047,1.34308,-9.65168,-7.89907,-4.74619,8.45626
2023-03-14 22:09:01:204,-0.794344,1.35962,-9.65823,-7.90467,-4.74014,8.45513
2023-03-14 22:09:01:214,-0.80254,1.37228,-9.67915,-7.90822,-4.73158,8.44992
2023-03-14 22:09:01:224,-0.788212,1.37705,-9.69539,-7.91048,-4.7302,8.44391
2023-03-14 22:09:01:234,-0.775839,1.37769,-9.68612,-7.91281,-4.72539,8.44086
2023-03-14 22:09:01:244,-0.787025,1.3847,-9.69147,-7.91333,-4.72218,8.43803
2023-03-14 22:09:01:254,-0.8196,1.39234,-9.70708,-7.91223,-4.72448,8.43528
2023-03-14 22:09:01:264,-0.868071,1.40836,-9.70089,-7.91315,-4.72986,8.42689
2023-03-14 22:09:01:274,-0.889083,1.41534,-9.69809,-7.9099,-4.73892,8.41496
2023-03-14 22:09:01:284,-0.892229,1.38437,-9.65984,-7.90351,-4.75143,8.39487
2023-03-14 22:09:01:294,-0.877013,1.34294,-9.62773,-7.89476,-4.76162,8.36976
2023-03-14 22:09:01:304,-0.857448,1.34071,-9.63749,-7.88789,-4.77319,8.33961
2023-03-14 22:09:01:314,-0.833999,1.36294,-9.67778,-7.88224,-4.78657,8.30446
2023-03-14 22:09:01:324,-0.825337,1.37444,-9.70398,-7.87897,-4.79828,8.26684
2023-03-14 22:09:01:334,-0.793462,1.36086,-9.67957,-7.87115,-4.81826,8.22427
2023-03-14 22:09:01:344,-0.735621,1.3113,-9.64332,-7.86171,-4.8359,8.17983
2023-03-14 22:09:01:354,-0.722514,1.31042,-9.62268,-7.85537,-4.85173,8.14254
2023-03-14 22:09:01:364,-0.730649,1.33662,-9.6237,-7.8531,-4.86642,8.11329
2023-03-14 22:09:01:374,-0.721296,1.34602,-9.62295,-7.85089,-4.88042,8.08502
2023-03-14 22:09:01:384,-0.707863,1.33619,-9.60917,-7.8526,-4.89205,8.06111
2023-03-14 22:09:01:394,-0.728889,1.37654,-9.64535,-7.85513,-4.89681,8.04464
2023-03-14 22:09:01:404,-0.72978,1.38524,-9.6823,-7.85862,-4.89496,8.03949
2023-03-14 22:09:01:414,-0.712458,1.34164,-9.65013,-7.85222,-4.88613,8.04132
2023-03-14 22:09:01:424,-0.728994,1.31136,-9.59429,-7.84454,-4.87844,8.04972
2023-03-14 22:09:01:434,-0.766611,1.30806,-9.57295,-7.83935,-4.87116,8.06258
2023-03-14 22:09:01:444,-0.786173,1.30989,-9.57332,-7.83731,-4.85928,8.07829
2023-03-14 22:09:01:454,-0.799315,1.31897,-9.5699,-7.84024,-4.84911,8.09718
2023-03-14 22:09:01:464,-0.808745,1.31756,-9.60648,-7.84382,-4.83629,8.11573
2023-03-14 22:09:01:474,-0.83029,1.34313,-9.62716,-7.85335,-4.82425,8.13075
2023-03-14 22:09:01:484,-0.831524,1.37745,-9.65694,-7.8646,-4.81329,8.14426
2023-03-14 22:09:01:494,-0.830968,1.38525,-9.69537,-7.87465,-4.80512,8.15331
2023-03-14 22:09:01:504,-0.830149,1.38438,-9.69367,-7.88848,-4.80203,8.15872
2023-03-14 22:09:01:514,-0.836202,1.41741,-9.72372,-7.90134,-4.80108,8.16073
2023-03-14 22:09:01:524,-0.808986,1.44246,-9.73119,-7.91129,-4.79887,8.1593
2023-03-14 22:09:01:534,-0.769754,1.40029,-9.71361,-7.91585,-4.79796,8.1607
2023-03-14 22:09:01:544,-0.783463,1.38856,-9.67413,-7.91961,-4.79992,8.16146
2023-03-14 22:09:01:554,-0.808142,1.39849,-9.65348,-7.9249,-4.80062,8.15879
2023-03-14 22:09:01:564,-0.802305,1.39773,-9.66904,-7.92708,-4.80137,8.15306
2023-03-14 22:09:01:574,-0.739975,1.39638,-9.68144,-7.9269,-4.80392,8.14933
2023-03-14 22:09:01:584,-0.686009,1.37076,-9.67003,-7.925,-4.80681,8.14613
2023-03-14 22:09:01:594,-0.713352,1.3576,-9.64923,-7.92253,-4.81648,8.14552
2023-03-14 22:09:01:604,-0.75376,1.35264,-9.63588,-7.9196,-4.82688,8.14992
2023-03-14 22:09:01:614,-0.783708,1.35106,-9.6302,-7.91919,-4.83548,8.15894
2023-03-14 22:09:01:624,-0.791232,1.35045,-9.63621,-7.91938,-4.84533,8.1673
2023-03-14 22:09:01:634,-0.803849,1.36723,-9.65369,-7.91771,-4.85043,8.17876
2023-03-14 22:09:01:644,-0.805369,1.38561,-9.68078,-7.91787,-4.85234,8.19063
2023-03-14 22:09:01:654,-0.816134,1.39699,-9.69193,-7.91813,-4.85193,8.20432
2023-03-14 22:09:01:664,-0.824327,1.39296,-9.6932,-7.9171,-4.85732,8.2187
2023-03-14 22:09:01:674,-0.835451,1.38826,-9.68982,-7.91207,-4.86129,8.23249
2023-03-14 22:09:01:684,-0.847225,1.37999,-9.69972,-7.90667,-4.86893,8.24347
2023-03-14 22:09:01:694,-0.854128,1.38783,-9.71276,-7.90113,-4.87757,8.2533
2023-03-14 22:09:01:704,-0.879598,1.39292,-9.72688,-7.89052,-4.89402,8.25969
2023-03-14 22:09:01:714,-0.915166,1.38466,-9.71445,-7.87737,-4.91275,8.26142
2023-03-14 22:09:01:724,-0.933414,1.35525,-9.6612,-7.85907,-4.93486,8.25644
2023-03-14 22:09:01:734,-0.911917,1.32957,-9.59199,-7.8401,-4.95612,8.24804
2023-03-14 22:09:01:744,-0.874947,1.30933,-9.55835,-7.82459,-4.97502,8.23974
2023-03-14 22:09:01:754,-0.836274,1.29448,-9.57329,-7.81588,-4.9934,8.22719
2023-03-14 22:09:01:764,-0.812684,1.29152,-9.60542,-7.80746,-5.00729,8.21629
2023-03-14 22:09:01:774,-0.814002,1.31301,-9.63456,-7.80306,-5.02002,8.20564
2023-03-14 22:09:01:784,-0.804842,1.32905,-9.64415,-7.79989,-5.03435,8.1973
2023-03-14 22:09:01:794,-0.811631,1.32314,-9.63164,-7.7964,-5.0489,8.19597
2023-03-14 22:09:01:804,-0.83113,1.32512,-9.61302,-7.79068,-5.06117,8.19693
2023-03-14 22:09:01:814,-0.838819,1.32281,-9.62113,-7.78251,-5.06906,8.19831
2023-03-14 22:09:01:824,-0.84383,1.3289,-9.63092,-7.78067,-5.07687,8.20396
2023-03-14 22:09:01:834,-0.87118,1.34462,-9.62892,-7.78193,-5.08571,8.21236
2023-03-14 22:09:01:844,-0.893578,1.33674,-9.62979,-7.78374,-5.09045,8.22201
2023-03-14 22:09:01:854,-0.919933,1.33854,-9.62473,-7.78678,-5.09496,8.23057
2023-03-14 22:09:01:864,-0.916395,1.32749,-9.6132,-7.78777,-5.09728,8.23927
2023-03-14 22:09:01:874,-0.925283,1.32308,-9.622,-7.78809,-5.09922,8.24551
2023-03-14 22:09:01:884,-0.925824,1.3227,-9.63068,-7.78788,-5.09796,8.24719
2023-03-14 22:09:01:894,-0.905464,1.33957,-9.6365,-7.7942,-5.10011,8.24779
2023-03-14 22:09:01:904,-0.879788,1.33766,-9.65721,-7.79959,-5.09979,8.2466
2023-03-14 22:09:01:914,-0.876516,1.35958,-9.66401,-7.80445,-5.09738,8.24394
2023-03-14 22:09:01:924,-0.878831,1.36967,-9.67548,-7.8109,-5.09533,8.24122
2023-03-14 22:09:01:934,-0.876696,1.36576,-9.68327,-7.8107,-5.0933,8.23183
2023-03-14 22:09:01:944,-0.868182,1.35774,-9.65881,-7.81155,-5.08978,8.22717
2023-03-14 22:09:01:954,-0.859277,1.36248,-9.65757,-7.81154,-5.08598,8.22139
2023-03-14 22:09:01:964,-0.831452,1.35531,-9.65311,-7.81142,-5.08058,8.21554
2023-03-14 22:09:01:974,-0.823113,1.34893,-9.63954,-7.80912,-5.07699,8.20961
2023-03-14 22:09:01:984,-0.820268,1.33782,-9.63505,-7.80609,-5.07446,8.20513
2023-03-14 22:09:01:994,-0.801424,1.32826,-9.62863,-7.8066,-5.07003,8.20148
2023-03-14 22:09:02:4,-0.812636,1.31838,-9.63008,-7.80476,-5.06919,8.19905
2023-03-14 22:09:02:14,-0.812293,1.32365,-9.63409,-7.80719,-5.06161,8.19921
2023-03-14 22:09:02:24,-0.809083,1.33315,-9.63807,-7.81164,-5.05619,8.20197
2023-03-14 22:09:02:34,-0.802797,1.33793,-9.65333,-7.81179,-5.05826,8.20712
2023-03-14 22:09:02:44,-0.814057,1.33388,-9.65766,-7.81833,-5.05679,8.21534
2023-03-14 22:09:02:54,-0.834679,1.34635,-9.67276,-7.82402,-5.05571,8.2232
2023-03-14 22:09:02:64,-0.848863,1.34476,-9.6894,-7.82501,-5.05078,8.23132
2023-03-14 22:09:02:74,-0.852754,1.33554,-9.66887,-7.8264,-5.04941,8.23947
2023-03-14 22:09:02:84,-0.859559,1.32605,-9.66145,-7.82675,-5.04776,8.24598
2023-03-14 22:09:02:94,-0.871005,1.3295,-9.65136,-7.82519,-5.04931,8.25067
2023-03-14 22:09:02:104,-0.847609,1.33709,-9.6458,-7.8257,-5.05361,8.25578
2023-03-14 22:09:02:114,-0.860305,1.33313,-9.65823,-7.82603,-5.05397,8.26
2023-03-14 22:09:02:124,-0.887518,1.32978,-9.6654,-7.82688,-5.05633,8.26366
2023-03-14 22:09:02:134,-0.875398,1.3175,-9.67844,-7.82725,-5.05799,8.26519
2023-03-14 22:09:02:144,-0.850154,1.33282,-9.68933,-7.82608,-5.05515,8.26543
2023-03-14 22:09:02:154,-0.799619,1.34278,-9.69916,-7.82753,-5.05666,8.26262
2023-03-14 22:09:02:164,-0.792942,1.3332,-9.67459,-7.82505,-5.05772,8.26455
2023-03-14 22:09:02:174,-0.811578,1.32267,-9.64659,-7.82162,-5.06394,8.26744
2023-03-14 22:09:02:184,-0.859731,1.34171,-9.63823,-7.82155,-5.07383,8.27421
2023-03-14 22:09:02:194,-0.895759,1.37008,-9.647,-7.82664,-5.07728,8.28208
2023-03-14 22:09:02:204,-0.887939,1.36962,-9.64522,-7.82869,-5.0823,8.28396
2023-03-14 22:09:02:214,-0.896692,1.37867,-9.62416,-7.82774,-5.0853,8.2864
2023-03-14 22:09:02:224,-0.906195,1.37939,-9.61497,-7.82651,-5.08778,8.28903
2023-03-14 22:09:02:234,-0.892856,1.36382,-9.60732,-7.82599,-5.08629,8.2903
2023-03-14 22:09:02:244,-0.88791,1.34919,-9.59179,-7.82408,-5.08494,8.29285
2023-03-14 22:09:02:254,-0.908101,1.34934,-9.58168,-7.82022,-5.08388,8.29389
2023-03-14 22:09:02:264,-0.896638,1.33471,-9.5668,-7.81976,-5.07644,8.28845
2023-03-14 22:09:02:274,-0.879066,1.32839,-9.55502,-7.82121,-5.06835,8.28516
2023-03-14 22:09:02:284,-0.875038,1.33896,-9.57889,-7.82877,-5.05979,8.28158
2023-03-14 22:09:02:294,-0.875985,1.35179,-9.62006,-7.83915,-5.05294,8.27718
2023-03-14 22:09:02:304,-0.876715,1.36613,-9.65219,-7.8496,-5.04308,8.26932
2023-03-14 22:09:02:314,-0.865839,1.36477,-9.66243,-7.86403,-5.03602,8.26288
2023-03-14 22:09:02:324,-0.8737,1.40196,-9.71562,-7.87723,-5.03417,8.25488
2023-03-14 22:09:02:334,-0.879752,1.4608,-9.77753,-7.89371,-5.02986,8.2452
2023-03-14 22:09:02:344,-0.846411,1.45207,-9.75731,-7.90248,-5.02484,8.23358
2023-03-14 22:09:02:354,-0.778064,1.3946,-9.6769,-7.90145,-5.01517,8.22417
2023-03-14 22:09:02:364,-0.723573,1.32113,-9.62305,-7.89988,-5.00795,8.21745
2023-03-14 22:09:02:374,-0.738474,1.32182,-9.63653,-7.89646,-5.00033,8.21929
2023-03-14 22:09:02:384,-0.820303,1.37886,-9.64732,-7.89627,-4.99612,8.22423
2023-03-14 22:09:02:394,-0.869449,1.39675,-9.63254,-7.89485,-4.99052,8.22607
2023-03-14 22:09:02:404,-0.821835,1.36775,-9.60213,-7.89106,-4.98223,8.23137
2023-03-14 22:09:02:414,-0.655939,1.23834,-9.53017,-7.88105,-4.97602,8.23738
2023-03-14 22:09:02:424,-0.484161,1.1626,-9.47534,-7.86334,-4.96455,8.25787
2023-03-14 22:09:02:434,-0.499805,1.13282,-9.41822,-7.84021,-4.95504,8.29917
2023-03-14 22:09:02:444,-0.722295,1.17262,-9.4105,-7.8244,-4.94882,8.3664
2023-03-14 22:09:02:454,-0.961777,1.31172,-9.5302,-7.83709,-4.95766,8.43488
2023-03-14 22:09:02:464,-1.06457,1.50293,-9.73077,-7.87491,-4.97865,8.49002
2023-03-14 22:09:02:474,-0.976848,1.5205,-9.80644,-7.90477,-4.99708,8.53036
2023-03-14 22:09:02:484,-0.901387,1.49845,-9.81045,-7.91841,-5.00795,8.56811
2023-03-14 22:09:02:494,-0.921957,1.50072,-9.80659,-7.92645,-5.014,8.59932
2023-03-14 22:09:02:504,-0.916062,1.45091,-9.76867,-7.9276,-5.02117,8.63119
2023-03-14 22:09:02:514,-0.883891,1.39867,-9.72516,-7.92335,-5.02596,8.66171
2023-03-14 22:09:02:524,-0.899788,1.37741,-9.68504,-7.92223,-5.03105,8.69154
2023-03-14 22:09:02:534,-0.941478,1.39044,-9.68856,-7.91926,-5.0392,8.71731
2023-03-14 22:09:02:544,-0.971172,1.38524,-9.67306,-7.9145,-5.04796,8.73528
2023-03-14 22:09:02:554,-0.96141,1.3844,-9.67031,-7.91103,-5.05879,8.73916
2023-03-14 22:09:02:564,-0.941326,1.39187,-9.69994,-7.91123,-5.06921,8.73783
2023-03-14 22:09:02:574,-0.896996,1.40152,-9.67837,-7.91471,-5.08279,8.72776
2023-03-14 22:09:02:584,-0.860871,1.34824,-9.62362,-7.9155,-5.09676,8.72169
2023-03-14 22:09:02:594,-0.815377,1.28058,-9.5745,-7.91726,-5.10597,8.7117
2023-03-14 22:09:02:604,-0.810955,1.29194,-9.59797,-7.91798,-5.1114,8.70893
