Timestamp,Acceleration_x,Acceleration_y,Acceleration_z,roll,pitch,yaw
2023-03-15 21:43:14:988,-1.72919,1.71733,-9.20901,-11.8493,-10.3938,44.1341
2023-03-15 21:43:14:996,-1.69819,1.85987,-9.33608,-12.0262,-10.381,44.4794
2023-03-15 21:43:15:6,-1.69295,1.95713,-9.43734,-12.201,-10.367,44.8226
2023-03-15 21:43:15:16,-1.71462,2.01734,-9.44578,-12.3732,-10.3541,45.1671
2023-03-15 21:43:15:27,-1.71767,2.04916,-9.38528,-12.542,-10.3422,45.5157
2023-03-15 21:43:15:36,-1.74785,2.07425,-9.32155,-12.7115,-10.3356,45.8593
2023-03-15 21:43:15:46,-1.82351,2.10435,-9.26078,-12.8886,-10.3281,46.2042
2023-03-15 21:43:15:56,-1.88307,2.15429,-9.24669,-13.0712,-10.3301,46.5499
2023-03-15 21:43:15:66,-1.92006,2.20364,-9.28047,-13.2638,-10.3395,46.8934
2023-03-15 21:43:15:76,-1.95372,2.29198,-9.34216,-13.4566,-10.3518,47.2285
2023-03-15 21:43:15:87,-2.01098,2.4001,-9.42562,-13.6441,-10.3648,47.5554
2023-03-15 21:43:15:96,-2.07022,2.48052,-9.46168,-13.8234,-10.378,47.8748
2023-03-15 21:43:15:107,-2.06091,2.52633,-9.44805,-13.9942,-10.3868,48.1879
2023-03-15 21:43:15:116,-2.07163,2.51273,-9.31924,-14.163,-10.3997,48.4927
2023-03-15 21:43:15:127,-2.10941,2.55592,-9.26899,-14.33,-10.4101,48.7961
2023-03-15 21:43:15:136,-2.17999,2.58981,-9.23645,-14.4907,-10.4157,49.0888
2023-03-15 21:43:15:147,-2.21497,2.57926,-9.16721,-14.6539,-10.4289,49.3758
2023-03-15 21:43:15:156,-2.23098,2.60766,-9.12296,-14.8265,-10.438,49.6513
2023-03-15 21:43:15:167,-2.31421,2.69643,-9.16684,-14.9958,-10.4461,49.9143
2023-03-15 21:43:15:177,-2.36809,2.7662,-9.21281,-15.1602,-10.453,50.1579
2023-03-15 21:43:15:187,-2.33539,2.79643,-9.21411,-15.3186,-10.453,50.3853
2023-03-15 21:43:15:197,-2.3138,2.83246,-9.22142,-15.4728,-10.4516,50.5978
2023-03-15 21:43:15:207,-2.25171,2.89202,-9.23722,-15.6183,-10.4443,50.7921
2023-03-15 21:43:15:217,-2.16638,2.93496,-9.24514,-15.7564,-10.4334,50.9673
2023-03-15 21:43:15:227,-2.08451,2.93493,-9.21166,-15.8877,-10.4169,51.1365
2023-03-15 21:43:15:237,-2.0109,2.94292,-9.13619,-16.0116,-10.3983,51.2921
2023-03-15 21:43:15:247,-1.9917,2.93979,-9.08768,-16.1386,-10.381,51.4408
2023-03-15 21:43:15:257,-1.95793,2.96753,-9.08769,-16.2697,-10.3693,51.5916
2023-03-15 21:43:15:266,-1.93552,3.01608,-9.10415,-16.4048,-10.3702,51.7295
2023-03-15 21:43:15:276,-1.93739,3.06597,-9.14269,-16.5441,-10.3783,51.8631
2023-03-15 21:43:15:286,-1.93791,3.1299,-9.1904,-16.6762,-10.3981,51.9927
2023-03-15 21:43:15:296,-1.94575,3.15324,-9.22038,-16.8044,-10.4271,52.1194
2023-03-15 21:43:15:306,-1.96123,3.19148,-9.25953,-16.9251,-10.462,52.2396
2023-03-15 21:43:15:316,-1.96319,3.22115,-9.26972,-17.0403,-10.507,52.3568
2023-03-15 21:43:15:326,-1.97923,3.23604,-9.22986,-17.1487,-10.5557,52.4725
2023-03-15 21:43:15:336,-1.99049,3.23849,-9.16199,-17.2567,-10.6069,52.587
2023-03-15 21:43:15:346,-1.97411,3.24623,-9.11545,-17.3605,-10.6593,52.6991
2023-03-15 21:43:15:356,-1.98598,3.27015,-9.07918,-17.4718,-10.7146,52.8125
2023-03-15 21:43:15:366,-2.03588,3.29736,-9.07222,-17.5827,-10.7739,52.9236
2023-03-15 21:43:15:376,-2.07145,3.30998,-9.07605,-17.6947,-10.8307,53.0315
2023-03-15 21:43:15:386,-2.08709,3.35035,-9.10076,-17.8007,-10.8899,53.1373
2023-03-15 21:43:15:396,-2.09457,3.37678,-9.14455,-17.9025,-10.9446,53.2386
2023-03-15 21:43:15:406,-2.07731,3.36966,-9.14437,-18.001,-10.9955,53.3387
2023-03-15 21:43:15:416,-2.07008,3.38394,-9.1438,-18.0927,-11.0452,53.4377
2023-03-15 21:43:15:426,-2.09579,3.38888,-9.12562,-18.1781,-11.0821,53.5369
2023-03-15 21:43:15:436,-2.09107,3.39314,-9.10199,-18.2528,-11.1129,53.6321
2023-03-15 21:43:15:446,-2.08308,3.38043,-9.09896,-18.3239,-11.1389,53.7244
2023-03-15 21:43:15:456,-2.06569,3.36982,-9.09381,-18.3881,-11.1601,53.8147
2023-03-15 21:43:15:466,-2.08858,3.38049,-9.05937,-18.4474,-11.1761,53.9021
2023-03-15 21:43:15:476,-2.07723,3.35285,-9.03759,-18.4985,-11.1887,53.9829
2023-03-15 21:43:15:486,-2.04377,3.33875,-9.02725,-18.5462,-11.198,54.059
2023-03-15 21:43:15:496,-2.0308,3.31886,-9.00829,-18.5901,-11.2037,54.133
2023-03-15 21:43:15:506,-2.00956,3.29735,-8.98179,-18.6331,-11.2066,54.2061
2023-03-15 21:43:15:516,-1.98705,3.27988,-9.00157,-18.6752,-11.2057,54.2785
2023-03-15 21:43:15:526,-1.96415,3.31141,-9.0324,-18.7176,-11.202,54.3441
2023-03-15 21:43:15:536,-1.9394,3.32033,-9.09292,-18.7579,-11.1937,54.4038
2023-03-15 21:43:15:546,-1.90344,3.30817,-9.10282,-18.7931,-11.1845,54.4644
2023-03-15 21:43:15:556,-1.89212,3.29752,-9.05913,-18.8281,-11.1692,54.5213
2023-03-15 21:43:15:566,-1.89496,3.30283,-9.03616,-18.8622,-11.1624,54.5836
2023-03-15 21:43:15:576,-1.85686,3.31532,-9.05058,-18.9028,-11.1521,54.6414
2023-03-15 21:43:15:586,-1.8458,3.31174,-9.05888,-18.9418,-11.1503,54.6991
2023-03-15 21:43:15:596,-1.86683,3.30475,-9.03825,-18.9827,-11.1531,54.7574
2023-03-15 21:43:15:606,-1.86363,3.29595,-9.03654,-19.0269,-11.1553,54.8096
2023-03-15 21:43:15:616,-1.84144,3.30126,-9.045,-19.0766,-11.1617,54.862
2023-03-15 21:43:15:626,-1.81813,3.31691,-9.07558,-19.1256,-11.1652,54.9142
2023-03-15 21:43:15:636,-1.79671,3.33549,-9.07906,-19.1698,-11.1657,54.9664
2023-03-15 21:43:15:646,-1.79783,3.3234,-9.0673,-19.2152,-11.167,55.0207
2023-03-15 21:43:15:656,-1.79553,3.32104,-9.05125,-19.259,-11.1626,55.0721
2023-03-15 21:43:15:666,-1.80871,3.33831,-9.04617,-19.3014,-11.1559,55.1244
2023-03-15 21:43:15:676,-1.81516,3.34949,-9.0615,-19.3408,-11.1532,55.1812
2023-03-15 21:43:15:686,-1.81912,3.34939,-9.07379,-19.3792,-11.1499,55.236
2023-03-15 21:43:15:696,-1.83371,3.35355,-9.07438,-19.4098,-11.142,55.2911
2023-03-15 21:43:15:706,-1.85426,3.3602,-9.05286,-19.4399,-11.1375,55.3422
2023-03-15 21:43:15:716,-1.85242,3.33526,-9.03279,-19.4639,-11.128,55.3903
2023-03-15 21:43:15:726,-1.85365,3.32261,-8.97964,-19.4881,-11.1178,55.4304
2023-03-15 21:43:15:736,-1.83011,3.31122,-8.97123,-19.5106,-11.1089,55.4702
2023-03-15 21:43:15:746,-1.82403,3.3057,-8.98035,-19.5333,-11.1039,55.505
2023-03-15 21:43:15:756,-1.81139,3.31788,-9.0126,-19.5579,-11.1015,55.5368
2023-03-15 21:43:15:766,-1.7931,3.33663,-9.04656,-19.5793,-11.1041,55.5672
2023-03-15 21:43:15:776,-1.77346,3.33994,-9.02942,-19.5967,-11.1084,55.5943
2023-03-15 21:43:15:786,-1.78217,3.32465,-9.0257,-19.6142,-11.115,55.6168
2023-03-15 21:43:15:796,-1.79004,3.32869,-9.04138,-19.6349,-11.117,55.6426
2023-03-15 21:43:15:806,-1.81219,3.35018,-9.05993,-19.6525,-11.127,55.6681
2023-03-15 21:43:15:816,-1.82284,3.35678,-9.04759,-19.6645,-11.1402,55.6891
2023-03-15 21:43:15:826,-1.83408,3.35349,-9.01549,-19.6748,-11.155,55.7113
2023-03-15 21:43:15:836,-1.85789,3.33573,-9.00988,-19.6856,-11.1694,55.7309
2023-03-15 21:43:15:846,-1.85614,3.31788,-9.02701,-19.6968,-11.1868,55.7525
2023-03-15 21:43:15:856,-1.84078,3.31021,-9.03395,-19.7094,-11.2044,55.7707
2023-03-15 21:43:15:866,-1.83843,3.29763,-9.0322,-19.7222,-11.2287,55.7857
2023-03-15 21:43:15:876,-1.85651,3.28168,-9.03137,-19.7361,-11.2488,55.8062
2023-03-15 21:43:15:886,-1.86962,3.29159,-9.05587,-19.7453,-11.2701,55.8242
2023-03-15 21:43:15:896,-1.87563,3.28748,-9.079,-19.7515,-11.2905,55.8424
2023-03-15 21:43:15:906,-1.8941,3.26241,-9.09564,-19.7527,-11.3118,55.8564
2023-03-15 21:43:15:916,-1.89729,3.27323,-9.10572,-19.7499,-11.3338,55.8672
2023-03-15 21:43:15:926,-1.90795,3.25845,-9.0476,-19.7471,-11.3566,55.8804
2023-03-15 21:43:15:936,-1.90575,3.21712,-8.99012,-19.7444,-11.3805,55.8961
2023-03-15 21:43:15:946,-1.9189,3.2115,-8.99101,-19.7442,-11.4083,55.9099
2023-03-15 21:43:15:956,-1.9526,3.25504,-9.01912,-19.75,-11.4313,55.9216
2023-03-15 21:43:15:966,-1.99461,3.27137,-9.04148,-19.7578,-11.453,55.9336
2023-03-15 21:43:15:976,-2.0055,3.28965,-9.02945,-19.7607,-11.4717,55.9394
2023-03-15 21:43:15:986,-1.98032,3.30233,-9.02929,-19.7672,-11.481,55.9447
2023-03-15 21:43:15:996,-1.95076,3.29099,-9.0564,-19.771,-11.49,55.9454
2023-03-15 21:43:16:6,-1.91867,3.28748,-9.03529,-19.7754,-11.4972,55.9449
2023-03-15 21:43:16:16,-1.911,3.27516,-9.01137,-19.7797,-11.5027,55.9417
2023-03-15 21:43:16:26,-1.92178,3.28017,-8.98491,-19.7858,-11.5122,55.9434
2023-03-15 21:43:16:36,-1.9354,3.29999,-8.98154,-19.7934,-11.5185,55.945
2023-03-15 21:43:16:46,-1.94497,3.2924,-8.98822,-19.7989,-11.5218,55.9425
2023-03-15 21:43:16:56,-1.93155,3.29441,-8.99981,-19.8001,-11.5236,55.941
2023-03-15 21:43:16:66,-1.91435,3.31237,-9.03027,-19.7983,-11.5277,55.937
2023-03-15 21:43:16:76,-1.90892,3.32305,-9.05952,-19.7937,-11.5272,55.9347
2023-03-15 21:43:16:86,-1.91246,3.31201,-9.04595,-19.7875,-11.5281,55.9292
2023-03-15 21:43:16:96,-1.89434,3.29188,-9.03841,-19.7746,-11.526,55.9232
2023-03-15 21:43:16:106,-1.89674,3.28641,-9.01897,-19.7643,-11.519,55.9188
2023-03-15 21:43:16:116,-1.89389,3.27359,-8.99215,-19.7516,-11.515,55.9176
2023-03-15 21:43:16:126,-1.88565,3.26224,-9.0195,-19.74,-11.5099,55.9133
2023-03-15 21:43:16:136,-1.8795,3.26807,-9.07373,-19.7257,-11.5046,55.907
2023-03-15 21:43:16:146,-1.89058,3.2558,-9.10447,-19.7126,-11.5074,55.9038
2023-03-15 21:43:16:156,-1.90144,3.26073,-9.08921,-19.6978,-11.5122,55.901
2023-03-15 21:43:16:166,-1.86954,3.24739,-9.10448,-19.6811,-11.5167,55.8996
2023-03-15 21:43:16:176,-1.83843,3.2306,-9.12096,-19.6595,-11.5206,55.8952
2023-03-15 21:43:16:186,-1.8431,3.22739,-9.0812,-19.6397,-11.5274,55.8936
2023-03-15 21:43:16:196,-1.86236,3.20083,-9.04143,-19.6184,-11.5366,55.8935
2023-03-15 21:43:16:206,-1.88518,3.18633,-9.0274,-19.6019,-11.5421,55.8974
2023-03-15 21:43:16:216,-1.89917,3.1806,-9.02195,-19.5881,-11.5472,55.9022
2023-03-15 21:43:16:226,-1.91738,3.19782,-9.02226,-19.5775,-11.5511,55.9063
2023-03-15 21:43:16:236,-1.91845,3.20007,-9.01154,-19.5682,-11.5571,55.9116
2023-03-15 21:43:16:246,-1.9003,3.20393,-9.00152,-19.5591,-11.5625,55.9168
2023-03-15 21:43:16:256,-1.89668,3.21505,-9.02499,-19.5541,-11.5647,55.9218
2023-03-15 21:43:16:266,-1.89439,3.21396,-9.04229,-19.5482,-11.5753,55.9226
2023-03-15 21:43:16:276,-1.90466,3.21897,-9.0457,-19.542,-11.5873,55.9249
2023-03-15 21:43:16:286,-1.90202,3.21961,-9.04777,-19.5298,-11.5974,55.925
2023-03-15 21:43:16:296,-1.89809,3.18775,-8.99928,-19.5161,-11.6073,55.9234
2023-03-15 21:43:16:306,-1.88979,3.17601,-8.97366,-19.4997,-11.6205,55.9212
2023-03-15 21:43:16:316,-1.9081,3.1744,-9.00405,-19.4816,-11.6325,55.9217
2023-03-15 21:43:16:326,-1.92485,3.15228,-8.97179,-19.4637,-11.6417,55.9162
2023-03-15 21:43:16:336,-1.94457,3.1233,-8.95481,-19.4466,-11.6559,55.9118
2023-03-15 21:43:16:346,-1.95619,3.13873,-8.97919,-19.4333,-11.6703,55.906
2023-03-15 21:43:16:356,-1.95929,3.14715,-9.00021,-19.4212,-11.6857,55.8974
2023-03-15 21:43:16:366,-1.94793,3.14701,-9.00862,-19.4055,-11.7039,55.8801
2023-03-15 21:43:16:376,-1.97221,3.14078,-9.04558,-19.3922,-11.7296,55.8612
2023-03-15 21:43:16:386,-1.98814,3.15464,-9.05612,-19.3825,-11.7554,55.8361
2023-03-15 21:43:16:396,-2.00554,3.14758,-9.05541,-19.371,-11.7865,55.8103
2023-03-15 21:43:16:406,-2.01298,3.15157,-9.06809,-19.3605,-11.8162,55.7795
2023-03-15 21:43:16:416,-2.00778,3.15379,-9.071,-19.3502,-11.8478,55.742
2023-03-15 21:43:16:426,-1.98359,3.16081,-9.08825,-19.3446,-11.8759,55.7002
2023-03-15 21:43:16:436,-1.97529,3.15607,-9.08011,-19.3391,-11.9066,55.6562
2023-03-15 21:43:16:446,-1.96584,3.14621,-9.04998,-19.3328,-11.9369,55.609
2023-03-15 21:43:16:456,-1.94589,3.1283,-9.0423,-19.3337,-11.9682,55.5601
2023-03-15 21:43:16:466,-1.93334,3.13905,-9.04259,-19.3307,-11.9998,55.5116
2023-03-15 21:43:16:476,-1.90916,3.14547,-9.05302,-19.3325,-12.0301,55.4668
2023-03-15 21:43:16:486,-1.90011,3.14714,-9.03543,-19.3393,-12.0543,55.419
2023-03-15 21:43:16:496,-1.89129,3.14148,-9.0208,-19.3458,-12.0787,55.3759
2023-03-15 21:43:16:506,-1.8805,3.14568,-9.03878,-19.3533,-12.1003,55.3341
2023-03-15 21:43:16:516,-1.87501,3.17352,-9.06649,-19.3594,-12.1145,55.3
2023-03-15 21:43:16:526,-1.83059,3.18718,-9.10679,-19.3637,-12.1199,55.2687
2023-03-15 21:43:16:536,-1.78748,3.18637,-9.12038,-19.3647,-12.1234,55.2482
2023-03-15 21:43:16:546,-1.78249,3.17132,-9.05682,-19.3634,-12.1307,55.2325
2023-03-15 21:43:16:556,-1.78023,3.13458,-8.96633,-19.3657,-12.1345,55.2262
2023-03-15 21:43:16:566,-1.77437,3.13741,-8.95342,-19.3725,-12.1358,55.2258
2023-03-15 21:43:16:576,-1.81155,3.16744,-8.97599,-19.3879,-12.1367,55.2341
2023-03-15 21:43:16:586,-1.87597,3.1967,-8.99372,-19.4021,-12.1382,55.244
2023-03-15 21:43:16:596,-1.8829,3.24331,-8.99965,-19.4187,-12.1315,55.2614
2023-03-15 21:43:16:606,-1.86185,3.25909,-9.03321,-19.4355,-12.1222,55.2823
2023-03-15 21:43:16:616,-1.83595,3.25756,-9.06643,-19.4523,-12.1083,55.3063
2023-03-15 21:43:16:626,-1.82878,3.27531,-9.08331,-19.4677,-12.0973,55.3357
2023-03-15 21:43:16:636,-1.84929,3.27515,-9.0727,-19.4835,-12.0853,55.3677
2023-03-15 21:43:16:646,-1.89081,3.27116,-9.04661,-19.4998,-12.0763,55.4084
2023-03-15 21:43:16:656,-1.89416,3.28078,-9.0562,-19.5152,-12.0698,55.4499
2023-03-15 21:43:16:666,-1.8889,3.31535,-9.06511,-19.5286,-12.0629,55.4935
2023-03-15 21:43:16:676,-1.88602,3.30967,-9.0949,-19.5424,-12.0561,55.5389
2023-03-15 21:43:16:686,-1.88029,3.31338,-9.13385,-19.55,-12.0587,55.585
2023-03-15 21:43:16:696,-1.87737,3.3068,-9.14521,-19.5526,-12.0629,55.6315
2023-03-15 21:43:16:706,-1.8805,3.29858,-9.13037,-19.5558,-12.0687,55.6841
2023-03-15 21:43:16:716,-1.89408,3.28972,-9.11436,-19.552,-12.0792,55.7399
2023-03-15 21:43:16:726,-1.91814,3.27292,-9.09632,-19.5492,-12.0924,55.7995
2023-03-15 21:43:16:736,-1.9403,3.26683,-9.07553,-19.54,-12.1064,55.8617
2023-03-15 21:43:16:746,-1.97371,3.23119,-9.06746,-19.5275,-12.1209,55.9265
2023-03-15 21:43:16:756,-1.99904,3.22079,-9.08475,-19.5174,-12.1343,55.9932
2023-03-15 21:43:16:766,-2.02361,3.22121,-9.10138,-19.5041,-12.1533,56.0622
2023-03-15 21:43:16:776,-2.0548,3.21435,-9.09566,-19.4889,-12.1737,56.1324
2023-03-15 21:43:16:786,-2.07898,3.1668,-9.04355,-19.4688,-12.1903,56.2027
2023-03-15 21:43:16:796,-2.07498,3.1307,-9.03197,-19.4473,-12.2074,56.2777
2023-03-15 21:43:16:806,-2.08628,3.13355,-9.02484,-19.4274,-12.2262,56.349
2023-03-15 21:43:16:816,-2.13879,3.12621,-8.98636,-19.4049,-12.248,56.4188
2023-03-15 21:43:16:826,-2.18541,3.10113,-8.97202,-19.3853,-12.2647,56.4857
2023-03-15 21:43:16:836,-2.19685,3.09933,-8.99698,-19.3622,-12.2823,56.5498
2023-03-15 21:43:16:846,-2.18335,3.10173,-9.00792,-19.3431,-12.2993,56.6076
2023-03-15 21:43:16:856,-2.17808,3.08453,-8.98371,-19.321,-12.3132,56.6583
2023-03-15 21:43:16:867,-2.17979,3.08218,-8.95552,-19.3051,-12.3283,56.7059
2023-03-15 21:43:16:876,-2.17651,3.0674,-8.94817,-19.2868,-12.3455,56.7477
2023-03-15 21:43:16:886,-2.15586,3.04869,-8.93312,-19.2725,-12.3602,56.7843
2023-03-15 21:43:16:896,-2.14147,3.05521,-8.96106,-19.2627,-12.377,56.818
2023-03-15 21:43:16:906,-2.1162,3.08113,-8.98142,-19.2533,-12.3998,56.8464
2023-03-15 21:43:16:916,-2.10743,3.07985,-8.97063,-19.2453,-12.4187,56.8755
2023-03-15 21:43:16:926,-2.09842,3.07526,-8.96347,-19.237,-12.4382,56.8998
2023-03-15 21:43:16:936,-2.08804,3.08614,-8.9767,-19.237,-12.4578,56.9237
2023-03-15 21:43:16:946,-2.06908,3.08445,-8.9794,-19.235,-12.4781,56.9443
2023-03-15 21:43:16:956,-2.0538,3.08598,-8.96806,-19.2364,-12.4987,56.9681
2023-03-15 21:43:16:966,-2.06569,3.08657,-8.94326,-19.237,-12.5148,56.9914
2023-03-15 21:43:16:976,-2.0753,3.07257,-8.96078,-19.241,-12.5364,57.0161
2023-03-15 21:43:16:987,-2.07217,3.09611,-8.96394,-19.2483,-12.5599,57.0418
2023-03-15 21:43:16:996,-2.09179,3.11827,-8.98925,-19.2648,-12.5831,57.0683
2023-03-15 21:43:17:6,-2.09812,3.14532,-9.00579,-19.2826,-12.603,57.097
2023-03-15 21:43:17:16,-2.08792,3.16724,-9.03286,-19.2985,-12.6211,57.1275
2023-03-15 21:43:17:26,-2.09088,3.1721,-9.03667,-19.3109,-12.6356,57.1597
2023-03-15 21:43:17:36,-2.11125,3.1682,-9.02151,-19.3206,-12.6453,57.1976
2023-03-15 21:43:17:46,-2.13021,3.17242,-9.01451,-19.3324,-12.6545,57.2377
2023-03-15 21:43:17:56,-2.14757,3.17853,-9.04212,-19.3431,-12.6608,57.281
2023-03-15 21:43:17:66,-2.15201,3.18544,-9.04933,-19.3478,-12.6667,57.3236
2023-03-15 21:43:17:76,-2.17606,3.20416,-9.02248,-19.3521,-12.6689,57.3707
2023-03-15 21:43:17:86,-2.20392,3.18145,-9.02402,-19.356,-12.669,57.4184
2023-03-15 21:43:17:96,-2.22095,3.18462,-8.99658,-19.3539,-12.6675,57.4634
2023-03-15 21:43:17:106,-2.23531,3.18725,-8.97763,-19.3557,-12.6611,57.507
2023-03-15 21:43:17:116,-2.24689,3.18464,-9.00297,-19.3572,-12.6576,57.5451
2023-03-15 21:43:17:126,-2.25808,3.19171,-9.03105,-19.3629,-12.6573,57.582
2023-03-15 21:43:17:136,-2.25791,3.18019,-9.02913,-19.3673,-12.6515,57.6182
2023-03-15 21:43:17:146,-2.27573,3.16886,-9.011,-19.3678,-12.6482,57.6507
2023-03-15 21:43:17:156,-2.28137,3.16964,-9.01208,-19.3698,-12.6408,57.6766
2023-03-15 21:43:17:166,-2.29743,3.17425,-9.01689,-19.3679,-12.6329,57.701
2023-03-15 21:43:17:176,-2.31702,3.1575,-9.02529,-19.3639,-12.6247,57.7177
2023-03-15 21:43:17:186,-2.29305,3.14587,-9.06841,-19.3592,-12.6149,57.7299
2023-03-15 21:43:17:196,-2.24677,3.16424,-9.07037,-19.3475,-12.6057,57.7331
2023-03-15 21:43:17:206,-2.21552,3.13731,-9.0097,-19.336,-12.6029,57.7346
2023-03-15 21:43:17:216,-2.17613,3.08602,-8.94655,-19.3255,-12.5981,57.7322
2023-03-15 21:43:17:226,-2.16979,3.09351,-8.96418,-19.3201,-12.5967,57.7254
2023-03-15 21:43:17:236,-2.1824,3.13804,-8.98991,-19.3163,-12.6,57.714
2023-03-15 21:43:17:247,-2.21239,3.11795,-8.97262,-19.3113,-12.6044,57.7013
2023-03-15 21:43:17:256,-2.22518,3.10151,-8.93134,-19.3143,-12.6082,57.687
2023-03-15 21:43:17:266,-2.19483,3.14009,-8.95084,-19.3175,-12.6083,57.6676
2023-03-15 21:43:17:276,-2.15762,3.16121,-8.99037,-19.3267,-12.6069,57.6496
2023-03-15 21:43:17:287,-2.12443,3.16652,-8.98985,-19.3293,-12.6006,57.6279
2023-03-15 21:43:17:296,-2.10215,3.1676,-8.96623,-19.3331,-12.5895,57.6061
2023-03-15 21:43:17:307,-2.10155,3.17238,-8.96934,-19.3377,-12.5753,57.5901
2023-03-15 21:43:17:316,-2.1794,3.20615,-8.99378,-19.3418,-12.5631,57.5746
2023-03-15 21:43:17:326,-2.25573,3.25789,-9.01653,-19.3544,-12.5473,57.5579
2023-03-15 21:43:17:336,-2.34984,3.28381,-9.00838,-19.3573,-12.5319,57.5386
2023-03-15 21:43:17:346,-2.3973,3.3109,-8.98594,-19.3566,-12.5121,57.5109
2023-03-15 21:43:17:356,-2.48473,3.34014,-8.97252,-19.3555,-12.4931,57.4764
2023-03-15 21:43:17:367,-2.63552,3.36299,-8.98421,-19.3518,-12.4758,57.4343
2023-03-15 21:43:17:376,-2.82669,3.41228,-8.99674,-19.3417,-12.4654,57.3744
2023-03-15 21:43:17:386,-3.08265,3.45705,-8.99861,-19.3336,-12.4579,57.2898
2023-03-15 21:43:17:396,-3.37706,3.52438,-9.01364,-19.3179,-12.4579,57.1721
2023-03-15 21:43:17:406,-3.73786,3.63465,-9.06188,-19.2939,-12.4617,57.0134
2023-03-15 21:43:17:416,-4.35824,3.76311,-9.13624,-19.2546,-12.4813,56.7885
2023-03-15 21:43:17:427,-5.09838,3.95452,-9.22224,-19.1925,-12.5201,56.4752
2023-03-15 21:43:17:436,-5.57279,4.09988,-9.19368,-19.0924,-12.5837,56.0397
2023-03-15 21:43:17:447,-5.55525,4.05755,-8.97664,-18.9489,-12.6687,55.4572
2023-03-15 21:43:17:456,-5.20816,3.90248,-8.74056,-18.7793,-12.7798,54.7345
2023-03-15 21:43:17:467,-4.85081,3.80025,-8.64923,-18.5971,-12.9244,53.8852
2023-03-15 21:43:17:476,-4.52043,3.81759,-8.65868,-18.4056,-13.1005,52.9273
2023-03-15 21:43:17:486,-4.12382,3.77851,-8.67648,-18.2023,-13.2936,51.8674
2023-03-15 21:43:17:496,-3.728,3.69394,-8.68758,-17.9844,-13.4927,50.7344
2023-03-15 21:43:17:506,-3.33909,3.66139,-8.75274,-17.7582,-13.6877,49.5424
2023-03-15 21:43:17:516,-2.97231,3.58257,-8.82596,-17.5231,-13.8695,48.3153
2023-03-15 21:43:17:527,-2.64415,3.45583,-8.85447,-17.2794,-14.0268,47.0642
2023-03-15 21:43:17:536,-2.34552,3.36326,-8.88877,-17.0331,-14.1645,45.8047
2023-03-15 21:43:17:547,-2.06362,3.25577,-8.9018,-16.7799,-14.2792,44.556
2023-03-15 21:43:17:556,-1.80393,3.13275,-8.89043,-16.527,-14.3706,43.3273
2023-03-15 21:43:17:566,-1.56478,3.05046,-8.89933,-16.2832,-14.4379,42.1366
2023-03-15 21:43:17:576,-1.30764,2.92175,-8.91889,-16.0428,-14.4785,40.9869
2023-03-15 21:43:17:586,-1.05282,2.78371,-8.92191,-15.8159,-14.496,39.8949
2023-03-15 21:43:17:596,-0.807075,2.68502,-8.95652,-15.6023,-14.4922,38.8688
2023-03-15 21:43:17:606,-0.627942,2.6103,-9.03908,-15.4041,-14.458,37.925
2023-03-15 21:43:17:616,-0.543921,2.53518,-9.08527,-15.2224,-14.402,37.0654
2023-03-15 21:43:17:626,-0.532929,2.43318,-9.13057,-15.0598,-14.3215,36.2962
2023-03-15 21:43:17:636,-0.582325,2.38559,-9.18524,-14.911,-14.2238,35.6133
2023-03-15 21:43:17:646,-0.674203,2.34888,-9.231,-14.7792,-14.111,35.0109
2023-03-15 21:43:17:656,-0.745709,2.30633,-9.22469,-14.6623,-13.9886,34.4806
2023-03-15 21:43:17:666,-0.798174,2.25669,-9.17122,-14.5554,-13.8608,34.0154
2023-03-15 21:43:17:676,-0.863917,2.21656,-9.12237,-14.4667,-13.7355,33.6124
2023-03-15 21:43:17:686,-0.950247,2.20044,-9.09721,-14.3963,-13.6151,33.2628
2023-03-15 21:43:17:696,-1.03339,2.19792,-9.08626,-14.3435,-13.5011,32.9601
2023-03-15 21:43:17:706,-1.13356,2.19559,-9.08147,-14.3051,-13.3923,32.7001
2023-03-15 21:43:17:716,-1.22958,2.21555,-9.08617,-14.2857,-13.2953,32.4753
2023-03-15 21:43:17:726,-1.29766,2.24563,-9.121,-14.2756,-13.2081,32.2806
2023-03-15 21:43:17:736,-1.38114,2.27819,-9.13644,-14.2793,-13.1393,32.1123
2023-03-15 21:43:17:747,-1.45261,2.31166,-9.15867,-14.2943,-13.0814,31.9689
2023-03-15 21:43:17:756,-1.49539,2.34954,-9.19209,-14.3139,-13.0264,31.8395
2023-03-15 21:43:17:766,-1.56366,2.37356,-9.21284,-14.3352,-12.9791,31.728
2023-03-15 21:43:17:776,-1.65521,2.39946,-9.22768,-14.3618,-12.936,31.6318
2023-03-15 21:43:17:786,-1.73059,2.43263,-9.25586,-14.3896,-12.899,31.5484
2023-03-15 21:43:17:796,-1.78249,2.45805,-9.28362,-14.4164,-12.8636,31.4761
2023-03-15 21:43:17:806,-1.84054,2.46806,-9.30376,-14.4435,-12.8309,31.4123
2023-03-15 21:43:17:816,-1.86832,2.4601,-9.31577,-14.4697,-12.7966,31.3545
2023-03-15 21:43:17:826,-1.88005,2.46284,-9.33358,-14.4895,-12.7603,31.3004
2023-03-15 21:43:17:836,-1.90201,2.47703,-9.32231,-14.5097,-12.7222,31.2557
2023-03-15 21:43:17:847,-1.9148,2.44718,-9.3144,-14.5253,-12.6826,31.2174
2023-03-15 21:43:17:856,-1.92629,2.41709,-9.30618,-14.5398,-12.6379,31.1839
2023-03-15 21:43:17:866,-1.94102,2.43022,-9.30747,-14.5468,-12.5938,31.1581
2023-03-15 21:43:17:876,-1.97795,2.40841,-9.31671,-14.5521,-12.5519,31.1363
2023-03-15 21:43:17:887,-1.99133,2.4002,-9.36084,-14.5573,-12.5091,31.1188
2023-03-15 21:43:17:896,-1.97923,2.39781,-9.39049,-14.5569,-12.4722,31.0957
2023-03-15 21:43:17:906,-1.88571,2.37583,-9.3671,-14.5584,-12.4387,31.0723
2023-03-15 21:43:17:916,-1.65071,2.32398,-9.34713,-14.5526,-12.4103,31.0553
2023-03-15 21:43:17:926,-1.30264,2.31152,-9.40248,-14.5522,-12.3872,31.0498
2023-03-15 21:43:17:936,-0.928376,2.31434,-9.49323,-14.5541,-12.3796,31.0732
2023-03-15 21:43:17:946,-0.72049,2.28127,-9.49052,-14.5587,-12.3867,31.1446
2023-03-15 21:43:17:956,-0.68315,2.23367,-9.38598,-14.5705,-12.4058,31.2636
2023-03-15 21:43:17:966,-0.715247,2.16997,-9.28794,-14.5928,-12.4323,31.4369
2023-03-15 21:43:17:976,-0.763754,2.15664,-9.23454,-14.6279,-12.4575,31.659
2023-03-15 21:43:17:986,-0.797956,2.15719,-9.21463,-14.6792,-12.4718,31.9316
2023-03-15 21:43:17:996,-0.786537,2.15161,-9.24174,-14.7443,-12.4664,32.2539
2023-03-15 21:43:18:6,-0.711615,2.17031,-9.26396,-14.8189,-12.4395,32.6292
2023-03-15 21:43:18:16,-0.582506,2.20781,-9.32636,-14.902,-12.3894,33.057
2023-03-15 21:43:18:26,-0.392637,2.26477,-9.42407,-14.9937,-12.3208,33.5446
2023-03-15 21:43:18:36,-0.126323,2.31175,-9.5226,-15.0898,-12.2316,34.0998
2023-03-15 21:43:18:46,0.0435657,2.39622,-9.55685,-15.1856,-12.1173,34.7305
2023-03-15 21:43:18:56,-0.0102401,2.44445,-9.51629,-15.2817,-11.9866,35.4415
2023-03-15 21:43:18:67,-0.210286,2.46746,-9.40111,-15.3818,-11.8391,36.2309
2023-03-15 21:43:18:76,-0.483678,2.52939,-9.32942,-15.4882,-11.6823,37.0873
2023-03-15 21:43:18:86,-0.774923,2.58654,-9.26215,-15.5996,-11.521,37.9957
2023-03-15 21:43:18:96,-1.06697,2.64217,-9.18471,-15.716,-11.3519,38.9418
2023-03-15 21:43:18:107,-1.36727,2.69652,-9.12586,-15.8391,-11.1804,39.907
2023-03-15 21:43:18:116,-1.67523,2.74356,-9.13149,-15.9637,-11.0107,40.8823
2023-03-15 21:43:18:126,-1.9124,2.79444,-9.16327,-16.0906,-10.8404,41.8551
2023-03-15 21:43:18:136,-2.12412,2.85344,-9.16225,-16.2145,-10.6744,42.8082
2023-03-15 21:43:18:147,-2.3274,2.87995,-9.12253,-16.3331,-10.5129,43.739
2023-03-15 21:43:18:156,-2.49046,2.87921,-9.07449,-16.4532,-10.3608,44.6378
2023-03-15 21:43:18:166,-2.61318,2.88854,-9.04315,-16.5729,-10.2192,45.4901
2023-03-15 21:43:18:176,-2.72239,2.91224,-9.02062,-16.6909,-10.0904,46.2918
2023-03-15 21:43:18:186,-2.81573,2.91297,-8.994,-16.8086,-9.97766,47.0408
2023-03-15 21:43:18:196,-2.87837,2.8969,-8.963,-16.9272,-9.88365,47.7287
2023-03-15 21:43:18:206,-2.87939,2.90629,-8.95167,-17.0415,-9.80482,48.3595
2023-03-15 21:43:18:216,-2.85117,2.918,-8.94172,-17.1566,-9.73675,48.9278
2023-03-15 21:43:18:226,-2.8211,2.89404,-8.94215,-17.27,-9.67367,49.4335
2023-03-15 21:43:18:236,-2.75245,2.86309,-8.91561,-17.3916,-9.6278,49.8822
2023-03-15 21:43:18:246,-2.66407,2.88733,-8.88549,-17.5127,-9.5946,50.2753
2023-03-15 21:43:18:256,-2.63908,3.11938,-9.15051,-17.628,-9.53191,50.6161
2023-03-15 21:43:18:266,-2.30956,2.96293,-9.04068,-17.7281,-9.48535,50.9115
2023-03-15 21:43:18:276,-2.22717,3.00406,-9.04459,-17.8377,-9.42376,51.1677
2023-03-15 21:43:18:286,-2.19988,3.11077,-9.17055,-17.9431,-9.3788,51.3845
2023-03-15 21:43:18:296,-1.87181,3.08197,-9.16132,-18.0431,-9.33607,51.5708
2023-03-15 21:43:18:306,-1.74765,3.05253,-9.0564,-18.1499,-9.30719,51.7393
2023-03-15 21:43:18:316,-1.76938,3.18297,-9.17833,-18.2524,-9.28023,51.8934
2023-03-15 21:43:18:326,-1.65142,3.15824,-9.15865,-18.3549,-9.26342,52.0349
2023-03-15 21:43:18:336,-1.54329,3.159,-9.11961,-18.4571,-9.24686,52.1636
2023-03-15 21:43:18:346,-1.54133,3.22662,-9.15665,-18.5629,-9.23153,52.2891
2023-03-15 21:43:18:356,-1.5146,3.25003,-9.19876,-18.6626,-9.21233,52.4115
2023-03-15 21:43:18:366,-1.47436,3.2858,-9.22071,-18.7564,-9.19231,52.5312
2023-03-15 21:43:18:376,-1.4714,3.3282,-9.25204,-18.8438,-9.16764,52.6524
2023-03-15 21:43:18:386,-1.48884,3.32557,-9.20809,-18.9249,-9.13875,52.7723
2023-03-15 21:43:18:396,-1.50337,3.32891,-9.19059,-19.0036,-9.10493,52.8907
2023-03-15 21:43:18:406,-1.49549,3.36116,-9.20772,-19.0771,-9.0641,53.0105
2023-03-15 21:43:18:416,-1.46587,3.38977,-9.19145,-19.1476,-9.02366,53.133
2023-03-15 21:43:18:426,-1.45852,3.40055,-9.15563,-19.2165,-8.97751,53.2465
2023-03-15 21:43:18:436,-1.46271,3.4091,-9.1282,-19.2806,-8.93341,53.3623
2023-03-15 21:43:18:446,-1.48102,3.4143,-9.10742,-19.3428,-8.88626,53.4738
2023-03-15 21:43:18:456,-1.5045,3.43332,-9.11425,-19.4041,-8.84074,53.585
2023-03-15 21:43:18:466,-1.52914,3.43709,-9.08107,-19.4676,-8.79647,53.692
2023-03-15 21:43:18:476,-1.54678,3.45423,-9.08227,-19.5291,-8.74572,53.7901
2023-03-15 21:43:18:486,-1.55338,3.42253,-9.06476,-19.5911,-8.70758,53.8776
2023-03-15 21:43:18:496,-1.55457,3.46574,-9.09158,-19.6485,-8.66322,53.9573
2023-03-15 21:43:18:506,-1.50254,3.49583,-9.13247,-19.704,-8.62481,54.0251
2023-03-15 21:43:18:516,-1.47391,3.50689,-9.14499,-19.7507,-8.59032,54.0894
2023-03-15 21:43:18:526,-1.4177,3.48078,-9.11404,-19.7993,-8.56391,54.1446
2023-03-15 21:43:18:536,-1.39619,3.53718,-9.16105,-19.839,-8.53593,54.1942
2023-03-15 21:43:18:546,-1.37865,3.51947,-9.13055,-19.8751,-8.51004,54.2448
2023-03-15 21:43:18:556,-1.36278,3.49096,-9.09608,-19.9087,-8.48485,54.2914
2023-03-15 21:43:18:566,-1.37304,3.50447,-9.11171,-19.9398,-8.46579,54.3341
2023-03-15 21:43:18:576,-1.39127,3.51386,-9.12008,-19.9694,-8.44775,54.3752
2023-03-15 21:43:18:586,-1.39903,3.50212,-9.11353,-19.9998,-8.43646,54.4133
2023-03-15 21:43:18:596,-1.38366,3.5035,-9.13269,-20.0259,-8.42598,54.4459
2023-03-15 21:43:18:606,-1.37054,3.50027,-9.13525,-20.0464,-8.42284,54.4765
2023-03-15 21:43:18:616,-1.35605,3.49812,-9.13473,-20.0644,-8.41883,54.5033
2023-03-15 21:43:18:626,-1.32737,3.48617,-9.14829,-20.0735,-8.41254,54.5308
2023-03-15 21:43:18:636,-1.27139,3.46608,-9.18821,-20.0801,-8.41097,54.5565
2023-03-15 21:43:18:646,-1.24722,3.47033,-9.21072,-20.0777,-8.4104,54.5837
2023-03-15 21:43:18:656,-1.24157,3.45422,-9.16785,-20.0706,-8.40525,54.6125
2023-03-15 21:43:18:666,-1.2344,3.40734,-9.07387,-20.0659,-8.4037,54.6476
2023-03-15 21:43:18:676,-1.23306,3.39289,-9.02415,-20.0612,-8.40286,54.6832
2023-03-15 21:43:18:686,-1.2921,3.40884,-9.03237,-20.0635,-8.4052,54.7236
2023-03-15 21:43:18:696,-1.37047,3.4257,-9.03457,-20.0738,-8.41498,54.7629
2023-03-15 21:43:18:706,-1.41254,3.42841,-9.04453,-20.0828,-8.42673,54.8037
2023-03-15 21:43:18:716,-1.42077,3.44886,-9.08488,-20.0924,-8.434,54.8353
2023-03-15 21:43:18:726,-1.38815,3.47398,-9.14557,-20.0997,-8.44501,54.8702
2023-03-15 21:43:18:736,-1.36502,3.49025,-9.15749,-20.1038,-8.45546,54.9036
2023-03-15 21:43:18:746,-1.3704,3.48332,-9.12973,-20.1052,-8.46713,54.9375
2023-03-15 21:43:18:756,-1.36722,3.48072,-9.09314,-20.1054,-8.48347,54.9734
2023-03-15 21:43:18:766,-1.37835,3.46335,-9.06851,-20.1039,-8.49697,55.0066
2023-03-15 21:43:18:776,-1.40348,3.46218,-9.06338,-20.0999,-8.51261,55.0447
2023-03-15 21:43:18:786,-1.43084,3.46054,-9.05643,-20.0972,-8.53178,55.0829
2023-03-15 21:43:18:796,-1.44197,3.45808,-9.06206,-20.0938,-8.55265,55.1181
2023-03-15 21:43:18:806,-1.49076,3.44283,-9.07154,-20.0863,-8.57314,55.151
2023-03-15 21:43:18:816,-1.52783,3.45202,-9.08459,-20.0743,-8.59355,55.1824
2023-03-15 21:43:18:826,-1.53849,3.43671,-9.10314,-20.0616,-8.61897,55.2123
2023-03-15 21:43:18:836,-1.55417,3.42354,-9.12581,-20.0469,-8.64266,55.236
2023-03-15 21:43:18:846,-1.55786,3.39589,-9.1143,-20.0254,-8.66477,55.2574
2023-03-15 21:43:18:856,-1.5625,3.39624,-9.09997,-20.0077,-8.69089,55.2773
2023-03-15 21:43:18:867,-1.55627,3.39038,-9.11136,-19.9839,-8.71864,55.2951
2023-03-15 21:43:18:876,-1.56579,3.38566,-9.13031,-19.9634,-8.74446,55.3091
2023-03-15 21:43:18:886,-1.57583,3.35962,-9.12804,-19.9404,-8.76835,55.3231
2023-03-15 21:43:18:896,-1.59682,3.36308,-9.11518,-19.9133,-8.79541,55.333
2023-03-15 21:43:18:906,-1.59697,3.32189,-9.07155,-19.8861,-8.82073,55.3426
2023-03-15 21:43:18:916,-1.61562,3.29341,-9.06245,-19.8619,-8.84752,55.3511
2023-03-15 21:43:18:926,-1.63634,3.29682,-9.06696,-19.8344,-8.87687,55.3569
2023-03-15 21:43:18:936,-1.66686,3.28216,-9.06307,-19.8096,-8.90624,55.3626
2023-03-15 21:43:18:946,-1.6931,3.27907,-9.05646,-19.7848,-8.93435,55.36
2023-03-15 21:43:18:956,-1.68553,3.29245,-9.08866,-19.7588,-8.95999,55.3551
2023-03-15 21:43:18:966,-1.66138,3.28966,-9.09847,-19.7341,-8.98133,55.3452
2023-03-15 21:43:18:976,-1.63603,3.26547,-9.1073,-19.7055,-9.00103,55.3328
2023-03-15 21:43:18:986,-1.60434,3.25348,-9.10432,-19.6722,-9.01998,55.3189
2023-03-15 21:43:18:996,-1.5747,3.23659,-9.10341,-19.642,-9.03472,55.3069
2023-03-15 21:43:19:6,-1.53401,3.22854,-9.08918,-19.6135,-9.04663,55.2972
2023-03-15 21:43:19:16,-1.53164,3.23051,-9.10343,-19.5814,-9.05796,55.2919
2023-03-15 21:43:19:26,-1.53454,3.22259,-9.101,-19.5486,-9.06643,55.2856
2023-03-15 21:43:19:36,-1.55078,3.19954,-9.08587,-19.5191,-9.07216,55.2841
2023-03-15 21:43:19:46,-1.56747,3.18787,-9.09042,-19.4906,-9.07969,55.282
2023-03-15 21:43:19:56,-1.56958,3.17663,-9.09156,-19.46,-9.08873,55.2833
2023-03-15 21:43:19:67,-1.60495,3.17849,-9.07748,-19.4356,-9.09812,55.2857
2023-03-15 21:43:19:76,-1.59632,3.19092,-9.11902,-19.4092,-9.10796,55.2861
2023-03-15 21:43:19:86,-1.571,3.17665,-9.12043,-19.3837,-9.11626,55.2839
2023-03-15 21:43:19:96,-1.57346,3.17675,-9.14905,-19.3546,-9.12477,55.2818
2023-03-15 21:43:19:106,-1.57045,3.17669,-9.16695,-19.3268,-9.13463,55.2775
2023-03-15 21:43:19:116,-1.55928,3.17816,-9.15513,-19.3007,-9.14664,55.2802
2023-03-15 21:43:19:126,-1.54806,3.17044,-9.15732,-19.2695,-9.15313,55.2852
2023-03-15 21:43:19:136,-1.53837,3.16171,-9.14748,-19.2393,-9.15815,55.2924
2023-03-15 21:43:19:146,-1.53632,3.13384,-9.12204,-19.2052,-9.16134,55.3014
2023-03-15 21:43:19:156,-1.5422,3.109,-9.08948,-19.1719,-9.15918,55.3141
2023-03-15 21:43:19:166,-1.5587,3.09414,-9.07129,-19.1399,-9.1609,55.3244
2023-03-15 21:43:19:176,-1.57361,3.08249,-9.05169,-19.1099,-9.16341,55.3413
2023-03-15 21:43:19:186,-1.5903,3.05871,-9.06789,-19.0826,-9.16479,55.3565
2023-03-15 21:43:19:196,-1.60246,3.0557,-9.08382,-19.0544,-9.16813,55.3732
2023-03-15 21:43:19:206,-1.59198,3.06655,-9.10232,-19.0268,-9.1663,55.387
2023-03-15 21:43:19:216,-1.58881,3.05988,-9.10394,-19.0022,-9.16381,55.3969
2023-03-15 21:43:19:226,-1.61506,3.02419,-9.09416,-18.9772,-9.16121,55.4098
2023-03-15 21:43:19:236,-1.62332,3.00856,-9.07298,-18.9558,-9.15842,55.4205
2023-03-15 21:43:19:247,-1.59999,3.01238,-9.05676,-18.9364,-9.14926,55.4287
2023-03-15 21:43:19:256,-1.58553,3.01105,-9.07297,-18.9219,-9.14331,55.4367
2023-03-15 21:43:19:266,-1.55981,3.03332,-9.08837,-18.9082,-9.13675,55.4473
2023-03-15 21:43:19:276,-1.53805,3.04901,-9.10239,-18.8956,-9.12841,55.456
2023-03-15 21:43:19:286,-1.53823,3.06085,-9.09482,-18.8826,-9.12143,55.4601
2023-03-15 21:43:19:296,-1.54984,3.05953,-9.10021,-18.874,-9.11641,55.4691
2023-03-15 21:43:19:306,-1.544,3.06547,-9.10922,-18.868,-9.11234,55.4731
2023-03-15 21:43:19:316,-1.55849,3.07077,-9.12801,-18.8643,-9.10302,55.4791
2023-03-15 21:43:19:326,-1.59224,3.06689,-9.1515,-18.8603,-9.09297,55.4849
2023-03-15 21:43:19:336,-1.57554,3.05929,-9.16032,-18.8587,-9.08049,55.4904
2023-03-15 21:43:19:346,-1.54914,3.08796,-9.15498,-18.8552,-9.06189,55.4924
2023-03-15 21:43:19:356,-1.50578,3.10975,-9.19124,-18.8535,-9.04399,55.4954
2023-03-15 21:43:19:366,-1.47859,3.10226,-9.19636,-18.8489,-9.02609,55.496
2023-03-15 21:43:19:376,-1.46787,3.08729,-9.18414,-18.8371,-9.00808,55.4973
2023-03-15 21:43:19:386,-1.44847,3.07499,-9.15872,-18.8278,-8.98694,55.5022
2023-03-15 21:43:19:396,-1.43076,3.06728,-9.14077,-18.8178,-8.96196,55.5081
2023-03-15 21:43:19:406,-1.42052,3.05198,-9.13885,-18.8091,-8.94041,55.5152
2023-03-15 21:43:19:416,-1.42176,3.06186,-9.16924,-18.8028,-8.91926,55.5226
2023-03-15 21:43:19:426,-1.41885,3.06686,-9.20638,-18.7886,-8.89757,55.529
2023-03-15 21:43:19:436,-1.37064,3.05085,-9.2163,-18.7757,-8.86841,55.5392
2023-03-15 21:43:19:446,-1.33474,3.02785,-9.15464,-18.7606,-8.84754,55.5497
2023-03-15 21:43:19:456,-1.29411,2.98371,-9.0801,-18.7519,-8.82231,55.5639
2023-03-15 21:43:19:466,-1.28916,2.98409,-9.05199,-18.7477,-8.80067,55.5834
2023-03-15 21:43:19:476,-1.32191,3.02044,-9.08859,-18.7515,-8.78606,55.604
2023-03-15 21:43:19:486,-1.36101,3.05621,-9.12497,-18.7589,-8.76965,55.6267
2023-03-15 21:43:19:496,-1.3609,3.07875,-9.11331,-18.7698,-8.74848,55.6511
2023-03-15 21:43:19:506,-1.33932,3.08483,-9.12639,-18.7845,-8.72345,55.674
2023-03-15 21:43:19:516,-1.27977,3.09415,-9.16999,-18.801,-8.70229,55.6983
2023-03-15 21:43:19:526,-1.24061,3.12425,-9.18837,-18.8185,-8.6821,55.7285
2023-03-15 21:43:19:536,-1.22979,3.14639,-9.186,-18.8373,-8.65752,55.763
2023-03-15 21:43:19:546,-1.24694,3.15767,-9.1681,-18.8544,-8.63199,55.805
2023-03-15 21:43:19:556,-1.25539,3.16074,-9.15367,-18.8737,-8.61136,55.8535
2023-03-15 21:43:19:566,-1.2644,3.16904,-9.14794,-18.8879,-8.58747,55.8999
2023-03-15 21:43:19:576,-1.28491,3.19,-9.13127,-18.9055,-8.56472,55.9525
2023-03-15 21:43:19:586,-1.30352,3.20313,-9.13383,-18.9243,-8.54403,56.0069
2023-03-15 21:43:19:596,-1.31119,3.21379,-9.15376,-18.9399,-8.52247,56.0631
2023-03-15 21:43:19:606,-1.32123,3.23314,-9.18954,-18.9525,-8.50384,56.1194
2023-03-15 21:43:19:616,-1.3231,3.20795,-9.19281,-18.9595,-8.48836,56.1744
2023-03-15 21:43:19:626,-1.33687,3.19342,-9.16386,-18.9665,-8.46986,56.2332
2023-03-15 21:43:19:636,-1.36003,3.19857,-9.14847,-18.9758,-8.45995,56.2883
2023-03-15 21:43:19:646,-1.36258,3.18369,-9.13555,-18.9837,-8.45097,56.3437
2023-03-15 21:43:19:656,-1.38568,3.17873,-9.1529,-18.9936,-8.44524,56.3982
2023-03-15 21:43:19:666,-1.41145,3.20424,-9.19049,-18.9999,-8.44054,56.4498
2023-03-15 21:43:19:676,-1.41501,3.2051,-9.20376,-19.0053,-8.43797,56.5002
2023-03-15 21:43:19:686,-1.42862,3.21355,-9.18784,-19.0113,-8.43637,56.5468
2023-03-15 21:43:19:696,-1.42567,3.20022,-9.17125,-19.0152,-8.43975,56.5866
2023-03-15 21:43:19:706,-1.43172,3.19859,-9.16339,-19.0209,-8.44152,56.6277
2023-03-15 21:43:19:716,-1.43926,3.20845,-9.16287,-19.0268,-8.4465,56.6647
2023-03-15 21:43:19:726,-1.44773,3.20979,-9.16522,-19.0299,-8.45305,56.6974
2023-03-15 21:43:19:736,-1.45565,3.20427,-9.15351,-19.0303,-8.4587,56.7296
2023-03-15 21:43:19:746,-1.46042,3.20497,-9.1348,-19.0355,-8.46591,56.7617
2023-03-15 21:43:19:756,-1.46223,3.1888,-9.13226,-19.036,-8.47434,56.7862
2023-03-15 21:43:19:766,-1.4484,3.19187,-9.11903,-19.0404,-8.48468,56.8103
2023-03-15 21:43:19:776,-1.41818,3.20534,-9.12015,-19.0433,-8.49152,56.8249
2023-03-15 21:43:19:786,-1.41174,3.2177,-9.10916,-19.048,-8.50098,56.8425
2023-03-15 21:43:19:796,-1.42023,3.21312,-9.1303,-19.0491,-8.51253,56.8559
2023-03-15 21:43:19:806,-1.42586,3.21417,-9.11865,-19.0509,-8.51916,56.8732
2023-03-15 21:43:19:816,-1.40918,3.2013,-9.11437,-19.051,-8.52894,56.8884
2023-03-15 21:43:19:826,-1.40411,3.19856,-9.12658,-19.0549,-8.54511,56.9036
2023-03-15 21:43:19:836,-1.41241,3.18506,-9.16157,-19.0603,-8.56049,56.916
2023-03-15 21:43:19:846,-1.43215,3.17985,-9.16037,-19.0597,-8.57908,56.9305
2023-03-15 21:43:19:856,-1.4482,3.18538,-9.15138,-19.063,-8.59714,56.9465
2023-03-15 21:43:19:866,-1.45275,3.19154,-9.13104,-19.0634,-8.6155,56.9618
2023-03-15 21:43:19:876,-1.44102,3.20533,-9.13083,-19.0692,-8.63206,56.974
2023-03-15 21:43:19:886,-1.42781,3.20543,-9.13998,-19.0731,-8.64724,56.9859
2023-03-15 21:43:19:896,-1.41528,3.20066,-9.14553,-19.073,-8.66376,57.001
2023-03-15 21:43:19:906,-1.42195,3.19552,-9.11598,-19.0728,-8.67884,57.0187
2023-03-15 21:43:19:916,-1.43645,3.19549,-9.10852,-19.0752,-8.69545,57.0367
2023-03-15 21:43:19:926,-1.45792,3.19815,-9.11642,-19.0789,-8.70741,57.0589
2023-03-15 21:43:19:936,-1.46521,3.19964,-9.10857,-19.0812,-8.71932,57.0821
2023-03-15 21:43:19:946,-1.50238,3.1896,-9.12005,-19.0844,-8.73011,57.1081
2023-03-15 21:43:19:956,-1.52442,3.19992,-9.12126,-19.089,-8.74082,57.1358
2023-03-15 21:43:19:966,-1.54073,3.20631,-9.09263,-19.0907,-8.74581,57.1629
2023-03-15 21:43:19:976,-1.55529,3.19896,-9.08774,-19.0974,-8.75509,57.1837
2023-03-15 21:43:19:986,-1.56079,3.18933,-9.08926,-19.103,-8.76254,57.2041
2023-03-15 21:43:19:996,-1.58594,3.21331,-9.08692,-19.1083,-8.77053,57.2231
2023-03-15 21:43:20:6,-1.57872,3.21878,-9.08548,-19.1148,-8.77381,57.2381
2023-03-15 21:43:20:16,-1.58099,3.22599,-9.11528,-19.119,-8.77755,57.2519
2023-03-15 21:43:20:26,-1.5716,3.25163,-9.15072,-19.1203,-8.78103,57.26
2023-03-15 21:43:20:36,-1.55173,3.24228,-9.15763,-19.1183,-8.78405,57.2636
2023-03-15 21:43:20:46,-1.5469,3.25107,-9.15058,-19.1186,-8.78769,57.2674
2023-03-15 21:43:20:56,-1.53936,3.24889,-9.13246,-19.1158,-8.78743,57.2647
2023-03-15 21:43:20:66,-1.53697,3.23613,-9.10362,-19.1131,-8.7851,57.2658
2023-03-15 21:43:20:76,-1.53315,3.23859,-9.09596,-19.1103,-8.78278,57.2626
2023-03-15 21:43:20:86,-1.53461,3.2268,-9.11877,-19.1056,-8.78868,57.2592
2023-03-15 21:43:20:96,-1.53308,3.23946,-9.13946,-19.101,-8.78861,57.2534
2023-03-15 21:43:20:106,-1.53569,3.25684,-9.16265,-19.0955,-8.79016,57.2478
2023-03-15 21:43:20:116,-1.52802,3.24193,-9.17207,-19.0877,-8.79473,57.2403
2023-03-15 21:43:20:126,-1.52496,3.24591,-9.15622,-19.078,-8.79805,57.2319
2023-03-15 21:43:20:136,-1.53156,3.22467,-9.15401,-19.0676,-8.80021,57.2219
2023-03-15 21:43:20:146,-1.53292,3.21259,-9.15134,-19.0558,-8.80017,57.2113
2023-03-15 21:43:20:156,-1.54716,3.20483,-9.14815,-19.0401,-8.79558,57.2039
2023-03-15 21:43:20:166,-1.54852,3.17718,-9.1273,-19.0228,-8.79457,57.1965
2023-03-15 21:43:20:176,-1.54029,3.16416,-9.09024,-19.0061,-8.79006,57.187
2023-03-15 21:43:20:186,-1.5545,3.16756,-9.10585,-18.9943,-8.78993,57.1767
2023-03-15 21:43:20:196,-1.57081,3.17192,-9.13191,-18.983,-8.78761,57.1691
2023-03-15 21:43:20:206,-1.57123,3.15542,-9.17199,-18.9658,-8.78492,57.1548
2023-03-15 21:43:20:216,-1.54188,3.14355,-9.21452,-18.946,-8.78426,57.1411
2023-03-15 21:43:20:226,-1.52159,3.14843,-9.17532,-18.9229,-8.78487,57.12
2023-03-15 21:43:20:236,-1.50273,3.08489,-9.07976,-18.8987,-8.78303,57.102
2023-03-15 21:43:20:246,-1.48907,3.05165,-9.05563,-18.8807,-8.77981,57.0852
2023-03-15 21:43:20:256,-1.51639,3.08415,-9.10217,-18.8705,-8.77882,57.0653
2023-03-15 21:43:20:266,-1.56729,3.10947,-9.11159,-18.8624,-8.77883,57.044
2023-03-15 21:43:20:276,-1.56919,3.1003,-9.11534,-18.8564,-8.77871,57.0229
2023-03-15 21:43:20:286,-1.54552,3.10438,-9.10716,-18.8493,-8.77462,56.9961
2023-03-15 21:43:20:296,-1.51551,3.11457,-9.10819,-18.8452,-8.76362,56.9666
2023-03-15 21:43:20:306,-1.45244,3.12532,-9.13056,-18.8422,-8.75379,56.9343
2023-03-15 21:43:20:316,-1.39475,3.16167,-9.15131,-18.8428,-8.74515,56.9047
2023-03-15 21:43:20:326,-1.39758,3.18392,-9.1552,-18.8419,-8.73341,56.8759
2023-03-15 21:43:20:336,-1.40963,3.17579,-9.14895,-18.8426,-8.72605,56.8514
2023-03-15 21:43:20:346,-1.40571,3.17689,-9.1305,-18.8392,-8.71725,56.8308
2023-03-15 21:43:20:356,-1.40793,3.17015,-9.14172,-18.8353,-8.70543,56.811
2023-03-15 21:43:20:366,-1.41613,3.16136,-9.14881,-18.83,-8.69268,56.7929
2023-03-15 21:43:20:376,-1.41696,3.15591,-9.1685,-18.8216,-8.6755,56.7781
2023-03-15 21:43:20:386,-1.41539,3.1516,-9.16638,-18.8122,-8.65876,56.7641
2023-03-15 21:43:20:396,-1.41601,3.13518,-9.1439,-18.8007,-8.63953,56.7488
2023-03-15 21:43:20:406,-1.41145,3.14049,-9.13123,-18.7881,-8.61825,56.7336
2023-03-15 21:43:20:416,-1.39922,3.12758,-9.13202,-18.7801,-8.59605,56.7189
2023-03-15 21:43:20:426,-1.39343,3.1234,-9.12386,-18.7698,-8.57953,56.7035
2023-03-15 21:43:20:436,-1.39234,3.12133,-9.13108,-18.7638,-8.56748,56.689
2023-03-15 21:43:20:446,-1.40389,3.12054,-9.16074,-18.7555,-8.55512,56.6737
2023-03-15 21:43:20:456,-1.40403,3.12451,-9.186,-18.7487,-8.54825,56.6586
2023-03-15 21:43:20:466,-1.40934,3.1274,-9.19611,-18.7415,-8.53925,56.6415
2023-03-15 21:43:20:476,-1.43381,3.11925,-9.1601,-18.7352,-8.53044,56.6238
2023-03-15 21:43:20:486,-1.41832,3.10922,-9.14098,-18.7304,-8.52297,56.6049
2023-03-15 21:43:20:496,-1.3867,3.12878,-9.14441,-18.7226,-8.51566,56.5808
2023-03-15 21:43:20:506,-1.38102,3.11778,-9.13614,-18.7149,-8.50547,56.5577
2023-03-15 21:43:20:516,-1.38165,3.09173,-9.12399,-18.7125,-8.4974,56.5346
2023-03-15 21:43:20:526,-1.37983,3.10816,-9.11467,-18.7105,-8.4951,56.5096
2023-03-15 21:43:20:536,-1.36034,3.12465,-9.15003,-18.709,-8.49058,56.4849
2023-03-15 21:43:20:546,-1.31774,3.15367,-9.17317,-18.7066,-8.48093,56.4586
2023-03-15 21:43:20:556,-1.29553,3.16304,-9.19748,-18.7026,-8.47493,56.4371
2023-03-15 21:43:20:566,-1.30008,3.14491,-9.19734,-18.6994,-8.47016,56.4179
2023-03-15 21:43:20:576,-1.28631,3.14389,-9.1853,-18.6923,-8.45973,56.4034
2023-03-15 21:43:20:586,-1.28905,3.11938,-9.18295,-18.6855,-8.44777,56.3952
2023-03-15 21:43:20:596,-1.30212,3.1132,-9.17297,-18.6806,-8.43641,56.3893
2023-03-15 21:43:20:606,-1.32192,3.10994,-9.17835,-18.674,-8.42389,56.3855
2023-03-15 21:43:20:616,-1.33119,3.09741,-9.16049,-18.6632,-8.41089,56.382
2023-03-15 21:43:20:626,-1.34354,3.09356,-9.14923,-18.6525,-8.40042,56.3836
2023-03-15 21:43:20:636,-1.35855,3.10697,-9.14509,-18.6481,-8.39015,56.384
2023-03-15 21:43:20:646,-1.3533,3.10225,-9.14512,-18.6407,-8.38634,56.3852
2023-03-15 21:43:20:656,-1.36347,3.09639,-9.15634,-18.6357,-8.38283,56.3863
2023-03-15 21:43:20:666,-1.37803,3.11049,-9.16616,-18.6303,-8.38285,56.3902
2023-03-15 21:43:20:676,-1.37754,3.10243,-9.18195,-18.6245,-8.384,56.3908
2023-03-15 21:43:20:686,-1.41073,3.09154,-9.18845,-18.6201,-8.38237,56.3908
2023-03-15 21:43:20:696,-1.42397,3.08132,-9.1717,-18.6184,-8.38227,56.3955
2023-03-15 21:43:20:706,-1.41139,3.07968,-9.16753,-18.6162,-8.38201,56.3968
2023-03-15 21:43:20:716,-1.41778,3.08368,-9.15782,-18.6122,-8.37729,56.3968
2023-03-15 21:43:20:726,-1.42014,3.0893,-9.1575,-18.6074,-8.37245,56.3973
2023-03-15 21:43:20:736,-1.38975,3.08759,-9.16097,-18.6026,-8.36906,56.3947
2023-03-15 21:43:20:746,-1.36934,3.09776,-9.15499,-18.5987,-8.36386,56.394
2023-03-15 21:43:20:756,-1.34457,3.09713,-9.1541,-18.5952,-8.35548,56.3943
2023-03-15 21:43:20:766,-1.32604,3.09352,-9.16605,-18.5947,-8.34858,56.3954
2023-03-15 21:43:20:776,-1.32476,3.084,-9.17332,-18.5968,-8.3395,56.4011
2023-03-15 21:43:20:786,-1.32702,3.09512,-9.18666,-18.5921,-8.33353,56.4055
2023-03-15 21:43:20:796,-1.32521,3.09273,-9.20647,-18.5875,-8.32638,56.4087
2023-03-15 21:43:20:806,-1.32263,3.08611,-9.20078,-18.5846,-8.3207,56.4169
2023-03-15 21:43:20:816,-1.3191,3.07339,-9.1777,-18.5812,-8.31208,56.4234
2023-03-15 21:43:20:826,-1.31129,3.05566,-9.14873,-18.5772,-8.3049,56.4303
2023-03-15 21:43:20:836,-1.30029,3.05435,-9.14178,-18.5735,-8.29899,56.4384
2023-03-15 21:43:20:846,-1.28469,3.07107,-9.12708,-18.5717,-8.29832,56.4478
2023-03-15 21:43:20:856,-1.28556,3.07496,-9.1219,-18.5759,-8.29521,56.4581
2023-03-15 21:43:20:866,-1.27429,3.09482,-9.13576,-18.5794,-8.29252,56.4694
2023-03-15 21:43:20:876,-1.26723,3.10269,-9.17556,-18.5852,-8.29076,56.4816
2023-03-15 21:43:20:886,-1.2683,3.11813,-9.18945,-18.5919,-8.28598,56.4964
2023-03-15 21:43:20:896,-1.2768,3.11936,-9.19585,-18.597,-8.2875,56.513
2023-03-15 21:43:20:906,-1.2897,3.12988,-9.20227,-18.6066,-8.28956,56.5337
2023-03-15 21:43:20:916,-1.29654,3.13651,-9.19589,-18.6113,-8.2918,56.5588
2023-03-15 21:43:20:926,-1.29782,3.13368,-9.21916,-18.616,-8.28786,56.5848
2023-03-15 21:43:20:936,-1.31477,3.14974,-9.21492,-18.6187,-8.28727,56.6122
2023-03-15 21:43:20:946,-1.34,3.14976,-9.1787,-18.6174,-8.28404,56.6403
2023-03-15 21:43:20:956,-1.34866,3.11899,-9.14608,-18.6153,-8.28319,56.6692
2023-03-15 21:43:20:966,-1.35792,3.12229,-9.14446,-18.616,-8.28398,56.6986
2023-03-15 21:43:20:976,-1.3761,3.12993,-9.16054,-18.6186,-8.28784,56.7275
2023-03-15 21:43:20:986,-1.40233,3.13111,-9.20417,-18.6212,-8.29365,56.7554
2023-03-15 21:43:20:996,-1.41098,3.13467,-9.22983,-18.6171,-8.29887,56.7819
2023-03-15 21:43:21:6,-1.41777,3.13463,-9.22343,-18.6122,-8.3068,56.8041
2023-03-15 21:43:21:16,-1.3942,3.10506,-9.1612,-18.6027,-8.31822,56.8219
2023-03-15 21:43:21:26,-1.37308,3.04845,-9.08111,-18.5943,-8.3322,56.8403
2023-03-15 21:43:21:36,-1.39013,3.05731,-9.07465,-18.5936,-8.34848,56.8569
2023-03-15 21:43:21:46,-1.44061,3.09401,-9.1265,-18.5996,-8.36391,56.8741
2023-03-15 21:43:21:56,-1.48361,3.13023,-9.13629,-18.6015,-8.3795,56.8893
2023-03-15 21:43:21:66,-1.51531,3.12674,-9.12921,-18.6084,-8.38972,56.9004
2023-03-15 21:43:21:76,-1.48498,3.12868,-9.16013,-18.6155,-8.39431,56.906
2023-03-15 21:43:21:86,-1.45488,3.16388,-9.18196,-18.6244,-8.39855,56.9049
2023-03-15 21:43:21:96,-1.43162,3.19352,-9.17594,-18.6308,-8.40011,56.9032
2023-03-15 21:43:21:106,-1.40031,3.18903,-9.19872,-18.6329,-8.40283,56.9022
2023-03-15 21:43:21:116,-1.3875,3.21672,-9.21644,-18.6345,-8.40504,56.9006
2023-03-15 21:43:21:126,-1.40684,3.21434,-9.21242,-18.6368,-8.40826,56.899
2023-03-15 21:43:21:136,-1.4337,3.19538,-9.1834,-18.6321,-8.40373,56.8987
2023-03-15 21:43:21:146,-1.42243,3.17885,-9.1861,-18.624,-8.39997,56.8938
2023-03-15 21:43:21:156,-1.3982,3.16517,-9.18385,-18.6129,-8.3932,56.8859
2023-03-15 21:43:21:166,-1.40246,3.14599,-9.16586,-18.5973,-8.38893,56.8826
2023-03-15 21:43:21:176,-1.39481,3.11825,-9.14568,-18.582,-8.38463,56.8742
2023-03-15 21:43:21:186,-1.3908,3.10542,-9.13543,-18.5678,-8.38093,56.8638
2023-03-15 21:43:21:196,-1.39069,3.09287,-9.13025,-18.5556,-8.38231,56.8552
2023-03-15 21:43:21:206,-1.40594,3.0867,-9.12016,-18.544,-8.38246,56.8467
2023-03-15 21:43:21:216,-1.42355,3.07834,-9.11629,-18.5368,-8.38712,56.8353
2023-03-15 21:43:21:226,-1.41807,3.09804,-9.14098,-18.5331,-8.39522,56.8224
2023-03-15 21:43:21:236,-1.41312,3.12507,-9.20106,-18.5298,-8.40599,56.8074
2023-03-15 21:43:21:246,-1.42212,3.13433,-9.24727,-18.5261,-8.41673,56.7913
2023-03-15 21:43:21:256,-1.51433,3.15507,-9.23538,-18.5184,-8.428,56.7705
2023-03-15 21:43:21:266,-1.72811,3.20233,-9.21748,-18.5106,-8.44721,56.7458
2023-03-15 21:43:21:276,-1.97103,3.25215,-9.1898,-18.4989,-8.47553,56.7101
2023-03-15 21:43:21:286,-2.15593,3.32448,-9.22759,-18.4841,-8.50814,56.651
2023-03-15 21:43:21:296,-2.34803,3.42648,-9.26514,-18.4639,-8.54753,56.5635
2023-03-15 21:43:21:306,-2.60408,3.44893,-9.23044,-18.4326,-8.59792,56.4383
2023-03-15 21:43:21:316,-2.89718,3.49348,-9.20618,-18.3929,-8.65732,56.2678
2023-03-15 21:43:21:326,-3.20186,3.53751,-9.21669,-18.3456,-8.72952,56.0405
2023-03-15 21:43:21:336,-3.38709,3.54002,-9.17282,-18.2832,-8.81862,55.7414
2023-03-15 21:43:21:346,-3.5207,3.51535,-9.13032,-18.211,-8.92149,55.3591
2023-03-15 21:43:21:356,-3.74294,3.54525,-9.1077,-18.1272,-9.04627,54.8906
2023-03-15 21:43:21:366,-4.02711,3.61319,-9.09753,-18.0328,-9.19726,54.3258
2023-03-15 21:43:21:376,-4.09596,3.65632,-9.08299,-17.9222,-9.368,53.6514
2023-03-15 21:43:21:386,-3.90552,3.64276,-9.0845,-17.793,-9.55481,52.8639
2023-03-15 21:43:21:396,-3.6765,3.63743,-9.09368,-17.6443,-9.76002,51.9784
2023-03-15 21:43:21:406,-3.44957,3.6054,-9.07089,-17.4805,-9.98008,51.0025
2023-03-15 21:43:21:416,-3.1459,3.56211,-9.05591,-17.3018,-10.2181,49.9502
2023-03-15 21:43:21:426,-2.73316,3.51347,-9.08699,-17.1099,-10.463,48.8358
2023-03-15 21:43:21:436,-2.3721,3.43217,-9.13011,-16.9041,-10.7074,47.6827
2023-03-15 21:43:21:446,-2.15376,3.34253,-9.14331,-16.6867,-10.945,46.5108
2023-03-15 21:43:21:456,-2.03093,3.28928,-9.1418,-16.4604,-11.1613,45.3242
2023-03-15 21:43:21:466,-2.05257,3.26176,-9.1231,-16.2244,-11.3529,44.1375
2023-03-15 21:43:21:476,-2.16886,3.23592,-9.08945,-15.9765,-11.518,42.9467
2023-03-15 21:43:21:486,-2.109,3.15177,-9.04705,-15.721,-11.6493,41.7532
2023-03-15 21:43:21:496,-1.85922,3.05085,-9.05978,-15.4628,-11.7507,40.5593
2023-03-15 21:43:21:506,-1.63321,2.95181,-9.06651,-15.2033,-11.8336,39.3784
2023-03-15 21:43:21:516,-1.46145,2.85101,-9.06852,-14.9526,-11.897,38.2224
2023-03-15 21:43:21:526,-1.282,2.76141,-9.08642,-14.7026,-11.9435,37.0941
2023-03-15 21:43:21:536,-1.13347,2.65069,-9.07484,-14.4619,-11.9697,36.0034
2023-03-15 21:43:21:546,-0.986471,2.54925,-9.07594,-14.2344,-11.9798,34.9587
2023-03-15 21:43:21:556,-0.925705,2.47115,-9.08146,-14.0191,-11.9757,33.9677
2023-03-15 21:43:21:566,-1.00891,2.44515,-9.12092,-13.8235,-11.9653,33.0281
2023-03-15 21:43:21:576,-1.21526,2.4838,-9.17058,-13.6371,-11.9414,32.1335
2023-03-15 21:43:21:586,-1.44481,2.5156,-9.20161,-13.4604,-11.9057,31.2765
2023-03-15 21:43:21:596,-1.60145,2.5253,-9.25506,-13.2911,-11.8556,30.4531
2023-03-15 21:43:21:606,-1.60999,2.52195,-9.32531,-13.1222,-11.784,29.6495
2023-03-15 21:43:21:616,-1.57618,2.46583,-9.37903,-12.9509,-11.7007,28.8682
2023-03-15 21:43:21:626,-1.56268,2.42087,-9.40841,-12.7786,-11.6119,28.1105
2023-03-15 21:43:21:636,-1.50885,2.35889,-9.42254,-12.6074,-11.517,27.375
2023-03-15 21:43:21:646,-1.42377,2.28544,-9.40983,-12.4363,-11.4157,26.6629
2023-03-15 21:43:21:656,-1.40505,2.21388,-9.39619,-12.2703,-11.3158,25.9782
2023-03-15 21:43:21:666,-1.47203,2.15828,-9.38767,-12.1034,-11.2128,25.3126
2023-03-15 21:43:21:676,-1.55885,2.12191,-9.40037,-11.9357,-11.1084,24.6689
2023-03-15 21:43:21:686,-1.643,2.10288,-9.40946,-11.7764,-11.002,24.036
2023-03-15 21:43:21:696,-1.72812,2.08409,-9.41821,-11.6188,-10.8945,23.417
2023-03-15 21:43:21:706,-1.74413,2.0522,-9.44654,-11.4598,-10.7835,22.8065
2023-03-15 21:43:21:716,-1.73177,2.00626,-9.46746,-11.2958,-10.6629,22.2044
2023-03-15 21:43:21:726,-1.69069,1.93479,-9.45397,-11.1311,-10.5356,21.6066
2023-03-15 21:43:21:736,-1.65533,1.86808,-9.41618,-10.9656,-10.4004,21.017
2023-03-15 21:43:21:746,-1.63703,1.80313,-9.38797,-10.7984,-10.2642,20.4313
2023-03-15 21:43:21:756,-1.62836,1.74925,-9.33715,-10.6331,-10.1179,19.8523
2023-03-15 21:43:21:766,-1.61117,1.70094,-9.28182,-10.4752,-9.97041,19.276
2023-03-15 21:43:21:776,-1.53157,1.64709,-9.22192,-10.3275,-9.81643,18.709
2023-03-15 21:43:21:786,-1.4472,1.57326,-9.1528,-10.1864,-9.66374,18.1481
2023-03-15 21:43:21:796,-1.3838,1.54291,-9.13147,-10.0563,-9.51358,17.5924
2023-03-15 21:43:21:806,-1.30731,1.54126,-9.1218,-9.9401,-9.37005,17.0432
2023-03-15 21:43:21:816,-1.21518,1.49867,-9.09771,-9.84245,-9.23648,16.5029
2023-03-15 21:43:21:826,-1.15079,1.47116,-9.10287,-9.76647,-9.11911,15.967
2023-03-15 21:43:21:836,-1.12031,1.47816,-9.17415,-9.70939,-9.02521,15.4423
2023-03-15 21:43:21:846,-1.14408,1.51833,-9.24406,-9.66783,-8.94553,14.9274
2023-03-15 21:43:21:856,-1.15554,1.55819,-9.32514,-9.63766,-8.88104,14.4194
2023-03-15 21:43:21:866,-1.17745,1.60782,-9.38521,-9.61884,-8.82118,13.9188
2023-03-15 21:43:21:876,-1.21467,1.63418,-9.41555,-9.60738,-8.76913,13.4257
2023-03-15 21:43:21:886,-1.22696,1.64814,-9.43497,-9.59827,-8.72083,12.9433
2023-03-15 21:43:21:896,-1.22542,1.67707,-9.46337,-9.59833,-8.66702,12.4685
2023-03-15 21:43:21:906,-1.20458,1.71668,-9.48353,-9.6011,-8.61809,12.0007
2023-03-15 21:43:21:916,-1.16618,1.71908,-9.47648,-9.60637,-8.56599,11.5393
2023-03-15 21:43:21:926,-1.16621,1.71809,-9.45959,-9.61395,-8.50912,11.0861
2023-03-15 21:43:21:936,-1.20406,1.74029,-9.45833,-9.6212,-8.45269,10.6397
2023-03-15 21:43:21:946,-1.33468,1.78602,-9.49672,-9.63499,-8.40204,10.1984
2023-03-15 21:43:21:956,-1.49649,1.86871,-9.53555,-9.64578,-8.35726,9.74931
2023-03-15 21:43:21:966,-1.56908,1.9046,-9.54422,-9.64973,-8.31273,9.29263
2023-03-15 21:43:21:976,-1.54769,1.87669,-9.52693,-9.64415,-8.2694,8.81951
2023-03-15 21:43:21:986,-1.49613,1.86543,-9.5249,-9.63475,-8.22412,8.33518
2023-03-15 21:43:21:996,-1.44742,1.83437,-9.53215,-9.62267,-8.18344,7.84267
2023-03-15 21:43:22:6,-1.36474,1.79939,-9.52918,-9.60934,-8.14349,7.34211
2023-03-15 21:43:22:16,-1.25329,1.76055,-9.50971,-9.59046,-8.09965,6.84021
2023-03-15 21:43:22:26,-1.15393,1.70207,-9.47847,-9.57619,-8.05845,6.34222
2023-03-15 21:43:22:36,-1.06818,1.66438,-9.45362,-9.56061,-8.01589,5.85262
2023-03-15 21:43:22:46,-0.966612,1.64278,-9.4742,-9.5518,-7.97524,5.37136
2023-03-15 21:43:22:56,-0.872801,1.64889,-9.51854,-9.54779,-7.93255,4.90096
2023-03-15 21:43:22:66,-0.791958,1.66457,-9.59064,-9.55077,-7.88538,4.45394
2023-03-15 21:43:22:76,-0.73952,1.66383,-9.65717,-9.55345,-7.84019,4.02779
2023-03-15 21:43:22:86,-0.688604,1.65739,-9.68412,-9.55295,-7.78877,3.63265
2023-03-15 21:43:22:96,-0.66421,1.65186,-9.68597,-9.5509,-7.73146,3.26316
2023-03-15 21:43:22:106,-0.649632,1.6406,-9.67016,-9.54215,-7.66871,2.91935
2023-03-15 21:43:22:116,-0.655301,1.65524,-9.66344,-9.53479,-7.59806,2.6102
2023-03-15 21:43:22:126,-0.64431,1.64983,-9.63836,-9.52684,-7.52257,2.33003
2023-03-15 21:43:22:136,-0.648418,1.63644,-9.60709,-9.52327,-7.43954,2.07846
2023-03-15 21:43:22:146,-0.674686,1.63669,-9.63531,-9.51908,-7.34782,1.85252
2023-03-15 21:43:22:156,-0.626393,1.60087,-9.59513,-9.51305,-7.25833,1.65309
2023-03-15 21:43:22:166,-0.615614,1.59814,-9.59662,-9.50735,-7.16729,1.48102
2023-03-15 21:43:22:176,-0.616803,1.60452,-9.60036,-9.49704,-7.07379,1.32631
2023-03-15 21:43:22:186,-0.594442,1.58437,-9.59498,-9.48719,-6.9786,1.19917
2023-03-15 21:43:22:196,-0.607875,1.58653,-9.60499,-9.48208,-6.8848,1.09152
2023-03-15 21:43:22:206,-0.611835,1.60232,-9.61501,-9.47781,-6.79364,1.00637
2023-03-15 21:43:22:216,-0.617644,1.59698,-9.61217,-9.46939,-6.70616,0.938361
2023-03-15 21:43:22:226,-0.601003,1.58102,-9.57095,-9.46235,-6.6221,0.890048
2023-03-15 21:43:22:236,-0.614513,1.56797,-9.52741,-9.45928,-6.54195,0.856618
2023-03-15 21:43:22:246,-0.628098,1.57893,-9.53912,-9.46018,-6.46149,0.838864
2023-03-15 21:43:22:256,-0.641629,1.60631,-9.58473,-9.46592,-6.38383,0.834196
2023-03-15 21:43:22:266,-0.652087,1.6263,-9.62254,-9.47117,-6.31194,0.842615
2023-03-15 21:43:22:276,-0.643538,1.63762,-9.62056,-9.47903,-6.24083,0.863031
2023-03-15 21:43:22:286,-0.635398,1.63311,-9.64416,-9.48422,-6.17483,0.897155
2023-03-15 21:43:22:296,-0.647744,1.64573,-9.63841,-9.49063,-6.11856,0.945372
2023-03-15 21:43:22:306,-0.66975,1.63632,-9.62052,-9.49681,-6.0614,1.0018
2023-03-15 21:43:22:316,-0.699244,1.62406,-9.59792,-9.50239,-6.01224,1.06456
2023-03-15 21:43:22:326,-0.740235,1.64237,-9.59044,-9.50708,-5.96427,1.14103
2023-03-15 21:43:22:336,-0.762634,1.65371,-9.57509,-9.51537,-5.92049,1.22439
2023-03-15 21:43:22:346,-0.787963,1.66926,-9.5728,-9.52187,-5.8816,1.31525
2023-03-15 21:43:22:356,-0.817029,1.6832,-9.54286,-9.53064,-5.84214,1.40933
2023-03-15 21:43:22:366,-0.851028,1.67433,-9.547,-9.54205,-5.80238,1.50873
2023-03-15 21:43:22:376,-0.884768,1.70421,-9.53804,-9.55247,-5.76626,1.60712
2023-03-15 21:43:22:386,-0.918197,1.72801,-9.55874,-9.56244,-5.7288,1.70613
2023-03-15 21:43:22:396,-0.954502,1.73764,-9.54421,-9.57386,-5.69071,1.80382
2023-03-15 21:43:22:406,-0.983833,1.75017,-9.52977,-9.58452,-5.65032,1.8966
2023-03-15 21:43:22:416,-1.00352,1.76292,-9.53815,-9.59558,-5.61486,1.98468
2023-03-15 21:43:22:426,-1.01169,1.75496,-9.52974,-9.60708,-5.57815,2.06733
2023-03-15 21:43:22:436,-1.01454,1.77478,-9.51732,-9.61954,-5.54113,2.13736
2023-03-15 21:43:22:446,-1.01044,1.76768,-9.50223,-9.63054,-5.50296,2.20334
2023-03-15 21:43:22:456,-0.998602,1.76699,-9.48977,-9.64365,-5.47094,2.25766
2023-03-15 21:43:22:466,-0.996124,1.78907,-9.51604,-9.66139,-5.4394,2.30224
2023-03-15 21:43:22:476,-0.987213,1.79695,-9.54466,-9.67559,-5.40832,2.33582
2023-03-15 21:43:22:486,-0.987714,1.79394,-9.53977,-9.69175,-5.37692,2.36181
2023-03-15 21:43:22:496,-0.976735,1.80496,-9.54595,-9.71051,-5.35004,2.37895
2023-03-15 21:43:22:506,-0.958236,1.84714,-9.57597,-9.72477,-5.31606,2.38644
2023-03-15 21:43:22:516,-0.933327,1.83479,-9.58916,-9.73676,-5.28481,2.3817
2023-03-15 21:43:22:526,-0.907012,1.81393,-9.5722,-9.74923,-5.25559,2.3724
2023-03-15 21:43:22:536,-0.879016,1.82265,-9.58601,-9.76244,-5.22412,2.35916
2023-03-15 21:43:22:546,-0.853599,1.83581,-9.61751,-9.77027,-5.19638,2.33856
2023-03-15 21:43:22:556,-0.826936,1.83431,-9.62532,-9.77717,-5.1682,2.3139
2023-03-15 21:43:22:566,-0.803134,1.83022,-9.59609,-9.78064,-5.14035,2.28082
2023-03-15 21:43:22:576,-0.78622,1.79816,-9.58661,-9.78787,-5.11581,2.24493
2023-03-15 21:43:22:586,-0.78379,1.78524,-9.639,-9.79066,-5.08732,2.20742
2023-03-15 21:43:22:596,-0.745009,1.80623,-9.69607,-9.79182,-5.06317,2.1646
2023-03-15 21:43:22:606,-0.69297,1.81617,-9.73074,-9.78577,-5.04165,2.11833
2023-03-15 21:43:22:616,-0.635138,1.80208,-9.73111,-9.77289,-5.01882,2.06786
2023-03-15 21:43:22:626,-0.623912,1.79374,-9.72137,-9.75804,-5.00113,2.01325
2023-03-15 21:43:22:636,-0.607269,1.76883,-9.69903,-9.73654,-4.99175,1.96146
2023-03-15 21:43:22:646,-0.625292,1.75673,-9.65568,-9.7136,-4.98841,1.91015
2023-03-15 21:43:22:656,-0.672227,1.73957,-9.62126,-9.68685,-4.98982,1.85845
2023-03-15 21:43:22:666,-0.663808,1.72124,-9.6185,-9.664,-4.9903,1.80422
2023-03-15 21:43:22:676,-0.638271,1.70177,-9.6293,-9.63997,-4.99735,1.75201
2023-03-15 21:43:22:686,-0.636348,1.68215,-9.62532,-9.61679,-5.00554,1.70042
2023-03-15 21:43:22:696,-0.65593,1.683,-9.61912,-9.5973,-5.01419,1.65039
2023-03-15 21:43:22:706,-0.67611,1.67629,-9.63526,-9.57651,-5.02538,1.60055
2023-03-15 21:43:22:716,-0.679213,1.66696,-9.63835,-9.55632,-5.03561,1.55414
2023-03-15 21:43:22:726,-0.686845,1.66124,-9.64166,-9.52967,-5.0465,1.50526
2023-03-15 21:43:22:736,-0.697931,1.65189,-9.65894,-9.50082,-5.05782,1.45442
2023-03-15 21:43:22:746,-0.71943,1.6249,-9.66393,-9.47193,-5.07372,1.41037
2023-03-15 21:43:22:756,-0.734172,1.5968,-9.66868,-9.43716,-5.08828,1.36574
2023-03-15 21:43:22:766,-0.752629,1.57522,-9.6592,-9.40123,-5.10028,1.3227
2023-03-15 21:43:22:776,-0.769701,1.5518,-9.63846,-9.36414,-5.1126,1.27766
2023-03-15 21:43:22:786,-0.788177,1.53882,-9.64607,-9.32919,-5.12271,1.23059
2023-03-15 21:43:22:796,-0.800983,1.52903,-9.65798,-9.29508,-5.13711,1.18507
2023-03-15 21:43:22:806,-0.83112,1.51059,-9.62551,-9.25592,-5.14836,1.13585
2023-03-15 21:43:22:816,-0.842667,1.47359,-9.59803,-9.21995,-5.15806,1.08978
2023-03-15 21:43:22:826,-0.847132,1.46314,-9.59111,-9.18668,-5.16143,1.04351
2023-03-15 21:43:22:836,-0.840545,1.46911,-9.60809,-9.15562,-5.16602,0.995737
2023-03-15 21:43:22:846,-0.823257,1.42772,-9.62242,-9.12221,-5.1691,0.947283
2023-03-15 21:43:22:856,-0.786113,1.40215,-9.62357,-9.09825,-5.17277,0.903025
2023-03-15 21:43:22:866,-0.760295,1.40191,-9.6464,-9.07163,-5.18039,0.85703
2023-03-15 21:43:22:876,-0.751369,1.40014,-9.64786,-9.04679,-5.1893,0.813151
2023-03-15 21:43:22:886,-0.773804,1.38755,-9.63596,-9.02516,-5.20453,0.77541
2023-03-15 21:43:22:896,-0.79846,1.38354,-9.624,-9.00721,-5.22213,0.735982
2023-03-15 21:43:22:906,-0.820479,1.39977,-9.61817,-8.99167,-5.23476,0.69869
2023-03-15 21:43:22:916,-0.804462,1.40274,-9.60358,-8.97814,-5.24655,0.664613
2023-03-15 21:43:22:926,-0.798273,1.37871,-9.59097,-8.9663,-5.25905,0.633939
2023-03-15 21:43:22:936,-0.789716,1.39246,-9.58586,-8.95977,-5.2692,0.606353
2023-03-15 21:43:22:946,-0.791347,1.40478,-9.58964,-8.95545,-5.27973,0.580789
2023-03-15 21:43:22:956,-0.795723,1.4224,-9.62255,-8.95216,-5.28919,0.557275
2023-03-15 21:43:22:966,-0.803622,1.43608,-9.64697,-8.9546,-5.30274,0.536863
2023-03-15 21:43:22:976,-0.803003,1.44436,-9.66479,-8.95234,-5.31829,0.519028
2023-03-15 21:43:22:986,-0.833578,1.46643,-9.6589,-8.95436,-5.33682,0.506954
2023-03-15 21:43:22:996,-0.863631,1.46024,-9.65993,-8.95116,-5.35593,0.494946
2023-03-15 21:43:23:6,-0.900611,1.46452,-9.65446,-8.9471,-5.37696,0.486516
2023-03-15 21:43:23:16,-0.916468,1.47345,-9.63852,-8.93897,-5.39579,0.479405
2023-03-15 21:43:23:26,-0.927349,1.47609,-9.62794,-8.93777,-5.4146,0.473873
2023-03-15 21:43:23:36,-0.9495,1.48218,-9.61654,-8.93596,-5.43648,0.466856
2023-03-15 21:43:23:46,-0.968076,1.49064,-9.63116,-8.93289,-5.45943,0.461368
2023-03-15 21:43:23:56,-0.992164,1.49849,-9.65124,-8.93049,-5.48261,0.45157
2023-03-15 21:43:23:66,-0.999941,1.49052,-9.64406,-8.92879,-5.50339,0.444979
2023-03-15 21:43:23:76,-1.02217,1.48791,-9.6396,-8.9249,-5.52575,0.435638
2023-03-15 21:43:23:86,-1.03869,1.49537,-9.63751,-8.92245,-5.54236,0.429413
2023-03-15 21:43:23:96,-1.05951,1.50183,-9.64098,-8.91512,-5.55904,0.418859
2023-03-15 21:43:23:106,-1.06474,1.51134,-9.62311,-8.90989,-5.58101,0.410711
2023-03-15 21:43:23:116,-1.05123,1.50199,-9.62045,-8.90144,-5.59826,0.399859
2023-03-15 21:43:23:126,-1.05936,1.47858,-9.6407,-8.89409,-5.61548,0.388708
2023-03-15 21:43:23:136,-1.06667,1.48537,-9.62296,-8.88455,-5.62798,0.375227
2023-03-15 21:43:23:146,-1.06845,1.47915,-9.6079,-8.87559,-5.64635,0.360789
2023-03-15 21:43:23:156,-1.05495,1.48721,-9.60289,-8.86795,-5.66045,0.345788
2023-03-15 21:43:23:166,-1.06619,1.48797,-9.57697,-8.8646,-5.67561,0.329553
2023-03-15 21:43:23:176,-1.07286,1.50046,-9.57793,-8.86341,-5.69486,0.308146
2023-03-15 21:43:23:186,-1.07642,1.50449,-9.57598,-8.85966,-5.71442,0.283703
2023-03-15 21:43:23:196,-1.07405,1.50888,-9.5783,-8.8564,-5.73185,0.25895
2023-03-15 21:43:23:206,-1.07109,1.51951,-9.59306,-8.85411,-5.74991,0.231903
2023-03-15 21:43:23:216,-1.06912,1.52454,-9.5949,-8.84918,-5.76675,0.201041
2023-03-15 21:43:23:226,-1.0685,1.52808,-9.5838,-8.84379,-5.78954,0.168807
2023-03-15 21:43:23:236,-1.0679,1.51328,-9.58089,-8.84279,-5.80981,0.134164
2023-03-15 21:43:23:246,-1.07283,1.5177,-9.56845,-8.83626,-5.83226,0.102624
2023-03-15 21:43:23:256,-1.07282,1.52126,-9.564,-8.83619,-5.8584,0.067083
2023-03-15 21:43:23:266,-1.06521,1.52365,-9.57757,-8.83755,-5.88163,0.0364831
2023-03-15 21:43:23:276,-1.06849,1.52413,-9.58646,-8.83592,-5.90768,0.00474698
2023-03-15 21:43:23:286,-1.08101,1.52867,-9.60079,-8.83278,-5.92876,-0.0312728
2023-03-15 21:43:23:296,-1.0821,1.52257,-9.61131,-8.83236,-5.9521,-0.0627653
2023-03-15 21:43:23:306,-1.08676,1.52025,-9.59063,-8.82992,-5.97818,-0.0974702
2023-03-15 21:43:23:316,-1.1001,1.50138,-9.55087,-8.82357,-6.00108,-0.128117
2023-03-15 21:43:23:326,-1.1136,1.48414,-9.5414,-8.82284,-6.02302,-0.156303
2023-03-15 21:43:23:336,-1.11474,1.50509,-9.56835,-8.8226,-6.04308,-0.183737
2023-03-15 21:43:23:346,-1.0936,1.50177,-9.60572,-8.82381,-6.06058,-0.211404
2023-03-15 21:43:23:356,-1.06787,1.50355,-9.61558,-8.82562,-6.07517,-0.240982
2023-03-15 21:43:23:366,-1.04303,1.48792,-9.57551,-8.82548,-6.09085,-0.265255
2023-03-15 21:43:23:376,-1.0561,1.47642,-9.55713,-8.82824,-6.11104,-0.28775
2023-03-15 21:43:23:386,-1.09199,1.50518,-9.55812,-8.83605,-6.13304,-0.306737
2023-03-15 21:43:23:396,-1.13038,1.5229,-9.53549,-8.84324,-6.15586,-0.329171
2023-03-15 21:43:23:406,-1.15606,1.52351,-9.5379,-8.85441,-6.17885,-0.351065
2023-03-15 21:43:23:416,-1.16336,1.54732,-9.53714,-8.86989,-6.19646,-0.374258
2023-03-15 21:43:23:426,-1.1606,1.55581,-9.52739,-8.88895,-6.2133,-0.400235
2023-03-15 21:43:23:436,-1.16485,1.57197,-9.53254,-8.91167,-6.22689,-0.423888
2023-03-15 21:43:23:446,-1.15937,1.58295,-9.54458,-8.93243,-6.24037,-0.44715
2023-03-15 21:43:23:456,-1.17063,1.61044,-9.55417,-8.95612,-6.25106,-0.468418
2023-03-15 21:43:23:466,-1.16398,1.61744,-9.5723,-8.98071,-6.25663,-0.489992
2023-03-15 21:43:23:476,-1.17702,1.63258,-9.57232,-9.00117,-6.26318,-0.511084
2023-03-15 21:43:23:486,-1.16676,1.64497,-9.57793,-9.02318,-6.2655,-0.539308
2023-03-15 21:43:23:496,-1.17976,1.65223,-9.6124,-9.03596,-6.26632,-0.563012
2023-03-15 21:43:23:506,-1.16879,1.65647,-9.614,-9.04468,-6.26354,-0.591159
2023-03-15 21:43:23:516,-1.15866,1.64623,-9.61219,-9.05337,-6.25744,-0.619372
2023-03-15 21:43:23:526,-1.16156,1.62211,-9.6122,-9.05762,-6.25247,-0.646658
2023-03-15 21:43:23:536,-1.15963,1.61728,-9.60383,-9.05494,-6.2425,-0.675838
2023-03-15 21:43:23:546,-1.1679,1.59003,-9.58218,-9.05277,-6.2361,-0.702452
2023-03-15 21:43:23:556,-1.16686,1.57584,-9.55047,-9.05483,-6.2268,-0.736887
2023-03-15 21:43:23:566,-1.16188,1.5726,-9.55465,-9.06051,-6.21677,-0.771808
2023-03-15 21:43:23:576,-1.15746,1.57007,-9.60199,-9.0683,-6.20427,-0.808341
2023-03-15 21:43:23:586,-1.13042,1.59163,-9.61504,-9.07499,-6.1923,-0.848828
2023-03-15 21:43:23:596,-1.09293,1.60392,-9.62346,-9.08074,-6.17961,-0.887283
2023-03-15 21:43:23:606,-1.06798,1.60242,-9.62162,-9.08994,-6.16748,-0.925298
2023-03-15 21:43:23:616,-1.06122,1.62144,-9.66091,-9.09964,-6.15599,-0.968102
2023-03-15 21:43:23:626,-1.04731,1.63362,-9.6943,-9.10335,-6.1485,-1.01262
2023-03-15 21:43:23:636,-1.04493,1.6281,-9.68123,-9.10215,-6.14119,-1.05251
2023-03-15 21:43:23:646,-1.03298,1.60897,-9.64725,-9.09865,-6.1314,-1.09289
2023-03-15 21:43:23:656,-1.02687,1.59534,-9.62745,-9.09056,-6.12479,-1.13733
2023-03-15 21:43:23:666,-1.01241,1.59452,-9.63019,-9.07966,-6.11301,-1.17981
2023-03-15 21:43:23:676,-0.996525,1.58362,-9.61042,-9.07039,-6.09949,-1.2185
2023-03-15 21:43:23:686,-0.994448,1.57119,-9.5909,-9.05763,-6.09241,-1.25818
2023-03-15 21:43:23:696,-0.959949,1.56159,-9.59989,-9.04678,-6.08438,-1.29097
2023-03-15 21:43:23:706,-0.968795,1.57257,-9.60026,-9.04007,-6.07608,-1.32087
2023-03-15 21:43:23:716,-0.970231,1.56475,-9.60605,-9.0286,-6.07056,-1.35159
2023-03-15 21:43:23:726,-0.983007,1.5662,-9.61453,-9.0179,-6.06711,-1.37794
2023-03-15 21:43:23:736,-0.989175,1.56751,-9.62047,-9.00213,-6.06068,-1.4062
2023-03-15 21:43:23:746,-1.00749,1.563,-9.63236,-8.98491,-6.05465,-1.43321
2023-03-15 21:43:23:756,-1.01167,1.55033,-9.63225,-8.97317,-6.05017,-1.45616
2023-03-15 21:43:23:766,-1.0325,1.53282,-9.63551,-8.95485,-6.05021,-1.48234
2023-03-15 21:43:23:776,-1.02473,1.52521,-9.63555,-8.93957,-6.04736,-1.51014
2023-03-15 21:43:23:786,-1.01687,1.51632,-9.6347,-8.92298,-6.04343,-1.53304
2023-03-15 21:43:23:796,-1.02049,1.5114,-9.62839,-8.9044,-6.04106,-1.55558
2023-03-15 21:43:23:806,-1.03174,1.5114,-9.62746,-8.88437,-6.03757,-1.57539
2023-03-15 21:43:23:816,-1.05142,1.50449,-9.60791,-8.86211,-6.0382,-1.59733
2023-03-15 21:43:23:826,-1.05447,1.49531,-9.59233,-8.847,-6.03579,-1.61788
2023-03-15 21:43:23:836,-1.03724,1.47169,-9.58873,-8.82895,-6.03143,-1.63992
2023-03-15 21:43:23:846,-1.02626,1.47078,-9.58292,-8.81345,-6.02308,-1.65889
2023-03-15 21:43:23:856,-1.02564,1.46914,-9.57667,-8.79905,-6.0175,-1.67945
2023-03-15 21:43:23:866,-1.02109,1.47073,-9.56902,-8.78613,-6.00859,-1.69771
2023-03-15 21:43:23:876,-1.01995,1.46808,-9.57998,-8.77337,-6.00143,-1.71719
2023-03-15 21:43:23:886,-1.01432,1.46317,-9.56263,-8.7617,-5.99495,-1.7366
2023-03-15 21:43:23:896,-1.02685,1.45802,-9.565,-8.75211,-5.98862,-1.75703
2023-03-15 21:43:23:906,-1.01933,1.44507,-9.58059,-8.74651,-5.98064,-1.77494
2023-03-15 21:43:23:916,-1.01946,1.45122,-9.58305,-8.74169,-5.97135,-1.79334
2023-03-15 21:43:23:926,-1.01762,1.45589,-9.58026,-8.73464,-5.96424,-1.81627
2023-03-15 21:43:23:936,-1.01401,1.43689,-9.57557,-8.72951,-5.95953,-1.83433
2023-03-15 21:43:23:946,-1.00032,1.44112,-9.56886,-8.72552,-5.95258,-1.84937
2023-03-15 21:43:23:956,-0.995153,1.43451,-9.57318,-8.72651,-5.94351,-1.86377
2023-03-15 21:43:23:966,-1.00805,1.43311,-9.57751,-8.72869,-5.93589,-1.87953
2023-03-15 21:43:23:976,-1.00793,1.43253,-9.56095,-8.73213,-5.92852,-1.89129
2023-03-15 21:43:23:986,-1.00903,1.44037,-9.56227,-8.73765,-5.91902,-1.90803
2023-03-15 21:43:23:996,-1.02455,1.46294,-9.57611,-8.74132,-5.91141,-1.92391
2023-03-15 21:43:24:6,-1.03648,1.47169,-9.58357,-8.75285,-5.8982,-1.93806
2023-03-15 21:43:24:16,-1.02733,1.48731,-9.60664,-8.76218,-5.89044,-1.95422
2023-03-15 21:43:24:26,-0.995867,1.49524,-9.63062,-8.76872,-5.87665,-1.97127
2023-03-15 21:43:24:36,-0.992319,1.4804,-9.64267,-8.77236,-5.85907,-1.98572
2023-03-15 21:43:24:46,-0.983244,1.47966,-9.6448,-8.77769,-5.84698,-1.99776
2023-03-15 21:43:24:56,-0.989326,1.48278,-9.61553,-8.77824,-5.83023,-2.01223
2023-03-15 21:43:24:66,-1.00285,1.46073,-9.59337,-8.77766,-5.81054,-2.02743
2023-03-15 21:43:24:76,-1.00581,1.4597,-9.60128,-8.77931,-5.79192,-2.03968
2023-03-15 21:43:24:86,-1.00609,1.46851,-9.64401,-8.78138,-5.76829,-2.05562
2023-03-15 21:43:24:96,-0.953234,1.48476,-9.66079,-8.78577,-5.74627,-2.07336
2023-03-15 21:43:24:106,-0.909845,1.46958,-9.64591,-8.78591,-5.7248,-2.08926
2023-03-15 21:43:24:116,-0.895675,1.45501,-9.6244,-8.78904,-5.71132,-2.10576
2023-03-15 21:43:24:126,-0.90229,1.47597,-9.60886,-8.79278,-5.69997,-2.12338
2023-03-15 21:43:24:136,-0.929483,1.48959,-9.58738,-8.79847,-5.69458,-2.14313
2023-03-15 21:43:24:146,-0.954985,1.48789,-9.56795,-8.81339,-5.68908,-2.16447
2023-03-15 21:43:24:156,-0.959916,1.49617,-9.57533,-8.82924,-5.68063,-2.18429
2023-03-15 21:43:24:166,-0.928091,1.5185,-9.57082,-8.84872,-5.67301,-2.20787
2023-03-15 21:43:24:176,-0.896588,1.53107,-9.58526,-8.86959,-5.66602,-2.22952
2023-03-15 21:43:24:186,-0.891869,1.54741,-9.61792,-8.88917,-5.66049,-2.25072
2023-03-15 21:43:24:196,-0.89626,1.56317,-9.64425,-8.90996,-5.66107,-2.27093
2023-03-15 21:43:24:206,-0.898752,1.59099,-9.65329,-8.92941,-5.66077,-2.28745
2023-03-15 21:43:24:216,-0.914597,1.59058,-9.65386,-8.94662,-5.65923,-2.30583
2023-03-15 21:43:24:226,-0.931505,1.59387,-9.63163,-8.95908,-5.65131,-2.32213
2023-03-15 21:43:24:236,-0.931905,1.58532,-9.628,-8.96669,-5.6427,-2.33459
2023-03-15 21:43:24:246,-0.92076,1.59472,-9.63604,-8.9717,-5.63379,-2.35025
2023-03-15 21:43:24:256,-0.917081,1.59277,-9.62957,-8.9726,-5.62621,-2.36648
2023-03-15 21:43:24:266,-0.926296,1.57586,-9.63848,-8.97197,-5.62067,-2.38319
2023-03-15 21:43:24:276,-0.93315,1.56132,-9.63184,-8.96857,-5.6177,-2.39811
2023-03-15 21:43:24:285,-0.942862,1.56183,-9.60618,-8.96796,-5.61702,-2.41596
2023-03-15 21:43:24:296,-0.949997,1.55419,-9.5883,-8.96781,-5.61855,-2.43618
2023-03-15 21:43:24:306,-0.967316,1.53061,-9.57834,-8.97004,-5.61749,-2.45518
2023-03-15 21:43:24:316,-0.985886,1.53713,-9.60521,-8.97338,-5.61987,-2.47256
2023-03-15 21:43:24:326,-0.987625,1.54932,-9.64575,-8.97617,-5.62123,-2.49708
2023-03-15 21:43:24:336,-0.962439,1.55749,-9.64743,-8.98008,-5.61688,-2.51972
2023-03-15 21:43:24:346,-0.931494,1.54531,-9.64972,-8.97972,-5.61825,-2.54368
2023-03-15 21:43:24:356,-0.947811,1.55094,-9.6568,-8.97879,-5.62233,-2.56764
2023-03-15 21:43:24:366,-0.953161,1.55251,-9.64985,-8.97702,-5.62235,-2.59404
2023-03-15 21:43:24:376,-0.963234,1.54419,-9.62707,-8.97637,-5.62619,-2.62052
2023-03-15 21:43:24:386,-0.982753,1.52646,-9.61638,-8.97351,-5.63201,-2.65077
2023-03-15 21:43:24:396,-0.997429,1.5537,-9.59859,-8.97321,-5.63595,-2.68061
2023-03-15 21:43:24:406,-0.972136,1.54996,-9.58553,-8.97125,-5.63754,-2.71283
2023-03-15 21:43:24:416,-0.973723,1.55281,-9.57977,-8.97081,-5.63906,-2.74679
2023-03-15 21:43:24:426,-0.971751,1.55478,-9.58426,-8.97633,-5.63774,-2.7766
2023-03-15 21:43:24:436,-0.95768,1.55695,-9.59399,-8.97779,-5.63526,-2.80958
2023-03-15 21:43:24:446,-0.965081,1.55922,-9.59117,-8.97856,-5.63177,-2.83964
2023-03-15 21:43:24:456,-0.979071,1.55889,-9.58023,-8.97819,-5.62803,-2.86861
2023-03-15 21:43:24:466,-0.992035,1.55547,-9.59663,-8.97934,-5.62548,-2.89887
2023-03-15 21:43:24:476,-1.00555,1.5549,-9.60825,-8.97606,-5.62695,-2.93078
2023-03-15 21:43:24:486,-1.00049,1.55731,-9.61879,-8.97335,-5.62377,-2.96092
2023-03-15 21:43:24:496,-0.992245,1.57075,-9.61229,-8.97218,-5.62457,-2.99489
2023-03-15 21:43:24:506,-0.996905,1.56832,-9.63552,-8.97025,-5.62311,-3.0327
2023-03-15 21:43:24:516,-0.968131,1.55757,-9.6576,-8.96621,-5.62049,-3.06723
2023-03-15 21:43:24:526,-0.952797,1.55763,-9.6511,-8.96583,-5.62053,-3.09967
2023-03-15 21:43:24:536,-0.937095,1.55645,-9.64964,-8.96145,-5.61542,-3.13634
2023-03-15 21:43:24:546,-0.926162,1.54662,-9.63615,-8.95432,-5.61714,-3.166
2023-03-15 21:43:24:556,-0.926304,1.53252,-9.61351,-8.94944,-5.61702,-3.19609
2023-03-15 21:43:24:566,-0.924023,1.52015,-9.58669,-8.94274,-5.61607,-3.22524
2023-03-15 21:43:24:576,-0.93517,1.5305,-9.57365,-8.94232,-5.61755,-3.25076
2023-03-15 21:43:24:586,-0.941912,1.52817,-9.57348,-8.93699,-5.61234,-3.27394
2023-03-15 21:43:24:596,-0.952399,1.52652,-9.57969,-8.93553,-5.6094,-3.29423
2023-03-15 21:43:24:606,-0.938958,1.53759,-9.59068,-8.93275,-5.60654,-3.31482
2023-03-15 21:43:24:616,-0.94388,1.55221,-9.60166,-8.93014,-5.60158,-3.33311
2023-03-15 21:43:24:626,-0.955118,1.5435,-9.60692,-8.92546,-5.59583,-3.35326
2023-03-15 21:43:24:636,-0.96273,1.54982,-9.60752,-8.92256,-5.58987,-3.37544
2023-03-15 21:43:24:646,-0.960349,1.5352,-9.60252,-8.9174,-5.587,-3.39705
2023-03-15 21:43:24:656,-0.965986,1.51955,-9.58372,-8.91222,-5.58124,-3.41897
2023-03-15 21:43:24:665,-0.984675,1.5229,-9.57445,-8.91075,-5.58129,-3.43913
2023-03-15 21:43:24:675,-1.0128,1.52855,-9.56745,-8.91001,-5.57896,-3.4628
2023-03-15 21:43:24:686,-1.00962,1.5411,-9.58264,-8.90759,-5.57708,-3.49203
2023-03-15 21:43:24:696,-0.987956,1.54313,-9.60235,-8.91015,-5.57737,-3.52218
2023-03-15 21:43:24:706,-0.986368,1.54399,-9.6255,-8.91043,-5.58034,-3.55365
2023-03-15 21:43:24:716,-0.987375,1.53191,-9.64199,-8.9082,-5.58354,-3.58714
2023-03-15 21:43:24:726,-0.967401,1.5309,-9.65014,-8.90465,-5.5832,-3.62038
2023-03-15 21:43:24:736,-0.972532,1.53447,-9.63355,-8.90064,-5.58538,-3.65614
2023-03-15 21:43:24:746,-0.974289,1.54062,-9.61603,-8.89703,-5.59135,-3.6897
2023-03-15 21:43:24:756,-0.952705,1.5217,-9.61657,-8.89136,-5.59023,-3.7219
2023-03-15 21:43:24:766,-0.952444,1.51681,-9.60697,-8.88936,-5.58936,-3.75431
2023-03-15 21:43:24:776,-0.96041,1.51003,-9.59111,-8.88719,-5.59004,-3.78637
2023-03-15 21:43:24:786,-0.958559,1.51026,-9.5917,-8.88308,-5.58595,-3.81685
2023-03-15 21:43:24:796,-0.957037,1.526,-9.58927,-8.88536,-5.57737,-3.84894
2023-03-15 21:43:24:806,-0.959498,1.53392,-9.62249,-8.88685,-5.57278,-3.87902
2023-03-15 21:43:24:816,-0.94189,1.53536,-9.6441,-8.88929,-5.56215,-3.90421
2023-03-15 21:43:24:826,-0.940277,1.52924,-9.6376,-8.88694,-5.55017,-3.93196
2023-03-15 21:43:24:836,-0.952241,1.52685,-9.60418,-8.88284,-5.54111,-3.95633
2023-03-15 21:43:24:846,-0.9676,1.50757,-9.59816,-8.87597,-5.53176,-3.98278
2023-03-15 21:43:24:856,-0.97403,1.51844,-9.62144,-8.86989,-5.52389,-4.0075
2023-03-15 21:43:24:866,-0.973595,1.52799,-9.6632,-8.86516,-5.50873,-4.03708
2023-03-15 21:43:24:876,-0.922469,1.52847,-9.66594,-8.856,-5.49295,-4.06859
2023-03-15 21:43:24:886,-0.873915,1.49048,-9.62551,-8.84574,-5.48383,-4.09828
2023-03-15 21:43:24:896,-0.866715,1.46521,-9.58659,-8.84035,-5.47901,-4.1297
2023-03-15 21:43:24:906,-0.869525,1.47158,-9.60192,-8.83383,-5.47632,-4.16148
2023-03-15 21:43:24:916,-0.890446,1.47471,-9.60034,-8.83078,-5.47908,-4.19217
2023-03-15 21:43:24:926,-0.920904,1.48273,-9.56858,-8.83659,-5.48331,-4.22174
2023-03-15 21:43:24:936,-0.932147,1.49258,-9.57939,-8.84464,-5.48419,-4.25549
2023-03-15 21:43:24:946,-0.898028,1.50284,-9.60138,-8.85035,-5.48414,-4.28666
2023-03-15 21:43:24:956,-0.87597,1.50315,-9.60965,-8.86036,-5.48181,-4.31356
2023-03-15 21:43:24:966,-0.883253,1.51149,-9.60861,-8.8729,-5.47643,-4.33623
2023-03-15 21:43:24:976,-0.892955,1.52531,-9.60379,-8.88579,-5.4724,-4.35899
2023-03-15 21:43:24:986,-0.895668,1.55035,-9.60153,-8.89919,-5.46812,-4.38038
2023-03-15 21:43:24:996,-0.925838,1.55129,-9.60211,-8.90758,-5.46186,-4.39435
2023-03-15 21:43:25:6,-0.931226,1.56863,-9.6088,-8.92038,-5.45696,-4.41
2023-03-15 21:43:25:16,-0.949784,1.5892,-9.62226,-8.92576,-5.45047,-4.42375
2023-03-15 21:43:25:26,-0.968629,1.59457,-9.62088,-8.93008,-5.44247,-4.44209
2023-03-15 21:43:25:36,-0.985105,1.5845,-9.61668,-8.93429,-5.43111,-4.46133
2023-03-15 21:43:25:46,-0.979943,1.5866,-9.62428,-8.93613,-5.42128,-4.48698
2023-03-15 21:43:25:56,-0.960355,1.58416,-9.64144,-8.93461,-5.41426,-4.51213
2023-03-15 21:43:25:66,-0.965234,1.59144,-9.63225,-8.93129,-5.41264,-4.54254
2023-03-15 21:43:25:76,-0.949481,1.5791,-9.62164,-8.92377,-5.40838,-4.57721
2023-03-15 21:43:25:86,-0.940603,1.55381,-9.6277,-8.91669,-5.4104,-4.61659
2023-03-15 21:43:25:96,-0.934597,1.54336,-9.65173,-8.91369,-5.40725,-4.65273
2023-03-15 21:43:25:106,-0.928514,1.5568,-9.65519,-8.9082,-5.40377,-4.69335
2023-03-15 21:43:25:116,-0.911094,1.55856,-9.64693,-8.89932,-5.40108,-4.73667
2023-03-15 21:43:25:126,-0.883136,1.53603,-9.6489,-8.89041,-5.40264,-4.78067
2023-03-15 21:43:25:136,-0.866227,1.52501,-9.64408,-8.88247,-5.40517,-4.82162
2023-03-15 21:43:25:146,-0.850732,1.52088,-9.63975,-8.87622,-5.40723,-4.86032
2023-03-15 21:43:25:156,-0.858605,1.5187,-9.63056,-8.86703,-5.41211,-4.89452
2023-03-15 21:43:25:166,-0.88033,1.51022,-9.61715,-8.86165,-5.41468,-4.9318
2023-03-15 21:43:25:176,-0.880225,1.5088,-9.60408,-8.85469,-5.40928,-4.96677
2023-03-15 21:43:25:186,-0.868116,1.51063,-9.60673,-8.84913,-5.40721,-4.99582
2023-03-15 21:43:25:196,-0.867358,1.51978,-9.59453,-8.84419,-5.40122,-5.02238
2023-03-15 21:43:25:206,-0.855106,1.50627,-9.59061,-8.83872,-5.39794,-5.04943
2023-03-15 21:43:25:216,-0.865854,1.50749,-9.59781,-8.8369,-5.38985,-5.071
2023-03-15 21:43:25:226,-0.862264,1.53214,-9.60259,-8.83485,-5.38344,-5.09136
2023-03-15 21:43:25:236,-0.862441,1.53633,-9.61163,-8.83149,-5.37587,-5.11518
2023-03-15 21:43:25:246,-0.863477,1.52559,-9.63095,-8.82617,-5.37036,-5.13771
2023-03-15 21:43:25:256,-0.863148,1.52632,-9.65109,-8.82069,-5.36739,-5.16217
2023-03-15 21:43:25:266,-0.869048,1.52072,-9.6596,-8.81845,-5.36632,-5.18821
2023-03-15 21:43:25:276,-0.860535,1.51184,-9.65786,-8.81048,-5.36855,-5.21052
2023-03-15 21:43:25:286,-0.85829,1.50063,-9.65693,-8.79898,-5.3713,-5.2326
2023-03-15 21:43:25:296,-0.853409,1.50299,-9.63703,-8.78837,-5.37528,-5.25331
2023-03-15 21:43:25:306,-0.83998,1.49614,-9.62127,-8.77916,-5.38043,-5.27688
2023-03-15 21:43:25:316,-0.829572,1.48771,-9.61265,-8.76913,-5.38847,-5.29776
2023-03-15 21:43:25:326,-0.841967,1.48529,-9.60455,-8.76027,-5.39738,-5.31454
2023-03-15 21:43:25:336,-0.856628,1.48202,-9.63238,-8.75421,-5.4064,-5.32875
2023-03-15 21:43:25:346,-0.869987,1.49539,-9.6332,-8.75077,-5.41349,-5.34476
2023-03-15 21:43:25:356,-0.887147,1.48745,-9.63315,-8.74762,-5.42048,-5.35498
2023-03-15 21:43:25:366,-0.922013,1.49401,-9.62284,-8.74228,-5.42651,-5.36135
2023-03-15 21:43:25:376,-0.950301,1.49564,-9.60778,-8.73497,-5.42756,-5.36632
2023-03-15 21:43:25:386,-0.961134,1.50074,-9.60014,-8.73047,-5.42897,-5.37194
2023-03-15 21:43:25:396,-0.963056,1.51027,-9.5906,-8.72861,-5.42857,-5.38225
2023-03-15 21:43:25:406,-0.969187,1.49775,-9.60321,-8.72253,-5.42715,-5.39147
2023-03-15 21:43:25:416,-0.960031,1.50184,-9.61331,-8.71896,-5.42697,-5.39992
2023-03-15 21:43:25:426,-0.969052,1.51813,-9.6111,-8.71376,-5.42292,-5.41391
2023-03-15 21:43:25:436,-0.965489,1.51468,-9.62176,-8.71078,-5.41958,-5.4305
2023-03-15 21:43:25:446,-0.9604,1.50511,-9.60553,-8.70439,-5.41889,-5.45047
2023-03-15 21:43:25:456,-0.959657,1.50699,-9.61188,-8.69773,-5.42025,-5.46995
2023-03-15 21:43:25:466,-0.957014,1.51779,-9.61497,-8.69657,-5.42106,-5.49561
2023-03-15 21:43:25:476,-0.951102,1.5054,-9.62007,-8.69206,-5.42512,-5.52088
2023-03-15 21:43:25:486,-0.941908,1.49898,-9.62225,-8.68612,-5.42886,-5.5468
2023-03-15 21:43:25:496,-0.93174,1.49498,-9.61048,-8.6791,-5.43399,-5.57056
2023-03-15 21:43:25:506,-0.928689,1.49353,-9.61214,-8.67352,-5.43739,-5.59796
2023-03-15 21:43:25:516,-0.929287,1.48777,-9.61112,-8.67352,-5.44024,-5.62285
2023-03-15 21:43:25:526,-0.930081,1.48576,-9.61054,-8.66814,-5.44909,-5.64971
2023-03-15 21:43:25:536,-0.937436,1.49677,-9.60678,-8.66368,-5.45238,-5.67255
2023-03-15 21:43:25:546,-0.924852,1.50157,-9.60896,-8.66623,-5.45641,-5.69217
2023-03-15 21:43:25:556,-0.938889,1.49845,-9.61725,-8.66688,-5.45763,-5.71382
2023-03-15 21:43:25:566,-0.952764,1.50251,-9.6409,-8.66521,-5.45847,-5.733
2023-03-15 21:43:25:576,-0.954802,1.5166,-9.65491,-8.66259,-5.45761,-5.75373
2023-03-15 21:43:25:586,-0.947227,1.51539,-9.66537,-8.65941,-5.45763,-5.77172
2023-03-15 21:43:25:596,-0.93982,1.50065,-9.6549,-8.65259,-5.4549,-5.78876
2023-03-15 21:43:25:606,-0.953764,1.4882,-9.62499,-8.64536,-5.45212,-5.80747
2023-03-15 21:43:25:616,-0.971462,1.4832,-9.58656,-8.63441,-5.45106,-5.82571
2023-03-15 21:43:25:626,-0.978663,1.4613,-9.57818,-8.62875,-5.44918,-5.84536
2023-03-15 21:43:25:636,-0.972946,1.4619,-9.60908,-8.62047,-5.44516,-5.86622
2023-03-15 21:43:25:646,-0.936961,1.47145,-9.64076,-8.61308,-5.43668,-5.89071
2023-03-15 21:43:25:656,-0.892285,1.47344,-9.65552,-8.60387,-5.43223,-5.91775
2023-03-15 21:43:25:666,-0.876898,1.45227,-9.63675,-8.59363,-5.43501,-5.94389
2023-03-15 21:43:25:676,-0.88232,1.43385,-9.62452,-8.58608,-5.44109,-5.96774
2023-03-15 21:43:25:686,-0.898913,1.4477,-9.60445,-8.58127,-5.45104,-5.98865
2023-03-15 21:43:25:696,-0.930488,1.43861,-9.58662,-8.57754,-5.46282,-6.01393
2023-03-15 21:43:25:706,-0.974641,1.44595,-9.55812,-8.5753,-5.47068,-6.03919
2023-03-15 21:43:25:716,-0.959982,1.43703,-9.56017,-8.57967,-5.47361,-6.06314
2023-03-15 21:43:25:726,-0.921619,1.45018,-9.59343,-8.58593,-5.47395,-6.08216
2023-03-15 21:43:25:736,-0.916629,1.46785,-9.59966,-8.59257,-5.47412,-6.10471
2023-03-15 21:43:25:746,-0.906696,1.47912,-9.59544,-8.60204,-5.46978,-6.1249
2023-03-15 21:43:25:756,-0.926061,1.51325,-9.5967,-8.61328,-5.46508,-6.14298
2023-03-15 21:43:25:766,-0.941927,1.52677,-9.59985,-8.62501,-5.46131,-6.15838
2023-03-15 21:43:25:776,-0.957825,1.54147,-9.60512,-8.63796,-5.45229,-6.17118
2023-03-15 21:43:25:786,-0.964972,1.56091,-9.63143,-8.64711,-5.44674,-6.18654
2023-03-15 21:43:25:796,-0.976982,1.58071,-9.65096,-8.6552,-5.44087,-6.20376
2023-03-15 21:43:25:806,-0.959397,1.56488,-9.65691,-8.65565,-5.43146,-6.22163
2023-03-15 21:43:25:816,-0.964766,1.56691,-9.66376,-8.65174,-5.42023,-6.24231
2023-03-15 21:43:25:826,-0.966783,1.56029,-9.65916,-8.64709,-5.41514,-6.26589
2023-03-15 21:43:25:836,-0.951,1.53419,-9.65619,-8.63842,-5.41324,-6.29012
2023-03-15 21:43:25:846,-0.944881,1.5275,-9.63967,-8.6321,-5.40941,-6.31651
2023-03-15 21:43:25:856,-0.932753,1.5008,-9.60988,-8.62555,-5.41074,-6.34482
2023-03-15 21:43:25:866,-0.937873,1.49017,-9.63736,-8.61714,-5.4113,-6.3766
2023-03-15 21:43:25:876,-0.941474,1.48283,-9.66294,-8.60964,-5.41252,-6.40932
2023-03-15 21:43:25:886,-0.931397,1.49964,-9.65615,-8.6027,-5.41185,-6.44373
2023-03-15 21:43:25:896,-0.911759,1.50047,-9.65327,-8.59425,-5.41267,-6.48223
2023-03-15 21:43:25:906,-0.884852,1.47495,-9.66868,-8.58135,-5.4142,-6.51545
2023-03-15 21:43:25:916,-0.872846,1.47683,-9.67506,-8.56713,-5.41774,-6.54755
2023-03-15 21:43:25:926,-0.890967,1.48519,-9.66104,-8.55465,-5.42188,-6.58215
2023-03-15 21:43:25:936,-0.905985,1.47005,-9.62689,-8.54078,-5.42763,-6.614
2023-03-15 21:43:25:946,-0.917699,1.46945,-9.61183,-8.53103,-5.43095,-6.64622
2023-03-15 21:43:25:956,-0.920864,1.46635,-9.5975,-8.52177,-5.43056,-6.68116
2023-03-15 21:43:25:966,-0.91534,1.46794,-9.58839,-8.51156,-5.42741,-6.71286
2023-03-15 21:43:25:976,-0.902073,1.45569,-9.58765,-8.50256,-5.42615,-6.74236
2023-03-15 21:43:25:986,-0.908495,1.46231,-9.58129,-8.49697,-5.42242,-6.77187
2023-03-15 21:43:25:996,-0.919323,1.47508,-9.58814,-8.49097,-5.41799,-6.80318
2023-03-15 21:43:26:6,-0.898442,1.4765,-9.61207,-8.48463,-5.41661,-6.82938
2023-03-15 21:43:26:16,-0.899962,1.47134,-9.62712,-8.47807,-5.41417,-6.85693
2023-03-15 21:43:26:26,-0.892551,1.48135,-9.63877,-8.47062,-5.41214,-6.88602
2023-03-15 21:43:26:36,-0.892887,1.46932,-9.65112,-8.46249,-5.4111,-6.91808
2023-03-15 21:43:26:46,-0.888861,1.44931,-9.65625,-8.44979,-5.40744,-6.95189
2023-03-15 21:43:26:56,-0.881446,1.43549,-9.65172,-8.44002,-5.40462,-6.97856
2023-03-15 21:43:26:66,-0.873749,1.4324,-9.64692,-8.42765,-5.4064,-7.00524
2023-03-15 21:43:26:76,-0.857782,1.42882,-9.64333,-8.41655,-5.40808,-7.0322
2023-03-15 21:43:26:86,-0.854202,1.41758,-9.63649,-8.40227,-5.41058,-7.05705
2023-03-15 21:43:26:96,-0.862205,1.41623,-9.63259,-8.39083,-5.41543,-7.08042
2023-03-15 21:43:26:106,-0.868344,1.41572,-9.6361,-8.37964,-5.42004,-7.1001
2023-03-15 21:43:26:116,-0.885739,1.41828,-9.627,-8.36734,-5.4253,-7.11675
2023-03-15 21:43:26:126,-0.899979,1.4127,-9.62131,-8.35997,-5.42891,-7.13438
2023-03-15 21:43:26:136,-0.901039,1.4189,-9.61791,-8.35848,-5.43244,-7.15081
2023-03-15 21:43:26:146,-0.929125,1.43121,-9.60998,-8.35139,-5.43405,-7.16163
2023-03-15 21:43:26:156,-0.941948,1.4311,-9.61463,-8.34578,-5.43638,-7.17446
2023-03-15 21:43:26:166,-0.946008,1.44097,-9.62267,-8.34097,-5.43806,-7.18675
2023-03-15 21:43:26:176,-0.951721,1.44653,-9.6284,-8.3341,-5.43853,-7.19714
2023-03-15 21:43:26:186,-0.966348,1.4312,-9.62971,-8.32655,-5.43491,-7.21245
2023-03-15 21:43:26:196,-0.974497,1.43949,-9.6364,-8.31898,-5.43526,-7.22899
2023-03-15 21:43:26:206,-0.970948,1.46265,-9.63777,-8.30849,-5.43431,-7.24357
2023-03-15 21:43:26:216,-0.957736,1.4767,-9.65567,-8.29835,-5.43267,-7.26044
2023-03-15 21:43:26:226,-0.951124,1.47469,-9.68754,-8.28567,-5.42845,-7.28146
2023-03-15 21:43:26:236,-0.939812,1.48507,-9.71563,-8.2707,-5.42471,-7.30192
2023-03-15 21:43:26:246,-0.920689,1.4807,-9.72206,-8.24924,-5.42265,-7.32168
2023-03-15 21:43:26:256,-0.91633,1.46467,-9.68997,-8.22249,-5.41823,-7.3408
2023-03-15 21:43:26:266,-0.892365,1.44315,-9.67526,-8.19206,-5.4156,-7.36128
2023-03-15 21:43:26:276,-0.910604,1.4397,-9.66426,-8.1639,-5.41325,-7.38096
2023-03-15 21:43:26:286,-0.915601,1.42597,-9.64531,-8.13952,-5.41352,-7.40171
2023-03-15 21:43:26:296,-0.923097,1.42112,-9.61907,-8.11316,-5.41304,-7.42728
2023-03-15 21:43:26:306,-0.937296,1.42511,-9.62146,-8.08849,-5.41608,-7.45013
2023-03-15 21:43:26:316,-0.945601,1.44154,-9.64248,-8.06745,-5.42045,-7.4796
2023-03-15 21:43:26:326,-0.961734,1.43915,-9.64035,-8.04099,-5.42497,-7.51373
2023-03-15 21:43:26:336,-0.983456,1.45122,-9.64254,-8.01462,-5.43139,-7.54695
2023-03-15 21:43:26:346,-0.977797,1.4485,-9.66222,-7.98774,-5.43576,-7.58432
2023-03-15 21:43:26:356,-0.971223,1.41887,-9.70101,-7.95912,-5.439,-7.62239
2023-03-15 21:43:26:366,-0.968956,1.41969,-9.68797,-7.92816,-5.4435,-7.65779
2023-03-15 21:43:26:376,-0.971937,1.40679,-9.66589,-7.88949,-5.44697,-7.69446
2023-03-15 21:43:26:386,-0.981538,1.39757,-9.63483,-7.85269,-5.44868,-7.73435
2023-03-15 21:43:26:396,-0.993556,1.38164,-9.62025,-7.81481,-5.45104,-7.77304
2023-03-15 21:43:26:406,-1.01041,1.35923,-9.62394,-7.77518,-5.44899,-7.81518
2023-03-15 21:43:26:416,-1.01004,1.37048,-9.66279,-7.7385,-5.44433,-7.85987
2023-03-15 21:43:26:426,-0.988022,1.3786,-9.70234,-7.70165,-5.43506,-7.90694
2023-03-15 21:43:26:436,-0.947661,1.37093,-9.711,-7.66328,-5.42742,-7.95706
2023-03-15 21:43:26:446,-0.926785,1.34616,-9.68196,-7.62114,-5.42452,-8.00692
2023-03-15 21:43:26:456,-0.927512,1.31567,-9.66435,-7.57658,-5.42359,-8.05995
2023-03-15 21:43:26:466,-0.923707,1.31974,-9.64583,-7.53174,-5.42307,-8.11277
2023-03-15 21:43:26:476,-0.965842,1.31491,-9.61607,-7.48965,-5.42616,-8.16671
2023-03-15 21:43:26:486,-0.991712,1.3155,-9.57928,-7.45041,-5.42713,-8.2232
2023-03-15 21:43:26:496,-0.976917,1.32824,-9.59062,-7.41581,-5.42497,-8.28153
2023-03-15 21:43:26:506,-0.938044,1.33127,-9.61701,-7.38223,-5.4193,-8.34031
2023-03-15 21:43:26:516,-0.904901,1.3341,-9.63579,-7.35021,-5.41792,-8.39606
2023-03-15 21:43:26:526,-0.880798,1.33964,-9.65636,-7.32038,-5.41161,-8.45186
2023-03-15 21:43:26:536,-0.874019,1.3554,-9.67217,-7.2912,-5.4061,-8.5066
2023-03-15 21:43:26:546,-0.876304,1.3456,-9.66309,-7.25911,-5.39979,-8.55282
2023-03-15 21:43:26:556,-0.875639,1.33561,-9.66954,-7.22096,-5.39014,-8.60247
2023-03-15 21:43:26:566,-0.872227,1.33103,-9.70177,-7.17965,-5.38022,-8.64402
2023-03-15 21:43:26:576,-0.868704,1.3194,-9.73494,-7.12858,-5.36922,-8.68328
2023-03-15 21:43:26:586,-0.898899,1.29594,-9.75974,-7.06447,-5.35799,-8.71637
2023-03-15 21:43:26:596,-0.922592,1.26191,-9.78473,-6.99682,-5.34918,-8.74483
2023-03-15 21:43:26:606,-0.92979,1.22032,-9.79264,-6.92181,-5.33236,-8.77132
2023-03-15 21:43:26:616,-0.959913,1.1905,-9.76937,-6.84073,-5.31543,-8.79671
2023-03-15 21:43:26:626,-0.97467,1.14813,-9.71122,-6.75259,-5.29583,-8.81959
2023-03-15 21:43:26:636,-0.954983,1.09015,-9.64256,-6.66254,-5.27659,-8.84152
2023-03-15 21:43:26:646,-0.973874,1.05442,-9.60656,-6.58004,-5.25626,-8.86303
2023-03-15 21:43:26:656,-0.986942,1.04022,-9.61284,-6.50473,-5.23313,-8.88383
2023-03-15 21:43:26:666,-0.997716,1.04418,-9.60834,-6.44035,-5.20736,-8.91484
2023-03-15 21:43:26:676,-0.979292,1.02241,-9.59366,-6.38253,-5.18431,-8.94486
2023-03-15 21:43:26:686,-0.950986,1.03273,-9.61795,-6.33237,-5.15883,-8.97775
2023-03-15 21:43:26:696,-0.929562,1.05688,-9.64864,-6.29022,-5.13564,-9.01459
2023-03-15 21:43:26:706,-0.931457,1.0815,-9.68827,-6.25271,-5.11459,-9.05715
2023-03-15 21:43:26:716,-0.936947,1.1081,-9.69069,-6.217,-5.09435,-9.10481
2023-03-15 21:43:26:726,-0.950052,1.13882,-9.70752,-6.18348,-5.07442,-9.16174
2023-03-15 21:43:26:736,-0.929787,1.14707,-9.7003,-6.14548,-5.05286,-9.22585
2023-03-15 21:43:26:746,-0.8877,1.1501,-9.67267,-6.10841,-5.03475,-9.29452
2023-03-15 21:43:26:756,-0.835531,1.14865,-9.67759,-6.07238,-5.01737,-9.36782
2023-03-15 21:43:26:766,-0.778361,1.15253,-9.68738,-6.03089,-4.99739,-9.4488
2023-03-15 21:43:26:776,-0.733272,1.13695,-9.67235,-5.98767,-4.98234,-9.53113
2023-03-15 21:43:26:786,-0.708794,1.12505,-9.6887,-5.9412,-4.9728,-9.61525
2023-03-15 21:43:26:796,-0.681451,1.10964,-9.71318,-5.89275,-4.96927,-9.69891
2023-03-15 21:43:26:806,-0.673181,1.08526,-9.7038,-5.83662,-4.97094,-9.78159
2023-03-15 21:43:26:816,-0.67485,1.04729,-9.7105,-5.77856,-4.97772,-9.85986
2023-03-15 21:43:26:826,-0.668594,1.03799,-9.73161,-5.72064,-4.98499,-9.93714
2023-03-15 21:43:26:836,-0.650404,1.01187,-9.7307,-5.65657,-4.99228,-10.0138
2023-03-15 21:43:26:845,-0.656352,0.96557,-9.7149,-5.59224,-5.00735,-10.0839
2023-03-15 21:43:26:856,-0.678886,0.939175,-9.71665,-5.52654,-5.02412,-10.1503
2023-03-15 21:43:26:866,-0.694553,0.910619,-9.7066,-5.46089,-5.04604,-10.2175
2023-03-15 21:43:26:876,-0.720084,0.886293,-9.71043,-5.39885,-5.07073,-10.2815
2023-03-15 21:43:26:886,-0.752581,0.871345,-9.72308,-5.33612,-5.10012,-10.3431
2023-03-15 21:43:26:896,-0.794895,0.858255,-9.70286,-5.27265,-5.12825,-10.4028
2023-03-15 21:43:26:906,-0.840445,0.839425,-9.67883,-5.20783,-5.15852,-10.4647
2023-03-15 21:43:26:916,-0.85462,0.799862,-9.68295,-5.14404,-5.19224,-10.5255
2023-03-15 21:43:26:926,-0.858235,0.78673,-9.67035,-5.085,-5.22554,-10.5847
2023-03-15 21:43:26:936,-0.870201,0.76093,-9.6468,-5.02389,-5.25808,-10.6429
2023-03-15 21:43:26:946,-0.881362,0.747637,-9.63396,-4.96672,-5.28937,-10.6992
2023-03-15 21:43:26:956,-0.924455,0.750468,-9.61778,-4.91432,-5.32089,-10.7577
2023-03-15 21:43:26:966,-0.943672,0.718925,-9.61109,-4.86747,-5.34589,-10.816
2023-03-15 21:43:26:976,-0.910092,0.720752,-9.61486,-4.82476,-5.36873,-10.8764
2023-03-15 21:43:26:986,-0.877381,0.723642,-9.62698,-4.78571,-5.38681,-10.9351
2023-03-15 21:43:26:996,-0.863706,0.715047,-9.65484,-4.74528,-5.40157,-10.9909
2023-03-15 21:43:27:6,-0.851197,0.712257,-9.6737,-4.70884,-5.42243,-11.0427
2023-03-15 21:43:27:16,-0.837135,0.715544,-9.69529,-4.67374,-5.43952,-11.0935
2023-03-15 21:43:27:26,-0.846895,0.702283,-9.70981,-4.64307,-5.46016,-11.1377
2023-03-15 21:43:27:36,-0.862377,0.703586,-9.74688,-4.61317,-5.48128,-11.1781
2023-03-15 21:43:27:46,-0.888866,0.723792,-9.76635,-4.58073,-5.5065,-11.2144
2023-03-15 21:43:27:56,-0.943288,0.748871,-9.77484,-4.5506,-5.53368,-11.248
2023-03-15 21:43:27:66,-0.983688,0.729147,-9.77302,-4.51413,-5.55282,-11.2762
2023-03-15 21:43:27:76,-1.01378,0.696123,-9.73991,-4.4682,-5.57084,-11.3019
2023-03-15 21:43:27:86,-1.04537,0.692745,-9.71814,-4.42555,-5.58871,-11.3257
2023-03-15 21:43:27:96,-1.0452,0.667115,-9.68434,-4.37541,-5.60036,-11.3466
2023-03-15 21:43:27:106,-1.03277,0.631031,-9.65442,-4.3276,-5.61016,-11.3692
2023-03-15 21:43:27:116,-1.0255,0.611317,-9.63354,-4.28784,-5.61568,-11.3848
2023-03-15 21:43:27:126,-1.05503,0.638779,-9.65715,-4.248,-5.62127,-11.4008
2023-03-15 21:43:27:136,-1.08371,0.683155,-9.7121,-4.20916,-5.62267,-11.4151
2023-03-15 21:43:27:146,-1.09821,0.703766,-9.74175,-4.16732,-5.62328,-11.4322
2023-03-15 21:43:27:156,-1.11721,0.761972,-9.77162,-4.12479,-5.62138,-11.4551
2023-03-15 21:43:27:166,-1.13532,0.818483,-9.81295,-4.07623,-5.61449,-11.4792
2023-03-15 21:43:27:176,-1.12652,0.816419,-9.81068,-4.01765,-5.59822,-11.5074
2023-03-15 21:43:27:186,-1.10969,0.776838,-9.79832,-3.95584,-5.57831,-11.5364
2023-03-15 21:43:27:196,-1.09676,0.778278,-9.80966,-3.88791,-5.55481,-11.5645
2023-03-15 21:43:27:206,-1.07563,0.770524,-9.78696,-3.8141,-5.52883,-11.6009
2023-03-15 21:43:27:216,-1.02843,0.717737,-9.71171,-3.73715,-5.50525,-11.6359
2023-03-15 21:43:27:226,-1.00671,0.653561,-9.66673,-3.66149,-5.48817,-11.676
2023-03-15 21:43:27:236,-0.996263,0.610407,-9.62897,-3.59176,-5.47045,-11.7173
2023-03-15 21:43:27:246,-1.00222,0.588719,-9.57224,-3.52395,-5.4587,-11.7607
2023-03-15 21:43:27:256,-1.00414,0.540746,-9.53359,-3.46688,-5.45109,-11.8087
2023-03-15 21:43:27:266,-0.994523,0.521294,-9.49951,-3.42382,-5.44021,-11.8579
2023-03-15 21:43:27:276,-0.956788,0.514803,-9.48095,-3.39597,-5.43544,-11.9102
2023-03-15 21:43:27:286,-0.919181,0.50131,-9.48582,-3.38298,-5.43102,-11.9645
2023-03-15 21:43:27:296,-0.903295,0.50941,-9.51809,-3.38117,-5.4294,-12.0189
2023-03-15 21:43:27:306,-0.884723,0.534101,-9.52993,-3.38812,-5.42719,-12.076
2023-03-15 21:43:27:316,-0.86213,0.541115,-9.53661,-3.40222,-5.4235,-12.1278
2023-03-15 21:43:27:326,-0.823717,0.549639,-9.5554,-3.42329,-5.41599,-12.1796
2023-03-15 21:43:27:336,-0.800311,0.583722,-9.5697,-3.44963,-5.41307,-12.2287
2023-03-15 21:43:27:346,-0.760493,0.592212,-9.5833,-3.47871,-5.40604,-12.2734
2023-03-15 21:43:27:355,-0.754451,0.598996,-9.59809,-3.51428,-5.40122,-12.3133
2023-03-15 21:43:27:366,-0.780054,0.60992,-9.61508,-3.5511,-5.40532,-12.3453
2023-03-15 21:43:27:376,-0.815612,0.65651,-9.64203,-3.58911,-5.41121,-12.3784
2023-03-15 21:43:27:386,-0.811725,0.68782,-9.67785,-3.63134,-5.42075,-12.4109
2023-03-15 21:43:27:396,-0.832653,0.687228,-9.70214,-3.67537,-5.43211,-12.439
2023-03-15 21:43:27:406,-0.858148,0.718094,-9.72086,-3.71428,-5.4461,-12.464
2023-03-15 21:43:27:416,-0.888295,0.730792,-9.75721,-3.75408,-5.45768,-12.4847
2023-03-15 21:43:27:426,-0.897745,0.736205,-9.80251,-3.7881,-5.46681,-12.5033
2023-03-15 21:43:27:436,-0.91151,0.732469,-9.82807,-3.81918,-5.47176,-12.5189
2023-03-15 21:43:27:446,-0.906627,0.746078,-9.84214,-3.84412,-5.47328,-12.5305
2023-03-15 21:43:27:456,-0.901826,0.742272,-9.82684,-3.86567,-5.47376,-12.538
2023-03-15 21:43:27:466,-0.911403,0.7584,-9.81335,-3.8854,-5.4726,-12.5461
2023-03-15 21:43:27:476,-0.95012,0.784092,-9.80674,-3.90172,-5.46788,-12.5537
2023-03-15 21:43:27:486,-0.978165,0.7737,-9.79074,-3.91454,-5.46393,-12.5593
2023-03-15 21:43:27:496,-1.0066,0.762918,-9.76311,-3.92598,-5.45723,-12.5671
2023-03-15 21:43:27:506,-1.02185,0.772304,-9.76098,-3.93423,-5.44421,-12.5781
2023-03-15 21:43:27:516,-1.03683,0.781151,-9.75689,-3.94501,-5.4296,-12.5933
2023-03-15 21:43:27:526,-1.03543,0.747637,-9.74757,-3.94968,-5.40549,-12.6088
2023-03-15 21:43:27:536,-1.00894,0.747437,-9.7325,-3.94721,-5.37724,-12.6237
2023-03-15 21:43:27:546,-0.98479,0.739806,-9.72565,-3.94475,-5.34683,-12.6415
2023-03-15 21:43:27:556,-0.972018,0.726477,-9.73944,-3.94319,-5.31144,-12.659
2023-03-15 21:43:27:566,-0.930321,0.707088,-9.76087,-3.93842,-5.27231,-12.6795
2023-03-15 21:43:27:576,-0.871293,0.686937,-9.7678,-3.9278,-5.23201,-12.7002
2023-03-15 21:43:27:586,-0.841944,0.671066,-9.7492,-3.91884,-5.19311,-12.7214
2023-03-15 21:43:27:596,-0.809167,0.629167,-9.75687,-3.90535,-5.15517,-12.7431
2023-03-15 21:43:27:606,-0.767125,0.630775,-9.74823,-3.89353,-5.12277,-12.7651
2023-03-15 21:43:27:616,-0.721721,0.610848,-9.73635,-3.88214,-5.09786,-12.7849
2023-03-15 21:43:27:626,-0.692186,0.597818,-9.72337,-3.87343,-5.07852,-12.7988
2023-03-15 21:43:27:636,-0.682122,0.603145,-9.73965,-3.86482,-5.06836,-12.8106
2023-03-15 21:43:27:646,-0.695662,0.592389,-9.73028,-3.85531,-5.06308,-12.8197
2023-03-15 21:43:27:656,-0.707159,0.602306,-9.72161,-3.85223,-5.05961,-12.8308
2023-03-15 21:43:27:666,-0.705199,0.61185,-9.73166,-3.85344,-5.06204,-12.837
2023-03-15 21:43:27:676,-0.740388,0.60749,-9.71935,-3.8561,-5.06893,-12.8382
2023-03-15 21:43:27:686,-0.787243,0.611458,-9.7114,-3.85769,-5.07721,-12.8392
2023-03-15 21:43:27:696,-0.824796,0.631624,-9.70381,-3.8626,-5.08807,-12.8358
2023-03-15 21:43:27:706,-0.866031,0.650025,-9.69593,-3.87345,-5.1009,-12.8323
2023-03-15 21:43:27:716,-0.913329,0.654912,-9.70383,-3.87939,-5.11151,-12.8285
2023-03-15 21:43:27:726,-0.934168,0.682965,-9.71479,-3.88563,-5.11733,-12.8233
2023-03-15 21:43:27:736,-0.944245,0.687536,-9.71365,-3.89072,-5.12236,-12.8203
2023-03-15 21:43:27:746,-0.942327,0.697291,-9.70731,-3.8944,-5.11764,-12.8174
2023-03-15 21:43:27:756,-0.928631,0.699444,-9.70909,-3.90249,-5.11091,-12.8162
2023-03-15 21:43:27:766,-0.924466,0.702259,-9.69762,-3.90471,-5.09993,-12.8179
2023-03-15 21:43:27:776,-0.919059,0.712676,-9.69822,-3.90727,-5.09247,-12.8208
2023-03-15 21:43:27:786,-0.908096,0.720458,-9.70933,-3.91069,-5.08651,-12.8287
2023-03-15 21:43:27:796,-0.878293,0.707448,-9.70357,-3.91403,-5.07915,-12.8404
2023-03-15 21:43:27:806,-0.855379,0.718652,-9.70662,-3.91768,-5.07392,-12.8546
2023-03-15 21:43:27:816,-0.840419,0.727532,-9.72054,-3.92186,-5.07066,-12.8696
2023-03-15 21:43:27:826,-0.827986,0.735008,-9.71908,-3.92386,-5.06736,-12.882
2023-03-15 21:43:27:836,-0.828374,0.747619,-9.7163,-3.93099,-5.07139,-12.8958
2023-03-15 21:43:27:846,-0.844117,0.752124,-9.74383,-3.93565,-5.06907,-12.9112
2023-03-15 21:43:27:856,-0.844498,0.756179,-9.75886,-3.93765,-5.07041,-12.93
2023-03-15 21:43:27:866,-0.840091,0.75907,-9.75819,-3.94246,-5.07196,-12.9506
2023-03-15 21:43:27:876,-0.84194,0.746324,-9.75771,-3.94105,-5.07719,-12.9755
2023-03-15 21:43:27:886,-0.847654,0.744375,-9.77135,-3.94154,-5.08587,-13.0039
2023-03-15 21:43:27:896,-0.875325,0.753782,-9.78636,-3.93879,-5.09651,-13.0371
2023-03-15 21:43:27:906,-0.896138,0.772269,-9.7903,-3.9341,-5.10941,-13.0763
2023-03-15 21:43:27:916,-0.913877,0.786576,-9.78337,-3.92507,-5.12419,-13.1201
2023-03-15 21:43:27:926,-0.939369,0.765289,-9.75751,-3.90812,-5.13961,-13.1686
2023-03-15 21:43:27:936,-0.951941,0.750572,-9.76217,-3.88719,-5.14984,-13.22
2023-03-15 21:43:27:946,-0.924285,0.753201,-9.81734,-3.86484,-5.15718,-13.2721
2023-03-15 21:43:27:956,-0.871261,0.752686,-9.8359,-3.83798,-5.16026,-13.3256
2023-03-15 21:43:27:966,-0.801151,0.705428,-9.81343,-3.80628,-5.16339,-13.3785
2023-03-15 21:43:27:976,-0.768344,0.668904,-9.79062,-3.7689,-5.16783,-13.4254
2023-03-15 21:43:27:986,-0.781732,0.654432,-9.76371,-3.73198,-5.17524,-13.4713
2023-03-15 21:43:27:996,-0.780694,0.607663,-9.70563,-3.69427,-5.18358,-13.5084
2023-03-15 21:43:28:6,-0.8044,0.576159,-9.62098,-3.6651,-5.19605,-13.5389
2023-03-15 21:43:28:16,-0.836298,0.56305,-9.57221,-3.64086,-5.20875,-13.5672
2023-03-15 21:43:28:26,-0.844216,0.573327,-9.58038,-3.62281,-5.21759,-13.5944
2023-03-15 21:43:28:36,-0.833991,0.574311,-9.5886,-3.61332,-5.2284,-13.6185
2023-03-15 21:43:28:46,-0.843893,0.586391,-9.61258,-3.61243,-5.23376,-13.6383
2023-03-15 21:43:28:56,-0.878338,0.608114,-9.65153,-3.61768,-5.23654,-13.6528
2023-03-15 21:43:28:66,-0.905894,0.630151,-9.6723,-3.62012,-5.2344,-13.6659
2023-03-15 21:43:28:76,-0.934909,0.643383,-9.68098,-3.62839,-5.2349,-13.6756
2023-03-15 21:43:28:86,-0.940868,0.669021,-9.6929,-3.63388,-5.23595,-13.687
2023-03-15 21:43:28:96,-0.946475,0.684123,-9.69925,-3.64242,-5.23354,-13.7006
2023-03-15 21:43:28:106,-0.934662,0.677181,-9.70591,-3.64322,-5.22861,-13.716
2023-03-15 21:43:28:116,-0.929503,0.673083,-9.70765,-3.64911,-5.2248,-13.7303
2023-03-15 21:43:28:126,-0.935642,0.672072,-9.71286,-3.64914,-5.21522,-13.7504
2023-03-15 21:43:28:136,-0.918333,0.667585,-9.71341,-3.65162,-5.20861,-13.7754
2023-03-15 21:43:28:146,-0.890455,0.681113,-9.71751,-3.64865,-5.20259,-13.7998
2023-03-15 21:43:28:156,-0.853709,0.682343,-9.70637,-3.64876,-5.20054,-13.8261
2023-03-15 21:43:28:166,-0.833858,0.665648,-9.68938,-3.64958,-5.19815,-13.8439
2023-03-15 21:43:28:176,-0.829977,0.674764,-9.72314,-3.65067,-5.19558,-13.8608
2023-03-15 21:43:28:186,-0.81951,0.697348,-9.76873,-3.65534,-5.18949,-13.8796
2023-03-15 21:43:28:195,-0.80398,0.696705,-9.80046,-3.65904,-5.18226,-13.8954
2023-03-15 21:43:28:206,-0.777778,0.679684,-9.79562,-3.66088,-5.18062,-13.9054
2023-03-15 21:43:28:216,-0.770528,0.666068,-9.79391,-3.66034,-5.18052,-13.9085
2023-03-15 21:43:28:226,-0.774792,0.673083,-9.77832,-3.65755,-5.18062,-13.9069
2023-03-15 21:43:28:236,-0.811344,0.644891,-9.7408,-3.6526,-5.18551,-13.9026
2023-03-15 21:43:28:246,-0.850696,0.628087,-9.70411,-3.64745,-5.18893,-13.8952
2023-03-15 21:43:28:256,-0.880768,0.627288,-9.67092,-3.64921,-5.19502,-13.8828
2023-03-15 21:43:28:266,-0.918035,0.625557,-9.65454,-3.6522,-5.19596,-13.8723
2023-03-15 21:43:28:276,-0.936949,0.627876,-9.65362,-3.65771,-5.19737,-13.8612
2023-03-15 21:43:28:286,-0.948081,0.641222,-9.66939,-3.6677,-5.19436,-13.8487
2023-03-15 21:43:28:296,-0.945886,0.655447,-9.67541,-3.67923,-5.18806,-13.8382
2023-03-15 21:43:28:306,-0.946974,0.660797,-9.68809,-3.68774,-5.18081,-13.8276
2023-03-15 21:43:28:316,-0.936314,0.658407,-9.71708,-3.69603,-5.16915,-13.8168
2023-03-15 21:43:28:326,-0.913932,0.642069,-9.71715,-3.70087,-5.15345,-13.8047
2023-03-15 21:43:28:336,-0.896478,0.625952,-9.70784,-3.7055,-5.13675,-13.7908
2023-03-15 21:43:28:346,-0.885165,0.621896,-9.70452,-3.7099,-5.12475,-13.7767
2023-03-15 21:43:28:356,-0.880171,0.6324,-9.68418,-3.71234,-5.11422,-13.7625
2023-03-15 21:43:28:366,-0.881063,0.621328,-9.69443,-3.71816,-5.10495,-13.7438
2023-03-15 21:43:28:376,-0.870794,0.607917,-9.70899,-3.71976,-5.09748,-13.7292
2023-03-15 21:43:28:386,-0.856943,0.620205,-9.69645,-3.73057,-5.0908,-13.7172
2023-03-15 21:43:28:396,-0.867014,0.638579,-9.70464,-3.73987,-5.08439,-13.7067
2023-03-15 21:43:28:406,-0.879228,0.65261,-9.73501,-3.74773,-5.08192,-13.6935
2023-03-15 21:43:28:416,-0.882003,0.662239,-9.75435,-3.75365,-5.07569,-13.6832
2023-03-15 21:43:28:426,-0.873426,0.672772,-9.76074,-3.76535,-5.06879,-13.6745
2023-03-15 21:43:28:436,-0.878531,0.690167,-9.7404,-3.77103,-5.06257,-13.6685
2023-03-15 21:43:28:446,-0.859073,0.686935,-9.74384,-3.78068,-5.05962,-13.6613
2023-03-15 21:43:28:456,-0.839005,0.690935,-9.7465,-3.7899,-5.05569,-13.6531
2023-03-15 21:43:28:466,-0.847081,0.710423,-9.75544,-3.79719,-5.05433,-13.6471
2023-03-15 21:43:28:476,-0.85201,0.717176,-9.74203,-3.80458,-5.05346,-13.646
2023-03-15 21:43:28:486,-0.856627,0.729738,-9.72468,-3.81244,-5.05597,-13.6428
2023-03-15 21:43:28:496,-0.863884,0.731237,-9.7479,-3.82036,-5.05554,-13.6422
2023-03-15 21:43:28:506,-0.865858,0.736099,-9.77257,-3.82616,-5.05653,-13.6426
2023-03-15 21:43:28:516,-0.854987,0.750786,-9.8019,-3.82594,-5.05801,-13.6422
2023-03-15 21:43:28:526,-0.845335,0.740379,-9.81063,-3.82264,-5.06037,-13.6421
2023-03-15 21:43:28:536,-0.838536,0.730742,-9.81317,-3.81562,-5.06471,-13.6423
2023-03-15 21:43:28:546,-0.851945,0.73771,-9.80308,-3.8016,-5.07059,-13.6402
2023-03-15 21:43:28:556,-0.884822,0.715138,-9.77642,-3.78636,-5.07975,-13.6435
2023-03-15 21:43:28:566,-0.870878,0.677753,-9.74967,-3.76703,-5.08579,-13.6468
2023-03-15 21:43:28:576,-0.874587,0.656297,-9.72502,-3.74679,-5.09167,-13.6482
2023-03-15 21:43:28:586,-0.903555,0.658845,-9.7145,-3.72536,-5.0978,-13.6535
2023-03-15 21:43:28:596,-0.906514,0.643955,-9.69118,-3.70541,-5.10071,-13.6575
2023-03-15 21:43:28:606,-0.906951,0.619726,-9.66209,-3.68605,-5.10523,-13.6615
2023-03-15 21:43:28:616,-0.90497,0.621561,-9.64232,-3.67021,-5.10963,-13.6698
2023-03-15 21:43:28:626,-0.897899,0.618715,-9.67913,-3.65731,-5.11367,-13.6813
2023-03-15 21:43:28:636,-0.893444,0.63519,-9.72585,-3.64639,-5.11679,-13.6933
2023-03-15 21:43:28:646,-0.880861,0.645549,-9.74527,-3.63084,-5.12263,-13.7077
2023-03-15 21:43:28:656,-0.874992,0.618771,-9.7568,-3.61615,-5.12633,-13.72
2023-03-15 21:43:28:666,-0.885624,0.626164,-9.74292,-3.59697,-5.13036,-13.7349
2023-03-15 21:43:28:676,-0.883835,0.59829,-9.70905,-3.57535,-5.1291,-13.745
2023-03-15 21:43:28:686,-0.880315,0.572155,-9.66773,-3.55554,-5.12748,-13.7541
2023-03-15 21:43:28:696,-0.881641,0.576511,-9.69054,-3.53598,-5.12194,-13.7595
2023-03-15 21:43:28:706,-0.862048,0.580582,-9.73621,-3.5172,-5.11199,-13.7689
2023-03-15 21:43:28:716,-0.804701,0.573266,-9.74155,-3.49851,-5.10481,-13.7739
2023-03-15 21:43:28:726,-0.782864,0.556869,-9.72734,-3.48554,-5.10148,-13.7742
2023-03-15 21:43:28:736,-0.788733,0.559291,-9.72487,-3.47223,-5.10055,-13.7762
2023-03-15 21:43:28:746,-0.799045,0.578076,-9.71163,-3.46062,-5.10182,-13.7789
2023-03-15 21:43:28:756,-0.835833,0.56698,-9.68165,-3.44795,-5.10236,-13.7792
2023-03-15 21:43:28:766,-0.86294,0.568745,-9.6597,-3.44256,-5.10203,-13.7811
2023-03-15 21:43:28:776,-0.853887,0.582216,-9.66036,-3.4381,-5.10061,-13.7823
2023-03-15 21:43:28:786,-0.836489,0.572339,-9.65326,-3.43912,-5.09972,-13.7865
2023-03-15 21:43:28:796,-0.846319,0.578835,-9.6618,-3.44419,-5.09923,-13.7827
2023-03-15 21:43:28:806,-0.845357,0.589807,-9.6742,-3.45043,-5.09658,-13.7849
2023-03-15 21:43:28:816,-0.848923,0.608974,-9.67256,-3.46088,-5.09497,-13.7851
2023-03-15 21:43:28:826,-0.854489,0.629279,-9.68046,-3.47415,-5.08971,-13.7866
2023-03-15 21:43:28:836,-0.858371,0.66007,-9.70038,-3.48588,-5.08546,-13.791
2023-03-15 21:43:28:846,-0.854191,0.668124,-9.71597,-3.49925,-5.08419,-13.7908
2023-03-15 21:43:28:856,-0.843882,0.684985,-9.75455,-3.51067,-5.08067,-13.7892
2023-03-15 21:43:28:866,-0.845825,0.681326,-9.79257,-3.51954,-5.07421,-13.7938
2023-03-15 21:43:28:876,-0.847094,0.680781,-9.79004,-3.52532,-5.07259,-13.7954
2023-03-15 21:43:28:886,-0.853998,0.660706,-9.78338,-3.5267,-5.0659,-13.7958
2023-03-15 21:43:28:895,-0.843384,0.661847,-9.76166,-3.52193,-5.0587,-13.8004
2023-03-15 21:43:28:905,-0.829747,0.640931,-9.73971,-3.51849,-5.05631,-13.8038
2023-03-15 21:43:28:915,-0.822478,0.612913,-9.70409,-3.5149,-5.05294,-13.806
2023-03-15 21:43:28:926,-0.846653,0.612204,-9.70083,-3.51453,-5.05443,-13.8139
2023-03-15 21:43:28:936,-0.836404,0.626106,-9.72836,-3.51436,-5.05282,-13.82
2023-03-15 21:43:28:946,-0.83651,0.648346,-9.75598,-3.51742,-5.05185,-13.8307
2023-03-15 21:43:28:956,-0.815604,0.645751,-9.77087,-3.51508,-5.05106,-13.8405
2023-03-15 21:43:28:966,-0.807889,0.643087,-9.78401,-3.51682,-5.04832,-13.8474
2023-03-15 21:43:28:976,-0.812173,0.663952,-9.7913,-3.51499,-5.0541,-13.8532
2023-03-15 21:43:28:986,-0.805439,0.660558,-9.764,-3.5096,-5.05667,-13.8578
2023-03-15 21:43:28:996,-0.834127,0.640182,-9.72334,-3.49979,-5.06106,-13.8644
2023-03-15 21:43:29:6,-0.843354,0.629474,-9.70802,-3.49148,-5.06258,-13.8704
2023-03-15 21:43:29:15,-0.830318,0.616256,-9.70743,-3.48329,-5.0644,-13.878
2023-03-15 21:43:29:25,-0.824376,0.606734,-9.68416,-3.47694,-5.06606,-13.8887
2023-03-15 21:43:29:36,-0.831204,0.595744,-9.66967,-3.4712,-5.06563,-13.8944
2023-03-15 21:43:29:45,-0.85111,0.59706,-9.68531,-3.46818,-5.06681,-13.8988
2023-03-15 21:43:29:55,-0.85999,0.621054,-9.71277,-3.46943,-5.06634,-13.9084
2023-03-15 21:43:29:65,-0.881285,0.623388,-9.73049,-3.46569,-5.06713,-13.9192
2023-03-15 21:43:29:75,-0.922408,0.631158,-9.74983,-3.4647,-5.0646,-13.9345
2023-03-15 21:43:29:86,-0.969982,0.663192,-9.78269,-3.46032,-5.0668,-13.9575
2023-03-15 21:43:29:96,-1.04034,0.65848,-9.79629,-3.45123,-5.07085,-13.9889
2023-03-15 21:43:29:106,-1.05995,0.643738,-9.77353,-3.43848,-5.0772,-14.0349
2023-03-15 21:43:29:116,-1.02567,0.619666,-9.72719,-3.42041,-5.08783,-14.0964
2023-03-15 21:43:29:125,-1.01366,0.595423,-9.73214,-3.40773,-5.10323,-14.1641
2023-03-15 21:43:29:135,-0.995573,0.575168,-9.72939,-3.38862,-5.11562,-14.2402
2023-03-15 21:43:29:145,-0.966966,0.542168,-9.71597,-3.36525,-5.12718,-14.3217
2023-03-15 21:43:29:155,-0.903123,0.488383,-9.67709,-3.34775,-5.13561,-14.4028
2023-03-15 21:43:29:165,-0.854051,0.45882,-9.65651,-3.33312,-5.14069,-14.4813
2023-03-15 21:43:29:175,-0.784548,0.445397,-9.64435,-3.3209,-5.14828,-14.5593
2023-03-15 21:43:29:185,-0.734425,0.441096,-9.63365,-3.31522,-5.1558,-14.627
2023-03-15 21:43:29:195,-0.716669,0.43931,-9.6275,-3.31673,-5.15665,-14.6877
2023-03-15 21:43:29:205,-0.687489,0.461415,-9.63181,-3.32346,-5.15322,-14.7409
2023-03-15 21:43:29:215,-0.668483,0.468366,-9.65606,-3.33085,-5.14573,-14.7826
2023-03-15 21:43:29:226,-0.659587,0.490676,-9.68483,-3.34502,-5.14305,-14.8102
2023-03-15 21:43:29:236,-0.667124,0.512458,-9.72877,-3.36096,-5.1369,-14.8231
2023-03-15 21:43:29:246,-0.687257,0.546552,-9.73604,-3.3752,-5.12897,-14.8314
2023-03-15 21:43:29:256,-0.708199,0.55885,-9.74099,-3.3888,-5.12214,-14.8324
2023-03-15 21:43:29:266,-0.722746,0.583211,-9.74137,-3.40513,-5.11621,-14.8261
2023-03-15 21:43:29:276,-0.741868,0.59896,-9.72526,-3.42361,-5.112,-14.8164
2023-03-15 21:43:29:286,-0.751881,0.605934,-9.73516,-3.44482,-5.10804,-14.8032
2023-03-15 21:43:29:296,-0.759279,0.626094,-9.73982,-3.46523,-5.10546,-14.7886
2023-03-15 21:43:29:306,-0.777103,0.647005,-9.74031,-3.48868,-5.10836,-14.7707
2023-03-15 21:43:29:316,-0.800189,0.651034,-9.74763,-3.50935,-5.11176,-14.7532
2023-03-15 21:43:29:326,-0.824351,0.661294,-9.76675,-3.52454,-5.12053,-14.7337
2023-03-15 21:43:29:336,-0.84038,0.679986,-9.77487,-3.54448,-5.12877,-14.7163
2023-03-15 21:43:29:346,-0.841077,0.68621,-9.78877,-3.5567,-5.13848,-14.6955
2023-03-15 21:43:29:356,-0.852752,0.668451,-9.77266,-3.56886,-5.15102,-14.6749
2023-03-15 21:43:29:366,-0.862815,0.674577,-9.74653,-3.57947,-5.16637,-14.6516
2023-03-15 21:43:29:376,-0.891775,0.661648,-9.73659,-3.59212,-5.18177,-14.6247
2023-03-15 21:43:29:386,-0.957795,0.654613,-9.74109,-3.60389,-5.19927,-14.6004
2023-03-15 21:43:29:395,-0.953976,0.659248,-9.74326,-3.61077,-5.21255,-14.58
2023-03-15 21:43:29:406,-0.964245,0.672594,-9.72747,-3.61462,-5.22349,-14.5585
2023-03-15 21:43:29:416,-1.01154,0.661281,-9.70557,-3.61603,-5.23185,-14.5378
2023-03-15 21:43:29:426,-1.03622,0.650208,-9.73642,-3.61927,-5.23582,-14.5153
2023-03-15 21:43:29:436,-1.02342,0.663274,-9.7884,-3.61907,-5.23674,-14.4993
2023-03-15 21:43:29:446,-0.997796,0.671316,-9.80802,-3.61557,-5.23293,-14.4861
2023-03-15 21:43:29:456,-0.973205,0.658646,-9.77876,-3.6113,-5.22836,-14.4786
2023-03-15 21:43:29:465,-0.951101,0.639066,-9.72062,-3.60341,-5.22672,-14.4681
2023-03-15 21:43:29:475,-0.963385,0.612948,-9.69699,-3.59707,-5.22986,-14.4613
2023-03-15 21:43:29:486,-0.967438,0.620827,-9.68262,-3.59357,-5.23242,-14.453
2023-03-15 21:43:29:496,-0.994389,0.627604,-9.64545,-3.59058,-5.23742,-14.4468
2023-03-15 21:43:29:506,-0.998499,0.623719,-9.63857,-3.59585,-5.23761,-14.4516
2023-03-15 21:43:29:516,-0.984606,0.645552,-9.66739,-3.60436,-5.23769,-14.456
2023-03-15 21:43:29:526,-0.962358,0.667709,-9.6851,-3.61156,-5.23768,-14.4638
2023-03-15 21:43:29:536,-0.942132,0.66041,-9.70808,-3.62411,-5.23323,-14.4736
2023-03-15 21:43:29:546,-0.924962,0.676509,-9.72164,-3.63984,-5.22983,-14.4846
2023-03-15 21:43:29:556,-0.913445,0.699268,-9.72294,-3.65372,-5.23056,-14.4957
2023-03-15 21:43:29:566,-0.906918,0.710985,-9.71097,-3.66429,-5.22931,-14.5098
2023-03-15 21:43:29:576,-0.908741,0.703591,-9.72431,-3.67729,-5.22179,-14.5212
2023-03-15 21:43:29:586,-0.90706,0.714545,-9.73769,-3.68782,-5.21881,-14.5324
2023-03-15 21:43:29:596,-0.908456,0.717503,-9.73907,-3.69289,-5.21163,-14.5457
2023-03-15 21:43:29:606,-0.890153,0.717555,-9.74429,-3.69685,-5.20405,-14.5595
2023-03-15 21:43:29:616,-0.893876,0.717689,-9.73646,-3.69877,-5.19705,-14.5689
2023-03-15 21:43:29:626,-0.890901,0.693336,-9.73442,-3.69654,-5.19117,-14.5802
2023-03-15 21:43:29:636,-0.885859,0.690083,-9.74111,-3.69217,-5.1842,-14.5897
2023-03-15 21:43:29:646,-0.868235,0.683826,-9.71181,-3.68636,-5.1791,-14.6073
2023-03-15 21:43:29:656,-0.858687,0.647509,-9.6912,-3.68218,-5.17427,-14.6232
2023-03-15 21:43:29:666,-0.863511,0.651547,-9.68759,-3.67678,-5.17328,-14.6382
2023-03-15 21:43:29:676,-0.852672,0.651271,-9.72374,-3.67786,-5.16897,-14.6546
2023-03-15 21:43:29:686,-0.838026,0.661931,-9.74561,-3.67887,-5.16545,-14.6699
2023-03-15 21:43:29:696,-0.828844,0.658713,-9.74683,-3.67832,-5.16368,-14.6842
2023-03-15 21:43:29:706,-0.81513,0.661025,-9.74983,-3.68317,-5.16029,-14.6953
2023-03-15 21:43:29:716,-0.804894,0.665268,-9.77706,-3.68256,-5.15745,-14.7075
2023-03-15 21:43:29:726,-0.821756,0.653998,-9.76105,-3.6811,-5.156,-14.7191
2023-03-15 21:43:29:736,-0.85093,0.656446,-9.72221,-3.68172,-5.15644,-14.7274
2023-03-15 21:43:29:746,-0.853887,0.667111,-9.72183,-3.68109,-5.15558,-14.7366
2023-03-15 21:43:29:756,-0.857022,0.67034,-9.71847,-3.68061,-5.15319,-14.7423
2023-03-15 21:43:29:765,-0.844601,0.653918,-9.72875,-3.67923,-5.14968,-14.7509
2023-03-15 21:43:29:776,-0.849232,0.65435,-9.72375,-3.67911,-5.14465,-14.7571
2023-03-15 21:43:29:786,-0.849288,0.675351,-9.73539,-3.67544,-5.13769,-14.7614
2023-03-15 21:43:29:796,-0.84339,0.689678,-9.72854,-3.67247,-5.13211,-14.7671
2023-03-15 21:43:29:806,-0.846366,0.679914,-9.72497,-3.67028,-5.12727,-14.7748
2023-03-15 21:43:29:816,-0.831334,0.663615,-9.74022,-3.66501,-5.12204,-14.7818
2023-03-15 21:43:29:826,-0.823725,0.665516,-9.75362,-3.65802,-5.11598,-14.7886
2023-03-15 21:43:29:836,-0.825773,0.651362,-9.7493,-3.64593,-5.11134,-14.796
2023-03-15 21:43:29:846,-0.812135,0.627538,-9.74137,-3.63746,-5.10729,-14.8032
2023-03-15 21:43:29:856,-0.805914,0.611273,-9.73965,-3.62639,-5.10492,-14.8129
2023-03-15 21:43:29:866,-0.822142,0.611122,-9.74849,-3.61917,-5.10761,-14.8199
2023-03-15 21:43:29:876,-0.81755,0.602989,-9.74355,-3.6079,-5.10854,-14.8268
2023-03-15 21:43:29:886,-0.826666,0.58723,-9.72771,-3.60181,-5.11199,-14.8328
2023-03-15 21:43:29:896,-0.842773,0.597214,-9.71144,-3.59111,-5.11765,-14.8383
2023-03-15 21:43:29:906,-0.840428,0.585836,-9.72017,-3.58524,-5.12145,-14.8427
2023-03-15 21:43:29:916,-0.853957,0.588412,-9.70819,-3.58433,-5.12594,-14.8409
2023-03-15 21:43:29:926,-0.877459,0.589114,-9.68905,-3.58215,-5.12658,-14.8398
2023-03-15 21:43:29:936,-0.881675,0.579886,-9.67938,-3.58163,-5.12558,-14.8385
2023-03-15 21:43:29:946,-0.892268,0.586602,-9.68133,-3.5787,-5.12483,-14.8409
2023-03-15 21:43:29:956,-0.906467,0.595332,-9.69121,-3.58165,-5.12378,-14.8406
2023-03-15 21:43:29:966,-0.908221,0.608831,-9.68761,-3.58722,-5.12433,-14.841
2023-03-15 21:43:29:976,-0.904416,0.608685,-9.69584,-3.5907,-5.11971,-14.8435
2023-03-15 21:43:29:986,-0.903458,0.631757,-9.69848,-3.59748,-5.11457,-14.8504
2023-03-15 21:43:29:996,-0.909325,0.643358,-9.72145,-3.60575,-5.11025,-14.8625
2023-03-15 21:43:30:6,-0.907633,0.636909,-9.716,-3.60977,-5.10535,-14.8691
2023-03-15 21:43:30:16,-0.898916,0.63428,-9.72476,-3.61434,-5.10376,-14.8834
2023-03-15 21:43:30:26,-0.893445,0.637668,-9.73279,-3.61992,-5.09531,-14.8955
2023-03-15 21:43:30:36,-0.879863,0.634194,-9.73697,-3.6255,-5.08887,-14.9108
2023-03-15 21:43:30:46,-0.849143,0.626386,-9.73278,-3.63044,-5.08272,-14.93
2023-03-15 21:43:30:56,-0.835012,0.627752,-9.72345,-3.63628,-5.07943,-14.9438
2023-03-15 21:43:30:66,-0.828533,0.631185,-9.71482,-3.64228,-5.07876,-14.9622
2023-03-15 21:43:30:76,-0.816243,0.632863,-9.71601,-3.646,-5.07754,-14.9776
2023-03-15 21:43:30:86,-0.813032,0.636166,-9.72515,-3.6474,-5.07337,-14.9916
2023-03-15 21:43:30:96,-0.81474,0.637349,-9.73733,-3.65264,-5.07034,-15.0019
2023-03-15 21:43:30:106,-0.817294,0.645601,-9.73799,-3.66144,-5.06666,-15.0124
2023-03-15 21:43:30:116,-0.809882,0.65812,-9.74738,-3.66885,-5.06495,-15.0234
2023-03-15 21:43:30:126,-0.803304,0.65867,-9.74956,-3.67304,-5.06279,-15.0314
2023-03-15 21:43:30:136,-0.810937,0.669156,-9.74053,-3.67791,-5.0593,-15.0374
2023-03-15 21:43:30:146,-0.81265,0.659775,-9.75069,-3.67581,-5.05443,-15.0417
2023-03-15 21:43:30:156,-0.824686,0.66213,-9.7565,-3.67561,-5.05341,-15.0435
2023-03-15 21:43:30:166,-0.825308,0.656433,-9.74721,-3.67472,-5.04391,-15.0457
2023-03-15 21:43:30:176,-0.834755,0.660514,-9.71589,-3.67516,-5.04034,-15.0455
2023-03-15 21:43:30:186,-0.868828,0.637883,-9.67622,-3.67612,-5.03522,-15.0431
2023-03-15 21:43:30:196,-0.881971,0.634045,-9.67363,-3.67696,-5.02872,-15.0414
2023-03-15 21:43:30:206,-0.884585,0.636492,-9.73115,-3.6797,-5.02114,-15.0427
2023-03-15 21:43:30:216,-0.851843,0.669393,-9.80097,-3.68035,-5.01039,-15.046
2023-03-15 21:43:30:226,-0.821139,0.662366,-9.80985,-3.67891,-5.0007,-15.0505
2023-03-15 21:43:30:236,-0.795334,0.626885,-9.77578,-3.67252,-4.99616,-15.057
2023-03-15 21:43:30:246,-0.780975,0.627428,-9.74769,-3.66843,-4.99762,-15.063
2023-03-15 21:43:30:256,-0.813908,0.629486,-9.7179,-3.66825,-5.00611,-15.0676
2023-03-15 21:43:30:266,-0.832657,0.608507,-9.67191,-3.6659,-5.01371,-15.0698
2023-03-15 21:43:30:276,-0.842505,0.584453,-9.63054,-3.66756,-5.01946,-15.0726
2023-03-15 21:43:30:286,-0.839157,0.580956,-9.61643,-3.67577,-5.02263,-15.078
2023-03-15 21:43:30:296,-0.782997,0.606319,-9.64685,-3.68955,-5.03068,-15.0816
2023-03-15 21:43:30:306,-0.750942,0.610152,-9.69233,-3.70994,-5.03662,-15.0795
2023-03-15 21:43:30:316,-0.732386,0.626835,-9.71305,-3.73003,-5.04668,-15.0748
2023-03-15 21:43:30:326,-0.753704,0.658919,-9.72022,-3.75293,-5.05945,-15.0676
2023-03-15 21:43:30:336,-0.801029,0.69145,-9.73019,-3.77878,-5.07096,-15.0552
2023-03-15 21:43:30:346,-0.858574,0.735992,-9.73038,-3.80092,-5.08777,-15.0462
2023-03-15 21:43:30:356,-0.891015,0.755217,-9.75125,-3.82173,-5.098,-15.0369
2023-03-15 21:43:30:366,-0.922314,0.759066,-9.76075,-3.83582,-5.10499,-15.0265
2023-03-15 21:43:30:376,-0.93856,0.758816,-9.76058,-3.84932,-5.10767,-15.0209
2023-03-15 21:43:30:386,-0.951252,0.760762,-9.75722,-3.85906,-5.11016,-15.0146
2023-03-15 21:43:30:396,-0.959322,0.7584,-9.74024,-3.86794,-5.11062,-15.013
2023-03-15 21:43:30:406,-0.967309,0.741917,-9.73553,-3.87229,-5.11047,-15.0178
2023-03-15 21:43:30:416,-0.960412,0.741657,-9.72829,-3.87595,-5.11283,-15.0277
2023-03-15 21:43:30:425,-0.961005,0.731631,-9.71875,-3.8776,-5.11922,-15.0417
2023-03-15 21:43:30:436,-0.965892,0.721251,-9.70249,-3.88148,-5.12231,-15.0584
2023-03-15 21:43:30:445,-0.958851,0.723466,-9.72749,-3.88525,-5.12873,-15.0819
2023-03-15 21:43:30:456,-0.943231,0.715405,-9.76478,-3.8879,-5.12903,-15.1068
2023-03-15 21:43:30:466,-0.915186,0.727573,-9.75881,-3.88967,-5.12495,-15.13
2023-03-15 21:43:30:476,-0.880012,0.716794,-9.75514,-3.89006,-5.12163,-15.1567
2023-03-15 21:43:30:486,-0.83513,0.707858,-9.76278,-3.89239,-5.1195,-15.1805
2023-03-15 21:43:30:496,-0.803488,0.710161,-9.76694,-3.89257,-5.11443,-15.2038
2023-03-15 21:43:30:506,-0.784157,0.710054,-9.75149,-3.89325,-5.11263,-15.2253
2023-03-15 21:43:30:516,-0.797628,0.704685,-9.72948,-3.88787,-5.10979,-15.245
2023-03-15 21:43:30:526,-0.829818,0.698131,-9.71508,-3.8889,-5.10677,-15.2628
2023-03-15 21:43:30:536,-0.852026,0.715934,-9.72346,-3.89142,-5.10346,-15.2752
2023-03-15 21:43:30:546,-0.887011,0.732114,-9.74305,-3.89286,-5.09668,-15.2866
2023-03-15 21:43:30:556,-0.916702,0.745726,-9.73299,-3.89267,-5.08585,-15.3005
2023-03-15 21:43:30:565,-0.954633,0.745914,-9.72838,-3.89017,-5.07429,-15.3126
2023-03-15 21:43:30:576,-0.963606,0.740526,-9.73946,-3.88425,-5.06053,-15.3253
2023-03-15 21:43:30:586,-0.960529,0.743129,-9.74567,-3.87752,-5.04117,-15.3417
2023-03-15 21:43:30:596,-0.953333,0.732357,-9.7491,-3.86776,-5.02156,-15.3616
2023-03-15 21:43:30:605,-0.944873,0.714551,-9.76208,-3.85531,-4.99935,-15.3873
2023-03-15 21:43:30:616,-0.920428,0.719074,-9.7484,-3.83971,-4.97727,-15.4177
2023-03-15 21:43:30:626,-0.891303,0.70514,-9.75878,-3.82205,-4.95703,-15.4518
2023-03-15 21:43:30:636,-0.856442,0.683168,-9.75067,-3.80185,-4.93515,-15.4854
2023-03-15 21:43:30:646,-0.804793,0.66328,-9.75469,-3.78189,-4.91898,-15.5245
2023-03-15 21:43:30:656,-0.757035,0.659818,-9.74835,-3.76232,-4.9007,-15.5623
