Timestamp,Acceleration_x,Acceleration_y,Acceleration_z,roll,pitch,yaw
2023-03-15 22:02:30:393,-0.737488,0.504753,-9.67575,-3.20831,-4.86121,-20.1613
2023-03-15 22:02:30:402,-0.77789,0.469948,-9.67539,-3.2001,-4.86216,-20.1433
2023-03-15 22:02:30:412,-0.792129,0.492171,-9.73468,-3.19751,-4.86383,-20.1257
2023-03-15 22:02:30:422,-0.772623,0.52003,-9.7924,-3.19008,-4.8624,-20.1107
2023-03-15 22:02:30:432,-0.75245,0.520912,-9.79367,-3.18746,-4.8608,-20.0954
2023-03-15 22:02:30:442,-0.727165,0.519921,-9.76788,-3.18651,-4.86446,-20.0802
2023-03-15 22:02:30:452,-0.768075,0.525828,-9.73795,-3.18437,-4.87456,-20.0637
2023-03-15 22:02:30:462,-0.821621,0.544386,-9.71994,-3.18571,-4.89124,-20.0493
2023-03-15 22:02:30:472,-0.859086,0.540445,-9.67717,-3.18996,-4.90774,-20.0367
2023-03-15 22:02:30:482,-0.89374,0.549809,-9.65738,-3.19591,-4.92647,-20.0303
2023-03-15 22:02:30:492,-0.895997,0.560081,-9.67624,-3.20682,-4.94145,-20.0234
2023-03-15 22:02:30:502,-0.888589,0.587502,-9.71695,-3.21561,-4.95109,-20.0203
2023-03-15 22:02:30:512,-0.876256,0.607606,-9.75184,-3.22945,-4.95903,-20.0189
2023-03-15 22:02:30:522,-0.879197,0.605554,-9.72672,-3.24299,-4.96778,-20.0145
2023-03-15 22:02:30:532,-0.892157,0.621761,-9.72455,-3.25847,-4.97057,-20.014
2023-03-15 22:02:30:542,-0.924693,0.654035,-9.73703,-3.27153,-4.97325,-20.0167
2023-03-15 22:02:30:552,-0.925406,0.659216,-9.74127,-3.28308,-4.97452,-20.0213
2023-03-15 22:02:30:562,-0.921814,0.658862,-9.73497,-3.29222,-4.97134,-20.0301
2023-03-15 22:02:30:572,-0.910097,0.67652,-9.73381,-3.29801,-4.96404,-20.0425
2023-03-15 22:02:30:582,-0.903385,0.661958,-9.70873,-3.30389,-4.9595,-20.0546
2023-03-15 22:02:30:592,-0.896755,0.643284,-9.7087,-3.30719,-4.95129,-20.0662
2023-03-15 22:02:30:602,-0.859968,0.636868,-9.74225,-3.31174,-4.94349,-20.0843
2023-03-15 22:02:30:612,-0.833452,0.631132,-9.72861,-3.30765,-4.9333,-20.1045
2023-03-15 22:02:30:622,-0.815998,0.611875,-9.70143,-3.30816,-4.93008,-20.1222
2023-03-15 22:02:30:632,-0.804839,0.601755,-9.72414,-3.30926,-4.92676,-20.143
2023-03-15 22:02:30:642,-0.797179,0.606447,-9.78219,-3.30976,-4.91942,-20.1636
2023-03-15 22:02:30:652,-0.76908,0.59469,-9.81107,-3.30671,-4.91207,-20.1792
2023-03-15 22:02:30:662,-0.739082,0.574368,-9.80674,-3.30373,-4.90604,-20.1949
2023-03-15 22:02:30:672,-0.706195,0.570995,-9.79895,-3.29446,-4.90335,-20.2063
2023-03-15 22:02:30:682,-0.70431,0.579746,-9.80818,-3.28274,-4.90069,-20.2144
2023-03-15 22:02:30:692,-0.72733,0.578577,-9.83415,-3.27072,-4.89948,-20.2193
2023-03-15 22:02:30:702,-0.73776,0.588606,-9.81105,-3.25395,-4.90269,-20.2226
2023-03-15 22:02:30:712,-0.760491,0.553638,-9.7492,-3.23751,-4.90003,-20.2212
2023-03-15 22:02:30:722,-0.749169,0.572341,-9.75736,-3.21949,-4.89644,-20.2231
2023-03-15 22:02:30:732,-0.747971,0.593705,-9.7841,-3.19923,-4.89613,-20.2178
2023-03-15 22:02:30:742,-0.784256,0.583529,-9.73985,-3.18121,-4.89563,-20.2097
2023-03-15 22:02:30:752,-0.809137,0.570069,-9.71136,-3.15736,-4.89624,-20.2037
2023-03-15 22:02:30:762,-0.813081,0.564908,-9.69448,-3.13872,-4.89603,-20.1957
2023-03-15 22:02:30:772,-0.801913,0.540229,-9.67313,-3.11479,-4.89803,-20.1862
2023-03-15 22:02:30:782,-0.82553,0.536212,-9.67245,-3.09789,-4.89966,-20.178
2023-03-15 22:02:30:792,-0.843064,0.523614,-9.68356,-3.07965,-4.90298,-20.1694
2023-03-15 22:02:30:802,-0.838617,0.516291,-9.69769,-3.06701,-4.90699,-20.1643
2023-03-15 22:02:30:812,-0.836741,0.51155,-9.70946,-3.05657,-4.90944,-20.1603
2023-03-15 22:02:30:822,-0.829123,0.50451,-9.71761,-3.04327,-4.90899,-20.1546
2023-03-15 22:02:30:832,-0.814455,0.50687,-9.70366,-3.03592,-4.91313,-20.1524
2023-03-15 22:02:30:842,-0.819298,0.52032,-9.7268,-3.02785,-4.9159,-20.1494
2023-03-15 22:02:30:852,-0.833014,0.512274,-9.7508,-3.02412,-4.91954,-20.1453
2023-03-15 22:02:30:862,-0.833995,0.503458,-9.7609,-3.01816,-4.92509,-20.1398
2023-03-15 22:02:30:872,-0.837088,0.499949,-9.75768,-3.01308,-4.92969,-20.1338
2023-03-15 22:02:30:882,-0.837028,0.50615,-9.74432,-3.00871,-4.93305,-20.1309
2023-03-15 22:02:30:892,-0.860661,0.506316,-9.74221,-3.00268,-4.93528,-20.1287
2023-03-15 22:02:30:902,-0.859955,0.506305,-9.72298,-2.99683,-4.93458,-20.1217
2023-03-15 22:02:30:912,-0.840257,0.501466,-9.71691,-2.99239,-4.93664,-20.1155
2023-03-15 22:02:30:922,-0.843326,0.504528,-9.70481,-2.98973,-4.93758,-20.1122
2023-03-15 22:02:30:932,-0.84013,0.506996,-9.70648,-2.99041,-4.93812,-20.1083
2023-03-15 22:02:30:942,-0.84508,0.518982,-9.70169,-2.98815,-4.93843,-20.1102
2023-03-15 22:02:30:952,-0.865374,0.512004,-9.70015,-2.98674,-4.94028,-20.1094
2023-03-15 22:02:30:962,-0.85574,0.503924,-9.7093,-2.98637,-4.93928,-20.1081
2023-03-15 22:02:30:972,-0.850805,0.506202,-9.72592,-2.98267,-4.93862,-20.1102
2023-03-15 22:02:30:982,-0.834889,0.518291,-9.73921,-2.98152,-4.93709,-20.1122
2023-03-15 22:02:30:992,-0.838986,0.511602,-9.73289,-2.98307,-4.94026,-20.1191
2023-03-15 22:02:31:2,-0.85115,0.499646,-9.72328,-2.98127,-4.94251,-20.1277
2023-03-15 22:02:31:12,-0.878216,0.489283,-9.68294,-2.98085,-4.94338,-20.134
2023-03-15 22:02:31:22,-0.866879,0.482099,-9.69049,-2.97874,-4.93899,-20.1418
2023-03-15 22:02:31:32,-0.847336,0.490723,-9.73773,-2.97913,-4.93231,-20.1495
2023-03-15 22:02:31:42,-0.829017,0.493436,-9.79239,-2.97644,-4.92275,-20.157
2023-03-15 22:02:31:52,-0.774909,0.504726,-9.79706,-2.9704,-4.91768,-20.1658
2023-03-15 22:02:31:62,-0.749499,0.495153,-9.7718,-2.96677,-4.91537,-20.1746
2023-03-15 22:02:31:72,-0.764546,0.507488,-9.75166,-2.9659,-4.9177,-20.1813
2023-03-15 22:02:31:82,-0.786385,0.508487,-9.73544,-2.96448,-4.92827,-20.1905
2023-03-15 22:02:31:92,-0.819337,0.494829,-9.69989,-2.96253,-4.93871,-20.1985
2023-03-15 22:02:31:102,-0.838078,0.494344,-9.67771,-2.96961,-4.94229,-20.2098
2023-03-15 22:02:31:112,-0.823423,0.513719,-9.68193,-2.97564,-4.94451,-20.2155
2023-03-15 22:02:31:122,-0.808178,0.522973,-9.68879,-2.98541,-4.9434,-20.2177
2023-03-15 22:02:31:132,-0.816515,0.531458,-9.70034,-2.99738,-4.94025,-20.2235
2023-03-15 22:02:31:142,-0.822797,0.544184,-9.72355,-3.01289,-4.94061,-20.2265
2023-03-15 22:02:31:152,-0.835895,0.573308,-9.74093,-3.03052,-4.93839,-20.2284
2023-03-15 22:02:31:162,-0.847126,0.586242,-9.73706,-3.04893,-4.93256,-20.2282
2023-03-15 22:02:31:172,-0.867447,0.589236,-9.74238,-3.06453,-4.92388,-20.2299
2023-03-15 22:02:31:182,-0.873735,0.594224,-9.73966,-3.07766,-4.91702,-20.2353
2023-03-15 22:02:31:192,-0.860679,0.594177,-9.7368,-3.09114,-4.90771,-20.2387
2023-03-15 22:02:31:202,-0.85055,0.59878,-9.7435,-3.09793,-4.89848,-20.2455
2023-03-15 22:02:31:212,-0.841104,0.608567,-9.75281,-3.10595,-4.88474,-20.254
2023-03-15 22:02:31:222,-0.835444,0.606415,-9.76171,-3.11261,-4.87849,-20.2679
2023-03-15 22:02:31:232,-0.829755,0.59253,-9.7535,-3.11866,-4.87081,-20.2841
2023-03-15 22:02:31:242,-0.820002,0.587483,-9.73361,-3.12372,-4.86782,-20.3005
2023-03-15 22:02:31:252,-0.808876,0.583872,-9.75538,-3.12723,-4.86231,-20.3142
2023-03-15 22:02:31:262,-0.792622,0.591224,-9.79073,-3.1305,-4.85835,-20.3362
2023-03-15 22:02:31:272,-0.755065,0.585824,-9.78533,-3.12959,-4.85155,-20.3539
2023-03-15 22:02:31:282,-0.724334,0.555444,-9.77698,-3.13354,-4.8446,-20.369
2023-03-15 22:02:31:292,-0.711887,0.547756,-9.78656,-3.13165,-4.84188,-20.381
2023-03-15 22:02:31:302,-0.710591,0.548908,-9.76175,-3.12696,-4.84434,-20.391
2023-03-15 22:02:31:312,-0.726685,0.554876,-9.72534,-3.12747,-4.84607,-20.3968
2023-03-15 22:02:31:322,-0.758458,0.562043,-9.70913,-3.12761,-4.8439,-20.3993
2023-03-15 22:02:31:332,-0.764017,0.575836,-9.70866,-3.13141,-4.83838,-20.3995
2023-03-15 22:02:31:342,-0.738385,0.573633,-9.72523,-3.13574,-4.83427,-20.398
2023-03-15 22:02:31:352,-0.723123,0.585884,-9.72853,-3.13776,-4.83063,-20.3882
2023-03-15 22:02:31:362,-0.749162,0.593791,-9.74079,-3.1404,-4.83268,-20.3812
2023-03-15 22:02:31:372,-0.7652,0.597534,-9.75396,-3.14062,-4.8293,-20.375
2023-03-15 22:02:31:382,-0.783931,0.602777,-9.7589,-3.1395,-4.82507,-20.3698
2023-03-15 22:02:31:392,-0.793188,0.615188,-9.74986,-3.13487,-4.82536,-20.3647
2023-03-15 22:02:31:402,-0.788522,0.604134,-9.75926,-3.13318,-4.82501,-20.361
2023-03-15 22:02:31:412,-0.799149,0.607596,-9.7569,-3.12832,-4.8228,-20.354
2023-03-15 22:02:31:422,-0.803098,0.606212,-9.75945,-3.12507,-4.82623,-20.354
2023-03-15 22:02:31:432,-0.805539,0.593041,-9.76284,-3.12074,-4.82933,-20.3554
2023-03-15 22:02:31:442,-0.796882,0.57751,-9.78052,-3.11297,-4.83525,-20.3581
2023-03-15 22:02:31:452,-0.773631,0.585194,-9.78437,-3.10135,-4.84366,-20.3619
2023-03-15 22:02:31:462,-0.762717,0.57025,-9.76761,-3.09196,-4.84944,-20.3614
2023-03-15 22:02:31:472,-0.754297,0.552969,-9.76373,-3.0787,-4.85614,-20.3632
2023-03-15 22:02:31:482,-0.756357,0.543001,-9.75627,-3.06637,-4.86491,-20.3634
2023-03-15 22:02:31:492,-0.741354,0.533056,-9.74818,-3.05619,-4.87119,-20.3592
2023-03-15 22:02:31:502,-0.731293,0.50807,-9.7239,-3.04448,-4.87737,-20.3533
2023-03-15 22:02:31:512,-0.730407,0.500013,-9.70893,-3.03436,-4.88409,-20.3436
2023-03-15 22:02:31:522,-0.748761,0.499825,-9.70054,-3.02197,-4.89026,-20.3335
2023-03-15 22:02:31:532,-0.753324,0.500817,-9.69725,-3.01403,-4.89685,-20.3197
2023-03-15 22:02:31:542,-0.754292,0.493229,-9.69306,-3.00826,-4.90038,-20.3015
2023-03-15 22:02:31:552,-0.74854,0.507536,-9.74092,-3.00182,-4.90668,-20.2812
2023-03-15 22:02:31:562,-0.744564,0.514725,-9.79545,-2.99784,-4.91134,-20.2575
2023-03-15 22:02:31:572,-0.742238,0.5248,-9.82052,-2.99053,-4.91572,-20.2323
2023-03-15 22:02:31:582,-0.754832,0.535306,-9.81833,-2.98108,-4.92378,-20.2104
2023-03-15 22:02:31:592,-0.779036,0.518135,-9.77773,-2.96536,-4.93265,-20.1817
2023-03-15 22:02:31:602,-0.820278,0.489928,-9.71151,-2.95153,-4.94538,-20.1525
2023-03-15 22:02:31:612,-0.867434,0.470705,-9.66531,-2.93926,-4.95415,-20.1229
2023-03-15 22:02:31:622,-0.900722,0.474901,-9.66028,-2.92899,-4.96197,-20.0992
2023-03-15 22:02:31:632,-0.908009,0.480225,-9.70747,-2.92162,-4.96694,-20.0786
2023-03-15 22:02:31:642,-0.878898,0.495069,-9.74915,-2.91365,-4.97464,-20.061
2023-03-15 22:02:31:652,-0.836806,0.491486,-9.74835,-2.90672,-4.98518,-20.0437
2023-03-15 22:02:31:662,-0.839927,0.491107,-9.72438,-2.90188,-4.99972,-20.028
2023-03-15 22:02:31:672,-0.873784,0.489151,-9.72637,-2.90358,-5.01815,-20.0158
2023-03-15 22:02:31:682,-0.915943,0.499849,-9.70854,-2.90111,-5.04031,-20.0072
2023-03-15 22:02:31:692,-0.942509,0.499016,-9.69081,-2.90309,-5.05913,-20.0016
2023-03-15 22:02:31:702,-0.969505,0.503713,-9.68333,-2.90598,-5.07548,-19.9979
2023-03-15 22:02:31:712,-0.965703,0.518823,-9.6892,-2.91344,-5.08665,-20
2023-03-15 22:02:31:722,-0.94457,0.522989,-9.72142,-2.9203,-5.09293,-20.0003
2023-03-15 22:02:31:732,-0.923303,0.545381,-9.74026,-2.93068,-5.1001,-20.0021
2023-03-15 22:02:31:742,-0.911131,0.560566,-9.75766,-2.94177,-5.10887,-20.0055
2023-03-15 22:02:31:752,-0.923935,0.573781,-9.75858,-2.95112,-5.11103,-20.0069
2023-03-15 22:02:31:762,-0.938099,0.587805,-9.73747,-2.95514,-5.11328,-20.0095
2023-03-15 22:02:31:772,-0.951963,0.582203,-9.73584,-2.96251,-5.11216,-20.0162
2023-03-15 22:02:31:782,-0.951651,0.589623,-9.71908,-2.96319,-5.10915,-20.027
2023-03-15 22:02:31:792,-0.926326,0.589137,-9.73233,-2.96087,-5.10675,-20.0391
2023-03-15 22:02:31:802,-0.910943,0.58996,-9.75067,-2.95884,-5.10747,-20.0542
2023-03-15 22:02:31:812,-0.889419,0.589138,-9.744,-2.95549,-5.10717,-20.0724
2023-03-15 22:02:31:822,-0.887099,0.557435,-9.71814,-2.95242,-5.10666,-20.09
2023-03-15 22:02:31:832,-0.886735,0.532642,-9.69992,-2.94852,-5.10592,-20.1103
2023-03-15 22:02:31:842,-0.875393,0.536107,-9.72984,-2.94277,-5.10433,-20.1302
2023-03-15 22:02:31:852,-0.863197,0.542433,-9.76165,-2.94035,-5.09935,-20.1541
2023-03-15 22:02:31:862,-0.831216,0.548542,-9.77167,-2.93588,-5.09832,-20.178
2023-03-15 22:02:31:872,-0.813065,0.535539,-9.77528,-2.9289,-5.0946,-20.1978
2023-03-15 22:02:31:882,-0.804427,0.529204,-9.77607,-2.92071,-5.0966,-20.2183
2023-03-15 22:02:31:892,-0.811284,0.525634,-9.77079,-2.91599,-5.09431,-20.2359
2023-03-15 22:02:31:902,-0.819787,0.510976,-9.7475,-2.90623,-5.09454,-20.2496
2023-03-15 22:02:31:912,-0.827038,0.482006,-9.71992,-2.89917,-5.09518,-20.2585
2023-03-15 22:02:31:922,-0.816014,0.463397,-9.69121,-2.89372,-5.09027,-20.2663
2023-03-15 22:02:31:932,-0.836037,0.470571,-9.68447,-2.88925,-5.08336,-20.2702
2023-03-15 22:02:31:942,-0.851493,0.488613,-9.70363,-2.88881,-5.07613,-20.2714
2023-03-15 22:02:31:952,-0.843048,0.495153,-9.698,-2.88874,-5.06546,-20.2723
2023-03-15 22:02:31:962,-0.855163,0.498979,-9.67995,-2.8895,-5.05525,-20.2694
2023-03-15 22:02:31:972,-0.877734,0.504723,-9.69281,-2.89048,-5.045,-20.2691
2023-03-15 22:02:31:982,-0.893399,0.536014,-9.71902,-2.89567,-5.03542,-20.2734
2023-03-15 22:02:31:992,-0.900671,0.550025,-9.72185,-2.89859,-5.02791,-20.2785
2023-03-15 22:02:32:2,-0.881582,0.555853,-9.7358,-2.89969,-5.01523,-20.2884
2023-03-15 22:02:32:12,-0.881765,0.57027,-9.74844,-2.89896,-5.00343,-20.2996
2023-03-15 22:02:32:22,-0.865094,0.562144,-9.77365,-2.89958,-4.99549,-20.3156
2023-03-15 22:02:32:32,-0.85226,0.565011,-9.77665,-2.89319,-4.98713,-20.3338
2023-03-15 22:02:32:42,-0.818505,0.547012,-9.77342,-2.8863,-4.98002,-20.3469
2023-03-15 22:02:32:52,-0.799237,0.531583,-9.7797,-2.8755,-4.97257,-20.3578
2023-03-15 22:02:32:62,-0.806823,0.525187,-9.76693,-2.86431,-4.96216,-20.3692
2023-03-15 22:02:32:72,-0.807337,0.510795,-9.76191,-2.85181,-4.95586,-20.378
2023-03-15 22:02:32:82,-0.801057,0.489674,-9.75634,-2.84307,-4.94856,-20.3827
2023-03-15 22:02:32:92,-0.787036,0.502134,-9.74227,-2.83492,-4.94002,-20.385
2023-03-15 22:02:32:102,-0.799254,0.492621,-9.72773,-2.82344,-4.93375,-20.3866
2023-03-15 22:02:32:112,-0.800224,0.486852,-9.72225,-2.81799,-4.92976,-20.3854
2023-03-15 22:02:32:122,-0.798587,0.477126,-9.71544,-2.80871,-4.92154,-20.3864
2023-03-15 22:02:32:132,-0.803888,0.462447,-9.71571,-2.80566,-4.91694,-20.3806
2023-03-15 22:02:32:142,-0.813647,0.467656,-9.71572,-2.8032,-4.90995,-20.374
2023-03-15 22:02:32:152,-0.825907,0.472706,-9.70467,-2.8007,-4.90313,-20.367
2023-03-15 22:02:32:162,-0.838563,0.481392,-9.70093,-2.7991,-4.89752,-20.3621
2023-03-15 22:02:32:172,-0.853153,0.481506,-9.70597,-2.79832,-4.8937,-20.3566
2023-03-15 22:02:32:182,-0.869246,0.499878,-9.7347,-2.80075,-4.88784,-20.3588
2023-03-15 22:02:32:192,-0.87326,0.50804,-9.76749,-2.79934,-4.88545,-20.3621
2023-03-15 22:02:32:202,-0.852973,0.502415,-9.78049,-2.79636,-4.87905,-20.3668
2023-03-15 22:02:32:212,-0.841038,0.505452,-9.75052,-2.78877,-4.87033,-20.375
2023-03-15 22:02:32:222,-0.858582,0.493359,-9.70735,-2.78378,-4.86557,-20.382
2023-03-15 22:02:32:232,-0.855878,0.463894,-9.66049,-2.77707,-4.85576,-20.3909
2023-03-15 22:02:32:242,-0.845929,0.447248,-9.67779,-2.77084,-4.84543,-20.4004
2023-03-15 22:02:32:252,-0.817444,0.4584,-9.72058,-2.76666,-4.82838,-20.4149
2023-03-15 22:02:32:262,-0.76751,0.468304,-9.75849,-2.76071,-4.80985,-20.4252
2023-03-15 22:02:32:272,-0.712278,0.461303,-9.74491,-2.76032,-4.79158,-20.4387
2023-03-15 22:02:32:282,-0.709761,0.44947,-9.74082,-2.7607,-4.78317,-20.4527
2023-03-15 22:02:32:292,-0.731598,0.46022,-9.7598,-2.76536,-4.77977,-20.4635
2023-03-15 22:02:32:302,-0.736423,0.477232,-9.76714,-2.76958,-4.77647,-20.4738
2023-03-15 22:02:32:312,-0.773661,0.473353,-9.75878,-2.77377,-4.77493,-20.485
2023-03-15 22:02:32:322,-0.773549,0.486537,-9.74383,-2.77355,-4.77001,-20.4947
2023-03-15 22:02:32:332,-0.741865,0.492435,-9.74954,-2.78199,-4.76559,-20.5054
2023-03-15 22:02:32:342,-0.713771,0.502884,-9.74859,-2.79333,-4.76169,-20.5122
2023-03-15 22:02:32:352,-0.70436,0.507493,-9.73378,-2.8075,-4.75585,-20.5152
2023-03-15 22:02:32:362,-0.71,0.530312,-9.72638,-2.82157,-4.75302,-20.5149
2023-03-15 22:02:32:372,-0.726938,0.556874,-9.73233,-2.83606,-4.74516,-20.5134
2023-03-15 22:02:32:382,-0.746303,0.572928,-9.73878,-2.85151,-4.74017,-20.5163
2023-03-15 22:02:32:392,-0.762279,0.600783,-9.75499,-2.86231,-4.73669,-20.5171
2023-03-15 22:02:32:402,-0.781046,0.605254,-9.7553,-2.87259,-4.73414,-20.517
2023-03-15 22:02:32:412,-0.787983,0.594671,-9.75534,-2.87849,-4.72846,-20.516
2023-03-15 22:02:32:422,-0.792885,0.5887,-9.76061,-2.8765,-4.72363,-20.5118
2023-03-15 22:02:32:432,-0.801715,0.589759,-9.75687,-2.87388,-4.72108,-20.5141
2023-03-15 22:02:32:442,-0.820268,0.576956,-9.75305,-2.86839,-4.71614,-20.5147
2023-03-15 22:02:32:452,-0.81433,0.554961,-9.75235,-2.85809,-4.70942,-20.517
2023-03-15 22:02:32:462,-0.804265,0.545933,-9.7795,-2.84928,-4.69772,-20.5257
2023-03-15 22:02:32:472,-0.794956,0.535261,-9.80308,-2.83772,-4.69109,-20.5313
2023-03-15 22:02:32:482,-0.771606,0.539254,-9.78492,-2.82464,-4.6835,-20.5384
2023-03-15 22:02:32:492,-0.750669,0.517357,-9.77733,-2.81147,-4.67563,-20.5459
2023-03-15 22:02:32:502,-0.74439,0.486702,-9.78123,-2.79758,-4.67141,-20.5505
2023-03-15 22:02:32:512,-0.744371,0.466082,-9.76287,-2.78312,-4.66706,-20.5559
2023-03-15 22:02:32:522,-0.750483,0.447459,-9.72399,-2.76684,-4.66241,-20.5625
2023-03-15 22:02:32:532,-0.756148,0.446707,-9.68612,-2.75405,-4.65712,-20.5641
2023-03-15 22:02:32:542,-0.749064,0.450186,-9.68247,-2.74783,-4.65101,-20.5674
2023-03-15 22:02:32:552,-0.749685,0.444089,-9.68358,-2.74354,-4.64245,-20.5677
2023-03-15 22:02:32:562,-0.734002,0.44498,-9.67254,-2.7428,-4.63402,-20.569
2023-03-15 22:02:32:572,-0.730986,0.456474,-9.67952,-2.74596,-4.62267,-20.5689
2023-03-15 22:02:32:582,-0.738458,0.468404,-9.70118,-2.75381,-4.61738,-20.5662
2023-03-15 22:02:32:592,-0.739776,0.484669,-9.71285,-2.76151,-4.60959,-20.5599
2023-03-15 22:02:32:602,-0.73719,0.500973,-9.73073,-2.7716,-4.60565,-20.5589
2023-03-15 22:02:32:612,-0.740891,0.519199,-9.73655,-2.78256,-4.5995,-20.5572
2023-03-15 22:02:32:622,-0.747526,0.527303,-9.74642,-2.78703,-4.59663,-20.5573
2023-03-15 22:02:32:632,-0.748359,0.532513,-9.75666,-2.7906,-4.59537,-20.5579
2023-03-15 22:02:32:642,-0.752682,0.531474,-9.75581,-2.79376,-4.59111,-20.5602
2023-03-15 22:02:32:652,-0.747058,0.531881,-9.75578,-2.79631,-4.58658,-20.5625
2023-03-15 22:02:32:662,-0.750338,0.525847,-9.7584,-2.80043,-4.58589,-20.5652
2023-03-15 22:02:32:672,-0.740093,0.516599,-9.77266,-2.79875,-4.58785,-20.5682
2023-03-15 22:02:32:682,-0.728941,0.518426,-9.76434,-2.80085,-4.58845,-20.5692
2023-03-15 22:02:32:692,-0.718978,0.511564,-9.77139,-2.80063,-4.58963,-20.5666
2023-03-15 22:02:32:702,-0.711344,0.515435,-9.76937,-2.79954,-4.58685,-20.5637
2023-03-15 22:02:32:712,-0.716193,0.508717,-9.76669,-2.79475,-4.59052,-20.5587
2023-03-15 22:02:32:722,-0.733439,0.497792,-9.74748,-2.7916,-4.59266,-20.5512
2023-03-15 22:02:32:732,-0.743603,0.498963,-9.75087,-2.78963,-4.5924,-20.542
2023-03-15 22:02:32:742,-0.751418,0.502654,-9.75056,-2.78906,-4.59305,-20.534
2023-03-15 22:02:32:752,-0.768109,0.510438,-9.74904,-2.79035,-4.59505,-20.5262
2023-03-15 22:02:32:763,-0.786413,0.517481,-9.74953,-2.79104,-4.59904,-20.5217
2023-03-15 22:02:32:772,-0.783539,0.526006,-9.75659,-2.78932,-4.60204,-20.5132
2023-03-15 22:02:32:782,-0.781718,0.537035,-9.75066,-2.78837,-4.60347,-20.5081
2023-03-15 22:02:32:792,-0.780395,0.525612,-9.74453,-2.78685,-4.60542,-20.5042
2023-03-15 22:02:32:802,-0.793673,0.532137,-9.72973,-2.7856,-4.61105,-20.4985
2023-03-15 22:02:32:812,-0.795306,0.516628,-9.73426,-2.7791,-4.61553,-20.4921
2023-03-15 22:02:32:822,-0.79831,0.514168,-9.74112,-2.77519,-4.6176,-20.4881
2023-03-15 22:02:32:832,-0.776717,0.516564,-9.73389,-2.76859,-4.62082,-20.4828
2023-03-15 22:02:32:842,-0.768661,0.503193,-9.72124,-2.76183,-4.62363,-20.4853
2023-03-15 22:02:32:852,-0.799686,0.4866,-9.69909,-2.7573,-4.6286,-20.4799
2023-03-15 22:02:32:862,-0.825858,0.472118,-9.67269,-2.75489,-4.63073,-20.4753
2023-03-15 22:02:32:872,-0.838522,0.472544,-9.71038,-2.74926,-4.62977,-20.4704
2023-03-15 22:02:32:882,-0.825273,0.492172,-9.79567,-2.74555,-4.62755,-20.4687
2023-03-15 22:02:32:892,-0.800827,0.503042,-9.84199,-2.73682,-4.62055,-20.4697
2023-03-15 22:02:32:902,-0.754721,0.479548,-9.80422,-2.72896,-4.61765,-20.4659
2023-03-15 22:02:32:912,-0.760462,0.451224,-9.75523,-2.72028,-4.61941,-20.4636
2023-03-15 22:02:32:922,-0.78177,0.44453,-9.73891,-2.71478,-4.62328,-20.4587
2023-03-15 22:02:32:932,-0.795675,0.450437,-9.6996,-2.708,-4.62491,-20.4564
2023-03-15 22:02:32:942,-0.822029,0.43144,-9.63503,-2.70506,-4.62573,-20.4569
2023-03-15 22:02:32:952,-0.828811,0.438198,-9.62218,-2.70765,-4.62385,-20.4542
2023-03-15 22:02:32:962,-0.81016,0.473759,-9.66921,-2.71739,-4.61345,-20.4542
2023-03-15 22:02:32:972,-0.783156,0.497447,-9.7067,-2.72931,-4.60436,-20.4537
2023-03-15 22:02:32:982,-0.762913,0.533312,-9.74597,-2.74779,-4.5979,-20.4579
2023-03-15 22:02:32:992,-0.765807,0.586531,-9.79846,-2.76555,-4.58824,-20.4626
2023-03-15 22:02:33:2,-0.770402,0.640561,-9.81995,-2.7822,-4.57922,-20.4694
2023-03-15 22:02:33:12,-0.764728,0.658587,-9.83162,-2.79435,-4.57141,-20.4774
2023-03-15 22:02:33:22,-0.749628,0.672037,-9.85596,-2.79827,-4.56014,-20.4857
2023-03-15 22:02:33:32,-0.723612,0.686599,-9.88178,-2.79483,-4.54668,-20.4939
2023-03-15 22:02:33:42,-0.722755,0.686975,-9.88537,-2.78028,-4.53323,-20.5021
2023-03-15 22:02:33:52,-0.715655,0.659892,-9.87337,-2.76046,-4.52287,-20.5107
2023-03-15 22:02:33:62,-0.676392,0.627841,-9.83264,-2.73112,-4.51388,-20.5176
2023-03-15 22:02:33:72,-0.653164,0.582021,-9.81829,-2.70085,-4.50615,-20.5173
2023-03-15 22:02:33:82,-0.647121,0.557523,-9.79388,-2.66345,-4.50226,-20.5156
2023-03-15 22:02:33:92,-0.670672,0.516787,-9.79359,-2.62431,-4.49642,-20.5097
2023-03-15 22:02:33:102,-0.65962,0.484556,-9.78421,-2.58516,-4.49394,-20.4978
2023-03-15 22:02:33:112,-0.649297,0.451934,-9.75242,-2.54334,-4.49318,-20.485
2023-03-15 22:02:33:122,-0.639147,0.405343,-9.72405,-2.50409,-4.4934,-20.4697
2023-03-15 22:02:33:132,-0.653984,0.370615,-9.69353,-2.46728,-4.49534,-20.4513
2023-03-15 22:02:33:142,-0.67683,0.359876,-9.67039,-2.43327,-4.49777,-20.4292
2023-03-15 22:02:33:152,-0.692918,0.355107,-9.66411,-2.40561,-4.50404,-20.404
2023-03-15 22:02:33:162,-0.708337,0.342869,-9.6604,-2.38125,-4.50975,-20.3736
2023-03-15 22:02:33:172,-0.7305,0.340057,-9.6801,-2.35961,-4.51935,-20.3457
2023-03-15 22:02:33:182,-0.749658,0.354307,-9.70237,-2.34298,-4.52584,-20.318
2023-03-15 22:02:33:192,-0.747491,0.358155,-9.74421,-2.32835,-4.53264,-20.2924
2023-03-15 22:02:33:202,-0.758713,0.354401,-9.7418,-2.31501,-4.53837,-20.2627
2023-03-15 22:02:33:212,-0.778933,0.35992,-9.74137,-2.29865,-4.54181,-20.237
2023-03-15 22:02:33:222,-0.808177,0.350741,-9.73486,-2.28512,-4.54865,-20.2101
2023-03-15 22:02:33:232,-0.826971,0.342941,-9.71588,-2.27039,-4.55236,-20.19
2023-03-15 22:02:33:242,-0.826385,0.343536,-9.70096,-2.25594,-4.55705,-20.1721
2023-03-15 22:02:33:252,-0.820955,0.347542,-9.69226,-2.24321,-4.56228,-20.1591
2023-03-15 22:02:33:262,-0.83245,0.349565,-9.68875,-2.23431,-4.56874,-20.1507
2023-03-15 22:02:33:272,-0.830196,0.358348,-9.71454,-2.22799,-4.57497,-20.1472
2023-03-15 22:02:33:282,-0.816372,0.363571,-9.73353,-2.22592,-4.57703,-20.1462
2023-03-15 22:02:33:292,-0.803651,0.377071,-9.7417,-2.22031,-4.58555,-20.146
2023-03-15 22:02:33:302,-0.773134,0.371628,-9.74142,-2.21507,-4.59384,-20.1497
2023-03-15 22:02:33:312,-0.760871,0.369731,-9.74925,-2.21101,-4.59778,-20.1543
2023-03-15 22:02:33:322,-0.757158,0.368703,-9.74757,-2.20273,-4.60588,-20.158
2023-03-15 22:02:33:332,-0.745355,0.352316,-9.73155,-2.19683,-4.60818,-20.1607
2023-03-15 22:02:33:342,-0.742428,0.342357,-9.71367,-2.18793,-4.61371,-20.1609
2023-03-15 22:02:33:352,-0.734963,0.341059,-9.70571,-2.18363,-4.61912,-20.1574
2023-03-15 22:02:33:362,-0.742822,0.334136,-9.70884,-2.17734,-4.62292,-20.1553
2023-03-15 22:02:33:372,-0.75284,0.339261,-9.69918,-2.17904,-4.62832,-20.1492
2023-03-15 22:02:33:382,-0.757033,0.347703,-9.71631,-2.1832,-4.63091,-20.1427
2023-03-15 22:02:33:392,-0.773738,0.343031,-9.73883,-2.18612,-4.63457,-20.1365
2023-03-15 22:02:33:402,-0.769095,0.36058,-9.7707,-2.18744,-4.63871,-20.1319
2023-03-15 22:02:33:412,-0.794235,0.388829,-9.79728,-2.19055,-4.64148,-20.1272
2023-03-15 22:02:33:422,-0.800466,0.410642,-9.80576,-2.19063,-4.64771,-20.1247
2023-03-15 22:02:33:432,-0.818128,0.408977,-9.81353,-2.18474,-4.65093,-20.1228
2023-03-15 22:02:33:442,-0.822295,0.403191,-9.78399,-2.17182,-4.65502,-20.1266
2023-03-15 22:02:33:452,-0.827034,0.37571,-9.71839,-2.15534,-4.66041,-20.1308
2023-03-15 22:02:33:462,-0.837336,0.352176,-9.65105,-2.14245,-4.67065,-20.1371
2023-03-15 22:02:33:472,-0.865251,0.33046,-9.6487,-2.13683,-4.67982,-20.1476
2023-03-15 22:02:33:482,-0.872328,0.332051,-9.6807,-2.13489,-4.68808,-20.1633
2023-03-15 22:02:33:492,-0.836059,0.360354,-9.74509,-2.13571,-4.69167,-20.1844
2023-03-15 22:02:33:502,-0.786834,0.374479,-9.7873,-2.13265,-4.69863,-20.2094
2023-03-15 22:02:33:512,-0.751523,0.347327,-9.75434,-2.12904,-4.70775,-20.234
2023-03-15 22:02:33:522,-0.744803,0.317773,-9.74103,-2.13051,-4.72013,-20.2568
2023-03-15 22:02:33:532,-0.743474,0.336134,-9.74074,-2.13247,-4.73857,-20.2775
2023-03-15 22:02:33:542,-0.756056,0.344487,-9.71686,-2.13869,-4.758,-20.2952
2023-03-15 22:02:33:552,-0.779379,0.354806,-9.68835,-2.14806,-4.77316,-20.3127
2023-03-15 22:02:33:562,-0.779697,0.364894,-9.68978,-2.1618,-4.78854,-20.3278
2023-03-15 22:02:33:572,-0.750854,0.37035,-9.72208,-2.17816,-4.79744,-20.338
2023-03-15 22:02:33:582,-0.741473,0.385232,-9.73589,-2.19491,-4.8083,-20.344
2023-03-15 22:02:33:592,-0.769062,0.392239,-9.74059,-2.21529,-4.81581,-20.3454
2023-03-15 22:02:33:602,-0.799964,0.402034,-9.7576,-2.23914,-4.82595,-20.3403
2023-03-15 22:02:33:612,-0.8169,0.430859,-9.76122,-2.2585,-4.83397,-20.3331
2023-03-15 22:02:33:622,-0.833854,0.443868,-9.74739,-2.28003,-4.84024,-20.3233
2023-03-15 22:02:33:632,-0.844965,0.452478,-9.74245,-2.30096,-4.84016,-20.3168
2023-03-15 22:02:33:643,-0.862929,0.443659,-9.74231,-2.3183,-4.84045,-20.3082
2023-03-15 22:02:33:652,-0.863686,0.44443,-9.74587,-2.33039,-4.84029,-20.2995
2023-03-15 22:02:33:663,-0.874438,0.46042,-9.75128,-2.33946,-4.8382,-20.2947
2023-03-15 22:02:33:672,-0.867914,0.465036,-9.73554,-2.35032,-4.83581,-20.2869
2023-03-15 22:02:33:682,-0.853554,0.435493,-9.69942,-2.3611,-4.83812,-20.2786
2023-03-15 22:02:33:692,-0.864056,0.434631,-9.70702,-2.37331,-4.84037,-20.273
2023-03-15 22:02:33:702,-0.873235,0.445423,-9.73117,-2.38748,-4.83981,-20.2723
2023-03-15 22:02:33:712,-0.843642,0.452758,-9.75854,-2.39879,-4.84013,-20.2731
2023-03-15 22:02:33:722,-0.832662,0.461192,-9.76803,-2.40897,-4.83826,-20.2764
2023-03-15 22:02:33:732,-0.81219,0.46487,-9.76988,-2.41897,-4.83686,-20.2779
2023-03-15 22:02:33:743,-0.810055,0.464269,-9.77485,-2.43146,-4.83929,-20.281
2023-03-15 22:02:33:752,-0.796053,0.462427,-9.77563,-2.44292,-4.83806,-20.2839
2023-03-15 22:02:33:762,-0.798739,0.461521,-9.7481,-2.45204,-4.83738,-20.281
2023-03-15 22:02:33:773,-0.809072,0.467128,-9.72716,-2.46184,-4.837,-20.2799
2023-03-15 22:02:33:783,-0.814397,0.467041,-9.70657,-2.47318,-4.8339,-20.2811
2023-03-15 22:02:33:792,-0.79394,0.457391,-9.71152,-2.48296,-4.82858,-20.2789
2023-03-15 22:02:33:802,-0.778239,0.463228,-9.71447,-2.4977,-4.82483,-20.2745
2023-03-15 22:02:33:812,-0.78239,0.468246,-9.72874,-2.51389,-4.81787,-20.2696
2023-03-15 22:02:33:822,-0.779334,0.485434,-9.73559,-2.53074,-4.81582,-20.2655
2023-03-15 22:02:33:832,-0.781768,0.497113,-9.73888,-2.54814,-4.81443,-20.263
2023-03-15 22:02:33:843,-0.783544,0.497018,-9.75103,-2.56439,-4.81548,-20.2568
2023-03-15 22:02:33:852,-0.79478,0.503165,-9.7537,-2.57846,-4.81572,-20.2556
2023-03-15 22:02:33:863,-0.804519,0.492423,-9.74275,-2.59238,-4.81651,-20.2522
2023-03-15 22:02:33:872,-0.795947,0.496837,-9.7216,-2.60455,-4.81609,-20.2462
2023-03-15 22:02:33:882,-0.796354,0.491349,-9.72652,-2.61648,-4.81709,-20.2463
2023-03-15 22:02:33:892,-0.789124,0.471513,-9.742,-2.6317,-4.81612,-20.2467
2023-03-15 22:02:33:902,-0.793543,0.481674,-9.74468,-2.64366,-4.81692,-20.2446
2023-03-15 22:02:33:912,-0.797188,0.494881,-9.74723,-2.65486,-4.81804,-20.2437
2023-03-15 22:02:33:922,-0.800918,0.484348,-9.77139,-2.66634,-4.82128,-20.24
2023-03-15 22:02:33:932,-0.795321,0.498591,-9.78508,-2.67587,-4.82194,-20.2391
2023-03-15 22:02:33:942,-0.7914,0.494694,-9.79233,-2.68733,-4.82309,-20.2372
2023-03-15 22:02:33:952,-0.796851,0.494804,-9.76687,-2.69767,-4.82551,-20.2344
2023-03-15 22:02:33:962,-0.813739,0.491974,-9.75889,-2.70506,-4.82373,-20.2291
2023-03-15 22:02:33:972,-0.815868,0.494446,-9.75019,-2.70889,-4.82681,-20.2248
2023-03-15 22:02:33:982,-0.809803,0.490048,-9.72759,-2.71575,-4.83008,-20.2225
2023-03-15 22:02:33:992,-0.82713,0.479683,-9.73052,-2.72416,-4.82988,-20.2171
2023-03-15 22:02:34:2,-0.827297,0.496212,-9.72889,-2.73033,-4.82967,-20.2159
2023-03-15 22:02:34:12,-0.817899,0.509764,-9.72882,-2.73684,-4.8308,-20.2148
2023-03-15 22:02:34:22,-0.81348,0.505235,-9.73412,-2.74464,-4.83145,-20.2165
2023-03-15 22:02:34:32,-0.803767,0.519661,-9.73518,-2.75108,-4.82931,-20.2204
2023-03-15 22:02:34:42,-0.80844,0.520936,-9.73523,-2.76007,-4.82967,-20.2208
2023-03-15 22:02:34:52,-0.809303,0.513703,-9.72788,-2.77124,-4.8321,-20.2258
2023-03-15 22:02:34:62,-0.80707,0.511031,-9.72123,-2.77499,-4.83296,-20.2285
2023-03-15 22:02:34:72,-0.803749,0.512659,-9.74895,-2.77951,-4.8388,-20.2314
2023-03-15 22:02:34:82,-0.789713,0.533351,-9.76973,-2.78562,-4.84074,-20.2332
2023-03-15 22:02:34:92,-0.789161,0.536402,-9.76893,-2.7902,-4.84246,-20.2377
2023-03-15 22:02:34:102,-0.799494,0.527738,-9.73819,-2.79294,-4.84633,-20.2407
2023-03-15 22:02:34:112,-0.811849,0.49196,-9.71962,-2.79511,-4.84611,-20.2397
2023-03-15 22:02:34:123,-0.827254,0.48899,-9.73942,-2.79721,-4.84449,-20.238
2023-03-15 22:02:34:132,-0.82243,0.520425,-9.80041,-2.80032,-4.84277,-20.2409
2023-03-15 22:02:34:143,-0.781849,0.529357,-9.8201,-2.80123,-4.83842,-20.242
2023-03-15 22:02:34:152,-0.724039,0.502922,-9.79039,-2.80296,-4.83482,-20.2388
2023-03-15 22:02:34:163,-0.71497,0.479943,-9.73499,-2.80077,-4.83496,-20.2337
2023-03-15 22:02:34:172,-0.74555,0.47709,-9.72914,-2.80072,-4.84368,-20.2301
2023-03-15 22:02:34:183,-0.769808,0.480752,-9.70009,-2.80228,-4.85686,-20.2294
2023-03-15 22:02:34:192,-0.826485,0.482706,-9.66178,-2.80696,-4.87197,-20.2266
2023-03-15 22:02:34:203,-0.863773,0.490377,-9.65178,-2.81579,-4.88455,-20.2231
2023-03-15 22:02:34:212,-0.853284,0.493314,-9.68801,-2.82702,-4.89326,-20.2225
2023-03-15 22:02:34:223,-0.812587,0.503413,-9.70123,-2.83959,-4.90237,-20.218
2023-03-15 22:02:34:232,-0.795409,0.515965,-9.71681,-2.8619,-4.91236,-20.2129
2023-03-15 22:02:34:243,-0.801813,0.549788,-9.72721,-2.88275,-4.92072,-20.207
2023-03-15 22:02:34:252,-0.837728,0.567316,-9.74,-2.9066,-4.93307,-20.2024
2023-03-15 22:02:34:262,-0.853999,0.595028,-9.75287,-2.92649,-4.93895,-20.1978
2023-03-15 22:02:34:272,-0.869414,0.610526,-9.75847,-2.94665,-4.9474,-20.1913
2023-03-15 22:02:34:282,-0.882875,0.619364,-9.76535,-2.96286,-4.9513,-20.1845
2023-03-15 22:02:34:292,-0.892184,0.619865,-9.76323,-2.97577,-4.95751,-20.1887
2023-03-15 22:02:34:303,-0.887537,0.621214,-9.77481,-2.9854,-4.95851,-20.1896
2023-03-15 22:02:34:312,-0.886976,0.620486,-9.78633,-2.98957,-4.96456,-20.1962
2023-03-15 22:02:34:323,-0.88102,0.610331,-9.77329,-2.99359,-4.96494,-20.2037
2023-03-15 22:02:34:332,-0.865435,0.585977,-9.74053,-2.99394,-4.96698,-20.2083
2023-03-15 22:02:34:342,-0.863778,0.562472,-9.72226,-2.99452,-4.97027,-20.2135
2023-03-15 22:02:34:352,-0.85724,0.561685,-9.75154,-2.98985,-4.97297,-20.2186
2023-03-15 22:02:34:362,-0.838048,0.559315,-9.76861,-2.98679,-4.97343,-20.2238
2023-03-15 22:02:34:372,-0.830161,0.549879,-9.77683,-2.98225,-4.97314,-20.2281
2023-03-15 22:02:34:383,-0.81531,0.546709,-9.77219,-2.97644,-4.97834,-20.2349
2023-03-15 22:02:34:392,-0.815824,0.547415,-9.76463,-2.97001,-4.9788,-20.2404
2023-03-15 22:02:34:403,-0.81645,0.553238,-9.7576,-2.96552,-4.98214,-20.2418
2023-03-15 22:02:34:413,-0.821035,0.525493,-9.73688,-2.9582,-4.98603,-20.2438
2023-03-15 22:02:34:423,-0.828815,0.514956,-9.71045,-2.95248,-4.98766,-20.2414
2023-03-15 22:02:34:432,-0.843439,0.516817,-9.70714,-2.94714,-4.99038,-20.2376
2023-03-15 22:02:34:443,-0.851247,0.504548,-9.70781,-2.9376,-4.99314,-20.2328
2023-03-15 22:02:34:453,-0.85267,0.514182,-9.70598,-2.93806,-4.99359,-20.2246
2023-03-15 22:02:34:463,-0.875402,0.538153,-9.71503,-2.93527,-4.99564,-20.2186
2023-03-15 22:02:34:472,-0.877999,0.549172,-9.7308,-2.93643,-4.99724,-20.2139
2023-03-15 22:02:34:483,-0.87518,0.558197,-9.74475,-2.93616,-4.99847,-20.21
2023-03-15 22:02:34:493,-0.864516,0.555059,-9.75199,-2.93316,-4.99784,-20.2074
2023-03-15 22:02:34:503,-0.871448,0.560687,-9.74917,-2.93056,-4.99506,-20.2052
2023-03-15 22:02:34:512,-0.872594,0.557104,-9.77746,-2.92787,-4.99113,-20.2043
2023-03-15 22:02:34:522,-0.864936,0.553336,-9.76706,-2.9198,-4.98983,-20.2069
2023-03-15 22:02:34:532,-0.85126,0.544812,-9.75116,-2.91365,-4.99324,-20.2099
2023-03-15 22:02:34:543,-0.846043,0.523748,-9.74917,-2.90466,-4.99629,-20.2122
2023-03-15 22:02:34:552,-0.84659,0.516178,-9.74271,-2.8973,-4.99723,-20.2152
2023-03-15 22:02:34:562,-0.830128,0.513026,-9.73694,-2.88544,-4.99846,-20.2193
2023-03-15 22:02:34:572,-0.822301,0.49538,-9.7487,-2.87175,-4.99922,-20.219
2023-03-15 22:02:34:583,-0.81189,0.487188,-9.76135,-2.86016,-4.99644,-20.2183
2023-03-15 22:02:34:592,-0.8077,0.475175,-9.749,-2.84556,-4.99344,-20.2129
2023-03-15 22:02:34:602,-0.812122,0.464774,-9.74647,-2.83385,-4.99079,-20.2022
2023-03-15 22:02:34:612,-0.819226,0.467173,-9.72619,-2.82295,-4.98528,-20.1907
2023-03-15 22:02:34:623,-0.83408,0.456383,-9.72119,-2.80851,-4.98588,-20.1803
2023-03-15 22:02:34:632,-0.842955,0.453458,-9.70526,-2.79945,-4.98508,-20.1652
2023-03-15 22:02:34:643,-0.861421,0.451217,-9.70368,-2.79145,-4.98535,-20.1546
2023-03-15 22:02:34:653,-0.873029,0.452236,-9.70608,-2.78412,-4.98929,-20.1458
2023-03-15 22:02:34:663,-0.874465,0.449103,-9.70661,-2.77674,-4.98885,-20.1363
2023-03-15 22:02:34:673,-0.873417,0.455725,-9.70074,-2.77335,-4.98731,-20.1291
2023-03-15 22:02:34:683,-0.874937,0.455163,-9.70039,-2.77234,-4.98979,-20.1202
2023-03-15 22:02:34:693,-0.894003,0.456763,-9.70012,-2.77229,-4.9932,-20.1146
2023-03-15 22:02:34:703,-0.884573,0.452915,-9.7002,-2.77361,-4.99403,-20.1115
2023-03-15 22:02:34:712,-0.864814,0.448533,-9.71881,-2.77439,-4.98937,-20.1101
2023-03-15 22:02:34:722,-0.863235,0.474062,-9.74516,-2.77454,-4.98389,-20.1082
2023-03-15 22:02:34:733,-0.8631,0.47074,-9.73988,-2.77703,-4.98206,-20.1084
2023-03-15 22:02:34:743,-0.862096,0.463111,-9.73027,-2.77976,-4.98124,-20.1058
2023-03-15 22:02:34:753,-0.867719,0.449172,-9.698,-2.77659,-4.97906,-20.1005
2023-03-15 22:02:34:763,-0.877604,0.450797,-9.69507,-2.77557,-4.97313,-20.0993
2023-03-15 22:02:34:773,-0.885375,0.464513,-9.74448,-2.77495,-4.96348,-20.1015
2023-03-15 22:02:34:783,-0.836864,0.484693,-9.7812,-2.7786,-4.94954,-20.1025
2023-03-15 22:02:34:793,-0.767681,0.469664,-9.79085,-2.78045,-4.93954,-20.1058
2023-03-15 22:02:34:803,-0.750207,0.449061,-9.7506,-2.78013,-4.93426,-20.1055
2023-03-15 22:02:34:813,-0.77441,0.456319,-9.73277,-2.78321,-4.93578,-20.1053
2023-03-15 22:02:34:822,-0.806553,0.456898,-9.72895,-2.78942,-4.93851,-20.108
2023-03-15 22:02:34:833,-0.829927,0.445186,-9.6914,-2.79633,-4.94303,-20.1083
2023-03-15 22:02:34:843,-0.84914,0.451501,-9.66223,-2.80512,-4.94534,-20.1099
2023-03-15 22:02:34:852,-0.84075,0.448056,-9.6623,-2.81967,-4.94557,-20.1119
2023-03-15 22:02:34:863,-0.807101,0.464157,-9.67669,-2.84096,-4.945,-20.1086
2023-03-15 22:02:34:872,-0.794165,0.47882,-9.6777,-2.86565,-4.939,-20.1049
2023-03-15 22:02:34:882,-0.81052,0.515725,-9.7045,-2.89263,-4.93703,-20.1039
2023-03-15 22:02:34:892,-0.833697,0.550789,-9.71977,-2.92357,-4.93509,-20.0993
2023-03-15 22:02:34:902,-0.851735,0.582854,-9.72965,-2.95581,-4.93212,-20.0982
2023-03-15 22:02:34:912,-0.858438,0.604383,-9.73464,-2.98297,-4.92784,-20.0956
2023-03-15 22:02:34:923,-0.875882,0.629061,-9.75584,-3.00923,-4.92558,-20.0978
2023-03-15 22:02:34:932,-0.881254,0.64439,-9.76325,-3.03193,-4.91943,-20.1038
2023-03-15 22:02:34:942,-0.872482,0.635918,-9.79137,-3.05086,-4.91668,-20.1114
2023-03-15 22:02:34:953,-0.869587,0.634941,-9.80366,-3.06488,-4.91412,-20.1266
2023-03-15 22:02:34:963,-0.87415,0.646027,-9.78029,-3.0762,-4.90813,-20.1449
2023-03-15 22:02:34:972,-0.842055,0.643237,-9.7591,-3.08363,-4.90884,-20.1685
2023-03-15 22:02:34:982,-0.819669,0.619304,-9.77667,-3.08836,-4.90477,-20.1907
2023-03-15 22:02:34:992,-0.810439,0.609919,-9.80869,-3.09164,-4.90871,-20.2144
2023-03-15 22:02:35:3,-0.782876,0.619742,-9.82534,-3.08983,-4.90415,-20.2417
2023-03-15 22:02:35:12,-0.760257,0.602758,-9.81551,-3.0871,-4.90155,-20.263
2023-03-15 22:02:35:22,-0.724378,0.564314,-9.79199,-3.08139,-4.90258,-20.2825
2023-03-15 22:02:35:33,-0.717331,0.561145,-9.77711,-3.07487,-4.9068,-20.296
2023-03-15 22:02:35:43,-0.715822,0.56509,-9.75427,-3.06959,-4.91589,-20.3035
2023-03-15 22:02:35:53,-0.720154,0.524293,-9.72172,-3.06536,-4.92314,-20.3115
2023-03-15 22:02:35:62,-0.753268,0.51559,-9.69357,-3.0618,-4.9275,-20.3147
2023-03-15 22:02:35:72,-0.769445,0.530105,-9.70362,-3.05992,-4.93345,-20.3137
2023-03-15 22:02:35:83,-0.771329,0.540458,-9.72175,-3.05763,-4.93724,-20.3053
2023-03-15 22:02:35:93,-0.786525,0.544336,-9.71755,-3.05868,-4.94138,-20.2938
2023-03-15 22:02:35:103,-0.819383,0.5588,-9.72224,-3.06178,-4.94501,-20.2803
2023-03-15 22:02:35:112,-0.842702,0.576936,-9.7289,-3.06458,-4.94953,-20.2679
2023-03-15 22:02:35:123,-0.868044,0.580865,-9.73693,-3.06808,-4.95139,-20.2535
2023-03-15 22:02:35:132,-0.886918,0.59484,-9.74362,-3.07221,-4.9538,-20.2448
2023-03-15 22:02:35:142,-0.902492,0.600978,-9.75696,-3.0732,-4.95751,-20.2366
2023-03-15 22:02:35:152,-0.908452,0.60291,-9.75585,-3.07163,-4.95872,-20.2304
2023-03-15 22:02:35:163,-0.913804,0.581736,-9.74668,-3.06888,-4.96086,-20.2269
2023-03-15 22:02:35:173,-0.915822,0.567572,-9.73823,-3.06685,-4.96198,-20.223
2023-03-15 22:02:35:182,-0.892079,0.556946,-9.74454,-3.06092,-4.96431,-20.2262
2023-03-15 22:02:35:192,-0.886123,0.559941,-9.75242,-3.05457,-4.96289,-20.2296
2023-03-15 22:02:35:203,-0.868205,0.558399,-9.73425,-3.0464,-4.95955,-20.2339
2023-03-15 22:02:35:213,-0.838476,0.532416,-9.73792,-3.03774,-4.95579,-20.2358
2023-03-15 22:02:35:223,-0.817822,0.521599,-9.72738,-3.03079,-4.95301,-20.2368
2023-03-15 22:02:35:233,-0.829272,0.509299,-9.72095,-3.02206,-4.94798,-20.2317
2023-03-15 22:02:35:243,-0.824542,0.495978,-9.70161,-3.01453,-4.94038,-20.225
2023-03-15 22:02:35:253,-0.819794,0.490754,-9.69351,-3.0131,-4.9303,-20.2172
2023-03-15 22:02:35:263,-0.81901,0.493388,-9.70522,-3.01496,-4.91908,-20.2053
2023-03-15 22:02:35:272,-0.822297,0.499774,-9.69817,-3.01947,-4.90855,-20.1939
2023-03-15 22:02:35:283,-0.818004,0.517236,-9.69034,-3.02809,-4.89721,-20.1772
2023-03-15 22:02:35:293,-0.825661,0.533417,-9.70154,-3.03798,-4.88657,-20.1616
2023-03-15 22:02:35:303,-0.835571,0.552039,-9.70941,-3.04718,-4.87518,-20.1483
2023-03-15 22:02:35:313,-0.834868,0.575558,-9.72592,-3.05765,-4.86182,-20.1375
2023-03-15 22:02:35:323,-0.838277,0.590126,-9.72856,-3.06903,-4.84964,-20.1264
2023-03-15 22:02:35:333,-0.853368,0.592649,-9.73312,-3.07911,-4.83582,-20.1176
2023-03-15 22:02:35:343,-0.851703,0.595611,-9.72325,-3.08534,-4.82782,-20.1131
2023-03-15 22:02:35:352,-0.838515,0.606835,-9.73522,-3.09289,-4.81843,-20.1089
2023-03-15 22:02:35:363,-0.825475,0.616526,-9.73662,-3.0991,-4.80569,-20.1067
2023-03-15 22:02:35:372,-0.818003,0.618858,-9.74645,-3.10431,-4.79453,-20.1083
2023-03-15 22:02:35:382,-0.809089,0.624732,-9.76483,-3.10794,-4.78625,-20.1083
2023-03-15 22:02:35:393,-0.795508,0.622367,-9.80164,-3.10728,-4.7749,-20.1105
2023-03-15 22:02:35:403,-0.756842,0.609128,-9.81618,-3.10468,-4.76093,-20.108
2023-03-15 22:02:35:413,-0.743022,0.602282,-9.77912,-3.09594,-4.74829,-20.1052
2023-03-15 22:02:35:423,-0.759159,0.582249,-9.71546,-3.08753,-4.73639,-20.1024
2023-03-15 22:02:35:433,-0.776107,0.534761,-9.67642,-3.07836,-4.72178,-20.0991
2023-03-15 22:02:35:443,-0.779011,0.528436,-9.71661,-3.07423,-4.70941,-20.0904
2023-03-15 22:02:35:453,-0.764745,0.546362,-9.78405,-3.06977,-4.6958,-20.0861
2023-03-15 22:02:35:463,-0.714823,0.549251,-9.79603,-3.06184,-4.68348,-20.0832
2023-03-15 22:02:35:473,-0.687613,0.512131,-9.7467,-3.05695,-4.67221,-20.0762
2023-03-15 22:02:35:483,-0.70127,0.515139,-9.70941,-3.05556,-4.66964,-20.0732
2023-03-15 22:02:35:493,-0.724224,0.544217,-9.70063,-3.05734,-4.67402,-20.0746
2023-03-15 22:02:35:503,-0.755211,0.551539,-9.66455,-3.0633,-4.67942,-20.0736
2023-03-15 22:02:35:513,-0.781161,0.54937,-9.66289,-3.07269,-4.68209,-20.0758
2023-03-15 22:02:35:523,-0.785625,0.564973,-9.69806,-3.08633,-4.68539,-20.0773
2023-03-15 22:02:35:532,-0.757062,0.604272,-9.7397,-3.10023,-4.69205,-20.0783
2023-03-15 22:02:35:542,-0.764941,0.626682,-9.76432,-3.11607,-4.6984,-20.0785
2023-03-15 22:02:35:552,-0.808679,0.659587,-9.77824,-3.13201,-4.70766,-20.08
2023-03-15 22:02:35:562,-0.836218,0.678416,-9.77764,-3.14105,-4.71761,-20.0835
2023-03-15 22:02:35:572,-0.85789,0.67345,-9.77592,-3.14908,-4.7231,-20.0873
2023-03-15 22:02:35:582,-0.876903,0.669545,-9.75136,-3.15406,-4.73156,-20.0966
2023-03-15 22:02:35:592,-0.883905,0.681146,-9.74387,-3.15457,-4.73418,-20.1061
2023-03-15 22:02:35:602,-0.892436,0.668372,-9.75639,-3.14814,-4.73669,-20.1189
2023-03-15 22:02:35:612,-0.890571,0.655965,-9.76446,-3.1393,-4.73798,-20.135
2023-03-15 22:02:35:622,-0.889069,0.636164,-9.78475,-3.12553,-4.73902,-20.1546
2023-03-15 22:02:35:632,-0.867741,0.641206,-9.77793,-3.1081,-4.74045,-20.1749
2023-03-15 22:02:35:643,-0.851135,0.61261,-9.76514,-3.08812,-4.7441,-20.1933
2023-03-15 22:02:35:652,-0.845818,0.579297,-9.77014,-3.06708,-4.74162,-20.2128
2023-03-15 22:02:35:662,-0.836429,0.56749,-9.80434,-3.04314,-4.73931,-20.2332
2023-03-15 22:02:35:672,-0.825712,0.5542,-9.81299,-3.01484,-4.73441,-20.2495
2023-03-15 22:02:35:683,-0.794444,0.529274,-9.80394,-2.98495,-4.72522,-20.2591
2023-03-15 22:02:35:693,-0.767821,0.485899,-9.76408,-2.95327,-4.71379,-20.2651
2023-03-15 22:02:35:703,-0.762977,0.45633,-9.74295,-2.92476,-4.70196,-20.2678
2023-03-15 22:02:35:713,-0.760451,0.452574,-9.73079,-2.89448,-4.69226,-20.2677
2023-03-15 22:02:35:723,-0.759115,0.43787,-9.71393,-2.87034,-4.6772,-20.2601
2023-03-15 22:02:35:733,-0.76417,0.41853,-9.69617,-2.84226,-4.65799,-20.2513
2023-03-15 22:02:35:743,-0.760096,0.425521,-9.69381,-2.81745,-4.63878,-20.243
2023-03-15 22:02:35:753,-0.75534,0.421009,-9.69684,-2.79445,-4.61718,-20.2345
2023-03-15 22:02:35:763,-0.755018,0.408599,-9.69556,-2.77354,-4.59431,-20.2254
2023-03-15 22:02:35:773,-0.751916,0.40397,-9.69289,-2.75179,-4.57739,-20.2161
2023-03-15 22:02:35:783,-0.750102,0.428056,-9.68857,-2.73488,-4.55724,-20.2158
2023-03-15 22:02:35:793,-0.745693,0.415207,-9.69074,-2.72113,-4.53994,-20.2101
2023-03-15 22:02:35:803,-0.755833,0.40891,-9.68566,-2.70862,-4.52411,-20.2079
2023-03-15 22:02:35:813,-0.784258,0.422887,-9.69038,-2.69628,-4.50612,-20.2072
2023-03-15 22:02:35:823,-0.816211,0.437533,-9.71292,-2.68528,-4.49309,-20.213
2023-03-15 22:02:35:833,-0.846222,0.442892,-9.74339,-2.6711,-4.47906,-20.2205
2023-03-15 22:02:35:843,-0.845154,0.44913,-9.75683,-2.65523,-4.46034,-20.2317
2023-03-15 22:02:35:853,-0.839607,0.443794,-9.76198,-2.63953,-4.44145,-20.2468
2023-03-15 22:02:35:863,-0.829962,0.433303,-9.77185,-2.62356,-4.42348,-20.2649
2023-03-15 22:02:35:873,-0.803326,0.419147,-9.74892,-2.6062,-4.39885,-20.2876
2023-03-15 22:02:35:883,-0.773908,0.40785,-9.73894,-2.58345,-4.37214,-20.3135
2023-03-15 22:02:35:893,-0.746849,0.390316,-9.71666,-2.56307,-4.34748,-20.3386
2023-03-15 22:02:35:903,-0.714752,0.371233,-9.7091,-2.5439,-4.31761,-20.3681
2023-03-15 22:02:35:913,-0.667086,0.354054,-9.6833,-2.52439,-4.28398,-20.3913
2023-03-15 22:02:35:923,-0.616348,0.346078,-9.6704,-2.50624,-4.2509,-20.4108
2023-03-15 22:02:35:933,-0.566488,0.332546,-9.69187,-2.4926,-4.21839,-20.4239
2023-03-15 22:02:35:943,-0.53223,0.340859,-9.71711,-2.48452,-4.18745,-20.4318
2023-03-15 22:02:35:953,-0.519819,0.337577,-9.72793,-2.48022,-4.15829,-20.4369
2023-03-15 22:02:35:963,-0.502759,0.346054,-9.75275,-2.47914,-4.12905,-20.4356
2023-03-15 22:02:35:973,-0.493123,0.351854,-9.76018,-2.47605,-4.10302,-20.4265
2023-03-15 22:02:35:983,-0.503607,0.360285,-9.76758,-2.47425,-4.0824,-20.4198
2023-03-15 22:02:35:993,-0.529551,0.365797,-9.74835,-2.47535,-4.06374,-20.4084
2023-03-15 22:02:36:3,-0.553446,0.363372,-9.72893,-2.47582,-4.04935,-20.3945
2023-03-15 22:02:36:13,-0.567026,0.358947,-9.7196,-2.47754,-4.03677,-20.3802
2023-03-15 22:02:36:23,-0.593206,0.372516,-9.73594,-2.48156,-4.03105,-20.3672
2023-03-15 22:02:36:33,-0.60488,0.373303,-9.74767,-2.48572,-4.02513,-20.3539
2023-03-15 22:02:36:42,-0.620493,0.377886,-9.724,-2.49237,-4.02592,-20.344
2023-03-15 22:02:36:52,-0.644747,0.378082,-9.69729,-2.49801,-4.02817,-20.3339
2023-03-15 22:02:36:63,-0.658322,0.375772,-9.66363,-2.50955,-4.03384,-20.3272
2023-03-15 22:02:36:73,-0.654665,0.381847,-9.69705,-2.52508,-4.03656,-20.3229
2023-03-15 22:02:36:83,-0.650761,0.398564,-9.76477,-2.5409,-4.03806,-20.3162
2023-03-15 22:02:36:93,-0.613824,0.4073,-9.79848,-2.55155,-4.03787,-20.3136
2023-03-15 22:02:36:103,-0.569807,0.400647,-9.77943,-2.56508,-4.04149,-20.31
2023-03-15 22:02:36:113,-0.554834,0.389573,-9.70957,-2.57695,-4.04933,-20.2984
2023-03-15 22:02:36:123,-0.576832,0.390654,-9.70342,-2.59451,-4.05711,-20.2823
2023-03-15 22:02:36:133,-0.610012,0.405291,-9.67483,-2.61496,-4.07045,-20.2652
2023-03-15 22:02:36:143,-0.648292,0.411662,-9.64703,-2.63881,-4.0843,-20.2455
2023-03-15 22:02:36:153,-0.677114,0.431234,-9.63425,-2.6696,-4.09532,-20.2279
2023-03-15 22:02:36:163,-0.682544,0.455205,-9.67448,-2.70384,-4.10312,-20.2101
2023-03-15 22:02:36:173,-0.675804,0.485106,-9.70676,-2.73971,-4.11091,-20.1969
2023-03-15 22:02:36:183,-0.68106,0.5008,-9.7084,-2.78317,-4.11713,-20.1814
2023-03-15 22:02:36:193,-0.706743,0.544172,-9.70746,-2.82784,-4.1288,-20.168
2023-03-15 22:02:36:203,-0.723462,0.587726,-9.73453,-2.87426,-4.14131,-20.1575
2023-03-15 22:02:36:213,-0.741407,0.604489,-9.73313,-2.91729,-4.15595,-20.1523
2023-03-15 22:02:36:223,-0.7613,0.623732,-9.73172,-2.96275,-4.17078,-20.1516
2023-03-15 22:02:36:233,-0.764003,0.65038,-9.73711,-3.00854,-4.18555,-20.1544
2023-03-15 22:02:36:243,-0.752997,0.658265,-9.76534,-3.05104,-4.19752,-20.1565
2023-03-15 22:02:36:253,-0.737858,0.669737,-9.79639,-3.09204,-4.20447,-20.1596
2023-03-15 22:02:36:263,-0.72321,0.682815,-9.8057,-3.12632,-4.2134,-20.1675
2023-03-15 22:02:36:272,-0.712686,0.695389,-9.80831,-3.15845,-4.22366,-20.1773
2023-03-15 22:02:36:283,-0.69306,0.695003,-9.78643,-3.18785,-4.23269,-20.1872
2023-03-15 22:02:36:293,-0.701769,0.694417,-9.7792,-3.21513,-4.24478,-20.1979
2023-03-15 22:02:36:303,-0.72744,0.707041,-9.81438,-3.23709,-4.24932,-20.2048
2023-03-15 22:02:36:313,-0.720218,0.722112,-9.82557,-3.25981,-4.25431,-20.2121
2023-03-15 22:02:36:323,-0.705694,0.711188,-9.8285,-3.27734,-4.2557,-20.2188
2023-03-15 22:02:36:333,-0.692186,0.703843,-9.84597,-3.28862,-4.26056,-20.222
2023-03-15 22:02:36:343,-0.700238,0.711331,-9.85161,-3.30008,-4.26737,-20.2279
2023-03-15 22:02:36:353,-0.709202,0.724616,-9.83397,-3.30946,-4.27571,-20.2346
2023-03-15 22:02:36:363,-0.719744,0.718487,-9.79626,-3.31212,-4.28607,-20.2403
2023-03-15 22:02:36:373,-0.735754,0.710336,-9.77186,-3.31515,-4.2972,-20.2464
2023-03-15 22:02:36:383,-0.733509,0.702503,-9.76803,-3.31572,-4.30745,-20.2504
2023-03-15 22:02:36:392,-0.717921,0.700806,-9.77087,-3.3118,-4.31692,-20.2555
2023-03-15 22:02:36:403,-0.716633,0.67936,-9.75608,-3.30584,-4.32616,-20.2609
2023-03-15 22:02:36:413,-0.728945,0.669983,-9.75428,-3.2984,-4.33542,-20.264
2023-03-15 22:02:36:423,-0.73657,0.671773,-9.76168,-3.29115,-4.34559,-20.267
2023-03-15 22:02:36:433,-0.721848,0.654275,-9.75468,-3.27741,-4.35641,-20.2658
2023-03-15 22:02:36:443,-0.744453,0.633691,-9.75085,-3.26612,-4.36949,-20.2657
2023-03-15 22:02:36:453,-0.753134,0.627885,-9.74432,-3.25199,-4.38172,-20.2634
2023-03-15 22:02:36:463,-0.762825,0.625101,-9.74056,-3.23775,-4.39295,-20.2621
2023-03-15 22:02:36:473,-0.768721,0.614901,-9.74223,-3.22248,-4.40336,-20.2579
2023-03-15 22:02:36:483,-0.777988,0.590366,-9.7326,-3.20469,-4.41207,-20.2558
2023-03-15 22:02:36:493,-0.784039,0.583009,-9.7299,-3.18637,-4.41673,-20.254
2023-03-15 22:02:36:503,-0.781493,0.558374,-9.73272,-3.16843,-4.42606,-20.2499
2023-03-15 22:02:36:513,-0.770381,0.544757,-9.73139,-3.15133,-4.43307,-20.2439
2023-03-15 22:02:36:523,-0.77135,0.55274,-9.72566,-3.13643,-4.44165,-20.2359
2023-03-15 22:02:36:533,-0.790718,0.54649,-9.71812,-3.11878,-4.44766,-20.2328
2023-03-15 22:02:36:543,-0.798529,0.530842,-9.69903,-3.1023,-4.45278,-20.2238
2023-03-15 22:02:36:553,-0.812877,0.525971,-9.68546,-3.0904,-4.45702,-20.2192
2023-03-15 22:02:36:563,-0.827756,0.510702,-9.69943,-3.07923,-4.45667,-20.215
2023-03-15 22:02:36:573,-0.830731,0.528942,-9.69502,-3.06847,-4.45883,-20.2077
2023-03-15 22:02:36:583,-0.836502,0.530418,-9.68004,-3.06302,-4.45423,-20.2034
2023-03-15 22:02:36:593,-0.835384,0.51508,-9.68322,-3.05335,-4.44809,-20.1992
2023-03-15 22:02:36:603,-0.82336,0.519719,-9.69505,-3.04882,-4.43981,-20.1956
2023-03-15 22:02:36:612,-0.809114,0.52625,-9.70172,-3.04465,-4.43461,-20.1978
2023-03-15 22:02:36:622,-0.816562,0.531589,-9.71547,-3.04339,-4.42806,-20.2024
2023-03-15 22:02:36:633,-0.801339,0.547676,-9.71961,-3.04057,-4.42053,-20.2104
2023-03-15 22:02:36:643,-0.78733,0.55407,-9.73431,-3.03595,-4.41235,-20.2189
2023-03-15 22:02:36:653,-0.775192,0.559871,-9.73081,-3.03257,-4.40628,-20.2287
2023-03-15 22:02:36:663,-0.758622,0.557056,-9.74339,-3.02897,-4.39962,-20.2425
2023-03-15 22:02:36:673,-0.741458,0.557578,-9.73894,-3.02683,-4.39388,-20.2552
2023-03-15 22:02:36:683,-0.728405,0.546628,-9.75607,-3.02328,-4.38557,-20.2653
2023-03-15 22:02:36:693,-0.70044,0.546129,-9.78079,-3.02125,-4.37973,-20.2751
2023-03-15 22:02:36:703,-0.680483,0.54525,-9.81297,-3.0133,-4.37434,-20.2827
2023-03-15 22:02:36:713,-0.675504,0.523474,-9.78881,-3.00211,-4.36886,-20.2861
2023-03-15 22:02:36:723,-0.675717,0.529641,-9.74704,-2.994,-4.365,-20.2902
2023-03-15 22:02:36:733,-0.687488,0.50543,-9.71612,-2.9848,-4.35849,-20.2887
2023-03-15 22:02:36:743,-0.688921,0.47946,-9.71509,-2.97822,-4.35349,-20.2856
2023-03-15 22:02:36:753,-0.690434,0.485909,-9.76176,-2.97015,-4.34528,-20.2821
2023-03-15 22:02:36:763,-0.665557,0.496901,-9.80444,-2.95576,-4.34038,-20.2804
2023-03-15 22:02:36:773,-0.618759,0.47182,-9.79457,-2.94702,-4.33542,-20.2767
2023-03-15 22:02:36:783,-0.629379,0.466593,-9.74469,-2.93708,-4.33849,-20.2704
2023-03-15 22:02:36:793,-0.661081,0.469716,-9.73261,-2.93023,-4.34886,-20.2673
2023-03-15 22:02:36:803,-0.694149,0.465582,-9.71625,-2.92419,-4.36275,-20.2611
2023-03-15 22:02:36:813,-0.750816,0.470841,-9.68534,-2.92135,-4.37905,-20.2576
2023-03-15 22:02:36:823,-0.784969,0.484261,-9.66955,-2.91948,-4.38896,-20.2548
2023-03-15 22:02:36:833,-0.786799,0.470319,-9.67912,-2.92095,-4.39909,-20.2521
2023-03-15 22:02:36:843,-0.759072,0.476192,-9.69875,-2.92625,-4.40749,-20.2485
2023-03-15 22:02:36:853,-0.748373,0.497246,-9.71277,-2.93556,-4.41103,-20.242
2023-03-15 22:02:36:863,-0.77621,0.519485,-9.72793,-2.94706,-4.41294,-20.2355
2023-03-15 22:02:36:873,-0.810504,0.544197,-9.72315,-2.95514,-4.417,-20.2293
2023-03-15 22:02:36:883,-0.830163,0.574002,-9.73478,-2.96773,-4.41729,-20.2268
2023-03-15 22:02:36:893,-0.81635,0.576234,-9.7579,-2.9746,-4.41532,-20.2251
2023-03-15 22:02:36:903,-0.822811,0.583058,-9.76688,-2.97893,-4.40969,-20.2268
2023-03-15 22:02:36:912,-0.812464,0.580051,-9.77354,-2.97855,-4.4011,-20.2282
2023-03-15 22:02:36:923,-0.804674,0.562866,-9.76697,-2.97776,-4.39167,-20.2329
2023-03-15 22:02:36:933,-0.779235,0.544665,-9.75789,-2.97229,-4.38742,-20.2415
2023-03-15 22:02:36:943,-0.757367,0.537177,-9.74338,-2.96877,-4.3799,-20.2542
2023-03-15 22:02:36:953,-0.749067,0.526986,-9.72419,-2.96002,-4.37326,-20.2683
2023-03-15 22:02:36:963,-0.738884,0.503161,-9.70534,-2.95384,-4.37195,-20.2845
2023-03-15 22:02:36:973,-0.742774,0.481664,-9.72703,-2.94868,-4.36612,-20.2955
2023-03-15 22:02:36:983,-0.726883,0.484037,-9.76364,-2.94555,-4.36157,-20.3085
2023-03-15 22:02:36:993,-0.700877,0.501497,-9.77796,-2.94592,-4.35282,-20.324
2023-03-15 22:02:37:3,-0.671192,0.491284,-9.76272,-2.94294,-4.34368,-20.3376
2023-03-15 22:02:37:13,-0.643198,0.481705,-9.75906,-2.93915,-4.33677,-20.3448
2023-03-15 22:02:37:23,-0.63257,0.500025,-9.76447,-2.93582,-4.33014,-20.3506
2023-03-15 22:02:37:32,-0.632229,0.488448,-9.7382,-2.92796,-4.32366,-20.3501
2023-03-15 22:02:37:43,-0.644454,0.469977,-9.69991,-2.92608,-4.31863,-20.3478
2023-03-15 22:02:37:52,-0.661325,0.485801,-9.70583,-2.92639,-4.31634,-20.3422
2023-03-15 22:02:37:63,-0.657786,0.507493,-9.7304,-2.92895,-4.30747,-20.3338
2023-03-15 22:02:37:73,-0.65737,0.511779,-9.74723,-2.93434,-4.29977,-20.327
2023-03-15 22:02:37:83,-0.664288,0.523881,-9.73691,-2.93765,-4.29455,-20.3201
2023-03-15 22:02:37:93,-0.67652,0.532251,-9.74242,-2.94213,-4.29002,-20.3065
2023-03-15 22:02:37:103,-0.700178,0.524072,-9.76112,-2.94696,-4.28602,-20.2975
2023-03-15 22:02:37:113,-0.713032,0.539158,-9.7583,-2.94867,-4.28061,-20.2878
2023-03-15 22:02:37:123,-0.731273,0.54458,-9.76195,-2.94974,-4.27728,-20.2796
2023-03-15 22:02:37:133,-0.738108,0.550145,-9.75745,-2.95029,-4.27551,-20.2758
2023-03-15 22:02:37:143,-0.743892,0.54014,-9.76432,-2.94651,-4.27549,-20.2759
2023-03-15 22:02:37:153,-0.72752,0.529063,-9.75688,-2.94242,-4.27578,-20.2783
2023-03-15 22:02:37:163,-0.71774,0.53146,-9.7488,-2.94233,-4.27609,-20.28
2023-03-15 22:02:37:173,-0.702095,0.510866,-9.74846,-2.93748,-4.27678,-20.2826
2023-03-15 22:02:37:183,-0.673558,0.49948,-9.73912,-2.93436,-4.27694,-20.2877
2023-03-15 22:02:37:193,-0.659466,0.504828,-9.74327,-2.93096,-4.27683,-20.293
2023-03-15 22:02:37:203,-0.650108,0.495348,-9.74633,-2.92743,-4.27579,-20.2937
2023-03-15 22:02:37:213,-0.643743,0.487736,-9.75236,-2.92314,-4.27744,-20.294
2023-03-15 22:02:37:223,-0.64888,0.488557,-9.74925,-2.9238,-4.28187,-20.2901
2023-03-15 22:02:37:233,-0.657781,0.487368,-9.74688,-2.92522,-4.28665,-20.2871
2023-03-15 22:02:37:243,-0.679459,0.48441,-9.74429,-2.92532,-4.29233,-20.2808
2023-03-15 22:02:37:253,-0.690826,0.490914,-9.73236,-2.9291,-4.29564,-20.2724
2023-03-15 22:02:37:263,-0.706041,0.496137,-9.74002,-2.93048,-4.29656,-20.2655
2023-03-15 22:02:37:273,-0.721303,0.505346,-9.74023,-2.93288,-4.29753,-20.2624
2023-03-15 22:02:37:283,-0.725957,0.520364,-9.72719,-2.93597,-4.30327,-20.258
2023-03-15 22:02:37:293,-0.732449,0.497317,-9.72084,-2.93878,-4.30869,-20.2519
2023-03-15 22:02:37:303,-0.751234,0.508242,-9.70658,-2.94435,-4.31347,-20.2495
2023-03-15 22:02:37:313,-0.753505,0.50241,-9.70377,-2.94825,-4.32355,-20.2478
2023-03-15 22:02:37:323,-0.763973,0.517066,-9.71533,-2.95746,-4.33348,-20.2444
2023-03-15 22:02:37:333,-0.788402,0.511355,-9.69557,-2.96631,-4.34404,-20.2449
2023-03-15 22:02:37:343,-0.778339,0.505072,-9.71042,-2.97498,-4.34672,-20.2467
2023-03-15 22:02:37:353,-0.772855,0.532263,-9.75046,-2.98346,-4.35312,-20.2494
2023-03-15 22:02:37:363,-0.774554,0.541357,-9.76615,-2.99313,-4.35958,-20.2552
2023-03-15 22:02:37:373,-0.776652,0.519489,-9.75343,-2.99977,-4.36255,-20.2629
2023-03-15 22:02:37:383,-0.779992,0.526556,-9.7312,-3.00786,-4.36695,-20.265
2023-03-15 22:02:37:393,-0.788194,0.522457,-9.71178,-3.01255,-4.3678,-20.2709
2023-03-15 22:02:37:403,-0.792521,0.51286,-9.72905,-3.01794,-4.36584,-20.2755
2023-03-15 22:02:37:413,-0.781165,0.522539,-9.784,-3.02075,-4.36314,-20.2771
2023-03-15 22:02:37:423,-0.749256,0.537674,-9.82945,-3.02443,-4.35873,-20.2861
2023-03-15 22:02:37:433,-0.706328,0.518491,-9.80384,-3.02479,-4.35366,-20.2926
2023-03-15 22:02:37:443,-0.686118,0.487485,-9.73986,-3.02519,-4.35216,-20.2955
2023-03-15 22:02:37:453,-0.713307,0.492161,-9.72531,-3.03096,-4.35545,-20.2952
2023-03-15 22:02:37:463,-0.747969,0.497148,-9.71028,-3.035,-4.35848,-20.3001
2023-03-15 22:02:37:473,-0.785324,0.48599,-9.64832,-3.0437,-4.35912,-20.3013
2023-03-15 22:02:37:483,-0.792771,0.474894,-9.63099,-3.05554,-4.35613,-20.3017
2023-03-15 22:02:37:493,-0.772918,0.4907,-9.64134,-3.07321,-4.35098,-20.3026
2023-03-15 22:02:37:503,-0.739603,0.516872,-9.63873,-3.09449,-4.34713,-20.3059
2023-03-15 22:02:37:513,-0.738285,0.529253,-9.64506,-3.12519,-4.34146,-20.3088
2023-03-15 22:02:37:523,-0.765,0.562524,-9.68422,-3.15671,-4.33918,-20.3082
2023-03-15 22:02:37:533,-0.776679,0.59789,-9.73411,-3.18699,-4.33103,-20.314
2023-03-15 22:02:37:543,-0.778627,0.625128,-9.75679,-3.21811,-4.3228,-20.3218
2023-03-15 22:02:37:553,-0.778007,0.646242,-9.76356,-3.24656,-4.31456,-20.3295
2023-03-15 22:02:37:563,-0.778117,0.654278,-9.77162,-3.27344,-4.30366,-20.3394
2023-03-15 22:02:37:573,-0.764806,0.661912,-9.75963,-3.29519,-4.29242,-20.3549
2023-03-15 22:02:37:583,-0.744141,0.666669,-9.76767,-3.31167,-4.2789,-20.3727
2023-03-15 22:02:37:593,-0.711315,0.645313,-9.77326,-3.3233,-4.26795,-20.387
2023-03-15 22:02:37:603,-0.689545,0.64393,-9.75667,-3.33892,-4.2571,-20.4024
2023-03-15 22:02:37:613,-0.663717,0.658236,-9.74265,-3.3536,-4.24864,-20.4178
2023-03-15 22:02:37:623,-0.665381,0.63987,-9.7436,-3.36646,-4.23907,-20.4369
2023-03-15 22:02:37:633,-0.676028,0.651749,-9.77284,-3.38282,-4.23184,-20.451
2023-03-15 22:02:37:643,-0.66015,0.655646,-9.81888,-3.39665,-4.22188,-20.4651
2023-03-15 22:02:37:653,-0.630519,0.665699,-9.81688,-3.40364,-4.21316,-20.4785
2023-03-15 22:02:37:663,-0.586329,0.648003,-9.80549,-3.41049,-4.20224,-20.4874
2023-03-15 22:02:37:673,-0.573169,0.650488,-9.80686,-3.41532,-4.1974,-20.4974
2023-03-15 22:02:37:683,-0.583668,0.66915,-9.81918,-3.42059,-4.19165,-20.5037
2023-03-15 22:02:37:693,-0.606801,0.667241,-9.78411,-3.42579,-4.19171,-20.5074
2023-03-15 22:02:37:703,-0.629629,0.653702,-9.76108,-3.42543,-4.18716,-20.5071
2023-03-15 22:02:37:713,-0.640066,0.664117,-9.77198,-3.42419,-4.18349,-20.5067
2023-03-15 22:02:37:723,-0.632688,0.676194,-9.78632,-3.42404,-4.18235,-20.5073
2023-03-15 22:02:37:733,-0.635515,0.658598,-9.7703,-3.42372,-4.18022,-20.5008
2023-03-15 22:02:37:743,-0.651164,0.658149,-9.75455,-3.42139,-4.18291,-20.4926
2023-03-15 22:02:37:753,-0.666105,0.671236,-9.75138,-3.41695,-4.18582,-20.4864
2023-03-15 22:02:37:763,-0.673876,0.673276,-9.75674,-3.41173,-4.1865,-20.4824
2023-03-15 22:02:37:773,-0.68381,0.657982,-9.7646,-3.40357,-4.18948,-20.4772
2023-03-15 22:02:37:783,-0.692865,0.653817,-9.77422,-3.39428,-4.19323,-20.4718
2023-03-15 22:02:37:793,-0.698125,0.659026,-9.76356,-3.38362,-4.2002,-20.4664
2023-03-15 22:02:37:803,-0.688164,0.639486,-9.77127,-3.36796,-4.20662,-20.4632
2023-03-15 22:02:37:813,-0.694323,0.631205,-9.77392,-3.35367,-4.21235,-20.458
2023-03-15 22:02:37:823,-0.6965,0.61411,-9.75629,-3.33274,-4.21923,-20.458
2023-03-15 22:02:37:833,-0.692539,0.588975,-9.74127,-3.31324,-4.22498,-20.453
2023-03-15 22:02:37:843,-0.697425,0.559377,-9.74261,-3.29409,-4.23208,-20.4472
2023-03-15 22:02:37:853,-0.700067,0.547373,-9.72881,-3.27555,-4.23648,-20.4432
2023-03-15 22:02:37:863,-0.702944,0.529577,-9.70824,-3.2559,-4.24361,-20.4356
2023-03-15 22:02:37:873,-0.710116,0.520698,-9.68491,-3.2402,-4.25121,-20.4244
2023-03-15 22:02:37:883,-0.699534,0.517683,-9.69158,-3.22523,-4.26096,-20.4132
2023-03-15 22:02:37:893,-0.719354,0.506943,-9.68393,-3.21161,-4.26565,-20.4013
2023-03-15 22:02:37:903,-0.722311,0.514956,-9.67418,-3.20179,-4.27295,-20.39
2023-03-15 22:02:37:913,-0.729954,0.512441,-9.68787,-3.19359,-4.28116,-20.376
2023-03-15 22:02:37:923,-0.743102,0.515304,-9.68021,-3.18851,-4.28214,-20.3618
2023-03-15 22:02:37:933,-0.750035,0.52521,-9.68416,-3.18695,-4.28254,-20.3526
2023-03-15 22:02:37:943,-0.753079,0.527067,-9.6929,-3.18823,-4.28605,-20.3447
2023-03-15 22:02:37:953,-0.75432,0.533324,-9.70258,-3.19034,-4.28718,-20.339
2023-03-15 22:02:37:963,-0.782316,0.544514,-9.69479,-3.19074,-4.29401,-20.3378
2023-03-15 22:02:37:973,-0.785511,0.547532,-9.70889,-3.19779,-4.29542,-20.3376
2023-03-15 22:02:37:983,-0.760605,0.549528,-9.72191,-3.20573,-4.29914,-20.3411
2023-03-15 22:02:37:992,-0.759535,0.562453,-9.72954,-3.21297,-4.2971,-20.3454
2023-03-15 22:02:38:2,-0.751702,0.578942,-9.73343,-3.21984,-4.29836,-20.3539
2023-03-15 22:02:38:12,-0.741472,0.597441,-9.73639,-3.22604,-4.29681,-20.3618
2023-03-15 22:02:38:23,-0.720895,0.583961,-9.76039,-3.23251,-4.29443,-20.3712
2023-03-15 22:02:38:32,-0.718606,0.571805,-9.7774,-3.23311,-4.29258,-20.3767
2023-03-15 22:02:38:42,-0.698294,0.585815,-9.78069,-3.23535,-4.28895,-20.3824
2023-03-15 22:02:38:53,-0.687778,0.582903,-9.76422,-3.23551,-4.28648,-20.391
2023-03-15 22:02:38:62,-0.702909,0.570158,-9.72164,-3.23671,-4.28571,-20.3981
2023-03-15 22:02:38:73,-0.728001,0.566911,-9.72468,-3.23859,-4.28183,-20.4032
2023-03-15 22:02:38:83,-0.72045,0.582532,-9.78969,-3.24035,-4.27549,-20.4081
2023-03-15 22:02:38:93,-0.689237,0.594711,-9.8541,-3.23399,-4.26614,-20.4151
2023-03-15 22:02:38:103,-0.642174,0.597488,-9.84999,-3.23159,-4.25625,-20.4201
2023-03-15 22:02:38:113,-0.61962,0.570293,-9.78061,-3.22206,-4.25444,-20.428
2023-03-15 22:02:38:123,-0.648021,0.542057,-9.74073,-3.21585,-4.25756,-20.4345
2023-03-15 22:02:38:133,-0.662633,0.547813,-9.7209,-3.2111,-4.26318,-20.4404
2023-03-15 22:02:38:143,-0.690483,0.547143,-9.69179,-3.20516,-4.26662,-20.4452
2023-03-15 22:02:38:153,-0.706489,0.538347,-9.67778,-3.20208,-4.26962,-20.4521
2023-03-15 22:02:38:163,-0.693823,0.537096,-9.67385,-3.20221,-4.27245,-20.4578
2023-03-15 22:02:38:173,-0.677586,0.544345,-9.6911,-3.20767,-4.27423,-20.461
2023-03-15 22:02:38:183,-0.657792,0.569852,-9.71164,-3.21609,-4.27718,-20.4632
2023-03-15 22:02:38:193,-0.664929,0.580596,-9.73232,-3.22802,-4.28162,-20.4628
2023-03-15 22:02:38:203,-0.681075,0.603835,-9.73194,-3.23755,-4.28379,-20.4624
2023-03-15 22:02:38:213,-0.69244,0.617188,-9.7564,-3.24569,-4.2839,-20.4599
2023-03-15 22:02:38:223,-0.699725,0.635623,-9.74716,-3.24886,-4.28291,-20.4606
2023-03-15 22:02:38:233,-0.705446,0.639994,-9.75621,-3.25672,-4.27996,-20.4619
2023-03-15 22:02:38:243,-0.708798,0.630176,-9.77185,-3.25858,-4.28009,-20.4582
2023-03-15 22:02:38:253,-0.725137,0.615878,-9.77445,-3.25594,-4.27659,-20.4602
2023-03-15 22:02:38:263,-0.715759,0.610532,-9.75074,-3.24817,-4.27773,-20.4607
2023-03-15 22:02:38:273,-0.699984,0.590067,-9.73384,-3.23931,-4.27975,-20.4645
2023-03-15 22:02:38:283,-0.70696,0.581955,-9.70492,-3.23017,-4.28286,-20.4671
2023-03-15 22:02:38:293,-0.705902,0.550268,-9.68651,-3.22029,-4.2856,-20.469
2023-03-15 22:02:38:302,-0.723094,0.547602,-9.70823,-3.21704,-4.2906,-20.4717
2023-03-15 22:02:38:312,-0.714027,0.552956,-9.7525,-3.2125,-4.29445,-20.4783
2023-03-15 22:02:38:322,-0.681665,0.547351,-9.77447,-3.20848,-4.29699,-20.4797
2023-03-15 22:02:38:333,-0.656223,0.541987,-9.7541,-3.20706,-4.29876,-20.4835
2023-03-15 22:02:38:343,-0.636762,0.536027,-9.7593,-3.20358,-4.30344,-20.4874
2023-03-15 22:02:38:353,-0.631629,0.532796,-9.75227,-3.20218,-4.3099,-20.4845
2023-03-15 22:02:38:363,-0.64755,0.518194,-9.72128,-3.2026,-4.31768,-20.4797
2023-03-15 22:02:38:373,-0.679647,0.518918,-9.68792,-3.20244,-4.32756,-20.4704
2023-03-15 22:02:38:383,-0.687674,0.539265,-9.67925,-3.20784,-4.3354,-20.4605
2023-03-15 22:02:38:393,-0.693028,0.540904,-9.6844,-3.21352,-4.33913,-20.448
2023-03-15 22:02:38:403,-0.691579,0.550668,-9.68657,-3.22444,-4.34229,-20.4336
2023-03-15 22:02:38:413,-0.710878,0.574144,-9.68812,-3.23406,-4.34858,-20.4195
2023-03-15 22:02:38:423,-0.73729,0.589079,-9.7246,-3.24633,-4.35142,-20.4026
2023-03-15 22:02:38:433,-0.743219,0.619098,-9.75066,-3.25625,-4.35632,-20.3897
2023-03-15 22:02:38:443,-0.753686,0.631269,-9.76286,-3.26782,-4.36069,-20.3745
2023-03-15 22:02:38:453,-0.785089,0.631131,-9.76789,-3.27705,-4.36663,-20.3613
2023-03-15 22:02:38:463,-0.786387,0.630224,-9.77096,-3.27907,-4.37205,-20.3555
2023-03-15 22:02:38:473,-0.771484,0.623878,-9.77352,-3.2792,-4.37644,-20.3487
2023-03-15 22:02:38:483,-0.782233,0.617444,-9.78603,-3.27838,-4.38125,-20.349
2023-03-15 22:02:38:493,-0.771469,0.61317,-9.75869,-3.27563,-4.38572,-20.3457
2023-03-15 22:02:38:503,-0.769469,0.598325,-9.75044,-3.27138,-4.39056,-20.3474
2023-03-15 22:02:38:513,-0.757232,0.588092,-9.75749,-3.26302,-4.39641,-20.3484
2023-03-15 22:02:38:523,-0.740934,0.587022,-9.76188,-3.257,-4.3999,-20.3479
2023-03-15 22:02:38:533,-0.735541,0.578874,-9.76863,-3.25196,-4.40352,-20.3481
2023-03-15 22:02:38:543,-0.743928,0.576596,-9.76261,-3.24493,-4.40901,-20.3475
2023-03-15 22:02:38:553,-0.74242,0.563522,-9.74284,-3.23602,-4.41067,-20.3453
2023-03-15 22:02:38:563,-0.743251,0.555347,-9.73208,-3.22734,-4.41182,-20.3393
2023-03-15 22:02:38:573,-0.747624,0.551169,-9.71757,-3.21968,-4.41256,-20.3331
2023-03-15 22:02:38:583,-0.73657,0.54629,-9.7065,-3.21586,-4.41238,-20.3263
2023-03-15 22:02:38:593,-0.74189,0.555806,-9.69903,-3.21304,-4.41398,-20.318
2023-03-15 22:02:38:603,-0.759255,0.555643,-9.69845,-3.21865,-4.41798,-20.3126
2023-03-15 22:02:38:613,-0.769621,0.544263,-9.70671,-3.22075,-4.42002,-20.3062
2023-03-15 22:02:38:623,-0.768149,0.563554,-9.72086,-3.2257,-4.4174,-20.3006
2023-03-15 22:02:38:633,-0.783041,0.58168,-9.7402,-3.22823,-4.4145,-20.2976
2023-03-15 22:02:38:643,-0.779069,0.590582,-9.76041,-3.22989,-4.41431,-20.2985
2023-03-15 22:02:38:653,-0.768924,0.593012,-9.75785,-3.23207,-4.41563,-20.3008
2023-03-15 22:02:38:663,-0.775802,0.599264,-9.7471,-3.23173,-4.41632,-20.307
2023-03-15 22:02:38:673,-0.771231,0.577632,-9.75654,-3.23238,-4.4127,-20.3144
2023-03-15 22:02:38:683,-0.754201,0.573429,-9.74094,-3.23252,-4.41712,-20.324
2023-03-15 22:02:38:693,-0.73569,0.575478,-9.72622,-3.23094,-4.41774,-20.3336
2023-03-15 22:02:38:703,-0.714662,0.573754,-9.71223,-3.22982,-4.41868,-20.3447
2023-03-15 22:02:38:713,-0.709877,0.552666,-9.70227,-3.22888,-4.42219,-20.3513
2023-03-15 22:02:38:723,-0.694262,0.561306,-9.71571,-3.22636,-4.42433,-20.3568
2023-03-15 22:02:38:733,-0.680204,0.562323,-9.75018,-3.22494,-4.4283,-20.3628
2023-03-15 22:02:38:743,-0.678796,0.54978,-9.75525,-3.22477,-4.43129,-20.3619
2023-03-15 22:02:38:753,-0.69427,0.554361,-9.73304,-3.22188,-4.43442,-20.358
2023-03-15 22:02:38:763,-0.703593,0.558162,-9.6966,-3.22269,-4.43609,-20.3502
2023-03-15 22:02:38:773,-0.724435,0.528935,-9.70134,-3.22073,-4.43101,-20.3407
2023-03-15 22:02:38:783,-0.737411,0.535663,-9.74288,-3.21968,-4.43292,-20.3318
2023-03-15 22:02:38:793,-0.723438,0.5399,-9.78614,-3.21847,-4.43199,-20.3247
2023-03-15 22:02:38:803,-0.680004,0.551874,-9.78568,-3.219,-4.43269,-20.3186
2023-03-15 22:02:38:813,-0.672649,0.536193,-9.75102,-3.21871,-4.4363,-20.3117
2023-03-15 22:02:38:823,-0.696599,0.537511,-9.7141,-3.22237,-4.44368,-20.3028
2023-03-15 22:02:38:833,-0.715198,0.545073,-9.68886,-3.22902,-4.45752,-20.2939
2023-03-15 22:02:38:843,-0.747843,0.538859,-9.67055,-3.23514,-4.47355,-20.2869
2023-03-15 22:02:38:853,-0.79765,0.550595,-9.66385,-3.24534,-4.48762,-20.2838
2023-03-15 22:02:38:863,-0.788321,0.564234,-9.6744,-3.26162,-4.49905,-20.277
2023-03-15 22:02:38:873,-0.754895,0.575019,-9.68122,-3.28045,-4.50788,-20.2693
2023-03-15 22:02:38:883,-0.73306,0.593375,-9.70329,-3.30103,-4.51481,-20.2601
2023-03-15 22:02:38:893,-0.769345,0.611072,-9.73432,-3.32439,-4.51976,-20.2503
2023-03-15 22:02:38:902,-0.801926,0.631061,-9.74025,-3.34889,-4.52551,-20.2397
2023-03-15 22:02:38:912,-0.814506,0.660017,-9.74238,-3.3734,-4.52848,-20.2317
2023-03-15 22:02:38:922,-0.838323,0.683872,-9.75672,-3.39326,-4.52902,-20.2239
2023-03-15 22:02:38:933,-0.859079,0.698467,-9.75488,-3.40842,-4.53021,-20.2205
2023-03-15 22:02:38:943,-0.864389,0.704754,-9.73984,-3.42487,-4.52509,-20.2171
2023-03-15 22:02:38:953,-0.868037,0.707951,-9.75135,-3.4388,-4.52428,-20.2193
2023-03-15 22:02:38:963,-0.858727,0.718331,-9.75692,-3.44788,-4.52022,-20.2296
2023-03-15 22:02:38:973,-0.839734,0.703263,-9.7784,-3.45387,-4.51289,-20.2416
2023-03-15 22:02:38:983,-0.819853,0.693209,-9.77369,-3.45618,-4.51072,-20.2582
2023-03-15 22:02:38:993,-0.812349,0.680164,-9.76015,-3.45818,-4.50434,-20.2748
2023-03-15 22:02:39:3,-0.803868,0.665525,-9.75601,-3.45528,-4.50378,-20.2958
2023-03-15 22:02:39:13,-0.789533,0.667484,-9.76348,-3.45606,-4.49881,-20.3165
2023-03-15 22:02:39:23,-0.761776,0.662897,-9.79816,-3.45164,-4.49303,-20.3402
2023-03-15 22:02:39:33,-0.730893,0.667092,-9.80653,-3.44639,-4.48816,-20.36
2023-03-15 22:02:39:43,-0.706008,0.635527,-9.7956,-3.44276,-4.48424,-20.3777
2023-03-15 22:02:39:53,-0.678525,0.63487,-9.78858,-3.43694,-4.48016,-20.3911
2023-03-15 22:02:39:63,-0.673647,0.638721,-9.77809,-3.42698,-4.47777,-20.399
2023-03-15 22:02:39:73,-0.688052,0.616046,-9.74392,-3.41594,-4.47301,-20.4084
2023-03-15 22:02:39:83,-0.703342,0.601936,-9.7126,-3.40694,-4.47241,-20.4095
2023-03-15 22:02:39:93,-0.708759,0.603349,-9.72642,-3.39874,-4.46933,-20.4128
2023-03-15 22:02:39:103,-0.708136,0.609949,-9.72331,-3.39196,-4.46577,-20.4111
2023-03-15 22:02:39:113,-0.715512,0.614331,-9.71643,-3.38496,-4.4612,-20.4115
2023-03-15 22:02:39:123,-0.720427,0.610516,-9.73194,-3.37602,-4.45942,-20.4103
2023-03-15 22:02:39:133,-0.730577,0.622763,-9.73425,-3.37256,-4.45191,-20.4071
2023-03-15 22:02:39:143,-0.741204,0.621608,-9.73722,-3.36754,-4.44981,-20.4053
2023-03-15 22:02:39:153,-0.724697,0.621871,-9.7455,-3.35635,-4.44915,-20.4008
2023-03-15 22:02:39:163,-0.735771,0.617451,-9.7672,-3.34785,-4.44174,-20.4
2023-03-15 22:02:39:173,-0.748144,0.615836,-9.7785,-3.33824,-4.43994,-20.3999
2023-03-15 22:02:39:183,-0.731675,0.597589,-9.7858,-3.32492,-4.44038,-20.4028
2023-03-15 22:02:39:193,-0.733017,0.594731,-9.76176,-3.30805,-4.44141,-20.4062
2023-03-15 22:02:39:203,-0.73206,0.574067,-9.74778,-3.29047,-4.44327,-20.4075
2023-03-15 22:02:39:213,-0.726026,0.562543,-9.73554,-3.26956,-4.44602,-20.4072
2023-03-15 22:02:39:223,-0.705391,0.550175,-9.72887,-3.2517,-4.44976,-20.4082
2023-03-15 22:02:39:233,-0.698789,0.542773,-9.72298,-3.23195,-4.45196,-20.4085
2023-03-15 22:02:39:243,-0.708313,0.548144,-9.72283,-3.21302,-4.45411,-20.4081
2023-03-15 22:02:39:253,-0.706378,0.537811,-9.73123,-3.19746,-4.45576,-20.401
2023-03-15 22:02:39:263,-0.712582,0.520129,-9.72605,-3.18286,-4.45875,-20.3923
2023-03-15 22:02:39:273,-0.728926,0.520437,-9.71695,-3.16823,-4.46092,-20.3809
2023-03-15 22:02:39:283,-0.73906,0.519627,-9.7179,-3.15591,-4.46558,-20.373
2023-03-15 22:02:39:293,-0.753415,0.528852,-9.70497,-3.14428,-4.46944,-20.3622
2023-03-15 22:02:39:303,-0.758817,0.517872,-9.70429,-3.13618,-4.47248,-20.3514
2023-03-15 22:02:39:313,-0.770998,0.511056,-9.70422,-3.12884,-4.47086,-20.339
2023-03-15 22:02:39:323,-0.774815,0.521749,-9.70025,-3.12348,-4.47212,-20.3287
2023-03-15 22:02:39:333,-0.784219,0.529473,-9.7165,-3.11863,-4.4753,-20.3194
2023-03-15 22:02:39:343,-0.786954,0.548576,-9.73402,-3.1156,-4.47843,-20.3097
2023-03-15 22:02:39:353,-0.788575,0.550013,-9.75584,-3.11224,-4.48235,-20.3096
2023-03-15 22:02:39:363,-0.783743,0.553001,-9.77425,-3.108,-4.48192,-20.3094
2023-03-15 22:02:39:373,-0.783204,0.550064,-9.77018,-3.10099,-4.48203,-20.3129
2023-03-15 22:02:39:383,-0.782658,0.550702,-9.76069,-3.08891,-4.48619,-20.3152
2023-03-15 22:02:39:393,-0.764007,0.531184,-9.74529,-3.07757,-4.48748,-20.3165
2023-03-15 22:02:39:403,-0.77094,0.516327,-9.73808,-3.06604,-4.48894,-20.3199
2023-03-15 22:02:39:413,-0.755597,0.510024,-9.72433,-3.05462,-4.49208,-20.3239
2023-03-15 22:02:39:423,-0.745303,0.479787,-9.70603,-3.04143,-4.49158,-20.325
2023-03-15 22:02:39:433,-0.752778,0.476326,-9.69757,-3.03309,-4.49619,-20.3241
2023-03-15 22:02:39:443,-0.75854,0.496272,-9.70938,-3.02678,-4.49933,-20.3232
2023-03-15 22:02:39:453,-0.766485,0.480537,-9.7317,-3.02389,-4.49908,-20.3236
2023-03-15 22:02:39:463,-0.7747,0.486494,-9.74933,-3.01916,-4.49681,-20.3227
2023-03-15 22:02:39:473,-0.753923,0.484836,-9.74752,-3.01026,-4.49318,-20.3166
2023-03-15 22:02:39:483,-0.766169,0.491518,-9.73322,-3.00505,-4.48742,-20.3117
2023-03-15 22:02:39:493,-0.779086,0.484534,-9.70262,-2.99903,-4.48211,-20.3094
2023-03-15 22:02:39:503,-0.792548,0.457712,-9.68603,-2.99346,-4.47503,-20.3072
2023-03-15 22:02:39:513,-0.797278,0.454974,-9.719,-2.98579,-4.46871,-20.3052
2023-03-15 22:02:39:523,-0.781493,0.483782,-9.768,-2.98589,-4.46077,-20.3047
2023-03-15 22:02:39:533,-0.737473,0.492046,-9.77946,-2.98552,-4.45403,-20.3041
2023-03-15 22:02:39:543,-0.697126,0.470834,-9.74633,-2.98102,-4.44861,-20.3076
2023-03-15 22:02:39:553,-0.690129,0.468837,-9.72562,-2.98379,-4.44911,-20.3123
2023-03-15 22:02:39:563,-0.706899,0.472337,-9.71799,-2.9856,-4.45317,-20.3205
2023-03-15 22:02:39:573,-0.72651,0.464771,-9.68935,-2.98807,-4.45658,-20.3249
2023-03-15 22:02:39:583,-0.753374,0.475012,-9.66949,-2.99545,-4.46369,-20.3291
2023-03-15 22:02:39:593,-0.735082,0.492436,-9.67285,-3.01011,-4.46527,-20.3331
2023-03-15 22:02:39:603,-0.703685,0.510938,-9.70691,-3.02615,-4.46457,-20.3348
2023-03-15 22:02:39:613,-0.683627,0.527173,-9.74437,-3.04776,-4.46177,-20.334
2023-03-15 22:02:39:623,-0.689905,0.552175,-9.76684,-3.06617,-4.46022,-20.3293
2023-03-15 22:02:39:633,-0.720788,0.569985,-9.76295,-3.08433,-4.45696,-20.3219
2023-03-15 22:02:39:643,-0.749158,0.588551,-9.75503,-3.10384,-4.4542,-20.3138
2023-03-15 22:02:39:653,-0.763891,0.607249,-9.74191,-3.12006,-4.45108,-20.3035
2023-03-15 22:02:39:663,-0.78558,0.61671,-9.7406,-3.13325,-4.44438,-20.2954
2023-03-15 22:02:39:673,-0.787086,0.618921,-9.74489,-3.13998,-4.44054,-20.2905
2023-03-15 22:02:39:683,-0.797776,0.62877,-9.73541,-3.14703,-4.43587,-20.2914
2023-03-15 22:02:39:693,-0.785525,0.619924,-9.73922,-3.15082,-4.42899,-20.2933
2023-03-15 22:02:39:703,-0.759092,0.606746,-9.75494,-3.15589,-4.42261,-20.3011
2023-03-15 22:02:39:713,-0.742837,0.594508,-9.75293,-3.16036,-4.41834,-20.3057
2023-03-15 22:02:39:723,-0.750056,0.597113,-9.73648,-3.16422,-4.41894,-20.3133
2023-03-15 22:02:39:733,-0.754961,0.573317,-9.74573,-3.16664,-4.41939,-20.3221
2023-03-15 22:02:39:743,-0.736,0.578211,-9.76624,-3.16933,-4.42022,-20.3339
2023-03-15 22:02:39:753,-0.703579,0.582656,-9.79467,-3.17134,-4.41933,-20.3418
2023-03-15 22:02:39:763,-0.649896,0.592558,-9.81354,-3.17019,-4.41587,-20.3479
2023-03-15 22:02:39:773,-0.588525,0.572911,-9.80767,-3.16746,-4.41165,-20.3522
2023-03-15 22:02:39:783,-0.548474,0.559461,-9.78643,-3.16398,-4.41529,-20.3498
2023-03-15 22:02:39:793,-0.537844,0.560458,-9.76139,-3.16038,-4.42281,-20.3404
2023-03-15 22:02:39:803,-0.56051,0.544497,-9.72975,-3.15472,-4.43396,-20.3267
2023-03-15 22:02:39:813,-0.592273,0.506994,-9.69491,-3.15471,-4.44456,-20.3097
2023-03-15 22:02:39:823,-0.622186,0.517409,-9.67428,-3.15613,-4.45791,-20.283
2023-03-15 22:02:39:833,-0.652754,0.535863,-9.68079,-3.16259,-4.47123,-20.2556
2023-03-15 22:02:39:843,-0.694101,0.547424,-9.72748,-3.17195,-4.48511,-20.2245
2023-03-15 22:02:39:853,-0.73634,0.565613,-9.75772,-3.18551,-4.50106,-20.1919
2023-03-15 22:02:39:863,-0.772817,0.5908,-9.75333,-3.19498,-4.51364,-20.1627
2023-03-15 22:02:39:873,-0.799958,0.613746,-9.75008,-3.20632,-4.52876,-20.1344
2023-03-15 22:02:39:883,-0.837341,0.621496,-9.75168,-3.21463,-4.54369,-20.112
2023-03-15 22:02:39:893,-0.866698,0.623564,-9.77289,-3.2202,-4.55933,-20.0919
2023-03-15 22:02:39:903,-0.903223,0.622721,-9.77535,-3.2219,-4.57553,-20.081
2023-03-15 22:02:39:913,-0.928809,0.630533,-9.7696,-3.2249,-4.59314,-20.0739
2023-03-15 22:02:39:923,-0.936241,0.621628,-9.77013,-3.2218,-4.61157,-20.0744
2023-03-15 22:02:39:933,-0.932473,0.609191,-9.78228,-3.21731,-4.62209,-20.0822
2023-03-15 22:02:39:943,-0.901395,0.599389,-9.7759,-3.21312,-4.63158,-20.0945
2023-03-15 22:02:39:953,-0.884369,0.578647,-9.76339,-3.20407,-4.64149,-20.1118
2023-03-15 22:02:39:963,-0.86811,0.561245,-9.75487,-3.19327,-4.65025,-20.1272
2023-03-15 22:02:39:973,-0.840626,0.541632,-9.7523,-3.18032,-4.65936,-20.1448
2023-03-15 22:02:39:983,-0.817798,0.506482,-9.71779,-3.16738,-4.6673,-20.1613
2023-03-15 22:02:39:993,-0.799865,0.485209,-9.67064,-3.15379,-4.66968,-20.1738
2023-03-15 22:02:40:3,-0.801457,0.455155,-9.62802,-3.14481,-4.67291,-20.1798
2023-03-15 22:02:40:13,-0.800837,0.443254,-9.60119,-3.13905,-4.66746,-20.1853
2023-03-15 22:02:40:23,-0.794564,0.458994,-9.57683,-3.13822,-4.66226,-20.1853
2023-03-15 22:02:40:33,-0.791329,0.459023,-9.58416,-3.14519,-4.65169,-20.1885
2023-03-15 22:02:40:43,-0.80401,0.480008,-9.60686,-3.15459,-4.63994,-20.1879
2023-03-15 22:02:40:53,-0.812613,0.523235,-9.63532,-3.17164,-4.62506,-20.1908
2023-03-15 22:02:40:63,-0.806505,0.562088,-9.69084,-3.1934,-4.61551,-20.1957
2023-03-15 22:02:40:73,-0.803748,0.608799,-9.74694,-3.21871,-4.60572,-20.2071
2023-03-15 22:02:40:83,-0.820595,0.631954,-9.82032,-3.24111,-4.59919,-20.2167
2023-03-15 22:02:40:93,-0.834495,0.679131,-9.86611,-3.25721,-4.59234,-20.2326
2023-03-15 22:02:40:103,-0.820887,0.685851,-9.85809,-3.27116,-4.58091,-20.2516
2023-03-15 22:02:40:113,-0.79899,0.645223,-9.85754,-3.28172,-4.5718,-20.2667
2023-03-15 22:02:40:123,-0.769347,0.652556,-9.83305,-3.28956,-4.56394,-20.2844
2023-03-15 22:02:40:133,-0.755263,0.670814,-9.80553,-3.2942,-4.5564,-20.3056
2023-03-15 22:02:40:143,-0.741744,0.661963,-9.7907,-3.29678,-4.55239,-20.3249
2023-03-15 22:02:40:153,-0.724013,0.661376,-9.77416,-3.30032,-4.54386,-20.3431
2023-03-15 22:02:40:163,-0.702644,0.645947,-9.75873,-3.30054,-4.54105,-20.3601
2023-03-15 22:02:40:173,-0.681544,0.650358,-9.73982,-3.29884,-4.53623,-20.3727
2023-03-15 22:02:40:183,-0.678348,0.650733,-9.75349,-3.29781,-4.53433,-20.3832
2023-03-15 22:02:40:193,-0.676807,0.632912,-9.7668,-3.29332,-4.53083,-20.3868
2023-03-15 22:02:40:203,-0.677261,0.619393,-9.763,-3.28494,-4.52655,-20.3882
2023-03-15 22:02:40:213,-0.676974,0.620162,-9.7669,-3.27536,-4.52496,-20.382
2023-03-15 22:02:40:223,-0.664237,0.616484,-9.76702,-3.26007,-4.52221,-20.3716
2023-03-15 22:02:40:233,-0.670624,0.61218,-9.75223,-3.24801,-4.5172,-20.3561
2023-03-15 22:02:40:243,-0.695905,0.605364,-9.7405,-3.23631,-4.5157,-20.3383
2023-03-15 22:02:40:253,-0.737095,0.605428,-9.72018,-3.22349,-4.51346,-20.3243
2023-03-15 22:02:40:263,-0.775376,0.591053,-9.72044,-3.21185,-4.514,-20.3081
2023-03-15 22:02:40:273,-0.802823,0.605057,-9.80008,-3.20211,-4.51299,-20.2946
2023-03-15 22:02:40:283,-0.812809,0.631053,-9.911,-3.18709,-4.51222,-20.2867
2023-03-15 22:02:40:293,-0.789631,0.635497,-9.95955,-3.16917,-4.50985,-20.2799
2023-03-15 22:02:40:303,-0.763444,0.606942,-9.901,-3.14671,-4.50843,-20.2773
2023-03-15 22:02:40:313,-0.752321,0.562393,-9.81528,-3.11854,-4.50908,-20.2769
2023-03-15 22:02:40:323,-0.773305,0.546445,-9.76126,-3.08917,-4.51107,-20.279
2023-03-15 22:02:40:333,-0.798877,0.53349,-9.67368,-3.06132,-4.51828,-20.2845
2023-03-15 22:02:40:343,-0.808805,0.507669,-9.6009,-3.03652,-4.52395,-20.2892
2023-03-15 22:02:40:353,-0.796974,0.496565,-9.58685,-3.01406,-4.52961,-20.2983
2023-03-15 22:02:40:363,-0.745097,0.50618,-9.60026,-3.00074,-4.52989,-20.305
2023-03-15 22:02:40:373,-0.727427,0.499942,-9.60966,-2.99416,-4.53332,-20.3125
2023-03-15 22:02:40:383,-0.730338,0.499189,-9.64484,-2.98419,-4.53302,-20.3148
2023-03-15 22:02:40:393,-0.720078,0.518348,-9.6767,-2.97761,-4.53544,-20.3192
2023-03-15 22:02:40:403,-0.725324,0.525015,-9.67433,-2.96813,-4.53275,-20.3188
2023-03-15 22:02:40:413,-0.730613,0.522218,-9.66282,-2.96323,-4.53494,-20.3174
2023-03-15 22:02:40:423,-0.731734,0.525603,-9.68173,-2.95813,-4.53477,-20.3166
2023-03-15 22:02:40:433,-0.73981,0.532664,-9.70123,-2.95229,-4.53429,-20.3099
2023-03-15 22:02:40:443,-0.765061,0.528368,-9.70501,-2.9454,-4.53391,-20.3059
2023-03-15 22:02:40:453,-0.769441,0.517664,-9.73056,-2.93852,-4.53489,-20.3004
2023-03-15 22:02:40:463,-0.765763,0.512073,-9.74916,-2.93263,-4.53193,-20.2998
2023-03-15 22:02:40:473,-0.766237,0.509418,-9.76074,-2.92607,-4.52995,-20.296
2023-03-15 22:02:40:483,-0.761093,0.503943,-9.74381,-2.9203,-4.5281,-20.2935
2023-03-15 22:02:40:493,-0.760684,0.46878,-9.73981,-2.91739,-4.52866,-20.2873
2023-03-15 22:02:40:503,-0.756504,0.478221,-9.74267,-2.91462,-4.52828,-20.2815
2023-03-15 22:02:40:513,-0.764921,0.491392,-9.74954,-2.90917,-4.52694,-20.2774
2023-03-15 22:02:40:523,-0.746328,0.48762,-9.74023,-2.90808,-4.52202,-20.2744
2023-03-15 22:02:40:533,-0.722195,0.49167,-9.72581,-2.90902,-4.52153,-20.2689
2023-03-15 22:02:40:543,-0.735413,0.50382,-9.74042,-2.9139,-4.52103,-20.2631
2023-03-15 22:02:40:553,-0.727167,0.514994,-9.72596,-2.91828,-4.52413,-20.2585
2023-03-15 22:02:40:563,-0.74878,0.519779,-9.71828,-2.92538,-4.52574,-20.2558
2023-03-15 22:02:40:573,-0.769919,0.542928,-9.72922,-2.93497,-4.52581,-20.2517
2023-03-15 22:02:40:583,-0.771275,0.536726,-9.73299,-2.94226,-4.52833,-20.2451
2023-03-15 22:02:40:593,-0.759589,0.540868,-9.73743,-2.94719,-4.52462,-20.2413
2023-03-15 22:02:40:603,-0.753435,0.565675,-9.7433,-2.95455,-4.51773,-20.2389
2023-03-15 22:02:40:613,-0.763918,0.579993,-9.75722,-2.96069,-4.51209,-20.2361
2023-03-15 22:02:40:623,-0.760601,0.592681,-9.75554,-2.9651,-4.50484,-20.2304
2023-03-15 22:02:40:633,-0.756449,0.59523,-9.7784,-2.96483,-4.49455,-20.2242
2023-03-15 22:02:40:643,-0.761995,0.580055,-9.79173,-2.95904,-4.48613,-20.221
2023-03-15 22:02:40:653,-0.759194,0.581087,-9.79202,-2.95154,-4.4798,-20.2177
2023-03-15 22:02:40:663,-0.757072,0.581116,-9.79942,-2.94266,-4.47398,-20.2181
2023-03-15 22:02:40:673,-0.7632,0.571663,-9.80897,-2.93428,-4.46631,-20.2193
2023-03-15 22:02:40:683,-0.730455,0.559755,-9.7957,-2.91706,-4.46119,-20.2207
2023-03-15 22:02:40:693,-0.703422,0.550774,-9.78627,-2.90031,-4.45651,-20.2249
2023-03-15 22:02:40:703,-0.706114,0.514119,-9.77827,-2.87845,-4.45438,-20.2293
2023-03-15 22:02:40:713,-0.702633,0.492689,-9.76148,-2.85806,-4.45511,-20.2332
2023-03-15 22:02:40:723,-0.688256,0.478399,-9.75385,-2.8398,-4.45781,-20.2324
2023-03-15 22:02:40:733,-0.668396,0.450578,-9.73477,-2.81467,-4.45846,-20.2294
2023-03-15 22:02:40:743,-0.668273,0.431028,-9.71284,-2.79075,-4.46285,-20.2243
2023-03-15 22:02:40:753,-0.670176,0.427111,-9.70055,-2.77299,-4.46632,-20.2163
2023-03-15 22:02:40:763,-0.68474,0.422892,-9.7058,-2.76014,-4.46987,-20.2063
2023-03-15 22:02:40:773,-0.697929,0.421843,-9.70582,-2.75184,-4.47591,-20.1957
2023-03-15 22:02:40:783,-0.713867,0.420941,-9.69762,-2.74095,-4.48034,-20.183
2023-03-15 22:02:40:793,-0.730004,0.421284,-9.69372,-2.73579,-4.48616,-20.1679
2023-03-15 22:02:40:803,-0.736836,0.422095,-9.69292,-2.72921,-4.49084,-20.1517
2023-03-15 22:02:40:813,-0.753495,0.433686,-9.70563,-2.72523,-4.49738,-20.1361
2023-03-15 22:02:40:823,-0.771862,0.442686,-9.71303,-2.72272,-4.50285,-20.1219
2023-03-15 22:02:40:833,-0.786711,0.447543,-9.71591,-2.72271,-4.5134,-20.1067
2023-03-15 22:02:40:843,-0.802984,0.452668,-9.72647,-2.72325,-4.52353,-20.0936
2023-03-15 22:02:40:853,-0.815084,0.453187,-9.7412,-2.7231,-4.53296,-20.0858
2023-03-15 22:02:40:863,-0.824117,0.458961,-9.75095,-2.72517,-4.54018,-20.08
2023-03-15 22:02:40:873,-0.825314,0.468243,-9.75334,-2.72591,-4.54636,-20.0798
2023-03-15 22:02:40:883,-0.832196,0.473928,-9.75395,-2.72693,-4.55385,-20.0787
2023-03-15 22:02:40:893,-0.822733,0.498104,-9.75904,-2.72769,-4.56139,-20.0845
2023-03-15 22:02:40:903,-0.820881,0.50376,-9.74335,-2.72325,-4.56741,-20.0894
2023-03-15 22:02:40:913,-0.802914,0.487824,-9.74224,-2.72172,-4.57517,-20.0957
2023-03-15 22:02:40:923,-0.799353,0.492289,-9.73483,-2.71976,-4.57893,-20.1026
2023-03-15 22:02:40:933,-0.793518,0.502168,-9.74305,-2.71633,-4.58378,-20.1126
2023-03-15 22:02:40:943,-0.791002,0.506303,-9.75755,-2.71192,-4.58935,-20.121
2023-03-15 22:02:40:953,-0.797024,0.499156,-9.77384,-2.70642,-4.58938,-20.1276
2023-03-15 22:02:40:963,-0.794667,0.490799,-9.777,-2.69739,-4.58919,-20.133
2023-03-15 22:02:40:973,-0.795282,0.474125,-9.76579,-2.68192,-4.59159,-20.1353
2023-03-15 22:02:40:983,-0.813155,0.458551,-9.72682,-2.66587,-4.58968,-20.1412
2023-03-15 22:02:40:993,-0.825721,0.441922,-9.68855,-2.65242,-4.58634,-20.1414
2023-03-15 22:02:41:3,-0.836164,0.417234,-9.70828,-2.6385,-4.58064,-20.1407
2023-03-15 22:02:41:13,-0.836838,0.431706,-9.76475,-2.62419,-4.56593,-20.1426
2023-03-15 22:02:41:23,-0.802491,0.432598,-9.79717,-2.61017,-4.55062,-20.1436
2023-03-15 22:02:41:33,-0.754162,0.402147,-9.75654,-2.59559,-4.53647,-20.1484
2023-03-15 22:02:41:43,-0.741469,0.361087,-9.72741,-2.5805,-4.52739,-20.1519
2023-03-15 22:02:41:53,-0.737072,0.383742,-9.71142,-2.57082,-4.523,-20.1609
2023-03-15 22:02:41:63,-0.738775,0.392615,-9.68409,-2.56311,-4.52233,-20.1697
2023-03-15 22:02:41:73,-0.76692,0.379389,-9.65071,-2.55744,-4.52258,-20.177
2023-03-15 22:02:41:83,-0.777098,0.379497,-9.65685,-2.56011,-4.51569,-20.1866
2023-03-15 22:02:41:93,-0.742784,0.381976,-9.68076,-2.56799,-4.50885,-20.1958
2023-03-15 22:02:41:103,-0.709334,0.392228,-9.68359,-2.58126,-4.50231,-20.2032
2023-03-15 22:02:41:113,-0.686444,0.406234,-9.68755,-2.59353,-4.49613,-20.2058
2023-03-15 22:02:41:123,-0.679043,0.436173,-9.68356,-2.61136,-4.49056,-20.2085
2023-03-15 22:02:41:133,-0.68223,0.453142,-9.69765,-2.63071,-4.48635,-20.2086
2023-03-15 22:02:41:143,-0.697403,0.477032,-9.70662,-2.65133,-4.48267,-20.2038
2023-03-15 22:02:41:153,-0.688585,0.484109,-9.71535,-2.66923,-4.47704,-20.195
2023-03-15 22:02:41:163,-0.714058,0.50024,-9.73205,-2.69194,-4.47157,-20.1871
2023-03-15 22:02:41:173,-0.734971,0.527497,-9.75241,-2.71004,-4.47052,-20.1813
2023-03-15 22:02:41:183,-0.736398,0.52799,-9.76027,-2.72447,-4.46335,-20.1758
2023-03-15 22:02:41:193,-0.737784,0.530621,-9.77221,-2.74057,-4.46306,-20.1692
2023-03-15 22:02:41:203,-0.741009,0.542893,-9.762,-2.75473,-4.46228,-20.163
2023-03-15 22:02:41:213,-0.751727,0.547623,-9.76086,-2.76969,-4.46486,-20.1606
2023-03-15 22:02:41:223,-0.759472,0.541304,-9.74785,-2.78221,-4.46754,-20.1591
2023-03-15 22:02:41:233,-0.771155,0.538615,-9.75348,-2.79211,-4.47074,-20.1571
2023-03-15 22:02:41:243,-0.780884,0.546254,-9.80129,-2.79959,-4.47409,-20.1569
2023-03-15 22:02:41:253,-0.780229,0.56159,-9.83002,-2.80509,-4.47946,-20.1558
2023-03-15 22:02:41:263,-0.76538,0.56115,-9.82458,-2.81049,-4.48018,-20.156
2023-03-15 22:02:41:273,-0.745253,0.542,-9.80432,-2.81242,-4.48359,-20.1553
2023-03-15 22:02:41:283,-0.747331,0.528709,-9.79174,-2.81182,-4.4898,-20.1535
2023-03-15 22:02:41:293,-0.754232,0.519621,-9.765,-2.80817,-4.49624,-20.1545
2023-03-15 22:02:41:303,-0.761869,0.497935,-9.72855,-2.80397,-4.50263,-20.1519
2023-03-15 22:02:41:313,-0.785886,0.495466,-9.70394,-2.80252,-4.50504,-20.1516
2023-03-15 22:02:41:323,-0.787952,0.511305,-9.70871,-2.80354,-4.50667,-20.1459
2023-03-15 22:02:41:333,-0.7698,0.510067,-9.724,-2.80504,-4.50658,-20.1436
2023-03-15 22:02:41:343,-0.767905,0.497536,-9.71787,-2.80762,-4.50548,-20.1371
2023-03-15 22:02:41:353,-0.77825,0.510228,-9.72456,-2.81068,-4.50207,-20.1298
2023-03-15 22:02:41:363,-0.791315,0.520342,-9.7317,-2.8125,-4.49834,-20.125
2023-03-15 22:02:41:373,-0.799819,0.525901,-9.73886,-2.81714,-4.49182,-20.118
2023-03-15 22:02:41:383,-0.81139,0.525501,-9.73768,-2.81644,-4.48586,-20.1139
2023-03-15 22:02:41:393,-0.817721,0.531644,-9.74106,-2.81944,-4.48112,-20.111
2023-03-15 22:02:41:403,-0.821437,0.521946,-9.75095,-2.81684,-4.47411,-20.11
2023-03-15 22:02:41:413,-0.811613,0.512927,-9.74663,-2.81646,-4.46452,-20.1109
2023-03-15 22:02:41:423,-0.792837,0.516206,-9.74887,-2.81892,-4.45753,-20.1179
2023-03-15 22:02:41:433,-0.777697,0.516629,-9.75698,-2.81943,-4.45139,-20.1273
2023-03-15 22:02:41:443,-0.758228,0.517444,-9.76693,-2.82001,-4.44783,-20.1343
2023-03-15 22:02:41:453,-0.732731,0.518015,-9.76623,-2.81749,-4.44049,-20.1427
2023-03-15 22:02:41:463,-0.708607,0.507549,-9.76399,-2.81599,-4.4361,-20.1475
2023-03-15 22:02:41:473,-0.686657,0.497953,-9.76206,-2.80957,-4.43375,-20.1513
2023-03-15 22:02:41:483,-0.674202,0.488827,-9.74989,-2.80819,-4.42941,-20.1538
2023-03-15 22:02:41:493,-0.65355,0.472779,-9.72219,-2.80805,-4.42136,-20.1537
2023-03-15 22:02:41:503,-0.646228,0.478441,-9.70598,-2.80959,-4.41756,-20.1485
2023-03-15 22:02:41:513,-0.637107,0.479282,-9.71193,-2.81023,-4.41065,-20.1411
2023-03-15 22:02:41:523,-0.638784,0.482929,-9.69594,-2.81334,-4.40947,-20.1298
2023-03-15 22:02:41:533,-0.654179,0.482642,-9.70056,-2.81867,-4.4079,-20.1153
2023-03-15 22:02:41:543,-0.671449,0.507087,-9.72145,-2.82425,-4.40772,-20.1004
2023-03-15 22:02:41:553,-0.698683,0.523073,-9.74704,-2.832,-4.40979,-20.0827
2023-03-15 22:02:41:563,-0.717193,0.530389,-9.75363,-2.84064,-4.40908,-20.066
2023-03-15 22:02:41:573,-0.750547,0.524674,-9.75447,-2.84933,-4.4108,-20.0481
2023-03-15 22:02:41:583,-0.78698,0.545865,-9.75898,-2.85072,-4.40901,-20.0365
2023-03-15 22:02:41:593,-0.80248,0.552497,-9.76186,-2.85328,-4.40833,-20.0286
2023-03-15 22:02:41:603,-0.800877,0.55283,-9.73964,-2.85268,-4.40859,-20.027
2023-03-15 22:02:41:613,-0.796607,0.54041,-9.73857,-2.85223,-4.41208,-20.0231
2023-03-15 22:02:41:623,-0.800985,0.528599,-9.73124,-2.84899,-4.41296,-20.0246
2023-03-15 22:02:41:633,-0.79849,0.518319,-9.7287,-2.84775,-4.41379,-20.0282
2023-03-15 22:02:41:643,-0.779816,0.506962,-9.73677,-2.85251,-4.41602,-20.0382
2023-03-15 22:02:41:653,-0.756467,0.520001,-9.72125,-2.85282,-4.41439,-20.048
2023-03-15 22:02:41:663,-0.751999,0.513021,-9.73238,-2.85432,-4.41377,-20.0604
2023-03-15 22:02:41:673,-0.729441,0.510244,-9.74055,-2.85758,-4.41308,-20.0736
2023-03-15 22:02:41:683,-0.722681,0.51049,-9.75036,-2.86152,-4.41095,-20.083
2023-03-15 22:02:41:693,-0.723533,0.521009,-9.74829,-2.86027,-4.406,-20.0899
2023-03-15 22:02:41:703,-0.714223,0.527672,-9.75711,-2.85561,-4.40265,-20.0993
2023-03-15 22:02:41:713,-0.707404,0.524109,-9.77226,-2.85668,-4.39958,-20.1029
2023-03-15 22:02:41:723,-0.71843,0.523614,-9.77376,-2.85225,-4.39803,-20.1073
2023-03-15 22:02:41:733,-0.728321,0.533852,-9.77591,-2.84402,-4.39101,-20.1094
2023-03-15 22:02:41:743,-0.719701,0.525809,-9.77052,-2.8381,-4.3838,-20.1066
2023-03-15 22:02:41:753,-0.725907,0.510792,-9.74148,-2.83121,-4.37757,-20.109
2023-03-15 22:02:41:763,-0.751694,0.516481,-9.69937,-2.82306,-4.36998,-20.1075
2023-03-15 22:02:41:773,-0.7668,0.500589,-9.7113,-2.81505,-4.36506,-20.1039
2023-03-15 22:02:41:783,-0.764834,0.491013,-9.7469,-2.80774,-4.35403,-20.1031
2023-03-15 22:02:41:793,-0.750343,0.512398,-9.79236,-2.80027,-4.34407,-20.1089
2023-03-15 22:02:41:803,-0.697141,0.519869,-9.81324,-2.78914,-4.33222,-20.1124
2023-03-15 22:02:41:813,-0.655018,0.48947,-9.7874,-2.77341,-4.32325,-20.119
2023-03-15 22:02:41:823,-0.651094,0.468892,-9.75293,-2.75817,-4.32352,-20.1214
2023-03-15 22:02:41:833,-0.652304,0.461804,-9.73633,-2.74291,-4.32408,-20.1272
2023-03-15 22:02:41:843,-0.686176,0.454603,-9.70112,-2.7273,-4.32431,-20.1317
2023-03-15 22:02:41:853,-0.71395,0.440135,-9.68371,-2.71691,-4.32853,-20.136
2023-03-15 22:02:41:863,-0.714002,0.439763,-9.68079,-2.71117,-4.33167,-20.139
2023-03-15 22:02:41:873,-0.687838,0.442613,-9.69633,-2.71122,-4.33474,-20.1378
2023-03-15 22:02:41:883,-0.657105,0.44804,-9.72289,-2.71517,-4.33178,-20.1372
2023-03-15 22:02:41:893,-0.665466,0.457127,-9.74874,-2.72013,-4.32896,-20.1325
2023-03-15 22:02:41:903,-0.691717,0.473875,-9.74888,-2.7225,-4.32776,-20.1195
2023-03-15 22:02:41:913,-0.729751,0.493956,-9.74136,-2.72623,-4.32858,-20.1042
2023-03-15 22:02:41:923,-0.75446,0.502874,-9.73726,-2.73003,-4.32575,-20.0931
2023-03-15 22:02:41:933,-0.770848,0.512493,-9.73648,-2.73016,-4.32032,-20.0846
2023-03-15 22:02:41:943,-0.771492,0.503131,-9.73456,-2.73042,-4.31337,-20.0797
2023-03-15 22:02:41:953,-0.7819,0.503264,-9.71684,-2.73146,-4.3043,-20.0739
2023-03-15 22:02:41:963,-0.781468,0.494753,-9.69732,-2.73091,-4.29869,-20.0711
2023-03-15 22:02:41:973,-0.781777,0.488514,-9.69072,-2.73114,-4.29112,-20.0764
2023-03-15 22:02:41:983,-0.785884,0.485681,-9.70451,-2.73156,-4.28582,-20.0829
2023-03-15 22:02:41:993,-0.776427,0.481299,-9.69095,-2.73183,-4.28453,-20.0927
2023-03-15 22:02:42:3,-0.754996,0.467555,-9.68608,-2.73379,-4.28034,-20.1034
2023-03-15 22:02:42:13,-0.740304,0.458177,-9.67627,-2.73802,-4.27916,-20.1163
2023-03-15 22:02:42:23,-0.727723,0.463777,-9.69997,-2.74036,-4.27864,-20.1363
2023-03-15 22:02:42:33,-0.700468,0.472874,-9.73755,-2.74404,-4.27333,-20.154
2023-03-15 22:02:42:43,-0.675609,0.474664,-9.74561,-2.75267,-4.26611,-20.1718
2023-03-15 22:02:42:53,-0.646141,0.471809,-9.74346,-2.76204,-4.26122,-20.1852
2023-03-15 22:02:42:63,-0.634849,0.478135,-9.75587,-2.76944,-4.2552,-20.1941
2023-03-15 22:02:42:73,-0.639277,0.484328,-9.77355,-2.77695,-4.25454,-20.202
2023-03-15 22:02:42:83,-0.656617,0.486618,-9.75585,-2.78266,-4.25214,-20.208
2023-03-15 22:02:42:93,-0.669557,0.493891,-9.75867,-2.79178,-4.2476,-20.2071
2023-03-15 22:02:42:103,-0.686016,0.503661,-9.7687,-2.80158,-4.24411,-20.2032
2023-03-15 22:02:42:113,-0.676933,0.509478,-9.76419,-2.8093,-4.23686,-20.1984
2023-03-15 22:02:42:123,-0.68636,0.524456,-9.74396,-2.82137,-4.23306,-20.1916
2023-03-15 22:02:42:133,-0.687546,0.525933,-9.73998,-2.8334,-4.22795,-20.1868
2023-03-15 22:02:42:143,-0.698623,0.53111,-9.75385,-2.84108,-4.22454,-20.1843
2023-03-15 22:02:42:153,-0.707302,0.543453,-9.75349,-2.84899,-4.21992,-20.1775
2023-03-15 22:02:42:163,-0.711877,0.553785,-9.76575,-2.85293,-4.21574,-20.1698
2023-03-15 22:02:42:173,-0.70672,0.570008,-9.7723,-2.86066,-4.21329,-20.1643
2023-03-15 22:02:42:183,-0.711581,0.556729,-9.78841,-2.86396,-4.21009,-20.1605
2023-03-15 22:02:42:193,-0.702745,0.560031,-9.79794,-2.86705,-4.20923,-20.1565
2023-03-15 22:02:42:203,-0.705382,0.568351,-9.79958,-2.86714,-4.2037,-20.1551
2023-03-15 22:02:42:213,-0.698752,0.556052,-9.79398,-2.8639,-4.20401,-20.1526
2023-03-15 22:02:42:223,-0.693313,0.550214,-9.79238,-2.85685,-4.20167,-20.1497
2023-03-15 22:02:42:233,-0.683658,0.538212,-9.78017,-2.84754,-4.20189,-20.1464
2023-03-15 22:02:42:243,-0.661285,0.520006,-9.77155,-2.83669,-4.1998,-20.1427
2023-03-15 22:02:42:253,-0.659368,0.505318,-9.77457,-2.82539,-4.20044,-20.1357
2023-03-15 22:02:42:263,-0.656861,0.495163,-9.76003,-2.81424,-4.19786,-20.1259
2023-03-15 22:02:42:273,-0.664252,0.491792,-9.74005,-2.79847,-4.19708,-20.1154
2023-03-15 22:02:42:283,-0.682101,0.475336,-9.7203,-2.78241,-4.19667,-20.1013
2023-03-15 22:02:42:293,-0.690698,0.471311,-9.72271,-2.76907,-4.19388,-20.0832
2023-03-15 22:02:42:303,-0.676573,0.471616,-9.72546,-2.7579,-4.18632,-20.0671
2023-03-15 22:02:42:313,-0.679096,0.45613,-9.72145,-2.7513,-4.18431,-20.0471
2023-03-15 22:02:42:323,-0.681513,0.456526,-9.73204,-2.74931,-4.18023,-20.0261
2023-03-15 22:02:42:333,-0.667248,0.452113,-9.7544,-2.74335,-4.17468,-20.0048
2023-03-15 22:02:42:343,-0.659908,0.447297,-9.74464,-2.73697,-4.16903,-19.9829
2023-03-15 22:02:42:353,-0.66516,0.447121,-9.72583,-2.73012,-4.16436,-19.9614
2023-03-15 22:02:42:363,-0.662364,0.443803,-9.72009,-2.72999,-4.15887,-19.9371
2023-03-15 22:02:42:373,-0.664741,0.442464,-9.70601,-2.72656,-4.15944,-19.9135
2023-03-15 22:02:42:383,-0.670475,0.443979,-9.68599,-2.72154,-4.1586,-19.8886
2023-03-15 22:02:42:393,-0.676623,0.449359,-9.69456,-2.72321,-4.15653,-19.8673
2023-03-15 22:02:42:403,-0.681151,0.460072,-9.69878,-2.72783,-4.15376,-19.8469
2023-03-15 22:02:42:413,-0.663568,0.473999,-9.70294,-2.73566,-4.15667,-19.8262
2023-03-15 22:02:42:423,-0.67284,0.481391,-9.72081,-2.7442,-4.15924,-19.8075
2023-03-15 22:02:42:433,-0.689194,0.506348,-9.7473,-2.7551,-4.16313,-19.7921
2023-03-15 22:02:42:443,-0.686007,0.52801,-9.76603,-2.76062,-4.16749,-19.7747
2023-03-15 22:02:42:453,-0.69718,0.538337,-9.77838,-2.76456,-4.17512,-19.7591
2023-03-15 22:02:42:463,-0.701685,0.524368,-9.79019,-2.77037,-4.17779,-19.7453
2023-03-15 22:02:42:473,-0.708785,0.510638,-9.78299,-2.77202,-4.18169,-19.7352
2023-03-15 22:02:42:483,-0.712694,0.511477,-9.76786,-2.76929,-4.18381,-19.7202
2023-03-15 22:02:42:493,-0.711664,0.516231,-9.73267,-2.77302,-4.18666,-19.7052
2023-03-15 22:02:42:503,-0.721037,0.493031,-9.73627,-2.77008,-4.18918,-19.6919
2023-03-15 22:02:42:513,-0.718304,0.496498,-9.74492,-2.76942,-4.1916,-19.674
2023-03-15 22:02:42:523,-0.722395,0.521425,-9.76627,-2.77027,-4.19368,-19.6638
2023-03-15 22:02:42:533,-0.733606,0.523073,-9.77963,-2.7724,-4.19019,-19.6554
2023-03-15 22:02:42:543,-0.749971,0.524418,-9.75066,-2.77045,-4.18945,-19.6452
2023-03-15 22:02:42:553,-0.750896,0.540827,-9.75349,-2.77101,-4.18823,-19.6379
2023-03-15 22:02:42:563,-0.756868,0.536779,-9.73726,-2.76796,-4.18459,-19.637
2023-03-15 22:02:42:573,-0.762764,0.523751,-9.76318,-2.76245,-4.1807,-19.6378
2023-03-15 22:02:42:583,-0.748605,0.526167,-9.81479,-2.75602,-4.17355,-19.6412
2023-03-15 22:02:42:593,-0.709992,0.520774,-9.84008,-2.74561,-4.17101,-19.6484
2023-03-15 22:02:42:603,-0.668824,0.48999,-9.78014,-2.733,-4.17278,-19.6594
2023-03-15 22:02:42:613,-0.659405,0.454696,-9.72098,-2.72307,-4.17721,-19.6674
2023-03-15 22:02:42:623,-0.662641,0.463229,-9.71677,-2.71781,-4.18649,-19.6754
2023-03-15 22:02:42:633,-0.670258,0.472923,-9.7165,-2.71136,-4.19456,-19.6865
2023-03-15 22:02:42:643,-0.672102,0.470047,-9.68505,-2.70825,-4.20226,-19.6955
2023-03-15 22:02:42:653,-0.668856,0.467325,-9.69457,-2.70995,-4.209,-19.7057
2023-03-15 22:02:42:663,-0.645214,0.495228,-9.73716,-2.71397,-4.21439,-19.714
2023-03-15 22:02:42:673,-0.61108,0.514293,-9.77153,-2.71964,-4.21776,-19.7187
2023-03-15 22:02:42:683,-0.61362,0.519817,-9.77259,-2.7244,-4.22364,-19.7207
2023-03-15 22:02:42:693,-0.636301,0.532797,-9.76211,-2.72849,-4.23524,-19.7173
2023-03-15 22:02:42:703,-0.65603,0.548739,-9.77326,-2.73413,-4.24483,-19.7091
2023-03-15 22:02:42:713,-0.689967,0.560741,-9.77435,-2.73734,-4.25281,-19.6991
2023-03-15 22:02:42:723,-0.702597,0.56501,-9.77075,-2.73768,-4.26012,-19.691
2023-03-15 22:02:42:733,-0.724295,0.5697,-9.76446,-2.73376,-4.27013,-19.6845
2023-03-15 22:02:42:743,-0.748694,0.560218,-9.76578,-2.7313,-4.27797,-19.6822
2023-03-15 22:02:42:753,-0.762988,0.55894,-9.76376,-2.72461,-4.28758,-19.675
2023-03-15 22:02:42:763,-0.758644,0.547011,-9.76253,-2.71484,-4.3002,-19.6702
2023-03-15 22:02:42:773,-0.765853,0.529524,-9.7734,-2.7022,-4.30599,-19.6639
2023-03-15 22:02:42:783,-0.766582,0.522351,-9.7581,-2.68766,-4.31181,-19.6596
2023-03-15 22:02:42:793,-0.770745,0.497288,-9.72238,-2.67222,-4.31597,-19.6554
2023-03-15 22:02:42:803,-0.753746,0.47314,-9.69469,-2.65528,-4.3171,-19.6502
2023-03-15 22:02:42:813,-0.758993,0.469054,-9.74525,-2.63755,-4.32101,-19.646
2023-03-15 22:02:42:823,-0.763337,0.476296,-9.78273,-2.61682,-4.32322,-19.6418
2023-03-15 22:02:42:833,-0.740751,0.474929,-9.76406,-2.60006,-4.31894,-19.6389
2023-03-15 22:02:42:843,-0.71441,0.45152,-9.74571,-2.58129,-4.31961,-19.6333
2023-03-15 22:02:42:853,-0.711278,0.438364,-9.74624,-2.56296,-4.32149,-19.6295
2023-03-15 22:02:42:863,-0.71206,0.429268,-9.75131,-2.54511,-4.32426,-19.6239
2023-03-15 22:02:42:873,-0.725478,0.417832,-9.73625,-2.52606,-4.32632,-19.6169
2023-03-15 22:02:42:883,-0.741449,0.40689,-9.71924,-2.5105,-4.32591,-19.607
2023-03-15 22:02:42:893,-0.727285,0.399244,-9.7247,-2.49362,-4.32248,-19.6008
2023-03-15 22:02:42:903,-0.712979,0.400766,-9.71455,-2.4813,-4.31804,-19.5912
2023-03-15 22:02:42:913,-0.705076,0.401699,-9.6989,-2.47156,-4.31503,-19.5815
2023-03-15 22:02:42:923,-0.697435,0.402258,-9.69882,-2.46077,-4.31437,-19.5732
2023-03-15 22:02:42:933,-0.690427,0.411795,-9.70023,-2.45329,-4.31202,-19.5646
2023-03-15 22:02:42:943,-0.687239,0.409493,-9.71738,-2.4483,-4.31331,-19.5563
2023-03-15 22:02:42:953,-0.693138,0.432864,-9.73334,-2.44492,-4.31816,-19.545
2023-03-15 22:02:42:963,-0.712657,0.449251,-9.74888,-2.43909,-4.32546,-19.5381
2023-03-15 22:02:42:973,-0.722201,0.455319,-9.75092,-2.43179,-4.3316,-19.532
2023-03-15 22:02:42:983,-0.708376,0.437959,-9.76721,-2.42873,-4.34084,-19.5259
2023-03-15 22:02:42:993,-0.703468,0.431759,-9.76131,-2.41907,-4.34663,-19.5158
2023-03-15 22:02:43:3,-0.698201,0.439631,-9.74963,-2.40757,-4.35113,-19.5057
2023-03-15 22:02:43:13,-0.704827,0.431682,-9.76024,-2.39949,-4.35515,-19.4944
2023-03-15 22:02:43:23,-0.722886,0.430587,-9.75623,-2.39076,-4.36273,-19.4828
2023-03-15 22:02:43:33,-0.727165,0.42605,-9.77288,-2.38063,-4.37124,-19.4704
2023-03-15 22:02:43:43,-0.744301,0.423118,-9.7769,-2.36925,-4.381,-19.4593
2023-03-15 22:02:43:53,-0.76062,0.418128,-9.76884,-2.36056,-4.38745,-19.4504
2023-03-15 22:02:43:63,-0.771971,0.40625,-9.75884,-2.34695,-4.39462,-19.4355
2023-03-15 22:02:43:73,-0.784612,0.416163,-9.75194,-2.33285,-4.40179,-19.4222
2023-03-15 22:02:43:83,-0.804412,0.412352,-9.73573,-2.31775,-4.41091,-19.4122
2023-03-15 22:02:43:93,-0.799197,0.389438,-9.7239,-2.30616,-4.4133,-19.4026
2023-03-15 22:02:43:103,-0.786733,0.374926,-9.70359,-2.29292,-4.41361,-19.393
2023-03-15 22:02:43:113,-0.791,0.376701,-9.69138,-2.2831,-4.41701,-19.3872
2023-03-15 22:02:43:123,-0.788108,0.382823,-9.69801,-2.27417,-4.41848,-19.3822
2023-03-15 22:02:43:133,-0.770758,0.37983,-9.70329,-2.26295,-4.42123,-19.375
2023-03-15 22:02:43:143,-0.770529,0.371094,-9.7129,-2.25764,-4.42113,-19.3704
2023-03-15 22:02:43:153,-0.774222,0.381913,-9.72404,-2.2513,-4.42402,-19.3693
2023-03-15 22:02:43:163,-0.772168,0.386385,-9.72546,-2.24315,-4.42297,-19.3666
2023-03-15 22:02:43:173,-0.76432,0.384014,-9.72148,-2.23813,-4.42919,-19.367
2023-03-15 22:02:43:183,-0.752785,0.385022,-9.73751,-2.2362,-4.43326,-19.3652
2023-03-15 22:02:43:193,-0.758603,0.37813,-9.74763,-2.23368,-4.43449,-19.3635
2023-03-15 22:02:43:203,-0.737464,0.368113,-9.75763,-2.2305,-4.43768,-19.3604
2023-03-15 22:02:43:214,-0.734476,0.379271,-9.75698,-2.22409,-4.43681,-19.3531
2023-03-15 22:02:43:223,-0.73522,0.365528,-9.77119,-2.21506,-4.43146,-19.344
2023-03-15 22:02:43:234,-0.72923,0.345716,-9.78349,-2.20691,-4.42791,-19.3294
2023-03-15 22:02:43:243,-0.743551,0.353213,-9.75595,-2.19315,-4.42255,-19.3156
2023-03-15 22:02:43:253,-0.754657,0.349914,-9.71548,-2.184,-4.41599,-19.297
2023-03-15 22:02:43:263,-0.783691,0.32371,-9.67162,-2.17182,-4.41128,-19.2824
2023-03-15 22:02:43:274,-0.80949,0.321545,-9.63913,-2.16596,-4.40677,-19.2643
2023-03-15 22:02:43:283,-0.83444,0.321749,-9.66233,-2.16145,-4.39994,-19.2524
2023-03-15 22:02:43:294,-0.845222,0.338481,-9.75871,-2.16073,-4.39386,-19.2469
2023-03-15 22:02:43:303,-0.827036,0.373638,-9.8154,-2.1601,-4.3831,-19.2473
2023-03-15 22:02:43:314,-0.786547,0.376035,-9.79814,-2.16,-4.37299,-19.2482
2023-03-15 22:02:43:323,-0.771687,0.358382,-9.74927,-2.1524,-4.36294,-19.2557
2023-03-15 22:02:43:334,-0.776153,0.360167,-9.74242,-2.14982,-4.35547,-19.2671
2023-03-15 22:02:43:343,-0.790566,0.36177,-9.71048,-2.14874,-4.35396,-19.2791
2023-03-15 22:02:43:353,-0.787311,0.356656,-9.67705,-2.15243,-4.3509,-19.295
2023-03-15 22:02:43:363,-0.784212,0.366139,-9.67437,-2.1574,-4.34664,-19.3138
2023-03-15 22:02:43:374,-0.748166,0.38463,-9.7005,-2.1664,-4.3422,-19.3352
2023-03-15 22:02:43:383,-0.708957,0.397517,-9.71639,-2.1774,-4.3346,-19.3539
2023-03-15 22:02:43:394,-0.683138,0.415009,-9.74596,-2.18903,-4.32748,-19.3738
2023-03-15 22:02:43:403,-0.672035,0.436237,-9.7702,-2.20214,-4.32141,-19.3929
2023-03-15 22:02:43:413,-0.680332,0.447893,-9.77618,-2.21587,-4.31781,-19.4096
2023-03-15 22:02:43:423,-0.684841,0.455778,-9.7817,-2.22825,-4.31044,-19.4228
2023-03-15 22:02:43:433,-0.685285,0.457917,-9.7748,-2.23619,-4.30092,-19.4343
2023-03-15 22:02:43:443,-0.681601,0.451613,-9.77131,-2.24116,-4.29187,-19.4464
2023-03-15 22:02:43:453,-0.684872,0.441962,-9.76547,-2.24415,-4.28614,-19.4547
2023-03-15 22:02:43:463,-0.680857,0.448574,-9.75987,-2.24251,-4.28043,-19.4615
2023-03-15 22:02:43:474,-0.682813,0.436603,-9.77334,-2.24474,-4.27251,-19.4693
2023-03-15 22:02:43:483,-0.685166,0.431181,-9.76972,-2.2423,-4.26662,-19.4767
2023-03-15 22:02:43:493,-0.685619,0.433796,-9.75349,-2.24144,-4.26191,-19.485
2023-03-15 22:02:43:503,-0.694089,0.423358,-9.75425,-2.23762,-4.25998,-19.4904
2023-03-15 22:02:43:513,-0.715585,0.432673,-9.77176,-2.23544,-4.25518,-19.4968
2023-03-15 22:02:43:523,-0.702794,0.423801,-9.8009,-2.22981,-4.25173,-19.5024
2023-03-15 22:02:43:534,-0.701601,0.409109,-9.79337,-2.2276,-4.24469,-19.5082
2023-03-15 22:02:43:543,-0.682142,0.403071,-9.77715,-2.21881,-4.23667,-19.51
2023-03-15 22:02:43:553,-0.682235,0.397984,-9.76074,-2.21218,-4.23276,-19.5143
2023-03-15 22:02:43:563,-0.676305,0.395557,-9.74334,-2.20583,-4.22817,-19.5152
2023-03-15 22:02:43:573,-0.655482,0.395479,-9.73398,-2.19981,-4.22362,-19.518
2023-03-15 22:02:43:583,-0.680976,0.387647,-9.71874,-2.19363,-4.22175,-19.5216
2023-03-15 22:02:43:593,-0.693831,0.408137,-9.72171,-2.18971,-4.21902,-19.5242
2023-03-15 22:02:43:603,-0.686148,0.417309,-9.72906,-2.18979,-4.21546,-19.5306
2023-03-15 22:02:43:613,-0.656819,0.416471,-9.74551,-2.18847,-4.20799,-19.5331
2023-03-15 22:02:43:623,-0.646797,0.431604,-9.76939,-2.18957,-4.19785,-19.529
2023-03-15 22:02:43:633,-0.637129,0.435736,-9.79572,-2.18861,-4.19223,-19.5278
2023-03-15 22:02:43:643,-0.61337,0.440843,-9.80963,-2.18391,-4.18633,-19.5258
2023-03-15 22:02:43:653,-0.5976,0.441917,-9.79681,-2.17686,-4.18282,-19.5211
2023-03-15 22:02:43:663,-0.593928,0.424636,-9.79271,-2.1639,-4.1835,-19.5151
2023-03-15 22:02:43:673,-0.601554,0.411652,-9.7911,-2.15421,-4.18248,-19.5061
2023-03-15 22:02:43:683,-0.606798,0.390182,-9.77901,-2.13781,-4.18619,-19.4959
2023-03-15 22:02:43:693,-0.618928,0.37576,-9.75658,-2.12382,-4.18507,-19.4826
2023-03-15 22:02:43:703,-0.633189,0.368232,-9.74389,-2.10828,-4.19079,-19.4678
2023-03-15 22:02:43:714,-0.626972,0.367458,-9.74119,-2.09182,-4.19584,-19.4533
2023-03-15 22:02:43:723,-0.631457,0.361586,-9.74339,-2.08096,-4.20494,-19.4371
2023-03-15 22:02:43:733,-0.651526,0.350397,-9.74824,-2.06796,-4.21118,-19.4181
2023-03-15 22:02:43:743,-0.660186,0.339118,-9.74346,-2.05294,-4.2213,-19.4021
2023-03-15 22:02:43:753,-0.687259,0.323233,-9.7332,-2.04148,-4.22944,-19.3839
2023-03-15 22:02:43:763,-0.706426,0.309978,-9.72596,-2.02915,-4.24178,-19.3633
2023-03-15 22:02:43:773,-0.721177,0.321808,-9.6981,-2.0206,-4.25704,-19.3455
2023-03-15 22:02:43:783,-0.738959,0.312923,-9.68464,-2.01143,-4.26738,-19.327
2023-03-15 22:02:43:793,-0.765689,0.325709,-9.6893,-2.0057,-4.27567,-19.3129
2023-03-15 22:02:43:803,-0.77583,0.325454,-9.70104,-2.00125,-4.28601,-19.2953
2023-03-15 22:02:43:813,-0.791712,0.327902,-9.70429,-2.00128,-4.29438,-19.2849
2023-03-15 22:02:43:823,-0.811022,0.3366,-9.7082,-2.00335,-4.30209,-19.2723
2023-03-15 22:02:43:833,-0.804009,0.339839,-9.7259,-2.00525,-4.31067,-19.2643
2023-03-15 22:02:43:843,-0.801588,0.349608,-9.71647,-2.00752,-4.31587,-19.2573
2023-03-15 22:02:43:854,-0.808962,0.348029,-9.70284,-2.01479,-4.32028,-19.2558
2023-03-15 22:02:43:863,-0.824328,0.361731,-9.71354,-2.0212,-4.32049,-19.2587
2023-03-15 22:02:43:874,-0.80734,0.391501,-9.74154,-2.02791,-4.31889,-19.2663
2023-03-15 22:02:43:883,-0.799734,0.381795,-9.74336,-2.03367,-4.31808,-19.2762
2023-03-15 22:02:43:893,-0.77679,0.373676,-9.74729,-2.0417,-4.32158,-19.2839
2023-03-15 22:02:43:903,-0.759956,0.388217,-9.76434,-2.04714,-4.32071,-19.3014
2023-03-15 22:02:43:913,-0.752932,0.381481,-9.76592,-2.05362,-4.32056,-19.3161
2023-03-15 22:02:43:923,-0.733796,0.377209,-9.74848,-2.05931,-4.32097,-19.3288
2023-03-15 22:02:43:934,-0.704913,0.375449,-9.74926,-2.06414,-4.31889,-19.3401
2023-03-15 22:02:43:943,-0.703535,0.379504,-9.75466,-2.0685,-4.31888,-19.3463
2023-03-15 22:02:43:954,-0.690004,0.385831,-9.73559,-2.07172,-4.31414,-19.356
2023-03-15 22:02:43:963,-0.656013,0.39549,-9.74217,-2.0826,-4.30566,-19.3587
2023-03-15 22:02:43:974,-0.642543,0.404631,-9.78423,-2.08693,-4.29732,-19.3575
2023-03-15 22:02:43:983,-0.6232,0.427181,-9.80321,-2.09405,-4.28481,-19.3548
2023-03-15 22:02:43:994,-0.615286,0.416327,-9.80779,-2.09618,-4.27378,-19.346
2023-03-15 22:02:44:3,-0.61672,0.412718,-9.79809,-2.10056,-4.26664,-19.3295
2023-03-15 22:02:44:13,-0.625681,0.416067,-9.76799,-2.09832,-4.25874,-19.3093
2023-03-15 22:02:44:23,-0.654698,0.396226,-9.78195,-2.0953,-4.24875,-19.2848
2023-03-15 22:02:44:33,-0.67562,0.394661,-9.81776,-2.08754,-4.23845,-19.254
2023-03-15 22:02:44:43,-0.667806,0.399985,-9.84408,-2.07765,-4.22699,-19.2254
2023-03-15 22:02:44:54,-0.636585,0.380429,-9.81493,-2.05841,-4.21657,-19.1946
2023-03-15 22:02:44:63,-0.627155,0.338611,-9.75987,-2.04086,-4.21212,-19.1624
2023-03-15 22:02:44:73,-0.650566,0.327144,-9.73741,-2.0257,-4.20988,-19.1285
2023-03-15 22:02:44:83,-0.682247,0.313991,-9.7259,-2.01297,-4.21215,-19.0981
2023-03-15 22:02:44:93,-0.717532,0.315911,-9.69438,-2.0032,-4.22197,-19.0705
2023-03-15 22:02:44:103,-0.749336,0.323674,-9.69336,-2.00016,-4.23091,-19.0449
2023-03-15 22:02:44:113,-0.749234,0.321763,-9.71331,-1.99734,-4.24203,-19.0213
2023-03-15 22:02:44:123,-0.73586,0.331624,-9.72421,-1.99749,-4.24886,-18.9969
2023-03-15 22:02:44:133,-0.71242,0.351592,-9.74566,-2.00011,-4.25324,-18.9752
2023-03-15 22:02:44:143,-0.711056,0.35594,-9.74237,-2.00557,-4.26058,-18.9546
2023-03-15 22:02:44:154,-0.720604,0.351695,-9.73194,-2.0112,-4.26585,-18.9368
2023-03-15 22:02:44:163,-0.733624,0.356296,-9.71567,-2.02169,-4.2722,-18.913
2023-03-15 22:02:44:174,-0.756887,0.360221,-9.70499,-2.02804,-4.27521,-18.8876
2023-03-15 22:02:44:183,-0.762265,0.36837,-9.70781,-2.03726,-4.28145,-18.8674
2023-03-15 22:02:44:194,-0.779606,0.390027,-9.69573,-2.04453,-4.28591,-18.8527
2023-03-15 22:02:44:203,-0.783531,0.378891,-9.72501,-2.04988,-4.28742,-18.8358
2023-03-15 22:02:44:214,-0.800714,0.38287,-9.72818,-2.0525,-4.28878,-18.8218
2023-03-15 22:02:44:223,-0.804039,0.38268,-9.73195,-2.05345,-4.28906,-18.8117
2023-03-15 22:02:44:233,-0.812478,0.386459,-9.76142,-2.05583,-4.28862,-18.8065
2023-03-15 22:02:44:243,-0.804381,0.402408,-9.75153,-2.05604,-4.28622,-18.8077
2023-03-15 22:02:44:254,-0.783391,0.387911,-9.72002,-2.05832,-4.28674,-18.8142
2023-03-15 22:02:44:263,-0.802982,0.37366,-9.71634,-2.06087,-4.29462,-18.8201
2023-03-15 22:02:44:274,-0.800101,0.371303,-9.74184,-2.06296,-4.29454,-18.8353
2023-03-15 22:02:44:283,-0.767566,0.377145,-9.7754,-2.0695,-4.29638,-18.8476
2023-03-15 22:02:44:294,-0.741954,0.38905,-9.78279,-2.07295,-4.29462,-18.8593
2023-03-15 22:02:44:303,-0.708045,0.371859,-9.75782,-2.07808,-4.29386,-18.8735
2023-03-15 22:02:44:314,-0.669493,0.355846,-9.75684,-2.08211,-4.29203,-18.8837
2023-03-15 22:02:44:323,-0.669648,0.379179,-9.74649,-2.08643,-4.28977,-18.8931
2023-03-15 22:02:44:333,-0.665708,0.375559,-9.72768,-2.09232,-4.29016,-18.9041
2023-03-15 22:02:44:343,-0.680063,0.374703,-9.72331,-2.10036,-4.28587,-18.9094
2023-03-15 22:02:44:354,-0.682584,0.38403,-9.74046,-2.10668,-4.28643,-18.91
2023-03-15 22:02:44:364,-0.664599,0.387069,-9.75299,-2.11828,-4.27799,-18.9088
2023-03-15 22:02:44:374,-0.662687,0.411486,-9.75679,-2.12887,-4.27221,-18.9067
2023-03-15 22:02:44:383,-0.676771,0.427455,-9.75518,-2.13479,-4.26628,-18.9021
2023-03-15 22:02:44:394,-0.679837,0.439445,-9.7802,-2.14304,-4.26018,-18.898
2023-03-15 22:02:44:403,-0.683765,0.441943,-9.79827,-2.14898,-4.25345,-18.8878
2023-03-15 22:02:44:414,-0.704759,0.446459,-9.79378,-2.151,-4.24978,-18.8804
2023-03-15 22:02:44:424,-0.705319,0.449604,-9.79168,-2.15088,-4.24458,-18.8703
2023-03-15 22:02:44:434,-0.699482,0.443833,-9.79227,-2.1451,-4.23331,-18.8627
2023-03-15 22:02:44:444,-0.700657,0.428139,-9.7783,-2.1394,-4.22551,-18.8584
2023-03-15 22:02:44:454,-0.706644,0.403581,-9.76091,-2.13208,-4.22104,-18.8534
2023-03-15 22:02:44:464,-0.706152,0.38658,-9.75199,-2.124,-4.21653,-18.8503
2023-03-15 22:02:44:474,-0.686002,0.385414,-9.75812,-2.11387,-4.2164,-18.8488
2023-03-15 22:02:44:484,-0.687526,0.385099,-9.76832,-2.10557,-4.21577,-18.8501
2023-03-15 22:02:44:494,-0.670356,0.369323,-9.77687,-2.09319,-4.21242,-18.8494
2023-03-15 22:02:44:504,-0.669788,0.378768,-9.77886,-2.08262,-4.21298,-18.8498
2023-03-15 22:02:44:514,-0.671864,0.358783,-9.77177,-2.06904,-4.2131,-18.8463
2023-03-15 22:02:44:524,-0.65939,0.353238,-9.74241,-2.05755,-4.2126,-18.8469
2023-03-15 22:02:44:534,-0.645831,0.346856,-9.70843,-2.04522,-4.20715,-18.8423
2023-03-15 22:02:44:543,-0.646512,0.32327,-9.70052,-2.03427,-4.20591,-18.837
2023-03-15 22:02:44:553,-0.644262,0.313985,-9.69854,-2.0261,-4.20222,-18.8254
2023-03-15 22:02:44:564,-0.652669,0.321928,-9.68665,-2.02059,-4.20059,-18.8151
2023-03-15 22:02:44:574,-0.676027,0.333583,-9.68094,-2.01682,-4.19879,-18.8054
2023-03-15 22:02:44:584,-0.685804,0.338371,-9.6941,-2.0167,-4.19791,-18.7934
2023-03-15 22:02:44:594,-0.692374,0.344918,-9.71816,-2.01797,-4.19859,-18.784
2023-03-15 22:02:44:603,-0.704472,0.36075,-9.74278,-2.02266,-4.19894,-18.7772
2023-03-15 22:02:44:614,-0.702556,0.384945,-9.74487,-2.02583,-4.20294,-18.7739
2023-03-15 22:02:44:623,-0.702129,0.395134,-9.75515,-2.02818,-4.20451,-18.7678
2023-03-15 22:02:44:633,-0.715379,0.398285,-9.7612,-2.0285,-4.20806,-18.7674
2023-03-15 22:02:44:643,-0.722687,0.394415,-9.77401,-2.02899,-4.2131,-18.77
2023-03-15 22:02:44:654,-0.715212,0.388377,-9.75718,-2.02894,-4.21538,-18.774
2023-03-15 22:02:44:664,-0.672096,0.366457,-9.74291,-2.02734,-4.21924,-18.7742
2023-03-15 22:02:44:674,-0.689855,0.360575,-9.74562,-2.02637,-4.22481,-18.7726
2023-03-15 22:02:44:684,-0.700218,0.381706,-9.78108,-2.02643,-4.22892,-18.7717
2023-03-15 22:02:44:694,-0.671824,0.383778,-9.78877,-2.02832,-4.23207,-18.7728
2023-03-15 22:02:44:703,-0.684466,0.385291,-9.76858,-2.02674,-4.23659,-18.77
2023-03-15 22:02:44:714,-0.703323,0.382361,-9.73217,-2.02255,-4.2439,-18.7701
2023-03-15 22:02:44:723,-0.70443,0.380287,-9.73061,-2.01915,-4.24262,-18.7618
2023-03-15 22:02:44:734,-0.719063,0.376723,-9.7448,-2.01561,-4.23858,-18.7581
2023-03-15 22:02:44:743,-0.733251,0.367887,-9.75662,-2.01475,-4.24018,-18.7498
2023-03-15 22:02:44:754,-0.737635,0.350099,-9.76541,-2.01149,-4.2377,-18.7421
2023-03-15 22:02:44:764,-0.740727,0.336438,-9.73853,-2.00699,-4.23408,-18.7359
2023-03-15 22:02:44:774,-0.744818,0.352815,-9.70424,-2.0028,-4.2284,-18.7312
2023-03-15 22:02:44:784,-0.742973,0.329576,-9.70251,-2.0001,-4.22003,-18.7235
2023-03-15 22:02:44:794,-0.750169,0.318066,-9.71804,-1.99909,-4.21146,-18.7184
2023-03-15 22:02:44:804,-0.734941,0.331723,-9.75699,-1.99954,-4.20119,-18.7182
2023-03-15 22:02:44:814,-0.686203,0.339316,-9.78374,-1.996,-4.1923,-18.7219
2023-03-15 22:02:44:824,-0.635639,0.334646,-9.76851,-1.99275,-4.18287,-18.7242
2023-03-15 22:02:44:834,-0.631545,0.31271,-9.74433,-1.99084,-4.18171,-18.7281
2023-03-15 22:02:44:844,-0.648142,0.326623,-9.7581,-1.99194,-4.18436,-18.7306
2023-03-15 22:02:44:854,-0.657885,0.33064,-9.75689,-1.99108,-4.18474,-18.7347
2023-03-15 22:02:44:864,-0.66739,0.33298,-9.72353,-1.99128,-4.18572,-18.7376
2023-03-15 22:02:44:873,-0.66751,0.335283,-9.71607,-1.99457,-4.18786,-18.7411
2023-03-15 22:02:44:883,-0.648559,0.333391,-9.73339,-2.00029,-4.18568,-18.7389
2023-03-15 22:02:44:894,-0.617855,0.335567,-9.73315,-2.00899,-4.18273,-18.733
2023-03-15 22:02:44:904,-0.620852,0.353452,-9.73215,-2.02037,-4.17958,-18.7247
2023-03-15 22:02:44:914,-0.637397,0.362251,-9.75474,-2.03057,-4.18076,-18.7116
2023-03-15 22:02:44:924,-0.641815,0.386141,-9.73405,-2.04332,-4.17934,-18.6973
2023-03-15 22:02:44:934,-0.680035,0.391521,-9.73108,-2.05665,-4.18153,-18.6851
2023-03-15 22:02:44:943,-0.696621,0.414642,-9.72526,-2.06688,-4.18102,-18.6681
2023-03-15 22:02:44:954,-0.700962,0.417457,-9.73391,-2.07685,-4.18245,-18.6496
2023-03-15 22:02:44:963,-0.710926,0.417305,-9.7433,-2.08691,-4.18655,-18.6334
2023-03-15 22:02:44:974,-0.717708,0.404278,-9.74731,-2.09526,-4.18527,-18.6176
2023-03-15 22:02:44:984,-0.731093,0.408429,-9.76975,-2.10172,-4.18656,-18.6024
2023-03-15 22:02:44:994,-0.730511,0.418207,-9.781,-2.10764,-4.18653,-18.5944
2023-03-15 22:02:45:3,-0.718215,0.41206,-9.78808,-2.11365,-4.18938,-18.589
2023-03-15 22:02:45:14,-0.715935,0.409599,-9.77478,-2.11369,-4.19103,-18.5841
2023-03-15 22:02:45:24,-0.723246,0.400813,-9.76005,-2.11799,-4.19458,-18.5835
2023-03-15 22:02:45:34,-0.727043,0.389222,-9.77107,-2.12363,-4.19862,-18.5792
2023-03-15 22:02:45:44,-0.727064,0.400808,-9.79752,-2.12642,-4.19816,-18.5797
2023-03-15 22:02:45:54,-0.712299,0.40609,-9.80898,-2.1241,-4.19871,-18.5822
2023-03-15 22:02:45:64,-0.687368,0.388292,-9.79033,-2.11959,-4.20077,-18.5788
2023-03-15 22:02:45:74,-0.677642,0.370303,-9.77363,-2.11643,-4.20564,-18.5739
2023-03-15 22:02:45:84,-0.680151,0.382716,-9.76595,-2.11223,-4.20874,-18.572
2023-03-15 22:02:45:93,-0.693212,0.368482,-9.74943,-2.10856,-4.21552,-18.5688
2023-03-15 22:02:45:103,-0.710523,0.34943,-9.72416,-2.10235,-4.21993,-18.5626
2023-03-15 22:02:45:113,-0.721244,0.35831,-9.69537,-2.0986,-4.22192,-18.5575
2023-03-15 22:02:45:123,-0.720197,0.359603,-9.70439,-2.1049,-4.21988,-18.5513
2023-03-15 22:02:45:134,-0.721037,0.36479,-9.72721,-2.11025,-4.21941,-18.5389
2023-03-15 22:02:45:143,-0.732917,0.362635,-9.72578,-2.11132,-4.21479,-18.5316
2023-03-15 22:02:45:154,-0.730409,0.372975,-9.71555,-2.1154,-4.20986,-18.5259
2023-03-15 22:02:45:164,-0.736654,0.376065,-9.72013,-2.11632,-4.20485,-18.5184
2023-03-15 22:02:45:174,-0.746143,0.375018,-9.73106,-2.11934,-4.1979,-18.5131
2023-03-15 22:02:45:184,-0.733506,0.383481,-9.75631,-2.1269,-4.1938,-18.5124
2023-03-15 22:02:45:194,-0.729507,0.386685,-9.76732,-2.13162,-4.18662,-18.5128
2023-03-15 22:02:45:204,-0.720957,0.377368,-9.74928,-2.1337,-4.18178,-18.5116
2023-03-15 22:02:45:214,-0.719371,0.377678,-9.74093,-2.13278,-4.18008,-18.5122
2023-03-15 22:02:45:223,-0.703981,0.373273,-9.73068,-2.13355,-4.17679,-18.5146
2023-03-15 22:02:45:234,-0.695827,0.35386,-9.75339,-2.13328,-4.17187,-18.5166
2023-03-15 22:02:45:244,-0.685063,0.357075,-9.7635,-2.13039,-4.16586,-18.5209
2023-03-15 22:02:45:254,-0.663692,0.37141,-9.76607,-2.13217,-4.16311,-18.5257
2023-03-15 22:02:45:264,-0.658067,0.36254,-9.77387,-2.13509,-4.15937,-18.5296
2023-03-15 22:02:45:274,-0.653441,0.361711,-9.74649,-2.13877,-4.15519,-18.5294
2023-03-15 22:02:45:284,-0.653055,0.351132,-9.72477,-2.14284,-4.14432,-18.532
2023-03-15 22:02:45:294,-0.647006,0.354222,-9.70951,-2.15063,-4.14038,-18.5292
2023-03-15 22:02:45:304,-0.651671,0.358254,-9.7163,-2.15886,-4.13587,-18.5262
2023-03-15 22:02:45:314,-0.66029,0.37001,-9.72998,-2.16882,-4.13434,-18.5194
2023-03-15 22:02:45:324,-0.669672,0.385682,-9.73532,-2.18404,-4.13121,-18.5156
2023-03-15 22:02:45:334,-0.674349,0.400913,-9.74573,-2.19843,-4.12566,-18.5145
2023-03-15 22:02:45:343,-0.681656,0.420512,-9.74998,-2.21268,-4.12331,-18.5136
2023-03-15 22:02:45:354,-0.672532,0.418703,-9.74634,-2.22416,-4.119,-18.5111
2023-03-15 22:02:45:364,-0.685023,0.416414,-9.75122,-2.23046,-4.11655,-18.5121
2023-03-15 22:02:45:374,-0.696896,0.423293,-9.75275,-2.24055,-4.11653,-18.5129
2023-03-15 22:02:45:384,-0.705386,0.421719,-9.73846,-2.249,-4.11371,-18.5159
2023-03-15 22:02:45:394,-0.694172,0.415057,-9.73911,-2.25912,-4.11041,-18.5186
2023-03-15 22:02:45:404,-0.691903,0.423052,-9.76352,-2.269,-4.11222,-18.5247
2023-03-15 22:02:45:414,-0.6944,0.42812,-9.78105,-2.27669,-4.10983,-18.5302
2023-03-15 22:02:45:424,-0.697754,0.428789,-9.78791,-2.28486,-4.10649,-18.5374
2023-03-15 22:02:45:433,-0.694834,0.414462,-9.77473,-2.2899,-4.10676,-18.5448
2023-03-15 22:02:45:444,-0.686963,0.415506,-9.75436,-2.29442,-4.10505,-18.5478
2023-03-15 22:02:45:454,-0.673717,0.40786,-9.72825,-2.29982,-4.101,-18.5563
2023-03-15 22:02:45:464,-0.659576,0.403657,-9.7235,-2.30591,-4.09754,-18.5592
2023-03-15 22:02:45:474,-0.651733,0.401361,-9.73047,-2.3121,-4.09709,-18.5629
2023-03-15 22:02:45:484,-0.650387,0.392374,-9.74091,-2.31811,-4.09724,-18.5666
2023-03-15 22:02:45:494,-0.647641,0.390706,-9.71869,-2.32549,-4.0972,-18.5695
2023-03-15 22:02:45:504,-0.648204,0.385785,-9.71234,-2.33504,-4.09683,-18.5715
2023-03-15 22:02:45:514,-0.635179,0.415718,-9.72033,-2.34843,-4.09693,-18.5708
2023-03-15 22:02:45:524,-0.640533,0.417344,-9.75753,-2.36123,-4.09635,-18.5654
2023-03-15 22:02:45:534,-0.645894,0.415906,-9.77784,-2.37103,-4.09697,-18.5578
2023-03-15 22:02:45:543,-0.649867,0.430722,-9.78006,-2.37971,-4.09655,-18.5494
2023-03-15 22:02:45:554,-0.651666,0.427789,-9.76436,-2.38655,-4.08843,-18.5389
2023-03-15 22:02:45:564,-0.662926,0.435627,-9.73548,-2.39405,-4.08596,-18.5296
2023-03-15 22:02:45:574,-0.677339,0.418987,-9.7191,-2.39845,-4.07962,-18.5201
2023-03-15 22:02:45:584,-0.687598,0.410378,-9.73347,-2.40652,-4.0757,-18.5081
2023-03-15 22:02:45:594,-0.687785,0.406283,-9.80616,-2.41569,-4.0714,-18.5
2023-03-15 22:02:45:603,-0.682897,0.446576,-9.86241,-2.42171,-4.06565,-18.4934
2023-03-15 22:02:45:614,-0.647836,0.431673,-9.8429,-2.41749,-4.06373,-18.4892
2023-03-15 22:02:45:623,-0.638822,0.385896,-9.78101,-2.41652,-4.06648,-18.4804
2023-03-15 22:02:45:633,-0.655267,0.387321,-9.73077,-2.41662,-4.06933,-18.4735
2023-03-15 22:02:45:643,-0.677022,0.393899,-9.70875,-2.4228,-4.07518,-18.4707
2023-03-15 22:02:45:654,-0.683476,0.368165,-9.66733,-2.4299,-4.08074,-18.4683
2023-03-15 22:02:45:663,-0.695971,0.376609,-9.63161,-2.44583,-4.08455,-18.4647
2023-03-15 22:02:45:673,-0.681985,0.407743,-9.66047,-2.46713,-4.08915,-18.4592
2023-03-15 22:02:45:684,-0.656138,0.434863,-9.69992,-2.49552,-4.09093,-18.4582
2023-03-15 22:02:45:694,-0.643563,0.466672,-9.72391,-2.52174,-4.09287,-18.4552
2023-03-15 22:02:45:704,-0.65507,0.491748,-9.74623,-2.54801,-4.09482,-18.4499
2023-03-15 22:02:45:714,-0.678064,0.517507,-9.76763,-2.57492,-4.09708,-18.4448
2023-03-15 22:02:45:724,-0.69079,0.533131,-9.75716,-2.59753,-4.09607,-18.4442
