Timestamp,Acceleration_x,Acceleration_y,Acceleration_z,roll,pitch,yaw
2023-03-15 20:45:53:596,0.424386,7.93319,-5.68847,-54.1555,2.32171,134.327
2023-03-15 20:45:53:605,0.42328,7.92917,-5.7007,-54.157,2.32076,134.328
2023-03-15 20:45:53:615,0.42609,7.91786,-5.71082,-54.158,2.32448,134.331
2023-03-15 20:45:53:625,0.419729,7.93036,-5.70124,-54.1567,2.32569,134.33
2023-03-15 20:45:53:635,0.420499,7.91509,-5.6967,-54.1554,2.32647,134.331
2023-03-15 20:45:53:645,0.428975,7.91318,-5.69411,-54.1562,2.3272,134.33
2023-03-15 20:45:53:655,0.438719,7.92862,-5.69014,-54.1549,2.32632,134.33
2023-03-15 20:45:53:665,0.435826,7.91837,-5.69875,-54.1557,2.3259,134.331
2023-03-15 20:45:53:675,0.417127,7.92324,-5.69971,-54.153,2.32587,134.33
2023-03-15 20:45:53:685,0.422026,7.92388,-5.70074,-54.1537,2.32684,134.332
2023-03-15 20:45:53:695,0.422266,7.93207,-5.69389,-54.1527,2.32691,134.328
2023-03-15 20:45:53:705,0.418551,7.92447,-5.70241,-54.1531,2.32558,134.33
2023-03-15 20:45:53:715,0.425272,7.92461,-5.69574,-54.1528,2.3284,134.328
2023-03-15 20:45:53:725,0.432191,7.92179,-5.69799,-54.1513,2.32576,134.33
2023-03-15 20:45:53:735,0.441068,7.91294,-5.70121,-54.1522,2.32688,134.333
2023-03-15 20:45:53:745,0.433677,7.91884,-5.70612,-54.1512,2.3273,134.332
2023-03-15 20:45:53:755,0.429391,7.91865,-5.7098,-54.1543,2.3281,134.331
2023-03-15 20:45:53:765,0.420968,7.91996,-5.69472,-54.1514,2.32705,134.333
2023-03-15 20:45:53:775,0.411475,7.92458,-5.6879,-54.1525,2.32654,134.336
2023-03-15 20:45:53:785,0.420742,7.91234,-5.69548,-54.1522,2.32797,134.336
2023-03-15 20:45:53:795,0.422054,7.92148,-5.68426,-54.1564,2.32888,134.339
2023-03-15 20:45:53:805,0.425986,7.92195,-5.69648,-54.157,2.33051,134.34
2023-03-15 20:45:53:815,0.433356,7.91742,-5.69337,-54.158,2.33254,134.341
2023-03-15 20:45:53:825,0.431483,7.92207,-5.69232,-54.1617,2.33348,134.339
2023-03-15 20:45:53:835,0.4445,7.91794,-5.69762,-54.1602,2.33342,134.339
2023-03-15 20:45:53:845,0.426927,7.92177,-5.68854,-54.1579,2.33382,134.341
2023-03-15 20:45:53:855,0.431074,7.92198,-5.69353,-54.1586,2.33282,134.345
2023-03-15 20:45:53:865,0.426277,7.91877,-5.70329,-54.1611,2.33426,134.347
2023-03-15 20:45:53:875,0.435963,7.91534,-5.70142,-54.1601,2.3356,134.346
2023-03-15 20:45:53:885,0.438846,7.91147,-5.69518,-54.1604,2.33593,134.348
2023-03-15 20:45:53:895,0.428743,7.91359,-5.70044,-54.1605,2.33832,134.348
2023-03-15 20:45:53:905,0.428057,7.915,-5.69371,-54.1586,2.33752,134.346
2023-03-15 20:45:53:915,0.420845,7.93124,-5.6873,-54.1603,2.33682,134.345
2023-03-15 20:45:53:925,0.429215,7.92311,-5.69351,-54.1598,2.33574,134.345
2023-03-15 20:45:53:935,0.426709,7.93285,-5.69784,-54.1619,2.33704,134.343
2023-03-15 20:45:53:945,0.419512,7.92409,-5.69967,-54.1618,2.33469,134.345
2023-03-15 20:45:53:955,0.420344,7.92726,-5.69337,-54.162,2.33369,134.345
2023-03-15 20:45:53:965,0.41881,7.9271,-5.69448,-54.161,2.33072,134.344
2023-03-15 20:45:53:975,0.421104,7.92237,-5.70381,-54.1603,2.3277,134.344
2023-03-15 20:45:53:985,0.430173,7.91914,-5.69789,-54.1611,2.32904,134.341
2023-03-15 20:45:53:995,0.434553,7.91837,-5.69379,-54.1602,2.32911,134.339
2023-03-15 20:45:54:5,0.438588,7.92138,-5.68922,-54.1589,2.3292,134.339
2023-03-15 20:45:54:15,0.426233,7.92011,-5.69721,-54.1584,2.32713,134.339
2023-03-15 20:45:54:25,0.423842,7.91423,-5.71005,-54.1583,2.32531,134.342
2023-03-15 20:45:54:35,0.430017,7.9235,-5.68273,-54.1618,2.32496,134.34
2023-03-15 20:45:54:45,0.419521,7.92103,-5.69019,-54.1656,2.32521,134.341
2023-03-15 20:45:54:55,0.4241,7.937,-5.68837,-54.1671,2.32357,134.341
2023-03-15 20:45:54:65,0.434081,7.92653,-5.69597,-54.1698,2.3221,134.338
2023-03-15 20:45:54:75,0.444648,7.91679,-5.70025,-54.1709,2.32038,134.337
2023-03-15 20:45:54:85,0.440612,7.91831,-5.70111,-54.1733,2.32216,134.335
2023-03-15 20:45:54:95,0.433337,7.92223,-5.70275,-54.1701,2.32271,134.334
2023-03-15 20:45:54:105,0.42749,7.92669,-5.69565,-54.1734,2.32527,134.334
2023-03-15 20:45:54:115,0.420249,7.92183,-5.70066,-54.1722,2.32557,134.335
2023-03-15 20:45:54:125,0.430572,7.91751,-5.7001,-54.1725,2.32892,134.335
2023-03-15 20:45:54:135,0.425191,7.92139,-5.69617,-54.1737,2.32686,134.334
2023-03-15 20:45:54:145,0.43987,7.91846,-5.70386,-54.1763,2.32817,134.332
2023-03-15 20:45:54:155,0.435073,7.92735,-5.70336,-54.1764,2.32772,134.334
2023-03-15 20:45:54:165,0.425805,7.92378,-5.69846,-54.1762,2.32637,134.334
2023-03-15 20:45:54:175,0.43046,7.92337,-5.69956,-54.1755,2.33016,134.331
2023-03-15 20:45:54:185,0.424621,7.92888,-5.70196,-54.176,2.32933,134.331
2023-03-15 20:45:54:195,0.417149,7.92397,-5.69359,-54.1713,2.32984,134.331
2023-03-15 20:45:54:205,0.422935,7.9205,-5.6864,-54.1686,2.32722,134.334
2023-03-15 20:45:54:215,0.429598,7.92887,-5.70315,-54.1674,2.32629,134.336
2023-03-15 20:45:54:225,0.425672,7.92567,-5.70342,-54.1685,2.32644,134.337
2023-03-15 20:45:54:235,0.434263,7.91798,-5.71248,-54.1688,2.32487,134.337
2023-03-15 20:45:54:245,0.437149,7.92137,-5.6997,-54.1689,2.32522,134.335
2023-03-15 20:45:54:255,0.443684,7.92688,-5.69193,-54.169,2.32656,134.334
2023-03-15 20:45:54:265,0.438112,7.92039,-5.70101,-54.171,2.32905,134.331
2023-03-15 20:45:54:275,0.410875,7.9301,-5.69955,-54.1729,2.32925,134.332
2023-03-15 20:45:54:285,0.416508,7.9272,-5.70178,-54.1732,2.33027,134.329
2023-03-15 20:45:54:295,0.435401,7.91962,-5.69797,-54.1734,2.3316,134.327
2023-03-15 20:45:54:305,0.439413,7.92808,-5.70341,-54.174,2.32918,134.327
2023-03-15 20:45:54:315,0.424252,7.92707,-5.69855,-54.1705,2.33283,134.328
2023-03-15 20:45:54:325,0.432712,7.93393,-5.7015,-54.1699,2.33526,134.33
2023-03-15 20:45:54:335,0.436415,7.92409,-5.70937,-54.1671,2.33706,134.329
2023-03-15 20:45:54:345,0.426666,7.92013,-5.70429,-54.1663,2.33488,134.327
2023-03-15 20:45:54:355,0.415472,7.92866,-5.69918,-54.1647,2.3383,134.323
2023-03-15 20:45:54:365,0.429832,7.92846,-5.70436,-54.1629,2.3404,134.323
2023-03-15 20:45:54:375,0.426065,7.92629,-5.70448,-54.1621,2.34243,134.323
2023-03-15 20:45:54:385,0.431627,7.91824,-5.69835,-54.1616,2.34179,134.321
2023-03-15 20:45:54:395,0.434909,7.92033,-5.68793,-54.1618,2.34084,134.318
2023-03-15 20:45:54:405,0.43468,7.92324,-5.69484,-54.1607,2.34108,134.317
2023-03-15 20:45:54:415,0.4321,7.92485,-5.69441,-54.1612,2.34113,134.315
2023-03-15 20:45:54:425,0.436825,7.92483,-5.69721,-54.1584,2.34036,134.316
2023-03-15 20:45:54:435,0.439107,7.92308,-5.70559,-54.158,2.34029,134.317
2023-03-15 20:45:54:445,0.432835,7.92187,-5.706,-54.1573,2.34167,134.316
2023-03-15 20:45:54:455,0.433604,7.92319,-5.70156,-54.1575,2.34088,134.316
2023-03-15 20:45:54:465,0.435313,7.927,-5.69583,-54.1585,2.3397,134.314
2023-03-15 20:45:54:475,0.433299,7.91957,-5.70243,-54.1596,2.34198,134.316
2023-03-15 20:45:54:485,0.432486,7.9199,-5.70307,-54.1593,2.34155,134.319
2023-03-15 20:45:54:495,0.438425,7.91617,-5.69719,-54.159,2.34227,134.317
2023-03-15 20:45:54:505,0.436602,7.92031,-5.71221,-54.1608,2.34276,134.316
2023-03-15 20:45:54:515,0.42278,7.93363,-5.6989,-54.1604,2.34458,134.317
2023-03-15 20:45:54:525,0.427671,7.93038,-5.70373,-54.1611,2.34494,134.318
2023-03-15 20:45:54:535,0.427905,7.92295,-5.71091,-54.16,2.34525,134.32
2023-03-15 20:45:54:545,0.430997,7.91985,-5.7089,-54.162,2.3446,134.32
2023-03-15 20:45:54:555,0.435024,7.92228,-5.70587,-54.1598,2.34497,134.319
2023-03-15 20:45:54:565,0.446331,7.93282,-5.69087,-54.1615,2.34645,134.317
2023-03-15 20:45:54:575,0.445264,7.91609,-5.70798,-54.1621,2.3495,134.316
2023-03-15 20:45:54:585,0.442203,7.92343,-5.70206,-54.1627,2.35146,134.315
2023-03-15 20:45:54:595,0.434056,7.91784,-5.69894,-54.1639,2.35196,134.316
2023-03-15 20:45:54:605,0.409604,7.91734,-5.6999,-54.1634,2.3536,134.322
2023-03-15 20:45:54:615,0.408558,7.91977,-5.68683,-54.164,2.3545,134.32
2023-03-15 20:45:54:625,0.422294,7.92184,-5.69867,-54.1613,2.35363,134.321
2023-03-15 20:45:54:635,0.434321,7.92698,-5.68844,-54.1617,2.35101,134.319
2023-03-15 20:45:54:645,0.439654,7.92289,-5.69927,-54.1631,2.35068,134.316
2023-03-15 20:45:54:654,0.439933,7.93294,-5.69632,-54.1606,2.34914,134.313
2023-03-15 20:45:54:664,0.433443,7.92521,-5.69978,-54.1619,2.34907,134.314
2023-03-15 20:45:54:674,0.430615,7.92745,-5.69992,-54.1626,2.34933,134.317
2023-03-15 20:45:54:685,0.426892,7.91725,-5.71184,-54.1609,2.35059,134.318
2023-03-15 20:45:54:695,0.414861,7.91809,-5.70653,-54.1613,2.35048,134.317
2023-03-15 20:45:54:704,0.416027,7.92572,-5.69473,-54.1607,2.35043,134.32
2023-03-15 20:45:54:714,0.422719,7.92402,-5.6935,-54.165,2.34795,134.316
2023-03-15 20:45:54:725,0.440774,7.92148,-5.7013,-54.1633,2.34929,134.315
2023-03-15 20:45:54:735,0.452738,7.9284,-5.69813,-54.1641,2.34874,134.314
2023-03-15 20:45:54:745,0.448618,7.9133,-5.70279,-54.1643,2.34693,134.314
2023-03-15 20:45:54:754,0.440312,7.91489,-5.70443,-54.1663,2.34809,134.314
2023-03-15 20:45:54:765,0.43991,7.90642,-5.70017,-54.1672,2.35035,134.312
2023-03-15 20:45:54:774,0.419228,7.91882,-5.69141,-54.1663,2.35136,134.311
2023-03-15 20:45:54:784,0.415336,7.92145,-5.69358,-54.1635,2.3505,134.31
2023-03-15 20:45:54:794,0.418118,7.92799,-5.68714,-54.1625,2.35069,134.309
2023-03-15 20:45:54:804,0.42515,7.92868,-5.69298,-54.1678,2.35288,134.307
2023-03-15 20:45:54:815,0.435155,7.91434,-5.7116,-54.1672,2.35396,134.307
2023-03-15 20:45:54:824,0.440259,7.92383,-5.69839,-54.1689,2.35178,134.31
2023-03-15 20:45:54:835,0.438701,7.92339,-5.70291,-54.1696,2.35388,134.312
2023-03-15 20:45:54:844,0.438979,7.92214,-5.69893,-54.1701,2.35023,134.313
2023-03-15 20:45:54:854,0.42454,7.92774,-5.69987,-54.1691,2.35111,134.314
2023-03-15 20:45:54:865,0.428657,7.92879,-5.70827,-54.1675,2.35148,134.319
2023-03-15 20:45:54:875,0.421096,7.92211,-5.69169,-54.1667,2.35183,134.319
2023-03-15 20:45:54:884,0.421161,7.91185,-5.69155,-54.1665,2.35247,134.316
2023-03-15 20:45:54:895,0.426073,7.91766,-5.68644,-54.1663,2.34867,134.317
2023-03-15 20:45:54:904,0.437049,7.92068,-5.70053,-54.1665,2.34784,134.321
2023-03-15 20:45:54:915,0.432199,7.91396,-5.69858,-54.1672,2.34606,134.322
2023-03-15 20:45:54:925,0.430561,7.91982,-5.69722,-54.1686,2.34469,134.323
2023-03-15 20:45:54:935,0.429409,7.91931,-5.69014,-54.1685,2.34472,134.321
2023-03-15 20:45:54:944,0.421192,7.91219,-5.69862,-54.1666,2.34413,134.319
2023-03-15 20:45:54:955,0.429023,7.91707,-5.70108,-54.1635,2.34506,134.32
2023-03-15 20:45:54:965,0.436974,7.92843,-5.70406,-54.1648,2.34587,134.322
2023-03-15 20:45:54:975,0.426821,7.93099,-5.69325,-54.1685,2.34764,134.324
2023-03-15 20:45:54:985,0.421326,7.92168,-5.69404,-54.168,2.34851,134.326
2023-03-15 20:45:54:995,0.428018,7.92388,-5.70062,-54.1692,2.34681,134.326
2023-03-15 20:45:55:5,0.439416,7.912,-5.70319,-54.1711,2.34786,134.326
2023-03-15 20:45:55:15,0.436136,7.91234,-5.71128,-54.1719,2.349,134.327
2023-03-15 20:45:55:25,0.420118,7.92322,-5.69298,-54.1706,2.34825,134.326
2023-03-15 20:45:55:35,0.433872,7.92129,-5.69425,-54.172,2.34701,134.327
2023-03-15 20:45:55:45,0.428085,7.92847,-5.68757,-54.1729,2.3454,134.329
2023-03-15 20:45:55:55,0.42486,7.9164,-5.69933,-54.169,2.34731,134.327
2023-03-15 20:45:55:65,0.433844,7.93543,-5.69703,-54.17,2.34547,134.326
2023-03-15 20:45:55:75,0.437382,7.92793,-5.68169,-54.1733,2.34226,134.328
2023-03-15 20:45:55:85,0.424269,7.92961,-5.69147,-54.175,2.34044,134.327
2023-03-15 20:45:55:95,0.417063,7.92971,-5.70884,-54.1767,2.343,134.327
2023-03-15 20:45:55:105,0.430335,7.92028,-5.71673,-54.1792,2.34423,134.328
2023-03-15 20:45:55:115,0.416775,7.92942,-5.7047,-54.1809,2.34585,134.327
2023-03-15 20:45:55:125,0.433567,7.92337,-5.70135,-54.1844,2.34634,134.325
2023-03-15 20:45:55:135,0.426542,7.91834,-5.69769,-54.1836,2.34445,134.323
2023-03-15 20:45:55:145,0.426036,7.91275,-5.6944,-54.1833,2.34311,134.324
2023-03-15 20:45:55:155,0.43481,7.91848,-5.69988,-54.1829,2.34137,134.325
2023-03-15 20:45:55:165,0.42232,7.92645,-5.69589,-54.1821,2.34226,134.325
2023-03-15 20:45:55:175,0.430757,7.91167,-5.70962,-54.1805,2.33944,134.323
2023-03-15 20:45:55:185,0.436615,7.91069,-5.7014,-54.1776,2.34048,134.325
2023-03-15 20:45:55:195,0.434857,7.91499,-5.69645,-54.1778,2.34078,134.326
2023-03-15 20:45:55:205,0.426927,7.93002,-5.70083,-54.1783,2.34308,134.325
2023-03-15 20:45:55:215,0.423167,7.9248,-5.69167,-54.1789,2.34195,134.326
2023-03-15 20:45:55:225,0.440247,7.92661,-5.70793,-54.1776,2.34126,134.327
2023-03-15 20:45:55:235,0.434561,7.91824,-5.70126,-54.1792,2.34351,134.327
2023-03-15 20:45:55:245,0.427898,7.92922,-5.68988,-54.1819,2.34321,134.329
2023-03-15 20:45:55:255,0.431413,7.92323,-5.68737,-54.1819,2.34033,134.33
2023-03-15 20:45:55:265,0.42063,7.91838,-5.70314,-54.1808,2.33937,134.329
2023-03-15 20:45:55:275,0.43608,7.93097,-5.70247,-54.1829,2.33855,134.331
2023-03-15 20:45:55:285,0.439321,7.92301,-5.70612,-54.1833,2.3373,134.331
2023-03-15 20:45:55:295,0.427819,7.91954,-5.7089,-54.1842,2.3401,134.33
2023-03-15 20:45:55:305,0.437661,7.9366,-5.70122,-54.1844,2.34262,134.328
2023-03-15 20:45:55:315,0.440114,7.9326,-5.69912,-54.1863,2.34096,134.328
2023-03-15 20:45:55:325,0.436298,7.93313,-5.69274,-54.1839,2.34276,134.33
2023-03-15 20:45:55:335,0.42387,7.92469,-5.69485,-54.1842,2.34523,134.33
2023-03-15 20:45:55:345,0.424543,7.92165,-5.704,-54.186,2.34826,134.33
2023-03-15 20:45:55:355,0.425348,7.91584,-5.70902,-54.1813,2.34806,134.332
2023-03-15 20:45:55:365,0.420976,7.9088,-5.7078,-54.1801,2.34854,134.332
2023-03-15 20:45:55:375,0.436096,7.92002,-5.70964,-54.1778,2.34534,134.334
2023-03-15 20:45:55:385,0.43856,7.92217,-5.70075,-54.1797,2.34466,134.337
2023-03-15 20:45:55:395,0.443764,7.91121,-5.70221,-54.1771,2.34574,134.337
2023-03-15 20:45:55:405,0.439258,7.91726,-5.69713,-54.1765,2.34653,134.338
2023-03-15 20:45:55:415,0.425419,7.92241,-5.70472,-54.1743,2.34596,134.34
2023-03-15 20:45:55:425,0.42475,7.93013,-5.702,-54.1736,2.3425,134.338
2023-03-15 20:45:55:435,0.419947,7.93015,-5.69894,-54.1729,2.34399,134.336
2023-03-15 20:45:55:445,0.424466,7.92009,-5.69399,-54.1753,2.34381,134.336
2023-03-15 20:45:55:455,0.418996,7.93429,-5.68239,-54.177,2.34218,134.335
2023-03-15 20:45:55:465,0.427016,7.91708,-5.69976,-54.1763,2.3382,134.337
2023-03-15 20:45:55:475,0.432673,7.92128,-5.69651,-54.1788,2.33793,134.339
2023-03-15 20:45:55:485,0.446309,7.92293,-5.68952,-54.18,2.33862,134.34
2023-03-15 20:45:55:495,0.440092,7.92453,-5.7018,-54.1851,2.33895,134.339
2023-03-15 20:45:55:505,0.425745,7.92561,-5.70563,-54.1861,2.33994,134.336
2023-03-15 20:45:55:515,0.41881,7.91446,-5.70647,-54.1868,2.33997,134.336
2023-03-15 20:45:55:525,0.430498,7.92433,-5.70568,-54.185,2.3397,134.336
2023-03-15 20:45:55:535,0.428732,7.91828,-5.71009,-54.1863,2.33771,134.335
2023-03-15 20:45:55:545,0.425633,7.92744,-5.6968,-54.1849,2.34161,134.333
2023-03-15 20:45:55:555,0.432525,7.92589,-5.70173,-54.1841,2.34608,134.332
2023-03-15 20:45:55:565,0.43473,7.92301,-5.69971,-54.1839,2.34503,134.335
2023-03-15 20:45:55:575,0.441198,7.91345,-5.70305,-54.1842,2.3464,134.337
2023-03-15 20:45:55:585,0.438099,7.91751,-5.70572,-54.1822,2.34721,134.339
2023-03-15 20:45:55:595,0.430655,7.924,-5.70641,-54.1864,2.34818,134.337
2023-03-15 20:45:55:605,0.42692,7.9134,-5.69787,-54.1839,2.34847,134.339
2023-03-15 20:45:55:615,0.426648,7.91547,-5.7004,-54.1854,2.34886,134.342
2023-03-15 20:45:55:625,0.421211,7.92372,-5.7003,-54.1863,2.34877,134.341
2023-03-15 20:45:55:635,0.417307,7.919,-5.69942,-54.1869,2.34887,134.34
2023-03-15 20:45:55:645,0.430885,7.9127,-5.69556,-54.188,2.35005,134.341
2023-03-15 20:45:55:655,0.441731,7.91293,-5.69705,-54.1907,2.35049,134.343
2023-03-15 20:45:55:665,0.438172,7.92106,-5.69283,-54.1887,2.34818,134.339
2023-03-15 20:45:55:675,0.422609,7.92295,-5.69658,-54.1904,2.34556,134.341
2023-03-15 20:45:55:685,0.43515,7.92255,-5.69752,-54.1935,2.34474,134.341
2023-03-15 20:45:55:695,0.426789,7.91932,-5.69977,-54.1935,2.34342,134.341
2023-03-15 20:45:55:705,0.422461,7.93079,-5.69921,-54.1944,2.34486,134.342
2023-03-15 20:45:55:715,0.417053,7.92133,-5.69862,-54.1899,2.34592,134.346
2023-03-15 20:45:55:725,0.418842,7.91876,-5.69847,-54.1896,2.34515,134.345
2023-03-15 20:45:55:735,0.42533,7.9287,-5.70426,-54.1924,2.34326,134.348
2023-03-15 20:45:55:745,0.423648,7.93016,-5.70245,-54.1921,2.34136,134.348
2023-03-15 20:45:55:755,0.434477,7.91529,-5.708,-54.194,2.34105,134.349
2023-03-15 20:45:55:765,0.43083,7.91768,-5.70985,-54.194,2.33933,134.35
2023-03-15 20:45:55:775,0.434242,7.92119,-5.70227,-54.1906,2.33832,134.349
2023-03-15 20:45:55:785,0.417685,7.93056,-5.69257,-54.1893,2.33755,134.35
2023-03-15 20:45:55:795,0.42658,7.91253,-5.70117,-54.1911,2.33654,134.351
2023-03-15 20:45:55:805,0.418779,7.92366,-5.70285,-54.1919,2.33596,134.351
2023-03-15 20:45:55:815,0.428769,7.9219,-5.69296,-54.1888,2.33533,134.353
2023-03-15 20:45:55:825,0.432407,7.9166,-5.69484,-54.1925,2.33505,134.352
2023-03-15 20:45:55:835,0.435657,7.92267,-5.69637,-54.1934,2.33457,134.351
2023-03-15 20:45:55:845,0.455228,7.92319,-5.70306,-54.1944,2.33641,134.352
2023-03-15 20:45:55:855,0.442422,7.92018,-5.70778,-54.1965,2.33717,134.353
2023-03-15 20:45:55:865,0.430437,7.92147,-5.6959,-54.1983,2.33394,134.353
2023-03-15 20:45:55:875,0.433542,7.91967,-5.70201,-54.195,2.3301,134.354
2023-03-15 20:45:55:885,0.420577,7.92174,-5.70221,-54.1959,2.32916,134.352
2023-03-15 20:45:55:895,0.414421,7.91072,-5.70664,-54.1969,2.32845,134.353
2023-03-15 20:45:55:905,0.425231,7.91334,-5.70003,-54.1954,2.33014,134.353
2023-03-15 20:45:55:915,0.431093,7.92043,-5.70621,-54.1949,2.33255,134.352
2023-03-15 20:45:55:925,0.436923,7.92087,-5.71163,-54.1931,2.33227,134.351
2023-03-15 20:45:55:935,0.428679,7.91728,-5.70909,-54.1921,2.33331,134.353
2023-03-15 20:45:55:945,0.43494,7.91671,-5.71118,-54.193,2.33245,134.352
2023-03-15 20:45:55:955,0.434809,7.93312,-5.70412,-54.1958,2.33544,134.355
2023-03-15 20:45:55:965,0.424066,7.92556,-5.70584,-54.1946,2.33649,134.356
2023-03-15 20:45:55:975,0.42297,7.92051,-5.70597,-54.1956,2.33599,134.356
2023-03-15 20:45:55:985,0.431767,7.91304,-5.69773,-54.1924,2.33799,134.357
2023-03-15 20:45:55:995,0.427542,7.91929,-5.69788,-54.1934,2.34054,134.355
2023-03-15 20:45:56:5,0.433338,7.92721,-5.6906,-54.195,2.34167,134.353
2023-03-15 20:45:56:15,0.43539,7.91933,-5.70284,-54.192,2.34541,134.352
2023-03-15 20:45:56:25,0.438283,7.91708,-5.69393,-54.1909,2.33978,134.351
2023-03-15 20:45:56:35,0.432214,7.91163,-5.70358,-54.1915,2.34003,134.351
2023-03-15 20:45:56:45,0.432731,7.91441,-5.70717,-54.1919,2.342,134.354
2023-03-15 20:45:56:55,0.419929,7.91674,-5.69657,-54.1894,2.34121,134.354
2023-03-15 20:45:56:65,0.421465,7.91522,-5.69658,-54.187,2.34025,134.353
2023-03-15 20:45:56:75,0.42598,7.92284,-5.69976,-54.1871,2.3366,134.354
2023-03-15 20:45:56:85,0.432131,7.9199,-5.70789,-54.1882,2.3377,134.351
2023-03-15 20:45:56:95,0.451578,7.92336,-5.69618,-54.1854,2.33589,134.352
2023-03-15 20:45:56:105,0.452823,7.92316,-5.70195,-54.1867,2.3345,134.354
2023-03-15 20:45:56:114,0.435635,7.9176,-5.70362,-54.1862,2.33466,134.357
2023-03-15 20:45:56:125,0.419564,7.91431,-5.70399,-54.1823,2.33542,134.358
2023-03-15 20:45:56:135,0.411985,7.92954,-5.70481,-54.1816,2.33505,134.359
2023-03-15 20:45:56:145,0.403688,7.92726,-5.69748,-54.1806,2.33405,134.356
2023-03-15 20:45:56:155,0.403287,7.92357,-5.69868,-54.1812,2.33528,134.353
2023-03-15 20:45:56:165,0.42159,7.93822,-5.69091,-54.1799,2.33342,134.355
2023-03-15 20:45:56:175,0.440784,7.92586,-5.6943,-54.1783,2.33333,134.355
2023-03-15 20:45:56:185,0.443808,7.91751,-5.70614,-54.1767,2.33149,134.356
2023-03-15 20:45:56:195,0.449679,7.93075,-5.69433,-54.1753,2.33026,134.355
2023-03-15 20:45:56:205,0.433914,7.9213,-5.70264,-54.1798,2.33019,134.353
2023-03-15 20:45:56:215,0.42541,7.92325,-5.69801,-54.1864,2.3309,134.351
2023-03-15 20:45:56:225,0.396055,7.93454,-5.69939,-54.1889,2.32999,134.352
2023-03-15 20:45:56:235,0.409909,7.93311,-5.6975,-54.1859,2.33011,134.351
2023-03-15 20:45:56:245,0.418797,7.92646,-5.69804,-54.1882,2.33221,134.35
2023-03-15 20:45:56:255,0.425732,7.92632,-5.69592,-54.1925,2.33039,134.349
2023-03-15 20:45:56:265,0.441865,7.92831,-5.70933,-54.1914,2.33256,134.352
2023-03-15 20:45:56:275,0.456041,7.92277,-5.70053,-54.1885,2.33073,134.353
2023-03-15 20:45:56:285,0.454878,7.91491,-5.7012,-54.1903,2.33197,134.352
2023-03-15 20:45:56:295,0.454898,7.92428,-5.70149,-54.1887,2.3294,134.355
2023-03-15 20:45:56:305,0.435853,7.91517,-5.70685,-54.1899,2.32823,134.359
2023-03-15 20:45:56:315,0.414126,7.9141,-5.70929,-54.1908,2.33109,134.36
2023-03-15 20:45:56:325,0.407381,7.92928,-5.70564,-54.1962,2.33311,134.355
2023-03-15 20:45:56:335,0.425587,7.92287,-5.69606,-54.1969,2.3335,134.354
2023-03-15 20:45:56:345,0.426695,7.91971,-5.6903,-54.1987,2.33365,134.356
2023-03-15 20:45:56:355,0.448778,7.91927,-5.70684,-54.1975,2.33271,134.353
2023-03-15 20:45:56:365,0.446394,7.91518,-5.70631,-54.1971,2.33368,134.355
2023-03-15 20:45:56:375,0.455509,7.92393,-5.7058,-54.1982,2.33189,134.356
2023-03-15 20:45:56:385,0.447112,7.92551,-5.69801,-54.201,2.33216,134.356
2023-03-15 20:45:56:395,0.427311,7.91798,-5.69582,-54.2013,2.32905,134.357
2023-03-15 20:45:56:405,0.404923,7.92109,-5.69682,-54.2004,2.33137,134.355
2023-03-15 20:45:56:415,0.409268,7.92036,-5.70846,-54.202,2.32904,134.356
2023-03-15 20:45:56:425,0.438427,7.93559,-5.70032,-54.2014,2.33041,134.354
2023-03-15 20:45:56:435,0.441298,7.93493,-5.69297,-54.2002,2.33002,134.352
2023-03-15 20:45:56:445,0.444822,7.92015,-5.69674,-54.2012,2.33248,134.35
2023-03-15 20:45:56:455,0.449657,7.92259,-5.69332,-54.2036,2.33176,134.352
2023-03-15 20:45:56:465,0.441634,7.9213,-5.69217,-54.2043,2.33075,134.353
2023-03-15 20:45:56:475,0.430994,7.91885,-5.69732,-54.2057,2.32999,134.353
2023-03-15 20:45:56:485,0.419009,7.92401,-5.69308,-54.2067,2.33046,134.355
2023-03-15 20:45:56:495,0.414775,7.92921,-5.69533,-54.2075,2.32973,134.358
2023-03-15 20:45:56:505,0.431687,7.926,-5.70661,-54.2079,2.32951,134.36
2023-03-15 20:45:56:515,0.430634,7.92921,-5.70484,-54.2063,2.33112,134.359
2023-03-15 20:45:56:525,0.431659,7.92775,-5.69737,-54.206,2.3308,134.357
2023-03-15 20:45:56:535,0.446089,7.91134,-5.69589,-54.2059,2.33003,134.357
2023-03-15 20:45:56:545,0.4602,7.90976,-5.70342,-54.2069,2.33161,134.36
2023-03-15 20:45:56:555,0.438456,7.9232,-5.69596,-54.2046,2.33162,134.358
2023-03-15 20:45:56:565,0.40505,7.92985,-5.69402,-54.2058,2.32766,134.357
2023-03-15 20:45:56:575,0.392223,7.93126,-5.69844,-54.2085,2.32871,134.356
2023-03-15 20:45:56:585,0.414549,7.93035,-5.70337,-54.2076,2.32678,134.356
2023-03-15 20:45:56:595,0.43605,7.91577,-5.71221,-54.2048,2.32794,134.358
2023-03-15 20:45:56:605,0.434604,7.91675,-5.70043,-54.2025,2.32775,134.357
2023-03-15 20:45:56:615,0.449278,7.91639,-5.68476,-54.2025,2.32842,134.356
2023-03-15 20:45:56:625,0.447084,7.92283,-5.68225,-54.2044,2.32707,134.354
2023-03-15 20:45:56:635,0.434434,7.92739,-5.69261,-54.2065,2.32841,134.351
2023-03-15 20:45:56:645,0.413133,7.92578,-5.69213,-54.2068,2.32968,134.35
2023-03-15 20:45:56:655,0.406687,7.91883,-5.68895,-54.2077,2.32982,134.351
2023-03-15 20:45:56:665,0.407643,7.90777,-5.69913,-54.2054,2.32852,134.355
2023-03-15 20:45:56:675,0.422132,7.92521,-5.69426,-54.204,2.32879,134.358
2023-03-15 20:45:56:685,0.437312,7.93077,-5.70281,-54.2035,2.33124,134.362
2023-03-15 20:45:56:695,0.443219,7.93774,-5.69218,-54.2037,2.3308,134.362
2023-03-15 20:45:56:705,0.438051,7.91739,-5.70144,-54.2062,2.32992,134.363
2023-03-15 20:45:56:715,0.440808,7.90837,-5.70589,-54.2068,2.33022,134.364
2023-03-15 20:45:56:725,0.434341,7.91914,-5.7015,-54.2067,2.33046,134.364
2023-03-15 20:45:56:735,0.431433,7.93108,-5.69268,-54.2081,2.33007,134.366
2023-03-15 20:45:56:745,0.416674,7.92845,-5.68959,-54.2084,2.33203,134.364
2023-03-15 20:45:56:755,0.411614,7.93184,-5.69678,-54.2095,2.33077,134.365
2023-03-15 20:45:56:765,0.412487,7.94321,-5.68897,-54.2076,2.33478,134.364
2023-03-15 20:45:56:775,0.431698,7.92714,-5.70418,-54.2116,2.33308,134.365
2023-03-15 20:45:56:785,0.429505,7.92623,-5.70781,-54.2131,2.33286,134.363
2023-03-15 20:45:56:795,0.435225,7.91044,-5.70844,-54.2131,2.32903,134.358
2023-03-15 20:45:56:805,0.426465,7.91536,-5.70351,-54.2146,2.33024,134.36
2023-03-15 20:45:56:815,0.422853,7.91618,-5.70185,-54.2143,2.33162,134.359
2023-03-15 20:45:56:825,0.411453,7.9241,-5.6926,-54.2147,2.33126,134.358
2023-03-15 20:45:56:835,0.411652,7.93148,-5.69199,-54.2138,2.32731,134.36
2023-03-15 20:45:56:845,0.424941,7.92924,-5.6913,-54.2131,2.32817,134.355
2023-03-15 20:45:56:855,0.430744,7.93442,-5.69642,-54.2123,2.32678,134.353
2023-03-15 20:45:56:865,0.442448,7.92018,-5.71327,-54.2133,2.32828,134.354
2023-03-15 20:45:56:875,0.433455,7.90752,-5.71133,-54.2112,2.32734,134.355
2023-03-15 20:45:56:885,0.427348,7.92148,-5.70971,-54.2109,2.32856,134.354
2023-03-15 20:45:56:895,0.440338,7.91984,-5.70562,-54.2104,2.32819,134.352
2023-03-15 20:45:56:905,0.436856,7.91514,-5.70183,-54.2091,2.32726,134.353
2023-03-15 20:45:56:915,0.426853,7.92809,-5.6944,-54.2076,2.32923,134.352
2023-03-15 20:45:56:925,0.424189,7.92534,-5.69826,-54.2045,2.32892,134.353
2023-03-15 20:45:56:935,0.425951,7.9338,-5.69247,-54.2034,2.32959,134.357
2023-03-15 20:45:56:945,0.424381,7.9361,-5.68476,-54.2016,2.3319,134.36
2023-03-15 20:45:56:955,0.427053,7.91248,-5.70301,-54.1977,2.3314,134.358
2023-03-15 20:45:56:965,0.428669,7.9241,-5.70276,-54.1962,2.33113,134.357
2023-03-15 20:45:56:975,0.430973,7.92013,-5.6992,-54.1946,2.3335,134.36
2023-03-15 20:45:56:985,0.434788,7.92065,-5.6938,-54.1951,2.3352,134.36
2023-03-15 20:45:56:995,0.425838,7.9203,-5.69744,-54.1957,2.33565,134.359
2023-03-15 20:45:57:5,0.425842,7.92376,-5.70484,-54.1946,2.33374,134.36
2023-03-15 20:45:57:15,0.416736,7.92148,-5.70895,-54.1936,2.33428,134.36
2023-03-15 20:45:57:25,0.429102,7.92018,-5.71264,-54.1927,2.33131,134.358
2023-03-15 20:45:57:35,0.439767,7.92597,-5.70118,-54.1924,2.33056,134.357
2023-03-15 20:45:57:45,0.441241,7.91793,-5.69344,-54.1948,2.3325,134.356
2023-03-15 20:45:57:55,0.445435,7.91536,-5.69437,-54.1959,2.3341,134.357
2023-03-15 20:45:57:65,0.435485,7.92482,-5.69424,-54.1951,2.33365,134.357
2023-03-15 20:45:57:75,0.429779,7.91465,-5.69112,-54.1949,2.334,134.354
2023-03-15 20:45:57:85,0.422322,7.91338,-5.7002,-54.194,2.33406,134.354
2023-03-15 20:45:57:95,0.419522,7.91093,-5.71079,-54.1977,2.33669,134.356
2023-03-15 20:45:57:105,0.433254,7.91784,-5.71911,-54.1965,2.33831,134.357
2023-03-15 20:45:57:115,0.4299,7.91788,-5.70472,-54.1979,2.3362,134.354
2023-03-15 20:45:57:125,0.410896,7.91366,-5.70028,-54.1976,2.33495,134.355
2023-03-15 20:45:57:135,0.417197,7.91676,-5.69379,-54.1982,2.33239,134.353
2023-03-15 20:45:57:145,0.433154,7.91461,-5.69167,-54.2007,2.33384,134.352
2023-03-15 20:45:57:155,0.438556,7.92188,-5.70532,-54.1985,2.3349,134.353
2023-03-15 20:45:57:165,0.42761,7.92954,-5.69989,-54.1995,2.33435,134.352
2023-03-15 20:45:57:175,0.432535,7.92564,-5.69675,-54.1976,2.33005,134.356
2023-03-15 20:45:57:185,0.431646,7.92232,-5.70005,-54.1954,2.33034,134.357
2023-03-15 20:45:57:195,0.430969,7.91946,-5.7075,-54.1968,2.32811,134.358
2023-03-15 20:45:57:205,0.430686,7.92032,-5.70093,-54.1975,2.33008,134.357
2023-03-15 20:45:57:215,0.435005,7.92239,-5.70277,-54.1959,2.32709,134.357
2023-03-15 20:45:57:225,0.443461,7.92796,-5.70743,-54.1966,2.32692,134.356
2023-03-15 20:45:57:235,0.439543,7.92177,-5.70971,-54.1956,2.32823,134.356
2023-03-15 20:45:57:245,0.432165,7.92099,-5.7076,-54.1924,2.32708,134.359
2023-03-15 20:45:57:255,0.424331,7.92264,-5.71029,-54.1925,2.32767,134.36
2023-03-15 20:45:57:265,0.418252,7.92195,-5.69545,-54.1926,2.32991,134.362
2023-03-15 20:45:57:275,0.417331,7.9262,-5.69652,-54.1934,2.32846,134.361
2023-03-15 20:45:57:285,0.424197,7.92291,-5.70647,-54.1902,2.32861,134.363
2023-03-15 20:45:57:295,0.43166,7.93509,-5.69825,-54.1863,2.32887,134.366
2023-03-15 20:45:57:305,0.432982,7.92464,-5.70235,-54.185,2.33063,134.364
2023-03-15 20:45:57:315,0.428375,7.91088,-5.71758,-54.1843,2.32998,134.365
2023-03-15 20:45:57:325,0.426577,7.92329,-5.69968,-54.1828,2.331,134.361
2023-03-15 20:45:57:335,0.427248,7.91791,-5.68919,-54.183,2.33341,134.362
2023-03-15 20:45:57:345,0.432162,7.92358,-5.68392,-54.1825,2.32818,134.366
2023-03-15 20:45:57:355,0.437574,7.9236,-5.69136,-54.1855,2.32929,134.367
2023-03-15 20:45:57:365,0.435312,7.91536,-5.69957,-54.1852,2.32727,134.366
2023-03-15 20:45:57:375,0.43719,7.93095,-5.70462,-54.1869,2.32615,134.365
2023-03-15 20:45:57:385,0.434644,7.91541,-5.69234,-54.1857,2.32697,134.366
2023-03-15 20:45:57:395,0.417145,7.92827,-5.69831,-54.1871,2.32651,134.367
2023-03-15 20:45:57:405,0.423739,7.92238,-5.70379,-54.1913,2.32604,134.365
2023-03-15 20:45:57:415,0.418318,7.92492,-5.69473,-54.1888,2.32443,134.364
2023-03-15 20:45:57:425,0.406765,7.92204,-5.70459,-54.1925,2.32287,134.365
2023-03-15 20:45:57:435,0.421524,7.92394,-5.70832,-54.1891,2.32153,134.366
2023-03-15 20:45:57:445,0.415539,7.9231,-5.70257,-54.1896,2.31802,134.365
2023-03-15 20:45:57:455,0.422538,7.91673,-5.70788,-54.1846,2.31965,134.363
2023-03-15 20:45:57:465,0.438177,7.91935,-5.70075,-54.1862,2.31887,134.361
2023-03-15 20:45:57:475,0.448582,7.91011,-5.70423,-54.188,2.31822,134.363
2023-03-15 20:45:57:485,0.459554,7.9154,-5.69503,-54.19,2.31803,134.362
2023-03-15 20:45:57:495,0.430044,7.92749,-5.69496,-54.1926,2.31666,134.364
2023-03-15 20:45:57:505,0.423885,7.91865,-5.69793,-54.1903,2.31396,134.367
2023-03-15 20:45:57:515,0.409403,7.92653,-5.69449,-54.1888,2.31732,134.364
2023-03-15 20:45:57:525,0.409499,7.92791,-5.70205,-54.1916,2.31367,134.365
2023-03-15 20:45:57:535,0.413479,7.92336,-5.70044,-54.1919,2.31523,134.366
2023-03-15 20:45:57:545,0.430923,7.92787,-5.68717,-54.1931,2.3127,134.364
2023-03-15 20:45:57:555,0.449636,7.91389,-5.7024,-54.1901,2.3107,134.364
2023-03-15 20:45:57:565,0.450254,7.91072,-5.70887,-54.1911,2.31144,134.365
2023-03-15 20:45:57:575,0.449328,7.9177,-5.69746,-54.1915,2.30979,134.365
2023-03-15 20:45:57:585,0.432227,7.92668,-5.69675,-54.189,2.30999,134.365
2023-03-15 20:45:57:595,0.419558,7.92284,-5.69449,-54.185,2.30779,134.366
2023-03-15 20:45:57:605,0.414405,7.91291,-5.7038,-54.1837,2.30754,134.369
2023-03-15 20:45:57:615,0.402865,7.92714,-5.7083,-54.1847,2.30626,134.369
2023-03-15 20:45:57:625,0.417349,7.92634,-5.70804,-54.1838,2.30839,134.367
2023-03-15 20:45:57:635,0.429178,7.92815,-5.69429,-54.1845,2.31223,134.367
2023-03-15 20:45:57:645,0.443176,7.92734,-5.70555,-54.1806,2.31562,134.364
2023-03-15 20:45:57:655,0.472641,7.91141,-5.70408,-54.1817,2.31604,134.363
2023-03-15 20:45:57:665,0.467681,7.92951,-5.69617,-54.1836,2.31467,134.365
2023-03-15 20:45:57:675,0.460994,7.9265,-5.68959,-54.1833,2.31686,134.368
2023-03-15 20:45:57:685,0.426229,7.92228,-5.69586,-54.1847,2.31905,134.367
2023-03-15 20:45:57:695,0.403045,7.92257,-5.69863,-54.1844,2.31655,134.368
2023-03-15 20:45:57:705,0.401507,7.91932,-5.70216,-54.1847,2.31624,134.369
2023-03-15 20:45:57:715,0.417886,7.92165,-5.70429,-54.1831,2.31688,134.37
2023-03-15 20:45:57:725,0.43316,7.93471,-5.69445,-54.181,2.31675,134.371
2023-03-15 20:45:57:735,0.438953,7.92254,-5.70395,-54.1793,2.31856,134.369
2023-03-15 20:45:57:745,0.438772,7.91493,-5.70236,-54.1785,2.31879,134.367
2023-03-15 20:45:57:755,0.440185,7.92838,-5.69555,-54.1734,2.31947,134.368
2023-03-15 20:45:57:765,0.423969,7.92436,-5.70607,-54.1751,2.31778,134.371
2023-03-15 20:45:57:775,0.407451,7.93199,-5.69247,-54.1755,2.31817,134.37
2023-03-15 20:45:57:785,0.408751,7.93256,-5.70117,-54.1771,2.31829,134.369
2023-03-15 20:45:57:795,0.416077,7.92839,-5.70374,-54.1775,2.31686,134.373
2023-03-15 20:45:57:805,0.424385,7.93221,-5.68631,-54.1774,2.31842,134.371
2023-03-15 20:45:57:815,0.438258,7.92305,-5.70005,-54.1789,2.31802,134.369
2023-03-15 20:45:57:825,0.441291,7.92625,-5.70017,-54.1742,2.31763,134.374
2023-03-15 20:45:57:835,0.44678,7.93532,-5.68997,-54.1725,2.32135,134.376
2023-03-15 20:45:57:845,0.440335,7.91415,-5.72056,-54.1717,2.32298,134.376
2023-03-15 20:45:57:855,0.419311,7.91637,-5.71248,-54.1711,2.32357,134.378
2023-03-15 20:45:57:865,0.413729,7.93174,-5.70414,-54.1715,2.32243,134.381
2023-03-15 20:45:57:875,0.410669,7.9315,-5.70459,-54.1711,2.32366,134.379
2023-03-15 20:45:57:885,0.418678,7.92082,-5.69667,-54.1746,2.32192,134.378
2023-03-15 20:45:57:895,0.421563,7.9217,-5.6971,-54.1747,2.32508,134.38
2023-03-15 20:45:57:905,0.428335,7.92954,-5.69941,-54.1775,2.32228,134.38
2023-03-15 20:45:57:915,0.44894,7.92416,-5.71266,-54.1758,2.32102,134.381
2023-03-15 20:45:57:925,0.437099,7.91519,-5.70081,-54.1752,2.31892,134.378
2023-03-15 20:45:57:935,0.43427,7.92461,-5.69499,-54.1756,2.32228,134.38
2023-03-15 20:45:57:945,0.426225,7.92888,-5.7023,-54.1757,2.32442,134.377
2023-03-15 20:45:57:955,0.42467,7.91635,-5.70588,-54.1732,2.32304,134.376
2023-03-15 20:45:57:965,0.425583,7.91678,-5.70118,-54.1735,2.32285,134.377
2023-03-15 20:45:57:975,0.434898,7.91822,-5.70209,-54.1737,2.32538,134.374
2023-03-15 20:45:57:985,0.434437,7.91751,-5.70006,-54.1718,2.32557,134.371
2023-03-15 20:45:57:995,0.43918,7.92865,-5.69091,-54.1702,2.3227,134.373
2023-03-15 20:45:58:5,0.437194,7.92553,-5.68998,-54.1705,2.32435,134.37
2023-03-15 20:45:58:15,0.430496,7.92212,-5.69566,-54.1689,2.3263,134.376
2023-03-15 20:45:58:25,0.421469,7.92911,-5.69268,-54.1714,2.32542,134.374
2023-03-15 20:45:58:35,0.424404,7.92133,-5.70452,-54.1685,2.32564,134.374
2023-03-15 20:45:58:45,0.423828,7.92656,-5.69123,-54.1686,2.3252,134.374
2023-03-15 20:45:58:55,0.42332,7.91363,-5.70536,-54.1711,2.32423,134.376
2023-03-15 20:45:58:65,0.437351,7.90906,-5.70451,-54.1723,2.32127,134.374
2023-03-15 20:45:58:75,0.432249,7.92049,-5.69964,-54.1732,2.31966,134.375
2023-03-15 20:45:58:85,0.430578,7.92462,-5.69324,-54.1697,2.31958,134.376
2023-03-15 20:45:58:95,0.425907,7.92566,-5.69385,-54.1701,2.3164,134.376
2023-03-15 20:45:58:105,0.416569,7.93396,-5.68771,-54.1724,2.31508,134.376
2023-03-15 20:45:58:115,0.420991,7.93307,-5.68896,-54.1724,2.31398,134.378
2023-03-15 20:45:58:125,0.421367,7.92183,-5.69094,-54.1754,2.31308,134.376
2023-03-15 20:45:58:135,0.426398,7.90396,-5.69999,-54.1747,2.31338,134.375
2023-03-15 20:45:58:145,0.431384,7.91575,-5.68996,-54.1739,2.31106,134.374
2023-03-15 20:45:58:155,0.43489,7.92338,-5.6988,-54.1736,2.31367,134.373
2023-03-15 20:45:58:165,0.429626,7.91914,-5.70757,-54.1717,2.31263,134.376
2023-03-15 20:45:58:175,0.421416,7.9235,-5.6937,-54.1702,2.31391,134.375
2023-03-15 20:45:58:185,0.421828,7.92528,-5.69064,-54.1692,2.31822,134.372
2023-03-15 20:45:58:195,0.417017,7.9261,-5.68855,-54.168,2.3194,134.372
2023-03-15 20:45:58:205,0.415472,7.92188,-5.6946,-54.1706,2.318,134.369
2023-03-15 20:45:58:215,0.423435,7.931,-5.6979,-54.1731,2.31852,134.366
2023-03-15 20:45:58:225,0.421287,7.92271,-5.70174,-54.1721,2.3167,134.365
2023-03-15 20:45:58:235,0.424098,7.91763,-5.69541,-54.1704,2.31522,134.362
2023-03-15 20:45:58:245,0.43285,7.92359,-5.70308,-54.1709,2.31361,134.362
2023-03-15 20:45:58:255,0.444586,7.9139,-5.71232,-54.1677,2.31051,134.362
2023-03-15 20:45:58:265,0.441169,7.9187,-5.70249,-54.1686,2.31083,134.364
2023-03-15 20:45:58:275,0.425338,7.90943,-5.70869,-54.1691,2.31037,134.366
2023-03-15 20:45:58:285,0.418068,7.91915,-5.71565,-54.1708,2.30518,134.365
2023-03-15 20:45:58:295,0.417091,7.92302,-5.70291,-54.1698,2.30194,134.365
2023-03-15 20:45:58:305,0.419422,7.91358,-5.70029,-54.1692,2.30085,134.361
2023-03-15 20:45:58:315,0.416425,7.92654,-5.70341,-54.1682,2.29989,134.36
2023-03-15 20:45:58:325,0.436134,7.91332,-5.7029,-54.1669,2.29857,134.358
2023-03-15 20:45:58:335,0.440417,7.91359,-5.71114,-54.1639,2.29788,134.359
2023-03-15 20:45:58:345,0.446392,7.92112,-5.70158,-54.1626,2.29713,134.361
2023-03-15 20:45:58:355,0.441731,7.91604,-5.70532,-54.1631,2.29516,134.36
2023-03-15 20:45:58:365,0.426602,7.92853,-5.70644,-54.1627,2.29512,134.36
2023-03-15 20:45:58:375,0.410795,7.9296,-5.71148,-54.1639,2.29664,134.358
2023-03-15 20:45:58:385,0.412781,7.92531,-5.69687,-54.1642,2.2981,134.357
2023-03-15 20:45:58:395,0.418852,7.91978,-5.70721,-54.1661,2.29931,134.352
2023-03-15 20:45:58:405,0.421444,7.93594,-5.69085,-54.1663,2.30063,134.354
2023-03-15 20:45:58:415,0.441052,7.9277,-5.69994,-54.166,2.30178,134.354
2023-03-15 20:45:58:425,0.4378,7.92871,-5.70429,-54.1648,2.30045,134.352
2023-03-15 20:45:58:435,0.41868,7.9288,-5.71205,-54.1664,2.30118,134.351
2023-03-15 20:45:58:445,0.42721,7.91526,-5.71198,-54.1661,2.30221,134.353
2023-03-15 20:45:58:455,0.430584,7.92962,-5.68945,-54.166,2.3045,134.351
2023-03-15 20:45:58:465,0.423052,7.92626,-5.69901,-54.1647,2.30357,134.354
2023-03-15 20:45:58:475,0.426445,7.91756,-5.70444,-54.1646,2.30171,134.352
2023-03-15 20:45:58:485,0.432419,7.91903,-5.70021,-54.1647,2.30834,134.351
2023-03-15 20:45:58:495,0.432785,7.91965,-5.6934,-54.1664,2.30599,134.354
2023-03-15 20:45:58:505,0.434902,7.9254,-5.69613,-54.1646,2.30511,134.357
2023-03-15 20:45:58:515,0.431042,7.9275,-5.6944,-54.1596,2.3057,134.355
2023-03-15 20:45:58:525,0.431445,7.92508,-5.69609,-54.1582,2.30783,134.36
2023-03-15 20:45:58:535,0.412896,7.92097,-5.69766,-54.1585,2.30908,134.361
2023-03-15 20:45:58:545,0.417452,7.91893,-5.70338,-54.1594,2.30859,134.359
2023-03-15 20:45:58:555,0.42294,7.91999,-5.71058,-54.1589,2.30879,134.361
2023-03-15 20:45:58:565,0.431804,7.92437,-5.69398,-54.1589,2.30952,134.364
2023-03-15 20:45:58:575,0.435014,7.93647,-5.68417,-54.1601,2.30994,134.363
2023-03-15 20:45:58:585,0.427491,7.92344,-5.70132,-54.1593,2.3096,134.362
2023-03-15 20:45:58:595,0.428285,7.92568,-5.71205,-54.161,2.3087,134.363
2023-03-15 20:45:58:605,0.430039,7.92228,-5.70572,-54.1605,2.30802,134.364
2023-03-15 20:45:58:615,0.431032,7.92053,-5.70361,-54.1616,2.308,134.364
2023-03-15 20:45:58:625,0.419923,7.91874,-5.69569,-54.1618,2.31107,134.364
2023-03-15 20:45:58:635,0.420983,7.924,-5.7002,-54.1618,2.31041,134.365
2023-03-15 20:45:58:645,0.422231,7.92953,-5.7008,-54.1588,2.3113,134.365
2023-03-15 20:45:58:655,0.428579,7.93147,-5.69974,-54.1577,2.31226,134.36
2023-03-15 20:45:58:665,0.433701,7.91829,-5.7033,-54.1602,2.31195,134.362
2023-03-15 20:45:58:675,0.424246,7.91581,-5.71147,-54.164,2.30971,134.362
2023-03-15 20:45:58:685,0.431136,7.92144,-5.69947,-54.1657,2.31212,134.361
2023-03-15 20:45:58:695,0.432904,7.92943,-5.70424,-54.1645,2.31185,134.365
2023-03-15 20:45:58:705,0.432975,7.91893,-5.70346,-54.1674,2.31,134.362
2023-03-15 20:45:58:715,0.431602,7.91748,-5.7049,-54.1668,2.30894,134.362
2023-03-15 20:45:58:725,0.431347,7.92109,-5.70386,-54.1657,2.30855,134.362
2023-03-15 20:45:58:735,0.429624,7.91001,-5.7072,-54.1659,2.30771,134.361
2023-03-15 20:45:58:745,0.432066,7.91528,-5.69873,-54.1649,2.30497,134.357
2023-03-15 20:45:58:755,0.429215,7.91645,-5.70227,-54.1653,2.30515,134.355
2023-03-15 20:45:58:765,0.428869,7.92789,-5.69599,-54.1629,2.3058,134.357
2023-03-15 20:45:58:775,0.432922,7.92728,-5.69263,-54.1605,2.30287,134.357
2023-03-15 20:45:58:785,0.427573,7.91529,-5.69706,-54.1598,2.30219,134.358
2023-03-15 20:45:58:795,0.433805,7.91549,-5.7024,-54.1616,2.30177,134.359
2023-03-15 20:45:58:805,0.430327,7.91451,-5.69497,-54.1625,2.30111,134.356
2023-03-15 20:45:58:815,0.43483,7.92758,-5.69501,-54.1613,2.29893,134.354
2023-03-15 20:45:58:825,0.426381,7.92546,-5.70837,-54.1598,2.29905,134.355
2023-03-15 20:45:58:835,0.42052,7.92943,-5.69259,-54.1594,2.2979,134.353
2023-03-15 20:45:58:845,0.431371,7.93983,-5.69552,-54.159,2.29847,134.355
2023-03-15 20:45:58:855,0.432298,7.92246,-5.69381,-54.1594,2.29787,134.355
2023-03-15 20:45:58:865,0.416698,7.9135,-5.69011,-54.1604,2.29816,134.354
2023-03-15 20:45:58:875,0.426335,7.91398,-5.70053,-54.161,2.29841,134.353
2023-03-15 20:45:58:885,0.438572,7.91641,-5.70772,-54.1607,2.30043,134.352
2023-03-15 20:45:58:895,0.429174,7.91982,-5.7031,-54.1589,2.29967,134.354
2023-03-15 20:45:58:905,0.434213,7.92068,-5.69577,-54.1602,2.29764,134.353
2023-03-15 20:45:58:915,0.436683,7.93171,-5.68944,-54.1597,2.29764,134.354
2023-03-15 20:45:58:925,0.439612,7.92497,-5.70129,-54.157,2.29937,134.354
2023-03-15 20:45:58:935,0.431738,7.92538,-5.6887,-54.1576,2.29802,134.356
2023-03-15 20:45:58:945,0.42583,7.92825,-5.68087,-54.1582,2.29928,134.356
2023-03-15 20:45:58:955,0.429907,7.92693,-5.69608,-54.1598,2.29663,134.36
2023-03-15 20:45:58:965,0.424163,7.92551,-5.70169,-54.161,2.29699,134.359
2023-03-15 20:45:58:975,0.430996,7.91454,-5.70082,-54.1605,2.2975,134.358
2023-03-15 20:45:58:985,0.432084,7.93968,-5.68464,-54.1603,2.29667,134.36
2023-03-15 20:45:58:995,0.430764,7.9319,-5.69579,-54.1601,2.29878,134.358
2023-03-15 20:45:59:5,0.429854,7.92381,-5.69501,-54.1607,2.29926,134.358
2023-03-15 20:45:59:15,0.444511,7.92124,-5.70546,-54.1605,2.3014,134.357
2023-03-15 20:45:59:25,0.425616,7.92633,-5.70017,-54.1586,2.30143,134.358
2023-03-15 20:45:59:35,0.430998,7.92374,-5.70354,-54.1591,2.30266,134.359
2023-03-15 20:45:59:45,0.427065,7.91253,-5.70134,-54.1585,2.30247,134.362
2023-03-15 20:45:59:55,0.432667,7.93535,-5.68528,-54.1615,2.30204,134.359
2023-03-15 20:45:59:65,0.438404,7.92399,-5.70233,-54.1627,2.30204,134.361
2023-03-15 20:45:59:75,0.440378,7.9204,-5.69973,-54.1622,2.30272,134.361
2023-03-15 20:45:59:85,0.43348,7.92542,-5.70358,-54.1669,2.30394,134.359
2023-03-15 20:45:59:95,0.437796,7.9216,-5.69988,-54.1664,2.30552,134.358
2023-03-15 20:45:59:105,0.429255,7.93071,-5.69366,-54.1664,2.30332,134.357
2023-03-15 20:45:59:115,0.429663,7.92426,-5.69875,-54.1662,2.30619,134.357
2023-03-15 20:45:59:125,0.438174,7.92368,-5.70127,-54.1648,2.30843,134.355
2023-03-15 20:45:59:135,0.431961,7.93031,-5.69847,-54.164,2.30768,134.353
2023-03-15 20:45:59:145,0.429237,7.93315,-5.69405,-54.1667,2.30802,134.353
2023-03-15 20:45:59:155,0.435456,7.92971,-5.68306,-54.1632,2.30631,134.352
2023-03-15 20:45:59:165,0.424134,7.93142,-5.68968,-54.1638,2.30576,134.352
2023-03-15 20:45:59:175,0.422546,7.9274,-5.70142,-54.1677,2.30526,134.35
2023-03-15 20:45:59:185,0.43132,7.92224,-5.70464,-54.1701,2.30499,134.35
2023-03-15 20:45:59:195,0.43054,7.92638,-5.69824,-54.1678,2.30562,134.347
2023-03-15 20:45:59:205,0.434048,7.92515,-5.70282,-54.1669,2.30545,134.346
2023-03-15 20:45:59:215,0.433874,7.90642,-5.70913,-54.1612,2.30527,134.345
2023-03-15 20:45:59:225,0.44158,7.91488,-5.70439,-54.1578,2.30678,134.343
2023-03-15 20:45:59:235,0.428338,7.92467,-5.69213,-54.1568,2.30797,134.342
2023-03-15 20:45:59:245,0.433213,7.92197,-5.69866,-54.1565,2.30956,134.342
2023-03-15 20:45:59:255,0.423963,7.93569,-5.68694,-54.1569,2.31233,134.342
2023-03-15 20:45:59:265,0.430237,7.92279,-5.68678,-54.1579,2.31314,134.341
2023-03-15 20:45:59:275,0.432016,7.92319,-5.69638,-54.1623,2.3143,134.341
2023-03-15 20:45:59:285,0.435587,7.92015,-5.70557,-54.1619,2.31458,134.341
2023-03-15 20:45:59:295,0.423252,7.92231,-5.70724,-54.1608,2.31291,134.342
2023-03-15 20:45:59:305,0.430236,7.93205,-5.70087,-54.161,2.31373,134.341
2023-03-15 20:45:59:315,0.42739,7.92871,-5.70812,-54.1606,2.31363,134.341
2023-03-15 20:45:59:325,0.430729,7.92698,-5.7041,-54.1612,2.31685,134.34
2023-03-15 20:45:59:335,0.448238,7.91575,-5.70576,-54.1605,2.31529,134.341
2023-03-15 20:45:59:345,0.433442,7.9285,-5.69463,-54.1588,2.31482,134.34
2023-03-15 20:45:59:355,0.420868,7.92581,-5.70034,-54.1576,2.3146,134.343
2023-03-15 20:45:59:365,0.431056,7.9307,-5.70006,-54.1593,2.31356,134.344
2023-03-15 20:45:59:375,0.433695,7.93052,-5.69115,-54.1583,2.31258,134.345
2023-03-15 20:45:59:385,0.444254,7.92127,-5.69617,-54.159,2.31395,134.345
2023-03-15 20:45:59:395,0.434481,7.92728,-5.69667,-54.1593,2.31414,134.345
2023-03-15 20:45:59:405,0.432504,7.91699,-5.70057,-54.1589,2.314,134.343
2023-03-15 20:45:59:415,0.432307,7.91986,-5.69223,-54.1576,2.31433,134.343
2023-03-15 20:45:59:425,0.426469,7.91077,-5.69536,-54.1548,2.31444,134.344
2023-03-15 20:45:59:435,0.430704,7.91945,-5.703,-54.1545,2.31267,134.345
2023-03-15 20:45:59:445,0.42925,7.92485,-5.69879,-54.156,2.31323,134.344
2023-03-15 20:45:59:455,0.426558,7.9195,-5.68673,-54.1583,2.31636,134.343
2023-03-15 20:45:59:465,0.434119,7.93104,-5.68759,-54.1556,2.31557,134.342
2023-03-15 20:45:59:475,0.43259,7.92829,-5.70112,-54.156,2.31737,134.342
2023-03-15 20:45:59:485,0.430088,7.92126,-5.69749,-54.1558,2.31995,134.342
2023-03-15 20:45:59:495,0.427401,7.92478,-5.69902,-54.1556,2.32338,134.34
2023-03-15 20:45:59:505,0.436744,7.91696,-5.70402,-54.1535,2.32293,134.34
2023-03-15 20:45:59:515,0.436269,7.91995,-5.71101,-54.1562,2.32435,134.339
2023-03-15 20:45:59:525,0.430514,7.92233,-5.70399,-54.1567,2.32264,134.341
2023-03-15 20:45:59:535,0.437256,7.92305,-5.69464,-54.1563,2.32108,134.342
2023-03-15 20:45:59:545,0.424688,7.92713,-5.70517,-54.1578,2.32027,134.341
2023-03-15 20:45:59:555,0.43523,7.92578,-5.70438,-54.158,2.31729,134.342
2023-03-15 20:45:59:565,0.433403,7.92725,-5.70039,-54.1584,2.31547,134.343
2023-03-15 20:45:59:575,0.428715,7.90923,-5.70788,-54.1592,2.31737,134.346
2023-03-15 20:45:59:585,0.432575,7.9236,-5.69558,-54.1562,2.31755,134.342
2023-03-15 20:45:59:595,0.41867,7.92941,-5.70073,-54.1547,2.31757,134.341
2023-03-15 20:45:59:605,0.42377,7.91484,-5.69755,-54.1531,2.3168,134.342
2023-03-15 20:45:59:615,0.423585,7.91514,-5.70063,-54.1511,2.3178,134.341
2023-03-15 20:45:59:625,0.432834,7.93152,-5.69724,-54.1511,2.31955,134.341
2023-03-15 20:45:59:635,0.441194,7.93152,-5.69798,-54.1521,2.31972,134.342
2023-03-15 20:45:59:645,0.440369,7.92399,-5.69672,-54.1571,2.31863,134.341
2023-03-15 20:45:59:655,0.440128,7.93183,-5.70032,-54.1568,2.31731,134.343
2023-03-15 20:45:59:665,0.433248,7.9254,-5.70127,-54.1553,2.31847,134.344
2023-03-15 20:45:59:675,0.445908,7.92246,-5.69895,-54.1537,2.32231,134.345
2023-03-15 20:45:59:685,0.434995,7.92933,-5.68978,-54.153,2.32477,134.342
2023-03-15 20:45:59:695,0.420873,7.93308,-5.69275,-54.1539,2.32655,134.342
2023-03-15 20:45:59:705,0.406317,7.92871,-5.69639,-54.1542,2.32449,134.342
2023-03-15 20:45:59:715,0.417871,7.92708,-5.69081,-54.1558,2.32611,134.344
2023-03-15 20:45:59:725,0.425506,7.92788,-5.69066,-54.155,2.32572,134.343
2023-03-15 20:45:59:735,0.431527,7.92279,-5.69653,-54.1543,2.32557,134.343
2023-03-15 20:45:59:745,0.443109,7.92101,-5.70923,-54.1539,2.3243,134.345
2023-03-15 20:45:59:755,0.43248,7.92608,-5.69559,-54.155,2.32464,134.347
2023-03-15 20:45:59:765,0.432287,7.92564,-5.70045,-54.1589,2.32703,134.346
2023-03-15 20:45:59:775,0.429369,7.92499,-5.69279,-54.1579,2.32963,134.343
2023-03-15 20:45:59:785,0.414374,7.91912,-5.70275,-54.1564,2.33241,134.342
2023-03-15 20:45:59:795,0.422949,7.92596,-5.70109,-54.1531,2.33261,134.341
2023-03-15 20:45:59:805,0.418609,7.92805,-5.69927,-54.1543,2.33293,134.338
2023-03-15 20:45:59:815,0.436488,7.9239,-5.69902,-54.1547,2.3298,134.338
2023-03-15 20:45:59:825,0.431656,7.92978,-5.69494,-54.1521,2.33029,134.34
2023-03-15 20:45:59:835,0.429514,7.92262,-5.69749,-54.1529,2.33202,134.339
2023-03-15 20:45:59:845,0.428954,7.91447,-5.70369,-54.1519,2.33296,134.34
2023-03-15 20:45:59:855,0.432282,7.9066,-5.70628,-54.1501,2.33111,134.337
2023-03-15 20:45:59:865,0.426746,7.90887,-5.70234,-54.1499,2.33358,134.339
2023-03-15 20:45:59:875,0.432804,7.92399,-5.69688,-54.1512,2.33394,134.339
2023-03-15 20:45:59:885,0.422931,7.92368,-5.70554,-54.1517,2.33394,134.339
2023-03-15 20:45:59:895,0.41424,7.92156,-5.69837,-54.1495,2.33266,134.341
2023-03-15 20:45:59:905,0.43122,7.91417,-5.69243,-54.1509,2.3303,134.344
2023-03-15 20:45:59:915,0.435147,7.92166,-5.69859,-54.1518,2.32896,134.345
2023-03-15 20:45:59:925,0.43014,7.91639,-5.69511,-54.1527,2.32844,134.343
2023-03-15 20:45:59:935,0.433138,7.90672,-5.71156,-54.1507,2.32575,134.343
2023-03-15 20:45:59:945,0.423413,7.91802,-5.70113,-54.1518,2.32743,134.346
2023-03-15 20:45:59:955,0.424984,7.92856,-5.69698,-54.1508,2.32647,134.346
2023-03-15 20:45:59:965,0.423511,7.92183,-5.69539,-54.1511,2.32626,134.345
2023-03-15 20:45:59:975,0.427501,7.91607,-5.70433,-54.1535,2.32652,134.344
2023-03-15 20:45:59:985,0.422629,7.92482,-5.70318,-54.1532,2.32916,134.346
2023-03-15 20:45:59:995,0.423697,7.93178,-5.69431,-54.1537,2.32926,134.346
2023-03-15 20:46:00:5,0.436384,7.92798,-5.7001,-54.1549,2.3305,134.344
2023-03-15 20:46:00:15,0.432581,7.92811,-5.69227,-54.1571,2.33289,134.342
2023-03-15 20:46:00:25,0.420935,7.9362,-5.68358,-54.1593,2.33224,134.344
2023-03-15 20:46:00:35,0.424488,7.93275,-5.68401,-54.1583,2.33225,134.339
2023-03-15 20:46:00:45,0.43297,7.93003,-5.69277,-54.157,2.33192,134.339
2023-03-15 20:46:00:55,0.437518,7.92185,-5.70414,-54.1546,2.33477,134.334
2023-03-15 20:46:00:65,0.422056,7.92199,-5.69578,-54.1559,2.33637,134.334
2023-03-15 20:46:00:75,0.409856,7.92604,-5.6999,-54.1554,2.33847,134.333
2023-03-15 20:46:00:85,0.420363,7.93618,-5.69543,-54.1547,2.33947,134.333
2023-03-15 20:46:00:95,0.416957,7.93002,-5.69334,-54.157,2.3385,134.332
2023-03-15 20:46:00:105,0.433064,7.91545,-5.70325,-54.1559,2.34003,134.334
2023-03-15 20:46:00:115,0.441171,7.91253,-5.70746,-54.1561,2.34123,134.334
2023-03-15 20:46:00:125,0.446055,7.91703,-5.69569,-54.1551,2.33929,134.334
2023-03-15 20:46:00:135,0.441026,7.9269,-5.69325,-54.1514,2.33924,134.333
2023-03-15 20:46:00:145,0.436125,7.92465,-5.70544,-54.1531,2.34145,134.334
2023-03-15 20:46:00:155,0.416725,7.91955,-5.70123,-54.1525,2.3402,134.334
2023-03-15 20:46:00:165,0.420992,7.93916,-5.6951,-54.1526,2.33642,134.337
2023-03-15 20:46:00:175,0.423991,7.92974,-5.69963,-54.1523,2.33705,134.339
2023-03-15 20:46:00:185,0.430842,7.9204,-5.70582,-54.1528,2.33761,134.338
2023-03-15 20:46:00:195,0.429302,7.90973,-5.71671,-54.1521,2.33945,134.339
2023-03-15 20:46:00:205,0.43976,7.91854,-5.70842,-54.1492,2.34271,134.342
2023-03-15 20:46:00:215,0.437959,7.92924,-5.69303,-54.1459,2.34113,134.345
2023-03-15 20:46:00:225,0.429619,7.9245,-5.69366,-54.1467,2.34322,134.345
2023-03-15 20:46:00:235,0.417002,7.92789,-5.69995,-54.147,2.34354,134.342
2023-03-15 20:46:00:245,0.415246,7.92557,-5.70041,-54.1477,2.34513,134.343
2023-03-15 20:46:00:255,0.41698,7.92731,-5.69257,-54.1455,2.34372,134.343
2023-03-15 20:46:00:265,0.41481,7.9278,-5.69182,-54.1457,2.34306,134.344
2023-03-15 20:46:00:275,0.431093,7.92493,-5.70057,-54.1454,2.34106,134.344
2023-03-15 20:46:00:285,0.432533,7.92549,-5.70099,-54.1465,2.33997,134.343
2023-03-15 20:46:00:295,0.428347,7.92355,-5.69251,-54.1458,2.34027,134.344
2023-03-15 20:46:00:305,0.437162,7.91997,-5.69972,-54.1437,2.34137,134.344
2023-03-15 20:46:00:315,0.441076,7.9151,-5.70737,-54.1463,2.34068,134.344
2023-03-15 20:46:00:325,0.433723,7.93007,-5.69933,-54.1457,2.34155,134.344
2023-03-15 20:46:00:335,0.425983,7.92343,-5.69694,-54.1465,2.34189,134.346
2023-03-15 20:46:00:345,0.423582,7.92263,-5.70681,-54.1483,2.33793,134.347
2023-03-15 20:46:00:355,0.422633,7.91846,-5.70816,-54.145,2.33807,134.345
2023-03-15 20:46:00:365,0.42941,7.91565,-5.70781,-54.1435,2.33719,134.346
2023-03-15 20:46:00:375,0.429443,7.92674,-5.69391,-54.1461,2.33828,134.346
2023-03-15 20:46:00:385,0.431633,7.91781,-5.68756,-54.1494,2.33821,134.347
2023-03-15 20:46:00:395,0.436058,7.91821,-5.69824,-54.1491,2.34009,134.347
2023-03-15 20:46:00:405,0.438878,7.92306,-5.70405,-54.1486,2.34114,134.347
2023-03-15 20:46:00:415,0.431251,7.91145,-5.71228,-54.1488,2.33953,134.346
2023-03-15 20:46:00:425,0.42929,7.91803,-5.71123,-54.1485,2.34094,134.346
2023-03-15 20:46:00:435,0.435327,7.92901,-5.70129,-54.1445,2.3388,134.349
2023-03-15 20:46:00:445,0.429982,7.91962,-5.70296,-54.1467,2.33886,134.345
2023-03-15 20:46:00:455,0.423656,7.92448,-5.70618,-54.1448,2.33833,134.343
2023-03-15 20:46:00:465,0.438892,7.91969,-5.70509,-54.1466,2.34076,134.341
2023-03-15 20:46:00:475,0.430145,7.92543,-5.69764,-54.1461,2.34032,134.338
2023-03-15 20:46:00:485,0.432355,7.92942,-5.70012,-54.1474,2.33751,134.336
2023-03-15 20:46:00:495,0.429132,7.92445,-5.70493,-54.1486,2.33791,134.334
2023-03-15 20:46:00:505,0.440306,7.91025,-5.70723,-54.1505,2.3396,134.336
2023-03-15 20:46:00:515,0.428097,7.91825,-5.69773,-54.1467,2.34008,134.336
2023-03-15 20:46:00:525,0.42053,7.92759,-5.70176,-54.1479,2.34039,134.337
2023-03-15 20:46:00:535,0.423066,7.92748,-5.69593,-54.1462,2.34102,134.335
2023-03-15 20:46:00:545,0.440344,7.9257,-5.68888,-54.1481,2.34217,134.333
2023-03-15 20:46:00:555,0.425551,7.92635,-5.69798,-54.1467,2.34564,134.33
2023-03-15 20:46:00:565,0.438861,7.92526,-5.69357,-54.1511,2.34361,134.331
2023-03-15 20:46:00:575,0.444322,7.9112,-5.69794,-54.1525,2.34432,134.331
2023-03-15 20:46:00:585,0.444919,7.91575,-5.70008,-54.1501,2.3436,134.334
2023-03-15 20:46:00:595,0.429463,7.91727,-5.70115,-54.1496,2.3434,134.332
2023-03-15 20:46:00:605,0.415467,7.92,-5.7097,-54.1502,2.33978,134.333
2023-03-15 20:46:00:615,0.42685,7.92732,-5.68656,-54.1478,2.33944,134.335
2023-03-15 20:46:00:625,0.418509,7.93386,-5.70022,-54.1499,2.34076,134.337
2023-03-15 20:46:00:635,0.424159,7.92162,-5.70736,-54.1488,2.3396,134.338
2023-03-15 20:46:00:645,0.418182,7.91958,-5.71256,-54.1509,2.33769,134.336
2023-03-15 20:46:00:655,0.436367,7.91548,-5.70397,-54.1511,2.33758,134.334
2023-03-15 20:46:00:665,0.43233,7.9212,-5.69048,-54.1512,2.34194,134.331
2023-03-15 20:46:00:675,0.423269,7.91985,-5.69915,-54.1536,2.33818,134.334
2023-03-15 20:46:00:685,0.435844,7.91157,-5.70207,-54.1556,2.34061,134.334
2023-03-15 20:46:00:695,0.422511,7.92215,-5.70166,-54.1593,2.33913,134.333
2023-03-15 20:46:00:705,0.422215,7.92338,-5.6972,-54.1607,2.33598,134.332
2023-03-15 20:46:00:715,0.427071,7.92568,-5.70213,-54.1598,2.33692,134.333
2023-03-15 20:46:00:725,0.430838,7.91856,-5.6989,-54.1627,2.33921,134.331
2023-03-15 20:46:00:735,0.430342,7.92299,-5.69664,-54.1611,2.34362,134.327
2023-03-15 20:46:00:745,0.421837,7.92486,-5.71416,-54.1626,2.34364,134.324
2023-03-15 20:46:00:755,0.420518,7.92797,-5.69404,-54.1625,2.34392,134.322
2023-03-15 20:46:00:765,0.419726,7.92775,-5.68202,-54.1651,2.34242,134.323
2023-03-15 20:46:00:775,0.427276,7.92548,-5.69613,-54.1656,2.34008,134.321
2023-03-15 20:46:00:785,0.436978,7.91125,-5.71223,-54.1668,2.3375,134.322
2023-03-15 20:46:00:795,0.423024,7.9146,-5.70366,-54.168,2.33979,134.319
2023-03-15 20:46:00:805,0.431612,7.9216,-5.69997,-54.1652,2.34092,134.319
2023-03-15 20:46:00:815,0.420526,7.92863,-5.68147,-54.1661,2.33922,134.316
2023-03-15 20:46:00:825,0.410391,7.92886,-5.69265,-54.1684,2.33909,134.315
2023-03-15 20:46:00:835,0.411133,7.92528,-5.71527,-54.1712,2.33762,134.312
2023-03-15 20:46:00:845,0.419637,7.92019,-5.7007,-54.1717,2.33442,134.311
2023-03-15 20:46:00:855,0.430287,7.95178,-5.69058,-54.1744,2.33218,134.31
2023-03-15 20:46:00:865,0.444072,7.92623,-5.70829,-54.1756,2.3313,134.309
2023-03-15 20:46:00:875,0.458212,7.91775,-5.70685,-54.1777,2.33122,134.308
2023-03-15 20:46:00:885,0.449112,7.90919,-5.70452,-54.1779,2.33476,134.308
2023-03-15 20:46:00:895,0.450339,7.94132,-5.69625,-54.1801,2.3298,134.308
2023-03-15 20:46:00:905,0.441677,7.92392,-5.69697,-54.1829,2.33093,134.309
2023-03-15 20:46:00:915,0.435733,7.9361,-5.68545,-54.1842,2.33011,134.309
2023-03-15 20:46:00:925,0.424628,7.93876,-5.68413,-54.1853,2.32889,134.308
2023-03-15 20:46:00:935,0.426601,7.9309,-5.6846,-54.1865,2.33012,134.31
2023-03-15 20:46:00:945,0.418072,7.93073,-5.68531,-54.1894,2.33114,134.312
2023-03-15 20:46:00:955,0.422365,7.91356,-5.70702,-54.1846,2.33539,134.313
2023-03-15 20:46:00:965,0.42231,7.89616,-5.71838,-54.1801,2.33784,134.31
2023-03-15 20:46:00:975,0.427429,7.90751,-5.71249,-54.1809,2.33909,134.309
2023-03-15 20:46:00:985,0.423293,7.88222,-5.73894,-54.185,2.33418,134.306
2023-03-15 20:46:00:995,0.428309,7.92026,-5.70241,-54.1947,2.32629,134.3
2023-03-15 20:46:01:5,0.428186,7.93635,-5.7055,-54.1959,2.32524,134.298
2023-03-15 20:46:01:15,0.423989,7.93416,-5.69805,-54.194,2.32719,134.298
2023-03-15 20:46:01:25,0.42881,7.92843,-5.69272,-54.1954,2.32891,134.297
2023-03-15 20:46:01:35,0.423411,7.93011,-5.693,-54.1996,2.32738,134.298
2023-03-15 20:46:01:45,0.440684,7.92671,-5.69819,-54.2006,2.3271,134.299
2023-03-15 20:46:01:55,0.448132,7.91337,-5.70291,-54.2028,2.32662,134.299
2023-03-15 20:46:01:65,0.442197,7.92872,-5.69838,-54.2028,2.32612,134.298
2023-03-15 20:46:01:75,0.423199,7.92401,-5.69369,-54.2041,2.32763,134.297
2023-03-15 20:46:01:85,0.422935,7.92891,-5.69266,-54.2029,2.32696,134.298
2023-03-15 20:46:01:95,0.432301,7.93234,-5.68499,-54.2026,2.32672,134.297
2023-03-15 20:46:01:105,0.422034,7.91937,-5.69196,-54.2018,2.32527,134.299
2023-03-15 20:46:01:115,0.404437,7.92954,-5.69231,-54.1997,2.32759,134.296
2023-03-15 20:46:01:125,0.398996,7.92424,-5.70367,-54.1966,2.32647,134.295
2023-03-15 20:46:01:135,0.425458,7.9195,-5.69661,-54.1956,2.32678,134.294
2023-03-15 20:46:01:145,0.420685,7.93843,-5.69512,-54.1978,2.32556,134.291
2023-03-15 20:46:01:155,0.413945,7.93368,-5.69746,-54.1998,2.32575,134.29
2023-03-15 20:46:01:165,0.421076,7.91881,-5.7029,-54.1965,2.32443,134.291
2023-03-15 20:46:01:175,0.427755,7.92906,-5.70424,-54.1945,2.32247,134.293
2023-03-15 20:46:01:185,0.426864,7.91323,-5.70812,-54.194,2.32371,134.296
2023-03-15 20:46:01:195,0.426138,7.92728,-5.69626,-54.193,2.32625,134.298
2023-03-15 20:46:01:205,0.433681,7.91879,-5.70563,-54.1924,2.32838,134.301
2023-03-15 20:46:01:215,0.432223,7.93355,-5.69457,-54.1917,2.32623,134.302
2023-03-15 20:46:01:225,0.418865,7.93894,-5.69104,-54.1918,2.32622,134.305
2023-03-15 20:46:01:235,0.431015,7.92419,-5.70278,-54.1947,2.32638,134.307
2023-03-15 20:46:01:245,0.421037,7.92304,-5.70462,-54.1973,2.32716,134.309
2023-03-15 20:46:01:255,0.422333,7.91813,-5.69714,-54.1989,2.32268,134.309
2023-03-15 20:46:01:265,0.424126,7.93559,-5.6897,-54.1978,2.32248,134.308
2023-03-15 20:46:01:275,0.418396,7.93467,-5.69361,-54.1978,2.32325,134.311
2023-03-15 20:46:01:285,0.425594,7.91696,-5.70334,-54.1986,2.32373,134.31
2023-03-15 20:46:01:295,0.427599,7.91244,-5.6966,-54.1961,2.32411,134.308
2023-03-15 20:46:01:305,0.427262,7.91315,-5.6983,-54.1967,2.32346,134.303
2023-03-15 20:46:01:315,0.425247,7.91839,-5.71601,-54.1943,2.32531,134.304
2023-03-15 20:46:01:325,0.432928,7.92529,-5.70501,-54.1915,2.32463,134.306
2023-03-15 20:46:01:335,0.428624,7.9179,-5.70581,-54.1899,2.32423,134.305
2023-03-15 20:46:01:345,0.421366,7.92087,-5.70592,-54.1893,2.3225,134.303
2023-03-15 20:46:01:355,0.417822,7.9182,-5.70886,-54.1882,2.32078,134.306
2023-03-15 20:46:01:365,0.427366,7.93303,-5.69987,-54.1891,2.3226,134.303
2023-03-15 20:46:01:375,0.432389,7.92129,-5.70482,-54.1892,2.32412,134.302
2023-03-15 20:46:01:385,0.438849,7.91849,-5.70414,-54.1913,2.32575,134.302
2023-03-15 20:46:01:395,0.42696,7.91883,-5.69086,-54.1949,2.3259,134.301
2023-03-15 20:46:01:405,0.436676,7.92058,-5.69147,-54.1993,2.32623,134.299
2023-03-15 20:46:01:415,0.426653,7.91932,-5.6989,-54.1991,2.32828,134.3
2023-03-15 20:46:01:425,0.428195,7.92207,-5.6952,-54.1963,2.32921,134.301
2023-03-15 20:46:01:435,0.409707,7.92926,-5.70908,-54.1951,2.33036,134.303
2023-03-15 20:46:01:445,0.409408,7.92098,-5.7023,-54.191,2.331,134.303
2023-03-15 20:46:01:455,0.429978,7.92846,-5.69849,-54.1889,2.32926,134.305
2023-03-15 20:46:01:465,0.43327,7.93225,-5.70707,-54.1885,2.32794,134.304
2023-03-15 20:46:01:475,0.427964,7.93056,-5.69759,-54.1902,2.32865,134.306
2023-03-15 20:46:01:485,0.41961,7.92613,-5.68896,-54.1889,2.32933,134.305
2023-03-15 20:46:01:495,0.422816,7.92338,-5.68143,-54.1901,2.32826,134.305
2023-03-15 20:46:01:505,0.421212,7.91959,-5.68432,-54.1916,2.33049,134.303
2023-03-15 20:46:01:515,0.436391,7.92764,-5.69093,-54.1904,2.32852,134.301
2023-03-15 20:46:01:525,0.437969,7.92656,-5.69646,-54.1922,2.3295,134.301
2023-03-15 20:46:01:535,0.423772,7.9228,-5.70514,-54.1954,2.33045,134.298
2023-03-15 20:46:01:545,0.424814,7.92247,-5.71692,-54.1943,2.32763,134.299
2023-03-15 20:46:01:555,0.431951,7.92043,-5.71065,-54.1941,2.32596,134.298
2023-03-15 20:46:01:565,0.426673,7.91386,-5.70082,-54.1911,2.32544,134.299
2023-03-15 20:46:01:575,0.42122,7.91653,-5.69672,-54.1927,2.32812,134.298
2023-03-15 20:46:01:585,0.423092,7.92729,-5.69509,-54.1912,2.32795,134.296
2023-03-15 20:46:01:595,0.414863,7.92564,-5.69986,-54.1865,2.32672,134.294
2023-03-15 20:46:01:605,0.419623,7.93623,-5.68893,-54.1865,2.3285,134.296
2023-03-15 20:46:01:615,0.422602,7.93293,-5.69097,-54.1868,2.3279,134.295
2023-03-15 20:46:01:625,0.420989,7.92921,-5.69491,-54.1864,2.32854,134.294
2023-03-15 20:46:01:635,0.422211,7.93907,-5.69539,-54.1879,2.32817,134.293
2023-03-15 20:46:01:645,0.418474,7.92935,-5.69789,-54.1872,2.33232,134.293
2023-03-15 20:46:01:655,0.428142,7.93227,-5.69305,-54.1866,2.32999,134.297
2023-03-15 20:46:01:665,0.432338,7.9097,-5.69916,-54.1876,2.3288,134.297
2023-03-15 20:46:01:675,0.419197,7.92282,-5.69227,-54.1892,2.33261,134.296
2023-03-15 20:46:01:685,0.421844,7.92797,-5.68867,-54.1922,2.32969,134.293
2023-03-15 20:46:01:695,0.433688,7.92929,-5.69569,-54.1927,2.33077,134.293
2023-03-15 20:46:01:705,0.425602,7.92964,-5.70178,-54.1934,2.32826,134.295
2023-03-15 20:46:01:715,0.424142,7.92374,-5.70799,-54.192,2.327,134.295
2023-03-15 20:46:01:725,0.428462,7.92711,-5.70853,-54.1905,2.3273,134.297
2023-03-15 20:46:01:735,0.421364,7.91611,-5.70955,-54.1919,2.32672,134.298
2023-03-15 20:46:01:745,0.421705,7.91694,-5.70606,-54.1883,2.32674,134.3
2023-03-15 20:46:01:755,0.426461,7.92616,-5.69682,-54.1899,2.32791,134.297
2023-03-15 20:46:01:765,0.426916,7.91612,-5.69856,-54.1911,2.32564,134.297
2023-03-15 20:46:01:775,0.430311,7.9159,-5.69591,-54.1921,2.32549,134.299
2023-03-15 20:46:01:785,0.424024,7.92105,-5.6936,-54.1936,2.32479,134.298
2023-03-15 20:46:01:795,0.430344,7.92674,-5.69321,-54.1924,2.32306,134.297
2023-03-15 20:46:01:805,0.428033,7.91741,-5.69817,-54.1917,2.32109,134.297
2023-03-15 20:46:01:815,0.418955,7.92588,-5.7008,-54.1907,2.31967,134.297
2023-03-15 20:46:01:825,0.420679,7.92333,-5.70884,-54.1934,2.3209,134.293
2023-03-15 20:46:01:835,0.416962,7.92332,-5.70036,-54.1957,2.31827,134.294
2023-03-15 20:46:01:845,0.422436,7.92994,-5.69436,-54.1989,2.31904,134.297
2023-03-15 20:46:01:855,0.434897,7.92716,-5.69716,-54.1997,2.31879,134.295
2023-03-15 20:46:01:865,0.426626,7.92628,-5.69613,-54.1992,2.31794,134.296
2023-03-15 20:46:01:875,0.42479,7.92428,-5.69617,-54.2027,2.31786,134.297
2023-03-15 20:46:01:885,0.431747,7.92399,-5.70209,-54.2006,2.31953,134.294
2023-03-15 20:46:01:895,0.427722,7.93206,-5.69535,-54.2042,2.31859,134.292
2023-03-15 20:46:01:905,0.430252,7.92048,-5.70012,-54.2023,2.32141,134.29
2023-03-15 20:46:01:915,0.430912,7.92331,-5.70671,-54.2034,2.31989,134.287
2023-03-15 20:46:01:925,0.422743,7.92835,-5.69756,-54.2031,2.3203,134.288
2023-03-15 20:46:01:935,0.423204,7.93368,-5.69304,-54.2014,2.31935,134.288
2023-03-15 20:46:01:945,0.418391,7.92005,-5.70299,-54.2011,2.31878,134.29
2023-03-15 20:46:01:955,0.429535,7.91719,-5.69984,-54.2001,2.31767,134.29
2023-03-15 20:46:01:965,0.431692,7.92235,-5.69689,-54.1993,2.31643,134.288
2023-03-15 20:46:01:975,0.432604,7.91317,-5.71211,-54.1999,2.31587,134.292
2023-03-15 20:46:01:985,0.409744,7.92315,-5.70608,-54.2009,2.31555,134.295
2023-03-15 20:46:01:995,0.410576,7.91874,-5.69527,-54.2017,2.31442,134.296
2023-03-15 20:46:02:5,0.43062,7.9174,-5.69377,-54.1989,2.31329,134.297
2023-03-15 20:46:02:15,0.425911,7.93824,-5.70437,-54.197,2.31091,134.3
2023-03-15 20:46:02:25,0.425778,7.91745,-5.70752,-54.1956,2.31485,134.302
2023-03-15 20:46:02:35,0.426048,7.93225,-5.70175,-54.1964,2.31266,134.302
2023-03-15 20:46:02:45,0.4301,7.9126,-5.70316,-54.1951,2.31297,134.302
2023-03-15 20:46:02:55,0.433718,7.9339,-5.69616,-54.1963,2.31409,134.301
2023-03-15 20:46:02:65,0.42882,7.92737,-5.70062,-54.1944,2.31351,134.304
2023-03-15 20:46:02:75,0.432932,7.92812,-5.69831,-54.1974,2.31165,134.305
2023-03-15 20:46:02:85,0.432792,7.92168,-5.69009,-54.1969,2.30808,134.305
2023-03-15 20:46:02:95,0.424472,7.93818,-5.69178,-54.1962,2.30897,134.302
2023-03-15 20:46:02:105,0.414156,7.92136,-5.70944,-54.1942,2.30745,134.301
2023-03-15 20:46:02:115,0.413101,7.91336,-5.71743,-54.1932,2.30929,134.299
2023-03-15 20:46:02:125,0.426891,7.9122,-5.70223,-54.1963,2.31085,134.297
2023-03-15 20:46:02:135,0.423646,7.89757,-5.70796,-54.1951,2.31148,134.299
2023-03-15 20:46:02:145,0.424323,7.92286,-5.70339,-54.1979,2.30784,134.301
2023-03-15 20:46:02:155,0.431823,7.91433,-5.69685,-54.1966,2.31025,134.304
2023-03-15 20:46:02:165,0.441083,7.93605,-5.68797,-54.1991,2.3095,134.305
2023-03-15 20:46:02:175,0.428604,7.92272,-5.69029,-54.1975,2.31135,134.304
2023-03-15 20:46:02:185,0.416317,7.94145,-5.6939,-54.1986,2.30783,134.304
2023-03-15 20:46:02:195,0.41717,7.9359,-5.69154,-54.1979,2.30878,134.303
2023-03-15 20:46:02:205,0.426241,7.92474,-5.70368,-54.1987,2.30819,134.303
2023-03-15 20:46:02:215,0.430904,7.91845,-5.7093,-54.197,2.30942,134.305
2023-03-15 20:46:02:225,0.446936,7.92622,-5.70983,-54.198,2.31259,134.303
2023-03-15 20:46:02:235,0.440135,7.91481,-5.70354,-54.198,2.31347,134.302
2023-03-15 20:46:02:245,0.436268,7.92851,-5.70389,-54.1976,2.31522,134.302
2023-03-15 20:46:02:255,0.430745,7.91845,-5.70914,-54.1951,2.31809,134.304
2023-03-15 20:46:02:265,0.432239,7.92625,-5.69605,-54.1939,2.32074,134.309
2023-03-15 20:46:02:275,0.418444,7.93468,-5.68272,-54.1939,2.31949,134.311
2023-03-15 20:46:02:285,0.416123,7.91468,-5.69817,-54.191,2.31854,134.31
2023-03-15 20:46:02:295,0.433382,7.92352,-5.70651,-54.1886,2.316,134.31
2023-03-15 20:46:02:305,0.43245,7.93098,-5.6955,-54.1939,2.3163,134.311
2023-03-15 20:46:02:315,0.430178,7.92264,-5.70525,-54.1932,2.31796,134.314
2023-03-15 20:46:02:325,0.433582,7.91404,-5.70906,-54.1901,2.31646,134.31
2023-03-15 20:46:02:335,0.436034,7.91714,-5.71211,-54.1875,2.31721,134.314
2023-03-15 20:46:02:345,0.431739,7.91897,-5.70364,-54.1875,2.3206,134.314
2023-03-15 20:46:02:355,0.430333,7.92305,-5.69471,-54.1875,2.32456,134.314
2023-03-15 20:46:02:365,0.436171,7.93246,-5.69125,-54.1869,2.3258,134.315
2023-03-15 20:46:02:375,0.426665,7.918,-5.69465,-54.1846,2.32586,134.313
2023-03-15 20:46:02:385,0.424689,7.9245,-5.68419,-54.184,2.32578,134.309
2023-03-15 20:46:02:395,0.43694,7.92637,-5.69057,-54.1856,2.32717,134.307
2023-03-15 20:46:02:405,0.44177,7.91306,-5.70128,-54.1837,2.3274,134.307
2023-03-15 20:46:02:415,0.427445,7.93451,-5.69506,-54.185,2.32584,134.309
2023-03-15 20:46:02:425,0.418317,7.9289,-5.705,-54.1855,2.32484,134.308
2023-03-15 20:46:02:435,0.433319,7.92104,-5.70617,-54.1841,2.3247,134.307
2023-03-15 20:46:02:445,0.43014,7.92841,-5.71649,-54.185,2.32391,134.305
2023-03-15 20:46:02:455,0.433799,7.91757,-5.70924,-54.1828,2.32467,134.304
2023-03-15 20:46:02:465,0.428189,7.92702,-5.70989,-54.1829,2.32347,134.306
2023-03-15 20:46:02:475,0.433703,7.90916,-5.70766,-54.1834,2.32417,134.307
2023-03-15 20:46:02:485,0.435424,7.93703,-5.69021,-54.1831,2.32206,134.308
2023-03-15 20:46:02:495,0.430161,7.93643,-5.68488,-54.1841,2.32079,134.308
2023-03-15 20:46:02:505,0.432905,7.92781,-5.6907,-54.1818,2.32328,134.305
2023-03-15 20:46:02:515,0.422339,7.93802,-5.68659,-54.179,2.32108,134.308
2023-03-15 20:46:02:525,0.423283,7.92791,-5.69758,-54.1789,2.31954,134.306
2023-03-15 20:46:02:535,0.431554,7.92407,-5.70268,-54.1814,2.3183,134.304
2023-03-15 20:46:02:545,0.432522,7.9185,-5.71807,-54.1812,2.31935,134.303
2023-03-15 20:46:02:555,0.438584,7.91385,-5.71794,-54.1814,2.31863,134.302
2023-03-15 20:46:02:565,0.431119,7.92234,-5.7089,-54.1798,2.31912,134.303
2023-03-15 20:46:02:575,0.426783,7.94001,-5.70351,-54.1758,2.32125,134.304
2023-03-15 20:46:02:585,0.427552,7.93925,-5.68744,-54.1764,2.32132,134.307
2023-03-15 20:46:02:595,0.424454,7.92913,-5.69044,-54.179,2.32404,134.309
2023-03-15 20:46:02:605,0.419003,7.9339,-5.6952,-54.1816,2.32029,134.31
2023-03-15 20:46:02:615,0.424852,7.93129,-5.69029,-54.1822,2.32001,134.307
2023-03-15 20:46:02:625,0.426884,7.92842,-5.6894,-54.1817,2.31786,134.309
2023-03-15 20:46:02:635,0.418817,7.93282,-5.70022,-54.1814,2.32035,134.309
2023-03-15 20:46:02:645,0.426302,7.9363,-5.69642,-54.1841,2.32069,134.312
2023-03-15 20:46:02:655,0.428,7.91783,-5.69976,-54.1831,2.32021,134.315
2023-03-15 20:46:02:665,0.419777,7.92209,-5.69928,-54.184,2.3226,134.316
2023-03-15 20:46:02:675,0.419542,7.9208,-5.69895,-54.1831,2.32496,134.318
2023-03-15 20:46:02:685,0.411902,7.92822,-5.70369,-54.1854,2.32512,134.32
2023-03-15 20:46:02:695,0.4206,7.92323,-5.71723,-54.1846,2.3235,134.32
2023-03-15 20:46:02:705,0.417579,7.92447,-5.71168,-54.1837,2.32242,134.319
2023-03-15 20:46:02:715,0.44029,7.92226,-5.6986,-54.184,2.32182,134.318
2023-03-15 20:46:02:725,0.441729,7.92783,-5.68404,-54.181,2.32167,134.317
2023-03-15 20:46:02:735,0.419036,7.92304,-5.70057,-54.1799,2.3241,134.317
2023-03-15 20:46:02:745,0.43266,7.91444,-5.70335,-54.1786,2.32526,134.315
2023-03-15 20:46:02:755,0.429803,7.91859,-5.69491,-54.1796,2.32468,134.314
2023-03-15 20:46:02:765,0.434012,7.90346,-5.7038,-54.1798,2.32175,134.317
2023-03-15 20:46:02:775,0.422565,7.92988,-5.69618,-54.1785,2.32448,134.318
2023-03-15 20:46:02:785,0.430733,7.91751,-5.70067,-54.1782,2.32574,134.321
2023-03-15 20:46:02:795,0.435601,7.92296,-5.70115,-54.1806,2.32581,134.321
2023-03-15 20:46:02:805,0.431013,7.92989,-5.6957,-54.1803,2.32245,134.324
2023-03-15 20:46:02:815,0.43093,7.9228,-5.6912,-54.1815,2.32095,134.325
2023-03-15 20:46:02:825,0.423787,7.92151,-5.69023,-54.1807,2.32171,134.323
2023-03-15 20:46:02:835,0.42426,7.92473,-5.69942,-54.1831,2.32378,134.321
2023-03-15 20:46:02:845,0.421835,7.93214,-5.69481,-54.1856,2.32653,134.324
2023-03-15 20:46:02:855,0.424098,7.92707,-5.69773,-54.1879,2.32523,134.322
2023-03-15 20:46:02:865,0.433891,7.91673,-5.6981,-54.1855,2.32578,134.324
2023-03-15 20:46:02:875,0.439193,7.92377,-5.7042,-54.1876,2.32811,134.324
2023-03-15 20:46:02:885,0.427235,7.91751,-5.70597,-54.1867,2.32772,134.324
2023-03-15 20:46:02:895,0.430626,7.92131,-5.70115,-54.1862,2.33202,134.322
2023-03-15 20:46:02:905,0.426057,7.92229,-5.69802,-54.186,2.33007,134.323
2023-03-15 20:46:02:915,0.431291,7.91827,-5.70041,-54.1855,2.33108,134.324
2023-03-15 20:46:02:925,0.423655,7.91682,-5.70129,-54.1852,2.32949,134.321
2023-03-15 20:46:02:935,0.417194,7.92179,-5.70028,-54.1847,2.33099,134.319
2023-03-15 20:46:02:945,0.417657,7.92927,-5.69691,-54.1818,2.3287,134.318
2023-03-15 20:46:02:955,0.431053,7.92505,-5.70465,-54.1804,2.32814,134.317
2023-03-15 20:46:02:965,0.429313,7.92742,-5.69823,-54.1791,2.32518,134.316
2023-03-15 20:46:02:975,0.418766,7.92265,-5.69339,-54.1788,2.3249,134.317
2023-03-15 20:46:02:985,0.425408,7.92028,-5.6997,-54.1774,2.32436,134.32
2023-03-15 20:46:02:995,0.439868,7.92229,-5.68931,-54.1767,2.32601,134.32
2023-03-15 20:46:03:5,0.433175,7.92509,-5.70062,-54.1762,2.32663,134.322
2023-03-15 20:46:03:15,0.413786,7.92693,-5.71074,-54.1751,2.32781,134.322
2023-03-15 20:46:03:25,0.416022,7.92385,-5.70409,-54.1769,2.32458,134.32
2023-03-15 20:46:03:35,0.424199,7.92979,-5.70283,-54.1774,2.3259,134.321
2023-03-15 20:46:03:45,0.42961,7.90472,-5.69959,-54.1805,2.32379,134.32
2023-03-15 20:46:03:55,0.422463,7.91239,-5.70247,-54.1788,2.32272,134.321
2023-03-15 20:46:03:65,0.42486,7.90698,-5.69833,-54.18,2.32004,134.318
2023-03-15 20:46:03:75,0.440892,7.91871,-5.69539,-54.1825,2.3191,134.321
2023-03-15 20:46:03:85,0.426435,7.90058,-5.6971,-54.18,2.32195,134.32
2023-03-15 20:46:03:95,0.425404,7.93423,-5.69921,-54.1814,2.32256,134.322
2023-03-15 20:46:03:105,0.42654,7.92399,-5.69575,-54.1834,2.32315,134.321
2023-03-15 20:46:03:115,0.41835,7.93869,-5.68114,-54.1836,2.32177,134.321
2023-03-15 20:46:03:125,0.415476,7.93065,-5.68545,-54.1859,2.31982,134.322
2023-03-15 20:46:03:135,0.422284,7.92529,-5.69401,-54.1864,2.31707,134.321
2023-03-15 20:46:03:145,0.423186,7.90143,-5.70056,-54.1825,2.31835,134.322
2023-03-15 20:46:03:155,0.417723,7.92289,-5.70369,-54.1811,2.31879,134.323
2023-03-15 20:46:03:165,0.450278,7.83057,-5.76281,-54.1801,2.31599,134.32
2023-03-15 20:46:03:175,0.394295,7.9695,-5.6778,-54.2007,2.2997,134.317
2023-03-15 20:46:03:185,0.426798,7.87447,-5.72449,-54.1957,2.30773,134.319
2023-03-15 20:46:03:195,0.433925,7.94561,-5.67922,-54.196,2.30468,134.318
2023-03-15 20:46:03:205,0.421358,7.90298,-5.70753,-54.1954,2.3061,134.322
2023-03-15 20:46:03:215,0.40696,7.91839,-5.69455,-54.1956,2.3059,134.321
2023-03-15 20:46:03:225,0.417431,7.94616,-5.67995,-54.1987,2.30537,134.321
2023-03-15 20:46:03:235,0.41824,7.92778,-5.6836,-54.1988,2.30736,134.321
2023-03-15 20:46:03:245,0.429807,7.93309,-5.69234,-54.2019,2.30716,134.321
2023-03-15 20:46:03:255,0.425992,7.93506,-5.68452,-54.2038,2.30691,134.319
2023-03-15 20:46:03:265,0.430333,7.91715,-5.69966,-54.2043,2.30661,134.317
2023-03-15 20:46:03:275,0.437624,7.93714,-5.68644,-54.208,2.30675,134.317
2023-03-15 20:46:03:285,0.436799,7.92283,-5.69091,-54.2074,2.30755,134.318
2023-03-15 20:46:03:295,0.434678,7.91901,-5.69809,-54.2107,2.30631,134.317
2023-03-15 20:46:03:305,0.416471,7.9297,-5.70412,-54.2093,2.30578,134.32
2023-03-15 20:46:03:315,0.414907,7.92814,-5.69891,-54.2079,2.30539,134.319
2023-03-15 20:46:03:325,0.412661,7.94492,-5.68444,-54.2095,2.30673,134.318
2023-03-15 20:46:03:335,0.415797,7.9396,-5.68858,-54.2096,2.30684,134.32
2023-03-15 20:46:03:345,0.431674,7.93117,-5.68027,-54.2085,2.31021,134.32
2023-03-15 20:46:03:355,0.43734,7.9304,-5.68714,-54.211,2.31096,134.319
2023-03-15 20:46:03:365,0.440223,7.9241,-5.69396,-54.2108,2.3116,134.32
2023-03-15 20:46:03:375,0.4345,7.92779,-5.69302,-54.2105,2.31119,134.319
2023-03-15 20:46:03:385,0.444778,7.9252,-5.6863,-54.2085,2.31136,134.321
2023-03-15 20:46:03:395,0.437983,7.92749,-5.69005,-54.2072,2.31122,134.323
2023-03-15 20:46:03:405,0.411037,7.9182,-5.69792,-54.2033,2.31281,134.325
2023-03-15 20:46:03:415,0.408599,7.92778,-5.68219,-54.2049,2.31469,134.323
2023-03-15 20:46:03:425,0.4109,7.92387,-5.68983,-54.2011,2.3138,134.326
2023-03-15 20:46:03:435,0.417561,7.92273,-5.69314,-54.204,2.314,134.327
2023-03-15 20:46:03:445,0.435244,7.93023,-5.68785,-54.2054,2.31458,134.328
2023-03-15 20:46:03:455,0.43935,7.91966,-5.6966,-54.2068,2.31324,134.328
2023-03-15 20:46:03:465,0.430368,7.92437,-5.68882,-54.2033,2.3138,134.329
2023-03-15 20:46:03:475,0.422385,7.92475,-5.69158,-54.2041,2.31386,134.334
2023-03-15 20:46:03:485,0.41647,7.92124,-5.68955,-54.2017,2.31545,134.334
2023-03-15 20:46:03:495,0.425035,7.92305,-5.68259,-54.1996,2.31407,134.335
2023-03-15 20:46:03:505,0.423504,7.91675,-5.6995,-54.1965,2.31332,134.336
2023-03-15 20:46:03:515,0.425364,7.93097,-5.68564,-54.1974,2.31196,134.338
2023-03-15 20:46:03:525,0.428638,7.92803,-5.70245,-54.1983,2.31285,134.336
2023-03-15 20:46:03:535,0.432449,7.91831,-5.69546,-54.1965,2.3153,134.334
2023-03-15 20:46:03:545,0.432493,7.91481,-5.69244,-54.198,2.31576,134.335
2023-03-15 20:46:03:555,0.436982,7.91934,-5.69073,-54.1981,2.31656,134.337
2023-03-15 20:46:03:565,0.425634,7.93192,-5.69171,-54.1988,2.31782,134.338
2023-03-15 20:46:03:575,0.417216,7.92662,-5.69247,-54.2008,2.31699,134.342
2023-03-15 20:46:03:585,0.419385,7.92791,-5.69194,-54.1993,2.32008,134.342
2023-03-15 20:46:03:595,0.426705,7.92114,-5.6975,-54.198,2.32135,134.339
2023-03-15 20:46:03:605,0.42461,7.92516,-5.70602,-54.1965,2.32374,134.34
2023-03-15 20:46:03:615,0.428215,7.94112,-5.69437,-54.1958,2.32371,134.338
2023-03-15 20:46:03:626,0.43058,7.91648,-5.6993,-54.1947,2.32265,134.337
2023-03-15 20:46:03:635,0.43144,7.91723,-5.69452,-54.197,2.32123,134.341
2023-03-15 20:46:03:645,0.432768,7.92179,-5.69586,-54.194,2.31939,134.339
2023-03-15 20:46:03:655,0.424504,7.92697,-5.68931,-54.1957,2.31913,134.338
2023-03-15 20:46:03:665,0.426059,7.93475,-5.68969,-54.1968,2.31786,134.339
2023-03-15 20:46:03:675,0.427132,7.93542,-5.68549,-54.1967,2.31682,134.337
2023-03-15 20:46:03:685,0.422436,7.9278,-5.68523,-54.1976,2.31453,134.336
2023-03-15 20:46:03:695,0.417509,7.93617,-5.68101,-54.1957,2.31475,134.339
2023-03-15 20:46:03:705,0.419917,7.92172,-5.69394,-54.1979,2.3146,134.337
2023-03-15 20:46:03:715,0.420769,7.91871,-5.68955,-54.1979,2.31448,134.333
2023-03-15 20:46:03:725,0.432628,7.9252,-5.70107,-54.2008,2.31735,134.334
2023-03-15 20:46:03:735,0.430438,7.92872,-5.7121,-54.1991,2.31756,134.332
2023-03-15 20:46:03:745,0.432481,7.91561,-5.70743,-54.2011,2.31954,134.331
2023-03-15 20:46:03:755,0.432603,7.92606,-5.69288,-54.2016,2.31882,134.329
2023-03-15 20:46:03:765,0.429023,7.93337,-5.69214,-54.2024,2.31845,134.328
2023-03-15 20:46:03:775,0.428088,7.94,-5.683,-54.2008,2.32013,134.329
2023-03-15 20:46:03:785,0.413696,7.94444,-5.68953,-54.1983,2.31972,134.33
2023-03-15 20:46:03:795,0.421526,7.93504,-5.69322,-54.1989,2.31466,134.329
2023-03-15 20:46:03:805,0.412486,7.93282,-5.68889,-54.1994,2.31254,134.325
2023-03-15 20:46:03:815,0.4213,7.92036,-5.70385,-54.1986,2.3119,134.324
2023-03-15 20:46:03:825,0.437305,7.92077,-5.70328,-54.1993,2.30991,134.324
2023-03-15 20:46:03:835,0.43068,7.91549,-5.70125,-54.1981,2.31022,134.321
2023-03-15 20:46:03:845,0.416352,7.92371,-5.69578,-54.195,2.31233,134.317
2023-03-15 20:46:03:855,0.421376,7.92835,-5.69756,-54.1939,2.31444,134.32
2023-03-15 20:46:03:865,0.429059,7.92622,-5.69333,-54.1941,2.31498,134.322
2023-03-15 20:46:03:875,0.421915,7.93285,-5.68574,-54.1951,2.31362,134.323
2023-03-15 20:46:03:885,0.422601,7.92659,-5.69659,-54.1923,2.31428,134.323
2023-03-15 20:46:03:895,0.416099,7.91804,-5.70233,-54.1907,2.31476,134.322
2023-03-15 20:46:03:905,0.420827,7.92926,-5.68368,-54.1929,2.31485,134.322
2023-03-15 20:46:03:915,0.426143,7.92546,-5.69703,-54.1909,2.31397,134.321
2023-03-15 20:46:03:925,0.415181,7.92205,-5.69235,-54.1912,2.31387,134.324
2023-03-15 20:46:03:935,0.416628,7.92076,-5.69342,-54.1926,2.31485,134.325
2023-03-15 20:46:03:945,0.41679,7.9302,-5.69606,-54.1944,2.31603,134.328
2023-03-15 20:46:03:955,0.42525,7.92602,-5.69751,-54.1954,2.31378,134.326
2023-03-15 20:46:03:965,0.412485,7.92346,-5.70799,-54.197,2.31386,134.325
2023-03-15 20:46:03:975,0.398113,7.92823,-5.69025,-54.1957,2.31265,134.325
2023-03-15 20:46:03:985,0.398357,7.92961,-5.68848,-54.1954,2.31431,134.326
2023-03-15 20:46:03:995,0.402971,7.92642,-5.67633,-54.1939,2.31314,134.323
2023-03-15 20:46:04:5,0.407846,7.92687,-5.68013,-54.1939,2.31086,134.322
2023-03-15 20:46:04:15,0.424126,7.93046,-5.69411,-54.1911,2.31139,134.32
2023-03-15 20:46:04:25,0.443455,7.92298,-5.70783,-54.1934,2.31055,134.322
2023-03-15 20:46:04:35,0.445264,7.91173,-5.70138,-54.1927,2.30907,134.319
2023-03-15 20:46:04:45,0.435919,7.92116,-5.69532,-54.1917,2.30711,134.32
2023-03-15 20:46:04:55,0.424676,7.92899,-5.68647,-54.1926,2.31064,134.323
2023-03-15 20:46:04:65,0.415511,7.93295,-5.68235,-54.1929,2.31169,134.321
2023-03-15 20:46:04:75,0.425851,7.92314,-5.70675,-54.1904,2.31061,134.32
2023-03-15 20:46:04:85,0.421909,7.91838,-5.71107,-54.1889,2.30931,134.317
2023-03-15 20:46:04:95,0.414255,7.93878,-5.69518,-54.1911,2.30881,134.317
2023-03-15 20:46:04:105,0.414839,7.93824,-5.69308,-54.1904,2.31119,134.319
2023-03-15 20:46:04:115,0.428201,7.92438,-5.68138,-54.1901,2.31149,134.317
2023-03-15 20:46:04:125,0.431272,7.92182,-5.69227,-54.1926,2.30934,134.317
2023-03-15 20:46:04:135,0.448223,7.91818,-5.69787,-54.194,2.31148,134.32
2023-03-15 20:46:04:145,0.426229,7.92288,-5.69904,-54.1943,2.31346,134.32
2023-03-15 20:46:04:155,0.407528,7.92186,-5.70599,-54.1927,2.31338,134.322
2023-03-15 20:46:04:165,0.42053,7.93064,-5.7017,-54.1916,2.31462,134.322
2023-03-15 20:46:04:175,0.423734,7.92555,-5.69708,-54.1889,2.31217,134.324
2023-03-15 20:46:04:185,0.42799,7.92079,-5.69085,-54.1892,2.3082,134.327
2023-03-15 20:46:04:195,0.430811,7.90748,-5.70169,-54.1889,2.30573,134.328
2023-03-15 20:46:04:205,0.421897,7.92362,-5.69665,-54.1896,2.30339,134.329
2023-03-15 20:46:04:215,0.423836,7.93549,-5.68569,-54.1916,2.29815,134.329
2023-03-15 20:46:04:225,0.431418,7.91809,-5.69728,-54.1911,2.29891,134.329
2023-03-15 20:46:04:235,0.422404,7.93071,-5.68776,-54.189,2.29659,134.328
2023-03-15 20:46:04:245,0.429923,7.93503,-5.68943,-54.1925,2.29864,134.329
2023-03-15 20:46:04:255,0.416473,7.92847,-5.68675,-54.1945,2.29746,134.331
2023-03-15 20:46:04:265,0.412485,7.92003,-5.68966,-54.1907,2.29614,134.332
2023-03-15 20:46:04:275,0.431515,7.92751,-5.69794,-54.1883,2.2945,134.334
2023-03-15 20:46:04:285,0.429854,7.92439,-5.69701,-54.1888,2.29501,134.335
2023-03-15 20:46:04:295,0.423427,7.92786,-5.68235,-54.1868,2.29192,134.339
2023-03-15 20:46:04:305,0.424236,7.9215,-5.68671,-54.1899,2.29072,134.339
2023-03-15 20:46:04:315,0.427436,7.92699,-5.69229,-54.1895,2.29399,134.339
2023-03-15 20:46:04:325,0.423361,7.93395,-5.69407,-54.1877,2.29356,134.339
2023-03-15 20:46:04:335,0.421382,7.93414,-5.68934,-54.1851,2.29327,134.34
2023-03-15 20:46:04:345,0.411514,7.93619,-5.68438,-54.1891,2.29343,134.337
2023-03-15 20:46:04:355,0.439047,7.93509,-5.6927,-54.1911,2.29821,134.335
2023-03-15 20:46:04:365,0.416098,7.92626,-5.69233,-54.1909,2.30021,134.335
2023-03-15 20:46:04:375,0.420788,7.91814,-5.69591,-54.1901,2.30112,134.334
2023-03-15 20:46:04:385,0.417068,7.91965,-5.69735,-54.1907,2.29987,134.332
2023-03-15 20:46:04:395,0.418422,7.91988,-5.6989,-54.1907,2.29942,134.332
2023-03-15 20:46:04:405,0.424115,7.92438,-5.6976,-54.1885,2.29813,134.332
2023-03-15 20:46:04:415,0.432512,7.92579,-5.70297,-54.1877,2.2985,134.334
2023-03-15 20:46:04:425,0.434182,7.92351,-5.69633,-54.1886,2.2976,134.335
2023-03-15 20:46:04:435,0.426032,7.9142,-5.69741,-54.1913,2.29659,134.332
2023-03-15 20:46:04:445,0.418388,7.92324,-5.68974,-54.1922,2.2953,134.331
2023-03-15 20:46:04:455,0.434183,7.94006,-5.68204,-54.1934,2.29442,134.331
2023-03-15 20:46:04:465,0.425259,7.91286,-5.69414,-54.1962,2.29418,134.333
2023-03-15 20:46:04:475,0.433681,7.92567,-5.6973,-54.1944,2.29483,134.336
2023-03-15 20:46:04:485,0.427034,7.9282,-5.70252,-54.1933,2.29589,134.334
2023-03-15 20:46:04:495,0.419964,7.92279,-5.70591,-54.1951,2.29456,134.334
2023-03-15 20:46:04:505,0.425954,7.92033,-5.70287,-54.196,2.29344,134.332
2023-03-15 20:46:04:515,0.436762,7.9253,-5.68353,-54.1963,2.29565,134.331
2023-03-15 20:46:04:525,0.432079,7.92351,-5.68754,-54.1985,2.29735,134.328
2023-03-15 20:46:04:535,0.432686,7.92137,-5.69394,-54.2007,2.29839,134.327
2023-03-15 20:46:04:545,0.427583,7.92391,-5.69682,-54.2012,2.29867,134.33
2023-03-15 20:46:04:555,0.416948,7.92526,-5.69802,-54.1989,2.29604,134.331
2023-03-15 20:46:04:565,0.410476,7.91916,-5.69767,-54.1988,2.29489,134.331
2023-03-15 20:46:04:575,0.410348,7.91839,-5.7049,-54.1985,2.29236,134.329
2023-03-15 20:46:04:585,0.416136,7.92743,-5.69766,-54.2011,2.29172,134.33
2023-03-15 20:46:04:595,0.415077,7.92774,-5.69919,-54.204,2.29137,134.33
2023-03-15 20:46:04:605,0.421684,7.92153,-5.71344,-54.2041,2.29172,134.328
2023-03-15 20:46:04:615,0.431531,7.92909,-5.70214,-54.2064,2.29091,134.329
2023-03-15 20:46:04:625,0.419887,7.92337,-5.69412,-54.2076,2.29344,134.329
2023-03-15 20:46:04:635,0.416027,7.93193,-5.6972,-54.2103,2.29364,134.328
2023-03-15 20:46:04:645,0.410919,7.92317,-5.69946,-54.2107,2.29406,134.329
2023-03-15 20:46:04:655,0.420035,7.91587,-5.6996,-54.2104,2.29314,134.331
2023-03-15 20:46:04:665,0.419258,7.92404,-5.69972,-54.2098,2.29073,134.33
2023-03-15 20:46:04:675,0.419879,7.92581,-5.68991,-54.2098,2.28965,134.33
2023-03-15 20:46:04:685,0.431988,7.93087,-5.67951,-54.2082,2.28895,134.331
2023-03-15 20:46:04:695,0.42415,7.92372,-5.67996,-54.2101,2.28972,134.329
2023-03-15 20:46:04:705,0.426685,7.92683,-5.69348,-54.2099,2.29053,134.328
2023-03-15 20:46:04:715,0.428861,7.92554,-5.69414,-54.2127,2.28965,134.327
2023-03-15 20:46:04:725,0.418663,7.91369,-5.7016,-54.2137,2.29088,134.329
2023-03-15 20:46:04:735,0.426636,7.91984,-5.7061,-54.215,2.28876,134.331
2023-03-15 20:46:04:745,0.421509,7.92591,-5.69837,-54.2158,2.2883,134.333
2023-03-15 20:46:04:755,0.431899,7.91673,-5.69283,-54.2166,2.28869,134.333
2023-03-15 20:46:04:765,0.426198,7.91956,-5.68962,-54.2121,2.2903,134.333
2023-03-15 20:46:04:775,0.423119,7.93156,-5.69305,-54.2097,2.2916,134.335
2023-03-15 20:46:04:785,0.420299,7.93591,-5.69037,-54.2106,2.29339,134.335
2023-03-15 20:46:04:795,0.429592,7.92918,-5.67875,-54.2113,2.29133,134.338
2023-03-15 20:46:04:805,0.437646,7.91419,-5.6902,-54.2101,2.29314,134.337
2023-03-15 20:46:04:815,0.429195,7.93346,-5.69638,-54.2099,2.2939,134.339
2023-03-15 20:46:04:825,0.426568,7.94542,-5.69365,-54.2096,2.29429,134.341
2023-03-15 20:46:04:835,0.415996,7.93337,-5.67587,-54.2129,2.29733,134.342
2023-03-15 20:46:04:846,0.407862,7.92303,-5.68587,-54.2116,2.2955,134.342
2023-03-15 20:46:04:855,0.420995,7.92258,-5.68325,-54.2088,2.29374,134.342
2023-03-15 20:46:04:865,0.423516,7.92696,-5.68662,-54.2076,2.29294,134.344
2023-03-15 20:46:04:875,0.433016,7.92745,-5.69582,-54.2111,2.29328,134.347
2023-03-15 20:46:04:885,0.426237,7.92774,-5.69915,-54.2121,2.29329,134.346
2023-03-15 20:46:04:895,0.415868,7.93195,-5.69452,-54.2112,2.2913,134.348
2023-03-15 20:46:04:905,0.416139,7.92907,-5.69273,-54.2107,2.29392,134.347
2023-03-15 20:46:04:915,0.420558,7.92354,-5.68731,-54.2076,2.29341,134.348
2023-03-15 20:46:04:925,0.425711,7.92106,-5.68852,-54.2054,2.29357,134.346
2023-03-15 20:46:04:935,0.418902,7.93229,-5.68663,-54.2049,2.2963,134.348
2023-03-15 20:46:04:945,0.425947,7.92855,-5.69431,-54.205,2.29827,134.35
2023-03-15 20:46:04:955,0.42958,7.93421,-5.68757,-54.2053,2.29897,134.35
2023-03-15 20:46:04:965,0.423722,7.93107,-5.68838,-54.2067,2.29637,134.348
2023-03-15 20:46:04:975,0.42325,7.93109,-5.68651,-54.208,2.29483,134.348
2023-03-15 20:46:04:985,0.425025,7.91407,-5.70065,-54.2065,2.29484,134.349
2023-03-15 20:46:04:995,0.420267,7.92559,-5.69254,-54.2065,2.29329,134.351
2023-03-15 20:46:05:5,0.421183,7.93474,-5.68067,-54.2053,2.29283,134.351
2023-03-15 20:46:05:15,0.421216,7.92558,-5.68387,-54.206,2.29338,134.351
2023-03-15 20:46:05:25,0.420908,7.92881,-5.6898,-54.2063,2.29531,134.35
2023-03-15 20:46:05:35,0.425303,7.93081,-5.69213,-54.2119,2.29549,134.35
2023-03-15 20:46:05:45,0.426722,7.93207,-5.69484,-54.21,2.29628,134.351
2023-03-15 20:46:05:55,0.427799,7.92105,-5.68919,-54.2088,2.29703,134.351
2023-03-15 20:46:05:65,0.43045,7.91596,-5.70469,-54.2085,2.29758,134.353
2023-03-15 20:46:05:75,0.432716,7.92179,-5.69784,-54.2082,2.29236,134.356
2023-03-15 20:46:05:85,0.42488,7.92053,-5.70393,-54.2082,2.29324,134.359
2023-03-15 20:46:05:95,0.432373,7.91604,-5.69498,-54.2057,2.29208,134.358
2023-03-15 20:46:05:105,0.429222,7.92344,-5.70131,-54.2059,2.29517,134.358
2023-03-15 20:46:05:115,0.419201,7.93162,-5.70108,-54.2042,2.29597,134.356
2023-03-15 20:46:05:125,0.413294,7.93699,-5.69034,-54.2045,2.29436,134.358
2023-03-15 20:46:05:135,0.416963,7.91985,-5.69808,-54.2056,2.29331,134.355
2023-03-15 20:46:05:145,0.421792,7.92213,-5.68483,-54.2059,2.29448,134.357
2023-03-15 20:46:05:155,0.417401,7.92216,-5.68016,-54.2069,2.29342,134.36
2023-03-15 20:46:05:165,0.417166,7.91853,-5.70432,-54.2093,2.29164,134.36
2023-03-15 20:46:05:175,0.42249,7.91668,-5.70421,-54.2091,2.28903,134.361
2023-03-15 20:46:05:186,0.423786,7.92984,-5.6917,-54.2087,2.28801,134.363
2023-03-15 20:46:05:195,0.421747,7.91724,-5.69511,-54.2103,2.29015,134.366
2023-03-15 20:46:05:205,0.411096,7.9226,-5.69511,-54.2089,2.2896,134.368
2023-03-15 20:46:05:215,0.418555,7.93242,-5.70043,-54.2094,2.29149,134.369
2023-03-15 20:46:05:225,0.414863,7.92525,-5.69452,-54.2077,2.2914,134.368
2023-03-15 20:46:05:235,0.421424,7.92021,-5.69285,-54.2095,2.28937,134.365
2023-03-15 20:46:05:245,0.434041,7.9161,-5.6975,-54.2097,2.28829,134.363
2023-03-15 20:46:05:255,0.433576,7.92092,-5.6912,-54.2119,2.28767,134.364
2023-03-15 20:46:05:265,0.422069,7.91138,-5.69986,-54.2107,2.29078,134.364
2023-03-15 20:46:05:275,0.424105,7.92037,-5.69992,-54.2135,2.29147,134.365
2023-03-15 20:46:05:285,0.412483,7.92057,-5.69405,-54.213,2.29105,134.364
2023-03-15 20:46:05:295,0.419215,7.92732,-5.69189,-54.2144,2.29151,134.366
2023-03-15 20:46:05:305,0.41969,7.91529,-5.70287,-54.2157,2.2896,134.368
2023-03-15 20:46:05:315,0.423101,7.92921,-5.68666,-54.2159,2.29015,134.37
2023-03-15 20:46:05:325,0.431895,7.92972,-5.69317,-54.216,2.28841,134.368
2023-03-15 20:46:05:335,0.438862,7.91713,-5.69407,-54.2176,2.28824,134.371
2023-03-15 20:46:05:345,0.440048,7.91526,-5.69846,-54.2178,2.28759,134.371
2023-03-15 20:46:05:355,0.419099,7.92998,-5.69133,-54.2191,2.28739,134.371
2023-03-15 20:46:05:365,0.402709,7.94274,-5.67783,-54.2163,2.28734,134.371
2023-03-15 20:46:05:375,0.408047,7.92236,-5.69093,-54.2141,2.28632,134.37
2023-03-15 20:46:05:385,0.413338,7.91717,-5.68715,-54.2151,2.28597,134.368
2023-03-15 20:46:05:395,0.418191,7.9252,-5.68748,-54.2176,2.28421,134.367
2023-03-15 20:46:05:405,0.427819,7.93066,-5.68599,-54.2197,2.28181,134.366
2023-03-15 20:46:05:415,0.424283,7.92445,-5.69087,-54.2185,2.27998,134.363
2023-03-15 20:46:05:425,0.437361,7.91869,-5.68927,-54.2177,2.28145,134.364
2023-03-15 20:46:05:435,0.432109,7.9244,-5.6873,-54.2174,2.27966,134.363
2023-03-15 20:46:05:445,0.422975,7.91321,-5.69251,-54.2159,2.28327,134.365
2023-03-15 20:46:05:455,0.414821,7.92133,-5.68954,-54.2177,2.28247,134.367
2023-03-15 20:46:05:465,0.413059,7.93173,-5.69095,-54.2129,2.28124,134.368
2023-03-15 20:46:05:475,0.414488,7.92147,-5.69116,-54.2143,2.28316,134.368
2023-03-15 20:46:05:485,0.437465,7.91122,-5.69232,-54.2139,2.27951,134.366
2023-03-15 20:46:05:495,0.437432,7.919,-5.70112,-54.2137,2.28108,134.366
2023-03-15 20:46:05:505,0.439753,7.92141,-5.70076,-54.2136,2.28246,134.367
2023-03-15 20:46:05:515,0.440245,7.92393,-5.69704,-54.2134,2.2844,134.367
2023-03-15 20:46:05:525,0.437163,7.93164,-5.68342,-54.2144,2.28223,134.367
2023-03-15 20:46:05:535,0.423628,7.93146,-5.68627,-54.2132,2.28245,134.366
2023-03-15 20:46:05:545,0.407372,7.92449,-5.69378,-54.2124,2.28368,134.366
2023-03-15 20:46:05:555,0.406305,7.92908,-5.69265,-54.2145,2.28506,134.367
2023-03-15 20:46:05:565,0.409678,7.92737,-5.69495,-54.2094,2.28521,134.368
2023-03-15 20:46:05:575,0.439697,7.91837,-5.70009,-54.2071,2.28324,134.368
2023-03-15 20:46:05:585,0.448707,7.92079,-5.70831,-54.2047,2.28664,134.366
2023-03-15 20:46:05:595,0.432564,7.92339,-5.70329,-54.2052,2.2865,134.369
2023-03-15 20:46:05:605,0.441772,7.92255,-5.69819,-54.2047,2.2855,134.367
2023-03-15 20:46:05:615,0.420311,7.92304,-5.6965,-54.2034,2.28564,134.367
2023-03-15 20:46:05:625,0.42311,7.93368,-5.68944,-54.2083,2.28417,134.366
2023-03-15 20:46:05:635,0.417015,7.92393,-5.69542,-54.207,2.28545,134.366
2023-03-15 20:46:05:645,0.418753,7.92551,-5.69796,-54.2063,2.28454,134.366
2023-03-15 20:46:05:655,0.423164,7.93624,-5.6798,-54.2061,2.28242,134.366
2023-03-15 20:46:05:666,0.435513,7.93701,-5.68407,-54.2072,2.28061,134.365
2023-03-15 20:46:05:675,0.444625,7.9251,-5.69003,-54.2079,2.27993,134.365
2023-03-15 20:46:05:685,0.437662,7.92473,-5.69653,-54.2091,2.28231,134.366
2023-03-15 20:46:05:695,0.435206,7.92436,-5.69179,-54.2082,2.28315,134.364
2023-03-15 20:46:05:705,0.428172,7.91812,-5.69104,-54.2097,2.28254,134.363
2023-03-15 20:46:05:715,0.431205,7.92099,-5.70294,-54.2098,2.28356,134.365
2023-03-15 20:46:05:725,0.426772,7.91646,-5.69702,-54.2113,2.28716,134.364
2023-03-15 20:46:05:735,0.427843,7.91576,-5.6942,-54.2074,2.28848,134.366
2023-03-15 20:46:05:745,0.437513,7.92038,-5.69862,-54.2105,2.29112,134.365
2023-03-15 20:46:05:755,0.432718,7.92291,-5.7032,-54.211,2.29131,134.363
2023-03-15 20:46:05:765,0.427827,7.92826,-5.68581,-54.2121,2.29081,134.366
2023-03-15 20:46:05:775,0.421043,7.9325,-5.68576,-54.2119,2.28866,134.365
2023-03-15 20:46:05:785,0.424885,7.9241,-5.69534,-54.2099,2.28928,134.364
2023-03-15 20:46:05:795,0.433737,7.92765,-5.69196,-54.2094,2.29108,134.365
2023-03-15 20:46:05:806,0.419089,7.92521,-5.69553,-54.2075,2.2876,134.365
2023-03-15 20:46:05:815,0.424405,7.91942,-5.69912,-54.2066,2.28837,134.367
2023-03-15 20:46:05:826,0.42119,7.92336,-5.70625,-54.2057,2.28887,134.366
2023-03-15 20:46:05:835,0.428485,7.9169,-5.69315,-54.2044,2.28977,134.365
2023-03-15 20:46:05:846,0.411694,7.92272,-5.68554,-54.2031,2.28841,134.362
2023-03-15 20:46:05:855,0.42097,7.92702,-5.68939,-54.2054,2.28883,134.361
2023-03-15 20:46:05:866,0.431286,7.92688,-5.69785,-54.2062,2.28913,134.36
2023-03-15 20:46:05:875,0.428836,7.92523,-5.69336,-54.2063,2.28956,134.363
2023-03-15 20:46:05:886,0.440869,7.92965,-5.68295,-54.2047,2.28791,134.366
2023-03-15 20:46:05:895,0.433493,7.9254,-5.68285,-54.2022,2.28856,134.368
2023-03-15 20:46:05:905,0.428096,7.91731,-5.70207,-54.2025,2.28978,134.368
2023-03-15 20:46:05:915,0.417632,7.92545,-5.69608,-54.2019,2.28875,134.369
2023-03-15 20:46:05:925,0.427157,7.92517,-5.69171,-54.2035,2.28968,134.368
2023-03-15 20:46:05:935,0.428008,7.92146,-5.69958,-54.2041,2.28857,134.368
2023-03-15 20:46:05:946,0.426607,7.91433,-5.6994,-54.2023,2.28761,134.37
2023-03-15 20:46:05:955,0.424604,7.91676,-5.69613,-54.2022,2.28609,134.37
2023-03-15 20:46:05:966,0.424553,7.91396,-5.69458,-54.2027,2.28544,134.37
2023-03-15 20:46:05:975,0.427793,7.92204,-5.70667,-54.2016,2.28777,134.371
2023-03-15 20:46:05:986,0.433202,7.91231,-5.71179,-54.2022,2.28788,134.369
2023-03-15 20:46:05:995,0.428528,7.92271,-5.69321,-54.201,2.28732,134.366
2023-03-15 20:46:06:5,0.416944,7.92528,-5.69173,-54.1995,2.28845,134.365
2023-03-15 20:46:06:15,0.424217,7.92838,-5.685,-54.2025,2.28918,134.363
2023-03-15 20:46:06:25,0.435317,7.92089,-5.69116,-54.2033,2.28916,134.362
2023-03-15 20:46:06:35,0.446178,7.93381,-5.67965,-54.2038,2.29224,134.364
2023-03-15 20:46:06:45,0.429889,7.92747,-5.67961,-54.2053,2.29349,134.365
2023-03-15 20:46:06:55,0.427991,7.92426,-5.68932,-54.2067,2.2954,134.363
2023-03-15 20:46:06:65,0.418303,7.93383,-5.6861,-54.2049,2.29282,134.36
2023-03-15 20:46:06:75,0.415336,7.92641,-5.67994,-54.2066,2.29318,134.36
2023-03-15 20:46:06:85,0.416928,7.92736,-5.69279,-54.2101,2.29523,134.357
2023-03-15 20:46:06:95,0.435482,7.92484,-5.69808,-54.2067,2.29428,134.36
2023-03-15 20:46:06:105,0.42611,7.9252,-5.69238,-54.2089,2.2942,134.359
2023-03-15 20:46:06:115,0.428139,7.92747,-5.69907,-54.2061,2.29484,134.36
2023-03-15 20:46:06:125,0.430388,7.92182,-5.69355,-54.2051,2.29195,134.36
2023-03-15 20:46:06:135,0.421067,7.92466,-5.68973,-54.2062,2.29384,134.359
2023-03-15 20:46:06:146,0.414587,7.92421,-5.68561,-54.2089,2.29213,134.355
2023-03-15 20:46:06:155,0.425496,7.92168,-5.70267,-54.21,2.29331,134.355
2023-03-15 20:46:06:166,0.438515,7.9148,-5.71007,-54.2102,2.29531,134.357
2023-03-15 20:46:06:175,0.43552,7.92213,-5.69515,-54.2101,2.29517,134.356
2023-03-15 20:46:06:185,0.422941,7.92985,-5.69327,-54.2072,2.29861,134.358
2023-03-15 20:46:06:195,0.428291,7.93626,-5.69271,-54.2062,2.29751,134.359
2023-03-15 20:46:06:205,0.439418,7.92557,-5.68693,-54.2051,2.29836,134.36
2023-03-15 20:46:06:215,0.433265,7.91874,-5.69835,-54.2041,2.30051,134.36
2023-03-15 20:46:06:225,0.420128,7.92968,-5.69267,-54.2073,2.30056,134.361
2023-03-15 20:46:06:235,0.432926,7.92438,-5.68523,-54.2122,2.30212,134.36
2023-03-15 20:46:06:246,0.428595,7.91163,-5.69413,-54.2119,2.30221,134.359
2023-03-15 20:46:06:255,0.418491,7.91925,-5.69471,-54.2123,2.30082,134.359
2023-03-15 20:46:06:266,0.429183,7.91335,-5.70055,-54.2136,2.29972,134.358
2023-03-15 20:46:06:275,0.425076,7.91871,-5.69689,-54.21,2.30331,134.363
2023-03-15 20:46:06:285,0.418221,7.91304,-5.69319,-54.2086,2.30114,134.362
2023-03-15 20:46:06:295,0.416338,7.92189,-5.6898,-54.2086,2.30174,134.364
2023-03-15 20:46:06:305,0.414368,7.93548,-5.68401,-54.2087,2.30333,134.363
2023-03-15 20:46:06:315,0.436221,7.92659,-5.68387,-54.21,2.30124,134.364
2023-03-15 20:46:06:325,0.437945,7.92534,-5.69077,-54.2124,2.30031,134.365
2023-03-15 20:46:06:335,0.420777,7.9139,-5.70563,-54.2113,2.30308,134.367
2023-03-15 20:46:06:345,0.419255,7.92085,-5.69908,-54.2126,2.30438,134.365
2023-03-15 20:46:06:355,0.427662,7.92677,-5.69083,-54.2129,2.3035,134.365
2023-03-15 20:46:06:365,0.428453,7.92322,-5.69521,-54.215,2.3037,134.364
2023-03-15 20:46:06:375,0.428322,7.92493,-5.70073,-54.2138,2.303,134.362
2023-03-15 20:46:06:385,0.422785,7.93204,-5.69333,-54.2136,2.3018,134.362
2023-03-15 20:46:06:395,0.427715,7.93151,-5.69045,-54.2144,2.30254,134.361
2023-03-15 20:46:06:405,0.4235,7.93358,-5.69285,-54.2133,2.30168,134.36
2023-03-15 20:46:06:415,0.409421,7.92315,-5.70264,-54.214,2.30059,134.358
2023-03-15 20:46:06:425,0.414133,7.9165,-5.69105,-54.2157,2.29955,134.355
2023-03-15 20:46:06:435,0.438454,7.9238,-5.69142,-54.2158,2.30281,134.357
2023-03-15 20:46:06:445,0.438207,7.92089,-5.69481,-54.217,2.30162,134.358
2023-03-15 20:46:06:455,0.440721,7.92633,-5.68732,-54.2174,2.29873,134.358
2023-03-15 20:46:06:466,0.441818,7.92718,-5.69057,-54.2188,2.29776,134.356
2023-03-15 20:46:06:475,0.436215,7.92277,-5.70137,-54.2199,2.3001,134.354
2023-03-15 20:46:06:486,0.429051,7.92139,-5.70332,-54.2167,2.30126,134.353
2023-03-15 20:46:06:495,0.425325,7.93371,-5.69645,-54.2153,2.30181,134.354
2023-03-15 20:46:06:506,0.422138,7.91849,-5.69415,-54.2156,2.30354,134.353
2023-03-15 20:46:06:515,0.427677,7.92695,-5.69952,-54.2168,2.30063,134.356
2023-03-15 20:46:06:525,0.427289,7.92657,-5.68661,-54.2188,2.29986,134.357
2023-03-15 20:46:06:535,0.429618,7.92801,-5.69671,-54.2204,2.30526,134.357
2023-03-15 20:46:06:545,0.435896,7.9193,-5.70404,-54.2207,2.30268,134.357
2023-03-15 20:46:06:555,0.435122,7.92022,-5.69899,-54.2191,2.3022,134.356
2023-03-15 20:46:06:566,0.43115,7.9348,-5.691,-54.2195,2.30516,134.357
2023-03-15 20:46:06:575,0.424214,7.94002,-5.67804,-54.2194,2.30619,134.357
2023-03-15 20:46:06:586,0.417325,7.93536,-5.68898,-54.2212,2.30479,134.356
2023-03-15 20:46:06:595,0.417359,7.93281,-5.68646,-54.2226,2.30284,134.354
2023-03-15 20:46:06:606,0.418484,7.9312,-5.69896,-54.2205,2.30327,134.355
2023-03-15 20:46:06:615,0.419465,7.93178,-5.6855,-54.2176,2.30092,134.355
2023-03-15 20:46:06:625,0.423855,7.93465,-5.68791,-54.2193,2.30438,134.356
2023-03-15 20:46:06:635,0.43923,7.93201,-5.68781,-54.2177,2.30419,134.355
2023-03-15 20:46:06:645,0.426782,7.9334,-5.68436,-54.2163,2.30786,134.357
2023-03-15 20:46:06:655,0.413039,7.91968,-5.69494,-54.221,2.30952,134.359
2023-03-15 20:46:06:665,0.417354,7.92353,-5.69501,-54.2224,2.30923,134.361
2023-03-15 20:46:06:675,0.431284,7.92541,-5.6916,-54.2226,2.30437,134.36
2023-03-15 20:46:06:686,0.422921,7.93009,-5.6874,-54.2261,2.30706,134.358
2023-03-15 20:46:06:695,0.422272,7.92155,-5.69319,-54.227,2.30848,134.357
2023-03-15 20:46:06:706,0.420296,7.92221,-5.69918,-54.2299,2.3079,134.358
2023-03-15 20:46:06:715,0.425772,7.93659,-5.68567,-54.2285,2.31009,134.357
2023-03-15 20:46:06:725,0.425243,7.9313,-5.68589,-54.2293,2.31087,134.358
2023-03-15 20:46:06:735,0.412271,7.9345,-5.68617,-54.2278,2.30935,134.358
2023-03-15 20:46:06:745,0.433285,7.93566,-5.69273,-54.2282,2.30753,134.357
2023-03-15 20:46:06:755,0.443355,7.93487,-5.69169,-54.2299,2.30967,134.352
2023-03-15 20:46:06:765,0.450871,7.92821,-5.70318,-54.2286,2.31268,134.352
2023-03-15 20:46:06:775,0.435496,7.92868,-5.69345,-54.2301,2.31277,134.354
2023-03-15 20:46:06:786,0.42052,7.91986,-5.69251,-54.228,2.31373,134.353
2023-03-15 20:46:06:795,0.432256,7.92284,-5.69111,-54.229,2.31391,134.354
2023-03-15 20:46:06:806,0.423375,7.93265,-5.68693,-54.2301,2.31572,134.351
2023-03-15 20:46:06:815,0.409227,7.91846,-5.68687,-54.2281,2.31378,134.351
2023-03-15 20:46:06:825,0.420371,7.92923,-5.68306,-54.2285,2.31173,134.349
2023-03-15 20:46:06:835,0.425017,7.92453,-5.68974,-54.2308,2.31091,134.346
2023-03-15 20:46:06:846,0.426296,7.92098,-5.6938,-54.2313,2.31238,134.345
2023-03-15 20:46:06:855,0.43141,7.91981,-5.69912,-54.2314,2.31033,134.349
2023-03-15 20:46:06:866,0.444609,7.91765,-5.69973,-54.2303,2.31101,134.346
2023-03-15 20:46:06:875,0.441254,7.92421,-5.70184,-54.2339,2.31277,134.346
2023-03-15 20:46:06:885,0.419067,7.92591,-5.68823,-54.235,2.31251,134.344
2023-03-15 20:46:06:895,0.419923,7.91991,-5.68585,-54.2375,2.31218,134.344
2023-03-15 20:46:06:905,0.415954,7.92827,-5.69372,-54.237,2.30956,134.343
2023-03-15 20:46:06:915,0.411529,7.92641,-5.6953,-54.2353,2.30602,134.338
2023-03-15 20:46:06:926,0.425816,7.92243,-5.69177,-54.2385,2.3043,134.337
2023-03-15 20:46:06:935,0.42447,7.92681,-5.68528,-54.2359,2.30152,134.339
2023-03-15 20:46:06:946,0.426268,7.92232,-5.68544,-54.2377,2.30304,134.338
2023-03-15 20:46:06:955,0.441307,7.92206,-5.68551,-54.2403,2.30183,134.335
2023-03-15 20:46:06:966,0.434542,7.9218,-5.69768,-54.2385,2.30352,134.333
2023-03-15 20:46:06:975,0.420327,7.91882,-5.69793,-54.2385,2.30222,134.333
2023-03-15 20:46:06:985,0.410376,7.93845,-5.68858,-54.2386,2.30245,134.33
2023-03-15 20:46:06:995,0.42135,7.9351,-5.68722,-54.2425,2.30193,134.328
2023-03-15 20:46:07:6,0.426462,7.92232,-5.69183,-54.2419,2.30265,134.328
2023-03-15 20:46:07:15,0.431441,7.92659,-5.68906,-54.244,2.3018,134.327
2023-03-15 20:46:07:26,0.438659,7.92609,-5.69239,-54.2435,2.30081,134.33
2023-03-15 20:46:07:35,0.43082,7.92105,-5.70072,-54.2372,2.298,134.334
2023-03-15 20:46:07:46,0.420625,7.92598,-5.69431,-54.2377,2.30004,134.333
2023-03-15 20:46:07:55,0.408479,7.92994,-5.68016,-54.2358,2.29955,134.333
2023-03-15 20:46:07:66,0.402289,7.93695,-5.67388,-54.2365,2.29626,134.334
2023-03-15 20:46:07:75,0.416798,7.92965,-5.68665,-54.2352,2.29699,134.333
2023-03-15 20:46:07:86,0.423027,7.91774,-5.70273,-54.2362,2.29808,134.33
2023-03-15 20:46:07:95,0.440296,7.91685,-5.69544,-54.2348,2.29737,134.332
2023-03-15 20:46:07:105,0.453906,7.92824,-5.69417,-54.2352,2.29791,134.331
2023-03-15 20:46:07:115,0.446351,7.92623,-5.6953,-54.2363,2.29853,134.331
2023-03-15 20:46:07:125,0.425481,7.92392,-5.69192,-54.2374,2.29942,134.333
2023-03-15 20:46:07:135,0.412219,7.92538,-5.68943,-54.2377,2.29729,134.335
2023-03-15 20:46:07:146,0.399215,7.94073,-5.68369,-54.2381,2.29542,134.338
2023-03-15 20:46:07:155,0.404347,7.9295,-5.6952,-54.2392,2.2956,134.338
2023-03-15 20:46:07:166,0.420621,7.9255,-5.68424,-54.2388,2.29391,134.34
2023-03-15 20:46:07:175,0.434648,7.92304,-5.69249,-54.2376,2.29428,134.343
2023-03-15 20:46:07:185,0.441826,7.92338,-5.70043,-54.2365,2.29364,134.343
2023-03-15 20:46:07:195,0.435402,7.92572,-5.70818,-54.2364,2.29684,134.341
2023-03-15 20:46:07:205,0.434519,7.92791,-5.70598,-54.2373,2.29902,134.341
2023-03-15 20:46:07:215,0.428648,7.92799,-5.68393,-54.2382,2.29887,134.343
2023-03-15 20:46:07:226,0.421306,7.92458,-5.68993,-54.2395,2.29888,134.342
2023-03-15 20:46:07:235,0.410955,7.93314,-5.69076,-54.2402,2.29676,134.34
2023-03-15 20:46:07:246,0.398859,7.93238,-5.69573,-54.2358,2.29209,134.343
2023-03-15 20:46:07:255,0.419813,7.92388,-5.69689,-54.2364,2.29204,134.342
2023-03-15 20:46:07:266,0.433439,7.92255,-5.69321,-54.2356,2.29265,134.34
2023-03-15 20:46:07:275,0.436219,7.92566,-5.69576,-54.2352,2.29483,134.341
2023-03-15 20:46:07:286,0.446833,7.92808,-5.69426,-54.2329,2.29936,134.342
2023-03-15 20:46:07:295,0.433919,7.92092,-5.70626,-54.2294,2.29959,134.342
2023-03-15 20:46:07:306,0.437325,7.92265,-5.7012,-54.2319,2.29976,134.34
2023-03-15 20:46:07:315,0.423703,7.93521,-5.69398,-54.2341,2.29926,134.339
2023-03-15 20:46:07:325,0.422306,7.93453,-5.68779,-54.235,2.30076,134.342
2023-03-15 20:46:07:335,0.417569,7.93357,-5.68741,-54.2353,2.29919,134.338
2023-03-15 20:46:07:346,0.415707,7.93662,-5.68692,-54.234,2.29828,134.338
2023-03-15 20:46:07:355,0.430602,7.92873,-5.69126,-54.2353,2.29564,134.34
2023-03-15 20:46:07:366,0.442374,7.92676,-5.68902,-54.2329,2.29754,134.341
2023-03-15 20:46:07:375,0.45289,7.92822,-5.68752,-54.2307,2.29786,134.343
2023-03-15 20:46:07:386,0.446574,7.9255,-5.6958,-54.2327,2.29996,134.34
2023-03-15 20:46:07:395,0.433117,7.91546,-5.69698,-54.233,2.29748,134.339
2023-03-15 20:46:07:406,0.417491,7.92682,-5.69046,-54.2337,2.2988,134.342
2023-03-15 20:46:07:415,0.407127,7.93619,-5.68123,-54.2308,2.2999,134.341
2023-03-15 20:46:07:426,0.410701,7.92443,-5.69752,-54.2304,2.30058,134.338
2023-03-15 20:46:07:435,0.425735,7.92904,-5.69413,-54.228,2.29764,134.34
2023-03-15 20:46:07:446,0.414419,7.92365,-5.69553,-54.2277,2.2998,134.339
2023-03-15 20:46:07:455,0.427245,7.92498,-5.68885,-54.2242,2.30152,134.339
2023-03-15 20:46:07:466,0.441734,7.91936,-5.69206,-54.2252,2.3003,134.34
2023-03-15 20:46:07:476,0.436499,7.92282,-5.69024,-54.2234,2.30044,134.343
2023-03-15 20:46:07:486,0.422229,7.93302,-5.69703,-54.2248,2.30248,134.343
2023-03-15 20:46:07:496,0.423536,7.93441,-5.69317,-54.2265,2.30258,134.342
2023-03-15 20:46:07:506,0.412113,7.93892,-5.70077,-54.2286,2.30201,134.343
2023-03-15 20:46:07:516,0.407247,7.92468,-5.69651,-54.2274,2.30139,134.343
2023-03-15 20:46:07:526,0.41178,7.92504,-5.69185,-54.2255,2.3044,134.34
2023-03-15 20:46:07:535,0.419147,7.93081,-5.69196,-54.2247,2.30287,134.343
2023-03-15 20:46:07:545,0.431308,7.91954,-5.68822,-54.2259,2.3056,134.342
2023-03-15 20:46:07:555,0.433668,7.92126,-5.69401,-54.2236,2.30358,134.341
2023-03-15 20:46:07:565,0.431638,7.91931,-5.68716,-54.2242,2.30182,134.343
2023-03-15 20:46:07:575,0.425389,7.91021,-5.69168,-54.2236,2.30265,134.341
2023-03-15 20:46:07:586,0.429341,7.92152,-5.69137,-54.2247,2.3035,134.342
2023-03-15 20:46:07:595,0.427914,7.93389,-5.68906,-54.2253,2.3006,134.342
2023-03-15 20:46:07:606,0.418907,7.92896,-5.69284,-54.2226,2.29915,134.342
2023-03-15 20:46:07:616,0.415711,7.92406,-5.68362,-54.2228,2.30012,134.345
2023-03-15 20:46:07:625,0.410012,7.93012,-5.68764,-54.2216,2.29974,134.344
2023-03-15 20:46:07:635,0.421271,7.91899,-5.69704,-54.2223,2.29994,134.345
2023-03-15 20:46:07:646,0.42617,7.93222,-5.68669,-54.2231,2.2997,134.346
2023-03-15 20:46:07:655,0.432143,7.93321,-5.68294,-54.2238,2.29698,134.347
2023-03-15 20:46:07:666,0.441732,7.91895,-5.69262,-54.2221,2.29463,134.346
2023-03-15 20:46:07:675,0.437222,7.92565,-5.68766,-54.2177,2.29338,134.347
2023-03-15 20:46:07:686,0.442467,7.91646,-5.69351,-54.2191,2.2939,134.347
2023-03-15 20:46:07:696,0.42431,7.93511,-5.68587,-54.2196,2.29499,134.347
2023-03-15 20:46:07:706,0.413172,7.93176,-5.69418,-54.2198,2.29784,134.344
2023-03-15 20:46:07:716,0.39562,7.93577,-5.68209,-54.2217,2.29572,134.344
2023-03-15 20:46:07:725,0.40935,7.92801,-5.68073,-54.2236,2.2994,134.341
2023-03-15 20:46:07:735,0.42325,7.92743,-5.68339,-54.2237,2.30023,134.339
2023-03-15 20:46:07:746,0.452772,7.92389,-5.69641,-54.2232,2.29915,134.34
2023-03-15 20:46:07:755,0.469212,7.92354,-5.69245,-54.2257,2.29767,134.343
2023-03-15 20:46:07:766,0.456178,7.92038,-5.68483,-54.2235,2.29676,134.342
2023-03-15 20:46:07:776,0.427617,7.91754,-5.68825,-54.2251,2.29794,134.345
2023-03-15 20:46:07:786,0.414975,7.9255,-5.69473,-54.2261,2.29841,134.348
2023-03-15 20:46:07:796,0.396607,7.93014,-5.69497,-54.2244,2.29681,134.35
2023-03-15 20:46:07:806,0.407996,7.92341,-5.69383,-54.223,2.29577,134.348
2023-03-15 20:46:07:816,0.420585,7.92919,-5.69449,-54.2229,2.29605,134.35
2023-03-15 20:46:07:826,0.448009,7.92267,-5.68889,-54.2217,2.29534,134.351
2023-03-15 20:46:07:836,0.442573,7.92108,-5.68607,-54.2197,2.29503,134.348
2023-03-15 20:46:07:846,0.424518,7.92636,-5.68688,-54.2222,2.29398,134.348
2023-03-15 20:46:07:855,0.429416,7.92272,-5.69106,-54.2243,2.29446,134.346
2023-03-15 20:46:07:866,0.437943,7.9308,-5.68388,-54.2264,2.29509,134.345
2023-03-15 20:46:07:876,0.424128,7.93267,-5.68001,-54.225,2.29618,134.345
2023-03-15 20:46:07:886,0.404544,7.93262,-5.685,-54.2242,2.29728,134.345
2023-03-15 20:46:07:895,0.401492,7.92713,-5.70037,-54.2213,2.29937,134.347
2023-03-15 20:46:07:906,0.418173,7.93322,-5.70179,-54.222,2.29716,134.345
2023-03-15 20:46:07:916,0.42185,7.93813,-5.68975,-54.221,2.2949,134.344
2023-03-15 20:46:07:925,0.439169,7.93042,-5.68153,-54.2233,2.29691,134.344
2023-03-15 20:46:07:936,0.440493,7.92263,-5.69393,-54.2273,2.29793,134.345
2023-03-15 20:46:07:946,0.438077,7.91786,-5.69843,-54.228,2.30106,134.346
2023-03-15 20:46:07:956,0.434637,7.92353,-5.68007,-54.2313,2.30026,134.346
2023-03-15 20:46:07:965,0.413192,7.92258,-5.68837,-54.2301,2.2978,134.349
2023-03-15 20:46:07:975,0.402,7.93123,-5.69325,-54.2299,2.29608,134.349
2023-03-15 20:46:07:986,0.396895,7.93176,-5.69809,-54.2278,2.29551,134.349
2023-03-15 20:46:07:995,0.400265,7.93232,-5.6879,-54.2274,2.29741,134.35
2023-03-15 20:46:08:6,0.406557,7.93129,-5.68609,-54.2269,2.29669,134.349
2023-03-15 20:46:08:16,0.42791,7.92132,-5.70031,-54.2288,2.29887,134.346
2023-03-15 20:46:08:26,0.456255,7.91162,-5.70364,-54.2281,2.29849,134.349
2023-03-15 20:46:08:35,0.455717,7.91164,-5.70047,-54.2278,2.30121,134.345
2023-03-15 20:46:08:46,0.451755,7.92824,-5.68939,-54.2288,2.30213,134.345
2023-03-15 20:46:08:55,0.410657,7.9306,-5.69238,-54.2298,2.3041,134.344
2023-03-15 20:46:08:65,0.381125,7.93396,-5.69119,-54.228,2.30436,134.339
2023-03-15 20:46:08:75,0.380466,7.9283,-5.69846,-54.2289,2.30398,134.338
2023-03-15 20:46:08:86,0.414925,7.91561,-5.70404,-54.2307,2.30095,134.337
2023-03-15 20:46:08:96,0.460451,7.91861,-5.70112,-54.233,2.29731,134.337
2023-03-15 20:46:08:106,0.454667,7.92644,-5.69339,-54.2336,2.29873,134.337
2023-03-15 20:46:08:115,0.424217,7.92848,-5.6874,-54.2343,2.2996,134.337
2023-03-15 20:46:08:126,0.396724,7.92775,-5.69701,-54.2338,2.29903,134.341
2023-03-15 20:46:08:135,0.391437,7.92439,-5.69726,-54.2326,2.29945,134.341
2023-03-15 20:46:08:145,0.395911,7.92694,-5.68775,-54.233,2.2973,134.341
2023-03-15 20:46:08:156,0.405625,7.9266,-5.69109,-54.2323,2.29762,134.343
2023-03-15 20:46:08:166,0.447416,7.92086,-5.69978,-54.2328,2.30141,134.342
2023-03-15 20:46:08:176,0.453862,7.92692,-5.69354,-54.2333,2.30208,134.342
2023-03-15 20:46:08:185,0.438451,7.93712,-5.69141,-54.2313,2.30062,134.34
2023-03-15 20:46:08:195,0.428258,7.93157,-5.69289,-54.2311,2.30141,134.34
2023-03-15 20:46:08:206,0.407555,7.93,-5.6878,-54.2294,2.30235,134.339
2023-03-15 20:46:08:216,0.402229,7.93522,-5.69694,-54.2323,2.301,134.336
2023-03-15 20:46:08:226,0.418397,7.92434,-5.68383,-54.2347,2.30252,134.334
2023-03-15 20:46:08:235,0.431899,7.91829,-5.69027,-54.2344,2.30321,134.334
2023-03-15 20:46:08:246,0.441728,7.92693,-5.69147,-54.2353,2.30312,134.332
2023-03-15 20:46:08:256,0.437852,7.9236,-5.69653,-54.2359,2.30322,134.333
2023-03-15 20:46:08:266,0.410291,7.92233,-5.69396,-54.24,2.30359,134.33
2023-03-15 20:46:08:276,0.364238,7.93251,-5.69199,-54.2399,2.30539,134.33
2023-03-15 20:46:08:286,0.369804,7.94003,-5.6946,-54.2405,2.30753,134.33
2023-03-15 20:46:08:296,0.464804,7.91781,-5.70068,-54.2407,2.30757,134.328
2023-03-15 20:46:08:306,0.576368,7.88117,-5.71919,-54.2402,2.3104,134.327
2023-03-15 20:46:08:315,0.553923,7.90285,-5.71224,-54.2398,2.3119,134.33
2023-03-15 20:46:08:326,0.42021,7.93979,-5.68696,-54.2394,2.31437,134.335
2023-03-15 20:46:08:335,0.321002,7.95609,-5.66718,-54.2382,2.31186,134.333
2023-03-15 20:46:08:345,0.297292,7.95746,-5.67513,-54.2385,2.31197,134.334
2023-03-15 20:46:08:355,0.346833,7.93433,-5.68421,-54.2379,2.3089,134.331
2023-03-15 20:46:08:366,0.423958,7.92975,-5.68889,-54.2408,2.3088,134.328
2023-03-15 20:46:08:375,0.48162,7.92687,-5.69215,-54.2441,2.30752,134.327
2023-03-15 20:46:08:385,0.499345,7.92304,-5.69078,-54.2459,2.31148,134.325
2023-03-15 20:46:08:396,0.488001,7.91689,-5.70759,-54.2452,2.31152,134.323
2023-03-15 20:46:08:406,0.459436,7.90822,-5.71667,-54.2389,2.31196,134.323
2023-03-15 20:46:08:415,0.404544,7.90986,-5.71002,-54.235,2.31223,134.324
2023-03-15 20:46:08:426,0.3618,7.93805,-5.69072,-54.2329,2.30962,134.323
2023-03-15 20:46:08:436,0.356519,7.94486,-5.67057,-54.2357,2.30891,134.323
2023-03-15 20:46:08:446,0.393175,7.94017,-5.67685,-54.2362,2.31235,134.323
2023-03-15 20:46:08:456,0.435836,7.9282,-5.69372,-54.2327,2.30953,134.322
2023-03-15 20:46:08:466,0.46924,7.92397,-5.69331,-54.2329,2.31108,134.321
2023-03-15 20:46:08:476,0.468093,7.91805,-5.69027,-54.2337,2.31342,134.318
2023-03-15 20:46:08:485,0.435561,7.93043,-5.68504,-54.2376,2.31347,134.319
2023-03-15 20:46:08:496,0.420215,7.93116,-5.69364,-54.2405,2.31644,134.319
2023-03-15 20:46:08:506,0.433781,7.92194,-5.70494,-54.2407,2.31628,134.318
2023-03-15 20:46:08:516,0.436159,7.90826,-5.71042,-54.2384,2.31434,134.317
2023-03-15 20:46:08:526,0.419294,7.91369,-5.71327,-54.2376,2.31271,134.322
2023-03-15 20:46:08:536,0.387741,7.93286,-5.70046,-54.2368,2.31283,134.322
2023-03-15 20:46:08:546,0.397055,7.9264,-5.68584,-54.243,2.31108,134.319
2023-03-15 20:46:08:555,0.431123,7.94324,-5.67654,-54.2437,2.31097,134.317
2023-03-15 20:46:08:566,0.452852,7.94092,-5.67667,-54.2421,2.3103,134.315
2023-03-15 20:46:08:575,0.455798,7.93178,-5.68826,-54.2413,2.30719,134.314
2023-03-15 20:46:08:585,0.436511,7.92282,-5.69361,-54.2416,2.3111,134.316
2023-03-15 20:46:08:595,0.428882,7.92468,-5.70158,-54.2475,2.31184,134.317
2023-03-15 20:46:08:606,0.427084,7.9283,-5.69119,-54.247,2.31161,134.317
2023-03-15 20:46:08:615,0.420184,7.91902,-5.70819,-54.2478,2.3088,134.319
2023-03-15 20:46:08:625,0.414599,7.92576,-5.69616,-54.2474,2.30576,134.319
2023-03-15 20:46:08:635,0.410974,7.92285,-5.68848,-54.2457,2.30947,134.318
2023-03-15 20:46:08:646,0.415961,7.93036,-5.68191,-54.2474,2.30985,134.317
2023-03-15 20:46:08:656,0.439218,7.92914,-5.68101,-54.2491,2.30975,134.315
2023-03-15 20:46:08:666,0.456054,7.92804,-5.68928,-54.2457,2.30938,134.315
2023-03-15 20:46:08:676,0.456249,7.93179,-5.68135,-54.2466,2.3147,134.313
2023-03-15 20:46:08:686,0.433726,7.93169,-5.68224,-54.2472,2.31393,134.312
2023-03-15 20:46:08:696,0.407699,7.93809,-5.68322,-54.2455,2.31354,134.313
2023-03-15 20:46:08:706,0.396428,7.92693,-5.69433,-54.2462,2.31506,134.318
2023-03-15 20:46:08:716,0.40577,7.93098,-5.68941,-54.2457,2.31295,134.32
2023-03-15 20:46:08:726,0.409726,7.92099,-5.69566,-54.2456,2.31168,134.322
2023-03-15 20:46:08:736,0.424859,7.91618,-5.70675,-54.2423,2.30948,134.321
2023-03-15 20:46:08:746,0.440816,7.91,-5.70818,-54.2396,2.30822,134.322
2023-03-15 20:46:08:756,0.44947,7.91636,-5.68509,-54.2416,2.30897,134.322
2023-03-15 20:46:08:766,0.462604,7.91333,-5.68456,-54.2448,2.30823,134.322
2023-03-15 20:46:08:776,0.452978,7.92496,-5.69304,-54.2464,2.31105,134.323
2023-03-15 20:46:08:786,0.403997,7.91864,-5.69818,-54.2439,2.31297,134.323
2023-03-15 20:46:08:796,0.3849,7.92619,-5.68552,-54.2444,2.3115,134.326
2023-03-15 20:46:08:806,0.403351,7.91937,-5.68739,-54.2452,2.30974,134.322
2023-03-15 20:46:08:816,0.42166,7.9229,-5.68808,-54.2486,2.30892,134.32
2023-03-15 20:46:08:826,0.431043,7.92635,-5.68893,-54.2484,2.30777,134.318
2023-03-15 20:46:08:836,0.4512,7.91753,-5.70021,-54.2481,2.3089,134.318
2023-03-15 20:46:08:846,0.458753,7.91687,-5.70224,-54.2509,2.30683,134.319
2023-03-15 20:46:08:856,0.435945,7.91875,-5.70695,-54.2534,2.30746,134.319
2023-03-15 20:46:08:866,0.404993,7.92683,-5.69799,-54.2539,2.30716,134.322
2023-03-15 20:46:08:876,0.401888,7.93461,-5.68688,-54.2541,2.3062,134.321
2023-03-15 20:46:08:886,0.409839,7.9425,-5.69284,-54.2569,2.3048,134.322
2023-03-15 20:46:08:896,0.416457,7.93446,-5.6854,-54.2569,2.30589,134.321
2023-03-15 20:46:08:906,0.432418,7.91539,-5.6862,-54.2554,2.30771,134.322
2023-03-15 20:46:08:916,0.438095,7.92343,-5.6725,-54.2584,2.30715,134.321
2023-03-15 20:46:08:926,0.418608,7.93751,-5.68569,-54.2635,2.30679,134.321
2023-03-15 20:46:08:936,0.424138,7.93281,-5.69262,-54.2609,2.30664,134.322
2023-03-15 20:46:08:946,0.430293,7.91156,-5.69395,-54.2593,2.30835,134.321
2023-03-15 20:46:08:956,0.435634,7.90828,-5.703,-54.2588,2.30958,134.321
2023-03-15 20:46:08:966,0.422632,7.91903,-5.70154,-54.2613,2.31036,134.322
2023-03-15 20:46:08:976,0.417151,7.93499,-5.68923,-54.2613,2.3115,134.321
2023-03-15 20:46:08:986,0.414288,7.93075,-5.68869,-54.2627,2.31111,134.321
2023-03-15 20:46:08:996,0.420499,7.93554,-5.68212,-54.2652,2.30951,134.322
2023-03-15 20:46:09:6,0.430327,7.9195,-5.69348,-54.2665,2.3091,134.326
2023-03-15 20:46:09:16,0.430953,7.92812,-5.68816,-54.2672,2.30986,134.327
2023-03-15 20:46:09:26,0.423039,7.93293,-5.67781,-54.2679,2.31197,134.327
2023-03-15 20:46:09:36,0.421886,7.92975,-5.68427,-54.2704,2.31285,134.327
2023-03-15 20:46:09:46,0.424256,7.93318,-5.68716,-54.2696,2.31249,134.326
2023-03-15 20:46:09:56,0.424938,7.91788,-5.69455,-54.2701,2.31162,134.327
2023-03-15 20:46:09:66,0.424567,7.91122,-5.69622,-54.2673,2.31316,134.327
2023-03-15 20:46:09:76,0.42906,7.91636,-5.6954,-54.2688,2.31345,134.325
2023-03-15 20:46:09:85,0.422198,7.92578,-5.67972,-54.2717,2.31221,134.322
2023-03-15 20:46:09:95,0.427832,7.92844,-5.68806,-54.2714,2.31058,134.323
2023-03-15 20:46:09:105,0.435315,7.91642,-5.69773,-54.2717,2.312,134.323
2023-03-15 20:46:09:116,0.419568,7.92402,-5.69997,-54.2692,2.311,134.324
2023-03-15 20:46:09:126,0.41715,7.91691,-5.69577,-54.273,2.31118,134.325
2023-03-15 20:46:09:136,0.420472,7.92106,-5.67813,-54.2736,2.31182,134.323
2023-03-15 20:46:09:146,0.425506,7.92271,-5.69199,-54.2729,2.31248,134.322
2023-03-15 20:46:09:156,0.442038,7.91947,-5.68898,-54.2754,2.30982,134.319
2023-03-15 20:46:09:165,0.437386,7.92181,-5.69608,-54.273,2.31025,134.32
2023-03-15 20:46:09:176,0.421404,7.90867,-5.69325,-54.2686,2.31056,134.322
2023-03-15 20:46:09:186,0.407972,7.92384,-5.69084,-54.2716,2.30888,134.321
2023-03-15 20:46:09:196,0.401244,7.9137,-5.69599,-54.2714,2.30965,134.32
2023-03-15 20:46:09:206,0.417682,7.92091,-5.69685,-54.269,2.30825,134.319
2023-03-15 20:46:09:216,0.434684,7.92369,-5.70109,-54.2684,2.30789,134.319
2023-03-15 20:46:09:226,0.440528,7.91907,-5.69732,-54.2708,2.30921,134.317
2023-03-15 20:46:09:236,0.429379,7.9291,-5.69571,-54.2718,2.30707,134.319
2023-03-15 20:46:09:246,0.424428,7.92631,-5.69321,-54.2742,2.30584,134.318
2023-03-15 20:46:09:256,0.427047,7.92418,-5.69972,-54.2771,2.30314,134.32
2023-03-15 20:46:09:266,0.429444,7.91989,-5.69461,-54.2751,2.303,134.319
2023-03-15 20:46:09:276,0.4193,7.92084,-5.6954,-54.2767,2.30267,134.32
2023-03-15 20:46:09:286,0.421422,7.92273,-5.70071,-54.2763,2.30059,134.32
2023-03-15 20:46:09:296,0.422383,7.92152,-5.70185,-54.277,2.29888,134.322
2023-03-15 20:46:09:305,0.423697,7.92671,-5.69426,-54.2786,2.29898,134.321
2023-03-15 20:46:09:316,0.430142,7.92188,-5.69674,-54.28,2.30049,134.32
2023-03-15 20:46:09:326,0.431041,7.91972,-5.69682,-54.2798,2.3025,134.323
2023-03-15 20:46:09:336,0.421994,7.93659,-5.67652,-54.2749,2.30335,134.325
2023-03-15 20:46:09:346,0.428543,7.92064,-5.69666,-54.275,2.30611,134.322
2023-03-15 20:46:09:356,0.423403,7.92419,-5.69215,-54.2749,2.30537,134.32
2023-03-15 20:46:09:366,0.418059,7.90898,-5.69932,-54.2728,2.30694,134.32
2023-03-15 20:46:09:376,0.416541,7.91738,-5.70195,-54.275,2.30533,134.322
2023-03-15 20:46:09:386,0.418241,7.92514,-5.70444,-54.2788,2.30462,134.321
2023-03-15 20:46:09:396,0.419851,7.92386,-5.70511,-54.2796,2.30649,134.316
2023-03-15 20:46:09:406,0.420259,7.93152,-5.69825,-54.2798,2.30638,134.315
2023-03-15 20:46:09:416,0.436173,7.92065,-5.69528,-54.2781,2.30565,134.319
2023-03-15 20:46:09:426,0.440786,7.9206,-5.69175,-54.279,2.30564,134.319
2023-03-15 20:46:09:436,0.421735,7.91996,-5.69074,-54.2817,2.30522,134.321
2023-03-15 20:46:09:446,0.40504,7.9237,-5.69366,-54.2799,2.30467,134.323
2023-03-15 20:46:09:456,0.404025,7.93398,-5.68065,-54.2798,2.30358,134.322
2023-03-15 20:46:09:466,0.421173,7.93529,-5.68805,-54.2812,2.30431,134.319
2023-03-15 20:46:09:476,0.435173,7.91933,-5.69023,-54.2805,2.30593,134.316
2023-03-15 20:46:09:486,0.431076,7.90964,-5.70897,-54.2785,2.30553,134.318
2023-03-15 20:46:09:496,0.4425,7.91982,-5.69956,-54.2788,2.30252,134.318
2023-03-15 20:46:09:506,0.435483,7.92472,-5.69797,-54.2796,2.3049,134.317
2023-03-15 20:46:09:516,0.431076,7.92311,-5.69751,-54.2805,2.30732,134.32
2023-03-15 20:46:09:526,0.411036,7.93165,-5.69183,-54.2803,2.30634,134.321
2023-03-15 20:46:09:536,0.42067,7.92227,-5.69122,-54.2765,2.30571,134.323
2023-03-15 20:46:09:546,0.423878,7.92525,-5.70117,-54.278,2.30439,134.323
2023-03-15 20:46:09:556,0.429736,7.92194,-5.69425,-54.2791,2.3055,134.323
2023-03-15 20:46:09:566,0.432777,7.92087,-5.69759,-54.279,2.30509,134.322
2023-03-15 20:46:09:576,0.440621,7.91987,-5.70319,-54.2806,2.30598,134.321
2023-03-15 20:46:09:586,0.431721,7.91215,-5.69535,-54.2807,2.31189,134.32
2023-03-15 20:46:09:595,0.412614,7.92113,-5.68294,-54.2823,2.31191,134.318
2023-03-15 20:46:09:605,0.408638,7.91965,-5.68914,-54.2812,2.31135,134.317
2023-03-15 20:46:09:615,0.397516,7.9213,-5.70193,-54.2798,2.31049,134.318
2023-03-15 20:46:09:626,0.406189,7.92226,-5.70276,-54.2801,2.31119,134.317
2023-03-15 20:46:09:636,0.424889,7.92805,-5.69195,-54.2782,2.30951,134.316
2023-03-15 20:46:09:646,0.426643,7.93222,-5.69085,-54.2779,2.31201,134.314
2023-03-15 20:46:09:656,0.434815,7.92897,-5.68719,-54.2805,2.31015,134.312
2023-03-15 20:46:09:666,0.433217,7.93132,-5.68329,-54.2783,2.31069,134.311
2023-03-15 20:46:09:675,0.433165,7.91917,-5.6898,-54.2782,2.31331,134.309
2023-03-15 20:46:09:686,0.428614,7.92927,-5.69897,-54.2797,2.31391,134.313
2023-03-15 20:46:09:696,0.417941,7.92301,-5.69007,-54.2776,2.31429,134.313
2023-03-15 20:46:09:706,0.411611,7.92328,-5.6861,-54.2789,2.31735,134.313
2023-03-15 20:46:09:716,0.412964,7.92656,-5.69669,-54.2786,2.31771,134.312
2023-03-15 20:46:09:726,0.429116,7.93067,-5.69493,-54.2787,2.31747,134.313
2023-03-15 20:46:09:736,0.428798,7.93423,-5.69153,-54.2757,2.32074,134.308
