Timestamp,Acceleration_x,Acceleration_y,Acceleration_z,roll,pitch,yaw
2023-03-15 12:09:05:17,0.175831,1.03366,-9.69195,-6.16559,0.710724,4.51626
2023-03-15 12:09:05:25,0.186348,1.04139,-9.67903,-6.1645,0.703582,4.53071
2023-03-15 12:09:05:35,0.187481,1.04106,-9.68935,-6.16268,0.695518,4.54762
2023-03-15 12:09:05:45,0.175951,1.05572,-9.68062,-6.16727,0.686364,4.56336
2023-03-15 12:09:05:55,0.140307,1.06141,-9.67817,-6.16672,0.679681,4.57961
2023-03-15 12:09:05:65,0.131312,1.06763,-9.68233,-6.16942,0.670092,4.59814
2023-03-15 12:09:05:75,0.134989,1.05858,-9.67055,-6.17053,0.661068,4.61481
2023-03-15 12:09:05:85,0.123506,1.05568,-9.68185,-6.17072,0.656195,4.63253
2023-03-15 12:09:05:95,0.134639,1.06645,-9.68982,-6.17785,0.649908,4.6493
2023-03-15 12:09:05:105,0.141838,1.06246,-9.69847,-6.17857,0.646827,4.66388
2023-03-15 12:09:05:115,0.121738,1.0556,-9.70392,-6.17844,0.644595,4.6802
2023-03-15 12:09:05:125,0.0975408,1.04872,-9.73016,-6.18149,0.64116,4.69633
2023-03-15 12:09:05:135,0.113531,1.10002,-9.75388,-6.18642,0.635585,4.70883
2023-03-15 12:09:05:145,0.126747,1.06464,-9.7368,-6.18448,0.635182,4.71869
2023-03-15 12:09:05:155,0.134741,1.01896,-9.67262,-6.17703,0.638837,4.72933
2023-03-15 12:09:05:165,0.135403,0.988521,-9.6082,-6.1718,0.643585,4.74375
2023-03-15 12:09:05:175,0.142654,0.981435,-9.61254,-6.1738,0.645153,4.75736
2023-03-15 12:09:05:185,0.147631,1.00898,-9.67831,-6.18537,0.646858,4.77263
2023-03-15 12:09:05:195,0.153661,1.06882,-9.73694,-6.203,0.647549,4.7844
2023-03-15 12:09:05:205,0.151906,1.11658,-9.7602,-6.21635,0.648393,4.79667
2023-03-15 12:09:05:215,0.142149,1.11832,-9.76222,-6.22496,0.651024,4.80495
2023-03-15 12:09:05:225,0.190227,1.10171,-9.7568,-6.225,0.650849,4.81484
2023-03-15 12:09:05:235,0.215441,1.08346,-9.73417,-6.22163,0.65439,4.82724
2023-03-15 12:09:05:245,0.184753,1.0488,-9.70397,-6.21622,0.652172,4.84502
2023-03-15 12:09:05:255,0.123042,1.04691,-9.67621,-6.21464,0.652507,4.86568
2023-03-15 12:09:05:265,0.100049,1.06626,-9.69133,-6.21556,0.652667,4.88471
2023-03-15 12:09:05:275,0.118749,1.07953,-9.72868,-6.21804,0.657462,4.90057
2023-03-15 12:09:05:285,0.132613,1.08673,-9.75158,-6.22199,0.659953,4.91766
2023-03-15 12:09:05:295,0.153538,1.09136,-9.74549,-6.21847,0.663584,4.93198
2023-03-15 12:09:05:305,0.164336,1.08115,-9.7294,-6.219,0.665097,4.94523
2023-03-15 12:09:05:315,0.174538,1.07936,-9.73291,-6.21902,0.66761,4.95679
2023-03-15 12:09:05:325,0.188005,1.094,-9.74838,-6.21746,0.670383,4.96935
2023-03-15 12:09:05:335,0.185984,1.10769,-9.78219,-6.21629,0.67527,4.98262
2023-03-15 12:09:05:345,0.169138,1.11289,-9.77181,-6.20684,0.673075,4.99212
2023-03-15 12:09:05:355,0.15799,1.09437,-9.73914,-6.19986,0.669074,5.00225
2023-03-15 12:09:05:365,0.139335,1.06999,-9.71927,-6.19098,0.663706,5.01256
2023-03-15 12:09:05:375,0.147806,1.0481,-9.68987,-6.18203,0.662446,5.02212
2023-03-15 12:09:05:385,0.171171,1.01944,-9.6756,-6.16994,0.65896,5.029
2023-03-15 12:09:05:395,0.180614,1.02858,-9.6962,-6.16264,0.655396,5.03902
2023-03-15 12:09:05:405,0.177375,1.0534,-9.70034,-6.15701,0.654072,5.05024
2023-03-15 12:09:05:415,0.186,1.01512,-9.67549,-6.14373,0.649143,5.05964
2023-03-15 12:09:05:425,0.163466,0.996964,-9.61633,-6.13367,0.647809,5.07347
2023-03-15 12:09:05:435,0.136046,0.974545,-9.59077,-6.13036,0.638568,5.08692
2023-03-15 12:09:05:445,0.111403,0.968364,-9.61109,-6.1343,0.632433,5.10429
2023-03-15 12:09:05:455,0.0925647,0.993801,-9.65793,-6.14174,0.625933,5.11787
2023-03-15 12:09:05:465,0.0767425,1.02599,-9.69323,-6.15611,0.614906,5.12664
2023-03-15 12:09:05:475,0.0666462,1.0532,-9.71988,-6.17176,0.605423,5.12957
2023-03-15 12:09:05:485,0.0849677,1.07592,-9.74689,-6.18266,0.59462,5.13128
2023-03-15 12:09:05:495,0.100113,1.1008,-9.75471,-6.19303,0.582953,5.12733
2023-03-15 12:09:05:505,0.0864829,1.0927,-9.74513,-6.19909,0.570816,5.12212
2023-03-15 12:09:05:515,0.0771758,1.08038,-9.74148,-6.20774,0.55594,5.11439
2023-03-15 12:09:05:525,0.085011,1.09816,-9.74392,-6.2151,0.541715,5.10512
2023-03-15 12:09:05:535,0.104844,1.10507,-9.75308,-6.22038,0.529399,5.09288
2023-03-15 12:09:05:545,0.122237,1.10986,-9.74647,-6.22036,0.51549,5.08577
2023-03-15 12:09:05:555,0.104305,1.1018,-9.70916,-6.21625,0.501084,5.07251
2023-03-15 12:09:05:565,0.117257,1.06012,-9.67816,-6.21073,0.484334,5.06108
2023-03-15 12:09:05:575,0.126505,1.04535,-9.68006,-6.20693,0.475157,5.05347
2023-03-15 12:09:05:585,0.144096,1.03751,-9.70032,-6.2082,0.466554,5.04491
2023-03-15 12:09:05:595,0.160835,1.06279,-9.68837,-6.21043,0.456576,5.03907
2023-03-15 12:09:05:605,0.148931,1.07938,-9.7078,-6.21321,0.449995,5.03821
2023-03-15 12:09:05:615,0.137211,1.08133,-9.72482,-6.21851,0.440252,5.04038
2023-03-15 12:09:05:625,0.128652,1.08694,-9.72467,-6.22218,0.430637,5.04454
2023-03-15 12:09:05:635,0.128747,1.09171,-9.72949,-6.22142,0.426748,5.0498
2023-03-15 12:09:05:645,0.111444,1.09831,-9.73665,-6.22602,0.424354,5.06114
2023-03-15 12:09:05:655,0.0814693,1.10502,-9.72752,-6.22685,0.422378,5.07163
2023-03-15 12:09:05:665,0.0831803,1.1036,-9.71454,-6.22524,0.426385,5.08326
2023-03-15 12:09:05:675,0.114907,1.09696,-9.70381,-6.21953,0.433658,5.0942
2023-03-15 12:09:05:685,0.132904,1.08855,-9.71344,-6.21561,0.443219,5.10525
2023-03-15 12:09:05:695,0.125504,1.08475,-9.71692,-6.21143,0.448233,5.11942
2023-03-15 12:09:05:705,0.115428,1.08249,-9.70861,-6.20764,0.455052,5.13586
2023-03-15 12:09:05:715,0.0957309,1.0816,-9.71895,-6.2043,0.461908,5.14935
2023-03-15 12:09:05:725,0.114831,1.08859,-9.7187,-6.19835,0.46696,5.16232
2023-03-15 12:09:05:735,0.121041,1.0995,-9.70705,-6.1936,0.469196,5.17396
2023-03-15 12:09:05:745,0.143957,1.07636,-9.70555,-6.18918,0.473404,5.18361
2023-03-15 12:09:05:755,0.137166,1.05229,-9.68685,-6.18282,0.473921,5.19386
2023-03-15 12:09:05:765,0.129319,1.03877,-9.68305,-6.176,0.473165,5.20708
2023-03-15 12:09:05:775,0.124825,1.03586,-9.68397,-6.17019,0.474911,5.22228
2023-03-15 12:09:05:785,0.103741,1.04028,-9.67135,-6.17169,0.471579,5.23388
2023-03-15 12:09:05:795,0.0977527,1.04016,-9.6764,-6.17334,0.473111,5.2463
2023-03-15 12:09:05:805,0.10392,1.05159,-9.69186,-6.17923,0.470851,5.25384
2023-03-15 12:09:05:815,0.151902,1.06206,-9.70946,-6.18296,0.471234,5.25773
2023-03-15 12:09:05:825,0.219159,1.06403,-9.73776,-6.18765,0.472614,5.26222
2023-03-15 12:09:05:835,0.244699,1.08426,-9.73626,-6.19478,0.475762,5.27139
2023-03-15 12:09:05:845,0.2241,1.09739,-9.73733,-6.20194,0.47502,5.28498
2023-03-15 12:09:05:855,0.162257,1.09664,-9.71567,-6.2048,0.472296,5.30246
2023-03-15 12:09:05:865,0.121975,1.07158,-9.65863,-6.20288,0.469844,5.31829
2023-03-15 12:09:05:875,0.133378,1.03923,-9.64447,-6.20484,0.473116,5.33763
2023-03-15 12:09:05:885,0.168158,1.03587,-9.67541,-6.20753,0.477403,5.35931
2023-03-15 12:09:05:895,0.188214,1.04573,-9.72874,-6.21305,0.482625,5.38577
2023-03-15 12:09:05:905,0.17976,1.09983,-9.77136,-6.21922,0.486359,5.41817
2023-03-15 12:09:05:915,0.168455,1.11035,-9.77975,-6.21926,0.486804,5.44836
2023-03-15 12:09:05:925,0.13569,1.09103,-9.74595,-6.21529,0.483327,5.48179
2023-03-15 12:09:05:935,0.0872048,1.0753,-9.71356,-6.21461,0.478653,5.51754
2023-03-15 12:09:05:945,0.0543942,1.11562,-9.72266,-6.22084,0.474317,5.55245
2023-03-15 12:09:05:955,0.0578931,1.14154,-9.78321,-6.22804,0.471542,5.58007
2023-03-15 12:09:05:965,0.0492033,1.16471,-9.78599,-6.22537,0.463743,5.6027
2023-03-15 12:09:05:975,0.00141075,1.14501,-9.75055,-6.22218,0.455355,5.62612
2023-03-15 12:09:05:985,-0.0162975,1.12717,-9.71287,-6.2175,0.449261,5.64501
2023-03-15 12:09:05:995,0.0343051,1.11503,-9.69938,-6.21364,0.44526,5.66116
2023-03-15 12:09:06:5,0.085788,1.09909,-9.70015,-6.20771,0.447355,5.67561
2023-03-15 12:09:06:15,0.100079,1.10998,-9.6834,-6.20208,0.450731,5.68939
2023-03-15 12:09:06:25,0.112839,1.10552,-9.67969,-6.19715,0.455949,5.703
2023-03-15 12:09:06:35,0.118919,1.08628,-9.68956,-6.19077,0.456345,5.72034
2023-03-15 12:09:06:45,0.111782,1.08734,-9.70815,-6.18527,0.459636,5.73745
2023-03-15 12:09:06:55,0.105006,1.09281,-9.706,-6.18,0.463956,5.75611
2023-03-15 12:09:06:65,0.126639,1.07716,-9.69771,-6.17242,0.469206,5.77564
2023-03-15 12:09:06:75,0.135071,1.06368,-9.71104,-6.16372,0.477184,5.79844
2023-03-15 12:09:06:85,0.127539,1.05628,-9.71368,-6.15567,0.486029,5.82239
2023-03-15 12:09:06:95,0.115088,1.06879,-9.73326,-6.15169,0.491831,5.84977
2023-03-15 12:09:06:105,0.100679,1.07102,-9.74464,-6.14266,0.496213,5.87401
2023-03-15 12:09:06:115,0.104752,1.05898,-9.7258,-6.13381,0.496226,5.89726
2023-03-15 12:09:06:125,0.128378,1.03486,-9.70482,-6.12429,0.502706,5.92016
2023-03-15 12:09:06:135,0.120861,1.0304,-9.67015,-6.11054,0.507662,5.94433
2023-03-15 12:09:06:145,0.113061,1.00508,-9.65841,-6.10142,0.512184,5.97112
2023-03-15 12:09:06:155,0.10335,0.991616,-9.65622,-6.09306,0.518169,5.99602
2023-03-15 12:09:06:165,0.125219,1.00524,-9.68905,-6.08898,0.524854,6.01993
2023-03-15 12:09:06:175,0.157334,1.02592,-9.7011,-6.08841,0.531674,6.04217
2023-03-15 12:09:06:185,0.209926,1.01343,-9.70199,-6.08342,0.540917,6.06416
2023-03-15 12:09:06:195,0.225826,1.00148,-9.70445,-6.07882,0.542634,6.08996
2023-03-15 12:09:06:205,0.17852,0.998629,-9.6757,-6.07724,0.538202,6.11765
2023-03-15 12:09:06:215,0.131223,0.979015,-9.64963,-6.07368,0.535186,6.14693
2023-03-15 12:09:06:225,0.128571,0.97038,-9.64598,-6.08018,0.52949,6.17477
2023-03-15 12:09:06:235,0.144204,0.980878,-9.70942,-6.08824,0.528518,6.20248
2023-03-15 12:09:06:245,0.160674,1.04401,-9.77848,-6.10173,0.530342,6.2304
2023-03-15 12:09:06:255,0.168804,1.10668,-9.82327,-6.11429,0.523317,6.25738
2023-03-15 12:09:06:265,0.168987,1.08961,-9.7801,-6.11408,0.517191,6.28508
2023-03-15 12:09:06:275,0.133366,1.03053,-9.67539,-6.10666,0.51076,6.31899
2023-03-15 12:09:06:285,0.112025,0.992508,-9.63489,-6.10536,0.503643,6.35385
2023-03-15 12:09:06:295,0.0998352,1.02365,-9.69115,-6.11434,0.498956,6.38439
2023-03-15 12:09:06:305,0.0992491,1.08075,-9.77778,-6.12484,0.488704,6.41329
2023-03-15 12:09:06:315,0.0976884,1.1062,-9.80446,-6.13303,0.479114,6.44245
2023-03-15 12:09:06:325,0.0947727,1.07514,-9.7568,-6.13022,0.467815,6.47047
2023-03-15 12:09:06:335,0.0893822,1.02885,-9.69775,-6.12307,0.460105,6.49827
2023-03-15 12:09:06:345,0.0958201,0.999497,-9.67829,-6.11913,0.454002,6.52816
2023-03-15 12:09:06:355,0.108161,0.993243,-9.68958,-6.11779,0.448093,6.55809
2023-03-15 12:09:06:365,0.112373,1.01845,-9.68626,-6.12143,0.439305,6.59114
2023-03-15 12:09:06:375,0.130429,1.0247,-9.69727,-6.12317,0.42903,6.62251
2023-03-15 12:09:06:385,0.140661,1.01825,-9.70263,-6.12464,0.428003,6.65473
2023-03-15 12:09:06:395,0.150689,1.0125,-9.70043,-6.12348,0.427936,6.69162
2023-03-15 12:09:06:405,0.155338,1.02267,-9.6714,-6.12539,0.430515,6.72904
2023-03-15 12:09:06:415,0.159437,1.00185,-9.66801,-6.12693,0.430081,6.76627
2023-03-15 12:09:06:425,0.187381,1.01215,-9.66518,-6.13244,0.43265,6.8071
2023-03-15 12:09:06:435,0.200051,1.03624,-9.67128,-6.14013,0.434379,6.85249
2023-03-15 12:09:06:445,0.231263,1.03997,-9.68907,-6.14911,0.435876,6.89917
2023-03-15 12:09:06:455,0.253624,1.05521,-9.71981,-6.16546,0.441819,6.94502
2023-03-15 12:09:06:465,0.288829,1.09568,-9.77622,-6.17618,0.444419,6.99755
2023-03-15 12:09:06:475,0.28888,1.11653,-9.80611,-6.19262,0.439344,7.04872
2023-03-15 12:09:06:485,0.272274,1.12447,-9.80508,-6.19848,0.426265,7.10406
2023-03-15 12:09:06:495,0.25359,1.11726,-9.80347,-6.19695,0.411285,7.16036
2023-03-15 12:09:06:505,0.219295,1.10454,-9.79729,-6.19083,0.392582,7.22285
2023-03-15 12:09:06:515,0.182076,1.0989,-9.78859,-6.18553,0.367231,7.28682
2023-03-15 12:09:06:525,0.147541,1.08417,-9.7725,-6.17617,0.343647,7.35189
2023-03-15 12:09:06:535,0.118246,1.08037,-9.73419,-6.16217,0.319663,7.42271
2023-03-15 12:09:06:545,0.0737363,1.08477,-9.69139,-6.14919,0.294745,7.49279
2023-03-15 12:09:06:555,0.0235146,1.05721,-9.67579,-6.13647,0.265659,7.56126
2023-03-15 12:09:06:565,-0.0152933,1.04521,-9.67005,-6.12723,0.238264,7.63232
2023-03-15 12:09:06:575,-0.0610985,1.04097,-9.65697,-6.1209,0.21079,7.69924
2023-03-15 12:09:06:585,-0.103257,1.04174,-9.64745,-6.11676,0.18783,7.76579
2023-03-15 12:09:06:595,-0.127215,1.06158,-9.65241,-6.11691,0.164055,7.82484
2023-03-15 12:09:06:605,-0.139663,1.10102,-9.69314,-6.12597,0.138463,7.87988
2023-03-15 12:09:06:615,-0.147134,1.11909,-9.71977,-6.13487,0.11265,7.9248
2023-03-15 12:09:06:625,-0.147529,1.13408,-9.76082,-6.14612,0.0909035,7.96924
2023-03-15 12:09:06:635,-0.118906,1.12568,-9.79119,-6.14968,0.0719781,8.00382
2023-03-15 12:09:06:645,-0.0834771,1.12952,-9.80456,-6.14564,0.0544387,8.03451
2023-03-15 12:09:06:655,-0.0559731,1.11099,-9.79818,-6.13114,0.0412223,8.06536
2023-03-15 12:09:06:665,-0.053591,1.08669,-9.7459,-6.11151,0.0272511,8.09662
2023-03-15 12:09:06:675,-0.08204,1.0434,-9.70367,-6.08709,0.0143817,8.1257
2023-03-15 12:09:06:685,-0.119852,1.02177,-9.65773,-6.06133,0.00411816,8.15555
2023-03-15 12:09:06:695,-0.136427,1.0245,-9.64596,-6.03976,-0.00797859,8.18244
2023-03-15 12:09:06:705,-0.136402,1.00364,-9.6487,-6.02192,-0.0161239,8.20616
2023-03-15 12:09:06:715,-0.119675,1.00275,-9.66136,-6.0031,-0.0214815,8.22609
2023-03-15 12:09:06:725,-0.100588,0.998418,-9.68272,-5.98982,-0.0258136,8.2399
2023-03-15 12:09:06:735,-0.08349,1.02186,-9.68967,-5.98023,-0.0280434,8.25412
2023-03-15 12:09:06:745,-0.063595,1.03594,-9.7061,-5.96754,-0.0295136,8.26066
2023-03-15 12:09:06:755,-0.0640159,1.02302,-9.67552,-5.95424,-0.0308116,8.26531
2023-03-15 12:09:06:765,-0.0373441,0.992124,-9.64018,-5.9369,-0.0304198,8.27227
2023-03-15 12:09:06:775,-0.0356119,0.965957,-9.62351,-5.92783,-0.0235658,8.27806
2023-03-15 12:09:06:785,-0.0427925,0.966483,-9.62677,-5.92262,-0.0157627,8.2833
2023-03-15 12:09:06:796,-0.0409469,0.984801,-9.62233,-5.92129,-0.00945305,8.286
2023-03-15 12:09:06:805,-0.0268752,0.997787,-9.63374,-5.92609,0.000872229,8.28609
2023-03-15 12:09:06:815,-0.0278728,1.00816,-9.65107,-5.93409,0.00703191,8.28364
2023-03-15 12:09:06:825,-0.0524367,1.05409,-9.67149,-5.95081,0.011449,8.27382
2023-03-15 12:09:06:835,-0.0948334,1.09809,-9.70138,-5.96842,0.0176285,8.263
2023-03-15 12:09:06:845,-0.106108,1.08079,-9.71903,-5.98572,0.0186138,8.24181
2023-03-15 12:09:06:855,-0.114619,1.09015,-9.75226,-6.00226,0.0225371,8.21662
2023-03-15 12:09:06:865,-0.115994,1.14142,-9.80875,-6.01997,0.0187292,8.18182
2023-03-15 12:09:06:875,-0.132766,1.15499,-9.8467,-6.03458,0.0125851,8.13423
2023-03-15 12:09:06:885,-0.141767,1.14845,-9.84073,-6.03736,-0.00107889,8.07593
2023-03-15 12:09:06:895,-0.143187,1.11873,-9.79618,-6.03341,-0.0166703,8.00768
2023-03-15 12:09:06:905,-0.124221,1.06268,-9.73677,-6.02526,-0.0388689,7.9307
2023-03-15 12:09:06:915,-0.0854385,1.02943,-9.68547,-6.01874,-0.0624252,7.84745
2023-03-15 12:09:06:925,-0.0629991,1.02629,-9.66646,-6.01577,-0.0910652,7.75893
2023-03-15 12:09:06:935,-0.0467912,1.02925,-9.66883,-6.02141,-0.118405,7.66074
2023-03-15 12:09:06:945,0.0118275,1.04314,-9.68071,-6.03177,-0.150649,7.55995
2023-03-15 12:09:06:955,0.0562908,1.06943,-9.70379,-6.0449,-0.18609,7.45506
2023-03-15 12:09:06:965,0.0709159,1.08766,-9.71174,-6.06276,-0.220827,7.35271
2023-03-15 12:09:06:975,0.0923725,1.09683,-9.72824,-6.07661,-0.256534,7.24867
2023-03-15 12:09:06:985,0.116782,1.0945,-9.73554,-6.09053,-0.290229,7.1539
2023-03-15 12:09:06:995,0.126661,1.09757,-9.72362,-6.10164,-0.322896,7.064
2023-03-15 12:09:07:5,0.135878,1.08867,-9.70306,-6.11002,-0.3526,6.98065
2023-03-15 12:09:07:15,0.143634,1.08032,-9.70505,-6.11966,-0.377995,6.90573
2023-03-15 12:09:07:25,0.145646,1.09396,-9.70449,-6.12847,-0.403698,6.83645
2023-03-15 12:09:07:35,0.135237,1.10328,-9.71181,-6.13774,-0.427242,6.77956
2023-03-15 12:09:07:45,0.125331,1.09849,-9.72881,-6.15001,-0.446279,6.72581
2023-03-15 12:09:07:55,0.104886,1.10742,-9.72344,-6.15613,-0.464469,6.68211
2023-03-15 12:09:07:65,0.0771395,1.11686,-9.71346,-6.16529,-0.481833,6.6424
2023-03-15 12:09:07:75,0.0615275,1.10749,-9.73362,-6.17438,-0.4956,6.60683
2023-03-15 12:09:07:85,0.0789045,1.08965,-9.78127,-6.18155,-0.515301,6.57945
2023-03-15 12:09:07:95,0.11814,1.17127,-9.8449,-6.18882,-0.523553,6.55474
2023-03-15 12:09:07:105,0.152904,1.21637,-9.90287,-6.18061,-0.530007,6.53572
2023-03-15 12:09:07:115,0.101403,1.1719,-9.82354,-6.1547,-0.539305,6.52717
2023-03-15 12:09:07:125,0.0176161,1.0462,-9.64318,-6.11767,-0.55226,6.52298
2023-03-15 12:09:07:135,-0.0367263,0.962283,-9.49198,-6.09082,-0.56597,6.52382
2023-03-15 12:09:07:145,-0.0601587,0.960708,-9.48653,-6.0835,-0.570844,6.52831
2023-03-15 12:09:07:155,-0.0598877,1.05546,-9.65305,-6.09939,-0.584336,6.53226
2023-03-15 12:09:07:165,-0.0501559,1.17736,-9.82435,-6.1185,-0.60141,6.52721
2023-03-15 12:09:07:175,-0.0726294,1.2098,-9.88928,-6.12449,-0.623507,6.51747
2023-03-15 12:09:07:185,-0.0987816,1.16269,-9.8327,-6.11681,-0.644258,6.51034
2023-03-15 12:09:07:195,-0.13066,1.10863,-9.74039,-6.09567,-0.661167,6.50352
2023-03-15 12:09:07:205,-0.141866,1.06112,-9.67397,-6.07655,-0.678877,6.4976
2023-03-15 12:09:07:215,-0.134123,1.05372,-9.67702,-6.06473,-0.695344,6.48393
2023-03-15 12:09:07:225,-0.104123,1.07381,-9.70356,-6.05985,-0.708967,6.46941
2023-03-15 12:09:07:235,-0.0941998,1.09826,-9.75622,-6.05121,-0.723883,6.45058
2023-03-15 12:09:07:245,-0.0752103,1.11448,-9.78506,-6.04045,-0.736195,6.43545
2023-03-15 12:09:07:255,-0.0501987,1.12362,-9.77693,-6.02967,-0.747138,6.41688
2023-03-15 12:09:07:265,-0.038569,1.10722,-9.76268,-6.01505,-0.760204,6.39662
2023-03-15 12:09:07:275,-0.0180085,1.10076,-9.7386,-5.99737,-0.777607,6.38048
2023-03-15 12:09:07:285,-0.00124285,1.08072,-9.7179,-5.98133,-0.789044,6.36724
2023-03-15 12:09:07:295,-0.0228109,1.06172,-9.74679,-5.97107,-0.808538,6.35201
2023-03-15 12:09:07:305,-0.0197682,1.14778,-9.78499,-5.9667,-0.830662,6.33233
2023-03-15 12:09:07:315,-0.0106856,1.17212,-9.8309,-5.95696,-0.851858,6.31697
2023-03-15 12:09:07:325,-0.0326388,1.16682,-9.83511,-5.93792,-0.873947,6.29968
2023-03-15 12:09:07:335,-0.0705697,1.15644,-9.80672,-5.91368,-0.898046,6.28735
2023-03-15 12:09:07:345,-0.101159,1.15286,-9.78098,-5.88988,-0.924099,6.26981
2023-03-15 12:09:07:355,-0.124022,1.16484,-9.7744,-5.86487,-0.952205,6.24912
2023-03-15 12:09:07:365,-0.112101,1.18075,-9.78028,-5.84065,-0.982003,6.22427
2023-03-15 12:09:07:375,-0.0643092,1.19082,-9.76816,-5.81315,-1.0102,6.19398
2023-03-15 12:09:07:385,-0.0394981,1.21337,-9.78753,-5.78783,-1.03669,6.16127
2023-03-15 12:09:07:395,-0.0654589,1.23022,-9.79375,-5.76517,-1.07116,6.12714
2023-03-15 12:09:07:405,-0.0966139,1.24857,-9.80334,-5.73859,-1.1094,6.08766
2023-03-15 12:09:07:415,-0.0705752,1.2571,-9.83239,-5.71102,-1.15068,6.04342
2023-03-15 12:09:07:425,-0.0265054,1.2463,-9.84171,-5.68215,-1.19842,5.99266
2023-03-15 12:09:07:435,-0.00217611,1.2578,-9.85907,-5.65076,-1.2569,5.94142
2023-03-15 12:09:07:445,0.00139213,1.25743,-9.86633,-5.61257,-1.32292,5.88954
2023-03-15 12:09:07:455,-0.020786,1.22709,-9.90068,-5.57366,-1.39681,5.83494
2023-03-15 12:09:07:465,-0.0362507,1.28842,-9.95049,-5.53704,-1.48015,5.77716
2023-03-15 12:09:07:475,-0.0314159,1.34603,-9.96577,-5.48442,-1.56937,5.71124
2023-03-15 12:09:07:485,-0.0346211,1.29493,-9.88724,-5.41252,-1.6626,5.6481
2023-03-15 12:09:07:495,-0.0622842,1.1818,-9.75288,-5.33487,-1.76038,5.58538
2023-03-15 12:09:07:505,-0.108485,1.10216,-9.64967,-5.26111,-1.86191,5.52906
2023-03-15 12:09:07:515,-0.156505,1.10075,-9.67407,-5.2018,-1.96865,5.4721
2023-03-15 12:09:07:525,-0.218827,1.16426,-9.77234,-5.15252,-2.08404,5.41606
2023-03-15 12:09:07:535,-0.253721,1.23666,-9.86283,-5.10532,-2.2061,5.35256
2023-03-15 12:09:07:545,-0.259229,1.22581,-9.87643,-5.04737,-2.33009,5.28925
2023-03-15 12:09:07:555,-0.264837,1.18171,-9.84581,-4.97544,-2.45334,5.22651
2023-03-15 12:09:07:565,-0.28587,1.12738,-9.80936,-4.89738,-2.57668,5.16741
2023-03-15 12:09:07:575,-0.309874,1.09694,-9.77471,-4.8116,-2.69949,5.1087
2023-03-15 12:09:07:585,-0.335873,1.07045,-9.76708,-4.73014,-2.8187,5.05224
2023-03-15 12:09:07:595,-0.370075,1.05476,-9.76226,-4.64707,-2.9395,4.99729
2023-03-15 12:09:07:605,-0.396355,1.03943,-9.76167,-4.55964,-3.05864,4.94442
2023-03-15 12:09:07:615,-0.420794,1.00861,-9.76467,-4.4701,-3.17577,4.89781
2023-03-15 12:09:07:625,-0.426794,0.951849,-9.77528,-4.37835,-3.29088,4.8536
2023-03-15 12:09:07:635,-0.461271,0.989781,-9.77267,-4.29402,-3.40642,4.8143
2023-03-15 12:09:07:645,-0.513412,0.996417,-9.78142,-4.20279,-3.51868,4.77222
2023-03-15 12:09:07:655,-0.520188,0.98455,-9.76059,-4.10324,-3.63066,4.72814
2023-03-15 12:09:07:665,-0.510662,0.926297,-9.76169,-3.99691,-3.73806,4.68721
2023-03-15 12:09:07:675,-0.501013,0.888214,-9.7726,-3.89027,-3.84399,4.65588
2023-03-15 12:09:07:685,-0.52336,0.885874,-9.78363,-3.78215,-3.94224,4.62609
2023-03-15 12:09:07:695,-0.549276,0.864944,-9.78301,-3.67058,-4.04316,4.60198
2023-03-15 12:09:07:705,-0.571684,0.819792,-9.77328,-3.55015,-4.14093,4.58006
2023-03-15 12:09:07:715,-0.578119,0.76414,-9.76513,-3.42659,-4.23872,4.56372
2023-03-15 12:09:07:725,-0.61661,0.747698,-9.75337,-3.30229,-4.3358,4.54948
2023-03-15 12:09:07:735,-0.651214,0.743302,-9.74885,-3.17945,-4.42909,4.54036
2023-03-15 12:09:07:745,-0.675886,0.706586,-9.74751,-3.05299,-4.5268,4.53244
2023-03-15 12:09:07:755,-0.702495,0.658671,-9.74245,-2.92987,-4.62349,4.5247
2023-03-15 12:09:07:765,-0.708549,0.638326,-9.72939,-2.80895,-4.72277,4.51954
2023-03-15 12:09:07:775,-0.715573,0.619655,-9.7379,-2.68425,-4.82198,4.51644
2023-03-15 12:09:07:785,-0.716317,0.600271,-9.74664,-2.56143,-4.91646,4.51795
2023-03-15 12:09:07:795,-0.755119,0.581183,-9.73445,-2.43381,-5.01366,4.51911
2023-03-15 12:09:07:805,-0.816486,0.533007,-9.71019,-2.30243,-5.11049,4.52415
2023-03-15 12:09:07:815,-0.85962,0.470833,-9.71236,-2.173,-5.20978,4.52996
2023-03-15 12:09:07:825,-0.866475,0.429417,-9.73902,-2.04096,-5.3099,4.5325
2023-03-15 12:09:07:835,-0.869026,0.404103,-9.75753,-1.90415,-5.41333,4.53829
2023-03-15 12:09:07:845,-0.903089,0.368864,-9.77112,-1.76426,-5.51574,4.54916
2023-03-15 12:09:07:855,-0.941237,0.332204,-9.76185,-1.61966,-5.62278,4.56101
2023-03-15 12:09:07:865,-0.972108,0.289942,-9.73024,-1.46203,-5.72693,4.57497
2023-03-15 12:09:07:875,-1.0048,0.215206,-9.67969,-1.29768,-5.83552,4.59335
2023-03-15 12:09:07:885,-1.06572,0.143761,-9.63585,-1.12864,-5.94299,4.61144
2023-03-15 12:09:07:895,-1.14424,0.0554727,-9.61365,-0.955991,-6.0504,4.63329
2023-03-15 12:09:07:905,-1.20862,-0.00226775,-9.58136,-0.786045,-6.15587,4.65664
2023-03-15 12:09:07:915,-1.22319,-0.04722,-9.56686,-0.622664,-6.25951,4.67853
2023-03-15 12:09:07:925,-1.2318,-0.106686,-9.57435,-0.46548,-6.3619,4.69956
2023-03-15 12:09:07:935,-1.23196,-0.155895,-9.58262,-0.314303,-6.45916,4.72536
2023-03-15 12:09:07:945,-1.25358,-0.18897,-9.5875,-0.165186,-6.55218,4.75175
2023-03-15 12:09:07:955,-1.28366,-0.214464,-9.56458,-0.0182316,-6.64802,4.77575
2023-03-15 12:09:07:965,-1.33005,-0.249065,-9.51637,0.123238,-6.74239,4.80127
2023-03-15 12:09:07:975,-1.36269,-0.295896,-9.4542,0.267453,-6.83008,4.82294
2023-03-15 12:09:07:985,-1.39009,-0.357016,-9.41521,0.409469,-6.91566,4.84898
2023-03-15 12:09:07:995,-1.40065,-0.401004,-9.38015,0.540393,-7.00028,4.87218
2023-03-15 12:09:08:5,-1.4066,-0.457193,-9.37282,0.659894,-7.07834,4.89518
2023-03-15 12:09:08:15,-1.40933,-0.475177,-9.38633,0.765785,-7.15384,4.91549
2023-03-15 12:09:08:25,-1.42077,-0.455693,-9.42705,0.851578,-7.22615,4.93927
2023-03-15 12:09:08:35,-1.43142,-0.438018,-9.48367,0.926797,-7.29504,4.96291
2023-03-15 12:09:08:45,-1.43997,-0.43016,-9.53474,0.995377,-7.36373,4.98323
2023-03-15 12:09:08:55,-1.46027,-0.423506,-9.54357,1.06455,-7.43147,4.99829
2023-03-15 12:09:08:65,-1.46236,-0.420677,-9.53065,1.13168,-7.48971,5.01685
2023-03-15 12:09:08:75,-1.47945,-0.460897,-9.51575,1.19904,-7.54654,5.03244
2023-03-15 12:09:08:85,-1.48718,-0.483257,-9.49348,1.26531,-7.59637,5.04877
2023-03-15 12:09:08:95,-1.43436,-0.484545,-9.4972,1.32473,-7.63304,5.06097
2023-03-15 12:09:08:105,-1.35689,-0.500636,-9.54012,1.37616,-7.6651,5.07439
2023-03-15 12:09:08:115,-1.29971,-0.502328,-9.57569,1.42821,-7.69512,5.09206
2023-03-15 12:09:08:125,-1.24857,-0.505156,-9.61256,1.47585,-7.72115,5.11568
2023-03-15 12:09:08:135,-1.21937,-0.527736,-9.65171,1.52447,-7.75097,5.14433
2023-03-15 12:09:08:145,-1.22619,-0.516462,-9.69673,1.57127,-7.78646,5.17931
2023-03-15 12:09:08:155,-1.25605,-0.457706,-9.74776,1.61778,-7.82188,5.22188
2023-03-15 12:09:08:165,-1.30624,-0.448765,-9.71864,1.67865,-7.85468,5.26883
2023-03-15 12:09:08:175,-1.32147,-0.510535,-9.59871,1.75443,-7.88288,5.32011
2023-03-15 12:09:08:185,-1.32095,-0.633562,-9.49089,1.83653,-7.91021,5.38405
2023-03-15 12:09:08:195,-1.30678,-0.702171,-9.44841,1.90641,-7.92944,5.45975
2023-03-15 12:09:08:205,-1.29256,-0.707921,-9.46679,1.96063,-7.94886,5.54177
2023-03-15 12:09:08:215,-1.31533,-0.68497,-9.51471,2.00264,-7.96821,5.62957
2023-03-15 12:09:08:225,-1.35588,-0.663713,-9.53103,2.04207,-7.99114,5.72242
2023-03-15 12:09:08:235,-1.39557,-0.672556,-9.52181,2.08024,-8.00965,5.81739
2023-03-15 12:09:08:245,-1.45575,-0.698819,-9.51399,2.11425,-8.02955,5.91904
2023-03-15 12:09:08:255,-1.51608,-0.708766,-9.49091,2.14397,-8.04961,6.01863
2023-03-15 12:09:08:265,-1.55457,-0.732616,-9.46271,2.16665,-8.07059,6.11955
2023-03-15 12:09:08:275,-1.59741,-0.731723,-9.44816,2.18429,-8.08948,6.22016
2023-03-15 12:09:08:285,-1.62243,-0.736263,-9.46394,2.19432,-8.10644,6.31457
2023-03-15 12:09:08:295,-1.67374,-0.713551,-9.48892,2.195,-8.12259,6.40686
2023-03-15 12:09:08:305,-1.72699,-0.689144,-9.52233,2.18694,-8.13642,6.49384
2023-03-15 12:09:08:315,-1.77562,-0.698686,-9.57185,2.177,-8.14346,6.57494
2023-03-15 12:09:08:325,-1.79292,-0.644106,-9.60359,2.16402,-8.14837,6.64407
2023-03-15 12:09:08:335,-1.7789,-0.545732,-9.61413,2.15273,-8.14362,6.70345
2023-03-15 12:09:08:345,-1.7811,-0.62307,-9.59627,2.15564,-8.13516,6.75837
2023-03-15 12:09:08:355,-1.80405,-0.653965,-9.50586,2.16083,-8.12067,6.80675
2023-03-15 12:09:08:365,-1.80335,-0.709541,-9.44594,2.16058,-8.09718,6.84945
2023-03-15 12:09:08:375,-1.75196,-0.717673,-9.45325,2.14623,-8.06617,6.88333
2023-03-15 12:09:08:385,-1.68822,-0.659878,-9.5409,2.11383,-8.0293,6.91302
2023-03-15 12:09:08:395,-1.60286,-0.595489,-9.63714,2.07987,-7.98676,6.93487
2023-03-15 12:09:08:405,-1.52881,-0.549441,-9.69974,2.04828,-7.93977,6.95151
2023-03-15 12:09:08:415,-1.48312,-0.52909,-9.73498,2.02033,-7.89293,6.96605
2023-03-15 12:09:08:425,-1.48455,-0.533743,-9.74549,1.99915,-7.84704,6.98417
2023-03-15 12:09:08:435,-1.504,-0.538171,-9.71572,1.98899,-7.7959,7.00798
2023-03-15 12:09:08:445,-1.49801,-0.537798,-9.68852,1.98469,-7.7412,7.02914
2023-03-15 12:09:08:455,-1.47057,-0.542686,-9.68975,1.98635,-7.68163,7.05415
2023-03-15 12:09:08:465,-1.45024,-0.568836,-9.69332,1.9931,-7.61177,7.08238
2023-03-15 12:09:08:475,-1.43382,-0.578646,-9.69807,2.01216,-7.5326,7.11416
2023-03-15 12:09:08:485,-1.42653,-0.614567,-9.64692,2.0422,-7.44989,7.15157
2023-03-15 12:09:08:495,-1.38751,-0.68283,-9.58182,2.0757,-7.35244,7.19606
2023-03-15 12:09:08:505,-1.33662,-0.713046,-9.5322,2.10779,-7.25129,7.24546
2023-03-15 12:09:08:515,-1.27836,-0.742021,-9.48771,2.13976,-7.1389,7.29824
2023-03-15 12:09:08:525,-1.21706,-0.791913,-9.48461,2.16441,-7.02995,7.35605
2023-03-15 12:09:08:535,-1.2101,-0.80187,-9.47635,2.18069,-6.91717,7.41887
2023-03-15 12:09:08:545,-1.20002,-0.794332,-9.49776,2.19016,-6.80313,7.48498
2023-03-15 12:09:08:555,-1.17634,-0.796669,-9.58304,2.18559,-6.68739,7.54881
2023-03-15 12:09:08:565,-1.13992,-0.667156,-9.69436,2.17086,-6.57063,7.61296
2023-03-15 12:09:08:575,-1.11344,-0.591559,-9.75823,2.16689,-6.45753,7.6721
2023-03-15 12:09:08:585,-1.11418,-0.623967,-9.67821,2.1842,-6.33798,7.72956
2023-03-15 12:09:08:595,-1.1146,-0.77042,-9.49991,2.21125,-6.21527,7.78898
2023-03-15 12:09:08:605,-1.10396,-0.880206,-9.38066,2.22635,-6.09251,7.85251
2023-03-15 12:09:08:615,-1.06771,-0.868777,-9.41794,2.21034,-5.97033,7.91154
2023-03-15 12:09:08:625,-1.05108,-0.739774,-9.55209,2.16877,-5.85192,7.96177
2023-03-15 12:09:08:635,-1.05336,-0.639019,-9.68916,2.12275,-5.73635,8.0008
2023-03-15 12:09:08:645,-1.05249,-0.605489,-9.71773,2.08444,-5.6236,8.02574
2023-03-15 12:09:08:655,-1.01176,-0.630662,-9.67876,2.05516,-5.50529,8.0436
2023-03-15 12:09:08:665,-0.963571,-0.700055,-9.60474,2.03287,-5.38661,8.05554
2023-03-15 12:09:08:675,-0.906716,-0.724624,-9.55059,2.00194,-5.2671,8.06225
2023-03-15 12:09:08:685,-0.841415,-0.709033,-9.55971,1.95813,-5.15125,8.06024
2023-03-15 12:09:08:695,-0.77691,-0.657305,-9.61328,1.9034,-5.03748,8.04917
2023-03-15 12:09:08:705,-0.700223,-0.588121,-9.66921,1.84539,-4.9278,8.03333
2023-03-15 12:09:08:715,-0.636719,-0.552812,-9.71005,1.78886,-4.82016,8.01716
2023-03-15 12:09:08:725,-0.595071,-0.534168,-9.71733,1.73732,-4.70923,8.00075
2023-03-15 12:09:08:735,-0.592075,-0.521952,-9.69299,1.68714,-4.59818,7.98814
2023-03-15 12:09:08:745,-0.60127,-0.548269,-9.64294,1.64176,-4.48619,7.97717
2023-03-15 12:09:08:755,-0.588026,-0.568992,-9.58698,1.58985,-4.37884,7.96569
2023-03-15 12:09:08:765,-0.541257,-0.565206,-9.58732,1.52798,-4.26815,7.95498
2023-03-15 12:09:08:775,-0.472361,-0.546428,-9.63033,1.45364,-4.15929,7.94978
2023-03-15 12:09:08:785,-0.425119,-0.49024,-9.65529,1.36685,-4.05159,7.94857
2023-03-15 12:09:08:795,-0.376517,-0.450494,-9.65007,1.26843,-3.9453,7.95499
2023-03-15 12:09:08:805,-0.351777,-0.417356,-9.63735,1.15575,-3.84346,7.97333
2023-03-15 12:09:08:815,-0.367385,-0.368474,-9.62915,1.03075,-3.73914,8.00486
2023-03-15 12:09:08:825,-0.422711,-0.329201,-9.60629,0.890919,-3.63888,8.04367
2023-03-15 12:09:08:835,-0.417145,-0.298111,-9.58817,0.741249,-3.5407,8.09032
2023-03-15 12:09:08:845,-0.398374,-0.271033,-9.55012,0.578963,-3.43902,8.14351
2023-03-15 12:09:08:855,-0.395509,-0.181437,-9.56528,0.40635,-3.32741,8.20276
2023-03-15 12:09:08:865,-0.309768,-0.148172,-9.59183,0.239718,-3.20649,8.27069
2023-03-15 12:09:08:875,-0.150288,-0.18606,-9.50306,0.0797952,-3.07447,8.34567
2023-03-15 12:09:08:885,-0.0234735,-0.274845,-9.33976,-0.0744389,-2.9289,8.4429
2023-03-15 12:09:08:895,0.0611855,-0.36117,-9.18699,-0.231193,-2.7724,8.55805
2023-03-15 12:09:08:905,0.14821,-0.42246,-9.05215,-0.408147,-2.61492,8.69785
2023-03-15 12:09:08:915,0.24248,-0.484632,-8.928,-0.619267,-2.46245,8.86311
2023-03-15 12:09:08:925,0.263132,-0.483557,-8.85291,-0.869245,-2.30977,9.04853
2023-03-15 12:09:08:935,0.182584,-0.38966,-8.86658,-1.17793,-2.15556,9.25329
2023-03-15 12:09:08:945,0.102564,-0.224771,-8.98887,-1.53726,-2.0036,9.47302
2023-03-15 12:09:08:955,0.067179,0.0342289,-9.22864,-1.9496,-1.85755,9.6923
2023-03-15 12:09:08:965,0.0693452,0.369916,-9.54742,-2.39595,-1.72432,9.90825
2023-03-15 12:09:08:975,0.0435454,0.721577,-9.90372,-2.8609,-1.60238,10.1144
2023-03-15 12:09:08:985,0.0156165,1.05079,-10.2083,-3.31567,-1.49332,10.3022
2023-03-15 12:09:08:995,-0.0216678,1.3058,-10.4148,-3.73395,-1.40072,10.4759
2023-03-15 12:09:09:5,-0.102111,1.47309,-10.5163,-4.10393,-1.3138,10.6357
2023-03-15 12:09:09:15,-0.178599,1.54356,-10.511,-4.41353,-1.23035,10.7801
2023-03-15 12:09:09:25,-0.225018,1.52212,-10.3996,-4.66822,-1.1468,10.9174
2023-03-15 12:09:09:35,-0.229742,1.46801,-10.2338,-4.8745,-1.06024,11.0429
2023-03-15 12:09:09:45,-0.193405,1.39532,-10.0573,-5.05048,-0.964656,11.1561
2023-03-15 12:09:09:55,-0.12325,1.3647,-9.9258,-5.21415,-0.869754,11.2555
2023-03-15 12:09:09:65,-0.0527689,1.36429,-9.88994,-5.37518,-0.777222,11.3454
2023-03-15 12:09:09:75,0.0280474,1.3977,-9.91773,-5.53663,-0.695746,11.4229
2023-03-15 12:09:09:85,0.0772804,1.45686,-9.94232,-5.69822,-0.625394,11.4903
2023-03-15 12:09:09:95,0.0730483,1.50578,-9.91874,-5.84748,-0.567428,11.5497
2023-03-15 12:09:09:105,0.065511,1.49477,-9.86992,-5.98894,-0.522365,11.6038
2023-03-15 12:09:09:115,0.0606321,1.46908,-9.81163,-6.12393,-0.481172,11.6554
2023-03-15 12:09:09:125,0.0662548,1.44175,-9.7808,-6.25506,-0.450181,11.7036
2023-03-15 12:09:09:135,0.0967802,1.44592,-9.77172,-6.38328,-0.421461,11.7461
2023-03-15 12:09:09:145,0.109707,1.4693,-9.76524,-6.5072,-0.39157,11.7864
2023-03-15 12:09:09:155,0.103781,1.48136,-9.74048,-6.62982,-0.365685,11.8228
2023-03-15 12:09:09:165,0.11335,1.50556,-9.74208,-6.74938,-0.335192,11.8593
2023-03-15 12:09:09:175,0.112267,1.55747,-9.7692,-6.86936,-0.30201,11.8935
2023-03-15 12:09:09:185,0.141007,1.60581,-9.80082,-6.98673,-0.268937,11.9261
2023-03-15 12:09:09:195,0.173648,1.64961,-9.83133,-7.10109,-0.237141,11.9561
2023-03-15 12:09:09:205,0.187757,1.67724,-9.83616,-7.21392,-0.209883,11.9879
2023-03-15 12:09:09:215,0.204636,1.68634,-9.86259,-7.32071,-0.186276,12.0183
2023-03-15 12:09:09:225,0.202845,1.72776,-9.90701,-7.42618,-0.169289,12.0482
2023-03-15 12:09:09:235,0.177329,1.76419,-9.93371,-7.52736,-0.16366,12.0778
2023-03-15 12:09:09:245,0.137887,1.78181,-9.91212,-7.61378,-0.160063,12.1091
2023-03-15 12:09:09:255,0.083557,1.77619,-9.86803,-7.69228,-0.160094,12.1414
2023-03-15 12:09:09:265,0.0266547,1.77051,-9.81238,-7.75919,-0.161451,12.1698
2023-03-15 12:09:09:275,-0.00410836,1.77232,-9.77295,-7.82412,-0.160312,12.2007
2023-03-15 12:09:09:285,-0.0105551,1.75861,-9.74222,-7.88231,-0.159505,12.223
2023-03-15 12:09:09:295,-0.0284194,1.75707,-9.72288,-7.93684,-0.161595,12.2409
2023-03-15 12:09:09:305,-0.0314665,1.73353,-9.69766,-7.98703,-0.162716,12.2532
2023-03-15 12:09:09:315,-0.0161134,1.69764,-9.68579,-8.03439,-0.168321,12.2625
2023-03-15 12:09:09:325,-0.0214521,1.69372,-9.71476,-8.08247,-0.176034,12.2669
2023-03-15 12:09:09:335,-0.0380527,1.72214,-9.73924,-8.13297,-0.189778,12.2647
2023-03-15 12:09:09:345,-0.0430358,1.73925,-9.71339,-8.17895,-0.208816,12.2559
2023-03-15 12:09:09:355,-0.0623454,1.71819,-9.70983,-8.21983,-0.231397,12.2438
2023-03-15 12:09:09:365,-0.0774766,1.69405,-9.71037,-8.25361,-0.256658,12.2273
2023-03-15 12:09:09:375,-0.0619787,1.70274,-9.72823,-8.29451,-0.282257,12.2065
2023-03-15 12:09:09:385,-0.0303882,1.70434,-9.75088,-8.33427,-0.307651,12.1775
2023-03-15 12:09:09:395,-0.00719464,1.70301,-9.75924,-8.36684,-0.336165,12.1462
2023-03-15 12:09:09:405,0.018619,1.71915,-9.7566,-8.39318,-0.36412,12.1195
2023-03-15 12:09:09:415,0.0357221,1.71012,-9.70235,-8.41473,-0.387882,12.0882
2023-03-15 12:09:09:425,0.0611776,1.66508,-9.6804,-8.43552,-0.411275,12.0585
2023-03-15 12:09:09:435,0.0991309,1.65468,-9.69,-8.45759,-0.432904,12.0392
2023-03-15 12:09:09:445,0.104232,1.6861,-9.70278,-8.48325,-0.455601,12.0258
2023-03-15 12:09:09:455,0.0727691,1.71904,-9.74263,-8.50883,-0.4808,12.0163
2023-03-15 12:09:09:465,0.00340129,1.75315,-9.79596,-8.52906,-0.50743,12.0086
2023-03-15 12:09:09:475,-0.0511923,1.76604,-9.81583,-8.54354,-0.541787,12.0004
2023-03-15 12:09:09:485,-0.0696906,1.76636,-9.82611,-8.54896,-0.578204,11.9939
2023-03-15 12:09:09:495,-0.0654079,1.74935,-9.82721,-8.55002,-0.617254,11.9868
2023-03-15 12:09:09:505,-0.0613976,1.69716,-9.80669,-8.53871,-0.659494,11.9859
2023-03-15 12:09:09:515,-0.116802,1.6557,-9.76419,-8.5238,-0.707192,11.9868
2023-03-15 12:09:09:525,-0.222321,1.66482,-9.8012,-8.50635,-0.758691,11.994
2023-03-15 12:09:09:535,-0.347462,1.76731,-9.96556,-8.49724,-0.811898,11.9975
2023-03-15 12:09:09:545,-0.474579,1.96575,-10.1533,-8.4807,-0.868878,11.9931
2023-03-15 12:09:09:555,-0.557461,2.09219,-10.2603,-8.42717,-0.916555,11.9721
2023-03-15 12:09:09:565,-0.556872,2.08239,-10.2538,-8.32702,-0.949293,11.9398
2023-03-15 12:09:09:575,-0.450767,1.95537,-10.1074,-8.1701,-0.964431,11.9042
2023-03-15 12:09:09:585,-0.329099,1.73118,-9.83905,-7.97366,-0.960395,11.8724
2023-03-15 12:09:09:595,-0.271602,1.47888,-9.58373,-7.754,-0.945842,11.8508
2023-03-15 12:09:09:605,-0.257199,1.26352,-9.39264,-7.53748,-0.920904,11.8359
2023-03-15 12:09:09:615,-0.263346,1.09993,-9.25193,-7.33848,-0.893963,11.8319
2023-03-15 12:09:09:625,-0.248891,0.987493,-9.18594,-7.16701,-0.871576,11.8318
2023-03-15 12:09:09:635,-0.231337,0.922011,-9.20503,-7.03085,-0.856888,11.8362
2023-03-15 12:09:09:645,-0.276383,0.914935,-9.26694,-6.93037,-0.851529,11.8388
2023-03-15 12:09:09:655,-0.29771,0.973834,-9.39401,-6.86519,-0.856324,11.8377
2023-03-15 12:09:09:665,-0.295203,1.08518,-9.57176,-6.82244,-0.869665,11.8263
2023-03-15 12:09:09:675,-0.270728,1.16531,-9.75314,-6.78978,-0.890398,11.8047
2023-03-15 12:09:09:685,-0.233747,1.23409,-9.83893,-6.75082,-0.910789,11.7803
2023-03-15 12:09:09:695,-0.243412,1.23658,-9.81685,-6.69097,-0.926983,11.7523
2023-03-15 12:09:09:705,-0.261484,1.1725,-9.73567,-6.61949,-0.93361,11.7249
2023-03-15 12:09:09:715,-0.27152,1.08681,-9.63096,-6.53753,-0.938458,11.7009
2023-03-15 12:09:09:725,-0.236686,1.05861,-9.59978,-6.46426,-0.937932,11.6753
2023-03-15 12:09:09:735,-0.181363,1.10854,-9.65644,-6.40385,-0.93463,11.6448
2023-03-15 12:09:09:745,-0.158344,1.18458,-9.77635,-6.34688,-0.937267,11.613
2023-03-15 12:09:09:755,-0.212798,1.28065,-9.91406,-6.28793,-0.945527,11.5807
2023-03-15 12:09:09:765,-0.259593,1.35127,-9.99549,-6.21504,-0.954034,11.5432
2023-03-15 12:09:09:775,-0.285725,1.36047,-9.98723,-6.12249,-0.969163,11.5009
2023-03-15 12:09:09:785,-0.309464,1.3028,-9.91642,-6.01165,-0.983777,11.4549
2023-03-15 12:09:09:795,-0.301416,1.24145,-9.85809,-5.88755,-0.990653,11.4052
2023-03-15 12:09:09:805,-0.286807,1.21303,-9.86426,-5.7577,-0.991419,11.3532
2023-03-15 12:09:09:815,-0.262388,1.20783,-9.88429,-5.62193,-0.990713,11.2977
2023-03-15 12:09:09:825,-0.256983,1.21349,-9.89931,-5.47688,-0.987367,11.2366
2023-03-15 12:09:09:835,-0.243699,1.1801,-9.91429,-5.3198,-0.982248,11.1725
2023-03-15 12:09:09:845,-0.22293,1.10278,-9.90081,-5.14872,-0.975338,11.1082
2023-03-15 12:09:09:855,-0.22053,1.02325,-9.82764,-4.96398,-0.970833,11.0451
2023-03-15 12:09:09:865,-0.209097,0.913528,-9.72155,-4.76974,-0.960783,10.9808
2023-03-15 12:09:09:875,-0.186061,0.776319,-9.59263,-4.57004,-0.951084,10.9183
2023-03-15 12:09:09:885,-0.152751,0.608762,-9.4816,-4.37345,-0.937504,10.8596
2023-03-15 12:09:09:895,-0.113187,0.49046,-9.40765,-4.19134,-0.924968,10.8059
2023-03-15 12:09:09:905,-0.0983117,0.411979,-9.37633,-4.02526,-0.909828,10.7543
2023-03-15 12:09:09:915,-0.111333,0.378589,-9.37083,-3.88405,-0.894234,10.7036
2023-03-15 12:09:09:925,-0.0984693,0.35792,-9.41039,-3.76084,-0.879186,10.6553
2023-03-15 12:09:09:935,-0.0817561,0.336196,-9.4529,-3.65374,-0.868744,10.6042
2023-03-15 12:09:09:945,-0.0530184,0.319052,-9.45319,-3.56225,-0.856257,10.5582
2023-03-15 12:09:09:955,-0.0728494,0.276969,-9.44027,-3.48059,-0.847686,10.5129
2023-03-15 12:09:09:965,-0.08054,0.261841,-9.41586,-3.41015,-0.836011,10.4692
2023-03-15 12:09:09:975,-0.0877896,0.243034,-9.41154,-3.35651,-0.824913,10.4304
2023-03-15 12:09:09:985,-0.0815488,0.248716,-9.44378,-3.31962,-0.806525,10.3912
2023-03-15 12:09:09:995,-0.0438287,0.292516,-9.50526,-3.29639,-0.783764,10.3552
2023-03-15 12:09:10:5,-0.00636246,0.315646,-9.5534,-3.28249,-0.754981,10.3165
2023-03-15 12:09:10:15,0.0356402,0.338421,-9.586,-3.27028,-0.720248,10.279
2023-03-15 12:09:10:25,0.0639416,0.348976,-9.62222,-3.26129,-0.687959,10.2512
2023-03-15 12:09:10:35,0.124566,0.36198,-9.62422,-3.2556,-0.657808,10.2231
2023-03-15 12:09:10:45,0.153818,0.341236,-9.60113,-3.25336,-0.628694,10.2031
2023-03-15 12:09:10:55,0.130621,0.325773,-9.61905,-3.26023,-0.598828,10.1896
2023-03-15 12:09:10:65,0.0972702,0.365218,-9.64796,-3.27881,-0.571435,10.1791
2023-03-15 12:09:10:75,0.0494027,0.40914,-9.67787,-3.30283,-0.545867,10.1713
2023-03-15 12:09:10:85,0.0185671,0.428845,-9.7096,-3.33101,-0.523252,10.1637
2023-03-15 12:09:10:95,0.0160547,0.452296,-9.71416,-3.36433,-0.496153,10.1564
2023-03-15 12:09:10:105,0.0440088,0.47898,-9.71783,-3.39962,-0.464041,10.1506
2023-03-15 12:09:10:115,0.096319,0.521546,-9.72118,-3.44032,-0.429354,10.1465
2023-03-15 12:09:10:125,0.105171,0.546788,-9.71223,-3.4769,-0.390318,10.1457
2023-03-15 12:09:10:135,0.0960273,0.558264,-9.72072,-3.52144,-0.353435,10.1454
2023-03-15 12:09:10:145,0.0965603,0.584209,-9.73586,-3.57203,-0.313301,10.1491
2023-03-15 12:09:10:155,0.109904,0.635749,-9.7585,-3.62806,-0.279516,10.1524
2023-03-15 12:09:10:165,0.135047,0.665233,-9.80322,-3.68516,-0.246048,10.1531
2023-03-15 12:09:10:175,0.157496,0.693151,-9.83297,-3.73852,-0.214569,10.1545
2023-03-15 12:09:10:185,0.163929,0.725087,-9.86088,-3.7935,-0.190864,10.1557
2023-03-15 12:09:10:195,0.166984,0.733548,-9.87604,-3.84154,-0.1684,10.1579
2023-03-15 12:09:10:205,0.139674,0.758012,-9.88302,-3.88279,-0.155186,10.1626
2023-03-15 12:09:10:215,0.0918854,0.767172,-9.88873,-3.92639,-0.143332,10.1676
2023-03-15 12:09:10:225,0.053584,0.766418,-9.86991,-3.96177,-0.136833,10.1695
2023-03-15 12:09:10:235,0.0419231,0.761327,-9.87391,-3.99371,-0.131876,10.1736
2023-03-15 12:09:10:245,0.0545554,0.767379,-9.89022,-4.02105,-0.126414,10.1777
2023-03-15 12:09:10:255,0.038368,0.774369,-9.89779,-4.04514,-0.1215,10.1815
2023-03-15 12:09:10:265,0.0168946,0.804609,-9.89439,-4.05985,-0.114293,10.1851
2023-03-15 12:09:10:275,-0.0114049,0.813652,-9.87401,-4.07162,-0.106542,10.1838
2023-03-15 12:09:10:285,-0.0381448,0.780952,-9.81977,-4.07677,-0.106702,10.1803
2023-03-15 12:09:10:295,-0.0419271,0.737487,-9.79094,-4.07621,-0.104039,10.1772
2023-03-15 12:09:10:305,-0.022245,0.719402,-9.77636,-4.07899,-0.101298,10.1717
2023-03-15 12:09:10:315,-0.00504314,0.748675,-9.7969,-4.08558,-0.0971117,10.1654
2023-03-15 12:09:10:325,-0.0166628,0.755005,-9.79649,-4.08397,-0.0976622,10.1507
2023-03-15 12:09:10:335,-0.0365605,0.726745,-9.77,-4.07672,-0.103855,10.1336
2023-03-15 12:09:10:345,-0.0585134,0.690456,-9.72342,-4.0727,-0.109772,10.1166
2023-03-15 12:09:10:355,-0.105625,0.661102,-9.68115,-4.06543,-0.112469,10.1002
2023-03-15 12:09:10:365,-0.116924,0.655021,-9.65779,-4.06314,-0.115813,10.0782
2023-03-15 12:09:10:375,-0.104065,0.677036,-9.66307,-4.0648,-0.117475,10.0496
2023-03-15 12:09:10:385,-0.0957956,0.720858,-9.70362,-4.07252,-0.116867,10.0136
2023-03-15 12:09:10:395,-0.0961108,0.761496,-9.76731,-4.08944,-0.119653,9.96981
2023-03-15 12:09:10:405,-0.0708861,0.781378,-9.82059,-4.10118,-0.124198,9.92071
2023-03-15 12:09:10:415,-0.0231956,0.790592,-9.83453,-4.11086,-0.133504,9.86575
2023-03-15 12:09:10:425,0.0170304,0.771834,-9.8157,-4.11628,-0.139115,9.8103
2023-03-15 12:09:10:435,0.00161882,0.747187,-9.78872,-4.11223,-0.146994,9.75288
2023-03-15 12:09:10:445,-0.01079,0.73628,-9.73578,-4.10443,-0.155721,9.69421
2023-03-15 12:09:10:455,-0.0159022,0.708817,-9.71019,-4.09968,-0.166078,9.63909
2023-03-15 12:09:10:465,-0.00813679,0.692756,-9.70403,-4.09698,-0.177855,9.58439
2023-03-15 12:09:10:475,0.00232438,0.699877,-9.68648,-4.09843,-0.189963,9.52314
2023-03-15 12:09:10:485,0.00977735,0.694765,-9.69433,-4.10457,-0.202969,9.46484
2023-03-15 12:09:10:495,-0.0018428,0.693028,-9.70084,-4.11425,-0.220561,9.40493
2023-03-15 12:09:10:505,-0.00837446,0.695255,-9.71247,-4.126,-0.238761,9.34564
2023-03-15 12:09:10:515,0.0183149,0.678052,-9.76144,-4.13696,-0.260024,9.28634
2023-03-15 12:09:10:525,0.0442981,0.718775,-9.8253,-4.15351,-0.276214,9.2282
2023-03-15 12:09:10:535,0.0175077,0.824001,-9.9119,-4.16496,-0.293423,9.16705
2023-03-15 12:09:10:545,-0.00724734,0.833367,-9.89115,-4.15781,-0.316415,9.10506
2023-03-15 12:09:10:555,-0.0238829,0.727702,-9.70476,-4.13184,-0.336769,9.0444
2023-03-15 12:09:10:565,-0.0205353,0.57126,-9.50211,-4.10322,-0.353505,8.99166
2023-03-15 12:09:10:575,0.0157639,0.508633,-9.45331,-4.09727,-0.366033,8.94068
2023-03-15 12:09:10:585,0.0436695,0.591209,-9.56966,-4.12394,-0.380248,8.89279
2023-03-15 12:09:10:595,0.0401235,0.711399,-9.75372,-4.15827,-0.397523,8.84582
2023-03-15 12:09:10:605,0.0218089,0.797444,-9.8524,-4.19164,-0.422303,8.79362
2023-03-15 12:09:10:615,-0.0150972,0.799865,-9.8276,-4.2117,-0.448047,8.74541
2023-03-15 12:09:10:625,-0.0301544,0.75913,-9.76597,-4.21788,-0.472274,8.69969
2023-03-15 12:09:10:635,-0.0301527,0.732941,-9.7109,-4.22521,-0.489672,8.65482
2023-03-15 12:09:10:645,0.00755744,0.718669,-9.71324,-4.2354,-0.503326,8.61654
2023-03-15 12:09:10:655,0.0427839,0.738266,-9.76265,-4.25485,-0.517508,8.57989
2023-03-15 12:09:10:665,0.0430335,0.782625,-9.80077,-4.27431,-0.530978,8.54436
2023-03-15 12:09:10:675,0.0520888,0.809776,-9.82551,-4.28751,-0.548714,8.51494
2023-03-15 12:09:10:685,0.027637,0.81815,-9.81889,-4.29332,-0.566461,8.48949
2023-03-15 12:09:10:695,0.00604198,0.780846,-9.79055,-4.29189,-0.586724,8.46513
2023-03-15 12:09:10:705,-0.0113263,0.754403,-9.72475,-4.28776,-0.605781,8.44528
2023-03-15 12:09:10:715,-0.0348514,0.713715,-9.68811,-4.28573,-0.622593,8.43063
2023-03-15 12:09:10:725,-0.0737042,0.719259,-9.68449,-4.29203,-0.644287,8.41545
2023-03-15 12:09:10:735,-0.100682,0.765104,-9.70513,-4.30616,-0.670201,8.40154
2023-03-15 12:09:10:745,-0.117316,0.803806,-9.75814,-4.32561,-0.693689,8.38288
2023-03-15 12:09:10:755,-0.129973,0.831358,-9.78217,-4.34243,-0.722294,8.3627
2023-03-15 12:09:10:765,-0.145151,0.860258,-9.77623,-4.35939,-0.747178,8.34138
2023-03-15 12:09:10:775,-0.142719,0.875675,-9.78364,-4.3722,-0.770827,8.31638
2023-03-15 12:09:10:785,-0.123127,0.870474,-9.82431,-4.38194,-0.796813,8.28878
2023-03-15 12:09:10:795,-0.121401,0.900178,-9.87082,-4.39156,-0.819598,8.26381
2023-03-15 12:09:10:805,-0.112879,0.928936,-9.86408,-4.3947,-0.842631,8.2351
2023-03-15 12:09:10:815,-0.103489,0.88271,-9.82986,-4.38761,-0.870281,8.20743
2023-03-15 12:09:10:825,-0.11199,0.82152,-9.76876,-4.37248,-0.893304,8.18305
2023-03-15 12:09:10:835,-0.123139,0.790353,-9.71411,-4.35741,-0.915539,8.15821
2023-03-15 12:09:10:845,-0.128032,0.787772,-9.7474,-4.34383,-0.941915,8.13516
2023-03-15 12:09:10:855,-0.141366,0.823422,-9.78112,-4.33401,-0.971045,8.11152
2023-03-15 12:09:10:865,-0.164759,0.819549,-9.79335,-4.31831,-1.00177,8.0886
2023-03-15 12:09:10:875,-0.191888,0.785647,-9.75979,-4.29691,-1.0312,8.06664
2023-03-15 12:09:10:885,-0.187394,0.757101,-9.70848,-4.27581,-1.06249,8.04597
2023-03-15 12:09:10:895,-0.178435,0.724153,-9.68829,-4.25695,-1.09012,8.0255
2023-03-15 12:09:10:905,-0.181598,0.707098,-9.6958,-4.24236,-1.11946,8.00728
2023-03-15 12:09:10:915,-0.189746,0.7048,-9.7228,-4.22973,-1.14725,7.99066
2023-03-15 12:09:10:925,-0.198199,0.734945,-9.74211,-4.22234,-1.17538,7.97699
2023-03-15 12:09:10:935,-0.191093,0.740473,-9.7336,-4.21209,-1.20127,7.96193
2023-03-15 12:09:10:945,-0.176557,0.723189,-9.74016,-4.19775,-1.22479,7.9476
2023-03-15 12:09:10:955,-0.166507,0.723101,-9.74116,-4.17847,-1.24939,7.93565
2023-03-15 12:09:10:965,-0.189794,0.694837,-9.69418,-4.15959,-1.27027,7.92271
2023-03-15 12:09:10:975,-0.233096,0.677213,-9.66987,-4.14285,-1.29768,7.91593
2023-03-15 12:09:10:985,-0.28866,0.659291,-9.66132,-4.13289,-1.32582,7.90676
2023-03-15 12:09:10:995,-0.314925,0.651377,-9.72943,-4.12491,-1.35523,7.89908
2023-03-15 12:09:11:5,-0.284494,0.747705,-9.80846,-4.12608,-1.37996,7.89078
2023-03-15 12:09:11:15,-0.237408,0.819767,-9.88479,-4.11385,-1.40031,7.87648
2023-03-15 12:09:11:25,-0.254551,0.747352,-9.78297,-4.07666,-1.42219,7.86217
2023-03-15 12:09:11:35,-0.280829,0.584575,-9.56819,-4.0321,-1.4426,7.85599
2023-03-15 12:09:11:45,-0.2721,0.472876,-9.43682,-4.00059,-1.45749,7.85571
2023-03-15 12:09:11:55,-0.262564,0.485889,-9.49672,-3.99434,-1.47257,7.85619
2023-03-15 12:09:11:65,-0.283513,0.599185,-9.66854,-4.01191,-1.48939,7.85654
2023-03-15 12:09:11:75,-0.303114,0.708773,-9.80254,-4.03579,-1.51104,7.85218
2023-03-15 12:09:11:85,-0.311475,0.754427,-9.80755,-4.04682,-1.53374,7.83966
2023-03-15 12:09:11:95,-0.328997,0.711697,-9.74377,-4.04839,-1.55009,7.82764
2023-03-15 12:09:11:105,-0.328979,0.645833,-9.67655,-4.04748,-1.56197,7.81804
2023-03-15 12:09:11:115,-0.330335,0.620447,-9.66326,-4.0462,-1.57295,7.80693
2023-03-15 12:09:11:125,-0.31753,0.648685,-9.69234,-4.05876,-1.58632,7.78998
2023-03-15 12:09:11:135,-0.297641,0.684203,-9.73517,-4.0764,-1.59902,7.77323
2023-03-15 12:09:11:145,-0.28429,0.721256,-9.79539,-4.09073,-1.60897,7.75494
2023-03-15 12:09:11:155,-0.271843,0.804475,-9.84723,-4.10361,-1.61768,7.73388
2023-03-15 12:09:11:165,-0.240629,0.783602,-9.85361,-4.10421,-1.62427,7.71014
2023-03-15 12:09:11:175,-0.251333,0.724016,-9.76247,-4.0933,-1.63502,7.68984
2023-03-15 12:09:11:185,-0.260825,0.647418,-9.67354,-4.0826,-1.64544,7.67466
2023-03-15 12:09:11:195,-0.262425,0.630557,-9.6658,-4.07947,-1.65488,7.66172
2023-03-15 12:09:11:205,-0.26176,0.684772,-9.72565,-4.08814,-1.66281,7.65093
2023-03-15 12:09:11:215,-0.269854,0.744541,-9.78113,-4.09493,-1.68034,7.63341
2023-03-15 12:09:11:225,-0.278644,0.757093,-9.80602,-4.09765,-1.69767,7.61264
2023-03-15 12:09:11:235,-0.264465,0.73559,-9.7994,-4.09527,-1.71286,7.59327
2023-03-15 12:09:11:245,-0.26743,0.737466,-9.77406,-4.09011,-1.7246,7.57494
2023-03-15 12:09:11:255,-0.281214,0.730814,-9.76244,-4.08317,-1.73884,7.55548
2023-03-15 12:09:11:265,-0.279141,0.734195,-9.75063,-4.07677,-1.74856,7.53673
2023-03-15 12:09:11:275,-0.27463,0.749117,-9.78087,-4.06935,-1.76244,7.51798
2023-03-15 12:09:11:285,-0.268576,0.759125,-9.80272,-4.06089,-1.776,7.49805
2023-03-15 12:09:11:295,-0.252583,0.757358,-9.79403,-4.05236,-1.79053,7.47784
2023-03-15 12:09:11:305,-0.243311,0.73343,-9.77868,-4.03767,-1.80543,7.45786
2023-03-15 12:09:11:315,-0.249063,0.717023,-9.75451,-4.02308,-1.81723,7.43728
2023-03-15 12:09:11:325,-0.257867,0.701341,-9.73965,-4.00231,-1.83544,7.41911
2023-03-15 12:09:11:335,-0.262099,0.67967,-9.72213,-3.98699,-1.84999,7.40195
2023-03-15 12:09:11:345,-0.264583,0.677904,-9.72185,-3.97342,-1.86346,7.38861
2023-03-15 12:09:11:355,-0.268166,0.692051,-9.72675,-3.95895,-1.8781,7.36975
2023-03-15 12:09:11:365,-0.289104,0.694517,-9.7177,-3.94442,-1.89605,7.35207
2023-03-15 12:09:11:375,-0.307021,0.696146,-9.71379,-3.93578,-1.91639,7.33281
2023-03-15 12:09:11:385,-0.28624,0.671662,-9.70902,-3.92737,-1.93577,7.31261
2023-03-15 12:09:11:395,-0.265279,0.621026,-9.77771,-3.92083,-1.9561,7.29528
2023-03-15 12:09:11:405,-0.267421,0.74957,-9.88336,-3.92413,-1.97321,7.27636
2023-03-15 12:09:11:415,-0.263454,0.850163,-9.95858,-3.91453,-1.9874,7.25498
2023-03-15 12:09:11:425,-0.23138,0.815504,-9.89155,-3.87944,-1.99833,7.23379
2023-03-15 12:09:11:435,-0.233884,0.665455,-9.68074,-3.82138,-2.00742,7.21541
2023-03-15 12:09:11:445,-0.256551,0.502576,-9.4889,-3.76763,-2.01603,7.204
2023-03-15 12:09:11:455,-0.284367,0.449677,-9.44444,-3.74366,-2.02564,7.20007
2023-03-15 12:09:11:465,-0.297181,0.533727,-9.57425,-3.74949,-2.04066,7.19433
2023-03-15 12:09:11:475,-0.299238,0.679862,-9.76251,-3.77546,-2.06162,7.18212
2023-03-15 12:09:11:485,-0.322291,0.77302,-9.88511,-3.79404,-2.09037,7.16462
2023-03-15 12:09:11:495,-0.336087,0.796349,-9.90473,-3.79798,-2.11657,7.14699
2023-03-15 12:09:11:505,-0.359712,0.759854,-9.83378,-3.78175,-2.1423,7.12562
2023-03-15 12:09:11:515,-0.350157,0.696705,-9.74769,-3.75947,-2.16961,7.10968
2023-03-15 12:09:11:525,-0.365869,0.636606,-9.69221,-3.74028,-2.19633,7.09113
2023-03-15 12:09:11:535,-0.416028,0.634524,-9.66822,-3.72775,-2.22673,7.07704
2023-03-15 12:09:11:545,-0.462493,0.674602,-9.69723,-3.72168,-2.25622,7.0552
2023-03-15 12:09:11:555,-0.487185,0.72088,-9.73478,-3.71898,-2.28113,7.03233
2023-03-15 12:09:11:565,-0.489231,0.736556,-9.77039,-3.71524,-2.30176,7.00199
2023-03-15 12:09:11:575,-0.455647,0.730797,-9.79164,-3.70672,-2.32388,6.96753
2023-03-15 12:09:11:585,-0.415684,0.72168,-9.80046,-3.69587,-2.34692,6.92871
2023-03-15 12:09:11:595,-0.36171,0.722285,-9.80922,-3.68525,-2.36463,6.89192
2023-03-15 12:09:11:605,-0.352909,0.724814,-9.82401,-3.66877,-2.38859,6.85227
2023-03-15 12:09:11:615,-0.370438,0.739163,-9.83348,-3.65133,-2.41505,6.81261
2023-03-15 12:09:11:625,-0.425736,0.722479,-9.81074,-3.62749,-2.44112,6.7756
2023-03-15 12:09:11:635,-0.503776,0.714062,-9.75527,-3.60123,-2.4728,6.73272
2023-03-15 12:09:11:645,-0.553631,0.700661,-9.74316,-3.57684,-2.5035,6.68893
2023-03-15 12:09:11:655,-0.559099,0.697669,-9.74585,-3.55342,-2.52558,6.63865
2023-03-15 12:09:11:665,-0.5327,0.68011,-9.75829,-3.5309,-2.5489,6.58463
2023-03-15 12:09:11:675,-0.495622,0.675933,-9.77204,-3.50614,-2.56871,6.52689
2023-03-15 12:09:11:685,-0.476195,0.690818,-9.78734,-3.47903,-2.58792,6.46719
2023-03-15 12:09:11:695,-0.498493,0.701841,-9.79057,-3.45562,-2.61011,6.4052
2023-03-15 12:09:11:705,-0.538872,0.71514,-9.76935,-3.43011,-2.63535,6.33795
2023-03-15 12:09:11:715,-0.565406,0.710529,-9.77238,-3.40132,-2.66103,6.26827
2023-03-15 12:09:11:725,-0.552508,0.711614,-9.77861,-3.37427,-2.68289,6.19306
2023-03-15 12:09:11:735,-0.513358,0.708959,-9.77195,-3.34026,-2.69974,6.11352
2023-03-15 12:09:11:745,-0.479379,0.699038,-9.7647,-3.30749,-2.71591,6.02883
2023-03-15 12:09:11:755,-0.490057,0.66437,-9.75815,-3.2697,-2.73212,5.94689
2023-03-15 12:09:11:765,-0.495656,0.635685,-9.75697,-3.23456,-2.74827,5.8647
2023-03-15 12:09:11:775,-0.475303,0.607308,-9.73675,-3.19931,-2.766,5.77974
2023-03-15 12:09:11:785,-0.482763,0.58845,-9.73795,-3.16276,-2.78215,5.6926
2023-03-15 12:09:11:795,-0.510215,0.570507,-9.7349,-3.12631,-2.79775,5.6021
2023-03-15 12:09:11:805,-0.56933,0.555158,-9.70459,-3.08772,-2.82044,5.50795
2023-03-15 12:09:11:815,-0.616918,0.537418,-9.68395,-3.052,-2.8414,5.40742
2023-03-15 12:09:11:825,-0.640255,0.53935,-9.67212,-3.02284,-2.86522,5.30005
2023-03-15 12:09:11:835,-0.641696,0.562654,-9.69576,-3.00349,-2.88683,5.17814
2023-03-15 12:09:11:845,-0.621721,0.596632,-9.73971,-2.98754,-2.91103,5.04619
2023-03-15 12:09:11:855,-0.587007,0.614759,-9.77149,-2.97101,-2.9349,4.90452
2023-03-15 12:09:11:865,-0.573802,0.628418,-9.76885,-2.95108,-2.96204,4.752
2023-03-15 12:09:11:875,-0.615365,0.590823,-9.76596,-2.92677,-2.9941,4.59183
2023-03-15 12:09:11:885,-0.696718,0.555819,-9.7466,-2.89973,-3.03615,4.42407
2023-03-15 12:09:11:895,-0.803538,0.563433,-9.72052,-2.8737,-3.08214,4.24071
2023-03-15 12:09:11:905,-0.876963,0.535019,-9.71077,-2.84974,-3.12917,4.03831
2023-03-15 12:09:11:915,-0.910584,0.52046,-9.7351,-2.83176,-3.17754,3.81427
2023-03-15 12:09:11:925,-0.998558,0.587295,-9.77494,-2.81912,-3.22182,3.5658
2023-03-15 12:09:11:935,-1.17803,0.652272,-9.78028,-2.80428,-3.27718,3.28317
2023-03-15 12:09:11:945,-1.35252,0.689346,-9.76632,-2.78968,-3.33447,2.9613
2023-03-15 12:09:11:955,-1.44606,0.730187,-9.77666,-2.76707,-3.3932,2.58822
2023-03-15 12:09:11:965,-1.49468,0.747788,-9.78899,-2.74024,-3.45535,2.16255
2023-03-15 12:09:11:975,-1.50767,0.734266,-9.78497,-2.70236,-3.52815,1.67631
2023-03-15 12:09:11:985,-1.4946,0.720618,-9.77814,-2.66368,-3.61718,1.13003
2023-03-15 12:09:11:995,-1.43983,0.750962,-9.78625,-2.62716,-3.71998,0.524445
2023-03-15 12:09:12:5,-1.36513,0.81269,-9.80113,-2.58982,-3.84779,-0.140065
2023-03-15 12:09:12:15,-1.22246,0.883033,-9.89736,-2.5573,-3.99759,-0.862348
2023-03-15 12:09:12:25,-1.05323,0.975988,-10.0681,-2.52135,-4.17401,-1.63116
2023-03-15 12:09:12:35,-0.928869,1.06394,-10.2086,-2.47192,-4.37445,-2.43399
2023-03-15 12:09:12:45,-0.829048,1.08486,-10.2882,-2.39471,-4.58363,-3.25844
2023-03-15 12:09:12:55,-0.749225,1.04226,-10.2854,-2.27546,-4.79637,-4.09589
2023-03-15 12:09:12:65,-0.719862,0.944475,-10.1918,-2.11817,-5.00367,-4.92856
2023-03-15 12:09:12:75,-0.712757,0.775068,-10.0585,-1.92735,-5.19441,-5.74745
2023-03-15 12:09:12:85,-0.687696,0.5924,-9.87835,-1.71111,-5.36683,-6.54925
2023-03-15 12:09:12:95,-0.702482,0.403874,-9.69663,-1.48049,-5.51514,-7.33
2023-03-15 12:09:12:105,-0.714223,0.241631,-9.53857,-1.25018,-5.63797,-8.0875
2023-03-15 12:09:12:115,-0.648174,0.112396,-9.45973,-1.02954,-5.73933,-8.81884
2023-03-15 12:09:12:125,-0.525327,-0.00116129,-9.42984,-0.826184,-5.81539,-9.52635
2023-03-15 12:09:12:136,-0.400614,-0.0824603,-9.44851,-0.636495,-5.87432,-10.1986
2023-03-15 12:09:12:145,-0.290106,-0.143816,-9.47873,-0.464875,-5.92564,-10.8319
2023-03-15 12:09:12:156,-0.251919,-0.198185,-9.49314,-0.30575,-5.973,-11.4224
2023-03-15 12:09:12:165,-0.267387,-0.266331,-9.49222,-0.166379,-6.01335,-11.9711
2023-03-15 12:09:12:175,-0.283117,-0.317869,-9.52069,-0.0417731,-6.0492,-12.4791
2023-03-15 12:09:12:185,-0.309951,-0.325688,-9.54553,0.0674414,-6.07618,-12.951
2023-03-15 12:09:12:195,-0.354505,-0.366547,-9.58065,0.168157,-6.09435,-13.3821
2023-03-15 12:09:12:205,-0.399001,-0.349324,-9.60089,0.252564,-6.09819,-13.7704
2023-03-15 12:09:12:215,-0.39854,-0.257232,-9.61385,0.332068,-6.0898,-14.1346
2023-03-15 12:09:12:225,-0.356741,-0.31088,-9.61848,0.412365,-6.07601,-14.46
2023-03-15 12:09:12:235,-0.32793,-0.345612,-9.60181,0.491402,-6.05719,-14.7501
2023-03-15 12:09:12:245,-0.342478,-0.385363,-9.56827,0.563789,-6.0343,-15.0003
2023-03-15 12:09:12:255,-0.372912,-0.413325,-9.56391,0.624253,-6.00797,-15.2162
2023-03-15 12:09:12:265,-0.40173,-0.399979,-9.57787,0.67481,-5.98489,-15.4023
2023-03-15 12:09:12:275,-0.470381,-0.355696,-9.6122,0.715931,-5.95793,-15.5622
2023-03-15 12:09:12:285,-0.552235,-0.340155,-9.63999,0.75216,-5.94106,-15.7006
2023-03-15 12:09:12:295,-0.590893,-0.330063,-9.63874,0.784819,-5.9228,-15.8206
2023-03-15 12:09:12:305,-0.589576,-0.312699,-9.65378,0.814367,-5.90224,-15.9277
2023-03-15 12:09:12:315,-0.591064,-0.315648,-9.66137,0.838925,-5.88863,-16.0149
2023-03-15 12:09:12:325,-0.609054,-0.298937,-9.67645,0.861805,-5.87273,-16.0861
2023-03-15 12:09:12:335,-0.63689,-0.302028,-9.69123,0.882871,-5.85763,-16.1411
2023-03-15 12:09:12:345,-0.639618,-0.305981,-9.69378,0.906277,-5.84272,-16.1834
2023-03-15 12:09:12:355,-0.644988,-0.294339,-9.67082,0.927033,-5.82839,-16.2075
2023-03-15 12:09:12:365,-0.672822,-0.319273,-9.63835,0.949508,-5.81105,-16.2143
2023-03-15 12:09:12:375,-0.707465,-0.332884,-9.60327,0.972227,-5.79239,-16.203
2023-03-15 12:09:12:385,-0.718658,-0.349511,-9.58602,0.988717,-5.76558,-16.176
2023-03-15 12:09:12:396,-0.688322,-0.351348,-9.61757,0.993019,-5.73453,-16.1304
2023-03-15 12:09:12:405,-0.698635,-0.324125,-9.6525,0.992835,-5.69983,-16.0701
2023-03-15 12:09:12:415,-0.724667,-0.295008,-9.71137,0.989677,-5.66397,-15.991
2023-03-15 12:09:12:425,-0.770843,-0.252661,-9.75428,0.988769,-5.63285,-15.9059
2023-03-15 12:09:12:435,-0.802207,-0.254692,-9.76602,0.998467,-5.60361,-15.806
2023-03-15 12:09:12:446,-0.834515,-0.261788,-9.75907,1.01026,-5.57612,-15.6975
2023-03-15 12:09:12:455,-0.869432,-0.272928,-9.73617,1.03295,-5.54642,-15.581
2023-03-15 12:09:12:465,-0.922794,-0.312436,-9.71036,1.05414,-5.51946,-15.4527
2023-03-15 12:09:12:476,-1.00728,-0.327027,-9.68449,1.07428,-5.50104,-15.3189
2023-03-15 12:09:12:485,-1.13179,-0.31191,-9.66143,1.09154,-5.48428,-15.1869
2023-03-15 12:09:12:495,-1.24442,-0.28455,-9.6311,1.1028,-5.46699,-15.0564
2023-03-15 12:09:12:506,-1.35344,-0.28526,-9.61341,1.1162,-5.44491,-14.9337
2023-03-15 12:09:12:516,-1.41377,-0.298509,-9.58179,1.12508,-5.4231,-14.824
2023-03-15 12:09:12:525,-1.41447,-0.281458,-9.55395,1.13181,-5.39621,-14.7315
2023-03-15 12:09:12:535,-1.3691,-0.271109,-9.56559,1.13105,-5.3658,-14.6501
2023-03-15 12:09:12:545,-1.30213,-0.252725,-9.59755,1.12086,-5.33133,-14.5871
2023-03-15 12:09:12:555,-1.22184,-0.208411,-9.6667,1.10687,-5.30117,-14.5358
2023-03-15 12:09:12:565,-1.18855,-0.187278,-9.71414,1.09152,-5.27197,-14.492
2023-03-15 12:09:12:575,-1.19361,-0.185745,-9.71247,1.07744,-5.25221,-14.4602
2023-03-15 12:09:12:585,-1.22492,-0.188191,-9.67463,1.06555,-5.23304,-14.4444
2023-03-15 12:09:12:595,-1.2467,-0.192682,-9.63219,1.05052,-5.21506,-14.439
2023-03-15 12:09:12:605,-1.26726,-0.193852,-9.57475,1.03254,-5.20107,-14.4434
2023-03-15 12:09:12:616,-1.2543,-0.18825,-9.54603,1.00167,-5.18109,-14.4619
2023-03-15 12:09:12:625,-1.18422,-0.185138,-9.57275,0.956715,-5.15588,-14.4932
2023-03-15 12:09:12:635,-1.08704,-0.126358,-9.61763,0.900813,-5.12279,-14.5343
2023-03-15 12:09:12:645,-0.96696,-0.0614756,-9.70386,0.840033,-5.08673,-14.5875
2023-03-15 12:09:12:656,-0.875207,-0.0143563,-9.76381,0.776008,-5.04735,-14.642
2023-03-15 12:09:12:665,-0.820463,0.00814023,-9.78145,0.717341,-5.01173,-14.7013
2023-03-15 12:09:12:675,-0.782793,0.0133494,-9.77335,0.665328,-4.97752,-14.7635
2023-03-15 12:09:12:685,-0.764357,0.0150817,-9.75756,0.617229,-4.94746,-14.826
2023-03-15 12:09:12:695,-0.742293,0.0280261,-9.76451,0.56837,-4.91894,-14.8878
2023-03-15 12:09:12:705,-0.757976,0.0739998,-9.74851,0.517403,-4.89768,-14.9515
2023-03-15 12:09:12:715,-0.725776,0.103981,-9.7404,0.465014,-4.87634,-15.0172
2023-03-15 12:09:12:725,-0.654386,0.0947733,-9.7846,0.412543,-4.85642,-15.0813
2023-03-15 12:09:12:735,-0.626632,0.141814,-9.80922,0.358941,-4.84017,-15.1402
2023-03-15 12:09:12:746,-0.64161,0.178337,-9.80284,0.302525,-4.82492,-15.1996
2023-03-15 12:09:12:756,-0.585224,0.164637,-9.83549,0.253019,-4.81315,-15.2554
2023-03-15 12:09:12:765,-0.479148,0.147626,-9.91694,0.207107,-4.80311,-15.3046
2023-03-15 12:09:12:776,-0.466647,0.156266,-10.0029,0.167846,-4.80443,-15.3442
2023-03-15 12:09:12:785,-0.591083,0.152725,-9.99815,0.145353,-4.82714,-15.3729
2023-03-15 12:09:12:795,-0.741825,0.108236,-9.88566,0.140707,-4.86033,-15.4015
2023-03-15 12:09:12:805,-0.819827,0.0363374,-9.69258,0.146266,-4.89519,-15.4251
2023-03-15 12:09:12:815,-0.870123,-0.0604506,-9.52741,0.149211,-4.92527,-15.448
2023-03-15 12:09:12:825,-0.885519,-0.13388,-9.47364,0.139141,-4.95301,-15.4641
2023-03-15 12:09:12:835,-0.87599,-0.120941,-9.51145,0.106137,-4.97999,-15.4785
2023-03-15 12:09:12:845,-0.874854,-0.0645552,-9.61189,0.0544772,-5.00811,-15.4916
2023-03-15 12:09:12:856,-0.883732,-0.00339992,-9.70609,0.000457343,-5.04016,-15.5042
2023-03-15 12:09:12:866,-0.916217,0.00300851,-9.77744,-0.0531518,-5.07614,-15.5165
2023-03-15 12:09:12:875,-0.987359,0.0101864,-9.79881,-0.102318,-5.11092,-15.5257
2023-03-15 12:09:12:885,-1.08135,0.0134108,-9.77074,-0.144067,-5.14388,-15.5316
2023-03-15 12:09:12:896,-1.14495,0.00100145,-9.70265,-0.183246,-5.16832,-15.5445
2023-03-15 12:09:12:905,-1.16697,0.0219158,-9.68183,-0.228092,-5.17806,-15.5548
2023-03-15 12:09:12:916,-1.15699,0.0971865,-9.6729,-0.26272,-5.17381,-15.5802
2023-03-15 12:09:12:925,-1.08231,-0.00564063,-9.64257,-0.291129,-5.15173,-15.6006
2023-03-15 12:09:12:936,-0.955768,-0.0135463,-9.64555,-0.32302,-5.12046,-15.618
2023-03-15 12:09:12:945,-0.875697,-0.043079,-9.65436,-0.358722,-5.08287,-15.6292
2023-03-15 12:09:12:955,-0.903467,-0.0170572,-9.66759,-0.40507,-5.04503,-15.6355
2023-03-15 12:09:12:965,-0.935351,0.0569241,-9.7087,-0.4639,-5.00142,-15.641
2023-03-15 12:09:12:976,-0.947383,0.130907,-9.76226,-0.516051,-4.9494,-15.648
2023-03-15 12:09:12:985,-0.925878,0.167974,-9.75934,-0.56893,-4.88851,-15.6623
2023-03-15 12:09:12:996,-0.851362,0.179343,-9.76594,-0.616725,-4.81316,-15.6771
2023-03-15 12:09:13:5,-0.735602,0.194417,-9.79254,-0.65916,-4.72574,-15.6925
2023-03-15 12:09:13:16,-0.623269,0.185063,-9.84706,-0.696711,-4.63936,-15.7061
2023-03-15 12:09:13:26,-0.546301,0.202588,-9.87652,-0.73045,-4.55504,-15.7174
2023-03-15 12:09:13:36,-0.54343,0.195401,-9.85233,-0.751538,-4.47528,-15.7241
2023-03-15 12:09:13:46,-0.579099,0.161323,-9.79976,-0.766542,-4.39562,-15.728
2023-03-15 12:09:13:56,-0.633979,0.152007,-9.75736,-0.783923,-4.3174,-15.7311
2023-03-15 12:09:13:65,-0.672761,0.176669,-9.74904,-0.80499,-4.24468,-15.7398
2023-03-15 12:09:13:75,-0.681314,0.225097,-9.77793,-0.831382,-4.17305,-15.7537
2023-03-15 12:09:13:85,-0.666606,0.277254,-9.86655,-0.85719,-4.09328,-15.78
2023-03-15 12:09:13:96,-0.531524,0.305943,-9.99957,-0.864558,-4.01654,-15.8181
2023-03-15 12:09:13:105,-0.386404,0.211728,-9.93253,-0.855047,-3.95869,-15.8639
2023-03-15 12:09:13:116,-0.395043,0.101692,-9.81225,-0.834389,-3.91314,-15.9031
2023-03-15 12:09:13:126,-0.438454,0.0263963,-9.71946,-0.806969,-3.87583,-15.9394
2023-03-15 12:09:13:136,-0.490906,-0.00837995,-9.63109,-0.783933,-3.84564,-15.9795
2023-03-15 12:09:13:146,-0.527219,-0.0145691,-9.64147,-0.764783,-3.81546,-16.0216
2023-03-15 12:09:13:156,-0.470021,-0.0363142,-9.64724,-0.750462,-3.78957,-16.0674
2023-03-15 12:09:13:166,-0.4587,-0.0489054,-9.63845,-0.739886,-3.76797,-16.1104
2023-03-15 12:09:13:175,-0.444568,-0.0686902,-9.63671,-0.731534,-3.75136,-16.1544
2023-03-15 12:09:13:185,-0.46666,-0.0865786,-9.57487,-0.732058,-3.74729,-16.2
2023-03-15 12:09:13:195,-0.495915,-0.0864119,-9.5723,-0.742253,-3.74535,-16.2395
2023-03-15 12:09:13:205,-0.507558,-0.0419605,-9.5978,-0.767652,-3.74626,-16.2798
2023-03-15 12:09:13:215,-0.548828,0.00269197,-9.61625,-0.803971,-3.75143,-16.3224
2023-03-15 12:09:13:225,-0.552957,0.0629109,-9.66667,-0.850088,-3.75111,-16.363
2023-03-15 12:09:13:235,-0.526297,0.134082,-9.73247,-0.902098,-3.7478,-16.4012
2023-03-15 12:09:13:245,-0.484128,0.204914,-9.81207,-0.954486,-3.73888,-16.4382
2023-03-15 12:09:13:256,-0.454214,0.242012,-9.85777,-0.998731,-3.72571,-16.4711
2023-03-15 12:09:13:265,-0.43062,0.238515,-9.84477,-1.03182,-3.70947,-16.5035
2023-03-15 12:09:13:275,-0.388742,0.217299,-9.83414,-1.05728,-3.69436,-16.5248
2023-03-15 12:09:13:285,-0.377374,0.199042,-9.79035,-1.07993,-3.68331,-16.54
2023-03-15 12:09:13:296,-0.419678,0.169933,-9.71681,-1.09643,-3.68379,-16.5481
2023-03-15 12:09:13:305,-0.490388,0.163457,-9.65857,-1.12696,-3.69632,-16.5555
2023-03-15 12:09:13:315,-0.573455,0.197564,-9.62786,-1.16829,-3.72003,-16.558
2023-03-15 12:09:13:325,-0.63111,0.243692,-9.64168,-1.21951,-3.75248,-16.5639
2023-03-15 12:09:13:335,-0.68365,0.293798,-9.67953,-1.28207,-3.78372,-16.5695
2023-03-15 12:09:13:346,-0.726864,0.342296,-9.73994,-1.3515,-3.81522,-16.583
2023-03-15 12:09:13:356,-0.772616,0.378659,-9.78404,-1.41968,-3.84835,-16.5956
2023-03-15 12:09:13:366,-0.801249,0.386768,-9.82217,-1.48081,-3.87847,-16.6138
2023-03-15 12:09:13:376,-0.801039,0.357613,-9.82861,-1.53829,-3.90679,-16.6309
2023-03-15 12:09:13:386,-0.805646,0.329112,-9.82305,-1.58539,-3.93145,-16.6494
2023-03-15 12:09:13:396,-0.828735,0.320318,-9.78787,-1.62691,-3.95585,-16.6743
2023-03-15 12:09:13:406,-0.846769,0.30183,-9.75148,-1.65911,-3.97104,-16.7003
2023-03-15 12:09:13:416,-0.855391,0.269811,-9.70392,-1.69074,-3.98304,-16.728
2023-03-15 12:09:13:426,-0.848984,0.27728,-9.70175,-1.72593,-3.99239,-16.7549
2023-03-15 12:09:13:435,-0.825407,0.283917,-9.7159,-1.76362,-3.99268,-16.7872
2023-03-15 12:09:13:445,-0.757963,0.289913,-9.72629,-1.7978,-3.99318,-16.8162
2023-03-15 12:09:13:455,-0.69642,0.27593,-9.72416,-1.82958,-3.98869,-16.8477
2023-03-15 12:09:13:465,-0.675398,0.244027,-9.7045,-1.86414,-3.98601,-16.8777
2023-03-15 12:09:13:475,-0.718831,0.233149,-9.64726,-1.89379,-3.98315,-16.9006
2023-03-15 12:09:13:485,-0.741609,0.213028,-9.63458,-1.92799,-3.98069,-16.9244
2023-03-15 12:09:13:495,-0.749484,0.216661,-9.63095,-1.97259,-3.97648,-16.9477
2023-03-15 12:09:13:505,-0.754438,0.23807,-9.64058,-2.02177,-3.96828,-16.9662
2023-03-15 12:09:13:515,-0.773547,0.26164,-9.67126,-2.07468,-3.96208,-16.9918
2023-03-15 12:09:13:525,-0.79775,0.299287,-9.7048,-2.13032,-3.95427,-17.0176
2023-03-15 12:09:13:535,-0.801692,0.335343,-9.69633,-2.18706,-3.94351,-17.0463
2023-03-15 12:09:13:545,-0.818936,0.347258,-9.67933,-2.24264,-3.9351,-17.0801
2023-03-15 12:09:13:556,-0.830412,0.351967,-9.65043,-2.29821,-3.92487,-17.1213
2023-03-15 12:09:13:565,-0.879461,0.367952,-9.60227,-2.35516,-3.91437,-17.1665
2023-03-15 12:09:13:576,-0.905421,0.393131,-9.57892,-2.42163,-3.90442,-17.2246
2023-03-15 12:09:13:586,-0.85931,0.418347,-9.58643,-2.49718,-3.8907,-17.2913
2023-03-15 12:09:13:596,-0.775517,0.451362,-9.61408,-2.5837,-3.8761,-17.3649
2023-03-15 12:09:13:606,-0.661386,0.490585,-9.70077,-2.67579,-3.85738,-17.4424
2023-03-15 12:09:13:616,-0.573097,0.562512,-9.81745,-2.77161,-3.84271,-17.5165
2023-03-15 12:09:13:626,-0.541105,0.648783,-9.9324,-2.86553,-3.83082,-17.5919
2023-03-15 12:09:13:635,-0.564153,0.70686,-9.99924,-2.95193,-3.82255,-17.6643
2023-03-15 12:09:13:646,-0.608141,0.746199,-10.0098,-3.02429,-3.81886,-17.7378
2023-03-15 12:09:13:656,-0.638827,0.775686,-9.97941,-3.0786,-3.8135,-17.8075
2023-03-15 12:09:13:665,-0.604139,0.742674,-9.91688,-3.1139,-3.80453,-17.8782
2023-03-15 12:09:13:675,-0.566629,0.673698,-9.84973,-3.13621,-3.78792,-17.9431
2023-03-15 12:09:13:685,-0.525605,0.580576,-9.80716,-3.14836,-3.76395,-18.0021
2023-03-15 12:09:13:696,-0.496855,0.485352,-9.79505,-3.1533,-3.73501,-18.0484
2023-03-15 12:09:13:706,-0.49329,0.480468,-9.77446,-3.15621,-3.70611,-18.086
2023-03-15 12:09:13:716,-0.515357,0.477541,-9.71569,-3.15992,-3.67924,-18.1191
2023-03-15 12:09:13:726,-0.548195,0.462609,-9.66569,-3.16519,-3.65432,-18.1486
2023-03-15 12:09:13:736,-0.556705,0.451746,-9.61823,-3.17217,-3.63171,-18.1755
2023-03-15 12:09:13:745,-0.534851,0.415452,-9.57486,-3.18533,-3.61126,-18.1975
2023-03-15 12:09:13:756,-0.515865,0.402816,-9.55171,-3.20856,-3.58832,-18.2158
2023-03-15 12:09:13:766,-0.537862,0.435417,-9.58426,-3.24664,-3.56871,-18.2293
2023-03-15 12:09:13:776,-0.543264,0.473047,-9.65265,-3.29764,-3.55383,-18.2419
2023-03-15 12:09:13:785,-0.568122,0.563965,-9.70836,-3.35805,-3.53154,-18.2526
2023-03-15 12:09:13:795,-0.570888,0.642957,-9.76653,-3.41567,-3.50959,-18.2654
2023-03-15 12:09:13:805,-0.536053,0.671931,-9.80608,-3.46986,-3.48328,-18.2818
2023-03-15 12:09:13:815,-0.49504,0.680419,-9.79933,-3.50866,-3.45139,-18.2905
2023-03-15 12:09:13:826,-0.468083,0.65901,-9.76072,-3.53519,-3.41822,-18.2957
2023-03-15 12:09:13:836,-0.434644,0.5982,-9.71612,-3.55098,-3.37948,-18.2939
2023-03-15 12:09:13:846,-0.408024,0.537955,-9.70125,-3.57044,-3.34171,-18.2881
2023-03-15 12:09:13:856,-0.393203,0.532577,-9.70259,-3.58166,-3.30555,-18.2767
2023-03-15 12:09:13:866,-0.380828,0.542191,-9.67379,-3.60097,-3.27195,-18.2633
2023-03-15 12:09:13:876,-0.35352,0.544177,-9.66646,-3.6217,-3.24187,-18.245
2023-03-15 12:09:13:885,-0.341618,0.561847,-9.67341,-3.65009,-3.21819,-18.2231
2023-03-15 12:09:13:896,-0.374143,0.598435,-9.65767,-3.69013,-3.19597,-18.2035
2023-03-15 12:09:13:906,-0.395581,0.61282,-9.65144,-3.73333,-3.18145,-18.1809
2023-03-15 12:09:13:916,-0.431109,0.626371,-9.68051,-3.78379,-3.16968,-18.1533
2023-03-15 12:09:13:925,-0.467633,0.644551,-9.72193,-3.83633,-3.15848,-18.1247
2023-03-15 12:09:13:935,-0.48482,0.702152,-9.75718,-3.89699,-3.15494,-18.0987
2023-03-15 12:09:13:946,-0.48354,0.754264,-9.76842,-3.95804,-3.14899,-18.073
2023-03-15 12:09:13:956,-0.481119,0.747733,-9.76264,-4.00919,-3.14248,-18.0482
2023-03-15 12:09:13:966,-0.469607,0.697598,-9.7044,-4.05386,-3.13472,-18.0192
2023-03-15 12:09:13:976,-0.459876,0.673601,-9.62648,-4.09841,-3.12833,-17.9861
2023-03-15 12:09:13:986,-0.49297,0.6688,-9.60274,-4.15048,-3.12174,-17.947
2023-03-15 12:09:13:996,-0.528925,0.726355,-9.65264,-4.21595,-3.12401,-17.9088
2023-03-15 12:09:14:6,-0.53728,0.828947,-9.71767,-4.28976,-3.12885,-17.8741
2023-03-15 12:09:14:16,-0.578703,0.896338,-9.77098,-4.36707,-3.14217,-17.8432
2023-03-15 12:09:14:26,-0.609652,0.960471,-9.79062,-4.44482,-3.16136,-17.816
2023-03-15 12:09:14:35,-0.655921,0.96542,-9.79064,-4.51759,-3.18226,-17.7974
2023-03-15 12:09:14:46,-0.677945,0.940413,-9.79881,-4.58338,-3.20525,-17.7795
2023-03-15 12:09:14:56,-0.691079,0.939899,-9.80248,-4.6524,-3.23132,-17.7697
2023-03-15 12:09:14:66,-0.709516,0.937439,-9.82922,-4.7097,-3.25546,-17.7621
2023-03-15 12:09:14:76,-0.734177,0.952622,-9.83375,-4.76226,-3.28001,-17.7561
2023-03-15 12:09:14:86,-0.768243,0.957167,-9.81508,-4.81389,-3.30491,-17.7543
2023-03-15 12:09:14:96,-0.789461,0.990904,-9.7945,-4.85912,-3.32662,-17.7553
2023-03-15 12:09:14:106,-0.761917,1.012,-9.81575,-4.90759,-3.34038,-17.7626
2023-03-15 12:09:14:116,-0.704019,1.03483,-9.86304,-4.94615,-3.34602,-17.7751
2023-03-15 12:09:14:126,-0.628889,1.03562,-9.89394,-4.97715,-3.34656,-17.7897
2023-03-15 12:09:14:135,-0.583728,1.02157,-9.88961,-4.99829,-3.3445,-17.7999
2023-03-15 12:09:14:145,-0.565119,0.956271,-9.85328,-5.0022,-3.33711,-17.8024
2023-03-15 12:09:14:156,-0.543028,0.874669,-9.76082,-4.99728,-3.32584,-17.7995
2023-03-15 12:09:14:166,-0.530831,0.812565,-9.6747,-4.98862,-3.30628,-17.7928
2023-03-15 12:09:14:175,-0.510663,0.811276,-9.63489,-4.9872,-3.28717,-17.7766
2023-03-15 12:09:14:185,-0.49426,0.826286,-9.64471,-4.99074,-3.26167,-17.7567
2023-03-15 12:09:14:195,-0.494259,0.812825,-9.62257,-4.99069,-3.23486,-17.7336
2023-03-15 12:09:14:206,-0.502733,0.761273,-9.54959,-4.9927,-3.20372,-17.7002
2023-03-15 12:09:14:216,-0.520061,0.731458,-9.53717,-5.00403,-3.16753,-17.6585
2023-03-15 12:09:14:226,-0.517078,0.755812,-9.59153,-5.03026,-3.12733,-17.6098
2023-03-15 12:09:14:236,-0.518335,0.821806,-9.65158,-5.06694,-3.08466,-17.563
2023-03-15 12:09:14:246,-0.585377,0.814218,-9.65466,-5.09444,-3.04429,-17.5159
2023-03-15 12:09:14:255,-0.677347,0.803842,-9.59173,-5.12565,-3.00515,-17.4657
2023-03-15 12:09:14:266,-0.75599,0.789001,-9.52615,-5.15823,-2.95931,-17.4238
2023-03-15 12:09:14:276,-0.756877,0.760288,-9.50701,-5.19243,-2.9076,-17.3868
2023-03-15 12:09:14:285,-0.689654,0.756274,-9.51239,-5.24495,-2.84876,-17.3579
2023-03-15 12:09:14:295,-0.617155,0.778185,-9.53322,-5.30093,-2.78528,-17.3347
2023-03-15 12:09:14:305,-0.555896,0.768113,-9.53316,-5.36477,-2.72497,-17.3148
2023-03-15 12:09:14:316,-0.471518,0.71517,-9.5117,-5.42775,-2.66074,-17.2979
2023-03-15 12:09:14:325,-0.417048,0.691419,-9.51735,-5.49877,-2.59601,-17.2749
2023-03-15 12:09:14:335,-0.408572,0.723388,-9.54112,-5.57802,-2.53878,-17.2556
2023-03-15 12:09:14:346,-0.406565,0.77702,-9.56106,-5.66809,-2.48383,-17.2391
2023-03-15 12:09:14:355,-0.389375,0.878065,-9.61027,-5.76134,-2.42848,-17.2258
2023-03-15 12:09:14:366,-0.35535,0.943321,-9.67418,-5.85579,-2.37434,-17.2145
2023-03-15 12:09:14:375,-0.314391,1.00642,-9.71712,-5.95096,-2.32287,-17.2
2023-03-15 12:09:14:385,-0.278449,1.1078,-9.78569,-6.05021,-2.2686,-17.1842
2023-03-15 12:09:14:396,-0.270983,1.16812,-9.83444,-6.15122,-2.22374,-17.169
2023-03-15 12:09:14:406,-0.296837,1.26076,-9.84843,-6.24491,-2.17749,-17.1516
2023-03-15 12:09:14:416,-0.315758,1.3001,-9.85037,-6.33047,-2.13561,-17.1367
2023-03-15 12:09:14:426,-0.336274,1.33347,-9.86672,-6.4112,-2.09988,-17.1205
2023-03-15 12:09:14:436,-0.402075,1.39318,-9.91689,-6.48891,-2.07044,-17.1086
2023-03-15 12:09:14:445,-0.457859,1.47947,-9.98216,-6.56413,-2.05043,-17.1049
2023-03-15 12:09:14:456,-0.50341,1.55714,-10.1064,-6.62816,-2.03025,-17.1076
2023-03-15 12:09:14:466,-0.537093,1.65295,-10.1763,-6.67989,-2.01693,-17.1265
2023-03-15 12:09:14:476,-0.58806,1.69304,-10.183,-6.70118,-2.00562,-17.1561
2023-03-15 12:09:14:485,-0.614619,1.67271,-10.1257,-6.68954,-1.99531,-17.1957
2023-03-15 12:09:14:495,-0.623195,1.58846,-10.0623,-6.65354,-1.97936,-17.2462
2023-03-15 12:09:14:505,-0.577781,1.5078,-10.0132,-6.60054,-1.96017,-17.3039
2023-03-15 12:09:14:515,-0.522431,1.49099,-10.0035,-6.53488,-1.93672,-17.3656
2023-03-15 12:09:14:526,-0.482185,1.47866,-9.91087,-6.45271,-1.91365,-17.4366
2023-03-15 12:09:14:536,-0.467163,1.32875,-9.75576,-6.35418,-1.88772,-17.5096
2023-03-15 12:09:14:545,-0.371414,1.1706,-9.65362,-6.25264,-1.85274,-17.577
2023-03-15 12:09:14:555,-0.192305,1.10991,-9.70542,-6.16669,-1.80865,-17.636
2023-03-15 12:09:14:565,-0.0680873,1.17037,-9.84579,-6.09728,-1.77191,-17.6867
2023-03-15 12:09:14:576,-0.0564103,1.29199,-9.97118,-6.02762,-1.74636,-17.7325
2023-03-15 12:09:14:586,-0.0593267,1.34688,-10.0253,-5.94406,-1.72482,-17.7761
2023-03-15 12:09:14:596,-0.041053,1.28385,-9.94541,-5.83157,-1.70707,-17.8115
2023-03-15 12:09:14:605,-0.038672,1.13506,-9.78002,-5.69815,-1.68378,-17.835
2023-03-15 12:09:14:616,-0.0381908,0.980172,-9.59357,-5.55338,-1.65755,-17.8474
2023-03-15 12:09:14:626,-0.016846,0.828432,-9.48843,-5.41328,-1.63099,-17.8446
2023-03-15 12:09:14:636,-0.0132305,0.711639,-9.4456,-5.28744,-1.60586,-17.829
2023-03-15 12:09:14:646,-0.000650574,0.697865,-9.48526,-5.19142,-1.58296,-17.8047
2023-03-15 12:09:14:656,-0.0476192,0.802004,-9.64922,-5.11696,-1.5734,-17.7717
2023-03-15 12:09:14:666,-0.100234,0.942235,-9.85072,-5.05238,-1.56826,-17.7369
2023-03-15 12:09:14:675,-0.179587,1.03559,-9.96479,-4.97679,-1.57011,-17.7012
2023-03-15 12:09:14:686,-0.25369,1.0191,-9.91638,-4.87784,-1.57398,-17.6666
2023-03-15 12:09:14:695,-0.289447,0.903097,-9.76942,-4.75773,-1.57318,-17.6296
2023-03-15 12:09:14:706,-0.282157,0.755085,-9.648,-4.62953,-1.56596,-17.5885
2023-03-15 12:09:14:716,-0.272848,0.660949,-9.59861,-4.51149,-1.55759,-17.5427
2023-03-15 12:09:14:725,-0.270367,0.639082,-9.58611,-4.40157,-1.54702,-17.4931
2023-03-15 12:09:14:736,-0.252027,0.643455,-9.59266,-4.30112,-1.53166,-17.4424
2023-03-15 12:09:14:746,-0.262679,0.632356,-9.59605,-4.20606,-1.51953,-17.3935
2023-03-15 12:09:14:756,-0.253901,0.635117,-9.59186,-4.11895,-1.50716,-17.3423
2023-03-15 12:09:14:766,-0.261668,0.643385,-9.56959,-4.04305,-1.49898,-17.2915
2023-03-15 12:09:14:776,-0.284153,0.623733,-9.54864,-3.9761,-1.49665,-17.2414
2023-03-15 12:09:14:785,-0.303595,0.572671,-9.55719,-3.92084,-1.50173,-17.192
2023-03-15 12:09:14:795,-0.326704,0.56205,-9.5917,-3.87412,-1.50644,-17.1489
2023-03-15 12:09:14:806,-0.329735,0.577086,-9.60798,-3.83157,-1.50788,-17.1038
2023-03-15 12:09:14:816,-0.31711,0.573924,-9.64337,-3.79426,-1.51116,-17.0679
2023-03-15 12:09:14:826,-0.284552,0.572546,-9.65815,-3.75837,-1.5071,-17.0309
2023-03-15 12:09:14:836,-0.258773,0.568737,-9.64435,-3.72486,-1.50101,-16.9924
2023-03-15 12:09:14:845,-0.238729,0.576428,-9.64599,-3.69715,-1.49324,-16.9566
2023-03-15 12:09:14:855,-0.223037,0.561039,-9.63594,-3.67703,-1.49214,-16.9209
2023-03-15 12:09:14:866,-0.246612,0.538667,-9.63492,-3.66316,-1.4941,-16.8855
2023-03-15 12:09:14:876,-0.266056,0.553767,-9.62985,-3.65518,-1.49636,-16.8519
2023-03-15 12:09:14:886,-0.301698,0.586907,-9.65521,-3.6554,-1.50031,-16.8224
2023-03-15 12:09:14:896,-0.305758,0.613635,-9.69263,-3.66705,-1.50776,-16.7983
2023-03-15 12:09:14:906,-0.269672,0.636913,-9.74239,-3.6809,-1.514,-16.7765
2023-03-15 12:09:14:916,-0.259419,0.662438,-9.79156,-3.69384,-1.51995,-16.759
2023-03-15 12:09:14:926,-0.302622,0.672892,-9.79546,-3.69655,-1.52687,-16.7412
2023-03-15 12:09:14:936,-0.335345,0.642242,-9.74441,-3.6948,-1.53627,-16.7301
2023-03-15 12:09:14:946,-0.30295,0.591193,-9.71308,-3.688,-1.54338,-16.7211
2023-03-15 12:09:14:955,-0.252875,0.552705,-9.70587,-3.68151,-1.55001,-16.7147
2023-03-15 12:09:14:966,-0.233504,0.538903,-9.7301,-3.67263,-1.55811,-16.7078
2023-03-15 12:09:14:976,-0.267714,0.528207,-9.73237,-3.66709,-1.56577,-16.6923
2023-03-15 12:09:14:986,-0.295744,0.514381,-9.69403,-3.65733,-1.57995,-16.6733
2023-03-15 12:09:14:996,-0.304462,0.472318,-9.66945,-3.64742,-1.58749,-16.6535
2023-03-15 12:09:15:6,-0.311408,0.446893,-9.62933,-3.64442,-1.59219,-16.626
2023-03-15 12:09:15:16,-0.327118,0.461328,-9.57576,-3.64621,-1.58944,-16.5971
2023-03-15 12:09:15:26,-0.336218,0.491321,-9.56372,-3.65509,-1.58024,-16.5693
2023-03-15 12:09:15:36,-0.344863,0.542972,-9.60114,-3.67761,-1.56452,-16.542
2023-03-15 12:09:15:45,-0.350444,0.600432,-9.67717,-3.70506,-1.54242,-16.5161
2023-03-15 12:09:15:56,-0.313843,0.670988,-9.78113,-3.73247,-1.52224,-16.4884
2023-03-15 12:09:15:66,-0.262536,0.715333,-9.87603,-3.75707,-1.49867,-16.4684
2023-03-15 12:09:15:75,-0.242501,0.717846,-9.89483,-3.77247,-1.47865,-16.4476
2023-03-15 12:09:15:85,-0.253932,0.688157,-9.85553,-3.77401,-1.46359,-16.4292
2023-03-15 12:09:15:96,-0.309149,0.643349,-9.77885,-3.76576,-1.45569,-16.4129
2023-03-15 12:09:15:106,-0.354391,0.606621,-9.68446,-3.76034,-1.45328,-16.399
2023-03-15 12:09:15:116,-0.38482,0.611107,-9.65178,-3.76657,-1.44971,-16.3892
2023-03-15 12:09:15:126,-0.386796,0.663972,-9.70024,-3.78475,-1.44552,-16.389
2023-03-15 12:09:15:136,-0.388765,0.73277,-9.80095,-3.80691,-1.44246,-16.3934
2023-03-15 12:09:15:146,-0.378039,0.809582,-9.85258,-3.83225,-1.44091,-16.4106
2023-03-15 12:09:15:156,-0.368295,0.842024,-9.88814,-3.85031,-1.43762,-16.4286
2023-03-15 12:09:15:166,-0.362413,0.845484,-9.91719,-3.86341,-1.43682,-16.4511
2023-03-15 12:09:15:176,-0.368834,0.859055,-9.89317,-3.86469,-1.436,-16.4797
2023-03-15 12:09:15:186,-0.372314,0.821639,-9.83922,-3.85794,-1.43492,-16.5157
2023-03-15 12:09:15:195,-0.35688,0.773079,-9.79492,-3.84368,-1.42975,-16.5517
2023-03-15 12:09:15:205,-0.3465,0.751894,-9.76757,-3.82624,-1.41858,-16.5889
2023-03-15 12:09:15:216,-0.297627,0.738826,-9.74966,-3.80747,-1.40725,-16.627
2023-03-15 12:09:15:226,-0.226762,0.71128,-9.76942,-3.7861,-1.39325,-16.6647
2023-03-15 12:09:15:236,-0.16102,0.713197,-9.78529,-3.7634,-1.37808,-16.6976
2023-03-15 12:09:15:246,-0.130646,0.701395,-9.79943,-3.73649,-1.35744,-16.7222
2023-03-15 12:09:15:256,-0.118333,0.679067,-9.79482,-3.70652,-1.343,-16.7478
2023-03-15 12:09:15:265,-0.129105,0.644308,-9.75875,-3.67435,-1.32595,-16.7676
2023-03-15 12:09:15:275,-0.145379,0.607268,-9.70628,-3.6395,-1.30964,-16.7841
2023-03-15 12:09:15:285,-0.122159,0.564846,-9.66817,-3.60785,-1.28938,-16.7937
2023-03-15 12:09:15:295,-0.0888913,0.519741,-9.65547,-3.58381,-1.26984,-16.798
2023-03-15 12:09:15:306,-0.0883515,0.49156,-9.66109,-3.56209,-1.2492,-16.7967
2023-03-15 12:09:15:316,-0.112278,0.488203,-9.66862,-3.54405,-1.23072,-16.7897
2023-03-15 12:09:15:326,-0.123873,0.500195,-9.66134,-3.53342,-1.21208,-16.7824
2023-03-15 12:09:15:336,-0.116963,0.493183,-9.66705,-3.52547,-1.19359,-16.7756
2023-03-15 12:09:15:346,-0.105359,0.500464,-9.67987,-3.52074,-1.17883,-16.7648
2023-03-15 12:09:15:355,-0.144676,0.512485,-9.65761,-3.51654,-1.1647,-16.7529
2023-03-15 12:09:15:366,-0.208938,0.510775,-9.62601,-3.51723,-1.15014,-16.742
2023-03-15 12:09:15:376,-0.240947,0.530935,-9.61945,-3.52543,-1.13798,-16.73
2023-03-15 12:09:15:385,-0.220069,0.548964,-9.64248,-3.53835,-1.12436,-16.7232
2023-03-15 12:09:15:396,-0.192638,0.577041,-9.68349,-3.55758,-1.11103,-16.7173
2023-03-15 12:09:15:406,-0.167111,0.615544,-9.72339,-3.58274,-1.09038,-16.7139
2023-03-15 12:09:15:416,-0.15189,0.635326,-9.74774,-3.60664,-1.07179,-16.7145
2023-03-15 12:09:15:426,-0.153073,0.666323,-9.76185,-3.62768,-1.0524,-16.7144
2023-03-15 12:09:15:436,-0.154828,0.678044,-9.75986,-3.64804,-1.03522,-16.7171
2023-03-15 12:09:15:446,-0.126088,0.671617,-9.77254,-3.66823,-1.01938,-16.7213
2023-03-15 12:09:15:456,-0.121771,0.681916,-9.78944,-3.68995,-1.00351,-16.7256
2023-03-15 12:09:15:466,-0.118613,0.699117,-9.78371,-3.70679,-0.991631,-16.7309
2023-03-15 12:09:15:476,-0.126122,0.704164,-9.78301,-3.72359,-0.983454,-16.7397
2023-03-15 12:09:15:486,-0.121153,0.706527,-9.78332,-3.73879,-0.977587,-16.7501
2023-03-15 12:09:15:495,-0.0804814,0.694267,-9.78553,-3.75283,-0.968881,-16.7601
2023-03-15 12:09:15:505,-0.0655322,0.674334,-9.77147,-3.76342,-0.965364,-16.7728
2023-03-15 12:09:15:516,-0.0644704,0.680906,-9.74189,-3.77124,-0.965317,-16.7834
2023-03-15 12:09:15:526,-0.0604694,0.675242,-9.73833,-3.7829,-0.966496,-16.791
2023-03-15 12:09:15:536,-0.0694051,0.674253,-9.74058,-3.7973,-0.974636,-16.7953
2023-03-15 12:09:15:546,-0.0891609,0.671444,-9.76114,-3.80987,-0.982438,-16.7975
2023-03-15 12:09:15:556,-0.102787,0.671722,-9.76571,-3.82191,-0.987981,-16.7979
2023-03-15 12:09:15:566,-0.129641,0.678262,-9.75799,-3.83355,-0.99497,-16.7976
2023-03-15 12:09:15:575,-0.150284,0.688518,-9.75726,-3.84409,-1.00185,-16.7974
2023-03-15 12:09:15:586,-0.168789,0.693589,-9.74313,-3.85956,-1.00615,-16.7978
2023-03-15 12:09:15:596,-0.178165,0.709429,-9.76803,-3.87422,-1.01176,-16.7974
2023-03-15 12:09:15:606,-0.164818,0.714988,-9.78621,-3.88412,-1.0139,-16.7991
2023-03-15 12:09:15:615,-0.196831,0.698038,-9.75779,-3.88655,-1.0161,-16.7962
2023-03-15 12:09:15:626,-0.2134,0.695383,-9.71638,-3.88374,-1.0139,-16.7958
2023-03-15 12:09:15:636,-0.206455,0.655085,-9.71358,-3.88188,-1.01387,-16.7939
2023-03-15 12:09:15:646,-0.218605,0.643536,-9.71323,-3.88905,-1.01276,-16.7903
2023-03-15 12:09:15:656,-0.231723,0.665774,-9.73909,-3.89614,-1.0134,-16.7874
2023-03-15 12:09:15:666,-0.243669,0.710163,-9.77263,-3.90576,-1.01239,-16.7887
2023-03-15 12:09:15:676,-0.259843,0.732563,-9.7884,-3.91364,-1.01445,-16.7928
2023-03-15 12:09:15:686,-0.257393,0.726636,-9.78839,-3.91956,-1.01237,-16.8038
2023-03-15 12:09:15:695,-0.245267,0.717023,-9.78814,-3.91551,-1.0142,-16.8136
2023-03-15 12:09:15:705,-0.199743,0.690027,-9.78767,-3.91097,-1.00897,-16.8256
2023-03-15 12:09:15:716,-0.187768,0.670266,-9.77301,-3.90706,-1.00402,-16.8354
2023-03-15 12:09:15:726,-0.202202,0.664106,-9.71837,-3.89885,-1.00126,-16.8465
2023-03-15 12:09:15:736,-0.236955,0.648931,-9.67784,-3.89317,-0.996479,-16.859
2023-03-15 12:09:15:746,-0.254535,0.639463,-9.64758,-3.89276,-0.993739,-16.8724
2023-03-15 12:09:15:756,-0.227793,0.626117,-9.65331,-3.89321,-0.986382,-16.8868
2023-03-15 12:09:15:766,-0.170419,0.636551,-9.70688,-3.90114,-0.981753,-16.9108
2023-03-15 12:09:15:775,-0.120548,0.65971,-9.75207,-3.91283,-0.980541,-16.933
2023-03-15 12:09:15:785,-0.0842618,0.680386,-9.7872,-3.92433,-0.98165,-16.9577
2023-03-15 12:09:15:796,-0.0575442,0.696621,-9.80322,-3.93224,-0.985433,-16.9794
2023-03-15 12:09:15:806,-0.0602285,0.689649,-9.7922,-3.93657,-0.991783,-16.996
2023-03-15 12:09:15:816,-0.0755046,0.672083,-9.76193,-3.93763,-1.00307,-17.007
2023-03-15 12:09:15:826,-0.13142,0.636586,-9.74031,-3.93866,-1.01319,-17.0151
2023-03-15 12:09:15:836,-0.18585,0.635876,-9.70514,-3.93994,-1.02643,-17.0226
2023-03-15 12:09:15:846,-0.221238,0.645381,-9.68648,-3.94581,-1.03846,-17.0328
2023-03-15 12:09:15:855,-0.250846,0.650357,-9.68408,-3.95389,-1.04488,-17.0425
2023-03-15 12:09:15:866,-0.232701,0.657671,-9.69299,-3.9672,-1.04656,-17.0494
2023-03-15 12:09:15:875,-0.220205,0.676249,-9.71732,-3.98247,-1.04592,-17.0572
2023-03-15 12:09:15:885,-0.20688,0.701948,-9.76376,-4.00489,-1.04323,-17.0643
2023-03-15 12:09:15:895,-0.199765,0.742225,-9.80153,-4.02478,-1.03715,-17.0722
2023-03-15 12:09:15:905,-0.166844,0.75872,-9.79652,-4.03782,-1.03118,-17.0774
2023-03-15 12:09:15:916,-0.163389,0.740493,-9.76888,-4.04292,-1.0211,-17.0881
2023-03-15 12:09:15:926,-0.170687,0.715361,-9.72127,-4.04461,-1.00923,-17.0954
2023-03-15 12:09:15:936,-0.163455,0.689397,-9.67877,-4.04039,-0.996105,-17.1012
2023-03-15 12:09:15:946,-0.149395,0.668822,-9.67597,-4.04387,-0.98716,-17.106
2023-03-15 12:09:15:955,-0.134781,0.674999,-9.69694,-4.05401,-0.980725,-17.1116
2023-03-15 12:09:15:966,-0.144334,0.706231,-9.72256,-4.06858,-0.971973,-17.1169
2023-03-15 12:09:15:976,-0.156096,0.748617,-9.76606,-4.0879,-0.969226,-17.1277
2023-03-15 12:09:15:986,-0.159314,0.77224,-9.80056,-4.10471,-0.966748,-17.1401
2023-03-15 12:09:15:996,-0.160444,0.760853,-9.81137,-4.11711,-0.968002,-17.1549
2023-03-15 12:09:16:6,-0.168221,0.746116,-9.79839,-4.12478,-0.965875,-17.1716
2023-03-15 12:09:16:15,-0.162874,0.745272,-9.79357,-4.12601,-0.96726,-17.1879
2023-03-15 12:09:16:26,-0.157385,0.739326,-9.78532,-4.1263,-0.963627,-17.2067
2023-03-15 12:09:16:36,-0.134855,0.717098,-9.75866,-4.12421,-0.958703,-17.2223
2023-03-15 12:09:16:45,-0.0904391,0.709399,-9.73993,-4.12124,-0.951009,-17.2347
2023-03-15 12:09:16:55,-0.0752891,0.697104,-9.71382,-4.11884,-0.944604,-17.2435
2023-03-15 12:09:16:65,-0.0907688,0.678039,-9.68046,-4.11771,-0.939403,-17.2507
2023-03-15 12:09:16:75,-0.127973,0.684835,-9.68034,-4.12172,-0.938584,-17.2542
2023-03-15 12:09:16:85,-0.138855,0.722221,-9.70719,-4.13341,-0.932761,-17.259
2023-03-15 12:09:16:95,-0.133451,0.727386,-9.75507,-4.14494,-0.928543,-17.2643
2023-03-15 12:09:16:105,-0.136576,0.755372,-9.77442,-4.15498,-0.926134,-17.2705
2023-03-15 12:09:16:115,-0.141305,0.748375,-9.7775,-4.16091,-0.922584,-17.2768
2023-03-15 12:09:16:125,-0.144504,0.738791,-9.76176,-4.16332,-0.918771,-17.2805
2023-03-15 12:09:16:135,-0.135973,0.723094,-9.71956,-4.16057,-0.913382,-17.2818
2023-03-15 12:09:16:145,-0.129427,0.704426,-9.68716,-4.16468,-0.908266,-17.2877
2023-03-15 12:09:16:155,-0.130705,0.710075,-9.70251,-4.1697,-0.904625,-17.2885
2023-03-15 12:09:16:165,-0.14642,0.73938,-9.72684,-4.18121,-0.901444,-17.2909
2023-03-15 12:09:16:175,-0.15285,0.764053,-9.7602,-4.19766,-0.905983,-17.2954
2023-03-15 12:09:16:185,-0.18387,0.7822,-9.79527,-4.21211,-0.913712,-17.3034
2023-03-15 12:09:16:195,-0.209827,0.786885,-9.8003,-4.2259,-0.922039,-17.315
2023-03-15 12:09:16:205,-0.227721,0.79781,-9.7957,-4.2338,-0.927602,-17.329
2023-03-15 12:09:16:215,-0.200099,0.787448,-9.79966,-4.23656,-0.931475,-17.3438
2023-03-15 12:09:16:225,-0.144964,0.784378,-9.78562,-4.2404,-0.934006,-17.3583
2023-03-15 12:09:16:235,-0.0744719,0.771231,-9.7694,-4.24037,-0.931369,-17.3712
2023-03-15 12:09:16:245,-0.0394061,0.748744,-9.7454,-4.23731,-0.922185,-17.3726
2023-03-15 12:09:16:255,-0.0417651,0.73,-9.74308,-4.23433,-0.917603,-17.3704
2023-03-15 12:09:16:265,-0.0598283,0.731804,-9.72618,-4.23257,-0.915734,-17.3619
2023-03-15 12:09:16:275,-0.106303,0.727618,-9.69517,-4.23309,-0.91537,-17.3519
2023-03-15 12:09:16:285,-0.169538,0.703044,-9.69714,-4.23724,-0.916848,-17.3402
2023-03-15 12:09:16:295,-0.222531,0.703355,-9.69521,-4.24028,-0.921003,-17.3271
2023-03-15 12:09:16:305,-0.251442,0.718717,-9.67641,-4.24824,-0.923386,-17.3213
2023-03-15 12:09:16:315,-0.220214,0.715932,-9.66544,-4.25704,-0.923553,-17.3189
2023-03-15 12:09:16:325,-0.188625,0.741329,-9.67896,-4.27142,-0.918621,-17.3163
2023-03-15 12:09:16:335,-0.149778,0.767886,-9.71066,-4.29009,-0.91171,-17.3162
2023-03-15 12:09:16:345,-0.116426,0.780677,-9.75806,-4.30627,-0.904345,-17.3149
2023-03-15 12:09:16:355,-0.0847249,0.811428,-9.78516,-4.32566,-0.898975,-17.3119
2023-03-15 12:09:16:365,-0.102706,0.836447,-9.80345,-4.34296,-0.89777,-17.3143
2023-03-15 12:09:16:376,-0.128341,0.848958,-9.81209,-4.35513,-0.899184,-17.3152
2023-03-15 12:09:16:385,-0.12996,0.856218,-9.81714,-4.36537,-0.897753,-17.3161
2023-03-15 12:09:16:396,-0.136669,0.844402,-9.81035,-4.37268,-0.896478,-17.3123
2023-03-15 12:09:16:406,-0.145557,0.833634,-9.80274,-4.3736,-0.899239,-17.3099
2023-03-15 12:09:16:415,-0.15235,0.820191,-9.79854,-4.37212,-0.900067,-17.3087
2023-03-15 12:09:16:426,-0.149039,0.801113,-9.76805,-4.36963,-0.900284,-17.3054
2023-03-15 12:09:16:436,-0.162141,0.79886,-9.73674,-4.36512,-0.897106,-17.2971
2023-03-15 12:09:16:446,-0.170899,0.79709,-9.7476,-4.36393,-0.890338,-17.2881
2023-03-15 12:09:16:456,-0.155444,0.817741,-9.77261,-4.36196,-0.881379,-17.2824
2023-03-15 12:09:16:466,-0.151154,0.827123,-9.79396,-4.35479,-0.86919,-17.2764
2023-03-15 12:09:16:475,-0.146123,0.80693,-9.79351,-4.34411,-0.854182,-17.2714
2023-03-15 12:09:16:486,-0.119917,0.783615,-9.77151,-4.33058,-0.844838,-17.2623
2023-03-15 12:09:16:496,-0.143859,0.756954,-9.72511,-4.311,-0.837017,-17.2535
2023-03-15 12:09:16:506,-0.178356,0.696501,-9.67657,-4.29301,-0.829418,-17.2444
2023-03-15 12:09:16:516,-0.173774,0.667135,-9.66922,-4.2792,-0.825114,-17.2351
2023-03-15 12:09:16:526,-0.107423,0.679818,-9.7022,-4.27448,-0.819974,-17.2269
2023-03-15 12:09:16:536,-0.0556435,0.710783,-9.74404,-4.27065,-0.816461,-17.2161
2023-03-15 12:09:16:545,-0.0926264,0.700298,-9.75034,-4.2641,-0.818326,-17.2025
2023-03-15 12:09:16:556,-0.16466,0.697067,-9.73885,-4.25751,-0.826841,-17.1871
2023-03-15 12:09:16:566,-0.208225,0.70814,-9.70413,-4.25118,-0.835268,-17.169
2023-03-15 12:09:16:576,-0.260826,0.693448,-9.67299,-4.24606,-0.847087,-17.1563
2023-03-15 12:09:16:586,-0.291245,0.687778,-9.66826,-4.25058,-0.849784,-17.1479
2023-03-15 12:09:16:596,-0.291711,0.700522,-9.69916,-4.25827,-0.850618,-17.1411
2023-03-15 12:09:16:606,-0.253903,0.758204,-9.75868,-4.27322,-0.849205,-17.1435
2023-03-15 12:09:16:616,-0.17117,0.788196,-9.81391,-4.28755,-0.841589,-17.1451
2023-03-15 12:09:16:626,-0.127972,0.782654,-9.82837,-4.29176,-0.82894,-17.1484
2023-03-15 12:09:16:636,-0.121118,0.775832,-9.8095,-4.29085,-0.820127,-17.1488
2023-03-15 12:09:16:646,-0.110537,0.773723,-9.77194,-4.28631,-0.80612,-17.1434
2023-03-15 12:09:16:656,-0.0894825,0.752997,-9.73691,-4.27957,-0.795572,-17.1391
2023-03-15 12:09:16:666,-0.111928,0.767432,-9.70348,-4.27709,-0.787695,-17.1327
2023-03-15 12:09:16:676,-0.146767,0.771038,-9.69202,-4.27525,-0.781175,-17.1258
2023-03-15 12:09:16:686,-0.171037,0.763618,-9.70609,-4.27385,-0.775313,-17.1194
2023-03-15 12:09:16:696,-0.178032,0.779898,-9.73621,-4.27358,-0.768132,-17.117
2023-03-15 12:09:16:706,-0.187775,0.776089,-9.75199,-4.27207,-0.762063,-17.1149
2023-03-15 12:09:16:715,-0.206989,0.765274,-9.73891,-4.26353,-0.753318,-17.1164
2023-03-15 12:09:16:726,-0.203079,0.743545,-9.7498,-4.25403,-0.747328,-17.1195
2023-03-15 12:09:16:736,-0.172197,0.728712,-9.75143,-4.24487,-0.738503,-17.1265
2023-03-15 12:09:16:745,-0.153981,0.709806,-9.74073,-4.23352,-0.727362,-17.1321
2023-03-15 12:09:16:756,-0.146548,0.709766,-9.74633,-4.22091,-0.721069,-17.1402
2023-03-15 12:09:16:766,-0.130073,0.719267,-9.7627,-4.21211,-0.710692,-17.1521
2023-03-15 12:09:16:775,-0.132342,0.722955,-9.78371,-4.20335,-0.701903,-17.1674
2023-03-15 12:09:16:785,-0.10354,0.719588,-9.79552,-4.19323,-0.692232,-17.1809
2023-03-15 12:09:16:796,-0.0624985,0.710601,-9.77804,-4.17803,-0.684938,-17.1926
2023-03-15 12:09:16:806,-0.0495533,0.686008,-9.7456,-4.16432,-0.684755,-17.2074
2023-03-15 12:09:16:816,-0.0551883,0.674479,-9.71156,-4.15321,-0.682949,-17.2207
2023-03-15 12:09:16:826,-0.055491,0.660222,-9.7097,-4.14588,-0.684467,-17.2329
2023-03-15 12:09:16:835,-0.0641188,0.682622,-9.70533,-4.13498,-0.688401,-17.2458
2023-03-15 12:09:16:846,-0.0820824,0.684556,-9.70752,-4.12873,-0.692015,-17.2574
2023-03-15 12:09:16:856,-0.0848341,0.663332,-9.68438,-4.12333,-0.69948,-17.2702
2023-03-15 12:09:16:866,-0.0812837,0.664968,-9.65894,-4.12122,-0.704618,-17.2785
2023-03-15 12:09:16:876,-0.0385832,0.674823,-9.67356,-4.12406,-0.705429,-17.2848
2023-03-15 12:09:16:886,-0.00299838,0.667668,-9.71869,-4.12683,-0.70646,-17.2886
2023-03-15 12:09:16:896,-0.0196645,0.679568,-9.7546,-4.12617,-0.711875,-17.2923
2023-03-15 12:09:16:905,-0.0746499,0.685304,-9.74595,-4.1258,-0.717836,-17.2937
2023-03-15 12:09:16:916,-0.106727,0.649907,-9.70851,-4.1226,-0.726312,-17.2905
2023-03-15 12:09:16:926,-0.119145,0.635515,-9.6713,-4.1253,-0.734604,-17.2856
2023-03-15 12:09:16:936,-0.160903,0.651136,-9.64985,-4.1317,-0.746828,-17.2851
2023-03-15 12:09:16:946,-0.175176,0.657304,-9.66052,-4.14148,-0.760932,-17.2895
2023-03-15 12:09:16:956,-0.183407,0.676626,-9.6908,-4.15954,-0.771639,-17.2945
2023-03-15 12:09:16:965,-0.172729,0.702248,-9.7166,-4.18192,-0.783775,-17.304
2023-03-15 12:09:16:975,-0.148037,0.722742,-9.7418,-4.20535,-0.794535,-17.3118
2023-03-15 12:09:16:986,-0.133955,0.737111,-9.7615,-4.23142,-0.80201,-17.3233
2023-03-15 12:09:16:996,-0.130995,0.762816,-9.78584,-4.25558,-0.809979,-17.3382
2023-03-15 12:09:17:6,-0.127981,0.775509,-9.81385,-4.27474,-0.818423,-17.3488
2023-03-15 12:09:17:16,-0.113402,0.797717,-9.82466,-4.29344,-0.825488,-17.3615
2023-03-15 12:09:17:26,-0.122169,0.803762,-9.81989,-4.30603,-0.835061,-17.3696
2023-03-15 12:09:17:36,-0.108441,0.794633,-9.79857,-4.31726,-0.844277,-17.3781
2023-03-15 12:09:17:46,-0.0976384,0.790891,-9.76555,-4.32037,-0.847934,-17.3842
2023-03-15 12:09:17:56,-0.0990938,0.774119,-9.73665,-4.32162,-0.849415,-17.3864
2023-03-15 12:09:17:66,-0.0956027,0.763511,-9.72973,-4.32881,-0.847237,-17.3877
2023-03-15 12:09:17:76,-0.11076,0.774508,-9.74764,-4.33024,-0.843092,-17.389
2023-03-15 12:09:17:86,-0.103361,0.778134,-9.76632,-4.33897,-0.844103,-17.3868
2023-03-15 12:09:17:96,-0.101806,0.787437,-9.76614,-4.34409,-0.839854,-17.3795
2023-03-15 12:09:17:106,-0.10073,0.783515,-9.76548,-4.3454,-0.834451,-17.3685
2023-03-15 12:09:17:116,-0.107834,0.775821,-9.76391,-4.34269,-0.830016,-17.3614
2023-03-15 12:09:17:126,-0.109124,0.769291,-9.75899,-4.34055,-0.825976,-17.3533
2023-03-15 12:09:17:135,-0.105184,0.775184,-9.75403,-4.3328,-0.822481,-17.345
2023-03-15 12:09:17:146,-0.105406,0.758252,-9.76652,-4.32627,-0.81603,-17.3353
2023-03-15 12:09:17:156,-0.105387,0.756017,-9.75426,-4.32474,-0.813555,-17.3245
2023-03-15 12:09:17:166,-0.0914994,0.752688,-9.76031,-4.32372,-0.807817,-17.3112
2023-03-15 12:09:17:176,-0.0854093,0.752019,-9.76451,-4.31901,-0.805749,-17.3031
2023-03-15 12:09:17:186,-0.083762,0.744766,-9.74396,-4.31408,-0.805598,-17.2923
2023-03-15 12:09:17:196,-0.0914569,0.749083,-9.71387,-4.3091,-0.807191,-17.2867
2023-03-15 12:09:17:206,-0.0987426,0.737411,-9.71998,-4.30789,-0.809706,-17.2782
2023-03-15 12:09:17:216,-0.114055,0.749307,-9.72484,-4.30416,-0.813837,-17.2706
2023-03-15 12:09:17:225,-0.105347,0.747316,-9.72404,-4.30535,-0.821235,-17.2611
2023-03-15 12:09:17:236,-0.105025,0.753291,-9.72902,-4.30505,-0.825794,-17.2541
2023-03-15 12:09:17:245,-0.129219,0.753134,-9.73818,-4.30051,-0.832357,-17.2443
2023-03-15 12:09:17:256,-0.133813,0.74183,-9.71625,-4.29712,-0.835163,-17.2335
2023-03-15 12:09:17:266,-0.134272,0.746604,-9.72089,-4.29838,-0.839247,-17.2227
2023-03-15 12:09:17:276,-0.132751,0.734092,-9.72199,-4.29806,-0.841463,-17.2098
2023-03-15 12:09:17:285,-0.138989,0.719779,-9.69669,-4.29924,-0.843215,-17.1956
2023-03-15 12:09:17:295,-0.159266,0.730897,-9.68785,-4.30233,-0.842463,-17.1793
2023-03-15 12:09:17:306,-0.146816,0.748945,-9.71882,-4.30713,-0.842287,-17.1665
2023-03-15 12:09:17:316,-0.149801,0.753608,-9.73757,-4.31304,-0.842967,-17.1529
2023-03-15 12:09:17:325,-0.16677,0.767465,-9.75848,-4.32036,-0.845707,-17.1391
2023-03-15 12:09:17:335,-0.200102,0.772266,-9.73721,-4.32594,-0.847602,-17.1262
2023-03-15 12:09:17:346,-0.237034,0.776911,-9.72493,-4.33148,-0.848503,-17.1163
2023-03-15 12:09:17:355,-0.233642,0.767326,-9.72045,-4.33627,-0.847236,-17.1128
2023-03-15 12:09:17:365,-0.195013,0.749855,-9.75379,-4.33956,-0.845675,-17.1104
2023-03-15 12:09:17:375,-0.15852,0.752169,-9.798,-4.34516,-0.838936,-17.1082
2023-03-15 12:09:17:385,-0.120395,0.770014,-9.8045,-4.34921,-0.833852,-17.109
2023-03-15 12:09:17:395,-0.0953147,0.755985,-9.78554,-4.34801,-0.832633,-17.1069
2023-03-15 12:09:17:406,-0.0972158,0.750372,-9.76423,-4.34323,-0.836026,-17.1048
2023-03-15 12:09:17:416,-0.130828,0.74119,-9.72747,-4.33866,-0.839526,-17.1017
2023-03-15 12:09:17:425,-0.151792,0.736456,-9.71644,-4.33843,-0.845634,-17.1001
2023-03-15 12:09:17:435,-0.187723,0.750812,-9.72401,-4.34233,-0.851795,-17.1
2023-03-15 12:09:17:445,-0.169551,0.772898,-9.76042,-4.34724,-0.859063,-17.1037
2023-03-15 12:09:17:455,-0.146317,0.790562,-9.77983,-4.35394,-0.860378,-17.11
2023-03-15 12:09:17:465,-0.129363,0.805315,-9.78032,-4.35786,-0.865647,-17.1146
2023-03-15 12:09:17:475,-0.138927,0.793951,-9.75631,-4.35751,-0.871342,-17.1225
2023-03-15 12:09:17:485,-0.161321,0.763501,-9.73214,-4.35299,-0.876735,-17.1259
2023-03-15 12:09:17:495,-0.189814,0.749929,-9.69242,-4.35083,-0.879821,-17.1325
2023-03-15 12:09:17:505,-0.172696,0.740169,-9.6798,-4.34902,-0.881635,-17.1411
2023-03-15 12:09:17:515,-0.136236,0.760056,-9.69189,-4.35041,-0.883671,-17.1454
2023-03-15 12:09:17:525,-0.138271,0.770235,-9.70888,-4.35544,-0.883734,-17.1533
2023-03-15 12:09:17:535,-0.126432,0.760488,-9.7259,-4.35726,-0.88714,-17.1595
2023-03-15 12:09:17:545,-0.116018,0.762877,-9.7188,-4.36205,-0.887931,-17.1601
2023-03-15 12:09:17:556,-0.121894,0.754235,-9.72681,-4.36747,-0.888341,-17.1628
2023-03-15 12:09:17:565,-0.151979,0.769296,-9.73592,-4.37227,-0.893474,-17.1647
2023-03-15 12:09:17:575,-0.178478,0.786255,-9.76088,-4.3794,-0.8957,-17.1703
2023-03-15 12:09:17:585,-0.164027,0.805347,-9.76998,-4.38574,-0.900087,-17.1735
2023-03-15 12:09:17:595,-0.175915,0.795037,-9.76502,-4.38959,-0.907121,-17.1814
2023-03-15 12:09:17:605,-0.17843,0.767677,-9.74692,-4.39043,-0.907336,-17.1861
2023-03-15 12:09:17:615,-0.203727,0.739801,-9.73223,-4.38547,-0.90694,-17.1905
2023-03-15 12:09:17:625,-0.213237,0.71969,-9.73008,-4.38799,-0.904574,-17.1969
2023-03-15 12:09:17:635,-0.197875,0.731631,-9.74182,-4.39005,-0.897787,-17.2032
2023-03-15 12:09:17:645,-0.152678,0.744636,-9.74293,-4.39484,-0.896729,-17.2132
2023-03-15 12:09:17:655,-0.10984,0.763253,-9.76286,-4.40018,-0.893137,-17.2247
2023-03-15 12:09:17:665,-0.112637,0.767468,-9.76797,-4.40318,-0.89452,-17.2345
2023-03-15 12:09:17:675,-0.135426,0.764605,-9.74207,-4.40628,-0.897245,-17.2438
2023-03-15 12:09:17:685,-0.158004,0.763419,-9.71805,-4.40468,-0.898074,-17.2524
2023-03-15 12:09:17:695,-0.184809,0.753863,-9.72884,-4.40653,-0.900527,-17.2643
2023-03-15 12:09:17:705,-0.172926,0.755221,-9.72029,-4.40788,-0.900656,-17.2777
2023-03-15 12:09:17:715,-0.151414,0.751729,-9.71749,-4.40996,-0.900673,-17.2941
2023-03-15 12:09:17:725,-0.11802,0.744333,-9.72097,-4.4095,-0.896268,-17.3076
2023-03-15 12:09:17:735,-0.0976989,0.726566,-9.72954,-4.40949,-0.892443,-17.3156
2023-03-15 12:09:17:745,-0.0979454,0.728082,-9.74001,-4.40719,-0.88953,-17.3215
2023-03-15 12:09:17:755,-0.104855,0.724305,-9.72028,-4.40807,-0.890497,-17.3262
2023-03-15 12:09:17:765,-0.112207,0.726371,-9.72241,-4.40839,-0.891496,-17.3318
2023-03-15 12:09:17:775,-0.119408,0.727693,-9.73808,-4.40976,-0.894535,-17.3381
2023-03-15 12:09:17:785,-0.124998,0.734094,-9.7495,-4.41379,-0.89351,-17.3425
2023-03-15 12:09:17:795,-0.113167,0.737422,-9.74501,-4.41812,-0.889238,-17.3476
2023-03-15 12:09:17:805,-0.109183,0.730439,-9.75646,-4.41863,-0.887666,-17.3531
2023-03-15 12:09:17:815,-0.0973331,0.726198,-9.74553,-4.4206,-0.886311,-17.357
2023-03-15 12:09:17:825,-0.106997,0.728776,-9.7335,-4.4203,-0.887149,-17.3592
2023-03-15 12:09:17:835,-0.104462,0.726155,-9.71907,-4.42203,-0.889849,-17.3619
2023-03-15 12:09:17:845,-0.0926844,0.724344,-9.71594,-4.42786,-0.890923,-17.3628
2023-03-15 12:09:17:855,-0.0859903,0.737665,-9.72485,-4.43628,-0.891475,-17.3648
2023-03-15 12:09:17:865,-0.0990753,0.756723,-9.72708,-4.44593,-0.892229,-17.3655
2023-03-15 12:09:17:875,-0.107726,0.760062,-9.74072,-4.45669,-0.899246,-17.3655
2023-03-15 12:09:17:885,-0.118481,0.768876,-9.74114,-4.46973,-0.904588,-17.3611
2023-03-15 12:09:17:895,-0.144031,0.779539,-9.73962,-4.48109,-0.912796,-17.3631
2023-03-15 12:09:17:905,-0.152573,0.784751,-9.73818,-4.49116,-0.922817,-17.3577
2023-03-15 12:09:17:915,-0.155899,0.789492,-9.72633,-4.50106,-0.927784,-17.3576
2023-03-15 12:09:17:926,-0.158547,0.800145,-9.72757,-4.51111,-0.930497,-17.3561
2023-03-15 12:09:17:935,-0.164945,0.799115,-9.74616,-4.52367,-0.932128,-17.3571
2023-03-15 12:09:17:945,-0.172159,0.825031,-9.76447,-4.53245,-0.934189,-17.3583
2023-03-15 12:09:17:956,-0.164707,0.847339,-9.79348,-4.54101,-0.938128,-17.3633
2023-03-15 12:09:17:966,-0.173438,0.865746,-9.81685,-4.54612,-0.944428,-17.3747
2023-03-15 12:09:17:976,-0.194459,0.875307,-9.82333,-4.54748,-0.958013,-17.3877
2023-03-15 12:09:17:986,-0.189826,0.854393,-9.80193,-4.54871,-0.978997,-17.4093
2023-03-15 12:09:17:996,-0.181778,0.83682,-9.78359,-4.54808,-1.00386,-17.4403
2023-03-15 12:09:18:5,-0.167342,0.818001,-9.76141,-4.5419,-1.03216,-17.4698
2023-03-15 12:09:18:16,-0.172786,0.812633,-9.73973,-4.53656,-1.06408,-17.5042
2023-03-15 12:09:18:26,-0.19728,0.790075,-9.72152,-4.53431,-1.09695,-17.5376
2023-03-15 12:09:18:36,-0.186995,0.782804,-9.71833,-4.53309,-1.12431,-17.5726
2023-03-15 12:09:18:46,-0.145159,0.776377,-9.73302,-4.53155,-1.15144,-17.6037
2023-03-15 12:09:18:56,-0.14212,0.77467,-9.73646,-4.53387,-1.17848,-17.6346
2023-03-15 12:09:18:66,-0.163847,0.783604,-9.73043,-4.53372,-1.20324,-17.664
2023-03-15 12:09:18:76,-0.178843,0.78672,-9.72144,-4.53035,-1.22491,-17.6887
2023-03-15 12:09:18:86,-0.178694,0.781293,-9.71744,-4.52639,-1.24218,-17.7101
2023-03-15 12:09:18:96,-0.172912,0.762816,-9.72341,-4.5226,-1.25852,-17.7242
2023-03-15 12:09:18:106,-0.187564,0.750864,-9.70227,-4.51581,-1.26805,-17.7336
2023-03-15 12:09:18:116,-0.187523,0.741554,-9.68274,-4.51467,-1.27312,-17.7381
2023-03-15 12:09:18:126,-0.187644,0.745151,-9.6744,-4.51236,-1.27535,-17.7408
2023-03-15 12:09:18:136,-0.190935,0.743456,-9.67477,-4.51248,-1.27549,-17.7396
2023-03-15 12:09:18:146,-0.197612,0.735141,-9.69267,-4.51395,-1.27271,-17.7391
2023-03-15 12:09:18:156,-0.209327,0.748959,-9.68855,-4.5205,-1.27006,-17.7341
2023-03-15 12:09:18:165,-0.226535,0.763792,-9.69754,-4.52524,-1.26745,-17.7327
2023-03-15 12:09:18:176,-0.241627,0.770261,-9.71048,-4.53438,-1.26985,-17.7327
2023-03-15 12:09:18:186,-0.265069,0.787473,-9.71154,-4.5467,-1.27145,-17.7352
2023-03-15 12:09:18:196,-0.280895,0.804753,-9.71633,-4.5584,-1.27543,-17.7398
2023-03-15 12:09:18:206,-0.277627,0.798177,-9.72615,-4.57472,-1.27797,-17.7513
2023-03-15 12:09:18:216,-0.257365,0.785922,-9.72655,-4.59171,-1.28135,-17.763
2023-03-15 12:09:18:226,-0.233341,0.802369,-9.73694,-4.60917,-1.28817,-17.778
2023-03-15 12:09:18:235,-0.233626,0.82289,-9.73656,-4.62568,-1.29076,-17.7972
2023-03-15 12:09:18:245,-0.22142,0.806095,-9.74293,-4.63965,-1.29454,-17.8182
2023-03-15 12:09:18:255,-0.181883,0.807203,-9.75746,-4.65351,-1.30024,-17.8351
2023-03-15 12:09:18:265,-0.183514,0.807663,-9.75981,-4.66322,-1.30722,-17.8476
2023-03-15 12:09:18:276,-0.205449,0.815586,-9.74963,-4.67514,-1.31638,-17.8579
2023-03-15 12:09:18:285,-0.251809,0.814401,-9.71441,-4.68389,-1.32152,-17.8725
2023-03-15 12:09:18:296,-0.240293,0.808377,-9.70566,-4.6942,-1.32373,-17.8833
2023-03-15 12:09:18:306,-0.19009,0.806784,-9.73823,-4.70433,-1.31612,-17.8948
2023-03-15 12:09:18:315,-0.145156,0.82105,-9.77302,-4.71611,-1.31024,-17.9062
2023-03-15 12:09:18:326,-0.0982558,0.837037,-9.8015,-4.7271,-1.30612,-17.9134
2023-03-15 12:09:18:336,-0.0556293,0.837366,-9.82337,-4.73009,-1.30241,-17.9172
2023-03-15 12:09:18:346,-0.0823631,0.831045,-9.79985,-4.72732,-1.30475,-17.9171
2023-03-15 12:09:18:356,-0.14608,0.822547,-9.74469,-4.72247,-1.31338,-17.916
2023-03-15 12:09:18:366,-0.209316,0.795494,-9.70405,-4.72273,-1.32292,-17.9118
2023-03-15 12:09:18:375,-0.244035,0.799052,-9.70849,-4.72692,-1.33237,-17.9143
2023-03-15 12:09:18:386,-0.234787,0.826309,-9.74021,-4.73516,-1.34142,-17.9187
2023-03-15 12:09:18:396,-0.197859,0.855602,-9.76915,-4.73986,-1.34698,-17.9219
2023-03-15 12:09:18:406,-0.168482,0.858136,-9.77474,-4.74847,-1.3522,-17.9217
2023-03-15 12:09:18:416,-0.17515,0.860966,-9.77169,-4.75293,-1.35464,-17.9237
2023-03-15 12:09:18:426,-0.204593,0.863705,-9.74745,-4.75563,-1.36448,-17.9216
2023-03-15 12:09:18:436,-0.244086,0.868215,-9.72215,-4.75695,-1.36807,-17.9261
2023-03-15 12:09:18:446,-0.26698,0.865089,-9.71086,-4.7577,-1.37491,-17.9268
2023-03-15 12:09:18:455,-0.269495,0.867164,-9.70119,-4.75968,-1.37908,-17.9328
2023-03-15 12:09:18:465,-0.262271,0.861014,-9.70836,-4.76472,-1.37944,-17.939
2023-03-15 12:09:18:475,-0.230208,0.86567,-9.73007,-4.7695,-1.37832,-17.9421
2023-03-15 12:09:18:486,-0.206535,0.880461,-9.75766,-4.77671,-1.38048,-17.9496
2023-03-15 12:09:18:496,-0.20476,0.885072,-9.77385,-4.77949,-1.3826,-17.9581
2023-03-15 12:09:18:506,-0.23348,0.890853,-9.77057,-4.78005,-1.38395,-17.9671
2023-03-15 12:09:18:516,-0.256433,0.870485,-9.77039,-4.7806,-1.39678,-17.9784
2023-03-15 12:09:18:525,-0.256747,0.876635,-9.75266,-4.77782,-1.40541,-17.9901
2023-03-15 12:09:18:535,-0.261254,0.874446,-9.75479,-4.77539,-1.41093,-18.0019
2023-03-15 12:09:18:545,-0.259931,0.847504,-9.75158,-4.77465,-1.41752,-18.0162
2023-03-15 12:09:18:555,-0.259414,0.822126,-9.73606,-4.76843,-1.42685,-18.0319
2023-03-15 12:09:18:565,-0.267607,0.829162,-9.71759,-4.76307,-1.42569,-18.0494
2023-03-15 12:09:18:575,-0.25814,0.846234,-9.73847,-4.76162,-1.43022,-18.0694
2023-03-15 12:09:18:585,-0.240172,0.844735,-9.75716,-4.7557,-1.42951,-18.0876
2023-03-15 12:09:18:595,-0.205215,0.830681,-9.76274,-4.74397,-1.42781,-18.1045
2023-03-15 12:09:18:606,-0.168011,0.830431,-9.75589,-4.73657,-1.4305,-18.1232
2023-03-15 12:09:18:616,-0.159593,0.824766,-9.75279,-4.7228,-1.43735,-18.1396
2023-03-15 12:09:18:626,-0.185898,0.813164,-9.70741,-4.71062,-1.44525,-18.1536
2023-03-15 12:09:18:636,-0.219956,0.794316,-9.69601,-4.69574,-1.45249,-18.1652
2023-03-15 12:09:18:646,-0.228139,0.78433,-9.6906,-4.68493,-1.46079,-18.1768
2023-03-15 12:09:18:656,-0.209783,0.787825,-9.70623,-4.68261,-1.46484,-18.1842
2023-03-15 12:09:18:666,-0.193626,0.790473,-9.728,-4.67345,-1.46159,-18.1906
2023-03-15 12:09:18:676,-0.206517,0.789706,-9.74247,-4.66534,-1.46081,-18.1924
2023-03-15 12:09:18:686,-0.20494,0.800319,-9.75999,-4.65853,-1.46037,-18.1952
2023-03-15 12:09:18:696,-0.205246,0.805257,-9.76415,-4.65081,-1.45908,-18.1977
2023-03-15 12:09:18:706,-0.200842,0.812827,-9.75985,-4.63799,-1.45784,-18.1993
2023-03-15 12:09:18:716,-0.21872,0.799161,-9.75342,-4.63132,-1.45672,-18.1987
2023-03-15 12:09:18:726,-0.237466,0.786334,-9.73214,-4.61997,-1.4566,-18.2001
2023-03-15 12:09:18:736,-0.231347,0.774008,-9.71916,-4.60659,-1.46383,-18.2052
2023-03-15 12:09:18:746,-0.219096,0.770897,-9.70791,-4.5991,-1.47293,-18.2103
2023-03-15 12:09:18:756,-0.221604,0.779505,-9.71353,-4.59656,-1.48041,-18.2193
2023-03-15 12:09:18:766,-0.222537,0.789536,-9.7333,-4.59499,-1.48851,-18.2269
2023-03-15 12:09:18:776,-0.202159,0.807479,-9.73578,-4.59623,-1.50227,-18.2357
2023-03-15 12:09:18:785,-0.20962,0.792892,-9.7349,-4.59609,-1.51579,-18.2461
2023-03-15 12:09:18:796,-0.217713,0.78066,-9.73078,-4.59556,-1.53342,-18.2547
2023-03-15 12:09:18:805,-0.249339,0.7816,-9.7217,-4.59485,-1.54814,-18.2612
2023-03-15 12:09:18:815,-0.241935,0.784432,-9.72884,-4.59508,-1.56041,-18.2718
2023-03-15 12:09:18:826,-0.270865,0.806545,-9.72874,-4.59594,-1.57438,-18.2803
2023-03-15 12:09:18:836,-0.296318,0.806326,-9.73488,-4.59478,-1.58868,-18.2891
2023-03-15 12:09:18:846,-0.315909,0.814102,-9.73422,-4.59408,-1.60706,-18.3008
2023-03-15 12:09:18:856,-0.300341,0.834069,-9.74447,-4.59217,-1.62027,-18.3111
2023-03-15 12:09:18:866,-0.297854,0.845185,-9.76858,-4.58834,-1.62986,-18.3206
2023-03-15 12:09:18:876,-0.289155,0.847057,-9.77598,-4.58366,-1.63963,-18.3326
2023-03-15 12:09:18:886,-0.273775,0.844817,-9.78587,-4.57601,-1.65105,-18.3462
2023-03-15 12:09:18:896,-0.2633,0.860649,-9.79233,-4.56792,-1.66254,-18.3623
2023-03-15 12:09:18:906,-0.267132,0.882376,-9.79135,-4.55655,-1.67769,-18.3799
2023-03-15 12:09:18:916,-0.27921,0.871944,-9.80212,-4.54367,-1.69048,-18.3999
2023-03-15 12:09:18:926,-0.271727,0.874131,-9.80034,-4.52947,-1.70664,-18.4236
2023-03-15 12:09:18:936,-0.26439,0.870679,-9.82191,-4.51223,-1.72526,-18.4465
2023-03-15 12:09:18:946,-0.246986,0.888444,-9.84725,-4.49208,-1.74404,-18.4693
2023-03-15 12:09:18:956,-0.249214,0.917995,-9.86239,-4.46845,-1.76515,-18.4955
2023-03-15 12:09:18:965,-0.26748,0.918388,-9.85189,-4.43711,-1.7855,-18.519
2023-03-15 12:09:18:975,-0.281664,0.887702,-9.83804,-4.39535,-1.80919,-18.5451
2023-03-15 12:09:18:985,-0.304512,0.858815,-9.7987,-4.34854,-1.83316,-18.5703
2023-03-15 12:09:18:995,-0.31225,0.818959,-9.76831,-4.301,-1.85629,-18.5941
2023-03-15 12:09:19:6,-0.303427,0.793367,-9.76041,-4.25323,-1.87748,-18.6238
2023-03-15 12:09:19:16,-0.302827,0.778495,-9.73494,-4.20696,-1.90265,-18.6491
2023-03-15 12:09:19:26,-0.303214,0.746085,-9.71757,-4.16084,-1.92273,-18.6718
2023-03-15 12:09:19:36,-0.267045,0.708817,-9.70736,-4.11273,-1.94366,-18.6937
2023-03-15 12:09:19:46,-0.204693,0.665222,-9.70885,-4.06799,-1.96297,-18.7102
2023-03-15 12:09:19:56,-0.168507,0.622159,-9.69222,-4.02169,-1.9793,-18.7125
2023-03-15 12:09:19:66,-0.223228,0.577599,-9.62479,-3.97621,-2.0004,-18.71
2023-03-15 12:09:19:76,-0.334819,0.530834,-9.54898,-3.93043,-2.01744,-18.7081
2023-03-15 12:09:19:86,-0.38917,0.483335,-9.48868,-3.8961,-2.0359,-18.7054
2023-03-15 12:09:19:96,-0.349463,0.442685,-9.46041,-3.87585,-2.04752,-18.7
2023-03-15 12:09:19:106,-0.317724,0.444282,-9.46342,-3.86881,-2.0536,-18.6953
2023-03-15 12:09:19:116,-0.291704,0.469398,-9.51301,-3.88138,-2.05745,-18.6866
2023-03-15 12:09:19:126,-0.24633,0.544033,-9.58933,-3.90917,-2.06081,-18.6842
2023-03-15 12:09:19:136,-0.216948,0.65138,-9.71458,-3.94648,-2.07399,-18.6798
2023-03-15 12:09:19:146,-0.253232,0.748517,-9.83098,-3.98728,-2.09471,-18.6812
2023-03-15 12:09:19:156,-0.308905,0.799758,-9.87732,-4.02098,-2.12066,-18.6859
2023-03-15 12:09:19:166,-0.359991,0.821342,-9.8825,-4.04085,-2.14947,-18.6912
2023-03-15 12:09:19:176,-0.380975,0.830535,-9.86366,-4.05592,-2.17499,-18.702
2023-03-15 12:09:19:186,-0.388512,0.81259,-9.82081,-4.06678,-2.20256,-18.714
2023-03-15 12:09:19:196,-0.382546,0.789949,-9.7835,-4.07407,-2.22575,-18.726
2023-03-15 12:09:19:206,-0.402241,0.787141,-9.77258,-4.07654,-2.2494,-18.7385
2023-03-15 12:09:19:216,-0.406037,0.786303,-9.78714,-4.08099,-2.27071,-18.7519
2023-03-15 12:09:19:226,-0.405259,0.821308,-9.81572,-4.08203,-2.29615,-18.7706
2023-03-15 12:09:19:236,-0.417086,0.857756,-9.83981,-4.07988,-2.32393,-18.791
2023-03-15 12:09:19:246,-0.45768,0.866627,-9.85176,-4.0803,-2.35488,-18.8176
2023-03-15 12:09:19:256,-0.504405,0.894212,-9.83802,-4.07861,-2.39123,-18.8555
2023-03-15 12:09:19:266,-0.569328,0.906741,-9.82027,-4.07405,-2.43197,-18.9013
2023-03-15 12:09:19:276,-0.62817,0.909986,-9.8127,-4.06418,-2.4788,-18.9604
2023-03-15 12:09:19:286,-0.658034,0.952195,-9.85739,-4.05755,-2.52865,-19.0383
2023-03-15 12:09:19:296,-0.693275,1.0232,-9.9193,-4.04726,-2.5767,-19.1345
2023-03-15 12:09:19:306,-0.746843,1.10436,-9.97572,-4.0338,-2.63511,-19.2557
2023-03-15 12:09:19:316,-0.798584,1.20374,-10.0916,-4.01898,-2.70601,-19.4021
2023-03-15 12:09:19:326,-0.841797,1.3644,-10.2223,-3.99277,-2.78431,-19.5791
2023-03-15 12:09:19:336,-0.933828,1.46029,-10.3408,-3.94471,-2.87197,-19.7874
2023-03-15 12:09:19:345,-1.0091,1.51599,-10.3701,-3.86181,-2.96947,-20.0289
2023-03-15 12:09:19:355,-1.05175,1.49241,-10.3372,-3.74869,-3.06924,-20.3058
2023-03-15 12:09:19:365,-1.07057,1.42822,-10.2505,-3.59859,-3.17501,-20.6153
2023-03-15 12:09:19:376,-1.07536,1.3385,-10.1576,-3.42649,-3.27693,-20.9534
2023-03-15 12:09:19:386,-1.0596,1.28658,-10.1246,-3.23663,-3.37673,-21.32
2023-03-15 12:09:19:396,-1.02491,1.28522,-10.1777,-3.03328,-3.48094,-21.7114
2023-03-15 12:09:19:406,-0.950903,1.28459,-10.2521,-2.80569,-3.58405,-22.1304
2023-03-15 12:09:19:416,-0.902904,1.23902,-10.2384,-2.55285,-3.68197,-22.5664
2023-03-15 12:09:19:426,-0.869596,1.12311,-10.1159,-2.26328,-3.77621,-23.0146
2023-03-15 12:09:19:436,-0.780943,0.933914,-9.92297,-1.94581,-3.86091,-23.4703
2023-03-15 12:09:19:446,-0.673991,0.723719,-9.73053,-1.60966,-3.93743,-23.9271
2023-03-15 12:09:19:456,-0.587831,0.536525,-9.60081,-1.27332,-4.00721,-24.3797
2023-03-15 12:09:19:466,-0.561115,0.390554,-9.54809,-0.951262,-4.07736,-24.8203
2023-03-15 12:09:19:475,-0.560011,0.320585,-9.55603,-0.645928,-4.14283,-25.2607
2023-03-15 12:09:19:486,-0.544112,0.291764,-9.58324,-0.353066,-4.20291,-25.6927
2023-03-15 12:09:19:496,-0.497605,0.249257,-9.64957,-0.0757975,-4.25938,-26.1205
2023-03-15 12:09:19:506,-0.444048,0.210047,-9.70544,0.194707,-4.30996,-26.5412
2023-03-15 12:09:19:516,-0.418815,0.154285,-9.72303,0.467693,-4.36006,-26.9488
2023-03-15 12:09:19:526,-0.400201,0.0565698,-9.69174,0.738237,-4.40748,-27.3368
2023-03-15 12:09:19:536,-0.366817,-0.0372099,-9.62871,1.00591,-4.45086,-27.7075
2023-03-15 12:09:19:546,-0.344591,-0.14147,-9.62453,1.26855,-4.48399,-28.0579
2023-03-15 12:09:19:556,-0.341657,-0.206926,-9.60914,1.51915,-4.51201,-28.3865
2023-03-15 12:09:19:566,-0.319163,-0.270232,-9.60167,1.75692,-4.53127,-28.6901
2023-03-15 12:09:19:576,-0.291608,-0.305279,-9.63584,1.98419,-4.54814,-28.9765
2023-03-15 12:09:19:586,-0.265098,-0.325938,-9.63439,2.20738,-4.56349,-29.2417
2023-03-15 12:09:19:596,-0.261041,-0.376806,-9.62956,2.42325,-4.57309,-29.481
2023-03-15 12:09:19:606,-0.228678,-0.448713,-9.62027,2.63996,-4.57803,-29.6994
2023-03-15 12:09:19:616,-0.190868,-0.53194,-9.60272,2.85177,-4.57798,-29.8893
2023-03-15 12:09:19:625,-0.156543,-0.595095,-9.58198,3.05944,-4.57538,-30.0536
2023-03-15 12:09:19:636,-0.158929,-0.698391,-9.54533,3.26098,-4.57745,-30.1914
2023-03-15 12:09:19:646,-0.188974,-0.783885,-9.51634,3.45554,-4.58135,-30.2997
2023-03-15 12:09:19:656,-0.223918,-0.829657,-9.47249,3.64137,-4.58102,-30.3874
2023-03-15 12:09:19:666,-0.254467,-0.938639,-9.45378,3.81983,-4.57856,-30.4517
2023-03-15 12:09:19:676,-0.287429,-1.00592,-9.44343,3.98661,-4.57456,-30.4972
2023-03-15 12:09:19:686,-0.318592,-1.0647,-9.43357,4.14743,-4.56909,-30.5274
2023-03-15 12:09:19:696,-0.333957,-1.14804,-9.44953,4.30026,-4.56622,-30.5465
2023-03-15 12:09:19:706,-0.325923,-1.22365,-9.4606,4.45053,-4.55309,-30.5575
2023-03-15 12:09:19:716,-0.319102,-1.32007,-9.46846,4.59258,-4.54426,-30.5507
2023-03-15 12:09:19:726,-0.357505,-1.35997,-9.46333,4.7184,-4.53795,-30.5386
2023-03-15 12:09:19:736,-0.397502,-1.43003,-9.44933,4.84483,-4.53005,-30.5224
2023-03-15 12:09:19:746,-0.439866,-1.50319,-9.43188,4.95988,-4.5209,-30.4969
2023-03-15 12:09:19:755,-0.476105,-1.52432,-9.446,5.06603,-4.50864,-30.4719
2023-03-15 12:09:19:765,-0.516998,-1.50148,-9.46493,5.16893,-4.48912,-30.4493
2023-03-15 12:09:19:776,-0.559932,-1.50381,-9.44296,5.27345,-4.46802,-30.437
2023-03-15 12:09:19:785,-0.580894,-1.55806,-9.4083,5.38128,-4.43879,-30.4293
2023-03-15 12:09:19:796,-0.568526,-1.59613,-9.3658,5.49404,-4.40022,-30.4266
2023-03-15 12:09:19:805,-0.533121,-1.64384,-9.3273,5.59634,-4.35552,-30.4344
2023-03-15 12:09:19:815,-0.513854,-1.70491,-9.27468,5.69446,-4.30741,-30.4479
2023-03-15 12:09:19:826,-0.508918,-1.72977,-9.20368,5.77734,-4.25669,-30.4672
2023-03-15 12:09:19:836,-0.481854,-1.75455,-9.15336,5.83554,-4.20197,-30.4957
2023-03-15 12:09:19:846,-0.449707,-1.75536,-9.15677,5.86131,-4.15161,-30.5266
2023-03-15 12:09:19:856,-0.396586,-1.66483,-9.25038,5.85479,-4.10137,-30.5652
2023-03-15 12:09:19:866,-0.336385,-1.4943,-9.43901,5.8171,-4.05363,-30.6147
2023-03-15 12:09:19:875,-0.303345,-1.3308,-9.65385,5.76858,-4.00573,-30.6664
2023-03-15 12:09:19:885,-0.282824,-1.20821,-9.78826,5.72682,-3.96193,-30.7252
2023-03-15 12:09:19:895,-0.272683,-1.16201,-9.86846,5.70498,-3.92095,-30.7823
2023-03-15 12:09:19:906,-0.310792,-1.17028,-9.86331,5.71032,-3.87512,-30.8394
2023-03-15 12:09:19:916,-0.388337,-1.24233,-9.77252,5.74145,-3.8269,-30.8875
2023-03-15 12:09:19:925,-0.475606,-1.34785,-9.66614,5.78497,-3.77114,-30.9303
2023-03-15 12:09:19:936,-0.517451,-1.4028,-9.59572,5.82692,-3.70453,-30.9745
2023-03-15 12:09:19:946,-0.476361,-1.41991,-9.63372,5.86323,-3.63044,-31.0167
2023-03-15 12:09:19:956,-0.411125,-1.36378,-9.75998,5.88674,-3.55434,-31.0596
2023-03-15 12:09:19:966,-0.348796,-1.29452,-9.89862,5.90814,-3.47302,-31.0973
2023-03-15 12:09:19:976,-0.285775,-1.25108,-9.9868,5.93994,-3.39699,-31.1322
2023-03-15 12:09:19:986,-0.222009,-1.26034,-9.99635,5.99032,-3.32487,-31.163
2023-03-15 12:09:19:996,-0.20626,-1.32639,-9.93297,6.05796,-3.26281,-31.1833
2023-03-15 12:09:20:6,-0.265257,-1.40675,-9.7991,6.13831,-3.2093,-31.1897
2023-03-15 12:09:20:16,-0.33311,-1.48381,-9.66337,6.21842,-3.16303,-31.1877
2023-03-15 12:09:20:26,-0.336914,-1.52018,-9.57688,6.28671,-3.12801,-31.172
2023-03-15 12:09:20:36,-0.338804,-1.52416,-9.53204,6.33578,-3.10695,-31.1464
2023-03-15 12:09:20:46,-0.411919,-1.48467,-9.52118,6.35729,-3.09663,-31.1101
2023-03-15 12:09:20:56,-0.553888,-1.39045,-9.53136,6.35577,-3.1027,-31.0654
2023-03-15 12:09:20:66,-0.687145,-1.29378,-9.54661,6.33327,-3.11799,-31.0192
2023-03-15 12:09:20:76,-0.819758,-1.18679,-9.57458,6.28793,-3.13656,-30.9683
2023-03-15 12:09:20:86,-0.905316,-1.10866,-9.61587,6.22996,-3.16078,-30.9215
2023-03-15 12:09:20:96,-0.938087,-1.0547,-9.68446,6.16606,-3.19355,-30.8767
2023-03-15 12:09:20:106,-0.95565,-0.986751,-9.74045,6.09115,-3.23181,-30.8328
2023-03-15 12:09:20:116,-0.990632,-0.955933,-9.71386,6.01173,-3.279,-30.791
2023-03-15 12:09:20:126,-1.06634,-0.917941,-9.57563,5.93061,-3.33846,-30.7512
2023-03-15 12:09:20:136,-1.18963,-0.916065,-9.39922,5.83938,-3.40683,-30.7074
2023-03-15 12:09:20:146,-1.3395,-0.788317,-9.24086,5.7191,-3.48588,-30.6628
2023-03-15 12:09:20:156,-1.45256,-0.648109,-9.17336,5.56534,-3.56277,-30.6261
2023-03-15 12:09:20:166,-1.49686,-0.499921,-9.18768,5.3835,-3.64041,-30.5973
2023-03-15 12:09:20:176,-1.51288,-0.330727,-9.25458,5.18703,-3.71628,-30.5738
2023-03-15 12:09:20:186,-1.49833,-0.207738,-9.32692,4.97897,-3.78725,-30.5504
2023-03-15 12:09:20:196,-1.42266,-0.149265,-9.41014,4.78241,-3.86222,-30.5236
2023-03-15 12:09:20:206,-1.3192,-0.151855,-9.43993,4.6026,-3.93972,-30.4875
2023-03-15 12:09:20:216,-1.21854,-0.245268,-9.44741,4.44159,-4.02362,-30.4327
2023-03-15 12:09:20:226,-1.16127,-0.277623,-9.36393,4.29225,-4.11868,-30.3522
2023-03-15 12:09:20:236,-1.2112,-0.359694,-9.23397,4.14788,-4.21342,-30.2464
2023-03-15 12:09:20:246,-1.34795,-0.474139,-9.1164,3.99547,-4.30597,-30.1132
2023-03-15 12:09:20:256,-1.48876,-0.490955,-9.08518,3.81507,-4.38923,-29.9606
2023-03-15 12:09:20:266,-1.54808,-0.398436,-9.14394,3.60929,-4.44854,-29.7998
2023-03-15 12:09:20:276,-1.46358,-0.342591,-9.29767,3.38959,-4.48088,-29.6285
2023-03-15 12:09:20:285,-1.35475,-0.28049,-9.47367,3.16343,-4.4855,-29.4371
2023-03-15 12:09:20:296,-1.31297,-0.179892,-9.61217,2.94461,-4.46955,-29.233
2023-03-15 12:09:20:305,-1.33589,-0.189857,-9.68686,2.74634,-4.42637,-29.0228
2023-03-15 12:09:20:316,-1.3573,-0.230718,-9.72352,2.56739,-4.36047,-28.8051
2023-03-15 12:09:20:326,-1.32184,-0.249818,-9.75902,2.40036,-4.27119,-28.5829
2023-03-15 12:09:20:336,-1.2075,-0.291867,-9.84334,2.23768,-4.1549,-28.3552
2023-03-15 12:09:20:346,-1.01935,-0.262021,-9.96467,2.07282,-4.02461,-28.1263
2023-03-15 12:09:20:356,-0.822122,-0.204364,-10.0778,1.91595,-3.88199,-27.891
2023-03-15 12:09:20:366,-0.677869,-0.140475,-10.159,1.76999,-3.73694,-27.6528
2023-03-15 12:09:20:376,-0.57266,-0.0919419,-10.1822,1.63943,-3.60206,-27.4121
2023-03-15 12:09:20:386,-0.539607,-0.0920729,-10.1282,1.53431,-3.48137,-27.1689
2023-03-15 12:09:20:396,-0.513174,-0.0953281,-9.99148,1.44587,-3.37256,-26.9196
