Timestamp,Acceleration_x,Acceleration_y,Acceleration_z,roll,pitch,yaw
2023-03-15 22:10:25:894,-0.51557,-0.209296,-9.78977,1.44679,-3.18392,-28.2423
2023-03-15 22:10:25:902,-0.528376,-0.209801,-9.8027,1.42617,-3.18196,-28.2252
2023-03-15 22:10:25:912,-0.528944,-0.18505,-9.8154,1.41041,-3.18212,-28.2044
2023-03-15 22:10:25:922,-0.547055,-0.183873,-9.82796,1.3979,-3.18091,-28.1887
2023-03-15 22:10:25:932,-0.547977,-0.180923,-9.8304,1.38912,-3.18379,-28.1761
2023-03-15 22:10:25:942,-0.567897,-0.170013,-9.81799,1.3796,-3.18865,-28.1636
2023-03-15 22:10:25:952,-0.578898,-0.19298,-9.80169,1.36682,-3.1875,-28.1514
2023-03-15 22:10:25:962,-0.595384,-0.188795,-9.79837,1.36087,-3.19041,-28.1447
2023-03-15 22:10:25:972,-0.606129,-0.181577,-9.78718,1.35466,-3.19311,-28.1434
2023-03-15 22:10:25:982,-0.595692,-0.195463,-9.76904,1.35127,-3.19405,-28.1404
2023-03-15 22:10:25:992,-0.605209,-0.184349,-9.75155,1.34783,-3.19682,-28.1402
2023-03-15 22:10:26:2,-0.615712,-0.176567,-9.7402,1.34175,-3.19727,-28.1444
2023-03-15 22:10:26:12,-0.6181,-0.186552,-9.73501,1.33785,-3.19465,-28.1518
2023-03-15 22:10:26:22,-0.613307,-0.188268,-9.71906,1.33217,-3.19142,-28.1615
2023-03-15 22:10:26:32,-0.617623,-0.195271,-9.74301,1.32357,-3.18908,-28.1726
2023-03-15 22:10:26:42,-0.611288,-0.189079,-9.76201,1.31656,-3.18739,-28.1891
2023-03-15 22:10:26:52,-0.583045,-0.189627,-9.76158,1.31305,-3.18358,-28.2093
2023-03-15 22:10:26:62,-0.556221,-0.193598,-9.7482,1.30711,-3.17769,-28.2284
2023-03-15 22:10:26:72,-0.574725,-0.192796,-9.72602,1.30436,-3.17435,-28.2499
2023-03-15 22:10:26:82,-0.58079,-0.192844,-9.75249,1.29888,-3.16785,-28.2697
2023-03-15 22:10:26:92,-0.573075,-0.168422,-9.80943,1.29514,-3.15575,-28.2949
2023-03-15 22:10:26:102,-0.54856,-0.174327,-9.84898,1.29253,-3.14269,-28.3177
2023-03-15 22:10:26:112,-0.500721,-0.190784,-9.85435,1.29422,-3.13221,-28.3406
2023-03-15 22:10:26:122,-0.461757,-0.193864,-9.82982,1.29355,-3.12676,-28.3627
2023-03-15 22:10:26:132,-0.445379,-0.208156,-9.8128,1.29628,-3.11815,-28.384
2023-03-15 22:10:26:142,-0.445809,-0.230501,-9.74777,1.30027,-3.11499,-28.4011
2023-03-15 22:10:26:152,-0.470774,-0.241496,-9.6964,1.30133,-3.11411,-28.4154
2023-03-15 22:10:26:162,-0.506533,-0.235987,-9.67642,1.29394,-3.10886,-28.4302
2023-03-15 22:10:26:172,-0.505091,-0.227222,-9.66252,1.28171,-3.09896,-28.4424
2023-03-15 22:10:26:182,-0.495473,-0.232577,-9.66121,1.26406,-3.08839,-28.4509
2023-03-15 22:10:26:192,-0.48614,-0.215471,-9.66821,1.24051,-3.08067,-28.4585
2023-03-15 22:10:26:202,-0.473147,-0.1851,-9.71225,1.208,-3.07225,-28.4659
2023-03-15 22:10:26:212,-0.466884,-0.143184,-9.75562,1.17439,-3.05939,-28.4713
2023-03-15 22:10:26:222,-0.476522,-0.109289,-9.75714,1.14358,-3.05102,-28.4742
2023-03-15 22:10:26:232,-0.484914,-0.105776,-9.75861,1.11067,-3.04214,-28.4763
2023-03-15 22:10:26:242,-0.48477,-0.0904574,-9.75797,1.08189,-3.03388,-28.4777
2023-03-15 22:10:26:252,-0.481135,-0.0622948,-9.76529,1.05215,-3.02479,-28.4794
2023-03-15 22:10:26:262,-0.488167,-0.0547594,-9.78602,1.02404,-3.01677,-28.4834
2023-03-15 22:10:26:272,-0.483357,-0.0321151,-9.81265,0.996836,-3.008,-28.487
2023-03-15 22:10:26:282,-0.479563,-0.02387,-9.80364,0.970988,-2.99928,-28.4895
2023-03-15 22:10:26:292,-0.467493,-0.0283736,-9.81689,0.948296,-2.98483,-28.4905
2023-03-15 22:10:26:302,-0.456568,-0.0106502,-9.84785,0.928571,-2.97547,-28.4939
2023-03-15 22:10:26:312,-0.443917,-0.00902934,-9.88735,0.912357,-2.96489,-28.4949
2023-03-15 22:10:26:322,-0.452716,-0.00544711,-9.91073,0.904759,-2.95586,-28.498
2023-03-15 22:10:26:332,-0.449591,-0.00279289,-9.92059,0.898257,-2.94863,-28.5002
2023-03-15 22:10:26:342,-0.444428,-0.00390237,-9.90888,0.89908,-2.94292,-28.5042
2023-03-15 22:10:26:352,-0.452714,-0.0147128,-9.89648,0.907,-2.9391,-28.5017
2023-03-15 22:10:26:362,-0.454671,-0.0360184,-9.86275,0.913895,-2.93992,-28.502
2023-03-15 22:10:26:372,-0.465563,-0.0509734,-9.83644,0.925596,-2.93817,-28.498
2023-03-15 22:10:26:382,-0.479693,-0.0582853,-9.80688,0.941676,-2.93745,-28.4999
2023-03-15 22:10:26:392,-0.493955,-0.0643571,-9.79306,0.955652,-2.93287,-28.4996
2023-03-15 22:10:26:402,-0.485181,-0.0848282,-9.76562,0.970463,-2.93299,-28.4985
2023-03-15 22:10:26:412,-0.494036,-0.118231,-9.74069,0.988931,-2.9319,-28.4992
2023-03-15 22:10:26:422,-0.491635,-0.12534,-9.74838,1.00628,-2.93418,-28.4979
2023-03-15 22:10:26:432,-0.488009,-0.126182,-9.74809,1.02264,-2.9314,-28.497
2023-03-15 22:10:26:442,-0.489632,-0.14257,-9.73142,1.03411,-2.93039,-28.4966
2023-03-15 22:10:26:452,-0.492823,-0.153904,-9.71485,1.04304,-2.93183,-28.4955
2023-03-15 22:10:26:462,-0.502435,-0.152576,-9.70835,1.05144,-2.93259,-28.4943
2023-03-15 22:10:26:472,-0.507212,-0.151893,-9.72298,1.06141,-2.92855,-28.4971
2023-03-15 22:10:26:482,-0.501362,-0.170474,-9.73156,1.06985,-2.92566,-28.5026
2023-03-15 22:10:26:492,-0.495548,-0.161817,-9.73198,1.07466,-2.92703,-28.5073
2023-03-15 22:10:26:502,-0.503736,-0.141973,-9.77785,1.08062,-2.92842,-28.5124
2023-03-15 22:10:26:511,-0.498363,-0.129085,-9.80151,1.08231,-2.93167,-28.5202
2023-03-15 22:10:26:521,-0.49554,-0.135542,-9.82812,1.08483,-2.93333,-28.5297
2023-03-15 22:10:26:531,-0.509728,-0.13737,-9.8455,1.09488,-2.93895,-28.5381
2023-03-15 22:10:26:541,-0.513066,-0.135304,-9.8376,1.10531,-2.94291,-28.5467
2023-03-15 22:10:26:551,-0.518847,-0.146015,-9.81249,1.12209,-2.94531,-28.5557
2023-03-15 22:10:26:562,-0.51871,-0.172099,-9.81593,1.1349,-2.94283,-28.5606
2023-03-15 22:10:26:572,-0.506109,-0.182767,-9.80701,1.15498,-2.93726,-28.5666
2023-03-15 22:10:26:582,-0.478111,-0.211048,-9.77501,1.17826,-2.9333,-28.5713
2023-03-15 22:10:26:592,-0.478535,-0.228716,-9.73743,1.19538,-2.93182,-28.5773
2023-03-15 22:10:26:602,-0.49775,-0.229354,-9.72595,1.21075,-2.93087,-28.5834
2023-03-15 22:10:26:612,-0.4972,-0.225499,-9.7146,1.22321,-2.92988,-28.5893
2023-03-15 22:10:26:622,-0.499951,-0.239075,-9.72855,1.23332,-2.92788,-28.5892
2023-03-15 22:10:26:632,-0.512631,-0.251556,-9.72414,1.24238,-2.92871,-28.5943
2023-03-15 22:10:26:642,-0.50419,-0.239286,-9.7143,1.24917,-2.92744,-28.6009
2023-03-15 22:10:26:652,-0.508852,-0.226304,-9.72454,1.25677,-2.92739,-28.6081
2023-03-15 22:10:26:662,-0.495985,-0.227587,-9.7254,1.26207,-2.92599,-28.6139
2023-03-15 22:10:26:672,-0.500531,-0.245631,-9.73606,1.26795,-2.92234,-28.618
2023-03-15 22:10:26:682,-0.478234,-0.251169,-9.74885,1.27205,-2.91895,-28.6183
2023-03-15 22:10:26:692,-0.466828,-0.255211,-9.74309,1.27794,-2.918,-28.6201
2023-03-15 22:10:26:702,-0.470884,-0.270557,-9.71676,1.28295,-2.91656,-28.6202
2023-03-15 22:10:26:712,-0.488814,-0.287014,-9.70806,1.28376,-2.9136,-28.6234
2023-03-15 22:10:26:722,-0.509239,-0.282442,-9.74796,1.28414,-2.90686,-28.6244
2023-03-15 22:10:26:732,-0.51998,-0.260904,-9.81279,1.28357,-2.89742,-28.6298
2023-03-15 22:10:26:742,-0.482954,-0.264087,-9.83289,1.28445,-2.88799,-28.6325
2023-03-15 22:10:26:752,-0.440665,-0.290606,-9.78093,1.28308,-2.88222,-28.633
2023-03-15 22:10:26:762,-0.445474,-0.295173,-9.73898,1.28302,-2.87793,-28.637
2023-03-15 22:10:26:772,-0.460745,-0.304226,-9.69033,1.28027,-2.87881,-28.6384
2023-03-15 22:10:26:782,-0.489593,-0.339103,-9.59633,1.27323,-2.88109,-28.6378
2023-03-15 22:10:26:792,-0.574285,-0.346379,-9.5472,1.25312,-2.88499,-28.6375
2023-03-15 22:10:26:802,-0.621837,-0.320274,-9.52793,1.22314,-2.8827,-28.6438
2023-03-15 22:10:26:812,-0.640253,-0.324782,-9.49817,1.17911,-2.87222,-28.6536
2023-03-15 22:10:26:822,-0.642874,-0.332509,-9.53316,1.12316,-2.8571,-28.6678
2023-03-15 22:10:26:832,-0.610269,-0.259273,-9.66445,1.05511,-2.83953,-28.6873
2023-03-15 22:10:26:842,-0.560179,-0.171868,-9.77838,0.986419,-2.82114,-28.7123
2023-03-15 22:10:26:852,-0.530171,-0.153496,-9.80913,0.920572,-2.80734,-28.7413
2023-03-15 22:10:26:862,-0.513233,-0.11253,-9.79994,0.853789,-2.79177,-28.7744
2023-03-15 22:10:26:872,-0.483302,-0.092734,-9.78209,0.791184,-2.78275,-28.8085
2023-03-15 22:10:26:882,-0.467664,-0.0923732,-9.79825,0.729651,-2.77478,-28.8426
2023-03-15 22:10:26:892,-0.451586,-0.0394646,-9.83057,0.668074,-2.77088,-28.8805
2023-03-15 22:10:26:902,-0.423059,-0.0420756,-9.85878,0.612997,-2.76383,-28.9146
2023-03-15 22:10:26:912,-0.396137,-0.0428222,-9.89484,0.562813,-2.75745,-28.9484
2023-03-15 22:10:26:922,-0.357582,-0.0201995,-9.92619,0.521533,-2.7498,-28.9786
2023-03-15 22:10:26:932,-0.302609,-0.0184451,-9.93026,0.486515,-2.74443,-29.0024
2023-03-15 22:10:26:942,-0.287265,-0.0079842,-9.95726,0.461458,-2.74424,-29.0191
2023-03-15 22:10:26:952,-0.260862,-0.000548679,-10.0134,0.440991,-2.74715,-29.0293
2023-03-15 22:10:26:962,-0.237372,0.0227623,-10.069,0.424893,-2.75311,-29.0284
2023-03-15 22:10:26:972,-0.248807,0.0593715,-10.0512,0.424989,-2.76403,-29.0244
2023-03-15 22:10:26:982,-0.297123,0.0108574,-9.93607,0.433764,-2.78045,-29.0101
2023-03-15 22:10:26:992,-0.347726,-0.021495,-9.84538,0.442666,-2.80019,-28.9906
2023-03-15 22:10:27:2,-0.375127,-0.0124187,-9.79036,0.455873,-2.82036,-28.9721
2023-03-15 22:10:27:12,-0.390506,-0.0306564,-9.75277,0.469029,-2.83749,-28.9455
2023-03-15 22:10:27:22,-0.417407,-0.0407785,-9.72323,0.482247,-2.85344,-28.9168
2023-03-15 22:10:27:32,-0.436534,-0.0522126,-9.69733,0.49586,-2.86617,-28.8859
2023-03-15 22:10:27:42,-0.450571,-0.0688698,-9.67348,0.509104,-2.87652,-28.8539
2023-03-15 22:10:27:52,-0.464522,-0.103602,-9.66464,0.518269,-2.88506,-28.8181
2023-03-15 22:10:27:62,-0.467818,-0.110783,-9.6601,0.519463,-2.89694,-28.7796
2023-03-15 22:10:27:72,-0.498965,-0.092435,-9.69047,0.515786,-2.90746,-28.7446
2023-03-15 22:10:27:82,-0.53406,-0.0778043,-9.70446,0.514104,-2.92251,-28.7142
2023-03-15 22:10:27:92,-0.565498,-0.0862785,-9.70994,0.509669,-2.93537,-28.6857
2023-03-15 22:10:27:102,-0.575273,-0.090845,-9.69853,0.50127,-2.95266,-28.6629
2023-03-15 22:10:27:112,-0.580105,-0.0999757,-9.70719,0.492909,-2.96789,-28.6407
2023-03-15 22:10:27:122,-0.593549,-0.0877345,-9.73073,0.482894,-2.98132,-28.6226
2023-03-15 22:10:27:132,-0.598501,-0.0789145,-9.74038,0.468383,-2.99133,-28.6132
2023-03-15 22:10:27:142,-0.601986,-0.0861176,-9.7283,0.451472,-2.9989,-28.6045
2023-03-15 22:10:27:152,-0.59423,-0.0984209,-9.72337,0.434271,-3.00668,-28.5999
2023-03-15 22:10:27:162,-0.59548,-0.0805605,-9.74625,0.413545,-3.01258,-28.5995
2023-03-15 22:10:27:172,-0.578934,-0.0704308,-9.77423,0.39306,-3.0159,-28.5963
2023-03-15 22:10:27:182,-0.574948,-0.0703092,-9.77938,0.370911,-3.01792,-28.6008
2023-03-15 22:10:27:192,-0.57497,-0.0492055,-9.78752,0.351303,-3.02105,-28.608
2023-03-15 22:10:27:202,-0.596121,-0.0405115,-9.8125,0.332641,-3.02571,-28.62
2023-03-15 22:10:27:212,-0.594063,-0.0421496,-9.807,0.316171,-3.02704,-28.6305
2023-03-15 22:10:27:222,-0.578971,-0.0575761,-9.7915,0.296976,-3.02955,-28.6441
2023-03-15 22:10:27:232,-0.558449,-0.0473871,-9.77082,0.281082,-3.02934,-28.659
2023-03-15 22:10:27:242,-0.539514,-0.0291804,-9.75017,0.262683,-3.0269,-28.6762
2023-03-15 22:10:27:252,-0.513836,-0.0285672,-9.72464,0.246416,-3.02787,-28.6986
2023-03-15 22:10:27:262,-0.494885,-0.0545703,-9.72909,0.225814,-3.02969,-28.7181
2023-03-15 22:10:27:272,-0.49089,-0.0369242,-9.73871,0.205037,-3.02876,-28.7333
2023-03-15 22:10:27:282,-0.487055,-0.0326127,-9.78268,0.185908,-3.03079,-28.752
2023-03-15 22:10:27:292,-0.471782,-0.0258551,-9.8008,0.164392,-3.03301,-28.7668
2023-03-15 22:10:27:302,-0.461301,-0.0176671,-9.80015,0.149387,-3.0393,-28.783
2023-03-15 22:10:27:312,-0.486604,-0.0182881,-9.79639,0.131943,-3.04481,-28.8
2023-03-15 22:10:27:322,-0.484958,-0.0309944,-9.77038,0.116931,-3.04991,-28.8127
2023-03-15 22:10:27:332,-0.450536,-0.063713,-9.73243,0.1005,-3.05499,-28.824
2023-03-15 22:10:27:342,-0.412032,-0.0818463,-9.68445,0.0828412,-3.061,-28.8288
2023-03-15 22:10:27:352,-0.420145,-0.0930446,-9.6809,0.0606663,-3.06844,-28.8298
2023-03-15 22:10:27:362,-0.463052,-0.0818463,-9.76459,0.0356482,-3.07625,-28.831
2023-03-15 22:10:27:371,-0.493042,0.017625,-9.92019,0.00942302,-3.08281,-28.8304
2023-03-15 22:10:27:381,-0.483547,0.0611779,-9.97009,-0.00590621,-3.08912,-28.8305
2023-03-15 22:10:27:391,-0.490891,0.0335812,-9.92045,-0.0154858,-3.09401,-28.8258
2023-03-15 22:10:27:401,-0.511304,0.0414283,-9.86866,-0.0231599,-3.10563,-28.8227
2023-03-15 22:10:27:411,-0.535193,0.0284656,-9.79182,-0.0265888,-3.11821,-28.822
2023-03-15 22:10:27:421,-0.551578,-0.035601,-9.67844,-0.0328656,-3.13388,-28.8189
2023-03-15 22:10:27:431,-0.585008,-0.07114,-9.61745,-0.0444731,-3.1429,-28.8126
2023-03-15 22:10:27:442,-0.598984,-0.0628158,-9.59721,-0.0653814,-3.15287,-28.8079
2023-03-15 22:10:27:451,-0.572946,-0.0427357,-9.59345,-0.0965967,-3.15995,-28.8023
2023-03-15 22:10:27:462,-0.537849,-0.0490664,-9.60559,-0.136287,-3.16422,-28.7969
2023-03-15 22:10:27:471,-0.534286,-0.0419614,-9.64064,-0.184673,-3.17375,-28.7942
2023-03-15 22:10:27:482,-0.53486,-0.00342363,-9.66428,-0.240107,-3.18023,-28.7912
2023-03-15 22:10:27:492,-0.540202,0.0373534,-9.67813,-0.296819,-3.18944,-28.7899
2023-03-15 22:10:27:501,-0.548397,0.0517208,-9.68583,-0.357871,-3.19816,-28.7885
2023-03-15 22:10:27:512,-0.570516,0.0854174,-9.71223,-0.416964,-3.20331,-28.7883
2023-03-15 22:10:27:521,-0.581041,0.115731,-9.76186,-0.4762,-3.20667,-28.796
2023-03-15 22:10:27:531,-0.571254,0.144973,-9.79692,-0.532695,-3.21161,-28.8016
2023-03-15 22:10:27:542,-0.548487,0.162069,-9.84715,-0.588519,-3.21489,-28.8087
2023-03-15 22:10:27:552,-0.540407,0.201778,-9.89654,-0.63587,-3.21901,-28.8184
2023-03-15 22:10:27:562,-0.512037,0.227735,-9.91044,-0.676295,-3.22122,-28.8306
2023-03-15 22:10:27:572,-0.502372,0.240001,-9.94176,-0.705932,-3.22086,-28.8398
2023-03-15 22:10:27:581,-0.500379,0.260305,-9.9599,-0.734511,-3.2251,-28.8454
2023-03-15 22:10:27:591,-0.482199,0.263561,-9.92383,-0.749237,-3.224,-28.8551
2023-03-15 22:10:27:601,-0.419413,0.218654,-9.85585,-0.75688,-3.22719,-28.8568
2023-03-15 22:10:27:611,-0.321003,0.165532,-9.79639,-0.763787,-3.23421,-28.8517
2023-03-15 22:10:27:622,-0.227434,0.117219,-9.74526,-0.773422,-3.2473,-28.8354
2023-03-15 22:10:27:631,-0.171647,0.0725394,-9.73174,-0.789457,-3.278,-28.8063
2023-03-15 22:10:27:642,-0.186171,0.0449004,-9.72837,-0.807964,-3.31995,-28.7695
2023-03-15 22:10:27:652,-0.266949,0.0500823,-9.717,-0.828297,-3.36858,-28.727
2023-03-15 22:10:27:661,-0.341427,0.052298,-9.71656,-0.859527,-3.42239,-28.6784
2023-03-15 22:10:27:672,-0.409332,0.0707284,-9.69298,-0.894905,-3.47576,-28.6227
2023-03-15 22:10:27:682,-0.452656,0.0818779,-9.66896,-0.931499,-3.52827,-28.5643
2023-03-15 22:10:27:692,-0.512691,0.103523,-9.64508,-0.975065,-3.57728,-28.5056
2023-03-15 22:10:27:702,-0.573798,0.137963,-9.6563,-1.02407,-3.62342,-28.4429
2023-03-15 22:10:27:712,-0.641451,0.175013,-9.67103,-1.07806,-3.67058,-28.3794
2023-03-15 22:10:27:722,-0.737742,0.242469,-9.68254,-1.13641,-3.71471,-28.3199
2023-03-15 22:10:27:732,-0.827501,0.275008,-9.70952,-1.19424,-3.75391,-28.2655
2023-03-15 22:10:27:742,-0.873926,0.311408,-9.74753,-1.2541,-3.78749,-28.2176
2023-03-15 22:10:27:752,-0.895312,0.327456,-9.7546,-1.31276,-3.81301,-28.1762
2023-03-15 22:10:27:762,-0.908883,0.360373,-9.78944,-1.36869,-3.83367,-28.1418
2023-03-15 22:10:27:772,-0.899963,0.388591,-9.83173,-1.41621,-3.84864,-28.1173
2023-03-15 22:10:27:782,-0.901465,0.385788,-9.85263,-1.45735,-3.86086,-28.0996
2023-03-15 22:10:27:792,-0.906497,0.404566,-9.86477,-1.49667,-3.86519,-28.0891
2023-03-15 22:10:27:802,-0.878546,0.405278,-9.85822,-1.52974,-3.86785,-28.0825
2023-03-15 22:10:27:812,-0.857259,0.394282,-9.85019,-1.55505,-3.86923,-28.0867
2023-03-15 22:10:27:822,-0.856383,0.41,-9.85993,-1.57362,-3.87005,-28.098
2023-03-15 22:10:27:832,-0.820325,0.406162,-9.89177,-1.59185,-3.87338,-28.114
2023-03-15 22:10:27:842,-0.787306,0.392422,-9.8979,-1.60109,-3.8734,-28.1382
2023-03-15 22:10:27:852,-0.771128,0.396733,-9.8808,-1.60149,-3.87295,-28.1642
2023-03-15 22:10:27:862,-0.761954,0.392461,-9.87365,-1.59661,-3.87391,-28.1929
2023-03-15 22:10:27:872,-0.751224,0.364743,-9.85034,-1.58702,-3.87444,-28.2242
2023-03-15 22:10:27:882,-0.727827,0.349437,-9.82039,-1.57281,-3.87417,-28.2582
2023-03-15 22:10:27:892,-0.712506,0.34739,-9.81632,-1.5563,-3.87316,-28.2945
2023-03-15 22:10:27:902,-0.707721,0.338323,-9.81795,-1.53441,-3.86675,-28.3295
2023-03-15 22:10:27:912,-0.662469,0.291044,-9.7858,-1.50781,-3.85983,-28.3625
2023-03-15 22:10:27:922,-0.623122,0.263025,-9.75215,-1.47984,-3.85107,-28.3917
2023-03-15 22:10:27:932,-0.636738,0.244773,-9.73772,-1.45275,-3.84491,-28.4208
2023-03-15 22:10:27:942,-0.640723,0.24094,-9.72531,-1.42755,-3.83777,-28.4439
2023-03-15 22:10:27:952,-0.630085,0.218383,-9.70892,-1.40235,-3.83501,-28.4642
2023-03-15 22:10:27:962,-0.614982,0.201347,-9.71508,-1.38298,-3.82692,-28.4849
2023-03-15 22:10:27:972,-0.606539,0.204981,-9.71218,-1.36148,-3.82214,-28.4997
2023-03-15 22:10:27:982,-0.603161,0.21144,-9.69594,-1.34502,-3.81241,-28.5139
2023-03-15 22:10:27:992,-0.618026,0.185784,-9.71546,-1.32949,-3.80216,-28.5231
2023-03-15 22:10:28:2,-0.632639,0.20217,-9.75215,-1.31473,-3.79285,-28.5352
2023-03-15 22:10:28:12,-0.637818,0.215584,-9.80061,-1.30236,-3.78118,-28.5448
2023-03-15 22:10:28:22,-0.612194,0.225805,-9.81789,-1.2891,-3.76813,-28.5505
2023-03-15 22:10:28:32,-0.573918,0.223226,-9.81097,-1.27419,-3.76141,-28.5617
2023-03-15 22:10:28:42,-0.564144,0.219659,-9.78574,-1.26196,-3.76176,-28.5703
2023-03-15 22:10:28:52,-0.569311,0.208759,-9.75414,-1.24608,-3.76357,-28.5813
2023-03-15 22:10:28:62,-0.579387,0.197637,-9.68905,-1.23592,-3.76492,-28.5873
2023-03-15 22:10:28:72,-0.611675,0.203566,-9.65686,-1.23101,-3.76729,-28.5925
2023-03-15 22:10:28:82,-0.626127,0.203837,-9.64161,-1.23443,-3.76977,-28.5988
2023-03-15 22:10:28:92,-0.620103,0.199069,-9.63654,-1.23839,-3.76906,-28.6045
2023-03-15 22:10:28:102,-0.591517,0.213061,-9.6632,-1.24827,-3.76732,-28.6047
2023-03-15 22:10:28:112,-0.576306,0.236787,-9.68547,-1.26173,-3.76734,-28.6052
2023-03-15 22:10:28:122,-0.586043,0.257989,-9.70097,-1.27638,-3.76686,-28.6009
2023-03-15 22:10:28:132,-0.61263,0.283466,-9.69726,-1.29283,-3.76671,-28.5966
2023-03-15 22:10:28:142,-0.639313,0.288542,-9.71233,-1.30864,-3.76487,-28.5899
2023-03-15 22:10:28:152,-0.656271,0.324517,-9.74504,-1.32826,-3.76583,-28.5844
2023-03-15 22:10:28:162,-0.669633,0.334581,-9.74892,-1.342,-3.76998,-28.5807
2023-03-15 22:10:28:172,-0.665823,0.328883,-9.7509,-1.35757,-3.76876,-28.5771
2023-03-15 22:10:28:182,-0.673819,0.328269,-9.77759,-1.36819,-3.769,-28.5749
2023-03-15 22:10:28:192,-0.680693,0.336365,-9.79818,-1.38063,-3.77305,-28.5773
2023-03-15 22:10:28:202,-0.672299,0.328182,-9.78898,-1.39027,-3.77619,-28.5787
2023-03-15 22:10:28:212,-0.689941,0.318225,-9.77916,-1.39793,-3.78437,-28.5776
2023-03-15 22:10:28:222,-0.707324,0.313523,-9.80542,-1.40829,-3.78997,-28.584
2023-03-15 22:10:28:232,-0.722327,0.334599,-9.82719,-1.41703,-3.79274,-28.5969
2023-03-15 22:10:28:242,-0.711359,0.330519,-9.84766,-1.42225,-3.79416,-28.6111
2023-03-15 22:10:28:252,-0.71026,0.328877,-9.83159,-1.42478,-3.79547,-28.6271
2023-03-15 22:10:28:262,-0.714647,0.323752,-9.81984,-1.4258,-3.7957,-28.6468
2023-03-15 22:10:28:272,-0.730596,0.315259,-9.80802,-1.42516,-3.79701,-28.6664
2023-03-15 22:10:28:282,-0.729151,0.308089,-9.78162,-1.42466,-3.79872,-28.6877
2023-03-15 22:10:28:292,-0.713867,0.300925,-9.76625,-1.41996,-3.79833,-28.7087
2023-03-15 22:10:28:302,-0.707325,0.290471,-9.7493,-1.41703,-3.79834,-28.7332
2023-03-15 22:10:28:312,-0.683432,0.294455,-9.72271,-1.41281,-3.79019,-28.7578
2023-03-15 22:10:28:322,-0.653694,0.271379,-9.71252,-1.40986,-3.77883,-28.7816
2023-03-15 22:10:28:332,-0.627313,0.25913,-9.71135,-1.40547,-3.76863,-28.802
2023-03-15 22:10:28:342,-0.61068,0.260166,-9.71323,-1.40278,-3.75832,-28.8205
2023-03-15 22:10:28:352,-0.600788,0.251706,-9.70948,-1.40122,-3.74848,-28.8372
2023-03-15 22:10:28:362,-0.603422,0.229212,-9.72541,-1.39444,-3.73509,-28.8532
2023-03-15 22:10:28:372,-0.587584,0.237909,-9.75215,-1.39101,-3.7202,-28.8673
2023-03-15 22:10:28:382,-0.569754,0.215784,-9.77373,-1.38723,-3.69902,-28.8743
2023-03-15 22:10:28:392,-0.576499,0.211993,-9.79709,-1.38383,-3.6812,-28.8781
2023-03-15 22:10:28:402,-0.56294,0.230269,-9.81932,-1.38197,-3.66508,-28.8758
2023-03-15 22:10:28:412,-0.543781,0.230607,-9.83859,-1.38012,-3.65074,-28.8706
2023-03-15 22:10:28:422,-0.548091,0.235479,-9.84126,-1.37417,-3.63484,-28.8651
2023-03-15 22:10:28:432,-0.560859,0.226119,-9.85787,-1.36587,-3.6204,-28.8579
2023-03-15 22:10:28:442,-0.563528,0.216819,-9.88912,-1.35232,-3.60423,-28.846
2023-03-15 22:10:28:452,-0.567458,0.209333,-9.88264,-1.3337,-3.5932,-28.8327
2023-03-15 22:10:28:462,-0.586884,0.208333,-9.83479,-1.31523,-3.58373,-28.8207
2023-03-15 22:10:28:472,-0.613373,0.204154,-9.7875,-1.29335,-3.57225,-28.8091
2023-03-15 22:10:28:482,-0.628606,0.190904,-9.75923,-1.27039,-3.56086,-28.7993
2023-03-15 22:10:28:492,-0.639879,0.185809,-9.74318,-1.24829,-3.54914,-28.7922
2023-03-15 22:10:28:502,-0.654534,0.181508,-9.74934,-1.22641,-3.5415,-28.7912
2023-03-15 22:10:28:512,-0.66193,0.181021,-9.73904,-1.20351,-3.53268,-28.7915
2023-03-15 22:10:28:522,-0.629107,0.16783,-9.72648,-1.1774,-3.52777,-28.799
2023-03-15 22:10:28:532,-0.600572,0.141292,-9.7071,-1.15446,-3.52603,-28.8077
2023-03-15 22:10:28:542,-0.60383,0.132694,-9.69857,-1.13236,-3.52528,-28.8158
2023-03-15 22:10:28:552,-0.608501,0.14228,-9.7028,-1.11319,-3.53004,-28.8283
2023-03-15 22:10:28:562,-0.594221,0.110562,-9.67949,-1.09248,-3.53845,-28.8421
2023-03-15 22:10:28:572,-0.595656,0.096384,-9.6674,-1.07307,-3.54465,-28.853
2023-03-15 22:10:28:582,-0.617448,0.0920084,-9.70342,-1.05445,-3.55184,-28.8658
2023-03-15 22:10:28:592,-0.627037,0.0912413,-9.72913,-1.03775,-3.55661,-28.8768
2023-03-15 22:10:28:602,-0.604495,0.0953027,-9.75552,-1.02045,-3.56246,-28.885
2023-03-15 22:10:28:612,-0.595224,0.103386,-9.75679,-1.00041,-3.5675,-28.8853
2023-03-15 22:10:28:622,-0.622553,0.0952594,-9.72855,-0.978375,-3.56562,-28.8838
2023-03-15 22:10:28:632,-0.641441,0.0546849,-9.72838,-0.95558,-3.56289,-28.8782
2023-03-15 22:10:28:642,-0.63967,0.0468392,-9.77893,-0.928754,-3.55538,-28.8682
2023-03-15 22:10:28:652,-0.637249,0.0486075,-9.82002,-0.901798,-3.54038,-28.8605
2023-03-15 22:10:28:662,-0.622557,0.0540875,-9.78595,-0.873934,-3.52884,-28.8487
2023-03-15 22:10:28:672,-0.625506,0.048255,-9.73161,-0.846427,-3.51902,-28.8428
2023-03-15 22:10:28:682,-0.646709,0.0496497,-9.71589,-0.823843,-3.51499,-28.8361
2023-03-15 22:10:28:692,-0.673192,0.0572846,-9.69115,-0.803416,-3.51122,-28.8355
2023-03-15 22:10:28:702,-0.692647,0.0419072,-9.6261,-0.790992,-3.50688,-28.8331
2023-03-15 22:10:28:712,-0.706529,0.0481744,-9.57185,-0.790662,-3.50161,-28.8323
2023-03-15 22:10:28:722,-0.721262,0.0869448,-9.58529,-0.803164,-3.49863,-28.8384
2023-03-15 22:10:28:732,-0.719611,0.12134,-9.61623,-0.821012,-3.49287,-28.8526
2023-03-15 22:10:28:742,-0.702197,0.132028,-9.63465,-0.848171,-3.48725,-28.8681
2023-03-15 22:10:28:752,-0.711529,0.172041,-9.63289,-0.884428,-3.4819,-28.8931
2023-03-15 22:10:28:762,-0.719026,0.218557,-9.65049,-0.926523,-3.47435,-28.9205
2023-03-15 22:10:28:772,-0.703412,0.253175,-9.66382,-0.97827,-3.46782,-28.9566
2023-03-15 22:10:28:782,-0.686241,0.276944,-9.67085,-1.03071,-3.45646,-29.0053
2023-03-15 22:10:28:792,-0.649792,0.315526,-9.69033,-1.08928,-3.44391,-29.056
2023-03-15 22:10:28:802,-0.603514,0.339272,-9.74328,-1.14882,-3.43587,-29.1096
2023-03-15 22:10:28:812,-0.563788,0.364123,-9.76589,-1.20872,-3.42442,-29.1675
2023-03-15 22:10:28:822,-0.525653,0.37689,-9.79727,-1.26751,-3.41491,-29.227
2023-03-15 22:10:28:832,-0.487455,0.401896,-9.83148,-1.31936,-3.40478,-29.2821
2023-03-15 22:10:28:842,-0.468553,0.401498,-9.84271,-1.36893,-3.39333,-29.3303
2023-03-15 22:10:28:852,-0.458464,0.416687,-9.86902,-1.41133,-3.38136,-29.3758
2023-03-15 22:10:28:862,-0.44269,0.43587,-9.93924,-1.44349,-3.37064,-29.4159
2023-03-15 22:10:28:872,-0.416983,0.431567,-9.97958,-1.46923,-3.36015,-29.4486
2023-03-15 22:10:28:882,-0.402721,0.411348,-9.99269,-1.48301,-3.35005,-29.4695
2023-03-15 22:10:28:892,-0.391452,0.394814,-9.99557,-1.48512,-3.33354,-29.4829
2023-03-15 22:10:28:902,-0.371347,0.364103,-9.96625,-1.47532,-3.32434,-29.49
2023-03-15 22:10:28:912,-0.387587,0.317104,-9.89572,-1.46146,-3.32036,-29.4868
2023-03-15 22:10:28:922,-0.421196,0.271308,-9.8023,-1.44373,-3.31608,-29.4767
2023-03-15 22:10:28:932,-0.481376,0.214589,-9.71057,-1.42627,-3.31439,-29.4581
2023-03-15 22:10:28:942,-0.529462,0.186354,-9.69978,-1.41385,-3.3151,-29.4366
2023-03-15 22:10:28:952,-0.575174,0.256464,-9.75468,-1.40644,-3.31222,-29.4189
2023-03-15 22:10:28:962,-0.610582,0.28151,-9.77943,-1.40002,-3.30652,-29.4005
2023-03-15 22:10:28:972,-0.614558,0.276874,-9.76646,-1.39165,-3.29824,-29.3877
2023-03-15 22:10:28:982,-0.609476,0.277876,-9.73073,-1.38388,-3.28778,-29.38
2023-03-15 22:10:28:992,-0.586166,0.265543,-9.70998,-1.37707,-3.27431,-29.3734
2023-03-15 22:10:29:2,-0.571282,0.26836,-9.72922,-1.3655,-3.26734,-29.3714
2023-03-15 22:10:29:12,-0.561279,0.263721,-9.71859,-1.36025,-3.2616,-29.3757
2023-03-15 22:10:29:22,-0.553934,0.268931,-9.68801,-1.35221,-3.26109,-29.3834
2023-03-15 22:10:29:32,-0.580303,0.261663,-9.70426,-1.34799,-3.26713,-29.394
2023-03-15 22:10:29:42,-0.605888,0.270421,-9.74129,-1.3447,-3.27507,-29.4108
2023-03-15 22:10:29:52,-0.601659,0.274168,-9.75392,-1.33813,-3.28335,-29.4357
2023-03-15 22:10:29:62,-0.603983,0.253129,-9.74812,-1.33042,-3.29259,-29.4655
2023-03-15 22:10:29:72,-0.574849,0.231298,-9.76398,-1.32308,-3.29933,-29.4934
2023-03-15 22:10:29:82,-0.544936,0.252413,-9.80278,-1.31698,-3.31001,-29.5234
2023-03-15 22:10:29:92,-0.534939,0.261707,-9.84546,-1.31048,-3.32442,-29.5568
2023-03-15 22:10:29:102,-0.54163,0.230798,-9.83046,-1.30244,-3.33513,-29.5862
2023-03-15 22:10:29:112,-0.542298,0.22893,-9.80236,-1.28981,-3.34679,-29.6127
2023-03-15 22:10:29:122,-0.535037,0.209528,-9.78238,-1.27667,-3.36178,-29.6367
2023-03-15 22:10:29:132,-0.536922,0.200314,-9.72981,-1.26698,-3.3735,-29.6584
2023-03-15 22:10:29:142,-0.537646,0.174682,-9.67423,-1.26055,-3.38114,-29.6736
2023-03-15 22:10:29:152,-0.523148,0.158454,-9.65305,-1.25599,-3.38556,-29.6826
2023-03-15 22:10:29:162,-0.513835,0.145214,-9.65515,-1.25876,-3.38583,-29.685
2023-03-15 22:10:29:172,-0.520258,0.163601,-9.68253,-1.2645,-3.38724,-29.6905
2023-03-15 22:10:29:182,-0.523014,0.189299,-9.70739,-1.27661,-3.38607,-29.6882
2023-03-15 22:10:29:192,-0.522438,0.20893,-9.69953,-1.29248,-3.38319,-29.6778
2023-03-15 22:10:29:202,-0.529488,0.202186,-9.67962,-1.31072,-3.37802,-29.6642
2023-03-15 22:10:29:212,-0.560086,0.228102,-9.69542,-1.33686,-3.3754,-29.6492
2023-03-15 22:10:29:222,-0.587932,0.253541,-9.74265,-1.36157,-3.37013,-29.6335
2023-03-15 22:10:29:232,-0.601311,0.283764,-9.76255,-1.38347,-3.36326,-29.6197
2023-03-15 22:10:29:242,-0.602887,0.292496,-9.78367,-1.40717,-3.3586,-29.6106
2023-03-15 22:10:29:252,-0.644185,0.287457,-9.74905,-1.42573,-3.34979,-29.5953
2023-03-15 22:10:29:262,-0.674076,0.257964,-9.72586,-1.44167,-3.33918,-29.5854
2023-03-15 22:10:29:272,-0.667693,0.277153,-9.80434,-1.45521,-3.32444,-29.5811
2023-03-15 22:10:29:282,-0.654797,0.302725,-9.88893,-1.4683,-3.30622,-29.5833
2023-03-15 22:10:29:292,-0.607411,0.300272,-9.87724,-1.47646,-3.28753,-29.5924
2023-03-15 22:10:29:302,-0.554041,0.297669,-9.86333,-1.48301,-3.27005,-29.6
2023-03-15 22:10:29:312,-0.526136,0.308097,-9.86506,-1.48701,-3.25842,-29.612
2023-03-15 22:10:29:322,-0.533187,0.306841,-9.83033,-1.49123,-3.25401,-29.6225
2023-03-15 22:10:29:332,-0.568027,0.292705,-9.8109,-1.49564,-3.2515,-29.6384
2023-03-15 22:10:29:342,-0.58727,0.305589,-9.78147,-1.49617,-3.25132,-29.656
2023-03-15 22:10:29:352,-0.580872,0.290471,-9.78811,-1.49772,-3.248,-29.6779
2023-03-15 22:10:29:362,-0.559606,0.296576,-9.77733,-1.49525,-3.24455,-29.7027
2023-03-15 22:10:29:372,-0.542008,0.302944,-9.74225,-1.49567,-3.23998,-29.7238
2023-03-15 22:10:29:382,-0.524166,0.279655,-9.68607,-1.49765,-3.23597,-29.743
2023-03-15 22:10:29:392,-0.514691,0.289818,-9.67965,-1.5035,-3.23215,-29.7589
2023-03-15 22:10:29:402,-0.527471,0.309966,-9.70615,-1.51635,-3.23002,-29.7759
2023-03-15 22:10:29:412,-0.548799,0.318643,-9.7334,-1.5298,-3.2278,-29.7913
2023-03-15 22:10:29:422,-0.583985,0.348657,-9.77896,-1.5417,-3.22622,-29.8082
2023-03-15 22:10:29:432,-0.58694,0.357476,-9.79009,-1.54861,-3.22169,-29.8251
2023-03-15 22:10:29:442,-0.596182,0.362952,-9.80674,-1.54928,-3.21621,-29.8432
2023-03-15 22:10:29:452,-0.583372,0.358213,-9.80799,-1.54609,-3.20718,-29.8603
2023-03-15 22:10:29:462,-0.573706,0.341787,-9.79811,-1.54025,-3.19585,-29.8782
2023-03-15 22:10:29:472,-0.55549,0.291271,-9.73725,-1.53444,-3.18951,-29.8906
2023-03-15 22:10:29:482,-0.566264,0.248935,-9.70658,-1.52922,-3.17729,-29.9046
2023-03-15 22:10:29:492,-0.561515,0.259661,-9.74004,-1.52167,-3.165,-29.9195
2023-03-15 22:10:29:502,-0.553985,0.264385,-9.75158,-1.5187,-3.1533,-29.936
2023-03-15 22:10:29:512,-0.529129,0.231175,-9.71402,-1.51776,-3.14376,-29.9496
2023-03-15 22:10:29:522,-0.540536,0.241661,-9.73627,-1.52391,-3.14067,-29.9628
2023-03-15 22:10:29:532,-0.565661,0.294203,-9.78261,-1.53275,-3.13903,-29.9769
2023-03-15 22:10:29:542,-0.581793,0.3106,-9.808,-1.54182,-3.14311,-29.9895
2023-03-15 22:10:29:552,-0.64827,0.34374,-9.85212,-1.54832,-3.15268,-30.0015
2023-03-15 22:10:29:562,-0.718992,0.385288,-9.87544,-1.55146,-3.158,-30.0178
2023-03-15 22:10:29:572,-0.786164,0.416707,-9.88342,-1.55425,-3.16378,-30.0361
2023-03-15 22:10:29:582,-0.80825,0.452222,-9.88191,-1.54692,-3.16459,-30.0613
2023-03-15 22:10:29:592,-0.815656,0.450051,-9.85131,-1.52618,-3.1528,-30.0899
2023-03-15 22:10:29:602,-0.834312,0.449485,-9.8408,-1.50117,-3.12903,-30.1237
2023-03-15 22:10:29:612,-0.810753,0.41747,-9.82482,-1.47071,-3.09442,-30.1603
2023-03-15 22:10:29:622,-0.777667,0.412054,-9.78123,-1.43591,-3.05039,-30.2018
2023-03-15 22:10:29:632,-0.747074,0.382823,-9.76891,-1.39761,-2.99689,-30.2483
2023-03-15 22:10:29:642,-0.700063,0.370782,-9.7626,-1.3528,-2.93805,-30.2996
2023-03-15 22:10:29:652,-0.624863,0.32863,-9.76529,-1.30695,-2.87213,-30.3545
2023-03-15 22:10:29:662,-0.532114,0.307623,-9.77061,-1.25845,-2.80533,-30.4074
2023-03-15 22:10:29:672,-0.453889,0.289869,-9.80023,-1.20946,-2.73993,-30.4611
2023-03-15 22:10:29:682,-0.388753,0.248258,-9.81506,-1.157,-2.67586,-30.5095
2023-03-15 22:10:29:692,-0.341698,0.220527,-9.81614,-1.10584,-2.61599,-30.5621
2023-03-15 22:10:29:702,-0.307845,0.202865,-9.81081,-1.05033,-2.56132,-30.6158
2023-03-15 22:10:29:712,-0.293361,0.190542,-9.80879,-0.992164,-2.51641,-30.6665
2023-03-15 22:10:29:722,-0.271766,0.167925,-9.80071,-0.937402,-2.46971,-30.7097
2023-03-15 22:10:29:732,-0.223802,0.140159,-9.78702,-0.876578,-2.42978,-30.752
2023-03-15 22:10:29:742,-0.192094,0.0979228,-9.77627,-0.820909,-2.3954,-30.7867
2023-03-15 22:10:29:752,-0.176762,0.0652318,-9.76458,-0.766436,-2.3667,-30.8183
2023-03-15 22:10:29:762,-0.155447,0.0319429,-9.72673,-0.71471,-2.33939,-30.8433
2023-03-15 22:10:29:772,-0.159706,-0.00491182,-9.70264,-0.664895,-2.31521,-30.8612
2023-03-15 22:10:29:782,-0.168519,-0.0222965,-9.69054,-0.622867,-2.29833,-30.8788
2023-03-15 22:10:29:792,-0.194318,-0.0284187,-9.67165,-0.582566,-2.28566,-30.8867
2023-03-15 22:10:29:802,-0.208337,-0.0498978,-9.64933,-0.54839,-2.27054,-30.8874
2023-03-15 22:10:29:812,-0.222567,-0.061431,-9.64741,-0.516111,-2.25808,-30.8832
2023-03-15 22:10:29:822,-0.262141,-0.0558909,-9.654,-0.496018,-2.24627,-30.875
2023-03-15 22:10:29:832,-0.276934,-0.0542103,-9.69574,-0.473137,-2.23442,-30.8637
2023-03-15 22:10:29:842,-0.28378,-0.0768304,-9.72831,-0.456868,-2.22293,-30.8473
2023-03-15 22:10:29:852,-0.299596,-0.0705136,-9.71908,-0.440486,-2.20899,-30.832
2023-03-15 22:10:29:862,-0.312094,-0.0795622,-9.67549,-0.424635,-2.19604,-30.8152
2023-03-15 22:10:29:872,-0.342021,-0.0891825,-9.66345,-0.414771,-2.1842,-30.7994
2023-03-15 22:10:29:882,-0.363604,-0.0916526,-9.70152,-0.407877,-2.17399,-30.7852
2023-03-15 22:10:29:891,-0.379322,-0.0880746,-9.71476,-0.404349,-2.1635,-30.7743
2023-03-15 22:10:29:901,-0.368867,-0.0906394,-9.69473,-0.405681,-2.15753,-30.7654
2023-03-15 22:10:29:911,-0.382998,-0.112309,-9.66608,-0.414454,-2.15287,-30.7597
2023-03-15 22:10:29:922,-0.39692,-0.0918973,-9.64875,-0.431655,-2.15434,-30.7564
2023-03-15 22:10:29:931,-0.409019,-0.0679007,-9.64477,-0.452732,-2.15378,-30.7542
2023-03-15 22:10:29:941,-0.415246,-0.0479284,-9.64277,-0.484061,-2.15332,-30.7604
2023-03-15 22:10:29:951,-0.413824,-0.0307703,-9.63216,-0.524791,-2.15872,-30.7702
2023-03-15 22:10:29:962,-0.401175,0.00442731,-9.64326,-0.577284,-2.16663,-30.7802
2023-03-15 22:10:29:972,-0.381058,0.0425055,-9.68618,-0.634957,-2.17241,-30.7939
2023-03-15 22:10:29:982,-0.353888,0.0821829,-9.71953,-0.696053,-2.17773,-30.81
2023-03-15 22:10:29:992,-0.336966,0.124885,-9.73413,-0.761764,-2.18767,-30.8279
2023-03-15 22:10:30:2,-0.329153,0.166599,-9.75268,-0.828924,-2.19726,-30.8414
2023-03-15 22:10:30:12,-0.34529,0.201717,-9.76161,-0.89774,-2.20584,-30.8542
2023-03-15 22:10:30:22,-0.339351,0.216785,-9.77304,-0.960072,-2.2189,-30.8709
2023-03-15 22:10:30:32,-0.340953,0.245331,-9.80262,-1.02323,-2.2295,-30.8847
2023-03-15 22:10:30:42,-0.350947,0.271263,-9.84915,-1.08328,-2.23727,-30.8935
2023-03-15 22:10:30:52,-0.333278,0.297046,-9.87519,-1.13864,-2.2413,-30.9034
2023-03-15 22:10:30:62,-0.314895,0.299368,-9.8663,-1.18733,-2.24441,-30.9106
2023-03-15 22:10:30:72,-0.306006,0.300219,-9.86015,-1.22838,-2.24939,-30.9149
2023-03-15 22:10:30:82,-0.30011,0.295158,-9.86124,-1.26095,-2.25458,-30.9198
2023-03-15 22:10:30:92,-0.318571,0.289779,-9.87182,-1.28731,-2.25842,-30.9204
2023-03-15 22:10:30:102,-0.305585,0.283705,-9.87078,-1.31391,-2.26558,-30.9195
2023-03-15 22:10:30:112,-0.283473,0.278064,-9.84461,-1.33549,-2.2678,-30.9182
2023-03-15 22:10:30:122,-0.284753,0.281301,-9.84032,-1.35446,-2.27748,-30.9138
2023-03-15 22:10:30:132,-0.294263,0.288771,-9.84813,-1.37502,-2.292,-30.91
2023-03-15 22:10:30:142,-0.31049,0.297908,-9.84767,-1.3948,-2.30558,-30.9016
2023-03-15 22:10:30:152,-0.334655,0.301493,-9.83949,-1.409,-2.31934,-30.8952
2023-03-15 22:10:30:162,-0.356269,0.295198,-9.85287,-1.42284,-2.33535,-30.8871
2023-03-15 22:10:30:172,-0.354194,0.28284,-9.84382,-1.43104,-2.34701,-30.8729
2023-03-15 22:10:30:182,-0.343932,0.286382,-9.81159,-1.4382,-2.35903,-30.8584
2023-03-15 22:10:30:192,-0.360532,0.286111,-9.78383,-1.44403,-2.36876,-30.8436
2023-03-15 22:10:30:202,-0.352865,0.280584,-9.75191,-1.44971,-2.37981,-30.8255
2023-03-15 22:10:30:212,-0.364388,0.27581,-9.72587,-1.45741,-2.38943,-30.8086
2023-03-15 22:10:30:222,-0.397539,0.292885,-9.72463,-1.46327,-2.39972,-30.7907
2023-03-15 22:10:30:232,-0.409921,0.297161,-9.73101,-1.47237,-2.41033,-30.7695
2023-03-15 22:10:30:242,-0.408373,0.293302,-9.74302,-1.48537,-2.41557,-30.7556
2023-03-15 22:10:30:252,-0.388708,0.295029,-9.77943,-1.49226,-2.42674,-30.7387
2023-03-15 22:10:30:262,-0.383609,0.307966,-9.79667,-1.50031,-2.43861,-30.7227
2023-03-15 22:10:30:272,-0.381361,0.305611,-9.81096,-1.50675,-2.45332,-30.7079
2023-03-15 22:10:30:282,-0.375107,0.303491,-9.81581,-1.50718,-2.47052,-30.6938
2023-03-15 22:10:30:292,-0.369424,0.309284,-9.80323,-1.50933,-2.48773,-30.6775
2023-03-15 22:10:30:302,-0.372646,0.315975,-9.80892,-1.51244,-2.50452,-30.6627
2023-03-15 22:10:30:312,-0.374023,0.314507,-9.81157,-1.51356,-2.52355,-30.6494
2023-03-15 22:10:30:322,-0.376927,0.323043,-9.82766,-1.5106,-2.54677,-30.6366
2023-03-15 22:10:30:332,-0.386806,0.332481,-9.85064,-1.5088,-2.56839,-30.619
2023-03-15 22:10:30:342,-0.375377,0.339826,-9.8758,-1.50287,-2.58925,-30.5987
2023-03-15 22:10:30:352,-0.392789,0.339136,-9.87042,-1.49483,-2.61562,-30.5812
2023-03-15 22:10:30:362,-0.428723,0.323657,-9.84846,-1.47743,-2.64339,-30.5631
2023-03-15 22:10:30:372,-0.450984,0.326893,-9.82244,-1.45793,-2.67287,-30.5402
2023-03-15 22:10:30:382,-0.467402,0.309878,-9.78282,-1.43734,-2.70118,-30.5183
2023-03-15 22:10:30:392,-0.493109,0.293285,-9.77062,-1.41192,-2.72705,-30.4969
2023-03-15 22:10:30:402,-0.533278,0.294438,-9.77475,-1.38838,-2.7478,-30.4808
2023-03-15 22:10:30:412,-0.568867,0.285752,-9.77701,-1.3587,-2.76992,-30.4655
2023-03-15 22:10:30:422,-0.589958,0.264743,-9.76508,-1.33095,-2.78834,-30.4497
2023-03-15 22:10:30:432,-0.599378,0.27047,-9.75057,-1.2997,-2.80976,-30.4335
2023-03-15 22:10:30:442,-0.644118,0.263413,-9.73716,-1.26977,-2.8227,-30.4219
2023-03-15 22:10:30:452,-0.683522,0.238218,-9.76868,-1.23477,-2.82983,-30.4149
2023-03-15 22:10:30:462,-0.690899,0.244106,-9.81587,-1.19852,-2.82909,-30.4102
2023-03-15 22:10:30:472,-0.651143,0.241146,-9.83753,-1.15726,-2.825,-30.4136
2023-03-15 22:10:30:482,-0.586506,0.210429,-9.82247,-1.11085,-2.82074,-30.422
2023-03-15 22:10:30:492,-0.560479,0.17663,-9.77866,-1.06786,-2.81994,-30.4314
2023-03-15 22:10:30:502,-0.538512,0.148839,-9.72422,-1.02595,-2.82475,-30.4408
2023-03-15 22:10:30:512,-0.529594,0.120497,-9.68384,-0.98807,-2.83004,-30.4529
2023-03-15 22:10:30:522,-0.525165,0.108517,-9.60541,-0.954905,-2.83537,-30.4655
2023-03-15 22:10:30:532,-0.535606,0.095715,-9.58137,-0.933896,-2.83927,-30.4811
2023-03-15 22:10:30:542,-0.527015,0.0839864,-9.60477,-0.921351,-2.83698,-30.4957
2023-03-15 22:10:30:552,-0.494451,0.0882606,-9.62428,-0.917213,-2.83777,-30.5115
2023-03-15 22:10:30:562,-0.464132,0.126584,-9.65733,-0.922797,-2.83938,-30.5265
2023-03-15 22:10:30:572,-0.441414,0.15299,-9.70632,-0.934827,-2.83728,-30.5422
2023-03-15 22:10:30:582,-0.416407,0.161604,-9.73341,-0.944996,-2.83475,-30.5497
2023-03-15 22:10:30:592,-0.427584,0.161855,-9.73183,-0.957488,-2.83496,-30.5564
2023-03-15 22:10:30:602,-0.42969,0.167978,-9.72843,-0.970593,-2.83157,-30.5657
2023-03-15 22:10:30:612,-0.424136,0.165468,-9.752,-0.983043,-2.8323,-30.5698
2023-03-15 22:10:30:622,-0.42215,0.169238,-9.75181,-0.993786,-2.83404,-30.5734
2023-03-15 22:10:30:632,-0.417305,0.18104,-9.75061,-1.00743,-2.8374,-30.5753
2023-03-15 22:10:30:642,-0.411763,0.181841,-9.73964,-1.02236,-2.83752,-30.577
2023-03-15 22:10:30:652,-0.430225,0.192598,-9.72651,-1.03667,-2.84355,-30.5806
2023-03-15 22:10:30:662,-0.454647,0.187855,-9.73711,-1.05472,-2.85075,-30.583
2023-03-15 22:10:30:672,-0.479798,0.219469,-9.78416,-1.07196,-2.85838,-30.5879
2023-03-15 22:10:30:682,-0.495113,0.252726,-9.83675,-1.08942,-2.86553,-30.5917
2023-03-15 22:10:30:692,-0.494114,0.229364,-9.84128,-1.10167,-2.87196,-30.5939
2023-03-15 22:10:30:702,-0.491255,0.222391,-9.84167,-1.10843,-2.87721,-30.5989
2023-03-15 22:10:30:712,-0.499972,0.219048,-9.84822,-1.11302,-2.88519,-30.605
2023-03-15 22:10:30:722,-0.484344,0.204159,-9.82461,-1.11753,-2.89928,-30.6084
2023-03-15 22:10:30:732,-0.500442,0.19215,-9.77066,-1.12065,-2.90799,-30.6111
2023-03-15 22:10:30:742,-0.510008,0.185063,-9.73295,-1.12974,-2.91488,-30.6176
2023-03-15 22:10:30:752,-0.51575,0.17568,-9.71158,-1.13757,-2.9242,-30.6246
2023-03-15 22:10:30:762,-0.49997,0.176267,-9.70948,-1.14836,-2.93229,-30.6289
2023-03-15 22:10:30:772,-0.497038,0.200676,-9.71563,-1.1604,-2.93622,-30.6303
2023-03-15 22:10:30:782,-0.497321,0.207318,-9.72662,-1.17761,-2.94415,-30.6338
2023-03-15 22:10:30:792,-0.493744,0.207108,-9.74418,-1.1893,-2.95056,-30.6369
2023-03-15 22:10:30:802,-0.502011,0.208494,-9.74061,-1.20828,-2.95512,-30.6403
2023-03-15 22:10:30:812,-0.513427,0.213982,-9.73493,-1.2244,-2.96315,-30.643
2023-03-15 22:10:30:822,-0.52202,0.219225,-9.74038,-1.24194,-2.96812,-30.6455
2023-03-15 22:10:30:832,-0.521826,0.221763,-9.74389,-1.26625,-2.97715,-30.6497
2023-03-15 22:10:30:842,-0.538204,0.240414,-9.75728,-1.28583,-2.98369,-30.6526
2023-03-15 22:10:30:852,-0.530144,0.246444,-9.76097,-1.30708,-2.99186,-30.6574
2023-03-15 22:10:30:862,-0.522954,0.252931,-9.78382,-1.32544,-3.00027,-30.663
2023-03-15 22:10:30:872,-0.533651,0.265092,-9.8069,-1.34298,-3.00849,-30.6672
2023-03-15 22:10:30:882,-0.527419,0.273602,-9.81609,-1.35835,-3.01677,-30.6723
2023-03-15 22:10:30:892,-0.528479,0.277705,-9.82479,-1.37316,-3.02772,-30.6782
2023-03-15 22:10:30:902,-0.530784,0.280471,-9.81934,-1.3862,-3.03576,-30.6826
2023-03-15 22:10:30:912,-0.532368,0.281549,-9.81462,-1.3988,-3.04492,-30.6855
2023-03-15 22:10:30:922,-0.525776,0.270818,-9.81286,-1.40957,-3.05402,-30.6864
2023-03-15 22:10:30:932,-0.539472,0.279982,-9.80919,-1.4198,-3.06188,-30.6854
2023-03-15 22:10:30:942,-0.548612,0.280573,-9.79424,-1.42436,-3.06892,-30.683
2023-03-15 22:10:30:952,-0.557705,0.293154,-9.79478,-1.42749,-3.07657,-30.6837
2023-03-15 22:10:30:962,-0.556544,0.306095,-9.77976,-1.42877,-3.08201,-30.6848
2023-03-15 22:10:30:972,-0.569899,0.296093,-9.76634,-1.42782,-3.08679,-30.686
2023-03-15 22:10:30:982,-0.561944,0.302055,-9.76248,-1.42708,-3.08811,-30.6847
2023-03-15 22:10:30:992,-0.574459,0.31514,-9.79106,-1.42186,-3.09047,-30.6871
2023-03-15 22:10:31:2,-0.580249,0.3261,-9.81427,-1.41155,-3.09247,-30.6838
2023-03-15 22:10:31:12,-0.577839,0.32206,-9.83992,-1.39476,-3.09294,-30.6815
2023-03-15 22:10:31:22,-0.60211,0.319718,-9.85109,-1.36779,-3.09472,-30.6806
2023-03-15 22:10:31:32,-0.616936,0.29468,-9.84295,-1.33804,-3.0958,-30.6777
2023-03-15 22:10:31:42,-0.632852,0.258451,-9.86175,-1.30003,-3.09048,-30.6764
2023-03-15 22:10:31:52,-0.644135,0.237981,-9.91542,-1.25313,-3.08229,-30.6774
2023-03-15 22:10:31:62,-0.613515,0.22418,-9.94025,-1.20022,-3.07458,-30.6794
2023-03-15 22:10:31:72,-0.558916,0.182654,-9.90101,-1.1426,-3.06405,-30.6793
2023-03-15 22:10:31:82,-0.530287,0.123153,-9.85321,-1.07744,-3.05741,-30.6804
2023-03-15 22:10:31:92,-0.547883,0.0999637,-9.79318,-1.0152,-3.05605,-30.685
2023-03-15 22:10:31:102,-0.538493,0.0568074,-9.73439,-0.955049,-3.05785,-30.6935
2023-03-15 22:10:31:112,-0.51734,0.00779912,-9.66643,-0.90363,-3.06094,-30.6964
2023-03-15 22:10:31:122,-0.527743,-0.0108487,-9.63053,-0.861154,-3.06646,-30.7006
2023-03-15 22:10:31:132,-0.533612,-0.024406,-9.63145,-0.831493,-3.07192,-30.7064
2023-03-15 22:10:31:142,-0.517046,-0.0277119,-9.63469,-0.807106,-3.07984,-30.7092
2023-03-15 22:10:31:152,-0.481992,-0.0154566,-9.65857,-0.794886,-3.08625,-30.7115
2023-03-15 22:10:31:162,-0.475293,0.000708118,-9.66311,-0.788235,-3.09431,-30.7096
2023-03-15 22:10:31:172,-0.494088,0.0364568,-9.66252,-0.785785,-3.10282,-30.7044
2023-03-15 22:10:31:182,-0.511102,0.0305147,-9.66272,-0.788489,-3.10853,-30.6959
2023-03-15 22:10:31:192,-0.520559,0.0466477,-9.64436,-0.796332,-3.1109,-30.6885
2023-03-15 22:10:31:202,-0.537377,0.065408,-9.67388,-0.809807,-3.11154,-30.6752
2023-03-15 22:10:31:212,-0.566608,0.0818961,-9.68616,-0.825498,-3.11066,-30.6644
2023-03-15 22:10:31:222,-0.583055,0.0965311,-9.69036,-0.837351,-3.10539,-30.6555
2023-03-15 22:10:31:232,-0.570226,0.108996,-9.69623,-0.854143,-3.09639,-30.6457
2023-03-15 22:10:31:242,-0.560097,0.125391,-9.67118,-0.874185,-3.08968,-30.638
2023-03-15 22:10:31:252,-0.567328,0.11958,-9.67513,-0.896057,-3.08444,-30.6306
2023-03-15 22:10:31:262,-0.577585,0.124114,-9.71011,-0.920192,-3.07816,-30.6258
2023-03-15 22:10:31:272,-0.56252,0.15026,-9.76201,-0.945222,-3.07035,-30.6218
2023-03-15 22:10:31:282,-0.550887,0.165302,-9.79767,-0.970249,-3.06916,-30.6238
2023-03-15 22:10:31:292,-0.522253,0.173373,-9.81262,-0.996093,-3.06547,-30.6259
2023-03-15 22:10:31:302,-0.512494,0.181303,-9.83483,-1.01978,-3.06234,-30.6324
2023-03-15 22:10:31:312,-0.496479,0.194709,-9.83344,-1.04029,-3.06057,-30.6391
2023-03-15 22:10:31:322,-0.497455,0.196642,-9.83247,-1.05904,-3.05965,-30.6475
2023-03-15 22:10:31:332,-0.506549,0.237852,-9.8205,-1.07975,-3.0617,-30.6517
2023-03-15 22:10:31:342,-0.494884,0.261026,-9.82171,-1.0972,-3.06558,-30.6591
2023-03-15 22:10:31:352,-0.449292,0.301752,-9.85477,-1.11097,-3.0656,-30.6622
2023-03-15 22:10:31:362,-0.415219,0.350769,-9.89384,-1.12,-3.06486,-30.6655
2023-03-15 22:10:31:372,-0.368671,0.377962,-9.88383,-1.12494,-3.06661,-30.6652
2023-03-15 22:10:31:382,-0.341819,0.367083,-9.86222,-1.12723,-3.0691,-30.6577
2023-03-15 22:10:31:392,-0.330969,0.380397,-9.85185,-1.12275,-3.07637,-30.6486
2023-03-15 22:10:31:402,-0.326832,0.39512,-9.84458,-1.11185,-3.08796,-30.6361
2023-03-15 22:10:31:412,-0.347453,0.380877,-9.83983,-1.1012,-3.10642,-30.6167
2023-03-15 22:10:31:422,-0.399948,0.350149,-9.84002,-1.08688,-3.12864,-30.5924
2023-03-15 22:10:31:432,-0.431738,0.34116,-9.82958,-1.06661,-3.15114,-30.5636
2023-03-15 22:10:31:442,-0.459308,0.32689,-9.82785,-1.04442,-3.17767,-30.5349
2023-03-15 22:10:31:452,-0.485725,0.309821,-9.81515,-1.02031,-3.20854,-30.5014
2023-03-15 22:10:31:462,-0.53064,0.297263,-9.80853,-0.994925,-3.23483,-30.4727
2023-03-15 22:10:31:472,-0.566131,0.269157,-9.80242,-0.969306,-3.26475,-30.4396
2023-03-15 22:10:31:482,-0.598506,0.256278,-9.77613,-0.941583,-3.29251,-30.4076
2023-03-15 22:10:31:492,-0.622329,0.217449,-9.76749,-0.912442,-3.31909,-30.3743
2023-03-15 22:10:31:502,-0.655149,0.192276,-9.74552,-0.884826,-3.34572,-30.3427
2023-03-15 22:10:31:512,-0.673803,0.162499,-9.7377,-0.857829,-3.37064,-30.315
2023-03-15 22:10:31:522,-0.701797,0.155889,-9.71019,-0.832973,-3.39255,-30.2876
2023-03-15 22:10:31:532,-0.72062,0.141877,-9.70173,-0.810384,-3.40949,-30.2671
2023-03-15 22:10:31:542,-0.725484,0.124023,-9.68862,-0.790635,-3.42167,-30.2465
2023-03-15 22:10:31:552,-0.733884,0.109615,-9.69487,-0.7774,-3.43273,-30.2344
2023-03-15 22:10:31:562,-0.739789,0.0945779,-9.69035,-0.762665,-3.44199,-30.2252
2023-03-15 22:10:31:572,-0.736314,0.100825,-9.6712,-0.752165,-3.44437,-30.2196
2023-03-15 22:10:31:582,-0.724797,0.102371,-9.66873,-0.7483,-3.44889,-30.2174
2023-03-15 22:10:31:592,-0.709751,0.0928693,-9.67492,-0.748839,-3.44574,-30.2222
2023-03-15 22:10:31:602,-0.676924,0.0713544,-9.6702,-0.749089,-3.44288,-30.2296
2023-03-15 22:10:31:612,-0.681012,0.0757609,-9.65963,-0.756763,-3.44349,-30.2401
2023-03-15 22:10:31:622,-0.656282,0.0874252,-9.67675,-0.76304,-3.43948,-30.2544
2023-03-15 22:10:31:632,-0.63244,0.0916576,-9.69025,-0.776628,-3.43573,-30.2729
2023-03-15 22:10:31:642,-0.612283,0.0951796,-9.71336,-0.792105,-3.43265,-30.2921
2023-03-15 22:10:31:652,-0.583713,0.10069,-9.70703,-0.809395,-3.42741,-30.3096
2023-03-15 22:10:31:662,-0.575267,0.0948881,-9.71188,-0.827182,-3.42088,-30.3264
2023-03-15 22:10:31:672,-0.549635,0.0838156,-9.73465,-0.844598,-3.41364,-30.3424
2023-03-15 22:10:31:682,-0.51895,0.0824946,-9.74138,-0.865645,-3.40676,-30.3557
2023-03-15 22:10:31:692,-0.47511,0.0986575,-9.72706,-0.885072,-3.40573,-30.3644
2023-03-15 22:10:31:702,-0.462591,0.11059,-9.69852,-0.911103,-3.40367,-30.371
2023-03-15 22:10:31:712,-0.465115,0.103157,-9.6647,-0.93942,-3.40042,-30.3704
2023-03-15 22:10:31:722,-0.472697,0.110297,-9.68365,-0.971018,-3.39924,-30.3677
2023-03-15 22:10:31:732,-0.498382,0.14758,-9.76529,-1.00536,-3.39786,-30.3628
2023-03-15 22:10:31:742,-0.501107,0.187733,-9.83923,-1.03703,-3.39612,-30.3571
2023-03-15 22:10:31:752,-0.463248,0.211111,-9.85557,-1.06908,-3.39664,-30.3511
2023-03-15 22:10:31:762,-0.465732,0.206277,-9.84757,-1.10377,-3.40315,-30.3434
2023-03-15 22:10:31:772,-0.512097,0.226641,-9.81391,-1.13689,-3.4165,-30.3352
2023-03-15 22:10:31:782,-0.550745,0.23047,-9.78309,-1.17049,-3.43001,-30.3266
2023-03-15 22:10:31:792,-0.603197,0.245443,-9.75138,-1.20264,-3.44571,-30.32
2023-03-15 22:10:31:802,-0.653075,0.266963,-9.73441,-1.23491,-3.45818,-30.3111
2023-03-15 22:10:31:812,-0.679398,0.28176,-9.74744,-1.27189,-3.46957,-30.3059
2023-03-15 22:10:31:822,-0.674858,0.304941,-9.76667,-1.30911,-3.47639,-30.3028
2023-03-15 22:10:31:832,-0.65705,0.327326,-9.79724,-1.34589,-3.47768,-30.2993
2023-03-15 22:10:31:842,-0.654539,0.342838,-9.7924,-1.38288,-3.47786,-30.2934
2023-03-15 22:10:31:852,-0.674582,0.357821,-9.78171,-1.41357,-3.47755,-30.287
2023-03-15 22:10:31:862,-0.684374,0.378563,-9.77295,-1.44506,-3.47252,-30.2842
2023-03-15 22:10:31:872,-0.682304,0.380039,-9.77476,-1.47019,-3.463,-30.2827
2023-03-15 22:10:31:882,-0.690482,0.388126,-9.78554,-1.49312,-3.45042,-30.282
2023-03-15 22:10:31:892,-0.690707,0.382813,-9.7886,-1.51349,-3.43614,-30.2885
2023-03-15 22:10:31:902,-0.681076,0.387392,-9.80926,-1.5246,-3.42128,-30.2953
2023-03-15 22:10:31:912,-0.665161,0.400611,-9.83197,-1.53654,-3.40248,-30.3119
2023-03-15 22:10:31:922,-0.639202,0.399876,-9.83492,-1.54288,-3.38605,-30.3318
2023-03-15 22:10:31:932,-0.612744,0.383178,-9.82829,-1.54557,-3.36842,-30.3511
2023-03-15 22:10:31:942,-0.601635,0.366173,-9.83027,-1.54248,-3.35054,-30.3723
2023-03-15 22:10:31:952,-0.578171,0.356545,-9.85319,-1.53591,-3.33451,-30.3956
2023-03-15 22:10:31:962,-0.567683,0.342633,-9.8499,-1.53031,-3.32276,-30.4257
2023-03-15 22:10:31:972,-0.546488,0.327445,-9.83487,-1.51941,-3.30706,-30.4524
2023-03-15 22:10:31:982,-0.516284,0.296288,-9.81157,-1.50325,-3.29493,-30.4799
2023-03-15 22:10:31:992,-0.482109,0.274296,-9.78666,-1.48978,-3.2842,-30.506
2023-03-15 22:10:32:2,-0.483318,0.262594,-9.77515,-1.47659,-3.27868,-30.528
2023-03-15 22:10:32:12,-0.498474,0.260778,-9.76005,-1.46632,-3.27522,-30.5498
2023-03-15 22:10:32:22,-0.490266,0.244827,-9.75064,-1.45422,-3.2693,-30.5681
2023-03-15 22:10:32:32,-0.493356,0.245676,-9.733,-1.44377,-3.26053,-30.5824
2023-03-15 22:10:32:42,-0.481685,0.242229,-9.72394,-1.43673,-3.2507,-30.5927
2023-03-15 22:10:32:52,-0.475998,0.230185,-9.71566,-1.43189,-3.24259,-30.5979
2023-03-15 22:10:32:62,-0.481761,0.241349,-9.72352,-1.42888,-3.23385,-30.6003
2023-03-15 22:10:32:72,-0.501941,0.248376,-9.71637,-1.42574,-3.22546,-30.6035
2023-03-15 22:10:32:82,-0.517861,0.249015,-9.70444,-1.42284,-3.21861,-30.6014
2023-03-15 22:10:32:92,-0.524044,0.245877,-9.69559,-1.42184,-3.21376,-30.6013
2023-03-15 22:10:32:102,-0.540048,0.259011,-9.71652,-1.42747,-3.21003,-30.604
2023-03-15 22:10:32:112,-0.56193,0.279474,-9.75526,-1.4337,-3.20956,-30.6047
2023-03-15 22:10:32:122,-0.562524,0.276208,-9.76197,-1.4385,-3.20439,-30.6055
2023-03-15 22:10:32:132,-0.567401,0.289221,-9.77985,-1.44478,-3.20166,-30.6121
2023-03-15 22:10:32:142,-0.582734,0.304798,-9.79591,-1.4529,-3.19972,-30.6186
2023-03-15 22:10:32:152,-0.579499,0.30555,-9.79237,-1.45913,-3.19874,-30.6238
2023-03-15 22:10:32:162,-0.564602,0.293547,-9.81089,-1.4589,-3.19826,-30.6306
2023-03-15 22:10:32:172,-0.562806,0.284453,-9.80494,-1.45835,-3.19662,-30.6408
2023-03-15 22:10:32:182,-0.557837,0.278398,-9.80091,-1.45704,-3.19789,-30.6472
2023-03-15 22:10:32:192,-0.564526,0.264841,-9.78121,-1.45577,-3.19506,-30.6572
2023-03-15 22:10:32:202,-0.566633,0.273138,-9.75428,-1.45497,-3.19306,-30.6647
2023-03-15 22:10:32:212,-0.566952,0.281216,-9.74718,-1.45441,-3.18984,-30.672
2023-03-15 22:10:32:222,-0.551678,0.260563,-9.74351,-1.45286,-3.18312,-30.6771
2023-03-15 22:10:32:232,-0.545763,0.26554,-9.73328,-1.45385,-3.17987,-30.6782
2023-03-15 22:10:32:242,-0.554935,0.27004,-9.74125,-1.45435,-3.17389,-30.6768
2023-03-15 22:10:32:252,-0.56169,0.276083,-9.7576,-1.45313,-3.16704,-30.681
2023-03-15 22:10:32:262,-0.564961,0.28239,-9.77155,-1.45408,-3.15738,-30.6825
2023-03-15 22:10:32:272,-0.546769,0.275156,-9.77496,-1.45201,-3.1457,-30.6836
2023-03-15 22:10:32:282,-0.543553,0.281288,-9.7695,-1.44815,-3.13615,-30.6883
2023-03-15 22:10:32:292,-0.534888,0.279955,-9.76625,-1.44648,-3.13043,-30.6923
2023-03-15 22:10:32:302,-0.534652,0.275599,-9.75975,-1.44205,-3.126,-30.6952
2023-03-15 22:10:32:312,-0.523278,0.271846,-9.76828,-1.44017,-3.1231,-30.697
2023-03-15 22:10:32:322,-0.520807,0.288449,-9.76807,-1.43774,-3.11906,-30.6996
2023-03-15 22:10:32:332,-0.503239,0.272022,-9.77823,-1.43502,-3.11547,-30.7032
2023-03-15 22:10:32:342,-0.48874,0.244475,-9.75495,-1.43684,-3.11457,-30.7066
2023-03-15 22:10:32:352,-0.484314,0.254247,-9.75619,-1.43802,-3.11752,-30.714
2023-03-15 22:10:32:362,-0.504689,0.277569,-9.80673,-1.43814,-3.11561,-30.7146
2023-03-15 22:10:32:372,-0.480099,0.274019,-9.82255,-1.43645,-3.11617,-30.7137
2023-03-15 22:10:32:382,-0.47466,0.262459,-9.80397,-1.4327,-3.1188,-30.7134
2023-03-15 22:10:32:392,-0.497417,0.254471,-9.78843,-1.42297,-3.124,-30.7085
2023-03-15 22:10:32:402,-0.514619,0.241412,-9.75467,-1.41645,-3.12448,-30.7027
2023-03-15 22:10:32:412,-0.54696,0.215254,-9.75558,-1.40896,-3.1238,-30.6948
2023-03-15 22:10:32:422,-0.55457,0.232445,-9.81353,-1.39957,-3.12068,-30.6862
2023-03-15 22:10:32:432,-0.529875,0.241962,-9.84889,-1.38984,-3.11659,-30.6773
2023-03-15 22:10:32:442,-0.488107,0.222729,-9.82976,-1.37394,-3.11376,-30.6714
2023-03-15 22:10:32:452,-0.489326,0.218138,-9.79044,-1.35889,-3.11521,-30.6668
2023-03-15 22:10:32:462,-0.511822,0.212197,-9.75926,-1.3421,-3.12232,-30.6616
2023-03-15 22:10:32:472,-0.530526,0.189078,-9.7204,-1.33339,-3.1302,-30.6615
2023-03-15 22:10:32:482,-0.569886,0.1776,-9.67894,-1.3218,-3.13971,-30.6607
2023-03-15 22:10:32:492,-0.614582,0.179466,-9.66356,-1.31875,-3.1468,-30.6643
2023-03-15 22:10:32:502,-0.614717,0.192638,-9.67076,-1.31721,-3.15027,-30.6658
2023-03-15 22:10:32:512,-0.577476,0.179332,-9.70363,-1.31912,-3.15334,-30.6679
2023-03-15 22:10:32:522,-0.55475,0.192435,-9.73071,-1.32678,-3.15375,-30.6688
2023-03-15 22:10:32:532,-0.551784,0.211229,-9.7267,-1.33151,-3.1507,-30.6703
2023-03-15 22:10:32:542,-0.555914,0.212501,-9.70783,-1.33976,-3.15047,-30.6728
2023-03-15 22:10:32:552,-0.566006,0.237308,-9.70185,-1.34938,-3.14597,-30.6745
2023-03-15 22:10:32:562,-0.572585,0.271757,-9.7151,-1.3602,-3.13955,-30.6758
2023-03-15 22:10:32:572,-0.569937,0.286095,-9.74783,-1.37284,-3.13061,-30.6824
2023-03-15 22:10:32:582,-0.574125,0.300596,-9.77975,-1.37829,-3.12204,-30.6904
2023-03-15 22:10:32:592,-0.561695,0.297737,-9.7978,-1.38081,-3.11308,-30.6992
2023-03-15 22:10:32:602,-0.544844,0.282368,-9.80585,-1.38313,-3.10346,-30.7146
2023-03-15 22:10:32:612,-0.539727,0.283229,-9.80907,-1.38538,-3.09456,-30.7251
2023-03-15 22:10:32:622,-0.527184,0.280835,-9.77795,-1.38413,-3.08672,-30.7403
2023-03-15 22:10:32:632,-0.510917,0.273604,-9.77005,-1.38286,-3.07689,-30.7565
2023-03-15 22:10:32:642,-0.50674,0.268189,-9.79742,-1.3836,-3.06532,-30.7722
2023-03-15 22:10:32:652,-0.510878,0.272818,-9.8206,-1.38474,-3.05821,-30.7942
2023-03-15 22:10:32:662,-0.490833,0.27729,-9.8132,-1.38437,-3.05112,-30.8133
2023-03-15 22:10:32:672,-0.444922,0.262369,-9.80639,-1.38159,-3.04235,-30.8273
2023-03-15 22:10:32:682,-0.428388,0.257738,-9.82545,-1.38111,-3.0374,-30.8394
2023-03-15 22:10:32:692,-0.4249,0.264864,-9.83721,-1.37412,-3.03129,-30.8491
2023-03-15 22:10:32:702,-0.399486,0.229878,-9.80216,-1.36643,-3.02508,-30.8555
2023-03-15 22:10:32:712,-0.39036,0.213158,-9.74528,-1.35875,-3.02484,-30.8597
2023-03-15 22:10:32:722,-0.403439,0.209814,-9.73238,-1.3537,-3.0237,-30.8601
2023-03-15 22:10:32:732,-0.408642,0.215161,-9.71368,-1.3542,-3.026,-30.8542
2023-03-15 22:10:32:742,-0.412664,0.230487,-9.71194,-1.35462,-3.02599,-30.8448
2023-03-15 22:10:32:752,-0.422034,0.233666,-9.71453,-1.35698,-3.02599,-30.8351
2023-03-15 22:10:32:762,-0.43757,0.235739,-9.72615,-1.35853,-3.0257,-30.8189
2023-03-15 22:10:32:772,-0.460884,0.228067,-9.7425,-1.3588,-3.02527,-30.8042
2023-03-15 22:10:32:782,-0.48073,0.240093,-9.75104,-1.36334,-3.02471,-30.7858
2023-03-15 22:10:32:792,-0.503834,0.250547,-9.76709,-1.36529,-3.02641,-30.7692
2023-03-15 22:10:32:802,-0.525634,0.262864,-9.78996,-1.36706,-3.02835,-30.7573
2023-03-15 22:10:32:812,-0.544797,0.268886,-9.78777,-1.3669,-3.02856,-30.7456
2023-03-15 22:10:32:822,-0.554082,0.270367,-9.80213,-1.36705,-3.02741,-30.7383
2023-03-15 22:10:32:832,-0.555174,0.272338,-9.79636,-1.36852,-3.03169,-30.7346
2023-03-15 22:10:32:842,-0.540796,0.271766,-9.78847,-1.36602,-3.03726,-30.7362
2023-03-15 22:10:32:852,-0.528474,0.261468,-9.79423,-1.36253,-3.04261,-30.739
2023-03-15 22:10:32:862,-0.510916,0.267061,-9.7972,-1.35894,-3.04588,-30.7432
2023-03-15 22:10:32:872,-0.51019,0.262149,-9.7898,-1.35435,-3.04965,-30.7471
2023-03-15 22:10:32:882,-0.471598,0.246747,-9.78282,-1.34936,-3.05649,-30.7523
2023-03-15 22:10:32:892,-0.45205,0.246322,-9.77149,-1.34638,-3.06118,-30.7553
2023-03-15 22:10:32:902,-0.456945,0.236807,-9.76732,-1.34054,-3.06851,-30.7589
2023-03-15 22:10:32:912,-0.458339,0.231628,-9.74325,-1.33762,-3.07334,-30.7565
2023-03-15 22:10:32:922,-0.444392,0.213845,-9.7317,-1.33255,-3.07808,-30.7519
2023-03-15 22:10:32:932,-0.451177,0.20874,-9.72811,-1.32898,-3.08185,-30.7435
2023-03-15 22:10:32:942,-0.454787,0.21996,-9.70703,-1.32675,-3.08611,-30.732
2023-03-15 22:10:32:952,-0.474839,0.21783,-9.70185,-1.32659,-3.09277,-30.7159
2023-03-15 22:10:32:962,-0.487322,0.222894,-9.70971,-1.32652,-3.09816,-30.6991
2023-03-15 22:10:32:972,-0.505981,0.232457,-9.72571,-1.33058,-3.10663,-30.6816
2023-03-15 22:10:32:982,-0.537467,0.247806,-9.75086,-1.33395,-3.11778,-30.6631
2023-03-15 22:10:32:992,-0.561763,0.25819,-9.76486,-1.33972,-3.13161,-30.6518
2023-03-15 22:10:33:2,-0.588754,0.27329,-9.77999,-1.34577,-3.14669,-30.6402
2023-03-15 22:10:33:12,-0.602745,0.27763,-9.7987,-1.34502,-3.16111,-30.6297
2023-03-15 22:10:33:22,-0.649357,0.274905,-9.78513,-1.34856,-3.17492,-30.6233
2023-03-15 22:10:33:32,-0.677835,0.280382,-9.7593,-1.35085,-3.1898,-30.6222
2023-03-15 22:10:33:42,-0.696197,0.269633,-9.73908,-1.35045,-3.19998,-30.6246
2023-03-15 22:10:33:52,-0.709839,0.243531,-9.71308,-1.35436,-3.20686,-30.6289
2023-03-15 22:10:33:62,-0.709904,0.25178,-9.70339,-1.36182,-3.21005,-30.6372
2023-03-15 22:10:33:72,-0.706453,0.255712,-9.73445,-1.37087,-3.21448,-30.6498
2023-03-15 22:10:33:82,-0.703148,0.272824,-9.7512,-1.37911,-3.21396,-30.666
2023-03-15 22:10:33:92,-0.664965,0.274808,-9.79682,-1.3844,-3.20836,-30.6847
2023-03-15 22:10:33:102,-0.604795,0.274193,-9.81781,-1.38838,-3.20051,-30.7051
2023-03-15 22:10:33:112,-0.597944,0.283512,-9.76371,-1.39219,-3.19617,-30.7246
2023-03-15 22:10:33:122,-0.608075,0.257961,-9.72997,-1.39332,-3.18736,-30.7449
2023-03-15 22:10:33:132,-0.601219,0.243035,-9.76275,-1.39507,-3.17563,-30.7621
2023-03-15 22:10:33:142,-0.583577,0.250065,-9.82895,-1.3928,-3.16557,-30.7795
2023-03-15 22:10:33:152,-0.531467,0.245395,-9.83441,-1.38704,-3.15084,-30.7978
2023-03-15 22:10:33:162,-0.475933,0.218548,-9.78495,-1.38434,-3.13887,-30.811
2023-03-15 22:10:33:172,-0.455722,0.191482,-9.75086,-1.37864,-3.13002,-30.822
2023-03-15 22:10:33:182,-0.442164,0.19953,-9.7267,-1.37957,-3.12351,-30.8294
2023-03-15 22:10:33:192,-0.441372,0.201157,-9.68289,-1.38573,-3.11874,-30.8311
2023-03-15 22:10:33:202,-0.467376,0.215807,-9.66273,-1.39395,-3.11661,-30.8325
2023-03-15 22:10:33:212,-0.49521,0.233921,-9.69255,-1.40626,-3.11376,-30.8306
2023-03-15 22:10:33:222,-0.497173,0.26493,-9.72564,-1.42338,-3.11009,-30.832
2023-03-15 22:10:33:232,-0.512382,0.284232,-9.7539,-1.44407,-3.1084,-30.8332
2023-03-15 22:10:33:242,-0.535853,0.301735,-9.78039,-1.46441,-3.11312,-30.8367
2023-03-15 22:10:33:252,-0.592698,0.317624,-9.76479,-1.47779,-3.12165,-30.8425
2023-03-15 22:10:33:262,-0.645946,0.33003,-9.73321,-1.49955,-3.12899,-30.8572
2023-03-15 22:10:33:272,-0.642279,0.347177,-9.74543,-1.52056,-3.13695,-30.8785
2023-03-15 22:10:33:282,-0.653712,0.359899,-9.75787,-1.54034,-3.14492,-30.901
2023-03-15 22:10:33:292,-0.667596,0.349671,-9.76278,-1.55442,-3.15104,-30.9334
2023-03-15 22:10:33:302,-0.651944,0.330852,-9.76131,-1.56837,-3.15594,-30.972
2023-03-15 22:10:33:312,-0.619178,0.335881,-9.78717,-1.58189,-3.16192,-31.0137
2023-03-15 22:10:33:322,-0.602704,0.324736,-9.79808,-1.59298,-3.17012,-31.0567
2023-03-15 22:10:33:332,-0.57283,0.323977,-9.78378,-1.60436,-3.17258,-31.0999
2023-03-15 22:10:33:342,-0.54196,0.307694,-9.7664,-1.61077,-3.17485,-31.1385
2023-03-15 22:10:33:352,-0.533746,0.295769,-9.77454,-1.61496,-3.1764,-31.174
2023-03-15 22:10:33:362,-0.514991,0.312152,-9.81338,-1.62279,-3.17681,-31.2084
2023-03-15 22:10:33:372,-0.497076,0.308496,-9.84122,-1.62473,-3.17292,-31.2417
2023-03-15 22:10:33:382,-0.451385,0.299088,-9.82622,-1.62583,-3.16369,-31.2676
2023-03-15 22:10:33:392,-0.410835,0.287917,-9.82245,-1.62561,-3.15475,-31.2844
2023-03-15 22:10:33:402,-0.40755,0.298071,-9.81564,-1.62311,-3.14819,-31.2989
2023-03-15 22:10:33:412,-0.405355,0.300687,-9.79944,-1.61729,-3.14049,-31.3071
2023-03-15 22:10:33:422,-0.410361,0.271389,-9.77182,-1.61042,-3.13615,-31.3054
2023-03-15 22:10:33:432,-0.431384,0.27482,-9.76317,-1.60652,-3.12955,-31.3001
2023-03-15 22:10:33:442,-0.445464,0.285213,-9.76576,-1.60225,-3.1232,-31.2898
2023-03-15 22:10:33:452,-0.457356,0.294497,-9.75635,-1.59841,-3.1166,-31.2758
2023-03-15 22:10:33:462,-0.47583,0.292007,-9.76621,-1.59556,-3.10968,-31.2598
2023-03-15 22:10:33:472,-0.49444,0.288582,-9.76218,-1.59058,-3.10777,-31.2443
2023-03-15 22:10:33:482,-0.510372,0.283734,-9.75647,-1.58824,-3.1063,-31.2287
2023-03-15 22:10:33:492,-0.514515,0.287086,-9.748,-1.58602,-3.10764,-31.219
2023-03-15 22:10:33:502,-0.53217,0.28994,-9.75092,-1.5803,-3.1125,-31.2074
2023-03-15 22:10:33:512,-0.54678,0.289469,-9.76959,-1.58115,-3.11564,-31.1961
2023-03-15 22:10:33:522,-0.569588,0.274236,-9.77853,-1.57742,-3.12049,-31.1882
2023-03-15 22:10:33:532,-0.561361,0.281356,-9.78035,-1.57764,-3.12894,-31.1832
2023-03-15 22:10:33:542,-0.574118,0.276382,-9.78011,-1.57314,-3.13228,-31.1798
2023-03-15 22:10:33:552,-0.579569,0.263005,-9.78933,-1.56433,-3.13703,-31.1771
2023-03-15 22:10:33:562,-0.571896,0.26329,-9.77358,-1.55816,-3.1425,-31.1748
2023-03-15 22:10:33:572,-0.587928,0.247365,-9.76919,-1.5497,-3.14746,-31.1726
2023-03-15 22:10:33:582,-0.580125,0.239636,-9.74245,-1.54294,-3.15033,-31.1686
2023-03-15 22:10:33:592,-0.585387,0.239517,-9.7467,-1.53477,-3.15129,-31.1664
2023-03-15 22:10:33:602,-0.574121,0.246958,-9.73995,-1.52864,-3.15082,-31.1676
2023-03-15 22:10:33:612,-0.567254,0.235781,-9.72301,-1.5253,-3.15082,-31.1632
2023-03-15 22:10:33:622,-0.56581,0.245136,-9.71609,-1.52143,-3.14674,-31.1596
2023-03-15 22:10:33:632,-0.563201,0.253565,-9.72582,-1.52087,-3.14429,-31.1561
2023-03-15 22:10:33:642,-0.565405,0.248853,-9.73357,-1.52063,-3.13687,-31.1551
2023-03-15 22:10:33:652,-0.572303,0.242246,-9.74798,-1.52206,-3.13394,-31.1524
2023-03-15 22:10:33:662,-0.573586,0.257012,-9.74586,-1.52215,-3.1254,-31.1506
2023-03-15 22:10:33:672,-0.564464,0.265032,-9.74567,-1.5256,-3.11568,-31.1523
2023-03-15 22:10:33:682,-0.552609,0.265879,-9.74003,-1.52932,-3.10987,-31.1556
2023-03-15 22:10:33:692,-0.546402,0.269614,-9.73484,-1.53617,-3.10284,-31.1556
2023-03-15 22:10:33:702,-0.543803,0.27997,-9.72258,-1.54192,-3.09374,-31.1589
2023-03-15 22:10:33:712,-0.533338,0.267797,-9.73246,-1.55213,-3.08579,-31.1619
2023-03-15 22:10:33:722,-0.529295,0.27339,-9.74567,-1.56125,-3.0805,-31.1687
2023-03-15 22:10:33:732,-0.512181,0.283612,-9.75142,-1.57349,-3.07565,-31.1748
2023-03-15 22:10:33:742,-0.502956,0.29473,-9.75514,-1.58964,-3.06732,-31.1805
2023-03-15 22:10:33:752,-0.506489,0.317545,-9.79076,-1.60397,-3.05937,-31.1851
2023-03-15 22:10:33:762,-0.501435,0.31857,-9.83457,-1.61319,-3.05347,-31.1896
2023-03-15 22:10:33:772,-0.501141,0.327323,-9.84224,-1.62107,-3.04534,-31.1948
2023-03-15 22:10:33:782,-0.488911,0.324365,-9.80032,-1.62729,-3.03679,-31.2007
2023-03-15 22:10:33:792,-0.497054,0.3,-9.75799,-1.63296,-3.0363,-31.2017
2023-03-15 22:10:33:802,-0.523626,0.284558,-9.73175,-1.63841,-3.03385,-31.2028
2023-03-15 22:10:33:812,-0.525802,0.280747,-9.77852,-1.6428,-3.0281,-31.2047
2023-03-15 22:10:33:822,-0.538077,0.304297,-9.84247,-1.64582,-3.01795,-31.208
2023-03-15 22:10:33:832,-0.494463,0.308691,-9.85747,-1.64099,-3.00954,-31.2144
2023-03-15 22:10:33:842,-0.469096,0.27665,-9.81465,-1.6394,-3.00433,-31.215
2023-03-15 22:10:33:852,-0.470608,0.260715,-9.74914,-1.63769,-2.99957,-31.2182
2023-03-15 22:10:33:862,-0.496519,0.262872,-9.73849,-1.63583,-2.99928,-31.2208
2023-03-15 22:10:33:872,-0.507191,0.255083,-9.69801,-1.63545,-3.00017,-31.227
2023-03-15 22:10:33:882,-0.536891,0.255233,-9.66727,-1.64325,-3.00198,-31.2334
2023-03-15 22:10:33:892,-0.546353,0.277824,-9.68903,-1.65626,-2.99809,-31.2412
2023-03-15 22:10:33:902,-0.52184,0.299432,-9.71585,-1.67259,-2.9932,-31.2531
2023-03-15 22:10:33:912,-0.483861,0.300387,-9.73491,-1.68867,-2.98506,-31.2638
2023-03-15 22:10:33:922,-0.463858,0.325681,-9.77206,-1.71052,-2.97989,-31.2714
2023-03-15 22:10:33:932,-0.465203,0.352245,-9.7786,-1.73284,-2.975,-31.2777
2023-03-15 22:10:33:942,-0.470983,0.358388,-9.75058,-1.74992,-2.96824,-31.2876
2023-03-15 22:10:33:952,-0.478062,0.381228,-9.74152,-1.76569,-2.96303,-31.2945
2023-03-15 22:10:33:962,-0.490148,0.392813,-9.75654,-1.78285,-2.95845,-31.2991
2023-03-15 22:10:33:972,-0.496579,0.414255,-9.78247,-1.79833,-2.95571,-31.3075
2023-03-15 22:10:33:982,-0.498631,0.424279,-9.80182,-1.8049,-2.95104,-31.3163
2023-03-15 22:10:33:992,-0.500256,0.421526,-9.83684,-1.8087,-2.94237,-31.3245
2023-03-15 22:10:34:2,-0.4857,0.406207,-9.84926,-1.80923,-2.93107,-31.3307
2023-03-15 22:10:34:12,-0.48609,0.39792,-9.83241,-1.80909,-2.92513,-31.3359
2023-03-15 22:10:34:22,-0.476749,0.364787,-9.79371,-1.80368,-2.91768,-31.342
2023-03-15 22:10:34:32,-0.494515,0.36366,-9.78305,-1.79565,-2.91276,-31.3497
2023-03-15 22:10:34:42,-0.483408,0.351644,-9.80299,-1.79107,-2.90571,-31.3575
2023-03-15 22:10:34:52,-0.470763,0.351832,-9.811,-1.78446,-2.8958,-31.3684
2023-03-15 22:10:34:62,-0.455788,0.3195,-9.80393,-1.77577,-2.88966,-31.3755
2023-03-15 22:10:34:72,-0.44118,0.30754,-9.79623,-1.76506,-2.88489,-31.3819
2023-03-15 22:10:34:82,-0.423796,0.31556,-9.79775,-1.75835,-2.88376,-31.3918
2023-03-15 22:10:34:92,-0.417393,0.301978,-9.78062,-1.74689,-2.88241,-31.3982
2023-03-15 22:10:34:102,-0.433626,0.283522,-9.7621,-1.73836,-2.88126,-31.3985
2023-03-15 22:10:34:112,-0.431518,0.290326,-9.7426,-1.73416,-2.87957,-31.3981
2023-03-15 22:10:34:122,-0.439119,0.278826,-9.73622,-1.72741,-2.8824,-31.396
2023-03-15 22:10:34:132,-0.440241,0.291899,-9.73545,-1.72478,-2.88152,-31.3945
2023-03-15 22:10:34:142,-0.438206,0.297571,-9.73843,-1.72322,-2.87906,-31.3898
2023-03-15 22:10:34:152,-0.441856,0.296084,-9.73368,-1.71797,-2.88011,-31.386
2023-03-15 22:10:34:162,-0.44593,0.291424,-9.74432,-1.71733,-2.88264,-31.3805
2023-03-15 22:10:34:172,-0.447074,0.311094,-9.74101,-1.71921,-2.88314,-31.3769
2023-03-15 22:10:34:182,-0.453152,0.305382,-9.76371,-1.72103,-2.8819,-31.3682
2023-03-15 22:10:34:192,-0.47349,0.299899,-9.76688,-1.72283,-2.88056,-31.3593
2023-03-15 22:10:34:202,-0.482962,0.316125,-9.77231,-1.72151,-2.87942,-31.352
2023-03-15 22:10:34:212,-0.494784,0.324193,-9.7865,-1.7203,-2.8815,-31.3483
2023-03-15 22:10:34:222,-0.499894,0.327771,-9.79004,-1.72259,-2.88177,-31.3466
2023-03-15 22:10:34:232,-0.497048,0.325627,-9.78673,-1.72392,-2.88759,-31.3455
2023-03-15 22:10:34:242,-0.488067,0.310265,-9.79356,-1.72032,-2.89049,-31.3443
2023-03-15 22:10:34:252,-0.508318,0.307342,-9.79309,-1.7167,-2.89354,-31.3457
2023-03-15 22:10:34:262,-0.516301,0.284565,-9.79317,-1.71455,-2.89879,-31.3522
2023-03-15 22:10:34:272,-0.510777,0.292057,-9.76867,-1.71189,-2.90659,-31.3552
2023-03-15 22:10:34:282,-0.507275,0.284676,-9.75877,-1.70896,-2.90927,-31.3597
2023-03-15 22:10:34:292,-0.500237,0.271823,-9.75197,-1.7068,-2.91195,-31.3622
2023-03-15 22:10:34:302,-0.498007,0.281564,-9.73655,-1.70289,-2.91575,-31.3653
2023-03-15 22:10:34:312,-0.482691,0.277904,-9.73449,-1.70215,-2.91843,-31.3652
2023-03-15 22:10:34:322,-0.483223,0.274217,-9.74461,-1.70386,-2.91705,-31.3651
2023-03-15 22:10:34:332,-0.492167,0.278478,-9.74227,-1.70424,-2.91625,-31.3677
2023-03-15 22:10:34:342,-0.489463,0.288298,-9.72758,-1.70455,-2.91248,-31.3697
2023-03-15 22:10:34:352,-0.499033,0.30354,-9.72536,-1.70745,-2.91176,-31.3715
2023-03-15 22:10:34:362,-0.498174,0.303763,-9.71725,-1.71311,-2.90925,-31.3716
2023-03-15 22:10:34:372,-0.505067,0.305304,-9.74592,-1.71979,-2.90469,-31.372
2023-03-15 22:10:34:382,-0.496457,0.319096,-9.76702,-1.72734,-2.90489,-31.3755
2023-03-15 22:10:34:392,-0.489671,0.320742,-9.77205,-1.73435,-2.90396,-31.3836
2023-03-15 22:10:34:402,-0.48517,0.351551,-9.79002,-1.74205,-2.9025,-31.3922
2023-03-15 22:10:34:412,-0.47822,0.359068,-9.82308,-1.74693,-2.90498,-31.3979
2023-03-15 22:10:34:422,-0.500045,0.363382,-9.84462,-1.74776,-2.90698,-31.4077
2023-03-15 22:10:34:432,-0.516589,0.365737,-9.84049,-1.74671,-2.91001,-31.4219
2023-03-15 22:10:34:442,-0.519135,0.344567,-9.79945,-1.74123,-2.91963,-31.4375
2023-03-15 22:10:34:452,-0.547218,0.340604,-9.73941,-1.73881,-2.92682,-31.4559
2023-03-15 22:10:34:462,-0.588743,0.326291,-9.74369,-1.7375,-2.93384,-31.4775
2023-03-15 22:10:34:472,-0.586528,0.335601,-9.77297,-1.73838,-2.94436,-31.5052
2023-03-15 22:10:34:482,-0.570506,0.34166,-9.78851,-1.73733,-2.95375,-31.535
2023-03-15 22:10:34:492,-0.529424,0.337468,-9.79355,-1.73387,-2.96053,-31.5644
2023-03-15 22:10:34:502,-0.509813,0.327538,-9.79337,-1.72967,-2.96614,-31.5929
2023-03-15 22:10:34:512,-0.49723,0.305408,-9.76321,-1.72263,-2.96819,-31.6152
2023-03-15 22:10:34:522,-0.488279,0.271167,-9.74519,-1.71154,-2.9641,-31.6338
2023-03-15 22:10:34:532,-0.48935,0.243212,-9.77239,-1.70137,-2.95356,-31.6409
2023-03-15 22:10:34:542,-0.459733,0.26719,-9.80415,-1.69051,-2.93943,-31.646
2023-03-15 22:10:34:552,-0.420175,0.256791,-9.80378,-1.67665,-2.92171,-31.6482
2023-03-15 22:10:34:562,-0.393007,0.237038,-9.76719,-1.66469,-2.91117,-31.6451
2023-03-15 22:10:34:572,-0.414985,0.22636,-9.75815,-1.65953,-2.90385,-31.6427
2023-03-15 22:10:34:582,-0.444579,0.229753,-9.73205,-1.65194,-2.90661,-31.6396
2023-03-15 22:10:34:592,-0.47329,0.220635,-9.70679,-1.64986,-2.91003,-31.6354
2023-03-15 22:10:34:602,-0.5104,0.227852,-9.69467,-1.65477,-2.91533,-31.634
2023-03-15 22:10:34:612,-0.509804,0.240799,-9.6898,-1.66113,-2.91712,-31.6355
2023-03-15 22:10:34:622,-0.506401,0.251621,-9.69979,-1.67232,-2.91947,-31.6371
2023-03-15 22:10:34:632,-0.489683,0.263235,-9.72363,-1.6873,-2.92173,-31.6411
2023-03-15 22:10:34:642,-0.482017,0.296087,-9.73638,-1.70508,-2.92475,-31.6463
2023-03-15 22:10:34:652,-0.492201,0.305948,-9.75693,-1.72665,-2.9313,-31.6463
2023-03-15 22:10:34:662,-0.504825,0.317808,-9.74599,-1.7476,-2.93762,-31.6476
2023-03-15 22:10:34:672,-0.531104,0.349835,-9.7397,-1.76892,-2.94293,-31.6499
2023-03-15 22:10:34:682,-0.557572,0.372479,-9.76454,-1.78955,-2.94374,-31.6493
2023-03-15 22:10:34:692,-0.560696,0.374422,-9.76216,-1.80615,-2.94219,-31.6512
2023-03-15 22:10:34:702,-0.569497,0.36664,-9.76211,-1.82058,-2.93685,-31.6527
2023-03-15 22:10:34:712,-0.56955,0.373837,-9.78503,-1.8315,-2.92901,-31.6556
2023-03-15 22:10:34:722,-0.54985,0.36528,-9.79331,-1.84223,-2.92436,-31.6593
2023-03-15 22:10:34:732,-0.535636,0.360986,-9.81105,-1.8497,-2.92088,-31.665
2023-03-15 22:10:34:742,-0.520485,0.381508,-9.82243,-1.85528,-2.91813,-31.6688
2023-03-15 22:10:34:752,-0.510335,0.380487,-9.8093,-1.86098,-2.91657,-31.6772
2023-03-15 22:10:34:762,-0.529011,0.358527,-9.7978,-1.86284,-2.91666,-31.6807
2023-03-15 22:10:34:772,-0.550875,0.363362,-9.81398,-1.86694,-2.91491,-31.6883
2023-03-15 22:10:34:782,-0.556909,0.384168,-9.82863,-1.86833,-2.91641,-31.6956
2023-03-15 22:10:34:792,-0.52455,0.385506,-9.81299,-1.86594,-2.91344,-31.7054
2023-03-15 22:10:34:802,-0.501051,0.364554,-9.80729,-1.86467,-2.90962,-31.715
2023-03-15 22:10:34:812,-0.507009,0.352112,-9.81942,-1.86224,-2.90754,-31.7213
2023-03-15 22:10:34:822,-0.515585,0.353525,-9.8027,-1.85837,-2.90548,-31.7264
2023-03-15 22:10:34:832,-0.520048,0.343014,-9.76219,-1.8501,-2.90169,-31.7287
2023-03-15 22:10:34:842,-0.540691,0.327226,-9.7386,-1.84224,-2.89862,-31.7359
2023-03-15 22:10:34:852,-0.536525,0.332296,-9.7368,-1.83882,-2.89197,-31.736
2023-03-15 22:10:34:862,-0.533229,0.326724,-9.742,-1.83445,-2.88632,-31.7379
2023-03-15 22:10:34:872,-0.537138,0.328448,-9.73629,-1.83231,-2.87824,-31.7406
2023-03-15 22:10:34:882,-0.545312,0.350668,-9.73445,-1.8337,-2.86885,-31.7478
2023-03-15 22:10:34:892,-0.539646,0.353364,-9.73841,-1.83428,-2.86065,-31.7536
2023-03-15 22:10:34:902,-0.530861,0.344267,-9.75501,-1.8362,-2.85403,-31.7616
2023-03-15 22:10:34:912,-0.517745,0.355241,-9.76665,-1.83736,-2.8432,-31.771
2023-03-15 22:10:34:922,-0.501735,0.354199,-9.77834,-1.83585,-2.83124,-31.777
2023-03-15 22:10:34:932,-0.496523,0.353695,-9.79154,-1.83207,-2.82118,-31.788
2023-03-15 22:10:34:942,-0.502477,0.343046,-9.80027,-1.82793,-2.8122,-31.798
2023-03-15 22:10:34:952,-0.473439,0.341366,-9.77987,-1.82444,-2.7977,-31.8091
2023-03-15 22:10:34:962,-0.458614,0.322932,-9.77003,-1.81708,-2.78249,-31.8198
2023-03-15 22:10:34:972,-0.442883,0.31009,-9.75259,-1.80963,-2.76738,-31.8292
2023-03-15 22:10:34:982,-0.406162,0.292407,-9.73918,-1.80541,-2.75445,-31.8354
2023-03-15 22:10:34:992,-0.402576,0.288742,-9.74682,-1.80206,-2.7455,-31.8422
2023-03-15 22:10:35:2,-0.382053,0.299169,-9.75788,-1.7984,-2.73166,-31.847
2023-03-15 22:10:35:12,-0.377324,0.300691,-9.7581,-1.79891,-2.72404,-31.8465
2023-03-15 22:10:35:22,-0.376742,0.285539,-9.76875,-1.80196,-2.71629,-31.8457
2023-03-15 22:10:35:32,-0.374019,0.291994,-9.75315,-1.80118,-2.70624,-31.8425
2023-03-15 22:10:35:42,-0.381851,0.291328,-9.73561,-1.80436,-2.69951,-31.8368
2023-03-15 22:10:35:52,-0.381969,0.290805,-9.73034,-1.80539,-2.69182,-31.8274
2023-03-15 22:10:35:62,-0.390029,0.286102,-9.7269,-1.81162,-2.68267,-31.82
2023-03-15 22:10:35:72,-0.393607,0.286779,-9.74244,-1.82166,-2.67668,-31.8091
2023-03-15 22:10:35:82,-0.386496,0.307471,-9.74221,-1.83086,-2.67133,-31.7993
2023-03-15 22:10:35:92,-0.396508,0.31751,-9.74946,-1.84064,-2.66854,-31.7866
2023-03-15 22:10:35:102,-0.394995,0.323303,-9.74643,-1.85565,-2.66802,-31.7764
2023-03-15 22:10:35:112,-0.405108,0.337925,-9.74169,-1.8718,-2.66656,-31.7651
2023-03-15 22:10:35:122,-0.426785,0.355612,-9.74463,-1.88803,-2.66418,-31.757
2023-03-15 22:10:35:132,-0.432132,0.368646,-9.75966,-1.90434,-2.66418,-31.7476
2023-03-15 22:10:35:142,-0.436379,0.394627,-9.75763,-1.91977,-2.66362,-31.7396
2023-03-15 22:10:35:152,-0.445186,0.401033,-9.76942,-1.93555,-2.66543,-31.7328
2023-03-15 22:10:35:162,-0.4598,0.411691,-9.77906,-1.95137,-2.66916,-31.727
2023-03-15 22:10:35:172,-0.469419,0.413494,-9.78343,-1.96684,-2.66543,-31.7234
2023-03-15 22:10:35:182,-0.47157,0.410527,-9.79395,-1.97945,-2.66436,-31.7209
2023-03-15 22:10:35:192,-0.477436,0.43343,-9.80715,-1.98941,-2.65663,-31.7191
2023-03-15 22:10:35:202,-0.458237,0.432365,-9.82211,-1.99489,-2.65049,-31.7167
2023-03-15 22:10:35:212,-0.460615,0.419657,-9.81667,-1.99821,-2.64748,-31.7184
2023-03-15 22:10:35:222,-0.460487,0.413178,-9.7944,-2.00041,-2.63899,-31.7154
2023-03-15 22:10:35:232,-0.466623,0.392746,-9.79253,-1.99654,-2.62966,-31.7168
2023-03-15 22:10:35:242,-0.468801,0.395789,-9.81314,-1.98685,-2.62399,-31.7182
2023-03-15 22:10:35:252,-0.450921,0.40387,-9.85767,-1.979,-2.61661,-31.7231
2023-03-15 22:10:35:262,-0.399021,0.383435,-9.84984,-1.96932,-2.60666,-31.7289
2023-03-15 22:10:35:272,-0.364352,0.354479,-9.79674,-1.95802,-2.59768,-31.7319
2023-03-15 22:10:35:282,-0.379205,0.329494,-9.78194,-1.94477,-2.59632,-31.735
2023-03-15 22:10:35:292,-0.399401,0.339658,-9.76272,-1.93284,-2.59824,-31.7372
2023-03-15 22:10:35:302,-0.410638,0.328147,-9.73689,-1.92455,-2.59646,-31.7372
2023-03-15 22:10:35:312,-0.417134,0.307357,-9.70856,-1.91672,-2.59586,-31.7396
2023-03-15 22:10:35:322,-0.40945,0.321046,-9.70166,-1.91703,-2.59499,-31.7417
2023-03-15 22:10:35:332,-0.395862,0.334897,-9.74561,-1.92265,-2.59214,-31.7483
2023-03-15 22:10:35:342,-0.372753,0.359857,-9.76432,-1.9313,-2.58732,-31.7532
2023-03-15 22:10:35:352,-0.374564,0.380799,-9.75191,-1.94028,-2.58325,-31.7568
2023-03-15 22:10:35:362,-0.391193,0.386053,-9.75549,-1.94944,-2.58039,-31.7622
2023-03-15 22:10:35:372,-0.39834,0.401306,-9.752,-1.95749,-2.57772,-31.7633
2023-03-15 22:10:35:382,-0.408815,0.405723,-9.75127,-1.96502,-2.57429,-31.7654
2023-03-15 22:10:35:392,-0.417691,0.404722,-9.76602,-1.9678,-2.57316,-31.7683
2023-03-15 22:10:35:402,-0.424674,0.41456,-9.76778,-1.96806,-2.5694,-31.7737
2023-03-15 22:10:35:412,-0.42639,0.420822,-9.79856,-1.96783,-2.56755,-31.7764
2023-03-15 22:10:35:422,-0.421233,0.408003,-9.80795,-1.96419,-2.56035,-31.7809
2023-03-15 22:10:35:432,-0.416334,0.395491,-9.79829,-1.95449,-2.55426,-31.7837
2023-03-15 22:10:35:442,-0.394988,0.393761,-9.79477,-1.94335,-2.54999,-31.7919
2023-03-15 22:10:35:452,-0.394459,0.388162,-9.78273,-1.93069,-2.54326,-31.7992
2023-03-15 22:10:35:462,-0.408781,0.373392,-9.78446,-1.9172,-2.53643,-31.8076
2023-03-15 22:10:35:472,-0.408111,0.342512,-9.79648,-1.90078,-2.53081,-31.8205
2023-03-15 22:10:35:482,-0.398644,0.326848,-9.79123,-1.88632,-2.53005,-31.8313
2023-03-15 22:10:35:492,-0.376328,0.34721,-9.81275,-1.87049,-2.52727,-31.8446
2023-03-15 22:10:35:502,-0.348546,0.328066,-9.81278,-1.85643,-2.52604,-31.856
2023-03-15 22:10:35:512,-0.330911,0.301955,-9.81047,-1.84382,-2.52524,-31.867
2023-03-15 22:10:35:522,-0.324685,0.295624,-9.79971,-1.82858,-2.52468,-31.876
2023-03-15 22:10:35:532,-0.319662,0.271073,-9.76151,-1.81618,-2.53198,-31.878
2023-03-15 22:10:35:542,-0.31659,0.253372,-9.70845,-1.80503,-2.53584,-31.88
2023-03-15 22:10:35:552,-0.346467,0.261783,-9.72823,-1.79878,-2.54121,-31.8779
2023-03-15 22:10:35:562,-0.357184,0.272954,-9.76518,-1.79336,-2.54555,-31.874
2023-03-15 22:10:35:572,-0.333653,0.289311,-9.75553,-1.78831,-2.54747,-31.8709
2023-03-15 22:10:35:582,-0.330521,0.291475,-9.7662,-1.78287,-2.54902,-31.8621
2023-03-15 22:10:35:592,-0.347539,0.320464,-9.76933,-1.77899,-2.55133,-31.8549
2023-03-15 22:10:35:602,-0.352767,0.319335,-9.75961,-1.77369,-2.55896,-31.8467
2023-03-15 22:10:35:612,-0.361451,0.322797,-9.75718,-1.77247,-2.56231,-31.8355
2023-03-15 22:10:35:622,-0.378034,0.338342,-9.76764,-1.76703,-2.57032,-31.8306
2023-03-15 22:10:35:632,-0.388296,0.342479,-9.79214,-1.76084,-2.57758,-31.8241
2023-03-15 22:10:35:642,-0.417729,0.335369,-9.80836,-1.75354,-2.5912,-31.8185
2023-03-15 22:10:35:652,-0.424247,0.337375,-9.80733,-1.74602,-2.60137,-31.8148
2023-03-15 22:10:35:662,-0.425736,0.313119,-9.82286,-1.73417,-2.61398,-31.8113
2023-03-15 22:10:35:672,-0.431741,0.317098,-9.81575,-1.71989,-2.62853,-31.8096
2023-03-15 22:10:35:682,-0.430603,0.303654,-9.79281,-1.70675,-2.64464,-31.8116
2023-03-15 22:10:35:692,-0.426775,0.291612,-9.77453,-1.6903,-2.66026,-31.8095
2023-03-15 22:10:35:702,-0.434398,0.274843,-9.76543,-1.6753,-2.67424,-31.8079
2023-03-15 22:10:35:712,-0.4395,0.258338,-9.77342,-1.65541,-2.69338,-31.8008
2023-03-15 22:10:35:722,-0.457295,0.24,-9.76989,-1.64183,-2.70705,-31.7934
2023-03-15 22:10:35:732,-0.455506,0.245603,-9.75128,-1.62591,-2.72152,-31.79
2023-03-15 22:10:35:742,-0.460637,0.240308,-9.72027,-1.61229,-2.73311,-31.7838
2023-03-15 22:10:35:752,-0.462039,0.220022,-9.72049,-1.60382,-2.74472,-31.777
2023-03-15 22:10:35:762,-0.468092,0.213552,-9.71722,-1.59514,-2.75462,-31.7726
2023-03-15 22:10:35:772,-0.461984,0.224767,-9.6973,-1.58849,-2.76542,-31.766
2023-03-15 22:10:35:782,-0.461611,0.234095,-9.69386,-1.58355,-2.77579,-31.7629
2023-03-15 22:10:35:792,-0.49502,0.252528,-9.69319,-1.58394,-2.78501,-31.758
2023-03-15 22:10:35:802,-0.526535,0.269927,-9.74237,-1.59021,-2.79438,-31.7589
2023-03-15 22:10:35:812,-0.546816,0.297486,-9.76495,-1.59186,-2.80436,-31.7651
2023-03-15 22:10:35:822,-0.55174,0.332947,-9.79194,-1.59184,-2.81802,-31.7728
2023-03-15 22:10:35:832,-0.552229,0.336224,-9.82368,-1.59166,-2.8267,-31.789
2023-03-15 22:10:35:842,-0.506056,0.352072,-9.84112,-1.58816,-2.83359,-31.808
2023-03-15 22:10:35:852,-0.461865,0.323889,-9.83852,-1.57804,-2.8423,-31.8268
2023-03-15 22:10:35:862,-0.464241,0.31603,-9.81833,-1.56556,-2.85308,-31.8436
2023-03-15 22:10:35:872,-0.454866,0.311547,-9.82758,-1.55465,-2.86306,-31.8606
2023-03-15 22:10:35:882,-0.425036,0.299711,-9.81582,-1.5418,-2.87688,-31.8737
2023-03-15 22:10:35:892,-0.446586,0.280262,-9.80989,-1.52586,-2.88987,-31.8866
2023-03-15 22:10:35:902,-0.455767,0.261626,-9.78341,-1.51001,-2.90636,-31.8941
2023-03-15 22:10:35:912,-0.45459,0.244255,-9.7701,-1.49456,-2.91856,-31.8984
2023-03-15 22:10:35:922,-0.462246,0.239723,-9.74354,-1.47893,-2.93052,-31.8979
2023-03-15 22:10:35:932,-0.468822,0.223609,-9.73244,-1.46736,-2.94383,-31.8939
2023-03-15 22:10:35:942,-0.473051,0.215498,-9.73374,-1.45179,-2.96158,-31.8869
2023-03-15 22:10:35:952,-0.474761,0.21639,-9.74776,-1.43914,-2.97452,-31.8774
2023-03-15 22:10:35:962,-0.480626,0.207926,-9.74239,-1.42665,-2.98722,-31.8672
2023-03-15 22:10:35:972,-0.494778,0.197762,-9.71842,-1.41385,-3.00431,-31.854
2023-03-15 22:10:35:982,-0.537038,0.196519,-9.69086,-1.40207,-3.02021,-31.8403
2023-03-15 22:10:35:992,-0.571245,0.19977,-9.71428,-1.39569,-3.03181,-31.8313
2023-03-15 22:10:36:2,-0.592588,0.201479,-9.77137,-1.3886,-3.04064,-31.8203
2023-03-15 22:10:36:12,-0.574312,0.210686,-9.81608,-1.38215,-3.04682,-31.8121
2023-03-15 22:10:36:22,-0.537155,0.209335,-9.79496,-1.37273,-3.05697,-31.8051
2023-03-15 22:10:36:32,-0.514876,0.184333,-9.76374,-1.36496,-3.06814,-31.8018
2023-03-15 22:10:36:42,-0.525985,0.164972,-9.73739,-1.35903,-3.08429,-31.7954
2023-03-15 22:10:36:52,-0.533227,0.156837,-9.69085,-1.35817,-3.10538,-31.7929
2023-03-15 22:10:36:62,-0.570051,0.158291,-9.67685,-1.35704,-3.12639,-31.7905
2023-03-15 22:10:36:72,-0.602884,0.180768,-9.68165,-1.36529,-3.14939,-31.7879
2023-03-15 22:10:36:82,-0.598664,0.191929,-9.68921,-1.37758,-3.16688,-31.7873
2023-03-15 22:10:36:92,-0.573626,0.183232,-9.72667,-1.39503,-3.18338,-31.7859
2023-03-15 22:10:36:102,-0.548317,0.211677,-9.78186,-1.41692,-3.19598,-31.779
2023-03-15 22:10:36:112,-0.543965,0.262817,-9.81447,-1.43757,-3.20886,-31.7725
2023-03-15 22:10:36:122,-0.569896,0.289153,-9.80784,-1.45556,-3.22335,-31.7664
2023-03-15 22:10:36:132,-0.589805,0.305092,-9.77808,-1.474,-3.23849,-31.7568
2023-03-15 22:10:36:142,-0.608019,0.319646,-9.78178,-1.48778,-3.25361,-31.7511
2023-03-15 22:10:36:152,-0.635472,0.346951,-9.77377,-1.49922,-3.26369,-31.7453
2023-03-15 22:10:36:162,-0.65257,0.3465,-9.76911,-1.506,-3.26966,-31.739
2023-03-15 22:10:36:172,-0.652982,0.356072,-9.80682,-1.51006,-3.27302,-31.7355
2023-03-15 22:10:36:182,-0.627882,0.372465,-9.81333,-1.50936,-3.27317,-31.7417
2023-03-15 22:10:36:192,-0.614468,0.350674,-9.81222,-1.5016,-3.2703,-31.7445
2023-03-15 22:10:36:202,-0.594889,0.332894,-9.7897,-1.49574,-3.267,-31.7495
2023-03-15 22:10:36:212,-0.562248,0.31759,-9.76001,-1.48721,-3.2609,-31.7529
2023-03-15 22:10:36:222,-0.550396,0.26842,-9.74325,-1.47686,-3.25813,-31.7555
2023-03-15 22:10:36:232,-0.55341,0.274906,-9.76443,-1.47164,-3.25905,-31.7585
2023-03-15 22:10:36:242,-0.535778,0.271617,-9.77654,-1.46276,-3.25843,-31.7626
2023-03-15 22:10:36:252,-0.490105,0.241382,-9.75998,-1.4512,-3.25868,-31.7659
2023-03-15 22:10:36:262,-0.474972,0.218169,-9.7558,-1.44434,-3.26513,-31.7703
2023-03-15 22:10:36:272,-0.480313,0.22684,-9.77494,-1.44002,-3.27492,-31.7759
2023-03-15 22:10:36:282,-0.491114,0.229316,-9.7651,-1.43903,-3.28445,-31.78
2023-03-15 22:10:36:292,-0.510698,0.217703,-9.74658,-1.44208,-3.29521,-31.782
2023-03-15 22:10:36:302,-0.535777,0.223012,-9.75224,-1.44447,-3.30955,-31.7839
2023-03-15 22:10:36:312,-0.540645,0.221357,-9.7594,-1.45226,-3.31815,-31.7846
2023-03-15 22:10:36:322,-0.531486,0.2358,-9.74748,-1.45881,-3.32219,-31.7822
2023-03-15 22:10:36:332,-0.536192,0.23906,-9.76181,-1.465,-3.33229,-31.777
2023-03-15 22:10:36:342,-0.535294,0.244799,-9.76558,-1.47308,-3.33888,-31.7747
2023-03-15 22:10:36:352,-0.527069,0.249507,-9.74775,-1.47954,-3.34101,-31.7681
2023-03-15 22:10:36:362,-0.537536,0.260873,-9.74007,-1.48835,-3.34304,-31.7618
2023-03-15 22:10:36:372,-0.550716,0.267725,-9.74508,-1.49714,-3.35029,-31.7545
2023-03-15 22:10:36:382,-0.567709,0.287046,-9.75434,-1.50645,-3.35661,-31.7474
2023-03-15 22:10:36:392,-0.576301,0.296805,-9.76622,-1.51376,-3.36391,-31.7389
2023-03-15 22:10:36:402,-0.584753,0.284206,-9.77792,-1.51966,-3.36928,-31.7336
2023-03-15 22:10:36:412,-0.602604,0.290171,-9.78312,-1.52099,-3.37388,-31.7314
2023-03-15 22:10:36:422,-0.585582,0.278772,-9.79655,-1.5231,-3.37756,-31.7279
2023-03-15 22:10:36:432,-0.562639,0.257844,-9.77802,-1.52156,-3.37998,-31.7257
2023-03-15 22:10:36:442,-0.563066,0.242491,-9.77217,-1.52118,-3.38353,-31.7236
2023-03-15 22:10:36:452,-0.549891,0.233122,-9.76106,-1.52265,-3.39004,-31.7217
2023-03-15 22:10:36:462,-0.563057,0.246302,-9.7459,-1.52079,-3.39833,-31.7212
2023-03-15 22:10:36:472,-0.586538,0.239762,-9.73012,-1.52149,-3.4086,-31.7214
2023-03-15 22:10:36:482,-0.590671,0.236019,-9.73647,-1.52882,-3.41466,-31.7194
2023-03-15 22:10:36:492,-0.590597,0.23988,-9.74501,-1.5374,-3.41866,-31.7169
2023-03-15 22:10:36:502,-0.594196,0.260544,-9.74776,-1.54647,-3.42342,-31.714
2023-03-15 22:10:36:512,-0.583149,0.273012,-9.74347,-1.55969,-3.42812,-31.7093
2023-03-15 22:10:36:522,-0.580212,0.275557,-9.73532,-1.57684,-3.43151,-31.7098
2023-03-15 22:10:36:532,-0.585413,0.296059,-9.7589,-1.59256,-3.43173,-31.707
2023-03-15 22:10:36:542,-0.582818,0.32551,-9.7861,-1.61018,-3.43476,-31.7043
2023-03-15 22:10:36:552,-0.583968,0.345661,-9.79342,-1.62509,-3.43515,-31.7033
2023-03-15 22:10:36:562,-0.606856,0.354553,-9.79273,-1.63787,-3.43723,-31.6998
2023-03-15 22:10:36:572,-0.61103,0.364327,-9.7933,-1.64682,-3.43196,-31.6984
2023-03-15 22:10:36:582,-0.588524,0.368439,-9.77068,-1.65869,-3.42939,-31.6986
2023-03-15 22:10:36:592,-0.572298,0.368679,-9.77223,-1.66719,-3.42393,-31.6979
2023-03-15 22:10:36:602,-0.577423,0.371833,-9.77828,-1.6726,-3.42678,-31.7007
2023-03-15 22:10:36:612,-0.578177,0.375596,-9.77885,-1.68352,-3.43033,-31.7077
2023-03-15 22:10:36:622,-0.563824,0.37119,-9.78929,-1.69187,-3.433,-31.715
2023-03-15 22:10:36:632,-0.531196,0.375704,-9.81002,-1.6964,-3.43511,-31.7217
2023-03-15 22:10:36:642,-0.519345,0.368792,-9.81275,-1.70029,-3.43839,-31.7275
2023-03-15 22:10:36:652,-0.532416,0.345828,-9.82695,-1.69515,-3.44529,-31.7352
2023-03-15 22:10:36:662,-0.527508,0.348499,-9.81354,-1.68986,-3.45182,-31.7391
2023-03-15 22:10:36:672,-0.524984,0.342727,-9.80324,-1.6857,-3.45965,-31.739
2023-03-15 22:10:36:682,-0.526342,0.33194,-9.77786,-1.67858,-3.46765,-31.7369
2023-03-15 22:10:36:692,-0.537668,0.31913,-9.7754,-1.67044,-3.47653,-31.733
2023-03-15 22:10:36:702,-0.538131,0.311318,-9.77966,-1.6601,-3.48395,-31.7236
2023-03-15 22:10:36:712,-0.548074,0.298771,-9.77357,-1.65229,-3.4926,-31.7101
2023-03-15 22:10:36:722,-0.556556,0.26961,-9.75969,-1.64017,-3.49951,-31.6921
2023-03-15 22:10:36:732,-0.58307,0.267541,-9.72573,-1.62999,-3.50989,-31.6759
2023-03-15 22:10:36:742,-0.614593,0.240843,-9.70295,-1.6151,-3.51783,-31.6608
2023-03-15 22:10:36:752,-0.652618,0.236561,-9.71624,-1.604,-3.52203,-31.6454
2023-03-15 22:10:36:762,-0.672122,0.256165,-9.78106,-1.59442,-3.52517,-31.6308
2023-03-15 22:10:36:772,-0.660048,0.248336,-9.81978,-1.58514,-3.52978,-31.6179
2023-03-15 22:10:36:782,-0.640116,0.223915,-9.77645,-1.57407,-3.53775,-31.6106
2023-03-15 22:10:36:792,-0.689296,0.208376,-9.73966,-1.56244,-3.54497,-31.6055
2023-03-15 22:10:36:802,-0.75268,0.21892,-9.71024,-1.55362,-3.5532,-31.6096
2023-03-15 22:10:36:812,-0.797958,0.220456,-9.67545,-1.54988,-3.56224,-31.6176
2023-03-15 22:10:36:822,-0.844953,0.214128,-9.65164,-1.55089,-3.56339,-31.6302
2023-03-15 22:10:36:832,-0.864429,0.220726,-9.62598,-1.55187,-3.5574,-31.6525
2023-03-15 22:10:36:842,-0.822027,0.211013,-9.60999,-1.55743,-3.54894,-31.6786
2023-03-15 22:10:36:852,-0.766483,0.19762,-9.60295,-1.56959,-3.53639,-31.7104
2023-03-15 22:10:36:862,-0.739559,0.21535,-9.63456,-1.59126,-3.52082,-31.7452
2023-03-15 22:10:36:872,-0.731214,0.250182,-9.64051,-1.61738,-3.50577,-31.7852
2023-03-15 22:10:36:882,-0.704909,0.285757,-9.66425,-1.64283,-3.48495,-31.8258
2023-03-15 22:10:36:892,-0.632927,0.308276,-9.72176,-1.67324,-3.46219,-31.8655
2023-03-15 22:10:36:902,-0.570022,0.32404,-9.74011,-1.70032,-3.44375,-31.9027
2023-03-15 22:10:36:912,-0.540561,0.348986,-9.77057,-1.72717,-3.42204,-31.942
2023-03-15 22:10:36:922,-0.514096,0.355925,-9.8186,-1.75078,-3.40107,-31.9777
2023-03-15 22:10:36:932,-0.494815,0.353159,-9.8239,-1.77301,-3.38037,-32.01
2023-03-15 22:10:36:942,-0.478058,0.353673,-9.8313,-1.79362,-3.36351,-32.0375
2023-03-15 22:10:36:952,-0.454228,0.35339,-9.81694,-1.81441,-3.34864,-32.0602
2023-03-15 22:10:36:962,-0.428995,0.344041,-9.78347,-1.82509,-3.33638,-32.0775
2023-03-15 22:10:36:972,-0.414711,0.333005,-9.76507,-1.84181,-3.32762,-32.0932
2023-03-15 22:10:36:982,-0.423592,0.345134,-9.79244,-1.86095,-3.32255,-32.1054
2023-03-15 22:10:36:992,-0.426096,0.371412,-9.82623,-1.88023,-3.31836,-32.1158
2023-03-15 22:10:37:2,-0.40732,0.3775,-9.8491,-1.89733,-3.31635,-32.1177
2023-03-15 22:10:37:12,-0.407376,0.392609,-9.84397,-1.91132,-3.31656,-32.1144
2023-03-15 22:10:37:22,-0.435012,0.398267,-9.86758,-1.92143,-3.3177,-32.1114
2023-03-15 22:10:37:32,-0.44047,0.393833,-9.88048,-1.92668,-3.3223,-32.1019
2023-03-15 22:10:37:42,-0.463251,0.398015,-9.84626,-1.92778,-3.32804,-32.0932
2023-03-15 22:10:37:52,-0.487605,0.396422,-9.79227,-1.92699,-3.33635,-32.0801
2023-03-15 22:10:37:62,-0.524396,0.398323,-9.76179,-1.92851,-3.34633,-32.0684
2023-03-15 22:10:37:72,-0.541582,0.388491,-9.75661,-1.92919,-3.35894,-32.0549
2023-03-15 22:10:37:82,-0.558479,0.384125,-9.73953,-1.93129,-3.36824,-32.04
2023-03-15 22:10:37:92,-0.584932,0.384211,-9.7378,-1.93544,-3.37788,-32.0266
2023-03-15 22:10:37:102,-0.591965,0.407247,-9.73386,-1.93559,-3.38526,-32.0168
2023-03-15 22:10:37:112,-0.600138,0.409443,-9.7604,-1.93728,-3.39352,-32.0087
2023-03-15 22:10:37:122,-0.617129,0.412953,-9.78289,-1.93768,-3.40532,-31.9988
2023-03-15 22:10:37:132,-0.622282,0.415194,-9.80379,-1.93417,-3.41452,-31.9953
2023-03-15 22:10:37:142,-0.61837,0.414836,-9.8078,-1.92873,-3.423,-31.9886
2023-03-15 22:10:37:152,-0.612318,0.403256,-9.79311,-1.92103,-3.43446,-31.9869
2023-03-15 22:10:37:162,-0.605997,0.382565,-9.78293,-1.91051,-3.44139,-31.9848
2023-03-15 22:10:37:172,-0.601586,0.381598,-9.79531,-1.898,-3.44755,-31.9805
2023-03-15 22:10:37:182,-0.58544,0.365271,-9.81292,-1.88608,-3.4569,-31.9782
2023-03-15 22:10:37:192,-0.577033,0.365155,-9.82843,-1.87101,-3.46726,-31.9776
2023-03-15 22:10:37:202,-0.57947,0.344308,-9.83918,-1.8549,-3.48216,-31.9777
2023-03-15 22:10:37:212,-0.579607,0.34699,-9.83367,-1.83744,-3.49406,-31.9719
2023-03-15 22:10:37:222,-0.57797,0.322425,-9.81774,-1.8177,-3.5058,-31.9642
2023-03-15 22:10:37:232,-0.57838,0.304683,-9.80004,-1.79196,-3.51551,-31.9532
2023-03-15 22:10:37:242,-0.59389,0.285823,-9.77064,-1.77074,-3.5222,-31.9382
2023-03-15 22:10:37:252,-0.613338,0.273262,-9.73557,-1.74898,-3.52562,-31.9245
2023-03-15 22:10:37:262,-0.631654,0.259416,-9.70033,-1.72919,-3.52838,-31.9076
2023-03-15 22:10:37:272,-0.645858,0.243641,-9.67648,-1.71336,-3.52956,-31.8939
2023-03-15 22:10:37:282,-0.660048,0.236019,-9.65543,-1.70071,-3.52789,-31.8782
2023-03-15 22:10:37:292,-0.665863,0.235193,-9.6587,-1.68983,-3.52735,-31.8645
2023-03-15 22:10:37:302,-0.668844,0.243099,-9.64207,-1.6872,-3.52577,-31.8547
2023-03-15 22:10:37:312,-0.684016,0.258389,-9.65822,-1.687,-3.52733,-31.8449
2023-03-15 22:10:37:322,-0.697649,0.268178,-9.6878,-1.68859,-3.52546,-31.8393
2023-03-15 22:10:37:332,-0.691038,0.283993,-9.70596,-1.69396,-3.52621,-31.8415
2023-03-15 22:10:37:342,-0.70002,0.295457,-9.74764,-1.70241,-3.52728,-31.8491
2023-03-15 22:10:37:352,-0.697017,0.306289,-9.7672,-1.70655,-3.52349,-31.8624
2023-03-15 22:10:37:362,-0.677565,0.300391,-9.76332,-1.71026,-3.52454,-31.8787
2023-03-15 22:10:37:372,-0.670526,0.300437,-9.76866,-1.71543,-3.52418,-31.895
2023-03-15 22:10:37:382,-0.648034,0.298553,-9.80573,-1.71715,-3.51956,-31.9088
2023-03-15 22:10:37:392,-0.622419,0.289315,-9.80994,-1.71822,-3.51108,-31.925
2023-03-15 22:10:37:402,-0.604135,0.274354,-9.77523,-1.71511,-3.50289,-31.9397
2023-03-15 22:10:37:412,-0.580403,0.260359,-9.72038,-1.71656,-3.49466,-31.9505
2023-03-15 22:10:37:422,-0.57267,0.248131,-9.6851,-1.71814,-3.48922,-31.9618
2023-03-15 22:10:37:432,-0.569693,0.227325,-9.70175,-1.72171,-3.47871,-31.9686
2023-03-15 22:10:37:442,-0.572152,0.236689,-9.75533,-1.72562,-3.46575,-31.9779
2023-03-15 22:10:37:452,-0.568813,0.259689,-9.80742,-1.73047,-3.45268,-31.9847
2023-03-15 22:10:37:462,-0.524412,0.255449,-9.7995,-1.73045,-3.43999,-31.991
2023-03-15 22:10:37:472,-0.502458,0.21571,-9.75571,-1.73546,-3.43163,-31.9916
2023-03-15 22:10:37:482,-0.51553,0.221325,-9.72387,-1.74042,-3.42342,-31.9961
2023-03-15 22:10:37:492,-0.534194,0.222775,-9.69082,-1.74698,-3.41952,-32.0002
2023-03-15 22:10:37:502,-0.558075,0.203814,-9.66304,-1.76073,-3.41451,-31.9979
2023-03-15 22:10:37:512,-0.579206,0.213031,-9.64112,-1.77735,-3.41088,-31.9966
2023-03-15 22:10:37:522,-0.558958,0.23295,-9.64816,-1.80205,-3.40329,-31.9944
2023-03-15 22:10:37:532,-0.525091,0.241584,-9.68402,-1.83512,-3.39661,-31.9885
2023-03-15 22:10:37:542,-0.517044,0.257393,-9.72484,-1.87205,-3.39273,-31.9813
2023-03-15 22:10:37:552,-0.522858,0.299545,-9.74667,-1.91314,-3.38761,-31.973
2023-03-15 22:10:37:562,-0.547089,0.359038,-9.76538,-1.95551,-3.38135,-31.9615
2023-03-15 22:10:37:572,-0.56323,0.387767,-9.7815,-1.99725,-3.38225,-31.9507
2023-03-15 22:10:37:582,-0.572304,0.424086,-9.78119,-2.03368,-3.37869,-31.9442
2023-03-15 22:10:37:592,-0.592104,0.446638,-9.79773,-2.06938,-3.37684,-31.938
2023-03-15 22:10:37:602,-0.612263,0.459721,-9.8044,-2.10158,-3.37397,-31.9368
2023-03-15 22:10:37:612,-0.632399,0.457994,-9.80913,-2.13272,-3.3695,-31.937
2023-03-15 22:10:37:622,-0.628095,0.470295,-9.80413,-2.15944,-3.36676,-31.9385
2023-03-15 22:10:37:632,-0.626107,0.486177,-9.78305,-2.18225,-3.36258,-31.9478
2023-03-15 22:10:37:642,-0.616568,0.487272,-9.79744,-2.19977,-3.35727,-31.9596
2023-03-15 22:10:37:652,-0.59613,0.47983,-9.80183,-2.21653,-3.35268,-31.9741
2023-03-15 22:10:37:662,-0.593452,0.487674,-9.81426,-2.23151,-3.34708,-31.992
2023-03-15 22:10:37:672,-0.592698,0.488252,-9.85363,-2.24172,-3.33846,-32.0104
2023-03-15 22:10:37:682,-0.580378,0.485271,-9.87647,-2.24599,-3.33062,-32.0289
2023-03-15 22:10:37:692,-0.543293,0.464012,-9.8602,-2.24526,-3.32137,-32.0459
2023-03-15 22:10:37:702,-0.516088,0.440898,-9.85485,-2.24358,-3.31499,-32.0631
2023-03-15 22:10:37:712,-0.496768,0.45198,-9.84309,-2.24148,-3.31423,-32.0749
2023-03-15 22:10:37:722,-0.501164,0.432424,-9.80107,-2.23846,-3.31426,-32.0851
2023-03-15 22:10:37:732,-0.51492,0.404283,-9.76914,-2.22958,-3.30868,-32.0946
2023-03-15 22:10:37:742,-0.512365,0.389668,-9.75189,-2.22141,-3.3027,-32.1011
2023-03-15 22:10:37:752,-0.511656,0.38732,-9.74458,-2.21528,-3.29334,-32.1001
2023-03-15 22:10:37:762,-0.498798,0.393442,-9.75181,-2.20925,-3.28675,-32.1004
2023-03-15 22:10:37:772,-0.506294,0.38705,-9.75908,-2.20441,-3.28062,-32.098
2023-03-15 22:10:37:782,-0.498408,0.392537,-9.75473,-2.19819,-3.27055,-32.094
2023-03-15 22:10:37:792,-0.50611,0.401673,-9.75493,-2.19288,-3.2626,-32.0893
2023-03-15 22:10:37:802,-0.500021,0.393178,-9.75431,-2.18646,-3.25918,-32.0831
2023-03-15 22:10:37:812,-0.516554,0.382489,-9.74694,-2.18068,-3.25615,-32.077
2023-03-15 22:10:37:822,-0.540662,0.397418,-9.74311,-2.17369,-3.25143,-32.0739
2023-03-15 22:10:37:832,-0.5387,0.3851,-9.74948,-2.16413,-3.25076,-32.0716
2023-03-15 22:10:37:842,-0.538832,0.388199,-9.75323,-2.15637,-3.24888,-32.073
2023-03-15 22:10:37:852,-0.540414,0.391926,-9.76922,-2.15194,-3.24977,-32.0755
2023-03-15 22:10:37:862,-0.536944,0.384356,-9.77409,-2.14708,-3.25013,-32.081
2023-03-15 22:10:37:872,-0.531792,0.383073,-9.78477,-2.14079,-3.25041,-32.0888
2023-03-15 22:10:37:882,-0.524459,0.375823,-9.78959,-2.13159,-3.25208,-32.0988
2023-03-15 22:10:37:892,-0.524045,0.37206,-9.7684,-2.12132,-3.25629,-32.1097
2023-03-15 22:10:37:902,-0.517266,0.348925,-9.76332,-2.11188,-3.26155,-32.1153
2023-03-15 22:10:37:912,-0.508725,0.339105,-9.74834,-2.10584,-3.26476,-32.1188
2023-03-15 22:10:37:922,-0.524209,0.345605,-9.7259,-2.10024,-3.26862,-32.1255
2023-03-15 22:10:37:932,-0.522767,0.332942,-9.71603,-2.09394,-3.27237,-32.1259
2023-03-15 22:10:37:942,-0.508737,0.327745,-9.71461,-2.0953,-3.27104,-32.1257
2023-03-15 22:10:37:952,-0.50404,0.333582,-9.71696,-2.09812,-3.27243,-32.1217
2023-03-15 22:10:37:962,-0.507706,0.336354,-9.73122,-2.10161,-3.27378,-32.1224
2023-03-15 22:10:37:972,-0.526678,0.335784,-9.74189,-2.10736,-3.27605,-32.1185
2023-03-15 22:10:37:982,-0.543048,0.342835,-9.73064,-2.11052,-3.28295,-32.1162
2023-03-15 22:10:37:992,-0.563261,0.35812,-9.74406,-2.11961,-3.28748,-32.1148
2023-03-15 22:10:38:2,-0.561674,0.36601,-9.76136,-2.125,-3.29003,-32.1161
2023-03-15 22:10:38:12,-0.56789,0.367429,-9.76342,-2.13109,-3.291,-32.1154
2023-03-15 22:10:38:22,-0.583585,0.358865,-9.74017,-2.13739,-3.29368,-32.1201
2023-03-15 22:10:38:32,-0.587961,0.353998,-9.72663,-2.14303,-3.2949,-32.124
2023-03-15 22:10:38:42,-0.56944,0.361546,-9.71623,-2.15395,-3.2953,-32.1295
2023-03-15 22:10:38:52,-0.562355,0.361633,-9.71517,-2.16544,-3.29642,-32.1377
2023-03-15 22:10:38:62,-0.553948,0.373615,-9.73212,-2.17776,-3.30012,-32.1443
2023-03-15 22:10:38:72,-0.546358,0.392283,-9.75436,-2.1916,-3.30134,-32.1476
2023-03-15 22:10:38:82,-0.552848,0.398826,-9.79962,-2.20512,-3.3039,-32.1529
2023-03-15 22:10:38:92,-0.560025,0.417504,-9.83055,-2.21568,-3.30609,-32.1578
2023-03-15 22:10:38:102,-0.546104,0.432358,-9.83856,-2.22544,-3.30579,-32.1617
2023-03-15 22:10:38:112,-0.562437,0.429845,-9.82004,-2.23049,-3.30614,-32.165
2023-03-15 22:10:38:122,-0.579575,0.417336,-9.79895,-2.23331,-3.30724,-32.1708
2023-03-15 22:10:38:132,-0.577836,0.405547,-9.76855,-2.23287,-3.30293,-32.1769
2023-03-15 22:10:38:142,-0.582548,0.390568,-9.77727,-2.22903,-3.29639,-32.1811
2023-03-15 22:10:38:152,-0.576426,0.400732,-9.81042,-2.22832,-3.29068,-32.1917
2023-03-15 22:10:38:162,-0.523605,0.39324,-9.79835,-2.22334,-3.28348,-32.1981
2023-03-15 22:10:38:172,-0.477926,0.370195,-9.76316,-2.21903,-3.28345,-32.2037
2023-03-15 22:10:38:182,-0.485532,0.362888,-9.75397,-2.21674,-3.29013,-32.2089
2023-03-15 22:10:38:192,-0.510805,0.376504,-9.73405,-2.21851,-3.30167,-32.2183
2023-03-15 22:10:38:202,-0.534029,0.364332,-9.7201,-2.2223,-3.31355,-32.2269
2023-03-15 22:10:38:212,-0.553212,0.36671,-9.70182,-2.23073,-3.32444,-32.2338
2023-03-15 22:10:38:222,-0.555284,0.379716,-9.70982,-2.24656,-3.33071,-32.2407
2023-03-15 22:10:38:232,-0.538482,0.40351,-9.72335,-2.2623,-3.33853,-32.2437
2023-03-15 22:10:38:242,-0.51746,0.431141,-9.73903,-2.27939,-3.34494,-32.2392
2023-03-15 22:10:38:252,-0.509035,0.428853,-9.76557,-2.29663,-3.35052,-32.2351
2023-03-15 22:10:38:262,-0.52396,0.446296,-9.77978,-2.31549,-3.3578,-32.2258
2023-03-15 22:10:38:272,-0.544229,0.465253,-9.76304,-2.33383,-3.3637,-32.2131
2023-03-15 22:10:38:282,-0.575965,0.477613,-9.75928,-2.34714,-3.36623,-32.2014
2023-03-15 22:10:38:292,-0.58938,0.479709,-9.76686,-2.35992,-3.37305,-32.1896
2023-03-15 22:10:38:302,-0.600376,0.486262,-9.78017,-2.37289,-3.37378,-32.1785
2023-03-15 22:10:38:312,-0.623217,0.483912,-9.78146,-2.38145,-3.37555,-32.1704
2023-03-15 22:10:38:322,-0.621037,0.472709,-9.78938,-2.38529,-3.37857,-32.1642
2023-03-15 22:10:38:332,-0.627034,0.471316,-9.79734,-2.38607,-3.38371,-32.1613
2023-03-15 22:10:38:342,-0.627714,0.467335,-9.79453,-2.38752,-3.3892,-32.1628
2023-03-15 22:10:38:352,-0.627701,0.455585,-9.759,-2.38506,-3.39456,-32.167
2023-03-15 22:10:38:362,-0.634263,0.435126,-9.74966,-2.38266,-3.39771,-32.1753
2023-03-15 22:10:38:372,-0.636587,0.417941,-9.77405,-2.37798,-3.40232,-32.1867
2023-03-15 22:10:38:382,-0.632545,0.420694,-9.79123,-2.37454,-3.40627,-32.1993
2023-03-15 22:10:38:392,-0.595914,0.408893,-9.78498,-2.37048,-3.40895,-32.212
2023-03-15 22:10:38:402,-0.558459,0.380815,-9.77931,-2.36465,-3.41053,-32.2249
2023-03-15 22:10:38:412,-0.527785,0.367713,-9.77575,-2.35969,-3.41459,-32.2346
2023-03-15 22:10:38:422,-0.524021,0.376504,-9.74848,-2.35885,-3.41954,-32.2423
2023-03-15 22:10:38:432,-0.552556,0.386582,-9.74961,-2.35657,-3.42388,-32.2469
2023-03-15 22:10:38:442,-0.560625,0.375184,-9.72999,-2.35864,-3.42804,-32.2502
2023-03-15 22:10:38:452,-0.550144,0.374103,-9.70511,-2.36295,-3.42942,-32.252
2023-03-15 22:10:38:462,-0.574299,0.409807,-9.71062,-2.36921,-3.42756,-32.2533
2023-03-15 22:10:38:472,-0.58198,0.430801,-9.73127,-2.37726,-3.42575,-32.2547
2023-03-15 22:10:38:482,-0.557574,0.419882,-9.72441,-2.38853,-3.42467,-32.2538
2023-03-15 22:10:38:492,-0.560757,0.435069,-9.74068,-2.3984,-3.42094,-32.2524
2023-03-15 22:10:38:502,-0.56721,0.456819,-9.76807,-2.41049,-3.41849,-32.2502
2023-03-15 22:10:38:512,-0.572333,0.476445,-9.77014,-2.4208,-3.41702,-32.2478
2023-03-15 22:10:38:522,-0.577925,0.485347,-9.78986,-2.42977,-3.41395,-32.2501
2023-03-15 22:10:38:532,-0.576362,0.491745,-9.81295,-2.43316,-3.41182,-32.254
2023-03-15 22:10:38:542,-0.596227,0.511651,-9.82907,-2.43585,-3.414,-32.2614
2023-03-15 22:10:38:552,-0.596994,0.514189,-9.83248,-2.43263,-3.41184,-32.2688
2023-03-15 22:10:38:562,-0.576399,0.494127,-9.81596,-2.43022,-3.41323,-32.2789
2023-03-15 22:10:38:572,-0.571902,0.485249,-9.80282,-2.42421,-3.41293,-32.2927
2023-03-15 22:10:38:582,-0.551329,0.457178,-9.8063,-2.41635,-3.41121,-32.3005
2023-03-15 22:10:38:592,-0.536618,0.441451,-9.78779,-2.40718,-3.41423,-32.3048
2023-03-15 22:10:38:602,-0.531516,0.432057,-9.7697,-2.39667,-3.41301,-32.3103
2023-03-15 22:10:38:612,-0.52503,0.417591,-9.76369,-2.38558,-3.4141,-32.3115
2023-03-15 22:10:38:622,-0.536847,0.414126,-9.74464,-2.37592,-3.41858,-32.3128
2023-03-15 22:10:38:632,-0.548626,0.400692,-9.73902,-2.36344,-3.42004,-32.3098
2023-03-15 22:10:38:642,-0.554467,0.394037,-9.71855,-2.35428,-3.42398,-32.3067
2023-03-15 22:10:38:652,-0.555602,0.388466,-9.71356,-2.34911,-3.42492,-32.3012
2023-03-15 22:10:38:662,-0.574971,0.385153,-9.72543,-2.34181,-3.4251,-32.3
2023-03-15 22:10:38:672,-0.57934,0.379729,-9.72187,-2.33542,-3.42754,-32.2925
2023-03-15 22:10:38:682,-0.581793,0.372111,-9.71191,-2.33396,-3.43108,-32.2913
2023-03-15 22:10:38:692,-0.590771,0.376405,-9.70518,-2.33037,-3.43493,-32.2888
2023-03-15 22:10:38:702,-0.601678,0.383044,-9.70623,-2.33233,-3.43705,-32.2878
2023-03-15 22:10:38:712,-0.588565,0.386534,-9.7016,-2.33658,-3.44218,-32.2834
2023-03-15 22:10:38:722,-0.593825,0.388444,-9.69368,-2.34163,-3.44796,-32.2845
2023-03-15 22:10:38:732,-0.587244,0.400525,-9.70745,-2.34935,-3.45271,-32.2906
2023-03-15 22:10:38:742,-0.582528,0.404836,-9.74062,-2.3589,-3.45733,-32.2953
2023-03-15 22:10:38:752,-0.574779,0.4123,-9.7405,-2.36803,-3.46585,-32.2983
2023-03-15 22:10:38:762,-0.564637,0.416822,-9.7468,-2.38011,-3.47332,-32.2981
2023-03-15 22:10:38:772,-0.56388,0.425404,-9.77769,-2.39299,-3.47773,-32.2965
2023-03-15 22:10:38:782,-0.565843,0.43584,-9.79606,-2.4037,-3.48053,-32.294
2023-03-15 22:10:38:792,-0.556522,0.470688,-9.79998,-2.41303,-3.48385,-32.2917
2023-03-15 22:10:38:802,-0.567326,0.467837,-9.79507,-2.41977,-3.48632,-32.2914
2023-03-15 22:10:38:812,-0.594523,0.465558,-9.77716,-2.42985,-3.49146,-32.2876
2023-03-15 22:10:38:822,-0.621134,0.456304,-9.73935,-2.43144,-3.49679,-32.2855
2023-03-15 22:10:38:832,-0.635337,0.439948,-9.72751,-2.43544,-3.49786,-32.2783
2023-03-15 22:10:38:842,-0.648944,0.447982,-9.76653,-2.43961,-3.49652,-32.2739
2023-03-15 22:10:38:852,-0.63719,0.465489,-9.80423,-2.44534,-3.49358,-32.2716
2023-03-15 22:10:38:862,-0.584654,0.450449,-9.79253,-2.4438,-3.48912,-32.2701
2023-03-15 22:10:38:872,-0.558656,0.422582,-9.75915,-2.44632,-3.49244,-32.2689
2023-03-15 22:10:38:882,-0.564802,0.426597,-9.73776,-2.44456,-3.49847,-32.2688
2023-03-15 22:10:38:892,-0.579175,0.425887,-9.72429,-2.44737,-3.50626,-32.267
2023-03-15 22:10:38:902,-0.608072,0.424085,-9.70783,-2.4532,-3.51287,-32.2678
2023-03-15 22:10:38:912,-0.630906,0.431658,-9.7112,-2.46034,-3.51881,-32.2697
2023-03-15 22:10:38:922,-0.622763,0.44652,-9.71785,-2.46911,-3.52683,-32.2711
2023-03-15 22:10:38:932,-0.622107,0.465072,-9.76559,-2.48352,-3.53251,-32.2728
2023-03-15 22:10:38:942,-0.606348,0.489747,-9.77936,-2.49503,-3.53913,-32.2709
2023-03-15 22:10:38:952,-0.607114,0.491728,-9.76126,-2.50935,-3.54264,-32.2687
2023-03-15 22:10:38:962,-0.642159,0.505547,-9.74603,-2.52215,-3.55081,-32.2671
2023-03-15 22:10:38:972,-0.65435,0.504683,-9.73194,-2.5314,-3.5561,-32.2623
2023-03-15 22:10:38:982,-0.647332,0.50521,-9.71652,-2.54443,-3.55821,-32.2605
2023-03-15 22:10:38:992,-0.660538,0.510813,-9.74797,-2.55448,-3.55634,-32.2554
2023-03-15 22:10:39:2,-0.673809,0.52467,-9.78005,-2.5647,-3.55453,-32.2554
2023-03-15 22:10:39:12,-0.657914,0.528676,-9.79143,-2.56998,-3.55259,-32.2594
2023-03-15 22:10:39:22,-0.669367,0.514434,-9.80755,-2.57021,-3.54829,-32.2643
2023-03-15 22:10:39:32,-0.654042,0.500531,-9.81308,-2.56634,-3.54626,-32.2699
2023-03-15 22:10:39:42,-0.637108,0.480259,-9.79206,-2.55998,-3.54148,-32.278
2023-03-15 22:10:39:52,-0.627006,0.464032,-9.74436,-2.55112,-3.54315,-32.2872
2023-03-15 22:10:39:62,-0.636151,0.443812,-9.74651,-2.54438,-3.54759,-32.3005
2023-03-15 22:10:39:72,-0.638882,0.435661,-9.75318,-2.53797,-3.54903,-32.3127
2023-03-15 22:10:39:82,-0.618101,0.437221,-9.77004,-2.53172,-3.55232,-32.3254
2023-03-15 22:10:39:92,-0.585248,0.427192,-9.75191,-2.52778,-3.55743,-32.3401
2023-03-15 22:10:39:102,-0.570178,0.412149,-9.7494,-2.52239,-3.56694,-32.3511
2023-03-15 22:10:39:112,-0.551044,0.420935,-9.76482,-2.52174,-3.57434,-32.3606
2023-03-15 22:10:39:122,-0.569419,0.430745,-9.73927,-2.52342,-3.58168,-32.3694
2023-03-15 22:10:39:132,-0.582774,0.423004,-9.72392,-2.52269,-3.58727,-32.3758
2023-03-15 22:10:39:142,-0.581788,0.426099,-9.70763,-2.52503,-3.59371,-32.3761
2023-03-15 22:10:39:152,-0.580833,0.439956,-9.71989,-2.52808,-3.59746,-32.3753
2023-03-15 22:10:39:162,-0.583116,0.464928,-9.72461,-2.53266,-3.6012,-32.3707
2023-03-15 22:10:39:172,-0.596216,0.460889,-9.73825,-2.53638,-3.60595,-32.3669
2023-03-15 22:10:39:182,-0.600927,0.449627,-9.74253,-2.54168,-3.60857,-32.3584
2023-03-15 22:10:39:192,-0.615209,0.462561,-9.73839,-2.54895,-3.60695,-32.3494
2023-03-15 22:10:39:202,-0.622815,0.47937,-9.75235,-2.55282,-3.60993,-32.3409
2023-03-15 22:10:39:212,-0.643518,0.49247,-9.7677,-2.55956,-3.61339,-32.3317
2023-03-15 22:10:39:222,-0.654272,0.513462,-9.76777,-2.56196,-3.61454,-32.3281
2023-03-15 22:10:39:232,-0.661992,0.522243,-9.80418,-2.56581,-3.61502,-32.3261
2023-03-15 22:10:39:242,-0.673816,0.531746,-9.81863,-2.56548,-3.61806,-32.3253
2023-03-15 22:10:39:252,-0.671508,0.536875,-9.8285,-2.56097,-3.62118,-32.3255
2023-03-15 22:10:39:262,-0.664164,0.517069,-9.81946,-2.55267,-3.62858,-32.3274
2023-03-15 22:10:39:272,-0.660846,0.486435,-9.81075,-2.54193,-3.63092,-32.3316
2023-03-15 22:10:39:282,-0.652839,0.479392,-9.80958,-2.52519,-3.63125,-32.3376
2023-03-15 22:10:39:292,-0.654558,0.473722,-9.77504,-2.51167,-3.63581,-32.3441
2023-03-15 22:10:39:302,-0.64848,0.438611,-9.75496,-2.49653,-3.63402,-32.3447
2023-03-15 22:10:39:312,-0.660148,0.419484,-9.7493,-2.48208,-3.6342,-32.3444
2023-03-15 22:10:39:322,-0.641605,0.411795,-9.73997,-2.46737,-3.63131,-32.3435
2023-03-15 22:10:39:332,-0.638029,0.399339,-9.72306,-2.45731,-3.62804,-32.339
2023-03-15 22:10:39:342,-0.651864,0.385852,-9.72407,-2.44478,-3.62335,-32.3329
2023-03-15 22:10:39:352,-0.649559,0.377043,-9.71284,-2.43321,-3.613,-32.3285
2023-03-15 22:10:39:362,-0.646979,0.361892,-9.70289,-2.41962,-3.60596,-32.3237
2023-03-15 22:10:39:372,-0.644134,0.368538,-9.70385,-2.41156,-3.59758,-32.3225
2023-03-15 22:10:39:382,-0.641404,0.379978,-9.71774,-2.40401,-3.59049,-32.3183
2023-03-15 22:10:39:392,-0.624841,0.382801,-9.72652,-2.39686,-3.58163,-32.3188
2023-03-15 22:10:39:402,-0.630461,0.385389,-9.72331,-2.39116,-3.57363,-32.3253
2023-03-15 22:10:39:412,-0.634592,0.39125,-9.71104,-2.38989,-3.5647,-32.3307
2023-03-15 22:10:39:422,-0.632002,0.401034,-9.71071,-2.3912,-3.56028,-32.338
2023-03-15 22:10:39:432,-0.630594,0.411381,-9.73099,-2.3934,-3.56146,-32.3473
2023-03-15 22:10:39:442,-0.615804,0.401781,-9.7401,-2.39629,-3.55693,-32.3617
2023-03-15 22:10:39:452,-0.595644,0.397883,-9.74727,-2.39656,-3.55562,-32.3755
2023-03-15 22:10:39:462,-0.576285,0.415371,-9.76842,-2.40053,-3.5488,-32.3901
2023-03-15 22:10:39:472,-0.549048,0.410822,-9.79814,-2.39768,-3.53998,-32.4016
2023-03-15 22:10:39:482,-0.544348,0.406661,-9.79703,-2.39404,-3.53088,-32.4114
2023-03-15 22:10:39:492,-0.539613,0.397711,-9.78357,-2.39161,-3.52141,-32.4149
2023-03-15 22:10:39:502,-0.554359,0.419639,-9.74627,-2.38906,-3.51859,-32.4227
2023-03-15 22:10:39:512,-0.557273,0.384615,-9.71336,-2.38351,-3.51794,-32.4267
2023-03-15 22:10:39:522,-0.55306,0.361581,-9.68545,-2.37909,-3.51226,-32.4287
2023-03-15 22:10:39:532,-0.55942,0.368247,-9.74628,-2.37875,-3.5045,-32.4277
2023-03-15 22:10:39:542,-0.562651,0.376199,-9.80619,-2.37785,-3.49644,-32.4295
2023-03-15 22:10:39:552,-0.541246,0.378073,-9.80317,-2.37642,-3.49313,-32.4279
2023-03-15 22:10:39:562,-0.530217,0.372936,-9.78419,-2.37721,-3.4928,-32.4284
2023-03-15 22:10:39:572,-0.542221,0.383081,-9.75701,-2.37919,-3.49536,-32.4247
2023-03-15 22:10:39:582,-0.559232,0.387981,-9.71416,-2.38292,-3.49721,-32.4248
2023-03-15 22:10:39:592,-0.582083,0.379573,-9.68978,-2.39093,-3.50101,-32.4252
2023-03-15 22:10:39:602,-0.60421,0.395538,-9.67714,-2.39877,-3.50383,-32.4265
2023-03-15 22:10:39:612,-0.589987,0.407551,-9.67962,-2.41283,-3.50691,-32.43
2023-03-15 22:10:39:622,-0.592617,0.42949,-9.72401,-2.43259,-3.50916,-32.4332
2023-03-15 22:10:39:632,-0.587385,0.452304,-9.77003,-2.45318,-3.51253,-32.4386
2023-03-15 22:10:39:642,-0.590708,0.477045,-9.77418,-2.47181,-3.51227,-32.4435
2023-03-15 22:10:39:652,-0.614618,0.482822,-9.7729,-2.489,-3.51491,-32.4457
2023-03-15 22:10:39:662,-0.632211,0.496153,-9.75859,-2.50509,-3.51661,-32.4479
2023-03-15 22:10:39:672,-0.630173,0.513607,-9.76137,-2.51808,-3.5161,-32.4538
2023-03-15 22:10:39:682,-0.638409,0.52244,-9.76912,-2.52985,-3.5117,-32.4591
2023-03-15 22:10:39:692,-0.653727,0.525464,-9.77206,-2.53618,-3.50762,-32.4657
2023-03-15 22:10:39:702,-0.636143,0.52237,-9.78923,-2.5423,-3.49983,-32.4752
2023-03-15 22:10:39:712,-0.623452,0.512994,-9.81058,-2.54666,-3.49329,-32.4813
2023-03-15 22:10:39:722,-0.61031,0.526018,-9.81704,-2.54775,-3.48497,-32.4915
2023-03-15 22:10:39:732,-0.600928,0.529875,-9.79518,-2.54724,-3.47754,-32.5022
2023-03-15 22:10:39:742,-0.598511,0.502212,-9.78605,-2.54337,-3.4695,-32.5129
2023-03-15 22:10:39:752,-0.620777,0.480911,-9.8021,-2.53922,-3.46333,-32.5259
2023-03-15 22:10:39:762,-0.627862,0.489274,-9.82942,-2.53246,-3.45561,-32.5349
2023-03-15 22:10:39:772,-0.613367,0.48834,-9.81618,-2.52093,-3.44632,-32.5479
2023-03-15 22:10:39:782,-0.55964,0.473134,-9.78476,-2.5098,-3.43669,-32.5605
2023-03-15 22:10:39:792,-0.545282,0.474466,-9.78955,-2.50387,-3.42937,-32.5758
2023-03-15 22:10:39:802,-0.552008,0.485291,-9.8095,-2.49102,-3.42122,-32.5928
2023-03-15 22:10:39:812,-0.546042,0.488292,-9.82621,-2.477,-3.41612,-32.6086
2023-03-15 22:10:39:822,-0.560436,0.486194,-9.80641,-2.46077,-3.40816,-32.6237
2023-03-15 22:10:39:832,-0.569805,0.480046,-9.76156,-2.44169,-3.40075,-32.6404
2023-03-15 22:10:39:842,-0.56074,0.460025,-9.75962,-2.42389,-3.38842,-32.6556
2023-03-15 22:10:39:852,-0.54658,0.452447,-9.75518,-2.40425,-3.37868,-32.6702
2023-03-15 22:10:39:862,-0.531167,0.443164,-9.73314,-2.38727,-3.36904,-32.6843
2023-03-15 22:10:39:872,-0.530775,0.436619,-9.70844,-2.37562,-3.35856,-32.6981
2023-03-15 22:10:39:882,-0.52195,0.43516,-9.71176,-2.36021,-3.34969,-32.7128
2023-03-15 22:10:39:892,-0.499844,0.428373,-9.71951,-2.34891,-3.34492,-32.7273
2023-03-15 22:10:39:902,-0.49303,0.426502,-9.72371,-2.33546,-3.34717,-32.7407
2023-03-15 22:10:39:912,-0.51493,0.428396,-9.74727,-2.32659,-3.347,-32.7546
2023-03-15 22:10:39:922,-0.490658,0.425552,-9.77373,-2.31697,-3.34636,-32.7695
2023-03-15 22:10:39:932,-0.488571,0.422147,-9.78899,-2.30366,-3.35012,-32.7802
2023-03-15 22:10:39:942,-0.499713,0.414515,-9.80084,-2.29134,-3.35785,-32.7866
2023-03-15 22:10:39:952,-0.498985,0.408556,-9.794,-2.27494,-3.36447,-32.7956
2023-03-15 22:10:39:962,-0.486666,0.393894,-9.78335,-2.25816,-3.37298,-32.7974
2023-03-15 22:10:39:972,-0.492467,0.376708,-9.7664,-2.24028,-3.38235,-32.7969
2023-03-15 22:10:39:982,-0.506707,0.35097,-9.74437,-2.2218,-3.39115,-32.7892
2023-03-15 22:10:39:992,-0.520489,0.334073,-9.73091,-2.20656,-3.40368,-32.7809
2023-03-15 22:10:40:2,-0.541101,0.321235,-9.71092,-2.19548,-3.41141,-32.767
2023-03-15 22:10:40:12,-0.560966,0.314854,-9.69541,-2.18101,-3.42235,-32.753
2023-03-15 22:10:40:22,-0.582489,0.302121,-9.70187,-2.17423,-3.43357,-32.7368
2023-03-15 22:10:40:32,-0.599236,0.322518,-9.69716,-2.17155,-3.443,-32.7201
2023-03-15 22:10:40:42,-0.618441,0.331403,-9.68793,-2.17095,-3.45296,-32.7026
2023-03-15 22:10:40:52,-0.643823,0.327308,-9.68634,-2.16938,-3.46544,-32.6861
2023-03-15 22:10:40:62,-0.665467,0.320427,-9.69403,-2.17393,-3.47383,-32.6754
2023-03-15 22:10:40:72,-0.682153,0.335304,-9.69734,-2.17758,-3.47849,-32.6654
2023-03-15 22:10:40:82,-0.677729,0.345874,-9.70962,-2.1859,-3.47993,-32.6629
2023-03-15 22:10:40:92,-0.661215,0.36607,-9.7219,-2.19481,-3.4809,-32.6637
2023-03-15 22:10:40:102,-0.656608,0.373198,-9.72369,-2.2086,-3.47779,-32.6659
2023-03-15 22:10:40:112,-0.660132,0.385474,-9.73239,-2.21958,-3.47631,-32.67
2023-03-15 22:10:40:122,-0.652206,0.396076,-9.75047,-2.22997,-3.47655,-32.6813
2023-03-15 22:10:40:132,-0.628656,0.397425,-9.77409,-2.24187,-3.47357,-32.6899
2023-03-15 22:10:40:142,-0.606603,0.397539,-9.77165,-2.2522,-3.47282,-32.6989
2023-03-15 22:10:40:152,-0.580057,0.400545,-9.76836,-2.26347,-3.46996,-32.7072
2023-03-15 22:10:40:162,-0.571424,0.40953,-9.7672,-2.27387,-3.46147,-32.7149
2023-03-15 22:10:40:172,-0.57409,0.411624,-9.75623,-2.28322,-3.45212,-32.723
2023-03-15 22:10:40:182,-0.565109,0.411356,-9.77077,-2.29802,-3.44183,-32.7268
2023-03-15 22:10:40:192,-0.54183,0.431302,-9.79376,-2.30922,-3.42851,-32.729
2023-03-15 22:10:40:202,-0.536025,0.436563,-9.80869,-2.31695,-3.41451,-32.7309
2023-03-15 22:10:40:212,-0.521329,0.441238,-9.79669,-2.32335,-3.40113,-32.7302
2023-03-15 22:10:40:222,-0.523537,0.449276,-9.76189,-2.32764,-3.39722,-32.7265
2023-03-15 22:10:40:232,-0.538475,0.435336,-9.75955,-2.33237,-3.38935,-32.7223
2023-03-15 22:10:40:242,-0.54,0.436855,-9.79144,-2.33456,-3.38436,-32.7183
2023-03-15 22:10:40:252,-0.538405,0.45352,-9.84503,-2.32809,-3.37614,-32.7171
2023-03-15 22:10:40:262,-0.517384,0.464041,-9.85374,-2.32155,-3.36777,-32.7205
2023-03-15 22:10:40:272,-0.500114,0.42644,-9.82346,-2.3122,-3.36708,-32.7198
2023-03-15 22:10:40:282,-0.509286,0.399917,-9.78071,-2.30251,-3.37228,-32.7164
2023-03-15 22:10:40:292,-0.519934,0.37941,-9.73618,-2.29089,-3.37429,-32.7187
2023-03-15 22:10:40:302,-0.540014,0.367265,-9.69833,-2.28548,-3.38013,-32.719
2023-03-15 22:10:40:312,-0.565045,0.352653,-9.66927,-2.28375,-3.39285,-32.7208
2023-03-15 22:10:40:322,-0.569612,0.350405,-9.66938,-2.29034,-3.40253,-32.7221
2023-03-15 22:10:40:332,-0.556488,0.377194,-9.7,-2.3031,-3.4104,-32.7203
2023-03-15 22:10:40:342,-0.540606,0.419577,-9.73455,-2.31579,-3.42085,-32.7163
2023-03-15 22:10:40:352,-0.550638,0.441122,-9.75784,-2.33329,-3.43058,-32.7153
2023-03-15 22:10:40:362,-0.563913,0.45047,-9.76075,-2.34951,-3.44027,-32.7125
2023-03-15 22:10:40:372,-0.594496,0.464556,-9.75255,-2.36502,-3.45332,-32.7111
2023-03-15 22:10:40:382,-0.623869,0.471706,-9.7483,-2.37681,-3.46054,-32.7115
2023-03-15 22:10:40:392,-0.637611,0.480741,-9.76127,-2.38917,-3.46802,-32.7072
2023-03-15 22:10:40:402,-0.646259,0.492475,-9.75718,-2.39908,-3.47418,-32.7048
2023-03-15 22:10:40:412,-0.654779,0.496666,-9.76385,-2.40714,-3.47622,-32.7044
2023-03-15 22:10:40:422,-0.664844,0.499948,-9.77374,-2.41624,-3.48017,-32.7055
2023-03-15 22:10:40:432,-0.672253,0.485247,-9.78771,-2.41832,-3.48441,-32.7082
2023-03-15 22:10:40:442,-0.667371,0.491603,-9.78487,-2.42049,-3.48683,-32.716
2023-03-15 22:10:40:452,-0.665473,0.494239,-9.77696,-2.4255,-3.4882,-32.7236
2023-03-15 22:10:40:462,-0.658268,0.492046,-9.75007,-2.4271,-3.49158,-32.7332
2023-03-15 22:10:40:472,-0.671857,0.484206,-9.74616,-2.42903,-3.4924,-32.7459
2023-03-15 22:10:40:482,-0.664721,0.481111,-9.78469,-2.42835,-3.49193,-32.7591
2023-03-15 22:10:40:492,-0.64792,0.494648,-9.81731,-2.42504,-3.4873,-32.7762
2023-03-15 22:10:40:502,-0.614407,0.490034,-9.82543,-2.41867,-3.48213,-32.7928
2023-03-15 22:10:40:512,-0.598651,0.468173,-9.82256,-2.4088,-3.4755,-32.8102
2023-03-15 22:10:40:522,-0.579482,0.455717,-9.80768,-2.39948,-3.47381,-32.8245
2023-03-15 22:10:40:532,-0.569704,0.443441,-9.75701,-2.38734,-3.47003,-32.8369
2023-03-15 22:10:40:542,-0.554349,0.4145,-9.71717,-2.37696,-3.46607,-32.8467
2023-03-15 22:10:40:552,-0.562388,0.419184,-9.70152,-2.36915,-3.46256,-32.859
2023-03-15 22:10:40:562,-0.559445,0.424225,-9.72398,-2.36675,-3.4607,-32.8653
2023-03-15 22:10:40:572,-0.56963,0.437225,-9.74196,-2.36197,-3.4645,-32.8736
2023-03-15 22:10:40:582,-0.580709,0.455785,-9.77829,-2.36135,-3.46743,-32.8805
2023-03-15 22:10:40:592,-0.61929,0.457963,-9.80533,-2.35656,-3.46467,-32.8857
2023-03-15 22:10:40:602,-0.652436,0.458905,-9.80556,-2.34979,-3.46206,-32.8916
2023-03-15 22:10:40:612,-0.674778,0.457941,-9.79412,-2.34132,-3.45704,-32.8969
2023-03-15 22:10:40:622,-0.674106,0.43829,-9.79501,-2.32994,-3.44661,-32.9019
2023-03-15 22:10:40:632,-0.6756,0.435094,-9.78296,-2.31573,-3.43282,-32.9144
2023-03-15 22:10:40:642,-0.680144,0.437963,-9.78585,-2.3004,-3.41364,-32.9275
2023-03-15 22:10:40:652,-0.673456,0.441047,-9.78114,-2.28397,-3.39526,-32.9418
2023-03-15 22:10:40:662,-0.656503,0.425871,-9.77516,-2.26655,-3.37569,-32.9619
2023-03-15 22:10:40:672,-0.633351,0.419572,-9.77099,-2.24556,-3.35413,-32.9818
2023-03-15 22:10:40:682,-0.592877,0.402752,-9.78229,-2.2237,-3.33489,-33.0093
2023-03-15 22:10:40:692,-0.559211,0.382077,-9.79349,-2.20146,-3.31743,-33.0389
2023-03-15 22:10:40:702,-0.524306,0.359187,-9.78026,-2.17564,-3.29885,-33.0633
2023-03-15 22:10:40:712,-0.503908,0.333525,-9.75161,-2.14991,-3.28049,-33.0863
2023-03-15 22:10:40:722,-0.467524,0.325031,-9.74294,-2.12582,-3.26548,-33.1087
2023-03-15 22:10:40:732,-0.446511,0.302468,-9.74857,-2.10031,-3.25031,-33.1261
2023-03-15 22:10:40:742,-0.441374,0.286165,-9.74189,-2.07381,-3.23862,-33.1384
2023-03-15 22:10:40:752,-0.442469,0.287413,-9.73596,-2.05027,-3.22649,-33.1454
2023-03-15 22:10:40:762,-0.441984,0.287328,-9.747,-2.03009,-3.21378,-33.1509
2023-03-15 22:10:40:772,-0.459677,0.293366,-9.75236,-2.00973,-3.2024,-33.1545
2023-03-15 22:10:40:782,-0.48527,0.301322,-9.74873,-1.98987,-3.19234,-33.1546
2023-03-15 22:10:40:792,-0.494381,0.297433,-9.75421,-1.96726,-3.18002,-33.1548
2023-03-15 22:10:40:802,-0.509376,0.288515,-9.74508,-1.94922,-3.1667,-33.1531
2023-03-15 22:10:40:812,-0.506856,0.273295,-9.73311,-1.9313,-3.15521,-33.1514
2023-03-15 22:10:40:822,-0.503269,0.272152,-9.70505,-1.91653,-3.14514,-33.1484
2023-03-15 22:10:40:832,-0.518112,0.265968,-9.69473,-1.90479,-3.13903,-33.1471
2023-03-15 22:10:40:842,-0.505218,0.255843,-9.68913,-1.89354,-3.13414,-33.148
2023-03-15 22:10:40:852,-0.505964,0.262186,-9.7083,-1.8902,-3.13227,-33.1505
2023-03-15 22:10:40:862,-0.511933,0.27845,-9.72959,-1.88607,-3.13025,-33.1521
2023-03-15 22:10:40:872,-0.527411,0.291631,-9.74564,-1.88504,-3.13119,-33.1576
2023-03-15 22:10:40:882,-0.515562,0.297059,-9.75878,-1.88586,-3.13345,-33.1628
2023-03-15 22:10:40:892,-0.510512,0.291639,-9.76627,-1.88645,-3.13671,-33.1683
2023-03-15 22:10:40:902,-0.501195,0.285742,-9.76155,-1.88636,-3.14017,-33.1726
2023-03-15 22:10:40:912,-0.500528,0.293038,-9.74147,-1.88882,-3.13948,-33.1739
2023-03-15 22:10:40:922,-0.489676,0.285376,-9.72694,-1.89024,-3.13853,-33.1745
2023-03-15 22:10:40:932,-0.496077,0.288306,-9.74133,-1.89453,-3.1413,-33.1693
2023-03-15 22:10:40:942,-0.495317,0.302768,-9.75788,-1.9009,-3.14261,-33.1621
2023-03-15 22:10:40:952,-0.493057,0.305611,-9.76465,-1.90289,-3.14101,-33.1541
2023-03-15 22:10:40:962,-0.521043,0.3219,-9.74992,-1.91071,-3.13715,-33.146
2023-03-15 22:10:40:972,-0.541802,0.330519,-9.72272,-1.91686,-3.1334,-33.1391
2023-03-15 22:10:40:982,-0.56513,0.31138,-9.72888,-1.92161,-3.13095,-33.1346
2023-03-15 22:10:40:992,-0.575973,0.320493,-9.77312,-1.92906,-3.12674,-33.1321
2023-03-15 22:10:41:2,-0.576733,0.343587,-9.825,-1.931,-3.12618,-33.1321
2023-03-15 22:10:41:12,-0.55794,0.324131,-9.82234,-1.92932,-3.12616,-33.1307
2023-03-15 22:10:41:22,-0.532951,0.308233,-9.78527,-1.93057,-3.12752,-33.1327
2023-03-15 22:10:41:32,-0.525702,0.29382,-9.76271,-1.93229,-3.1359,-33.1388
2023-03-15 22:10:41:42,-0.529436,0.290089,-9.74813,-1.93492,-3.14425,-33.1483
2023-03-15 22:10:41:52,-0.526428,0.294525,-9.71848,-1.94103,-3.15313,-33.1556
2023-03-15 22:10:41:62,-0.530998,0.285678,-9.69107,-1.95142,-3.16131,-33.1607
2023-03-15 22:10:41:72,-0.530616,0.28929,-9.70148,-1.96524,-3.16525,-33.1664
2023-03-15 22:10:41:82,-0.496904,0.308748,-9.70566,-1.98356,-3.17069,-33.1715
2023-03-15 22:10:41:92,-0.480604,0.316305,-9.72438,-2.00405,-3.1756,-33.169
2023-03-15 22:10:41:102,-0.496368,0.35284,-9.74801,-2.02844,-3.18154,-33.1678
2023-03-15 22:10:41:112,-0.526225,0.374985,-9.75341,-2.05541,-3.18252,-33.1632
2023-03-15 22:10:41:122,-0.548123,0.407625,-9.75059,-2.08014,-3.18583,-33.1574
2023-03-15 22:10:41:132,-0.570163,0.418581,-9.76372,-2.10133,-3.18314,-33.1513
2023-03-15 22:10:41:142,-0.579199,0.437829,-9.76234,-2.12187,-3.18266,-33.1462
2023-03-15 22:10:41:152,-0.587639,0.440899,-9.76941,-2.1385,-3.17864,-33.139
2023-03-15 22:10:41:162,-0.602273,0.44524,-9.77691,-2.15366,-3.1753,-33.137
