Timestamp,Acceleration_x,Acceleration_y,Acceleration_z,roll,pitch,yaw
2023-03-14 16:19:15:460,-0.821998,1.06174,-9.72228,-6.35291,-5.16313,69.75
2023-03-14 16:19:15:468,-0.801977,1.07393,-9.73481,-6.35791,-5.14821,69.7658
2023-03-14 16:19:15:478,-0.80264,1.07495,-9.74731,-6.36133,-5.13312,69.783
2023-03-14 16:19:15:488,-0.821452,1.07712,-9.75564,-6.36479,-5.11985,69.8025
2023-03-14 16:19:15:498,-0.845852,1.09282,-9.74589,-6.36398,-5.10877,69.825
2023-03-14 16:19:15:508,-0.875185,1.10026,-9.72557,-6.35736,-5.09979,69.8456
2023-03-14 16:19:15:518,-0.88393,1.0865,-9.70099,-6.3493,-5.09207,69.8652
2023-03-14 16:19:15:528,-0.907288,1.06129,-9.68292,-6.34042,-5.08402,69.8798
2023-03-14 16:19:15:538,-0.911955,1.05016,-9.6605,-6.32735,-5.07988,69.8899
2023-03-14 16:19:15:548,-0.919013,1.06001,-9.67119,-6.31357,-5.07651,69.8915
2023-03-14 16:19:15:558,-0.900188,1.05236,-9.68749,-6.3037,-5.07223,69.8875
2023-03-14 16:19:15:568,-0.864734,1.03258,-9.68565,-6.28824,-5.07126,69.8767
2023-03-14 16:19:15:578,-0.839186,1.01887,-9.65672,-6.27709,-5.07123,69.8632
2023-03-14 16:19:15:588,-0.830953,1.00593,-9.6414,-6.26483,-5.07865,69.8445
2023-03-14 16:19:15:598,-0.831196,1.00705,-9.64149,-6.25952,-5.08625,69.8259
2023-03-14 16:19:15:608,-0.814512,0.995952,-9.65711,-6.25282,-5.09537,69.8077
2023-03-14 16:19:15:618,-0.816969,0.989936,-9.64642,-6.24806,-5.10624,69.7923
2023-03-14 16:19:15:628,-0.830383,0.990445,-9.63207,-6.24415,-5.11798,69.7773
2023-03-14 16:19:15:638,-0.827337,1.00665,-9.63097,-6.24536,-5.12648,69.7651
2023-03-14 16:19:15:648,-0.832604,1.01427,-9.62941,-6.24881,-5.12851,69.7574
2023-03-14 16:19:15:658,-0.829963,1.02474,-9.64467,-6.25608,-5.13075,69.755
2023-03-14 16:19:15:668,-0.842952,1.03727,-9.6726,-6.26445,-5.13477,69.7528
2023-03-14 16:19:15:678,-0.860052,1.05439,-9.69702,-6.27186,-5.14075,69.7531
2023-03-14 16:19:15:688,-0.873395,1.06592,-9.71885,-6.28047,-5.14622,69.7612
2023-03-14 16:19:15:698,-0.887705,1.05518,-9.71678,-6.28953,-5.14813,69.7671
2023-03-14 16:19:15:708,-0.913131,1.07413,-9.69121,-6.2937,-5.15626,69.7762
2023-03-14 16:19:15:718,-0.928665,1.07122,-9.67318,-6.29967,-5.16135,69.7836
2023-03-14 16:19:15:728,-0.926548,1.06364,-9.6648,-6.30689,-5.1653,69.7872
2023-03-14 16:19:15:738,-0.935308,1.07985,-9.67206,-6.31523,-5.16917,69.7911
2023-03-14 16:19:15:748,-0.925876,1.08383,-9.68711,-6.32068,-5.17117,69.7929
2023-03-14 16:19:15:758,-0.917223,1.08919,-9.70946,-6.32991,-5.17358,69.7895
2023-03-14 16:19:15:768,-0.890765,1.10684,-9.76108,-6.34072,-5.17581,69.7873
2023-03-14 16:19:15:778,-0.862728,1.11601,-9.78967,-6.34811,-5.177,69.7847
2023-03-14 16:19:15:788,-0.858401,1.10124,-9.7829,-6.34721,-5.17791,69.7856
2023-03-14 16:19:15:798,-0.844009,1.06915,-9.72291,-6.34391,-5.18146,69.7816
2023-03-14 16:19:15:808,-0.864914,1.05926,-9.6746,-6.33812,-5.18585,69.7826
2023-03-14 16:19:15:818,-0.896157,1.07043,-9.6585,-6.33709,-5.19018,69.7881
2023-03-14 16:19:15:828,-0.899431,1.08231,-9.65666,-6.33835,-5.19279,69.7948
2023-03-14 16:19:15:838,-0.906152,1.08501,-9.64922,-6.33738,-5.19125,69.8004
2023-03-14 16:19:15:848,-0.905727,1.08334,-9.63647,-6.33773,-5.19207,69.8073
2023-03-14 16:19:15:858,-0.915688,1.09327,-9.64835,-6.33902,-5.19075,69.8123
2023-03-14 16:19:15:868,-0.94813,1.11315,-9.64697,-6.34083,-5.18877,69.8185
2023-03-14 16:19:15:878,-0.971518,1.11751,-9.65146,-6.34279,-5.18475,69.8225
2023-03-14 16:19:15:888,-0.96454,1.11048,-9.65953,-6.3385,-5.18172,69.8231
2023-03-14 16:19:15:898,-0.952952,1.09169,-9.67498,-6.33069,-5.17076,69.82
2023-03-14 16:19:15:908,-0.944994,1.07369,-9.69112,-6.32323,-5.16109,69.814
2023-03-14 16:19:15:918,-0.913672,1.07155,-9.69906,-6.31708,-5.14825,69.8055
2023-03-14 16:19:15:928,-0.905349,1.08741,-9.70232,-6.31082,-5.13712,69.7945
2023-03-14 16:19:15:938,-0.909569,1.08938,-9.69506,-6.30665,-5.124,69.7788
2023-03-14 16:19:15:948,-0.8964,1.08324,-9.70271,-6.30458,-5.10898,69.7622
2023-03-14 16:19:15:958,-0.854482,1.09188,-9.72697,-6.29991,-5.09625,69.7425
2023-03-14 16:19:15:968,-0.816503,1.10315,-9.71412,-6.29439,-5.08414,69.722
2023-03-14 16:19:15:978,-0.797199,1.09728,-9.69716,-6.29181,-5.07288,69.6988
2023-03-14 16:19:15:988,-0.790967,1.09595,-9.69284,-6.28887,-5.06204,69.6753
2023-03-14 16:19:15:998,-0.808191,1.10035,-9.70258,-6.2864,-5.05206,69.6558
2023-03-14 16:19:16:8,-0.809067,1.10448,-9.69765,-6.28156,-5.0432,69.6332
2023-03-14 16:19:16:18,-0.802277,1.12008,-9.71216,-6.27847,-5.03259,69.6143
2023-03-14 16:19:16:28,-0.752687,1.12328,-9.74751,-6.27241,-5.02046,69.5934
2023-03-14 16:19:16:38,-0.700496,1.1061,-9.76298,-6.26172,-5.0126,69.5746
2023-03-14 16:19:16:48,-0.69618,1.07237,-9.74038,-6.24617,-5.00943,69.5582
2023-03-14 16:19:16:58,-0.711571,1.04977,-9.68759,-6.22974,-5.00643,69.5391
2023-03-14 16:19:16:68,-0.725526,1.0322,-9.67502,-6.21074,-5.00498,69.5287
2023-03-14 16:19:16:78,-0.727942,1.02082,-9.68509,-6.19851,-5.00202,69.521
2023-03-14 16:19:16:88,-0.721463,1.02313,-9.69799,-6.18875,-5.00447,69.5152
2023-03-14 16:19:16:98,-0.710433,1.03257,-9.71154,-6.17902,-5.00488,69.511
2023-03-14 16:19:16:108,-0.724428,1.02723,-9.71589,-6.1684,-5.00675,69.5136
2023-03-14 16:19:16:118,-0.75016,1.02102,-9.70966,-6.15759,-5.01071,69.5194
2023-03-14 16:19:16:128,-0.775957,1.03104,-9.68696,-6.14542,-5.01396,69.5287
2023-03-14 16:19:16:138,-0.806729,1.02994,-9.67227,-6.13376,-5.02197,69.5396
2023-03-14 16:19:16:148,-0.836409,1.01674,-9.64625,-6.1201,-5.02992,69.5514
2023-03-14 16:19:16:158,-0.854962,0.994586,-9.62825,-6.10691,-5.03794,69.564
2023-03-14 16:19:16:168,-0.851643,0.980247,-9.62748,-6.09536,-5.04504,69.5719
2023-03-14 16:19:16:178,-0.86336,0.969221,-9.62155,-6.08942,-5.05164,69.5806
2023-03-14 16:19:16:188,-0.835318,0.966775,-9.6491,-6.08468,-5.06173,69.5888
2023-03-14 16:19:16:198,-0.837693,0.982204,-9.68616,-6.08201,-5.07259,69.5955
2023-03-14 16:19:16:208,-0.842986,0.978646,-9.72074,-6.08277,-5.08273,69.6011
2023-03-14 16:19:16:218,-0.854881,0.972928,-9.70257,-6.07874,-5.09155,69.6021
2023-03-14 16:19:16:228,-0.870677,0.979934,-9.6669,-6.07918,-5.10508,69.6057
2023-03-14 16:19:16:238,-0.875615,0.965948,-9.65045,-6.08012,-5.11396,69.6089
2023-03-14 16:19:16:248,-0.888209,0.963877,-9.63692,-6.08228,-5.12555,69.6147
2023-03-14 16:19:16:258,-0.915153,0.971054,-9.63051,-6.08863,-5.13497,69.6168
2023-03-14 16:19:16:268,-0.924605,0.978738,-9.65196,-6.09338,-5.14212,69.6217
2023-03-14 16:19:16:278,-0.917614,0.989136,-9.65509,-6.10126,-5.1455,69.6253
2023-03-14 16:19:16:288,-0.903773,0.995928,-9.64869,-6.10987,-5.14656,69.6247
2023-03-14 16:19:16:298,-0.901148,1.008,-9.66347,-6.12223,-5.14666,69.6207
2023-03-14 16:19:16:308,-0.899622,1.02517,-9.67209,-6.13452,-5.14904,69.6182
2023-03-14 16:19:16:318,-0.894623,1.03737,-9.68187,-6.14319,-5.15116,69.6138
2023-03-14 16:19:16:328,-0.896276,1.03998,-9.68519,-6.15287,-5.15273,69.6097
2023-03-14 16:19:16:338,-0.901437,1.04779,-9.70246,-6.16339,-5.15323,69.604
2023-03-14 16:19:16:348,-0.900485,1.07244,-9.73806,-6.17341,-5.15034,69.6019
2023-03-14 16:19:16:358,-0.891484,1.06501,-9.74567,-6.1802,-5.1509,69.5964
2023-03-14 16:19:16:368,-0.847542,1.05336,-9.75158,-6.18728,-5.14861,69.5917
2023-03-14 16:19:16:378,-0.749983,1.05058,-9.75421,-6.18938,-5.1448,69.5865
2023-03-14 16:19:16:388,-0.700024,1.03948,-9.75143,-6.18907,-5.13542,69.5828
2023-03-14 16:19:16:398,-0.721207,1.02881,-9.71991,-6.18096,-5.12365,69.5881
2023-03-14 16:19:16:408,-0.791882,1.00752,-9.68075,-6.17064,-5.11546,69.6009
2023-03-14 16:19:16:418,-0.837256,0.99355,-9.62843,-6.16307,-5.10844,69.6184
2023-03-14 16:19:16:428,-0.855996,0.990243,-9.62011,-6.15927,-5.10339,69.6389
2023-03-14 16:19:16:438,-0.881298,1.01655,-9.65877,-6.16062,-5.10381,69.6591
2023-03-14 16:19:16:448,-0.911716,1.06321,-9.6875,-6.16377,-5.10855,69.679
2023-03-14 16:19:16:458,-0.940805,1.07,-9.70013,-6.16767,-5.11607,69.6945
2023-03-14 16:19:16:468,-0.948858,1.06191,-9.719,-6.1721,-5.12598,69.7025
2023-03-14 16:19:16:478,-0.967839,1.06666,-9.71477,-6.17067,-5.13288,69.7069
2023-03-14 16:19:16:488,-0.97267,1.03984,-9.6895,-6.16936,-5.14381,69.7062
2023-03-14 16:19:16:498,-0.946696,1.028,-9.65611,-6.16285,-5.15628,69.7031
2023-03-14 16:19:16:508,-0.92942,1.0192,-9.64432,-6.15854,-5.16229,69.6964
2023-03-14 16:19:16:518,-0.911325,1.01468,-9.67021,-6.15478,-5.16886,69.6879
2023-03-14 16:19:16:528,-0.908904,1.02032,-9.69778,-6.15509,-5.17233,69.6797
2023-03-14 16:19:16:538,-0.906787,1.01269,-9.68932,-6.15424,-5.17569,69.6741
2023-03-14 16:19:16:548,-0.887953,1.00021,-9.67656,-6.15336,-5.17694,69.6672
2023-03-14 16:19:16:558,-0.892578,1.00614,-9.66591,-6.15286,-5.17725,69.6607
2023-03-14 16:19:16:568,-0.892206,0.990555,-9.6504,-6.15325,-5.17394,69.6562
2023-03-14 16:19:16:578,-0.90084,0.985845,-9.64672,-6.15363,-5.17445,69.6536
2023-03-14 16:19:16:588,-0.893752,0.993514,-9.6504,-6.15213,-5.17052,69.6497
2023-03-14 16:19:16:598,-0.891075,0.997484,-9.67651,-6.157,-5.16443,69.6448
2023-03-14 16:19:16:608,-0.870454,1.01226,-9.72589,-6.16166,-5.15848,69.6418
2023-03-14 16:19:16:618,-0.844208,1.03424,-9.75777,-6.16897,-5.14889,69.6362
2023-03-14 16:19:16:628,-0.816319,1.0227,-9.73812,-6.17209,-5.13939,69.632
2023-03-14 16:19:16:638,-0.803433,0.998865,-9.69009,-6.17242,-5.13967,69.624
2023-03-14 16:19:16:648,-0.815719,0.984202,-9.66717,-6.17334,-5.13936,69.6166
2023-03-14 16:19:16:658,-0.831207,0.987382,-9.65972,-6.17573,-5.13733,69.6135
2023-03-14 16:19:16:668,-0.854048,1.01078,-9.62867,-6.18219,-5.13821,69.6096
2023-03-14 16:19:16:678,-0.869243,1.02281,-9.6276,-6.19092,-5.13963,69.6122
2023-03-14 16:19:16:688,-0.83967,1.03448,-9.64395,-6.20036,-5.14018,69.6086
2023-03-14 16:19:16:698,-0.84214,1.06136,-9.66094,-6.21485,-5.13652,69.6113
2023-03-14 16:19:16:708,-0.888383,1.0678,-9.65587,-6.2276,-5.13461,69.6145
2023-03-14 16:19:16:718,-0.913238,1.06601,-9.65738,-6.23942,-5.13428,69.6198
2023-03-14 16:19:16:728,-0.931599,1.07799,-9.6717,-6.25093,-5.13391,69.6208
2023-03-14 16:19:16:738,-0.92755,1.08608,-9.67308,-6.26244,-5.13014,69.6223
2023-03-14 16:19:16:748,-0.923582,1.08054,-9.67391,-6.27034,-5.12537,69.6194
2023-03-14 16:19:16:758,-0.92359,1.08174,-9.67404,-6.28086,-5.1168,69.6175
2023-03-14 16:19:16:768,-0.917461,1.09781,-9.6909,-6.29516,-5.11062,69.6139
2023-03-14 16:19:16:778,-0.91916,1.10706,-9.70643,-6.31089,-5.1004,69.609
2023-03-14 16:19:16:788,-0.902933,1.09769,-9.72772,-6.32308,-5.08969,69.6002
2023-03-14 16:19:16:798,-0.871109,1.09928,-9.74121,-6.33324,-5.08132,69.5897
2023-03-14 16:19:16:808,-0.848802,1.10868,-9.71819,-6.34126,-5.07057,69.5776
2023-03-14 16:19:16:818,-0.823235,1.09725,-9.67441,-6.3474,-5.05893,69.5648
2023-03-14 16:19:16:828,-0.787473,1.09605,-9.66618,-6.35437,-5.05197,69.5453
2023-03-14 16:19:16:838,-0.787466,1.10234,-9.69332,-6.36283,-5.0437,69.5282
2023-03-14 16:19:16:848,-0.81437,1.12664,-9.70022,-6.37471,-5.04189,69.519
2023-03-14 16:19:16:858,-0.839173,1.13105,-9.67783,-6.38228,-5.03785,69.51
2023-03-14 16:19:16:868,-0.839861,1.13801,-9.70017,-6.38977,-5.02838,69.5078
2023-03-14 16:19:16:878,-0.808086,1.14769,-9.75728,-6.40021,-5.01864,69.5062
2023-03-14 16:19:16:888,-0.775452,1.13509,-9.75976,-6.40445,-5.01126,69.5024
2023-03-14 16:19:16:898,-0.77688,1.10827,-9.72535,-6.40202,-5.0061,69.5008
2023-03-14 16:19:16:908,-0.812211,1.10637,-9.70834,-6.40245,-5.00286,69.4984
2023-03-14 16:19:16:918,-0.855868,1.11387,-9.71084,-6.40306,-4.99716,69.5001
2023-03-14 16:19:16:928,-0.85839,1.10926,-9.70658,-6.40287,-4.99179,69.4999
2023-03-14 16:19:16:938,-0.848054,1.10639,-9.71462,-6.4012,-4.98864,69.4999
2023-03-14 16:19:16:948,-0.843494,1.13048,-9.73037,-6.39864,-4.98415,69.5016
2023-03-14 16:19:16:958,-0.821405,1.12078,-9.73137,-6.39478,-4.97465,69.5033
2023-03-14 16:19:16:968,-0.808135,1.10723,-9.74304,-6.39001,-4.97004,69.5025
2023-03-14 16:19:16:978,-0.8115,1.12337,-9.73968,-6.38192,-4.96554,69.5003
2023-03-14 16:19:16:988,-0.806346,1.08163,-9.66356,-6.36925,-4.96269,69.5011
2023-03-14 16:19:16:998,-0.805926,1.04012,-9.63122,-6.3536,-4.96239,69.5005
2023-03-14 16:19:17:8,-0.828073,1.04458,-9.64261,-6.34537,-4.96454,69.5049
2023-03-14 16:19:17:18,-0.849042,1.06306,-9.66765,-6.3386,-4.96843,69.5078
2023-03-14 16:19:17:28,-0.873858,1.05913,-9.68757,-6.33227,-4.97254,69.5113
2023-03-14 16:19:17:38,-0.874287,1.06981,-9.72553,-6.32888,-4.97875,69.5139
2023-03-14 16:19:17:48,-0.8789,1.06823,-9.76467,-6.32009,-4.985,69.5143
2023-03-14 16:19:17:58,-0.90088,1.0348,-9.76225,-6.30505,-4.98744,69.5107
2023-03-14 16:19:17:68,-0.925185,1.0101,-9.73143,-6.28648,-4.99066,69.5084
2023-03-14 16:19:17:78,-0.943952,0.99443,-9.6935,-6.26818,-4.99516,69.5064
2023-03-14 16:19:17:88,-0.983349,0.999687,-9.65424,-6.2523,-5.00175,69.5024
2023-03-14 16:19:17:98,-1.0267,1.01428,-9.63081,-6.24192,-5.01062,69.4934
2023-03-14 16:19:17:108,-1.04377,1.00667,-9.65048,-6.23255,-5.01443,69.4824
2023-03-14 16:19:17:118,-1.04323,1.02035,-9.66403,-6.22299,-5.01367,69.4675
2023-03-14 16:19:17:128,-1.01292,1.03174,-9.65555,-6.21171,-5.00528,69.4453
2023-03-14 16:19:17:138,-0.980781,1.04494,-9.6704,-6.19858,-4.9898,69.4189
2023-03-14 16:19:17:148,-0.932939,1.09897,-9.70428,-6.18616,-4.96885,69.388
2023-03-14 16:19:17:158,-0.91632,1.1729,-9.76578,-6.17224,-4.94507,69.3564
2023-03-14 16:19:17:168,-0.898763,1.24891,-9.82876,-6.15348,-4.92426,69.3192
2023-03-14 16:19:17:178,-0.866888,1.2517,-9.81238,-6.12382,-4.89983,69.2772
2023-03-14 16:19:17:188,-0.838379,1.19223,-9.74892,-6.08199,-4.87794,69.2307
2023-03-14 16:19:17:198,-0.817776,1.14758,-9.70727,-6.03449,-4.85507,69.1834
2023-03-14 16:19:17:208,-0.785711,1.12217,-9.68906,-5.98566,-4.83396,69.1336
2023-03-14 16:19:17:218,-0.775277,1.0647,-9.70835,-5.9376,-4.81079,69.0836
2023-03-14 16:19:17:228,-0.796032,1.0416,-9.7396,-5.8884,-4.7896,69.0349
2023-03-14 16:19:17:238,-0.792511,1.00295,-9.72036,-5.83769,-4.77264,68.9849
2023-03-14 16:19:17:248,-0.778741,0.958136,-9.70072,-5.78355,-4.75682,68.9331
2023-03-14 16:19:17:258,-0.758188,0.929485,-9.66386,-5.73571,-4.73816,68.8785
2023-03-14 16:19:17:268,-0.744484,0.898142,-9.66491,-5.68572,-4.7187,68.8242
2023-03-14 16:19:17:278,-0.721764,0.880357,-9.66384,-5.64157,-4.69866,68.7712
2023-03-14 16:19:17:288,-0.678776,0.84462,-9.62239,-5.59662,-4.67884,68.7175
2023-03-14 16:19:17:298,-0.635135,0.805572,-9.59489,-5.55706,-4.6597,68.6659
2023-03-14 16:19:17:308,-0.564273,0.796173,-9.59096,-5.52813,-4.64122,68.6178
2023-03-14 16:19:17:318,-0.536731,0.781686,-9.60959,-5.50134,-4.62702,68.5772
2023-03-14 16:19:17:328,-0.534926,0.771409,-9.60226,-5.47972,-4.61511,68.5434
2023-03-14 16:19:17:338,-0.543764,0.765436,-9.61723,-5.46451,-4.60749,68.5156
2023-03-14 16:19:17:348,-0.566352,0.762453,-9.6178,-5.45286,-4.60669,68.4953
2023-03-14 16:19:17:358,-0.579234,0.749686,-9.6193,-5.44514,-4.6062,68.4842
2023-03-14 16:19:17:368,-0.590849,0.760617,-9.61566,-5.44316,-4.60985,68.4789
2023-03-14 16:19:17:378,-0.593679,0.773015,-9.61829,-5.44971,-4.6155,68.4768
2023-03-14 16:19:17:388,-0.600135,0.785803,-9.66511,-5.46032,-4.62533,68.4855
2023-03-14 16:19:17:398,-0.628786,0.832391,-9.70368,-5.4762,-4.63317,68.4981
2023-03-14 16:19:17:408,-0.67889,0.871725,-9.72536,-5.49501,-4.65014,68.514
2023-03-14 16:19:17:418,-0.721438,0.8851,-9.72457,-5.51616,-4.67359,68.5306
2023-03-14 16:19:17:428,-0.758635,0.894566,-9.71084,-5.53417,-4.699,68.5545
2023-03-14 16:19:17:438,-0.772275,0.918639,-9.68663,-5.55483,-4.72305,68.5779
2023-03-14 16:19:17:448,-0.772271,0.914704,-9.65609,-5.57915,-4.74875,68.6006
2023-03-14 16:19:17:458,-0.795661,0.895354,-9.65917,-5.60239,-4.77771,68.6255
2023-03-14 16:19:17:468,-0.827008,0.906237,-9.69087,-5.62796,-4.80578,68.652
2023-03-14 16:19:17:478,-0.844297,0.933075,-9.734,-5.65463,-4.8347,68.6749
2023-03-14 16:19:17:488,-0.858696,0.952326,-9.76219,-5.6856,-4.86463,68.698
2023-03-14 16:19:17:498,-0.862517,0.962777,-9.75903,-5.71011,-4.89189,68.7185
2023-03-14 16:19:17:508,-0.899138,0.969372,-9.72305,-5.73271,-4.92435,68.7397
2023-03-14 16:19:17:518,-0.892295,0.976644,-9.70523,-5.75457,-4.9533,68.7619
2023-03-14 16:19:17:528,-0.891921,1.01066,-9.72423,-5.77559,-4.98039,68.7804
2023-03-14 16:19:17:538,-0.909555,1.04152,-9.74417,-5.80043,-5.00744,68.8005
2023-03-14 16:19:17:548,-0.901534,1.03875,-9.75041,-5.82111,-5.03164,68.8187
2023-03-14 16:19:17:558,-0.88982,1.03302,-9.71439,-5.83485,-5.05251,68.8363
2023-03-14 16:19:17:568,-0.897886,1.01558,-9.68914,-5.84501,-5.07064,68.859
2023-03-14 16:19:17:578,-0.912516,1.00809,-9.6392,-5.85607,-5.08659,68.8815
2023-03-14 16:19:17:588,-0.940973,1.00464,-9.60771,-5.86669,-5.09931,68.9061
2023-03-14 16:19:17:598,-0.95531,0.978395,-9.62107,-5.87262,-5.11323,68.9261
2023-03-14 16:19:17:608,-0.964059,0.985898,-9.65616,-5.88295,-5.12397,68.9462
2023-03-14 16:19:17:618,-0.960948,1.00142,-9.68021,-5.8904,-5.13213,68.9674
2023-03-14 16:19:17:628,-0.965657,0.995402,-9.70147,-5.89793,-5.1364,68.9828
2023-03-14 16:19:17:638,-0.958604,0.99465,-9.7056,-5.90436,-5.1432,68.9934
2023-03-14 16:19:17:648,-0.953829,0.982989,-9.69034,-5.90989,-5.147,69.0026
2023-03-14 16:19:17:658,-0.952361,0.969068,-9.67673,-5.91621,-5.1463,69.0068
2023-03-14 16:19:17:668,-0.947515,0.971101,-9.66201,-5.92152,-5.14471,69.0128
2023-03-14 16:19:17:678,-0.906966,0.966615,-9.67467,-5.93106,-5.14217,69.0137
2023-03-14 16:19:17:688,-0.850352,0.996308,-9.70512,-5.94405,-5.13869,69.0122
2023-03-14 16:19:17:698,-0.806565,1.03056,-9.71491,-5.95633,-5.13212,69.0125
2023-03-14 16:19:17:708,-0.815751,1.067,-9.731,-5.96418,-5.12474,69.0142
2023-03-14 16:19:17:718,-0.856264,1.08716,-9.75413,-5.97168,-5.12309,69.0189
2023-03-14 16:19:17:728,-0.891206,1.08374,-9.73938,-5.9769,-5.11895,69.0245
2023-03-14 16:19:17:738,-0.890356,1.07628,-9.70696,-5.97784,-5.10986,69.0286
2023-03-14 16:19:17:748,-0.85021,1.07109,-9.6878,-5.977,-5.09534,69.0342
2023-03-14 16:19:17:758,-0.817657,1.05818,-9.65789,-5.97606,-5.08048,69.0384
2023-03-14 16:19:17:768,-0.782293,1.05196,-9.63347,-5.9753,-5.06396,69.0421
2023-03-14 16:19:17:778,-0.774018,1.07415,-9.61601,-5.97992,-5.04992,69.0475
2023-03-14 16:19:17:788,-0.821513,1.09797,-9.60102,-5.98965,-5.03784,69.0539
2023-03-14 16:19:17:798,-0.897297,1.11767,-9.60926,-6.0076,-5.02653,69.0634
2023-03-14 16:19:17:808,-0.899672,1.15295,-9.66159,-6.02996,-5.01199,69.0687
2023-03-14 16:19:17:819,-0.825229,1.18728,-9.73614,-6.05406,-4.99398,69.0698
2023-03-14 16:19:17:828,-0.746982,1.20147,-9.78085,-6.07214,-4.97282,69.0644
2023-03-14 16:19:17:838,-0.759294,1.19664,-9.77381,-6.08457,-4.95413,69.0605
2023-03-14 16:19:17:848,-0.783805,1.17939,-9.75318,-6.08606,-4.9385,69.0575
2023-03-14 16:19:17:858,-0.751334,1.16543,-9.73542,-6.08469,-4.9266,69.0482
2023-03-14 16:19:17:868,-0.685992,1.13708,-9.75479,-6.07989,-4.91285,69.0336
2023-03-14 16:19:17:878,-0.664808,1.12437,-9.77264,-6.07149,-4.89968,69.0246
2023-03-14 16:19:17:888,-0.69053,1.09429,-9.76354,-6.06034,-4.89462,69.0145
2023-03-14 16:19:17:898,-0.682063,1.06447,-9.76413,-6.04087,-4.89386,69.0056
2023-03-14 16:19:17:908,-0.638576,1.05016,-9.81248,-6.0239,-4.89615,69.0003
2023-03-14 16:19:17:918,-0.633939,1.02682,-9.79244,-5.99912,-4.90121,68.9968
2023-03-14 16:19:17:928,-0.679676,0.960147,-9.74577,-5.96574,-4.90892,68.9986
2023-03-14 16:19:17:938,-0.694732,0.913346,-9.6897,-5.92966,-4.92333,69.0076
2023-03-14 16:19:17:948,-0.685578,0.899719,-9.67018,-5.89824,-4.94502,69.0143
2023-03-14 16:19:17:958,-0.726887,0.899005,-9.66666,-5.87009,-4.96807,69.0285
2023-03-14 16:19:17:968,-0.779481,0.912934,-9.68704,-5.8449,-4.99399,69.046
2023-03-14 16:19:17:978,-0.797754,0.91105,-9.7012,-5.8259,-5.02081,69.0676
2023-03-14 16:19:17:988,-0.82734,0.925328,-9.70957,-5.80857,-5.04675,69.0935
2023-03-14 16:19:17:998,-0.879524,0.951363,-9.72936,-5.79535,-5.0741,69.1252
2023-03-14 16:19:18:8,-0.918133,0.942155,-9.72607,-5.7817,-5.10363,69.1549
2023-03-14 16:19:18:18,-0.949592,0.934218,-9.71312,-5.76554,-5.13019,69.1871
2023-03-14 16:19:18:28,-0.966111,0.93121,-9.68696,-5.74637,-5.15333,69.2167
2023-03-14 16:19:18:38,-0.984488,0.934001,-9.66755,-5.72813,-5.1749,69.2462
2023-03-14 16:19:18:48,-0.9976,0.919463,-9.66978,-5.71029,-5.19642,69.2722
2023-03-14 16:19:18:58,-1.01574,0.911424,-9.6611,-5.69577,-5.21736,69.2974
2023-03-14 16:19:18:68,-1.023,0.910771,-9.63092,-5.67587,-5.23863,69.3176
2023-03-14 16:19:18:78,-1.0382,0.905132,-9.61345,-5.66158,-5.2597,69.3344
2023-03-14 16:19:18:88,-1.04502,0.883448,-9.5864,-5.64791,-5.27763,69.3472
2023-03-14 16:19:18:98,-1.04063,0.894557,-9.58123,-5.63862,-5.29495,69.3537
2023-03-14 16:19:18:108,-1.02787,0.90268,-9.59999,-5.63459,-5.3107,69.356
2023-03-14 16:19:18:118,-0.998465,0.921693,-9.62138,-5.6332,-5.32225,69.3504
2023-03-14 16:19:18:128,-0.946194,0.947921,-9.64291,-5.63687,-5.33273,69.3416
2023-03-14 16:19:18:138,-0.915755,0.965139,-9.65719,-5.64258,-5.34202,69.33
2023-03-14 16:19:18:148,-0.903099,0.955423,-9.66062,-5.64843,-5.35219,69.3222
2023-03-14 16:19:18:158,-0.874612,0.947624,-9.65519,-5.65234,-5.36177,69.3152
2023-03-14 16:19:18:168,-0.876769,0.947871,-9.67409,-5.65681,-5.36913,69.3099
2023-03-14 16:19:18:178,-0.876316,0.960901,-9.68998,-5.6637,-5.37571,69.3109
2023-03-14 16:19:18:188,-0.886095,0.960651,-9.68046,-5.67012,-5.38073,69.318
2023-03-14 16:19:18:198,-0.89565,0.94993,-9.67641,-5.67902,-5.38525,69.3289
2023-03-14 16:19:18:208,-0.929159,0.96036,-9.67432,-5.69047,-5.38571,69.3423
2023-03-14 16:19:18:218,-0.946285,0.980098,-9.70127,-5.69974,-5.39074,69.3558
2023-03-14 16:19:18:228,-0.967868,1.02427,-9.72132,-5.7114,-5.39149,69.3709
2023-03-14 16:19:18:238,-0.966875,1.02928,-9.73596,-5.71732,-5.39411,69.3876
2023-03-14 16:19:18:248,-0.985021,1.01172,-9.746,-5.72276,-5.39393,69.4034
2023-03-14 16:19:18:258,-1.01403,1.02457,-9.73164,-5.72821,-5.39525,69.4178
2023-03-14 16:19:18:268,-1.01203,1.01029,-9.71292,-5.72434,-5.39704,69.4291
2023-03-14 16:19:18:278,-0.992061,0.97128,-9.69937,-5.71965,-5.39028,69.4376
2023-03-14 16:19:18:288,-1.00595,0.956633,-9.68536,-5.71291,-5.38265,69.4446
2023-03-14 16:19:18:298,-0.988385,0.943906,-9.6931,-5.70783,-5.37107,69.4488
2023-03-14 16:19:18:308,-0.971755,0.962192,-9.73484,-5.70122,-5.3606,69.4503
2023-03-14 16:19:18:318,-0.954273,0.978036,-9.74988,-5.69235,-5.34831,69.4438
2023-03-14 16:19:18:328,-0.921323,0.953668,-9.73087,-5.68577,-5.33907,69.4403
2023-03-14 16:19:18:338,-0.911739,0.939993,-9.70671,-5.67931,-5.32882,69.4351
2023-03-14 16:19:18:348,-0.922459,0.94021,-9.68777,-5.67371,-5.31993,69.4282
2023-03-14 16:19:18:358,-0.935721,0.95038,-9.67786,-5.66475,-5.31239,69.4244
2023-03-14 16:19:18:368,-0.922666,0.952426,-9.68369,-5.66178,-5.30256,69.4176
2023-03-14 16:19:18:378,-0.897416,0.968245,-9.68184,-5.6596,-5.29399,69.4067
2023-03-14 16:19:18:388,-0.860668,0.953657,-9.67387,-5.65333,-5.28394,69.397
2023-03-14 16:19:18:398,-0.839798,0.944266,-9.66617,-5.64759,-5.2747,69.3881
2023-03-14 16:19:18:408,-0.861683,0.94062,-9.65894,-5.64387,-5.26381,69.3822
2023-03-14 16:19:18:418,-0.88302,0.927366,-9.64039,-5.64081,-5.25638,69.3778
2023-03-14 16:19:18:428,-0.881826,0.928092,-9.61955,-5.63632,-5.24561,69.3743
2023-03-14 16:19:18:438,-0.871738,0.925548,-9.61746,-5.63441,-5.2338,69.3708
2023-03-14 16:19:18:448,-0.86889,0.933709,-9.64893,-5.63754,-5.21922,69.3687
2023-03-14 16:19:18:458,-0.873185,0.951398,-9.69381,-5.64355,-5.20531,69.3647
2023-03-14 16:19:18:468,-0.852052,0.964373,-9.70709,-5.65206,-5.19207,69.3626
2023-03-14 16:19:18:478,-0.846023,0.965738,-9.71794,-5.65887,-5.17717,69.3612
2023-03-14 16:19:18:488,-0.835816,0.966867,-9.717,-5.66637,-5.16413,69.3558
2023-03-14 16:19:18:498,-0.829262,0.945356,-9.74122,-5.6719,-5.15168,69.3535
2023-03-14 16:19:18:508,-0.821622,0.963673,-9.74812,-5.67995,-5.14099,69.353
2023-03-14 16:19:18:518,-0.819061,0.973105,-9.73018,-5.68706,-5.136,69.3507
2023-03-14 16:19:18:528,-0.836146,0.960216,-9.68547,-5.68887,-5.12992,69.3509
2023-03-14 16:19:18:538,-0.88311,0.950617,-9.67024,-5.69518,-5.12544,69.3486
2023-03-14 16:19:18:548,-0.902495,0.963913,-9.67002,-5.70534,-5.11754,69.3466
2023-03-14 16:19:18:558,-0.888179,0.970761,-9.69771,-5.70998,-5.1105,69.3456
2023-03-14 16:19:18:568,-0.843765,0.977891,-9.72224,-5.71252,-5.09979,69.3428
2023-03-14 16:19:18:578,-0.808243,0.954245,-9.71316,-5.71555,-5.08705,69.3409
2023-03-14 16:19:18:588,-0.814563,0.948958,-9.70162,-5.717,-5.08027,69.3378
2023-03-14 16:19:18:598,-0.862467,0.947349,-9.71004,-5.72117,-5.07762,69.335
2023-03-14 16:19:18:608,-0.867844,0.946473,-9.70884,-5.72262,-5.06985,69.3295
2023-03-14 16:19:18:618,-0.84779,0.947001,-9.70492,-5.72594,-5.06254,69.3274
2023-03-14 16:19:18:628,-0.835169,0.947072,-9.70611,-5.72639,-5.05253,69.3217
2023-03-14 16:19:18:638,-0.836506,0.968401,-9.70571,-5.73093,-5.04292,69.3166
2023-03-14 16:19:18:648,-0.859298,0.985543,-9.71708,-5.73656,-5.03047,69.3111
2023-03-14 16:19:18:658,-0.873311,0.994712,-9.71147,-5.74138,-5.01892,69.3077
2023-03-14 16:19:18:668,-0.876803,0.991204,-9.71904,-5.7446,-5.00813,69.3022
2023-03-14 16:19:18:678,-0.869354,0.989402,-9.72528,-5.74112,-4.99642,69.2941
2023-03-14 16:19:18:688,-0.861884,0.992219,-9.7235,-5.73863,-4.98626,69.2873
2023-03-14 16:19:18:698,-0.85645,0.979449,-9.71684,-5.73362,-4.97558,69.2744
2023-03-14 16:19:18:708,-0.861002,0.969159,-9.69994,-5.72203,-4.96417,69.2638
2023-03-14 16:19:18:718,-0.851646,0.950228,-9.69069,-5.71184,-4.95416,69.2508
2023-03-14 16:19:18:728,-0.813359,0.940893,-9.67668,-5.70466,-4.94345,69.2395
2023-03-14 16:19:18:738,-0.797312,0.924727,-9.68455,-5.69783,-4.93293,69.2277
2023-03-14 16:19:18:748,-0.789007,0.920974,-9.67343,-5.69237,-4.92245,69.2158
2023-03-14 16:19:18:758,-0.771865,0.907357,-9.67248,-5.68424,-4.90916,69.2072
2023-03-14 16:19:18:768,-0.768417,0.920733,-9.6742,-5.68063,-4.89633,69.2005
2023-03-14 16:19:18:778,-0.789235,0.936143,-9.68129,-5.67813,-4.8849,69.194
2023-03-14 16:19:18:788,-0.820805,0.932787,-9.67842,-5.68072,-4.87305,69.1915
2023-03-14 16:19:18:798,-0.833923,0.93858,-9.6745,-5.68559,-4.86249,69.1895
2023-03-14 16:19:18:808,-0.832668,0.947584,-9.6718,-5.68735,-4.85126,69.1866
2023-03-14 16:19:18:818,-0.842117,0.946977,-9.67673,-5.69128,-4.8415,69.1828
2023-03-14 16:19:18:828,-0.831275,0.961397,-9.68852,-5.69603,-4.83109,69.174
2023-03-14 16:19:18:838,-0.823047,0.970295,-9.71065,-5.70453,-4.82119,69.1624
2023-03-14 16:19:18:848,-0.822793,0.977568,-9.70322,-5.70851,-4.81148,69.1503
2023-03-14 16:19:18:858,-0.796243,0.970411,-9.68633,-5.71081,-4.80181,69.134
2023-03-14 16:19:18:868,-0.778097,0.95932,-9.67096,-5.71504,-4.79577,69.1185
2023-03-14 16:19:18:878,-0.768946,0.955582,-9.66658,-5.72267,-4.78999,69.0986
2023-03-14 16:19:18:888,-0.751767,0.952737,-9.67332,-5.7299,-4.78374,69.0803
2023-03-14 16:19:18:898,-0.72788,0.947337,-9.68904,-5.73675,-4.77983,69.065
2023-03-14 16:19:18:908,-0.727933,0.963892,-9.71437,-5.74561,-4.77123,69.0522
2023-03-14 16:19:18:918,-0.735835,0.955481,-9.71294,-5.75258,-4.7659,69.0423
2023-03-14 16:19:18:928,-0.730565,0.950201,-9.71208,-5.75572,-4.7607,69.0353
2023-03-14 16:19:18:938,-0.743399,0.959023,-9.70038,-5.75741,-4.75714,69.0286
2023-03-14 16:19:18:954,-0.753128,0.934098,-9.6987,-5.75936,-4.7519,69.0244
2023-03-14 16:19:18:958,-0.769724,0.929149,-9.67439,-5.76549,-4.74694,69.0209
2023-03-14 16:19:18:968,-0.785365,0.929509,-9.66823,-5.77178,-4.73898,69.0205
2023-03-14 16:19:18:978,-0.807536,0.936303,-9.69108,-5.78421,-4.73171,69.0223
2023-03-14 16:19:18:988,-0.822056,0.947146,-9.68765,-5.79843,-4.73006,69.0265
2023-03-14 16:19:18:998,-0.813146,0.946973,-9.6681,-5.80863,-4.72285,69.0319
2023-03-14 16:19:19:8,-0.809298,0.939613,-9.68694,-5.8227,-4.71818,69.0326
2023-03-14 16:19:19:18,-0.819388,0.962554,-9.7169,-5.83632,-4.71482,69.0345
2023-03-14 16:19:19:28,-0.827401,0.955472,-9.72952,-5.85061,-4.7105,69.0338
2023-03-14 16:19:19:38,-0.838304,0.952052,-9.69498,-5.86064,-4.70643,69.0333
2023-03-14 16:19:19:48,-0.842029,0.965746,-9.67586,-5.8738,-4.70433,69.0327
2023-03-14 16:19:19:58,-0.832861,0.980354,-9.67408,-5.88893,-4.70205,69.0318
2023-03-14 16:19:19:68,-0.830553,0.970806,-9.67462,-5.90138,-4.69842,69.026
2023-03-14 16:19:19:78,-0.82806,0.965477,-9.67982,-5.91133,-4.69104,69.0178
2023-03-14 16:19:19:88,-0.79371,0.959998,-9.71601,-5.92448,-4.67934,69.0086
2023-03-14 16:19:19:98,-0.777422,0.975608,-9.75149,-5.93674,-4.66981,68.9989
2023-03-14 16:19:19:108,-0.750502,0.985336,-9.7803,-5.94994,-4.65841,68.9901
2023-03-14 16:19:19:118,-0.712895,0.973469,-9.76205,-5.95818,-4.64818,68.979
2023-03-14 16:19:19:128,-0.698512,0.963408,-9.71662,-5.9652,-4.64131,68.9652
2023-03-14 16:19:19:138,-0.719702,0.956755,-9.68407,-5.97489,-4.63599,68.9601
2023-03-14 16:19:19:148,-0.73369,0.97676,-9.68775,-5.98489,-4.63254,68.9543
2023-03-14 16:19:19:158,-0.754588,1.01057,-9.67983,-6.0002,-4.62753,68.9541
2023-03-14 16:19:19:168,-0.762012,1.02813,-9.66824,-6.01444,-4.62071,68.953
2023-03-14 16:19:19:178,-0.749607,1.03114,-9.67325,-6.0313,-4.61748,68.9528
2023-03-14 16:19:19:188,-0.759229,1.0452,-9.69075,-6.0495,-4.61103,68.9565
2023-03-14 16:19:19:198,-0.777659,1.07203,-9.69142,-6.06154,-4.60387,68.9596
2023-03-14 16:19:19:208,-0.793785,1.0826,-9.67215,-6.07523,-4.60126,68.9608
2023-03-14 16:19:19:218,-0.816231,1.0646,-9.67646,-6.08525,-4.59712,68.9639
2023-03-14 16:19:19:228,-0.826942,1.06337,-9.67942,-6.09556,-4.59369,68.9606
2023-03-14 16:19:19:238,-0.810179,1.06567,-9.68448,-6.10276,-4.58731,68.9588
2023-03-14 16:19:19:248,-0.806157,1.07099,-9.69055,-6.11372,-4.58014,68.9539
2023-03-14 16:19:19:258,-0.787168,1.06923,-9.70146,-6.12298,-4.57293,68.943
2023-03-14 16:19:19:268,-0.781826,1.06014,-9.70561,-6.1309,-4.56565,68.9322
2023-03-14 16:19:19:278,-0.768202,1.04751,-9.71193,-6.1417,-4.55741,68.9221
2023-03-14 16:19:19:288,-0.747402,1.0487,-9.715,-6.15243,-4.5487,68.9131
2023-03-14 16:19:19:298,-0.735044,1.06448,-9.71682,-6.16614,-4.53978,68.9023
2023-03-14 16:19:19:308,-0.709874,1.08273,-9.71215,-6.17843,-4.53113,68.8937
2023-03-14 16:19:19:318,-0.701983,1.08501,-9.69845,-6.19041,-4.51993,68.8847
2023-03-14 16:19:19:328,-0.726239,1.08576,-9.69325,-6.19766,-4.50973,68.877
2023-03-14 16:19:19:338,-0.74952,1.08005,-9.70336,-6.20806,-4.50062,68.8696
2023-03-14 16:19:19:348,-0.756423,1.08934,-9.7255,-6.21713,-4.4892,68.8632
2023-03-14 16:19:19:358,-0.731726,1.11467,-9.76922,-6.22501,-4.47722,68.8584
2023-03-14 16:19:19:368,-0.698909,1.10411,-9.77843,-6.22759,-4.46318,68.8505
2023-03-14 16:19:19:378,-0.681705,1.0709,-9.7304,-6.22251,-4.4497,68.8433
2023-03-14 16:19:19:388,-0.695787,1.04298,-9.69002,-6.21619,-4.44178,68.8359
2023-03-14 16:19:19:398,-0.711487,1.01772,-9.67001,-6.21114,-4.43342,68.8334
2023-03-14 16:19:19:408,-0.708326,1.00862,-9.68493,-6.20494,-4.42995,68.8283
2023-03-14 16:19:19:418,-0.699036,1.02497,-9.68698,-6.20276,-4.4268,68.8256
2023-03-14 16:19:19:428,-0.670327,1.01448,-9.69721,-6.20223,-4.41903,68.8238
2023-03-14 16:19:19:438,-0.657611,1.02063,-9.70078,-6.19969,-4.41389,68.8206
2023-03-14 16:19:19:448,-0.672309,1.03064,-9.70051,-6.20021,-4.40789,68.8189
2023-03-14 16:19:19:458,-0.670355,1.03245,-9.696,-6.19994,-4.4055,68.8172
2023-03-14 16:19:19:468,-0.687691,1.02487,-9.70933,-6.20074,-4.40171,68.8206
2023-03-14 16:19:19:478,-0.701325,1.02185,-9.70613,-6.20025,-4.40185,68.8214
2023-03-14 16:19:19:488,-0.712119,1.03151,-9.69942,-6.20126,-4.40312,68.8231
2023-03-14 16:19:19:498,-0.698203,1.02652,-9.69279,-6.20328,-4.40858,68.8259
2023-03-14 16:19:19:508,-0.71359,1.01003,-9.68832,-6.20506,-4.41282,68.8289
2023-03-14 16:19:19:518,-0.719217,0.999787,-9.68545,-6.20421,-4.4154,68.8305
2023-03-14 16:19:19:528,-0.724846,1.0006,-9.67339,-6.20795,-4.42122,68.832
2023-03-14 16:19:19:538,-0.72152,1.00281,-9.65752,-6.20864,-4.42668,68.8386
2023-03-14 16:19:19:548,-0.725305,1.00086,-9.65999,-6.20835,-4.43069,68.8377
2023-03-14 16:19:19:558,-0.736557,1.00328,-9.668,-6.21419,-4.43797,68.8428
2023-03-14 16:19:19:568,-0.749421,1.00183,-9.65747,-6.22145,-4.44019,68.8482
2023-03-14 16:19:19:578,-0.760142,1.01036,-9.66365,-6.2329,-4.44164,68.8581
2023-03-14 16:19:19:588,-0.783129,1.03955,-9.68109,-6.2474,-4.44589,68.8655
2023-03-14 16:19:19:598,-0.801116,1.06118,-9.70292,-6.26254,-4.44946,68.8693
2023-03-14 16:19:19:608,-0.801203,1.07473,-9.71362,-6.27634,-4.45458,68.8761
2023-03-14 16:19:19:618,-0.798655,1.08035,-9.70199,-6.28581,-4.45673,68.8789
2023-03-14 16:19:19:628,-0.799761,1.08401,-9.68511,-6.29374,-4.45761,68.8837
2023-03-14 16:19:19:638,-0.825483,1.0795,-9.68645,-6.30268,-4.45522,68.8854
2023-03-14 16:19:19:648,-0.824565,1.07647,-9.68466,-6.31317,-4.45588,68.8849
2023-03-14 16:19:19:658,-0.802666,1.07078,-9.67487,-6.32016,-4.45089,68.8797
2023-03-14 16:19:19:668,-0.800416,1.07312,-9.6732,-6.32909,-4.44725,68.8737
2023-03-14 16:19:19:678,-0.778787,1.07377,-9.66256,-6.33938,-4.44269,68.8668
2023-03-14 16:19:19:688,-0.763017,1.05217,-9.66926,-6.35084,-4.43605,68.86
2023-03-14 16:19:19:698,-0.742813,1.04984,-9.69105,-6.36417,-4.42817,68.8475
2023-03-14 16:19:19:708,-0.725068,1.08675,-9.7191,-6.3781,-4.42159,68.8418
2023-03-14 16:19:19:718,-0.700821,1.10714,-9.71783,-6.38896,-4.40934,68.8362
2023-03-14 16:19:19:728,-0.691512,1.10767,-9.72036,-6.4006,-4.39771,68.8314
2023-03-14 16:19:19:738,-0.68982,1.113,-9.72667,-6.40998,-4.38991,68.8261
2023-03-14 16:19:19:748,-0.704826,1.12223,-9.71381,-6.41801,-4.38102,68.8209
2023-03-14 16:19:19:758,-0.702674,1.11851,-9.70886,-6.42698,-4.37139,68.8185
2023-03-14 16:19:19:768,-0.701974,1.12493,-9.71718,-6.43468,-4.36547,68.8157
2023-03-14 16:19:19:778,-0.712971,1.13511,-9.72751,-6.44017,-4.36245,68.8142
2023-03-14 16:19:19:788,-0.710227,1.13214,-9.71827,-6.44857,-4.35675,68.8101
2023-03-14 16:19:19:798,-0.682286,1.13033,-9.71547,-6.45469,-4.34932,68.8077
2023-03-14 16:19:19:808,-0.666809,1.11028,-9.71698,-6.45718,-4.34546,68.8055
2023-03-14 16:19:19:818,-0.6743,1.09768,-9.71839,-6.45757,-4.34181,68.8024
2023-03-14 16:19:19:828,-0.676346,1.09653,-9.7014,-6.45448,-4.3378,68.8012
2023-03-14 16:19:19:838,-0.686635,1.09289,-9.70403,-6.45544,-4.33611,68.8049
2023-03-14 16:19:19:848,-0.702341,1.09721,-9.72531,-6.45537,-4.33235,68.8122
2023-03-14 16:19:19:858,-0.712066,1.11263,-9.7003,-6.45189,-4.32845,68.818
2023-03-14 16:19:19:868,-0.713448,1.09835,-9.68113,-6.44986,-4.3244,68.8241
2023-03-14 16:19:19:878,-0.724657,1.08928,-9.66093,-6.44762,-4.32154,68.8329
2023-03-14 16:19:19:888,-0.748247,1.07626,-9.66411,-6.44371,-4.31951,68.8378
2023-03-14 16:19:19:898,-0.745334,1.0886,-9.70615,-6.44207,-4.31569,68.8426
2023-03-14 16:19:19:908,-0.715587,1.09455,-9.74724,-6.43792,-4.30954,68.8457
2023-03-14 16:19:19:918,-0.68159,1.08381,-9.74868,-6.43431,-4.30284,68.8483
2023-03-14 16:19:19:928,-0.680263,1.06749,-9.72426,-6.42728,-4.30175,68.8478
2023-03-14 16:19:19:938,-0.661449,1.05427,-9.70329,-6.42307,-4.29887,68.8492
2023-03-14 16:19:19:948,-0.663345,1.05843,-9.68446,-6.42206,-4.29882,68.8512
2023-03-14 16:19:19:958,-0.675132,1.06928,-9.65931,-6.42189,-4.30458,68.8511
2023-03-14 16:19:19:968,-0.675363,1.07575,-9.64157,-6.42565,-4.31104,68.8524
2023-03-14 16:19:19:978,-0.668269,1.08432,-9.64241,-6.43155,-4.31866,68.8548
2023-03-14 16:19:19:988,-0.67758,1.09684,-9.6509,-6.43767,-4.3263,68.8602
2023-03-14 16:19:19:998,-0.698395,1.11338,-9.65669,-6.44467,-4.33352,68.87
2023-03-14 16:19:20:8,-0.721267,1.12463,-9.66204,-6.45183,-4.33895,68.8765
2023-03-14 16:19:20:18,-0.740652,1.11913,-9.65612,-6.45911,-4.34397,68.8899
2023-03-14 16:19:20:28,-0.750898,1.10716,-9.65993,-6.4683,-4.3488,68.9028
2023-03-14 16:19:20:38,-0.745861,1.10478,-9.67685,-6.47592,-4.35072,68.9118
2023-03-14 16:19:20:48,-0.729079,1.10177,-9.69414,-6.48333,-4.35339,68.9193
2023-03-14 16:19:20:58,-0.734316,1.10837,-9.70094,-6.48907,-4.35411,68.9238
2023-03-14 16:19:20:68,-0.73608,1.10667,-9.71284,-6.49706,-4.35784,68.9307
2023-03-14 16:19:20:78,-0.735589,1.12516,-9.71756,-6.50775,-4.36277,68.9365
2023-03-14 16:19:20:88,-0.735232,1.13842,-9.71293,-6.52243,-4.36731,68.9421
2023-03-14 16:19:20:98,-0.73481,1.14731,-9.7236,-6.52992,-4.36931,68.9465
2023-03-14 16:19:20:108,-0.729368,1.15301,-9.72345,-6.53683,-4.37301,68.9505
2023-03-14 16:19:20:118,-0.706036,1.16184,-9.70377,-6.54362,-4.37175,68.9502
2023-03-14 16:19:20:128,-0.711319,1.15976,-9.69072,-6.54826,-4.37289,68.9495
2023-03-14 16:19:20:138,-0.730873,1.16823,-9.674,-6.5557,-4.37343,68.949
2023-03-14 16:19:20:148,-0.734336,1.15532,-9.68551,-6.55776,-4.37591,68.9519
2023-03-14 16:19:20:158,-0.712498,1.1527,-9.70451,-6.55844,-4.38036,68.9543
2023-03-14 16:19:20:168,-0.66597,1.14654,-9.7259,-6.5546,-4.37867,68.9545
2023-03-14 16:19:20:178,-0.661346,1.10512,-9.71153,-6.54954,-4.38064,68.9553
2023-03-14 16:19:20:188,-0.670825,1.07907,-9.6998,-6.54185,-4.3846,68.9562
2023-03-14 16:19:20:198,-0.705334,1.07358,-9.69333,-6.53519,-4.39232,68.9562
2023-03-14 16:19:20:208,-0.720788,1.08922,-9.69243,-6.53264,-4.40049,68.9591
2023-03-14 16:19:20:218,-0.719699,1.09272,-9.70552,-6.53116,-4.40985,68.9579
2023-03-14 16:19:20:228,-0.728086,1.10168,-9.71814,-6.53279,-4.41803,68.9607
2023-03-14 16:19:20:238,-0.729716,1.11359,-9.71177,-6.5318,-4.42728,68.9651
2023-03-14 16:19:20:248,-0.716192,1.12249,-9.70181,-6.52828,-4.43414,68.9678
2023-03-14 16:19:20:258,-0.710947,1.1242,-9.68816,-6.5263,-4.43892,68.9707
2023-03-14 16:19:20:268,-0.711922,1.10637,-9.68213,-6.52118,-4.44722,68.977
2023-03-14 16:19:20:278,-0.710443,1.08784,-9.67224,-6.51587,-4.45943,68.9841
2023-03-14 16:19:20:288,-0.721782,1.0731,-9.66166,-6.50833,-4.47012,68.9903
2023-03-14 16:19:20:298,-0.72737,1.05982,-9.6677,-6.50242,-4.48616,68.9998
2023-03-14 16:19:20:308,-0.745025,1.06944,-9.67641,-6.49865,-4.49976,69.0099
2023-03-14 16:19:20:318,-0.761416,1.06978,-9.68395,-6.49437,-4.51348,69.0206
2023-03-14 16:19:20:328,-0.779037,1.05209,-9.68936,-6.49365,-4.52763,69.0294
2023-03-14 16:19:20:338,-0.795845,1.05233,-9.67791,-6.49152,-4.54071,69.0407
2023-03-14 16:19:20:348,-0.789591,1.05047,-9.64923,-6.48808,-4.55453,69.0498
2023-03-14 16:19:20:358,-0.807999,1.0496,-9.62696,-6.48712,-4.56878,69.0573
2023-03-14 16:19:20:368,-0.821233,1.06092,-9.6341,-6.49203,-4.58492,69.0683
2023-03-14 16:19:20:378,-0.812534,1.07464,-9.64311,-6.49984,-4.59709,69.0741
2023-03-14 16:19:20:388,-0.810791,1.08236,-9.65079,-6.51121,-4.60944,69.0778
2023-03-14 16:19:20:398,-0.816977,1.0993,-9.65739,-6.52345,-4.6194,69.0843
2023-03-14 16:19:20:408,-0.815782,1.11211,-9.66988,-6.53556,-4.63186,69.0903
2023-03-14 16:19:20:418,-0.813078,1.11764,-9.69096,-6.54798,-4.63789,69.0973
2023-03-14 16:19:20:428,-0.821025,1.11709,-9.68917,-6.55843,-4.64545,69.1048
2023-03-14 16:19:20:438,-0.836234,1.11869,-9.6783,-6.5645,-4.64926,69.1117
2023-03-14 16:19:20:448,-0.850359,1.11734,-9.6969,-6.57338,-4.6517,69.1203
2023-03-14 16:19:20:458,-0.858102,1.12618,-9.70417,-6.58343,-4.65315,69.1263
2023-03-14 16:19:20:468,-0.854229,1.1216,-9.70564,-6.58965,-4.65221,69.1275
2023-03-14 16:19:20:478,-0.830911,1.11998,-9.7084,-6.5944,-4.65047,69.1303
2023-03-14 16:19:20:488,-0.825333,1.11929,-9.7156,-6.59462,-4.64958,69.1266
2023-03-14 16:19:20:498,-0.813549,1.11732,-9.7015,-6.59381,-4.65138,69.1203
2023-03-14 16:19:20:508,-0.799157,1.11636,-9.69085,-6.59511,-4.65185,69.1098
2023-03-14 16:19:20:518,-0.767925,1.1202,-9.68414,-6.5958,-4.65314,69.1009
2023-03-14 16:19:20:528,-0.753233,1.11058,-9.67458,-6.59422,-4.65169,69.0898
2023-03-14 16:19:20:538,-0.748107,1.10048,-9.66412,-6.5967,-4.6533,69.0855
2023-03-14 16:19:20:548,-0.744135,1.09106,-9.67937,-6.59776,-4.65321,69.0794
2023-03-14 16:19:20:558,-0.743308,1.10577,-9.68513,-6.60027,-4.65427,69.076
2023-03-14 16:19:20:568,-0.752271,1.10876,-9.68124,-6.60105,-4.65753,69.0741
2023-03-14 16:19:20:578,-0.76884,1.10981,-9.68034,-6.60182,-4.65885,69.0751
2023-03-14 16:19:20:588,-0.785317,1.11433,-9.67532,-6.6042,-4.66414,69.0746
2023-03-14 16:19:20:598,-0.788072,1.11867,-9.66306,-6.60633,-4.66747,69.0782
2023-03-14 16:19:20:608,-0.801923,1.13026,-9.66679,-6.61267,-4.67263,69.0814
2023-03-14 16:19:20:618,-0.8226,1.13782,-9.69356,-6.61649,-4.67462,69.0892
2023-03-14 16:19:20:628,-0.81831,1.14986,-9.71257,-6.62008,-4.6732,69.0946
2023-03-14 16:19:20:638,-0.823075,1.12758,-9.70145,-6.62218,-4.67415,69.0998
2023-03-14 16:19:20:648,-0.85137,1.10428,-9.67499,-6.62001,-4.67305,69.1026
2023-03-14 16:19:20:658,-0.864939,1.11955,-9.65894,-6.61611,-4.67435,69.101
2023-03-14 16:19:20:668,-0.85672,1.12248,-9.64362,-6.61416,-4.67207,69.1017
2023-03-14 16:19:20:678,-0.860135,1.10518,-9.64203,-6.61417,-4.6713,69.0999
2023-03-14 16:19:20:688,-0.864706,1.09236,-9.65028,-6.61231,-4.66648,69.0937
2023-03-14 16:19:20:698,-0.837288,1.08694,-9.67813,-6.6116,-4.66284,69.0836
2023-03-14 16:19:20:708,-0.795162,1.10387,-9.72094,-6.61362,-4.65987,69.0735
2023-03-14 16:19:20:718,-0.770385,1.10734,-9.74021,-6.61771,-4.65303,69.0667
2023-03-14 16:19:20:728,-0.734721,1.08692,-9.71914,-6.62107,-4.65074,69.0568
2023-03-14 16:19:20:738,-0.715585,1.06531,-9.68319,-6.6202,-4.64602,69.0473
2023-03-14 16:19:20:748,-0.724667,1.08145,-9.65858,-6.62246,-4.64408,69.0453
2023-03-14 16:19:20:758,-0.739892,1.10418,-9.65254,-6.63043,-4.6389,69.0409
2023-03-14 16:19:20:768,-0.742104,1.12656,-9.65109,-6.63748,-4.6355,69.0409
2023-03-14 16:19:20:778,-0.757734,1.14097,-9.65343,-6.64996,-4.63183,69.0415
2023-03-14 16:19:20:788,-0.766345,1.15532,-9.6522,-6.66181,-4.62834,69.0443
2023-03-14 16:19:20:798,-0.767881,1.16757,-9.66498,-6.67313,-4.6231,69.048
2023-03-14 16:19:20:808,-0.785329,1.17555,-9.66866,-6.68581,-4.61811,69.0503
2023-03-14 16:19:20:818,-0.819173,1.18379,-9.65877,-6.69613,-4.61538,69.0571
2023-03-14 16:19:20:828,-0.828416,1.16767,-9.66053,-6.7005,-4.61101,69.0613
2023-03-14 16:19:20:838,-0.810778,1.15713,-9.66647,-6.70659,-4.60458,69.0637
2023-03-14 16:19:20:848,-0.801459,1.15404,-9.68222,-6.71174,-4.599,69.0648
2023-03-14 16:19:20:858,-0.80757,1.15887,-9.71075,-6.72018,-4.59422,69.0644
2023-03-14 16:19:20:868,-0.810256,1.16158,-9.71221,-6.73194,-4.58744,69.0645
2023-03-14 16:19:20:878,-0.798473,1.16518,-9.71422,-6.73564,-4.58225,69.0617
2023-03-14 16:19:20:888,-0.781483,1.15771,-9.70697,-6.74601,-4.57241,69.0598
2023-03-14 16:19:20:898,-0.781822,1.15051,-9.70523,-6.75143,-4.56429,69.0548
2023-03-14 16:19:20:908,-0.785618,1.15657,-9.70879,-6.75475,-4.55455,69.0535
2023-03-14 16:19:20:918,-0.765425,1.1803,-9.70984,-6.76389,-4.54647,69.0488
2023-03-14 16:19:20:928,-0.757045,1.17871,-9.69825,-6.77067,-4.54125,69.0435
2023-03-14 16:19:20:938,-0.782707,1.17749,-9.68863,-6.77307,-4.53181,69.0361
2023-03-14 16:19:20:948,-0.782446,1.17638,-9.68734,-6.77209,-4.52614,69.0315
2023-03-14 16:19:20:958,-0.761639,1.16708,-9.7086,-6.7719,-4.51238,69.0222
2023-03-14 16:19:20:968,-0.730092,1.16453,-9.71971,-6.77004,-4.49843,69.01
2023-03-14 16:19:20:978,-0.67798,1.14632,-9.70312,-6.75964,-4.4819,69.0008
2023-03-14 16:19:20:988,-0.670923,1.11817,-9.67481,-6.74938,-4.47212,68.9888
2023-03-14 16:19:20:998,-0.685124,1.09149,-9.65976,-6.74389,-4.46311,68.9808
2023-03-14 16:19:21:8,-0.70353,1.08222,-9.66617,-6.73923,-4.45522,68.9762
2023-03-14 16:19:21:18,-0.710068,1.10453,-9.68277,-6.73587,-4.44706,68.9719
2023-03-14 16:19:21:28,-0.705478,1.12406,-9.68795,-6.73114,-4.4418,68.9674
2023-03-14 16:19:21:38,-0.694448,1.13004,-9.70319,-6.7293,-4.43581,68.9664
2023-03-14 16:19:21:48,-0.692663,1.14054,-9.7143,-6.73026,-4.42972,68.965
2023-03-14 16:19:21:58,-0.701989,1.14079,-9.70179,-6.73169,-4.42312,68.9664
2023-03-14 16:19:21:68,-0.712784,1.15239,-9.67309,-6.73155,-4.42089,68.9663
2023-03-14 16:19:21:78,-0.733024,1.1558,-9.65528,-6.72849,-4.41791,68.967
2023-03-14 16:19:21:88,-0.735174,1.148,-9.65822,-6.7275,-4.41579,68.9698
2023-03-14 16:19:21:98,-0.758577,1.15662,-9.66241,-6.72805,-4.41709,68.9688
2023-03-14 16:19:21:108,-0.775738,1.15441,-9.66782,-6.72505,-4.41836,68.9671
2023-03-14 16:19:21:118,-0.759501,1.13455,-9.66463,-6.72179,-4.41803,68.965
2023-03-14 16:19:21:128,-0.738301,1.13526,-9.67907,-6.72144,-4.41774,68.9603
2023-03-14 16:19:21:138,-0.735107,1.1099,-9.6931,-6.72079,-4.41715,68.9553
2023-03-14 16:19:21:148,-0.735596,1.11385,-9.67923,-6.71702,-4.41594,68.9546
2023-03-14 16:19:21:158,-0.714879,1.11924,-9.66819,-6.71694,-4.41439,68.9506
2023-03-14 16:19:21:168,-0.702657,1.10955,-9.66648,-6.71763,-4.41366,68.9505
2023-03-14 16:19:21:178,-0.721772,1.12046,-9.67535,-6.72155,-4.41527,68.9473
2023-03-14 16:19:21:188,-0.734145,1.12822,-9.67745,-6.7271,-4.41379,68.9462
2023-03-14 16:19:21:198,-0.734189,1.12687,-9.68458,-6.7313,-4.41219,68.9476
2023-03-14 16:19:21:208,-0.75003,1.14163,-9.6935,-6.73909,-4.41257,68.9478
2023-03-14 16:19:21:218,-0.753761,1.15256,-9.68913,-6.74861,-4.41034,68.9496
2023-03-14 16:19:21:228,-0.760991,1.15185,-9.69879,-6.75114,-4.4056,68.9494
2023-03-14 16:19:21:238,-0.763288,1.13833,-9.68425,-6.75227,-4.40485,68.9472
2023-03-14 16:19:21:248,-0.773969,1.16957,-9.67717,-6.75939,-4.40812,68.9468
2023-03-14 16:19:21:258,-0.770565,1.17386,-9.70286,-6.76402,-4.40919,68.9456
2023-03-14 16:19:21:268,-0.781788,1.17413,-9.69723,-6.76783,-4.40545,68.9387
2023-03-14 16:19:21:278,-0.772076,1.15823,-9.70252,-6.76735,-4.40148,68.9334
2023-03-14 16:19:21:288,-0.748953,1.15199,-9.6805,-6.76467,-4.39728,68.9254
2023-03-14 16:19:21:298,-0.749744,1.15161,-9.66783,-6.76342,-4.39328,68.9168
2023-03-14 16:19:21:308,-0.743999,1.14736,-9.6785,-6.7624,-4.38698,68.9058
2023-03-14 16:19:21:318,-0.730226,1.13818,-9.69483,-6.76354,-4.38373,68.8962
2023-03-14 16:19:21:328,-0.721472,1.12922,-9.69252,-6.76334,-4.38194,68.882
2023-03-14 16:19:21:338,-0.715161,1.13814,-9.68029,-6.76395,-4.37787,68.8742
2023-03-14 16:19:21:348,-0.70449,1.14506,-9.68839,-6.76343,-4.37627,68.8632
2023-03-14 16:19:21:358,-0.693766,1.14904,-9.69291,-6.76621,-4.37484,68.852
2023-03-14 16:19:21:368,-0.705536,1.14563,-9.67759,-6.76232,-4.37113,68.8412
2023-03-14 16:19:21:378,-0.70578,1.14208,-9.67019,-6.76226,-4.36608,68.8325
2023-03-14 16:19:21:388,-0.705134,1.14563,-9.67671,-6.76217,-4.36357,68.8291
2023-03-14 16:19:21:398,-0.698714,1.1482,-9.67695,-6.75828,-4.35924,68.8261
2023-03-14 16:19:21:408,-0.699684,1.13269,-9.69122,-6.7598,-4.35617,68.822
2023-03-14 16:19:21:418,-0.716229,1.12433,-9.67316,-6.7586,-4.35203,68.816
2023-03-14 16:19:21:428,-0.727388,1.13371,-9.66253,-6.76103,-4.35462,68.8134
2023-03-14 16:19:21:438,-0.733379,1.1389,-9.67434,-6.76629,-4.3544,68.8107
2023-03-14 16:19:21:448,-0.752103,1.14019,-9.69331,-6.76799,-4.35759,68.8095
2023-03-14 16:19:21:458,-0.775947,1.14548,-9.68213,-6.76781,-4.35634,68.8063
2023-03-14 16:19:21:468,-0.789075,1.14362,-9.64238,-6.76891,-4.35626,68.8032
2023-03-14 16:19:21:478,-0.772393,1.13228,-9.63674,-6.76882,-4.35462,68.7973
2023-03-14 16:19:21:488,-0.779225,1.13187,-9.63691,-6.7675,-4.3551,68.7896
2023-03-14 16:19:21:498,-0.778508,1.13784,-9.64327,-6.7707,-4.35195,68.7799
2023-03-14 16:19:21:508,-0.742013,1.13879,-9.6887,-6.77784,-4.35082,68.7655
2023-03-14 16:19:21:518,-0.690274,1.1635,-9.73011,-6.7903,-4.34953,68.7499
2023-03-14 16:19:21:528,-0.650887,1.17889,-9.74293,-6.79931,-4.35072,68.7328
2023-03-14 16:19:21:538,-0.640897,1.16545,-9.73006,-6.80211,-4.35422,68.7173
2023-03-14 16:19:21:548,-0.639286,1.14835,-9.71133,-6.80958,-4.35914,68.7008
2023-03-14 16:19:21:558,-0.646415,1.14566,-9.68706,-6.81063,-4.36435,68.6874
2023-03-14 16:19:21:568,-0.674383,1.16907,-9.66505,-6.81293,-4.36901,68.6819
2023-03-14 16:19:21:578,-0.690492,1.18275,-9.66763,-6.82021,-4.37499,68.6804
2023-03-14 16:19:21:588,-0.691809,1.18284,-9.6647,-6.82688,-4.37917,68.6827
2023-03-14 16:19:21:598,-0.712385,1.18987,-9.66776,-6.83587,-4.3789,68.6878
2023-03-14 16:19:21:608,-0.74295,1.2026,-9.6684,-6.84097,-4.38202,68.6946
2023-03-14 16:19:21:618,-0.771057,1.19876,-9.65502,-6.84632,-4.38311,68.702
2023-03-14 16:19:21:628,-0.787898,1.1913,-9.65465,-6.84917,-4.38451,68.7072
2023-03-14 16:19:21:638,-0.790348,1.19464,-9.67882,-6.85122,-4.38572,68.7141
2023-03-14 16:19:21:648,-0.791453,1.18053,-9.69878,-6.85535,-4.38486,68.7148
2023-03-14 16:19:21:658,-0.820797,1.18691,-9.70273,-6.85821,-4.38781,68.7135
2023-03-14 16:19:21:668,-0.821485,1.18323,-9.71106,-6.85677,-4.38908,68.7111
2023-03-14 16:19:21:678,-0.790132,1.17437,-9.68846,-6.85281,-4.38959,68.7017
2023-03-14 16:19:21:688,-0.765031,1.15849,-9.67858,-6.85189,-4.38555,68.6952
2023-03-14 16:19:21:698,-0.761421,1.15606,-9.69345,-6.85027,-4.38105,68.6829
2023-03-14 16:19:21:708,-0.739649,1.1741,-9.71423,-6.84962,-4.37426,68.6683
2023-03-14 16:19:21:718,-0.714937,1.17397,-9.72211,-6.8496,-4.36731,68.6554
2023-03-14 16:19:21:728,-0.69922,1.16846,-9.69011,-6.84859,-4.36188,68.6431
2023-03-14 16:19:21:738,-0.697034,1.14639,-9.65114,-6.84607,-4.3576,68.6301
2023-03-14 16:19:21:748,-0.715924,1.13583,-9.64749,-6.84161,-4.35592,68.6169
2023-03-14 16:19:21:758,-0.718711,1.14867,-9.6773,-6.84016,-4.35409,68.6047
2023-03-14 16:19:21:768,-0.703331,1.16174,-9.70764,-6.83881,-4.34583,68.5927
2023-03-14 16:19:21:778,-0.666844,1.16892,-9.70514,-6.83598,-4.33487,68.5785
2023-03-14 16:19:21:788,-0.63412,1.13884,-9.68837,-6.82922,-4.32517,68.5654
2023-03-14 16:19:21:798,-0.627354,1.11408,-9.69684,-6.82235,-4.32103,68.5519
2023-03-14 16:19:21:808,-0.641129,1.11945,-9.70702,-6.81189,-4.31951,68.5414
2023-03-14 16:19:21:818,-0.651195,1.12113,-9.70685,-6.81009,-4.31976,68.5343
2023-03-14 16:19:21:828,-0.654136,1.12182,-9.69084,-6.80359,-4.32108,68.5296
2023-03-14 16:19:21:838,-0.65971,1.11074,-9.68154,-6.80185,-4.32298,68.523
2023-03-14 16:19:21:848,-0.653696,1.10386,-9.68985,-6.80103,-4.32144,68.5183
2023-03-14 16:19:21:858,-0.651569,1.11979,-9.69345,-6.79832,-4.32118,68.5166
2023-03-14 16:19:21:868,-0.673732,1.13475,-9.67487,-6.79859,-4.31934,68.5177
2023-03-14 16:19:21:878,-0.691193,1.13499,-9.6548,-6.79685,-4.32289,68.5205
2023-03-14 16:19:21:888,-0.702742,1.1288,-9.65538,-6.79843,-4.32382,68.5255
2023-03-14 16:19:21:898,-0.705523,1.1302,-9.66071,-6.7989,-4.32779,68.53
2023-03-14 16:19:21:908,-0.716043,1.13917,-9.66097,-6.79926,-4.33272,68.5328
2023-03-14 16:19:21:918,-0.72105,1.12704,-9.66387,-6.7992,-4.3403,68.5341
2023-03-14 16:19:21:928,-0.712354,1.11547,-9.6678,-6.79728,-4.34596,68.5347
2023-03-14 16:19:21:938,-0.704783,1.12532,-9.66922,-6.79956,-4.356,68.5314
2023-03-14 16:19:21:948,-0.692308,1.13486,-9.6707,-6.79973,-4.3654,68.5277
2023-03-14 16:19:21:958,-0.693425,1.1377,-9.66639,-6.80148,-4.37654,68.5268
2023-03-14 16:19:21:968,-0.704185,1.14021,-9.66248,-6.80575,-4.38461,68.5271
2023-03-14 16:19:21:978,-0.695528,1.12679,-9.66681,-6.8123,-4.39528,68.5273
2023-03-14 16:19:21:988,-0.705342,1.13147,-9.66316,-6.82086,-4.40418,68.533
2023-03-14 16:19:21:998,-0.730927,1.13184,-9.67499,-6.83606,-4.4154,68.5389
2023-03-14 16:19:22:8,-0.748955,1.15691,-9.69838,-6.84989,-4.4284,68.5476
2023-03-14 16:19:22:18,-0.778786,1.17722,-9.70288,-6.86373,-4.43836,68.5572
2023-03-14 16:19:22:28,-0.796217,1.18619,-9.69195,-6.87528,-4.44518,68.5688
2023-03-14 16:19:22:38,-0.809276,1.17455,-9.673,-6.88469,-4.45341,68.5753
2023-03-14 16:19:22:48,-0.80968,1.18552,-9.67509,-6.88875,-4.46009,68.5846
2023-03-14 16:19:22:58,-0.832551,1.19258,-9.6942,-6.89213,-4.46682,68.5882
2023-03-14 16:19:22:68,-0.841553,1.19499,-9.69224,-6.90354,-4.47295,68.5921
2023-03-14 16:19:22:78,-0.83761,1.18992,-9.69608,-6.90945,-4.47571,68.5898
2023-03-14 16:19:22:88,-0.817063,1.1994,-9.70478,-6.91195,-4.47734,68.5902
2023-03-14 16:19:22:98,-0.799891,1.19614,-9.70121,-6.91584,-4.4763,68.5861
2023-03-14 16:19:22:108,-0.79105,1.17138,-9.69014,-6.91901,-4.48042,68.5797
2023-03-14 16:19:22:118,-0.778212,1.17919,-9.677,-6.92078,-4.48186,68.5738
2023-03-14 16:19:22:128,-0.7672,1.17563,-9.67061,-6.92195,-4.47989,68.5723
2023-03-14 16:19:22:138,-0.754762,1.16658,-9.67093,-6.92696,-4.47825,68.5647
2023-03-14 16:19:22:148,-0.753618,1.15683,-9.67617,-6.93473,-4.47346,68.5594
2023-03-14 16:19:22:158,-0.748079,1.1741,-9.65294,-6.93966,-4.47059,68.5516
2023-03-14 16:19:22:168,-0.748627,1.18016,-9.65573,-6.94386,-4.46637,68.5482
2023-03-14 16:19:22:178,-0.750783,1.17299,-9.64991,-6.94921,-4.46509,68.5461
2023-03-14 16:19:22:188,-0.750192,1.17489,-9.64352,-6.95599,-4.46367,68.5398
2023-03-14 16:19:22:198,-0.743759,1.18261,-9.67096,-6.96557,-4.46348,68.5338
2023-03-14 16:19:22:208,-0.75625,1.1963,-9.69436,-6.97886,-4.46275,68.5329
2023-03-14 16:19:22:218,-0.746287,1.19773,-9.69569,-6.98407,-4.45922,68.531
2023-03-14 16:19:22:228,-0.719669,1.19154,-9.69058,-6.99006,-4.45906,68.5292
2023-03-14 16:19:22:238,-0.69924,1.20041,-9.70431,-6.99721,-4.45423,68.5314
2023-03-14 16:19:22:248,-0.702716,1.20347,-9.70397,-7.00265,-4.44921,68.5337
2023-03-14 16:19:22:258,-0.714933,1.19418,-9.71077,-7.00689,-4.44556,68.5373
2023-03-14 16:19:22:268,-0.730384,1.20099,-9.70025,-7.0131,-4.44358,68.5441
2023-03-14 16:19:22:278,-0.736479,1.18626,-9.67772,-7.01382,-4.44285,68.5535
2023-03-14 16:19:22:288,-0.75668,1.18922,-9.67687,-7.01809,-4.44026,68.5627
2023-03-14 16:19:22:298,-0.775834,1.20178,-9.67796,-7.02076,-4.43949,68.5724
2023-03-14 16:19:22:308,-0.772509,1.18779,-9.66444,-7.02524,-4.43922,68.5799
2023-03-14 16:19:22:318,-0.775292,1.17621,-9.64763,-7.02712,-4.43996,68.5852
2023-03-14 16:19:22:328,-0.779177,1.16651,-9.62653,-7.02715,-4.43809,68.5901
2023-03-14 16:19:22:338,-0.761365,1.15703,-9.64136,-7.02843,-4.43497,68.5934
2023-03-14 16:19:22:348,-0.721591,1.15756,-9.6783,-7.03147,-4.4331,68.5969
2023-03-14 16:19:22:358,-0.703363,1.17535,-9.70049,-7.04107,-4.43082,68.6017
2023-03-14 16:19:22:368,-0.692566,1.18039,-9.69284,-7.04637,-4.43361,68.6082
2023-03-14 16:19:22:378,-0.692814,1.16996,-9.70341,-7.05059,-4.43697,68.6121
2023-03-14 16:19:22:388,-0.696252,1.18193,-9.69045,-7.05975,-4.44072,68.6179
2023-03-14 16:19:22:398,-0.711199,1.1963,-9.67674,-7.06883,-4.44108,68.6261
2023-03-14 16:19:22:408,-0.742694,1.21286,-9.66845,-7.07979,-4.44315,68.6367
2023-03-14 16:19:22:418,-0.753078,1.22149,-9.66198,-7.09533,-4.4461,68.6477
2023-03-14 16:19:22:428,-0.750649,1.2215,-9.6495,-7.10384,-4.44548,68.6577
2023-03-14 16:19:22:438,-0.758169,1.22614,-9.6505,-7.11108,-4.44607,68.6679
2023-03-14 16:19:22:448,-0.788932,1.2294,-9.65279,-7.11751,-4.44408,68.6784
2023-03-14 16:19:22:458,-0.813053,1.24109,-9.65325,-7.12622,-4.44449,68.6905
2023-03-14 16:19:22:468,-0.836038,1.22536,-9.65342,-7.13266,-4.43693,68.6965
2023-03-14 16:19:22:478,-0.835225,1.22747,-9.65004,-7.13898,-4.43238,68.7025
2023-03-14 16:19:22:488,-0.828153,1.22706,-9.65124,-7.14319,-4.42677,68.7078
2023-03-14 16:19:22:498,-0.804666,1.21836,-9.65874,-7.14881,-4.41982,68.7031
2023-03-14 16:19:22:508,-0.785122,1.21376,-9.67353,-7.15376,-4.41252,68.6978
2023-03-14 16:19:22:518,-0.769735,1.22275,-9.69468,-7.16084,-4.40392,68.6901
2023-03-14 16:19:22:528,-0.734766,1.22503,-9.69513,-7.17117,-4.39703,68.6787
2023-03-14 16:19:22:538,-0.697483,1.22613,-9.71021,-7.18314,-4.38662,68.6625
2023-03-14 16:19:22:548,-0.691588,1.23462,-9.72168,-7.19497,-4.37634,68.6479
2023-03-14 16:19:22:558,-0.661943,1.24662,-9.71621,-7.20546,-4.36914,68.6373
2023-03-14 16:19:22:568,-0.641216,1.24855,-9.68489,-7.2158,-4.36108,68.6246
2023-03-14 16:19:22:578,-0.657608,1.25242,-9.70235,-7.22782,-4.35557,68.6136
2023-03-14 16:19:22:588,-0.691368,1.28323,-9.72747,-7.23219,-4.34809,68.6066
2023-03-14 16:19:22:598,-0.699507,1.29427,-9.70975,-7.2345,-4.33739,68.5982
2023-03-14 16:19:22:608,-0.66335,1.27012,-9.70433,-7.2329,-4.32827,68.5909
2023-03-14 16:19:22:618,-0.616618,1.24488,-9.72546,-7.22806,-4.31643,68.5827
2023-03-14 16:19:22:628,-0.605373,1.22174,-9.70266,-7.22263,-4.30789,68.5746
2023-03-14 16:19:22:638,-0.630312,1.20914,-9.69284,-7.21662,-4.3018,68.5706
2023-03-14 16:19:22:648,-0.655988,1.19909,-9.70413,-7.20952,-4.30408,68.5687
2023-03-14 16:19:22:658,-0.657788,1.19632,-9.71027,-7.20421,-4.30468,68.5663
2023-03-14 16:19:22:668,-0.653869,1.19639,-9.70154,-7.19855,-4.30643,68.5623
2023-03-14 16:19:22:678,-0.646309,1.20558,-9.69485,-7.19358,-4.31056,68.5612
2023-03-14 16:19:22:688,-0.655617,1.21755,-9.69181,-7.18826,-4.31152,68.5614
2023-03-14 16:19:22:698,-0.664235,1.21252,-9.69786,-7.1839,-4.31771,68.5619
2023-03-14 16:19:22:708,-0.671305,1.21626,-9.67167,-7.18078,-4.32642,68.5649
2023-03-14 16:19:22:718,-0.683654,1.20548,-9.65404,-7.17725,-4.33561,68.572
2023-03-14 16:19:22:728,-0.698865,1.19941,-9.65004,-7.17445,-4.34666,68.5783
2023-03-14 16:19:22:738,-0.697974,1.19362,-9.64272,-7.17087,-4.3601,68.5824
2023-03-14 16:19:22:748,-0.726082,1.19059,-9.63908,-7.16627,-4.3736,68.5898
2023-03-14 16:19:22:758,-0.737496,1.18171,-9.6351,-7.16367,-4.38331,68.5988
2023-03-14 16:19:22:768,-0.754799,1.1725,-9.64396,-7.16287,-4.39644,68.6085
2023-03-14 16:19:22:778,-0.759835,1.17599,-9.64782,-7.16397,-4.40792,68.62
2023-03-14 16:19:22:788,-0.761937,1.18534,-9.65272,-7.16746,-4.4172,68.6265
2023-03-14 16:19:22:798,-0.772485,1.19371,-9.65865,-7.16943,-4.42835,68.6336
2023-03-14 16:19:22:808,-0.787345,1.19824,-9.65171,-7.17288,-4.43867,68.6405
2023-03-14 16:19:22:818,-0.784512,1.19979,-9.64833,-7.17899,-4.44663,68.647
2023-03-14 16:19:22:828,-0.79429,1.21313,-9.66461,-7.18685,-4.45359,68.6539
2023-03-14 16:19:22:838,-0.815573,1.22928,-9.67916,-7.1986,-4.45906,68.6587
2023-03-14 16:19:22:848,-0.813879,1.25406,-9.66876,-7.2114,-4.46643,68.6651
2023-03-14 16:19:22:858,-0.810213,1.25636,-9.68227,-7.22375,-4.47212,68.6702
2023-03-14 16:19:22:868,-0.820143,1.25913,-9.69598,-7.2341,-4.47938,68.6732
2023-03-14 16:19:22:878,-0.82605,1.27079,-9.69095,-7.23988,-4.4815,68.6746
2023-03-14 16:19:22:888,-0.825506,1.27038,-9.68267,-7.24303,-4.47965,68.6759
2023-03-14 16:19:22:898,-0.804326,1.2621,-9.665,-7.24564,-4.47666,68.6722
2023-03-14 16:19:22:908,-0.794571,1.24447,-9.6659,-7.247,-4.47525,68.6685
2023-03-14 16:19:22:918,-0.791275,1.2293,-9.66773,-7.24517,-4.47175,68.6615
2023-03-14 16:19:22:928,-0.777237,1.22919,-9.67242,-7.24574,-4.47018,68.6568
2023-03-14 16:19:22:938,-0.74623,1.21213,-9.69238,-7.24839,-4.46449,68.65
2023-03-14 16:19:22:948,-0.748785,1.21908,-9.70586,-7.24658,-4.4581,68.6427
2023-03-14 16:19:22:958,-0.741517,1.22807,-9.69421,-7.25041,-4.45015,68.6346
2023-03-14 16:19:22:968,-0.731315,1.23242,-9.69248,-7.25191,-4.44269,68.6284
2023-03-14 16:19:22:978,-0.726942,1.24811,-9.68562,-7.25336,-4.43729,68.6243
2023-03-14 16:19:22:988,-0.728481,1.2439,-9.69085,-7.25189,-4.43302,68.6187
2023-03-14 16:19:22:998,-0.723523,1.23024,-9.68451,-7.24961,-4.42655,68.6125
2023-03-14 16:19:23:8,-0.708006,1.21717,-9.67462,-7.24671,-4.42261,68.6055
2023-03-14 16:19:23:18,-0.698436,1.21137,-9.66877,-7.24241,-4.41795,68.6021
2023-03-14 16:19:23:28,-0.705445,1.18934,-9.66647,-7.23964,-4.41579,68.5987
2023-03-14 16:19:23:38,-0.718938,1.20541,-9.66122,-7.23572,-4.41755,68.5976
2023-03-14 16:19:23:48,-0.72341,1.2098,-9.64277,-7.23513,-4.41952,68.5969
2023-03-14 16:19:23:58,-0.732828,1.20148,-9.6398,-7.23464,-4.41757,68.5958
2023-03-14 16:19:23:68,-0.743832,1.19544,-9.65328,-7.2356,-4.41739,68.5992
2023-03-14 16:19:23:78,-0.754971,1.20604,-9.66077,-7.23651,-4.4185,68.6039
2023-03-14 16:19:23:88,-0.750925,1.22026,-9.66762,-7.23892,-4.4192,68.6056
2023-03-14 16:19:23:98,-0.744708,1.20988,-9.67315,-7.24244,-4.4208,68.6063
2023-03-14 16:19:23:108,-0.763277,1.21093,-9.67109,-7.24445,-4.42164,68.609
2023-03-14 16:19:23:118,-0.77995,1.21509,-9.64951,-7.24778,-4.42049,68.6134
2023-03-14 16:19:23:128,-0.779095,1.20484,-9.63925,-7.25158,-4.41942,68.6162
2023-03-14 16:19:23:138,-0.771354,1.19291,-9.6477,-7.2555,-4.417,68.6192
2023-03-14 16:19:23:148,-0.751398,1.19921,-9.66255,-7.25692,-4.41826,68.6178
2023-03-14 16:19:23:158,-0.737881,1.20551,-9.68918,-7.25984,-4.41719,68.6158
2023-03-14 16:19:23:168,-0.737383,1.2314,-9.72007,-7.26543,-4.41371,68.6147
2023-03-14 16:19:23:178,-0.723886,1.25486,-9.74647,-7.27011,-4.41216,68.6131
2023-03-14 16:19:23:188,-0.705338,1.23846,-9.72069,-7.27227,-4.40792,68.6122
2023-03-14 16:19:23:198,-0.717075,1.20927,-9.70078,-7.27026,-4.40295,68.6101
2023-03-14 16:19:23:208,-0.713956,1.20311,-9.6753,-7.27345,-4.40323,68.6109
2023-03-14 16:19:23:218,-0.721317,1.22122,-9.66512,-7.27555,-4.40237,68.6082
2023-03-14 16:19:23:228,-0.729701,1.22904,-9.65014,-7.28002,-4.40315,68.6096
2023-03-14 16:19:23:238,-0.72796,1.24191,-9.63302,-7.28704,-4.40259,68.6099
2023-03-14 16:19:23:248,-0.72972,1.24491,-9.62892,-7.2927,-4.40149,68.6099
2023-03-14 16:19:23:258,-0.731007,1.24161,-9.62077,-7.29868,-4.40277,68.613
2023-03-14 16:19:23:268,-0.749723,1.24315,-9.62684,-7.3049,-4.40195,68.6146
2023-03-14 16:19:23:278,-0.768932,1.25364,-9.62701,-7.3108,-4.40323,68.6173
2023-03-14 16:19:23:288,-0.770971,1.24672,-9.64108,-7.31647,-4.4025,68.6152
2023-03-14 16:19:23:298,-0.780062,1.24582,-9.65412,-7.3198,-4.39762,68.6169
2023-03-14 16:19:23:308,-0.753295,1.25169,-9.6839,-7.32517,-4.39601,68.6133
2023-03-14 16:19:23:318,-0.741212,1.243,-9.69907,-7.33165,-4.39419,68.6084
2023-03-14 16:19:23:328,-0.734984,1.25562,-9.69498,-7.33681,-4.38643,68.6054
2023-03-14 16:19:23:338,-0.726509,1.2542,-9.69214,-7.3445,-4.38121,68.6021
2023-03-14 16:19:23:348,-0.735052,1.24257,-9.68193,-7.35304,-4.37915,68.5961
2023-03-14 16:19:23:358,-0.727168,1.25767,-9.68014,-7.36284,-4.37765,68.5911
2023-03-14 16:19:23:368,-0.733245,1.28455,-9.70699,-7.37284,-4.37427,68.5871
2023-03-14 16:19:23:378,-0.72938,1.31399,-9.7256,-7.38339,-4.37337,68.5813
2023-03-14 16:19:23:388,-0.731572,1.30205,-9.69412,-7.39116,-4.36903,68.5748
2023-03-14 16:19:23:398,-0.753672,1.28956,-9.66964,-7.39364,-4.36539,68.5711
2023-03-14 16:19:23:408,-0.769694,1.27357,-9.66387,-7.39496,-4.3608,68.5681
2023-03-14 16:19:23:418,-0.75824,1.28287,-9.67362,-7.39804,-4.3549,68.5671
2023-03-14 16:19:23:428,-0.714265,1.2848,-9.68528,-7.39619,-4.34636,68.5588
2023-03-14 16:19:23:438,-0.675835,1.24922,-9.6959,-7.39322,-4.33629,68.5508
2023-03-14 16:19:23:448,-0.655828,1.2226,-9.68801,-7.38722,-4.33079,68.5431
2023-03-14 16:19:23:458,-0.654587,1.23515,-9.66245,-7.38376,-4.32746,68.5354
2023-03-14 16:19:23:468,-0.674437,1.22515,-9.66844,-7.38564,-4.32565,68.5278
2023-03-14 16:19:23:478,-0.678888,1.23261,-9.69838,-7.38403,-4.32439,68.5262
2023-03-14 16:19:23:488,-0.700976,1.24674,-9.70495,-7.38667,-4.32309,68.5241
2023-03-14 16:19:23:498,-0.710251,1.26655,-9.72411,-7.38808,-4.32387,68.5265
2023-03-14 16:19:23:508,-0.714114,1.28558,-9.71937,-7.38859,-4.32559,68.527
2023-03-14 16:19:23:518,-0.714418,1.29472,-9.70927,-7.38735,-4.32483,68.5272
2023-03-14 16:19:23:528,-0.730014,1.2978,-9.68315,-7.38491,-4.3251,68.5298
2023-03-14 16:19:23:538,-0.727845,1.26409,-9.65769,-7.3806,-4.32519,68.5301
2023-03-14 16:19:23:548,-0.727262,1.23993,-9.65278,-7.37486,-4.32575,68.5299
2023-03-14 16:19:23:558,-0.716905,1.24976,-9.64715,-7.36965,-4.32459,68.5291
2023-03-14 16:19:23:568,-0.718223,1.23868,-9.61777,-7.36418,-4.32538,68.5298
2023-03-14 16:19:23:578,-0.706327,1.22004,-9.62316,-7.36134,-4.32743,68.5308
2023-03-14 16:19:23:588,-0.686315,1.22358,-9.65457,-7.35798,-4.32936,68.5312
2023-03-14 16:19:23:598,-0.68916,1.23346,-9.67301,-7.35773,-4.33339,68.5324
2023-03-14 16:19:23:608,-0.699377,1.23982,-9.68942,-7.35731,-4.33723,68.534
2023-03-14 16:19:23:618,-0.71901,1.24222,-9.68865,-7.35315,-4.34512,68.5384
2023-03-14 16:19:23:628,-0.73897,1.23969,-9.69298,-7.3536,-4.35151,68.5416
2023-03-14 16:19:23:638,-0.75781,1.24451,-9.66943,-7.35298,-4.36227,68.5457
2023-03-14 16:19:23:648,-0.756272,1.23389,-9.6551,-7.35179,-4.36453,68.5471
2023-03-14 16:19:23:658,-0.762077,1.22138,-9.62325,-7.35111,-4.37027,68.5526
2023-03-14 16:19:23:668,-0.775068,1.23125,-9.63201,-7.35138,-4.37775,68.5575
2023-03-14 16:19:23:678,-0.782527,1.25312,-9.64341,-7.35532,-4.3814,68.5652
2023-03-14 16:19:23:688,-0.798675,1.25828,-9.65868,-7.36154,-4.38418,68.5689
2023-03-14 16:19:23:698,-0.80359,1.26255,-9.6774,-7.36604,-4.38809,68.5724
2023-03-14 16:19:23:708,-0.800025,1.25136,-9.68404,-7.36649,-4.38736,68.5747
2023-03-14 16:19:23:718,-0.795499,1.23775,-9.68126,-7.36601,-4.38586,68.5775
2023-03-14 16:19:23:728,-0.789866,1.24009,-9.6797,-7.36401,-4.38229,68.5765
2023-03-14 16:19:23:738,-0.775045,1.23164,-9.68371,-7.36393,-4.37833,68.5711
2023-03-14 16:19:23:748,-0.757009,1.24515,-9.68056,-7.3639,-4.37558,68.5662
2023-03-14 16:19:23:758,-0.743502,1.23798,-9.66467,-7.3607,-4.37183,68.5579
2023-03-14 16:19:23:768,-0.739,1.21588,-9.65187,-7.35862,-4.36609,68.547
2023-03-14 16:19:23:778,-0.705616,1.19283,-9.64837,-7.35865,-4.3613,68.5356
2023-03-14 16:19:23:788,-0.672926,1.21418,-9.64646,-7.36147,-4.35677,68.5266
2023-03-14 16:19:23:798,-0.678274,1.22044,-9.64677,-7.36279,-4.35384,68.5157
2023-03-14 16:19:23:808,-0.678043,1.2242,-9.67771,-7.36736,-4.35006,68.5069
2023-03-14 16:19:23:818,-0.670833,1.22917,-9.68893,-7.37348,-4.34263,68.4998
2023-03-14 16:19:23:828,-0.676847,1.23168,-9.68425,-7.37907,-4.33344,68.4972
2023-03-14 16:19:23:838,-0.682712,1.23897,-9.66556,-7.38247,-4.32868,68.4932
2023-03-14 16:19:23:848,-0.687637,1.24467,-9.66391,-7.38431,-4.32433,68.4959
2023-03-14 16:19:23:858,-0.693855,1.25384,-9.66998,-7.38811,-4.31824,68.4976
2023-03-14 16:19:23:868,-0.709602,1.24795,-9.67336,-7.39095,-4.31576,68.5022
2023-03-14 16:19:23:878,-0.719392,1.24007,-9.66551,-7.3944,-4.31549,68.5071
2023-03-14 16:19:23:888,-0.720624,1.23739,-9.66093,-7.39572,-4.31386,68.5073
2023-03-14 16:19:23:898,-0.741378,1.23196,-9.67704,-7.40066,-4.32059,68.5082
2023-03-14 16:19:23:908,-0.75148,1.24225,-9.66295,-7.40229,-4.31987,68.5099
2023-03-14 16:19:23:918,-0.739845,1.23125,-9.66529,-7.40627,-4.31821,68.5069
2023-03-14 16:19:23:928,-0.724385,1.23371,-9.65006,-7.40994,-4.31268,68.508
2023-03-14 16:19:23:938,-0.720388,1.24739,-9.66396,-7.41281,-4.31053,68.5052
2023-03-14 16:19:23:948,-0.729201,1.23717,-9.68938,-7.41664,-4.31162,68.4997
2023-03-14 16:19:23:958,-0.719642,1.24698,-9.72711,-7.42555,-4.30913,68.4949
2023-03-14 16:19:23:968,-0.708921,1.2639,-9.73786,-7.43105,-4.30544,68.494
2023-03-14 16:19:23:978,-0.684674,1.27137,-9.71534,-7.43396,-4.30587,68.4889
2023-03-14 16:19:23:988,-0.652838,1.26291,-9.70232,-7.43657,-4.30461,68.4875
2023-03-14 16:19:23:998,-0.6525,1.25067,-9.68847,-7.43956,-4.30624,68.4837
2023-03-14 16:19:24:8,-0.689161,1.2544,-9.66172,-7.44408,-4.30983,68.4811
2023-03-14 16:19:24:18,-0.70837,1.25787,-9.64587,-7.44973,-4.31409,68.4824
2023-03-14 16:19:24:28,-0.721498,1.27859,-9.6409,-7.4568,-4.31745,68.4847
2023-03-14 16:19:24:38,-0.731774,1.28473,-9.65534,-7.46671,-4.32044,68.4877
2023-03-14 16:19:24:48,-0.733057,1.29869,-9.65386,-7.47446,-4.32104,68.4888
2023-03-14 16:19:24:58,-0.726268,1.29856,-9.66132,-7.48936,-4.32354,68.4913
2023-03-14 16:19:24:68,-0.744077,1.30417,-9.64955,-7.49858,-4.32744,68.4963
2023-03-14 16:19:24:78,-0.77316,1.30911,-9.641,-7.50875,-4.33389,68.5003
2023-03-14 16:19:24:88,-0.787484,1.30885,-9.65367,-7.51669,-4.33389,68.5054
2023-03-14 16:19:24:98,-0.790042,1.30475,-9.66547,-7.52327,-4.33488,68.5065
2023-03-14 16:19:24:108,-0.775345,1.31917,-9.66684,-7.52898,-4.33056,68.508
2023-03-14 16:19:24:118,-0.773349,1.33657,-9.67676,-7.53501,-4.32572,68.5086
2023-03-14 16:19:24:128,-0.774678,1.33331,-9.68468,-7.54451,-4.31907,68.5086
2023-03-14 16:19:24:138,-0.767322,1.32947,-9.68352,-7.54742,-4.31514,68.5004
2023-03-14 16:19:24:148,-0.762778,1.31322,-9.68049,-7.54857,-4.30728,68.4899
2023-03-14 16:19:24:158,-0.743265,1.31376,-9.68491,-7.55292,-4.30314,68.48
2023-03-14 16:19:24:168,-0.720653,1.31813,-9.70165,-7.56148,-4.29425,68.4711
2023-03-14 16:19:24:178,-0.692529,1.32837,-9.69566,-7.56717,-4.28758,68.4605
2023-03-14 16:19:24:188,-0.677278,1.30947,-9.69354,-7.57067,-4.28105,68.4507
2023-03-14 16:19:24:198,-0.694253,1.3101,-9.69433,-7.57187,-4.27317,68.4428
2023-03-14 16:19:24:208,-0.689678,1.33107,-9.69911,-7.5702,-4.26632,68.4361
2023-03-14 16:19:24:218,-0.68428,1.33382,-9.69586,-7.56987,-4.25869,68.4269
2023-03-14 16:19:24:228,-0.661304,1.33039,-9.71336,-7.56593,-4.24633,68.4182
2023-03-14 16:19:24:238,-0.618956,1.30562,-9.71762,-7.56013,-4.23716,68.4129
2023-03-14 16:19:24:248,-0.617187,1.27867,-9.69729,-7.55189,-4.23271,68.4052
2023-03-14 16:19:24:258,-0.643537,1.26063,-9.67494,-7.54045,-4.22951,68.3993
2023-03-14 16:19:24:268,-0.655637,1.24042,-9.66487,-7.52775,-4.229,68.3987
2023-03-14 16:19:24:278,-0.674423,1.23077,-9.67834,-7.52012,-4.22976,68.4003
2023-03-14 16:19:24:288,-0.683743,1.24586,-9.66526,-7.51389,-4.23383,68.4019
2023-03-14 16:19:24:298,-0.673543,1.25755,-9.66802,-7.50754,-4.2355,68.4037
2023-03-14 16:19:24:308,-0.673382,1.25642,-9.67914,-7.50342,-4.23381,68.405
2023-03-14 16:19:24:318,-0.679137,1.25459,-9.67631,-7.49814,-4.23403,68.4085
2023-03-14 16:19:24:328,-0.687127,1.24215,-9.65823,-7.4977,-4.23482,68.4138
2023-03-14 16:19:24:338,-0.70598,1.24767,-9.65773,-7.49557,-4.23917,68.4183
2023-03-14 16:19:24:348,-0.71851,1.26018,-9.66691,-7.49218,-4.24269,68.4295
2023-03-14 16:19:24:358,-0.733097,1.25846,-9.67178,-7.48905,-4.24819,68.4353
2023-03-14 16:19:24:368,-0.747836,1.24907,-9.64984,-7.48259,-4.25241,68.4418
2023-03-14 16:19:24:378,-0.749715,1.22751,-9.65059,-7.47587,-4.25865,68.4447
2023-03-14 16:19:24:388,-0.729896,1.22095,-9.63981,-7.4687,-4.26594,68.4489
2023-03-14 16:19:24:398,-0.711153,1.22797,-9.64475,-7.4642,-4.27087,68.4539
2023-03-14 16:19:24:408,-0.716345,1.22034,-9.65749,-7.46164,-4.27306,68.4566
2023-03-14 16:19:24:418,-0.717948,1.223,-9.66551,-7.46175,-4.28032,68.4605
2023-03-14 16:19:24:428,-0.721517,1.22983,-9.66316,-7.46273,-4.28536,68.466
2023-03-14 16:19:24:438,-0.724943,1.24115,-9.66066,-7.46614,-4.28872,68.4741
2023-03-14 16:19:24:448,-0.748317,1.25078,-9.63693,-7.46904,-4.29213,68.4821
2023-03-14 16:19:24:458,-0.774206,1.23811,-9.63571,-7.47353,-4.29624,68.4894
2023-03-14 16:19:24:468,-0.790052,1.26673,-9.6554,-7.48421,-4.29786,68.4962
2023-03-14 16:19:24:478,-0.801199,1.29482,-9.68246,-7.49125,-4.2985,68.4978
2023-03-14 16:19:24:488,-0.795635,1.29734,-9.68894,-7.49688,-4.30091,68.4993
2023-03-14 16:19:24:498,-0.793884,1.28805,-9.6881,-7.50106,-4.302,68.5042
2023-03-14 16:19:24:508,-0.778595,1.26547,-9.68401,-7.50485,-4.29968,68.5066
2023-03-14 16:19:24:518,-0.763399,1.27678,-9.66507,-7.50769,-4.29689,68.506
2023-03-14 16:19:24:528,-0.756558,1.25855,-9.65775,-7.50948,-4.29515,68.5036
2023-03-14 16:19:24:538,-0.738402,1.24732,-9.6591,-7.51288,-4.29031,68.4985
2023-03-14 16:19:24:548,-0.718691,1.24049,-9.63118,-7.51174,-4.28395,68.4914
2023-03-14 16:19:24:558,-0.704405,1.23418,-9.6408,-7.51539,-4.27467,68.4855
2023-03-14 16:19:24:568,-0.688838,1.23703,-9.66459,-7.51746,-4.26576,68.4806
2023-03-14 16:19:24:578,-0.680406,1.24993,-9.6772,-7.5237,-4.26148,68.4752
2023-03-14 16:19:24:588,-0.68559,1.25167,-9.68088,-7.52957,-4.25368,68.4741
2023-03-14 16:19:24:598,-0.673531,1.2582,-9.67609,-7.53762,-4.24865,68.4684
2023-03-14 16:19:24:608,-0.684157,1.2615,-9.66349,-7.54366,-4.24327,68.4638
2023-03-14 16:19:24:618,-0.691984,1.26703,-9.65158,-7.54898,-4.23919,68.4589
2023-03-14 16:19:24:628,-0.691155,1.27715,-9.65075,-7.55598,-4.23501,68.4553
2023-03-14 16:19:24:638,-0.674102,1.26189,-9.67495,-7.56346,-4.23159,68.4529
2023-03-14 16:19:24:648,-0.676345,1.28446,-9.68016,-7.57098,-4.22884,68.4497
2023-03-14 16:19:24:658,-0.678388,1.28733,-9.68258,-7.57794,-4.22662,68.4509
2023-03-14 16:19:24:668,-0.673342,1.28198,-9.67888,-7.58777,-4.22664,68.4526
2023-03-14 16:19:24:678,-0.678792,1.28563,-9.67356,-7.59637,-4.22686,68.4533
2023-03-14 16:19:24:688,-0.681416,1.29633,-9.65979,-7.60561,-4.229,68.4591
2023-03-14 16:19:24:698,-0.69588,1.28648,-9.6561,-7.6116,-4.22788,68.4656
2023-03-14 16:19:24:708,-0.716764,1.29038,-9.6486,-7.61974,-4.22671,68.4717
2023-03-14 16:19:24:718,-0.744182,1.2969,-9.65338,-7.6308,-4.22299,68.4775
2023-03-14 16:19:24:728,-0.743295,1.30577,-9.66748,-7.63925,-4.2225,68.485
2023-03-14 16:19:24:738,-0.751676,1.31874,-9.69147,-7.65089,-4.21984,68.4905
2023-03-14 16:19:24:748,-0.755803,1.33275,-9.68184,-7.6578,-4.21605,68.4949
2023-03-14 16:19:24:758,-0.751724,1.31442,-9.65793,-7.66379,-4.21292,68.497
2023-03-14 16:19:24:768,-0.739773,1.3086,-9.65519,-7.66759,-4.2119,68.4958
2023-03-14 16:19:24:778,-0.724835,1.30114,-9.69775,-7.67499,-4.20688,68.4928
2023-03-14 16:19:24:788,-0.715085,1.33205,-9.72349,-7.68404,-4.2027,68.4903
2023-03-14 16:19:24:798,-0.686904,1.33661,-9.71594,-7.69027,-4.20107,68.4855
2023-03-14 16:19:24:808,-0.650683,1.2998,-9.69973,-7.69179,-4.20483,68.4794
2023-03-14 16:19:24:818,-0.642192,1.288,-9.67006,-7.69369,-4.20782,68.4771
2023-03-14 16:19:24:828,-0.652812,1.3055,-9.65608,-7.69624,-4.21542,68.4764
2023-03-14 16:19:24:838,-0.670021,1.30896,-9.65299,-7.70251,-4.22353,68.4797
2023-03-14 16:19:24:848,-0.687654,1.31507,-9.63977,-7.71036,-4.23061,68.4844
2023-03-14 16:19:24:858,-0.703252,1.33323,-9.63459,-7.71668,-4.23729,68.4869
2023-03-14 16:19:24:868,-0.705118,1.357,-9.65928,-7.72663,-4.2409,68.4925
2023-03-14 16:19:24:878,-0.730279,1.37539,-9.67518,-7.73733,-4.24344,68.5042
2023-03-14 16:19:24:888,-0.757183,1.36049,-9.67166,-7.74377,-4.24748,68.5127
2023-03-14 16:19:24:898,-0.772947,1.35864,-9.6624,-7.7446,-4.25028,68.5244
2023-03-14 16:19:24:908,-0.792678,1.34723,-9.65337,-7.74701,-4.25234,68.5323
2023-03-14 16:19:24:918,-0.789236,1.33084,-9.64772,-7.74663,-4.25353,68.5373
2023-03-14 16:19:24:928,-0.785728,1.32073,-9.64973,-7.74688,-4.25132,68.5409
2023-03-14 16:19:24:938,-0.771319,1.3176,-9.65012,-7.74861,-4.24867,68.5432
2023-03-14 16:19:24:948,-0.749258,1.32497,-9.66361,-7.75115,-4.2441,68.5424
2023-03-14 16:19:24:958,-0.732183,1.33507,-9.67342,-7.75738,-4.24026,68.5398
2023-03-14 16:19:24:968,-0.732925,1.33981,-9.69356,-7.75952,-4.23036,68.5372
2023-03-14 16:19:24:978,-0.714151,1.34211,-9.70846,-7.76277,-4.2253,68.5346
2023-03-14 16:19:24:988,-0.708598,1.35072,-9.71376,-7.76497,-4.2195,68.5285
2023-03-14 16:19:24:998,-0.699794,1.35393,-9.68384,-7.76669,-4.21384,68.5233
2023-03-14 16:19:25:8,-0.692342,1.32987,-9.67519,-7.76983,-4.20935,68.5181
2023-03-14 16:19:25:18,-0.704949,1.33892,-9.66439,-7.7722,-4.20702,68.5142
2023-03-14 16:19:25:28,-0.723969,1.34815,-9.67316,-7.77591,-4.20289,68.5114
2023-03-14 16:19:25:38,-0.705472,1.34751,-9.67441,-7.7765,-4.19479,68.506
2023-03-14 16:19:25:48,-0.661213,1.33835,-9.67864,-7.77311,-4.18779,68.5008
2023-03-14 16:19:25:58,-0.625612,1.30349,-9.69003,-7.76623,-4.17911,68.4931
2023-03-14 16:19:25:68,-0.620514,1.28537,-9.68001,-7.75509,-4.17515,68.4865
2023-03-14 16:19:25:78,-0.639727,1.28215,-9.67038,-7.74496,-4.17788,68.4877
2023-03-14 16:19:25:88,-0.648386,1.26717,-9.67898,-7.73452,-4.17912,68.4896
2023-03-14 16:19:25:98,-0.652168,1.26941,-9.68885,-7.72713,-4.17719,68.4911
2023-03-14 16:19:25:108,-0.647593,1.27287,-9.67642,-7.72294,-4.17749,68.4935
2023-03-14 16:19:25:118,-0.654557,1.2784,-9.65609,-7.71933,-4.17954,68.4929
2023-03-14 16:19:25:128,-0.655054,1.28386,-9.67559,-7.71718,-4.17632,68.4993
2023-03-14 16:19:25:138,-0.662871,1.27716,-9.66119,-7.71303,-4.17805,68.5061
2023-03-14 16:19:25:148,-0.679911,1.27709,-9.63804,-7.71277,-4.18156,68.513
2023-03-14 16:19:25:158,-0.683059,1.28636,-9.6314,-7.71321,-4.18541,68.5211
2023-03-14 16:19:25:168,-0.682878,1.27581,-9.62591,-7.71161,-4.18881,68.529
2023-03-14 16:19:25:178,-0.691364,1.27996,-9.63956,-7.714,-4.19228,68.5366
2023-03-14 16:19:25:188,-0.696286,1.29423,-9.62895,-7.71405,-4.19651,68.5445
2023-03-14 16:19:25:198,-0.69641,1.28159,-9.64642,-7.71893,-4.20609,68.5519
2023-03-14 16:19:25:208,-0.700307,1.27863,-9.66495,-7.71886,-4.21421,68.5556
2023-03-14 16:19:25:218,-0.700572,1.28724,-9.67188,-7.72405,-4.22503,68.5616
2023-03-14 16:19:25:228,-0.684935,1.2872,-9.67829,-7.7276,-4.23337,68.567
2023-03-14 16:19:25:238,-0.676419,1.29566,-9.68329,-7.73392,-4.24067,68.5694
2023-03-14 16:19:25:248,-0.695341,1.30048,-9.67087,-7.74371,-4.25001,68.5769
2023-03-14 16:19:25:258,-0.726112,1.30511,-9.66275,-7.74979,-4.25846,68.5857
2023-03-14 16:19:25:268,-0.717137,1.30702,-9.66464,-7.75976,-4.26849,68.5956
2023-03-14 16:19:25:278,-0.707633,1.32881,-9.67783,-7.76993,-4.27527,68.607
2023-03-14 16:19:25:288,-0.733293,1.33695,-9.68175,-7.7777,-4.28501,68.6171
2023-03-14 16:19:25:298,-0.755378,1.34624,-9.67029,-7.78623,-4.29193,68.6251
2023-03-14 16:19:25:308,-0.769426,1.34563,-9.66616,-7.79735,-4.29531,68.6351
2023-03-14 16:19:25:318,-0.790326,1.35756,-9.67712,-7.80414,-4.29817,68.6441
2023-03-14 16:19:25:328,-0.804282,1.35299,-9.67557,-7.81164,-4.29965,68.6488
2023-03-14 16:19:25:338,-0.782585,1.35719,-9.66292,-7.81428,-4.29773,68.652
2023-03-14 16:19:25:348,-0.762997,1.36249,-9.66331,-7.81667,-4.29652,68.6501
2023-03-14 16:19:25:358,-0.751654,1.35895,-9.65546,-7.81773,-4.29294,68.6471
2023-03-14 16:19:25:368,-0.727509,1.34009,-9.65894,-7.8165,-4.2909,68.6445
2023-03-14 16:19:25:378,-0.72382,1.3258,-9.66167,-7.81721,-4.29295,68.6374
2023-03-14 16:19:25:388,-0.721046,1.31923,-9.66166,-7.81437,-4.29288,68.6324
2023-03-14 16:19:25:398,-0.698131,1.31165,-9.66917,-7.81354,-4.28947,68.6234
2023-03-14 16:19:25:408,-0.68471,1.32528,-9.66922,-7.81606,-4.28786,68.6183
2023-03-14 16:19:25:418,-0.686681,1.3341,-9.67849,-7.81855,-4.28751,68.6132
2023-03-14 16:19:25:428,-0.679948,1.31303,-9.67805,-7.81964,-4.28591,68.6095
2023-03-14 16:19:25:438,-0.67291,1.30647,-9.65569,-7.81981,-4.28441,68.6069
2023-03-14 16:19:25:448,-0.681332,1.31358,-9.66838,-7.82174,-4.28867,68.603
2023-03-14 16:19:25:458,-0.678735,1.32474,-9.67747,-7.82608,-4.29118,68.5995
2023-03-14 16:19:25:468,-0.685826,1.33045,-9.67426,-7.82741,-4.29618,68.5979
2023-03-14 16:19:25:478,-0.680276,1.32908,-9.66538,-7.83129,-4.30196,68.6001
2023-03-14 16:19:25:488,-0.69565,1.32479,-9.65895,-7.83539,-4.30699,68.6047
2023-03-14 16:19:25:498,-0.705382,1.32059,-9.65161,-7.83868,-4.31358,68.6084
2023-03-14 16:19:25:508,-0.714628,1.32374,-9.64893,-7.83743,-4.32007,68.6166
2023-03-14 16:19:25:518,-0.727891,1.31865,-9.65217,-7.83823,-4.32547,68.6241
2023-03-14 16:19:25:528,-0.741916,1.30934,-9.65368,-7.8386,-4.3326,68.6305
2023-03-14 16:19:25:538,-0.761411,1.31326,-9.64311,-7.83939,-4.33946,68.6359
2023-03-14 16:19:25:548,-0.775115,1.3162,-9.65598,-7.84199,-4.3463,68.642
2023-03-14 16:19:25:558,-0.77742,1.31906,-9.64915,-7.84364,-4.3516,68.6499
2023-03-14 16:19:25:568,-0.784136,1.32845,-9.64701,-7.84679,-4.35705,68.6525
2023-03-14 16:19:25:578,-0.777298,1.31989,-9.66522,-7.85339,-4.35814,68.6551
2023-03-14 16:19:25:588,-0.763364,1.33612,-9.69215,-7.86086,-4.35868,68.6589
2023-03-14 16:19:25:598,-0.753873,1.35175,-9.73407,-7.86613,-4.35616,68.6572
2023-03-14 16:19:25:608,-0.744559,1.3598,-9.75141,-7.86937,-4.35649,68.6566
2023-03-14 16:19:25:618,-0.728367,1.34976,-9.73433,-7.86806,-4.35998,68.6579
2023-03-14 16:19:25:628,-0.746681,1.34229,-9.69319,-7.86766,-4.36715,68.6555
2023-03-14 16:19:25:638,-0.751548,1.34298,-9.67642,-7.86838,-4.37356,68.6566
2023-03-14 16:19:25:648,-0.780009,1.34573,-9.66209,-7.86715,-4.37897,68.6575
2023-03-14 16:19:25:658,-0.779162,1.34112,-9.61599,-7.86407,-4.38338,68.6548
2023-03-14 16:19:25:668,-0.766469,1.35005,-9.59084,-7.8634,-4.38863,68.6529
2023-03-14 16:19:25:678,-0.744533,1.35044,-9.6043,-7.86563,-4.38953,68.6461
2023-03-14 16:19:25:688,-0.73278,1.366,-9.62325,-7.87027,-4.39079,68.6432
2023-03-14 16:19:25:698,-0.749116,1.37882,-9.62412,-7.87505,-4.38923,68.6409
2023-03-14 16:19:25:708,-0.761432,1.36113,-9.62974,-7.87239,-4.38836,68.6397
2023-03-14 16:19:25:718,-0.754036,1.34718,-9.63177,-7.87248,-4.38467,68.6355
2023-03-14 16:19:25:728,-0.751606,1.33735,-9.64807,-7.87447,-4.38443,68.6356
2023-03-14 16:19:25:738,-0.755337,1.34199,-9.65941,-7.87668,-4.38252,68.6329
2023-03-14 16:19:25:748,-0.735362,1.34356,-9.6757,-7.87913,-4.37713,68.6319
2023-03-14 16:19:25:758,-0.741218,1.35065,-9.69061,-7.88451,-4.37225,68.6304
2023-03-14 16:19:25:768,-0.751151,1.35456,-9.69215,-7.8904,-4.36681,68.6268
2023-03-14 16:19:25:778,-0.745134,1.36222,-9.68778,-7.89716,-4.36051,68.6238
2023-03-14 16:19:25:788,-0.741651,1.36402,-9.69327,-7.90112,-4.35466,68.6185
2023-03-14 16:19:25:798,-0.722798,1.37438,-9.70212,-7.90576,-4.35209,68.6121
2023-03-14 16:19:25:808,-0.715056,1.39821,-9.69039,-7.90919,-4.34614,68.6077
2023-03-14 16:19:25:818,-0.714573,1.38918,-9.67582,-7.91066,-4.34549,68.6039
2023-03-14 16:19:25:828,-0.740287,1.37863,-9.67087,-7.90913,-4.34285,68.5994
2023-03-14 16:19:25:838,-0.766837,1.37941,-9.67133,-7.90455,-4.33951,68.5929
2023-03-14 16:19:25:848,-0.750652,1.37524,-9.66182,-7.89592,-4.33306,68.5875
2023-03-14 16:19:25:858,-0.712958,1.35586,-9.69223,-7.88822,-4.32449,68.5799
2023-03-14 16:19:25:868,-0.666134,1.3204,-9.69935,-7.87759,-4.318,68.5705
2023-03-14 16:19:25:878,-0.669746,1.30855,-9.66468,-7.86372,-4.31533,68.5618
2023-03-14 16:19:25:888,-0.684728,1.29046,-9.64991,-7.85058,-4.31688,68.5582
2023-03-14 16:19:25:898,-0.690018,1.28227,-9.63155,-7.83905,-4.3183,68.5525
2023-03-14 16:19:25:908,-0.684253,1.28304,-9.63519,-7.83339,-4.31984,68.548
2023-03-14 16:19:25:918,-0.680316,1.29924,-9.66542,-7.83089,-4.32183,68.5458
2023-03-14 16:19:25:928,-0.679234,1.31846,-9.69953,-7.82829,-4.32124,68.543
2023-03-14 16:19:25:938,-0.682213,1.31798,-9.70006,-7.82386,-4.32321,68.5416
2023-03-14 16:19:25:948,-0.672524,1.32787,-9.68642,-7.81824,-4.3246,68.5407
2023-03-14 16:19:25:958,-0.685029,1.31694,-9.67876,-7.81299,-4.32432,68.5405
2023-03-14 16:19:25:968,-0.707432,1.3093,-9.66973,-7.80336,-4.32611,68.5433
2023-03-14 16:19:25:978,-0.713239,1.30953,-9.66058,-7.79584,-4.33077,68.5451
2023-03-14 16:19:25:988,-0.734609,1.30157,-9.64214,-7.7846,-4.33495,68.5462
2023-03-14 16:19:25:998,-0.743899,1.28257,-9.63075,-7.77246,-4.34295,68.5536
2023-03-14 16:19:26:8,-0.755184,1.27456,-9.61874,-7.7644,-4.34472,68.557
2023-03-14 16:19:26:18,-0.739641,1.26974,-9.60987,-7.75707,-4.34806,68.557
2023-03-14 16:19:26:28,-0.73976,1.25922,-9.62345,-7.7514,-4.35003,68.5602
2023-03-14 16:19:26:38,-0.745593,1.2661,-9.64574,-7.75016,-4.35147,68.5618
2023-03-14 16:19:26:48,-0.749907,1.2779,-9.64308,-7.75156,-4.35211,68.5665
2023-03-14 16:19:26:58,-0.75106,1.29603,-9.64218,-7.75155,-4.35318,68.5669
2023-03-14 16:19:26:68,-0.766276,1.31996,-9.65707,-7.75525,-4.35468,68.5674
2023-03-14 16:19:26:78,-0.767071,1.33561,-9.66348,-7.75982,-4.3539,68.569
2023-03-14 16:19:26:88,-0.776337,1.34189,-9.67113,-7.76309,-4.35319,68.5745
2023-03-14 16:19:26:98,-0.778424,1.35472,-9.67101,-7.77093,-4.35058,68.579
2023-03-14 16:19:26:108,-0.790443,1.36724,-9.70941,-7.7723,-4.34596,68.5786
2023-03-14 16:19:26:118,-0.80592,1.38818,-9.68525,-7.77462,-4.34302,68.579
2023-03-14 16:19:26:128,-0.793548,1.32599,-9.65252,-7.76997,-4.33394,68.5765
2023-03-14 16:19:26:138,-0.769784,1.33539,-9.68268,-7.76782,-4.32495,68.5734
2023-03-14 16:19:26:148,-0.751168,1.36414,-9.70826,-7.76459,-4.31405,68.5629
2023-03-14 16:19:26:158,-0.747508,1.33902,-9.68033,-7.7609,-4.30915,68.5537
2023-03-14 16:19:26:168,-0.744218,1.29465,-9.65377,-7.75289,-4.30279,68.5425
2023-03-14 16:19:26:178,-0.707444,1.29284,-9.65196,-7.74481,-4.2947,68.531
2023-03-14 16:19:26:188,-0.693357,1.31286,-9.65602,-7.74064,-4.29023,68.5187
2023-03-14 16:19:26:198,-0.674259,1.31662,-9.64731,-7.73611,-4.28753,68.5058
2023-03-14 16:19:26:208,-0.67583,1.29811,-9.6472,-7.73149,-4.28074,68.4936
2023-03-14 16:19:26:218,-0.670664,1.28917,-9.65216,-7.73123,-4.27612,68.4842
2023-03-14 16:19:26:228,-0.671822,1.31833,-9.66447,-7.73024,-4.27281,68.476
2023-03-14 16:19:26:238,-0.671191,1.3146,-9.68045,-7.73087,-4.26772,68.4707
2023-03-14 16:19:26:248,-0.666493,1.31957,-9.66023,-7.73099,-4.26649,68.4669
2023-03-14 16:19:26:258,-0.665774,1.32385,-9.6575,-7.73373,-4.26238,68.4634
2023-03-14 16:19:26:268,-0.666974,1.32594,-9.66642,-7.73592,-4.25669,68.4636
2023-03-14 16:19:26:278,-0.694026,1.31815,-9.67718,-7.73628,-4.2521,68.4653
2023-03-14 16:19:26:288,-0.703366,1.31702,-9.67935,-7.73479,-4.2483,68.4632
2023-03-14 16:19:26:298,-0.719552,1.30563,-9.66883,-7.73144,-4.24629,68.464
2023-03-14 16:19:26:308,-0.742513,1.29751,-9.65922,-7.72438,-4.24286,68.466
2023-03-14 16:19:26:318,-0.732765,1.28358,-9.63596,-7.7203,-4.24094,68.4659
2023-03-14 16:19:26:328,-0.727511,1.27482,-9.64027,-7.71251,-4.23841,68.4629
2023-03-14 16:19:26:338,-0.724122,1.27371,-9.63925,-7.70697,-4.23367,68.4596
2023-03-14 16:19:26:348,-0.713588,1.27293,-9.64682,-7.70437,-4.23542,68.4552
2023-03-14 16:19:26:358,-0.696299,1.28429,-9.68163,-7.70749,-4.23088,68.4501
2023-03-14 16:19:26:368,-0.675737,1.30935,-9.71873,-7.70814,-4.22727,68.4438
2023-03-14 16:19:26:378,-0.644995,1.30437,-9.7312,-7.70398,-4.22187,68.4364
2023-03-14 16:19:26:388,-0.627608,1.27583,-9.71079,-7.70042,-4.22045,68.4265
2023-03-14 16:19:26:398,-0.633864,1.26184,-9.66456,-7.69453,-4.22526,68.4217
2023-03-14 16:19:26:408,-0.669245,1.27007,-9.64581,-7.6894,-4.22885,68.4181
2023-03-14 16:19:26:418,-0.694772,1.28463,-9.63766,-7.69074,-4.23245,68.4181
2023-03-14 16:19:26:428,-0.713991,1.2827,-9.62788,-7.69221,-4.2328,68.4176
2023-03-14 16:19:26:438,-0.711937,1.29768,-9.60882,-7.69413,-4.23301,68.4212
2023-03-14 16:19:26:448,-0.700718,1.29175,-9.60826,-7.699,-4.23135,68.424
2023-03-14 16:19:26:458,-0.701764,1.30505,-9.62008,-7.70601,-4.2294,68.4268
2023-03-14 16:19:26:468,-0.7214,1.31972,-9.61962,-7.71354,-4.22912,68.4297
2023-03-14 16:19:26:478,-0.743348,1.31278,-9.62382,-7.71946,-4.22547,68.4322
2023-03-14 16:19:26:488,-0.747977,1.30216,-9.61747,-7.72055,-4.22591,68.4371
2023-03-14 16:19:26:498,-0.753309,1.30165,-9.60995,-7.7279,-4.22235,68.4376
2023-03-14 16:19:26:508,-0.748192,1.31186,-9.64893,-7.738,-4.21754,68.4396
2023-03-14 16:19:26:518,-0.751275,1.34601,-9.68932,-7.75332,-4.21507,68.4346
2023-03-14 16:19:26:528,-0.746835,1.35813,-9.7098,-7.76487,-4.21094,68.4266
2023-03-14 16:19:26:538,-0.728613,1.3606,-9.70213,-7.77286,-4.20757,68.4182
2023-03-14 16:19:26:548,-0.710951,1.3517,-9.70348,-7.7798,-4.20445,68.4096
2023-03-14 16:19:26:558,-0.70708,1.37245,-9.70549,-7.79055,-4.19968,68.398
2023-03-14 16:19:26:568,-0.695759,1.37113,-9.72055,-7.79823,-4.19476,68.3856
2023-03-14 16:19:26:578,-0.677938,1.37741,-9.69747,-7.80414,-4.19072,68.3701
2023-03-14 16:19:26:588,-0.669219,1.37027,-9.67788,-7.80535,-4.18438,68.3585
2023-03-14 16:19:26:598,-0.689533,1.364,-9.68998,-7.80819,-4.17705,68.3493
2023-03-14 16:19:26:608,-0.696134,1.36616,-9.68853,-7.8084,-4.16982,68.3373
2023-03-14 16:19:26:618,-0.67771,1.36989,-9.69462,-7.80802,-4.16004,68.325
2023-03-14 16:19:26:628,-0.625082,1.36122,-9.71014,-7.80346,-4.15296,68.312
2023-03-14 16:19:26:638,-0.596306,1.33032,-9.70558,-7.79282,-4.14492,68.2962
2023-03-14 16:19:26:648,-0.605111,1.31246,-9.67089,-7.78176,-4.14294,68.2832
2023-03-14 16:19:26:658,-0.629267,1.30178,-9.66174,-7.76748,-4.14585,68.2776
2023-03-14 16:19:26:668,-0.652433,1.28941,-9.67345,-7.7527,-4.14693,68.271
2023-03-14 16:19:26:678,-0.667029,1.28816,-9.66875,-7.74182,-4.14942,68.2655
2023-03-14 16:19:26:688,-0.659339,1.28601,-9.64642,-7.73454,-4.15248,68.2634
2023-03-14 16:19:26:698,-0.645912,1.27102,-9.62619,-7.72802,-4.15453,68.2609
2023-03-14 16:19:26:708,-0.656749,1.27014,-9.63565,-7.72501,-4.1575,68.2606
2023-03-14 16:19:26:718,-0.677181,1.28249,-9.62487,-7.72255,-4.16372,68.2604
2023-03-14 16:19:26:728,-0.672715,1.28463,-9.61819,-7.72071,-4.16937,68.2594
2023-03-14 16:19:26:738,-0.675808,1.2795,-9.63818,-7.72239,-4.17557,68.2578
2023-03-14 16:19:26:748,-0.681122,1.29125,-9.65101,-7.72799,-4.17984,68.2549
2023-03-14 16:19:26:758,-0.696267,1.30744,-9.66286,-7.73197,-4.18511,68.2531
2023-03-14 16:19:26:768,-0.722456,1.30335,-9.66192,-7.73642,-4.19353,68.254
2023-03-14 16:19:26:778,-0.704756,1.30281,-9.63937,-7.73844,-4.1997,68.2547
2023-03-14 16:19:26:788,-0.710392,1.28399,-9.63476,-7.74033,-4.20713,68.2558
2023-03-14 16:19:26:798,-0.710218,1.28337,-9.64369,-7.74516,-4.21406,68.2566
2023-03-14 16:19:26:808,-0.715483,1.28511,-9.62497,-7.75676,-4.224,68.2582
2023-03-14 16:19:26:818,-0.726659,1.30179,-9.64393,-7.76728,-4.23379,68.2599
2023-03-14 16:19:26:828,-0.726146,1.31238,-9.6741,-7.77806,-4.2402,68.2603
2023-03-14 16:19:26:838,-0.719331,1.31268,-9.67766,-7.7905,-4.24935,68.2603
2023-03-14 16:19:26:848,-0.72813,1.34573,-9.67465,-7.80392,-4.25682,68.2616
2023-03-14 16:19:26:858,-0.742713,1.36819,-9.7035,-7.82117,-4.26323,68.2591
2023-03-14 16:19:26:868,-0.758589,1.38323,-9.70658,-7.83671,-4.26987,68.2604
2023-03-14 16:19:26:878,-0.763316,1.37373,-9.7012,-7.84505,-4.27198,68.2625
2023-03-14 16:19:26:888,-0.761673,1.35974,-9.67535,-7.85109,-4.27401,68.2608
2023-03-14 16:19:26:898,-0.756053,1.34934,-9.66342,-7.85421,-4.27352,68.2596
2023-03-14 16:19:26:908,-0.738219,1.3407,-9.65122,-7.85787,-4.26852,68.254
2023-03-14 16:19:26:918,-0.736328,1.32404,-9.64922,-7.86157,-4.26811,68.2495
2023-03-14 16:19:26:928,-0.727271,1.31192,-9.64162,-7.86228,-4.26767,68.2444
2023-03-14 16:19:26:938,-0.718894,1.31079,-9.66345,-7.86497,-4.26249,68.2388
2023-03-14 16:19:26:948,-0.714147,1.3349,-9.68578,-7.86934,-4.26169,68.2318
2023-03-14 16:19:26:958,-0.706311,1.34558,-9.68393,-7.87272,-4.26273,68.2232
2023-03-14 16:19:26:968,-0.702617,1.34187,-9.68711,-7.87472,-4.25945,68.214
2023-03-14 16:19:26:978,-0.68761,1.34048,-9.65975,-7.87425,-4.25555,68.2063
2023-03-14 16:19:26:988,-0.68491,1.32989,-9.6296,-7.87492,-4.25159,68.1982
2023-03-14 16:19:26:998,-0.677788,1.31066,-9.61813,-7.87788,-4.24875,68.1917
2023-03-14 16:19:27:8,-0.67176,1.31655,-9.62537,-7.88528,-4.24564,68.1825
2023-03-14 16:19:27:18,-0.65799,1.31964,-9.6304,-7.89253,-4.2466,68.1759
2023-03-14 16:19:27:28,-0.646229,1.31337,-9.61166,-7.90332,-4.24262,68.1716
2023-03-14 16:19:27:38,-0.650394,1.32816,-9.60666,-7.91413,-4.24515,68.1672
2023-03-14 16:19:27:48,-0.648375,1.32872,-9.6277,-7.92848,-4.2483,68.1661
2023-03-14 16:19:27:58,-0.655252,1.35205,-9.67945,-7.94332,-4.25093,68.1683
2023-03-14 16:19:27:68,-0.670909,1.36997,-9.70421,-7.95885,-4.2519,68.1734
2023-03-14 16:19:27:78,-0.70483,1.3728,-9.70947,-7.97243,-4.2515,68.1776
2023-03-14 16:19:27:88,-0.71737,1.38265,-9.70038,-7.98581,-4.25041,68.1824
2023-03-14 16:19:27:98,-0.703057,1.37774,-9.67177,-7.9929,-4.24909,68.1846
2023-03-14 16:19:27:108,-0.710682,1.34744,-9.61911,-8.00147,-4.24659,68.1872
2023-03-14 16:19:27:118,-0.705549,1.33137,-9.60245,-8.01242,-4.24699,68.1884
2023-03-14 16:19:27:128,-0.714119,1.34963,-9.62583,-8.02365,-4.24835,68.1882
2023-03-14 16:19:27:138,-0.715168,1.36163,-9.66986,-8.03345,-4.24871,68.1859
2023-03-14 16:19:27:148,-0.700356,1.36769,-9.69626,-8.04856,-4.24837,68.1816
2023-03-14 16:19:27:158,-0.678986,1.37404,-9.72768,-8.06399,-4.25179,68.1758
2023-03-14 16:19:27:168,-0.66415,1.37255,-9.73399,-8.07276,-4.25696,68.1712
2023-03-14 16:19:27:178,-0.649597,1.36006,-9.7125,-8.07973,-4.26686,68.1704
2023-03-14 16:19:27:188,-0.66218,1.34155,-9.66788,-8.08561,-4.2752,68.1696
2023-03-14 16:19:27:198,-0.668483,1.32558,-9.61936,-8.08981,-4.28237,68.1675
2023-03-14 16:19:27:208,-0.689452,1.32906,-9.59165,-8.09889,-4.28969,68.1701
2023-03-14 16:19:27:218,-0.686362,1.36176,-9.62455,-8.10945,-4.29577,68.1753
2023-03-14 16:19:27:228,-0.693771,1.39674,-9.67327,-8.12738,-4.29962,68.1852
2023-03-14 16:19:27:238,-0.711466,1.37447,-9.65933,-8.14428,-4.30507,68.1926
2023-03-14 16:19:27:248,-0.736548,1.35303,-9.59931,-8.15679,-4.30845,68.207
2023-03-14 16:19:27:258,-0.77501,1.36495,-9.56951,-8.17281,-4.3114,68.2196
2023-03-14 16:19:27:268,-0.786416,1.37449,-9.55905,-8.1895,-4.31838,68.2273
2023-03-14 16:19:27:278,-0.784842,1.35936,-9.57709,-8.20824,-4.32206,68.2323
2023-03-14 16:19:27:288,-0.77326,1.37202,-9.58839,-8.2283,-4.3195,68.2327
2023-03-14 16:19:27:298,-0.747716,1.38185,-9.58368,-8.2533,-4.32136,68.2318
2023-03-14 16:19:27:308,-0.713466,1.38919,-9.60079,-8.28193,-4.3229,68.2283
2023-03-14 16:19:27:318,-0.696864,1.39585,-9.59069,-8.31685,-4.32376,68.2251
2023-03-14 16:19:27:328,-0.682193,1.37758,-9.6017,-8.35261,-4.32465,68.2198
2023-03-14 16:19:27:338,-0.668613,1.39182,-9.63609,-8.39374,-4.32707,68.2175
2023-03-14 16:19:27:348,-0.664931,1.39132,-9.64984,-8.43794,-4.33018,68.215
2023-03-14 16:19:27:358,-0.662739,1.41452,-9.78105,-8.48486,-4.32971,68.2152
2023-03-14 16:19:27:368,-0.685877,1.61625,-9.98334,-8.54372,-4.33982,68.2181
2023-03-14 16:19:27:378,-0.737494,1.70015,-9.96399,-8.58423,-4.3513,68.2177
2023-03-14 16:19:27:388,-0.70578,1.53112,-9.74166,-8.58978,-4.3529,68.2166
2023-03-14 16:19:27:398,-0.652411,1.40081,-9.59508,-8.58242,-4.34553,68.2137
2023-03-14 16:19:27:408,-0.626326,1.35762,-9.58352,-8.57895,-4.33512,68.2099
2023-03-14 16:19:27:418,-0.621876,1.37205,-9.63404,-8.58592,-4.33379,68.2117
2023-03-14 16:19:27:428,-0.636614,1.35764,-9.69347,-8.59806,-4.33361,68.2187
2023-03-14 16:19:27:438,-0.628973,1.34303,-9.73836,-8.60425,-4.33438,68.2272
2023-03-14 16:19:27:448,-0.631516,1.32128,-9.73092,-8.60919,-4.33597,68.2348
2023-03-14 16:19:27:458,-0.629451,1.28576,-9.70957,-8.60819,-4.34294,68.2444
2023-03-14 16:19:27:468,-0.612149,1.28378,-9.68727,-8.60608,-4.34871,68.2577
2023-03-14 16:19:27:478,-0.644739,1.26716,-9.61624,-8.60394,-4.35674,68.2769
2023-03-14 16:19:27:488,-0.687346,1.2188,-9.52303,-8.59949,-4.36663,68.2942
2023-03-14 16:19:27:498,-0.6808,1.23772,-9.51394,-8.6032,-4.37748,68.3133
2023-03-14 16:19:27:508,-0.686349,1.28691,-9.54886,-8.61436,-4.38928,68.333
2023-03-14 16:19:27:518,-0.691382,1.30363,-9.56293,-8.62723,-4.40288,68.3558
2023-03-14 16:19:27:528,-0.722192,1.31619,-9.58548,-8.64472,-4.4213,68.3817
2023-03-14 16:19:27:538,-0.767636,1.37366,-9.63618,-8.67179,-4.44556,68.4092
2023-03-14 16:19:27:548,-0.814867,1.42169,-9.66361,-8.70291,-4.47622,68.4439
2023-03-14 16:19:27:558,-0.876945,1.43186,-9.61943,-8.72625,-4.50523,68.4769
2023-03-14 16:19:27:568,-0.957119,1.41985,-9.56188,-8.7451,-4.53508,68.5106
2023-03-14 16:19:27:578,-0.99807,1.4279,-9.52392,-8.76815,-4.56491,68.5424
2023-03-14 16:19:27:588,-1.0139,1.42177,-9.52762,-8.79604,-4.58918,68.5717
2023-03-14 16:19:27:598,-1.02112,1.41024,-9.54656,-8.82435,-4.6098,68.5914
2023-03-14 16:19:27:608,-1.01453,1.41313,-9.56619,-8.85706,-4.62648,68.6092
2023-03-14 16:19:27:618,-1.02768,1.41819,-9.53371,-8.89547,-4.64328,68.6238
2023-03-14 16:19:27:628,-1.04612,1.41341,-9.49762,-8.93907,-4.65985,68.6322
2023-03-14 16:19:27:638,-1.0371,1.41312,-9.46298,-8.98801,-4.67587,68.6309
2023-03-14 16:19:27:648,-1.01698,1.42881,-9.42576,-9.04412,-4.6851,68.6305
2023-03-14 16:19:27:658,-0.968418,1.43317,-9.42427,-9.10466,-4.69427,68.6227
2023-03-14 16:19:27:668,-0.938438,1.48913,-9.47843,-9.17603,-4.69687,68.61
2023-03-14 16:19:27:678,-0.934612,1.54723,-9.5436,-9.25499,-4.69587,68.5948
2023-03-14 16:19:27:688,-0.925624,1.58989,-9.56428,-9.33455,-4.69673,68.5808
2023-03-14 16:19:27:698,-0.907154,1.60213,-9.5582,-9.41271,-4.69837,68.5625
2023-03-14 16:19:27:708,-0.902258,1.6128,-9.56659,-9.49212,-4.69626,68.5433
2023-03-14 16:19:27:718,-0.896962,1.65433,-9.58803,-9.5726,-4.6935,68.522
2023-03-14 16:19:27:728,-0.878376,1.7025,-9.61144,-9.65266,-4.69116,68.5014
2023-03-14 16:19:27:738,-0.854281,1.75079,-9.64042,-9.73372,-4.68639,68.4758
2023-03-14 16:19:27:748,-0.837177,1.78279,-9.6496,-9.81276,-4.67527,68.4492
2023-03-14 16:19:27:758,-0.82587,1.77366,-9.61802,-9.88482,-4.66426,68.4194
2023-03-14 16:19:27:768,-0.794389,1.78815,-9.60179,-9.95798,-4.65153,68.3908
2023-03-14 16:19:27:778,-0.763112,1.82236,-9.61835,-10.0335,-4.63718,68.3601
2023-03-14 16:19:27:788,-0.72841,1.8587,-9.63651,-10.1103,-4.62113,68.3311
2023-03-14 16:19:27:798,-0.6933,1.86837,-9.62305,-10.1798,-4.60617,68.2978
2023-03-14 16:19:27:808,-0.654969,1.8585,-9.62526,-10.2466,-4.59249,68.2682
2023-03-14 16:19:27:818,-0.624342,1.8789,-9.66383,-10.3122,-4.57767,68.2413
2023-03-14 16:19:27:828,-0.590199,1.90854,-9.71003,-10.3754,-4.56477,68.2192
2023-03-14 16:19:27:838,-0.563926,1.91918,-9.70541,-10.4351,-4.55361,68.201
2023-03-14 16:19:27:848,-0.557634,1.90625,-9.62579,-10.483,-4.54327,68.1871
2023-03-14 16:19:27:858,-0.589114,1.85032,-9.55757,-10.5259,-4.53376,68.1847
2023-03-14 16:19:27:868,-0.627544,1.84257,-9.56209,-10.5694,-4.5252,68.1873
2023-03-14 16:19:27:878,-0.67456,1.88959,-9.62659,-10.622,-4.51858,68.1994
2023-03-14 16:19:27:888,-0.716087,1.92987,-9.66159,-10.6773,-4.51278,68.2108
2023-03-14 16:19:27:898,-0.767843,1.94828,-9.66292,-10.7273,-4.50867,68.2268
2023-03-14 16:19:27:908,-0.824244,1.94743,-9.64432,-10.7733,-4.50678,68.2392
2023-03-14 16:19:27:918,-0.830343,1.93922,-9.64883,-10.8154,-4.5007,68.2471
2023-03-14 16:19:27:928,-0.82508,1.91902,-9.60643,-10.849,-4.49822,68.2509
2023-03-14 16:19:27:938,-0.837632,1.89136,-9.57565,-10.8785,-4.48965,68.2464
2023-03-14 16:19:27:948,-0.789004,1.85028,-9.57164,-10.9099,-4.48167,68.238
2023-03-14 16:19:27:958,-0.748725,1.86819,-9.5698,-10.9444,-4.47293,68.2208
2023-03-14 16:19:27:968,-0.747376,1.89792,-9.61249,-10.975,-4.4657,68.2023
2023-03-14 16:19:27:978,-0.724945,1.88359,-9.58116,-11.0022,-4.46176,68.1821
2023-03-14 16:19:27:988,-0.672646,1.81583,-9.4938,-11.0245,-4.45886,68.1571
2023-03-14 16:19:27:998,-0.676715,1.80336,-9.45652,-11.0525,-4.45227,68.1291
2023-03-14 16:19:28:8,-0.687874,1.85232,-9.5111,-11.0861,-4.44933,68.1056
2023-03-14 16:19:28:18,-0.657741,1.88658,-9.52952,-11.1253,-4.44408,68.0841
2023-03-14 16:19:28:28,-0.64806,1.87332,-9.49312,-11.1669,-4.43723,68.0625
2023-03-14 16:19:28:38,-0.641269,1.88354,-9.46825,-11.2101,-4.43314,68.0418
2023-03-14 16:19:28:48,-0.639237,1.91024,-9.51945,-11.2607,-4.42583,68.0205
2023-03-14 16:19:28:58,-0.656838,1.93798,-9.54903,-11.3096,-4.4154,68.0021
2023-03-14 16:19:28:68,-0.65445,1.93321,-9.52306,-11.3536,-4.40545,67.9811
2023-03-14 16:19:28:78,-0.648144,1.91092,-9.47253,-11.3964,-4.40017,67.9635
2023-03-14 16:19:28:88,-0.637472,1.89124,-9.41565,-11.4422,-4.39014,67.9474
2023-03-14 16:19:28:98,-0.645513,1.89842,-9.41999,-11.4975,-4.38513,67.9314
2023-03-14 16:19:28:108,-0.656543,1.91823,-9.44854,-11.5611,-4.37906,67.916
2023-03-14 16:19:28:118,-0.652737,1.93657,-9.46264,-11.6278,-4.37595,67.8983
2023-03-14 16:19:28:128,-0.638705,1.94338,-9.47385,-11.6978,-4.37201,67.8792
2023-03-14 16:19:28:138,-0.614062,1.96125,-9.48621,-11.7765,-4.37157,67.8622
2023-03-14 16:19:28:148,-0.576177,1.99337,-9.50332,-11.859,-4.36952,67.8453
2023-03-14 16:19:28:158,-0.547303,2.04446,-9.50291,-11.944,-4.36514,67.8299
2023-03-14 16:19:28:168,-0.544799,2.09215,-9.48336,-12.033,-4.36424,67.8174
2023-03-14 16:19:28:178,-0.539869,2.10597,-9.47919,-12.1261,-4.36697,67.8084
2023-03-14 16:19:28:188,-0.536748,2.13568,-9.55533,-12.2217,-4.37087,67.8007
2023-03-14 16:19:28:198,-0.579368,2.25835,-9.6141,-12.3216,-4.376,67.798
2023-03-14 16:19:28:208,-0.569027,2.28551,-9.59592,-12.4183,-4.38282,67.7969
2023-03-14 16:19:28:218,-0.536468,2.21479,-9.54754,-12.5013,-4.39254,67.7925
2023-03-14 16:19:28:228,-0.54903,2.18054,-9.60088,-12.5835,-4.40562,67.7943
2023-03-14 16:19:28:238,-0.58492,2.26046,-9.77686,-12.6724,-4.42248,67.8024
2023-03-14 16:19:28:248,-0.651452,2.38238,-9.97132,-12.7575,-4.44508,67.8153
2023-03-14 16:19:28:258,-0.703597,2.53872,-10.0291,-12.8277,-4.46949,67.8283
2023-03-14 16:19:28:268,-0.722717,2.48251,-9.85405,-12.8646,-4.49465,67.8351
2023-03-14 16:19:28:278,-0.749742,2.30981,-9.60666,-12.869,-4.51659,67.8432
2023-03-14 16:19:28:288,-0.732148,2.22167,-9.48661,-12.8664,-4.53623,67.8512
2023-03-14 16:19:28:298,-0.694256,2.23974,-9.54674,-12.8735,-4.55495,67.8595
2023-03-14 16:19:28:308,-0.717215,2.32839,-9.65246,-12.8869,-4.57379,67.8691
2023-03-14 16:19:28:318,-0.739315,2.3788,-9.6942,-12.897,-4.59404,67.8758
2023-03-14 16:19:28:328,-0.726843,2.31591,-9.62649,-12.8909,-4.621,67.8832
2023-03-14 16:19:28:338,-0.717687,2.27318,-9.55438,-12.876,-4.64379,67.8863
2023-03-14 16:19:28:348,-0.756981,2.21493,-9.43543,-12.8571,-4.67111,67.8935
2023-03-14 16:19:28:358,-0.782307,2.14179,-9.35381,-12.8373,-4.70294,67.8987
2023-03-14 16:19:28:368,-0.760084,2.11205,-9.35364,-12.8254,-4.73645,67.9056
2023-03-14 16:19:28:378,-0.769051,2.09773,-9.34958,-12.8169,-4.76472,67.9114
2023-03-14 16:19:28:388,-0.777664,2.02689,-9.32471,-12.8144,-4.79161,67.921
2023-03-14 16:19:28:398,-0.771186,2.02764,-9.39433,-12.8254,-4.82441,67.931
2023-03-14 16:19:28:408,-0.734625,2.08798,-9.51262,-12.8493,-4.86146,67.9398
2023-03-14 16:19:28:418,-0.712024,2.11414,-9.52272,-12.8714,-4.897,67.9534
2023-03-14 16:19:28:428,-0.699273,2.03203,-9.41141,-12.8848,-4.93457,67.9702
2023-03-14 16:19:28:438,-0.711413,1.95906,-9.31938,-12.9031,-4.97125,67.9931
2023-03-14 16:19:28:448,-0.753913,2.01448,-9.37521,-12.9319,-5.00949,68.0273
2023-03-14 16:19:28:458,-0.786048,2.11602,-9.50272,-12.9748,-5.04891,68.0656
2023-03-14 16:19:28:468,-0.731077,2.17572,-9.61227,-13.0177,-5.08398,68.1065
2023-03-14 16:19:28:478,-0.719435,2.21353,-9.64805,-13.0558,-5.11615,68.1516
2023-03-14 16:19:28:488,-0.791846,2.21916,-9.58109,-13.0844,-5.1521,68.2051
2023-03-14 16:19:28:498,-0.849931,2.19437,-9.49498,-13.1125,-5.18462,68.2654
2023-03-14 16:19:28:508,-0.831528,2.19705,-9.46126,-13.1413,-5.21238,68.3269
2023-03-14 16:19:28:518,-0.829791,2.15896,-9.43293,-13.1679,-5.23868,68.3912
2023-03-14 16:19:28:528,-0.947547,2.15028,-9.37542,-13.1981,-5.26726,68.4612
2023-03-14 16:19:28:538,-1.02315,2.11429,-9.35116,-13.2322,-5.29669,68.5287
2023-03-14 16:19:28:548,-0.981186,2.09175,-9.40601,-13.2675,-5.32767,68.5944
2023-03-14 16:19:28:558,-0.970655,2.1336,-9.46899,-13.3076,-5.35609,68.6557
2023-03-14 16:19:28:568,-1.03275,2.18492,-9.35936,-13.3497,-5.38546,68.7149
2023-03-14 16:19:28:578,-1.02414,2.04524,-9.10545,-13.3786,-5.41141,68.7615
2023-03-14 16:19:28:588,-0.955664,1.90893,-8.97693,-13.4231,-5.43455,68.8042
2023-03-14 16:19:28:598,-0.932905,1.99043,-9.14833,-13.5033,-5.46008,68.8504
2023-03-14 16:19:28:608,-0.953489,2.17593,-9.42873,-13.615,-5.4917,68.894
2023-03-14 16:19:28:618,-1.03285,2.30084,-9.51609,-13.7283,-5.53125,68.9326
2023-03-14 16:19:28:628,-1.05298,2.23052,-9.37131,-13.8283,-5.57177,68.9683
2023-03-14 16:19:28:638,-0.975311,2.17781,-9.27714,-13.9293,-5.60445,69.0015
2023-03-14 16:19:28:648,-0.934364,2.23511,-9.30367,-14.0381,-5.62997,69.0339
2023-03-14 16:19:28:658,-0.981067,2.27206,-9.31221,-14.1496,-5.65995,69.0669
2023-03-14 16:19:28:668,-0.995101,2.27703,-9.28093,-14.267,-5.68852,69.0989
2023-03-14 16:19:28:678,-0.975579,2.31912,-9.27062,-14.397,-5.71782,69.1305
2023-03-14 16:19:28:688,-0.979529,2.35684,-9.32734,-14.5347,-5.74691,69.1637
2023-03-14 16:19:28:698,-0.990001,2.40581,-9.45287,-14.6757,-5.77563,69.1955
2023-03-14 16:19:28:708,-1.02907,2.54595,-9.61572,-14.8215,-5.80356,69.2278
2023-03-14 16:19:28:718,-1.0866,2.62245,-9.66298,-14.9586,-5.83282,69.2591
2023-03-14 16:19:28:728,-1.13855,2.61285,-9.55308,-15.0737,-5.85743,69.2869
2023-03-14 16:19:28:738,-1.12958,2.51664,-9.39857,-15.1755,-5.87215,69.3121
2023-03-14 16:19:28:748,-1.10664,2.4586,-9.37985,-15.2737,-5.8807,69.3364
2023-03-14 16:19:28:758,-1.14061,2.52895,-9.45541,-15.3784,-5.88424,69.3577
2023-03-14 16:19:28:768,-1.15386,2.58077,-9.41981,-15.4804,-5.88484,69.3757
2023-03-14 16:19:28:778,-1.10767,2.46254,-9.27492,-15.5718,-5.88016,69.3864
2023-03-14 16:19:28:788,-1.07438,2.4027,-9.20736,-15.6688,-5.87718,69.3938
2023-03-14 16:19:28:798,-1.09156,2.4691,-9.26692,-15.7838,-5.87727,69.3967
2023-03-14 16:19:28:808,-1.13584,2.55407,-9.25552,-15.9107,-5.88209,69.3982
2023-03-14 16:19:28:818,-1.16191,2.52893,-9.1252,-16.0336,-5.88718,69.3971
2023-03-14 16:19:28:828,-1.18886,2.58396,-9.07893,-16.1697,-5.88787,69.3907
2023-03-14 16:19:28:838,-1.17264,2.71393,-9.1902,-16.3215,-5.8877,69.3775
2023-03-14 16:19:28:848,-1.16229,2.86685,-9.38278,-16.4816,-5.88352,69.3559
2023-03-14 16:19:28:858,-1.13297,2.97842,-9.51229,-16.6377,-5.88001,69.3288
2023-03-14 16:19:28:868,-1.12294,3.01133,-9.49827,-16.7763,-5.87777,69.2967
2023-03-14 16:19:28:878,-1.07953,2.96304,-9.38932,-16.892,-5.87411,69.2554
2023-03-14 16:19:28:888,-1.01451,2.9338,-9.29838,-16.9989,-5.86376,69.2123
2023-03-14 16:19:28:898,-0.992108,2.93642,-9.3018,-17.1065,-5.84654,69.167
2023-03-14 16:19:28:908,-0.974552,2.9808,-9.35958,-17.2141,-5.82614,69.1215
2023-03-14 16:19:28:918,-0.923034,3.03803,-9.44725,-17.3217,-5.80889,69.0768
2023-03-14 16:19:28:928,-0.887337,3.09567,-9.51089,-17.4273,-5.79678,69.0332
2023-03-14 16:19:28:938,-0.888201,3.1441,-9.51039,-17.5236,-5.78608,68.9915
2023-03-14 16:19:28:948,-0.896685,3.15617,-9.46175,-17.6085,-5.77479,68.9536
2023-03-14 16:19:28:958,-0.867789,3.16969,-9.45823,-17.6862,-5.76743,68.9185
2023-03-14 16:19:28:968,-0.831162,3.18917,-9.4699,-17.756,-5.75962,68.8846
2023-03-14 16:19:28:978,-0.811084,3.19399,-9.48093,-17.8211,-5.75294,68.8526
2023-03-14 16:19:28:988,-0.828267,3.24842,-9.55172,-17.8793,-5.75114,68.8271
2023-03-14 16:19:28:998,-0.866628,3.3055,-9.61239,-17.923,-5.75531,68.8072
2023-03-14 16:19:29:8,-0.912761,3.34699,-9.60481,-17.9502,-5.7563,68.7929
2023-03-14 16:19:29:18,-0.925808,3.29644,-9.48617,-17.9578,-5.76039,68.7832
2023-03-14 16:19:29:28,-0.888901,3.20009,-9.37189,-17.9438,-5.75943,68.7716
2023-03-14 16:19:29:38,-0.874632,3.11894,-9.27132,-17.9224,-5.75919,68.7639
2023-03-14 16:19:29:48,-0.895554,3.02679,-9.08852,-17.9002,-5.76346,68.7582
2023-03-14 16:19:29:58,-0.884774,2.84544,-8.92426,-17.8726,-5.76629,68.7552
2023-03-14 16:19:29:68,-0.882718,2.87301,-8.98683,-17.8719,-5.76569,68.7583
2023-03-14 16:19:29:78,-0.895691,2.9727,-9.15699,-17.892,-5.76843,68.7661
2023-03-14 16:19:29:88,-0.913746,3.04102,-9.24747,-17.9164,-5.77133,68.7764
2023-03-14 16:19:29:98,-0.885169,3.00801,-9.18438,-17.9343,-5.77405,68.7873
2023-03-14 16:19:29:108,-0.864137,2.98697,-9.08726,-17.9546,-5.77932,68.8014
2023-03-14 16:19:29:118,-0.879521,2.99834,-9.04706,-17.9813,-5.78055,68.8191
2023-03-14 16:19:29:128,-0.928679,3.03674,-9.10502,-18.02,-5.78487,68.8389
2023-03-14 16:19:29:138,-0.982758,3.10384,-9.22751,-18.0668,-5.79759,68.8613
2023-03-14 16:19:29:148,-1.02819,3.14951,-9.36255,-18.1094,-5.81316,68.8822
2023-03-14 16:19:29:158,-1.03931,3.19259,-9.48212,-18.1495,-5.83277,68.9038
2023-03-14 16:19:29:168,-1.04613,3.24349,-9.53457,-18.1776,-5.85219,68.921
2023-03-14 16:19:29:178,-1.04278,3.22921,-9.45337,-18.1826,-5.86958,68.934
2023-03-14 16:19:29:188,-1.0275,3.15549,-9.27388,-18.1705,-5.88673,68.9445
2023-03-14 16:19:29:198,-0.986508,3.04196,-9.12189,-18.1541,-5.90676,68.9563
2023-03-14 16:19:29:208,-0.95717,3.01412,-9.13699,-18.1481,-5.91911,68.9671
2023-03-14 16:19:29:218,-0.988303,3.10825,-9.27811,-18.1524,-5.92967,68.9831
2023-03-14 16:19:29:228,-0.995066,3.1996,-9.3875,-18.1596,-5.94309,68.9965
2023-03-14 16:19:29:238,-0.998496,3.19406,-9.38824,-18.1535,-5.95078,69.011
2023-03-14 16:19:29:248,-0.993628,3.16459,-9.34197,-18.1394,-5.96082,69.0269
2023-03-14 16:19:29:258,-0.981507,3.1337,-9.29503,-18.1198,-5.96779,69.0475
2023-03-14 16:19:29:268,-0.975804,3.11484,-9.25693,-18.0968,-5.97347,69.0736
2023-03-14 16:19:29:278,-0.991612,3.08937,-9.25185,-18.0707,-5.97954,69.0989
2023-03-14 16:19:29:288,-1.00855,3.08617,-9.27203,-18.0463,-5.9825,69.129
2023-03-14 16:19:29:298,-1.04581,3.09975,-9.30685,-18.0228,-5.98853,69.157
2023-03-14 16:19:29:308,-1.04331,3.11958,-9.35494,-17.992,-5.98985,69.1822
2023-03-14 16:19:29:318,-1.05498,3.13932,-9.39395,-17.9598,-5.99263,69.2091
2023-03-14 16:19:29:328,-1.07572,3.15672,-9.44357,-17.9228,-5.99508,69.2322
2023-03-14 16:19:29:338,-1.09493,3.17825,-9.46799,-17.879,-6.00305,69.2579
2023-03-14 16:19:29:348,-1.09803,3.16297,-9.44224,-17.8196,-6.01352,69.2811
2023-03-14 16:19:29:358,-1.07111,3.09699,-9.39251,-17.7515,-6.01774,69.2986
2023-03-14 16:19:29:368,-1.0694,3.05234,-9.35043,-17.6704,-6.02279,69.3087
2023-03-14 16:19:29:378,-1.07181,3.01526,-9.30428,-17.5864,-6.02522,69.3207
2023-03-14 16:19:29:388,-1.07132,2.96663,-9.25771,-17.4946,-6.02688,69.3322
2023-03-14 16:19:29:398,-1.07195,2.90212,-9.22272,-17.4056,-6.02984,69.3372
2023-03-14 16:19:29:408,-1.07816,2.87397,-9.22486,-17.3165,-6.03186,69.3409
2023-03-14 16:19:29:418,-1.08309,2.86645,-9.22185,-17.2371,-6.03735,69.3436
2023-03-14 16:19:29:428,-1.06061,2.87229,-9.24549,-17.1606,-6.04243,69.3427
2023-03-14 16:19:29:438,-1.01741,2.85466,-9.2366,-17.0858,-6.04687,69.3379
2023-03-14 16:19:29:448,-1.00289,2.79915,-9.20109,-17.0087,-6.04936,69.3341
2023-03-14 16:19:29:458,-0.993855,2.7432,-9.16836,-16.9347,-6.05319,69.3301
2023-03-14 16:19:29:468,-0.987105,2.72747,-9.17249,-16.867,-6.05907,69.3278
2023-03-14 16:19:29:478,-0.980594,2.75302,-9.21659,-16.8066,-6.06681,69.3321
2023-03-14 16:19:29:488,-0.981303,2.75318,-9.22567,-16.7484,-6.07306,69.3355
2023-03-14 16:19:29:498,-1.00323,2.70731,-9.20598,-16.6942,-6.07591,69.3401
2023-03-14 16:19:29:508,-1.02172,2.68925,-9.19831,-16.647,-6.08149,69.3472
2023-03-14 16:19:29:518,-1.02741,2.72974,-9.23806,-16.6063,-6.0868,69.3572
2023-03-14 16:19:29:528,-1.03077,2.73806,-9.27077,-16.5723,-6.08832,69.3686
2023-03-14 16:19:29:538,-1.06119,2.71496,-9.25038,-16.5372,-6.0898,69.381
2023-03-14 16:19:29:548,-1.06963,2.69464,-9.2234,-16.5047,-6.08804,69.3915
2023-03-14 16:19:29:558,-1.0701,2.69039,-9.21315,-16.475,-6.08331,69.4029
2023-03-14 16:19:29:568,-1.08519,2.67953,-9.2075,-16.4515,-6.07821,69.4136
2023-03-14 16:19:29:578,-1.08915,2.66661,-9.17753,-16.4311,-6.0738,69.4217
2023-03-14 16:19:29:588,-1.07191,2.64647,-9.191,-16.4161,-6.07075,69.4267
2023-03-14 16:19:29:598,-1.04938,2.66656,-9.24855,-16.4112,-6.06487,69.4305
2023-03-14 16:19:29:608,-1.02075,2.7042,-9.33775,-16.4146,-6.05954,69.4289
2023-03-14 16:19:29:618,-1.00107,2.74166,-9.41914,-16.4195,-6.05302,69.4241
