Timestamp,Acceleration_x,Acceleration_y,Acceleration_z,roll,pitch,yaw
2023-03-11 22:13:05:261,-0.41218,-1.02559,-9.67509,6.01789,-2.49944,-54.254
2023-03-11 22:13:05:272,-0.435268,-1.04038,-9.68857,6.00724,-2.51137,-54.2453
2023-03-11 22:13:05:282,-0.46211,-1.0432,-9.68836,5.99144,-2.52412,-54.2348
2023-03-11 22:13:05:291,-0.493073,-1.03257,-9.71178,5.97262,-2.53145,-54.2246
2023-03-11 22:13:05:302,-0.50639,-1.00867,-9.71972,5.95418,-2.54406,-54.2162
2023-03-11 22:13:05:312,-0.524287,-1.00346,-9.68815,5.93306,-2.55356,-54.2079
2023-03-11 22:13:05:322,-0.506658,-1.01005,-9.68164,5.91306,-2.56709,-54.2039
2023-03-11 22:13:05:332,-0.472568,-0.987147,-9.70703,5.8834,-2.58493,-54.197
2023-03-11 22:13:05:342,-0.467905,-0.956738,-9.73556,5.84664,-2.60348,-54.1894
2023-03-11 22:13:05:352,-0.511259,-0.888217,-9.77741,5.81069,-2.62841,-54.1776
2023-03-11 22:13:05:362,-0.609665,-0.807349,-9.86809,5.77333,-2.65186,-54.1625
2023-03-11 22:13:05:372,-0.702943,-0.714645,-9.97307,5.74017,-2.67366,-54.153
2023-03-11 22:13:05:382,-0.758325,-0.676264,-10.0138,5.71852,-2.6922,-54.1462
2023-03-11 22:13:05:392,-0.784205,-0.680567,-9.99302,5.7117,-2.70361,-54.1482
2023-03-11 22:13:05:402,-0.784107,-0.727313,-9.94228,5.71961,-2.70202,-54.1571
2023-03-11 22:13:05:412,-0.759146,-0.787032,-9.90126,5.74324,-2.68988,-54.1774
2023-03-11 22:13:05:422,-0.687096,-0.852921,-9.9038,5.78081,-2.67149,-54.2025
2023-03-11 22:13:05:432,-0.477967,-0.945417,-9.89252,5.82392,-2.64778,-54.2388
2023-03-11 22:13:05:442,-0.269251,-1.05814,-9.82223,5.87361,-2.62511,-54.274
2023-03-11 22:13:05:452,-0.255926,-1.10133,-9.6755,5.92695,-2.60826,-54.2935
2023-03-11 22:13:05:462,-0.323755,-1.10263,-9.54908,5.98117,-2.60514,-54.309
2023-03-11 22:13:05:472,-0.395024,-1.10378,-9.49712,6.02569,-2.59602,-54.3207
2023-03-11 22:13:05:482,-0.350734,-1.11662,-9.52179,6.06535,-2.57791,-54.3357
2023-03-11 22:13:05:492,-0.215109,-1.12583,-9.57063,6.0989,-2.55441,-54.3483
2023-03-11 22:13:05:502,-0.0850138,-1.13527,-9.62705,6.12386,-2.52473,-54.3534
2023-03-11 22:13:05:512,-0.0149503,-1.15398,-9.70672,6.14839,-2.49547,-54.3462
2023-03-11 22:13:05:522,-0.0394622,-1.14964,-9.75607,6.16855,-2.47557,-54.3284
2023-03-11 22:13:05:532,-0.0640608,-1.15334,-9.75662,6.18736,-2.46729,-54.3114
2023-03-11 22:13:05:542,-0.0521127,-1.14522,-9.74363,6.20335,-2.46865,-54.2908
2023-03-11 22:13:05:552,-0.0923583,-1.13655,-9.73002,6.21439,-2.48283,-54.2604
2023-03-11 22:13:05:562,-0.155481,-1.08685,-9.67541,6.2207,-2.50816,-54.2352
2023-03-11 22:13:05:572,-0.232637,-1.04605,-9.57832,6.2244,-2.54239,-54.2072
2023-03-11 22:13:05:582,-0.227835,-1.02581,-9.54243,6.22289,-2.57807,-54.1812
2023-03-11 22:13:05:592,-0.232856,-0.977948,-9.5836,6.21169,-2.61921,-54.146
2023-03-11 22:13:05:601,-0.324177,-0.900849,-9.63295,6.20079,-2.66448,-54.1071
2023-03-11 22:13:05:611,-0.439021,-0.863007,-9.68843,6.1871,-2.71583,-54.0676
2023-03-11 22:13:05:621,-0.50404,-0.873239,-9.71205,6.1808,-2.76531,-54.0317
2023-03-11 22:13:05:631,-0.534462,-0.905535,-9.68794,6.17759,-2.81496,-53.9911
2023-03-11 22:13:05:641,-0.575424,-0.961858,-9.62937,6.17336,-2.86375,-53.9502
2023-03-11 22:13:05:651,-0.621365,-1.02271,-9.59556,6.17431,-2.90529,-53.9076
2023-03-11 22:13:05:661,-0.632887,-1.04412,-9.59508,6.17242,-2.94398,-53.8719
2023-03-11 22:13:05:671,-0.616463,-1.04483,-9.61555,6.16265,-2.97907,-53.833
2023-03-11 22:13:05:682,-0.65156,-1.04738,-9.64316,6.14757,-3.00984,-53.7925
2023-03-11 22:13:05:692,-0.720317,-1.02958,-9.64895,6.13084,-3.03869,-53.7559
2023-03-11 22:13:05:702,-0.772117,-1.02244,-9.66606,6.10919,-3.06879,-53.7264
2023-03-11 22:13:05:712,-0.785538,-1.00472,-9.72687,6.08179,-3.08677,-53.7017
2023-03-11 22:13:05:722,-0.709918,-0.988222,-9.77522,6.05295,-3.09786,-53.6884
2023-03-11 22:13:05:732,-0.647761,-0.99491,-9.78232,6.02529,-3.10443,-53.6753
2023-03-11 22:13:05:742,-0.650808,-1.01007,-9.76211,6.00171,-3.1072,-53.6678
2023-03-11 22:13:05:752,-0.622761,-1.00813,-9.74132,5.97638,-3.11184,-53.6651
2023-03-11 22:13:05:762,-0.584609,-0.988572,-9.76454,5.94991,-3.11637,-53.6593
2023-03-11 22:13:05:772,-0.546737,-0.965175,-9.79961,5.92289,-3.1171,-53.6571
2023-03-11 22:13:05:782,-0.557393,-0.946927,-9.82345,5.89635,-3.12057,-53.652
2023-03-11 22:13:05:792,-0.587281,-0.925061,-9.85515,5.87923,-3.12233,-53.6499
2023-03-11 22:13:05:802,-0.586204,-0.914857,-9.8423,5.86679,-3.12335,-53.6501
2023-03-11 22:13:05:812,-0.555442,-0.938735,-9.7805,5.86056,-3.11649,-53.6514
2023-03-11 22:13:05:822,-0.518568,-0.982289,-9.7129,5.85683,-3.10743,-53.6479
2023-03-11 22:13:05:832,-0.455786,-1.0239,-9.67594,5.85771,-3.09001,-53.6416
2023-03-11 22:13:05:842,-0.408427,-1.0364,-9.68789,5.85678,-3.07352,-53.6297
2023-03-11 22:13:05:852,-0.416717,-1.02257,-9.74371,5.8567,-3.0623,-53.6105
2023-03-11 22:13:05:862,-0.458155,-0.984547,-9.7907,5.85521,-3.04892,-53.585
2023-03-11 22:13:05:872,-0.500023,-0.983574,-9.80698,5.85645,-3.04025,-53.5593
2023-03-11 22:13:05:882,-0.533045,-0.984591,-9.79203,5.85768,-3.02984,-53.535
2023-03-11 22:13:05:892,-0.510416,-1.00898,-9.75367,5.86368,-3.01247,-53.5154
2023-03-11 22:13:05:902,-0.470101,-1.03305,-9.71689,5.87187,-2.99446,-53.4976
2023-03-11 22:13:05:912,-0.450116,-1.04662,-9.67905,5.87696,-2.97783,-53.4827
2023-03-11 22:13:05:922,-0.413319,-1.05469,-9.6367,5.87795,-2.96478,-53.464
2023-03-11 22:13:05:932,-0.3915,-1.04868,-9.61748,5.8815,-2.95622,-53.4465
2023-03-11 22:13:05:942,-0.388761,-1.02988,-9.64438,5.87826,-2.94973,-53.4258
2023-03-11 22:13:05:952,-0.38445,-1.01872,-9.68312,5.87246,-2.94119,-53.4005
2023-03-11 22:13:05:962,-0.407816,-1.0137,-9.71771,5.86403,-2.93561,-53.3788
2023-03-11 22:13:05:972,-0.42734,-1.00386,-9.73963,5.85722,-2.93207,-53.359
2023-03-11 22:13:05:982,-0.437604,-1.00585,-9.73611,5.85033,-2.933,-53.3315
2023-03-11 22:13:05:992,-0.464285,-0.999137,-9.71752,5.84428,-2.93426,-53.3048
2023-03-11 22:13:06:2,-0.492517,-1.0043,-9.68913,5.84038,-2.9413,-53.2761
2023-03-11 22:13:06:12,-0.511086,-1.0268,-9.67373,5.83315,-2.94959,-53.2536
2023-03-11 22:13:06:22,-0.529425,-1.02351,-9.672,5.8223,-2.95805,-53.2292
2023-03-11 22:13:06:32,-0.54317,-0.993665,-9.68946,5.80553,-2.9683,-53.2036
2023-03-11 22:13:06:42,-0.572207,-0.947953,-9.72761,5.78759,-2.98289,-53.183
2023-03-11 22:13:06:52,-0.602588,-0.923031,-9.75842,5.7724,-2.9981,-53.1627
2023-03-11 22:13:06:62,-0.651312,-0.903199,-9.77213,5.75889,-3.01249,-53.1521
2023-03-11 22:13:06:72,-0.655489,-0.895169,-9.77578,5.75092,-3.02555,-53.1441
2023-03-11 22:13:06:82,-0.634508,-0.915094,-9.76164,5.74622,-3.03462,-53.1426
2023-03-11 22:13:06:92,-0.632826,-0.960578,-9.72401,5.74591,-3.04516,-53.1437
2023-03-11 22:13:06:102,-0.652912,-0.976768,-9.69166,5.74829,-3.05678,-53.1432
2023-03-11 22:13:06:112,-0.636172,-0.975945,-9.69972,5.7471,-3.07079,-53.1471
2023-03-11 22:13:06:122,-0.646642,-0.963236,-9.73514,5.74509,-3.08799,-53.1544
2023-03-11 22:13:06:132,-0.659111,-0.947112,-9.73298,5.74384,-3.10101,-53.1633
2023-03-11 22:13:06:142,-0.646598,-0.957287,-9.70214,5.74036,-3.11131,-53.1781
2023-03-11 22:13:06:152,-0.603618,-0.978211,-9.69396,5.74402,-3.115,-53.1948
2023-03-11 22:13:06:162,-0.547875,-1.00521,-9.7048,5.74598,-3.11436,-53.2107
2023-03-11 22:13:06:172,-0.539918,-1.01651,-9.7256,5.7488,-3.11275,-53.2261
2023-03-11 22:13:06:182,-0.481747,-0.999933,-9.75259,5.74789,-3.11554,-53.2399
2023-03-11 22:13:06:192,-0.399355,-0.99317,-9.77385,5.75224,-3.11817,-53.2533
2023-03-11 22:13:06:202,-0.36418,-0.982012,-9.80535,5.7546,-3.12461,-53.26
2023-03-11 22:13:06:212,-0.397159,-0.972424,-9.80766,5.76217,-3.13124,-53.2576
2023-03-11 22:13:06:222,-0.448796,-0.955659,-9.77254,5.7653,-3.1432,-53.2511
2023-03-11 22:13:06:232,-0.478228,-0.974285,-9.73279,5.77041,-3.15615,-53.2417
2023-03-11 22:13:06:242,-0.509464,-0.960363,-9.69292,5.77542,-3.17014,-53.2276
2023-03-11 22:13:06:252,-0.544127,-0.945358,-9.66838,5.7795,-3.18135,-53.2104
2023-03-11 22:13:06:262,-0.577719,-0.927041,-9.68257,5.77941,-3.19397,-53.1899
2023-03-11 22:13:06:272,-0.622083,-0.915258,-9.70099,5.78014,-3.20252,-53.1733
2023-03-11 22:13:06:282,-0.666116,-0.908872,-9.71224,5.77939,-3.21186,-53.1545
2023-03-11 22:13:06:292,-0.684936,-0.921793,-9.72302,5.78376,-3.22308,-53.1449
2023-03-11 22:13:06:302,-0.693805,-0.938278,-9.73964,5.79235,-3.23571,-53.1423
2023-03-11 22:13:06:312,-0.691079,-0.954991,-9.74462,5.80009,-3.24591,-53.1428
2023-03-11 22:13:06:322,-0.681072,-0.99962,-9.70068,5.81242,-3.25332,-53.147
2023-03-11 22:13:06:332,-0.675419,-1.05209,-9.64399,5.82593,-3.26208,-53.1565
2023-03-11 22:13:06:342,-0.691776,-1.08962,-9.6033,5.83533,-3.27327,-53.1649
2023-03-11 22:13:06:351,-0.714682,-1.08034,-9.60351,5.83975,-3.28111,-53.178
2023-03-11 22:13:06:362,-0.696208,-1.04406,-9.62011,5.83416,-3.28621,-53.1981
2023-03-11 22:13:06:372,-0.691509,-1.02395,-9.65363,5.8253,-3.2869,-53.2176
2023-03-11 22:13:06:381,-0.720594,-1.01071,-9.66036,5.81418,-3.28584,-53.2407
2023-03-11 22:13:06:392,-0.733396,-0.977177,-9.67728,5.80214,-3.27675,-53.2643
2023-03-11 22:13:06:401,-0.683149,-0.932175,-9.71828,5.78504,-3.26266,-53.2974
2023-03-11 22:13:06:411,-0.551535,-0.933471,-9.75852,5.76701,-3.24191,-53.3306
2023-03-11 22:13:06:421,-0.475684,-0.938671,-9.76172,5.75394,-3.22049,-53.3615
2023-03-11 22:13:06:431,-0.519434,-0.927545,-9.74071,5.74051,-3.21024,-53.3862
2023-03-11 22:13:06:442,-0.573008,-0.915155,-9.73185,5.72618,-3.20021,-53.4135
2023-03-11 22:13:06:451,-0.575272,-0.899682,-9.73174,5.71368,-3.1892,-53.4413
2023-03-11 22:13:06:462,-0.503275,-0.890136,-9.77637,5.69989,-3.17587,-53.4697
2023-03-11 22:13:06:472,-0.495562,-0.881925,-9.81382,5.69269,-3.16414,-53.4932
2023-03-11 22:13:06:482,-0.512185,-0.898129,-9.82477,5.68896,-3.15208,-53.5158
2023-03-11 22:13:06:492,-0.549281,-0.892103,-9.81061,5.69177,-3.14221,-53.5354
2023-03-11 22:13:06:502,-0.577052,-0.89416,-9.81559,5.69676,-3.13253,-53.5598
2023-03-11 22:13:06:512,-0.613024,-0.894184,-9.79597,5.70833,-3.12239,-53.5935
2023-03-11 22:13:06:522,-0.670634,-0.920336,-9.71222,5.72579,-3.11595,-53.6295
2023-03-11 22:13:06:532,-0.6795,-0.953716,-9.62196,5.73978,-3.10869,-53.6746
2023-03-11 22:13:06:542,-0.553769,-0.993465,-9.56537,5.75343,-3.09893,-53.7356
2023-03-11 22:13:06:552,-0.397174,-1.01137,-9.55742,5.75723,-3.08451,-53.7947
2023-03-11 22:13:06:562,-0.280952,-0.999551,-9.60082,5.75205,-3.07598,-53.8494
2023-03-11 22:13:06:572,-0.216162,-0.975959,-9.68439,5.73738,-3.07173,-53.8879
2023-03-11 22:13:06:582,-0.215043,-0.920762,-9.80364,5.71908,-3.07465,-53.9219
2023-03-11 22:13:06:592,-0.272453,-0.827552,-9.8867,5.69937,-3.08189,-53.9431
2023-03-11 22:13:06:602,-0.389344,-0.789745,-9.93606,5.6825,-3.10326,-53.9571
2023-03-11 22:13:06:611,-0.509708,-0.796297,-9.92601,5.671,-3.13519,-53.9742
2023-03-11 22:13:06:621,-0.593716,-0.815467,-9.86053,5.66812,-3.1668,-53.995
2023-03-11 22:13:06:631,-0.646322,-0.842386,-9.75182,5.66809,-3.19919,-54.0251
2023-03-11 22:13:06:641,-0.667904,-0.88135,-9.65758,5.66994,-3.22962,-54.0556
2023-03-11 22:13:06:651,-0.582996,-0.909724,-9.63049,5.66971,-3.24724,-54.084
2023-03-11 22:13:06:661,-0.4844,-0.91588,-9.61348,5.6647,-3.25844,-54.1035
2023-03-11 22:13:06:672,-0.539509,-0.910995,-9.60059,5.65915,-3.26907,-54.1062
2023-03-11 22:13:06:682,-0.51297,-0.913033,-9.65782,5.64887,-3.26519,-54.1002
2023-03-11 22:13:06:691,-0.46362,-0.904449,-9.74287,5.63303,-3.25612,-54.0838
2023-03-11 22:13:06:701,-0.465541,-0.886801,-9.8137,5.61901,-3.23971,-54.0591
2023-03-11 22:13:06:711,-0.475578,-0.89343,-9.86177,5.60623,-3.22392,-54.0305
2023-03-11 22:13:06:721,-0.517566,-0.926932,-9.86846,5.60145,-3.2116,-53.995
2023-03-11 22:13:06:731,-0.597161,-0.937092,-9.82977,5.60219,-3.20394,-53.9667
2023-03-11 22:13:06:741,-0.637669,-0.922785,-9.78162,5.6042,-3.19314,-53.9416
2023-03-11 22:13:06:751,-0.627647,-0.9527,-9.69084,5.61218,-3.18486,-53.922
2023-03-11 22:13:06:762,-0.572852,-0.984389,-9.5933,5.61416,-3.17559,-53.9076
2023-03-11 22:13:06:771,-0.519109,-0.998206,-9.55849,5.61313,-3.1652,-53.8973
2023-03-11 22:13:06:781,-0.489867,-0.987181,-9.57532,5.60919,-3.15716,-53.8864
2023-03-11 22:13:06:792,-0.482791,-0.95568,-9.65939,5.59519,-3.15242,-53.8805
2023-03-11 22:13:06:801,-0.468111,-0.923876,-9.73566,5.58066,-3.14747,-53.8753
2023-03-11 22:13:06:811,-0.48302,-0.90322,-9.81044,5.56815,-3.15001,-53.8693
2023-03-11 22:13:06:821,-0.494713,-0.909485,-9.85264,5.56165,-3.15616,-53.8622
2023-03-11 22:13:06:832,-0.524244,-0.937334,-9.83426,5.55953,-3.1675,-53.8577
2023-03-11 22:13:06:841,-0.5698,-0.971634,-9.74726,5.57049,-3.18099,-53.856
2023-03-11 22:13:06:851,-0.614641,-1.00837,-9.67528,5.58374,-3.19508,-53.8551
2023-03-11 22:13:06:861,-0.64471,-1.0161,-9.63613,5.59355,-3.20875,-53.8545
2023-03-11 22:13:06:871,-0.631848,-1.01046,-9.6432,5.59994,-3.21696,-53.8621
2023-03-11 22:13:06:882,-0.577119,-1.0208,-9.65743,5.60646,-3.2177,-53.8718
2023-03-11 22:13:06:891,-0.534102,-1.03429,-9.69303,5.6144,-3.21996,-53.8825
2023-03-11 22:13:06:901,-0.540728,-1.03434,-9.73046,5.61772,-3.22381,-53.8944
2023-03-11 22:13:06:911,-0.528227,-1.01671,-9.73165,5.61731,-3.23353,-53.9133
2023-03-11 22:13:06:921,-0.568528,-1.008,-9.69215,5.61924,-3.24878,-53.9304
2023-03-11 22:13:06:931,-0.581757,-0.997867,-9.65596,5.61822,-3.26605,-53.952
2023-03-11 22:13:06:941,-0.527944,-1.00236,-9.64862,5.61752,-3.27938,-53.9725
2023-03-11 22:13:06:951,-0.462294,-1.00086,-9.66595,5.61171,-3.28799,-53.9923
2023-03-11 22:13:06:961,-0.420268,-0.991607,-9.69524,5.60369,-3.29569,-54.0041
2023-03-11 22:13:06:972,-0.403006,-0.972687,-9.71703,5.59287,-3.30755,-54.0067
2023-03-11 22:13:06:982,-0.425125,-0.95723,-9.75899,5.58106,-3.31814,-54.0017
2023-03-11 22:13:06:991,-0.470164,-0.948784,-9.7631,5.57079,-3.33655,-53.9926
2023-03-11 22:13:07:1,-0.547149,-0.941397,-9.73654,5.56155,-3.3583,-53.9769
2023-03-11 22:13:07:11,-0.652451,-0.926458,-9.72731,5.55024,-3.38393,-53.9655
2023-03-11 22:13:07:21,-0.761269,-0.898039,-9.73638,5.53865,-3.41406,-53.9547
2023-03-11 22:13:07:32,-0.850366,-0.887589,-9.7588,5.52711,-3.44124,-53.9519
2023-03-11 22:13:07:42,-0.887831,-0.879203,-9.76081,5.51817,-3.46215,-53.9584
2023-03-11 22:13:07:52,-0.853335,-0.88096,-9.76213,5.50925,-3.47796,-53.9734
2023-03-11 22:13:07:62,-0.817478,-0.893226,-9.76431,5.50409,-3.4949,-53.993
2023-03-11 22:13:07:72,-0.824702,-0.912236,-9.72324,5.50054,-3.51215,-54.0144
2023-03-11 22:13:07:82,-0.814047,-0.917572,-9.67828,5.49469,-3.52455,-54.0398
2023-03-11 22:13:07:92,-0.809325,-0.878561,-9.69264,5.48735,-3.53659,-54.0713
2023-03-11 22:13:07:102,-0.777319,-0.868314,-9.71737,5.4802,-3.53892,-54.1033
2023-03-11 22:13:07:112,-0.775226,-0.86565,-9.72528,5.47005,-3.53716,-54.1295
2023-03-11 22:13:07:122,-0.788235,-0.876855,-9.73264,5.46481,-3.53383,-54.1528
2023-03-11 22:13:07:132,-0.795451,-0.873686,-9.73721,5.46074,-3.52145,-54.1766
2023-03-11 22:13:07:142,-0.793513,-0.860608,-9.72528,5.45775,-3.50097,-54.2038
2023-03-11 22:13:07:152,-0.746307,-0.890825,-9.68586,5.45774,-3.47489,-54.231
2023-03-11 22:13:07:162,-0.719968,-0.92731,-9.65697,5.45915,-3.44386,-54.2559
2023-03-11 22:13:07:172,-0.68003,-0.950951,-9.64819,5.45399,-3.40849,-54.2865
2023-03-11 22:13:07:182,-0.624865,-0.953762,-9.65167,5.44421,-3.37026,-54.313
2023-03-11 22:13:07:192,-0.596145,-0.949155,-9.66927,5.42918,-3.34051,-54.3359
2023-03-11 22:13:07:202,-0.592227,-0.936192,-9.6831,5.41395,-3.31047,-54.3612
2023-03-11 22:13:07:212,-0.599236,-0.901618,-9.72134,5.39432,-3.27891,-54.3825
2023-03-11 22:13:07:222,-0.59806,-0.885053,-9.77694,5.37239,-3.24866,-54.4045
2023-03-11 22:13:07:232,-0.622325,-0.857131,-9.7938,5.35661,-3.21728,-54.4263
2023-03-11 22:13:07:242,-0.630941,-0.845921,-9.76389,5.34339,-3.18843,-54.4524
2023-03-11 22:13:07:252,-0.607389,-0.852441,-9.7271,5.3309,-3.14925,-54.4781
2023-03-11 22:13:07:262,-0.558913,-0.849277,-9.69435,5.32188,-3.10914,-54.5045
2023-03-11 22:13:07:272,-0.518905,-0.870914,-9.66398,5.31554,-3.06808,-54.5333
2023-03-11 22:13:07:282,-0.467268,-0.891443,-9.63675,5.30749,-3.02489,-54.5599
2023-03-11 22:13:07:292,-0.405742,-0.916355,-9.64765,5.29677,-2.98366,-54.5873
2023-03-11 22:13:07:302,-0.369737,-0.890066,-9.66097,5.28227,-2.94588,-54.6105
2023-03-11 22:13:07:312,-0.365451,-0.868588,-9.67265,5.2653,-2.91139,-54.6312
2023-03-11 22:13:07:322,-0.368596,-0.841748,-9.70595,5.24272,-2.87901,-54.6514
2023-03-11 22:13:07:332,-0.378529,-0.809245,-9.79381,5.22177,-2.84982,-54.6768
2023-03-11 22:13:07:342,-0.362936,-0.775951,-9.85372,5.19872,-2.82195,-54.7009
2023-03-11 22:13:07:352,-0.32103,-0.79456,-9.84724,5.18107,-2.80042,-54.7242
2023-03-11 22:13:07:362,-0.356461,-0.767906,-9.83005,5.16801,-2.7845,-54.7426
2023-03-11 22:13:07:372,-0.415395,-0.757581,-9.81877,5.15563,-2.7744,-54.7652
2023-03-11 22:13:07:382,-0.436188,-0.783592,-9.77046,5.14735,-2.76519,-54.7909
2023-03-11 22:13:07:392,-0.425959,-0.804521,-9.69913,5.14375,-2.75095,-54.8183
2023-03-11 22:13:07:402,-0.400109,-0.808813,-9.65426,5.13886,-2.733,-54.8451
2023-03-11 22:13:07:412,-0.301748,-0.82636,-9.66875,5.13066,-2.71144,-54.8735
2023-03-11 22:13:07:422,-0.175963,-0.835772,-9.74232,5.12099,-2.68469,-54.8942
2023-03-11 22:13:07:432,-0.131149,-0.835337,-9.83855,5.10551,-2.6623,-54.9044
2023-03-11 22:13:07:442,-0.156096,-0.814501,-9.90045,5.09633,-2.64818,-54.901
2023-03-11 22:13:07:452,-0.22729,-0.799391,-9.91172,5.09146,-2.63706,-54.8948
2023-03-11 22:13:07:462,-0.344323,-0.823318,-9.87873,5.09085,-2.62891,-54.8876
2023-03-11 22:13:07:472,-0.454081,-0.852346,-9.80123,5.099,-2.62916,-54.8832
2023-03-11 22:13:07:482,-0.490378,-0.868716,-9.68691,5.10703,-2.62495,-54.8819
2023-03-11 22:13:07:492,-0.471438,-0.903639,-9.59117,5.11819,-2.61274,-54.8886
2023-03-11 22:13:07:502,-0.405382,-0.942204,-9.54338,5.12276,-2.59835,-54.8976
2023-03-11 22:13:07:512,-0.280221,-0.954236,-9.56158,5.12203,-2.57704,-54.9051
2023-03-11 22:13:07:522,-0.187635,-0.90695,-9.66196,5.10711,-2.56126,-54.9054
2023-03-11 22:13:07:532,-0.188142,-0.864703,-9.83794,5.08725,-2.55397,-54.8975
2023-03-11 22:13:07:542,-0.312607,-0.799948,-10.0308,5.07054,-2.55783,-54.8909
2023-03-11 22:13:07:552,-0.49017,-0.69229,-10.1563,5.05783,-2.57004,-54.8842
2023-03-11 22:13:07:562,-0.591392,-0.673714,-10.0914,5.06515,-2.58633,-54.894
2023-03-11 22:13:07:572,-0.667993,-0.725011,-9.89921,5.09202,-2.60437,-54.9151
2023-03-11 22:13:07:582,-0.701549,-0.790685,-9.67154,5.12753,-2.61922,-54.9505
2023-03-11 22:13:07:592,-0.613816,-0.898421,-9.44737,5.16745,-2.62594,-55.0027
2023-03-11 22:13:07:602,-0.453112,-0.987002,-9.29002,5.20205,-2.63025,-55.0618
2023-03-11 22:13:07:612,-0.289718,-1.00842,-9.29105,5.21777,-2.63348,-55.1182
2023-03-11 22:13:07:622,-0.146038,-0.953784,-9.48004,5.21405,-2.6385,-55.1672
2023-03-11 22:13:07:632,-0.109952,-0.836605,-9.72391,5.19817,-2.65583,-55.2048
2023-03-11 22:13:07:642,-0.157857,-0.763175,-9.87708,5.17837,-2.68316,-55.2284
2023-03-11 22:13:07:652,-0.297483,-0.709452,-9.91963,5.16585,-2.72531,-55.2447
2023-03-11 22:13:07:662,-0.442803,-0.724076,-9.84297,5.16194,-2.77108,-55.2639
2023-03-11 22:13:07:672,-0.549174,-0.788223,-9.66259,5.17135,-2.81789,-55.2825
2023-03-11 22:13:07:682,-0.536355,-0.882444,-9.54206,5.17935,-2.85507,-55.2953
2023-03-11 22:13:07:692,-0.396784,-0.974944,-9.51693,5.18356,-2.88105,-55.3028
2023-03-11 22:13:07:702,-0.142854,-1.02952,-9.53829,5.17353,-2.90416,-55.3
2023-03-11 22:13:07:712,-0.0498785,-1.01461,-9.49235,5.1395,-2.93639,-55.2639
2023-03-11 22:13:07:722,-0.284785,-0.944767,-9.52937,5.08676,-2.98548,-55.1949
2023-03-11 22:13:07:732,-0.540348,-0.76779,-9.74752,5.01575,-3.04462,-55.109
2023-03-11 22:13:07:742,-0.606035,-0.621896,-10.0045,4.9396,-3.09723,-55.0275
2023-03-11 22:13:07:752,-0.665293,-0.533861,-10.1242,4.87144,-3.14331,-54.9402
2023-03-11 22:13:07:762,-0.832792,-0.513564,-10.0709,4.8185,-3.187,-54.8403
2023-03-11 22:13:07:772,-1.06026,-0.517157,-9.96759,4.7775,-3.2206,-54.7399
2023-03-11 22:13:07:782,-1.19376,-0.550578,-9.8863,4.74936,-3.24329,-54.6549
2023-03-11 22:13:07:792,-1.20931,-0.587596,-9.80017,4.72902,-3.24572,-54.5856
2023-03-11 22:13:07:802,-1.1618,-0.624098,-9.70261,4.71615,-3.22268,-54.532
2023-03-11 22:13:07:812,-1.07774,-0.634747,-9.65409,4.70753,-3.18316,-54.4924
2023-03-11 22:13:07:822,-0.972981,-0.649354,-9.68294,4.69912,-3.12874,-54.4626
2023-03-11 22:13:07:832,-0.824536,-0.672907,-9.78232,4.69233,-3.06873,-54.4457
2023-03-11 22:13:07:842,-0.706341,-0.68382,-9.88316,4.69674,-3.00884,-54.4409
2023-03-11 22:13:07:852,-0.704472,-0.685438,-9.92658,4.71075,-2.95379,-54.4482
2023-03-11 22:13:07:862,-0.795788,-0.763189,-9.8884,4.74276,-2.90735,-54.4698
2023-03-11 22:13:07:872,-0.916811,-0.885861,-9.73809,4.79461,-2.86922,-54.5202
2023-03-11 22:13:07:882,-0.895575,-1.01611,-9.52982,4.85566,-2.82152,-54.6074
2023-03-11 22:13:07:892,-0.680293,-1.17946,-9.30905,4.91431,-2.76267,-54.7273
2023-03-11 22:13:07:902,-0.283349,-1.34723,-9.20425,4.96142,-2.69879,-54.8639
2023-03-11 22:13:07:912,0.066907,-1.3927,-9.3195,4.981,-2.63997,-54.9925
2023-03-11 22:13:07:922,0.118253,-1.24527,-9.52976,4.96698,-2.6029,-55.0969
2023-03-11 22:13:07:932,-0.151152,-1.04547,-9.70795,4.93364,-2.58742,-55.1922
2023-03-11 22:13:07:942,-0.364245,-0.916675,-9.84603,4.8864,-2.58522,-55.2931
2023-03-11 22:13:07:952,-0.341432,-0.836319,-9.98902,4.83632,-2.57958,-55.4045
2023-03-11 22:13:07:962,-0.269386,-0.798601,-10.0916,4.79596,-2.57085,-55.5049
2023-03-11 22:13:07:972,-0.279434,-0.770372,-10.1,4.77239,-2.54685,-55.5968
2023-03-11 22:13:07:982,-0.253781,-0.840415,-10.0055,4.76441,-2.50896,-55.6765
2023-03-11 22:13:07:992,-0.197472,-0.928967,-9.84877,4.77047,-2.46205,-55.7431
2023-03-11 22:13:08:2,-0.126232,-1.00958,-9.73387,4.78162,-2.40454,-55.7988
2023-03-11 22:13:08:12,0.0729261,-1.0675,-9.62626,4.78751,-2.33448,-55.8465
2023-03-11 22:13:08:22,0.164489,-1.0358,-9.62689,4.78273,-2.26634,-55.8615
2023-03-11 22:13:08:32,0.0821663,-0.959333,-9.64491,4.76949,-2.20782,-55.858
2023-03-11 22:13:08:42,0.00708869,-0.875918,-9.65672,4.74875,-2.15563,-55.8493
2023-03-11 22:13:08:52,-0.00550838,-0.805221,-9.64681,4.72612,-2.10119,-55.8341
2023-03-11 22:13:08:62,0.0412378,-0.805011,-9.62238,4.70073,-2.04761,-55.8202
2023-03-11 22:13:08:72,0.0742258,-0.805046,-9.58758,4.67378,-1.99998,-55.7995
2023-03-11 22:13:08:82,0.0111626,-0.776846,-9.5869,4.63829,-1.96975,-55.7764
2023-03-11 22:13:08:92,-0.0169938,-0.721398,-9.66114,4.59656,-1.94934,-55.7585
2023-03-11 22:13:08:102,-0.0446534,-0.66215,-9.75245,4.55098,-1.94022,-55.7408
2023-03-11 22:13:08:112,-0.0904818,-0.627731,-9.80863,4.50277,-1.94269,-55.7213
2023-03-11 22:13:08:122,-0.186961,-0.606453,-9.81966,4.45934,-1.95515,-55.7055
2023-03-11 22:13:08:132,-0.22269,-0.590582,-9.77652,4.42218,-1.97807,-55.6951
2023-03-11 22:13:08:142,-0.205752,-0.611327,-9.75403,4.38578,-2.00837,-55.6917
2023-03-11 22:13:08:152,-0.214913,-0.612954,-9.7876,4.35134,-2.04431,-55.6882
2023-03-11 22:13:08:162,-0.227708,-0.578873,-9.85833,4.31405,-2.09225,-55.6793
2023-03-11 22:13:08:172,-0.289409,-0.546025,-9.90954,4.27947,-2.14604,-55.6698
2023-03-11 22:13:08:182,-0.380319,-0.536659,-9.9269,4.25245,-2.20831,-55.6595
2023-03-11 22:13:08:192,-0.488515,-0.532594,-9.87191,4.23037,-2.27319,-55.6489
2023-03-11 22:13:08:202,-0.524203,-0.549092,-9.79533,4.21954,-2.33723,-55.641
2023-03-11 22:13:08:212,-0.480372,-0.59013,-9.77553,4.21119,-2.39594,-55.6339
2023-03-11 22:13:08:222,-0.425033,-0.621885,-9.79032,4.20583,-2.45767,-55.6206
2023-03-11 22:13:08:232,-0.427584,-0.624706,-9.82315,4.19899,-2.52125,-55.5972
2023-03-11 22:13:08:242,-0.467007,-0.625152,-9.84764,4.1968,-2.58892,-55.5689
2023-03-11 22:13:08:252,-0.449967,-0.647885,-9.82336,4.20013,-2.66158,-55.5332
2023-03-11 22:13:08:262,-0.452082,-0.715334,-9.76424,4.20713,-2.73461,-55.4897
2023-03-11 22:13:08:272,-0.517716,-0.748657,-9.69482,4.21236,-2.81514,-55.434
2023-03-11 22:13:08:282,-0.619276,-0.751071,-9.63864,4.21182,-2.90085,-55.3722
2023-03-11 22:13:08:292,-0.711597,-0.717222,-9.63111,4.20243,-2.9861,-55.3115
2023-03-11 22:13:08:302,-0.733307,-0.641986,-9.67695,4.18237,-3.05776,-55.2459
2023-03-11 22:13:08:312,-0.732141,-0.546118,-9.71008,4.15737,-3.12604,-55.1779
2023-03-11 22:13:08:322,-0.775145,-0.447293,-9.721,4.13147,-3.18967,-55.1044
2023-03-11 22:13:08:332,-0.814335,-0.384503,-9.74736,4.10212,-3.24575,-55.0267
2023-03-11 22:13:08:342,-0.831263,-0.354649,-9.79408,4.07568,-3.29513,-54.95
2023-03-11 22:13:08:352,-0.846875,-0.360558,-9.81126,4.05542,-3.34304,-54.8679
2023-03-11 22:13:08:362,-0.892004,-0.386319,-9.8014,4.046,-3.38228,-54.7823
2023-03-11 22:13:08:372,-0.898432,-0.441164,-9.78134,4.04823,-3.41695,-54.6984
2023-03-11 22:13:08:382,-0.897586,-0.493229,-9.77573,4.0564,-3.45154,-54.6162
2023-03-11 22:13:08:392,-0.912259,-0.556273,-9.77907,4.07279,-3.48361,-54.5371
2023-03-11 22:13:08:402,-0.96386,-0.574102,-9.77999,4.09346,-3.51429,-54.461
2023-03-11 22:13:08:412,-0.999426,-0.617534,-9.77542,4.11511,-3.53934,-54.3922
2023-03-11 22:13:08:422,-0.952184,-0.670868,-9.73921,4.14155,-3.56375,-54.3289
2023-03-11 22:13:08:432,-0.896613,-0.731419,-9.72488,4.16442,-3.58369,-54.2747
2023-03-11 22:13:08:442,-0.935429,-0.769093,-9.74205,4.18718,-3.59957,-54.2189
2023-03-11 22:13:08:452,-1.01773,-0.777983,-9.73157,4.20532,-3.6191,-54.1675
2023-03-11 22:13:08:462,-1.01304,-0.749959,-9.73634,4.2199,-3.62433,-54.1323
2023-03-11 22:13:08:472,-0.883541,-0.772087,-9.76468,4.22973,-3.62004,-54.1084
2023-03-11 22:13:08:482,-0.806344,-0.789575,-9.77084,4.23556,-3.61209,-54.0877
2023-03-11 22:13:08:492,-0.772664,-0.78199,-9.75598,4.23719,-3.60066,-54.0641
2023-03-11 22:13:08:502,-0.709555,-0.759961,-9.75139,4.23376,-3.57906,-54.051
2023-03-11 22:13:08:512,-0.61686,-0.720342,-9.75483,4.22843,-3.55559,-54.0316
2023-03-11 22:13:08:522,-0.503636,-0.682565,-9.78005,4.22235,-3.5251,-54.0182
2023-03-11 22:13:08:532,-0.399295,-0.668712,-9.80849,4.21895,-3.4958,-53.9962
2023-03-11 22:13:08:542,-0.35198,-0.659154,-9.81925,4.21599,-3.46886,-53.9648
2023-03-11 22:13:08:552,-0.35583,-0.663255,-9.82089,4.22262,-3.44387,-53.9239
2023-03-11 22:13:08:562,-0.389369,-0.699798,-9.78579,4.23568,-3.42224,-53.8694
2023-03-11 22:13:08:572,-0.42464,-0.743975,-9.75314,4.25475,-3.40089,-53.8079
2023-03-11 22:13:08:582,-0.479647,-0.764714,-9.72625,4.27723,-3.38492,-53.7398
2023-03-11 22:13:08:592,-0.557919,-0.769278,-9.71056,4.29746,-3.37009,-53.6646
2023-03-11 22:13:08:602,-0.625614,-0.795163,-9.67418,4.31473,-3.34817,-53.5863
2023-03-11 22:13:08:612,-0.633763,-0.815024,-9.64047,4.33335,-3.31897,-53.5091
2023-03-11 22:13:08:622,-0.591342,-0.839735,-9.64494,4.34998,-3.2825,-53.4321
2023-03-11 22:13:08:632,-0.545798,-0.853418,-9.67537,4.36327,-3.24116,-53.3534
2023-03-11 22:13:08:642,-0.557167,-0.843219,-9.68252,4.37769,-3.20088,-53.2726
2023-03-11 22:13:08:652,-0.603684,-0.841668,-9.71792,4.38525,-3.16221,-53.1919
2023-03-11 22:13:08:662,-0.641912,-0.835762,-9.76048,4.39341,-3.1216,-53.1157
2023-03-11 22:13:08:672,-0.679271,-0.840892,-9.74805,4.40796,-3.07504,-53.0491
2023-03-11 22:13:08:682,-0.720578,-0.869996,-9.72484,4.41762,-3.02836,-52.9942
2023-03-11 22:13:08:692,-0.747506,-0.86901,-9.69981,4.4236,-2.9758,-52.9569
2023-03-11 22:13:08:702,-0.703102,-0.852352,-9.67365,4.42365,-2.91835,-52.9402
2023-03-11 22:13:08:712,-0.604158,-0.832524,-9.66545,4.41813,-2.85638,-52.9422
2023-03-11 22:13:08:722,-0.441038,-0.763703,-9.69136,4.40005,-2.79077,-52.9593
2023-03-11 22:13:08:732,-0.258841,-0.716926,-9.77944,4.37341,-2.73143,-52.989
2023-03-11 22:13:08:742,-0.102128,-0.678372,-9.86152,4.34918,-2.68617,-53.0217
2023-03-11 22:13:08:752,-0.0341824,-0.643676,-9.89934,4.33142,-2.6583,-53.0596
2023-03-11 22:13:08:762,0.0236781,-0.639817,-9.88048,4.32448,-2.64973,-53.0935
2023-03-11 22:13:08:772,0.00408695,-0.655831,-9.84546,4.32662,-2.65655,-53.1121
2023-03-11 22:13:08:782,-0.0750676,-0.702812,-9.78962,4.33736,-2.67683,-53.123
2023-03-11 22:13:08:792,-0.164211,-0.731558,-9.7078,4.35915,-2.70869,-53.1174
2023-03-11 22:13:08:802,-0.297323,-0.793627,-9.63003,4.38173,-2.75033,-53.0972
2023-03-11 22:13:08:812,-0.446789,-0.83388,-9.58152,4.40442,-2.79214,-53.0718
2023-03-11 22:13:08:822,-0.597769,-0.857449,-9.58275,4.42757,-2.83158,-53.0384
2023-03-11 22:13:08:832,-0.744771,-0.875574,-9.59582,4.44038,-2.87066,-53.0013
2023-03-11 22:13:08:842,-0.81251,-0.884503,-9.61666,4.4502,-2.89923,-52.9648
2023-03-11 22:13:08:852,-0.829895,-0.88656,-9.6641,4.45165,-2.92113,-52.9364
2023-03-11 22:13:08:862,-0.837563,-0.850704,-9.6922,4.4452,-2.93693,-52.9075
2023-03-11 22:13:08:872,-0.848523,-0.829988,-9.70785,4.43448,-2.94322,-52.8908
2023-03-11 22:13:08:882,-0.81513,-0.795664,-9.69774,4.41495,-2.94397,-52.8813
2023-03-11 22:13:08:892,-0.771465,-0.775086,-9.70342,4.39347,-2.93621,-52.8751
2023-03-11 22:13:08:902,-0.753934,-0.748791,-9.73619,4.36867,-2.92776,-52.8796
2023-03-11 22:13:08:912,-0.699372,-0.695672,-9.77444,4.34171,-2.91506,-52.8883
2023-03-11 22:13:08:922,-0.589481,-0.67914,-9.79937,4.31298,-2.89221,-52.9092
2023-03-11 22:13:08:932,-0.464091,-0.671006,-9.78075,4.29018,-2.86475,-52.9277
2023-03-11 22:13:08:942,-0.38735,-0.690548,-9.75183,4.27093,-2.83985,-52.9423
2023-03-11 22:13:08:952,-0.34669,-0.696049,-9.74996,4.2512,-2.81675,-52.9574
2023-03-11 22:13:08:962,-0.375102,-0.681255,-9.77417,4.22911,-2.79732,-52.9644
2023-03-11 22:13:08:971,-0.432119,-0.640209,-9.76062,4.20858,-2.7776,-52.9747
2023-03-11 22:13:08:982,-0.376689,-0.630955,-9.72806,4.18711,-2.75075,-52.9902
2023-03-11 22:13:08:992,-0.278784,-0.631364,-9.71431,4.16483,-2.72407,-53.0028
2023-03-11 22:13:09:2,-0.180306,-0.60343,-9.68447,4.14643,-2.69311,-53.0157
2023-03-11 22:13:09:12,-0.143828,-0.585553,-9.69704,4.13059,-2.66118,-53.0199
2023-03-11 22:13:09:22,-0.189827,-0.576637,-9.76477,4.11735,-2.62447,-53.0147
2023-03-11 22:13:09:32,-0.173473,-0.625049,-9.84691,4.11008,-2.58317,-53.009
2023-03-11 22:13:09:42,-0.0359541,-0.685363,-9.90971,4.11414,-2.53396,-53.0016
2023-03-11 22:13:09:52,0.114312,-0.740222,-9.95255,4.12774,-2.4871,-52.9845
2023-03-11 22:13:09:62,0.158735,-0.781311,-9.93942,4.14791,-2.4512,-52.9537
2023-03-11 22:13:09:72,0.130863,-0.858391,-9.89094,4.17293,-2.43593,-52.9106
2023-03-11 22:13:09:82,0.0658304,-0.933054,-9.81832,4.20686,-2.4369,-52.8609
2023-03-11 22:13:09:92,-0.0173999,-0.974014,-9.70906,4.23952,-2.45627,-52.8059
2023-03-11 22:13:09:102,-0.138224,-1.03061,-9.62888,4.2686,-2.48951,-52.7437
2023-03-11 22:13:09:112,-0.348966,-1.06457,-9.54098,4.29645,-2.53607,-52.6779
2023-03-11 22:13:09:122,-0.534057,-1.08281,-9.48393,4.31547,-2.59306,-52.6148
2023-03-11 22:13:09:132,-0.635402,-1.06322,-9.47867,4.31356,-2.65322,-52.5556
2023-03-11 22:13:09:142,-0.645907,-1.02797,-9.54331,4.30257,-2.71154,-52.5054
2023-03-11 22:13:09:152,-0.66769,-0.964277,-9.63072,4.27381,-2.77488,-52.4584
2023-03-11 22:13:09:162,-0.738665,-0.903381,-9.68263,4.23346,-2.83963,-52.4128
2023-03-11 22:13:09:172,-0.818773,-0.849545,-9.70316,4.18998,-2.90788,-52.3718
2023-03-11 22:13:09:182,-0.901166,-0.789352,-9.70081,4.14087,-2.97419,-52.335
2023-03-11 22:13:09:192,-0.977551,-0.783419,-9.73771,4.0858,-3.03025,-52.3027
2023-03-11 22:13:09:202,-1.10751,-0.702477,-9.75445,4.02265,-3.07008,-52.2678
2023-03-11 22:13:09:212,-1.1734,-0.598322,-9.7697,3.94755,-3.08988,-52.2387
2023-03-11 22:13:09:222,-1.0711,-0.44003,-9.864,3.86419,-3.0856,-52.2221
2023-03-11 22:13:09:232,-0.84612,-0.283233,-10.0448,3.78152,-3.06461,-52.215
2023-03-11 22:13:09:242,-0.678,-0.14064,-10.1615,3.70733,-3.02988,-52.2017
2023-03-11 22:13:09:252,-0.667396,-0.0926005,-10.0665,3.65292,-3.00045,-52.1839
2023-03-11 22:13:09:262,-0.746111,-0.0885873,-9.88539,3.61817,-2.97903,-52.1732
2023-03-11 22:13:09:272,-0.783194,-0.11429,-9.76542,3.59953,-2.96106,-52.1757
2023-03-11 22:13:09:282,-0.839449,-0.142156,-9.71681,3.58733,-2.94205,-52.1895
2023-03-11 22:13:09:292,-0.861026,-0.181806,-9.72142,3.58129,-2.92073,-52.2197
2023-03-11 22:13:09:302,-0.769782,-0.227964,-9.75533,3.57931,-2.89251,-52.2663
2023-03-11 22:13:09:312,-0.612464,-0.261068,-9.80444,3.58192,-2.86582,-52.328
2023-03-11 22:13:09:322,-0.442334,-0.318568,-9.82735,3.59039,-2.8385,-52.398
2023-03-11 22:13:09:332,-0.274947,-0.394933,-9.79065,3.60497,-2.81721,-52.4721
2023-03-11 22:13:09:342,-0.102412,-0.483068,-9.74185,3.62313,-2.80833,-52.538
2023-03-11 22:13:09:352,-0.0357216,-0.549947,-9.66512,3.64302,-2.8093,-52.5897
2023-03-11 22:13:09:362,-0.105096,-0.579527,-9.60906,3.65668,-2.82181,-52.6205
2023-03-11 22:13:09:372,-0.241548,-0.577537,-9.60326,3.66193,-2.84142,-52.6334
2023-03-11 22:13:09:382,-0.303857,-0.542388,-9.6467,3.65683,-2.85376,-52.6357
2023-03-11 22:13:09:392,-0.238284,-0.52754,-9.76205,3.64821,-2.8612,-52.6262
2023-03-11 22:13:09:402,-0.199903,-0.495423,-9.83085,3.63686,-2.86448,-52.5964
2023-03-11 22:13:09:412,-0.242096,-0.466621,-9.82521,3.62279,-2.86394,-52.5517
2023-03-11 22:13:09:422,-0.209389,-0.463063,-9.79229,3.60834,-2.85836,-52.4948
2023-03-11 22:13:09:432,-0.202567,-0.460244,-9.7914,3.60153,-2.85529,-52.4258
2023-03-11 22:13:09:442,-0.297038,-0.453657,-9.80457,3.59712,-2.85573,-52.342
2023-03-11 22:13:09:452,-0.434722,-0.460977,-9.82054,3.59065,-2.86881,-52.2472
2023-03-11 22:13:09:462,-0.611202,-0.455373,-9.85281,3.5863,-2.89009,-52.16
2023-03-11 22:13:09:472,-0.802081,-0.438669,-9.86381,3.58128,-2.91332,-52.0799
2023-03-11 22:13:09:482,-0.928793,-0.410365,-9.8351,3.57866,-2.93387,-52.0091
2023-03-11 22:13:09:492,-0.946796,-0.435506,-9.79892,3.57822,-2.94556,-51.9542
2023-03-11 22:13:09:502,-0.883699,-0.470365,-9.79031,3.58716,-2.94082,-51.9147
2023-03-11 22:13:09:512,-0.773682,-0.506084,-9.84378,3.59703,-2.92664,-51.8826
2023-03-11 22:13:09:522,-0.649131,-0.556719,-9.85716,3.62025,-2.90809,-51.857
2023-03-11 22:13:09:532,-0.515852,-0.628187,-9.80723,3.6497,-2.88443,-51.8346
2023-03-11 22:13:09:542,-0.444795,-0.705594,-9.71336,3.68551,-2.86684,-51.8155
2023-03-11 22:13:09:552,-0.410594,-0.791436,-9.5784,3.71929,-2.85704,-51.7982
2023-03-11 22:13:09:562,-0.406551,-0.821313,-9.50234,3.74666,-2.85578,-51.7845
2023-03-11 22:13:09:572,-0.406375,-0.814217,-9.56998,3.75864,-2.8562,-51.7739
2023-03-11 22:13:09:582,-0.313573,-0.783589,-9.69884,3.76092,-2.85209,-51.7692
2023-03-11 22:13:09:592,-0.21493,-0.708612,-9.81597,3.75308,-2.84275,-51.7606
2023-03-11 22:13:09:602,-0.0257976,-0.698237,-9.83309,3.74882,-2.83367,-51.7478
2023-03-11 22:13:09:612,0.0933685,-0.73601,-9.75883,3.74443,-2.83393,-51.7095
2023-03-11 22:13:09:622,-0.0962254,-0.685588,-9.66556,3.7324,-2.85011,-51.6379
2023-03-11 22:13:09:632,-0.442771,-0.562125,-9.61485,3.70787,-2.87635,-51.5476
2023-03-11 22:13:09:642,-0.722641,-0.463113,-9.66015,3.67864,-2.89707,-51.4571
2023-03-11 22:13:09:652,-0.919933,-0.370494,-9.79092,3.6447,-2.90707,-51.3744
2023-03-11 22:13:09:662,-1.02051,-0.312065,-9.90126,3.6143,-2.90079,-51.3018
2023-03-11 22:13:09:672,-0.939708,-0.318379,-9.98599,3.59714,-2.87721,-51.2457
2023-03-11 22:13:09:681,-0.762178,-0.365005,-10.033,3.59347,-2.83957,-51.1968
2023-03-11 22:13:09:692,-0.72458,-0.421585,-10.0641,3.60885,-2.80236,-51.1483
2023-03-11 22:13:09:702,-0.807775,-0.477133,-9.99581,3.64019,-2.76622,-51.0995
2023-03-11 22:13:09:712,-0.79363,-0.583394,-9.84611,3.68108,-2.73261,-51.0679
2023-03-11 22:13:09:722,-0.706325,-0.691595,-9.70259,3.72236,-2.69467,-51.0438
2023-03-11 22:13:09:732,-0.654787,-0.748009,-9.58825,3.76386,-2.65621,-51.0245
2023-03-11 22:13:09:742,-0.565244,-0.779638,-9.57824,3.79446,-2.61376,-51.0158
2023-03-11 22:13:09:752,-0.424139,-0.787861,-9.62308,3.81639,-2.57314,-51.0133
2023-03-11 22:13:09:762,-0.301652,-0.789779,-9.70177,3.82645,-2.53935,-51.011
2023-03-11 22:13:09:772,-0.253038,-0.731012,-9.74558,3.83392,-2.51659,-51.0107
2023-03-11 22:13:09:782,-0.228727,-0.702652,-9.7183,3.8389,-2.50444,-51.0096
2023-03-11 22:13:09:792,-0.264508,-0.709438,-9.72334,3.84355,-2.49992,-51.0083
2023-03-11 22:13:09:802,-0.324843,-0.702639,-9.76332,3.84658,-2.50774,-51.0134
2023-03-11 22:13:09:812,-0.320609,-0.700132,-9.86377,3.85664,-2.52255,-51.0239
2023-03-11 22:13:09:822,-0.265858,-0.714014,-9.89981,3.86555,-2.53627,-51.0315
2023-03-11 22:13:09:832,-0.24576,-0.750193,-9.80018,3.88109,-2.55923,-51.0348
2023-03-11 22:13:09:842,-0.287093,-0.77774,-9.67001,3.89943,-2.59115,-51.0326
2023-03-11 22:13:09:852,-0.276746,-0.779596,-9.62036,3.91237,-2.62518,-51.0251
2023-03-11 22:13:09:862,-0.219078,-0.753353,-9.6409,3.91727,-2.65983,-51.009
2023-03-11 22:13:09:872,-0.211188,-0.703916,-9.69633,3.91872,-2.70086,-50.985
2023-03-11 22:13:09:882,-0.28148,-0.657349,-9.7558,3.91963,-2.7495,-50.9449
2023-03-11 22:13:09:892,-0.347437,-0.631993,-9.80125,3.91815,-2.80196,-50.8976
2023-03-11 22:13:09:902,-0.41745,-0.631909,-9.8071,3.91726,-2.86305,-50.8387
2023-03-11 22:13:09:912,-0.556117,-0.609557,-9.80074,3.91721,-2.93013,-50.7719
2023-03-11 22:13:09:922,-0.716242,-0.580033,-9.8303,3.9193,-2.99632,-50.7027
2023-03-11 22:13:09:932,-0.882817,-0.541424,-9.88742,3.92973,-3.05718,-50.6376
2023-03-11 22:13:09:942,-1.03537,-0.467541,-9.98635,3.95083,-3.11428,-50.5851
2023-03-11 22:13:09:952,-1.04354,-0.413972,-10.0563,3.99462,-3.16062,-50.5588
2023-03-11 22:13:09:962,-0.976031,-0.423038,-10.0608,4.05773,-3.19352,-50.5463
2023-03-11 22:13:09:972,-0.93715,-0.456889,-9.94134,4.14812,-3.21984,-50.5477
2023-03-11 22:13:09:982,-0.807918,-0.574199,-9.71356,4.25216,-3.23071,-50.5599
2023-03-11 22:13:09:992,-0.642241,-0.754016,-9.51604,4.36045,-3.22505,-50.5687
2023-03-11 22:13:10:2,-0.53011,-0.887325,-9.38605,4.46494,-3.21153,-50.5715
2023-03-11 22:13:10:12,-0.440455,-0.971687,-9.38388,4.55525,-3.20042,-50.5671
2023-03-11 22:13:10:22,-0.484175,-0.984792,-9.51037,4.62658,-3.19755,-50.5545
2023-03-11 22:13:10:32,-0.605318,-0.948718,-9.65901,4.6787,-3.20896,-50.5481
2023-03-11 22:13:10:42,-0.696564,-0.929293,-9.68153,4.71886,-3.22037,-50.5531
2023-03-11 22:13:10:52,-0.808026,-0.89408,-9.6829,4.7472,-3.23196,-50.575
2023-03-11 22:13:10:62,-0.776097,-0.862368,-9.70003,4.77685,-3.23338,-50.6232
2023-03-11 22:13:10:72,-0.550815,-0.862897,-9.68777,4.80278,-3.22559,-50.692
2023-03-11 22:13:10:82,-0.247831,-0.86106,-9.72697,4.82407,-3.21298,-50.7592
2023-03-11 22:13:10:92,-0.0710249,-0.91987,-9.78411,4.8476,-3.20451,-50.8118
2023-03-11 22:13:10:102,-0.0858236,-0.956643,-9.73849,4.87351,-3.21172,-50.8445
2023-03-11 22:13:10:112,-0.190947,-0.977218,-9.63617,4.89671,-3.23086,-50.8611
2023-03-11 22:13:10:122,-0.393965,-0.971509,-9.59099,4.91172,-3.25662,-50.867
2023-03-11 22:13:10:132,-0.571616,-0.885043,-9.6372,4.91868,-3.28307,-50.8715
2023-03-11 22:13:10:142,-0.563086,-0.874419,-9.72572,4.92465,-3.29756,-50.8885
2023-03-11 22:13:10:152,-0.448558,-0.912849,-9.8026,4.93042,-3.29576,-50.9038
2023-03-11 22:13:10:162,-0.41239,-0.957467,-9.80013,4.93871,-3.2918,-50.9061
2023-03-11 22:13:10:172,-0.460971,-0.97157,-9.71385,4.94919,-3.29203,-50.9055
2023-03-11 22:13:10:182,-0.478434,-0.938958,-9.63187,4.95575,-3.28936,-50.9032
2023-03-11 22:13:10:192,-0.478897,-0.874187,-9.69525,4.95665,-3.29146,-50.8983
2023-03-11 22:13:10:202,-0.515112,-0.827091,-9.82292,4.96062,-3.29561,-50.899
2023-03-11 22:13:10:212,-0.552932,-0.812089,-9.92291,4.97177,-3.30315,-50.9023
2023-03-11 22:13:10:222,-0.542017,-0.90712,-9.88545,4.99583,-3.31514,-50.9121
2023-03-11 22:13:10:232,-0.428257,-1.03902,-9.73009,5.03031,-3.3272,-50.9267
2023-03-11 22:13:10:242,-0.238315,-1.11451,-9.46737,5.06216,-3.33649,-50.9308
2023-03-11 22:13:10:252,-0.208723,-1.08409,-9.28889,5.07362,-3.35332,-50.9104
2023-03-11 22:13:10:262,-0.427577,-0.971478,-9.40378,5.06719,-3.38008,-50.8697
2023-03-11 22:13:10:272,-0.556528,-0.836869,-9.6336,5.0471,-3.40532,-50.8302
2023-03-11 22:13:10:282,-0.466425,-0.831768,-9.74614,5.03344,-3.42162,-50.7881
2023-03-11 22:13:10:292,-0.369308,-0.848218,-9.73279,5.01669,-3.43373,-50.7288
2023-03-11 22:13:10:302,-0.395556,-0.853242,-9.69711,4.99498,-3.4505,-50.6504
2023-03-11 22:13:10:312,-0.531695,-0.827797,-9.72642,4.97639,-3.47803,-50.5646
2023-03-11 22:13:10:321,-0.646702,-0.779537,-9.76189,4.95099,-3.51472,-50.4773
2023-03-11 22:13:10:331,-0.733,-0.747813,-9.79061,4.92242,-3.55426,-50.3922
2023-03-11 22:13:10:342,-0.81938,-0.700284,-9.85958,4.89025,-3.59586,-50.3099
2023-03-11 22:13:10:351,-0.853927,-0.65696,-9.90562,4.86136,-3.63514,-50.2379
2023-03-11 22:13:10:361,-0.915875,-0.57924,-9.88685,4.83924,-3.67537,-50.176
2023-03-11 22:13:10:372,-1.02052,-0.50839,-9.88352,4.82523,-3.7106,-50.1205
2023-03-11 22:13:10:382,-1.13964,-0.48087,-9.91528,4.82508,-3.73608,-50.0811
2023-03-11 22:13:10:392,-1.11469,-0.573736,-9.83806,4.84106,-3.74358,-50.0652
2023-03-11 22:13:10:402,-0.928392,-0.691041,-9.73652,4.86888,-3.72994,-50.063
2023-03-11 22:13:10:412,-0.641949,-0.774239,-9.65801,4.90033,-3.70002,-50.0665
2023-03-11 22:13:10:422,-0.419798,-0.852593,-9.59136,4.9285,-3.66741,-50.0613
2023-03-11 22:13:10:432,-0.33481,-0.884282,-9.58827,4.94659,-3.64322,-50.043
2023-03-11 22:13:10:442,-0.364079,-0.884073,-9.65298,4.96279,-3.62733,-50.0134
2023-03-11 22:13:10:452,-0.50055,-0.87415,-9.7304,4.97135,-3.62271,-49.983
2023-03-11 22:13:10:462,-0.597419,-0.856295,-9.84123,4.97249,-3.62612,-49.9605
2023-03-11 22:13:10:472,-0.644492,-0.808683,-9.89146,4.96652,-3.63749,-49.9423
2023-03-11 22:13:10:482,-0.702853,-0.730739,-9.86527,4.95866,-3.65152,-49.9334
2023-03-11 22:13:10:492,-0.831377,-0.643852,-9.82427,4.95216,-3.67005,-49.9336
2023-03-11 22:13:10:502,-1.07019,-0.557918,-9.84289,4.95487,-3.69019,-49.9459
2023-03-11 22:13:10:512,-1.16657,-0.514871,-9.89981,4.96777,-3.69676,-49.9899
2023-03-11 22:13:10:522,-0.955739,-0.618707,-9.87235,4.99401,-3.68754,-50.0624
2023-03-11 22:13:10:532,-0.713117,-0.766286,-9.78113,5.0303,-3.66593,-50.1455
2023-03-11 22:13:10:542,-0.604134,-0.845573,-9.68359,5.07164,-3.64372,-50.2271
2023-03-11 22:13:10:552,-0.567361,-0.84875,-9.65068,5.10219,-3.62963,-50.3131
2023-03-11 22:13:10:562,-0.556049,-0.78933,-9.6808,5.12696,-3.61319,-50.3975
2023-03-11 22:13:10:572,-0.593234,-0.693079,-9.72415,5.14184,-3.59705,-50.4806
2023-03-11 22:13:10:582,-0.690581,-0.639448,-9.77072,5.15937,-3.57858,-50.565
2023-03-11 22:13:10:592,-0.744322,-0.564492,-9.85096,5.17966,-3.55417,-50.6549
2023-03-11 22:13:10:602,-0.662354,-0.611979,-9.8902,5.20901,-3.51683,-50.7508
2023-03-11 22:13:10:612,-0.536859,-0.733442,-9.8569,5.25309,-3.47267,-50.8467
2023-03-11 22:13:10:622,-0.43191,-0.863891,-9.76044,5.30337,-3.42976,-50.9376
2023-03-11 22:13:10:632,-0.389056,-0.936693,-9.67085,5.35929,-3.39174,-51.0221
2023-03-11 22:13:10:642,-0.360921,-0.999654,-9.56224,5.41164,-3.36194,-51.1039
2023-03-11 22:13:10:652,-0.315256,-1.01269,-9.49854,5.45309,-3.33475,-51.1748
2023-03-11 22:13:10:662,-0.314842,-1.01072,-9.45075,5.48031,-3.31403,-51.2348
2023-03-11 22:13:10:672,-0.369069,-0.980251,-9.40627,5.49469,-3.30449,-51.2841
2023-03-11 22:13:10:682,-0.392661,-0.957876,-9.44533,5.49381,-3.29466,-51.3267
2023-03-11 22:13:10:692,-0.387758,-0.949621,-9.5601,5.47948,-3.28298,-51.3626
2023-03-11 22:13:10:702,-0.370195,-0.867847,-9.71619,5.46075,-3.26774,-51.3905
2023-03-11 22:13:10:712,-0.424311,-0.7935,-9.92643,5.44169,-3.25318,-51.4121
2023-03-11 22:13:10:722,-0.502066,-0.740164,-10.0534,5.4354,-3.2409,-51.4331
2023-03-11 22:13:10:732,-0.499765,-0.797686,-9.99671,5.43884,-3.23258,-51.4553
2023-03-11 22:13:10:742,-0.441927,-0.905443,-9.83544,5.45749,-3.22439,-51.4721
2023-03-11 22:13:10:752,-0.363345,-1.01746,-9.67663,5.47962,-3.21602,-51.4835
2023-03-11 22:13:10:762,-0.349419,-1.02553,-9.55038,5.49257,-3.20901,-51.4813
2023-03-11 22:13:10:772,-0.404182,-0.986489,-9.50611,5.4929,-3.20999,-51.4711
2023-03-11 22:13:10:782,-0.488693,-0.895537,-9.56857,5.48041,-3.21206,-51.4613
2023-03-11 22:13:10:792,-0.55942,-0.808356,-9.66322,5.46217,-3.21462,-51.4506
2023-03-11 22:13:10:802,-0.664534,-0.753021,-9.74826,5.4446,-3.20929,-51.4389
2023-03-11 22:13:10:812,-0.755064,-0.739909,-9.80963,5.43425,-3.19941,-51.4345
2023-03-11 22:13:10:822,-0.76623,-0.777017,-9.81777,5.43479,-3.17977,-51.4464
2023-03-11 22:13:10:832,-0.697592,-0.870863,-9.76055,5.44373,-3.15031,-51.4696
2023-03-11 22:13:10:842,-0.549022,-0.932148,-9.72197,5.45618,-3.11341,-51.4972
2023-03-11 22:13:10:852,-0.434776,-0.954647,-9.73498,5.46832,-3.07843,-51.5275
2023-03-11 22:13:10:862,-0.34602,-0.947472,-9.74527,5.47478,-3.05136,-51.5512
2023-03-11 22:13:10:872,-0.319658,-0.94528,-9.72276,5.4772,-3.03378,-51.5688
2023-03-11 22:13:10:882,-0.331517,-0.943645,-9.74869,5.47397,-3.02744,-51.584
2023-03-11 22:13:10:892,-0.376308,-0.920202,-9.79363,5.47201,-3.02982,-51.5892
2023-03-11 22:13:10:902,-0.4853,-0.911072,-9.79911,5.47179,-3.04045,-51.5893
2023-03-11 22:13:10:912,-0.598989,-0.891966,-9.77854,5.47347,-3.05035,-51.5905
2023-03-11 22:13:10:922,-0.634941,-0.886739,-9.77479,5.48235,-3.0559,-51.5987
2023-03-11 22:13:10:932,-0.681679,-0.864899,-9.76776,5.48815,-3.05649,-51.5993
2023-03-11 22:13:10:942,-0.70002,-0.875793,-9.74495,5.4968,-3.04597,-51.6036
2023-03-11 22:13:10:952,-0.657253,-0.895553,-9.72103,5.50704,-3.02627,-51.6098
2023-03-11 22:13:10:962,-0.60576,-0.918004,-9.70352,5.5193,-3.0009,-51.6135
2023-03-11 22:13:10:972,-0.56503,-0.947144,-9.6698,5.53239,-2.97016,-51.6162
2023-03-11 22:13:10:982,-0.533643,-0.955723,-9.65109,5.54005,-2.93782,-51.6159
2023-03-11 22:13:10:992,-0.476474,-0.948386,-9.67988,5.54713,-2.89892,-51.6162
2023-03-11 22:13:11:2,-0.418341,-0.958556,-9.7129,5.55525,-2.858,-51.6159
2023-03-11 22:13:11:12,-0.385977,-0.946993,-9.7533,5.56309,-2.82025,-51.6118
2023-03-11 22:13:11:22,-0.291359,-0.951932,-9.78559,5.5741,-2.78567,-51.6124
2023-03-11 22:13:11:31,-0.179291,-0.982581,-9.79537,5.58514,-2.7574,-51.6086
2023-03-11 22:13:11:42,-0.193926,-1.00799,-9.77302,5.59513,-2.73981,-51.5947
2023-03-11 22:13:11:51,-0.292361,-0.990351,-9.7569,5.60595,-2.73419,-51.5762
2023-03-11 22:13:11:62,-0.37671,-0.980526,-9.75713,5.61946,-2.74356,-51.5576
2023-03-11 22:13:11:72,-0.440363,-0.993084,-9.72881,5.62747,-2.75505,-51.5431
2023-03-11 22:13:11:82,-0.447481,-0.998033,-9.69479,5.63585,-2.76765,-51.5387
2023-03-11 22:13:11:92,-0.451633,-0.997206,-9.70124,5.64354,-2.7819,-51.5316
2023-03-11 22:13:11:102,-0.478484,-0.958911,-9.74441,5.64479,-2.80023,-51.5267
2023-03-11 22:13:11:112,-0.501809,-0.947477,-9.76784,5.65218,-2.8191,-51.5268
2023-03-11 22:13:11:122,-0.514985,-0.943912,-9.75197,5.66395,-2.84141,-51.5302
2023-03-11 22:13:11:132,-0.508414,-0.944168,-9.75456,5.67729,-2.85978,-51.5337
2023-03-11 22:13:11:142,-0.470859,-0.942406,-9.80877,5.68907,-2.8817,-51.5407
2023-03-11 22:13:11:152,-0.469968,-0.933614,-9.82237,5.71168,-2.90721,-51.5458
2023-03-11 22:13:11:162,-0.527528,-0.959241,-9.75323,5.73251,-2.93942,-51.5529
2023-03-11 22:13:11:172,-0.577844,-0.98901,-9.68682,5.75756,-2.97229,-51.558
2023-03-11 22:13:11:182,-0.59591,-0.977302,-9.72684,5.78043,-3.01005,-51.5702
2023-03-11 22:13:11:192,-0.628826,-0.939688,-9.77505,5.79973,-3.04451,-51.5851
2023-03-11 22:13:11:202,-0.668786,-0.9321,-9.75552,5.82275,-3.07997,-51.6031
2023-03-11 22:13:11:212,-0.677836,-0.94681,-9.69772,5.84854,-3.11142,-51.6245
2023-03-11 22:13:11:222,-0.700294,-0.964016,-9.69278,5.87172,-3.13908,-51.6461
2023-03-11 22:13:11:232,-0.701873,-0.957879,-9.73841,5.90021,-3.16277,-51.6765
2023-03-11 22:13:11:242,-0.668,-0.91688,-9.77808,5.92861,-3.17842,-51.7127
2023-03-11 22:13:11:252,-0.550606,-0.928001,-9.79175,5.96043,-3.18725,-51.7501
2023-03-11 22:13:11:262,-0.522676,-0.953537,-9.7885,5.99496,-3.20381,-51.7828
2023-03-11 22:13:11:272,-0.598457,-0.980109,-9.73726,6.03085,-3.22596,-51.813
2023-03-11 22:13:11:282,-0.646218,-1.01867,-9.69234,6.06922,-3.25072,-51.8487
2023-03-11 22:13:11:292,-0.656452,-1.02216,-9.68735,6.1064,-3.26971,-51.8879
2023-03-11 22:13:11:302,-0.634889,-1.00343,-9.70252,6.14108,-3.28444,-51.9314
2023-03-11 22:13:11:311,-0.632027,-1.01918,-9.67642,6.17585,-3.30126,-51.9794
2023-03-11 22:13:11:321,-0.649316,-1.02797,-9.65103,6.20575,-3.3128,-52.0223
2023-03-11 22:13:11:331,-0.636399,-1.03541,-9.63994,6.23585,-3.31993,-52.0725
2023-03-11 22:13:11:341,-0.609967,-1.03448,-9.67576,6.26841,-3.32246,-52.1236
2023-03-11 22:13:11:351,-0.560827,-1.02349,-9.72063,6.29915,-3.32086,-52.182
2023-03-11 22:13:11:361,-0.550229,-1.04757,-9.74441,6.32907,-3.31551,-52.2332
2023-03-11 22:13:11:371,-0.558314,-1.07786,-9.72104,6.36419,-3.31319,-52.2848
2023-03-11 22:13:11:381,-0.545863,-1.11681,-9.6795,6.39725,-3.31364,-52.3337
2023-03-11 22:13:11:391,-0.504905,-1.14434,-9.66599,6.43097,-3.31578,-52.3839
2023-03-11 22:13:11:401,-0.490879,-1.13552,-9.66602,6.45619,-3.31607,-52.4283
2023-03-11 22:13:11:411,-0.503028,-1.10674,-9.69688,6.47916,-3.32346,-52.4699
2023-03-11 22:13:11:421,-0.52332,-1.08992,-9.69668,6.49995,-3.33445,-52.506
2023-03-11 22:13:11:432,-0.568281,-1.0984,-9.67109,6.51997,-3.34223,-52.5441
2023-03-11 22:13:11:442,-0.596731,-1.11105,-9.65693,6.53966,-3.35291,-52.5751
2023-03-11 22:13:11:451,-0.5946,-1.09964,-9.68565,6.55985,-3.35844,-52.6013
2023-03-11 22:13:11:462,-0.576849,-1.10838,-9.69643,6.57815,-3.36148,-52.6275
2023-03-11 22:13:11:471,-0.595255,-1.14871,-9.67534,6.59276,-3.36222,-52.6463
2023-03-11 22:13:11:482,-0.584217,-1.15061,-9.65231,6.60668,-3.36142,-52.659
2023-03-11 22:13:11:492,-0.55643,-1.16934,-9.6293,6.62078,-3.35942,-52.6705
2023-03-11 22:13:11:502,-0.576357,-1.16425,-9.62287,6.63005,-3.35276,-52.675
2023-03-11 22:13:11:512,-0.588336,-1.15199,-9.64456,6.63855,-3.3428,-52.6757
2023-03-11 22:13:11:522,-0.591552,-1.14289,-9.65893,6.64362,-3.33416,-52.6778
2023-03-11 22:13:11:532,-0.583999,-1.15063,-9.67659,6.64671,-3.32526,-52.6813
2023-03-11 22:13:11:542,-0.57112,-1.1374,-9.69683,6.65158,-3.31875,-52.6825
2023-03-11 22:13:11:552,-0.580276,-1.12907,-9.68785,6.65415,-3.30958,-52.6873
2023-03-11 22:13:11:562,-0.598896,-1.14042,-9.67129,6.6562,-3.3067,-52.6929
2023-03-11 22:13:11:572,-0.589056,-1.14926,-9.67491,6.65639,-3.30598,-52.6992
2023-03-11 22:13:11:582,-0.597884,-1.12005,-9.68048,6.65629,-3.30894,-52.7065
2023-03-11 22:13:11:592,-0.611173,-1.09844,-9.68525,6.65366,-3.31002,-52.7113
2023-03-11 22:13:11:602,-0.61876,-1.08509,-9.69943,6.65178,-3.31273,-52.723
2023-03-11 22:13:11:612,-0.612894,-1.05979,-9.75594,6.64973,-3.31169,-52.7328
2023-03-11 22:13:11:622,-0.617848,-1.03581,-9.77484,6.64686,-3.31288,-52.7417
2023-03-11 22:13:11:632,-0.63902,-1.05956,-9.78659,6.65164,-3.31364,-52.7526
2023-03-11 22:13:11:642,-0.652177,-1.08702,-9.76108,6.65745,-3.31147,-52.7608
2023-03-11 22:13:11:652,-0.645588,-1.10298,-9.72057,6.67065,-3.30621,-52.7692
2023-03-11 22:13:11:662,-0.62187,-1.11855,-9.69193,6.68406,-3.29635,-52.7787
2023-03-11 22:13:11:672,-0.576777,-1.13724,-9.65579,6.69805,-3.28604,-52.7906
2023-03-11 22:13:11:682,-0.531501,-1.16802,-9.61667,6.70951,-3.27486,-52.8043
2023-03-11 22:13:11:692,-0.563834,-1.16885,-9.61811,6.71677,-3.26522,-52.8113
2023-03-11 22:13:11:702,-0.591204,-1.16488,-9.67254,6.72366,-3.25707,-52.8162
2023-03-11 22:13:11:712,-0.566267,-1.11771,-9.76369,6.73066,-3.2508,-52.8246
2023-03-11 22:13:11:722,-0.52828,-1.06777,-9.84914,6.7345,-3.24285,-52.8341
2023-03-11 22:13:11:732,-0.468734,-1.10298,-9.87531,6.7454,-3.23134,-52.844
2023-03-11 22:13:11:742,-0.466594,-1.13243,-9.82697,6.76233,-3.22584,-52.8451
2023-03-11 22:13:11:752,-0.514737,-1.17386,-9.74925,6.78449,-3.2258,-52.8417
2023-03-11 22:13:11:762,-0.574549,-1.18246,-9.68732,6.80526,-3.22489,-52.8405
2023-03-11 22:13:11:772,-0.614637,-1.19508,-9.66914,6.81784,-3.22516,-52.8385
2023-03-11 22:13:11:782,-0.584346,-1.18954,-9.65797,6.83003,-3.21972,-52.84
2023-03-11 22:13:11:792,-0.561827,-1.15677,-9.65155,6.8409,-3.21435,-52.8414
2023-03-11 22:13:11:802,-0.548658,-1.12896,-9.6855,6.84759,-3.21213,-52.8436
2023-03-11 22:13:11:812,-0.545952,-1.0977,-9.71782,6.85588,-3.20901,-52.848
2023-03-11 22:13:11:822,-0.552166,-1.06595,-9.71564,6.86636,-3.20701,-52.8507
2023-03-11 22:13:11:832,-0.571128,-1.06521,-9.72389,6.87581,-3.20007,-52.8535
2023-03-11 22:13:11:842,-0.573711,-1.08579,-9.70932,6.89163,-3.19192,-52.8575
2023-03-11 22:13:11:852,-0.573743,-1.1126,-9.68256,6.91501,-3.1858,-52.863
2023-03-11 22:13:11:862,-0.570023,-1.15153,-9.6788,6.93613,-3.17767,-52.8706
2023-03-11 22:13:11:872,-0.552723,-1.18758,-9.68684,6.95852,-3.17174,-52.8769
2023-03-11 22:13:11:882,-0.518581,-1.19801,-9.6899,6.97825,-3.16514,-52.8859
2023-03-11 22:13:11:892,-0.519971,-1.20055,-9.71707,6.99646,-3.16096,-52.8912
2023-03-11 22:13:11:902,-0.512926,-1.18414,-9.763,7.01631,-3.15591,-52.905
2023-03-11 22:13:11:912,-0.466398,-1.15852,-9.79031,7.03805,-3.15389,-52.9234
2023-03-11 22:13:11:922,-0.456595,-1.1749,-9.7836,7.06473,-3.15667,-52.9348
2023-03-11 22:13:11:932,-0.502839,-1.19036,-9.72801,7.09437,-3.16469,-52.9435
2023-03-11 22:13:11:942,-0.555216,-1.18281,-9.71298,7.12007,-3.17295,-52.9586
2023-03-11 22:13:11:952,-0.52487,-1.156,-9.74183,7.14684,-3.1788,-52.9737
2023-03-11 22:13:11:962,-0.437521,-1.16106,-9.77842,7.17,-3.17762,-52.9933
2023-03-11 22:13:11:972,-0.43726,-1.16483,-9.76794,7.19624,-3.18084,-53.0031
2023-03-11 22:13:11:982,-0.482832,-1.17102,-9.73627,7.22711,-3.19164,-53.0103
2023-03-11 22:13:11:992,-0.581146,-1.14223,-9.77126,7.25862,-3.20911,-53.0137
2023-03-11 22:13:12:2,-0.645286,-1.10479,-9.79902,7.29289,-3.22391,-53.0236
2023-03-11 22:13:12:12,-0.676012,-1.13046,-9.78883,7.33069,-3.23489,-53.0383
2023-03-11 22:13:12:22,-0.66008,-1.17543,-9.71606,7.37345,-3.23955,-53.054
2023-03-11 22:13:12:32,-0.629978,-1.21571,-9.67072,7.42084,-3.23843,-53.0653
2023-03-11 22:13:12:42,-0.579146,-1.25996,-9.64238,7.46834,-3.23341,-53.0825
2023-03-11 22:13:12:52,-0.54574,-1.30371,-9.6314,7.51408,-3.22844,-53.0967
2023-03-11 22:13:12:62,-0.531971,-1.28426,-9.64584,7.55339,-3.22229,-53.1067
2023-03-11 22:13:12:72,-0.539327,-1.27003,-9.67172,7.59608,-3.22129,-53.1165
2023-03-11 22:13:12:82,-0.554497,-1.27017,-9.66735,7.63754,-3.22059,-53.1293
2023-03-11 22:13:12:92,-0.586546,-1.29675,-9.6405,7.67482,-3.21823,-53.1462
2023-03-11 22:13:12:102,-0.595765,-1.33165,-9.6227,7.71429,-3.21775,-53.1612
2023-03-11 22:13:12:112,-0.550536,-1.36063,-9.61028,7.74886,-3.21627,-53.1782
2023-03-11 22:13:12:122,-0.516345,-1.38722,-9.58697,7.78639,-3.21374,-53.1946
2023-03-11 22:13:12:132,-0.510182,-1.39861,-9.56856,7.81736,-3.2114,-53.2077
2023-03-11 22:13:12:142,-0.520253,-1.41832,-9.56543,7.84348,-3.2116,-53.221
2023-03-11 22:13:12:152,-0.519721,-1.43174,-9.56983,7.86457,-3.21263,-53.2302
2023-03-11 22:13:12:162,-0.51258,-1.43425,-9.55309,7.88003,-3.21662,-53.2386
2023-03-11 22:13:12:172,-0.528189,-1.43395,-9.56454,7.89081,-3.21847,-53.2439
2023-03-11 22:13:12:182,-0.519645,-1.40408,-9.57963,7.89573,-3.21988,-53.2468
2023-03-11 22:13:12:192,-0.512086,-1.35485,-9.64828,7.89517,-3.22297,-53.2539
2023-03-11 22:13:12:202,-0.531443,-1.30621,-9.70183,7.89145,-3.22346,-53.2569
2023-03-11 22:13:12:212,-0.55099,-1.30567,-9.71291,7.89027,-3.2216,-53.2573
2023-03-11 22:13:12:222,-0.54404,-1.30901,-9.68951,7.89244,-3.21699,-53.2557
2023-03-11 22:13:12:232,-0.528977,-1.33212,-9.68315,7.8942,-3.21354,-53.2506
2023-03-11 22:13:12:242,-0.540689,-1.33525,-9.66094,7.89625,-3.20979,-53.2452
2023-03-11 22:13:12:252,-0.577271,-1.31685,-9.65358,7.89896,-3.21051,-53.2387
2023-03-11 22:13:12:262,-0.586362,-1.3325,-9.63547,7.90052,-3.21054,-53.2359
2023-03-11 22:13:12:272,-0.588743,-1.34304,-9.65033,7.89977,-3.20714,-53.2322
2023-03-11 22:13:12:282,-0.605424,-1.333,-9.65718,7.89682,-3.20691,-53.229
2023-03-11 22:13:12:292,-0.597938,-1.33743,-9.67088,7.89613,-3.20617,-53.2299
2023-03-11 22:13:12:302,-0.590595,-1.30564,-9.70666,7.89242,-3.20553,-53.2301
2023-03-11 22:13:12:312,-0.571262,-1.29851,-9.74009,7.89253,-3.20562,-53.2313
2023-03-11 22:13:12:322,-0.571085,-1.2993,-9.73838,7.89538,-3.203,-53.2316
2023-03-11 22:13:12:332,-0.601181,-1.30771,-9.70475,7.90238,-3.2033,-53.2297
2023-03-11 22:13:12:342,-0.633308,-1.31985,-9.6865,7.90465,-3.19973,-53.2294
2023-03-11 22:13:12:352,-0.645659,-1.30063,-9.70927,7.9076,-3.19378,-53.2306
2023-03-11 22:13:12:362,-0.652613,-1.27212,-9.72339,7.9113,-3.18562,-53.2364
2023-03-11 22:13:12:372,-0.63742,-1.27736,-9.71751,7.91903,-3.17851,-53.2464
2023-03-11 22:13:12:382,-0.610034,-1.30133,-9.67791,7.93009,-3.16886,-53.2575
2023-03-11 22:13:12:392,-0.593936,-1.34002,-9.63236,7.94293,-3.15542,-53.2688
2023-03-11 22:13:12:402,-0.615683,-1.35683,-9.6176,7.9584,-3.14176,-53.2777
2023-03-11 22:13:12:412,-0.599874,-1.34848,-9.65888,7.9677,-3.12906,-53.2934
2023-03-11 22:13:12:422,-0.540139,-1.3368,-9.70679,7.97399,-3.11516,-53.3094
2023-03-11 22:13:12:432,-0.453893,-1.35305,-9.72855,7.9863,-3.10019,-53.3273
2023-03-11 22:13:12:442,-0.406109,-1.38737,-9.70111,7.99955,-3.08756,-53.3396
2023-03-11 22:13:12:452,-0.46792,-1.42589,-9.65199,8.00802,-3.08152,-53.3439
2023-03-11 22:13:12:462,-0.517211,-1.43138,-9.6116,8.02146,-3.07954,-53.3497
2023-03-11 22:13:12:472,-0.534618,-1.42634,-9.61225,8.02909,-3.08022,-53.3535
2023-03-11 22:13:12:482,-0.557526,-1.41495,-9.60071,8.03021,-3.07637,-53.3584
2023-03-11 22:13:12:492,-0.565073,-1.39011,-9.62169,8.02731,-3.07438,-53.3602
2023-03-11 22:13:12:502,-0.569272,-1.34996,-9.64482,8.0188,-3.07707,-53.3645
2023-03-11 22:13:12:512,-0.569716,-1.33025,-9.66682,8.01114,-3.07483,-53.3682
2023-03-11 22:13:12:522,-0.589746,-1.31002,-9.68197,8.00541,-3.07068,-53.3662
2023-03-11 22:13:12:532,-0.617053,-1.30261,-9.68246,8.00239,-3.06593,-53.3663
2023-03-11 22:13:12:542,-0.635148,-1.31543,-9.67014,7.99989,-3.06048,-53.3698
2023-03-11 22:13:12:552,-0.636915,-1.29268,-9.65149,7.99819,-3.05406,-53.3776
2023-03-11 22:13:12:562,-0.667509,-1.29555,-9.65789,7.99678,-3.04754,-53.3873
2023-03-11 22:13:12:572,-0.695902,-1.29847,-9.6713,7.99657,-3.03484,-53.4009
2023-03-11 22:13:12:581,-0.702719,-1.31282,-9.68138,7.99636,-3.02275,-53.4201
2023-03-11 22:13:12:591,-0.691881,-1.32098,-9.67943,8.00215,-3.00696,-53.4474
2023-03-11 22:13:12:602,-0.636355,-1.33488,-9.68683,8.00627,-2.98919,-53.4799
2023-03-11 22:13:12:612,-0.557746,-1.33233,-9.68256,8.00727,-2.96307,-53.5147
2023-03-11 22:13:12:622,-0.497352,-1.34482,-9.68304,8.01052,-2.94004,-53.5483
2023-03-11 22:13:12:632,-0.528041,-1.349,-9.69333,8.01234,-2.92177,-53.583
2023-03-11 22:13:12:642,-0.546168,-1.34234,-9.70218,8.01066,-2.89892,-53.6187
2023-03-11 22:13:12:652,-0.53404,-1.31768,-9.71736,8.00682,-2.87649,-53.6528
2023-03-11 22:13:12:662,-0.457363,-1.31745,-9.73448,8.00327,-2.84866,-53.6919
2023-03-11 22:13:12:672,-0.39285,-1.32645,-9.72926,8.00514,-2.82264,-53.7221
2023-03-11 22:13:12:682,-0.387309,-1.33071,-9.70098,8.00771,-2.80132,-53.7539
2023-03-11 22:13:12:692,-0.400587,-1.3525,-9.67687,8.01125,-2.78396,-53.7813
2023-03-11 22:13:12:702,-0.399868,-1.36194,-9.66392,8.01646,-2.76389,-53.8099
2023-03-11 22:13:12:712,-0.395419,-1.36652,-9.68578,8.02059,-2.74168,-53.834
2023-03-11 22:13:12:722,-0.384064,-1.3428,-9.71857,8.0236,-2.72117,-53.859
2023-03-11 22:13:12:732,-0.388784,-1.31437,-9.71338,8.02139,-2.70453,-53.8785
2023-03-11 22:13:12:742,-0.383737,-1.31898,-9.69742,8.02455,-2.68919,-53.9006
2023-03-11 22:13:12:752,-0.335289,-1.34015,-9.70067,8.02555,-2.67887,-53.9181
2023-03-11 22:13:12:762,-0.344124,-1.3453,-9.70298,8.03051,-2.6712,-53.9332
2023-03-11 22:13:12:772,-0.346472,-1.34741,-9.69597,8.03602,-2.66391,-53.9489
2023-03-11 22:13:12:782,-0.350064,-1.32682,-9.69659,8.04057,-2.65808,-53.9588
2023-03-11 22:13:12:792,-0.354668,-1.33482,-9.68483,8.04816,-2.65155,-53.9659
2023-03-11 22:13:12:802,-0.361803,-1.35585,-9.67702,8.05466,-2.64979,-53.973
2023-03-11 22:13:12:812,-0.367908,-1.3681,-9.65368,8.06347,-2.65353,-53.978
2023-03-11 22:13:12:822,-0.358636,-1.37275,-9.65408,8.06902,-2.65336,-53.9823
2023-03-11 22:13:12:832,-0.347628,-1.38455,-9.67702,8.07237,-2.65305,-53.9801
2023-03-11 22:13:12:842,-0.35472,-1.3794,-9.67445,8.07658,-2.65925,-53.9721
2023-03-11 22:13:12:852,-0.368803,-1.38376,-9.66828,8.07978,-2.66342,-53.9653
2023-03-11 22:13:12:862,-0.38644,-1.39501,-9.67055,8.08247,-2.67037,-53.9544
2023-03-11 22:13:12:872,-0.412772,-1.40074,-9.65727,8.08627,-2.67663,-53.9463
2023-03-11 22:13:12:882,-0.427965,-1.40711,-9.65113,8.09188,-2.68484,-53.938
2023-03-11 22:13:12:892,-0.454513,-1.40527,-9.65061,8.09189,-2.69219,-53.9257
2023-03-11 22:13:12:902,-0.475234,-1.41348,-9.65304,8.09147,-2.70021,-53.9099
2023-03-11 22:13:12:912,-0.477154,-1.40218,-9.65339,8.09048,-2.70921,-53.9001
2023-03-11 22:13:12:922,-0.471911,-1.39296,-9.65422,8.08762,-2.71503,-53.8897
2023-03-11 22:13:12:932,-0.470699,-1.38828,-9.63916,8.08452,-2.72218,-53.8833
2023-03-11 22:13:12:942,-0.456982,-1.38702,-9.63241,8.07723,-2.73133,-53.8779
2023-03-11 22:13:12:952,-0.446505,-1.37844,-9.6539,8.06904,-2.73939,-53.8703
2023-03-11 22:13:12:962,-0.442352,-1.35234,-9.67964,8.05886,-2.74392,-53.8636
2023-03-11 22:13:12:972,-0.41582,-1.34484,-9.69628,8.048,-2.75393,-53.856
2023-03-11 22:13:12:982,-0.429012,-1.3484,-9.67842,8.0403,-2.76224,-53.847
2023-03-11 22:13:12:992,-0.453137,-1.34801,-9.6996,8.03183,-2.77158,-53.8368
2023-03-11 22:13:13:2,-0.457779,-1.34057,-9.71192,8.02343,-2.78264,-53.8274
2023-03-11 22:13:13:12,-0.480498,-1.33989,-9.70553,8.01294,-2.79242,-53.8115
2023-03-11 22:13:13:22,-0.492742,-1.33241,-9.70186,8.00463,-2.80094,-53.7989
2023-03-11 22:13:13:32,-0.491169,-1.32422,-9.70022,8.0005,-2.80971,-53.7845
2023-03-11 22:13:13:42,-0.512499,-1.3303,-9.69664,7.993,-2.82081,-53.7664
2023-03-11 22:13:13:52,-0.543105,-1.32407,-9.70844,7.9897,-2.83168,-53.7507
2023-03-11 22:13:13:62,-0.538782,-1.30376,-9.71597,7.98793,-2.83804,-53.7373
2023-03-11 22:13:13:72,-0.549163,-1.31006,-9.71039,7.98723,-2.84206,-53.7266
2023-03-11 22:13:13:82,-0.530549,-1.32227,-9.68351,7.98378,-2.84405,-53.7209
2023-03-11 22:13:13:92,-0.492891,-1.34731,-9.6694,7.98416,-2.84438,-53.7133
2023-03-11 22:13:13:102,-0.465541,-1.34737,-9.65792,7.98382,-2.84846,-53.7043
2023-03-11 22:13:13:112,-0.460907,-1.36772,-9.64611,7.98183,-2.85588,-53.6946
2023-03-11 22:13:13:122,-0.484274,-1.36447,-9.64887,7.97659,-2.85948,-53.6848
2023-03-11 22:13:13:132,-0.465692,-1.3652,-9.67196,7.97116,-2.86655,-53.6782
2023-03-11 22:13:13:142,-0.403566,-1.39184,-9.68846,7.96485,-2.8723,-53.6725
2023-03-11 22:13:13:152,-0.330671,-1.41185,-9.67945,7.95824,-2.87974,-53.6646
2023-03-11 22:13:13:162,-0.337934,-1.44633,-9.65811,7.94983,-2.89526,-53.6482
2023-03-11 22:13:13:172,-0.415245,-1.42032,-9.62813,7.94038,-2.9161,-53.6309
2023-03-11 22:13:13:182,-0.496025,-1.41352,-9.61581,7.92183,-2.94331,-53.6102
2023-03-11 22:13:13:192,-0.56911,-1.35705,-9.60826,7.90101,-2.9722,-53.5897
2023-03-11 22:13:13:202,-0.598974,-1.29249,-9.63384,7.87778,-2.99539,-53.5738
2023-03-11 22:13:13:212,-0.602725,-1.30139,-9.65932,7.85514,-3.01344,-53.5569
2023-03-11 22:13:13:222,-0.608836,-1.29906,-9.66818,7.83287,-3.02575,-53.5422
2023-03-11 22:13:13:232,-0.591358,-1.28828,-9.64431,7.81396,-3.03535,-53.5305
2023-03-11 22:13:13:242,-0.573071,-1.28759,-9.63939,7.79043,-3.04177,-53.5167
2023-03-11 22:13:13:252,-0.580466,-1.2805,-9.65485,7.76745,-3.04846,-53.5032
2023-03-11 22:13:13:262,-0.59931,-1.279,-9.6566,7.74071,-3.05883,-53.4915
2023-03-11 22:13:13:272,-0.619832,-1.27193,-9.67428,7.71732,-3.07009,-53.4847
2023-03-11 22:13:13:282,-0.620451,-1.24902,-9.70701,7.69158,-3.07689,-53.4824
2023-03-11 22:13:13:292,-0.618583,-1.24497,-9.73415,7.6653,-3.08687,-53.4813
2023-03-11 22:13:13:302,-0.643106,-1.2349,-9.73582,7.64176,-3.09865,-53.4822
2023-03-11 22:13:13:312,-0.639197,-1.22879,-9.72331,7.62006,-3.10593,-53.4882
2023-03-11 22:13:13:322,-0.596943,-1.23592,-9.71487,7.59455,-3.10791,-53.4944
2023-03-11 22:13:13:332,-0.571973,-1.22529,-9.70026,7.56991,-3.11421,-53.5022
2023-03-11 22:13:13:342,-0.605534,-1.1979,-9.71278,7.54869,-3.12107,-53.5085
2023-03-11 22:13:13:352,-0.657395,-1.2014,-9.74728,7.52444,-3.12638,-53.5149
2023-03-11 22:13:13:362,-0.680636,-1.17923,-9.76046,7.50337,-3.12846,-53.5197
2023-03-11 22:13:13:372,-0.615996,-1.16923,-9.76687,7.48735,-3.12751,-53.5325
2023-03-11 22:13:13:382,-0.57163,-1.17352,-9.78548,7.47134,-3.12675,-53.5498
2023-03-11 22:13:13:392,-0.589377,-1.15156,-9.79515,7.46112,-3.12549,-53.5598
2023-03-11 22:13:13:402,-0.643226,-1.14509,-9.78513,7.45323,-3.12391,-53.5701
2023-03-11 22:13:13:412,-0.662863,-1.16293,-9.75845,7.44856,-3.12516,-53.5872
2023-03-11 22:13:13:421,-0.654275,-1.17906,-9.74118,7.44789,-3.12297,-53.6051
2023-03-11 22:13:13:431,-0.617506,-1.20693,-9.70799,7.44675,-3.11675,-53.6269
2023-03-11 22:13:13:442,-0.554627,-1.22289,-9.6912,7.44857,-3.10842,-53.6484
2023-03-11 22:13:13:452,-0.509721,-1.20969,-9.68686,7.44608,-3.09569,-53.668
2023-03-11 22:13:13:462,-0.490079,-1.19668,-9.70661,7.44382,-3.08584,-53.6846
2023-03-11 22:13:13:472,-0.492166,-1.21411,-9.7207,7.44252,-3.07635,-53.6954
2023-03-11 22:13:13:482,-0.503294,-1.21366,-9.71353,7.44205,-3.06823,-53.7057
2023-03-11 22:13:13:492,-0.516465,-1.2205,-9.7058,7.44167,-3.06463,-53.7114
2023-03-11 22:13:13:502,-0.537354,-1.21361,-9.67462,7.44137,-3.05948,-53.7192
2023-03-11 22:13:13:512,-0.533179,-1.22691,-9.63199,7.44102,-3.05295,-53.7252
2023-03-11 22:13:13:522,-0.495727,-1.24611,-9.61914,7.43894,-3.03989,-53.7286
2023-03-11 22:13:13:532,-0.438416,-1.26089,-9.63581,7.43218,-3.02533,-53.7301
2023-03-11 22:13:13:542,-0.400701,-1.24759,-9.69048,7.42682,-3.01419,-53.7264
2023-03-11 22:13:13:552,-0.404147,-1.2444,-9.71951,7.42288,-3.00677,-53.7231
2023-03-11 22:13:13:562,-0.437763,-1.2574,-9.6981,7.41308,-3.00683,-53.7144
2023-03-11 22:13:13:572,-0.458285,-1.26628,-9.67406,7.40492,-3.0079,-53.7019
2023-03-11 22:13:13:582,-0.481388,-1.2709,-9.65903,7.39926,-3.01077,-53.6936
2023-03-11 22:13:13:592,-0.511101,-1.25569,-9.63908,7.39023,-3.01711,-53.6877
2023-03-11 22:13:13:601,-0.553871,-1.26038,-9.65209,7.37713,-3.02008,-53.6835
2023-03-11 22:13:13:611,-0.573872,-1.24109,-9.66544,7.36436,-3.02911,-53.6795
2023-03-11 22:13:13:622,-0.588803,-1.22237,-9.68965,7.34572,-3.03434,-53.6807
2023-03-11 22:13:13:632,-0.603205,-1.21723,-9.69821,7.33132,-3.03968,-53.6812
2023-03-11 22:13:13:642,-0.581767,-1.23331,-9.69445,7.31499,-3.04238,-53.6858
2023-03-11 22:13:13:652,-0.554647,-1.24181,-9.66637,7.30161,-3.04422,-53.6916
2023-03-11 22:13:13:662,-0.534074,-1.23722,-9.64332,7.29145,-3.04828,-53.7002
2023-03-11 22:13:13:672,-0.545462,-1.24534,-9.66734,7.27432,-3.04942,-53.7089
2023-03-11 22:13:13:682,-0.541301,-1.21327,-9.69733,7.25878,-3.05332,-53.7194
2023-03-11 22:13:13:692,-0.522266,-1.18935,-9.74674,7.23878,-3.05895,-53.7322
2023-03-11 22:13:13:702,-0.520259,-1.17233,-9.75424,7.22017,-3.06512,-53.7459
2023-03-11 22:13:13:712,-0.515934,-1.15937,-9.76783,7.20785,-3.06839,-53.7597
2023-03-11 22:13:13:722,-0.508598,-1.17734,-9.76968,7.20113,-3.07338,-53.7707
2023-03-11 22:13:13:732,-0.509122,-1.18326,-9.73693,7.19571,-3.07542,-53.776
2023-03-11 22:13:13:742,-0.51976,-1.18479,-9.69672,7.18962,-3.07991,-53.7839
2023-03-11 22:13:13:752,-0.539632,-1.21344,-9.67803,7.18725,-3.08402,-53.7884
2023-03-11 22:13:13:762,-0.544972,-1.23097,-9.64356,7.18311,-3.08323,-53.7915
2023-03-11 22:13:13:772,-0.524084,-1.22364,-9.6512,7.17761,-3.07949,-53.7922
2023-03-11 22:13:13:782,-0.524357,-1.19561,-9.67479,7.17004,-3.07423,-53.7894
2023-03-11 22:13:13:792,-0.548603,-1.16801,-9.72272,7.1618,-3.07159,-53.7845
2023-03-11 22:13:13:802,-0.561902,-1.15595,-9.73831,7.15051,-3.0678,-53.7859
2023-03-11 22:13:13:812,-0.546746,-1.16107,-9.73739,7.14304,-3.0619,-53.7885
2023-03-11 22:13:13:822,-0.537976,-1.17138,-9.72363,7.13759,-3.05508,-53.7911
2023-03-11 22:13:13:832,-0.526958,-1.16693,-9.68765,7.13579,-3.05369,-53.798
2023-03-11 22:13:13:842,-0.508641,-1.16894,-9.66949,7.13674,-3.04634,-53.8032
2023-03-11 22:13:13:852,-0.528395,-1.18982,-9.67299,7.13947,-3.04192,-53.8092
2023-03-11 22:13:13:862,-0.537094,-1.20341,-9.69743,7.13856,-3.03661,-53.8175
2023-03-11 22:13:13:872,-0.47052,-1.19067,-9.74362,7.13807,-3.02637,-53.8272
2023-03-11 22:13:13:882,-0.367984,-1.18911,-9.79722,7.14013,-3.01858,-53.8363
2023-03-11 22:13:13:892,-0.333837,-1.20108,-9.81236,7.14242,-3.01806,-53.8381
2023-03-11 22:13:13:902,-0.383143,-1.19802,-9.76666,7.14318,-3.02019,-53.8294
2023-03-11 22:13:13:912,-0.472594,-1.19427,-9.72233,7.14483,-3.03055,-53.8179
2023-03-11 22:13:13:922,-0.537936,-1.18303,-9.70628,7.14528,-3.03979,-53.8118
2023-03-11 22:13:13:932,-0.565987,-1.1576,-9.68242,7.14102,-3.05187,-53.8018
2023-03-11 22:13:13:942,-0.556138,-1.13667,-9.69277,7.13917,-3.05768,-53.7949
2023-03-11 22:13:13:952,-0.567458,-1.1236,-9.70116,7.13974,-3.06086,-53.7876
2023-03-11 22:13:13:962,-0.589918,-1.09362,-9.72193,7.14208,-3.06349,-53.7789
2023-03-11 22:13:13:972,-0.589,-1.08713,-9.72238,7.14773,-3.06349,-53.7714
2023-03-11 22:13:13:982,-0.587618,-1.11017,-9.68446,7.15362,-3.06509,-53.7633
2023-03-11 22:13:13:992,-0.609131,-1.1295,-9.6632,7.16439,-3.06451,-53.7579
2023-03-11 22:13:14:2,-0.602069,-1.15137,-9.66203,7.17587,-3.06496,-53.7578
2023-03-11 22:13:14:12,-0.603525,-1.1684,-9.67718,7.18467,-3.06683,-53.7576
2023-03-11 22:13:14:22,-0.58526,-1.18954,-9.71574,7.19592,-3.06528,-53.7611
2023-03-11 22:13:14:32,-0.582276,-1.20768,-9.71892,7.20646,-3.06575,-53.7674
2023-03-11 22:13:14:42,-0.577954,-1.22465,-9.73649,7.2174,-3.0634,-53.7768
2023-03-11 22:13:14:52,-0.538826,-1.22169,-9.7396,7.2294,-3.06149,-53.7867
2023-03-11 22:13:14:62,-0.495152,-1.2198,-9.70476,7.24242,-3.05819,-53.7959
2023-03-11 22:13:14:72,-0.511049,-1.22218,-9.65881,7.25274,-3.05536,-53.7968
2023-03-11 22:13:14:82,-0.56171,-1.24147,-9.65234,7.26279,-3.05612,-53.7984
2023-03-11 22:13:14:92,-0.582826,-1.23645,-9.66537,7.27425,-3.05088,-53.7987
2023-03-11 22:13:14:102,-0.500802,-1.21869,-9.69537,7.27859,-3.04189,-53.8006
2023-03-11 22:13:14:111,-0.388148,-1.22747,-9.73903,7.28233,-3.03096,-53.7993
2023-03-11 22:13:14:122,-0.410264,-1.24636,-9.72247,7.28999,-3.02855,-53.7899
2023-03-11 22:13:14:132,-0.493197,-1.24632,-9.70229,7.2956,-3.02739,-53.776
2023-03-11 22:13:14:142,-0.539291,-1.24133,-9.68731,7.30715,-3.02893,-53.7643
2023-03-11 22:13:14:152,-0.57587,-1.23576,-9.66983,7.31643,-3.0296,-53.754
2023-03-11 22:13:14:162,-0.573998,-1.24419,-9.65187,7.32763,-3.02703,-53.7451
2023-03-11 22:13:14:172,-0.557048,-1.24172,-9.66464,7.3307,-3.02078,-53.7372
2023-03-11 22:13:14:182,-0.534692,-1.23818,-9.71561,7.33582,-3.01307,-53.7309
2023-03-11 22:13:14:192,-0.515523,-1.20944,-9.73244,7.34165,-3.00586,-53.726
2023-03-11 22:13:14:202,-0.491301,-1.18867,-9.73409,7.34966,-3.00431,-53.7215
2023-03-11 22:13:14:212,-0.490323,-1.19989,-9.74265,7.36188,-3.00379,-53.7204
2023-03-11 22:13:14:222,-0.507773,-1.23732,-9.73011,7.37717,-3.00577,-53.7193
2023-03-11 22:13:14:232,-0.502513,-1.27122,-9.68811,7.39142,-3.00928,-53.7207
2023-03-11 22:13:14:242,-0.506988,-1.29513,-9.63876,7.40966,-3.01654,-53.7262
2023-03-11 22:13:14:252,-0.513792,-1.30219,-9.60733,7.42048,-3.02275,-53.7291
2023-03-11 22:13:14:262,-0.505775,-1.30883,-9.61615,7.42734,-3.02917,-53.7345
2023-03-11 22:13:14:272,-0.485832,-1.29229,-9.63551,7.43009,-3.03437,-53.7395
2023-03-11 22:13:14:282,-0.50048,-1.26958,-9.67288,7.43,-3.04042,-53.7418
2023-03-11 22:13:14:292,-0.52812,-1.24941,-9.69647,7.4272,-3.05126,-53.7384
2023-03-11 22:13:14:302,-0.556522,-1.24831,-9.70779,7.42573,-3.059,-53.7371
2023-03-11 22:13:14:312,-0.575299,-1.25384,-9.70635,7.42461,-3.06662,-53.7371
2023-03-11 22:13:14:322,-0.576006,-1.25445,-9.68255,7.4259,-3.07189,-53.7366
2023-03-11 22:13:14:332,-0.582237,-1.27892,-9.64309,7.43092,-3.07261,-53.7372
2023-03-11 22:13:14:342,-0.588364,-1.27037,-9.61532,7.42872,-3.07344,-53.7343
2023-03-11 22:13:14:352,-0.59486,-1.26569,-9.62063,7.42336,-3.0783,-53.7367
2023-03-11 22:13:14:362,-0.591032,-1.21735,-9.70394,7.40936,-3.07809,-53.7468
2023-03-11 22:13:14:382,-0.592888,-1.18793,-9.74569,7.40153,-3.07558,-53.7528
2023-03-11 22:13:14:392,-0.574461,-1.18799,-9.73403,7.39657,-3.06973,-53.7557
2023-03-11 22:13:14:402,-0.549754,-1.19795,-9.70722,7.3977,-3.06917,-53.7641
2023-03-11 22:13:14:412,-0.537399,-1.20393,-9.68289,7.39806,-3.06383,-53.7711
2023-03-11 22:13:14:422,-0.535399,-1.21798,-9.6753,7.39706,-3.05579,-53.7757
2023-03-11 22:13:14:432,-0.536219,-1.23583,-9.68152,7.39644,-3.04699,-53.7802
2023-03-11 22:13:14:442,-0.527937,-1.23317,-9.67951,7.39328,-3.04186,-53.7861
2023-03-11 22:13:14:452,-0.526774,-1.21765,-9.69405,7.38777,-3.03649,-53.7933
2023-03-11 22:13:14:462,-0.530007,-1.21153,-9.71207,7.38394,-3.02671,-53.799
2023-03-11 22:13:14:472,-0.537024,-1.20012,-9.73899,7.38013,-3.02222,-53.806
2023-03-11 22:13:14:482,-0.53378,-1.1792,-9.75057,7.37886,-3.02149,-53.8117
2023-03-11 22:13:14:492,-0.533846,-1.17797,-9.73662,7.37966,-3.01516,-53.8172
2023-03-11 22:13:14:502,-0.547192,-1.19659,-9.71789,7.38132,-3.00636,-53.8221
2023-03-11 22:13:14:512,-0.535238,-1.20307,-9.70613,7.38282,-3.00074,-53.8288
2023-03-11 22:13:14:522,-0.522112,-1.20126,-9.69086,7.38418,-2.99288,-53.8374
2023-03-11 22:13:14:532,-0.510006,-1.20871,-9.6696,7.38704,-2.98559,-53.8468
2023-03-11 22:13:14:542,-0.497912,-1.22222,-9.64491,7.39058,-2.97439,-53.857
2023-03-11 22:13:14:552,-0.487447,-1.24923,-9.64431,7.38991,-2.96654,-53.8632
2023-03-11 22:13:14:562,-0.49816,-1.24256,-9.66257,7.38944,-2.95787,-53.8713
2023-03-11 22:13:14:572,-0.496814,-1.23729,-9.74832,7.38691,-2.95131,-53.8799
2023-03-11 22:13:14:582,-0.442274,-1.22462,-9.8021,7.38887,-2.94269,-53.8906
2023-03-11 22:13:14:592,-0.372737,-1.24326,-9.81142,7.39767,-2.93535,-53.8969
2023-03-11 22:13:14:602,-0.365503,-1.26051,-9.783,7.40056,-2.93546,-53.8953
2023-03-11 22:13:14:612,-0.447376,-1.24432,-9.74725,7.4094,-2.94341,-53.8894
2023-03-11 22:13:14:622,-0.525296,-1.23335,-9.71412,7.41704,-2.95179,-53.8835
2023-03-11 22:13:14:632,-0.557495,-1.22483,-9.6881,7.42076,-2.95891,-53.8821
2023-03-11 22:13:14:642,-0.569622,-1.21787,-9.65863,7.41704,-2.96036,-53.88
2023-03-11 22:13:14:652,-0.552766,-1.20706,-9.64116,7.41886,-2.96034,-53.8768
2023-03-11 22:13:14:662,-0.542531,-1.1876,-9.64389,7.41757,-2.9664,-53.8767
2023-03-11 22:13:14:672,-0.558117,-1.17138,-9.6606,7.41564,-2.96783,-53.8749
2023-03-11 22:13:14:682,-0.573944,-1.15162,-9.68529,7.41733,-2.96758,-53.876
2023-03-11 22:13:14:692,-0.576582,-1.1604,-9.71191,7.42352,-2.96813,-53.8789
2023-03-11 22:13:14:702,-0.555352,-1.18766,-9.70218,7.43009,-2.96719,-53.8811
2023-03-11 22:13:14:712,-0.542731,-1.21145,-9.66957,7.43983,-2.96077,-53.8829
2023-03-11 22:13:14:722,-0.552409,-1.24825,-9.65963,7.44887,-2.9572,-53.889
2023-03-11 22:13:14:732,-0.549491,-1.26493,-9.66015,7.45784,-2.95053,-53.8925
2023-03-11 22:13:14:742,-0.543798,-1.27761,-9.66192,7.46539,-2.94295,-53.8997
2023-03-11 22:13:14:752,-0.515207,-1.29563,-9.66107,7.47012,-2.93356,-53.9045
2023-03-11 22:13:14:762,-0.4745,-1.28907,-9.64376,7.47243,-2.9247,-53.9083
2023-03-11 22:13:14:772,-0.452022,-1.27853,-9.67221,7.46992,-2.91442,-53.9091
2023-03-11 22:13:14:782,-0.50439,-1.24857,-9.71401,7.46321,-2.90558,-53.9088
2023-03-11 22:13:14:792,-0.558555,-1.22832,-9.73538,7.45622,-2.90151,-53.9119
2023-03-11 22:13:14:802,-0.559553,-1.17744,-9.72921,7.44878,-2.8921,-53.9234
2023-03-11 22:13:14:812,-0.441315,-1.17634,-9.73809,7.44774,-2.87897,-53.9369
2023-03-11 22:13:14:822,-0.393069,-1.2069,-9.73202,7.44835,-2.86618,-53.9489
2023-03-11 22:13:14:832,-0.431291,-1.22402,-9.69445,7.44975,-2.8604,-53.955
2023-03-11 22:13:14:842,-0.468399,-1.24519,-9.66254,7.45446,-2.85651,-53.9656
2023-03-11 22:13:14:852,-0.490263,-1.24688,-9.65095,7.45367,-2.85194,-53.9747
2023-03-11 22:13:14:862,-0.473027,-1.23967,-9.66309,7.45398,-2.84983,-53.9811
2023-03-11 22:13:14:872,-0.452364,-1.24203,-9.71086,7.45682,-2.84527,-53.9897
2023-03-11 22:13:14:882,-0.427552,-1.23029,-9.74891,7.45433,-2.84119,-53.9949
2023-03-11 22:13:14:892,-0.427479,-1.22206,-9.73199,7.45662,-2.83725,-53.9964
2023-03-11 22:13:14:902,-0.451861,-1.22749,-9.71735,7.45932,-2.83526,-53.9927
2023-03-11 22:13:14:912,-0.47543,-1.23358,-9.70027,7.46555,-2.83313,-53.9937
2023-03-11 22:13:14:922,-0.460651,-1.23537,-9.68372,7.47235,-2.82891,-53.9898
2023-03-11 22:13:14:932,-0.456664,-1.26864,-9.68368,7.47888,-2.82616,-53.9865
2023-03-11 22:13:14:942,-0.457443,-1.27748,-9.65474,7.48366,-2.8234,-53.9804
2023-03-11 22:13:14:952,-0.474546,-1.29069,-9.65142,7.48558,-2.82327,-53.9761
2023-03-11 22:13:14:962,-0.470005,-1.29257,-9.64691,7.48579,-2.82215,-53.9753
2023-03-11 22:13:14:972,-0.455314,-1.27922,-9.6731,7.48716,-2.82266,-53.9725
2023-03-11 22:13:14:982,-0.444339,-1.28184,-9.69146,7.48572,-2.82762,-53.9722
2023-03-11 22:13:14:992,-0.454129,-1.27956,-9.67627,7.48297,-2.83395,-53.9727
2023-03-11 22:13:15:2,-0.470046,-1.27754,-9.67303,7.48042,-2.84252,-53.9678
2023-03-11 22:13:15:12,-0.497088,-1.2737,-9.67261,7.48253,-2.84945,-53.9664
2023-03-11 22:13:15:22,-0.523193,-1.25657,-9.66422,7.47748,-2.85945,-53.9639
2023-03-11 22:13:15:32,-0.546942,-1.26065,-9.67134,7.47137,-2.87082,-53.963
2023-03-11 22:13:15:42,-0.545613,-1.25722,-9.67356,7.46758,-2.87911,-53.9628
2023-03-11 22:13:15:52,-0.535491,-1.24608,-9.67567,7.45956,-2.8849,-53.9621
2023-03-11 22:13:15:62,-0.53347,-1.23405,-9.67518,7.45154,-2.8894,-53.9595
2023-03-11 22:13:15:72,-0.53707,-1.22953,-9.68029,7.44587,-2.89164,-53.9549
2023-03-11 22:13:15:82,-0.556811,-1.22506,-9.6926,7.44116,-2.89262,-53.9539
2023-03-11 22:13:15:92,-0.56051,-1.22837,-9.69482,7.43718,-2.89314,-53.9545
2023-03-11 22:13:15:102,-0.533178,-1.22119,-9.69124,7.42965,-2.89706,-53.9577
2023-03-11 22:13:15:112,-0.513816,-1.22234,-9.71628,7.42556,-2.89541,-53.9559
2023-03-11 22:13:15:122,-0.5118,-1.20742,-9.73576,7.41767,-2.90212,-53.9566
2023-03-11 22:13:15:132,-0.522197,-1.19953,-9.73188,7.41418,-2.90401,-53.9571
2023-03-11 22:13:15:142,-0.523191,-1.20908,-9.73288,7.41266,-2.90472,-53.9573
2023-03-11 22:13:15:152,-0.518248,-1.22356,-9.71882,7.40971,-2.90524,-53.9608
2023-03-11 22:13:15:162,-0.506249,-1.2232,-9.69403,7.41313,-2.90501,-53.963
2023-03-11 22:13:15:172,-0.502029,-1.22582,-9.67978,7.41336,-2.90669,-53.9625
2023-03-11 22:13:15:182,-0.53166,-1.2287,-9.67702,7.41265,-2.90498,-53.9606
2023-03-11 22:13:15:192,-0.556803,-1.23085,-9.68486,7.41345,-2.90612,-53.9613
2023-03-11 22:13:15:202,-0.563104,-1.22057,-9.70254,7.41176,-2.90376,-53.9631
2023-03-11 22:13:15:212,-0.573244,-1.20607,-9.72344,7.40879,-2.89848,-53.9664
2023-03-11 22:13:15:222,-0.556246,-1.22241,-9.71234,7.40906,-2.8937,-53.9706
2023-03-11 22:13:15:232,-0.54332,-1.23395,-9.69189,7.41154,-2.88854,-53.9797
2023-03-11 22:13:15:242,-0.515984,-1.25111,-9.66359,7.4135,-2.88303,-53.992
2023-03-11 22:13:15:252,-0.487692,-1.2641,-9.64402,7.41707,-2.87501,-54.004
2023-03-11 22:13:15:262,-0.500184,-1.27211,-9.65391,7.42059,-2.87159,-54.0093
2023-03-11 22:13:15:272,-0.510917,-1.26918,-9.66786,7.42064,-2.86793,-54.0178
2023-03-11 22:13:15:282,-0.481028,-1.23905,-9.71255,7.4219,-2.86068,-54.0311
2023-03-11 22:13:15:292,-0.378753,-1.22855,-9.75044,7.41998,-2.85611,-54.0471
2023-03-11 22:13:15:302,-0.324137,-1.2595,-9.75385,7.41805,-2.852,-54.0561
2023-03-11 22:13:15:312,-0.354949,-1.27621,-9.73625,7.41873,-2.85209,-54.0577
2023-03-11 22:13:15:322,-0.436986,-1.25786,-9.71073,7.4163,-2.86064,-54.0505
2023-03-11 22:13:15:332,-0.509878,-1.24241,-9.67953,7.41266,-2.86798,-54.0465
2023-03-11 22:13:15:342,-0.543781,-1.22883,-9.6734,7.40893,-2.87674,-54.0458
2023-03-11 22:13:15:352,-0.530089,-1.21494,-9.68116,7.40203,-2.88181,-54.043
2023-03-11 22:13:15:362,-0.510365,-1.19233,-9.70331,7.39592,-2.88231,-54.0424
2023-03-11 22:13:15:372,-0.519685,-1.18345,-9.70464,7.39291,-2.88271,-54.0356
2023-03-11 22:13:15:382,-0.518732,-1.17966,-9.68202,7.39045,-2.8745,-54.0252
2023-03-11 22:13:15:392,-0.521717,-1.21168,-9.65489,7.39042,-2.86975,-54.0135
2023-03-11 22:13:15:402,-0.520141,-1.23001,-9.62,7.39031,-2.86289,-54.0012
2023-03-11 22:13:15:412,-0.545269,-1.25006,-9.60901,7.38763,-2.85517,-53.9934
2023-03-11 22:13:15:422,-0.529552,-1.26341,-9.60537,7.38602,-2.85081,-53.987
2023-03-11 22:13:15:432,-0.528027,-1.27351,-9.61426,7.38032,-2.84523,-53.984
2023-03-11 22:13:15:442,-0.526987,-1.29013,-9.63951,7.37361,-2.83964,-53.9847
2023-03-11 22:13:15:452,-0.531924,-1.29574,-9.65948,7.36613,-2.83611,-53.9905
2023-03-11 22:13:15:462,-0.510441,-1.25725,-9.66995,7.35479,-2.82888,-53.9974
2023-03-11 22:13:15:472,-0.473401,-1.21573,-9.69376,7.33811,-2.82407,-54.0075
2023-03-11 22:13:15:482,-0.469624,-1.20365,-9.71715,7.3188,-2.82192,-54.0147
2023-03-11 22:13:15:492,-0.510791,-1.18688,-9.72338,7.30012,-2.82069,-54.0247
2023-03-11 22:13:15:502,-0.537663,-1.17876,-9.73986,7.28394,-2.818,-54.0367
2023-03-11 22:13:15:512,-0.492789,-1.14947,-9.76993,7.26892,-2.80979,-54.0537
2023-03-11 22:13:15:522,-0.392282,-1.15349,-9.78751,7.25479,-2.8001,-54.0651
2023-03-11 22:13:15:532,-0.353753,-1.18097,-9.77747,7.24685,-2.79062,-54.0749
2023-03-11 22:13:15:542,-0.409569,-1.19461,-9.73405,7.2403,-2.78999,-54.0756
2023-03-11 22:13:15:552,-0.474967,-1.19214,-9.70092,7.23719,-2.78778,-54.0743
2023-03-11 22:13:15:562,-0.484068,-1.17394,-9.73119,7.23102,-2.78552,-54.0759
2023-03-11 22:13:15:572,-0.447632,-1.14763,-9.75256,7.22549,-2.78062,-54.0747
2023-03-11 22:13:15:582,-0.443613,-1.14989,-9.75527,7.22076,-2.77343,-54.0738
2023-03-11 22:13:15:592,-0.459522,-1.16578,-9.76614,7.21963,-2.77219,-54.0663
2023-03-11 22:13:15:601,-0.456022,-1.15516,-9.76185,7.21788,-2.77025,-54.0593
2023-03-11 22:13:15:611,-0.46609,-1.14518,-9.7665,7.21734,-2.76727,-54.0544
2023-03-11 22:13:15:621,-0.495159,-1.15773,-9.73894,7.2202,-2.76432,-54.0509
2023-03-11 22:13:15:631,-0.525551,-1.16424,-9.7093,7.22541,-2.7695,-54.0513
2023-03-11 22:13:15:641,-0.517284,-1.17377,-9.69798,7.23303,-2.77171,-54.0567
2023-03-11 22:13:15:651,-0.503368,-1.17878,-9.70288,7.24201,-2.77145,-54.0599
2023-03-11 22:13:15:661,-0.498676,-1.17665,-9.70765,7.24804,-2.77773,-54.0669
2023-03-11 22:13:15:671,-0.485923,-1.18509,-9.71083,7.25513,-2.78473,-54.0729
2023-03-11 22:13:15:681,-0.468842,-1.20158,-9.69875,7.26465,-2.79094,-54.0761
2023-03-11 22:13:15:691,-0.463991,-1.22429,-9.68124,7.27754,-2.79568,-54.0791
2023-03-11 22:13:15:701,-0.451848,-1.24477,-9.66601,7.28879,-2.80161,-54.0854
2023-03-11 22:13:15:711,-0.455373,-1.24766,-9.65556,7.29798,-2.8067,-54.0842
2023-03-11 22:13:15:721,-0.469791,-1.25535,-9.64393,7.30368,-2.80833,-54.0769
2023-03-11 22:13:15:731,-0.50197,-1.24264,-9.66687,7.30949,-2.81521,-54.0713
2023-03-11 22:13:15:741,-0.513395,-1.21264,-9.68524,7.30849,-2.81915,-54.0674
2023-03-11 22:13:15:751,-0.520258,-1.20928,-9.6968,7.30934,-2.81716,-54.0622
2023-03-11 22:13:15:761,-0.538158,-1.20538,-9.67837,7.31076,-2.81565,-54.0578
2023-03-11 22:13:15:771,-0.536996,-1.22567,-9.6683,7.31475,-2.8144,-54.0563
2023-03-11 22:13:15:781,-0.521635,-1.21888,-9.65234,7.31427,-2.81244,-54.0589
2023-03-11 22:13:15:791,-0.502773,-1.2277,-9.66467,7.31308,-2.81261,-54.0581
2023-03-11 22:13:15:801,-0.485296,-1.22655,-9.68254,7.30729,-2.81017,-54.0574
2023-03-11 22:13:15:811,-0.460943,-1.21713,-9.69899,7.30344,-2.80521,-54.0572
2023-03-11 22:13:15:821,-0.45691,-1.20775,-9.71045,7.29847,-2.80746,-54.0557
2023-03-11 22:13:15:831,-0.457134,-1.19532,-9.73039,7.29413,-2.80916,-54.0545
2023-03-11 22:13:15:841,-0.461268,-1.1952,-9.73497,7.29462,-2.80831,-54.055
2023-03-11 22:13:15:851,-0.456443,-1.20052,-9.71779,7.29632,-2.80761,-54.0523
2023-03-11 22:13:15:861,-0.442314,-1.21255,-9.70984,7.29705,-2.80272,-54.0508
2023-03-11 22:13:15:871,-0.436824,-1.22835,-9.70975,7.30196,-2.80083,-54.0471
2023-03-11 22:13:15:881,-0.451967,-1.22676,-9.70034,7.30663,-2.79721,-54.0426
2023-03-11 22:13:15:891,-0.462434,-1.24435,-9.68391,7.31148,-2.79752,-54.0322
2023-03-11 22:13:15:902,-0.47205,-1.24464,-9.67942,7.31592,-2.79688,-54.0197
2023-03-11 22:13:15:911,-0.506368,-1.2423,-9.68533,7.32093,-2.79961,-54.0063
2023-03-11 22:13:15:922,-0.521381,-1.22808,-9.70147,7.3246,-2.79674,-53.9948
2023-03-11 22:13:15:931,-0.502761,-1.24232,-9.71921,7.32885,-2.79366,-53.9828
2023-03-11 22:13:15:942,-0.499221,-1.24788,-9.71289,7.33355,-2.78731,-53.9719
2023-03-11 22:13:15:952,-0.490741,-1.24872,-9.68684,7.33875,-2.77952,-53.9657
2023-03-11 22:13:15:962,-0.462032,-1.25144,-9.66725,7.34269,-2.77832,-53.9617
2023-03-11 22:13:15:972,-0.453853,-1.26904,-9.65287,7.35004,-2.77504,-53.958
2023-03-11 22:13:15:982,-0.465369,-1.28398,-9.65641,7.35481,-2.77513,-53.9507
2023-03-11 22:13:15:992,-0.445671,-1.25302,-9.68672,7.35352,-2.77648,-53.9536
2023-03-11 22:13:16:2,-0.377144,-1.2772,-9.71775,7.35442,-2.77513,-53.9556
2023-03-11 22:13:16:12,-0.297143,-1.28921,-9.7199,7.35618,-2.77571,-53.9501
2023-03-11 22:13:16:22,-0.314199,-1.30099,-9.69727,7.35781,-2.78112,-53.9385
2023-03-11 22:13:16:32,-0.399504,-1.28745,-9.69352,7.35756,-2.79334,-53.9213
2023-03-11 22:13:16:42,-0.468458,-1.26725,-9.66888,7.35234,-2.80841,-53.903
2023-03-11 22:13:16:52,-0.495955,-1.24619,-9.65036,7.34512,-2.82029,-53.8881
2023-03-11 22:13:16:61,-0.505657,-1.21632,-9.65374,7.33258,-2.82783,-53.8661
2023-03-11 22:13:16:72,-0.508164,-1.19988,-9.68471,7.32349,-2.82996,-53.8496
2023-03-11 22:13:16:82,-0.509823,-1.17357,-9.7138,7.31333,-2.83232,-53.8289
2023-03-11 22:13:16:92,-0.537636,-1.14679,-9.72184,7.30837,-2.83317,-53.8084
2023-03-11 22:13:16:102,-0.543325,-1.14322,-9.70541,7.30535,-2.83159,-53.791
2023-03-11 22:13:16:112,-0.543788,-1.16102,-9.68478,7.30447,-2.83108,-53.7766
2023-03-11 22:13:16:122,-0.544956,-1.18123,-9.69676,7.30391,-2.83307,-53.7633
2023-03-11 22:13:16:132,-0.519942,-1.17849,-9.71626,7.30738,-2.83573,-53.7551
2023-03-11 22:13:16:142,-0.496922,-1.1733,-9.75232,7.31104,-2.84088,-53.7461
2023-03-11 22:13:16:152,-0.505065,-1.19083,-9.73762,7.31807,-2.84454,-53.7415
2023-03-11 22:13:16:162,-0.514555,-1.23059,-9.70576,7.32765,-2.8475,-53.7358
2023-03-11 22:13:16:172,-0.495114,-1.24584,-9.67796,7.32879,-2.85013,-53.7314
2023-03-11 22:13:16:182,-0.458129,-1.25512,-9.67668,7.33405,-2.85177,-53.7244
2023-03-11 22:13:16:192,-0.464909,-1.24296,-9.67967,7.33235,-2.85921,-53.7167
2023-03-11 22:13:16:202,-0.514189,-1.22578,-9.68395,7.32892,-2.86711,-53.707
2023-03-11 22:13:16:212,-0.557662,-1.19948,-9.71244,7.32637,-2.87182,-53.6999
2023-03-11 22:13:16:222,-0.531799,-1.18023,-9.73317,7.32438,-2.87457,-53.6955
2023-03-11 22:13:16:232,-0.453135,-1.18737,-9.74906,7.32324,-2.87896,-53.6908
2023-03-11 22:13:16:242,-0.446862,-1.19512,-9.75614,7.32542,-2.88483,-53.6847
2023-03-11 22:13:16:252,-0.511664,-1.19568,-9.73176,7.32817,-2.89338,-53.6754
2023-03-11 22:13:16:262,-0.56304,-1.20252,-9.70165,7.33453,-2.90018,-53.6731
2023-03-11 22:13:16:272,-0.573556,-1.20792,-9.69308,7.34575,-2.90863,-53.6682
2023-03-11 22:13:16:282,-0.562715,-1.23431,-9.69598,7.34906,-2.91422,-53.669
2023-03-11 22:13:16:292,-0.538684,-1.23269,-9.68593,7.3552,-2.9162,-53.6641
2023-03-11 22:13:16:302,-0.515012,-1.24057,-9.69945,7.36296,-2.91635,-53.663
2023-03-11 22:13:16:312,-0.506132,-1.23973,-9.72689,7.37198,-2.91904,-53.6594
2023-03-11 22:13:16:322,-0.515016,-1.22033,-9.7265,7.38109,-2.92095,-53.654
2023-03-11 22:13:16:332,-0.513004,-1.22735,-9.72161,7.38721,-2.91966,-53.6479
2023-03-11 22:13:16:342,-0.518869,-1.23774,-9.70763,7.39775,-2.92183,-53.641
2023-03-11 22:13:16:352,-0.515125,-1.24657,-9.69812,7.4081,-2.92026,-53.6343
2023-03-11 22:13:16:362,-0.510395,-1.25504,-9.68498,7.41912,-2.91869,-53.6235
2023-03-11 22:13:16:372,-0.494497,-1.25579,-9.66786,7.42936,-2.91849,-53.614
2023-03-11 22:13:16:382,-0.478243,-1.259,-9.6698,7.4364,-2.91921,-53.6076
2023-03-11 22:13:16:392,-0.470023,-1.26342,-9.68236,7.44367,-2.91836,-53.6055
2023-03-11 22:13:16:402,-0.471734,-1.27005,-9.66811,7.45168,-2.92149,-53.5988
2023-03-11 22:13:16:412,-0.481164,-1.28,-9.65797,7.46091,-2.9266,-53.589
2023-03-11 22:13:16:422,-0.479397,-1.28863,-9.65454,7.46489,-2.93087,-53.5758
2023-03-11 22:13:16:432,-0.491167,-1.29536,-9.66388,7.46916,-2.93716,-53.5651
2023-03-11 22:13:16:442,-0.521096,-1.2782,-9.67307,7.47077,-2.94314,-53.554
2023-03-11 22:13:16:452,-0.549995,-1.26509,-9.68663,7.47392,-2.95165,-53.5421
2023-03-11 22:13:16:462,-0.577621,-1.25467,-9.69467,7.47769,-2.95892,-53.5294
2023-03-11 22:13:16:472,-0.59091,-1.25509,-9.67578,7.48234,-2.96326,-53.5203
2023-03-11 22:13:16:482,-0.587856,-1.25782,-9.64585,7.48556,-2.96648,-53.5103
2023-03-11 22:13:16:492,-0.607298,-1.26547,-9.63806,7.487,-2.9692,-53.5047
2023-03-11 22:13:16:502,-0.593666,-1.26317,-9.64203,7.48869,-2.96779,-53.5028
2023-03-11 22:13:16:512,-0.565293,-1.27609,-9.67684,7.4879,-2.96247,-53.5007
2023-03-11 22:13:16:522,-0.53695,-1.27299,-9.70222,7.48917,-2.95834,-53.5012
2023-03-11 22:13:16:532,-0.520069,-1.26669,-9.69797,7.48833,-2.95642,-53.5046
2023-03-11 22:13:16:542,-0.504991,-1.25851,-9.69768,7.48718,-2.95218,-53.5091
2023-03-11 22:13:16:552,-0.512196,-1.26266,-9.68509,7.48627,-2.95068,-53.5124
2023-03-11 22:13:16:562,-0.511366,-1.27352,-9.69048,7.48799,-2.94667,-53.5147
2023-03-11 22:13:16:572,-0.518879,-1.27527,-9.6972,7.49006,-2.94215,-53.5135
2023-03-11 22:13:16:582,-0.515683,-1.27141,-9.69645,7.48923,-2.93711,-53.5155
2023-03-11 22:13:16:592,-0.512956,-1.2606,-9.67779,7.49006,-2.93348,-53.5161
2023-03-11 22:13:16:602,-0.529416,-1.25581,-9.66912,7.49022,-2.93048,-53.515
2023-03-11 22:13:16:612,-0.522786,-1.25807,-9.66658,7.48813,-2.9255,-53.513
2023-03-11 22:13:16:622,-0.514407,-1.26459,-9.6811,7.4839,-2.9167,-53.5139
2023-03-11 22:13:16:632,-0.520675,-1.2512,-9.68012,7.47933,-2.91133,-53.5162
2023-03-11 22:13:16:642,-0.503787,-1.24104,-9.7051,7.47656,-2.90275,-53.5202
2023-03-11 22:13:16:652,-0.497094,-1.22788,-9.73487,7.469,-2.89602,-53.5229
2023-03-11 22:13:16:662,-0.478805,-1.22082,-9.7243,7.46272,-2.8896,-53.5274
2023-03-11 22:13:16:672,-0.461703,-1.21534,-9.69066,7.45777,-2.88357,-53.5315
2023-03-11 22:13:16:682,-0.459494,-1.23335,-9.65659,7.45387,-2.88055,-53.5366
2023-03-11 22:13:16:692,-0.475041,-1.26759,-9.65691,7.44947,-2.87753,-53.5402
2023-03-11 22:13:16:702,-0.452214,-1.2672,-9.67979,7.4475,-2.87,-53.5456
2023-03-11 22:13:16:712,-0.38857,-1.24725,-9.7363,7.44572,-2.8622,-53.5519
2023-03-11 22:13:16:722,-0.310294,-1.27125,-9.77571,7.44583,-2.85595,-53.5511
2023-03-11 22:13:16:732,-0.313772,-1.28231,-9.74397,7.44726,-2.86008,-53.547
2023-03-11 22:13:16:741,-0.402938,-1.28594,-9.72103,7.44325,-2.87041,-53.5375
2023-03-11 22:13:16:752,-0.510339,-1.24342,-9.70089,7.43646,-2.8847,-53.5294
2023-03-11 22:13:16:762,-0.554849,-1.21492,-9.71469,7.42907,-2.90065,-53.5243
2023-03-11 22:13:16:772,-0.538883,-1.20947,-9.71512,7.42152,-2.90719,-53.522
2023-03-11 22:13:16:782,-0.519261,-1.21309,-9.70679,7.41197,-2.90946,-53.5153
2023-03-11 22:13:16:792,-0.497229,-1.1792,-9.70159,7.4055,-2.91457,-53.5161
2023-03-11 22:13:16:802,-0.497867,-1.16475,-9.69906,7.40097,-2.91691,-53.5095
2023-03-11 22:13:16:812,-0.510273,-1.16639,-9.68164,7.39723,-2.92116,-53.504
2023-03-11 22:13:16:822,-0.522288,-1.18908,-9.65056,7.39881,-2.92713,-53.5017
2023-03-11 22:13:16:832,-0.532559,-1.20268,-9.63618,7.40309,-2.93211,-53.5025
2023-03-11 22:13:16:842,-0.539058,-1.22478,-9.65305,7.40317,-2.93819,-53.5018
2023-03-11 22:13:16:852,-0.542877,-1.2492,-9.67918,7.40662,-2.93986,-53.5015
2023-03-11 22:13:16:862,-0.533109,-1.26941,-9.69078,7.4098,-2.94109,-53.5056
2023-03-11 22:13:16:872,-0.53264,-1.27403,-9.69758,7.40839,-2.94168,-53.5106
2023-03-11 22:13:16:882,-0.504736,-1.2858,-9.70795,7.41014,-2.94229,-53.513
2023-03-11 22:13:16:892,-0.44316,-1.28032,-9.69654,7.40872,-2.94047,-53.5173
2023-03-11 22:13:16:902,-0.399132,-1.28186,-9.69212,7.40495,-2.94132,-53.5176
2023-03-11 22:13:16:912,-0.470673,-1.25468,-9.70839,7.40329,-2.94425,-53.5107
2023-03-11 22:13:16:922,-0.547125,-1.24516,-9.69603,7.40074,-2.94821,-53.504
2023-03-11 22:13:16:932,-0.550591,-1.21847,-9.69613,7.39868,-2.94842,-53.5052
2023-03-11 22:13:16:942,-0.432344,-1.22323,-9.70757,7.39253,-2.94562,-53.5071
2023-03-11 22:13:16:952,-0.369017,-1.22076,-9.72325,7.38365,-2.94004,-53.5069
2023-03-11 22:13:16:962,-0.419073,-1.21791,-9.72478,7.3775,-2.94035,-53.505
2023-03-11 22:13:16:972,-0.49936,-1.21571,-9.7263,7.37492,-2.94821,-53.4967
2023-03-11 22:13:16:982,-0.518978,-1.21176,-9.71199,7.3738,-2.95471,-53.4905
2023-03-11 22:13:16:992,-0.480434,-1.22511,-9.70844,7.37614,-2.95788,-53.4866
2023-03-11 22:13:17:2,-0.461662,-1.21911,-9.72173,7.37838,-2.95729,-53.4808
2023-03-11 22:13:17:11,-0.462324,-1.21114,-9.72809,7.37972,-2.95918,-53.4758
2023-03-11 22:13:17:22,-0.466907,-1.20847,-9.71459,7.38347,-2.96199,-53.4679
2023-03-11 22:13:17:32,-0.499625,-1.21306,-9.69466,7.38802,-2.96439,-53.4579
2023-03-11 22:13:17:42,-0.530733,-1.21387,-9.6936,7.39068,-2.96858,-53.45
2023-03-11 22:13:17:52,-0.549061,-1.22289,-9.67754,7.39807,-2.97424,-53.4402
2023-03-11 22:13:17:62,-0.540313,-1.22477,-9.67129,7.4047,-2.97483,-53.4333
2023-03-11 22:13:17:72,-0.552797,-1.23318,-9.68038,7.41258,-2.97753,-53.4254
2023-03-11 22:13:17:82,-0.542212,-1.2528,-9.67908,7.41959,-2.98189,-53.4228
2023-03-11 22:13:17:92,-0.533764,-1.26224,-9.67637,7.42075,-2.98722,-53.4236
2023-03-11 22:13:17:102,-0.536622,-1.25026,-9.6716,7.42353,-2.9958,-53.4244
2023-03-11 22:13:17:112,-0.546856,-1.24513,-9.6811,7.4265,-3.00655,-53.4272
2023-03-11 22:13:17:122,-0.561787,-1.24406,-9.70879,7.42759,-3.01765,-53.4261
2023-03-11 22:13:17:132,-0.592986,-1.22988,-9.71771,7.42822,-3.02632,-53.4283
2023-03-11 22:13:17:142,-0.599552,-1.21774,-9.69278,7.42824,-3.03257,-53.4316
2023-03-11 22:13:17:152,-0.584055,-1.23308,-9.68751,7.43039,-3.03692,-53.4331
2023-03-11 22:13:17:162,-0.582682,-1.22235,-9.69926,7.43334,-3.03732,-53.4357
2023-03-11 22:13:17:172,-0.588205,-1.21668,-9.69071,7.43571,-3.03723,-53.4375
2023-03-11 22:13:17:182,-0.588833,-1.21069,-9.68384,7.43584,-3.03575,-53.4389
2023-03-11 22:13:17:192,-0.601877,-1.21063,-9.6747,7.43479,-3.0333,-53.4414
2023-03-11 22:13:17:202,-0.595151,-1.22429,-9.66878,7.43443,-3.03122,-53.4457
2023-03-11 22:13:17:212,-0.59079,-1.23588,-9.66495,7.43554,-3.02407,-53.4512
2023-03-11 22:13:17:222,-0.573683,-1.24517,-9.65469,7.4397,-3.01804,-53.4593
2023-03-11 22:13:17:232,-0.536281,-1.25315,-9.6828,7.44146,-3.00853,-53.4726
2023-03-11 22:13:17:242,-0.517768,-1.25321,-9.70173,7.44608,-3.0001,-53.4856
2023-03-11 22:13:17:252,-0.51115,-1.24892,-9.70686,7.4488,-2.9932,-53.4965
2023-03-11 22:13:17:262,-0.516228,-1.2461,-9.70552,7.45167,-2.99077,-53.5047
2023-03-11 22:13:17:272,-0.506442,-1.2479,-9.70018,7.45256,-2.98844,-53.5136
2023-03-11 22:13:17:282,-0.516628,-1.24296,-9.71373,7.45312,-2.98594,-53.5215
2023-03-11 22:13:17:292,-0.517824,-1.24746,-9.69422,7.45426,-2.98324,-53.5328
2023-03-11 22:13:17:302,-0.501833,-1.25036,-9.68682,7.45981,-2.98033,-53.5394
2023-03-11 22:13:17:312,-0.501328,-1.26026,-9.68166,7.46435,-2.97627,-53.5455
2023-03-11 22:13:17:322,-0.508906,-1.27351,-9.67365,7.4687,-2.97169,-53.5523
2023-03-11 22:13:17:332,-0.513023,-1.29386,-9.68186,7.47224,-2.96958,-53.5608
2023-03-11 22:13:17:342,-0.48631,-1.26577,-9.69989,7.47405,-2.96216,-53.5664
2023-03-11 22:13:17:352,-0.494356,-1.25674,-9.6932,7.47387,-2.95529,-53.5699
2023-03-11 22:13:17:362,-0.499055,-1.25354,-9.67312,7.47799,-2.94901,-53.5737
2023-03-11 22:13:17:372,-0.478547,-1.27724,-9.64968,7.48168,-2.94397,-53.5798
2023-03-11 22:13:17:382,-0.486251,-1.30545,-9.61635,7.48848,-2.93921,-53.5842
2023-03-11 22:13:17:392,-0.488561,-1.31915,-9.6359,7.4928,-2.93213,-53.5882
2023-03-11 22:13:17:402,-0.451456,-1.29057,-9.69518,7.4948,-2.92464,-53.5952
2023-03-11 22:13:17:412,-0.370904,-1.27689,-9.7546,7.4925,-2.91798,-53.6008
2023-03-11 22:13:17:422,-0.316307,-1.30165,-9.77712,7.49076,-2.91354,-53.6006
2023-03-11 22:13:17:432,-0.350121,-1.31629,-9.75064,7.49062,-2.91737,-53.5963
2023-03-11 22:13:17:442,-0.44416,-1.2885,-9.72927,7.48776,-2.92504,-53.5868
2023-03-11 22:13:17:452,-0.507836,-1.24833,-9.71461,7.48324,-2.9352,-53.5814
2023-03-11 22:13:17:462,-0.532528,-1.22487,-9.70602,7.47735,-2.94517,-53.5758
2023-03-11 22:13:17:472,-0.519567,-1.21919,-9.6881,7.47544,-2.95087,-53.5752
2023-03-11 22:13:17:482,-0.53001,-1.19402,-9.69752,7.47496,-2.95641,-53.5685
2023-03-11 22:13:17:492,-0.545994,-1.16664,-9.67169,7.4725,-2.96284,-53.567
2023-03-11 22:13:17:502,-0.556348,-1.18163,-9.65941,7.47433,-2.96538,-53.5687
2023-03-11 22:13:17:512,-0.571066,-1.19075,-9.64607,7.48313,-2.96929,-53.5675
2023-03-11 22:13:17:522,-0.5793,-1.2133,-9.65845,7.48894,-2.97081,-53.5697
2023-03-11 22:13:17:532,-0.588284,-1.23393,-9.66206,7.49291,-2.9744,-53.5737
2023-03-11 22:13:17:542,-0.573842,-1.2592,-9.65495,7.49551,-2.97293,-53.579
2023-03-11 22:13:17:552,-0.564027,-1.27058,-9.65385,7.50054,-2.96987,-53.5824
2023-03-11 22:13:17:562,-0.546378,-1.29409,-9.66788,7.50565,-2.97007,-53.5929
2023-03-11 22:13:17:572,-0.521901,-1.31729,-9.67346,7.50701,-2.96577,-53.6024
2023-03-11 22:13:17:582,-0.492423,-1.30989,-9.65083,7.50672,-2.95869,-53.6159
2023-03-11 22:13:17:592,-0.444546,-1.29724,-9.62485,7.49982,-2.9523,-53.6238
2023-03-11 22:13:17:602,-0.473276,-1.28598,-9.62981,7.49163,-2.95092,-53.628
2023-03-11 22:13:17:612,-0.539197,-1.27147,-9.64624,7.47952,-2.95118,-53.631
2023-03-11 22:13:17:622,-0.579101,-1.22569,-9.68549,7.46465,-2.94685,-53.6378
2023-03-11 22:13:17:632,-0.504919,-1.20713,-9.72004,7.44955,-2.93803,-53.647
2023-03-11 22:13:17:642,-0.398804,-1.19859,-9.74105,7.43562,-2.9292,-53.6571
2023-03-11 22:13:17:652,-0.378298,-1.18448,-9.75245,7.42564,-2.92069,-53.6615
2023-03-11 22:13:17:662,-0.422628,-1.18669,-9.75637,7.41704,-2.91869,-53.6626
2023-03-11 22:13:17:672,-0.483968,-1.19597,-9.76078,7.41189,-2.91508,-53.6611
2023-03-11 22:13:17:682,-0.481844,-1.19496,-9.74401,7.4071,-2.91406,-53.6658
2023-03-11 22:13:17:692,-0.453938,-1.21085,-9.74739,7.40782,-2.91027,-53.6679
2023-03-11 22:13:17:702,-0.432016,-1.21426,-9.75417,7.40743,-2.90375,-53.6642
2023-03-11 22:13:17:712,-0.439146,-1.21237,-9.72757,7.40933,-2.89773,-53.6599
2023-03-11 22:13:17:722,-0.472655,-1.223,-9.71142,7.40962,-2.89392,-53.6522
2023-03-11 22:13:17:732,-0.483267,-1.22784,-9.70382,7.40939,-2.89065,-53.6465
2023-03-11 22:13:17:742,-0.478176,-1.21982,-9.70456,7.40875,-2.88818,-53.6423
2023-03-11 22:13:17:752,-0.479388,-1.21847,-9.72606,7.41235,-2.88463,-53.6368
2023-03-11 22:13:17:762,-0.476001,-1.20943,-9.72818,7.41311,-2.88357,-53.6331
2023-03-11 22:13:17:772,-0.467889,-1.20982,-9.69669,7.41935,-2.88215,-53.6285
2023-03-11 22:13:17:782,-0.455894,-1.23279,-9.68193,7.42308,-2.88359,-53.6256
2023-03-11 22:13:17:792,-0.456717,-1.25232,-9.6681,7.42971,-2.88415,-53.62
2023-03-11 22:13:17:802,-0.446485,-1.27458,-9.68489,7.43618,-2.89162,-53.6167
2023-03-11 22:13:17:812,-0.456766,-1.28053,-9.67697,7.44137,-2.89706,-53.6118
2023-03-11 22:13:17:822,-0.466457,-1.2788,-9.6591,7.44641,-2.90538,-53.6039
2023-03-11 22:13:17:832,-0.49758,-1.27695,-9.65782,7.44984,-2.91125,-53.5964
2023-03-11 22:13:17:842,-0.523823,-1.28304,-9.67642,7.4531,-2.91402,-53.5869
2023-03-11 22:13:17:852,-0.547288,-1.27465,-9.68937,7.45389,-2.92178,-53.5785
2023-03-11 22:13:17:862,-0.562379,-1.2697,-9.68031,7.45402,-2.93189,-53.5712
2023-03-11 22:13:17:872,-0.575425,-1.26819,-9.67019,7.45647,-2.93605,-53.5628
2023-03-11 22:13:17:882,-0.573782,-1.26266,-9.66132,7.45477,-2.93622,-53.558
2023-03-11 22:13:17:892,-0.560063,-1.24591,-9.66292,7.45115,-2.93443,-53.5576
2023-03-11 22:13:17:902,-0.554512,-1.24737,-9.66419,7.44716,-2.93608,-53.5573
2023-03-11 22:13:17:912,-0.555991,-1.25473,-9.66267,7.44199,-2.93643,-53.5589
2023-03-11 22:13:17:922,-0.538215,-1.25061,-9.67067,7.43429,-2.93353,-53.5622
2023-03-11 22:13:17:932,-0.52612,-1.22791,-9.66888,7.43007,-2.92997,-53.5676
2023-03-11 22:13:17:942,-0.514297,-1.22943,-9.65942,7.4228,-2.9251,-53.5733
2023-03-11 22:13:17:952,-0.487049,-1.22976,-9.67236,7.41514,-2.92141,-53.5773
2023-03-11 22:13:17:962,-0.485477,-1.22948,-9.67766,7.4058,-2.91975,-53.5781
2023-03-11 22:13:17:972,-0.491304,-1.22987,-9.64992,7.39466,-2.91517,-53.5775
2023-03-11 22:13:17:982,-0.503265,-1.24559,-9.65959,7.38384,-2.90889,-53.5755
2023-03-11 22:13:17:992,-0.474068,-1.23284,-9.69266,7.37174,-2.89663,-53.5715
2023-03-11 22:13:18:2,-0.453971,-1.22084,-9.72823,7.35958,-2.88634,-53.5635
2023-03-11 22:13:18:12,-0.444057,-1.19429,-9.76758,7.3493,-2.8725,-53.5562
2023-03-11 22:13:18:22,-0.493218,-1.19394,-9.78144,7.34039,-2.86127,-53.5454
2023-03-11 22:13:18:32,-0.532651,-1.18204,-9.77508,7.33612,-2.85065,-53.5398
2023-03-11 22:13:18:42,-0.522986,-1.18379,-9.77476,7.33836,-2.84114,-53.5387
2023-03-11 22:13:18:52,-0.493529,-1.19036,-9.74372,7.3417,-2.83233,-53.5424
2023-03-11 22:13:18:62,-0.480187,-1.20962,-9.69629,7.34789,-2.82704,-53.5468
2023-03-11 22:13:18:72,-0.468302,-1.23697,-9.66681,7.35562,-2.82026,-53.5509
2023-03-11 22:13:18:82,-0.488785,-1.25768,-9.65919,7.36355,-2.81644,-53.5536
2023-03-11 22:13:18:92,-0.466329,-1.26033,-9.69147,7.37064,-2.81312,-53.563
2023-03-11 22:13:18:102,-0.393182,-1.26334,-9.72215,7.37863,-2.80659,-53.5729
2023-03-11 22:13:18:112,-0.302105,-1.2948,-9.7214,7.38553,-2.8005,-53.5785
2023-03-11 22:13:18:122,-0.284203,-1.31677,-9.71248,7.39064,-2.7982,-53.5754
2023-03-11 22:13:18:132,-0.329466,-1.30063,-9.68523,7.39233,-2.80181,-53.5693
2023-03-11 22:13:18:142,-0.413372,-1.28269,-9.68371,7.3915,-2.81245,-53.5586
2023-03-11 22:13:18:152,-0.470318,-1.25247,-9.69147,7.38342,-2.82192,-53.5487
2023-03-11 22:13:18:162,-0.496036,-1.21157,-9.68726,7.3771,-2.8319,-53.5396
2023-03-11 22:13:18:172,-0.511318,-1.19641,-9.70706,7.37292,-2.83572,-53.526
2023-03-11 22:13:18:182,-0.522184,-1.16965,-9.71884,7.36704,-2.84001,-53.5147
2023-03-11 22:13:18:192,-0.54503,-1.15546,-9.69644,7.36435,-2.83637,-53.5073
2023-03-11 22:13:18:202,-0.557675,-1.18096,-9.65472,7.36185,-2.83792,-53.497
2023-03-11 22:13:18:212,-0.551077,-1.19377,-9.64377,7.36295,-2.83598,-53.4897
2023-03-11 22:13:18:222,-0.549155,-1.19064,-9.65272,7.36078,-2.83253,-53.4875
2023-03-11 22:13:18:231,-0.545401,-1.19657,-9.69469,7.36392,-2.82968,-53.4881
2023-03-11 22:13:18:242,-0.527735,-1.19596,-9.74114,7.36792,-2.82644,-53.4911
2023-03-11 22:13:18:252,-0.538064,-1.18964,-9.77296,7.37278,-2.82138,-53.4955
2023-03-11 22:13:18:262,-0.547111,-1.17615,-9.82179,7.38177,-2.81958,-53.5036
2023-03-11 22:13:18:272,-0.522546,-1.16505,-9.80797,7.394,-2.81478,-53.5163
2023-03-11 22:13:18:282,-0.48032,-1.19655,-9.74707,7.40802,-2.80408,-53.523
2023-03-11 22:13:18:292,-0.449415,-1.22497,-9.70172,7.42312,-2.79351,-53.5285
2023-03-11 22:13:18:302,-0.479685,-1.22839,-9.6759,7.43922,-2.78572,-53.5273
2023-03-11 22:13:18:312,-0.518959,-1.21007,-9.67453,7.45783,-2.77556,-53.529
2023-03-11 22:13:18:322,-0.509635,-1.16726,-9.70596,7.46823,-2.76037,-53.5352
2023-03-11 22:13:18:332,-0.440019,-1.18154,-9.74321,7.48671,-2.74338,-53.545
2023-03-11 22:13:18:342,-0.38854,-1.19654,-9.756,7.50171,-2.73135,-53.5512
2023-03-11 22:13:18:352,-0.413424,-1.20924,-9.74912,7.52365,-2.72554,-53.5532
2023-03-11 22:13:18:362,-0.443383,-1.24341,-9.73922,7.54697,-2.71867,-53.5554
2023-03-11 22:13:18:372,-0.465161,-1.25549,-9.7042,7.57742,-2.71479,-53.5585
2023-03-11 22:13:18:382,-0.446277,-1.29564,-9.64105,7.60548,-2.70823,-53.5602
2023-03-11 22:13:18:392,-0.429235,-1.31709,-9.60639,7.62837,-2.7003,-53.5603
2023-03-11 22:13:18:402,-0.422546,-1.31877,-9.62747,7.64655,-2.69559,-53.5617
2023-03-11 22:13:18:412,-0.410082,-1.30661,-9.6615,7.65641,-2.68924,-53.5585
2023-03-11 22:13:18:422,-0.408754,-1.29188,-9.65428,7.66594,-2.68767,-53.5591
2023-03-11 22:13:18:432,-0.407442,-1.30581,-9.65172,7.67717,-2.68577,-53.5568
2023-03-11 22:13:18:442,-0.414926,-1.31453,-9.65914,7.68247,-2.68209,-53.5525
2023-03-11 22:13:18:452,-0.419576,-1.29467,-9.66203,7.68675,-2.68123,-53.5484
2023-03-11 22:13:18:462,-0.426196,-1.28308,-9.6668,7.69187,-2.68022,-53.5448
2023-03-11 22:13:18:472,-0.43121,-1.31602,-9.63316,7.69751,-2.68295,-53.5408
2023-03-11 22:13:18:482,-0.438718,-1.33952,-9.61283,7.70515,-2.68551,-53.5394
2023-03-11 22:13:18:492,-0.415265,-1.34138,-9.60739,7.71013,-2.68843,-53.5381
2023-03-11 22:13:18:502,-0.404085,-1.33042,-9.62095,7.71164,-2.69224,-53.5344
2023-03-11 22:13:18:512,-0.42611,-1.31849,-9.65307,7.71113,-2.7008,-53.5295
2023-03-11 22:13:18:522,-0.46884,-1.29393,-9.66793,7.70639,-2.70921,-53.5254
2023-03-11 22:13:18:532,-0.500628,-1.28736,-9.67615,7.70087,-2.72,-53.5175
2023-03-11 22:13:18:542,-0.523034,-1.29589,-9.67863,7.6982,-2.72705,-53.513
2023-03-11 22:13:18:552,-0.524442,-1.28715,-9.68849,7.69497,-2.73345,-53.5083
2023-03-11 22:13:18:562,-0.500184,-1.26514,-9.70597,7.68908,-2.73806,-53.5066
2023-03-11 22:13:18:572,-0.472606,-1.26998,-9.71126,7.68359,-2.73893,-53.5053
2023-03-11 22:13:18:582,-0.447494,-1.27577,-9.71426,7.68205,-2.73674,-53.5013
2023-03-11 22:13:18:592,-0.444792,-1.2591,-9.72622,7.67443,-2.73397,-53.4957
2023-03-11 22:13:18:602,-0.462117,-1.24874,-9.73315,7.67306,-2.73232,-53.4889
2023-03-11 22:13:18:612,-0.483724,-1.23969,-9.74279,7.67386,-2.73178,-53.4813
2023-03-11 22:13:18:622,-0.493759,-1.22556,-9.76126,7.67762,-2.72915,-53.4785
2023-03-11 22:13:18:632,-0.478216,-1.22626,-9.74893,7.68242,-2.72834,-53.4813
2023-03-11 22:13:18:642,-0.452031,-1.25814,-9.73572,7.68985,-2.7271,-53.4833
2023-03-11 22:13:18:652,-0.432584,-1.27,-9.7159,7.70205,-2.72344,-53.4855
2023-03-11 22:13:18:662,-0.445341,-1.28166,-9.6776,7.71092,-2.7239,-53.4879
2023-03-11 22:13:18:672,-0.457289,-1.29461,-9.66127,7.72126,-2.72664,-53.4902
2023-03-11 22:13:18:682,-0.454655,-1.30545,-9.69556,7.73331,-2.72931,-53.4946
2023-03-11 22:13:18:692,-0.437333,-1.30324,-9.70029,7.74513,-2.72773,-53.4951
2023-03-11 22:13:18:702,-0.423127,-1.30325,-9.68194,7.7562,-2.73019,-53.4934
2023-03-11 22:13:18:712,-0.42542,-1.31426,-9.67488,7.76666,-2.73154,-53.491
2023-03-11 22:13:18:722,-0.436137,-1.32736,-9.67843,7.77769,-2.73167,-53.4861
2023-03-11 22:13:18:732,-0.4596,-1.33227,-9.66915,7.78653,-2.73083,-53.4788
2023-03-11 22:13:18:742,-0.466516,-1.34138,-9.65484,7.79801,-2.72937,-53.4705
2023-03-11 22:13:18:752,-0.453668,-1.35171,-9.64396,7.80835,-2.7293,-53.4644
2023-03-11 22:13:18:762,-0.44402,-1.35622,-9.62643,7.8205,-2.72384,-53.4553
2023-03-11 22:13:18:772,-0.422314,-1.35484,-9.6149,7.82715,-2.71902,-53.4487
2023-03-11 22:13:18:782,-0.408948,-1.36909,-9.61391,7.83405,-2.71826,-53.4413
2023-03-11 22:13:18:792,-0.443994,-1.38612,-9.62653,7.83937,-2.71768,-53.4349
2023-03-11 22:13:18:802,-0.443526,-1.36251,-9.65188,7.83958,-2.71711,-53.4272
2023-03-11 22:13:18:812,-0.3641,-1.3526,-9.69196,7.83665,-2.71703,-53.4234
2023-03-11 22:13:18:822,-0.288635,-1.36821,-9.71295,7.83297,-2.71939,-53.4172
2023-03-11 22:13:18:832,-0.309072,-1.3846,-9.70673,7.83207,-2.72638,-53.4037
2023-03-11 22:13:18:842,-0.388803,-1.37667,-9.68152,7.83169,-2.73768,-53.3879
2023-03-11 22:13:18:852,-0.459624,-1.36053,-9.67461,7.82776,-2.75812,-53.3746
2023-03-11 22:13:18:862,-0.497328,-1.33309,-9.65959,7.82478,-2.76786,-53.3605
2023-03-11 22:13:18:872,-0.523498,-1.32563,-9.63606,7.81585,-2.77992,-53.3458
2023-03-11 22:13:18:882,-0.529155,-1.31921,-9.64504,7.80966,-2.79054,-53.3286
2023-03-11 22:13:18:892,-0.544072,-1.29111,-9.69153,7.79588,-2.79497,-53.3104
2023-03-11 22:13:18:902,-0.55729,-1.23687,-9.71536,7.78718,-2.79847,-53.2947
2023-03-11 22:13:18:912,-0.572529,-1.23176,-9.72764,7.77953,-2.80273,-53.2814
2023-03-11 22:13:18:922,-0.573424,-1.24983,-9.71074,7.77809,-2.80416,-53.2763
2023-03-11 22:13:18:932,-0.590123,-1.25504,-9.67898,7.77941,-2.80215,-53.2756
2023-03-11 22:13:18:942,-0.564044,-1.25727,-9.68857,7.77994,-2.80514,-53.2781
2023-03-11 22:13:18:952,-0.548312,-1.26536,-9.7106,7.78345,-2.8018,-53.2828
2023-03-11 22:13:18:962,-0.526606,-1.29521,-9.705,7.79012,-2.79854,-53.2884
2023-03-11 22:13:18:972,-0.516711,-1.3311,-9.68049,7.79565,-2.79601,-53.2981
2023-03-11 22:13:18:982,-0.488176,-1.34473,-9.67196,7.79846,-2.79517,-53.308
2023-03-11 22:13:18:992,-0.439461,-1.31883,-9.6644,7.80106,-2.78947,-53.316
2023-03-11 22:13:19:2,-0.410294,-1.31579,-9.68663,7.79981,-2.78552,-53.3227
2023-03-11 22:13:19:12,-0.452352,-1.31628,-9.68635,7.79629,-2.78719,-53.3248
2023-03-11 22:13:19:22,-0.518908,-1.30208,-9.68029,7.7939,-2.7888,-53.323
2023-03-11 22:13:19:32,-0.51541,-1.25824,-9.70328,7.78873,-2.78403,-53.3252
2023-03-11 22:13:19:42,-0.41877,-1.2647,-9.72454,7.78495,-2.77701,-53.3289
2023-03-11 22:13:19:52,-0.380249,-1.27218,-9.72044,7.78243,-2.77061,-53.3271
2023-03-11 22:13:19:62,-0.428354,-1.28439,-9.7103,7.78385,-2.76922,-53.3208
2023-03-11 22:13:19:72,-0.481207,-1.28893,-9.70364,7.78545,-2.76882,-53.3162
2023-03-11 22:13:19:82,-0.485962,-1.30201,-9.70514,7.78654,-2.76417,-53.3132
2023-03-11 22:13:19:92,-0.463823,-1.3011,-9.70181,7.78992,-2.76125,-53.3108
2023-03-11 22:13:19:102,-0.461969,-1.31279,-9.70055,7.79203,-2.76059,-53.3075
2023-03-11 22:13:19:112,-0.463213,-1.31403,-9.68496,7.79044,-2.75903,-53.3061
2023-03-11 22:13:19:122,-0.4529,-1.32958,-9.6849,7.79016,-2.7604,-53.3076
2023-03-11 22:13:19:132,-0.42978,-1.32968,-9.66826,7.78717,-2.76098,-53.3046
2023-03-11 22:13:19:142,-0.429492,-1.33366,-9.64398,7.78636,-2.76363,-53.3024
2023-03-11 22:13:19:152,-0.441349,-1.32097,-9.67046,7.78551,-2.76826,-53.2966
2023-03-11 22:13:19:162,-0.45209,-1.30191,-9.70388,7.78279,-2.77557,-53.2933
2023-03-11 22:13:19:172,-0.465794,-1.29589,-9.70271,7.77963,-2.78247,-53.2914
2023-03-11 22:13:19:182,-0.477214,-1.30412,-9.67715,7.77843,-2.79214,-53.2901
2023-03-11 22:13:19:192,-0.462431,-1.31509,-9.65631,7.77791,-2.80006,-53.2862
2023-03-11 22:13:19:202,-0.449687,-1.33344,-9.66657,7.77655,-2.8065,-53.2804
2023-03-11 22:13:19:212,-0.44965,-1.3368,-9.66437,7.77223,-2.81487,-53.2747
2023-03-11 22:13:19:222,-0.454948,-1.33655,-9.67324,7.77213,-2.82294,-53.2647
2023-03-11 22:13:19:232,-0.480758,-1.33009,-9.65555,7.76859,-2.83403,-53.2531
2023-03-11 22:13:19:242,-0.507152,-1.32429,-9.63071,7.76104,-2.84077,-53.2348
2023-03-11 22:13:19:252,-0.524121,-1.31551,-9.634,7.75504,-2.84685,-53.2216
2023-03-11 22:13:19:262,-0.531951,-1.31402,-9.63765,7.74463,-2.85312,-53.2064
2023-03-11 22:13:19:272,-0.551289,-1.29333,-9.65703,7.7307,-2.85603,-53.1947
2023-03-11 22:13:19:282,-0.55653,-1.28747,-9.67664,7.71829,-2.85926,-53.1837
2023-03-11 22:13:19:292,-0.554517,-1.29409,-9.69303,7.70616,-2.86041,-53.1757
2023-03-11 22:13:19:302,-0.552956,-1.29849,-9.69213,7.69385,-2.8658,-53.1723
2023-03-11 22:13:19:312,-0.538735,-1.28817,-9.68478,7.68327,-2.86697,-53.1724
2023-03-11 22:13:19:322,-0.521789,-1.28576,-9.66476,7.67225,-2.86652,-53.1712
2023-03-11 22:13:19:332,-0.508422,-1.29542,-9.65983,7.66263,-2.86871,-53.1739
2023-03-11 22:13:19:342,-0.49766,-1.28946,-9.66776,7.65264,-2.8714,-53.1757
2023-03-11 22:13:19:352,-0.485271,-1.28349,-9.68383,7.64188,-2.87243,-53.1751
2023-03-11 22:13:19:362,-0.46586,-1.28885,-9.68392,7.62973,-2.86726,-53.1743
2023-03-11 22:13:19:372,-0.464175,-1.29434,-9.68877,7.61663,-2.86199,-53.1701
2023-03-11 22:13:19:382,-0.440779,-1.28353,-9.68169,7.60338,-2.85629,-53.1643
2023-03-11 22:13:19:392,-0.43761,-1.27341,-9.67917,7.58834,-2.85327,-53.155
2023-03-11 22:13:19:402,-0.446594,-1.26041,-9.67615,7.57433,-2.84933,-53.145
2023-03-11 22:13:19:412,-0.452619,-1.27265,-9.683,7.55665,-2.84679,-53.135
2023-03-11 22:13:19:422,-0.463178,-1.28252,-9.68414,7.53973,-2.84477,-53.1205
2023-03-11 22:13:19:432,-0.484866,-1.2679,-9.68983,7.52212,-2.84059,-53.1078
2023-03-11 22:13:19:442,-0.486722,-1.25831,-9.68288,7.50419,-2.83714,-53.0967
2023-03-11 22:13:19:452,-0.501161,-1.27133,-9.65548,7.48479,-2.8337,-53.0853
2023-03-11 22:13:19:462,-0.529071,-1.26513,-9.65051,7.46532,-2.82561,-53.0733
2023-03-11 22:13:19:472,-0.508252,-1.24587,-9.66901,7.44602,-2.81366,-53.0634
2023-03-11 22:13:19:482,-0.46606,-1.22863,-9.71254,7.42646,-2.79823,-53.0513
2023-03-11 22:13:19:492,-0.447458,-1.2207,-9.72543,7.40839,-2.78756,-53.0427
2023-03-11 22:13:19:502,-0.439435,-1.20763,-9.70505,7.3926,-2.78074,-53.0316
2023-03-11 22:13:19:512,-0.449647,-1.21482,-9.70028,7.37845,-2.7735,-53.023
2023-03-11 22:13:19:522,-0.479026,-1.2239,-9.7121,7.36986,-2.76897,-53.0162
2023-03-11 22:13:19:532,-0.472524,-1.23811,-9.73587,7.35702,-2.76644,-53.0114
2023-03-11 22:13:19:542,-0.418497,-1.22917,-9.78558,7.34131,-2.75978,-53.0068
2023-03-11 22:13:19:552,-0.334039,-1.22849,-9.82721,7.33081,-2.75609,-53.0053
2023-03-11 22:13:19:562,-0.320424,-1.24589,-9.80657,7.32547,-2.75791,-53
2023-03-11 22:13:19:572,-0.38523,-1.24686,-9.77278,7.31821,-2.7702,-52.9894
2023-03-11 22:13:19:582,-0.44876,-1.22468,-9.74188,7.31206,-2.78333,-52.9783
2023-03-11 22:13:19:592,-0.497763,-1.18663,-9.72273,7.30649,-2.79568,-52.9692
2023-03-11 22:13:19:602,-0.524895,-1.15925,-9.72623,7.29922,-2.8096,-52.9634
2023-03-11 22:13:19:612,-0.540752,-1.13232,-9.7051,7.29307,-2.81778,-52.96
2023-03-11 22:13:19:622,-0.541015,-1.13581,-9.71052,7.28796,-2.8229,-52.9531
2023-03-11 22:13:19:632,-0.548644,-1.12829,-9.7022,7.28553,-2.82443,-52.9458
2023-03-11 22:13:19:642,-0.567188,-1.13359,-9.70222,7.28628,-2.82621,-52.9397
2023-03-11 22:13:19:652,-0.565199,-1.15207,-9.67683,7.29202,-2.83077,-52.9361
2023-03-11 22:13:19:662,-0.559902,-1.17659,-9.65518,7.30116,-2.83114,-52.9379
2023-03-11 22:13:19:672,-0.539598,-1.21891,-9.66516,7.31378,-2.82917,-52.945
2023-03-11 22:13:19:682,-0.525468,-1.2479,-9.67149,7.32587,-2.83244,-52.9516
2023-03-11 22:13:19:692,-0.505771,-1.26119,-9.66108,7.33659,-2.83103,-52.9602
2023-03-11 22:13:19:702,-0.493153,-1.2937,-9.65691,7.3455,-2.82804,-52.9706
2023-03-11 22:13:19:712,-0.468361,-1.30401,-9.67407,7.35161,-2.82802,-52.9811
2023-03-11 22:13:19:722,-0.434383,-1.28347,-9.67315,7.34769,-2.82305,-52.9874
2023-03-11 22:13:19:732,-0.401801,-1.25408,-9.68021,7.33977,-2.82172,-52.9942
2023-03-11 22:13:19:742,-0.455686,-1.24096,-9.69124,7.33492,-2.82141,-52.9946
2023-03-11 22:13:19:752,-0.5086,-1.22397,-9.68875,7.32796,-2.821,-52.9934
2023-03-11 22:13:19:762,-0.522376,-1.19471,-9.67764,7.32252,-2.81532,-52.9993
2023-03-11 22:13:19:772,-0.43912,-1.19509,-9.73108,7.31516,-2.80565,-53.0081
2023-03-11 22:13:19:782,-0.370361,-1.1978,-9.74445,7.30963,-2.79671,-53.012
2023-03-11 22:13:19:792,-0.37963,-1.20032,-9.72779,7.3064,-2.79304,-53.0102
2023-03-11 22:13:19:802,-0.439901,-1.20845,-9.7384,7.30519,-2.79269,-53.0052
2023-03-11 22:13:19:812,-0.463133,-1.2041,-9.74499,7.30605,-2.79363,-53.0022
2023-03-11 22:13:19:822,-0.462942,-1.20044,-9.73763,7.30535,-2.79183,-53.0029
2023-03-11 22:13:19:832,-0.470418,-1.21132,-9.72402,7.30429,-2.78825,-52.9967
2023-03-11 22:13:19:842,-0.463081,-1.21138,-9.71063,7.30644,-2.78926,-52.997
2023-03-11 22:13:19:852,-0.451235,-1.20143,-9.73198,7.31212,-2.78415,-52.9954
2023-03-11 22:13:19:862,-0.451186,-1.19591,-9.75401,7.31725,-2.78508,-52.9933
2023-03-11 22:13:19:872,-0.449032,-1.2018,-9.73898,7.32393,-2.78963,-52.9899
2023-03-11 22:13:19:882,-0.46468,-1.21218,-9.71085,7.33544,-2.79437,-52.9873
2023-03-11 22:13:19:892,-0.471165,-1.22012,-9.69078,7.34728,-2.79615,-52.9892
2023-03-11 22:13:19:902,-0.481512,-1.2331,-9.70935,7.3555,-2.80204,-52.9902
2023-03-11 22:13:19:912,-0.474818,-1.2355,-9.69821,7.36448,-2.80442,-52.9912
2023-03-11 22:13:19:922,-0.462937,-1.25519,-9.70644,7.37474,-2.80911,-52.9867
2023-03-11 22:13:19:932,-0.461262,-1.24981,-9.7253,7.38592,-2.81744,-52.9837
2023-03-11 22:13:19:942,-0.469473,-1.22925,-9.73124,7.398,-2.82285,-52.9806
2023-03-11 22:13:19:952,-0.476575,-1.24162,-9.72316,7.4118,-2.83259,-52.9773
2023-03-11 22:13:19:962,-0.500848,-1.25725,-9.69077,7.42619,-2.84207,-52.9707
2023-03-11 22:13:19:972,-0.520272,-1.26867,-9.67346,7.43745,-2.84626,-52.9657
2023-03-11 22:13:19:982,-0.543391,-1.25677,-9.65681,7.4555,-2.85239,-52.9609
2023-03-11 22:13:19:992,-0.545425,-1.25848,-9.65029,7.47087,-2.8566,-52.9588
2023-03-11 22:13:20:2,-0.53541,-1.27143,-9.64506,7.47991,-2.85919,-52.9537
2023-03-11 22:13:20:12,-0.544589,-1.29026,-9.62888,7.48751,-2.85813,-52.9503
2023-03-11 22:13:20:22,-0.557654,-1.28022,-9.61542,7.49281,-2.85731,-52.9479
2023-03-11 22:13:20:32,-0.562375,-1.26859,-9.63507,7.49408,-2.85764,-52.9515
2023-03-11 22:13:20:42,-0.5491,-1.26745,-9.64365,7.49739,-2.85486,-52.9566
2023-03-11 22:13:20:52,-0.525957,-1.26183,-9.67428,7.50392,-2.85486,-52.9635
2023-03-11 22:13:20:62,-0.519598,-1.24643,-9.70518,7.5065,-2.85394,-52.9709
2023-03-11 22:13:20:72,-0.508305,-1.2426,-9.71838,7.50827,-2.84973,-52.9822
2023-03-11 22:13:20:82,-0.478823,-1.24479,-9.70343,7.51112,-2.84778,-52.9921
2023-03-11 22:13:20:92,-0.465074,-1.26342,-9.69763,7.51236,-2.84242,-53.0035
2023-03-11 22:13:20:102,-0.438856,-1.25607,-9.69178,7.51451,-2.83427,-53.0164
2023-03-11 22:13:20:112,-0.440104,-1.25208,-9.69397,7.5137,-2.83126,-53.0197
2023-03-11 22:13:20:122,-0.450149,-1.24303,-9.68474,7.51333,-2.82876,-53.0238
2023-03-11 22:13:20:132,-0.442552,-1.24026,-9.71056,7.51398,-2.82727,-53.0322
2023-03-11 22:13:20:142,-0.432666,-1.23729,-9.73129,7.51565,-2.82463,-53.034
2023-03-11 22:13:20:152,-0.445807,-1.24128,-9.73893,7.51583,-2.81975,-53.035
2023-03-11 22:13:20:162,-0.453832,-1.25522,-9.72571,7.51866,-2.81555,-53.0327
2023-03-11 22:13:20:172,-0.457133,-1.24555,-9.71907,7.5203,-2.81351,-53.0319
2023-03-11 22:13:20:182,-0.462434,-1.23957,-9.72359,7.52403,-2.80631,-53.03
2023-03-11 22:13:20:192,-0.481739,-1.25176,-9.72268,7.52757,-2.80267,-53.0315
2023-03-11 22:13:20:202,-0.475347,-1.26736,-9.7087,7.53218,-2.79739,-53.0312
2023-03-11 22:13:20:212,-0.463393,-1.26843,-9.70274,7.5375,-2.79296,-53.0313
2023-03-11 22:13:20:222,-0.46175,-1.26695,-9.68701,7.54528,-2.79175,-53.0283
2023-03-11 22:13:20:232,-0.463931,-1.2692,-9.6572,7.55338,-2.79025,-53.0311
2023-03-11 22:13:20:242,-0.486093,-1.28642,-9.64414,7.55989,-2.78985,-53.0287
2023-03-11 22:13:20:252,-0.495388,-1.30334,-9.6537,7.57011,-2.78537,-53.0302
2023-03-11 22:13:20:262,-0.488818,-1.31814,-9.67,7.57842,-2.78475,-53.0337
2023-03-11 22:13:20:272,-0.403707,-1.31809,-9.70027,7.58518,-2.78037,-53.0424
2023-03-11 22:13:20:282,-0.306883,-1.32654,-9.73029,7.59003,-2.77702,-53.0518
2023-03-11 22:13:20:292,-0.288613,-1.36194,-9.7264,7.59337,-2.77577,-53.0492
2023-03-11 22:13:20:302,-0.36301,-1.35945,-9.68011,7.59506,-2.78586,-53.0394
2023-03-11 22:13:20:312,-0.453303,-1.32791,-9.6717,7.59535,-2.79726,-53.0316
2023-03-11 22:13:20:322,-0.501134,-1.28782,-9.67871,7.58923,-2.81167,-53.0285
2023-03-11 22:13:20:332,-0.51412,-1.24423,-9.69023,7.58396,-2.82024,-53.0233
2023-03-11 22:13:20:342,-0.512649,-1.21251,-9.69398,7.57795,-2.82729,-53.0155
2023-03-11 22:13:20:352,-0.499439,-1.20566,-9.69643,7.57083,-2.82484,-53.0106
2023-03-11 22:13:20:362,-0.510026,-1.20434,-9.68028,7.57002,-2.82544,-53.0071
2023-03-11 22:13:20:372,-0.51292,-1.21869,-9.66938,7.56992,-2.82576,-53.0036
2023-03-11 22:13:20:382,-0.525922,-1.25101,-9.64993,7.57146,-2.829,-52.9982
2023-03-11 22:13:20:392,-0.541538,-1.27522,-9.62807,7.57649,-2.82914,-52.9987
2023-03-11 22:13:20:402,-0.544898,-1.29449,-9.64247,7.58183,-2.82744,-52.9986
2023-03-11 22:13:20:412,-0.540516,-1.30318,-9.66673,7.58627,-2.82765,-53.0017
2023-03-11 22:13:20:422,-0.54128,-1.29975,-9.67924,7.58818,-2.82874,-53.0093
2023-03-11 22:13:20:432,-0.542457,-1.3103,-9.69581,7.58853,-2.82833,-53.0181
2023-03-11 22:13:20:442,-0.526994,-1.31286,-9.70618,7.58797,-2.82637,-53.0284
2023-03-11 22:13:20:452,-0.473616,-1.31132,-9.68614,7.58867,-2.824,-53.0401
2023-03-11 22:13:20:462,-0.432409,-1.3078,-9.66889,7.58251,-2.8174,-53.0478
2023-03-11 22:13:20:472,-0.478145,-1.29319,-9.6637,7.5756,-2.81464,-53.048
2023-03-11 22:13:20:482,-0.534751,-1.28189,-9.65148,7.56577,-2.81056,-53.0528
2023-03-11 22:13:20:492,-0.536526,-1.22923,-9.67396,7.55647,-2.80227,-53.0597
2023-03-11 22:13:20:502,-0.438308,-1.21854,-9.72779,7.54143,-2.78824,-53.0691
2023-03-11 22:13:20:512,-0.351609,-1.20982,-9.77564,7.53216,-2.77903,-53.0741
2023-03-11 22:13:20:522,-0.376579,-1.21784,-9.76503,7.5295,-2.77678,-53.0751
2023-03-11 22:13:20:532,-0.450939,-1.20985,-9.73216,7.52746,-2.77555,-53.0726
2023-03-11 22:13:20:542,-0.470482,-1.22032,-9.69677,7.52807,-2.77513,-53.07
2023-03-11 22:13:20:552,-0.457775,-1.2459,-9.70789,7.52928,-2.77135,-53.0716
2023-03-11 22:13:20:562,-0.451776,-1.26762,-9.69746,7.52944,-2.76798,-53.0697
2023-03-11 22:13:20:572,-0.470402,-1.27017,-9.68451,7.53133,-2.76637,-53.0657
2023-03-11 22:13:20:582,-0.466657,-1.27256,-9.70279,7.53017,-2.76315,-53.0679
2023-03-11 22:13:20:592,-0.466327,-1.27578,-9.71455,7.52973,-2.76177,-53.0647
2023-03-11 22:13:20:602,-0.4794,-1.2513,-9.70026,7.53126,-2.76118,-53.0594
2023-03-11 22:13:20:612,-0.49315,-1.2334,-9.71708,7.53012,-2.75644,-53.0558
2023-03-11 22:13:20:621,-0.494999,-1.23937,-9.73261,7.52905,-2.75147,-53.0539
2023-03-11 22:13:20:632,-0.493002,-1.23228,-9.71782,7.53447,-2.74963,-53.0502
2023-03-11 22:13:20:642,-0.487649,-1.2378,-9.70584,7.53753,-2.74852,-53.0508
2023-03-11 22:13:20:652,-0.454742,-1.24591,-9.68894,7.54085,-2.74773,-53.0548
2023-03-11 22:13:20:662,-0.434369,-1.2787,-9.66975,7.5479,-2.74728,-53.0588
2023-03-11 22:13:20:672,-0.434739,-1.29972,-9.65073,7.5549,-2.75063,-53.056
2023-03-11 22:13:20:682,-0.44926,-1.30413,-9.66046,7.55598,-2.75241,-53.0556
2023-03-11 22:13:20:692,-0.460183,-1.27601,-9.66738,7.55858,-2.75592,-53.0529
2023-03-11 22:13:20:702,-0.468656,-1.26565,-9.68419,7.5589,-2.75968,-53.0467
2023-03-11 22:13:20:712,-0.471546,-1.28427,-9.69828,7.55975,-2.76148,-53.0397
2023-03-11 22:13:20:722,-0.496153,-1.2892,-9.67016,7.55923,-2.76171,-53.0291
