Timestamp,Acceleration_x,Acceleration_y,Acceleration_z,roll,pitch,yaw
2023-03-11 17:19:33:290,-0.210632,0.840382,-9.72716,-4.04338,-1.23789,88.4965
2023-03-11 17:19:33:298,-0.194876,0.880204,-9.79269,-4.07548,-1.22173,88.4996
2023-03-11 17:19:33:308,-0.196216,0.901681,-9.81437,-4.10034,-1.20526,88.5063
2023-03-11 17:19:33:318,-0.218956,0.894907,-9.82887,-4.11834,-1.18851,88.5144
2023-03-11 17:19:33:328,-0.266135,0.890955,-9.85002,-4.12949,-1.17773,88.5233
2023-03-11 17:19:33:339,-0.315486,0.892629,-9.92101,-4.13562,-1.1608,88.5321
2023-03-11 17:19:33:348,-0.354915,0.900715,-9.97129,-4.13047,-1.14707,88.5371
2023-03-11 17:19:33:358,-0.34836,0.869444,-10.0037,-4.11146,-1.13716,88.5312
2023-03-11 17:19:33:368,-0.31329,0.832209,-9.96853,-4.0822,-1.12434,88.5181
2023-03-11 17:19:33:379,-0.29949,0.785101,-9.88226,-4.04194,-1.10715,88.4997
2023-03-11 17:19:33:388,-0.279665,0.706623,-9.78907,-3.99638,-1.09399,88.4726
2023-03-11 17:19:33:398,-0.25763,0.648183,-9.69738,-3.95174,-1.07706,88.447
2023-03-11 17:19:33:408,-0.20243,0.611643,-9.62587,-3.9066,-1.05738,88.4196
2023-03-11 17:19:33:419,-0.147897,0.585543,-9.59271,-3.86921,-1.03287,88.3904
2023-03-11 17:19:33:429,-0.101719,0.582351,-9.62539,-3.84076,-1.00235,88.3612
2023-03-11 17:19:33:439,-0.0498305,0.586682,-9.65322,-3.81675,-0.968994,88.3309
2023-03-11 17:19:33:449,0.00266053,0.570953,-9.63712,-3.79991,-0.937923,88.3067
2023-03-11 17:19:33:459,0.0285873,0.564227,-9.62754,-3.78905,-0.90586,88.2865
2023-03-11 17:19:33:469,0.0750257,0.562758,-9.60277,-3.78309,-0.873086,88.2745
2023-03-11 17:19:33:478,0.129151,0.554974,-9.56531,-3.79165,-0.843327,88.2658
2023-03-11 17:19:33:488,0.148548,0.543319,-9.52943,-3.81115,-0.822967,88.2659
2023-03-11 17:19:33:499,0.133718,0.560792,-9.50818,-3.84796,-0.809641,88.2743
2023-03-11 17:19:33:508,0.0784052,0.611432,-9.53878,-3.89906,-0.805911,88.2863
2023-03-11 17:19:33:518,0.0389212,0.672125,-9.62964,-3.9653,-0.814355,88.3064
2023-03-11 17:19:33:528,-0.0284704,0.758931,-9.74145,-4.03489,-0.828393,88.3306
2023-03-11 17:19:33:538,-0.0890742,0.839322,-9.85459,-4.10438,-0.846584,88.356
2023-03-11 17:19:33:549,-0.154884,0.904747,-9.93336,-4.16487,-0.86687,88.3822
2023-03-11 17:19:33:559,-0.18572,0.926073,-9.9523,-4.21022,-0.887706,88.4051
2023-03-11 17:19:33:568,-0.210733,0.917031,-9.93803,-4.24383,-0.905984,88.42
2023-03-11 17:19:33:579,-0.219553,0.897871,-9.88591,-4.26844,-0.924375,88.4298
2023-03-11 17:19:33:589,-0.239403,0.876044,-9.81474,-4.29293,-0.950883,88.4371
2023-03-11 17:19:33:599,-0.246023,0.8657,-9.78289,-4.31563,-0.980343,88.4381
2023-03-11 17:19:33:609,-0.256871,0.848621,-9.76273,-4.3353,-1.00824,88.4339
2023-03-11 17:19:33:618,-0.261473,0.855206,-9.78195,-4.35369,-1.03206,88.4232
2023-03-11 17:19:33:628,-0.248648,0.869999,-9.81843,-4.37302,-1.059,88.4134
2023-03-11 17:19:33:638,-0.24303,0.871258,-9.86353,-4.38502,-1.08175,88.3987
2023-03-11 17:19:33:648,-0.240774,0.881405,-9.90848,-4.39613,-1.10488,88.3862
2023-03-11 17:19:33:658,-0.245114,0.888169,-9.92519,-4.39901,-1.12959,88.3712
2023-03-11 17:19:33:668,-0.232091,0.864147,-9.91255,-4.39134,-1.15193,88.3518
2023-03-11 17:19:33:678,-0.239213,0.831679,-9.88058,-4.37517,-1.17519,88.3366
2023-03-11 17:19:33:688,-0.255577,0.815046,-9.82311,-4.353,-1.1977,88.3224
2023-03-11 17:19:33:698,-0.26008,0.78529,-9.77219,-4.33248,-1.22244,88.3048
2023-03-11 17:19:33:709,-0.288385,0.761742,-9.75782,-4.31137,-1.24212,88.2936
2023-03-11 17:19:33:718,-0.32768,0.747069,-9.75531,-4.28394,-1.26029,88.2821
2023-03-11 17:19:33:728,-0.357434,0.738025,-9.74108,-4.25889,-1.2729,88.2705
2023-03-11 17:19:33:738,-0.354626,0.731561,-9.75828,-4.23451,-1.2809,88.2555
2023-03-11 17:19:33:748,-0.299879,0.745091,-9.80485,-4.20908,-1.28223,88.2353
2023-03-11 17:19:33:758,-0.220741,0.73005,-9.81663,-4.18286,-1.28561,88.2155
2023-03-11 17:19:33:768,-0.192674,0.697713,-9.79031,-4.15393,-1.29207,88.2011
2023-03-11 17:19:33:778,-0.209478,0.665998,-9.71815,-4.12344,-1.29883,88.1906
2023-03-11 17:19:33:788,-0.223558,0.64155,-9.68491,-4.09846,-1.30646,88.1819
2023-03-11 17:19:33:798,-0.248729,0.64888,-9.70019,-4.07831,-1.31416,88.177
2023-03-11 17:19:33:808,-0.262937,0.669724,-9.69973,-4.06158,-1.32104,88.1706
2023-03-11 17:19:33:818,-0.265297,0.658477,-9.70217,-4.04553,-1.32206,88.168
2023-03-11 17:19:33:828,-0.252225,0.647322,-9.67311,-4.03242,-1.31983,88.161
2023-03-11 17:19:33:838,-0.222569,0.632558,-9.66693,-4.02283,-1.31678,88.1536
2023-03-11 17:19:33:848,-0.194546,0.647768,-9.66,-4.01467,-1.31426,88.1461
2023-03-11 17:19:33:858,-0.188133,0.642545,-9.6215,-4.01327,-1.31106,88.141
2023-03-11 17:19:33:868,-0.183405,0.625507,-9.60555,-4.0208,-1.30575,88.1401
2023-03-11 17:19:33:878,-0.18082,0.620267,-9.61991,-4.03184,-1.29862,88.1395
2023-03-11 17:19:33:888,-0.152703,0.631619,-9.65743,-4.04999,-1.29077,88.1398
2023-03-11 17:19:33:898,-0.152878,0.658859,-9.67997,-4.07463,-1.28108,88.1428
2023-03-11 17:19:33:908,-0.162645,0.680832,-9.69904,-4.10464,-1.26722,88.1462
2023-03-11 17:19:33:918,-0.189063,0.707316,-9.70482,-4.13768,-1.2541,88.1544
2023-03-11 17:19:33:928,-0.198918,0.744457,-9.71124,-4.17719,-1.24416,88.1626
2023-03-11 17:19:33:938,-0.20523,0.753367,-9.72007,-4.21769,-1.23731,88.171
2023-03-11 17:19:33:948,-0.234171,0.78337,-9.72625,-4.26333,-1.23238,88.1756
2023-03-11 17:19:33:959,-0.28163,0.830038,-9.74254,-4.30868,-1.22889,88.1824
2023-03-11 17:19:33:968,-0.332113,0.861747,-9.76612,-4.35081,-1.22052,88.184
2023-03-11 17:19:33:978,-0.314827,0.895762,-9.82579,-4.39171,-1.20818,88.181
2023-03-11 17:19:33:988,-0.241034,0.904205,-9.86799,-4.42418,-1.19567,88.1687
2023-03-11 17:19:33:998,-0.162795,0.892853,-9.86809,-4.4503,-1.18171,88.1527
2023-03-11 17:19:34:8,-0.13236,0.882832,-9.83907,-4.47328,-1.16807,88.1367
2023-03-11 17:19:34:18,-0.0817407,0.865482,-9.78465,-4.49193,-1.15814,88.1235
2023-03-11 17:19:34:28,-0.0707461,0.831758,-9.75092,-4.50649,-1.14718,88.1155
2023-03-11 17:19:34:38,-0.0737889,0.831139,-9.71655,-4.52893,-1.13577,88.1111
2023-03-11 17:19:34:48,-0.0816663,0.824759,-9.73202,-4.55068,-1.1245,88.1113
2023-03-11 17:19:34:58,-0.103738,0.855537,-9.7429,-4.57364,-1.11496,88.1169
2023-03-11 17:19:34:68,-0.124702,0.885546,-9.76929,-4.59745,-1.10534,88.125
2023-03-11 17:19:34:78,-0.144696,0.887257,-9.78508,-4.61479,-1.09873,88.1347
2023-03-11 17:19:34:88,-0.158464,0.882802,-9.77964,-4.63591,-1.09193,88.1445
2023-03-11 17:19:34:98,-0.15165,0.88496,-9.75976,-4.65318,-1.09112,88.1507
2023-03-11 17:19:34:108,-0.179348,0.889363,-9.75973,-4.66979,-1.09296,88.1598
2023-03-11 17:19:34:118,-0.18328,0.899805,-9.77167,-4.68799,-1.09891,88.1669
2023-03-11 17:19:34:128,-0.201008,0.908316,-9.76956,-4.70368,-1.10969,88.1729
2023-03-11 17:19:34:138,-0.243922,0.928729,-9.78074,-4.71932,-1.12545,88.1755
2023-03-11 17:19:34:148,-0.262424,0.938058,-9.82823,-4.7306,-1.14381,88.1741
2023-03-11 17:19:34:158,-0.276277,0.955835,-9.87086,-4.74253,-1.1621,88.1693
2023-03-11 17:19:34:168,-0.279459,0.951273,-9.89085,-4.74596,-1.18476,88.1607
2023-03-11 17:19:34:178,-0.261612,0.939317,-9.91313,-4.7423,-1.20876,88.147
2023-03-11 17:19:34:188,-0.2599,0.933306,-9.88269,-4.73034,-1.2296,88.1325
2023-03-11 17:19:34:198,-0.27911,0.905738,-9.83835,-4.71269,-1.25213,88.1169
2023-03-11 17:19:34:208,-0.272139,0.876689,-9.79025,-4.68683,-1.27616,88.1038
2023-03-11 17:19:34:218,-0.266457,0.849972,-9.77329,-4.66058,-1.29639,88.0896
2023-03-11 17:19:34:228,-0.260433,0.831493,-9.77845,-4.63713,-1.30914,88.0785
2023-03-11 17:19:34:238,-0.250333,0.835336,-9.76925,-4.60618,-1.32062,88.0687
2023-03-11 17:19:34:248,-0.23079,0.808426,-9.72589,-4.57232,-1.32211,88.0569
2023-03-11 17:19:34:258,-0.199207,0.786589,-9.64935,-4.53709,-1.31394,88.0446
2023-03-11 17:19:34:268,-0.16729,0.765732,-9.56996,-4.50578,-1.29792,88.0338
2023-03-11 17:19:34:278,-0.226318,0.731065,-9.46708,-4.47572,-1.27237,88.0229
2023-03-11 17:19:34:288,-0.341843,0.705354,-9.39457,-4.46087,-1.22754,88.0125
2023-03-11 17:19:34:298,-0.370139,0.720811,-9.46788,-4.46501,-1.16085,87.9962
2023-03-11 17:19:34:308,-0.249711,0.778257,-9.65592,-4.4831,-1.0918,87.9685
2023-03-11 17:19:34:319,-0.1177,0.827713,-9.861,-4.5041,-1.02499,87.9388
2023-03-11 17:19:34:329,-0.0315874,0.872044,-9.98036,-4.52372,-0.974601,87.904
2023-03-11 17:19:34:339,-0.0294932,0.886488,-9.97875,-4.53536,-0.94295,87.8755
2023-03-11 17:19:34:349,-0.0945339,0.861343,-9.89793,-4.5392,-0.933651,87.8474
2023-03-11 17:19:34:359,-0.178089,0.84926,-9.80845,-4.54802,-0.93889,87.8255
2023-03-11 17:19:34:368,-0.230362,0.855948,-9.75949,-4.55043,-0.95537,87.8012
2023-03-11 17:19:34:378,-0.277303,0.857986,-9.73142,-4.554,-0.972399,87.7789
2023-03-11 17:19:34:388,-0.324525,0.849889,-9.72854,-4.5549,-0.982459,87.756
2023-03-11 17:19:34:398,-0.339089,0.850764,-9.71783,-4.5545,-0.99322,87.7308
2023-03-11 17:19:34:408,-0.324981,0.834505,-9.72796,-4.557,-0.999813,87.699
2023-03-11 17:19:34:418,-0.306086,0.825791,-9.73566,-4.55696,-0.998922,87.6652
2023-03-11 17:19:34:428,-0.274068,0.830731,-9.74146,-4.5559,-0.991496,87.6314
2023-03-11 17:19:34:438,-0.256323,0.834664,-9.75262,-4.55207,-0.978389,87.5977
2023-03-11 17:19:34:448,-0.226169,0.822974,-9.76319,-4.54682,-0.960722,87.5594
2023-03-11 17:19:34:458,-0.175757,0.813711,-9.74054,-4.53807,-0.93756,87.5217
2023-03-11 17:19:34:468,-0.13786,0.803023,-9.72522,-4.53407,-0.908293,87.4846
2023-03-11 17:19:34:478,-0.100988,0.803791,-9.74102,-4.53733,-0.87958,87.4473
2023-03-11 17:19:34:488,-0.0458557,0.811523,-9.74058,-4.53898,-0.850993,87.4084
2023-03-11 17:19:34:498,-0.0283389,0.812245,-9.73087,-4.54011,-0.824801,87.3751
2023-03-11 17:19:34:508,-0.0147601,0.815387,-9.72981,-4.54561,-0.799525,87.3401
2023-03-11 17:19:34:518,0.000262049,0.813916,-9.73377,-4.55211,-0.780379,87.3077
2023-03-11 17:19:34:528,0.0151079,0.812273,-9.73943,-4.56478,-0.767563,87.2771
2023-03-11 17:19:34:538,0.0168293,0.827143,-9.75551,-4.57788,-0.760205,87.249
2023-03-11 17:19:34:548,0.00482427,0.839693,-9.78053,-4.59085,-0.756831,87.2227
2023-03-11 17:19:34:558,-0.00924711,0.850647,-9.81493,-4.60456,-0.7596,87.1983
2023-03-11 17:19:34:568,0.00405769,0.868658,-9.86044,-4.61375,-0.76668,87.1782
2023-03-11 17:19:34:578,0.019839,0.873025,-9.887,-4.6241,-0.775627,87.1601
2023-03-11 17:19:34:588,0.028302,0.871847,-9.87459,-4.62291,-0.792811,87.1462
2023-03-11 17:19:34:598,0.00634593,0.855864,-9.85553,-4.6198,-0.811584,87.1371
2023-03-11 17:19:34:608,-0.0291213,0.849411,-9.83874,-4.61084,-0.835333,87.1351
2023-03-11 17:19:34:618,-0.0351313,0.84702,-9.81593,-4.60295,-0.860276,87.1357
2023-03-11 17:19:34:628,-0.0202112,0.816347,-9.78153,-4.5928,-0.884278,87.1495
2023-03-11 17:19:34:638,-0.0227022,0.792809,-9.72482,-4.57577,-0.908738,87.1694
2023-03-11 17:19:34:648,-0.0446319,0.779052,-9.67778,-4.56228,-0.933364,87.1963
2023-03-11 17:19:34:658,-0.0806928,0.769103,-9.64659,-4.5474,-0.957122,87.2337
2023-03-11 17:19:34:668,-0.137543,0.748845,-9.6291,-4.53676,-0.982387,87.2769
2023-03-11 17:19:34:678,-0.168889,0.751118,-9.6141,-4.53275,-1.00119,87.3235
2023-03-11 17:19:34:688,-0.191126,0.756148,-9.62574,-4.53299,-1.0151,87.3676
2023-03-11 17:19:34:698,-0.202231,0.760715,-9.64545,-4.5406,-1.02712,87.4156
2023-03-11 17:19:34:708,-0.212398,0.785271,-9.67306,-4.55324,-1.03707,87.4618
2023-03-11 17:19:34:718,-0.201013,0.801059,-9.68535,-4.57082,-1.0458,87.5037
2023-03-11 17:19:34:728,-0.185629,0.807684,-9.71021,-4.5915,-1.05452,87.5457
2023-03-11 17:19:34:738,-0.211357,0.820012,-9.73159,-4.61558,-1.06224,87.5884
2023-03-11 17:19:34:748,-0.227899,0.842862,-9.7304,-4.6425,-1.07361,87.6302
2023-03-11 17:19:34:758,-0.24021,0.844307,-9.71908,-4.66716,-1.08456,87.6692
2023-03-11 17:19:34:768,-0.228597,0.871859,-9.72372,-4.69376,-1.09125,87.7029
2023-03-11 17:19:34:778,-0.26214,0.884885,-9.75768,-4.71899,-1.10369,87.7365
2023-03-11 17:19:34:788,-0.287775,0.864978,-9.72818,-4.74911,-1.11638,87.7625
2023-03-11 17:19:34:798,-0.300577,0.913114,-9.75458,-4.7767,-1.12424,87.7815
2023-03-11 17:19:34:808,-0.282802,0.949239,-9.81119,-4.8061,-1.13183,87.7932
2023-03-11 17:19:34:818,-0.258344,0.962561,-9.83196,-4.83119,-1.14288,87.7999
2023-03-11 17:19:34:828,-0.291457,0.972748,-9.79815,-4.8537,-1.15188,87.8021
2023-03-11 17:19:34:838,-0.296545,0.969267,-9.78153,-4.87387,-1.1589,87.8
2023-03-11 17:19:34:848,-0.29874,0.969629,-9.7966,-4.88977,-1.16385,87.7924
2023-03-11 17:19:34:858,-0.268092,0.97046,-9.80504,-4.90504,-1.16747,87.7841
2023-03-11 17:19:34:868,-0.216675,0.968247,-9.80378,-4.91498,-1.17383,87.7721
2023-03-11 17:19:34:878,-0.177773,0.962444,-9.78987,-4.92198,-1.18099,87.7554
2023-03-11 17:19:34:888,-0.192198,0.953229,-9.75738,-4.92727,-1.1897,87.748
2023-03-11 17:19:34:898,-0.199643,0.9343,-9.75794,-4.92939,-1.19823,87.7367
2023-03-11 17:19:34:908,-0.20492,0.930688,-9.7788,-4.93159,-1.20231,87.7243
2023-03-11 17:19:34:918,-0.198472,0.939974,-9.80163,-4.9313,-1.21021,87.7149
2023-03-11 17:19:34:928,-0.18795,0.940114,-9.82544,-4.92596,-1.21364,87.7053
2023-03-11 17:19:34:938,-0.18448,0.917549,-9.8097,-4.9162,-1.21074,87.6979
2023-03-11 17:19:34:948,-0.159295,0.889021,-9.78873,-4.9026,-1.20637,87.6948
2023-03-11 17:19:34:958,-0.129551,0.856761,-9.76347,-4.89083,-1.20123,87.6924
2023-03-11 17:19:34:968,-0.125266,0.855498,-9.75084,-4.875,-1.1951,87.6982
2023-03-11 17:19:34:978,-0.149774,0.857679,-9.76748,-4.86198,-1.19028,87.7078
2023-03-11 17:19:34:988,-0.179866,0.883064,-9.78036,-4.85273,-1.18276,87.7195
2023-03-11 17:19:34:998,-0.209379,0.880786,-9.80342,-4.83746,-1.17456,87.7334
2023-03-11 17:19:35:8,-0.228815,0.873708,-9.79555,-4.81885,-1.16781,87.7484
2023-03-11 17:19:35:18,-0.26351,0.867125,-9.78347,-4.79624,-1.16031,87.7629
2023-03-11 17:19:35:29,-0.28867,0.855937,-9.75766,-4.77341,-1.1521,87.772
2023-03-11 17:19:35:39,-0.321415,0.826548,-9.73048,-4.74954,-1.1492,87.7758
2023-03-11 17:19:35:49,-0.344714,0.831238,-9.74462,-4.7265,-1.14566,87.7768
2023-03-11 17:19:35:59,-0.34662,0.831814,-9.78421,-4.70215,-1.14101,87.7704
2023-03-11 17:19:35:68,-0.327346,0.819616,-9.76633,-4.67554,-1.13005,87.7539
2023-03-11 17:19:35:79,-0.308009,0.791593,-9.74172,-4.64688,-1.11947,87.7346
2023-03-11 17:19:35:88,-0.2683,0.760063,-9.70522,-4.62061,-1.10619,87.7142
2023-03-11 17:19:35:98,-0.241226,0.747077,-9.67557,-4.59206,-1.08468,87.6893
2023-03-11 17:19:35:108,-0.19025,0.727003,-9.66228,-4.5683,-1.05949,87.6632
2023-03-11 17:19:35:118,-0.148447,0.71265,-9.6547,-4.55196,-1.03247,87.64
2023-03-11 17:19:35:128,-0.112521,0.71377,-9.63592,-4.53636,-1.00046,87.6161
2023-03-11 17:19:35:139,-0.0957164,0.713815,-9.62555,-4.52993,-0.97079,87.5952
2023-03-11 17:19:35:148,-0.091583,0.710061,-9.62417,-4.52993,-0.940935,87.5777
2023-03-11 17:19:35:159,-0.091483,0.723388,-9.64289,-4.53558,-0.909931,87.559
2023-03-11 17:19:35:169,-0.0779962,0.747002,-9.65882,-4.54743,-0.880013,87.5421
2023-03-11 17:19:35:179,-0.0844021,0.77581,-9.67504,-4.56432,-0.850927,87.5275
2023-03-11 17:19:35:189,-0.0685705,0.804597,-9.7061,-4.58369,-0.823481,87.5071
2023-03-11 17:19:35:199,-0.0606654,0.818658,-9.72403,-4.60516,-0.79819,87.4861
2023-03-11 17:19:35:209,-0.0523839,0.833803,-9.74497,-4.62865,-0.77764,87.4642
2023-03-11 17:19:35:218,-0.0242738,0.864829,-9.77763,-4.65327,-0.760861,87.4449
2023-03-11 17:19:35:229,-0.00245941,0.881883,-9.78233,-4.68025,-0.753258,87.4257
2023-03-11 17:19:35:239,-0.0107818,0.894341,-9.78783,-4.70313,-0.747468,87.4076
2023-03-11 17:19:35:248,-0.00368704,0.89283,-9.78684,-4.72163,-0.745351,87.391
2023-03-11 17:19:35:258,-0.0105243,0.899764,-9.78153,-4.7403,-0.743521,87.3784
2023-03-11 17:19:35:268,-0.0116602,0.896282,-9.7858,-4.76024,-0.748359,87.3673
2023-03-11 17:19:35:279,-0.0220329,0.902892,-9.80147,-4.77911,-0.751856,87.361
2023-03-11 17:19:35:289,-0.0360651,0.914541,-9.79716,-4.79645,-0.758071,87.3553
2023-03-11 17:19:35:299,-0.0512341,0.919577,-9.7877,-4.81341,-0.771152,87.3465
2023-03-11 17:19:35:309,-0.0885577,0.910036,-9.77541,-4.82403,-0.784203,87.343
2023-03-11 17:19:35:319,-0.128538,0.91163,-9.76372,-4.8347,-0.797646,87.3451
2023-03-11 17:19:35:329,-0.167579,0.917797,-9.75255,-4.8475,-0.810397,87.3464
2023-03-11 17:19:35:338,-0.181483,0.91264,-9.74435,-4.85546,-0.823,87.3455
2023-03-11 17:19:35:348,-0.189057,0.896888,-9.74963,-4.86168,-0.837052,87.3487
2023-03-11 17:19:35:359,-0.199382,0.889665,-9.77058,-4.86604,-0.847246,87.3483
2023-03-11 17:19:35:369,-0.187891,0.901091,-9.8171,-4.87049,-0.859934,87.3469
2023-03-11 17:19:35:379,-0.159483,0.932253,-9.84311,-4.87643,-0.866697,87.342
2023-03-11 17:19:35:388,-0.1419,0.925376,-9.84172,-4.87407,-0.878579,87.3363
2023-03-11 17:19:35:399,-0.15871,0.904169,-9.79372,-4.87061,-0.894352,87.331
2023-03-11 17:19:35:409,-0.17787,0.891498,-9.74136,-4.86313,-0.907132,87.3253
2023-03-11 17:19:35:419,-0.182099,0.87113,-9.71078,-4.85967,-0.917314,87.3218
2023-03-11 17:19:35:429,-0.183547,0.880827,-9.68022,-4.85587,-0.922281,87.3203
2023-03-11 17:19:35:439,-0.16162,0.87073,-9.67147,-4.85764,-0.920447,87.3201
2023-03-11 17:19:35:449,-0.126834,0.8653,-9.66978,-4.86202,-0.918676,87.3223
2023-03-11 17:19:35:458,-0.110729,0.881374,-9.67562,-4.87274,-0.917665,87.3273
2023-03-11 17:19:35:468,-0.107176,0.901959,-9.68907,-4.88592,-0.912825,87.3361
2023-03-11 17:19:35:478,-0.126773,0.91073,-9.69994,-4.90096,-0.907831,87.3504
2023-03-11 17:19:35:488,-0.14253,0.912347,-9.68684,-4.91314,-0.901525,87.3652
2023-03-11 17:19:35:498,-0.163092,0.909629,-9.68482,-4.92875,-0.893818,87.3795
2023-03-11 17:19:35:508,-0.175364,0.929007,-9.69672,-4.9444,-0.88185,87.3961
2023-03-11 17:19:35:518,-0.174189,0.943244,-9.73269,-4.96472,-0.875286,87.4148
2023-03-11 17:19:35:528,-0.167685,0.94894,-9.77392,-4.9874,-0.870195,87.4307
2023-03-11 17:19:35:538,-0.181699,0.967375,-9.80438,-5.00621,-0.866643,87.4422
2023-03-11 17:19:35:548,-0.210639,0.977372,-9.81597,-5.02675,-0.864147,87.4532
2023-03-11 17:19:35:559,-0.22758,0.999249,-9.80577,-5.04625,-0.860859,87.4634
2023-03-11 17:19:35:569,-0.224621,0.985938,-9.78626,-5.05795,-0.862081,87.4671
2023-03-11 17:19:35:578,-0.214946,0.972743,-9.76202,-5.06454,-0.859313,87.468
2023-03-11 17:19:35:589,-0.215886,0.954475,-9.72979,-5.07248,-0.857934,87.4653
2023-03-11 17:19:35:599,-0.226048,0.958321,-9.71899,-5.07933,-0.85243,87.4605
2023-03-11 17:19:35:609,-0.194874,0.978696,-9.73938,-5.0867,-0.843718,87.4505
2023-03-11 17:19:35:619,-0.106377,0.963111,-9.74907,-5.0897,-0.831054,87.4365
2023-03-11 17:19:35:629,-0.0567406,0.930881,-9.73084,-5.09,-0.818171,87.4219
2023-03-11 17:19:35:639,-0.0377688,0.921294,-9.71784,-5.09694,-0.808778,87.4087
2023-03-11 17:19:35:649,-0.0499069,0.929206,-9.7206,-5.10269,-0.798015,87.4004
2023-03-11 17:19:35:658,-0.0596923,0.947288,-9.73512,-5.11226,-0.789366,87.3974
2023-03-11 17:19:35:668,-0.0444171,0.966797,-9.7632,-5.11994,-0.779927,87.3984
2023-03-11 17:19:35:679,-0.0462587,0.974949,-9.7767,-5.12775,-0.767986,87.3993
2023-03-11 17:19:35:689,-0.0575685,0.989009,-9.78274,-5.13231,-0.759276,87.4047
2023-03-11 17:19:35:699,-0.0721705,0.98911,-9.78948,-5.13807,-0.748366,87.4117
2023-03-11 17:19:35:709,-0.0784761,0.988675,-9.7822,-5.13964,-0.739455,87.4117
2023-03-11 17:19:35:719,-0.0937265,0.979013,-9.78669,-5.13789,-0.734924,87.4093
2023-03-11 17:19:35:729,-0.0972875,0.975521,-9.7933,-5.13469,-0.73271,87.4066
2023-03-11 17:19:35:738,-0.0915034,0.972287,-9.79642,-5.12925,-0.740298,87.4004
2023-03-11 17:19:35:748,-0.0798265,0.967379,-9.80966,-5.11982,-0.745388,87.3941
2023-03-11 17:19:35:758,-0.0795668,0.961754,-9.80088,-5.11046,-0.752768,87.3827
2023-03-11 17:19:35:768,-0.0592747,0.93598,-9.78675,-5.10019,-0.76472,87.3769
2023-03-11 17:19:35:779,-0.0307458,0.91581,-9.77372,-5.08337,-0.7727,87.373
2023-03-11 17:19:35:788,-0.0272492,0.9023,-9.76914,-5.06884,-0.784088,87.3671
2023-03-11 17:19:35:798,-0.0146632,0.873467,-9.77709,-5.04993,-0.795485,87.3659
2023-03-11 17:19:35:809,-0.0193477,0.854492,-9.76307,-5.0338,-0.807657,87.372
2023-03-11 17:19:35:818,-0.0368575,0.857264,-9.72451,-5.02018,-0.820045,87.3812
2023-03-11 17:19:35:828,-0.08114,0.859142,-9.69654,-5.01068,-0.833613,87.4013
2023-03-11 17:19:35:838,-0.108974,0.853888,-9.68073,-5.00209,-0.847408,87.4277
2023-03-11 17:19:35:849,-0.154779,0.861482,-9.69109,-4.99332,-0.860759,87.4553
2023-03-11 17:19:35:859,-0.191114,0.887372,-9.72078,-4.98306,-0.871976,87.4859
2023-03-11 17:19:35:869,-0.244933,0.905062,-9.76267,-4.97268,-0.885603,87.5115
2023-03-11 17:19:35:879,-0.306519,0.912616,-9.79793,-4.96028,-0.895193,87.5368
2023-03-11 17:19:35:888,-0.33971,0.900047,-9.80434,-4.93903,-0.905188,87.551
2023-03-11 17:19:35:898,-0.3351,0.886191,-9.80189,-4.91505,-0.913011,87.5641
2023-03-11 17:19:35:908,-0.315512,0.865769,-9.79055,-4.88369,-0.920862,87.5678
2023-03-11 17:19:35:918,-0.292039,0.83182,-9.76595,-4.8509,-0.924558,87.5644
2023-03-11 17:19:35:928,-0.254355,0.775914,-9.69863,-4.81652,-0.927125,87.5556
2023-03-11 17:19:35:938,-0.239712,0.742879,-9.64878,-4.78751,-0.925812,87.5447
2023-03-11 17:19:35:948,-0.230049,0.730961,-9.63543,-4.76743,-0.9199,87.5342
2023-03-11 17:19:35:959,-0.209392,0.717812,-9.62641,-4.75323,-0.906748,87.5196
2023-03-11 17:19:35:969,-0.154492,0.73328,-9.66066,-4.75038,-0.893466,87.504
2023-03-11 17:19:35:979,-0.134834,0.778313,-9.70621,-4.75703,-0.875734,87.4897
2023-03-11 17:19:35:989,-0.108712,0.804274,-9.74127,-4.76385,-0.858749,87.471
2023-03-11 17:19:35:999,-0.0710373,0.823528,-9.7308,-4.77549,-0.840896,87.4552
2023-03-11 17:19:36:9,-0.0761817,0.833779,-9.72187,-4.78642,-0.826751,87.4394
2023-03-11 17:19:36:19,-0.0720568,0.845909,-9.71841,-4.79726,-0.812373,87.4251
2023-03-11 17:19:36:29,-0.064707,0.833925,-9.71339,-4.80999,-0.803491,87.4091
2023-03-11 17:19:36:38,-0.0505686,0.853196,-9.72126,-4.82481,-0.790729,87.3977
2023-03-11 17:19:36:49,-0.0583465,0.907626,-9.80382,-4.84521,-0.786974,87.3874
2023-03-11 17:19:36:59,-0.0538134,1.00893,-9.92206,-4.86267,-0.778767,87.3802
2023-03-11 17:19:36:68,-0.0373465,1.07207,-9.95874,-4.86543,-0.769851,87.377
2023-03-11 17:19:36:78,-0.0385781,1.0444,-9.90924,-4.85172,-0.758313,87.3806
2023-03-11 17:19:36:89,-0.054159,0.997904,-9.80376,-4.82561,-0.746763,87.3902
2023-03-11 17:19:36:98,-0.0974369,0.95653,-9.72957,-4.80286,-0.730763,87.4048
2023-03-11 17:19:36:109,-0.142688,0.942081,-9.74996,-4.78149,-0.717869,87.4224
2023-03-11 17:19:36:119,-0.15576,0.949043,-9.79279,-4.76053,-0.704224,87.4391
2023-03-11 17:19:36:129,-0.146218,0.951423,-9.81725,-4.73345,-0.694312,87.4542
2023-03-11 17:19:36:139,-0.158252,0.921357,-9.81681,-4.70205,-0.686752,87.4678
2023-03-11 17:19:36:148,-0.16991,0.884654,-9.79273,-4.66585,-0.676192,87.4779
2023-03-11 17:19:36:158,-0.168492,0.871493,-9.76354,-4.62909,-0.670151,87.485
2023-03-11 17:19:36:169,-0.144004,0.835652,-9.73456,-4.5925,-0.667004,87.4882
2023-03-11 17:19:36:179,-0.124527,0.804638,-9.69338,-4.55517,-0.666451,87.4877
2023-03-11 17:19:36:189,-0.110697,0.789082,-9.6842,-4.52405,-0.669549,87.4868
2023-03-11 17:19:36:199,-0.0959209,0.766941,-9.71751,-4.49766,-0.671564,87.487
2023-03-11 17:19:36:209,-0.0842557,0.772192,-9.73398,-4.47071,-0.676757,87.479
2023-03-11 17:19:36:219,-0.0418321,0.759254,-9.72924,-4.449,-0.685523,87.4722
2023-03-11 17:19:36:229,-0.0202926,0.744821,-9.71016,-4.43192,-0.70189,87.4674
2023-03-11 17:19:36:239,-0.0431126,0.740484,-9.68912,-4.41667,-0.716194,87.4678
2023-03-11 17:19:36:248,-0.0660728,0.745766,-9.67901,-4.4058,-0.736665,87.4696
2023-03-11 17:19:36:259,-0.0694733,0.755586,-9.68454,-4.40139,-0.751102,87.4779
2023-03-11 17:19:36:269,-0.0682431,0.755437,-9.693,-4.4028,-0.765056,87.4906
2023-03-11 17:19:36:278,-0.0751143,0.763716,-9.68988,-4.40659,-0.776188,87.5099
2023-03-11 17:19:36:289,-0.0827595,0.760069,-9.69449,-4.41177,-0.791959,87.5278
2023-03-11 17:19:36:299,-0.10485,0.775898,-9.68857,-4.42204,-0.805364,87.5505
2023-03-11 17:19:36:309,-0.130379,0.776739,-9.69262,-4.43474,-0.820167,87.5782
2023-03-11 17:19:36:319,-0.144613,0.774484,-9.68328,-4.44805,-0.838317,87.6038
2023-03-11 17:19:36:329,-0.171846,0.784248,-9.71414,-4.46674,-0.853972,87.629
2023-03-11 17:19:36:339,-0.170619,0.806347,-9.76969,-4.48761,-0.873156,87.6534
2023-03-11 17:19:36:349,-0.178399,0.832574,-9.80975,-4.50381,-0.890301,87.6761
2023-03-11 17:19:36:359,-0.206778,0.853367,-9.83455,-4.51682,-0.910544,87.6955
2023-03-11 17:19:36:369,-0.235301,0.861051,-9.82455,-4.52933,-0.927542,87.7168
2023-03-11 17:19:36:379,-0.258734,0.841899,-9.81171,-4.53335,-0.941049,87.7344
2023-03-11 17:19:36:389,-0.269562,0.826936,-9.77671,-4.53302,-0.954442,87.7496
2023-03-11 17:19:36:398,-0.279709,0.812504,-9.72419,-4.53279,-0.963283,87.7633
2023-03-11 17:19:36:409,-0.286292,0.782925,-9.68193,-4.53527,-0.969441,87.7706
2023-03-11 17:19:36:419,-0.286228,0.779924,-9.66545,-4.54562,-0.971227,87.7775
2023-03-11 17:19:36:429,-0.280019,0.781482,-9.67209,-4.55845,-0.969069,87.7829
2023-03-11 17:19:36:439,-0.253167,0.809855,-9.71593,-4.57682,-0.966206,87.782
2023-03-11 17:19:36:449,-0.192874,0.835009,-9.76376,-4.59276,-0.957583,87.7755
2023-03-11 17:19:36:459,-0.149264,0.85117,-9.78068,-4.60697,-0.951366,87.7705
2023-03-11 17:19:36:469,-0.141796,0.875283,-9.78283,-4.62329,-0.950492,87.7648
2023-03-11 17:19:36:479,-0.159686,0.87573,-9.77615,-4.63466,-0.943176,87.7596
2023-03-11 17:19:36:488,-0.190135,0.877603,-9.77033,-4.64344,-0.941139,87.7567
2023-03-11 17:19:36:499,-0.210208,0.876988,-9.75518,-4.65565,-0.93382,87.7538
2023-03-11 17:19:36:508,-0.201045,0.879907,-9.73184,-4.66526,-0.923545,87.7519
2023-03-11 17:19:36:519,-0.19163,0.878796,-9.7097,-4.67542,-0.911555,87.7461
2023-03-11 17:19:36:529,-0.175037,0.883013,-9.71444,-4.69019,-0.896521,87.7404
2023-03-11 17:19:36:538,-0.176131,0.889566,-9.74887,-4.70686,-0.881439,87.7307
2023-03-11 17:19:36:549,-0.165741,0.902731,-9.77826,-4.72197,-0.87034,87.7186
2023-03-11 17:19:36:559,-0.139086,0.922295,-9.77937,-4.73773,-0.860533,87.7014
2023-03-11 17:19:36:569,-0.117721,0.923007,-9.77115,-4.7507,-0.848447,87.6853
2023-03-11 17:19:36:579,-0.0941884,0.910558,-9.76524,-4.76195,-0.840786,87.6663
2023-03-11 17:19:36:589,-0.0822591,0.904699,-9.76672,-4.77165,-0.835145,87.646
2023-03-11 17:19:36:599,-0.0638592,0.898798,-9.77395,-4.77697,-0.830906,87.6279
2023-03-11 17:19:36:608,-0.0473683,0.902279,-9.75977,-4.78813,-0.82745,87.6122
2023-03-11 17:19:36:619,-0.0430436,0.900737,-9.75291,-4.79628,-0.822853,87.5962
2023-03-11 17:19:36:629,-0.0490065,0.900401,-9.75471,-4.80516,-0.820019,87.5859
2023-03-11 17:19:36:639,-0.0666017,0.897496,-9.76604,-4.81183,-0.813682,87.5779
2023-03-11 17:19:36:649,-0.0581007,0.90627,-9.77274,-4.82031,-0.8121,87.573
2023-03-11 17:19:36:659,-0.0531212,0.918933,-9.7731,-4.82899,-0.81148,87.5676
2023-03-11 17:19:36:668,-0.0679543,0.91267,-9.77308,-4.83544,-0.810243,87.5624
2023-03-11 17:19:36:679,-0.0983325,0.897269,-9.78258,-4.84105,-0.811057,87.5629
2023-03-11 17:19:36:689,-0.115497,0.917331,-9.75929,-4.84609,-0.812411,87.5617
2023-03-11 17:19:36:699,-0.120868,0.917023,-9.74666,-4.8507,-0.814226,87.5615
2023-03-11 17:19:36:709,-0.124874,0.899616,-9.74734,-4.85284,-0.810959,87.5588
2023-03-11 17:19:36:719,-0.13317,0.904443,-9.74476,-4.85739,-0.81458,87.5558
2023-03-11 17:19:36:728,-0.143206,0.913571,-9.74584,-4.86101,-0.817471,87.5497
2023-03-11 17:19:36:739,-0.141549,0.917738,-9.74645,-4.86605,-0.821801,87.548
2023-03-11 17:19:36:749,-0.134765,0.90889,-9.75029,-4.86839,-0.826589,87.5422
2023-03-11 17:19:36:758,-0.145175,0.909342,-9.73257,-4.87046,-0.830576,87.5385
2023-03-11 17:19:36:768,-0.15219,0.907868,-9.73687,-4.87601,-0.835384,87.535
2023-03-11 17:19:36:778,-0.160964,0.908664,-9.74766,-4.8827,-0.840544,87.5329
2023-03-11 17:19:36:788,-0.168798,0.905474,-9.74415,-4.8836,-0.843686,87.5263
2023-03-11 17:19:36:799,-0.18647,0.899358,-9.74686,-4.88406,-0.84871,87.5212
2023-03-11 17:19:36:809,-0.178521,0.896923,-9.75107,-4.887,-0.849874,87.5155
2023-03-11 17:19:36:819,-0.177059,0.905259,-9.74115,-4.88612,-0.847599,87.5081
2023-03-11 17:19:36:829,-0.167634,0.919066,-9.73847,-4.8884,-0.843618,87.5005
2023-03-11 17:19:36:838,-0.156826,0.911595,-9.75153,-4.88936,-0.838878,87.4923
2023-03-11 17:19:36:848,-0.16643,0.90928,-9.78056,-4.89211,-0.839045,87.4817
2023-03-11 17:19:36:859,-0.164032,0.908694,-9.81515,-4.8932,-0.837444,87.4689
2023-03-11 17:19:36:869,-0.134477,0.904145,-9.80374,-4.88649,-0.837959,87.4569
2023-03-11 17:19:36:879,-0.120242,0.889572,-9.77201,-4.88044,-0.834079,87.4464
2023-03-11 17:19:36:889,-0.118828,0.880506,-9.75137,-4.8706,-0.83193,87.4354
2023-03-11 17:19:36:899,-0.109097,0.865366,-9.71991,-4.86574,-0.829605,87.4249
2023-03-11 17:19:36:908,-0.0860956,0.84989,-9.71187,-4.86232,-0.831933,87.4116
2023-03-11 17:19:36:919,-0.0658618,0.847059,-9.69519,-4.85994,-0.832839,87.4036
2023-03-11 17:19:36:929,-0.0661526,0.86104,-9.70109,-4.86027,-0.830544,87.3954
2023-03-11 17:19:36:939,-0.0800668,0.85762,-9.73786,-4.86392,-0.829817,87.3922
2023-03-11 17:19:36:949,-0.0970416,0.872918,-9.7802,-4.86942,-0.828446,87.3902
2023-03-11 17:19:36:958,-0.115126,0.883636,-9.81326,-4.87044,-0.829689,87.3921
2023-03-11 17:19:36:968,-0.116897,0.90413,-9.81756,-4.86682,-0.830293,87.393
2023-03-11 17:19:36:979,-0.108739,0.89989,-9.80626,-4.86131,-0.830889,87.3971
2023-03-11 17:19:36:989,-0.098863,0.88731,-9.76443,-4.84932,-0.830751,87.3997
2023-03-11 17:19:36:999,-0.112804,0.868335,-9.72937,-4.8343,-0.831665,87.4011
2023-03-11 17:19:37:8,-0.109575,0.846265,-9.71266,-4.82375,-0.83428,87.4036
2023-03-11 17:19:37:19,-0.109716,0.839344,-9.71595,-4.81682,-0.839298,87.4034
2023-03-11 17:19:37:29,-0.105138,0.844728,-9.74516,-4.81473,-0.845973,87.4048
2023-03-11 17:19:37:39,-0.101844,0.880591,-9.81419,-4.81599,-0.854219,87.406
2023-03-11 17:19:37:49,-0.0872304,0.912816,-9.86709,-4.80951,-0.860958,87.4087
2023-03-11 17:19:37:59,-0.0974916,0.891074,-9.85827,-4.7963,-0.874289,87.4122
2023-03-11 17:19:37:69,-0.107651,0.853462,-9.81822,-4.77995,-0.894468,87.4212
2023-03-11 17:19:37:79,-0.13928,0.85587,-9.77488,-4.76514,-0.909737,87.4317
2023-03-11 17:19:37:88,-0.157569,0.862215,-9.74064,-4.75282,-0.924348,87.4435
2023-03-11 17:19:37:99,-0.179217,0.846553,-9.71275,-4.73718,-0.934773,87.4606
2023-03-11 17:19:37:108,-0.195664,0.851353,-9.70221,-4.71997,-0.948856,87.4755
2023-03-11 17:19:37:118,-0.199518,0.855481,-9.68702,-4.70649,-0.958922,87.4901
2023-03-11 17:19:37:129,-0.22825,0.837545,-9.67218,-4.69433,-0.969963,87.5051
2023-03-11 17:19:37:139,-0.264303,0.824436,-9.66443,-4.68587,-0.980181,87.517
2023-03-11 17:19:37:149,-0.279762,0.828364,-9.67428,-4.67845,-0.986574,87.5285
2023-03-11 17:19:37:158,-0.287816,0.828426,-9.68653,-4.6731,-0.992168,87.534
2023-03-11 17:19:37:168,-0.285298,0.831357,-9.69152,-4.67174,-0.992531,87.535
2023-03-11 17:19:37:179,-0.260376,0.819936,-9.71372,-4.66913,-0.991599,87.5338
2023-03-11 17:19:37:189,-0.239106,0.823521,-9.72761,-4.67027,-0.985782,87.5301
2023-03-11 17:19:37:198,-0.220639,0.828013,-9.72847,-4.67633,-0.981014,87.5253
2023-03-11 17:19:37:209,-0.209679,0.824406,-9.74959,-4.68079,-0.976234,87.5196
2023-03-11 17:19:37:218,-0.207525,0.841888,-9.75976,-4.69123,-0.965492,87.5104
2023-03-11 17:19:37:229,-0.18735,0.862613,-9.76576,-4.70227,-0.956983,87.4955
2023-03-11 17:19:37:239,-0.162502,0.868037,-9.74008,-4.71126,-0.947957,87.4831
2023-03-11 17:19:37:249,-0.166658,0.849752,-9.74011,-4.72145,-0.940475,87.4734
2023-03-11 17:19:37:259,-0.180426,0.852551,-9.72975,-4.73082,-0.930073,87.461
2023-03-11 17:19:37:268,-0.183605,0.885186,-9.7397,-4.74316,-0.915867,87.4453
2023-03-11 17:19:37:278,-0.121633,0.912825,-9.77603,-4.75646,-0.902086,87.4331
2023-03-11 17:19:37:289,-0.050821,0.893526,-9.7985,-4.76496,-0.889331,87.419
2023-03-11 17:19:37:298,-0.0396043,0.880021,-9.79377,-4.76904,-0.88445,87.4082
2023-03-11 17:19:37:309,-0.0741741,0.874701,-9.76416,-4.76805,-0.880731,87.4004
2023-03-11 17:19:37:319,-0.106193,0.85985,-9.72318,-4.76793,-0.875786,87.3933
2023-03-11 17:19:37:328,-0.132993,0.849822,-9.72342,-4.77261,-0.871132,87.3899
2023-03-11 17:19:37:339,-0.12758,0.852599,-9.71683,-4.777,-0.865298,87.385
2023-03-11 17:19:37:349,-0.10759,0.846516,-9.72707,-4.78173,-0.860755,87.3791
2023-03-11 17:19:37:359,-0.0919408,0.845759,-9.73234,-4.79419,-0.853897,87.3744
2023-03-11 17:19:37:369,-0.0889039,0.854041,-9.73915,-4.80467,-0.849084,87.3703
2023-03-11 17:19:37:379,-0.104116,0.882575,-9.75992,-4.81451,-0.850181,87.366
2023-03-11 17:19:37:389,-0.113198,0.881193,-9.78253,-4.82717,-0.847957,87.3665
2023-03-11 17:19:37:399,-0.110185,0.895512,-9.78742,-4.84264,-0.849216,87.363
2023-03-11 17:19:37:409,-0.0981968,0.901258,-9.78125,-4.84949,-0.853334,87.3568
2023-03-11 17:19:37:418,-0.122632,0.901492,-9.7909,-4.85702,-0.860608,87.3484
2023-03-11 17:19:37:429,-0.111078,0.900185,-9.78444,-4.85698,-0.867383,87.3444
2023-03-11 17:19:37:439,-0.108064,0.907975,-9.76138,-4.85886,-0.875804,87.3383
2023-03-11 17:19:37:449,-0.117408,0.901105,-9.73682,-4.85888,-0.882925,87.3392
2023-03-11 17:19:37:459,-0.117007,0.896348,-9.72998,-4.85993,-0.885667,87.3411
2023-03-11 17:19:37:469,-0.116699,0.900435,-9.76158,-4.86165,-0.888842,87.3403
2023-03-11 17:19:37:478,-0.137107,0.89867,-9.77117,-4.86237,-0.893779,87.3398
2023-03-11 17:19:37:489,-0.160145,0.89669,-9.76703,-4.86068,-0.895054,87.3427
2023-03-11 17:19:37:499,-0.170612,0.899096,-9.75541,-4.86276,-0.897038,87.3455
2023-03-11 17:19:37:509,-0.17056,0.884626,-9.76053,-4.86196,-0.897498,87.3477
2023-03-11 17:19:37:519,-0.182565,0.874275,-9.77171,-4.86042,-0.895608,87.3505
2023-03-11 17:19:37:529,-0.173402,0.886693,-9.77366,-4.85892,-0.896358,87.352
2023-03-11 17:19:37:538,-0.15868,0.887192,-9.77194,-4.85518,-0.895545,87.3549
2023-03-11 17:19:37:549,-0.153506,0.893263,-9.77446,-4.85102,-0.893975,87.3548
2023-03-11 17:19:37:558,-0.14899,0.878126,-9.74222,-4.84897,-0.894077,87.3533
2023-03-11 17:19:37:569,-0.155739,0.850395,-9.69907,-4.84484,-0.894246,87.351
2023-03-11 17:19:37:579,-0.149541,0.83549,-9.66725,-4.84532,-0.893738,87.3493
2023-03-11 17:19:37:588,-0.159175,0.84027,-9.66085,-4.85187,-0.893766,87.3472
2023-03-11 17:19:37:599,-0.169805,0.870888,-9.68215,-4.8559,-0.890279,87.3471
2023-03-11 17:19:37:609,-0.165284,0.881928,-9.72584,-4.86519,-0.892174,87.3408
2023-03-11 17:19:37:619,-0.162517,0.887597,-9.74983,-4.87345,-0.892041,87.3344
2023-03-11 17:19:37:629,-0.16521,0.898448,-9.757,-4.88669,-0.891092,87.3317
2023-03-11 17:19:37:639,-0.154802,0.91582,-9.7817,-4.89755,-0.889334,87.3266
2023-03-11 17:19:37:649,-0.157106,0.919632,-9.78551,-4.90698,-0.887247,87.3211
2023-03-11 17:19:37:659,-0.155274,0.91721,-9.77805,-4.90788,-0.885524,87.3132
2023-03-11 17:19:37:668,-0.123633,0.899827,-9.78868,-4.90897,-0.878183,87.3116
2023-03-11 17:19:37:679,-0.0972287,0.899624,-9.79586,-4.90836,-0.873115,87.3123
2023-03-11 17:19:37:689,-0.0803857,0.910874,-9.7926,-4.90746,-0.862793,87.313
2023-03-11 17:19:37:699,-0.0780378,0.916537,-9.79663,-4.90519,-0.858466,87.317
2023-03-11 17:19:37:709,-0.0897883,0.911431,-9.81352,-4.89776,-0.854381,87.319
2023-03-11 17:19:37:719,-0.113776,0.893576,-9.79938,-4.88698,-0.85259,87.3248
2023-03-11 17:19:37:729,-0.135696,0.87007,-9.74841,-4.87559,-0.850257,87.3324
2023-03-11 17:19:37:739,-0.166346,0.856112,-9.7063,-4.86429,-0.846989,87.3396
2023-03-11 17:19:37:749,-0.194769,0.84058,-9.68069,-4.8558,-0.846356,87.3404
2023-03-11 17:19:37:759,-0.22502,0.851686,-9.68367,-4.85273,-0.845108,87.3426
2023-03-11 17:19:37:769,-0.206467,0.871345,-9.72414,-4.85213,-0.839554,87.3442
2023-03-11 17:19:37:779,-0.176896,0.875664,-9.76861,-4.85177,-0.833926,87.3391
2023-03-11 17:19:37:788,-0.145815,0.874817,-9.7863,-4.85187,-0.827528,87.3312
2023-03-11 17:19:37:798,-0.121051,0.877008,-9.78503,-4.84584,-0.820703,87.3245
2023-03-11 17:19:37:809,-0.0900552,0.871404,-9.785,-4.83688,-0.817419,87.3162
2023-03-11 17:19:37:819,-0.0646849,0.854199,-9.76253,-4.8259,-0.816618,87.3062
2023-03-11 17:19:37:829,-0.0766154,0.83344,-9.75045,-4.81397,-0.817416,87.3026
2023-03-11 17:19:37:839,-0.0911534,0.83603,-9.74634,-4.80687,-0.81804,87.3017
2023-03-11 17:19:37:849,-0.0768803,0.841551,-9.7694,-4.79976,-0.813865,87.3033
2023-03-11 17:19:37:859,-0.0678657,0.844634,-9.76489,-4.79334,-0.815852,87.3046
2023-03-11 17:19:37:869,-0.0651174,0.839568,-9.75685,-4.78912,-0.818882,87.3091
2023-03-11 17:19:37:879,-0.0805685,0.840848,-9.74599,-4.78814,-0.823859,87.3176
2023-03-11 17:19:37:888,-0.105802,0.860775,-9.75906,-4.78761,-0.833675,87.3272
2023-03-11 17:19:37:899,-0.128515,0.882751,-9.76729,-4.78666,-0.845823,87.3363
2023-03-11 17:19:37:908,-0.140134,0.894491,-9.7622,-4.78585,-0.853692,87.3478
2023-03-11 17:19:37:918,-0.127769,0.891905,-9.74511,-4.78258,-0.862229,87.3564
2023-03-11 17:19:37:928,-0.126601,0.869603,-9.72561,-4.77775,-0.868771,87.3694
2023-03-11 17:19:37:939,-0.124676,0.867366,-9.70403,-4.77649,-0.880336,87.3805
2023-03-11 17:19:37:949,-0.160916,0.861098,-9.6839,-4.77279,-0.890928,87.394
2023-03-11 17:19:37:959,-0.19699,0.865969,-9.67398,-4.77275,-0.901356,87.4099
2023-03-11 17:19:37:969,-0.224753,0.865618,-9.67652,-4.7742,-0.908045,87.4232
2023-03-11 17:19:37:979,-0.239417,0.870248,-9.68791,-4.78041,-0.913363,87.4392
2023-03-11 17:19:37:988,-0.244898,0.883784,-9.72072,-4.78965,-0.914591,87.4481
2023-03-11 17:19:37:999,-0.232354,0.897893,-9.74226,-4.80042,-0.91415,87.4565
2023-03-11 17:19:38:9,-0.225725,0.896143,-9.76123,-4.80863,-0.912894,87.4575
2023-03-11 17:19:38:18,-0.233494,0.888983,-9.77418,-4.81786,-0.910591,87.4549
2023-03-11 17:19:38:29,-0.215974,0.901803,-9.7866,-4.82879,-0.911485,87.4534
2023-03-11 17:19:38:39,-0.186362,0.909898,-9.78881,-4.83747,-0.908304,87.4501
2023-03-11 17:19:38:49,-0.152222,0.890834,-9.77755,-4.8401,-0.903789,87.4416
2023-03-11 17:19:38:59,-0.162236,0.889755,-9.74051,-4.84407,-0.901328,87.4352
2023-03-11 17:19:38:69,-0.180677,0.885304,-9.70402,-4.84567,-0.892295,87.4288
2023-03-11 17:19:38:79,-0.180758,0.889407,-9.73343,-4.85231,-0.883331,87.4181
2023-03-11 17:19:38:88,-0.144294,0.905975,-9.77981,-4.85935,-0.870613,87.4061
2023-03-11 17:19:38:99,-0.0955431,0.900356,-9.78387,-4.86181,-0.861108,87.3915
2023-03-11 17:19:38:109,-0.0833008,0.902476,-9.78985,-4.86008,-0.854067,87.3801
2023-03-11 17:19:38:119,-0.106077,0.913339,-9.7943,-4.8584,-0.848678,87.3693
2023-03-11 17:19:38:128,-0.113632,0.911969,-9.79486,-4.853,-0.843548,87.3592
2023-03-11 17:19:38:139,-0.10379,0.910961,-9.78002,-4.84782,-0.836184,87.3498
2023-03-11 17:19:38:148,-0.0751424,0.888798,-9.78654,-4.83671,-0.82616,87.3431
2023-03-11 17:19:38:159,-0.038091,0.875004,-9.77931,-4.82776,-0.813284,87.3345
2023-03-11 17:19:38:169,-0.0270914,0.85442,-9.7665,-4.81611,-0.80738,87.3272
2023-03-11 17:19:38:179,-0.0407923,0.844306,-9.75673,-4.80779,-0.803576,87.3265
2023-03-11 17:19:38:189,-0.048936,0.849691,-9.7548,-4.79717,-0.804336,87.3241
2023-03-11 17:19:38:198,-0.0569086,0.843271,-9.73959,-4.78925,-0.809856,87.3296
2023-03-11 17:19:38:209,-0.0760534,0.842696,-9.7302,-4.78083,-0.815054,87.3318
2023-03-11 17:19:38:219,-0.0974488,0.833971,-9.7262,-4.77448,-0.819485,87.3357
2023-03-11 17:19:38:229,-0.0976873,0.825263,-9.72242,-4.7688,-0.824408,87.3363
2023-03-11 17:19:38:239,-0.101351,0.819739,-9.71131,-4.7621,-0.834434,87.3376
2023-03-11 17:19:38:249,-0.100415,0.797209,-9.70179,-4.7577,-0.845256,87.334
2023-03-11 17:19:38:259,-0.111773,0.784188,-9.71557,-4.7623,-0.853601,87.3354
2023-03-11 17:19:38:269,-0.118669,0.791622,-9.72819,-4.76916,-0.871034,87.3356
2023-03-11 17:19:38:278,-0.118098,0.804935,-9.73793,-4.77599,-0.885448,87.3346
2023-03-11 17:19:38:288,-0.140089,0.82748,-9.73456,-4.78506,-0.899338,87.3362
2023-03-11 17:19:38:298,-0.142731,0.828947,-9.72091,-4.79513,-0.915513,87.3377
2023-03-11 17:19:38:308,-0.129014,0.822392,-9.70925,-4.80397,-0.92634,87.3395
2023-03-11 17:19:38:318,-0.123113,0.831614,-9.72949,-4.81386,-0.936276,87.3462
2023-03-11 17:19:38:328,-0.137799,0.861803,-9.74393,-4.8299,-0.945194,87.3551
2023-03-11 17:19:38:338,-0.157164,0.882619,-9.75666,-4.84352,-0.954019,87.3667
2023-03-11 17:19:38:348,-0.177232,0.909505,-9.77273,-4.85739,-0.960973,87.3839
2023-03-11 17:19:38:358,-0.185216,0.924248,-9.77321,-4.86888,-0.966127,87.4006
2023-03-11 17:19:38:368,-0.208015,0.915648,-9.76392,-4.8807,-0.973765,87.4151
2023-03-11 17:19:38:378,-0.220678,0.915928,-9.74764,-4.88856,-0.978193,87.4296
2023-03-11 17:19:38:388,-0.226485,0.909388,-9.73285,-4.89661,-0.982636,87.4394
2023-03-11 17:19:38:398,-0.239094,0.919235,-9.73327,-4.9091,-0.988595,87.4478
2023-03-11 17:19:38:408,-0.25172,0.923171,-9.76285,-4.9184,-0.99438,87.4549
2023-03-11 17:19:38:418,-0.248521,0.934603,-9.78867,-4.92971,-0.996373,87.4552
2023-03-11 17:19:38:428,-0.236781,0.940317,-9.8061,-4.93389,-1.00167,87.4509
2023-03-11 17:19:38:438,-0.209977,0.945111,-9.80974,-4.93659,-1.00254,87.4446
2023-03-11 17:19:38:448,-0.192102,0.933541,-9.79445,-4.9362,-1.00655,87.4388
2023-03-11 17:19:38:458,-0.183219,0.928753,-9.76059,-4.92997,-1.00815,87.4315
2023-03-11 17:19:38:468,-0.169386,0.931669,-9.73657,-4.92785,-1.00959,87.4248
2023-03-11 17:19:38:478,-0.168662,0.918362,-9.72628,-4.92445,-1.00887,87.4222
2023-03-11 17:19:38:488,-0.170951,0.90251,-9.72285,-4.92684,-1.00591,87.4215
2023-03-11 17:19:38:498,-0.18093,0.913714,-9.73619,-4.92663,-1.00489,87.4205
2023-03-11 17:19:38:508,-0.184268,0.926328,-9.763,-4.92589,-1.00519,87.4209
2023-03-11 17:19:38:518,-0.188896,0.936754,-9.78248,-4.92394,-1.00583,87.4186
2023-03-11 17:19:38:528,-0.19251,0.934744,-9.78349,-4.91643,-1.00424,87.4162
2023-03-11 17:19:38:538,-0.186112,0.932332,-9.77925,-4.91141,-0.999893,87.4128
2023-03-11 17:19:38:548,-0.174401,0.923583,-9.79115,-4.90002,-0.998148,87.4109
2023-03-11 17:19:38:558,-0.180848,0.911147,-9.7928,-4.88382,-0.998186,87.4073
2023-03-11 17:19:38:568,-0.169695,0.895805,-9.76557,-4.86941,-0.997831,87.4035
2023-03-11 17:19:38:578,-0.163206,0.868211,-9.73692,-4.85217,-0.995619,87.4002
2023-03-11 17:19:38:588,-0.166077,0.856786,-9.71144,-4.83525,-0.986312,87.4001
2023-03-11 17:19:38:598,-0.164737,0.851439,-9.7081,-4.82383,-0.977895,87.3978
2023-03-11 17:19:38:608,-0.169633,0.84031,-9.71692,-4.81037,-0.969587,87.3932
2023-03-11 17:19:38:618,-0.159123,0.831336,-9.71658,-4.79785,-0.962729,87.387
2023-03-11 17:19:38:628,-0.15122,0.832084,-9.73452,-4.78996,-0.955807,87.3787
2023-03-11 17:19:38:638,-0.11405,0.825153,-9.77147,-4.78443,-0.947545,87.3703
2023-03-11 17:19:38:648,-0.0572244,0.835941,-9.81074,-4.78,-0.94083,87.3647
2023-03-11 17:19:38:658,-0.00597948,0.836756,-9.85283,-4.76738,-0.93988,87.3622
2023-03-11 17:19:38:668,-0.00208673,0.805489,-9.85304,-4.75201,-0.944637,87.3631
2023-03-11 17:19:38:678,-0.00710263,0.779435,-9.79127,-4.73218,-0.949103,87.3687
2023-03-11 17:19:38:688,-0.0277874,0.762902,-9.71947,-4.71781,-0.951866,87.3843
2023-03-11 17:19:38:698,-0.0344784,0.736679,-9.689,-4.70939,-0.95682,87.4063
2023-03-11 17:19:38:708,-0.0436567,0.75515,-9.66408,-4.70434,-0.95927,87.4329
2023-03-11 17:19:38:718,-0.0715112,0.784714,-9.68577,-4.70531,-0.966432,87.469
2023-03-11 17:19:38:728,-0.089267,0.790046,-9.69015,-4.70919,-0.975784,87.508
2023-03-11 17:19:38:738,-0.135537,0.792423,-9.69115,-4.71333,-0.987234,87.5508
2023-03-11 17:19:38:748,-0.189776,0.828414,-9.69904,-4.72479,-1.00012,87.5914
2023-03-11 17:19:38:758,-0.260723,0.860635,-9.71616,-4.73196,-1.01413,87.6332
2023-03-11 17:19:38:768,-0.305946,0.86349,-9.72819,-4.74248,-1.03216,87.6711
2023-03-11 17:19:38:778,-0.325224,0.870027,-9.73095,-4.74936,-1.04403,87.7007
2023-03-11 17:19:38:788,-0.309863,0.865451,-9.72346,-4.75431,-1.0506,87.7229
2023-03-11 17:19:38:798,-0.288962,0.855356,-9.73377,-4.76144,-1.05856,87.7435
2023-03-11 17:19:38:808,-0.273688,0.861562,-9.75092,-4.77384,-1.06532,87.7634
2023-03-11 17:19:38:818,-0.283775,0.868703,-9.77081,-4.7836,-1.07203,87.7745
2023-03-11 17:19:38:828,-0.271186,0.874222,-9.78314,-4.7913,-1.07535,87.7817
2023-03-11 17:19:38:838,-0.240714,0.882309,-9.76581,-4.79796,-1.08167,87.7841
2023-03-11 17:19:38:848,-0.229712,0.867303,-9.72674,-4.8087,-1.08603,87.7885
2023-03-11 17:19:38:858,-0.22935,0.861379,-9.70431,-4.82187,-1.08916,87.7898
2023-03-11 17:19:38:868,-0.247886,0.86716,-9.68231,-4.84191,-1.08959,87.7899
2023-03-11 17:19:38:878,-0.233014,0.890298,-9.70759,-4.86027,-1.08504,87.7877
2023-03-11 17:19:38:888,-0.16946,0.922749,-9.76449,-4.88117,-1.07922,87.782
2023-03-11 17:19:38:898,-0.124342,0.927773,-9.76133,-4.90605,-1.0728,87.774
2023-03-11 17:19:38:908,-0.0898046,0.911463,-9.72573,-4.91959,-1.07047,87.7701
2023-03-11 17:19:38:919,-0.0640016,0.911934,-9.7282,-4.93888,-1.0678,87.7716
2023-03-11 17:19:38:929,-0.052339,0.919685,-9.7532,-4.96113,-1.0643,87.7766
2023-03-11 17:19:38:938,-0.0451644,0.944137,-9.7745,-4.98107,-1.06011,87.7805
2023-03-11 17:19:38:948,-0.0439082,0.948692,-9.79661,-4.99823,-1.05197,87.7926
2023-03-11 17:19:38:958,-0.0378273,0.936642,-9.80017,-5.01354,-1.04084,87.8052
2023-03-11 17:19:38:968,-0.0583834,0.94593,-9.82127,-5.02549,-1.03279,87.8201
2023-03-11 17:19:38:978,-0.045125,0.960014,-9.88738,-5.03501,-1.03174,87.8413
2023-03-11 17:19:38:988,-0.0292025,0.9817,-9.94616,-5.03864,-1.03039,87.8653
2023-03-11 17:19:38:998,-0.0322792,0.97295,-9.96702,-5.02486,-1.03625,87.8916
2023-03-11 17:19:39:8,-0.053274,0.941259,-9.91763,-5.0006,-1.0439,87.9165
2023-03-11 17:19:39:18,-0.0800407,0.878472,-9.79368,-4.96674,-1.05424,87.9478
2023-03-11 17:19:39:28,-0.112448,0.805436,-9.65721,-4.92819,-1.07631,87.9759
2023-03-11 17:19:39:38,-0.147994,0.768353,-9.5789,-4.89931,-1.09434,88.0074
2023-03-11 17:19:39:48,-0.183477,0.754852,-9.57084,-4.8879,-1.11434,88.0344
2023-03-11 17:19:39:58,-0.213414,0.785768,-9.63504,-4.88337,-1.13732,88.0644
2023-03-11 17:19:39:68,-0.235903,0.847617,-9.73169,-4.88852,-1.16266,88.0905
2023-03-11 17:19:39:78,-0.270216,0.889637,-9.79078,-4.89136,-1.18691,88.1165
2023-03-11 17:19:39:88,-0.306874,0.89617,-9.78329,-4.88675,-1.21363,88.137
2023-03-11 17:19:39:98,-0.341965,0.894459,-9.74396,-4.88339,-1.23778,88.1568
2023-03-11 17:19:39:108,-0.363297,0.905074,-9.73795,-4.87744,-1.26159,88.169
2023-03-11 17:19:39:118,-0.370834,0.906139,-9.7662,-4.86955,-1.2816,88.1797
2023-03-11 17:19:39:128,-0.351548,0.893368,-9.79085,-4.85972,-1.29199,88.1793
2023-03-11 17:19:39:139,-0.273559,0.870561,-9.76931,-4.84799,-1.30187,88.1709
2023-03-11 17:19:39:149,-0.198812,0.821517,-9.70841,-4.83474,-1.30671,88.1684
2023-03-11 17:19:39:159,-0.168965,0.778255,-9.65535,-4.82733,-1.30943,88.1713
2023-03-11 17:19:39:169,-0.176236,0.779522,-9.61511,-4.82731,-1.31653,88.1797
2023-03-11 17:19:39:179,-0.208926,0.797456,-9.61583,-4.83752,-1.32382,88.1887
2023-03-11 17:19:39:188,-0.205324,0.825753,-9.63783,-4.85312,-1.33038,88.2009
2023-03-11 17:19:39:198,-0.214363,0.861598,-9.65634,-4.86977,-1.3387,88.2118
2023-03-11 17:19:39:208,-0.255079,0.895751,-9.68514,-4.89051,-1.34096,88.2244
2023-03-11 17:19:39:218,-0.30708,0.924722,-9.6996,-4.9083,-1.34499,88.2334
2023-03-11 17:19:39:228,-0.289551,0.93818,-9.72185,-4.92788,-1.34521,88.2401
2023-03-11 17:19:39:238,-0.240516,0.931158,-9.7409,-4.94672,-1.34509,88.2446
2023-03-11 17:19:39:248,-0.188979,0.920282,-9.72037,-4.96301,-1.34506,88.2468
2023-03-11 17:19:39:258,-0.153157,0.910893,-9.71322,-4.97961,-1.35247,88.2485
2023-03-11 17:19:39:268,-0.124617,0.914118,-9.74364,-5.00172,-1.35847,88.2508
2023-03-11 17:19:39:278,-0.108018,0.92558,-9.79663,-5.02464,-1.36792,88.255
2023-03-11 17:19:39:288,-0.105285,0.951707,-9.82835,-5.04367,-1.38046,88.2634
2023-03-11 17:19:39:298,-0.0951257,0.964569,-9.82528,-5.06497,-1.39745,88.2796
2023-03-11 17:19:39:308,-0.109384,0.975259,-9.81983,-5.08423,-1.41335,88.2993
2023-03-11 17:19:39:318,-0.121254,0.966745,-9.8109,-5.09864,-1.43045,88.3241
2023-03-11 17:19:39:328,-0.157857,0.95133,-9.77092,-5.10249,-1.44986,88.359
2023-03-11 17:19:39:338,-0.19949,0.938851,-9.7447,-5.11509,-1.47188,88.3984
2023-03-11 17:19:39:348,-0.242469,0.954134,-9.70375,-5.12731,-1.49467,88.4441
2023-03-11 17:19:39:359,-0.265786,0.933253,-9.67646,-5.13714,-1.51696,88.4928
2023-03-11 17:19:39:369,-0.287489,0.925194,-9.6701,-5.15185,-1.53921,88.5425
2023-03-11 17:19:39:379,-0.324089,0.92976,-9.68987,-5.17147,-1.56608,88.5936
2023-03-11 17:19:39:389,-0.388014,0.959904,-9.70607,-5.19468,-1.59578,88.644
2023-03-11 17:19:39:399,-0.442373,0.970537,-9.70694,-5.21688,-1.62284,88.6917
2023-03-11 17:19:39:409,-0.48226,0.972125,-9.74817,-5.23946,-1.65337,88.7364
2023-03-11 17:19:39:419,-0.525686,1.00459,-9.80866,-5.26018,-1.6802,88.7705
2023-03-11 17:19:39:428,-0.561686,1.0317,-9.83536,-5.28064,-1.70425,88.7975
2023-03-11 17:19:39:438,-0.549848,1.05318,-9.84792,-5.29578,-1.72495,88.8162
2023-03-11 17:19:39:449,-0.517823,1.03439,-9.86269,-5.30153,-1.74632,88.8228
2023-03-11 17:19:39:458,-0.482881,1.00211,-9.84066,-5.3028,-1.76797,88.8181
2023-03-11 17:19:39:468,-0.507601,0.9824,-9.8175,-5.30097,-1.79292,88.8077
2023-03-11 17:19:39:479,-0.523608,0.989331,-9.812,-5.29396,-1.82271,88.786
2023-03-11 17:19:39:488,-0.496318,0.999284,-9.83247,-5.28425,-1.84937,88.7592
2023-03-11 17:19:39:499,-0.463571,0.980674,-9.84627,-5.27331,-1.87323,88.722
2023-03-11 17:19:39:509,-0.44396,0.964934,-9.84063,-5.25336,-1.89198,88.6855
2023-03-11 17:19:39:519,-0.393976,0.957506,-9.82968,-5.2315,-1.91015,88.6457
2023-03-11 17:19:39:529,-0.358808,0.931175,-9.79501,-5.20221,-1.91931,88.6078
2023-03-11 17:19:39:539,-0.359757,0.902571,-9.75087,-5.16974,-1.92585,88.5719
2023-03-11 17:19:39:549,-0.372544,0.870646,-9.70051,-5.13378,-1.92818,88.5331
2023-03-11 17:19:39:559,-0.38636,0.855661,-9.66815,-5.09811,-1.92578,88.4989
2023-03-11 17:19:39:569,-0.402311,0.834266,-9.64585,-5.06059,-1.91258,88.4611
2023-03-11 17:19:39:579,-0.390959,0.826536,-9.64017,-5.02717,-1.89369,88.4211
2023-03-11 17:19:39:588,-0.365688,0.805258,-9.66687,-4.99763,-1.86867,88.3807
2023-03-11 17:19:39:599,-0.297923,0.780485,-9.6815,-4.97156,-1.83672,88.3368
2023-03-11 17:19:39:609,-0.192644,0.765049,-9.6826,-4.95229,-1.8005,88.2912
2023-03-11 17:19:39:619,-0.0967208,0.763046,-9.68724,-4.93812,-1.76466,88.2488
2023-03-11 17:19:39:629,-0.0244568,0.756753,-9.66572,-4.93716,-1.7318,88.2153
2023-03-11 17:19:39:639,-0.0115961,0.765956,-9.6694,-4.9429,-1.69926,88.1864
2023-03-11 17:19:39:649,-0.0418094,0.806773,-9.69728,-4.95444,-1.67498,88.1691
2023-03-11 17:19:39:659,-0.0910612,0.840177,-9.74953,-4.97257,-1.65365,88.16
2023-03-11 17:19:39:669,-0.100739,0.891024,-9.79732,-4.99046,-1.62787,88.1556
2023-03-11 17:19:39:679,-0.0877845,0.900643,-9.7885,-5.00339,-1.61875,88.154
2023-03-11 17:19:39:689,-0.109412,0.914851,-9.75417,-5.01877,-1.61812,88.1587
2023-03-11 17:19:39:699,-0.159203,0.919846,-9.69598,-5.03248,-1.62746,88.166
2023-03-11 17:19:39:708,-0.214027,0.887934,-9.63179,-5.05056,-1.64824,88.1744
2023-03-11 17:19:39:719,-0.260917,0.877113,-9.59741,-5.07796,-1.6768,88.1915
2023-03-11 17:19:39:729,-0.287906,0.915214,-9.59277,-5.11581,-1.70844,88.2119
2023-03-11 17:19:39:739,-0.346042,0.978661,-9.64726,-5.16094,-1.73515,88.2359
2023-03-11 17:19:39:749,-0.393103,1.02106,-9.65664,-5.20846,-1.76292,88.2604
2023-03-11 17:19:39:759,-0.421715,1.05899,-9.63316,-5.25267,-1.78121,88.2858
2023-03-11 17:19:39:769,-0.463995,1.09552,-9.66504,-5.29667,-1.79631,88.3114
2023-03-11 17:19:39:779,-0.474837,1.12173,-9.72811,-5.33846,-1.80325,88.3265
2023-03-11 17:19:39:789,-0.466001,1.13332,-9.77403,-5.37342,-1.80409,88.3402
2023-03-11 17:19:39:799,-0.497122,1.13933,-9.84483,-5.40453,-1.80257,88.343
2023-03-11 17:19:39:809,-0.512878,1.15075,-9.91192,-5.42532,-1.79612,88.3349
2023-03-11 17:19:39:819,-0.447432,1.13695,-9.95838,-5.43076,-1.78048,88.3125
2023-03-11 17:19:39:828,-0.31724,1.09044,-9.95716,-5.42239,-1.76301,88.2827
2023-03-11 17:19:39:838,-0.200039,1.02503,-9.92234,-5.41079,-1.74705,88.245
2023-03-11 17:19:39:848,-0.122526,0.9974,-9.85939,-5.39268,-1.73434,88.2074
2023-03-11 17:19:39:859,-0.0593763,0.981257,-9.79423,-5.37265,-1.72268,88.1734
2023-03-11 17:19:39:869,0.00925831,0.934641,-9.72037,-5.35182,-1.71299,88.1409
2023-03-11 17:19:39:879,0.0741839,0.87108,-9.6507,-5.33222,-1.70158,88.1155
2023-03-11 17:19:39:888,0.0934791,0.836629,-9.65908,-5.32246,-1.69873,88.1039
2023-03-11 17:19:39:899,0.0669063,0.877092,-9.72743,-5.32063,-1.70621,88.1058
2023-03-11 17:19:39:909,-0.0328721,0.937112,-9.87014,-5.32264,-1.72148,88.1166
2023-03-11 17:19:39:919,-0.13617,1.06579,-9.86371,-5.31513,-1.74864,88.1317
2023-03-11 17:19:39:928,-0.107083,0.933725,-9.65064,-5.29295,-1.76867,88.1535
2023-03-11 17:19:39:939,-0.0605291,0.849167,-9.52653,-5.28209,-1.78639,88.1867
2023-03-11 17:19:39:948,-0.120119,0.880418,-9.58693,-5.28685,-1.81227,88.2274
2023-03-11 17:19:39:958,-0.247798,0.96836,-9.70502,-5.29782,-1.84504,88.2737
2023-03-11 17:19:39:968,-0.343372,0.99948,-9.74873,-5.30815,-1.88328,88.323
2023-03-11 17:19:39:978,-0.390102,0.987361,-9.73746,-5.31457,-1.91467,88.3688
2023-03-11 17:19:39:988,-0.407115,0.984734,-9.73476,-5.31692,-1.94254,88.4093
2023-03-11 17:19:39:999,-0.405646,0.986207,-9.74127,-5.32398,-1.96659,88.4513
2023-03-11 17:19:40:8,-0.458701,0.979594,-9.75375,-5.32628,-1.98979,88.4844
2023-03-11 17:19:40:19,-0.493887,1.00301,-9.76122,-5.3286,-2.01268,88.5131
2023-03-11 17:19:40:28,-0.461416,1.00266,-9.79718,-5.3308,-2.03162,88.5313
2023-03-11 17:19:40:39,-0.413106,1.00773,-9.81881,-5.33275,-2.04965,88.5424
2023-03-11 17:19:40:49,-0.375443,0.994223,-9.80444,-5.32765,-2.07039,88.5464
2023-03-11 17:19:40:58,-0.379752,0.968698,-9.77749,-5.31558,-2.09171,88.5501
2023-03-11 17:19:40:68,-0.376782,0.960135,-9.7757,-5.30154,-2.11526,88.548
2023-03-11 17:19:40:79,-0.359678,0.943415,-9.78244,-5.28413,-2.13805,88.5415
2023-03-11 17:19:40:89,-0.360576,0.930261,-9.78367,-5.26096,-2.15986,88.5327
2023-03-11 17:19:40:98,-0.37227,0.903592,-9.79964,-5.23291,-2.17912,88.5244
2023-03-11 17:19:40:108,-0.35825,0.881843,-9.7931,-5.20093,-2.20243,88.5113
2023-03-11 17:19:40:118,-0.331916,0.840522,-9.75731,-5.16653,-2.22144,88.4964
2023-03-11 17:19:40:129,-0.328019,0.806777,-9.71602,-5.13579,-2.24637,88.4844
2023-03-11 17:19:40:139,-0.318546,0.771596,-9.69314,-5.11057,-2.27272,88.4708
2023-03-11 17:19:40:149,-0.309065,0.755074,-9.67514,-5.08591,-2.29744,88.4579
2023-03-11 17:19:40:159,-0.302511,0.751645,-9.66204,-5.07196,-2.32351,88.4485
2023-03-11 17:19:40:169,-0.319573,0.766301,-9.67323,-5.06036,-2.34891,88.4425
2023-03-11 17:19:40:179,-0.312228,0.773818,-9.7075,-5.05378,-2.37503,88.4373
2023-03-11 17:19:40:188,-0.327811,0.821231,-9.78459,-5.05111,-2.39887,88.4379
2023-03-11 17:19:40:199,-0.344514,0.854544,-9.82987,-5.04546,-2.42461,88.4386
2023-03-11 17:19:40:209,-0.337244,0.859107,-9.83192,-5.03357,-2.45457,88.4411
2023-03-11 17:19:40:219,-0.342756,0.826561,-9.80029,-5.01925,-2.49206,88.4461
2023-03-11 17:19:40:229,-0.383109,0.828346,-9.77383,-5.00708,-2.52996,88.4546
2023-03-11 17:19:40:239,-0.418657,0.852864,-9.75264,-4.99879,-2.57048,88.4656
2023-03-11 17:19:40:249,-0.436407,0.847965,-9.73279,-4.9889,-2.6113,88.4772
2023-03-11 17:19:40:258,-0.446359,0.847123,-9.68578,-4.98182,-2.65058,88.4959
2023-03-11 17:19:40:269,-0.441042,0.84473,-9.63235,-4.97785,-2.68552,88.5164
2023-03-11 17:19:40:279,-0.43707,0.822925,-9.59121,-4.97292,-2.71854,88.545
2023-03-11 17:19:40:288,-0.464644,0.828014,-9.58526,-4.97166,-2.74891,88.5798
2023-03-11 17:19:40:299,-0.518302,0.845383,-9.60541,-4.98228,-2.77584,88.6187
2023-03-11 17:19:40:309,-0.581689,0.875569,-9.65887,-4.9949,-2.80284,88.6641
2023-03-11 17:19:40:319,-0.639122,0.912474,-9.69408,-5.01021,-2.82723,88.7075
2023-03-11 17:19:40:329,-0.658121,0.918315,-9.72483,-5.02315,-2.84485,88.7506
2023-03-11 17:19:40:338,-0.683458,0.918225,-9.72537,-5.03251,-2.85457,88.7881
2023-03-11 17:19:40:348,-0.708406,0.902873,-9.71798,-5.0435,-2.86105,88.8224
2023-03-11 17:19:40:359,-0.699762,0.891386,-9.69018,-5.05255,-2.85845,88.8463
2023-03-11 17:19:40:369,-0.655275,0.882149,-9.67468,-5.06503,-2.85432,88.8647
2023-03-11 17:19:40:379,-0.596935,0.880532,-9.64907,-5.08588,-2.85134,88.8776
2023-03-11 17:19:40:389,-0.586743,0.86947,-9.62843,-5.11046,-2.85025,88.8815
2023-03-11 17:19:40:399,-0.577367,0.866283,-9.63646,-5.14339,-2.84651,88.8846
2023-03-11 17:19:40:409,-0.577432,0.886146,-9.63867,-5.18306,-2.83934,88.8855
2023-03-11 17:19:40:419,-0.566684,0.936114,-9.68821,-5.22503,-2.82654,88.8833
2023-03-11 17:19:40:429,-0.500657,0.970151,-9.75879,-5.26963,-2.8132,88.8751
2023-03-11 17:19:40:439,-0.458941,1.00297,-9.80005,-5.30965,-2.80473,88.8686
2023-03-11 17:19:40:448,-0.470753,1.04321,-9.83047,-5.34093,-2.79616,88.8611
2023-03-11 17:19:40:458,-0.494999,1.04374,-9.8127,-5.36807,-2.79156,88.8519
2023-03-11 17:19:40:469,-0.506,1.02328,-9.75072,-5.39189,-2.78006,88.8453
2023-03-11 17:19:40:479,-0.490656,1.01249,-9.70709,-5.41395,-2.76953,88.8365
2023-03-11 17:19:40:489,-0.476365,1.01835,-9.71717,-5.43131,-2.75586,88.8259
2023-03-11 17:19:40:499,-0.462487,1.02605,-9.7589,-5.45445,-2.74628,88.8165
2023-03-11 17:19:40:509,-0.462763,1.0506,-9.78709,-5.4768,-2.73661,88.8061
2023-03-11 17:19:40:519,-0.46981,1.05556,-9.789,-5.50183,-2.7319,88.7961
2023-03-11 17:19:40:529,-0.468952,1.03867,-9.77504,-5.5191,-2.72618,88.7789
2023-03-11 17:19:40:539,-0.462208,1.03311,-9.75853,-5.53063,-2.72278,88.7608
2023-03-11 17:19:40:549,-0.447352,1.02574,-9.75792,-5.54283,-2.72162,88.7445
2023-03-11 17:19:40:559,-0.437387,1.02962,-9.744,-5.55552,-2.72136,88.7299
2023-03-11 17:19:40:569,-0.424183,1.04488,-9.7619,-5.56909,-2.72313,88.7133
2023-03-11 17:19:40:578,-0.416266,1.04015,-9.77227,-5.57864,-2.72511,88.698
2023-03-11 17:19:40:588,-0.40727,1.01667,-9.77233,-5.58358,-2.73106,88.685
2023-03-11 17:19:40:599,-0.398194,1.002,-9.73088,-5.58841,-2.73473,88.6742
2023-03-11 17:19:40:609,-0.393766,0.99798,-9.71265,-5.59837,-2.7411,88.6682
2023-03-11 17:19:40:619,-0.392898,1.0037,-9.70896,-5.6037,-2.74731,88.6656
2023-03-11 17:19:40:629,-0.412399,0.996063,-9.71042,-5.61168,-2.75165,88.6671
2023-03-11 17:19:40:639,-0.449488,1.00434,-9.71534,-5.62312,-2.7598,88.6706
2023-03-11 17:19:40:648,-0.475516,1.02614,-9.72581,-5.63481,-2.76474,88.6804
2023-03-11 17:19:40:658,-0.494188,1.03176,-9.7444,-5.64217,-2.76995,88.6894
2023-03-11 17:19:40:669,-0.510545,1.03672,-9.74474,-5.64941,-2.77757,88.7018
2023-03-11 17:19:40:679,-0.532354,1.02831,-9.75315,-5.65711,-2.78302,88.7161
2023-03-11 17:19:40:688,-0.562376,1.03747,-9.74842,-5.65798,-2.79433,88.7261
2023-03-11 17:19:40:699,-0.567861,1.02656,-9.7384,-5.65908,-2.79952,88.7356
2023-03-11 17:19:40:708,-0.576542,1.01592,-9.72447,-5.66203,-2.80884,88.7453
2023-03-11 17:19:40:719,-0.581492,1.00507,-9.71844,-5.66618,-2.81763,88.7526
2023-03-11 17:19:40:728,-0.572163,1.02023,-9.71602,-5.66814,-2.8201,88.7539
2023-03-11 17:19:40:739,-0.569201,1.02418,-9.71493,-5.66962,-2.82217,88.7526
2023-03-11 17:19:40:748,-0.563539,1.00962,-9.70063,-5.67297,-2.81909,88.7485
2023-03-11 17:19:40:759,-0.546695,1.00361,-9.69015,-5.67785,-2.81313,88.7424
2023-03-11 17:19:40:769,-0.541296,1.01236,-9.67004,-5.68003,-2.80922,88.7342
2023-03-11 17:19:40:779,-0.525325,0.994573,-9.6792,-5.68847,-2.8049,88.7271
2023-03-11 17:19:40:789,-0.519306,1.00649,-9.70295,-5.69745,-2.79649,88.7185
2023-03-11 17:19:40:799,-0.502022,1.02077,-9.71415,-5.70578,-2.78963,88.7049
2023-03-11 17:19:40:809,-0.477788,1.01168,-9.71891,-5.71207,-2.77985,88.69
2023-03-11 17:19:40:819,-0.456332,1.01071,-9.72172,-5.72221,-2.77358,88.6799
2023-03-11 17:19:40:829,-0.447902,1.00601,-9.73923,-5.73031,-2.76711,88.6686
2023-03-11 17:19:40:839,-0.440217,1.01154,-9.7494,-5.73726,-2.75495,88.6605
2023-03-11 17:19:40:848,-0.447073,1.02337,-9.74249,-5.7452,-2.74218,88.6569
2023-03-11 17:19:40:858,-0.443512,1.01622,-9.73462,-5.74853,-2.73034,88.6529
2023-03-11 17:19:40:868,-0.428412,1.00621,-9.72369,-5.75329,-2.71744,88.6516
2023-03-11 17:19:40:878,-0.42718,0.998826,-9.70459,-5.7588,-2.70464,88.6499
2023-03-11 17:19:40:888,-0.431624,1.00961,-9.72051,-5.76797,-2.69517,88.6463
2023-03-11 17:19:40:898,-0.445076,1.02782,-9.71835,-5.77914,-2.68521,88.6484
2023-03-11 17:19:40:908,-0.456227,1.01879,-9.73394,-5.7843,-2.67588,88.6464
2023-03-11 17:19:40:918,-0.443146,1.0129,-9.78655,-5.79563,-2.66769,88.6439
2023-03-11 17:19:40:928,-0.435172,1.04227,-9.81414,-5.80178,-2.66012,88.6356
2023-03-11 17:19:40:939,-0.406959,1.04434,-9.8375,-5.80568,-2.65613,88.6273
2023-03-11 17:19:40:949,-0.377784,1.0217,-9.80344,-5.8057,-2.66005,88.6183
2023-03-11 17:19:40:958,-0.375049,0.994365,-9.75051,-5.80288,-2.66417,88.6118
2023-03-11 17:19:40:969,-0.375408,0.99927,-9.70792,-5.80467,-2.67284,88.6078
2023-03-11 17:19:40:979,-0.377044,0.992156,-9.68385,-5.80572,-2.68161,88.6027
2023-03-11 17:19:40:988,-0.378726,0.98676,-9.66594,-5.8114,-2.68807,88.6064
2023-03-11 17:19:40:999,-0.381879,0.989822,-9.67429,-5.82154,-2.69721,88.6126
2023-03-11 17:19:41:9,-0.394431,1.00523,-9.67245,-5.8327,-2.70439,88.6242
2023-03-11 17:19:41:19,-0.417825,1.02135,-9.67959,-5.84138,-2.71045,88.6405
2023-03-11 17:19:41:29,-0.472871,1.04041,-9.68966,-5.85617,-2.71224,88.6602
2023-03-11 17:19:41:39,-0.524156,1.05187,-9.6986,-5.87299,-2.71691,88.6798
2023-03-11 17:19:41:49,-0.531019,1.05594,-9.72103,-5.88587,-2.72087,88.6967
2023-03-11 17:19:41:58,-0.549541,1.04405,-9.7121,-5.89963,-2.72619,88.7117
2023-03-11 17:19:41:69,-0.56044,1.04628,-9.68253,-5.9098,-2.73023,88.7236
2023-03-11 17:19:41:79,-0.581895,1.04243,-9.67223,-5.92354,-2.73337,88.7334
2023-03-11 17:19:41:89,-0.577446,1.05342,-9.69238,-5.93907,-2.73313,88.7347
2023-03-11 17:19:41:99,-0.58035,1.0625,-9.7195,-5.95847,-2.73164,88.7354
2023-03-11 17:19:41:109,-0.5392,1.0754,-9.71219,-5.97859,-2.72607,88.7273
2023-03-11 17:19:41:119,-0.497493,1.07644,-9.6943,-6.00222,-2.72183,88.7161
2023-03-11 17:19:41:129,-0.476462,1.08464,-9.70356,-6.02718,-2.71951,88.7085
2023-03-11 17:19:41:139,-0.481927,1.08035,-9.70697,-6.04965,-2.7113,88.701
2023-03-11 17:19:41:149,-0.476382,1.11487,-9.73244,-6.07379,-2.70062,88.6894
2023-03-11 17:19:41:159,-0.420743,1.13761,-9.77039,-6.09628,-2.69133,88.6766
2023-03-11 17:19:41:169,-0.375277,1.1204,-9.77078,-6.1126,-2.68552,88.663
2023-03-11 17:19:41:179,-0.390356,1.1073,-9.75351,-6.12612,-2.68276,88.6516
2023-03-11 17:19:41:189,-0.429716,1.13119,-9.76044,-6.14094,-2.67693,88.6457
2023-03-11 17:19:41:199,-0.443098,1.15495,-9.78769,-6.15241,-2.67339,88.6421
2023-03-11 17:19:41:209,-0.430774,1.149,-9.79071,-6.15693,-2.66634,88.6379
2023-03-11 17:19:41:219,-0.415672,1.13819,-9.7801,-6.15992,-2.65837,88.6346
2023-03-11 17:19:41:229,-0.390123,1.11429,-9.77108,-6.16115,-2.65056,88.6301
2023-03-11 17:19:41:239,-0.381895,1.11094,-9.75978,-6.16069,-2.64319,88.6293
2023-03-11 17:19:41:249,-0.383673,1.09707,-9.75061,-6.15603,-2.63973,88.6241
2023-03-11 17:19:41:259,-0.399857,1.09575,-9.73258,-6.15166,-2.63769,88.6251
2023-03-11 17:19:41:269,-0.395625,1.11144,-9.73474,-6.14579,-2.63918,88.6255
2023-03-11 17:19:41:278,-0.39345,1.1067,-9.74795,-6.13989,-2.64011,88.6267
2023-03-11 17:19:41:289,-0.38559,1.09296,-9.7418,-6.13273,-2.64167,88.6312
2023-03-11 17:19:41:299,-0.384002,1.09327,-9.74336,-6.12445,-2.63866,88.6368
2023-03-11 17:19:41:309,-0.39007,1.09766,-9.74462,-6.11308,-2.64035,88.6467
2023-03-11 17:19:41:319,-0.394267,1.0854,-9.72455,-6.097,-2.64551,88.6589
2023-03-11 17:19:41:329,-0.408446,1.0732,-9.68279,-6.08607,-2.65018,88.6714
2023-03-11 17:19:41:339,-0.431258,1.06506,-9.65687,-6.07742,-2.65624,88.6888
2023-03-11 17:19:41:349,-0.469836,1.06717,-9.65152,-6.07328,-2.66282,88.7041
2023-03-11 17:19:41:359,-0.504265,1.06456,-9.65513,-6.07476,-2.66802,88.7199
2023-03-11 17:19:41:369,-0.515394,1.0688,-9.66664,-6.07776,-2.67352,88.7354
2023-03-11 17:19:41:378,-0.5112,1.09493,-9.70869,-6.08482,-2.67381,88.7485
2023-03-11 17:19:41:389,-0.530342,1.10831,-9.72941,-6.0917,-2.67567,88.7623
2023-03-11 17:19:41:398,-0.520123,1.10945,-9.71655,-6.09408,-2.67581,88.7738
2023-03-11 17:19:41:409,-0.518759,1.10686,-9.70883,-6.09481,-2.67533,88.7821
2023-03-11 17:19:41:419,-0.52915,1.08966,-9.70361,-6.09374,-2.67503,88.7867
2023-03-11 17:19:41:429,-0.518148,1.08385,-9.68876,-6.09312,-2.67288,88.788
2023-03-11 17:19:41:439,-0.512414,1.09129,-9.69097,-6.09602,-2.6692,88.7862
2023-03-11 17:19:41:449,-0.516477,1.08827,-9.69886,-6.09883,-2.66523,88.7834
2023-03-11 17:19:41:458,-0.494304,1.08905,-9.71281,-6.10157,-2.65682,88.7758
2023-03-11 17:19:41:469,-0.468575,1.098,-9.71678,-6.10772,-2.65217,88.7659
2023-03-11 17:19:41:478,-0.438855,1.11604,-9.7498,-6.11429,-2.64657,88.7554
2023-03-11 17:19:41:488,-0.417926,1.13735,-9.79517,-6.11682,-2.64161,88.7408
2023-03-11 17:19:41:499,-0.392113,1.14082,-9.81428,-6.1155,-2.63799,88.7256
2023-03-11 17:19:41:509,-0.371162,1.13667,-9.80255,-6.10983,-2.63607,88.7159
2023-03-11 17:19:41:519,-0.368594,1.12659,-9.78987,-6.10252,-2.63454,88.7081
2023-03-11 17:19:41:529,-0.373812,1.10951,-9.74745,-6.0879,-2.6325,88.705
2023-03-11 17:19:41:539,-0.371661,1.09419,-9.71899,-6.07264,-2.63237,88.7
2023-03-11 17:19:41:549,-0.394161,1.07878,-9.72995,-6.05882,-2.6306,88.6953
2023-03-11 17:19:41:559,-0.424878,1.10126,-9.76505,-6.04412,-2.63005,88.6951
2023-03-11 17:19:41:569,-0.432898,1.12362,-9.76524,-6.02725,-2.62933,88.692
2023-03-11 17:19:41:579,-0.422775,1.10201,-9.74114,-6.00745,-2.62757,88.6904
2023-03-11 17:19:41:589,-0.419782,1.05993,-9.71962,-5.98417,-2.6265,88.6884
2023-03-11 17:19:41:599,-0.412026,1.0323,-9.71623,-5.96254,-2.62554,88.6888
2023-03-11 17:19:41:609,-0.418961,1.04494,-9.69747,-5.93923,-2.62465,88.6872
2023-03-11 17:19:41:619,-0.418709,1.02214,-9.68259,-5.92076,-2.62778,88.6874
2023-03-11 17:19:41:629,-0.421042,1.00069,-9.65641,-5.90187,-2.63133,88.6848
2023-03-11 17:19:41:639,-0.42838,0.995735,-9.66393,-5.89093,-2.6323,88.683
2023-03-11 17:19:41:649,-0.423324,1.01443,-9.71431,-5.88265,-2.63711,88.6801
2023-03-11 17:19:41:659,-0.404915,1.02433,-9.75189,-5.87468,-2.64555,88.6762
2023-03-11 17:19:41:669,-0.395985,1.01434,-9.73789,-5.86645,-2.65063,88.6702
2023-03-11 17:19:41:679,-0.410765,1.0113,-9.715,-5.85912,-2.66195,88.6706
2023-03-11 17:19:41:689,-0.438105,1.02743,-9.73321,-5.85414,-2.67385,88.6726
2023-03-11 17:19:41:699,-0.45352,1.05454,-9.7508,-5.84601,-2.68758,88.6797
2023-03-11 17:19:41:709,-0.455905,1.04893,-9.7402,-5.83987,-2.69798,88.6848
2023-03-11 17:19:41:719,-0.45936,1.03925,-9.71568,-5.83284,-2.70792,88.6963
2023-03-11 17:19:41:729,-0.459807,1.02922,-9.68625,-5.82605,-2.71768,88.7058
2023-03-11 17:19:41:739,-0.465182,1.03125,-9.67208,-5.81978,-2.72328,88.7174
2023-03-11 17:19:41:749,-0.487488,1.0334,-9.65182,-5.81413,-2.73082,88.7322
2023-03-11 17:19:41:759,-0.516543,1.02935,-9.63584,-5.80932,-2.73454,88.75
2023-03-11 17:19:41:769,-0.524047,1.01754,-9.62815,-5.80466,-2.73659,88.7622
2023-03-11 17:19:41:779,-0.536339,1.01497,-9.62801,-5.80405,-2.73566,88.7752
2023-03-11 17:19:41:789,-0.514836,1.01677,-9.65535,-5.80698,-2.73564,88.7851
2023-03-11 17:19:41:799,-0.496651,1.02257,-9.69355,-5.81182,-2.73251,88.7929
2023-03-11 17:19:41:809,-0.477794,1.02955,-9.71487,-5.8208,-2.73289,88.7994
2023-03-11 17:19:41:819,-0.464055,1.04526,-9.74805,-5.82669,-2.73548,88.8041
2023-03-11 17:19:41:829,-0.466609,1.07141,-9.74507,-5.83696,-2.73705,88.8079
2023-03-11 17:19:41:839,-0.442684,1.05663,-9.72998,-5.84274,-2.74179,88.8144
2023-03-11 17:19:41:849,-0.453405,1.05177,-9.71557,-5.84822,-2.73995,88.8226
2023-03-11 17:19:41:859,-0.483715,1.05257,-9.70195,-5.85413,-2.73537,88.8275
2023-03-11 17:19:41:868,-0.501947,1.06364,-9.73305,-5.86389,-2.72466,88.8344
2023-03-11 17:19:41:879,-0.479364,1.08168,-9.76381,-5.86809,-2.7149,88.8378
2023-03-11 17:19:41:889,-0.454993,1.07008,-9.7623,-5.86834,-2.70788,88.8406
2023-03-11 17:19:41:898,-0.474724,1.05521,-9.74604,-5.85997,-2.70474,88.8385
2023-03-11 17:19:41:909,-0.484876,1.04019,-9.71786,-5.85422,-2.70318,88.836
2023-03-11 17:19:41:918,-0.499204,1.0367,-9.7224,-5.84504,-2.70538,88.833
2023-03-11 17:19:41:928,-0.500406,1.02146,-9.71298,-5.83582,-2.70386,88.8262
2023-03-11 17:19:41:938,-0.471238,1.00757,-9.71735,-5.83073,-2.70221,88.817
2023-03-11 17:19:41:948,-0.435001,0.998113,-9.71915,-5.8201,-2.69452,88.8085
2023-03-11 17:19:41:958,-0.403069,0.985455,-9.72988,-5.81445,-2.68952,88.7982
2023-03-11 17:19:41:968,-0.371037,0.988239,-9.72406,-5.80888,-2.68162,88.7914
2023-03-11 17:19:41:978,-0.361032,0.995457,-9.73524,-5.8032,-2.67659,88.7889
2023-03-11 17:19:41:989,-0.367422,0.998809,-9.71563,-5.79797,-2.67496,88.7903
2023-03-11 17:19:41:998,-0.367767,0.977671,-9.6816,-5.79372,-2.67294,88.7933
2023-03-11 17:19:42:9,-0.377122,0.965299,-9.67365,-5.78956,-2.67387,88.8023
2023-03-11 17:19:42:19,-0.373486,0.965735,-9.69032,-5.78897,-2.67477,88.8164
2023-03-11 17:19:42:29,-0.339959,0.986209,-9.71869,-5.79208,-2.67438,88.8345
2023-03-11 17:19:42:39,-0.321492,1.01151,-9.74547,-5.79468,-2.67641,88.8574
2023-03-11 17:19:42:49,-0.342441,1.03355,-9.77531,-5.79603,-2.67302,88.8899
2023-03-11 17:19:42:59,-0.339292,1.03946,-9.76887,-5.78963,-2.6614,88.9284
2023-03-11 17:19:42:69,-0.283339,0.993318,-9.7672,-5.77976,-2.64303,88.9758
2023-03-11 17:19:42:78,-0.269879,0.992806,-9.72002,-5.77171,-2.62542,89.0394
2023-03-11 17:19:42:89,-0.34301,0.983326,-9.69771,-5.76763,-2.6129,89.1118
2023-03-11 17:19:42:99,-0.401347,0.993671,-9.70389,-5.7667,-2.60204,89.1854
2023-03-11 17:19:42:109,-0.46377,1.01735,-9.69695,-5.76818,-2.59377,89.263
2023-03-11 17:19:42:119,-0.52263,1.02347,-9.70091,-5.77186,-2.589,89.3391
2023-03-11 17:19:42:129,-0.564746,1.04016,-9.73764,-5.78074,-2.58942,89.4061
2023-03-11 17:19:42:139,-0.575409,1.05842,-9.76124,-5.78692,-2.59108,89.4658
2023-03-11 17:19:42:149,-0.595492,1.06165,-9.7556,-5.78517,-2.59636,89.5148
2023-03-11 17:19:42:159,-0.61119,1.04205,-9.71907,-5.78432,-2.60417,89.5514
2023-03-11 17:19:42:169,-0.605728,1.04858,-9.69367,-5.78443,-2.61352,89.5793
2023-03-11 17:19:42:178,-0.605447,1.05056,-9.70765,-5.78434,-2.62632,89.5928
2023-03-11 17:19:42:189,-0.584373,1.04258,-9.7144,-5.78255,-2.64165,89.5983
2023-03-11 17:19:42:198,-0.544685,1.03055,-9.68602,-5.7832,-2.65758,89.5972
2023-03-11 17:19:42:208,-0.50492,1.01973,-9.65774,-5.78175,-2.67297,89.5883
2023-03-11 17:19:42:219,-0.476826,0.995077,-9.64297,-5.77899,-2.68768,89.5735
2023-03-11 17:19:42:228,-0.440768,0.996645,-9.65975,-5.78552,-2.70709,89.5593
2023-03-11 17:19:42:239,-0.438443,1.01187,-9.71276,-5.79315,-2.72147,89.5479
2023-03-11 17:19:42:249,-0.441837,1.02047,-9.74158,-5.79871,-2.73449,89.5372
2023-03-11 17:19:42:259,-0.460544,1.03653,-9.76768,-5.80429,-2.7483,89.5293
2023-03-11 17:19:42:269,-0.459679,1.03417,-9.76094,-5.80374,-2.76536,89.5239
2023-03-11 17:19:42:279,-0.482558,1.02542,-9.75108,-5.80284,-2.77711,89.5189
2023-03-11 17:19:42:289,-0.501656,1.01885,-9.7506,-5.80308,-2.78657,89.5134
2023-03-11 17:19:42:298,-0.520331,1.00969,-9.76164,-5.804,-2.7967,89.5101
2023-03-11 17:19:42:309,-0.533336,1.02117,-9.7696,-5.8027,-2.80041,89.5064
2023-03-11 17:19:42:319,-0.512294,1.01042,-9.76133,-5.79618,-2.7977,89.4995
2023-03-11 17:19:42:329,-0.486278,0.984176,-9.74588,-5.78899,-2.79372,89.4921
2023-03-11 17:19:42:338,-0.459985,0.952169,-9.71816,-5.78479,-2.78614,89.4828
2023-03-11 17:19:42:349,-0.432754,0.941117,-9.66686,-5.77773,-2.77654,89.4733
2023-03-11 17:19:42:359,-0.416884,0.933477,-9.64012,-5.77655,-2.76884,89.4646
2023-03-11 17:19:42:369,-0.424687,0.907575,-9.62994,-5.77642,-2.76818,89.4568
2023-03-11 17:19:42:379,-0.440705,0.908271,-9.65323,-5.78124,-2.76686,89.4513
2023-03-11 17:19:42:389,-0.45119,0.947577,-9.72197,-5.79153,-2.7626,89.4479
2023-03-11 17:19:42:399,-0.466647,1.00956,-9.79264,-5.80281,-2.76193,89.442
2023-03-11 17:19:42:408,-0.468793,1.02353,-9.80989,-5.80775,-2.76276,89.433
2023-03-11 17:19:42:418,-0.453458,1.01182,-9.77996,-5.81013,-2.76845,89.4262
2023-03-11 17:19:42:428,-0.408249,0.992259,-9.76208,-5.81548,-2.77546,89.4202
2023-03-11 17:19:42:438,-0.345376,1.00066,-9.76789,-5.82047,-2.78532,89.4188
2023-03-11 17:19:42:448,-0.313721,1.00542,-9.72442,-5.82221,-2.79634,89.4256
2023-03-11 17:19:42:459,-0.397239,1.00611,-9.63063,-5.8283,-2.80966,89.4479
2023-03-11 17:19:42:469,-0.519722,1.0319,-9.57487,-5.84348,-2.82191,89.4852
2023-03-11 17:19:42:478,-0.583755,1.09678,-9.60983,-5.86594,-2.82599,89.5347
2023-03-11 17:19:42:489,-0.680664,1.14359,-9.66805,-5.89016,-2.8242,89.5937
2023-03-11 17:19:42:498,-0.8255,1.20192,-9.70522,-5.91278,-2.81146,89.6579
2023-03-11 17:19:42:508,-0.878524,1.24219,-9.76086,-5.93158,-2.77961,89.7174
2023-03-11 17:19:42:518,-0.824315,1.24848,-9.81112,-5.93792,-2.7397,89.7673
2023-03-11 17:19:42:529,-0.782181,1.243,-9.83831,-5.9369,-2.68927,89.81
2023-03-11 17:19:42:539,-0.7552,1.22716,-9.82505,-5.92164,-2.63341,89.8383
2023-03-11 17:19:42:548,-0.728551,1.19729,-9.78039,-5.90082,-2.57783,89.8543
2023-03-11 17:19:42:558,-0.718183,1.15834,-9.75943,-5.88091,-2.5247,89.8531
2023-03-11 17:19:42:568,-0.645567,1.13795,-9.75652,-5.85781,-2.47125,89.8312
2023-03-11 17:19:42:579,-0.551709,1.13139,-9.73953,-5.8333,-2.42586,89.7933
2023-03-11 17:19:42:589,-0.463944,1.09758,-9.71033,-5.81142,-2.38751,89.7427
2023-03-11 17:19:42:599,-0.371274,1.05311,-9.69095,-5.78823,-2.34955,89.6817
2023-03-11 17:19:42:609,-0.31143,1.02999,-9.69819,-5.7683,-2.31428,89.619
2023-03-11 17:19:42:619,-0.23305,1.03405,-9.73295,-5.74931,-2.28215,89.5528
2023-03-11 17:19:42:629,-0.132032,1.02263,-9.77442,-5.72948,-2.25312,89.4896
2023-03-11 17:19:42:639,-0.0873235,0.998362,-9.76333,-5.70624,-2.22892,89.434
2023-03-11 17:19:42:649,-0.101847,0.973627,-9.73684,-5.68183,-2.21287,89.3815
2023-03-11 17:19:42:659,-0.115293,0.944738,-9.70814,-5.66057,-2.20127,89.3372
2023-03-11 17:19:42:669,-0.116927,0.921501,-9.67579,-5.64003,-2.19075,89.2985
2023-03-11 17:19:42:679,-0.131763,0.912341,-9.65668,-5.62034,-2.18606,89.2673
2023-03-11 17:19:42:688,-0.138466,0.887873,-9.64829,-5.61036,-2.18504,89.2413
2023-03-11 17:19:42:699,-0.153363,0.888322,-9.6307,-5.60443,-2.18686,89.2164
2023-03-11 17:19:42:709,-0.176141,0.897023,-9.60372,-5.60382,-2.1926,89.2012
2023-03-11 17:19:42:719,-0.211241,0.89045,-9.59155,-5.60966,-2.20698,89.1934
2023-03-11 17:19:42:729,-0.267414,0.929825,-9.61738,-5.62528,-2.22506,89.1875
2023-03-11 17:19:42:739,-0.350964,0.976086,-9.65375,-5.64958,-2.24308,89.1872
2023-03-11 17:19:42:748,-0.39916,1.00804,-9.72773,-5.67309,-2.26068,89.1887
2023-03-11 17:19:42:759,-0.407132,1.03019,-9.75495,-5.69162,-2.27503,89.188
2023-03-11 17:19:42:769,-0.391087,1.02122,-9.74534,-5.70945,-2.28908,89.1865
2023-03-11 17:19:42:779,-0.404649,1.02245,-9.73002,-5.72495,-2.29982,89.1856
2023-03-11 17:19:42:788,-0.397447,1.02654,-9.71998,-5.74092,-2.31303,89.1848
2023-03-11 17:19:42:798,-0.390846,1.01623,-9.70645,-5.75748,-2.32455,89.1848
2023-03-11 17:19:42:808,-0.387664,1.0217,-9.66244,-5.77442,-2.33128,89.1844
2023-03-11 17:19:42:818,-0.406523,1.03004,-9.67193,-5.79588,-2.33842,89.1856
2023-03-11 17:19:42:828,-0.428544,1.04617,-9.68843,-5.81809,-2.347,89.1907
2023-03-11 17:19:42:839,-0.440556,1.06717,-9.71884,-5.83862,-2.3523,89.197
2023-03-11 17:19:42:849,-0.444344,1.08096,-9.73006,-5.85992,-2.35351,89.2047
2023-03-11 17:19:42:859,-0.475648,1.09019,-9.75755,-5.88218,-2.35365,89.207
2023-03-11 17:19:42:869,-0.468377,1.10296,-9.78584,-5.90015,-2.34964,89.2088
2023-03-11 17:19:42:879,-0.446378,1.11819,-9.77787,-5.91397,-2.34971,89.2088
2023-03-11 17:19:42:889,-0.424399,1.08974,-9.77763,-5.92473,-2.34854,89.205
2023-03-11 17:19:42:899,-0.372049,1.08314,-9.7723,-5.92928,-2.34678,89.2
2023-03-11 17:19:42:909,-0.34118,1.07427,-9.75002,-5.93267,-2.34765,89.1923
2023-03-11 17:19:42:918,-0.334751,1.0526,-9.69236,-5.93681,-2.35025,89.1861
2023-03-11 17:19:42:928,-0.372618,1.03276,-9.66273,-5.94395,-2.35351,89.1842
2023-03-11 17:19:42:938,-0.44035,1.06136,-9.66225,-5.9563,-2.3555,89.1903
2023-03-11 17:19:42:949,-0.488549,1.10323,-9.71795,-5.97437,-2.35025,89.1916
2023-03-11 17:19:42:959,-0.48787,1.1385,-9.78176,-5.98597,-2.34042,89.1909
2023-03-11 17:19:42:969,-0.485765,1.15295,-9.78957,-5.99314,-2.32529,89.1865
2023-03-11 17:19:42:978,-0.472789,1.13146,-9.77085,-5.99436,-2.30856,89.1788
2023-03-11 17:19:42:988,-0.441399,1.11343,-9.7391,-5.9943,-2.28972,89.1632
2023-03-11 17:19:42:998,-0.390506,1.10434,-9.70591,-5.99495,-2.26908,89.1455
2023-03-11 17:19:43:9,-0.35468,1.07552,-9.69162,-6.00007,-2.25003,89.1238
2023-03-11 17:19:43:19,-0.313841,1.06698,-9.67942,-6.00599,-2.22993,89.0976
2023-03-11 17:19:43:29,-0.266317,1.07224,-9.65381,-6.01016,-2.20891,89.0701
2023-03-11 17:19:43:39,-0.232039,1.07431,-9.64818,-6.02397,-2.18926,89.0453
2023-03-11 17:19:43:49,-0.222828,1.08168,-9.69034,-6.03681,-2.17419,89.0253
2023-03-11 17:19:43:59,-0.216641,1.10505,-9.75853,-6.05132,-2.15918,89.0064
2023-03-11 17:19:43:68,-0.183981,1.14053,-9.82697,-6.06559,-2.1452,88.9871
2023-03-11 17:19:43:78,-0.158084,1.16577,-9.87144,-6.06859,-2.13482,88.9735
2023-03-11 17:19:43:89,-0.160858,1.15098,-9.83433,-6.06351,-2.13382,88.9681
2023-03-11 17:19:43:99,-0.183869,1.108,-9.7726,-6.05096,-2.13188,88.9685
2023-03-11 17:19:43:109,-0.19903,1.08375,-9.74513,-6.04109,-2.13827,88.9701
2023-03-11 17:19:43:118,-0.227572,1.07561,-9.73969,-6.03548,-2.15217,88.9749
2023-03-11 17:19:43:129,-0.276488,1.08501,-9.74474,-6.02741,-2.168,88.9816
2023-03-11 17:19:43:139,-0.312379,1.07673,-9.766,-6.02198,-2.18684,88.9922
2023-03-11 17:19:43:149,-0.335161,1.07281,-9.80436,-6.01352,-2.20708,88.9982
2023-03-11 17:19:43:159,-0.328412,1.08506,-9.82852,-6.00221,-2.2334,89.0076
2023-03-11 17:19:43:169,-0.324649,1.08093,-9.81239,-5.98595,-2.2605,89.0165
2023-03-11 17:19:43:179,-0.367065,1.04791,-9.77818,-5.96811,-2.29064,89.0269
2023-03-11 17:19:43:189,-0.391194,1.0288,-9.71875,-5.95142,-2.32173,89.0386
2023-03-11 17:19:43:199,-0.410361,1.00999,-9.66109,-5.93876,-2.35262,89.0532
2023-03-11 17:19:43:209,-0.435476,0.998361,-9.62952,-5.92949,-2.38452,89.0707
2023-03-11 17:19:43:218,-0.459194,0.989167,-9.60464,-5.92291,-2.41245,89.0848
2023-03-11 17:19:43:228,-0.46604,0.998103,-9.60899,-5.91974,-2.43938,89.1011
2023-03-11 17:19:43:239,-0.478842,1.00284,-9.6286,-5.91964,-2.46489,89.1141
2023-03-11 17:19:43:249,-0.486544,1.00874,-9.64308,-5.92455,-2.49072,89.1266
2023-03-11 17:19:43:259,-0.502298,1.02745,-9.66906,-5.93318,-2.51506,89.138
2023-03-11 17:19:43:269,-0.502084,1.05402,-9.71618,-5.93686,-2.53716,89.1505
2023-03-11 17:19:43:279,-0.49812,1.05033,-9.71596,-5.94073,-2.55553,89.1598
2023-03-11 17:19:43:288,-0.518533,1.03736,-9.70376,-5.94792,-2.57006,89.1707
2023-03-11 17:19:43:298,-0.535648,1.028,-9.69874,-5.95009,-2.58598,89.1826
2023-03-11 17:19:43:308,-0.54347,1.03798,-9.70439,-5.95508,-2.59565,89.1918
2023-03-11 17:19:43:319,-0.555835,1.0546,-9.7312,-5.96619,-2.60378,89.1991
2023-03-11 17:19:43:329,-0.54665,1.06301,-9.75431,-5.9785,-2.61359,89.2033
2023-03-11 17:19:43:339,-0.542267,1.06966,-9.75374,-5.98538,-2.61862,89.2034
2023-03-11 17:19:43:348,-0.567762,1.08781,-9.73831,-5.99242,-2.62331,89.2023
2023-03-11 17:19:43:359,-0.602993,1.08142,-9.72338,-5.99794,-2.6253,89.199
2023-03-11 17:19:43:369,-0.608323,1.10301,-9.74031,-6.00224,-2.62293,89.1925
2023-03-11 17:19:43:379,-0.559866,1.11154,-9.77113,-6.0025,-2.61532,89.1781
2023-03-11 17:19:43:389,-0.482026,1.08953,-9.75893,-5.99992,-2.60609,89.1647
2023-03-11 17:19:43:399,-0.458697,1.07069,-9.71932,-5.99091,-2.60042,89.1492
2023-03-11 17:19:43:409,-0.453106,1.05485,-9.70566,-5.98481,-2.59152,89.133
2023-03-11 17:19:43:419,-0.449073,1.04518,-9.70111,-5.97753,-2.58385,89.1134
2023-03-11 17:19:43:429,-0.433348,1.03346,-9.68352,-5.97723,-2.57464,89.0956
2023-03-11 17:19:43:438,-0.406801,1.01969,-9.68276,-5.97126,-2.56359,89.0788
2023-03-11 17:19:43:449,-0.373926,1.03243,-9.69607,-5.96933,-2.54932,89.0649
2023-03-11 17:19:43:458,-0.383418,1.05855,-9.70755,-5.96389,-2.53623,89.0509
2023-03-11 17:19:43:468,-0.400487,1.06385,-9.71591,-5.96151,-2.52472,89.04
2023-03-11 17:19:43:478,-0.406715,1.06639,-9.7084,-5.96136,-2.51416,89.035
2023-03-11 17:19:43:489,-0.411349,1.05384,-9.70317,-5.96438,-2.50385,89.0276
2023-03-11 17:19:43:498,-0.412665,1.05632,-9.69425,-5.96853,-2.49151,89.0172
2023-03-11 17:19:43:509,-0.408513,1.05338,-9.70108,-5.97341,-2.48089,89.0109
2023-03-11 17:19:43:518,-0.383922,1.0553,-9.71345,-5.97993,-2.46936,89.0051
2023-03-11 17:19:43:529,-0.37137,1.06346,-9.71573,-5.98601,-2.45991,88.9982
2023-03-11 17:19:43:539,-0.365769,1.07029,-9.71477,-5.99511,-2.44829,88.9906
2023-03-11 17:19:43:549,-0.371655,1.06365,-9.7223,-6.00128,-2.43907,88.9875
2023-03-11 17:19:43:559,-0.364555,1.06625,-9.73902,-6.00685,-2.43089,88.9855
2023-03-11 17:19:43:569,-0.368933,1.07839,-9.74472,-6.01556,-2.42462,88.9856
2023-03-11 17:19:43:579,-0.373348,1.0984,-9.75914,-6.01885,-2.41996,88.985
2023-03-11 17:19:43:588,-0.377937,1.09485,-9.76199,-6.02182,-2.41695,88.9826
2023-03-11 17:19:43:599,-0.410685,1.08692,-9.73873,-6.02011,-2.41446,88.9855
2023-03-11 17:19:43:609,-0.408463,1.07979,-9.73741,-6.02252,-2.40516,88.9889
2023-03-11 17:19:43:619,-0.400757,1.06663,-9.74002,-6.0195,-2.39812,88.9932
2023-03-11 17:19:43:629,-0.403046,1.07353,-9.73914,-6.01525,-2.3927,88.9981
2023-03-11 17:19:43:639,-0.418609,1.07493,-9.74346,-6.01305,-2.38881,89.0024
2023-03-11 17:19:43:649,-0.420237,1.08095,-9.76246,-6.00826,-2.38196,89.0062
2023-03-11 17:19:43:659,-0.443554,1.07999,-9.74143,-6.00307,-2.37842,89.0063
2023-03-11 17:19:43:669,-0.446126,1.06952,-9.70524,-5.996,-2.37008,89.0077
2023-03-11 17:19:43:679,-0.457702,1.05661,-9.69466,-5.98778,-2.36661,89.0088
2023-03-11 17:19:43:689,-0.451753,1.04491,-9.69402,-5.97969,-2.35934,89.0024
2023-03-11 17:19:43:698,-0.440807,1.05082,-9.69879,-5.97426,-2.3547,88.9931
2023-03-11 17:19:43:708,-0.428336,1.04139,-9.70529,-5.9716,-2.35292,88.9879
2023-03-11 17:19:43:718,-0.410919,1.04134,-9.70271,-5.97142,-2.349,88.9764
2023-03-11 17:19:43:728,-0.424277,1.05842,-9.7003,-5.97266,-2.34285,88.9654
2023-03-11 17:19:43:739,-0.407116,1.06282,-9.71341,-5.97388,-2.34016,88.9519
2023-03-11 17:19:43:749,-0.404134,1.06477,-9.71125,-5.9732,-2.34086,88.9406
2023-03-11 17:19:43:759,-0.392072,1.07123,-9.69445,-5.97555,-2.33883,88.9249
2023-03-11 17:19:43:769,-0.377851,1.06711,-9.68906,-5.97846,-2.33984,88.9109
2023-03-11 17:19:43:779,-0.380875,1.05478,-9.70714,-5.98029,-2.33486,88.8979
2023-03-11 17:19:43:789,-0.384969,1.06867,-9.72657,-5.98285,-2.33344,88.8888
2023-03-11 17:19:43:798,-0.375548,1.07569,-9.74049,-5.98474,-2.32821,88.8808
2023-03-11 17:19:43:809,-0.379618,1.06458,-9.74584,-5.98255,-2.32313,88.8787
2023-03-11 17:19:43:818,-0.372537,1.06613,-9.73383,-5.9818,-2.31882,88.8727
2023-03-11 17:19:43:829,-0.354398,1.05869,-9.72269,-5.98292,-2.31348,88.8685
2023-03-11 17:19:43:839,-0.364532,1.05167,-9.71736,-5.98125,-2.30699,88.8659
2023-03-11 17:19:43:849,-0.361484,1.06013,-9.71233,-5.98078,-2.30186,88.8623
2023-03-11 17:19:43:858,-0.352078,1.04045,-9.70721,-5.9827,-2.29466,88.8623
2023-03-11 17:19:43:868,-0.360353,1.05173,-9.72974,-5.98709,-2.28549,88.8646
2023-03-11 17:19:43:878,-0.348241,1.08703,-9.76892,-5.98972,-2.27722,88.8664
2023-03-11 17:19:43:888,-0.329584,1.09177,-9.80915,-5.98727,-2.27101,88.8685
2023-03-11 17:19:43:898,-0.298535,1.07631,-9.81151,-5.98441,-2.26902,88.8683
2023-03-11 17:19:43:908,-0.294795,1.05007,-9.77246,-5.97753,-2.26883,88.8693
2023-03-11 17:19:43:918,-0.314597,1.05352,-9.71814,-5.9713,-2.274,88.8777
2023-03-11 17:19:43:928,-0.322035,1.0493,-9.70392,-5.96886,-2.27961,88.8877
2023-03-11 17:19:43:938,-0.323221,1.05562,-9.69582,-5.96649,-2.27983,88.8966
2023-03-11 17:19:43:948,-0.330533,1.06015,-9.6698,-5.95981,-2.28255,88.9115
2023-03-11 17:19:43:958,-0.337648,1.06576,-9.64825,-5.96049,-2.29,88.9283
2023-03-11 17:19:43:968,-0.36073,1.0605,-9.65277,-5.96826,-2.29918,88.9446
2023-03-11 17:19:43:978,-0.416221,1.08331,-9.66521,-5.97506,-2.30819,88.9639
2023-03-11 17:19:43:988,-0.441944,1.09678,-9.68497,-5.97993,-2.31674,88.9826
2023-03-11 17:19:43:998,-0.467507,1.09644,-9.71651,-5.98689,-2.32741,88.9983
2023-03-11 17:19:44:8,-0.487308,1.11787,-9.73419,-5.99017,-2.3364,89.0071
2023-03-11 17:19:44:18,-0.482426,1.11317,-9.74071,-5.99444,-2.34371,89.0153
2023-03-11 17:19:44:28,-0.485287,1.10077,-9.74694,-5.99116,-2.34795,89.0142
2023-03-11 17:19:44:38,-0.486984,1.0985,-9.75024,-5.99169,-2.35214,89.0137
2023-03-11 17:19:44:48,-0.477453,1.10008,-9.75368,-5.99268,-2.35249,89.0083
2023-03-11 17:19:44:58,-0.469592,1.10153,-9.7536,-5.99206,-2.35692,88.9992
2023-03-11 17:19:44:68,-0.446346,1.08107,-9.71511,-5.992,-2.35772,88.9904
2023-03-11 17:19:44:78,-0.430056,1.07113,-9.67417,-5.99049,-2.35831,88.9745
2023-03-11 17:19:44:88,-0.441644,1.06402,-9.67068,-5.98908,-2.35775,88.961
2023-03-11 17:19:44:98,-0.450391,1.06387,-9.69015,-5.99296,-2.35496,88.9438
2023-03-11 17:19:44:108,-0.401806,1.09727,-9.74788,-5.99842,-2.34848,88.9282
2023-03-11 17:19:44:118,-0.345094,1.11124,-9.78952,-6.00289,-2.34115,88.9141
2023-03-11 17:19:44:128,-0.329631,1.10361,-9.78234,-6.00095,-2.33669,88.8999
2023-03-11 17:19:44:138,-0.352657,1.07641,-9.74261,-5.99494,-2.33591,88.8908
2023-03-11 17:19:44:148,-0.366546,1.06457,-9.73818,-5.98908,-2.33026,88.8817
2023-03-11 17:19:44:158,-0.368626,1.06885,-9.75465,-5.98361,-2.32337,88.8744
2023-03-11 17:19:44:168,-0.365385,1.07484,-9.7574,-5.97458,-2.31952,88.868
2023-03-11 17:19:44:178,-0.345671,1.05849,-9.73707,-5.96124,-2.31484,88.8634
2023-03-11 17:19:44:188,-0.323712,1.03529,-9.70155,-5.95595,-2.30603,88.8616
2023-03-11 17:19:44:198,-0.330071,1.01923,-9.70466,-5.95022,-2.30004,88.8628
2023-03-11 17:19:44:208,-0.335172,1.04291,-9.72209,-5.94379,-2.29496,88.8662
2023-03-11 17:19:44:218,-0.332355,1.05122,-9.71518,-5.93971,-2.29094,88.8701
2023-03-11 17:19:44:228,-0.353505,1.04346,-9.73213,-5.93371,-2.29105,88.8711
2023-03-11 17:19:44:238,-0.353471,1.05381,-9.75214,-5.92511,-2.29424,88.8748
2023-03-11 17:19:44:248,-0.369372,1.05801,-9.75638,-5.91879,-2.29951,88.8801
2023-03-11 17:19:44:258,-0.380459,1.05423,-9.75754,-5.91014,-2.30285,88.8798
2023-03-11 17:19:44:268,-0.401303,1.05341,-9.73834,-5.9008,-2.3109,88.8847
2023-03-11 17:19:44:278,-0.382495,1.04792,-9.74491,-5.89007,-2.32015,88.8888
2023-03-11 17:19:44:288,-0.390927,1.02744,-9.7388,-5.87846,-2.32899,88.8907
2023-03-11 17:19:44:298,-0.407131,1.01248,-9.71323,-5.86655,-2.3385,88.8995
2023-03-11 17:19:44:308,-0.416281,1.00775,-9.69266,-5.85442,-2.34942,88.9038
2023-03-11 17:19:44:318,-0.420948,1.00254,-9.67554,-5.84545,-2.35516,88.909
2023-03-11 17:19:44:328,-0.43764,0.995957,-9.676,-5.8409,-2.36119,88.9177
2023-03-11 17:19:44:338,-0.444001,0.99264,-9.69029,-5.83804,-2.36745,88.926
2023-03-11 17:19:44:348,-0.435707,0.988931,-9.70375,-5.83658,-2.37218,88.934
2023-03-11 17:19:44:358,-0.44061,1.0045,-9.70102,-5.84011,-2.37637,88.9387
2023-03-11 17:19:44:368,-0.451423,1.01309,-9.70955,-5.84199,-2.38339,88.9422
2023-03-11 17:19:44:378,-0.461173,1.02162,-9.69391,-5.84297,-2.38489,88.9444
2023-03-11 17:19:44:388,-0.450607,1.01964,-9.71349,-5.84631,-2.38708,88.9482
2023-03-11 17:19:44:398,-0.438704,1.01739,-9.72447,-5.85169,-2.38583,88.95
2023-03-11 17:19:44:408,-0.441605,1.03392,-9.70116,-5.84985,-2.38305,88.9518
2023-03-11 17:19:44:418,-0.434705,1.04142,-9.69721,-5.85451,-2.38229,88.9513
2023-03-11 17:19:44:428,-0.406503,1.03664,-9.71501,-5.85952,-2.38258,88.9473
2023-03-11 17:19:44:438,-0.406214,1.04089,-9.70538,-5.86226,-2.38349,88.944
2023-03-11 17:19:44:448,-0.402936,1.04329,-9.70623,-5.86802,-2.38333,88.9411
2023-03-11 17:19:44:458,-0.401697,1.03791,-9.7166,-5.87569,-2.38151,88.9365
2023-03-11 17:19:44:468,-0.394341,1.05352,-9.73104,-5.88131,-2.38067,88.9333
2023-03-11 17:19:44:478,-0.395939,1.07086,-9.74775,-5.88607,-2.3826,88.9317
2023-03-11 17:19:44:488,-0.40307,1.06369,-9.77271,-5.8898,-2.38006,88.9327
2023-03-11 17:19:44:498,-0.385309,1.07127,-9.76815,-5.89273,-2.37677,88.9293
2023-03-11 17:19:44:508,-0.38819,1.04967,-9.75146,-5.89337,-2.37388,88.9272
2023-03-11 17:19:44:518,-0.385736,1.05706,-9.72929,-5.89294,-2.36994,88.9265
2023-03-11 17:19:44:528,-0.397332,1.05713,-9.71934,-5.88816,-2.36633,88.9318
2023-03-11 17:19:44:538,-0.406492,1.05988,-9.71561,-5.88691,-2.367,88.9357
2023-03-11 17:19:44:548,-0.41466,1.05095,-9.73041,-5.88294,-2.35943,88.939
2023-03-11 17:19:44:558,-0.407423,1.03635,-9.73155,-5.87923,-2.35397,88.9407
2023-03-11 17:19:44:568,-0.412957,1.03063,-9.72368,-5.87743,-2.34693,88.9435
2023-03-11 17:19:44:578,-0.412208,1.01259,-9.72433,-5.87523,-2.34227,88.9439
2023-03-11 17:19:44:588,-0.388713,1.02278,-9.71455,-5.87258,-2.33735,88.9409
2023-03-11 17:19:44:598,-0.379628,1.01908,-9.69597,-5.86955,-2.33114,88.9385
2023-03-11 17:19:44:608,-0.377714,1.01439,-9.71268,-5.86992,-2.32595,88.939
2023-03-11 17:19:44:618,-0.382265,1.03464,-9.75688,-5.86786,-2.31883,88.9347
2023-03-11 17:19:44:628,-0.361401,1.06419,-9.80415,-5.87034,-2.31611,88.9289
2023-03-11 17:19:44:638,-0.332979,1.0522,-9.83158,-5.86329,-2.31367,88.9234
2023-03-11 17:19:44:648,-0.317652,1.03501,-9.7854,-5.85042,-2.31441,88.9236
2023-03-11 17:19:44:658,-0.32434,1.01146,-9.73034,-5.84066,-2.31896,88.9229
2023-03-11 17:19:44:668,-0.367208,1.00057,-9.68489,-5.8352,-2.32457,88.9296
2023-03-11 17:19:44:678,-0.381244,1.00045,-9.66859,-5.83147,-2.32779,88.9302
2023-03-11 17:19:44:688,-0.39405,1.00833,-9.68602,-5.83023,-2.33489,88.9336
2023-03-11 17:19:44:698,-0.406955,1.02312,-9.70081,-5.82994,-2.33963,88.9376
2023-03-11 17:19:44:708,-0.403802,1.04477,-9.69065,-5.83486,-2.34274,88.9442
2023-03-11 17:19:44:718,-0.409597,1.0233,-9.68821,-5.83576,-2.34607,88.9486
2023-03-11 17:19:44:728,-0.441585,1.02477,-9.67287,-5.83745,-2.34788,88.9565
2023-03-11 17:19:44:738,-0.462921,1.03917,-9.67442,-5.84333,-2.34732,88.9638
2023-03-11 17:19:44:748,-0.464589,1.04379,-9.66794,-5.84751,-2.34387,88.9677
2023-03-11 17:19:44:758,-0.458262,1.02617,-9.67603,-5.85251,-2.34177,88.9659
2023-03-11 17:19:44:768,-0.439931,1.01198,-9.67794,-5.85546,-2.33966,88.9623
2023-03-11 17:19:44:778,-0.415372,1.00991,-9.69798,-5.86435,-2.33547,88.9563
2023-03-11 17:19:44:788,-0.410759,1.01946,-9.70725,-5.87549,-2.32929,88.95
2023-03-11 17:19:44:798,-0.394457,1.02016,-9.72114,-5.88446,-2.32362,88.9426
2023-03-11 17:19:44:808,-0.377909,1.03363,-9.71253,-5.89983,-2.31611,88.938
2023-03-11 17:19:44:818,-0.344047,1.03171,-9.70289,-5.91315,-2.30836,88.9317
2023-03-11 17:19:44:828,-0.325568,1.04638,-9.70365,-5.93334,-2.30395,88.9287
2023-03-11 17:19:44:838,-0.360746,1.06366,-9.74743,-5.95512,-2.29581,88.9267
2023-03-11 17:19:44:848,-0.382714,1.10743,-9.76788,-5.9763,-2.28844,88.9285
2023-03-11 17:19:44:858,-0.355448,1.14252,-9.81378,-5.99543,-2.28002,88.9296
2023-03-11 17:19:44:868,-0.299558,1.1423,-9.81525,-6.009,-2.2728,88.9301
2023-03-11 17:19:44:878,-0.289704,1.11089,-9.8027,-6.01648,-2.26569,88.9316
2023-03-11 17:19:44:888,-0.317534,1.11354,-9.77971,-6.01763,-2.26189,88.9387
2023-03-11 17:19:44:898,-0.349267,1.13842,-9.77512,-6.01869,-2.26074,88.944
2023-03-11 17:19:44:908,-0.355775,1.12785,-9.76168,-6.0144,-2.26473,88.9504
2023-03-11 17:19:44:918,-0.337386,1.10009,-9.74526,-6.00658,-2.26437,88.9581
2023-03-11 17:19:44:928,-0.33639,1.07899,-9.73664,-5.99752,-2.26082,88.9633
2023-03-11 17:19:44:938,-0.33303,1.063,-9.74188,-5.98873,-2.2616,88.9719
2023-03-11 17:19:44:948,-0.338358,1.06451,-9.75384,-5.98245,-2.2626,88.9755
2023-03-11 17:19:44:958,-0.347311,1.07061,-9.75247,-5.97517,-2.26814,88.9828
2023-03-11 17:19:44:968,-0.358125,1.05759,-9.71391,-5.96584,-2.27199,88.9901
2023-03-11 17:19:44:978,-0.363402,1.03229,-9.70959,-5.9592,-2.28151,88.9957
2023-03-11 17:19:44:988,-0.390077,1.02771,-9.72033,-5.95355,-2.29377,88.9974
2023-03-11 17:19:44:998,-0.405328,1.02082,-9.72249,-5.94915,-2.30644,89.0034
2023-03-11 17:19:45:8,-0.376525,1.01278,-9.70613,-5.94298,-2.31666,89.006
2023-03-11 17:19:45:18,-0.382809,1.01116,-9.68665,-5.94107,-2.33065,89.0106
2023-03-11 17:19:45:28,-0.377704,1.01427,-9.67925,-5.93689,-2.34544,89.019
2023-03-11 17:19:45:38,-0.375499,1.01075,-9.68875,-5.93507,-2.35898,89.0242
2023-03-11 17:19:45:48,-0.37762,1.01103,-9.7142,-5.93812,-2.37078,89.0296
2023-03-11 17:19:45:58,-0.395956,1.02111,-9.71666,-5.93922,-2.38513,89.0348
2023-03-11 17:19:45:68,-0.4054,1.0185,-9.71241,-5.94237,-2.39488,89.0441
2023-03-11 17:19:45:78,-0.41986,1.01504,-9.70153,-5.94683,-2.40313,89.0541
2023-03-11 17:19:45:88,-0.432423,1.01962,-9.70021,-5.9544,-2.41241,89.0652
2023-03-11 17:19:45:98,-0.454072,1.03185,-9.71424,-5.9597,-2.41906,89.0786
2023-03-11 17:19:45:108,-0.473015,1.0485,-9.71664,-5.96725,-2.42461,89.0897
2023-03-11 17:19:45:118,-0.491237,1.05869,-9.71367,-5.97669,-2.42877,89.0992
2023-03-11 17:19:45:128,-0.499117,1.06862,-9.69375,-5.98216,-2.42806,89.1061
2023-03-11 17:19:45:138,-0.502895,1.07741,-9.70787,-5.99347,-2.42928,89.1093
2023-03-11 17:19:45:148,-0.484482,1.07047,-9.70389,-6.00211,-2.4308,89.1089
2023-03-11 17:19:45:158,-0.472085,1.07379,-9.71102,-6.01637,-2.43034,89.109
2023-03-11 17:19:45:168,-0.456258,1.08669,-9.71254,-6.0237,-2.42808,89.1019
2023-03-11 17:19:45:178,-0.421463,1.08433,-9.70827,-6.03228,-2.42373,89.0917
2023-03-11 17:19:45:188,-0.391007,1.08908,-9.71778,-6.04267,-2.42077,89.0837
2023-03-11 17:19:45:198,-0.376396,1.09494,-9.74978,-6.05176,-2.4156,89.078
2023-03-11 17:19:45:208,-0.362157,1.10616,-9.75071,-6.06226,-2.41104,89.0719
2023-03-11 17:19:45:218,-0.334591,1.10438,-9.75504,-6.06756,-2.40667,89.0682
2023-03-11 17:19:45:228,-0.319383,1.10246,-9.73401,-6.07347,-2.40663,89.0669
2023-03-11 17:19:45:238,-0.336679,1.09528,-9.71846,-6.07968,-2.40524,89.0681
2023-03-11 17:19:45:248,-0.354471,1.08661,-9.72814,-6.08733,-2.40973,89.0727
2023-03-11 17:19:45:258,-0.358239,1.09614,-9.73001,-6.09454,-2.41343,89.0766
2023-03-11 17:19:45:268,-0.368281,1.10301,-9.72223,-6.09626,-2.41591,89.0807
2023-03-11 17:19:45:278,-0.374585,1.09894,-9.71914,-6.10096,-2.41917,89.0865
2023-03-11 17:19:45:288,-0.37908,1.10839,-9.74187,-6.1038,-2.42311,89.0918
2023-03-11 17:19:45:298,-0.407448,1.11815,-9.75274,-6.10663,-2.42926,89.0993
2023-03-11 17:19:45:308,-0.431039,1.10166,-9.74883,-6.10199,-2.43871,89.107
2023-03-11 17:19:45:318,-0.435517,1.0937,-9.73,-6.09845,-2.44643,89.1134
2023-03-11 17:19:45:328,-0.43908,1.08166,-9.71075,-6.0976,-2.456,89.1189
2023-03-11 17:19:45:338,-0.445348,1.09563,-9.70921,-6.10038,-2.46188,89.1212
2023-03-11 17:19:45:348,-0.437918,1.09275,-9.70741,-6.10015,-2.46783,89.1199
2023-03-11 17:19:45:358,-0.434988,1.09214,-9.7145,-6.09989,-2.47382,89.1213
2023-03-11 17:19:45:368,-0.421796,1.08827,-9.72841,-6.09544,-2.47957,89.1261
2023-03-11 17:19:45:378,-0.414612,1.08274,-9.72903,-6.09445,-2.48055,89.1261
2023-03-11 17:19:45:388,-0.41138,1.06781,-9.77265,-6.09634,-2.48164,89.1248
2023-03-11 17:19:45:398,-0.390882,1.09571,-9.79402,-6.09391,-2.48773,89.1249
2023-03-11 17:19:45:408,-0.37923,1.07618,-9.78974,-6.08925,-2.49471,89.1246
2023-03-11 17:19:45:418,-0.393297,1.0503,-9.73525,-6.08337,-2.50347,89.1274
2023-03-11 17:19:45:428,-0.432838,1.04719,-9.68971,-6.08006,-2.51529,89.1351
2023-03-11 17:19:45:438,-0.437709,1.04675,-9.67432,-6.08253,-2.52543,89.1444
2023-03-11 17:19:45:448,-0.453069,1.05925,-9.67503,-6.08486,-2.53018,89.1494
2023-03-11 17:19:45:458,-0.460653,1.06938,-9.66981,-6.09173,-2.53413,89.1626
2023-03-11 17:19:45:468,-0.479474,1.07172,-9.66776,-6.09629,-2.53469,89.1794
2023-03-11 17:19:45:478,-0.47933,1.08864,-9.66711,-6.10018,-2.53778,89.1904
2023-03-11 17:19:45:488,-0.499455,1.11458,-9.68018,-6.10763,-2.53776,89.2022
2023-03-11 17:19:45:498,-0.524685,1.10975,-9.6919,-6.11506,-2.53886,89.2136
2023-03-11 17:19:45:508,-0.528473,1.10207,-9.69962,-6.11774,-2.53271,89.2221
2023-03-11 17:19:45:518,-0.524092,1.1147,-9.70582,-6.12048,-2.52504,89.227
2023-03-11 17:19:45:528,-0.517038,1.10563,-9.71688,-6.12144,-2.51579,89.2272
2023-03-11 17:19:45:538,-0.48698,1.0928,-9.71981,-6.1246,-2.50658,89.2249
2023-03-11 17:19:45:548,-0.470565,1.10741,-9.72832,-6.12847,-2.49188,89.2185
2023-03-11 17:19:45:558,-0.470432,1.09688,-9.75133,-6.13577,-2.48152,89.2092
2023-03-11 17:19:45:568,-0.456442,1.11028,-9.75088,-6.14502,-2.46646,89.197
2023-03-11 17:19:45:578,-0.419117,1.10394,-9.7342,-6.15399,-2.45163,89.1865
2023-03-11 17:19:45:588,-0.403851,1.10249,-9.71503,-6.15718,-2.43628,89.1728
2023-03-11 17:19:45:598,-0.411526,1.1148,-9.70893,-6.16421,-2.42711,89.1607
2023-03-11 17:19:45:608,-0.434832,1.12205,-9.72309,-6.16803,-2.41001,89.152
2023-03-11 17:19:45:618,-0.390686,1.14875,-9.76726,-6.1782,-2.39026,89.1403
2023-03-11 17:19:45:628,-0.313672,1.15496,-9.79878,-6.18246,-2.37275,89.1255
2023-03-11 17:19:45:638,-0.284784,1.14047,-9.77628,-6.17756,-2.35889,89.1153
2023-03-11 17:19:45:648,-0.325714,1.12515,-9.73374,-6.165,-2.34894,89.1073
2023-03-11 17:19:45:658,-0.370205,1.10689,-9.70762,-6.1589,-2.33733,89.1007
2023-03-11 17:19:45:668,-0.367367,1.09497,-9.71498,-6.1527,-2.32731,89.0945
2023-03-11 17:19:45:678,-0.357769,1.08947,-9.72698,-6.14223,-2.3166,89.086
2023-03-11 17:19:45:688,-0.346309,1.08806,-9.74496,-6.13647,-2.308,89.0822
2023-03-11 17:19:45:698,-0.343013,1.08442,-9.7587,-6.12643,-2.30015,89.0819
2023-03-11 17:19:45:708,-0.341438,1.09165,-9.76783,-6.11477,-2.29604,89.0753
2023-03-11 17:19:45:718,-0.357088,1.10169,-9.75474,-6.10426,-2.29485,89.0761
2023-03-11 17:19:45:728,-0.37849,1.09474,-9.73979,-6.08994,-2.2941,89.0755
2023-03-11 17:19:45:738,-0.38907,1.08091,-9.71381,-6.0744,-2.29175,89.0767
2023-03-11 17:19:45:749,-0.389589,1.06466,-9.68913,-6.06145,-2.29144,89.0787
2023-03-11 17:19:45:758,-0.399131,1.04566,-9.6891,-6.05042,-2.2873,89.0771
2023-03-11 17:19:45:768,-0.400024,1.05008,-9.68628,-6.04185,-2.28865,89.0769
2023-03-11 17:19:45:778,-0.411955,1.04302,-9.70762,-6.0346,-2.2907,89.0731
2023-03-11 17:19:45:788,-0.414994,1.05473,-9.71755,-6.02609,-2.28801,89.0706
2023-03-11 17:19:45:798,-0.418064,1.04842,-9.73542,-6.01635,-2.28676,89.0723
2023-03-11 17:19:45:808,-0.43332,1.04004,-9.7499,-6.00691,-2.28181,89.0735
2023-03-11 17:19:45:818,-0.45155,1.0362,-9.71748,-5.99454,-2.27553,89.0751
2023-03-11 17:19:45:828,-0.459327,1.03292,-9.69474,-5.98656,-2.26923,89.0785
2023-03-11 17:19:45:838,-0.471544,1.03614,-9.70136,-5.98171,-2.25864,89.0805
2023-03-11 17:19:45:848,-0.49993,1.04074,-9.69727,-5.97813,-2.24738,89.0864
2023-03-11 17:19:45:858,-0.515351,1.05543,-9.70425,-5.97622,-2.23412,89.0883
2023-03-11 17:19:45:868,-0.524912,1.06245,-9.70784,-5.97429,-2.21672,89.0863
2023-03-11 17:19:45:878,-0.518517,1.06768,-9.6861,-5.96869,-2.19671,89.0805
2023-03-11 17:19:45:888,-0.519627,1.05955,-9.66958,-5.96398,-2.17025,89.0728
2023-03-11 17:19:45:898,-0.52263,1.05387,-9.66748,-5.9594,-2.14014,89.0671
2023-03-11 17:19:45:908,-0.523065,1.05448,-9.67097,-5.95536,-2.10638,89.0542
2023-03-11 17:19:45:918,-0.529306,1.0779,-9.68985,-5.95447,-2.0703,89.0371
2023-03-11 17:19:45:928,-0.523643,1.09422,-9.70436,-5.95297,-2.02727,89.0192
2023-03-11 17:19:45:938,-0.48958,1.08701,-9.72708,-5.94992,-1.98268,88.9921
2023-03-11 17:19:45:948,-0.466434,1.09313,-9.73489,-5.94727,-1.93222,88.9647
2023-03-11 17:19:45:958,-0.457295,1.08367,-9.73567,-5.94171,-1.88135,88.9331
2023-03-11 17:19:45:968,-0.445623,1.07264,-9.71107,-5.93564,-1.82716,88.9006
2023-03-11 17:19:45:978,-0.438801,1.07118,-9.70351,-5.93056,-1.76355,88.8636
2023-03-11 17:19:45:988,-0.436189,1.06888,-9.70011,-5.9224,-1.69954,88.8303
2023-03-11 17:19:45:998,-0.428029,1.06118,-9.70178,-5.91171,-1.62862,88.7988
2023-03-11 17:19:46:8,-0.422473,1.05207,-9.70893,-5.90331,-1.54733,88.7675
2023-03-11 17:19:46:18,-0.415218,1.06436,-9.69625,-5.89842,-1.46279,88.7347
2023-03-11 17:19:46:28,-0.388346,1.05204,-9.70512,-5.89059,-1.37059,88.7006
2023-03-11 17:19:46:38,-0.394621,1.05324,-9.72575,-5.88036,-1.27166,88.6697
2023-03-11 17:19:46:48,-0.40489,1.06172,-9.73721,-5.87387,-1.16655,88.6362
2023-03-11 17:19:46:58,-0.385246,1.05319,-9.75313,-5.86222,-1.05175,88.6039
2023-03-11 17:19:46:68,-0.349217,1.04739,-9.75835,-5.84485,-0.930953,88.5689
2023-03-11 17:19:46:78,-0.319831,1.01759,-9.74657,-5.82607,-0.803537,88.5325
2023-03-11 17:19:46:88,-0.283458,0.99764,-9.72714,-5.80804,-0.672885,88.497
2023-03-11 17:19:46:98,-0.231989,0.990574,-9.6998,-5.79017,-0.531103,88.4627
2023-03-11 17:19:46:108,-0.186043,0.981107,-9.69366,-5.77198,-0.386021,88.428
2023-03-11 17:19:46:118,-0.15234,0.969664,-9.69184,-5.75348,-0.236413,88.4
2023-03-11 17:19:46:128,-0.139578,0.975443,-9.70223,-5.73654,-0.0789386,88.372
2023-03-11 17:19:46:138,-0.11825,0.992003,-9.72931,-5.71998,0.082926,88.3499
2023-03-11 17:19:46:148,-0.0884251,0.988369,-9.73439,-5.69742,0.248564,88.3269
2023-03-11 17:19:46:158,-0.0571419,0.958548,-9.69391,-5.67918,0.41646,88.3093
2023-03-11 17:19:46:168,-0.06453,0.941638,-9.64133,-5.6609,0.587304,88.2935
2023-03-11 17:19:46:178,-0.0781975,0.958904,-9.63713,-5.65076,0.765405,88.2789
2023-03-11 17:19:46:188,-0.0810216,0.984695,-9.65971,-5.64413,0.944358,88.2614
2023-03-11 17:19:46:198,-0.0576714,0.996424,-9.65806,-5.6395,1.13331,88.2432
2023-03-11 17:19:46:208,-0.0253737,0.980037,-9.65418,-5.63716,1.33491,88.2212
2023-03-11 17:19:46:218,-0.00477529,0.990394,-9.63311,-5.63629,1.54468,88.1991
2023-03-11 17:19:46:228,0.00844546,0.987368,-9.62057,-5.63106,1.75922,88.1782
2023-03-11 17:19:46:238,0.0274246,1.00191,-9.59698,-5.62869,1.9799,88.1554
2023-03-11 17:19:46:248,0.0485915,0.998458,-9.59815,-5.62821,2.21369,88.1281
2023-03-11 17:19:46:258,0.0534518,1.0098,-9.5947,-5.62403,2.45894,88.1043
2023-03-11 17:19:46:268,0.0542868,1.00233,-9.58615,-5.62437,2.71261,88.0756
2023-03-11 17:19:46:278,0.0468649,1.00505,-9.57545,-5.63049,2.98237,88.0404
2023-03-11 17:19:46:288,0.0579538,1.0156,-9.6011,-5.63369,3.26677,87.9989
2023-03-11 17:19:46:298,0.110343,1.01767,-9.61659,-5.63696,3.5697,87.9455
2023-03-11 17:19:46:308,0.158114,1.01309,-9.61,-5.64509,3.88596,87.8868
2023-03-11 17:19:46:319,0.210816,1.01832,-9.55823,-5.65548,4.21561,87.8166
2023-03-11 17:19:46:328,0.288063,1.01277,-9.5139,-5.66649,4.56177,87.7363
2023-03-11 17:19:46:338,0.350069,1.00667,-9.48635,-5.6794,4.91816,87.6513
2023-03-11 17:19:46:348,0.397807,1.0032,-9.46151,-5.70249,5.29328,87.5604
2023-03-11 17:19:46:358,0.441911,1.01168,-9.47167,-5.72597,5.68752,87.4631
2023-03-11 17:19:46:368,0.501207,1.03447,-9.48245,-5.75169,6.09945,87.3565
2023-03-11 17:19:46:378,0.573742,1.03168,-9.46411,-5.7822,6.53048,87.2481
2023-03-11 17:19:46:388,0.656511,1.02399,-9.43588,-5.81114,6.98075,87.1333
2023-03-11 17:19:46:398,0.690928,1.01015,-9.3934,-5.8356,7.45239,87.0173
2023-03-11 17:19:46:408,0.709244,1.01218,-9.32885,-5.86469,7.94437,86.9003
2023-03-11 17:19:46:418,0.78274,1.00801,-9.32335,-5.89723,8.45684,86.7717
2023-03-11 17:19:46:428,0.910631,1.03517,-9.37473,-5.94098,8.98496,86.6287
2023-03-11 17:19:46:438,1.08059,1.09129,-9.42506,-5.98805,9.52177,86.4724
2023-03-11 17:19:46:448,1.29738,1.10885,-9.46913,-6.03904,10.0698,86.3048
2023-03-11 17:19:46:458,1.49523,1.11104,-9.45627,-6.08729,10.6203,86.13
2023-03-11 17:19:46:468,1.62571,1.10761,-9.39934,-6.13606,11.1744,85.9504
2023-03-11 17:19:46:478,1.72624,1.11493,-9.3502,-6.18079,11.7342,85.7701
2023-03-11 17:19:46:488,1.81441,1.13251,-9.31055,-6.22334,12.3066,85.588
2023-03-11 17:19:46:498,1.86996,1.13618,-9.2222,-6.2639,12.8926,85.4017
2023-03-11 17:19:46:508,1.89969,1.12806,-9.13425,-6.30652,13.4905,85.2142
2023-03-11 17:19:46:518,1.9685,1.11492,-9.10593,-6.3545,14.0998,85.0216
2023-03-11 17:19:46:528,2.10078,1.13577,-9.12455,-6.4071,14.7216,84.8259
2023-03-11 17:19:46:538,2.23801,1.15093,-9.14066,-6.46151,15.3576,84.6253
2023-03-11 17:19:46:548,2.36444,1.1701,-9.14597,-6.51061,16.0014,84.4226
2023-03-11 17:19:46:558,2.50039,1.18037,-9.13381,-6.55726,16.6516,84.216
2023-03-11 17:19:46:568,2.63462,1.17981,-9.07896,-6.59987,17.3138,84.0076
2023-03-11 17:19:46:578,2.76842,1.15696,-9.01426,-6.64423,17.9837,83.7901
2023-03-11 17:19:46:588,2.88927,1.14588,-8.95136,-6.68659,18.6586,83.5729
2023-03-11 17:19:46:598,3.02818,1.15026,-8.87947,-6.7304,19.3447,83.3474
2023-03-11 17:19:46:608,3.17658,1.14246,-8.8499,-6.77703,20.0386,83.1208
2023-03-11 17:19:46:618,3.27775,1.14242,-8.81906,-6.82476,20.7396,82.8968
2023-03-11 17:19:46:628,3.39111,1.16044,-8.77577,-6.87128,21.4441,82.6691
2023-03-11 17:19:46:638,3.51886,1.15137,-8.72326,-6.91751,22.1538,82.4405
2023-03-11 17:19:46:648,3.65213,1.14629,-8.67284,-6.96035,22.8667,82.211
2023-03-11 17:19:46:658,3.72403,1.14522,-8.60785,-7.00179,23.5844,81.9891
2023-03-11 17:19:46:668,3.74935,1.13492,-8.53105,-7.04396,24.3087,81.7655
2023-03-11 17:19:46:678,3.82398,1.11957,-8.46756,-7.08874,25.0447,81.5369
2023-03-11 17:19:46:688,3.96291,1.12277,-8.40508,-7.13372,25.7997,81.301
2023-03-11 17:19:46:698,4.14308,1.12285,-8.31558,-7.17372,26.5627,81.0622
2023-03-11 17:19:46:708,4.35855,1.08742,-8.25529,-7.22165,27.3418,80.8145
2023-03-11 17:19:46:719,4.57438,1.05863,-8.19645,-7.27021,28.1258,80.564
2023-03-11 17:19:46:728,4.78622,1.01989,-8.08647,-7.32354,28.9106,80.315
2023-03-11 17:19:46:738,5.05667,0.98314,-8.01242,-7.38859,29.693,80.0621
2023-03-11 17:19:46:748,5.29819,0.978677,-7.98156,-7.46747,30.469,79.8137
2023-03-11 17:19:46:758,5.45334,1.01613,-7.93759,-7.55293,31.2382,79.5733
2023-03-11 17:19:46:768,5.58699,1.0478,-7.91375,-7.6403,31.9967,79.3402
2023-03-11 17:19:46:778,5.76593,1.10121,-7.92181,-7.7387,32.7446,79.1055
2023-03-11 17:19:46:788,6.01181,1.12793,-7.96346,-7.83076,33.4767,78.8744
2023-03-11 17:19:46:798,6.25964,1.15275,-8.00326,-7.92423,34.1932,78.6481
2023-03-11 17:19:46:808,6.48142,1.20227,-8.00882,-8.00161,34.8868,78.4431
2023-03-11 17:19:46:818,6.61798,1.24962,-7.96894,-8.06114,35.5552,78.2503
2023-03-11 17:19:46:828,6.61218,1.25893,-7.85222,-8.09957,36.1989,78.08
2023-03-11 17:19:46:838,6.54086,1.2656,-7.70186,-8.12343,36.8257,77.9194
2023-03-11 17:19:46:848,6.54531,1.26501,-7.62278,-8.14247,37.4315,77.7666
2023-03-11 17:19:46:858,6.65273,1.28699,-7.6185,-8.17001,38.018,77.6038
2023-03-11 17:19:46:868,6.75339,1.32273,-7.61437,-8.1937,38.5836,77.4405
2023-03-11 17:19:46:878,6.86423,1.30465,-7.60594,-8.20943,39.1286,77.278
2023-03-11 17:19:46:888,7.00464,1.28188,-7.59317,-8.21351,39.6434,77.1169
2023-03-11 17:19:46:898,7.16048,1.26048,-7.56044,-8.20992,40.1318,76.9518
2023-03-11 17:19:46:908,7.23258,1.24108,-7.46184,-8.19115,40.593,76.7973
2023-03-11 17:19:46:918,7.2353,1.19491,-7.31606,-8.16482,41.023,76.6488
2023-03-11 17:19:46:928,7.2446,1.12748,-7.20211,-8.13675,41.423,76.5015
2023-03-11 17:19:46:938,7.24229,1.12188,-7.16043,-8.11555,41.7984,76.3624
2023-03-11 17:19:46:948,7.23804,1.14277,-7.16333,-8.09629,42.1497,76.2286
2023-03-11 17:19:46:958,7.25954,1.15605,-7.15842,-8.07446,42.4783,76.1005
2023-03-11 17:19:46:968,7.293,1.14196,-7.12673,-8.04279,42.7887,75.9753
2023-03-11 17:19:46:978,7.28944,1.14697,-7.04849,-8.00994,43.0807,75.8564
2023-03-11 17:19:46:988,7.21525,1.13188,-6.91309,-7.96864,43.3546,75.7402
2023-03-11 17:19:46:998,7.2341,1.06175,-6.87024,-7.93706,43.6107,75.62
2023-03-11 17:19:47:8,7.32271,1.05798,-6.88665,-7.91068,43.8547,75.5046
2023-03-11 17:19:47:18,7.34859,1.06983,-6.86782,-7.87448,44.0839,75.3997
2023-03-11 17:19:47:28,7.30028,1.04826,-6.77275,-7.83683,44.3026,75.2972
2023-03-11 17:19:47:38,7.24076,1.02694,-6.66068,-7.80104,44.5095,75.1947
2023-03-11 17:19:47:48,7.26221,0.970806,-6.62251,-7.78018,44.7078,75.0925
2023-03-11 17:19:47:58,7.31051,0.966553,-6.69766,-7.77821,44.8944,74.9889
2023-03-11 17:19:47:68,7.29306,0.991126,-6.76382,-7.78418,45.0629,74.8858
2023-03-11 17:19:47:78,7.3094,0.998153,-6.7891,-7.80235,45.22,74.768
2023-03-11 17:19:47:88,7.3662,0.971593,-6.74388,-7.83167,45.352,74.6341
2023-03-11 17:19:47:98,7.41864,0.946666,-6.65381,-7.86859,45.4667,74.5011
2023-03-11 17:19:47:108,7.43268,0.960997,-6.62505,-7.92255,45.5676,74.3643
2023-03-11 17:19:47:118,7.47011,0.984825,-6.70817,-7.97887,45.66,74.2351
2023-03-11 17:19:47:128,7.53572,1.04183,-6.81595,-8.03185,45.7427,74.1084
2023-03-11 17:19:47:138,7.61716,1.05706,-6.85112,-8.06438,45.8127,73.9987
2023-03-11 17:19:47:148,7.65364,1.03158,-6.77849,-8.08137,45.8701,73.8987
2023-03-11 17:19:47:158,7.52081,0.986291,-6.61523,-8.09208,45.915,73.8099
2023-03-11 17:19:47:168,7.37183,0.944782,-6.49051,-8.09532,45.9506,73.7388
2023-03-11 17:19:47:178,7.35813,0.955863,-6.53896,-8.11811,45.9851,73.6676
2023-03-11 17:19:47:188,7.39369,1.00043,-6.69732,-8.14449,46.0152,73.6015
2023-03-11 17:19:47:198,7.44123,1.05098,-6.83976,-8.16711,46.0337,73.5397
2023-03-11 17:19:47:208,7.48313,1.0626,-6.8732,-8.17515,46.0406,73.4834
2023-03-11 17:19:47:218,7.4702,1.04529,-6.78794,-8.16685,46.0321,73.443
2023-03-11 17:19:47:228,7.37555,1.01265,-6.66051,-8.15561,46.0149,73.4061
2023-03-11 17:19:47:238,7.24392,1.00813,-6.59492,-8.14088,45.992,73.3787
2023-03-11 17:19:47:248,7.25875,1.05362,-6.71549,-8.13794,45.9703,73.355
2023-03-11 17:19:47:258,7.33373,1.11088,-6.85103,-8.13317,45.9403,73.3346
2023-03-11 17:19:47:268,7.3827,1.1136,-6.94837,-8.11259,45.898,73.3201
2023-03-11 17:19:47:278,7.46266,1.09669,-7.00463,-8.08097,45.8472,73.3092
2023-03-11 17:19:47:288,7.46413,1.08245,-6.96984,-8.02618,45.7856,73.3141
2023-03-11 17:19:47:298,7.32315,1.03598,-6.85412,-7.95415,45.7132,73.3321
2023-03-11 17:19:47:308,7.18756,1.01707,-6.78233,-7.88255,45.637,73.3533
2023-03-11 17:19:47:318,7.16445,1.01129,-6.81314,-7.8164,45.5539,73.3734
2023-03-11 17:19:47:328,7.27084,0.990969,-6.87623,-7.75519,45.4614,73.387
2023-03-11 17:19:47:338,7.52491,0.958635,-6.94607,-7.68904,45.3589,73.4033
2023-03-11 17:19:47:348,7.77652,0.917207,-7.01942,-7.61461,45.2373,73.4329
2023-03-11 17:19:47:358,7.85401,0.892021,-7.04672,-7.50195,45.0974,73.5045
2023-03-11 17:19:47:368,7.77168,0.867728,-7.04168,-7.36715,44.9468,73.6095
2023-03-11 17:19:47:378,7.59735,0.82624,-6.99648,-7.20807,44.7844,73.7378
2023-03-11 17:19:47:388,7.41458,0.760159,-6.91528,-7.03183,44.6157,73.883
2023-03-11 17:19:47:398,7.3329,0.67179,-6.8209,-6.85562,44.4372,74.0302
2023-03-11 17:19:47:408,7.49636,0.576557,-6.75598,-6.69637,44.2432,74.1692
2023-03-11 17:19:47:418,7.74322,0.48564,-6.74,-6.55146,44.0197,74.3138
2023-03-11 17:19:47:428,7.84426,0.444432,-6.68429,-6.42068,43.7554,74.4779
2023-03-11 17:19:47:438,7.70274,0.46038,-6.64516,-6.31132,43.4568,74.6561
2023-03-11 17:19:47:448,7.45515,0.568697,-6.74464,-6.22285,43.1263,74.8551
2023-03-11 17:19:47:458,7.22246,0.693529,-6.88511,-6.15767,42.7739,75.0513
2023-03-11 17:19:47:468,7.23918,0.77817,-7.05426,-6.1109,42.4064,75.2362
2023-03-11 17:19:47:478,7.36147,0.810152,-7.18603,-6.06632,42.0217,75.4215
2023-03-11 17:19:47:488,7.36883,0.815664,-7.23036,-6.01553,41.6055,75.6135
2023-03-11 17:19:47:498,7.32384,0.83859,-7.25914,-5.96843,41.1636,75.8092
2023-03-11 17:19:47:508,7.35681,0.872437,-7.35226,-5.92886,40.6866,76.0102
2023-03-11 17:19:47:518,7.33929,0.907576,-7.4407,-5.87721,40.1735,76.2244
2023-03-11 17:19:47:528,7.24264,0.936812,-7.51175,-5.82001,39.6335,76.4498
2023-03-11 17:19:47:538,7.12819,0.955428,-7.60641,-5.75362,39.0689,76.6847
2023-03-11 17:19:47:548,7.055,0.954309,-7.68484,-5.66815,38.4832,76.932
2023-03-11 17:19:47:558,7.05968,0.914788,-7.69435,-5.56858,37.877,77.1873
2023-03-11 17:19:47:568,7.17741,0.868127,-7.69088,-5.45079,37.2473,77.4561
2023-03-11 17:19:47:578,7.23898,0.842612,-7.7185,-5.32548,36.5855,77.75
2023-03-11 17:19:47:588,6.92956,0.860905,-7.73939,-5.18037,35.8866,78.0778
2023-03-11 17:19:47:598,6.38333,0.87455,-7.76824,-5.02566,35.1589,78.4289
2023-03-11 17:19:47:608,5.98005,0.882793,-7.83079,-4.88095,34.4124,78.7741
2023-03-11 17:19:47:618,5.81366,0.872371,-7.88223,-4.74043,33.6526,79.1031
2023-03-11 17:19:47:628,5.87719,0.821244,-7.90407,-4.6053,32.8713,79.4143
2023-03-11 17:19:47:638,5.95926,0.73532,-7.89638,-4.47958,32.0687,79.722
2023-03-11 17:19:47:648,5.79835,0.688476,-7.88967,-4.35958,31.2317,80.0384
2023-03-11 17:19:47:658,5.42788,0.695525,-7.94201,-4.25045,30.3707,80.3661
2023-03-11 17:19:47:668,5.01626,0.738917,-8.08124,-4.15624,29.4917,80.6956
2023-03-11 17:19:47:678,4.58824,0.778114,-8.22387,-4.06774,28.5993,81.0185
2023-03-11 17:19:47:688,4.23487,0.802864,-8.33051,-3.9835,27.7046,81.3226
2023-03-11 17:19:47:698,4.08853,0.829403,-8.43511,-3.90681,26.8123,81.5933
2023-03-11 17:19:47:708,4.23276,0.837836,-8.53469,-3.83411,25.925,81.8355
2023-03-11 17:19:47:718,4.45004,0.801686,-8.53612,-3.75995,25.0302,82.0611
2023-03-11 17:19:47:728,4.37652,0.723537,-8.39514,-3.67663,24.1219,82.291
2023-03-11 17:19:47:738,3.98897,0.647367,-8.25964,-3.59812,23.1981,82.5333
2023-03-11 17:19:47:748,3.49105,0.631739,-8.23043,-3.53751,22.2674,82.7746
2023-03-11 17:19:47:758,3.04479,0.625224,-8.32175,-3.49359,21.3444,83.0103
2023-03-11 17:19:47:768,2.8091,0.641703,-8.4889,-3.46938,20.4411,83.2271
2023-03-11 17:19:47:778,2.84248,0.662212,-8.66903,-3.46022,19.5565,83.4131
2023-03-11 17:19:47:788,2.98031,0.6531,-8.7665,-3.45757,18.679,83.5891
2023-03-11 17:19:47:798,2.98541,0.639183,-8.75139,-3.45263,17.8024,83.7658
2023-03-11 17:19:47:808,2.7307,0.60672,-8.74703,-3.44889,16.9282,83.9496
2023-03-11 17:19:47:818,2.32692,0.609785,-8.77327,-3.45523,16.0549,84.1429
2023-03-11 17:19:47:828,1.91936,0.618162,-8.84851,-3.4726,15.194,84.3332
2023-03-11 17:19:47:838,1.61761,0.669106,-9.01255,-3.5014,14.3484,84.5123
2023-03-11 17:19:47:848,1.50257,0.763162,-9.17884,-3.54135,13.5258,84.6659
2023-03-11 17:19:47:858,1.55838,0.789513,-9.29998,-3.57469,12.7181,84.7962
2023-03-11 17:19:47:868,1.63567,0.776619,-9.36435,-3.5955,11.9239,84.9126
2023-03-11 17:19:47:878,1.63075,0.774392,-9.4344,-3.608,11.137,85.0258
2023-03-11 17:19:47:888,1.5321,0.805322,-9.52426,-3.61073,10.3558,85.1436
2023-03-11 17:19:47:898,1.34032,0.863955,-9.60192,-3.59873,9.57042,85.2561
2023-03-11 17:19:47:908,1.1014,0.886867,-9.61147,-3.57125,8.7939,85.3674
2023-03-11 17:19:47:918,0.910714,0.811717,-9.51091,-3.52241,8.02923,85.468
2023-03-11 17:19:47:928,0.791151,0.692285,-9.36753,-3.46242,7.28058,85.5602
2023-03-11 17:19:47:938,0.772157,0.597517,-9.25259,-3.40706,6.54579,85.6448
2023-03-11 17:19:47:948,0.816913,0.521776,-9.20172,-3.36312,5.81956,85.7224
2023-03-11 17:19:47:958,0.804544,0.491694,-9.2033,-3.33499,5.10064,85.8033
2023-03-11 17:19:47:968,0.679155,0.531721,-9.21372,-3.32721,4.38876,85.8893
2023-03-11 17:19:47:978,0.425988,0.548559,-9.21952,-3.32746,3.67703,85.9849
2023-03-11 17:19:47:988,0.0722234,0.574501,-9.18318,-3.34006,2.97234,86.084
2023-03-11 17:19:47:998,-0.264163,0.608508,-9.18244,-3.36787,2.27389,86.178
2023-03-11 17:19:48:8,-0.459884,0.640281,-9.25002,-3.4094,1.58612,86.2532
2023-03-11 17:19:48:18,-0.460149,0.703054,-9.35357,-3.46318,0.911285,86.3066
2023-03-11 17:19:48:28,-0.333835,0.710615,-9.47145,-3.51935,0.244645,86.3467
2023-03-11 17:19:48:38,-0.273101,0.690154,-9.47726,-3.57352,-0.424783,86.378
2023-03-11 17:19:48:48,-0.318165,0.681982,-9.45387,-3.62689,-1.08977,86.4145
2023-03-11 17:19:48:58,-0.423365,0.684587,-9.46317,-3.68465,-1.75308,86.4574
2023-03-11 17:19:48:68,-0.552032,0.688645,-9.48018,-3.7462,-2.40905,86.5081
2023-03-11 17:19:48:78,-0.695081,0.68725,-9.45555,-3.80662,-3.05805,86.5632
2023-03-11 17:19:48:88,-0.786831,0.654981,-9.41476,-3.86827,-3.69188,86.6205
2023-03-11 17:19:48:98,-0.847154,0.6189,-9.38042,-3.93655,-4.32591,86.6807
2023-03-11 17:19:48:108,-0.909625,0.612373,-9.34014,-4.01,-4.95479,86.7461
2023-03-11 17:19:48:118,-1.01204,0.618755,-9.31695,-4.09252,-5.582,86.8232
2023-03-11 17:19:48:128,-1.19826,0.621801,-9.30715,-4.185,-6.2013,86.9153
2023-03-11 17:19:48:138,-1.44005,0.634946,-9.31379,-4.28865,-6.80983,87.0326
2023-03-11 17:19:48:148,-1.73845,0.703506,-9.35662,-4.40416,-7.39955,87.1706
2023-03-11 17:19:48:158,-2.05959,0.794492,-9.41151,-4.52336,-7.96203,87.3209
2023-03-11 17:19:48:168,-2.30298,0.865569,-9.45396,-4.63896,-8.49394,87.4717
2023-03-11 17:19:48:178,-2.44739,0.899499,-9.45344,-4.743,-8.98984,87.607
2023-03-11 17:19:48:188,-2.45794,0.846357,-9.37946,-4.84095,-9.46207,87.7275
2023-03-11 17:19:48:198,-2.39695,0.740613,-9.27926,-4.93618,-9.91597,87.8341
2023-03-11 17:19:48:208,-2.33115,0.697129,-9.20474,-5.04453,-10.3452,87.9329
2023-03-11 17:19:48:218,-2.28208,0.701996,-9.20016,-5.16419,-10.7559,88.0316
2023-03-11 17:19:48:228,-2.30074,0.725306,-9.1905,-5.29367,-11.1558,88.1273
2023-03-11 17:19:48:238,-2.4472,0.764511,-9.21361,-5.44096,-11.5399,88.2299
2023-03-11 17:19:48:248,-2.67693,0.855862,-9.20607,-5.59788,-11.9087,88.3418
2023-03-11 17:19:48:258,-2.94219,0.945756,-9.20854,-5.76531,-12.2506,88.4594
2023-03-11 17:19:48:268,-3.15673,1.03602,-9.24839,-5.93896,-12.5486,88.5748
2023-03-11 17:19:48:278,-3.22405,1.11477,-9.31333,-6.11091,-12.8023,88.6883
2023-03-11 17:19:48:288,-3.13818,1.17711,-9.406,-6.27771,-13.0145,88.796
2023-03-11 17:19:48:298,-2.94829,1.21781,-9.50281,-6.43866,-13.1905,88.8927
2023-03-11 17:19:48:308,-2.77469,1.22824,-9.55328,-6.59032,-13.337,88.9967
2023-03-11 17:19:48:318,-2.76598,1.2477,-9.56605,-6.73414,-13.4673,89.1092
2023-03-11 17:19:48:328,-2.88279,1.29417,-9.56417,-6.86796,-13.5821,89.2294
2023-03-11 17:19:48:338,-3.02317,1.33763,-9.56496,-6.99328,-13.6794,89.3465
2023-03-11 17:19:48:348,-3.05709,1.36628,-9.55939,-7.10466,-13.75,89.4533
2023-03-11 17:19:48:358,-3.01103,1.37241,-9.53702,-7.19936,-13.7998,89.5509
2023-03-11 17:19:48:368,-2.9045,1.34833,-9.49515,-7.28308,-13.833,89.6348
2023-03-11 17:19:48:378,-2.80788,1.31907,-9.41827,-7.35616,-13.855,89.7117
2023-03-11 17:19:48:388,-2.78022,1.31241,-9.35807,-7.42693,-13.8682,89.7839
2023-03-11 17:19:48:398,-2.81495,1.32686,-9.3327,-7.50083,-13.8748,89.8516
2023-03-11 17:19:48:408,-2.88537,1.34736,-9.31162,-7.57224,-13.8753,89.9124
2023-03-11 17:19:48:418,-2.9118,1.36147,-9.3399,-7.64101,-13.8678,89.9647
2023-03-11 17:19:48:428,-2.86085,1.39134,-9.4404,-7.70814,-13.8484,90.0003
2023-03-11 17:19:48:438,-2.74502,1.41533,-9.53854,-7.77062,-13.8217,90.0259
2023-03-11 17:19:48:448,-2.63174,1.42959,-9.60813,-7.82403,-13.793,90.0418
2023-03-11 17:19:48:458,-2.5752,1.44686,-9.66837,-7.86445,-13.7636,90.0495
2023-03-11 17:19:48:468,-2.57207,1.44186,-9.64168,-7.89128,-13.737,90.0492
2023-03-11 17:19:48:478,-2.5597,1.40599,-9.55333,-7.90641,-13.7106,90.0454
2023-03-11 17:19:48:488,-2.53365,1.37175,-9.47398,-7.91631,-13.686,90.0383
2023-03-11 17:19:48:498,-2.47604,1.36641,-9.43147,-7.92515,-13.6542,90.0228
2023-03-11 17:19:48:508,-2.40752,1.36363,-9.41204,-7.93023,-13.6211,90.0045
2023-03-11 17:19:48:518,-2.34739,1.33661,-9.38381,-7.93903,-13.5897,89.9888
2023-03-11 17:19:48:528,-2.29416,1.31712,-9.3367,-7.94634,-13.5625,89.9693
2023-03-11 17:19:48:538,-2.2857,1.31054,-9.32832,-7.95497,-13.5321,89.9536
2023-03-11 17:19:48:548,-2.30259,1.31769,-9.3453,-7.9659,-13.5042,89.9434
2023-03-11 17:19:48:558,-2.34654,1.34117,-9.38562,-7.98091,-13.4751,89.9339
2023-03-11 17:19:48:568,-2.42714,1.38233,-9.42881,-7.99268,-13.442,89.9274
2023-03-11 17:19:48:578,-2.4923,1.40921,-9.46308,-8.00204,-13.404,89.9146
2023-03-11 17:19:48:588,-2.46441,1.42082,-9.47755,-8.00448,-13.3588,89.8958
2023-03-11 17:19:48:598,-2.40034,1.39621,-9.46909,-7.99924,-13.3108,89.8695
2023-03-11 17:19:48:608,-2.33209,1.36533,-9.44392,-7.99022,-13.2642,89.842
2023-03-11 17:19:48:618,-2.28158,1.3351,-9.44754,-7.98227,-13.2146,89.8093
2023-03-11 17:19:48:628,-2.22401,1.32262,-9.43842,-7.97571,-13.1669,89.7766
2023-03-11 17:19:48:638,-2.16934,1.32353,-9.37488,-7.97173,-13.1252,89.7433
2023-03-11 17:19:48:648,-2.12437,1.29236,-9.3558,-7.97452,-13.0851,89.7141
2023-03-11 17:19:48:658,-2.13523,1.30418,-9.39096,-7.98534,-13.0469,89.6888
2023-03-11 17:19:48:668,-2.19481,1.34143,-9.423,-8.00047,-13.006,89.6692
2023-03-11 17:19:48:678,-2.20968,1.38852,-9.49068,-8.01471,-12.962,89.65
2023-03-11 17:19:48:688,-2.1497,1.39841,-9.56196,-8.02096,-12.9188,89.6259
2023-03-11 17:19:48:698,-2.10224,1.39998,-9.55881,-8.02399,-12.8772,89.6047
2023-03-11 17:19:48:708,-2.06718,1.3758,-9.54695,-8.02296,-12.8392,89.59
2023-03-11 17:19:48:718,-2.07116,1.366,-9.5381,-8.01363,-12.8018,89.5772
2023-03-11 17:19:48:728,-2.07158,1.36552,-9.49712,-8.0072,-12.7699,89.5685
2023-03-11 17:19:48:738,-2.08742,1.36981,-9.4387,-8.00027,-12.7379,89.5586
2023-03-11 17:19:48:748,-2.10614,1.35774,-9.42343,-7.99256,-12.7062,89.5516
2023-03-11 17:19:48:758,-2.1015,1.36158,-9.44541,-7.98876,-12.6718,89.5501
2023-03-11 17:19:48:768,-2.0845,1.38976,-9.45189,-7.9853,-12.6355,89.5464
2023-03-11 17:19:48:778,-2.0598,1.40148,-9.46114,-7.97999,-12.6015,89.5438
2023-03-11 17:19:48:788,-2.03743,1.39147,-9.49184,-7.97004,-12.5701,89.5392
2023-03-11 17:19:48:798,-2.03363,1.39658,-9.5057,-7.95977,-12.5394,89.5347
2023-03-11 17:19:48:808,-2.06827,1.41189,-9.5236,-7.94777,-12.5159,89.5291
2023-03-11 17:19:48:818,-2.10256,1.4138,-9.52438,-7.93157,-12.4961,89.5154
2023-03-11 17:19:48:828,-2.138,1.41333,-9.51038,-7.91238,-12.4849,89.4931
2023-03-11 17:19:48:838,-2.14271,1.42449,-9.51818,-7.8892,-12.4793,89.4606
2023-03-11 17:19:48:848,-2.10425,1.42638,-9.51404,-7.86153,-12.479,89.4133
2023-03-11 17:19:48:858,-1.99302,1.40619,-9.50966,-7.8334,-12.4855,89.3563
2023-03-11 17:19:48:868,-1.8532,1.38554,-9.52173,-7.80158,-12.505,89.2879
2023-03-11 17:19:48:878,-1.75424,1.38149,-9.56413,-7.768,-12.5304,89.2214
2023-03-11 17:19:48:888,-1.72431,1.41789,-9.61803,-7.73558,-12.5686,89.1562
2023-03-11 17:19:48:899,-1.74947,1.45005,-9.65566,-7.69284,-12.6183,89.0931
