Timestamp,Acceleration_x,Acceleration_y,Acceleration_z,roll,pitch,yaw
2023-03-14 17:12:47:842,-0.460642,0.866125,-9.75822,-5.05009,-2.52974,72.1018
2023-03-14 17:12:47:851,-0.464073,0.878429,-9.72205,-5.05167,-2.53354,72.109
2023-03-14 17:12:47:860,-0.454964,0.88007,-9.70722,-5.0521,-2.53684,72.1175
2023-03-14 17:12:47:870,-0.454989,0.87602,-9.70249,-5.0521,-2.54059,72.119
2023-03-14 17:12:47:880,-0.478449,0.886356,-9.69126,-5.05129,-2.54335,72.1201
2023-03-14 17:12:47:891,-0.497696,0.87971,-9.68941,-5.05002,-2.54897,72.1169
2023-03-14 17:12:47:901,-0.507142,0.866112,-9.72698,-5.0508,-2.55069,72.116
2023-03-14 17:12:47:911,-0.514938,0.870774,-9.75532,-5.05352,-2.55376,72.1113
2023-03-14 17:12:47:920,-0.482802,0.87945,-9.78573,-5.0531,-2.55274,72.105
2023-03-14 17:12:47:931,-0.433654,0.868026,-9.79455,-5.05526,-2.54885,72.0942
2023-03-14 17:12:47:940,-0.407507,0.864418,-9.79602,-5.05688,-2.54833,72.0839
2023-03-14 17:12:47:950,-0.415022,0.885839,-9.78347,-5.05925,-2.54754,72.0748
2023-03-14 17:12:47:960,-0.405678,0.878444,-9.76478,-5.05877,-2.54715,72.0653
2023-03-14 17:12:47:971,-0.391523,0.873862,-9.74704,-5.05784,-2.54995,72.0592
2023-03-14 17:12:47:980,-0.40363,0.88253,-9.72367,-5.05577,-2.55111,72.0559
2023-03-14 17:12:47:990,-0.413164,0.897163,-9.7286,-5.05542,-2.55385,72.0542
2023-03-14 17:12:48:1,-0.403863,0.903831,-9.72694,-5.05727,-2.55587,72.0536
2023-03-14 17:12:48:11,-0.416085,0.901261,-9.71731,-5.05589,-2.55715,72.0556
2023-03-14 17:12:48:20,-0.446951,0.873671,-9.71628,-5.05055,-2.55657,72.056
2023-03-14 17:12:48:31,-0.466613,0.863615,-9.70835,-5.04858,-2.55285,72.0604
2023-03-14 17:12:48:41,-0.44745,0.843007,-9.68954,-5.04452,-2.55092,72.0614
2023-03-14 17:12:48:51,-0.436916,0.83131,-9.69989,-5.04444,-2.54773,72.0644
2023-03-14 17:12:48:61,-0.432557,0.855357,-9.72122,-5.04522,-2.54276,72.0648
2023-03-14 17:12:48:71,-0.424934,0.862833,-9.74983,-5.04784,-2.53798,72.063
2023-03-14 17:12:48:81,-0.433327,0.862397,-9.75469,-5.04981,-2.53682,72.0648
2023-03-14 17:12:48:91,-0.44852,0.852077,-9.73013,-5.05058,-2.5317,72.0643
2023-03-14 17:12:48:101,-0.468378,0.861176,-9.72356,-5.05223,-2.52662,72.067
2023-03-14 17:12:48:111,-0.476603,0.872191,-9.73952,-5.05481,-2.52258,72.0672
2023-03-14 17:12:48:120,-0.475562,0.86001,-9.73898,-5.06106,-2.51999,72.0636
2023-03-14 17:12:48:131,-0.436676,0.859352,-9.72315,-5.06429,-2.51393,72.0583
2023-03-14 17:12:48:141,-0.395864,0.859895,-9.71717,-5.06881,-2.50497,72.0534
2023-03-14 17:12:48:151,-0.387311,0.859125,-9.70306,-5.07306,-2.49736,72.0479
2023-03-14 17:12:48:161,-0.39995,0.861204,-9.69238,-5.07941,-2.49141,72.0438
2023-03-14 17:12:48:170,-0.41604,0.872557,-9.71638,-5.08841,-2.48219,72.0416
2023-03-14 17:12:48:180,-0.409933,0.897067,-9.75089,-5.09654,-2.47566,72.0411
2023-03-14 17:12:48:190,-0.396214,0.908146,-9.80108,-5.10166,-2.47063,72.0355
2023-03-14 17:12:48:200,-0.41651,0.918359,-9.80709,-5.09999,-2.46551,72.0352
2023-03-14 17:12:48:210,-0.423509,0.899885,-9.79012,-5.09613,-2.46176,72.0326
2023-03-14 17:12:48:220,-0.433647,0.875924,-9.77797,-5.08835,-2.46134,72.0293
2023-03-14 17:12:48:230,-0.440218,0.881018,-9.77127,-5.08328,-2.46502,72.0211
2023-03-14 17:12:48:240,-0.431052,0.847629,-9.76681,-5.07797,-2.46848,72.0111
2023-03-14 17:12:48:250,-0.421898,0.836258,-9.73504,-5.07087,-2.47041,72.0058
2023-03-14 17:12:48:260,-0.403885,0.819335,-9.71583,-5.06132,-2.47124,71.9986
2023-03-14 17:12:48:270,-0.389772,0.805417,-9.72321,-5.05218,-2.47568,71.9881
2023-03-14 17:12:48:280,-0.379087,0.81558,-9.72654,-5.04795,-2.47685,71.9799
2023-03-14 17:12:48:290,-0.372061,0.817069,-9.71063,-5.04417,-2.48129,71.976
2023-03-14 17:12:48:300,-0.361454,0.806827,-9.69811,-5.04396,-2.48908,71.972
2023-03-14 17:12:48:310,-0.357313,0.809037,-9.692,-5.04004,-2.49424,71.9705
2023-03-14 17:12:48:320,-0.361601,0.810467,-9.68296,-5.03972,-2.49867,71.9752
2023-03-14 17:12:48:330,-0.385037,0.824871,-9.67539,-5.04747,-2.5003,71.9803
2023-03-14 17:12:48:340,-0.389206,0.829633,-9.69104,-5.05421,-2.50059,71.9919
2023-03-14 17:12:48:350,-0.399682,0.848561,-9.71025,-5.06375,-2.50703,72.0036
2023-03-14 17:12:48:360,-0.426377,0.874075,-9.73145,-5.0779,-2.50995,72.0219
2023-03-14 17:12:48:370,-0.436202,0.890753,-9.73068,-5.08747,-2.51072,72.0397
2023-03-14 17:12:48:380,-0.449102,0.904904,-9.7453,-5.09849,-2.51468,72.0531
2023-03-14 17:12:48:390,-0.448105,0.910272,-9.74616,-5.10968,-2.51706,72.0691
2023-03-14 17:12:48:400,-0.470084,0.907414,-9.73057,-5.1189,-2.52167,72.0807
2023-03-14 17:12:48:410,-0.502272,0.925791,-9.71653,-5.13132,-2.52591,72.0932
2023-03-14 17:12:48:420,-0.509817,0.935799,-9.72794,-5.1429,-2.53218,72.1029
2023-03-14 17:12:48:430,-0.51455,0.940061,-9.76695,-5.15139,-2.53692,72.1149
2023-03-14 17:12:48:440,-0.503061,0.948289,-9.7715,-5.15757,-2.5365,72.1237
2023-03-14 17:12:48:450,-0.495458,0.958751,-9.75661,-5.16075,-2.54016,72.1284
2023-03-14 17:12:48:460,-0.482495,0.955867,-9.75731,-5.16557,-2.54139,72.1294
2023-03-14 17:12:48:470,-0.468247,0.923444,-9.762,-5.16447,-2.54278,72.1306
2023-03-14 17:12:48:480,-0.486856,0.910511,-9.75435,-5.16122,-2.54255,72.1315
2023-03-14 17:12:48:490,-0.502988,0.925471,-9.73721,-5.15881,-2.54335,72.1305
2023-03-14 17:12:48:500,-0.492712,0.913836,-9.74927,-5.15881,-2.54275,72.1271
2023-03-14 17:12:48:510,-0.478372,0.895794,-9.73959,-5.15384,-2.53589,72.1241
2023-03-14 17:12:48:520,-0.457532,0.889927,-9.73289,-5.14947,-2.52818,72.117
2023-03-14 17:12:48:530,-0.447498,0.876597,-9.73576,-5.14445,-2.52022,72.1117
2023-03-14 17:12:48:540,-0.427897,0.884087,-9.74388,-5.14428,-2.50808,72.1084
2023-03-14 17:12:48:550,-0.417958,0.88156,-9.72863,-5.14061,-2.49685,72.1049
2023-03-14 17:12:48:560,-0.414695,0.87637,-9.71598,-5.14039,-2.48292,72.1005
2023-03-14 17:12:48:570,-0.398257,0.868015,-9.72942,-5.13881,-2.47001,72.0986
2023-03-14 17:12:48:580,-0.388069,0.867587,-9.74405,-5.13921,-2.45658,72.0994
2023-03-14 17:12:48:590,-0.399307,0.869292,-9.74045,-5.13863,-2.44738,72.1004
2023-03-14 17:12:48:600,-0.393821,0.883836,-9.73571,-5.13592,-2.43361,72.0987
2023-03-14 17:12:48:610,-0.376154,0.877611,-9.73391,-5.13382,-2.42304,72.0939
2023-03-14 17:12:48:620,-0.366448,0.864674,-9.72714,-5.1331,-2.41376,72.0906
2023-03-14 17:12:48:631,-0.36937,0.867154,-9.71738,-5.13292,-2.40634,72.0864
2023-03-14 17:12:48:640,-0.373445,0.871538,-9.7103,-5.13442,-2.40212,72.081
2023-03-14 17:12:48:651,-0.383213,0.87917,-9.70812,-5.13896,-2.40126,72.0791
2023-03-14 17:12:48:660,-0.394754,0.889452,-9.71544,-5.14699,-2.39989,72.0775
2023-03-14 17:12:48:671,-0.395834,0.893585,-9.73971,-5.1525,-2.39723,72.0764
2023-03-14 17:12:48:681,-0.37076,0.908914,-9.73908,-5.15928,-2.39631,72.0759
2023-03-14 17:12:48:691,-0.360702,0.900211,-9.7462,-5.16239,-2.39327,72.0704
2023-03-14 17:12:48:700,-0.359489,0.889291,-9.73277,-5.16829,-2.39275,72.0688
2023-03-14 17:12:48:711,-0.37339,0.885583,-9.74488,-5.17349,-2.39001,72.0698
2023-03-14 17:12:48:720,-0.371173,0.902073,-9.76901,-5.18051,-2.38672,72.0728
2023-03-14 17:12:48:730,-0.371071,0.904678,-9.77479,-5.1831,-2.38552,72.0782
2023-03-14 17:12:48:740,-0.36532,0.897147,-9.75396,-5.18665,-2.37939,72.0852
2023-03-14 17:12:48:750,-0.372262,0.90398,-9.73987,-5.19142,-2.37435,72.0916
2023-03-14 17:12:48:760,-0.39166,0.914121,-9.74435,-5.1955,-2.37422,72.1009
2023-03-14 17:12:48:770,-0.392019,0.920771,-9.7555,-5.19574,-2.37578,72.1067
2023-03-14 17:12:48:780,-0.40313,0.927694,-9.7404,-5.19875,-2.37595,72.1117
2023-03-14 17:12:48:790,-0.442598,0.914644,-9.71509,-5.20172,-2.37815,72.1172
2023-03-14 17:12:48:800,-0.467617,0.919381,-9.72321,-5.19991,-2.38379,72.124
2023-03-14 17:12:48:810,-0.482614,0.91893,-9.73928,-5.20496,-2.38763,72.1281
2023-03-14 17:12:48:820,-0.478476,0.920107,-9.73317,-5.20775,-2.39376,72.1311
2023-03-14 17:12:48:830,-0.465827,0.912781,-9.72637,-5.20997,-2.39878,72.1304
2023-03-14 17:12:48:840,-0.430223,0.906157,-9.74537,-5.21308,-2.39566,72.1297
2023-03-14 17:12:48:851,-0.422271,0.913406,-9.75239,-5.21377,-2.39396,72.1287
2023-03-14 17:12:48:860,-0.403569,0.916697,-9.73255,-5.21841,-2.39248,72.1273
2023-03-14 17:12:48:871,-0.372887,0.89393,-9.7128,-5.22237,-2.39164,72.1256
2023-03-14 17:12:48:880,-0.353961,0.884521,-9.71822,-5.22468,-2.38667,72.1268
2023-03-14 17:12:48:891,-0.340597,0.877832,-9.74316,-5.22759,-2.3861,72.1293
2023-03-14 17:12:48:901,-0.347557,0.870937,-9.73298,-5.22835,-2.3836,72.1319
2023-03-14 17:12:48:911,-0.380325,0.865012,-9.6991,-5.23044,-2.38138,72.1424
2023-03-14 17:12:48:920,-0.409667,0.848817,-9.6669,-5.23673,-2.38036,72.1533
2023-03-14 17:12:48:931,-0.403086,0.836215,-9.65806,-5.2441,-2.37966,72.1677
2023-03-14 17:12:48:941,-0.380635,0.836633,-9.6781,-5.2552,-2.37678,72.1815
2023-03-14 17:12:48:951,-0.349734,0.835774,-9.67671,-5.27088,-2.37425,72.1956
2023-03-14 17:12:48:961,-0.31691,0.775142,-9.65038,-5.29201,-2.3759,72.2108
2023-03-14 17:12:48:971,-0.310134,0.764049,-9.62385,-5.32004,-2.37616,72.2323
2023-03-14 17:12:48:981,-0.277785,0.741422,-9.60801,-5.35413,-2.37441,72.2582
2023-03-14 17:12:48:991,-0.272971,0.736578,-9.59196,-5.40086,-2.37712,72.2901
2023-03-14 17:12:49:0,-0.293202,0.739367,-9.5619,-5.45541,-2.38152,72.3292
2023-03-14 17:12:49:11,-0.327438,0.737292,-9.52704,-5.52291,-2.38221,72.375
2023-03-14 17:12:49:21,-0.374611,0.72554,-9.49987,-5.59562,-2.37863,72.4287
2023-03-14 17:12:49:31,-0.414151,0.716022,-9.51475,-5.67815,-2.37358,72.4868
2023-03-14 17:12:49:41,-0.453431,0.710388,-9.56795,-5.7681,-2.36213,72.546
2023-03-14 17:12:49:51,-0.477631,0.724334,-9.58782,-5.85865,-2.34701,72.6013
2023-03-14 17:12:49:61,-0.520316,0.702812,-9.55846,-5.9474,-2.31671,72.6516
2023-03-14 17:12:49:71,-0.568835,0.701731,-9.51939,-6.0395,-2.27955,72.6958
2023-03-14 17:12:49:81,-0.503094,0.680595,-9.47802,-6.13887,-2.22696,72.7239
2023-03-14 17:12:49:91,-0.323235,0.659571,-9.4698,-6.24758,-2.17135,72.7456
2023-03-14 17:12:49:101,-0.168011,0.755441,-9.55346,-6.37498,-2.12206,72.7567
2023-03-14 17:12:49:111,-0.127974,0.922224,-9.67645,-6.51009,-2.08177,72.7653
2023-03-14 17:12:49:121,-0.141199,1.04502,-9.76117,-6.64706,-2.05651,72.7737
2023-03-14 17:12:49:131,-0.171253,1.14141,-9.81774,-6.78583,-2.04216,72.7802
2023-03-14 17:12:49:141,-0.201942,1.23162,-9.82478,-6.91877,-2.03873,72.7884
2023-03-14 17:12:49:151,-0.216137,1.28033,-9.76668,-7.0424,-2.04056,72.7979
2023-03-14 17:12:49:161,-0.216358,1.34412,-9.67708,-7.17009,-2.04881,72.8049
2023-03-14 17:12:49:171,-0.221437,1.4243,-9.65365,-7.29781,-2.06182,72.8141
2023-03-14 17:12:49:181,-0.258822,1.5027,-9.66234,-7.42555,-2.0824,72.8297
2023-03-14 17:12:49:191,-0.294294,1.54432,-9.6277,-7.55076,-2.1066,72.852
2023-03-14 17:12:49:201,-0.304682,1.56134,-9.61468,-7.67368,-2.12762,72.8749
2023-03-14 17:12:49:210,-0.323936,1.60339,-9.65982,-7.80637,-2.14731,72.9089
2023-03-14 17:12:49:220,-0.341779,1.65863,-9.72094,-7.94087,-2.17281,72.951
2023-03-14 17:12:49:231,-0.364405,1.71228,-9.7893,-8.07747,-2.20109,73.0002
2023-03-14 17:12:49:241,-0.416256,1.75566,-9.83646,-8.21012,-2.23082,73.0568
2023-03-14 17:12:49:251,-0.517197,1.79029,-9.86227,-8.33572,-2.25634,73.1233
2023-03-14 17:12:49:261,-0.637217,1.82087,-9.85063,-8.45141,-2.27993,73.1978
2023-03-14 17:12:49:271,-0.6974,1.82407,-9.8075,-8.55634,-2.29947,73.2726
2023-03-14 17:12:49:281,-0.745975,1.80842,-9.75496,-8.65042,-2.31072,73.3394
2023-03-14 17:12:49:291,-0.784769,1.75929,-9.66837,-8.73217,-2.31549,73.4022
2023-03-14 17:12:49:301,-0.77517,1.67819,-9.59153,-8.8077,-2.30978,73.4571
2023-03-14 17:12:49:311,-0.746273,1.65389,-9.54286,-8.88418,-2.2929,73.4997
2023-03-14 17:12:49:321,-0.68804,1.58949,-9.48755,-8.95811,-2.26969,73.5364
2023-03-14 17:12:49:330,-0.598162,1.54213,-9.48915,-9.04175,-2.24411,73.5638
2023-03-14 17:12:49:340,-0.520389,1.58231,-9.56442,-9.13509,-2.21903,73.5879
2023-03-14 17:12:49:351,-0.51763,1.65152,-9.64473,-9.23317,-2.19991,73.6052
2023-03-14 17:12:49:361,-0.575223,1.66507,-9.74459,-9.3293,-2.1885,73.6196
2023-03-14 17:12:49:371,-0.618719,1.7077,-9.83808,-9.41854,-2.18233,73.6242
2023-03-14 17:12:49:381,-0.66187,1.74563,-9.9542,-9.49651,-2.17983,73.6129
2023-03-14 17:12:49:391,-0.768289,1.83293,-10.1449,-9.56175,-2.1739,73.5934
2023-03-14 17:12:49:401,-0.84553,1.9729,-10.3374,-9.60045,-2.17089,73.5476
2023-03-14 17:12:49:411,-0.816639,2.02247,-10.3577,-9.5979,-2.16612,73.4762
2023-03-14 17:12:49:421,-0.676896,1.91534,-10.1919,-9.55945,-2.1519,73.3766
2023-03-14 17:12:49:431,-0.47986,1.74686,-9.91913,-9.49601,-2.13155,73.2573
2023-03-14 17:12:49:441,-0.336754,1.62506,-9.73384,-9.43082,-2.11336,73.1221
2023-03-14 17:12:49:451,-0.304147,1.62125,-9.72093,-9.37505,-2.10218,72.9804
2023-03-14 17:12:49:461,-0.268143,1.67977,-9.806,-9.31944,-2.09717,72.8369
2023-03-14 17:12:49:471,-0.240742,1.73046,-9.8653,-9.25807,-2.10006,72.6865
2023-03-14 17:12:49:481,-0.26412,1.76581,-9.90784,-9.1876,-2.11341,72.5344
2023-03-14 17:12:49:490,-0.358845,1.83264,-9.94784,-9.10474,-2.13809,72.3785
2023-03-14 17:12:49:501,-0.457132,1.88695,-9.9574,-9.00804,-2.17257,72.2098
2023-03-14 17:12:49:510,-0.440945,1.8462,-9.8797,-8.8937,-2.21035,72.0233
2023-03-14 17:12:49:520,-0.359114,1.71453,-9.7123,-8.76108,-2.25533,71.8257
2023-03-14 17:12:49:531,-0.271704,1.57015,-9.54036,-8.63275,-2.30242,71.619
2023-03-14 17:12:49:540,-0.156074,1.49011,-9.44711,-8.51326,-2.35276,71.413
2023-03-14 17:12:49:551,-0.0650786,1.44646,-9.43583,-8.41004,-2.40739,71.2104
2023-03-14 17:12:49:561,-0.0404931,1.42562,-9.46828,-8.32079,-2.46761,71.0216
2023-03-14 17:12:49:571,-0.0978012,1.43262,-9.52331,-8.24397,-2.5376,70.8489
2023-03-14 17:12:49:581,-0.167381,1.43871,-9.53041,-8.17232,-2.61511,70.691
2023-03-14 17:12:49:591,-0.236727,1.42873,-9.55251,-8.1085,-2.69478,70.5428
2023-03-14 17:12:49:601,-0.323757,1.43551,-9.61365,-8.04804,-2.77446,70.4055
2023-03-14 17:12:49:611,-0.403027,1.43484,-9.65355,-7.98618,-2.85416,70.2798
2023-03-14 17:12:49:620,-0.45579,1.389,-9.63889,-7.91899,-2.92597,70.159
2023-03-14 17:12:49:631,-0.472824,1.31658,-9.63146,-7.84762,-2.98809,70.0434
2023-03-14 17:12:49:641,-0.443711,1.24552,-9.60462,-7.77611,-3.04147,69.9346
2023-03-14 17:12:49:651,-0.395917,1.17548,-9.56265,-7.70568,-3.08494,69.8282
2023-03-14 17:12:49:661,-0.351065,1.1295,-9.55055,-7.63995,-3.12404,69.7331
2023-03-14 17:12:49:671,-0.33886,1.09826,-9.55782,-7.58771,-3.15498,69.6512
2023-03-14 17:12:49:681,-0.329468,1.10995,-9.53956,-7.54358,-3.17925,69.5849
2023-03-14 17:12:49:691,-0.364121,1.09736,-9.5384,-7.50866,-3.1973,69.5309
2023-03-14 17:12:49:701,-0.428523,1.12888,-9.57473,-7.47892,-3.21636,69.4863
2023-03-14 17:12:49:711,-0.466195,1.17148,-9.62982,-7.4537,-3.23206,69.4513
2023-03-14 17:12:49:721,-0.493749,1.19637,-9.66967,-7.43129,-3.23975,69.4239
2023-03-14 17:12:49:731,-0.524223,1.19298,-9.67166,-7.40712,-3.24875,69.3978
2023-03-14 17:12:49:741,-0.534554,1.1769,-9.63544,-7.38321,-3.25469,69.3745
2023-03-14 17:12:49:751,-0.528468,1.16114,-9.63112,-7.36023,-3.26149,69.3548
2023-03-14 17:12:49:761,-0.517036,1.18156,-9.63442,-7.33879,-3.27041,69.3345
2023-03-14 17:12:49:771,-0.510134,1.17865,-9.6275,-7.32157,-3.28201,69.3147
2023-03-14 17:12:49:781,-0.512787,1.16519,-9.61645,-7.30825,-3.29436,69.2976
2023-03-14 17:12:49:791,-0.556534,1.18186,-9.63514,-7.29761,-3.31196,69.2845
2023-03-14 17:12:49:800,-0.577647,1.19414,-9.65317,-7.29071,-3.33259,69.2651
2023-03-14 17:12:49:811,-0.583518,1.19647,-9.68323,-7.28746,-3.35863,69.244
2023-03-14 17:12:49:821,-0.622258,1.22372,-9.72224,-7.28549,-3.38947,69.2223
2023-03-14 17:12:49:831,-0.656735,1.2426,-9.7576,-7.28048,-3.42393,69.1969
2023-03-14 17:12:49:841,-0.666325,1.22531,-9.76391,-7.27164,-3.46005,69.1687
2023-03-14 17:12:49:850,-0.65272,1.20357,-9.715,-7.25883,-3.49949,69.1385
2023-03-14 17:12:49:860,-0.619054,1.16032,-9.67975,-7.24886,-3.53724,69.1008
2023-03-14 17:12:49:871,-0.60482,1.1213,-9.64716,-7.2426,-3.57764,69.0669
2023-03-14 17:12:49:880,-0.608293,1.13395,-9.62795,-7.24065,-3.61787,69.0334
2023-03-14 17:12:49:891,-0.590678,1.15775,-9.66169,-7.24254,-3.65589,69.0042
2023-03-14 17:12:49:900,-0.569202,1.17889,-9.67638,-7.24576,-3.6921,68.9791
2023-03-14 17:12:49:911,-0.60212,1.18918,-9.67098,-7.24764,-3.72678,68.9559
2023-03-14 17:12:49:921,-0.631532,1.22612,-9.70211,-7.255,-3.76271,68.9407
2023-03-14 17:12:49:932,-0.647058,1.27345,-9.73935,-7.26154,-3.79509,68.9288
2023-03-14 17:12:49:940,-0.653961,1.30194,-9.72473,-7.26377,-3.82791,68.9152
2023-03-14 17:12:49:951,-0.693202,1.28734,-9.70307,-7.26343,-3.85615,68.9062
2023-03-14 17:12:49:960,-0.699526,1.30133,-9.67572,-7.26354,-3.88081,68.8991
2023-03-14 17:12:49:970,-0.701093,1.32332,-9.68434,-7.26304,-3.90595,68.8917
2023-03-14 17:12:49:981,-0.696682,1.31855,-9.67941,-7.25501,-3.9287,68.886
2023-03-14 17:12:49:991,-0.696066,1.30054,-9.65442,-7.24729,-3.94624,68.8771
2023-03-14 17:12:50:0,-0.697092,1.27443,-9.63017,-7.23806,-3.96324,68.8697
2023-03-14 17:12:50:11,-0.674082,1.27163,-9.62041,-7.22883,-3.97563,68.8635
2023-03-14 17:12:50:20,-0.67101,1.26196,-9.63784,-7.22527,-3.98418,68.861
2023-03-14 17:12:50:31,-0.676512,1.26071,-9.65393,-7.22216,-3.99129,68.8598
2023-03-14 17:12:50:41,-0.708004,1.26267,-9.65783,-7.21976,-3.99783,68.86
2023-03-14 17:12:50:51,-0.712682,1.27427,-9.67155,-7.21863,-4.00374,68.8649
2023-03-14 17:12:50:61,-0.730573,1.29344,-9.67236,-7.21924,-4.00215,68.8659
2023-03-14 17:12:50:71,-0.733115,1.30274,-9.69236,-7.21792,-4.00169,68.8665
2023-03-14 17:12:50:80,-0.711187,1.30257,-9.70711,-7.2171,-3.99835,68.8624
2023-03-14 17:12:50:91,-0.704758,1.30296,-9.71813,-7.21754,-3.99441,68.8577
2023-03-14 17:12:50:101,-0.681441,1.2978,-9.72386,-7.21438,-3.9913,68.8537
2023-03-14 17:12:50:111,-0.659484,1.28683,-9.71178,-7.20859,-3.99142,68.8457
2023-03-14 17:12:50:120,-0.673768,1.28479,-9.67574,-7.20872,-3.99091,68.8378
2023-03-14 17:12:50:131,-0.692045,1.25733,-9.65821,-7.20472,-3.99012,68.8302
2023-03-14 17:12:50:140,-0.703086,1.24399,-9.64188,-7.20174,-3.98524,68.8191
2023-03-14 17:12:50:151,-0.650453,1.23743,-9.65344,-7.19712,-3.97763,68.8081
2023-03-14 17:12:50:160,-0.59067,1.22392,-9.67249,-7.19032,-3.97341,68.7916
2023-03-14 17:12:50:171,-0.559639,1.21278,-9.69427,-7.18673,-3.96981,68.7803
2023-03-14 17:12:50:180,-0.551393,1.21153,-9.7006,-7.18723,-3.96734,68.776
2023-03-14 17:12:50:190,-0.58477,1.20386,-9.68568,-7.18531,-3.96622,68.7741
2023-03-14 17:12:50:201,-0.602055,1.23008,-9.68401,-7.18161,-3.96757,68.7737
2023-03-14 17:12:50:211,-0.610387,1.23793,-9.68372,-7.18346,-3.963,68.7746
2023-03-14 17:12:50:227,-0.612871,1.23979,-9.6919,-7.18453,-3.9582,68.7813
2023-03-14 17:12:50:231,-0.608005,1.24717,-9.69167,-7.18451,-3.95353,68.7904
2023-03-14 17:12:50:241,-0.604009,1.25723,-9.69727,-7.18062,-3.94736,68.8023
2023-03-14 17:12:50:251,-0.602874,1.2511,-9.71219,-7.18037,-3.94267,68.8172
2023-03-14 17:12:50:261,-0.60391,1.2441,-9.70654,-7.17923,-3.93983,68.8289
2023-03-14 17:12:50:271,-0.612058,1.22785,-9.70166,-7.17324,-3.93556,68.8431
2023-03-14 17:12:50:280,-0.628633,1.23405,-9.70753,-7.16867,-3.93633,68.8599
2023-03-14 17:12:50:291,-0.629432,1.22793,-9.69053,-7.16251,-3.93461,68.8765
2023-03-14 17:12:50:300,-0.624318,1.21404,-9.67339,-7.1539,-3.93447,68.8942
2023-03-14 17:12:50:311,-0.619117,1.22143,-9.6609,-7.14792,-3.94084,68.914
2023-03-14 17:12:50:320,-0.628049,1.22442,-9.6476,-7.1422,-3.94592,68.9331
2023-03-14 17:12:50:331,-0.6589,1.21854,-9.63759,-7.14071,-3.95469,68.9569
2023-03-14 17:12:50:340,-0.674205,1.22676,-9.63309,-7.14037,-3.95893,68.9826
2023-03-14 17:12:50:350,-0.684416,1.22366,-9.65805,-7.14146,-3.96512,69.0082
2023-03-14 17:12:50:360,-0.686512,1.23214,-9.66156,-7.14248,-3.96888,69.0368
2023-03-14 17:12:50:370,-0.711102,1.22883,-9.68376,-7.14656,-3.97149,69.068
2023-03-14 17:12:50:380,-0.725249,1.24382,-9.70308,-7.14521,-3.9735,69.1042
2023-03-14 17:12:50:391,-0.741018,1.25373,-9.70638,-7.14822,-3.97232,69.1339
2023-03-14 17:12:50:401,-0.756453,1.24123,-9.70502,-7.14514,-3.96756,69.1659
2023-03-14 17:12:50:411,-0.742664,1.23644,-9.68206,-7.14223,-3.96355,69.1965
2023-03-14 17:12:50:421,-0.72358,1.24052,-9.66475,-7.13691,-3.95716,69.2212
2023-03-14 17:12:50:431,-0.714948,1.23112,-9.64718,-7.13227,-3.94825,69.2425
2023-03-14 17:12:50:440,-0.698109,1.22477,-9.65951,-7.13513,-3.94049,69.2648
2023-03-14 17:12:50:451,-0.693683,1.23123,-9.67509,-7.13655,-3.92889,69.2882
2023-03-14 17:12:50:461,-0.7079,1.2689,-9.70662,-7.13992,-3.92033,69.3093
2023-03-14 17:12:50:471,-0.718605,1.27663,-9.71263,-7.13943,-3.91389,69.3302
2023-03-14 17:12:50:480,-0.718228,1.26137,-9.6844,-7.13839,-3.90348,69.3495
2023-03-14 17:12:50:491,-0.702473,1.25864,-9.677,-7.13149,-3.8951,69.3673
2023-03-14 17:12:50:501,-0.708203,1.25949,-9.67873,-7.12714,-3.88371,69.382
2023-03-14 17:12:50:511,-0.720367,1.25471,-9.6746,-7.12242,-3.87276,69.3959
2023-03-14 17:12:50:521,-0.699298,1.24803,-9.66943,-7.11923,-3.86351,69.4024
2023-03-14 17:12:50:531,-0.66034,1.23332,-9.66716,-7.11348,-3.85483,69.4066
2023-03-14 17:12:50:540,-0.628119,1.21023,-9.65764,-7.10843,-3.84552,69.4104
2023-03-14 17:12:50:550,-0.619204,1.20393,-9.65414,-7.10906,-3.8365,69.4136
2023-03-14 17:12:50:560,-0.606627,1.21558,-9.66163,-7.1106,-3.83181,69.4155
2023-03-14 17:12:50:570,-0.61312,1.22736,-9.6927,-7.11446,-3.82678,69.4179
2023-03-14 17:12:50:580,-0.615281,1.25068,-9.72591,-7.11936,-3.82189,69.4214
2023-03-14 17:12:50:591,-0.608904,1.25907,-9.73859,-7.12168,-3.8183,69.4252
2023-03-14 17:12:50:600,-0.602854,1.25458,-9.75016,-7.12184,-3.81571,69.4296
2023-03-14 17:12:50:611,-0.588426,1.2609,-9.76309,-7.11845,-3.81412,69.438
2023-03-14 17:12:50:620,-0.607452,1.26828,-9.74101,-7.11365,-3.80903,69.4468
2023-03-14 17:12:50:631,-0.615912,1.24407,-9.71986,-7.10726,-3.80499,69.4595
2023-03-14 17:12:50:640,-0.576256,1.2349,-9.70514,-7.09447,-3.8036,69.4718
2023-03-14 17:12:50:650,-0.563499,1.23013,-9.69056,-7.08239,-3.79723,69.4874
2023-03-14 17:12:50:660,-0.572361,1.21632,-9.69364,-7.07077,-3.79644,69.5086
2023-03-14 17:12:50:671,-0.573621,1.21053,-9.70585,-7.06365,-3.79458,69.5305
2023-03-14 17:12:50:681,-0.523191,1.21086,-9.71629,-7.05331,-3.79332,69.5546
2023-03-14 17:12:50:691,-0.533608,1.21138,-9.72137,-7.04618,-3.78972,69.5854
2023-03-14 17:12:50:700,-0.5799,1.20881,-9.73069,-7.03672,-3.78903,69.6214
2023-03-14 17:12:50:711,-0.587785,1.23051,-9.73364,-7.02878,-3.7881,69.6611
2023-03-14 17:12:50:720,-0.613244,1.24723,-9.72615,-7.01726,-3.78417,69.7073
2023-03-14 17:12:50:731,-0.633278,1.24432,-9.70751,-7.00398,-3.77913,69.7573
2023-03-14 17:12:50:740,-0.644754,1.21781,-9.68332,-6.98735,-3.77361,69.8072
2023-03-14 17:12:50:751,-0.652417,1.18464,-9.64871,-6.97445,-3.7621,69.863
2023-03-14 17:12:50:761,-0.650949,1.17548,-9.62077,-6.96138,-3.7501,69.9183
2023-03-14 17:12:50:771,-0.630175,1.15754,-9.58826,-6.9538,-3.73578,69.9746
2023-03-14 17:12:50:781,-0.615365,1.14685,-9.55194,-6.95453,-3.72178,70.0335
2023-03-14 17:12:50:791,-0.609644,1.16011,-9.5278,-6.96365,-3.70868,70.0967
2023-03-14 17:12:50:801,-0.587932,1.20527,-9.55657,-6.98272,-3.69385,70.1614
2023-03-14 17:12:50:811,-0.587871,1.24411,-9.61301,-7.01009,-3.67891,70.2289
2023-03-14 17:12:50:821,-0.590282,1.26046,-9.67589,-7.03731,-3.66541,70.3025
2023-03-14 17:12:50:831,-0.61923,1.23639,-9.72902,-7.06442,-3.65577,70.3782
2023-03-14 17:12:50:841,-0.628692,1.21834,-9.75075,-7.08868,-3.64702,70.4564
2023-03-14 17:12:50:851,-0.642013,1.17285,-9.77448,-7.11048,-3.6292,70.5399
2023-03-14 17:12:50:860,-0.638222,1.15858,-9.78508,-7.13068,-3.6047,70.629
2023-03-14 17:12:50:871,-0.635732,1.1798,-9.77839,-7.14636,-3.57161,70.7186
2023-03-14 17:12:50:880,-0.622559,1.18836,-9.70845,-7.15858,-3.53499,70.818
2023-03-14 17:12:50:891,-0.575713,1.18015,-9.6327,-7.17067,-3.48325,70.9116
2023-03-14 17:12:50:900,-0.492956,1.17455,-9.58403,-7.18461,-3.42081,71.0086
2023-03-14 17:12:50:911,-0.416231,1.16157,-9.64953,-7.19959,-3.34699,71.1089
2023-03-14 17:12:50:920,-0.357566,1.21538,-9.79592,-7.21147,-3.27006,71.214
2023-03-14 17:12:50:931,-0.291735,1.23556,-9.91674,-7.2135,-3.19409,71.3211
2023-03-14 17:12:50:941,-0.240626,1.1589,-9.92183,-7.19846,-3.11917,71.4325
2023-03-14 17:12:50:951,-0.205468,1.04356,-9.7869,-7.16336,-3.04993,71.5487
2023-03-14 17:12:50:960,-0.155961,0.943018,-9.61438,-7.12778,-2.98812,71.6761
2023-03-14 17:12:50:971,-0.142617,0.912145,-9.5535,-7.10297,-2.93644,71.8117
2023-03-14 17:12:50:981,-0.167476,0.943071,-9.61662,-7.08996,-2.90149,71.9554
2023-03-14 17:12:50:991,-0.254135,1.02418,-9.71805,-7.0863,-2.88762,72.1031
2023-03-14 17:12:51:0,-0.328488,1.06882,-9.68519,-7.08835,-2.89547,72.2559
2023-03-14 17:12:51:11,-0.411514,1.05565,-9.58988,-7.0992,-2.92325,72.4114
2023-03-14 17:12:51:20,-0.544201,1.13144,-9.58872,-7.12949,-2.96727,72.5666
2023-03-14 17:12:51:31,-0.719187,1.25694,-9.69821,-7.16663,-3.01941,72.7181
2023-03-14 17:12:51:41,-0.858272,1.38315,-9.77093,-7.2038,-3.06965,72.8672
2023-03-14 17:12:51:51,-0.878632,1.42601,-9.83496,-7.22985,-3.11644,72.9986
2023-03-14 17:12:51:61,-0.835096,1.43009,-9.86076,-7.24418,-3.15918,73.1156
2023-03-14 17:12:51:71,-0.761479,1.38291,-9.78671,-7.24187,-3.20596,73.2217
2023-03-14 17:12:51:81,-0.731434,1.29209,-9.68293,-7.23483,-3.2612,73.3231
2023-03-14 17:12:51:91,-0.805608,1.29423,-9.63996,-7.22768,-3.31686,73.4238
2023-03-14 17:12:51:101,-0.928632,1.31665,-9.61704,-7.22623,-3.36875,73.518
2023-03-14 17:12:51:111,-1.03654,1.34002,-9.60468,-7.23335,-3.41641,73.6098
2023-03-14 17:12:51:121,-1.09033,1.39107,-9.61427,-7.24181,-3.44914,73.6869
2023-03-14 17:12:51:131,-1.0261,1.41341,-9.64273,-7.24646,-3.46522,73.7477
2023-03-14 17:12:51:140,-0.90234,1.4122,-9.7444,-7.24607,-3.47068,73.7908
2023-03-14 17:12:51:151,-0.785351,1.43442,-9.86219,-7.22955,-3.46792,73.8239
2023-03-14 17:12:51:161,-0.68725,1.37304,-9.87378,-7.20163,-3.47092,73.851
2023-03-14 17:12:51:170,-0.681979,1.25422,-9.78308,-7.15647,-3.47957,73.8758
2023-03-14 17:12:51:180,-0.733248,1.18319,-9.72741,-7.11006,-3.49406,73.8983
2023-03-14 17:12:51:191,-0.843292,1.19442,-9.70992,-7.06196,-3.51023,73.9198
2023-03-14 17:12:51:200,-0.915152,1.15447,-9.61718,-7.01528,-3.52576,73.9366
2023-03-14 17:12:51:211,-0.946397,1.09969,-9.49428,-6.97494,-3.53899,73.9398
2023-03-14 17:12:51:220,-0.974496,1.13442,-9.47923,-6.94926,-3.53879,73.9323
2023-03-14 17:12:51:231,-0.918182,1.20583,-9.53682,-6.92834,-3.52662,73.9092
2023-03-14 17:12:51:241,-0.808163,1.25605,-9.55048,-6.90774,-3.50862,73.8728
2023-03-14 17:12:51:251,-0.683216,1.21444,-9.55757,-6.88521,-3.48856,73.8239
2023-03-14 17:12:51:261,-0.642156,1.19801,-9.63121,-6.85617,-3.47193,73.7723
2023-03-14 17:12:51:271,-0.674808,1.18627,-9.68542,-6.82187,-3.4571,73.7153
2023-03-14 17:12:51:281,-0.687564,1.11557,-9.66392,-6.78448,-3.44574,73.649
2023-03-14 17:12:51:291,-0.65823,1.05306,-9.59963,-6.75332,-3.43204,73.5766
2023-03-14 17:12:51:301,-0.602456,1.03693,-9.5533,-6.73183,-3.42559,73.4999
2023-03-14 17:12:51:311,-0.593521,1.0873,-9.50918,-6.72521,-3.42467,73.4176
2023-03-14 17:12:51:321,-0.53968,1.10633,-9.48841,-6.73075,-3.42535,73.3294
2023-03-14 17:12:51:331,-0.464385,1.13412,-9.50605,-6.75226,-3.42855,73.2393
2023-03-14 17:12:51:341,-0.425926,1.15978,-9.55925,-6.77829,-3.43378,73.1528
2023-03-14 17:12:51:351,-0.339925,1.16611,-9.61585,-6.81379,-3.44143,73.0725
2023-03-14 17:12:51:361,-0.319651,1.19747,-9.73049,-6.84879,-3.45111,73.0005
2023-03-14 17:12:51:371,-0.377645,1.25627,-9.82472,-6.8779,-3.46192,72.9402
2023-03-14 17:12:51:380,-0.43512,1.24565,-9.80703,-6.89678,-3.47429,72.8904
2023-03-14 17:12:51:390,-0.457078,1.21983,-9.76431,-6.9101,-3.48763,72.8493
2023-03-14 17:12:51:400,-0.505203,1.199,-9.6974,-6.92377,-3.49955,72.8154
2023-03-14 17:12:51:410,-0.559438,1.21678,-9.6867,-6.93967,-3.51233,72.7838
2023-03-14 17:12:51:420,-0.587596,1.24511,-9.69669,-6.96006,-3.53186,72.7474
2023-03-14 17:12:51:430,-0.627435,1.21765,-9.63646,-6.98246,-3.5643,72.7109
2023-03-14 17:12:51:440,-0.628959,1.1926,-9.56871,-7.01514,-3.6045,72.67
2023-03-14 17:12:51:450,-0.634721,1.29002,-9.70094,-7.05041,-3.62691,72.6322
2023-03-14 17:12:51:460,-0.719364,1.34398,-9.74861,-7.07181,-3.64267,72.5874
2023-03-14 17:12:51:470,-0.714581,1.23089,-9.60891,-7.09105,-3.66512,72.5348
2023-03-14 17:12:51:480,-0.578401,1.17557,-9.57645,-7.11656,-3.67439,72.4799
2023-03-14 17:12:51:491,-0.533644,1.25238,-9.69263,-7.14799,-3.67815,72.4288
2023-03-14 17:12:51:500,-0.59595,1.32657,-9.76798,-7.17869,-3.68291,72.3849
2023-03-14 17:12:51:511,-0.594055,1.3655,-9.74004,-7.20379,-3.67921,72.3417
2023-03-14 17:12:51:521,-0.56397,1.35352,-9.70515,-7.2222,-3.66524,72.3013
2023-03-14 17:12:51:531,-0.557536,1.36312,-9.69732,-7.2369,-3.64714,72.2665
2023-03-14 17:12:51:540,-0.583394,1.33985,-9.6678,-7.2469,-3.62333,72.2314
2023-03-14 17:12:51:551,-0.634674,1.34687,-9.66933,-7.25919,-3.59166,72.1899
2023-03-14 17:12:51:560,-0.653357,1.44164,-9.82177,-7.2606,-3.53845,72.1503
2023-03-14 17:12:51:571,-0.586034,1.43012,-9.87525,-7.24582,-3.48196,72.1068
2023-03-14 17:12:51:581,-0.487771,1.25851,-9.62806,-7.22662,-3.44098,72.0535
2023-03-14 17:12:51:591,-0.382856,1.07919,-9.2374,-7.23401,-3.42422,71.9961
2023-03-14 17:12:51:600,-0.287095,1.24266,-9.39869,-7.27298,-3.37534,71.9458
2023-03-14 17:12:51:611,-0.333637,1.48068,-9.87246,-7.3074,-3.29703,71.8989
2023-03-14 17:12:51:621,-0.226323,1.40078,-9.94808,-7.32678,-3.23998,71.8468
2023-03-14 17:12:51:631,-0.0946878,1.33191,-9.96591,-7.34526,-3.19507,71.7993
2023-03-14 17:12:51:640,-0.0731412,1.39979,-10.0738,-7.35606,-3.15197,71.7692
2023-03-14 17:12:51:651,-0.135024,1.39513,-10.0609,-7.34469,-3.11257,71.7531
2023-03-14 17:12:51:661,-0.13624,1.2392,-9.8324,-7.31718,-3.077,71.7424
2023-03-14 17:12:51:670,-0.0961361,1.11889,-9.70837,-7.2949,-3.03562,71.7443
2023-03-14 17:12:51:680,-0.0901705,1.19961,-9.78114,-7.27616,-2.99237,71.7678
2023-03-14 17:12:51:691,-0.137684,1.26679,-9.84129,-7.25402,-2.94848,71.8071
2023-03-14 17:12:51:701,-0.195577,1.23251,-9.79271,-7.22179,-2.91147,71.8573
2023-03-14 17:12:51:710,-0.253628,1.21219,-9.75256,-7.19195,-2.87958,71.9175
2023-03-14 17:12:51:720,-0.264373,1.23851,-9.75843,-7.15866,-2.85658,71.982
2023-03-14 17:12:51:731,-0.263299,1.2292,-9.71887,-7.12012,-2.83541,72.0513
2023-03-14 17:12:51:740,-0.319933,1.16897,-9.58496,-7.08102,-2.82432,72.1301
2023-03-14 17:12:51:750,-0.411173,1.0946,-9.3689,-7.04729,-2.81455,72.214
2023-03-14 17:12:51:761,-0.45961,0.996422,-9.1698,-7.02924,-2.8083,72.2985
2023-03-14 17:12:51:771,-0.552636,0.941264,-9.10264,-7.04154,-2.81094,72.3833
2023-03-14 17:12:51:780,-0.646705,0.970768,-9.31508,-7.08365,-2.81783,72.4626
2023-03-14 17:12:51:791,-0.64879,1.09895,-9.69867,-7.14568,-2.82465,72.5288
2023-03-14 17:12:51:800,-0.607383,1.21667,-10.0068,-7.19532,-2.83273,72.5856
2023-03-14 17:12:51:811,-0.608368,1.27915,-10.0546,-7.22771,-2.84529,72.6341
2023-03-14 17:12:51:821,-0.630151,1.19306,-9.75282,-7.2314,-2.86735,72.6718
2023-03-14 17:12:51:831,-0.5772,0.942802,-9.35867,-7.23954,-2.8932,72.7032
2023-03-14 17:12:51:841,-0.546346,0.872208,-9.32407,-7.27828,-2.92009,72.7352
2023-03-14 17:12:51:851,-0.570007,1.06713,-9.61006,-7.34378,-2.95071,72.7623
2023-03-14 17:12:51:860,-0.657024,1.20897,-9.81802,-7.40821,-2.98684,72.7869
2023-03-14 17:12:51:871,-0.714041,1.23857,-9.79235,-7.45594,-3.02353,72.8034
2023-03-14 17:12:51:881,-0.670749,1.14975,-9.71192,-7.49653,-3.0508,72.8203
2023-03-14 17:12:51:890,-0.595698,1.07625,-9.64067,-7.53385,-3.06485,72.835
2023-03-14 17:12:51:901,-0.575612,1.1124,-9.60211,-7.57362,-3.07571,72.854
2023-03-14 17:12:51:911,-0.594789,1.10572,-9.48014,-7.61143,-3.08423,72.8771
2023-03-14 17:12:51:920,-0.615669,1.16244,-9.3076,-7.66758,-3.08515,72.8995
2023-03-14 17:12:51:931,-0.553777,1.17759,-9.13562,-7.73434,-3.07632,72.9258
2023-03-14 17:12:51:941,-0.526816,1.11462,-9.13185,-7.83062,-3.06633,72.9563
2023-03-14 17:12:51:951,-0.562333,1.26431,-9.42788,-7.96169,-3.06228,72.9915
2023-03-14 17:12:51:961,-0.595395,1.53804,-9.89815,-8.10444,-3.05922,73.0235
2023-03-14 17:12:51:970,-0.635186,1.73484,-10.1882,-8.22744,-3.05656,73.0533
2023-03-14 17:12:51:980,-0.680231,1.71646,-10.1052,-8.30839,-3.05662,73.0831
2023-03-14 17:12:51:991,-0.690511,1.54285,-9.77951,-8.37123,-3.04997,73.112
2023-03-14 17:12:52:0,-0.67197,1.37854,-9.47552,-8.43015,-3.04276,73.1377
2023-03-14 17:12:52:11,-0.625665,1.33744,-9.39228,-8.51147,-3.03025,73.1644
2023-03-14 17:12:52:20,-0.587734,1.41676,-9.49371,-8.61081,-3.02046,73.1909
2023-03-14 17:12:52:31,-0.636599,1.53201,-9.60983,-8.71453,-3.00875,73.2146
2023-03-14 17:12:52:41,-0.675878,1.54799,-9.65479,-8.81735,-3.003,73.2341
2023-03-14 17:12:52:51,-0.670866,1.53478,-9.65226,-8.91379,-2.99196,73.2502
2023-03-14 17:12:52:61,-0.665884,1.55236,-9.64939,-9.00906,-2.9814,73.2629
2023-03-14 17:12:52:70,-0.647274,1.59511,-9.58658,-9.10332,-2.96536,73.2696
2023-03-14 17:12:52:80,-0.617305,1.59472,-9.52424,-9.19607,-2.94777,73.2698
2023-03-14 17:12:52:91,-0.58186,1.59221,-9.519,-9.29054,-2.9356,73.2653
2023-03-14 17:12:52:100,-0.551107,1.62484,-9.55308,-9.39018,-2.9231,73.2549
2023-03-14 17:12:52:111,-0.541185,1.67285,-9.57428,-9.49485,-2.91194,73.2447
2023-03-14 17:12:52:121,-0.538311,1.69018,-9.57375,-9.60349,-2.89725,73.233
2023-03-14 17:12:52:130,-0.519272,1.71922,-9.57336,-9.71734,-2.88227,73.2172
2023-03-14 17:12:52:140,-0.491767,1.75027,-9.59158,-9.83638,-2.86357,73.2032
2023-03-14 17:12:52:151,-0.472521,1.75191,-9.5978,-9.96008,-2.84502,73.1907
2023-03-14 17:12:52:160,-0.472828,1.74743,-9.55484,-10.0819,-2.82172,73.1812
2023-03-14 17:12:52:170,-0.461461,1.72765,-9.50219,-10.2067,-2.79573,73.175
2023-03-14 17:12:52:180,-0.454883,1.71435,-9.45951,-10.3328,-2.76217,73.1712
2023-03-14 17:12:52:190,-0.456723,1.68695,-9.40473,-10.462,-2.72514,73.1704
2023-03-14 17:12:52:200,-0.478872,1.67056,-9.35694,-10.5968,-2.6844,73.1741
2023-03-14 17:12:52:210,-0.500812,1.63759,-9.30639,-10.7352,-2.63621,73.1795
2023-03-14 17:12:52:220,-0.496907,1.57718,-9.19795,-10.8841,-2.58827,73.1825
2023-03-14 17:12:52:230,-0.498518,1.52826,-9.07628,-11.054,-2.53977,73.1836
2023-03-14 17:12:52:240,-0.501085,1.49517,-8.93902,-11.247,-2.48635,73.1834
2023-03-14 17:12:52:250,-0.44857,1.50246,-8.91111,-11.4728,-2.43385,73.1818
2023-03-14 17:12:52:260,-0.398711,1.5965,-9.01745,-11.7344,-2.38698,73.1778
2023-03-14 17:12:52:270,-0.40119,1.79124,-9.24515,-12.0247,-2.34918,73.1719
2023-03-14 17:12:52:280,-0.429274,2.07215,-9.52389,-12.3311,-2.31896,73.165
2023-03-14 17:12:52:290,-0.450265,2.28087,-9.79643,-12.6309,-2.29701,73.1533
2023-03-14 17:12:52:300,-0.446306,2.40909,-9.94814,-12.9121,-2.28101,73.138
2023-03-14 17:12:52:310,-0.428655,2.47241,-9.88819,-13.1656,-2.2706,73.1135
2023-03-14 17:12:52:320,-0.432957,2.39325,-9.67586,-13.3982,-2.25851,73.0882
2023-03-14 17:12:52:330,-0.455801,2.3279,-9.44708,-13.6251,-2.24121,73.0609
2023-03-14 17:12:52:340,-0.431038,2.32338,-9.2988,-13.8547,-2.21967,73.03
2023-03-14 17:12:52:350,-0.38495,2.31658,-9.21582,-14.0943,-2.20045,72.995
2023-03-14 17:12:52:360,-0.371339,2.33363,-9.22051,-14.3522,-2.18405,72.9546
2023-03-14 17:12:52:370,-0.376949,2.42358,-9.27276,-14.6198,-2.16674,72.9159
2023-03-14 17:12:52:380,-0.369517,2.49344,-9.32959,-14.8929,-2.15443,72.8763
2023-03-14 17:12:52:390,-0.396824,2.6309,-9.40588,-15.1747,-2.15002,72.8331
2023-03-14 17:12:52:400,-0.378543,2.83689,-9.57818,-15.4587,-2.14785,72.7905
2023-03-14 17:12:52:410,-0.347724,2.97077,-9.72533,-15.7242,-2.14242,72.7453
2023-03-14 17:12:52:420,-0.32388,3.07422,-9.76352,-15.9666,-2.12973,72.6999
2023-03-14 17:12:52:431,-0.30566,3.08625,-9.67077,-16.1814,-2.10907,72.6539
2023-03-14 17:12:52:441,-0.26692,3.01374,-9.52765,-16.3793,-2.07961,72.613
2023-03-14 17:12:52:451,-0.227502,3.00081,-9.47137,-16.5678,-2.04376,72.5798
2023-03-14 17:12:52:460,-0.194243,3.1079,-9.53855,-16.7525,-2.00407,72.5468
2023-03-14 17:12:52:470,-0.177976,3.28549,-9.69219,-16.9344,-1.97074,72.5175
2023-03-14 17:12:52:480,-0.165743,3.45437,-9.84297,-17.0983,-1.94007,72.4927
2023-03-14 17:12:52:490,-0.210776,3.5311,-9.94239,-17.2406,-1.91461,72.4726
2023-03-14 17:12:52:500,-0.260499,3.57703,-9.98252,-17.352,-1.8936,72.4544
2023-03-14 17:12:52:511,-0.312465,3.56844,-10.0125,-17.4289,-1.8759,72.4334
2023-03-14 17:12:52:520,-0.323797,3.51021,-10.0047,-17.4736,-1.85837,72.4106
2023-03-14 17:12:52:530,-0.290826,3.45943,-9.92796,-17.484,-1.84015,72.3768
2023-03-14 17:12:52:540,-0.257771,3.34611,-9.72851,-17.4727,-1.82836,72.3453
2023-03-14 17:12:52:550,-0.26033,3.19164,-9.51743,-17.4462,-1.82505,72.3105
2023-03-14 17:12:52:560,-0.257304,3.12066,-9.4504,-17.4206,-1.82544,72.2772
2023-03-14 17:12:52:570,-0.264976,3.12939,-9.51245,-17.3947,-1.83404,72.2421
2023-03-14 17:12:52:580,-0.271021,3.16145,-9.5756,-17.3613,-1.84744,72.2045
2023-03-14 17:12:52:591,-0.283189,3.13618,-9.55603,-17.3162,-1.86122,72.1651
2023-03-14 17:12:52:600,-0.285597,3.07637,-9.46359,-17.2595,-1.87932,72.1215
2023-03-14 17:12:52:611,-0.277155,3.02163,-9.38972,-17.2011,-1.9039,72.0793
2023-03-14 17:12:52:620,-0.281162,2.99438,-9.36674,-17.1373,-1.9241,72.036
2023-03-14 17:12:52:631,-0.284151,2.9554,-9.38087,-17.0712,-1.94282,71.9948
2023-03-14 17:12:52:641,-0.249265,2.94818,-9.44426,-17.0014,-1.95782,71.9503
2023-03-14 17:12:52:650,-0.250691,2.97955,-9.54519,-16.925,-1.97083,71.9105
2023-03-14 17:12:52:661,-0.250388,2.98935,-9.57268,-16.8356,-1.98407,71.8691
2023-03-14 17:12:52:671,-0.241866,2.95591,-9.51352,-16.7322,-1.99776,71.8278
2023-03-14 17:12:52:681,-0.247084,2.87671,-9.45959,-16.6175,-2.00826,71.7913
2023-03-14 17:12:52:691,-0.264423,2.8306,-9.4392,-16.5051,-2.02596,71.7533
2023-03-14 17:12:52:701,-0.291567,2.82522,-9.46048,-16.3887,-2.04707,71.7164
2023-03-14 17:12:52:711,-0.327236,2.82233,-9.46878,-16.2671,-2.07086,71.6802
2023-03-14 17:12:52:720,-0.351793,2.78066,-9.4856,-16.1383,-2.09852,71.6388
2023-03-14 17:12:52:731,-0.363739,2.76617,-9.51397,-16.0097,-2.12711,71.5978
2023-03-14 17:12:52:740,-0.351531,2.74944,-9.54202,-15.8731,-2.16051,71.5494
2023-03-14 17:12:52:750,-0.341806,2.70645,-9.50302,-15.7288,-2.19623,71.4999
2023-03-14 17:12:52:760,-0.325392,2.63567,-9.44165,-15.5788,-2.23413,71.4512
2023-03-14 17:12:52:770,-0.306134,2.56053,-9.42427,-15.4297,-2.273,71.4033
2023-03-14 17:12:52:781,-0.296475,2.54299,-9.44838,-15.2777,-2.30829,71.359
2023-03-14 17:12:52:791,-0.275756,2.53771,-9.4897,-15.1228,-2.34126,71.3164
2023-03-14 17:12:52:800,-0.277796,2.51895,-9.52042,-14.9654,-2.37519,71.2815
2023-03-14 17:12:52:811,-0.26425,2.49953,-9.52241,-14.8039,-2.40449,71.2508
2023-03-14 17:12:52:820,-0.252034,2.45074,-9.5201,-14.6427,-2.43811,71.2207
2023-03-14 17:12:52:831,-0.257106,2.41393,-9.53098,-14.4838,-2.47216,71.1976
2023-03-14 17:12:52:841,-0.264809,2.41498,-9.54981,-14.3286,-2.5076,71.1856
2023-03-14 17:12:52:851,-0.276449,2.39886,-9.5712,-14.1694,-2.53901,71.1806
2023-03-14 17:12:52:861,-0.294678,2.36838,-9.54075,-14.01,-2.56996,71.1828
2023-03-14 17:12:52:871,-0.303276,2.30679,-9.47137,-13.8465,-2.59622,71.1943
2023-03-14 17:12:52:880,-0.294979,2.24979,-9.40893,-13.6855,-2.61492,71.2103
2023-03-14 17:12:52:891,-0.291059,2.21743,-9.3735,-13.5262,-2.63101,71.2368
2023-03-14 17:12:52:901,-0.316408,2.18441,-9.38183,-13.376,-2.64878,71.2699
2023-03-14 17:12:52:911,-0.348932,2.16252,-9.35014,-13.2264,-2.6669,71.3116
2023-03-14 17:12:52:920,-0.393848,2.11496,-9.30779,-13.0868,-2.68228,71.3603
2023-03-14 17:12:52:931,-0.4219,2.06198,-9.28387,-12.9561,-2.69811,71.4111
2023-03-14 17:12:52:941,-0.441902,2.032,-9.25193,-12.8338,-2.71262,71.4655
2023-03-14 17:12:52:951,-0.484678,2.00723,-9.24925,-12.7261,-2.72814,71.5202
2023-03-14 17:12:52:961,-0.519835,2.01428,-9.2783,-12.6323,-2.74298,71.5753
2023-03-14 17:12:52:970,-0.532792,2.03878,-9.3239,-12.5451,-2.75678,71.629
2023-03-14 17:12:52:981,-0.565074,2.04308,-9.34614,-12.4616,-2.77259,71.68
2023-03-14 17:12:52:991,-0.569668,2.04523,-9.3681,-12.3923,-2.78896,71.7285
2023-03-14 17:12:53:1,-0.567001,2.05379,-9.3814,-12.3315,-2.80751,71.7739
2023-03-14 17:12:53:11,-0.563915,2.04794,-9.36006,-12.2743,-2.82364,71.8149
2023-03-14 17:12:53:21,-0.56509,2.06888,-9.32647,-12.2255,-2.83518,71.854
2023-03-14 17:12:53:31,-0.536635,2.08571,-9.36987,-12.1812,-2.83669,71.8911
2023-03-14 17:12:53:41,-0.51361,2.14283,-9.47159,-12.1417,-2.82945,71.9274
2023-03-14 17:12:53:51,-0.479936,2.1719,-9.55893,-12.0974,-2.80936,71.9605
2023-03-14 17:12:53:61,-0.447515,2.17831,-9.7066,-12.044,-2.77528,71.9969
2023-03-14 17:12:53:71,-0.394156,2.20105,-9.8794,-11.9794,-2.73602,72.0326
2023-03-14 17:12:53:81,-0.32036,2.13727,-9.96092,-11.8925,-2.71322,72.0704
2023-03-14 17:12:53:91,-0.306759,2.03799,-9.94498,-11.7864,-2.70983,72.117
2023-03-14 17:12:53:101,-0.335103,1.9482,-9.83922,-11.6658,-2.72977,72.1732
2023-03-14 17:12:53:111,-0.367849,1.8256,-9.71523,-11.534,-2.76097,72.2377
2023-03-14 17:12:53:121,-0.436348,1.71483,-9.56504,-11.4013,-2.81077,72.3147
2023-03-14 17:12:53:131,-0.560406,1.61882,-9.34561,-11.2859,-2.88441,72.4021
2023-03-14 17:12:53:141,-0.765001,1.56132,-9.12942,-11.196,-2.97694,72.5003
2023-03-14 17:12:53:151,-1.0206,1.60482,-9.03746,-11.1328,-3.06927,72.5975
2023-03-14 17:12:53:161,-1.22183,1.69976,-9.00167,-11.101,-3.15794,72.6862
2023-03-14 17:12:53:171,-1.37878,1.80824,-9.01218,-11.0966,-3.23834,72.764
2023-03-14 17:12:53:181,-1.48861,1.91413,-9.0394,-11.1124,-3.31289,72.8128
2023-03-14 17:12:53:190,-1.52711,2.01117,-9.06416,-11.1486,-3.37585,72.8323
2023-03-14 17:12:53:200,-1.51126,2.13055,-9.11492,-11.2043,-3.43288,72.82
2023-03-14 17:12:53:211,-1.45145,2.26751,-9.19771,-11.2757,-3.47456,72.7768
2023-03-14 17:12:53:221,-1.38535,2.40293,-9.29233,-11.3523,-3.50465,72.7068
2023-03-14 17:12:53:231,-1.27463,2.47648,-9.37728,-11.4296,-3.51965,72.6097
2023-03-14 17:12:53:241,-1.16186,2.54352,-9.50548,-11.5073,-3.52229,72.4942
2023-03-14 17:12:53:251,-1.08114,2.6284,-9.67758,-11.5794,-3.51532,72.3634
2023-03-14 17:12:53:261,-0.962633,2.69634,-9.86702,-11.636,-3.50044,72.2165
2023-03-14 17:12:53:271,-0.797884,2.70849,-9.99403,-11.6734,-3.48657,72.0604
2023-03-14 17:12:53:281,-0.688935,2.68736,-10.0383,-11.6899,-3.47048,71.9014
2023-03-14 17:12:53:291,-0.646605,2.67295,-10.0797,-11.6844,-3.45212,71.7425
2023-03-14 17:12:53:301,-0.61188,2.64388,-10.1285,-11.6629,-3.42872,71.5869
2023-03-14 17:12:53:311,-0.558742,2.62386,-10.1595,-11.6239,-3.40249,71.4339
2023-03-14 17:12:53:320,-0.496388,2.59342,-10.1613,-11.5673,-3.3696,71.2847
2023-03-14 17:12:53:331,-0.461528,2.49936,-10.0823,-11.4872,-3.33778,71.1373
2023-03-14 17:12:53:341,-0.423983,2.40274,-10.0134,-11.3993,-3.29878,70.9927
2023-03-14 17:12:53:350,-0.351994,2.34575,-10.027,-11.2998,-3.25372,70.8513
2023-03-14 17:12:53:360,-0.268884,2.3133,-10.0506,-11.1842,-3.2037,70.7184
2023-03-14 17:12:53:371,-0.194163,2.22128,-10.0518,-11.0531,-3.15097,70.5953
2023-03-14 17:12:53:380,-0.180773,2.13648,-10.0086,-10.9017,-3.09521,70.4825
2023-03-14 17:12:53:391,-0.175681,2.08989,-9.97988,-10.736,-3.03894,70.3735
2023-03-14 17:12:53:400,-0.110328,2.01577,-9.94773,-10.559,-2.97916,70.2677
2023-03-14 17:12:53:411,-0.0418047,1.90933,-9.89637,-10.3649,-2.92556,70.1704
2023-03-14 17:12:53:420,-0.0155071,1.78434,-9.80513,-10.1553,-2.87146,70.0775
2023-03-14 17:12:53:430,-0.0509618,1.65019,-9.79686,-9.9316,-2.81892,69.9953
2023-03-14 17:12:53:440,-0.0902773,1.53398,-9.87248,-9.69434,-2.76864,69.9188
2023-03-14 17:12:53:451,-0.119475,1.42138,-9.95788,-9.43988,-2.71381,69.8432
2023-03-14 17:12:53:461,-0.0851648,1.29848,-10.0118,-9.15814,-2.65118,69.7688
2023-03-14 17:12:53:471,-0.00599919,1.13092,-9.97497,-8.84999,-2.57811,69.6968
2023-03-14 17:12:53:481,0.108891,0.943414,-9.89861,-8.5151,-2.49428,69.6286
2023-03-14 17:12:53:491,0.220637,0.750743,-9.77278,-8.16386,-2.40328,69.5642
2023-03-14 17:12:53:501,0.344399,0.56869,-9.63291,-7.8102,-2.31211,69.5209
2023-03-14 17:12:53:510,0.415379,0.417647,-9.49274,-7.45791,-2.22716,69.4906
2023-03-14 17:12:53:520,0.432172,0.326021,-9.44117,-7.12186,-2.15765,69.4851
2023-03-14 17:12:53:531,0.417827,0.268415,-9.38417,-6.79985,-2.1032,69.503
2023-03-14 17:12:53:541,0.367135,0.238545,-9.30412,-6.49573,-2.06848,69.5474
2023-03-14 17:12:53:551,0.283957,0.210143,-9.19883,-6.21556,-2.05235,69.6162
2023-03-14 17:12:53:560,0.168457,0.160601,-9.09917,-5.95439,-2.05657,69.7054
2023-03-14 17:12:53:571,0.0546405,0.163523,-9.07682,-5.72598,-2.07175,69.8155
2023-03-14 17:12:53:580,-0.0604301,0.21134,-9.06587,-5.52624,-2.10649,69.9381
2023-03-14 17:12:53:591,-0.255175,0.273325,-9.07317,-5.35879,-2.16156,70.0732
2023-03-14 17:12:53:600,-0.465015,0.356225,-9.09159,-5.22104,-2.22968,70.2155
2023-03-14 17:12:53:611,-0.634141,0.410618,-9.10902,-5.10814,-2.30778,70.35
2023-03-14 17:12:53:621,-0.714075,0.445763,-9.09976,-5.02199,-2.38291,70.4752
2023-03-14 17:12:53:631,-0.750725,0.463206,-9.09208,-4.95877,-2.45229,70.5923
2023-03-14 17:12:53:641,-0.82003,0.523367,-9.10439,-4.92473,-2.52413,70.6985
2023-03-14 17:12:53:651,-0.828419,0.599884,-9.14097,-4.91596,-2.58303,70.7906
2023-03-14 17:12:53:661,-0.759521,0.662298,-9.21236,-4.92708,-2.62719,70.868
2023-03-14 17:12:53:671,-0.676494,0.736771,-9.31059,-4.96138,-2.65948,70.9334
2023-03-14 17:12:53:681,-0.622233,0.83338,-9.38508,-5.01044,-2.67929,71.0002
2023-03-14 17:12:53:691,-0.591543,0.885219,-9.43314,-5.07055,-2.68796,71.0603
2023-03-14 17:12:53:701,-0.571224,0.951562,-9.4797,-5.13894,-2.68304,71.119
2023-03-14 17:12:53:711,-0.510689,1.0176,-9.55874,-5.21933,-2.66065,71.177
2023-03-14 17:12:53:721,-0.428776,1.0971,-9.65039,-5.30212,-2.62683,71.2327
2023-03-14 17:12:53:731,-0.332912,1.17969,-9.75585,-5.38744,-2.58447,71.2922
2023-03-14 17:12:53:741,-0.246025,1.23273,-9.84978,-5.46638,-2.53773,71.3522
2023-03-14 17:12:53:751,-0.193051,1.27126,-9.88697,-5.53447,-2.49459,71.4119
2023-03-14 17:12:53:761,-0.156381,1.28288,-9.92109,-5.59219,-2.45262,71.4777
2023-03-14 17:12:53:771,-0.11269,1.28614,-9.94834,-5.63465,-2.41232,71.5465
2023-03-14 17:12:53:781,-0.0809073,1.27413,-9.95705,-5.66323,-2.38037,71.6204
2023-03-14 17:12:53:791,-0.0896434,1.23125,-9.94457,-5.67835,-2.36374,71.7024
2023-03-14 17:12:53:801,-0.128852,1.18571,-9.91277,-5.68537,-2.35438,71.7882
2023-03-14 17:12:53:811,-0.156827,1.15055,-9.88633,-5.68831,-2.35381,71.8791
2023-03-14 17:12:53:820,-0.178031,1.11895,-9.87557,-5.68768,-2.36703,71.9697
2023-03-14 17:12:53:831,-0.209648,1.07206,-9.85195,-5.68342,-2.39261,72.0627
2023-03-14 17:12:53:841,-0.262943,1.03215,-9.82645,-5.67751,-2.42662,72.1615
2023-03-14 17:12:53:851,-0.318856,0.998962,-9.81271,-5.67018,-2.46743,72.2623
2023-03-14 17:12:53:861,-0.378463,0.974323,-9.79184,-5.66205,-2.51875,72.3614
2023-03-14 17:12:53:871,-0.439914,0.971086,-9.74054,-5.65551,-2.57613,72.4625
2023-03-14 17:12:53:881,-0.467325,0.957883,-9.69441,-5.65187,-2.63466,72.5596
2023-03-14 17:12:53:891,-0.491284,0.954973,-9.68546,-5.65609,-2.69343,72.6566
2023-03-14 17:12:53:901,-0.529608,0.979186,-9.70369,-5.66335,-2.75272,72.7489
2023-03-14 17:12:53:911,-0.558133,1.00325,-9.69036,-5.66896,-2.81449,72.839
2023-03-14 17:12:53:921,-0.572505,0.991025,-9.64276,-5.67606,-2.86887,72.9251
2023-03-14 17:12:53:931,-0.572208,0.974721,-9.62637,-5.68465,-2.92391,73.0067
2023-03-14 17:12:53:941,-0.59275,0.975711,-9.64166,-5.69583,-2.98173,73.0864
2023-03-14 17:12:53:950,-0.627325,0.994568,-9.66866,-5.71288,-3.03723,73.1637
2023-03-14 17:12:53:960,-0.638757,0.994865,-9.69143,-5.72775,-3.08758,73.2341
2023-03-14 17:12:53:971,-0.633063,1.01067,-9.71251,-5.74487,-3.13733,73.2988
