Timestamp,Acceleration_x,Acceleration_y,Acceleration_z,roll,pitch,yaw
2023-03-15 14:37:24:647,-0.798038,-1.75055,-9.51253,10.3091,-4.83345,-7.58612
2023-03-15 14:37:24:655,-0.804707,-1.73819,-9.50026,10.2867,-4.83109,-7.59034
2023-03-15 14:37:24:665,-0.82219,-1.7551,-9.49789,10.263,-4.8299,-7.59549
2023-03-15 14:37:24:675,-0.803802,-1.75738,-9.5255,10.2314,-4.83011,-7.59919
2023-03-15 14:37:24:685,-0.80778,-1.73299,-9.53191,10.1979,-4.8227,-7.60656
2023-03-15 14:37:24:695,-0.80106,-1.72107,-9.50502,10.164,-4.81498,-7.61493
2023-03-15 14:37:24:705,-0.750125,-1.73012,-9.47629,10.1282,-4.80707,-7.62256
2023-03-15 14:37:24:715,-0.718144,-1.73247,-9.45997,10.0887,-4.79573,-7.62689
2023-03-15 14:37:24:725,-0.711852,-1.71155,-9.46071,10.0438,-4.78481,-7.62835
2023-03-15 14:37:24:735,-0.75358,-1.68542,-9.45951,9.9923,-4.78151,-7.62899
2023-03-15 14:37:24:745,-0.81327,-1.67424,-9.45164,9.93227,-4.77209,-7.6264
2023-03-15 14:37:24:755,-0.825776,-1.6682,-9.44132,9.8691,-4.75919,-7.6217
2023-03-15 14:37:24:765,-0.82087,-1.66076,-9.40211,9.80039,-4.7422,-7.61825
2023-03-15 14:37:24:775,-0.797361,-1.66054,-9.36543,9.72632,-4.71861,-7.61629
2023-03-15 14:37:24:785,-0.755335,-1.67217,-9.34698,9.64552,-4.68774,-7.61441
2023-03-15 14:37:24:795,-0.718146,-1.67662,-9.32405,9.55262,-4.65576,-7.61388
2023-03-15 14:37:24:805,-0.673643,-1.68334,-9.30411,9.44856,-4.61878,-7.60815
2023-03-15 14:37:24:815,-0.651784,-1.69286,-9.28238,9.33399,-4.57866,-7.59988
2023-03-15 14:37:24:825,-0.65568,-1.70217,-9.27271,9.20495,-4.53662,-7.58849
2023-03-15 14:37:24:835,-0.672169,-1.71436,-9.27216,9.06239,-4.49213,-7.57131
2023-03-15 14:37:24:845,-0.679465,-1.70998,-9.2545,8.90777,-4.45143,-7.55415
2023-03-15 14:37:24:855,-0.678641,-1.69311,-9.26011,8.73932,-4.41079,-7.53634
2023-03-15 14:37:24:865,-0.688641,-1.63969,-9.34971,8.54863,-4.36848,-7.51706
2023-03-15 14:37:24:875,-0.721989,-1.56113,-9.42076,8.34052,-4.33184,-7.50083
2023-03-15 14:37:24:885,-0.764732,-1.50069,-9.43003,8.123,-4.2982,-7.48349
2023-03-15 14:37:24:895,-0.823639,-1.47446,-9.4349,7.89903,-4.26456,-7.47024
2023-03-15 14:37:24:905,-0.856683,-1.42355,-9.42256,7.66524,-4.2277,-7.45752
2023-03-15 14:37:24:915,-0.884512,-1.38895,-9.40426,7.42503,-4.19298,-7.44977
2023-03-15 14:37:24:925,-0.901372,-1.35754,-9.3954,7.17196,-4.15492,-7.44767
2023-03-15 14:37:24:935,-0.924422,-1.34742,-9.36072,6.91373,-4.11403,-7.44971
2023-03-15 14:37:24:945,-0.944052,-1.33475,-9.31757,6.6464,-4.06788,-7.45523
2023-03-15 14:37:24:955,-0.937481,-1.32441,-9.24677,6.37238,-4.01756,-7.46624
2023-03-15 14:37:24:965,-0.930607,-1.30701,-9.20448,6.08799,-3.96175,-7.47999
2023-03-15 14:37:24:975,-0.922589,-1.26669,-9.18463,5.78864,-3.8968,-7.49171
2023-03-15 14:37:24:985,-0.918917,-1.20566,-9.20268,5.47077,-3.82424,-7.50589
2023-03-15 14:37:24:995,-0.912981,-1.07043,-9.33083,5.13048,-3.74856,-7.52536
2023-03-15 14:37:25:5,-0.926724,-0.920034,-9.45374,4.7702,-3.6701,-7.54926
2023-03-15 14:37:25:15,-0.916412,-0.811928,-9.4914,4.40004,-3.57921,-7.5842
2023-03-15 14:37:25:25,-0.877119,-0.743697,-9.4924,4.02964,-3.4804,-7.62821
2023-03-15 14:37:25:35,-0.873888,-0.699228,-9.4959,3.65483,-3.37115,-7.6706
2023-03-15 14:37:25:45,-0.883806,-0.646485,-9.4657,3.27934,-3.25313,-7.71999
2023-03-15 14:37:25:55,-0.879407,-0.612531,-9.4294,2.90124,-3.12865,-7.77137
2023-03-15 14:37:25:65,-0.844838,-0.580793,-9.36021,2.51481,-2.99677,-7.8273
2023-03-15 14:37:25:75,-0.824493,-0.530904,-9.28602,2.12172,-2.85164,-7.88657
2023-03-15 14:37:25:85,-0.811863,-0.46587,-9.2743,1.71287,-2.70457,-7.95145
2023-03-15 14:37:25:95,-0.811949,-0.382066,-9.29055,1.28239,-2.5486,-8.01666
2023-03-15 14:37:25:105,-0.820791,-0.299047,-9.27417,0.835622,-2.38367,-8.08744
2023-03-15 14:37:25:115,-0.797987,-0.200193,-9.32685,0.368679,-2.21529,-8.16594
2023-03-15 14:37:25:125,-0.74638,-0.0197481,-9.53889,-0.117861,-2.03497,-8.2511
2023-03-15 14:37:25:135,-0.679214,0.236158,-9.79106,-0.619947,-1.8533,-8.34847
2023-03-15 14:37:25:145,-0.610128,0.41351,-9.9484,-1.12123,-1.65991,-8.46364
2023-03-15 14:37:25:155,-0.550134,0.548089,-9.96569,-1.60622,-1.46203,-8.59001
2023-03-15 14:37:25:165,-0.494888,0.62308,-9.90213,-2.06439,-1.25426,-8.72528
2023-03-15 14:37:25:175,-0.428218,0.705439,-9.84124,-2.50859,-1.04207,-8.86552
2023-03-15 14:37:25:185,-0.320788,0.812518,-9.8407,-2.95182,-0.824117,-9.01598
2023-03-15 14:37:25:195,-0.187403,0.936979,-9.91535,-3.39001,-0.602617,-9.17343
2023-03-15 14:37:25:205,-0.0999557,1.08626,-9.98202,-3.8257,-0.383328,-9.34249
2023-03-15 14:37:25:215,-0.0283295,1.19853,-10.034,-4.25615,-0.167159,-9.51217
2023-03-15 14:37:25:225,0.0518713,1.29568,-10.1134,-4.6729,0.0472838,-9.69366
2023-03-15 14:37:25:235,0.167023,1.40934,-10.1948,-5.07762,0.25576,-9.87945
2023-03-15 14:37:25:245,0.324389,1.5171,-10.3154,-5.46071,0.460991,-10.0692
2023-03-15 14:37:25:255,0.485495,1.64153,-10.4489,-5.81918,0.65611,-10.2575
2023-03-15 14:37:25:265,0.638706,1.77005,-10.5805,-6.15169,0.843572,-10.4458
2023-03-15 14:37:25:275,0.738525,1.853,-10.6622,-6.45235,1.01487,-10.6323
2023-03-15 14:37:25:285,0.777832,1.89149,-10.6428,-6.70895,1.16951,-10.8108
2023-03-15 14:37:25:295,3.01951,2.08113,-11.2633,-6.91877,1.30272,-10.9835
2023-03-15 14:37:25:305,3.571,2.23867,-10.5903,-6.98561,1.39473,-11.0414
2023-03-15 14:37:25:315,1.82985,5.14093,-14.2328,-7.18726,1.48643,-10.958
2023-03-15 14:37:25:325,2.20097,3.38762,-13.5484,-6.88846,1.07673,-11.1099
2023-03-15 14:37:25:335,0.960547,0.97233,-9.85787,-6.29935,0.571112,-11.166
2023-03-15 14:37:25:345,-1.13474,0.102997,-7.4881,-5.64549,0.205875,-11.048
2023-03-15 14:37:25:355,-1.47191,0.0911388,-7.07494,-5.24829,-0.00412481,-10.9319
2023-03-15 14:37:25:365,-0.226771,0.131573,-8.09403,-5.11897,-0.0246251,-10.895
2023-03-15 14:37:25:375,-0.811216,0.261489,-8.5415,-5.21857,0.1271,-10.827
2023-03-15 14:37:25:385,-2.42264,-0.385509,-6.91143,-5.49215,0.410075,-10.7908
2023-03-15 14:37:25:395,-1.68522,0.882468,-8.03893,-6.01399,0.8684,-10.8231
2023-03-15 14:37:25:405,1.8252,2.29728,-11.813,-6.59454,1.3843,-10.9716
2023-03-15 14:37:25:415,3.84717,2.2934,-12.5964,-6.99189,1.72048,-11.1633
2023-03-15 14:37:25:425,2.58317,1.72242,-11.5509,-7.11914,1.86457,-11.2251
2023-03-15 14:37:25:435,0.0255913,0.969184,-9.59913,-7.03463,1.83631,-11.169
2023-03-15 14:37:25:445,-1.15642,0.301015,-8.34579,-6.89929,1.74471,-11.1167
2023-03-15 14:37:25:455,-0.986638,0.493488,-8.53268,-6.84257,1.68319,-11.1079
2023-03-15 14:37:25:465,-0.271293,0.995157,-9.42748,-6.87623,1.6499,-11.1663
2023-03-15 14:37:25:475,0.0849123,1.44689,-10.0198,-6.93766,1.61513,-11.2645
2023-03-15 14:37:25:485,0.167267,1.44041,-10.157,-6.95585,1.55521,-11.397
2023-03-15 14:37:25:495,0.0331367,1.05328,-9.66117,-6.91236,1.48064,-11.5382
2023-03-15 14:37:25:505,0.0219807,0.938487,-9.34965,-6.87988,1.44009,-11.6618
2023-03-15 14:37:25:515,0.15427,1.06525,-9.41765,-6.89362,1.42436,-11.7849
2023-03-15 14:37:25:525,0.249922,1.36863,-9.81392,-6.94873,1.41683,-11.9084
2023-03-15 14:37:25:535,0.285016,1.37199,-9.97175,-6.99933,1.40367,-12.0414
2023-03-15 14:37:25:545,0.194404,1.20805,-9.61388,-7.04244,1.3878,-12.164
2023-03-15 14:37:25:555,0.108013,0.718037,-8.97971,-7.10627,1.38529,-12.2729
2023-03-15 14:37:25:565,-0.0686291,0.445977,-8.44713,-7.22149,1.41947,-12.3445
2023-03-15 14:37:25:575,0.0660311,1.5482,-9.73224,-7.51478,1.51967,-12.3984
2023-03-15 14:37:25:585,0.422526,1.96311,-10.5458,-7.82133,1.57275,-12.5179
2023-03-15 14:37:25:595,0.50502,1.95818,-10.5863,-8.04891,1.58992,-12.6529
2023-03-15 14:37:25:605,0.379459,1.7539,-10.2906,-8.16462,1.59967,-12.7813
2023-03-15 14:37:25:615,0.304967,1.46494,-9.80411,-8.21238,1.62454,-12.8942
2023-03-15 14:37:25:625,0.342498,1.42523,-9.44699,-8.23802,1.65797,-13.0024
2023-03-15 14:37:25:635,0.558097,1.32419,-9.52444,-8.27621,1.70672,-13.1028
2023-03-15 14:37:25:645,0.711076,1.53601,-9.74922,-8.34319,1.73966,-13.1975
2023-03-15 14:37:25:655,0.757764,1.68675,-9.96584,-8.43713,1.76898,-13.281
2023-03-15 14:37:25:665,0.810509,1.83785,-10.1686,-8.5342,1.7858,-13.3652
2023-03-15 14:37:25:675,0.693663,2.0931,-10.4214,-8.61106,1.79172,-13.4466
2023-03-15 14:37:25:685,0.727151,2.13828,-10.5215,-8.63467,1.82194,-13.5276
2023-03-15 14:37:25:695,0.759452,1.86758,-10.24,-8.58627,1.86403,-13.6022
2023-03-15 14:37:25:705,0.653616,1.66326,-9.89826,-8.48504,1.92298,-13.6556
2023-03-15 14:37:25:715,0.746824,1.57597,-9.80855,-8.36135,2.00787,-13.6977
2023-03-15 14:37:25:725,1.04776,1.28494,-9.61984,-8.22904,2.09668,-13.7297
2023-03-15 14:37:25:735,1.04483,1.03394,-9.25611,-8.10315,2.14842,-13.7458
2023-03-15 14:37:25:745,0.850411,0.989264,-9.14528,-8.01771,2.16311,-13.7286
2023-03-15 14:37:25:755,0.721869,1.03883,-9.23752,-7.98884,2.13651,-13.7012
2023-03-15 14:37:25:765,0.512167,1.15097,-9.31104,-7.98949,2.09706,-13.6701
2023-03-15 14:37:25:775,0.358068,1.12328,-9.30215,-7.99226,2.07368,-13.6357
2023-03-15 14:37:25:785,0.35094,1.13755,-9.38484,-7.99063,2.07758,-13.5908
2023-03-15 14:37:25:795,0.39578,1.02733,-9.20922,-7.99218,2.0981,-13.5422
2023-03-15 14:37:25:805,0.373129,0.88682,-9.02901,-7.99918,2.14177,-13.4845
2023-03-15 14:37:25:815,0.367717,0.988559,-9.13165,-8.0499,2.19194,-13.409
2023-03-15 14:37:25:825,0.31668,1.18896,-9.31878,-8.14982,2.23043,-13.3361
2023-03-15 14:37:25:835,0.20575,1.33476,-9.45047,-8.27452,2.24558,-13.2673
2023-03-15 14:37:25:845,0.121897,1.45685,-9.52845,-8.41306,2.25108,-13.2094
2023-03-15 14:37:25:855,0.0676611,1.44158,-9.46888,-8.55286,2.25109,-13.1618
2023-03-15 14:37:25:865,0.0507028,1.45327,-9.49019,-8.6796,2.25967,-13.1143
2023-03-15 14:37:25:875,0.0538638,1.49864,-9.49224,-8.81068,2.27389,-13.0805
2023-03-15 14:37:25:885,0.0926113,1.46847,-9.4765,-8.9448,2.2939,-13.0544
2023-03-15 14:37:25:895,0.152095,1.52944,-9.51678,-9.09165,2.31456,-13.0342
2023-03-15 14:37:25:905,0.0746869,1.54946,-9.48321,-9.25115,2.34332,-13.0212
2023-03-15 14:37:25:915,-0.0954445,1.638,-9.51053,-9.41842,2.39069,-13.0132
2023-03-15 14:37:25:925,-0.0180081,1.906,-9.89865,-9.59687,2.48326,-13.0151
2023-03-15 14:37:25:935,0.224582,2.3091,-10.4409,-9.77988,2.57836,-13.046
2023-03-15 14:37:25:945,0.455148,2.44661,-10.6985,-9.91657,2.65597,-13.1106
2023-03-15 14:37:25:955,0.879633,2.60126,-11.1372,-9.97113,2.71234,-13.1939
2023-03-15 14:37:25:965,1.38796,2.81138,-11.7984,-9.94387,2.70283,-13.3016
2023-03-15 14:37:25:975,0.749207,2.33306,-10.254,-9.81667,2.51404,-13.4116
2023-03-15 14:37:25:985,0.501438,0.843186,-8.64531,-9.51872,2.34832,-13.5142
2023-03-15 14:37:25:995,0.414568,0.829253,-8.31785,-9.30356,2.30078,-13.5309
2023-03-15 14:37:26:5,0.441598,1.11382,-8.82085,-9.2103,2.31971,-13.5318
2023-03-15 14:37:26:15,0.648973,1.61569,-9.62848,-9.22662,2.32074,-13.5469
2023-03-15 14:37:26:25,0.711928,1.90247,-10.045,-9.27466,2.26305,-13.5821
2023-03-15 14:37:26:35,0.484202,1.79427,-9.92337,-9.28308,2.17593,-13.6151
2023-03-15 14:37:26:45,0.219783,1.56949,-9.60753,-9.24441,2.08899,-13.6334
2023-03-15 14:37:26:55,0.157047,1.44239,-9.44174,-9.19404,1.99875,-13.6581
2023-03-15 14:37:26:65,0.256937,1.45055,-9.51123,-9.15881,1.93239,-13.6819
2023-03-15 14:37:26:75,0.359437,1.50485,-9.67968,-9.13284,1.87695,-13.7037
2023-03-15 14:37:26:85,0.395362,1.65368,-9.86315,-9.11581,1.81209,-13.7281
2023-03-15 14:37:26:95,0.385485,1.61412,-9.78494,-9.0917,1.73861,-13.7518
2023-03-15 14:37:26:105,0.30461,1.5606,-9.68336,-9.0584,1.6586,-13.7642
2023-03-15 14:37:26:115,0.140292,1.52157,-9.56434,-9.02851,1.58179,-13.7728
2023-03-15 14:37:26:125,0.0716232,1.60258,-9.66884,-9.00733,1.51709,-13.7735
2023-03-15 14:37:26:135,0.17248,1.59617,-9.67415,-8.98734,1.44607,-13.7909
2023-03-15 14:37:26:145,0.210548,1.53629,-9.63367,-8.96307,1.38345,-13.806
2023-03-15 14:37:26:155,0.385082,1.58804,-9.74191,-8.93898,1.31805,-13.8204
2023-03-15 14:37:26:165,0.693032,1.47772,-9.78092,-8.91078,1.22296,-13.8494
2023-03-15 14:37:26:175,0.595134,1.29586,-9.52132,-8.88035,1.0471,-13.8653
2023-03-15 14:37:26:185,0.531113,1.26273,-9.56083,-8.86654,0.849055,-13.8636
2023-03-15 14:37:26:195,0.45987,1.32106,-9.54212,-8.88075,0.604594,-13.853
2023-03-15 14:37:26:205,0.549713,1.30392,-9.54442,-8.90839,0.339188,-13.8406
2023-03-15 14:37:26:215,0.611478,1.23571,-9.50423,-8.94195,0.0400927,-13.8194
2023-03-15 14:37:26:225,0.352688,1.22922,-9.35388,-8.98525,-0.283244,-13.7726
2023-03-15 14:37:26:235,-0.0894663,1.25615,-9.17427,-9.04615,-0.595376,-13.699
2023-03-15 14:37:26:245,-0.561112,1.29746,-8.98965,-9.11528,-0.861722,-13.6065
2023-03-15 14:37:26:255,-0.831971,1.40504,-9.00595,-9.19615,-1.04183,-13.5095
2023-03-15 14:37:26:265,-0.708245,1.5299,-9.26771,-9.28554,-1.11757,-13.4243
2023-03-15 14:37:26:275,-0.522344,1.55743,-9.31565,-9.37776,-1.13555,-13.356
2023-03-15 14:37:26:285,-0.537908,1.47497,-9.22694,-9.4671,-1.10648,-13.2896
2023-03-15 14:37:26:295,-0.770241,1.59675,-9.29695,-9.57344,-1.04458,-13.2224
2023-03-15 14:37:26:305,-0.862656,1.90119,-9.5874,-9.71048,-0.956386,-13.1755
2023-03-15 14:37:26:315,-0.66575,1.99038,-9.73873,-9.85388,-0.856407,-13.1598
2023-03-15 14:37:26:325,-0.429771,1.83473,-9.70543,-9.98116,-0.763926,-13.1701
2023-03-15 14:37:26:335,-0.366408,1.76598,-9.60074,-10.1217,-0.683276,-13.1822
2023-03-15 14:37:26:345,-0.436504,1.69833,-9.51096,-10.282,-0.615307,-13.1947
2023-03-15 14:37:26:355,-0.453637,1.68156,-9.31674,-10.4769,-0.556923,-13.2086
2023-03-15 14:37:26:365,-0.433154,1.52661,-9.23218,-10.7112,-0.494884,-13.2305
2023-03-15 14:37:26:375,-0.530177,1.24765,-8.87099,-10.9918,-0.448076,-13.2476
2023-03-15 14:37:26:385,-0.684631,1.42636,-8.56976,-11.3708,-0.38076,-13.2544
2023-03-15 14:37:26:395,-0.572232,1.74392,-8.8758,-11.8366,-0.264644,-13.2826
2023-03-15 14:37:26:405,-0.45846,1.93602,-9.06777,-12.349,-0.147162,-13.3412
2023-03-15 14:37:26:415,-0.166945,2.10822,-9.20997,-12.8963,-0.00471975,-13.4152
2023-03-15 14:37:26:425,0.171379,2.68187,-9.86601,-13.4736,0.137295,-13.5031
2023-03-15 14:37:26:435,0.237324,3.05674,-10.1397,-14.035,0.231165,-13.6191
2023-03-15 14:37:26:445,0.182928,3.17035,-10.3106,-14.4956,0.289958,-13.7282
2023-03-15 14:37:26:455,0.043594,3.85453,-10.8194,-14.8959,0.327358,-13.8512
2023-03-15 14:37:26:465,0.216063,3.99917,-11.2724,-15.1338,0.327957,-14.004
2023-03-15 14:37:26:475,0.671773,3.92231,-11.1926,-15.2004,0.271113,-14.1812
2023-03-15 14:37:26:485,0.402797,3.57582,-10.6693,-15.1016,0.12824,-14.3476
2023-03-15 14:37:26:495,0.608262,3.55738,-10.7539,-14.8723,-0.00287667,-14.4873
2023-03-15 14:37:26:505,1.2041,3.51026,-10.7545,-14.5686,-0.218088,-14.6508
2023-03-15 14:37:26:515,1.0837,3.34365,-10.6662,-14.1646,-0.531382,-14.7875
2023-03-15 14:37:26:525,0.438521,3.13624,-10.5477,-13.6512,-0.865286,-14.8784
2023-03-15 14:37:26:535,-0.0949252,2.68348,-10.1404,-13.0458,-1.15167,-14.9438
2023-03-15 14:37:26:545,-0.36966,2.18327,-9.40389,-12.4022,-1.35192,-14.9827
2023-03-15 14:37:26:555,-0.423606,1.49853,-8.64548,-11.7576,-1.42808,-15.0013
2023-03-15 14:37:26:565,-0.251503,1.22481,-8.44058,-11.1915,-1.37493,-14.9859
2023-03-15 14:37:26:575,-0.0831603,1.2518,-8.36164,-10.7453,-1.27131,-14.9665
2023-03-15 14:37:26:585,-0.13441,1.03309,-8.65914,-10.3803,-1.17658,-14.9474
2023-03-15 14:37:26:595,-0.110791,0.953534,-8.82966,-10.1076,-1.12761,-14.929
2023-03-15 14:37:26:605,-0.22918,1.2022,-8.97973,-9.9531,-1.11191,-14.8955
2023-03-15 14:37:26:615,-0.546863,1.47285,-9.21093,-9.86486,-1.10461,-14.8567
2023-03-15 14:37:26:625,-0.555024,1.53897,-9.36788,-9.78653,-1.09754,-14.8336
2023-03-15 14:37:26:635,-0.411323,1.30871,-9.13961,-9.69374,-1.09413,-14.8312
2023-03-15 14:37:26:645,-0.341161,1.0505,-8.89339,-9.60628,-1.09379,-14.8248
2023-03-15 14:37:26:655,-0.561372,1.08328,-8.78958,-9.57618,-1.10104,-14.8081
2023-03-15 14:37:26:665,-0.787726,1.26596,-8.91409,-9.6177,-1.08238,-14.7894
2023-03-15 14:37:26:675,-0.874876,1.40316,-9.1544,-9.70587,-1.02894,-14.7866
2023-03-15 14:37:26:685,-0.785568,1.75759,-9.57303,-9.8365,-0.939368,-14.8007
2023-03-15 14:37:26:695,-0.37894,1.89339,-9.74253,-9.96475,-0.836946,-14.8504
2023-03-15 14:37:26:705,-0.165878,1.40586,-9.32136,-10.0493,-0.756114,-14.9205
2023-03-15 14:37:26:715,-0.358353,1.18863,-9.05881,-10.1254,-0.68358,-14.9706
2023-03-15 14:37:26:725,-0.427044,1.42501,-9.29779,-10.2602,-0.623815,-15.0173
2023-03-15 14:37:26:735,-0.460803,1.71489,-9.59738,-10.4318,-0.574267,-15.0762
2023-03-15 14:37:26:745,-0.309839,1.88511,-9.75896,-10.6293,-0.554354,-15.1663
2023-03-15 14:37:26:755,-0.0732345,2.04616,-9.91845,-10.8124,-0.554005,-15.27
2023-03-15 14:37:26:765,0.175683,2.09064,-9.74923,-10.9971,-0.568209,-15.3828
2023-03-15 14:37:26:775,0.266383,2.05614,-10.0992,-11.1308,-0.546519,-15.4827
2023-03-15 14:37:26:785,0.161118,2.5943,-10.21,-11.3105,-0.521901,-15.5649
2023-03-15 14:37:26:795,0.308468,2.41872,-9.91895,-11.4306,-0.537343,-15.676
2023-03-15 14:37:26:805,0.566163,2.07788,-10.0103,-11.4814,-0.556386,-15.7763
2023-03-15 14:37:26:815,0.619873,2.50628,-10.3279,-11.5441,-0.578331,-15.8434
2023-03-15 14:37:26:825,0.754512,2.80113,-10.8439,-11.5701,-0.638215,-15.9088
2023-03-15 14:37:26:835,0.591604,2.71782,-10.5368,-11.5058,-0.773427,-15.9776
2023-03-15 14:37:26:845,0.2877,2.31647,-10.1184,-11.3189,-0.917949,-16.023
2023-03-15 14:37:26:855,0.298188,2.11895,-9.91979,-11.0757,-1.03227,-16.0404
2023-03-15 14:37:26:865,0.389883,1.94448,-9.79302,-10.8154,-1.14136,-16.0385
2023-03-15 14:37:26:875,0.325408,1.73531,-9.57243,-10.5484,-1.26535,-16.0152
2023-03-15 14:37:26:885,-0.0707404,1.60454,-9.23028,-10.2779,-1.38134,-15.96
2023-03-15 14:37:26:895,-0.416915,1.51527,-9.13387,-10.0224,-1.47639,-15.8856
2023-03-15 14:37:26:905,-0.637522,1.1663,-8.69548,-9.7898,-1.59284,-15.8311
2023-03-15 14:37:26:915,-0.895726,0.924579,-8.59914,-9.5981,-1.66926,-15.7711
2023-03-15 14:37:26:925,-1.06194,1.22622,-8.82144,-9.50083,-1.68217,-15.7015
2023-03-15 14:37:26:935,-0.694548,1.47675,-9.29844,-9.46891,-1.61614,-15.6625
2023-03-15 14:37:26:945,-0.235446,1.35087,-9.3788,-9.44532,-1.51515,-15.6469
2023-03-15 14:37:26:955,-0.283717,1.24119,-9.19012,-9.43575,-1.40185,-15.6074
2023-03-15 14:37:26:965,-0.654009,1.14438,-8.98824,-9.45464,-1.26374,-15.5519
2023-03-15 14:37:26:975,-0.8983,1.26046,-9.02686,-9.51757,-1.08494,-15.4895
2023-03-15 14:37:26:985,-0.975737,1.416,-9.15586,-9.64519,-0.882257,-15.4484
2023-03-15 14:37:26:995,-1.02175,1.59863,-9.29702,-9.80588,-0.648587,-15.4349
2023-03-15 14:37:27:5,-0.885365,1.66017,-9.42292,-9.98321,-0.378518,-15.4486
2023-03-15 14:37:27:15,-0.422427,1.71803,-9.51519,-10.1584,-0.0626576,-15.486
2023-03-15 14:37:27:25,0.167542,1.38189,-9.24642,-10.3559,0.242652,-15.5419
2023-03-15 14:37:27:35,0.210716,1.20975,-8.86856,-10.5796,0.524683,-15.5809
2023-03-15 14:37:27:45,-0.0839404,1.45307,-8.96523,-10.9128,0.785393,-15.5975
2023-03-15 14:37:27:55,-0.468854,1.85296,-9.29384,-11.3018,1.00491,-15.6283
2023-03-15 14:37:27:65,-0.143757,2.28533,-9.57046,-11.7628,1.19615,-15.7166
2023-03-15 14:37:27:75,0.4118,2.67792,-10.5233,-12.1873,1.35328,-15.8543
2023-03-15 14:37:27:85,0.32761,3.36803,-10.9322,-12.5914,1.41302,-16.0162
2023-03-15 14:37:27:95,0.302105,3.80452,-11.8239,-12.8247,1.43242,-16.2007
2023-03-15 14:37:27:105,0.702775,3.82743,-11.8494,-12.8766,1.33195,-16.4408
2023-03-15 14:37:27:115,1.18441,3.05265,-11.0098,-12.6957,1.11204,-16.7051
2023-03-15 14:37:27:125,0.981756,2.56849,-10.2241,-12.3723,0.821155,-16.9231
2023-03-15 14:37:27:135,0.469344,2.54728,-10.1138,-11.9683,0.511821,-17.0988
2023-03-15 14:37:27:145,0.46626,2.24676,-10.0875,-11.5143,0.193917,-17.2702
2023-03-15 14:37:27:155,0.724537,1.87129,-9.56911,-11.0406,-0.142208,-17.4364
2023-03-15 14:37:27:165,0.755914,1.11866,-9.00155,-10.557,-0.461912,-17.5639
2023-03-15 14:37:27:175,0.235189,1.10741,-8.61221,-10.1595,-0.756527,-17.6123
2023-03-15 14:37:27:185,-0.425836,1.30497,-8.49992,-9.86131,-1.00559,-17.6343
2023-03-15 14:37:27:195,-0.397107,1.01948,-8.88378,-9.59238,-1.21429,-17.6802
2023-03-15 14:37:27:205,-0.0515054,0.755883,-8.65541,-9.39489,-1.44803,-17.7424
2023-03-15 14:37:27:215,-0.130836,0.763379,-8.4898,-9.29134,-1.66055,-17.7653
2023-03-15 14:37:27:225,-0.276168,0.936215,-8.82497,-9.26738,-1.80707,-17.7619
2023-03-15 14:37:27:235,-0.324311,1.27958,-9.15389,-9.32317,-1.87882,-17.7401
2023-03-15 14:37:27:245,-0.275604,1.24665,-9.16389,-9.39901,-1.89616,-17.7197
2023-03-15 14:37:27:255,-0.226273,1.28469,-9.19308,-9.50291,-1.84951,-17.6735
2023-03-15 14:37:27:265,-0.463882,1.17492,-9.00616,-9.6377,-1.77009,-17.6253
2023-03-15 14:37:27:275,-0.853526,1.40421,-8.94108,-9.82315,-1.64743,-17.5612
2023-03-15 14:37:27:285,-0.794092,1.64855,-9.22672,-10.0479,-1.47967,-17.5288
2023-03-15 14:37:27:295,-0.514677,1.61687,-9.3056,-10.2794,-1.3021,-17.5366
2023-03-15 14:37:27:305,-0.478602,1.48724,-9.23505,-10.5258,-1.1133,-17.5469
2023-03-15 14:37:27:315,-0.489803,1.36016,-8.87332,-10.8176,-0.897714,-17.554
2023-03-15 14:37:27:325,-0.501558,1.11519,-8.60124,-11.1897,-0.637236,-17.5576
2023-03-15 14:37:27:335,-0.410784,1.45121,-8.73664,-11.6979,-0.334926,-17.5534
2023-03-15 14:37:27:345,-0.213292,2.15403,-9.02002,-12.3472,-0.0102658,-17.5653
2023-03-15 14:37:27:355,0.122255,3.09137,-10.4588,-13.0254,0.384197,-17.6016
2023-03-15 14:37:27:365,0.257526,3.86186,-10.9556,-13.6695,0.769584,-17.6675
2023-03-15 14:37:27:375,0.583466,4.28808,-11.8798,-14.1515,1.17066,-17.7616
2023-03-15 14:37:27:385,0.961396,5.15591,-12.555,-14.4373,1.51708,-17.8835
2023-03-15 14:37:27:395,1.87177,5.46589,-12.3955,-14.4364,1.74665,-18.0511
2023-03-15 14:37:27:405,2.11511,3.93563,-12.198,-13.9724,1.80849,-18.2166
2023-03-15 14:37:27:415,1.64281,3.28399,-11.0151,-13.2657,1.74292,-18.2954
2023-03-15 14:37:27:425,1.43857,2.35878,-9.98543,-12.4547,1.60697,-18.3565
2023-03-15 14:37:27:435,0.971151,1.25482,-8.90548,-11.6048,1.45265,-18.3597
2023-03-15 14:37:27:445,0.546048,1.00736,-8.09199,-10.9124,1.35547,-18.2843
2023-03-15 14:37:27:455,0.427244,0.880094,-8.20268,-10.389,1.31949,-18.186
2023-03-15 14:37:27:465,0.373117,1.2354,-8.63506,-10.0585,1.30245,-18.0676
2023-03-15 14:37:27:475,0.457515,1.50653,-9.16814,-9.8595,1.27707,-17.9579
2023-03-15 14:37:27:485,0.478164,1.7526,-9.66333,-9.72083,1.23417,-17.8506
2023-03-15 14:37:27:495,0.377648,1.87089,-9.88994,-9.5963,1.16985,-17.7432
2023-03-15 14:37:27:505,0.237914,1.76168,-9.81198,-9.45246,1.07892,-17.6383
2023-03-15 14:37:27:515,0.0622529,1.67564,-9.73294,-9.28409,0.987113,-17.528
2023-03-15 14:37:27:525,0.0185055,1.73946,-9.85372,-9.11289,0.910755,-17.4127
2023-03-15 14:37:27:535,0.114948,1.76083,-9.97657,-8.93445,0.841834,-17.3036
2023-03-15 14:37:27:545,0.132295,1.73977,-9.97575,-8.74279,0.769482,-17.2013
2023-03-15 14:37:27:555,0.0217879,1.73551,-9.95956,-8.54319,0.693669,-17.0963
2023-03-15 14:37:27:565,-0.0735753,1.69115,-9.89545,-8.32774,0.617903,-16.9923
2023-03-15 14:37:27:575,-0.0818687,1.60436,-9.82781,-8.09838,0.543947,-16.902
2023-03-15 14:37:27:585,-0.0370541,1.55688,-9.84387,-7.86637,0.477189,-16.8173
2023-03-15 14:37:27:595,0.0265376,1.60321,-9.98346,-7.63977,0.415049,-16.7339
2023-03-15 14:37:27:605,0.0896533,1.72478,-10.1786,-7.4147,0.353641,-16.6578
2023-03-15 14:37:27:615,0.125954,1.87199,-10.3238,-7.18064,0.284605,-16.5902
2023-03-15 14:37:27:625,0.131422,1.93392,-10.3808,-6.92072,0.206744,-16.5391
2023-03-15 14:37:27:635,0.15953,1.85314,-10.3894,-6.62749,0.128889,-16.5033
2023-03-15 14:37:27:645,0.289861,1.75514,-10.3905,-6.29807,0.0451924,-16.4743
2023-03-15 14:37:27:655,0.494376,1.70122,-10.4589,-5.94723,-0.0461259,-16.45
2023-03-15 14:37:27:665,0.596819,1.68307,-10.5322,-5.56849,-0.161119,-16.4223
2023-03-15 14:37:27:675,0.600047,1.63564,-10.5597,-5.16534,-0.31111,-16.393
2023-03-15 14:37:27:685,0.503888,1.59158,-10.5492,-4.73282,-0.487065,-16.3549
2023-03-15 14:37:27:695,0.332035,1.54807,-10.4636,-4.26831,-0.697688,-16.3117
2023-03-15 14:37:27:705,0.120466,1.39932,-10.3226,-3.7618,-0.928566,-16.2704
2023-03-15 14:37:27:715,-0.0850366,1.15702,-10.1468,-3.21747,-1.18589,-16.2293
2023-03-15 14:37:27:725,-0.229794,0.893491,-9.97527,-2.63415,-1.45687,-16.1904
2023-03-15 14:37:27:735,-0.329461,0.640416,-9.83183,-2.02448,-1.73379,-16.1521
2023-03-15 14:37:27:745,-0.492978,0.410392,-9.71073,-1.40122,-2.01746,-16.1098
2023-03-15 14:37:27:755,-0.697421,0.195365,-9.57604,-0.766183,-2.30816,-16.0692
2023-03-15 14:37:27:765,-0.858824,-0.005744,-9.42743,-0.128881,-2.60033,-16.0324
2023-03-15 14:37:27:775,-0.992064,-0.190523,-9.26338,0.507326,-2.88999,-16.0025
2023-03-15 14:37:27:785,-1.106,-0.382815,-9.14842,1.13576,-3.17378,-15.976
2023-03-15 14:37:27:795,-1.23742,-0.5617,-9.10274,1.74626,-3.44743,-15.9594
2023-03-15 14:37:27:805,-1.3629,-0.680606,-9.09734,2.33506,-3.71434,-15.9479
2023-03-15 14:37:27:815,-1.41396,-0.76905,-9.12769,2.9059,-3.96908,-15.9524
2023-03-15 14:37:27:825,-1.44602,-0.888771,-9.1709,3.45657,-4.20763,-15.968
2023-03-15 14:37:27:835,-1.46863,-1.00691,-9.20683,3.99572,-4.43244,-16.0013
2023-03-15 14:37:27:845,-1.46941,-1.13128,-9.18931,4.5291,-4.63599,-16.0455
2023-03-15 14:37:27:855,-1.43416,-1.26859,-9.11604,5.0556,-4.81164,-16.1016
2023-03-15 14:37:27:865,-1.32872,-1.41727,-9.04498,5.57207,-4.96471,-16.1696
2023-03-15 14:37:27:875,-1.15502,-1.52811,-8.999,6.07142,-5.09314,-16.239
2023-03-15 14:37:27:885,-1.01893,-1.62791,-9.01574,6.54921,-5.20284,-16.3058
2023-03-15 14:37:27:895,-1.00042,-1.69585,-9.07257,7.00902,-5.30646,-16.3655
2023-03-15 14:37:27:905,-1.05082,-1.70395,-9.15291,7.44508,-5.40366,-16.417
2023-03-15 14:37:27:915,-1.16531,-1.70544,-9.21452,7.8646,-5.49911,-16.4702
2023-03-15 14:37:27:925,-1.26673,-1.68007,-9.2045,8.26513,-5.58862,-16.5279
2023-03-15 14:37:27:935,-1.31607,-1.65825,-9.15849,8.6526,-5.66968,-16.5894
2023-03-15 14:37:27:945,-1.31626,-1.70063,-9.15454,9.0248,-5.73702,-16.6603
2023-03-15 14:37:27:955,-1.27093,-1.74453,-9.16315,9.38198,-5.7867,-16.7342
2023-03-15 14:37:27:965,-1.14247,-1.8157,-9.19927,9.72222,-5.82546,-16.8101
2023-03-15 14:37:27:975,-1.02992,-1.88397,-9.23094,10.0515,-5.85517,-16.8894
2023-03-15 14:37:27:985,-0.955782,-1.93202,-9.22847,10.3685,-5.88831,-16.9687
2023-03-15 14:37:27:995,-0.975237,-2.00245,-9.24382,10.6758,-5.92821,-17.0434
2023-03-15 14:37:28:5,-1.04015,-2.06566,-9.23365,10.9732,-5.97925,-17.1194
2023-03-15 14:37:28:15,-1.12699,-2.10968,-9.15827,11.2531,-6.03563,-17.1932
2023-03-15 14:37:28:25,-1.1881,-2.16412,-9.07166,11.518,-6.09847,-17.2732
2023-03-15 14:37:28:35,-1.22657,-2.20728,-9.00101,11.763,-6.1627,-17.3554
2023-03-15 14:37:28:45,-1.22329,-2.2556,-8.95722,11.9896,-6.22509,-17.4485
2023-03-15 14:37:28:55,-1.20465,-2.30861,-8.92899,12.1961,-6.28769,-17.5466
2023-03-15 14:37:28:65,-1.16112,-2.40068,-8.91607,12.3868,-6.34895,-17.6459
2023-03-15 14:37:28:75,-1.16106,-2.50024,-8.8836,12.5627,-6.41654,-17.7459
2023-03-15 14:37:28:85,-1.22895,-2.57874,-8.79826,12.7266,-6.48806,-17.8488
2023-03-15 14:37:28:95,-1.34341,-2.65047,-8.66426,12.869,-6.56781,-17.9498
2023-03-15 14:37:28:105,-1.47179,-2.71679,-8.53591,12.9938,-6.65196,-18.0525
2023-03-15 14:37:28:115,-1.5613,-2.75949,-8.4855,13.0866,-6.73794,-18.1689
2023-03-15 14:37:28:125,-1.58958,-2.67609,-8.56329,13.1308,-6.81577,-18.2949
2023-03-15 14:37:28:135,-1.54488,-2.50077,-8.7121,13.1275,-6.88179,-18.4419
2023-03-15 14:37:28:145,-1.49302,-2.36579,-8.88414,13.086,-6.94792,-18.6095
2023-03-15 14:37:28:155,-1.52079,-2.2674,-9.02376,13.0173,-7.00614,-18.7981
2023-03-15 14:37:28:165,-1.51296,-2.1469,-9.13676,12.9234,-7.0569,-18.9999
2023-03-15 14:37:28:175,-1.35262,-2.05165,-9.28945,12.8144,-7.09773,-19.2254
2023-03-15 14:37:28:185,-1.09846,-1.93891,-9.48792,12.687,-7.12972,-19.4632
2023-03-15 14:37:28:195,-0.890406,-1.83993,-9.68939,12.5571,-7.14959,-19.7047
2023-03-15 14:37:28:205,-0.803536,-1.77638,-9.85358,12.4378,-7.16828,-19.9409
2023-03-15 14:37:28:215,-0.793722,-1.73059,-9.93515,12.3317,-7.18933,-20.1649
2023-03-15 14:37:28:225,-0.817041,-1.73324,-9.90429,12.2535,-7.20742,-20.3764
2023-03-15 14:37:28:235,-0.831128,-1.76633,-9.78542,12.2027,-7.21829,-20.5713
2023-03-15 14:37:28:245,-0.77744,-1.82075,-9.68353,12.1712,-7.21291,-20.7448
2023-03-15 14:37:28:255,-0.69941,-1.8798,-9.62164,12.1565,-7.19196,-20.9009
2023-03-15 14:37:28:265,-0.608819,-1.89706,-9.59912,12.1445,-7.16306,-21.0298
2023-03-15 14:37:28:275,-0.5386,-1.89766,-9.59782,12.1344,-7.13092,-21.1322
2023-03-15 14:37:28:285,-0.521872,-1.90857,-9.64064,12.1175,-7.09551,-21.2126
2023-03-15 14:37:28:295,-0.539222,-1.92686,-9.6419,12.1049,-7.06481,-21.2674
2023-03-15 14:37:28:305,-0.598083,-1.95898,-9.62343,12.0926,-7.03867,-21.2933
2023-03-15 14:37:28:315,-0.653996,-1.96822,-9.61266,12.0752,-7.01769,-21.2961
2023-03-15 14:37:28:325,-0.699697,-1.97552,-9.62148,12.0603,-6.99978,-21.2815
2023-03-15 14:37:28:335,-0.75764,-1.96947,-9.66505,12.0416,-6.98429,-21.2508
2023-03-15 14:37:28:345,-0.832518,-1.95581,-9.70832,12.0216,-6.9775,-21.2007
2023-03-15 14:37:28:355,-0.946614,-1.97671,-9.67847,12.0102,-6.97901,-21.1386
2023-03-15 14:37:28:365,-1.09194,-2.01054,-9.59732,12.0086,-6.99517,-21.0718
2023-03-15 14:37:28:375,-1.2507,-2.05833,-9.51655,12.0081,-7.02355,-21.0008
2023-03-15 14:37:28:385,-1.37185,-2.0605,-9.47949,12.0093,-7.0559,-20.9293
2023-03-15 14:37:28:395,-1.40797,-2.04326,-9.47684,12.0043,-7.08481,-20.8606
2023-03-15 14:37:28:405,-1.36526,-2.03139,-9.47792,11.9979,-7.11161,-20.8005
2023-03-15 14:37:28:415,-1.34349,-2.01479,-9.49933,11.9886,-7.1332,-20.743
2023-03-15 14:37:28:425,-1.36403,-2.00845,-9.48737,11.9755,-7.14941,-20.6833
2023-03-15 14:37:28:435,-1.37972,-2.00691,-9.44259,11.9656,-7.16613,-20.6276
2023-03-15 14:37:28:445,-1.37347,-2.02554,-9.38494,11.9595,-7.18155,-20.5722
2023-03-15 14:37:28:455,-1.39027,-2.02086,-9.36937,11.9476,-7.19076,-20.5156
2023-03-15 14:37:28:465,-1.40892,-1.97328,-9.40472,11.9304,-7.19703,-20.4655
2023-03-15 14:37:28:475,-1.3967,-1.95078,-9.44042,11.9048,-7.20501,-20.4229
2023-03-15 14:37:28:485,-1.38397,-1.94421,-9.43166,11.8885,-7.20753,-20.3859
2023-03-15 14:37:28:495,-1.33979,-1.96493,-9.40166,11.8778,-7.20042,-20.3477
2023-03-15 14:37:28:505,-1.25988,-2.01163,-9.39079,11.8678,-7.18755,-20.3187
2023-03-15 14:37:28:515,-1.20342,-2.04396,-9.39674,11.8613,-7.17173,-20.2886
2023-03-15 14:37:28:525,-1.19268,-2.03883,-9.38771,11.854,-7.15955,-20.2597
2023-03-15 14:37:28:535,-1.19093,-2.0403,-9.4011,11.8427,-7.15388,-20.2257
2023-03-15 14:37:28:545,-1.20229,-2.04163,-9.42824,11.8289,-7.15506,-20.1977
2023-03-15 14:37:28:555,-1.2403,-2.02985,-9.46751,11.8137,-7.1609,-20.1687
2023-03-15 14:37:28:565,-1.28618,-2.00934,-9.47663,11.7971,-7.17392,-20.1428
2023-03-15 14:37:28:575,-1.3205,-2.00489,-9.45933,11.7785,-7.19323,-20.12
2023-03-15 14:37:28:585,-1.34895,-2.02135,-9.46058,11.7563,-7.21089,-20.0985
2023-03-15 14:37:28:595,-1.3732,-2.02174,-9.48897,11.7271,-7.22904,-20.0809
2023-03-15 14:37:28:605,-1.37855,-1.99678,-9.52734,11.6865,-7.24514,-20.065
2023-03-15 14:37:28:615,-1.38807,-1.95916,-9.55551,11.6419,-7.25498,-20.0564
2023-03-15 14:37:28:625,-1.38598,-1.93917,-9.59239,11.6,-7.25767,-20.0527
2023-03-15 14:37:28:635,-1.36174,-1.91583,-9.62384,11.5613,-7.25755,-20.0458
2023-03-15 14:37:28:645,-1.28793,-1.91898,-9.66185,11.5272,-7.24276,-20.0415
2023-03-15 14:37:28:655,-1.20739,-1.92657,-9.6422,11.5031,-7.21612,-20.0351
2023-03-15 14:37:28:665,-1.16861,-1.95175,-9.57342,11.4894,-7.1851,-20.0254
2023-03-15 14:37:28:675,-1.15544,-1.9782,-9.50022,11.4817,-7.15403,-20.0132
2023-03-15 14:37:28:685,-1.15117,-1.94865,-9.49539,11.4749,-7.11874,-19.9936
2023-03-15 14:37:28:695,-1.12488,-1.88106,-9.51686,11.4638,-7.08236,-19.9756
2023-03-15 14:37:28:705,-1.12097,-1.85511,-9.52043,11.4534,-7.04865,-19.9585
2023-03-15 14:37:28:715,-1.15326,-1.83618,-9.4758,11.4483,-7.01771,-19.941
2023-03-15 14:37:28:725,-1.15812,-1.86106,-9.45809,11.4466,-6.98901,-19.9219
2023-03-15 14:37:28:735,-1.11527,-1.91205,-9.47144,11.4554,-6.95294,-19.9081
2023-03-15 14:37:28:745,-1.06699,-1.93928,-9.5019,11.4687,-6.917,-19.89
2023-03-15 14:37:28:755,-1.03741,-1.9868,-9.50043,11.4848,-6.87757,-19.8681
2023-03-15 14:37:28:765,-0.991053,-2.05441,-9.44393,11.51,-6.84189,-19.8399
2023-03-15 14:37:28:775,-0.959588,-2.09648,-9.41215,11.5326,-6.81001,-19.8043
2023-03-15 14:37:28:785,-0.972546,-2.12474,-9.43736,11.5463,-6.78252,-19.7596
2023-03-15 14:37:28:795,-1.00717,-2.10474,-9.49237,11.5511,-6.75992,-19.7069
2023-03-15 14:37:28:805,-1.04775,-2.06231,-9.56106,11.5511,-6.73846,-19.6472
2023-03-15 14:37:28:815,-1.08464,-2.04151,-9.60492,11.5477,-6.72146,-19.583
2023-03-15 14:37:28:825,-1.13841,-2.04359,-9.60167,11.5494,-6.70853,-19.5173
2023-03-15 14:37:28:835,-1.18054,-2.02914,-9.57729,11.5567,-6.69453,-19.449
2023-03-15 14:37:28:845,-1.18129,-2.05658,-9.54981,11.5644,-6.67947,-19.3822
2023-03-15 14:37:28:855,-1.18564,-2.07689,-9.50137,11.5786,-6.67265,-19.3117
2023-03-15 14:37:28:865,-1.27782,-2.11719,-9.46158,11.5973,-6.66812,-19.2401
2023-03-15 14:37:28:875,-1.35769,-2.15479,-9.38438,11.6189,-6.66552,-19.163
2023-03-15 14:37:28:885,-1.41937,-2.1825,-9.25261,11.637,-6.67079,-19.0924
2023-03-15 14:37:28:895,-1.55423,-2.19508,-9.11968,11.6477,-6.67838,-19.0248
2023-03-15 14:37:28:905,-1.66661,-2.1757,-9.08468,11.6456,-6.67937,-18.964
2023-03-15 14:37:28:915,-1.64084,-2.10592,-9.12393,11.6127,-6.67305,-18.918
2023-03-15 14:37:28:925,-1.50719,-2.00017,-9.25464,11.5606,-6.64855,-18.8863
2023-03-15 14:37:28:935,-1.33021,-1.88387,-9.41337,11.4904,-6.60568,-18.8691
2023-03-15 14:37:28:945,-1.15616,-1.80874,-9.54647,11.4149,-6.5493,-18.8643
2023-03-15 14:37:28:955,-1.03042,-1.76553,-9.63629,11.3424,-6.48958,-18.8637
2023-03-15 14:37:28:965,-0.969735,-1.76208,-9.6707,11.2786,-6.4298,-18.8612
2023-03-15 14:37:28:975,-0.933253,-1.74339,-9.69227,11.2244,-6.37421,-18.8599
2023-03-15 14:37:28:985,-0.894846,-1.75202,-9.6596,11.1771,-6.3203,-18.8583
2023-03-15 14:37:28:995,-0.845409,-1.78719,-9.61701,11.1437,-6.26675,-18.8527
2023-03-15 14:37:29:5,-0.83218,-1.80541,-9.54946,11.1206,-6.21612,-18.8419
2023-03-15 14:37:29:15,-0.831858,-1.82138,-9.5308,11.092,-6.16661,-18.8231
2023-03-15 14:37:29:25,-0.872337,-1.82603,-9.53839,11.0649,-6.12302,-18.7951
2023-03-15 14:37:29:35,-0.910925,-1.80766,-9.59642,11.0351,-6.08667,-18.7649
2023-03-15 14:37:29:45,-0.90054,-1.77067,-9.69621,11.0017,-6.05756,-18.738
2023-03-15 14:37:29:55,-0.91905,-1.74207,-9.7606,10.9754,-6.03041,-18.7138
2023-03-15 14:37:29:65,-0.980498,-1.76831,-9.71836,10.9666,-6.01936,-18.6919
2023-03-15 14:37:29:75,-1.06546,-1.82406,-9.60439,10.9712,-6.01574,-18.6705
2023-03-15 14:37:29:85,-1.13087,-1.86344,-9.4778,10.9875,-6.01165,-18.6491
2023-03-15 14:37:29:95,-1.14117,-1.919,-9.41566,11.0014,-6.00164,-18.6269
2023-03-15 14:37:29:105,-1.09778,-1.95611,-9.37558,11.0107,-5.98876,-18.6072
2023-03-15 14:37:29:115,-1.02982,-1.94802,-9.39103,11.0078,-5.96664,-18.5911
2023-03-15 14:37:29:125,-0.939884,-1.9183,-9.46125,10.989,-5.94193,-18.5757
2023-03-15 14:37:29:135,-0.864843,-1.89676,-9.54184,10.9621,-5.91228,-18.558
2023-03-15 14:37:29:145,-0.817536,-1.8299,-9.6683,10.924,-5.88084,-18.5346
2023-03-15 14:37:29:155,-0.786122,-1.77285,-9.76743,10.8871,-5.84824,-18.5107
2023-03-15 14:37:29:165,-0.822778,-1.75083,-9.77868,10.8585,-5.82198,-18.4869
2023-03-15 14:37:29:175,-0.908444,-1.76678,-9.72853,10.8389,-5.79642,-18.4572
2023-03-15 14:37:29:185,-0.927451,-1.77993,-9.66602,10.8314,-5.76645,-18.4199
2023-03-15 14:37:29:195,-0.841765,-1.8038,-9.61623,10.8289,-5.73269,-18.3847
2023-03-15 14:37:29:205,-0.75192,-1.80052,-9.60088,10.8264,-5.69646,-18.3428
2023-03-15 14:37:29:215,-0.715834,-1.81068,-9.5802,10.8231,-5.65994,-18.2929
2023-03-15 14:37:29:225,-0.77659,-1.81169,-9.54166,10.8137,-5.63628,-18.2384
2023-03-15 14:37:29:235,-0.888253,-1.78078,-9.49829,10.8025,-5.62269,-18.1804
2023-03-15 14:37:29:245,-0.92828,-1.74204,-9.47307,10.7902,-5.61409,-18.1258
2023-03-15 14:37:29:255,-0.938291,-1.73643,-9.46204,10.7776,-5.60588,-18.0787
2023-03-15 14:37:29:265,-0.931649,-1.71631,-9.49418,10.7602,-5.59908,-18.0314
2023-03-15 14:37:29:275,-0.945427,-1.68474,-9.53648,10.7412,-5.59616,-17.9902
2023-03-15 14:37:29:285,-0.93557,-1.66785,-9.6033,10.7173,-5.59719,-17.9507
2023-03-15 14:37:29:295,-0.926005,-1.66554,-9.65688,10.699,-5.60166,-17.9161
2023-03-15 14:37:29:305,-0.939804,-1.68287,-9.67808,10.6878,-5.60663,-17.886
2023-03-15 14:37:29:315,-1.00285,-1.71555,-9.64009,10.6822,-5.61351,-17.8583
2023-03-15 14:37:29:325,-1.05451,-1.74737,-9.61545,10.6881,-5.62474,-17.8263
2023-03-15 14:37:29:335,-1.02862,-1.76422,-9.608,10.6944,-5.633,-17.7984
2023-03-15 14:37:29:345,-1.03989,-1.76641,-9.60049,10.7008,-5.64415,-17.7725
2023-03-15 14:37:29:355,-1.08172,-1.78571,-9.57481,10.716,-5.65184,-17.748
2023-03-15 14:37:29:365,-1.09023,-1.86489,-9.5184,10.7384,-5.65491,-17.7223
2023-03-15 14:37:29:375,-1.07899,-1.93974,-9.45443,10.7652,-5.65837,-17.6956
2023-03-15 14:37:29:385,-1.10471,-1.95021,-9.41711,10.7875,-5.66507,-17.6693
2023-03-15 14:37:29:395,-1.12806,-1.96959,-9.40281,10.8031,-5.66588,-17.6462
2023-03-15 14:37:29:405,-1.12732,-1.96265,-9.40699,10.8091,-5.66243,-17.6264
2023-03-15 14:37:29:415,-1.09192,-1.92045,-9.45675,10.8049,-5.65585,-17.6142
2023-03-15 14:37:29:425,-1.05134,-1.8879,-9.51042,10.7897,-5.64679,-17.6032
2023-03-15 14:37:29:435,-1.03445,-1.86177,-9.55349,10.7736,-5.63609,-17.5989
2023-03-15 14:37:29:445,-1.03741,-1.84683,-9.55012,10.7527,-5.625,-17.5999
2023-03-15 14:37:29:455,-1.03095,-1.82218,-9.5254,10.7308,-5.61284,-17.6021
2023-03-15 14:37:29:465,-1.02188,-1.78806,-9.48858,10.7071,-5.59584,-17.609
2023-03-15 14:37:29:475,-0.973661,-1.7541,-9.4641,10.6764,-5.57596,-17.6184
2023-03-15 14:37:29:485,-0.910444,-1.71502,-9.45205,10.6482,-5.55162,-17.6346
2023-03-15 14:37:29:495,-0.834257,-1.68495,-9.44618,10.6127,-5.52769,-17.6501
2023-03-15 14:37:29:505,-0.795051,-1.63457,-9.4961,10.5734,-5.50508,-17.6723
2023-03-15 14:37:29:515,-0.759159,-1.58653,-9.57325,10.5301,-5.47896,-17.6927
2023-03-15 14:37:29:525,-0.697851,-1.57955,-9.59692,10.4913,-5.45447,-17.7153
2023-03-15 14:37:29:535,-0.681192,-1.59834,-9.6327,10.4582,-5.43664,-17.7343
2023-03-15 14:37:29:545,-0.709283,-1.62784,-9.66107,10.4272,-5.42499,-17.7468
2023-03-15 14:37:29:555,-0.762051,-1.65636,-9.70818,10.4037,-5.42349,-17.7545
2023-03-15 14:37:29:565,-0.842202,-1.65881,-9.7505,10.3819,-5.43185,-17.7618
2023-03-15 14:37:29:575,-0.952267,-1.62373,-9.74783,10.3613,-5.44439,-17.7733
2023-03-15 14:37:29:585,-1.01223,-1.63243,-9.75,10.3474,-5.46787,-17.7915
2023-03-15 14:37:29:595,-1.04715,-1.65821,-9.74367,10.3393,-5.48876,-17.8148
2023-03-15 14:37:29:605,-1.08991,-1.63916,-9.73512,10.3353,-5.51652,-17.8442
2023-03-15 14:37:29:615,-1.12148,-1.64906,-9.72825,10.3375,-5.54263,-17.8827
2023-03-15 14:37:29:625,-1.10458,-1.683,-9.72217,10.353,-5.5697,-17.9306
2023-03-15 14:37:29:635,-1.07477,-1.73335,-9.69292,10.3734,-5.59338,-17.9809
2023-03-15 14:37:29:645,-1.07722,-1.76675,-9.62708,10.4028,-5.61914,-18.0332
2023-03-15 14:37:29:655,-1.0361,-1.82961,-9.54694,10.4351,-5.64059,-18.0898
2023-03-15 14:37:29:665,-0.973891,-1.88468,-9.48831,10.4711,-5.65321,-18.1441
2023-03-15 14:37:29:675,-0.929352,-1.90371,-9.46384,10.5021,-5.66153,-18.1928
2023-03-15 14:37:29:685,-0.882488,-1.90911,-9.43833,10.5241,-5.6651,-18.2351
2023-03-15 14:37:29:695,-0.828869,-1.90621,-9.43955,10.5408,-5.66101,-18.2708
2023-03-15 14:37:29:705,-0.775535,-1.87262,-9.45351,10.5482,-5.65127,-18.3029
2023-03-15 14:37:29:715,-0.758466,-1.82621,-9.46536,10.5519,-5.63721,-18.3244
2023-03-15 14:37:29:725,-0.780891,-1.79892,-9.44002,10.5495,-5.61906,-18.3382
2023-03-15 14:37:29:735,-0.763148,-1.7849,-9.40044,10.546,-5.60099,-18.3438
2023-03-15 14:37:29:745,-0.692425,-1.76475,-9.40144,10.5353,-5.57502,-18.3417
2023-03-15 14:37:29:755,-0.63613,-1.72029,-9.45094,10.5196,-5.54678,-18.3317
2023-03-15 14:37:29:765,-0.571196,-1.66572,-9.48849,10.5024,-5.51876,-18.3174
2023-03-15 14:37:29:775,-0.506126,-1.66602,-9.53113,10.4808,-5.49377,-18.2932
2023-03-15 14:37:29:785,-0.475954,-1.67458,-9.58163,10.4603,-5.47522,-18.2607
2023-03-15 14:37:29:795,-0.502667,-1.68817,-9.61667,10.4354,-5.46521,-18.2167
2023-03-15 14:37:29:805,-0.565522,-1.70205,-9.6454,10.4144,-5.46963,-18.166
2023-03-15 14:37:29:815,-0.654925,-1.69658,-9.66884,10.3943,-5.48952,-18.103
2023-03-15 14:37:29:825,-0.78386,-1.70892,-9.7029,10.3683,-5.51765,-18.0393
2023-03-15 14:37:29:835,-0.900544,-1.67744,-9.74104,10.3434,-5.55447,-17.9716
2023-03-15 14:37:29:845,-1.00426,-1.63802,-9.77943,10.3152,-5.59562,-17.903
2023-03-15 14:37:29:855,-1.09367,-1.61377,-9.78852,10.2923,-5.64012,-17.8381
2023-03-15 14:37:29:865,-1.18872,-1.59614,-9.78322,10.2744,-5.67953,-17.7748
2023-03-15 14:37:29:875,-1.25092,-1.60425,-9.77181,10.2654,-5.71301,-17.7186
2023-03-15 14:37:29:885,-1.26946,-1.61962,-9.75677,10.2711,-5.74143,-17.6662
2023-03-15 14:37:29:895,-1.25579,-1.66935,-9.66859,10.2892,-5.76188,-17.6158
2023-03-15 14:37:29:905,-1.26361,-1.74541,-9.57212,10.3227,-5.77596,-17.5711
2023-03-15 14:37:29:915,-1.24183,-1.81138,-9.50921,10.3574,-5.78616,-17.5291
2023-03-15 14:37:29:925,-1.21064,-1.85476,-9.44999,10.392,-5.7891,-17.4918
2023-03-15 14:37:29:935,-1.19049,-1.86753,-9.43349,10.4223,-5.79361,-17.461
2023-03-15 14:37:29:945,-1.16853,-1.84096,-9.43094,10.4399,-5.79209,-17.4311
2023-03-15 14:37:29:955,-1.13215,-1.8231,-9.4345,10.4528,-5.7861,-17.407
2023-03-15 14:37:29:965,-1.08598,-1.78967,-9.43774,10.464,-5.77824,-17.3895
2023-03-15 14:37:29:975,-1.02335,-1.75402,-9.45488,10.4685,-5.76888,-17.379
2023-03-15 14:37:29:985,-0.985621,-1.72011,-9.45715,10.472,-5.75532,-17.3723
2023-03-15 14:37:29:995,-0.942225,-1.70245,-9.43643,10.4748,-5.74181,-17.3698
2023-03-15 14:37:30:5,-0.877986,-1.73389,-9.41057,10.4827,-5.73124,-17.365
2023-03-15 14:37:30:15,-0.844504,-1.75675,-9.37282,10.4861,-5.72132,-17.3529
2023-03-15 14:37:30:25,-0.83595,-1.75858,-9.39148,10.4886,-5.71376,-17.3411
2023-03-15 14:37:30:35,-0.813735,-1.76019,-9.46735,10.488,-5.70655,-17.3275
2023-03-15 14:37:30:45,-0.77892,-1.7887,-9.52632,10.4814,-5.70136,-17.3083
2023-03-15 14:37:30:55,-0.739944,-1.8084,-9.54643,10.4778,-5.69437,-17.28
2023-03-15 14:37:30:65,-0.757994,-1.83734,-9.58667,10.4709,-5.69534,-17.2461
2023-03-15 14:37:30:75,-0.834626,-1.8298,-9.64434,10.4564,-5.70531,-17.2029
2023-03-15 14:37:30:85,-0.915324,-1.80675,-9.69579,10.4387,-5.71947,-17.1566
2023-03-15 14:37:30:95,-0.993456,-1.764,-9.73009,10.4199,-5.73211,-17.1074
2023-03-15 14:37:30:105,-1.05583,-1.72527,-9.72599,10.4007,-5.74485,-17.0599
2023-03-15 14:37:30:115,-1.10965,-1.69077,-9.71984,10.387,-5.75785,-17.0156
2023-03-15 14:37:30:125,-1.14519,-1.67037,-9.713,10.3751,-5.76816,-16.9725
2023-03-15 14:37:30:135,-1.1733,-1.65,-9.70063,10.365,-5.77694,-16.9408
2023-03-15 14:37:30:145,-1.17718,-1.63839,-9.66039,10.3601,-5.7856,-16.9177
2023-03-15 14:37:30:155,-1.15384,-1.62673,-9.63676,10.3617,-5.789,-16.9003
2023-03-15 14:37:30:165,-1.10504,-1.63121,-9.56599,10.3664,-5.79121,-16.8935
2023-03-15 14:37:30:175,-1.08595,-1.6664,-9.49354,10.3711,-5.78999,-16.8935
2023-03-15 14:37:30:185,-1.05108,-1.67668,-9.51796,10.3779,-5.79031,-16.8968
2023-03-15 14:37:30:195,-1.01087,-1.67336,-9.52626,10.3807,-5.79209,-16.9052
2023-03-15 14:37:30:205,-0.987635,-1.64513,-9.53695,10.3807,-5.7925,-16.9194
2023-03-15 14:37:30:215,-0.973158,-1.64375,-9.53573,10.3852,-5.79916,-16.9364
2023-03-15 14:37:30:225,-0.949171,-1.66307,-9.52753,10.3896,-5.8091,-16.9541
2023-03-15 14:37:30:235,-0.935677,-1.64695,-9.5271,10.3963,-5.81635,-16.9726
2023-03-15 14:37:30:245,-0.891693,-1.64073,-9.53352,10.4035,-5.82266,-16.991
2023-03-15 14:37:30:255,-0.861312,-1.69252,-9.51523,10.417,-5.83318,-17.0046
2023-03-15 14:37:30:265,-0.839678,-1.75285,-9.50054,10.436,-5.8361,-17.0115
2023-03-15 14:37:30:275,-0.823224,-1.78269,-9.47338,10.4527,-5.84389,-17.0067
2023-03-15 14:37:30:285,-0.807742,-1.83708,-9.45826,10.4704,-5.85389,-16.9975
2023-03-15 14:37:30:295,-0.842053,-1.86766,-9.48103,10.4842,-5.86377,-16.9765
2023-03-15 14:37:30:305,-0.867775,-1.8788,-9.5204,10.4901,-5.87427,-16.9437
2023-03-15 14:37:30:315,-0.892134,-1.88914,-9.52853,10.4936,-5.88299,-16.9003
2023-03-15 14:37:30:325,-0.95068,-1.89506,-9.55524,10.4869,-5.89104,-16.8498
2023-03-15 14:37:30:335,-1.01103,-1.89803,-9.57237,10.4729,-5.90176,-16.7977
2023-03-15 14:37:30:345,-1.07163,-1.88238,-9.58771,10.4541,-5.91231,-16.741
2023-03-15 14:37:30:355,-1.1046,-1.85707,-9.62004,10.4338,-5.91697,-16.6859
2023-03-15 14:37:30:365,-1.13311,-1.86413,-9.61882,10.4127,-5.92366,-16.6328
2023-03-15 14:37:30:375,-1.13348,-1.8632,-9.60291,10.391,-5.9312,-16.5849
2023-03-15 14:37:30:385,-1.12945,-1.86174,-9.59031,10.3685,-5.93683,-16.5427
2023-03-15 14:37:30:395,-1.10516,-1.85929,-9.55486,10.3458,-5.94495,-16.5023
2023-03-15 14:37:30:405,-1.11341,-1.83296,-9.52877,10.3155,-5.95089,-16.4633
2023-03-15 14:37:30:415,-1.11085,-1.79376,-9.52916,10.2831,-5.95442,-16.429
2023-03-15 14:37:30:425,-1.07387,-1.76722,-9.53057,10.2388,-5.95645,-16.4009
2023-03-15 14:37:30:435,-1.05019,-1.72586,-9.51334,10.1969,-5.95427,-16.3761
2023-03-15 14:37:30:445,-1.04372,-1.70355,-9.5101,10.1538,-5.95635,-16.3605
2023-03-15 14:37:30:455,-1.02405,-1.69462,-9.5076,10.1084,-5.95455,-16.3438
2023-03-15 14:37:30:465,-1.03196,-1.66474,-9.54167,10.0627,-5.9538,-16.3297
2023-03-15 14:37:30:475,-1.03795,-1.63221,-9.57439,10.0224,-5.95314,-16.3199
2023-03-15 14:37:30:485,-1.02595,-1.6034,-9.60185,9.98669,-5.95286,-16.3128
2023-03-15 14:37:30:495,-0.983153,-1.61184,-9.61832,9.95771,-5.944,-16.31
2023-03-15 14:37:30:505,-0.910733,-1.63323,-9.59933,9.93651,-5.93743,-16.3018
2023-03-15 14:37:30:515,-0.875589,-1.6578,-9.57539,9.92141,-5.92977,-16.2941
2023-03-15 14:37:30:525,-0.869805,-1.68266,-9.58661,9.91132,-5.92198,-16.2822
2023-03-15 14:37:30:535,-0.861215,-1.70513,-9.57563,9.89865,-5.91924,-16.2667
2023-03-15 14:37:30:545,-0.864341,-1.71568,-9.56101,9.88856,-5.9182,-16.2521
2023-03-15 14:37:30:555,-0.894307,-1.71373,-9.56639,9.88232,-5.92641,-16.2344
2023-03-15 14:37:30:565,-0.928198,-1.73806,-9.56908,9.87729,-5.93853,-16.212
2023-03-15 14:37:30:575,-0.960402,-1.75231,-9.56439,9.87328,-5.94918,-16.1887
2023-03-15 14:37:30:585,-0.959296,-1.78716,-9.53054,9.86908,-5.96443,-16.1648
2023-03-15 14:37:30:595,-0.984628,-1.79941,-9.50725,9.86543,-5.98166,-16.1316
2023-03-15 14:37:30:605,-1.02461,-1.76322,-9.50028,9.8567,-5.99491,-16.0961
2023-03-15 14:37:30:615,-1.01322,-1.76268,-9.4823,9.84944,-6.00379,-16.0655
2023-03-15 14:37:30:625,-1.00396,-1.78273,-9.44318,9.84212,-6.00999,-16.0288
2023-03-15 14:37:30:635,-0.9996,-1.78197,-9.40704,9.8307,-6.01335,-15.9913
2023-03-15 14:37:30:645,-0.983127,-1.77456,-9.42405,9.80854,-6.02105,-15.9534
2023-03-15 14:37:30:655,-0.967155,-1.74008,-9.47624,9.78379,-6.02349,-15.9108
2023-03-15 14:37:30:665,-0.923766,-1.71979,-9.4979,9.75783,-6.02856,-15.8662
2023-03-15 14:37:30:675,-0.905007,-1.73605,-9.49712,9.72868,-6.03821,-15.8181
2023-03-15 14:37:30:685,-0.94632,-1.71781,-9.50011,9.69177,-6.05278,-15.7696
2023-03-15 14:37:30:695,-1.04454,-1.66343,-9.52281,9.6485,-6.07561,-15.7202
2023-03-15 14:37:30:705,-1.1277,-1.61539,-9.53663,9.60212,-6.10118,-15.6724
2023-03-15 14:37:30:715,-1.14165,-1.5847,-9.55847,9.55658,-6.12426,-15.6287
2023-03-15 14:37:30:725,-1.13822,-1.56005,-9.55311,9.50459,-6.14768,-15.5834
2023-03-15 14:37:30:735,-1.15908,-1.50693,-9.55592,9.45091,-6.16916,-15.5442
2023-03-15 14:37:30:745,-1.17407,-1.46785,-9.58103,9.39369,-6.19226,-15.5077
2023-03-15 14:37:30:755,-1.17249,-1.4332,-9.60005,9.33239,-6.20898,-15.4747
2023-03-15 14:37:30:765,-1.1748,-1.41415,-9.6351,9.27518,-6.22978,-15.4472
2023-03-15 14:37:30:775,-1.18826,-1.38644,-9.63827,9.21913,-6.25041,-15.4207
2023-03-15 14:37:30:785,-1.19952,-1.37482,-9.63861,9.1679,-6.26704,-15.3986
2023-03-15 14:37:30:795,-1.20139,-1.36413,-9.65569,9.11742,-6.28171,-15.3777
2023-03-15 14:37:30:805,-1.19527,-1.3313,-9.69187,9.07075,-6.29717,-15.3632
2023-03-15 14:37:30:815,-1.19922,-1.31535,-9.72315,9.02639,-6.31223,-15.3555
2023-03-15 14:37:30:825,-1.21015,-1.3081,-9.72811,8.98543,-6.33173,-15.3474
2023-03-15 14:37:30:835,-1.21201,-1.31504,-9.7343,8.95311,-6.34139,-15.3377
2023-03-15 14:37:30:845,-1.17623,-1.32762,-9.73518,8.92775,-6.35097,-15.3352
2023-03-15 14:37:30:855,-1.15422,-1.3511,-9.7146,8.90477,-6.35899,-15.332
2023-03-15 14:37:30:865,-1.13316,-1.38289,-9.7007,8.88689,-6.36479,-15.3246
2023-03-15 14:37:30:875,-1.12337,-1.3944,-9.67924,8.87584,-6.37084,-15.3178
2023-03-15 14:37:30:885,-1.10932,-1.39053,-9.63578,8.86211,-6.37472,-15.3095
2023-03-15 14:37:30:895,-1.11487,-1.39578,-9.64105,8.84628,-6.3804,-15.2987
2023-03-15 14:37:30:905,-1.13681,-1.39006,-9.66674,8.83129,-6.38844,-15.2906
2023-03-15 14:37:30:915,-1.12297,-1.39094,-9.68779,8.8195,-6.39591,-15.2844
2023-03-15 14:37:30:925,-1.10354,-1.37112,-9.68638,8.80925,-6.40063,-15.2792
2023-03-15 14:37:30:935,-1.04972,-1.38744,-9.6652,8.80483,-6.40224,-15.278
2023-03-15 14:37:30:945,-0.999609,-1.42474,-9.60823,8.80872,-6.40448,-15.2735
2023-03-15 14:37:30:955,-1.02891,-1.44236,-9.55274,8.81449,-6.40986,-15.2662
2023-03-15 14:37:30:965,-1.10582,-1.46709,-9.51157,8.8201,-6.42061,-15.256
2023-03-15 14:37:30:975,-1.12677,-1.47262,-9.51026,8.8199,-6.43509,-15.244
2023-03-15 14:37:30:985,-1.12934,-1.45818,-9.50877,8.8174,-6.44882,-15.235
2023-03-15 14:37:30:995,-1.14109,-1.44537,-9.53143,8.81049,-6.46036,-15.2242
2023-03-15 14:37:31:5,-1.13486,-1.41994,-9.55994,8.8005,-6.46849,-15.2158
2023-03-15 14:37:31:15,-1.11016,-1.41178,-9.58484,8.78985,-6.47464,-15.2093
2023-03-15 14:37:31:25,-1.09562,-1.41517,-9.57774,8.77995,-6.48287,-15.2024
2023-03-15 14:37:31:35,-1.09234,-1.41349,-9.57957,8.76982,-6.48546,-15.1941
2023-03-15 14:37:31:45,-1.0585,-1.40247,-9.6174,8.75524,-6.48801,-15.184
2023-03-15 14:37:31:55,-1.03399,-1.40296,-9.63023,8.74168,-6.49096,-15.1757
2023-03-15 14:37:31:65,-1.02364,-1.40645,-9.61563,8.72943,-6.49539,-15.1721
2023-03-15 14:37:31:75,-1.0447,-1.42387,-9.59601,8.71761,-6.50361,-15.1631
2023-03-15 14:37:31:85,-1.05942,-1.41209,-9.58642,8.7045,-6.51698,-15.1557
2023-03-15 14:37:31:95,-1.06784,-1.41208,-9.60499,8.69049,-6.5326,-15.1462
2023-03-15 14:37:31:105,-1.08798,-1.4101,-9.59652,8.67604,-6.54379,-15.1371
2023-03-15 14:37:31:115,-1.10677,-1.41637,-9.58777,8.66194,-6.55871,-15.1305
2023-03-15 14:37:31:125,-1.1239,-1.40775,-9.59096,8.64494,-6.5744,-15.1237
2023-03-15 14:37:31:135,-1.12357,-1.39434,-9.59939,8.62324,-6.58899,-15.1093
2023-03-15 14:37:31:145,-1.14269,-1.38055,-9.6077,8.60298,-6.6015,-15.0991
2023-03-15 14:37:31:155,-1.15663,-1.36107,-9.63881,8.58087,-6.61435,-15.0875
2023-03-15 14:37:31:165,-1.15925,-1.35136,-9.64727,8.56163,-6.62323,-15.0783
2023-03-15 14:37:31:175,-1.17438,-1.34711,-9.65671,8.54378,-6.62756,-15.064
2023-03-15 14:37:31:185,-1.15789,-1.33524,-9.65703,8.53285,-6.62968,-15.0578
2023-03-15 14:37:31:195,-1.16514,-1.34477,-9.64448,8.51921,-6.63265,-15.0493
2023-03-15 14:37:31:205,-1.16851,-1.35499,-9.61892,8.5096,-6.63061,-15.0399
2023-03-15 14:37:31:215,-1.16179,-1.35429,-9.60131,8.50222,-6.6309,-15.0331
2023-03-15 14:37:31:225,-1.14077,-1.36184,-9.59308,8.49544,-6.63056,-15.0266
2023-03-15 14:37:31:235,-1.12675,-1.35472,-9.60583,8.4825,-6.63223,-15.0205
2023-03-15 14:37:31:245,-1.11481,-1.34023,-9.60952,8.47529,-6.62987,-15.0151
2023-03-15 14:37:31:255,-1.10694,-1.34379,-9.62516,8.46567,-6.62857,-15.0108
2023-03-15 14:37:31:265,-1.09138,-1.3373,-9.62576,8.45519,-6.62822,-15.0059
2023-03-15 14:37:31:275,-1.07851,-1.34438,-9.63015,8.44915,-6.62829,-15.0022
2023-03-15 14:37:31:285,-1.07255,-1.34897,-9.62249,8.44536,-6.62309,-14.9952
2023-03-15 14:37:31:295,-1.06195,-1.36651,-9.63152,8.44298,-6.6209,-14.9884
2023-03-15 14:37:31:305,-1.07404,-1.37331,-9.61862,8.44043,-6.61975,-14.9731
2023-03-15 14:37:31:315,-1.09728,-1.37146,-9.59485,8.43758,-6.62061,-14.9566
2023-03-15 14:37:31:325,-1.10399,-1.37165,-9.58918,8.43828,-6.62168,-14.9409
2023-03-15 14:37:31:335,-1.12349,-1.37744,-9.61118,8.43388,-6.62157,-14.9261
2023-03-15 14:37:31:345,-1.13697,-1.36507,-9.61752,8.42814,-6.61665,-14.9066
2023-03-15 14:37:31:355,-1.13616,-1.36443,-9.64885,8.42447,-6.61246,-14.8902
2023-03-15 14:37:31:365,-1.1256,-1.3386,-9.65753,8.41893,-6.60559,-14.8725
2023-03-15 14:37:31:375,-1.11852,-1.34931,-9.65406,8.41307,-6.60057,-14.8557
2023-03-15 14:37:31:385,-1.1182,-1.36569,-9.64725,8.41384,-6.59237,-14.8398
2023-03-15 14:37:31:395,-1.13118,-1.365,-9.62862,8.41296,-6.58924,-14.8217
2023-03-15 14:37:31:405,-1.13189,-1.36643,-9.62689,8.41565,-6.58751,-14.8054
2023-03-15 14:37:31:415,-1.14622,-1.36799,-9.62073,8.41746,-6.58527,-14.7882
2023-03-15 14:37:31:425,-1.15753,-1.35448,-9.61508,8.42409,-6.58341,-14.7739
2023-03-15 14:37:31:435,-1.15512,-1.33722,-9.62282,8.42999,-6.58393,-14.7644
2023-03-15 14:37:31:445,-1.16208,-1.33735,-9.62827,8.43266,-6.58195,-14.7575
2023-03-15 14:37:31:455,-1.14799,-1.33718,-9.62744,8.43696,-6.58082,-14.7553
2023-03-15 14:37:31:465,-1.16749,-1.34642,-9.64042,8.44779,-6.5833,-14.7565
2023-03-15 14:37:31:475,-1.18768,-1.33547,-9.65374,8.45659,-6.58564,-14.7556
2023-03-15 14:37:31:485,-1.18605,-1.33482,-9.67234,8.4688,-6.59141,-14.7631
2023-03-15 14:37:31:495,-1.17365,-1.34407,-9.68841,8.48531,-6.59284,-14.7729
2023-03-15 14:37:31:505,-1.16011,-1.35178,-9.67999,8.50979,-6.59537,-14.7836
2023-03-15 14:37:31:515,-1.18565,-1.36474,-9.64347,8.53959,-6.59561,-14.7923
2023-03-15 14:37:31:525,-1.23357,-1.39673,-9.57999,8.57574,-6.60016,-14.8048
2023-03-15 14:37:31:535,-1.24651,-1.4289,-9.54001,8.61323,-6.59861,-14.8145
2023-03-15 14:37:31:545,-1.23925,-1.42945,-9.57044,8.6503,-6.59873,-14.8312
2023-03-15 14:37:31:555,-1.21539,-1.42505,-9.63718,8.68608,-6.58864,-14.8492
2023-03-15 14:37:31:565,-1.15477,-1.44319,-9.64284,8.72545,-6.57786,-14.8767
2023-03-15 14:37:31:575,-1.07895,-1.48858,-9.59699,8.77045,-6.55898,-14.898
2023-03-15 14:37:31:585,-1.03682,-1.54156,-9.55658,8.81998,-6.54003,-14.9182
2023-03-15 14:37:31:595,-1.02982,-1.56655,-9.52336,8.8646,-6.52613,-14.9358
2023-03-15 14:37:31:605,-1.03014,-1.58275,-9.51418,8.90403,-6.51398,-14.9499
2023-03-15 14:37:31:615,-1.06512,-1.56994,-9.51388,8.94244,-6.50734,-14.9628
2023-03-15 14:37:31:625,-1.0982,-1.55442,-9.5361,8.97072,-6.50597,-14.9715
2023-03-15 14:37:31:635,-1.09239,-1.51727,-9.55396,8.99512,-6.50508,-14.9823
2023-03-15 14:37:31:645,-1.09414,-1.49775,-9.57919,9.01248,-6.50106,-14.9918
2023-03-15 14:37:31:655,-1.10817,-1.48667,-9.58665,9.02962,-6.49684,-15.0042
2023-03-15 14:37:31:665,-1.09909,-1.48553,-9.58561,9.04551,-6.49283,-15.0146
2023-03-15 14:37:31:675,-1.09007,-1.4864,-9.57426,9.06235,-6.48948,-15.0228
2023-03-15 14:37:31:685,-1.05296,-1.49909,-9.56842,9.08401,-6.48257,-15.0335
2023-03-15 14:37:31:695,-1.06199,-1.50653,-9.53476,9.09965,-6.47334,-15.0409
2023-03-15 14:37:31:705,-1.09553,-1.51718,-9.50036,9.11625,-6.4666,-15.0461
2023-03-15 14:37:31:715,-1.10037,-1.5351,-9.49543,9.13211,-6.46599,-15.0532
2023-03-15 14:37:31:726,-1.09763,-1.53438,-9.53734,9.14057,-6.46507,-15.0576
2023-03-15 14:37:31:735,-1.09842,-1.5026,-9.57474,9.14776,-6.46462,-15.0646
2023-03-15 14:37:31:746,-1.08186,-1.49037,-9.63064,9.1488,-6.46402,-15.0703
2023-03-15 14:37:31:755,-1.06793,-1.48351,-9.66767,9.15057,-6.46495,-15.08
2023-03-15 14:37:31:765,-1.07423,-1.49523,-9.65821,9.16054,-6.46442,-15.0878
2023-03-15 14:37:31:775,-1.08277,-1.5209,-9.6498,9.16849,-6.46489,-15.1004
2023-03-15 14:37:31:785,-1.08733,-1.52377,-9.61606,9.18403,-6.47069,-15.1066
2023-03-15 14:37:31:795,-1.10221,-1.52996,-9.57683,9.19785,-6.47558,-15.1134
2023-03-15 14:37:31:805,-1.12604,-1.53716,-9.55334,9.21178,-6.47854,-15.1217
2023-03-15 14:37:31:815,-1.14587,-1.5603,-9.54717,9.22237,-6.48399,-15.1272
2023-03-15 14:37:31:825,-1.14153,-1.54608,-9.5339,9.23157,-6.48699,-15.1331
2023-03-15 14:37:31:835,-1.0993,-1.54735,-9.53433,9.23904,-6.48325,-15.1408
2023-03-15 14:37:31:845,-1.04585,-1.54028,-9.56682,9.2462,-6.47929,-15.1459
2023-03-15 14:37:31:855,-1.01879,-1.52017,-9.60023,9.25117,-6.4753,-15.1514
2023-03-15 14:37:31:865,-1.03805,-1.5219,-9.59605,9.25734,-6.47523,-15.1504
2023-03-15 14:37:31:875,-1.08714,-1.52589,-9.58018,9.26489,-6.47726,-15.1476
2023-03-15 14:37:31:885,-1.12477,-1.54082,-9.5591,9.27088,-6.48361,-15.1428
2023-03-15 14:37:31:895,-1.15915,-1.55067,-9.55082,9.27891,-6.49172,-15.1363
2023-03-15 14:37:31:905,-1.15558,-1.54717,-9.54465,9.2814,-6.49662,-15.1335
2023-03-15 14:37:31:915,-1.1273,-1.56162,-9.52751,9.27972,-6.50012,-15.1294
2023-03-15 14:37:31:925,-1.10343,-1.56549,-9.53212,9.28181,-6.49794,-15.1257
2023-03-15 14:37:31:935,-1.09532,-1.56099,-9.54157,9.27906,-6.49379,-15.1184
2023-03-15 14:37:31:945,-1.0984,-1.55996,-9.54365,9.27497,-6.48641,-15.1093
2023-03-15 14:37:31:955,-1.07842,-1.56751,-9.56744,9.26622,-6.47684,-15.096
2023-03-15 14:37:31:965,-1.05113,-1.56845,-9.57624,9.26038,-6.46871,-15.0837
2023-03-15 14:37:31:975,-1.04218,-1.57472,-9.57832,9.25561,-6.46282,-15.0727
2023-03-15 14:37:31:985,-1.02727,-1.57604,-9.57433,9.24895,-6.45087,-15.0579
2023-03-15 14:37:31:995,-1.02785,-1.57073,-9.56129,9.24415,-6.44043,-15.0407
2023-03-15 14:37:32:5,-1.05646,-1.56144,-9.57167,9.239,-6.43349,-15.023
2023-03-15 14:37:32:15,-1.06041,-1.54145,-9.56727,9.23126,-6.42697,-15.0079
2023-03-15 14:37:32:25,-1.05098,-1.54546,-9.56808,9.22077,-6.42004,-14.9905
2023-03-15 14:37:32:35,-1.06083,-1.55713,-9.58309,9.21249,-6.41506,-14.9726
2023-03-15 14:37:32:45,-1.07523,-1.53544,-9.59822,9.19924,-6.40844,-14.9542
2023-03-15 14:37:32:55,-1.10538,-1.52287,-9.60836,9.18669,-6.40015,-14.9379
2023-03-15 14:37:32:65,-1.10861,-1.50918,-9.63104,9.17205,-6.39452,-14.9242
2023-03-15 14:37:32:75,-1.11103,-1.48307,-9.67611,9.1589,-6.38659,-14.9101
2023-03-15 14:37:32:85,-1.1316,-1.44775,-9.71989,9.14957,-6.37902,-14.8975
2023-03-15 14:37:32:95,-1.14266,-1.42884,-9.7318,9.14928,-6.3702,-14.8902
2023-03-15 14:37:32:105,-1.13509,-1.44987,-9.70426,9.15745,-6.35977,-14.8816
2023-03-15 14:37:32:115,-1.12554,-1.48447,-9.66986,9.17037,-6.34418,-14.8745
2023-03-15 14:37:32:125,-1.10994,-1.50866,-9.63598,9.18816,-6.33038,-14.8674
2023-03-15 14:37:32:135,-1.10509,-1.53556,-9.59052,9.20632,-6.31711,-14.865
2023-03-15 14:37:32:145,-1.08561,-1.56384,-9.56819,9.22792,-6.29999,-14.8637
2023-03-15 14:37:32:155,-1.06134,-1.57319,-9.55638,9.24506,-6.29006,-14.8603
2023-03-15 14:37:32:165,-1.05167,-1.57084,-9.56299,9.25852,-6.28332,-14.8608
2023-03-15 14:37:32:175,-1.0496,-1.57554,-9.57029,9.27662,-6.27611,-14.8605
2023-03-15 14:37:32:185,-1.04467,-1.55638,-9.55048,9.28875,-6.27204,-14.8648
2023-03-15 14:37:32:195,-1.04595,-1.57381,-9.55419,9.29776,-6.27235,-14.8734
2023-03-15 14:37:32:205,-1.05066,-1.5891,-9.55098,9.31076,-6.27159,-14.881
2023-03-15 14:37:32:215,-1.04597,-1.58762,-9.55672,9.31653,-6.26985,-14.8917
2023-03-15 14:37:32:225,-1.04153,-1.59332,-9.54797,9.32585,-6.27097,-14.8999
2023-03-15 14:37:32:235,-1.04749,-1.58817,-9.54444,9.33308,-6.273,-14.9084
2023-03-15 14:37:32:245,-1.03942,-1.5879,-9.54209,9.33542,-6.27148,-14.9178
2023-03-15 14:37:32:255,-1.03449,-1.59569,-9.53358,9.34062,-6.27313,-14.9253
2023-03-15 14:37:32:265,-1.02535,-1.59853,-9.53862,9.34682,-6.2718,-14.9329
2023-03-15 14:37:32:275,-1.00572,-1.59854,-9.55042,9.34805,-6.26848,-14.9349
2023-03-15 14:37:32:285,-0.984811,-1.5953,-9.55796,9.34632,-6.26022,-14.9368
2023-03-15 14:37:32:295,-0.991234,-1.60021,-9.54992,9.34647,-6.25498,-14.938
2023-03-15 14:37:32:305,-0.98277,-1.59825,-9.54556,9.34496,-6.24967,-14.9367
2023-03-15 14:37:32:315,-0.973164,-1.60211,-9.53703,9.33985,-6.24732,-14.9321
2023-03-15 14:37:32:325,-0.988238,-1.59553,-9.54616,9.33511,-6.24096,-14.9242
2023-03-15 14:37:32:335,-1.00994,-1.58756,-9.57138,9.32732,-6.2383,-14.9193
2023-03-15 14:37:32:345,-1.01296,-1.57308,-9.56444,9.3177,-6.23761,-14.9135
2023-03-15 14:37:32:355,-1.02732,-1.56127,-9.5719,9.30614,-6.23552,-14.9046
2023-03-15 14:37:32:365,-1.03373,-1.53359,-9.61011,9.29251,-6.23803,-14.9014
2023-03-15 14:37:32:375,-1.05864,-1.51916,-9.63897,9.27989,-6.24135,-14.8952
2023-03-15 14:37:32:385,-1.07932,-1.51256,-9.63498,9.26954,-6.2452,-14.8884
2023-03-15 14:37:32:395,-1.07945,-1.51963,-9.62683,9.26055,-6.2477,-14.8837
2023-03-15 14:37:32:405,-1.06763,-1.52537,-9.64298,9.25199,-6.25019,-14.8811
2023-03-15 14:37:32:415,-1.06402,-1.51989,-9.63972,9.24801,-6.25309,-14.8768
2023-03-15 14:37:32:425,-1.0906,-1.51404,-9.6394,9.24504,-6.25653,-14.8722
2023-03-15 14:37:32:435,-1.11645,-1.51721,-9.60211,9.24382,-6.26408,-14.8688
2023-03-15 14:37:32:445,-1.09797,-1.53263,-9.57471,9.24572,-6.2655,-14.8645
2023-03-15 14:37:32:455,-1.08666,-1.53951,-9.58469,9.24625,-6.26424,-14.866
2023-03-15 14:37:32:465,-1.06348,-1.52385,-9.62275,9.24534,-6.2616,-14.8683
2023-03-15 14:37:32:475,-1.01476,-1.51709,-9.6646,9.24399,-6.26017,-14.8709
2023-03-15 14:37:32:485,-0.970274,-1.52367,-9.66755,9.24561,-6.25955,-14.8777
2023-03-15 14:37:32:495,-0.953788,-1.53609,-9.66757,9.24698,-6.26548,-14.8835
2023-03-15 14:37:32:505,-1.01409,-1.52609,-9.67795,9.2491,-6.27426,-14.8875
2023-03-15 14:37:32:515,-1.08316,-1.49789,-9.68662,9.25,-6.29006,-14.8907
2023-03-15 14:37:32:525,-1.15032,-1.4834,-9.68535,9.25097,-6.30782,-14.8939
2023-03-15 14:37:32:535,-1.18243,-1.46626,-9.70669,9.25294,-6.32439,-14.9024
2023-03-15 14:37:32:545,-1.19216,-1.42982,-9.73071,9.25783,-6.33989,-14.9137
2023-03-15 14:37:32:555,-1.21686,-1.40531,-9.75402,9.2613,-6.3561,-14.9307
2023-03-15 14:37:32:565,-1.24363,-1.36337,-9.77124,9.2714,-6.37327,-14.9526
2023-03-15 14:37:32:575,-1.26814,-1.33829,-9.77063,9.28701,-6.38896,-14.9815
2023-03-15 14:37:32:585,-1.28121,-1.31801,-9.79124,9.3095,-6.39887,-15.0188
2023-03-15 14:37:32:595,-1.30351,-1.31021,-9.78706,9.34244,-6.40582,-15.0666
2023-03-15 14:37:32:605,-1.34458,-1.32932,-9.77827,9.3863,-6.41934,-15.1231
2023-03-15 14:37:32:615,-1.39155,-1.34467,-9.79043,9.44047,-6.43359,-15.1963
2023-03-15 14:37:32:625,-1.42894,-1.34711,-9.80317,9.50158,-6.45072,-15.2841
2023-03-15 14:37:32:635,-1.4557,-1.36243,-9.7917,9.57728,-6.47134,-15.3893
2023-03-15 14:37:32:645,-1.51826,-1.39107,-9.77078,9.66464,-6.49197,-15.5144
2023-03-15 14:37:32:655,-1.58806,-1.4073,-9.71941,9.7598,-6.51381,-15.6642
2023-03-15 14:37:32:665,-1.54614,-1.44832,-9.67671,9.8644,-6.534,-15.8398
2023-03-15 14:37:32:675,-1.36588,-1.49437,-9.69061,9.97673,-6.55182,-16.033
2023-03-15 14:37:32:685,-1.27713,-1.54324,-9.69267,10.0975,-6.56567,-16.2397
2023-03-15 14:37:32:695,-1.27932,-1.61536,-9.60423,10.2242,-6.5878,-16.4546
2023-03-15 14:37:32:705,-1.25798,-1.69651,-9.52598,10.3537,-6.615,-16.6786
2023-03-15 14:37:32:715,-1.19122,-1.77147,-9.45723,10.4876,-6.64328,-16.9075
2023-03-15 14:37:32:725,-1.1494,-1.83323,-9.38992,10.6144,-6.67249,-17.1401
2023-03-15 14:37:32:735,-1.14364,-1.90542,-9.33339,10.741,-6.70579,-17.3726
2023-03-15 14:37:32:745,-1.16083,-1.95032,-9.28202,10.8629,-6.73494,-17.6018
2023-03-15 14:37:32:755,-1.14961,-1.96543,-9.24562,10.9712,-6.76049,-17.8259
2023-03-15 14:37:32:765,-1.11571,-1.98917,-9.24926,11.0667,-6.78596,-18.0468
2023-03-15 14:37:32:775,-1.11148,-2.00711,-9.25774,11.1514,-6.80288,-18.2651
2023-03-15 14:37:32:785,-1.10064,-2.0014,-9.28726,11.2269,-6.82334,-18.4822
2023-03-15 14:37:32:795,-1.0989,-1.99153,-9.32709,11.2938,-6.84092,-18.6904
2023-03-15 14:37:32:805,-1.0981,-1.98349,-9.37534,11.3486,-6.85669,-18.9003
2023-03-15 14:37:32:815,-1.1122,-1.95564,-9.42233,11.4008,-6.87209,-19.1062
2023-03-15 14:37:32:825,-1.13469,-1.92779,-9.44852,11.4454,-6.89089,-19.3097
2023-03-15 14:37:32:835,-1.14178,-1.93621,-9.46837,11.4903,-6.91215,-19.5122
2023-03-15 14:37:32:845,-1.12548,-1.93688,-9.47316,11.5298,-6.93119,-19.7141
2023-03-15 14:37:32:855,-1.08236,-1.94603,-9.45709,11.5711,-6.94429,-19.9123
2023-03-15 14:37:32:865,-1.04782,-1.96235,-9.45429,11.6084,-6.95616,-20.1052
2023-03-15 14:37:32:875,-1.0201,-1.95511,-9.45234,11.642,-6.96308,-20.2863
2023-03-15 14:37:32:885,-1.00229,-1.94927,-9.48591,11.6685,-6.97266,-20.4646
2023-03-15 14:37:32:895,-0.989532,-1.92923,-9.52859,11.6942,-6.98539,-20.6366
2023-03-15 14:37:32:905,-0.987941,-1.91498,-9.56162,11.7207,-7.00041,-20.8011
2023-03-15 14:37:32:915,-1.02228,-1.91193,-9.55909,11.7495,-7.02282,-20.9557
2023-03-15 14:37:32:925,-1.07473,-1.93762,-9.54914,11.774,-7.04378,-21.1007
2023-03-15 14:37:32:935,-1.10614,-1.93155,-9.55038,11.7997,-7.06459,-21.2386
2023-03-15 14:37:32:945,-1.09966,-1.91052,-9.54789,11.823,-7.08297,-21.3699
2023-03-15 14:37:32:955,-1.06844,-1.93372,-9.52226,11.8536,-7.09886,-21.4946
2023-03-15 14:37:32:965,-1.03466,-1.96121,-9.52402,11.8831,-7.11019,-21.6106
2023-03-15 14:37:32:975,-1.0282,-1.94982,-9.5437,11.9111,-7.12201,-21.7099
2023-03-15 14:37:32:985,-1.06378,-1.93026,-9.54221,11.9355,-7.13172,-21.7988
2023-03-15 14:37:32:995,-1.11103,-1.93726,-9.53195,11.9603,-7.14022,-21.8833
2023-03-15 14:37:33:5,-1.15415,-1.91931,-9.53037,11.9824,-7.15422,-21.9569
2023-03-15 14:37:33:15,-1.21338,-1.88888,-9.55279,12.0008,-7.16786,-22.0247
2023-03-15 14:37:33:25,-1.25429,-1.88508,-9.55701,12.0244,-7.17859,-22.0922
2023-03-15 14:37:33:35,-1.2857,-1.90369,-9.56714,12.0503,-7.18572,-22.1617
2023-03-15 14:37:33:45,-1.32305,-1.91802,-9.55158,12.0832,-7.19698,-22.2297
2023-03-15 14:37:33:55,-1.30966,-1.9504,-9.5195,12.1194,-7.20496,-22.2992
2023-03-15 14:37:33:65,-1.29814,-1.9731,-9.49102,12.1613,-7.20965,-22.3659
2023-03-15 14:37:33:75,-1.30783,-1.9883,-9.47656,12.2031,-7.20769,-22.431
2023-03-15 14:37:33:85,-1.29154,-2.02245,-9.45579,12.246,-7.20253,-22.4953
2023-03-15 14:37:33:95,-1.28839,-2.03743,-9.43359,12.286,-7.19555,-22.5562
2023-03-15 14:37:33:105,-1.292,-2.05446,-9.43728,12.3264,-7.18545,-22.6144
2023-03-15 14:37:33:115,-1.32127,-2.05632,-9.44849,12.3628,-7.17442,-22.6742
2023-03-15 14:37:33:125,-1.34454,-2.04595,-9.44392,12.4001,-7.15803,-22.7318
2023-03-15 14:37:33:135,-1.31031,-2.06855,-9.44489,12.4374,-7.13665,-22.7913
2023-03-15 14:37:33:145,-1.2754,-2.09635,-9.43416,12.4797,-7.11217,-22.8515
2023-03-15 14:37:33:155,-1.28915,-2.11506,-9.39594,12.5247,-7.08139,-22.9085
2023-03-15 14:37:33:165,-1.31885,-2.14984,-9.35147,12.5716,-7.05222,-22.9612
2023-03-15 14:37:33:175,-1.36304,-2.16949,-9.31804,12.6146,-7.02131,-23.0127
2023-03-15 14:37:33:185,-1.41925,-2.18377,-9.28484,12.6568,-6.98959,-23.0682
2023-03-15 14:37:33:195,-1.46136,-2.19552,-9.24775,12.6928,-6.94924,-23.1322
2023-03-15 14:37:33:205,-1.46501,-2.19264,-9.23758,12.7193,-6.90288,-23.2005
2023-03-15 14:37:33:215,-1.42516,-2.18041,-9.2551,12.7359,-6.84368,-23.2813
2023-03-15 14:37:33:225,-1.3587,-2.16496,-9.30277,12.7448,-6.77964,-23.3693
2023-03-15 14:37:33:235,-1.28238,-2.15431,-9.36108,12.7458,-6.70413,-23.4624
2023-03-15 14:37:33:245,-1.20927,-2.14631,-9.40863,12.7477,-6.62571,-23.5631
2023-03-15 14:37:33:255,-1.10248,-2.16801,-9.47383,12.7515,-6.54479,-23.6673
2023-03-15 14:37:33:265,-0.985473,-2.17185,-9.50022,12.7545,-6.46089,-23.7732
2023-03-15 14:37:33:275,-0.899447,-2.17144,-9.5029,12.7552,-6.37729,-23.8792
2023-03-15 14:37:33:285,-0.869786,-2.17265,-9.49607,12.757,-6.29866,-23.982
2023-03-15 14:37:33:295,-0.87144,-2.18585,-9.49127,12.7584,-6.23016,-24.0793
2023-03-15 14:37:33:305,-0.880169,-2.16952,-9.49434,12.7584,-6.16849,-24.171
2023-03-15 14:37:33:315,-0.89239,-2.14395,-9.50432,12.7582,-6.11719,-24.2568
2023-03-15 14:37:33:325,-0.905405,-2.14959,-9.50764,12.7569,-6.06697,-24.3447
2023-03-15 14:37:33:335,-0.909723,-2.15696,-9.50643,12.7575,-6.01935,-24.4261
2023-03-15 14:37:33:345,-0.866365,-2.16048,-9.4972,12.7569,-5.97182,-24.5043
2023-03-15 14:37:33:355,-0.853102,-2.15822,-9.50644,12.7574,-5.92826,-24.5785
2023-03-15 14:37:33:365,-0.874689,-2.13067,-9.49898,12.7552,-5.88733,-24.6475
2023-03-15 14:37:33:375,-0.87469,-2.11403,-9.4735,12.753,-5.84734,-24.7136
2023-03-15 14:37:33:385,-0.855007,-2.13398,-9.47189,12.7538,-5.80605,-24.7794
2023-03-15 14:37:33:395,-0.832421,-2.14948,-9.48706,12.7584,-5.76574,-24.8415
2023-03-15 14:37:33:405,-0.79667,-2.1433,-9.53032,12.761,-5.72387,-24.9021
2023-03-15 14:37:33:415,-0.730853,-2.14109,-9.56908,12.756,-5.6813,-24.9655
2023-03-15 14:37:33:425,-0.666889,-2.16081,-9.58239,12.7596,-5.64294,-25.0249
2023-03-15 14:37:33:435,-0.618538,-2.1748,-9.5812,12.7668,-5.60848,-25.0763
2023-03-15 14:37:33:445,-0.624799,-2.17535,-9.54729,12.7714,-5.5827,-25.1193
2023-03-15 14:37:33:455,-0.685237,-2.17951,-9.51182,12.7827,-5.56676,-25.1555
2023-03-15 14:37:33:465,-0.7334,-2.19781,-9.48136,12.7929,-5.55233,-25.1853
2023-03-15 14:37:33:475,-0.758339,-2.19306,-9.45695,12.8011,-5.54806,-25.212
2023-03-15 14:37:33:485,-0.755801,-2.18785,-9.43541,12.8043,-5.54187,-25.2334
2023-03-15 14:37:33:495,-0.750376,-2.17941,-9.43389,12.8077,-5.53266,-25.2511
2023-03-15 14:37:33:505,-0.760582,-2.18086,-9.42339,12.812,-5.52563,-25.2622
2023-03-15 14:37:33:515,-0.790825,-2.16175,-9.42884,12.8128,-5.52343,-25.2665
2023-03-15 14:37:33:525,-0.818304,-2.16102,-9.42516,12.8143,-5.52223,-25.2708
2023-03-15 14:37:33:535,-0.830035,-2.1565,-9.43114,12.8141,-5.52445,-25.2719
2023-03-15 14:37:33:545,-0.846265,-2.14351,-9.46131,12.8145,-5.52571,-25.2735
2023-03-15 14:37:33:555,-0.878036,-2.16071,-9.45407,12.8144,-5.53203,-25.2728
2023-03-15 14:37:33:565,-0.89777,-2.17098,-9.43434,12.8153,-5.53912,-25.2694
2023-03-15 14:37:33:575,-0.927109,-2.19849,-9.43325,12.8134,-5.54639,-25.2659
2023-03-15 14:37:33:585,-0.952342,-2.19735,-9.43006,12.8108,-5.55422,-25.2607
2023-03-15 14:37:33:595,-0.967366,-2.20165,-9.43126,12.8102,-5.5621,-25.2579
2023-03-15 14:37:33:605,-0.959982,-2.21966,-9.4383,12.8041,-5.56806,-25.2553
2023-03-15 14:37:33:615,-0.973815,-2.21837,-9.43678,12.7976,-5.57688,-25.2472
2023-03-15 14:37:33:625,-0.971591,-2.21252,-9.45761,12.7844,-5.5859,-25.2481
2023-03-15 14:37:33:635,-0.966423,-2.20815,-9.46241,12.774,-5.59172,-25.2453
2023-03-15 14:37:33:645,-0.955607,-2.21325,-9.42865,12.7632,-5.59594,-25.2445
2023-03-15 14:37:33:655,-0.951231,-2.21861,-9.41748,12.7503,-5.59666,-25.2376
2023-03-15 14:37:33:665,-0.951409,-2.2063,-9.43125,12.733,-5.59664,-25.2306
2023-03-15 14:37:33:675,-0.953974,-2.16948,-9.45031,12.7122,-5.59316,-25.2179
2023-03-15 14:37:33:685,-0.92581,-2.13106,-9.45948,12.6877,-5.59056,-25.2112
2023-03-15 14:37:33:695,-0.861909,-2.14673,-9.47793,12.6635,-5.58351,-25.2059
2023-03-15 14:37:33:705,-0.845669,-2.13641,-9.50234,12.6436,-5.57615,-25.1937
2023-03-15 14:37:33:715,-0.885814,-2.1074,-9.51172,12.6194,-5.5758,-25.177
2023-03-15 14:37:33:725,-0.949897,-2.1162,-9.49534,12.5963,-5.57833,-25.1629
2023-03-15 14:37:33:735,-1.0086,-2.13008,-9.47275,12.5786,-5.58165,-25.1474
2023-03-15 14:37:33:745,-1.03707,-2.13493,-9.45522,12.5627,-5.58426,-25.1376
2023-03-15 14:37:33:755,-1.04601,-2.13156,-9.4545,12.5469,-5.58588,-25.1327
2023-03-15 14:37:33:765,-1.0297,-2.12915,-9.45484,12.528,-5.58532,-25.1278
2023-03-15 14:37:33:775,-1.00373,-2.12921,-9.444,12.51,-5.58516,-25.1238
2023-03-15 14:37:33:785,-0.981652,-2.11345,-9.47011,12.4892,-5.58308,-25.1267
2023-03-15 14:37:33:795,-0.969005,-2.0915,-9.52489,12.4635,-5.5791,-25.1305
2023-03-15 14:37:33:805,-0.941108,-2.06699,-9.56068,12.4361,-5.576,-25.1357
2023-03-15 14:37:33:815,-0.93527,-2.04324,-9.58886,12.4071,-5.57302,-25.145
2023-03-15 14:37:33:825,-0.921175,-2.02539,-9.60379,12.382,-5.57177,-25.1589
2023-03-15 14:37:33:835,-0.899624,-2.00159,-9.61615,12.3595,-5.57308,-25.1741
2023-03-15 14:37:33:845,-0.880506,-1.98589,-9.63955,12.345,-5.57447,-25.1924
2023-03-15 14:37:33:855,-0.870102,-1.97626,-9.64945,12.3326,-5.57933,-25.2083
2023-03-15 14:37:33:865,-0.855851,-1.97728,-9.63733,12.3255,-5.58713,-25.2238
2023-03-15 14:37:33:875,-0.843809,-1.963,-9.61668,12.3276,-5.59373,-25.243
2023-03-15 14:37:33:885,-0.8443,-1.95712,-9.60145,12.3285,-5.6031,-25.2577
2023-03-15 14:37:33:895,-0.837841,-1.96257,-9.58128,12.3328,-5.60622,-25.2685
2023-03-15 14:37:33:905,-0.83805,-1.97342,-9.55347,12.3409,-5.61244,-25.2702
2023-03-15 14:37:33:915,-0.852543,-1.97117,-9.53198,12.3526,-5.61463,-25.2709
2023-03-15 14:37:33:925,-0.868026,-1.97501,-9.54008,12.3654,-5.61384,-25.2653
2023-03-15 14:37:33:935,-0.855502,-1.96752,-9.55826,12.3748,-5.60872,-25.2541
2023-03-15 14:37:33:945,-0.864546,-1.96975,-9.56613,12.3842,-5.60154,-25.2361
2023-03-15 14:37:33:955,-0.867318,-1.97769,-9.55632,12.3983,-5.59389,-25.2171
2023-03-15 14:37:33:965,-0.840999,-2.00976,-9.55854,12.4174,-5.58907,-25.1953
2023-03-15 14:37:33:975,-0.829392,-2.04362,-9.57255,12.4385,-5.58531,-25.1686
2023-03-15 14:37:33:985,-0.890572,-2.07549,-9.57435,12.4687,-5.59068,-25.138
2023-03-15 14:37:33:995,-0.980372,-2.11096,-9.50175,12.4974,-5.60741,-25.1113
2023-03-15 14:37:34:5,-1.03636,-2.15958,-9.36872,12.5355,-5.63439,-25.0837
2023-03-15 14:37:34:15,-1.05625,-2.20344,-9.286,12.5691,-5.66431,-25.0591
2023-03-15 14:37:34:25,-1.087,-2.2297,-9.2793,12.5869,-5.69591,-25.0368
2023-03-15 14:37:34:35,-1.15517,-2.18818,-9.32813,12.5865,-5.73368,-25.0142
2023-03-15 14:37:34:45,-1.20459,-2.15253,-9.40148,12.5752,-5.77158,-25.0011
2023-03-15 14:37:34:55,-1.20341,-2.12855,-9.48326,12.5579,-5.80575,-24.9939
2023-03-15 14:37:34:65,-1.17556,-2.13669,-9.54169,12.5439,-5.83341,-24.9967
2023-03-15 14:37:34:75,-1.14771,-2.15553,-9.55431,12.5327,-5.86199,-24.998
2023-03-15 14:37:34:85,-1.18149,-2.19942,-9.51527,12.5324,-5.8865,-25.0009
2023-03-15 14:37:34:95,-1.22549,-2.25709,-9.43337,12.5436,-5.91236,-25.0039
2023-03-15 14:37:34:105,-1.27468,-2.30836,-9.3628,12.5614,-5.93863,-25.0151
2023-03-15 14:37:34:115,-1.27213,-2.33069,-9.28676,12.5724,-5.95674,-25.0264
2023-03-15 14:37:34:125,-1.24177,-2.3591,-9.23962,12.5803,-5.96725,-25.0421
2023-03-15 14:37:34:135,-1.19591,-2.35945,-9.20544,12.5762,-5.97172,-25.0618
2023-03-15 14:37:34:145,-1.13089,-2.34421,-9.18729,12.5625,-5.97125,-25.0838
2023-03-15 14:37:34:155,-1.08062,-2.32353,-9.20179,12.5299,-5.96473,-25.1081
2023-03-15 14:37:34:165,-1.05193,-2.28791,-9.24058,12.4856,-5.95539,-25.1324
2023-03-15 14:37:34:175,-1.01808,-2.23396,-9.29509,12.4251,-5.94867,-25.1587
2023-03-15 14:37:34:185,-1.00671,-2.17515,-9.37211,12.3522,-5.94149,-25.1884
2023-03-15 14:37:34:195,-0.970608,-2.12847,-9.46515,12.2765,-5.93146,-25.2159
2023-03-15 14:37:34:205,-0.920781,-2.0835,-9.54154,12.1967,-5.92216,-25.2444
2023-03-15 14:37:34:215,-0.894975,-2.03464,-9.60016,12.1189,-5.91433,-25.2716
2023-03-15 14:37:34:225,-0.900985,-2.00905,-9.60883,12.045,-5.90877,-25.2894
2023-03-15 14:37:34:235,-0.916074,-2.00796,-9.55901,11.979,-5.90031,-25.3061
2023-03-15 14:37:34:245,-0.924227,-2.02419,-9.51113,11.9227,-5.89326,-25.3146
2023-03-15 14:37:34:255,-0.929615,-2.01384,-9.4699,11.868,-5.88123,-25.3121
2023-03-15 14:37:34:265,-0.995478,-1.99577,-9.40981,11.8138,-5.87123,-25.3059
2023-03-15 14:37:34:275,-1.01944,-1.98193,-9.37546,11.7555,-5.86391,-25.2981
2023-03-15 14:37:34:285,-1.02203,-1.9567,-9.37879,11.6884,-5.85074,-25.2898
2023-03-15 14:37:34:295,-1.045,-1.9371,-9.43408,11.6136,-5.83757,-25.2869
2023-03-15 14:37:34:305,-1.04208,-1.90685,-9.50299,11.5309,-5.82195,-25.2854
2023-03-15 14:37:34:315,-0.991762,-1.85872,-9.55383,11.4468,-5.80756,-25.2915
2023-03-15 14:37:34:325,-0.897852,-1.8384,-9.6174,11.3605,-5.79125,-25.302
2023-03-15 14:37:34:335,-0.840865,-1.82036,-9.67213,11.2779,-5.77013,-25.3111
2023-03-15 14:37:34:345,-0.839124,-1.81216,-9.66936,11.2006,-5.75559,-25.321
2023-03-15 14:37:34:355,-0.855176,-1.83711,-9.5983,11.1308,-5.74979,-25.3328
2023-03-15 14:37:34:365,-0.867664,-1.86083,-9.52322,11.0709,-5.74378,-25.3448
2023-03-15 14:37:34:375,-0.88091,-1.88563,-9.47418,11.0104,-5.73816,-25.3502
2023-03-15 14:37:34:385,-0.872718,-1.89901,-9.43265,10.9474,-5.73662,-25.3593
2023-03-15 14:37:34:395,-0.889552,-1.88999,-9.39568,10.8773,-5.73795,-25.3674
2023-03-15 14:37:34:405,-0.873072,-1.86619,-9.38753,10.7987,-5.73927,-25.373
2023-03-15 14:37:34:415,-0.837767,-1.8474,-9.42686,10.712,-5.73737,-25.3736
2023-03-15 14:37:34:425,-0.835345,-1.76216,-9.51756,10.6207,-5.74476,-25.3714
2023-03-15 14:37:34:435,-0.884864,-1.67642,-9.56171,10.5292,-5.75174,-25.3694
2023-03-15 14:37:34:445,-0.967208,-1.62676,-9.58365,10.4397,-5.76645,-25.3666
2023-03-15 14:37:34:455,-0.999359,-1.59747,-9.57844,10.3551,-5.78229,-25.3662
2023-03-15 14:37:34:465,-1.01021,-1.58043,-9.54132,10.2748,-5.79728,-25.3668
2023-03-15 14:37:34:475,-1.03365,-1.59757,-9.51616,10.1907,-5.81387,-25.3703
2023-03-15 14:37:34:485,-1.05158,-1.57659,-9.48767,10.1055,-5.8301,-25.372
2023-03-15 14:37:34:495,-1.03042,-1.56778,-9.50044,10.014,-5.8424,-25.3748
2023-03-15 14:37:34:505,-1.00453,-1.56296,-9.53124,9.91497,-5.85235,-25.3752
2023-03-15 14:37:34:515,-0.991735,-1.55675,-9.57856,9.80826,-5.85362,-25.3732
2023-03-15 14:37:34:525,-0.947214,-1.55502,-9.64801,9.70215,-5.85499,-25.3682
2023-03-15 14:37:34:535,-0.907915,-1.54287,-9.69588,9.59539,-5.86007,-25.3591
2023-03-15 14:37:34:545,-0.911238,-1.54724,-9.68113,9.49355,-5.86062,-25.3501
2023-03-15 14:37:34:555,-0.97291,-1.57167,-9.61268,9.39754,-5.86695,-25.3356
2023-03-15 14:37:34:565,-1.02219,-1.58431,-9.54353,9.3027,-5.88009,-25.3162
2023-03-15 14:37:34:575,-1.08573,-1.5619,-9.51401,9.20349,-5.89457,-25.2956
2023-03-15 14:37:34:585,-1.14544,-1.50459,-9.50207,9.09727,-5.91187,-25.2858
2023-03-15 14:37:34:595,-1.16962,-1.47902,-9.52215,8.98284,-5.93255,-25.2765
2023-03-15 14:37:34:605,-1.14816,-1.46942,-9.53639,8.87036,-5.95021,-25.2758
2023-03-15 14:37:34:615,-1.16752,-1.44647,-9.53695,8.75242,-5.97309,-25.2774
2023-03-15 14:37:34:625,-1.21236,-1.41627,-9.5276,8.63595,-6.00249,-25.2875
2023-03-15 14:37:34:635,-1.22087,-1.38133,-9.51762,8.51504,-6.0296,-25.3076
2023-03-15 14:37:34:645,-1.20293,-1.33115,-9.56123,8.38854,-6.06173,-25.3328
2023-03-15 14:37:34:655,-1.16883,-1.25938,-9.6327,8.25504,-6.09503,-25.3607
2023-03-15 14:37:34:665,-1.12695,-1.17535,-9.70628,8.11931,-6.12387,-25.396
2023-03-15 14:37:34:675,-1.09119,-1.10793,-9.74091,7.98111,-6.14865,-25.4326
2023-03-15 14:37:34:685,-1.0719,-1.07463,-9.76936,7.8467,-6.166,-25.4646
2023-03-15 14:37:34:695,-1.05746,-1.04189,-9.81666,7.72084,-6.18329,-25.497
2023-03-15 14:37:34:705,-1.0539,-0.99945,-9.87575,7.60102,-6.19093,-25.5287
2023-03-15 14:37:34:715,-1.06646,-0.957523,-9.88565,7.49269,-6.19701,-25.564
2023-03-15 14:37:34:725,-1.08215,-0.991097,-9.86178,7.39831,-6.19965,-25.604
2023-03-15 14:37:34:735,-1.06563,-1.03121,-9.83489,7.3214,-6.19593,-25.6447
2023-03-15 14:37:34:745,-1.00229,-1.05228,-9.82587,7.252,-6.19249,-25.6851
2023-03-15 14:37:34:755,-0.94066,-1.09539,-9.85827,7.19569,-6.1843,-25.7232
2023-03-15 14:37:34:765,-0.877358,-1.10199,-9.88511,7.14797,-6.18249,-25.7588
2023-03-15 14:37:34:775,-0.873993,-1.09085,-9.85639,7.10798,-6.18725,-25.7878
2023-03-15 14:37:34:785,-0.933923,-1.09555,-9.80729,7.08125,-6.20636,-25.8098
2023-03-15 14:37:34:795,-1.0266,-1.08719,-9.73714,7.0612,-6.22686,-25.8232
2023-03-15 14:37:34:805,-1.09597,-1.08893,-9.66792,7.04375,-6.24934,-25.8342
2023-03-15 14:37:34:815,-1.14156,-1.0732,-9.65284,7.02073,-6.27341,-25.8349
2023-03-15 14:37:34:825,-1.15775,-1.04307,-9.6744,6.99177,-6.28863,-25.8301
2023-03-15 14:37:34:835,-1.14026,-0.992238,-9.72621,6.95838,-6.30017,-25.821
2023-03-15 14:37:34:845,-1.13072,-0.936875,-9.81375,6.9201,-6.30018,-25.8132
2023-03-15 14:37:34:855,-1.12054,-0.898953,-9.918,6.88472,-6.2912,-25.8023
2023-03-15 14:37:34:865,-1.05103,-0.890772,-9.96292,6.86002,-6.27804,-25.7931
2023-03-15 14:37:34:875,-0.99023,-0.915993,-9.9622,6.85316,-6.26093,-25.7797
2023-03-15 14:37:34:885,-0.953501,-0.965996,-9.8992,6.85986,-6.24397,-25.7634
2023-03-15 14:37:34:895,-0.929113,-1.04168,-9.8176,6.88533,-6.22502,-25.7421
2023-03-15 14:37:34:905,-0.905312,-1.07496,-9.7375,6.91715,-6.20785,-25.7094
2023-03-15 14:37:34:915,-0.864275,-1.12475,-9.67803,6.95291,-6.1921,-25.6725
2023-03-15 14:37:34:925,-0.808987,-1.13467,-9.65924,6.98987,-6.17712,-25.6234
2023-03-15 14:37:34:935,-0.748321,-1.11964,-9.69817,7.01935,-6.16263,-25.5679
2023-03-15 14:37:34:945,-0.745417,-1.07229,-9.73358,7.04591,-6.15,-25.5002
2023-03-15 14:37:34:955,-0.929309,-0.970758,-9.80586,7.07201,-6.13719,-25.4249
2023-03-15 14:37:34:965,-0.906994,-0.947001,-9.82453,7.09957,-6.13495,-25.3544
2023-03-15 14:37:34:975,-0.79665,-0.950837,-9.86024,7.13097,-6.12512,-25.2828
2023-03-15 14:37:34:985,-0.868695,-0.931672,-9.88652,7.17052,-6.11013,-25.1952
2023-03-15 14:37:34:995,-0.893966,-0.917914,-9.91002,7.20702,-6.09855,-25.1079
2023-03-15 14:37:35:5,-0.922574,-0.88322,-9.91047,7.25517,-6.0869,-25.018
2023-03-15 14:37:35:15,-0.948639,-0.918745,-9.95173,7.30862,-6.07471,-24.9283
2023-03-15 14:37:35:25,-0.897601,-0.936067,-10.0586,7.37926,-6.06755,-24.8366
2023-03-15 14:37:35:35,-0.840748,-0.95375,-10.0991,7.46606,-6.06034,-24.7538
2023-03-15 14:37:35:45,-0.861767,-1.04804,-9.97528,7.58776,-6.05989,-24.6707
2023-03-15 14:37:35:55,-0.924412,-1.20866,-9.74918,7.73228,-6.07196,-24.5815
2023-03-15 14:37:35:65,-0.958467,-1.35222,-9.55804,7.89499,-6.08976,-24.4884
2023-03-15 14:37:35:75,-1.01435,-1.42567,-9.42205,8.05852,-6.11426,-24.3897
2023-03-15 14:37:35:85,-1.1139,-1.48149,-9.35622,8.20662,-6.14687,-24.2945
2023-03-15 14:37:35:95,-1.202,-1.48512,-9.35471,8.34386,-6.18991,-24.2011
2023-03-15 14:37:35:105,-1.22038,-1.47479,-9.40618,8.4605,-6.22732,-24.1177
2023-03-15 14:37:35:115,-1.17753,-1.49136,-9.50978,8.57037,-6.2636,-24.041
2023-03-15 14:37:35:125,-1.16986,-1.53081,-9.58359,8.6793,-6.29786,-23.9665
2023-03-15 14:37:35:135,-1.18425,-1.59848,-9.56305,8.79432,-6.32871,-23.8977
2023-03-15 14:37:35:145,-1.18048,-1.65084,-9.52209,8.9167,-6.3633,-23.8273
2023-03-15 14:37:35:155,-1.16783,-1.68887,-9.48503,9.03735,-6.39598,-23.7596
2023-03-15 14:37:35:165,-1.177,-1.71048,-9.45967,9.15559,-6.43226,-23.6904
2023-03-15 14:37:35:175,-1.23096,-1.68565,-9.45963,9.27091,-6.46804,-23.624
2023-03-15 14:37:35:185,-1.23575,-1.67828,-9.47001,9.38176,-6.50518,-23.565
2023-03-15 14:37:35:195,-1.25212,-1.72519,-9.44972,9.49581,-6.54162,-23.5026
2023-03-15 14:37:35:205,-1.27373,-1.7747,-9.42336,9.61758,-6.58019,-23.4407
2023-03-15 14:37:35:215,-1.33759,-1.79423,-9.3855,9.73899,-6.61547,-23.3792
2023-03-15 14:37:35:225,-1.36745,-1.80966,-9.35728,9.85353,-6.64649,-23.319
2023-03-15 14:37:35:235,-1.37503,-1.83685,-9.28517,9.95772,-6.67355,-23.2618
2023-03-15 14:37:35:245,-1.38321,-1.84584,-9.22401,10.0483,-6.69855,-23.207
2023-03-15 14:37:35:255,-1.39783,-1.83638,-9.2239,10.121,-6.71693,-23.1557
2023-03-15 14:37:35:265,-1.45301,-1.78191,-9.2675,10.1664,-6.73474,-23.1069
2023-03-15 14:37:35:275,-1.47545,-1.71571,-9.34161,10.192,-6.7515,-23.0711
2023-03-15 14:37:35:285,-1.46976,-1.64824,-9.41862,10.1951,-6.75946,-23.0457
2023-03-15 14:37:35:295,-1.42633,-1.58621,-9.49754,10.1868,-6.75746,-23.0329
2023-03-15 14:37:35:305,-1.35139,-1.53225,-9.55338,10.1722,-6.74943,-23.0281
2023-03-15 14:37:35:315,-1.27879,-1.51289,-9.58305,10.1525,-6.73566,-23.0319
2023-03-15 14:37:35:325,-1.20418,-1.47836,-9.60031,10.1327,-6.72253,-23.0434
2023-03-15 14:37:35:335,-1.11284,-1.4457,-9.64365,10.1132,-6.70547,-23.0592
2023-03-15 14:37:35:345,-1.04508,-1.42773,-9.6873,10.0947,-6.68125,-23.0764
2023-03-15 14:37:35:355,-1.0504,-1.42703,-9.69942,10.0822,-6.65879,-23.0855
2023-03-15 14:37:35:365,-1.07408,-1.43491,-9.7221,10.0738,-6.6408,-23.0938
2023-03-15 14:37:35:375,-1.04187,-1.47734,-9.76782,10.0749,-6.61851,-23.1027
2023-03-15 14:37:35:385,-0.992065,-1.49651,-9.81402,10.0833,-6.60156,-23.1123
2023-03-15 14:37:35:395,-0.944286,-1.53148,-9.79819,10.1074,-6.58377,-23.1215
2023-03-15 14:37:35:405,-0.92947,-1.59169,-9.70537,10.1495,-6.574,-23.1247
2023-03-15 14:37:35:415,-0.975284,-1.67198,-9.60524,10.2016,-6.57278,-23.1253
2023-03-15 14:37:35:425,-1.05394,-1.73022,-9.53286,10.2595,-6.57655,-23.1221
2023-03-15 14:37:35:435,-1.14767,-1.75328,-9.49217,10.316,-6.5931,-23.1157
2023-03-15 14:37:35:445,-1.21018,-1.76655,-9.4736,10.3649,-6.61128,-23.1139
2023-03-15 14:37:35:455,-1.22358,-1.76233,-9.47649,10.4104,-6.62823,-23.1147
2023-03-15 14:37:35:465,-1.21078,-1.78031,-9.49073,10.4548,-6.63859,-23.1175
2023-03-15 14:37:35:475,-1.18493,-1.80899,-9.49881,10.5015,-6.64493,-23.1184
2023-03-15 14:37:35:485,-1.12422,-1.81655,-9.50606,10.5471,-6.64873,-23.1175
2023-03-15 14:37:35:495,-1.03053,-1.84717,-9.50087,10.5964,-6.64229,-23.1137
2023-03-15 14:37:35:505,-0.93822,-1.88192,-9.51059,10.6442,-6.63285,-23.1023
2023-03-15 14:37:35:515,-0.894631,-1.91175,-9.504,10.6908,-6.62445,-23.0857
2023-03-15 14:37:35:525,-0.966383,-1.91284,-9.48441,10.7391,-6.61859,-23.0555
2023-03-15 14:37:35:535,-1.05873,-1.9011,-9.46541,10.7806,-6.61782,-23.0192
2023-03-15 14:37:35:545,-1.11969,-1.91525,-9.46682,10.8183,-6.62629,-22.9788
2023-03-15 14:37:35:555,-1.19438,-1.90551,-9.47704,10.8519,-6.64031,-22.9406
2023-03-15 14:37:35:565,-1.30085,-1.91708,-9.46386,10.8834,-6.65832,-22.9037
2023-03-15 14:37:35:575,-1.37288,-1.94553,-9.43919,10.9154,-6.68242,-22.8694
2023-03-15 14:37:35:585,-1.39018,-1.94612,-9.44096,10.9445,-6.70241,-22.8434
2023-03-15 14:37:35:595,-1.37774,-1.95324,-9.45046,10.9747,-6.71542,-22.8216
2023-03-15 14:37:35:605,-1.39396,-1.97675,-9.3902,11.0051,-6.72847,-22.8052
2023-03-15 14:37:35:615,-1.41628,-2.01905,-9.32208,11.0364,-6.74119,-22.7889
2023-03-15 14:37:35:625,-1.43789,-2.02553,-9.24764,11.063,-6.74971,-22.7771
2023-03-15 14:37:35:635,-1.44529,-2.02545,-9.22622,11.0742,-6.75565,-22.771
2023-03-15 14:37:35:645,-1.41013,-1.97687,-9.26993,11.0746,-6.75248,-22.7669
2023-03-15 14:37:35:655,-1.31843,-1.91927,-9.38341,11.0527,-6.73907,-22.7661
2023-03-15 14:37:35:665,-1.19824,-1.86219,-9.50465,11.0235,-6.72343,-22.7714
2023-03-15 14:37:35:675,-1.10175,-1.82874,-9.61165,10.989,-6.70381,-22.7766
2023-03-15 14:37:35:685,-1.09836,-1.83424,-9.68007,10.9599,-6.69008,-22.7805
2023-03-15 14:37:35:695,-1.17648,-1.81068,-9.687,10.9368,-6.68643,-22.7882
2023-03-15 14:37:35:705,-1.32331,-1.7998,-9.64024,10.9201,-6.69305,-22.7968
2023-03-15 14:37:35:715,-1.44623,-1.80318,-9.57305,10.9063,-6.70409,-22.8118
2023-03-15 14:37:35:725,-1.49323,-1.8095,-9.50565,10.8983,-6.71348,-22.8385
2023-03-15 14:37:35:735,-1.47584,-1.80824,-9.45877,10.8925,-6.71582,-22.8733
2023-03-15 14:37:35:745,-1.39951,-1.79787,-9.45962,10.883,-6.70468,-22.9143
2023-03-15 14:37:35:755,-1.2993,-1.75905,-9.49356,10.8677,-6.68217,-22.9629
2023-03-15 14:37:35:765,-1.17418,-1.72122,-9.58539,10.8475,-6.64445,-23.0187
2023-03-15 14:37:35:775,-1.01672,-1.70547,-9.67223,10.8273,-6.59807,-23.071
2023-03-15 14:37:35:785,-0.886249,-1.71808,-9.72312,10.8175,-6.5478,-23.1237
2023-03-15 14:37:35:795,-0.836478,-1.72855,-9.73365,10.8166,-6.50123,-23.1683
2023-03-15 14:37:35:805,-0.86249,-1.74819,-9.68986,10.8271,-6.46201,-23.2054
2023-03-15 14:37:35:815,-0.89788,-1.81125,-9.6008,10.8467,-6.42492,-23.2365
2023-03-15 14:37:35:825,-0.936691,-1.89267,-9.51177,10.879,-6.38598,-23.2593
2023-03-15 14:37:35:835,-0.962334,-1.93248,-9.42324,10.9127,-6.34955,-23.2721
2023-03-15 14:37:35:845,-0.923709,-1.95332,-9.37266,10.9455,-6.30422,-23.2788
2023-03-15 14:37:35:855,-0.882941,-1.96476,-9.38286,10.9657,-6.2639,-23.2724
2023-03-15 14:37:35:865,-0.88627,-1.94464,-9.40337,10.9822,-6.21926,-23.2657
2023-03-15 14:37:35:875,-0.889841,-1.94823,-9.43196,10.9928,-6.17513,-23.2571
2023-03-15 14:37:35:885,-0.848475,-1.9436,-9.45758,11,-6.13582,-23.2437
2023-03-15 14:37:35:895,-0.86067,-1.95141,-9.48208,11.0042,-6.10446,-23.2284
2023-03-15 14:37:35:905,-0.94238,-1.94015,-9.47203,11.0047,-6.07313,-23.2042
2023-03-15 14:37:35:915,-0.984287,-1.9538,-9.45205,11.0028,-6.05158,-23.1851
2023-03-15 14:37:35:925,-1.00149,-1.95235,-9.45057,11.0024,-6.03383,-23.1666
2023-03-15 14:37:35:935,-1.02788,-1.93753,-9.46061,10.9954,-6.01616,-23.1514
2023-03-15 14:37:35:945,-1.03446,-1.93711,-9.44739,10.9868,-6.00113,-23.1407
2023-03-15 14:37:35:955,-1.02677,-1.9227,-9.43927,10.9747,-5.98969,-23.1324
2023-03-15 14:37:35:965,-1.05519,-1.90669,-9.46153,10.9548,-5.97984,-23.1283
2023-03-15 14:37:35:975,-1.09205,-1.89214,-9.47501,10.9297,-5.97891,-23.1284
2023-03-15 14:37:35:985,-1.10277,-1.87338,-9.48444,10.9054,-5.97564,-23.1363
2023-03-15 14:37:35:995,-1.08729,-1.86649,-9.50663,10.8794,-5.9733,-23.1436
2023-03-15 14:37:36:5,-1.08311,-1.83761,-9.50463,10.8469,-5.97288,-23.1596
2023-03-15 14:37:36:15,-1.09342,-1.79866,-9.49521,10.8155,-5.97314,-23.179
2023-03-15 14:37:36:25,-1.12102,-1.77546,-9.49942,10.7762,-5.97142,-23.2028
2023-03-15 14:37:36:35,-1.10489,-1.73605,-9.52584,10.7331,-5.9694,-23.2288
2023-03-15 14:37:36:45,-1.06845,-1.69522,-9.57617,10.6895,-5.96224,-23.2649
2023-03-15 14:37:36:55,-1.02332,-1.6828,-9.63229,10.6421,-5.95382,-23.2993
2023-03-15 14:37:36:65,-0.958265,-1.67441,-9.68114,10.6007,-5.93993,-23.3356
2023-03-15 14:37:36:75,-0.880073,-1.69399,-9.71789,10.5687,-5.92241,-23.3749
2023-03-15 14:37:36:85,-0.810431,-1.68323,-9.71997,10.543,-5.909,-23.4113
2023-03-15 14:37:36:95,-0.788918,-1.69285,-9.69012,10.5201,-5.89805,-23.4394
2023-03-15 14:37:36:105,-0.829033,-1.698,-9.65899,10.5006,-5.89196,-23.4609
2023-03-15 14:37:36:115,-0.876305,-1.6875,-9.63673,10.482,-5.88936,-23.4762
2023-03-15 14:37:36:125,-0.922692,-1.65388,-9.6709,10.4578,-5.89102,-23.4887
2023-03-15 14:37:36:135,-0.942373,-1.62645,-9.69924,10.435,-5.89281,-23.4992
2023-03-15 14:37:36:145,-0.947095,-1.62891,-9.66534,10.4167,-5.89607,-23.509
2023-03-15 14:37:36:155,-0.942295,-1.65674,-9.60511,10.4078,-5.89871,-23.5159
2023-03-15 14:37:36:165,-0.954351,-1.67874,-9.56747,10.4037,-5.899,-23.5165
2023-03-15 14:37:36:175,-0.993185,-1.69125,-9.54395,10.3979,-5.89955,-23.5148
2023-03-15 14:37:36:185,-1.02971,-1.69627,-9.52796,10.3883,-5.90041,-23.5088
2023-03-15 14:37:36:195,-1.06029,-1.70404,-9.50496,10.3807,-5.9009,-23.5078
2023-03-15 14:37:36:205,-1.08868,-1.70589,-9.48298,10.3709,-5.90516,-23.5051
2023-03-15 14:37:36:215,-1.10844,-1.70749,-9.47132,10.3601,-5.91043,-23.5048
2023-03-15 14:37:36:225,-1.10067,-1.71044,-9.51124,10.3518,-5.91352,-23.5087
2023-03-15 14:37:36:235,-1.09254,-1.69858,-9.54296,10.3401,-5.91615,-23.5147
2023-03-15 14:37:36:245,-1.04697,-1.699,-9.56891,10.3304,-5.91051,-23.5237
2023-03-15 14:37:36:255,-0.976217,-1.7236,-9.57228,10.3248,-5.89797,-23.5339
2023-03-15 14:37:36:265,-0.906306,-1.74121,-9.5618,10.3198,-5.88411,-23.5444
2023-03-15 14:37:36:275,-0.888545,-1.75089,-9.56049,10.3178,-5.87679,-23.5493
2023-03-15 14:37:36:285,-0.929307,-1.76613,-9.53863,10.3137,-5.87216,-23.5485
2023-03-15 14:37:36:295,-0.986343,-1.77398,-9.48193,10.3088,-5.87192,-23.5447
2023-03-15 14:37:36:305,-1.06352,-1.77751,-9.43728,10.2964,-5.87917,-23.5395
2023-03-15 14:37:36:315,-1.11564,-1.75156,-9.45837,10.2799,-5.88677,-23.5324
2023-03-15 14:37:36:325,-1.16996,-1.69632,-9.52609,10.253,-5.89249,-23.5292
2023-03-15 14:37:36:335,-1.1731,-1.64059,-9.54533,10.2238,-5.89409,-23.5354
2023-03-15 14:37:36:345,-1.10928,-1.65529,-9.55249,10.2004,-5.89349,-23.5447
2023-03-15 14:37:36:355,-1.03277,-1.63822,-9.589,10.1773,-5.8859,-23.5564
2023-03-15 14:37:36:365,-1.02869,-1.60195,-9.63743,10.1496,-5.8777,-23.5701
2023-03-15 14:37:36:375,-1.04627,-1.58064,-9.65853,10.1226,-5.8719,-23.586
2023-03-15 14:37:36:385,-1.04939,-1.56303,-9.65234,10.1007,-5.86302,-23.6058
2023-03-15 14:37:36:395,-1.02078,-1.57352,-9.6306,10.0854,-5.85524,-23.6275
2023-03-15 14:37:36:405,-1.00427,-1.58262,-9.63737,10.0708,-5.84626,-23.6479
2023-03-15 14:37:36:415,-0.954336,-1.60672,-9.64678,10.0603,-5.83637,-23.6671
2023-03-15 14:37:36:425,-0.924262,-1.62237,-9.63971,10.0528,-5.82272,-23.6875
2023-03-15 14:37:36:435,-0.936042,-1.63546,-9.60057,10.0484,-5.81196,-23.7021
2023-03-15 14:37:36:445,-0.93751,-1.65087,-9.56186,10.0453,-5.8004,-23.7125
2023-03-15 14:37:36:455,-0.940714,-1.65166,-9.54965,10.0433,-5.79009,-23.7219
2023-03-15 14:37:36:465,-0.93945,-1.65726,-9.55807,10.0364,-5.78101,-23.7282
2023-03-15 14:37:36:475,-0.93762,-1.65501,-9.56881,10.0269,-5.77081,-23.7341
2023-03-15 14:37:36:485,-0.928228,-1.64488,-9.5955,10.0167,-5.76613,-23.7398
2023-03-15 14:37:36:495,-0.935516,-1.62034,-9.62517,10.0038,-5.76231,-23.7426
2023-03-15 14:37:36:505,-0.937753,-1.6084,-9.63608,9.99129,-5.75914,-23.7436
2023-03-15 14:37:36:515,-0.966024,-1.60288,-9.63606,9.9786,-5.76266,-23.7481
2023-03-15 14:37:36:525,-0.98925,-1.58989,-9.64472,9.96523,-5.76851,-23.7477
2023-03-15 14:37:36:535,-1.00062,-1.58679,-9.66888,9.96047,-5.76948,-23.7517
2023-03-15 14:37:36:545,-1.00932,-1.6077,-9.66657,9.95724,-5.77145,-23.7561
2023-03-15 14:37:36:555,-0.9625,-1.62606,-9.66868,9.95826,-5.76857,-23.7571
2023-03-15 14:37:36:565,-0.913782,-1.62639,-9.68298,9.95963,-5.76434,-23.7556
2023-03-15 14:37:36:575,-0.911355,-1.62226,-9.68903,9.96397,-5.75514,-23.7475
2023-03-15 14:37:36:585,-0.928562,-1.63129,-9.66292,9.97407,-5.74812,-23.7398
2023-03-15 14:37:36:595,-0.940087,-1.64398,-9.63376,9.98794,-5.74559,-23.7309
2023-03-15 14:37:36:605,-0.938788,-1.67023,-9.57651,10.0036,-5.73994,-23.7186
2023-03-15 14:37:36:615,-0.957596,-1.69006,-9.54797,10.0225,-5.73584,-23.7082
2023-03-15 14:37:36:625,-0.959967,-1.69195,-9.54388,10.0365,-5.73124,-23.6993
2023-03-15 14:37:36:635,-0.962113,-1.68709,-9.54826,10.0525,-5.73375,-23.6906
2023-03-15 14:37:36:645,-0.974216,-1.69317,-9.5357,10.0701,-5.73512,-23.6813
2023-03-15 14:37:36:655,-0.991086,-1.70818,-9.53552,10.0841,-5.73459,-23.6728
2023-03-15 14:37:36:665,-0.981694,-1.72093,-9.53799,10.0991,-5.73378,-23.6678
2023-03-15 14:37:36:675,-0.971088,-1.73489,-9.51855,10.1133,-5.73662,-23.6635
2023-03-15 14:37:36:685,-0.995008,-1.70533,-9.50888,10.1266,-5.73986,-23.6615
2023-03-15 14:37:36:695,-1.00286,-1.71367,-9.48911,10.1384,-5.74446,-23.6603
2023-03-15 14:37:36:705,-1.00668,-1.73865,-9.49455,10.1502,-5.74668,-23.6582
2023-03-15 14:37:36:715,-1.00992,-1.72947,-9.49951,10.1585,-5.7471,-23.6579
2023-03-15 14:37:36:725,-0.987468,-1.71123,-9.5267,10.166,-5.7439,-23.6564
2023-03-15 14:37:36:735,-0.969287,-1.72089,-9.5438,10.1731,-5.74083,-23.6616
2023-03-15 14:37:36:745,-0.965126,-1.72665,-9.55193,10.1809,-5.73205,-23.6636
2023-03-15 14:37:36:755,-0.918371,-1.71928,-9.57543,10.1859,-5.7263,-23.6635
2023-03-15 14:37:36:765,-0.890395,-1.71847,-9.58708,10.1959,-5.71646,-23.6622
2023-03-15 14:37:36:775,-0.900488,-1.73163,-9.5262,10.2044,-5.70576,-23.6571
2023-03-15 14:37:36:785,-0.904819,-1.79394,-9.4141,10.2134,-5.69507,-23.6458
2023-03-15 14:37:36:795,-0.905224,-1.84707,-9.33844,10.2212,-5.68214,-23.6309
2023-03-15 14:37:36:805,-0.933025,-1.81236,-9.32785,10.217,-5.66625,-23.6128
2023-03-15 14:37:36:815,-0.930332,-1.77821,-9.38007,10.1939,-5.65633,-23.5984
2023-03-15 14:37:36:825,-0.927041,-1.74447,-9.49519,10.1594,-5.64335,-23.5877
2023-03-15 14:37:36:835,-0.971996,-1.66628,-9.59291,10.1109,-5.64051,-23.5775
2023-03-15 14:37:36:845,-1.08572,-1.62328,-9.64484,10.0623,-5.64588,-23.5726
2023-03-15 14:37:36:855,-1.20735,-1.60579,-9.67694,10.014,-5.65103,-23.5783
2023-03-15 14:37:36:865,-1.28139,-1.54224,-9.70708,9.96809,-5.64967,-23.5864
2023-03-15 14:37:36:875,-1.29458,-1.5003,-9.71551,9.92582,-5.64294,-23.605
2023-03-15 14:37:36:885,-1.23084,-1.4941,-9.72586,9.8914,-5.62663,-23.633
2023-03-15 14:37:36:895,-1.15037,-1.49135,-9.72802,9.86457,-5.60226,-23.6711
2023-03-15 14:37:36:905,-1.09367,-1.4815,-9.75333,9.84632,-5.5699,-23.7133
2023-03-15 14:37:36:915,-1.01766,-1.47042,-9.76488,9.83433,-5.53443,-23.7548
2023-03-15 14:37:36:925,-0.895477,-1.49388,-9.7486,9.83147,-5.4989,-23.8063
2023-03-15 14:37:36:935,-0.828626,-1.53504,-9.68327,9.83694,-5.46293,-23.8521
2023-03-15 14:37:36:945,-0.83238,-1.5917,-9.62898,9.84827,-5.43561,-23.8892
2023-03-15 14:37:36:955,-0.827057,-1.63942,-9.57986,9.86155,-5.40646,-23.9245
2023-03-15 14:37:36:965,-0.793545,-1.66868,-9.53064,9.87261,-5.38536,-23.9598
2023-03-15 14:37:36:975,-0.767249,-1.67602,-9.52642,9.87897,-5.37009,-23.9892
2023-03-15 14:37:36:985,-0.732236,-1.65477,-9.55983,9.87793,-5.35635,-24.0139
2023-03-15 14:37:36:995,-0.712821,-1.63127,-9.60163,9.87185,-5.34293,-24.0337
2023-03-15 14:37:37:5,-0.713195,-1.64366,-9.58603,9.8656,-5.33566,-24.0469
2023-03-15 14:37:37:15,-0.73866,-1.66178,-9.5537,9.86478,-5.33331,-24.0525
2023-03-15 14:37:37:25,-0.766584,-1.67833,-9.52516,9.86119,-5.33339,-24.0541
2023-03-15 14:37:37:35,-0.786495,-1.68548,-9.51657,9.8595,-5.33327,-24.0502
2023-03-15 14:37:37:45,-0.818652,-1.69798,-9.50278,9.85674,-5.33904,-24.0424
2023-03-15 14:37:37:55,-0.845213,-1.6976,-9.48336,9.85209,-5.34541,-24.0272
2023-03-15 14:37:37:65,-0.859074,-1.70997,-9.47552,9.84225,-5.35222,-24.0101
2023-03-15 14:37:37:75,-0.891722,-1.70224,-9.4998,9.83371,-5.35873,-23.9883
2023-03-15 14:37:37:85,-0.930765,-1.66761,-9.53009,9.81751,-5.36556,-23.9641
2023-03-15 14:37:37:95,-0.930364,-1.6565,-9.56504,9.80456,-5.37343,-23.9415
2023-03-15 14:37:37:105,-0.917711,-1.65228,-9.58005,9.78919,-5.37932,-23.9189
2023-03-15 14:37:37:115,-0.930214,-1.64152,-9.60756,9.77767,-5.38198,-23.8981
2023-03-15 14:37:37:125,-0.945333,-1.59395,-9.65471,9.76346,-5.38974,-23.8773
2023-03-15 14:37:37:135,-0.951682,-1.57056,-9.67805,9.75085,-5.39029,-23.8535
2023-03-15 14:37:37:145,-0.953173,-1.5714,-9.65207,9.7416,-5.39587,-23.8342
2023-03-15 14:37:37:155,-0.983495,-1.60626,-9.62813,9.74048,-5.39882,-23.8174
2023-03-15 14:37:37:165,-1.03238,-1.60829,-9.62736,9.7448,-5.40324,-23.7948
2023-03-15 14:37:37:175,-1.02781,-1.58667,-9.60041,9.74825,-5.40598,-23.7772
2023-03-15 14:37:37:185,-0.962698,-1.59931,-9.54941,9.75799,-5.40135,-23.7623
2023-03-15 14:37:37:195,-0.905412,-1.64992,-9.53442,9.76677,-5.39323,-23.7469
2023-03-15 14:37:37:205,-0.90336,-1.64093,-9.55404,9.77197,-5.3895,-23.727
2023-03-15 14:37:37:215,-0.94511,-1.63508,-9.5938,9.77264,-5.38958,-23.703
2023-03-15 14:37:37:225,-0.9936,-1.63179,-9.56905,9.77461,-5.39482,-23.6861
2023-03-15 14:37:37:235,-1.00821,-1.64588,-9.56518,9.77754,-5.40249,-23.6722
2023-03-15 14:37:37:245,-1.02406,-1.64307,-9.575,9.77608,-5.40484,-23.6555
2023-03-15 14:37:37:255,-1.03325,-1.63833,-9.56341,9.77577,-5.40801,-23.6421
2023-03-15 14:37:37:265,-1.05334,-1.65857,-9.55661,9.77279,-5.41016,-23.6306
2023-03-15 14:37:37:275,-1.06806,-1.6256,-9.57253,9.76596,-5.40926,-23.6214
2023-03-15 14:37:37:285,-1.05635,-1.59765,-9.63966,9.761,-5.40802,-23.6184
2023-03-15 14:37:37:295,-1.02725,-1.55944,-9.67603,9.75444,-5.40605,-23.6123
2023-03-15 14:37:37:305,-0.992038,-1.5454,-9.67703,9.75323,-5.3913,-23.6085
2023-03-15 14:37:37:315,-0.963819,-1.59418,-9.64267,9.759,-5.37297,-23.6026
2023-03-15 14:37:37:325,-0.965586,-1.62433,-9.56987,9.77261,-5.35054,-23.5857
2023-03-15 14:37:37:335,-0.963067,-1.66356,-9.53359,9.7856,-5.32595,-23.567
2023-03-15 14:37:37:345,-0.942343,-1.66052,-9.54526,9.79334,-5.30298,-23.5476
2023-03-15 14:37:37:355,-0.893246,-1.64885,-9.55297,9.79809,-5.27587,-23.5259
2023-03-15 14:37:37:365,-0.86904,-1.66837,-9.55889,9.79947,-5.24245,-23.5086
2023-03-15 14:37:37:375,-0.870612,-1.65729,-9.57742,9.79712,-5.21641,-23.4843
2023-03-15 14:37:37:385,-0.876138,-1.62114,-9.61902,9.79105,-5.19356,-23.4612
2023-03-15 14:37:37:395,-0.870445,-1.6011,-9.67144,9.78457,-5.1722,-23.4389
2023-03-15 14:37:37:405,-0.870109,-1.58898,-9.66923,9.7826,-5.14902,-23.418
2023-03-15 14:37:37:415,-0.888015,-1.60411,-9.65624,9.78786,-5.13166,-23.3976
2023-03-15 14:37:37:425,-0.912441,-1.63096,-9.64262,9.79754,-5.113,-23.3779
2023-03-15 14:37:37:435,-0.900645,-1.60702,-9.63685,9.80955,-5.0976,-23.3604
2023-03-15 14:37:37:445,-0.877177,-1.61402,-9.60046,9.82461,-5.0877,-23.349
2023-03-15 14:37:37:455,-0.875447,-1.67799,-9.49603,9.8484,-5.07305,-23.34
2023-03-15 14:37:37:465,-0.896075,-1.75181,-9.40026,9.87125,-5.06131,-23.3238
2023-03-15 14:37:37:475,-0.8729,-1.7742,-9.3732,9.8862,-5.04494,-23.3084
2023-03-15 14:37:37:485,-0.820854,-1.74831,-9.44854,9.88675,-5.02933,-23.2951
2023-03-15 14:37:37:495,-0.785941,-1.72591,-9.59233,9.87491,-5.01236,-23.2885
2023-03-15 14:37:37:505,-0.796891,-1.64299,-9.75421,9.85849,-5.0027,-23.2798
2023-03-15 14:37:37:515,-0.794437,-1.54037,-9.82576,9.84392,-4.99439,-23.271
2023-03-15 14:37:37:525,-0.780562,-1.62146,-9.78022,9.84601,-4.98625,-23.2713
2023-03-15 14:37:37:535,-0.794823,-1.62378,-9.664,9.87193,-4.97926,-23.2645
2023-03-15 14:37:37:545,-0.831268,-1.62779,-9.5594,9.89589,-4.97892,-23.2573
2023-03-15 14:37:37:555,-0.87166,-1.66404,-9.53843,9.92117,-4.98127,-23.2502
2023-03-15 14:37:37:565,-0.863317,-1.59518,-9.57076,9.93198,-4.98246,-23.2465
2023-03-15 14:37:37:575,-0.834787,-1.58987,-9.58025,9.94499,-4.97994,-23.2462
2023-03-15 14:37:37:585,-0.814272,-1.65994,-9.55032,9.96082,-4.98194,-23.2426
2023-03-15 14:37:37:595,-0.818004,-1.66242,-9.61155,9.97566,-4.98116,-23.2406
2023-03-15 14:37:37:605,-0.809412,-1.58939,-9.71572,9.98122,-4.98324,-23.2355
2023-03-15 14:37:37:615,-0.807222,-1.57914,-9.74899,9.99371,-4.98691,-23.2333
2023-03-15 14:37:37:625,-0.816649,-1.61656,-9.67314,10.0144,-4.98988,-23.2276
2023-03-15 14:37:37:635,-0.854261,-1.66855,-9.60383,10.0437,-4.99319,-23.2198
2023-03-15 14:37:37:645,-0.873513,-1.68117,-9.57557,10.0711,-4.99342,-23.2064
2023-03-15 14:37:37:655,-0.873752,-1.68421,-9.53359,10.0963,-4.99598,-23.2004
2023-03-15 14:37:37:665,-0.86827,-1.70419,-9.4946,10.1233,-4.99757,-23.1962
2023-03-15 14:37:37:675,-0.873775,-1.73318,-9.47946,10.1424,-4.99836,-23.1941
2023-03-15 14:37:37:685,-0.845888,-1.75545,-9.47936,10.157,-5.00102,-23.1896
2023-03-15 14:37:37:695,-0.806557,-1.74086,-9.52195,10.1645,-4.9986,-23.1864
2023-03-15 14:37:37:705,-0.753227,-1.73342,-9.56905,10.169,-5.00193,-23.1879
2023-03-15 14:37:37:715,-0.742411,-1.73354,-9.58514,10.1676,-5.00832,-23.1834
2023-03-15 14:37:37:725,-0.780767,-1.72889,-9.59231,10.1629,-5.02337,-23.1786
2023-03-15 14:37:37:735,-0.831125,-1.70987,-9.5879,10.1577,-5.0382,-23.1727
2023-03-15 14:37:37:745,-0.86229,-1.69025,-9.59904,10.1527,-5.05504,-23.1691
2023-03-15 14:37:37:755,-0.884511,-1.657,-9.61018,10.1459,-5.07474,-23.1638
2023-03-15 14:37:37:765,-0.898947,-1.63751,-9.59851,10.1378,-5.09109,-23.1627
2023-03-15 14:37:37:775,-0.904763,-1.62955,-9.57391,10.1283,-5.10518,-23.1621
2023-03-15 14:37:37:785,-0.886201,-1.62866,-9.56478,10.1208,-5.11692,-23.1613
2023-03-15 14:37:37:795,-0.865003,-1.61699,-9.57009,10.1135,-5.12563,-23.1612
2023-03-15 14:37:37:805,-0.844552,-1.59423,-9.59192,10.1033,-5.13186,-23.1605
2023-03-15 14:37:37:815,-0.825139,-1.58928,-9.63824,10.0937,-5.14066,-23.1589
2023-03-15 14:37:37:825,-0.847284,-1.5765,-9.6526,10.0903,-5.14845,-23.1552
2023-03-15 14:37:37:835,-0.874409,-1.59403,-9.63803,10.0909,-5.15975,-23.1551
2023-03-15 14:37:37:845,-0.920926,-1.61981,-9.60917,10.0924,-5.17549,-23.1523
2023-03-15 14:37:37:855,-0.942403,-1.63481,-9.56764,10.0997,-5.19202,-23.1525
2023-03-15 14:37:37:865,-0.930218,-1.66565,-9.55552,10.1056,-5.21042,-23.1553
2023-03-15 14:37:37:875,-0.910441,-1.67872,-9.56743,10.1117,-5.22955,-23.1589
2023-03-15 14:37:37:885,-0.89924,-1.67338,-9.57131,10.1126,-5.24204,-23.1632
2023-03-15 14:37:37:895,-0.885111,-1.67299,-9.58501,10.1122,-5.25458,-23.1662
2023-03-15 14:37:37:905,-0.883027,-1.67992,-9.55854,10.1168,-5.27091,-23.1724
2023-03-15 14:37:37:915,-0.87647,-1.67916,-9.5531,10.1144,-5.2867,-23.1785
2023-03-15 14:37:37:925,-0.879064,-1.68127,-9.55655,10.1072,-5.30021,-23.1827
2023-03-15 14:37:37:935,-0.895199,-1.69077,-9.56072,10.1011,-5.31844,-23.1857
2023-03-15 14:37:37:945,-0.916155,-1.67938,-9.55804,10.0899,-5.3375,-23.1878
2023-03-15 14:37:37:955,-0.954496,-1.65888,-9.54849,10.0768,-5.36016,-23.187
2023-03-15 14:37:37:965,-0.934719,-1.65,-9.56351,10.0634,-5.37686,-23.188
2023-03-15 14:37:37:975,-0.893053,-1.64467,-9.59132,10.0507,-5.39159,-23.1896
2023-03-15 14:37:37:985,-0.876856,-1.646,-9.57761,10.0403,-5.407,-23.1915
2023-03-15 14:37:37:995,-0.905283,-1.65297,-9.56575,10.0371,-5.42199,-23.1904
2023-03-15 14:37:38:5,-0.937585,-1.66416,-9.53841,10.0313,-5.43603,-23.1868
2023-03-15 14:37:38:15,-0.965285,-1.67385,-9.54026,10.0221,-5.45158,-23.1829
2023-03-15 14:37:38:25,-0.991244,-1.67143,-9.54634,10.0104,-5.46688,-23.18
2023-03-15 14:37:38:35,-1.00397,-1.65943,-9.53888,9.99767,-5.47868,-23.1794
2023-03-15 14:37:38:45,-0.981708,-1.65444,-9.54758,9.98408,-5.48908,-23.178
2023-03-15 14:37:38:55,-0.966257,-1.64588,-9.57195,9.97013,-5.49641,-23.1808
2023-03-15 14:37:38:65,-0.960088,-1.62745,-9.60433,9.95762,-5.50092,-23.1838
2023-03-15 14:37:38:75,-0.965174,-1.60964,-9.61321,9.9403,-5.50542,-23.1834
2023-03-15 14:37:38:85,-0.972246,-1.599,-9.61482,9.92469,-5.51088,-23.1859
2023-03-15 14:37:38:95,-0.964156,-1.61721,-9.61708,9.90937,-5.51652,-23.1944
2023-03-15 14:37:38:105,-0.983198,-1.62074,-9.61694,9.89236,-5.52585,-23.2026
2023-03-15 14:37:38:115,-0.999561,-1.60974,-9.61285,9.87752,-5.53674,-23.2087
2023-03-15 14:37:38:125,-1.01681,-1.62138,-9.59468,9.86286,-5.54756,-23.2201
2023-03-15 14:37:38:135,-1.02446,-1.61108,-9.58865,9.84984,-5.5604,-23.2318
2023-03-15 14:37:38:145,-1.03141,-1.59821,-9.59245,9.83986,-5.56616,-23.2469
2023-03-15 14:37:38:155,-1.0306,-1.61136,-9.60351,9.82707,-5.5736,-23.265
2023-03-15 14:37:38:165,-1.02317,-1.59776,-9.59773,9.81322,-5.57484,-23.2776
2023-03-15 14:37:38:175,-1.01525,-1.60683,-9.5994,9.80247,-5.57693,-23.2938
2023-03-15 14:37:38:185,-0.995751,-1.59301,-9.60599,9.79432,-5.58059,-23.3105
2023-03-15 14:37:38:195,-1.00115,-1.59503,-9.61867,9.78571,-5.57852,-23.328
2023-03-15 14:37:38:205,-0.978305,-1.5901,-9.62534,9.78033,-5.57445,-23.3456
2023-03-15 14:37:38:215,-0.954836,-1.59164,-9.61876,9.77636,-5.56896,-23.3605
2023-03-15 14:37:38:225,-0.940808,-1.61611,-9.59023,9.77447,-5.56332,-23.377
2023-03-15 14:37:38:235,-0.923749,-1.6361,-9.57375,9.77439,-5.55309,-23.3886
2023-03-15 14:37:38:245,-0.913249,-1.62646,-9.59249,9.77344,-5.54052,-23.3967
2023-03-15 14:37:38:255,-0.903302,-1.61236,-9.60573,9.76897,-5.52672,-23.4027
2023-03-15 14:37:38:265,-0.889866,-1.6113,-9.61423,9.76397,-5.51108,-23.4062
2023-03-15 14:37:38:275,-0.913911,-1.61502,-9.60617,9.76311,-5.50177,-23.408
2023-03-15 14:37:38:285,-0.941393,-1.62943,-9.58235,9.76429,-5.49348,-23.4098
2023-03-15 14:37:38:295,-0.956605,-1.62503,-9.58125,9.76485,-5.48562,-23.4093
2023-03-15 14:37:38:305,-0.975821,-1.59857,-9.59076,9.76725,-5.47725,-23.4154
2023-03-15 14:37:38:315,-0.979951,-1.59305,-9.61201,9.76699,-5.47088,-23.4221
2023-03-15 14:37:38:325,-0.953589,-1.61402,-9.61046,9.76273,-5.4671,-23.4313
2023-03-15 14:37:38:335,-0.929458,-1.6261,-9.60863,9.7651,-5.46078,-23.44
2023-03-15 14:37:38:345,-0.975037,-1.60239,-9.60786,9.76627,-5.45744,-23.4483
2023-03-15 14:37:38:355,-0.99074,-1.59943,-9.60812,9.76317,-5.45069,-23.4572
2023-03-15 14:37:38:365,-0.966434,-1.58867,-9.59642,9.76447,-5.44676,-23.4756
2023-03-15 14:37:38:375,-0.939063,-1.60468,-9.58422,9.7671,-5.44216,-23.4919
2023-03-15 14:37:38:385,-0.921862,-1.60331,-9.58415,9.77261,-5.43551,-23.5093
2023-03-15 14:37:38:395,-0.897701,-1.60351,-9.6017,9.77738,-5.42742,-23.5255
2023-03-15 14:37:38:405,-0.874064,-1.62731,-9.60133,9.77999,-5.42273,-23.5381
2023-03-15 14:37:38:415,-0.839315,-1.67682,-9.59861,9.78423,-5.41669,-23.5472
2023-03-15 14:37:38:425,-0.841308,-1.69559,-9.56887,9.79126,-5.41374,-23.5508
2023-03-15 14:37:38:435,-0.898092,-1.68391,-9.55884,9.79448,-5.41328,-23.5524
2023-03-15 14:37:38:445,-0.942992,-1.68081,-9.57032,9.79191,-5.41663,-23.5529
2023-03-15 14:37:38:455,-0.972538,-1.66997,-9.5867,9.78813,-5.421,-23.5529
2023-03-15 14:37:38:465,-0.995448,-1.6415,-9.6047,9.78222,-5.42171,-23.5569
2023-03-15 14:37:38:475,-0.976234,-1.62568,-9.60328,9.77444,-5.4186,-23.5623
2023-03-15 14:37:38:485,-0.969454,-1.61862,-9.58252,9.77012,-5.41467,-23.5655
2023-03-15 14:37:38:495,-0.969891,-1.60172,-9.57384,9.76728,-5.41101,-23.5699
2023-03-15 14:37:38:505,-0.965608,-1.59653,-9.56628,9.766,-5.4055,-23.5776
2023-03-15 14:37:38:515,-0.967412,-1.60221,-9.55366,9.76633,-5.40056,-23.5829
2023-03-15 14:37:38:525,-0.970508,-1.59467,-9.55293,9.76486,-5.39296,-23.5892
2023-03-15 14:37:38:535,-0.960399,-1.61372,-9.55042,9.76462,-5.38381,-23.5978
2023-03-15 14:37:38:545,-0.946205,-1.62062,-9.56142,9.76532,-5.37647,-23.607
2023-03-15 14:37:38:555,-0.959762,-1.6093,-9.55874,9.76113,-5.36751,-23.6202
2023-03-15 14:37:38:565,-0.962602,-1.60489,-9.57982,9.75645,-5.35774,-23.6331
2023-03-15 14:37:38:575,-0.934884,-1.61009,-9.59972,9.75577,-5.34748,-23.6499
2023-03-15 14:37:38:585,-0.913781,-1.61722,-9.60056,9.75569,-5.33632,-23.6666
2023-03-15 14:37:38:595,-0.925626,-1.62573,-9.61143,9.75564,-5.32882,-23.6815
2023-03-15 14:37:38:605,-0.9344,-1.62307,-9.59878,9.75091,-5.32075,-23.6962
2023-03-15 14:37:38:615,-0.914527,-1.62709,-9.613,9.74622,-5.31528,-23.7107
2023-03-15 14:37:38:625,-0.923279,-1.62499,-9.61974,9.73924,-5.30898,-23.7263
2023-03-15 14:37:38:635,-0.949113,-1.62832,-9.61361,9.73325,-5.30184,-23.7417
2023-03-15 14:37:38:645,-0.940478,-1.61683,-9.6114,9.73297,-5.29186,-23.7566
2023-03-15 14:37:38:655,-0.913772,-1.61608,-9.59837,9.73517,-5.27956,-23.7744
2023-03-15 14:37:38:665,-0.867685,-1.61784,-9.62181,9.73234,-5.26329,-23.7918
2023-03-15 14:37:38:675,-0.831977,-1.61572,-9.6088,9.73361,-5.24986,-23.802
2023-03-15 14:37:38:685,-0.849079,-1.62376,-9.57905,9.73583,-5.23748,-23.8141
2023-03-15 14:37:38:695,-0.861379,-1.65097,-9.55728,9.74567,-5.22543,-23.8259
2023-03-15 14:37:38:705,-0.875365,-1.66187,-9.54464,9.75155,-5.21641,-23.8358
2023-03-15 14:37:38:715,-0.871685,-1.65294,-9.57256,9.75084,-5.20491,-23.8438
2023-03-15 14:37:38:725,-0.873105,-1.64444,-9.5829,9.74456,-5.19356,-23.8548
2023-03-15 14:37:38:735,-0.854865,-1.62938,-9.60555,9.74058,-5.18083,-23.8634
2023-03-15 14:37:38:745,-0.856089,-1.61455,-9.60569,9.73806,-5.16742,-23.8735
2023-03-15 14:37:38:755,-0.845972,-1.58811,-9.6186,9.73342,-5.15568,-23.8852
2023-03-15 14:37:38:765,-0.822506,-1.62426,-9.61882,9.7283,-5.14517,-23.8997
2023-03-15 14:37:38:775,-0.824278,-1.62001,-9.61906,9.72853,-5.13377,-23.9069
2023-03-15 14:37:38:785,-0.84218,-1.62627,-9.59807,9.72427,-5.12443,-23.9145
2023-03-15 14:37:38:795,-0.858098,-1.61489,-9.59854,9.72441,-5.11594,-23.9193
2023-03-15 14:37:38:805,-0.868969,-1.61709,-9.61261,9.72359,-5.11002,-23.9254
2023-03-15 14:37:38:815,-0.874212,-1.60268,-9.62512,9.72377,-5.10551,-23.9294
2023-03-15 14:37:38:825,-0.863037,-1.61019,-9.63194,9.72293,-5.10155,-23.9372
2023-03-15 14:37:38:835,-0.848688,-1.60441,-9.63277,9.72543,-5.09751,-23.9446
2023-03-15 14:37:38:845,-0.837876,-1.61382,-9.63665,9.72899,-5.09059,-23.9505
2023-03-15 14:37:38:855,-0.84506,-1.60215,-9.64126,9.72668,-5.0844,-23.9592
2023-03-15 14:37:38:865,-0.834698,-1.59886,-9.65071,9.72819,-5.07511,-23.9678
2023-03-15 14:37:38:875,-0.828975,-1.61464,-9.61888,9.73259,-5.0689,-23.9718
2023-03-15 14:37:38:885,-0.843939,-1.62392,-9.59433,9.74074,-5.06445,-23.9735
2023-03-15 14:37:38:895,-0.841538,-1.63158,-9.5806,9.74789,-5.05998,-23.9758
2023-03-15 14:37:38:905,-0.817792,-1.6322,-9.57784,9.75101,-5.05465,-23.9778
2023-03-15 14:37:38:915,-0.806774,-1.6413,-9.56371,9.75797,-5.04611,-23.9765
2023-03-15 14:37:38:925,-0.797848,-1.65155,-9.5838,9.76426,-5.0374,-23.9722
2023-03-15 14:37:38:935,-0.797207,-1.6605,-9.56964,9.77273,-5.03273,-23.969
2023-03-15 14:37:38:945,-0.781338,-1.65555,-9.57348,9.77843,-5.02744,-23.9629
2023-03-15 14:37:38:955,-0.766149,-1.68016,-9.56281,9.78691,-5.02264,-23.956
2023-03-15 14:37:38:965,-0.784365,-1.66963,-9.55869,9.79021,-5.0173,-23.9492
2023-03-15 14:37:38:975,-0.802604,-1.66221,-9.56162,9.79163,-5.01504,-23.9439
2023-03-15 14:37:38:985,-0.813155,-1.67884,-9.55583,9.79294,-5.01353,-23.9348
2023-03-15 14:37:38:995,-0.813299,-1.68156,-9.54429,9.79652,-5.01232,-23.9205
2023-03-15 14:37:39:5,-0.810243,-1.66381,-9.53021,9.79955,-5.00823,-23.9138
2023-03-15 14:37:39:15,-0.816415,-1.66033,-9.55662,9.80123,-5.00466,-23.8999
2023-03-15 14:37:39:25,-0.813894,-1.67233,-9.56364,9.79911,-5.00544,-23.8866
2023-03-15 14:37:39:35,-0.793526,-1.67947,-9.55539,9.7979,-5.00384,-23.8737
2023-03-15 14:37:39:45,-0.749771,-1.69994,-9.5619,9.79653,-4.9999,-23.8582
2023-03-15 14:37:39:55,-0.721817,-1.72216,-9.57434,9.79472,-4.99451,-23.8396
2023-03-15 14:37:39:65,-0.745781,-1.70892,-9.5511,9.7902,-4.99549,-23.8152
2023-03-15 14:37:39:75,-0.81386,-1.68937,-9.51828,9.78424,-5.00042,-23.7911
2023-03-15 14:37:39:85,-0.830746,-1.68986,-9.51818,9.7723,-5.0057,-23.7714
2023-03-15 14:37:39:95,-0.850947,-1.68111,-9.55623,9.75801,-5.00847,-23.7482
2023-03-15 14:37:39:105,-0.846467,-1.67131,-9.60656,9.74283,-5.00767,-23.7263
2023-03-15 14:37:39:115,-0.836195,-1.62503,-9.62525,9.72669,-5.00737,-23.704
2023-03-15 14:37:39:125,-0.793311,-1.63405,-9.66363,9.71558,-5.00626,-23.6857
2023-03-15 14:37:39:135,-0.761937,-1.63331,-9.68368,9.70514,-5.00517,-23.6661
2023-03-15 14:37:39:145,-0.780811,-1.62683,-9.66347,9.6975,-5.00952,-23.6429
2023-03-15 14:37:39:155,-0.870806,-1.6208,-9.62458,9.68718,-5.01843,-23.6206
2023-03-15 14:37:39:165,-0.957968,-1.6096,-9.60247,9.67806,-5.03503,-23.5975
2023-03-15 14:37:39:175,-0.989732,-1.59348,-9.62121,9.66648,-5.0509,-23.582
2023-03-15 14:37:39:185,-0.992806,-1.5781,-9.64292,9.64853,-5.06718,-23.5708
2023-03-15 14:37:39:195,-0.986168,-1.5416,-9.65007,9.63763,-5.08203,-23.5666
2023-03-15 14:37:39:205,-0.973863,-1.53844,-9.63633,9.62471,-5.09211,-23.5647
2023-03-15 14:37:39:215,-0.975579,-1.53064,-9.64399,9.61287,-5.10523,-23.5656
2023-03-15 14:37:39:225,-0.973225,-1.5036,-9.66233,9.59774,-5.11451,-23.5666
2023-03-15 14:37:39:235,-0.986341,-1.48699,-9.65935,9.58455,-5.12315,-23.5724
2023-03-15 14:37:39:245,-0.974716,-1.4742,-9.65426,9.5817,-5.12869,-23.5788
2023-03-15 14:37:39:255,-0.949677,-1.49158,-9.6438,9.58028,-5.13093,-23.5873
2023-03-15 14:37:39:265,-0.929951,-1.5068,-9.64255,9.58015,-5.1338,-23.5976
2023-03-15 14:37:39:275,-0.899276,-1.53031,-9.65785,9.58278,-5.13453,-23.6063
2023-03-15 14:37:39:285,-0.879933,-1.54316,-9.65157,9.59104,-5.13091,-23.6127
2023-03-15 14:37:39:295,-0.868689,-1.5514,-9.63932,9.60006,-5.1285,-23.6198
2023-03-15 14:37:39:305,-0.86407,-1.58048,-9.62672,9.61253,-5.12696,-23.6214
2023-03-15 14:37:39:315,-0.852742,-1.60484,-9.60513,9.62599,-5.12506,-23.6233
2023-03-15 14:37:39:325,-0.850211,-1.6273,-9.59652,9.6414,-5.12108,-23.6185
2023-03-15 14:37:39:335,-0.878398,-1.60638,-9.58473,9.65462,-5.11858,-23.6115
2023-03-15 14:37:39:345,-0.884068,-1.61142,-9.58334,9.66415,-5.11579,-23.6053
2023-03-15 14:37:39:355,-0.905661,-1.6268,-9.57988,9.67549,-5.11294,-23.5997
2023-03-15 14:37:39:365,-0.905338,-1.61631,-9.57052,9.68502,-5.10982,-23.5928
2023-03-15 14:37:39:375,-0.880861,-1.60497,-9.57879,9.693,-5.09927,-23.5863
2023-03-15 14:37:39:385,-0.813301,-1.61753,-9.58908,9.70562,-5.08378,-23.5826
2023-03-15 14:37:39:395,-0.786639,-1.63747,-9.55737,9.72104,-5.06707,-23.5728
2023-03-15 14:37:39:405,-0.790171,-1.66374,-9.52287,9.73754,-5.06108,-23.5625
2023-03-15 14:37:39:415,-0.824311,-1.6721,-9.5034,9.75276,-5.05943,-23.5508
2023-03-15 14:37:39:425,-0.832102,-1.6942,-9.50889,9.76443,-5.05501,-23.538
2023-03-15 14:37:39:435,-0.849737,-1.68376,-9.5258,9.77028,-5.04864,-23.5241
2023-03-15 14:37:39:445,-0.853135,-1.66966,-9.52746,9.77611,-5.04672,-23.5112
2023-03-15 14:37:39:455,-0.858507,-1.65917,-9.53898,9.77683,-5.04337,-23.5011
2023-03-15 14:37:39:465,-0.84341,-1.65079,-9.54502,9.77423,-5.04164,-23.4906
2023-03-15 14:37:39:475,-0.818005,-1.63249,-9.575,9.76826,-5.03666,-23.4825
2023-03-15 14:37:39:485,-0.801772,-1.61541,-9.60625,9.76753,-5.03404,-23.4746
2023-03-15 14:37:39:495,-0.784051,-1.61959,-9.63912,9.7584,-5.03123,-23.4643
2023-03-15 14:37:39:505,-0.774576,-1.60984,-9.65486,9.75376,-5.03106,-23.4538
2023-03-15 14:37:39:515,-0.795949,-1.59056,-9.66893,9.75302,-5.03135,-23.4404
2023-03-15 14:37:39:525,-0.833878,-1.58223,-9.66744,9.75327,-5.03506,-23.4285
2023-03-15 14:37:39:535,-0.852789,-1.56548,-9.69882,9.75334,-5.04391,-23.4146
2023-03-15 14:37:39:545,-0.872235,-1.54726,-9.74667,9.75462,-5.05446,-23.4081
2023-03-15 14:37:39:555,-0.888098,-1.51182,-9.79643,9.75826,-5.06002,-23.3995
2023-03-15 14:37:39:565,-0.907016,-1.48693,-9.82176,9.77372,-5.07134,-23.3964
2023-03-15 14:37:39:575,-0.903779,-1.49029,-9.7997,9.79896,-5.08002,-23.3929
2023-03-15 14:37:39:585,-0.923165,-1.51624,-9.7239,9.83786,-5.09189,-23.3904
2023-03-15 14:37:39:595,-0.957545,-1.5725,-9.65589,9.88588,-5.10195,-23.3866
2023-03-15 14:37:39:605,-0.964388,-1.61516,-9.60618,9.93903,-5.11013,-23.3804
2023-03-15 14:37:39:615,-0.947689,-1.66186,-9.53942,9.99515,-5.11581,-23.3784
2023-03-15 14:37:39:625,-0.917723,-1.69001,-9.49081,10.0465,-5.11857,-23.3792
2023-03-15 14:37:39:635,-0.899162,-1.6939,-9.50771,10.09,-5.12355,-23.3774
2023-03-15 14:37:39:645,-0.888653,-1.68257,-9.55721,10.1278,-5.13047,-23.375
2023-03-15 14:37:39:655,-0.874859,-1.66842,-9.58291,10.1557,-5.13283,-23.3733
2023-03-15 14:37:39:665,-0.868165,-1.68299,-9.57065,10.183,-5.13535,-23.3723
2023-03-15 14:37:39:675,-0.862343,-1.70456,-9.54042,10.2143,-5.14139,-23.3701
2023-03-15 14:37:39:685,-0.868361,-1.7185,-9.51821,10.2442,-5.14498,-23.3654
2023-03-15 14:37:39:695,-0.879513,-1.7317,-9.51438,10.2718,-5.15387,-23.3602
2023-03-15 14:37:39:705,-0.884065,-1.74732,-9.5123,10.2943,-5.15901,-23.3537
2023-03-15 14:37:39:715,-0.904793,-1.74336,-9.50675,10.3173,-5.15844,-23.3407
2023-03-15 14:37:39:725,-0.919532,-1.75847,-9.52189,10.337,-5.15812,-23.3323
2023-03-15 14:37:39:735,-0.929346,-1.75139,-9.52782,10.3538,-5.15961,-23.3226
2023-03-15 14:37:39:745,-0.933789,-1.75221,-9.52007,10.3678,-5.15972,-23.3124
2023-03-15 14:37:39:755,-0.921672,-1.75393,-9.51433,10.3844,-5.15869,-23.302
2023-03-15 14:37:39:765,-0.902217,-1.76683,-9.50433,10.3965,-5.15655,-23.2937
2023-03-15 14:37:39:775,-0.895058,-1.76804,-9.51616,10.4086,-5.14923,-23.2854
2023-03-15 14:37:39:785,-0.895027,-1.77623,-9.50744,10.419,-5.14111,-23.276
2023-03-15 14:37:39:795,-0.900014,-1.76988,-9.49451,10.4246,-5.13276,-23.2647
2023-03-15 14:37:39:805,-0.908087,-1.77579,-9.4811,10.4338,-5.12535,-23.2551
2023-03-15 14:37:39:815,-0.910585,-1.77927,-9.48535,10.4374,-5.11596,-23.2461
2023-03-15 14:37:39:825,-0.908999,-1.76414,-9.50816,10.438,-5.10874,-23.2375
2023-03-15 14:37:39:835,-0.895943,-1.74491,-9.53129,10.4348,-5.1005,-23.2334
2023-03-15 14:37:39:845,-0.887056,-1.74536,-9.53811,10.4292,-5.09181,-23.2342
2023-03-15 14:37:39:855,-0.878174,-1.74403,-9.54283,10.4242,-5.08295,-23.2294
2023-03-15 14:37:39:865,-0.879261,-1.72043,-9.55024,10.4165,-5.07681,-23.2296
2023-03-15 14:37:39:875,-0.891395,-1.70552,-9.55871,10.4058,-5.06785,-23.2336
2023-03-15 14:37:39:885,-0.893508,-1.7074,-9.56315,10.3945,-5.06132,-23.2342
2023-03-15 14:37:39:895,-0.882446,-1.71389,-9.59472,10.3904,-5.0537,-23.2354
2023-03-15 14:37:39:905,-0.819251,-1.70252,-9.62084,10.3826,-5.04483,-23.2383
2023-03-15 14:37:39:915,-0.827283,-1.68549,-9.62716,10.3753,-5.03662,-23.2418
2023-03-15 14:37:39:925,-0.87482,-1.67172,-9.62682,10.3709,-5.03235,-23.2454
2023-03-15 14:37:39:935,-0.912801,-1.65982,-9.60887,10.3717,-5.02734,-23.2541
2023-03-15 14:37:39:945,-0.907015,-1.65031,-9.64453,10.3745,-5.01814,-23.2664
2023-03-15 14:37:39:955,-0.866784,-1.65804,-9.69271,10.3794,-5.01112,-23.2823
2023-03-15 14:37:39:965,-0.804627,-1.64594,-9.73895,10.3897,-4.99871,-23.3047
2023-03-15 14:37:39:975,-0.757773,-1.67549,-9.73669,10.4059,-4.98934,-23.3268
2023-03-15 14:37:39:985,-0.746826,-1.70377,-9.69316,10.4342,-4.98878,-23.3455
2023-03-15 14:37:39:995,-0.76448,-1.75664,-9.65611,10.4665,-4.99474,-23.3642
2023-03-15 14:37:40:5,-0.787986,-1.78246,-9.59325,10.4998,-5.00783,-23.3793
2023-03-15 14:37:40:15,-0.845242,-1.78366,-9.53787,10.5278,-5.02753,-23.3959
2023-03-15 14:37:40:25,-0.918301,-1.81307,-9.49062,10.5562,-5.04776,-23.409
2023-03-15 14:37:40:35,-0.963923,-1.78568,-9.47064,10.5763,-5.06811,-23.4207
2023-03-15 14:37:40:45,-0.956558,-1.80563,-9.47038,10.5914,-5.08396,-23.44
2023-03-15 14:37:40:55,-0.926278,-1.80162,-9.45042,10.6012,-5.09078,-23.456
2023-03-15 14:37:40:65,-0.883982,-1.79636,-9.44756,10.6073,-5.09276,-23.4679
2023-03-15 14:37:40:75,-0.872621,-1.80481,-9.45162,10.6048,-5.09307,-23.4762
2023-03-15 14:37:40:85,-0.858268,-1.78469,-9.47321,10.5988,-5.09234,-23.4792
2023-03-15 14:37:40:95,-0.869226,-1.75617,-9.50643,10.5837,-5.08848,-23.4813
2023-03-15 14:37:40:105,-0.900631,-1.74938,-9.52789,10.5702,-5.0828,-23.478
2023-03-15 14:37:40:115,-0.92984,-1.75085,-9.52035,10.5564,-5.07528,-23.4774
2023-03-15 14:37:40:125,-0.941087,-1.74585,-9.53576,10.5441,-5.0656,-23.4792
2023-03-15 14:37:40:135,-0.93933,-1.75377,-9.55489,10.5295,-5.05525,-23.482
2023-03-15 14:37:40:145,-0.921341,-1.73516,-9.57529,10.5137,-5.04253,-23.4883
2023-03-15 14:37:40:155,-0.883877,-1.74782,-9.5667,10.5005,-5.02912,-23.4975
2023-03-15 14:37:40:165,-0.88157,-1.75544,-9.5877,10.4875,-5.02016,-23.5063
2023-03-15 14:37:40:175,-0.892221,-1.74112,-9.60138,10.4723,-5.01199,-23.5229
2023-03-15 14:37:40:185,-0.882228,-1.71762,-9.6003,10.4537,-5.00269,-23.5433
2023-03-15 14:37:40:195,-0.894229,-1.73062,-9.58096,10.4397,-5.00103,-23.5628
2023-03-15 14:37:40:205,-0.935727,-1.73305,-9.5612,10.4268,-4.99819,-23.5839
2023-03-15 14:37:40:215,-0.949954,-1.70878,-9.58357,10.4107,-4.99213,-23.6092
2023-03-15 14:37:40:225,-0.931687,-1.67828,-9.61151,10.3906,-4.98505,-23.638
2023-03-15 14:37:40:235,-0.8716,-1.67316,-9.60526,10.3728,-4.9748,-23.6707
2023-03-15 14:37:40:245,-0.826421,-1.69639,-9.58444,10.3566,-4.9603,-23.7064
2023-03-15 14:37:40:255,-0.823854,-1.71251,-9.56547,10.3398,-4.95253,-23.7357
