Timestamp,Acceleration_x,Acceleration_y,Acceleration_z,roll,pitch,yaw
2023-03-10 00:17:41:989,-1.82218,-3.81664,-8.85459,23.746,-9.90595,84.0844
2023-03-10 00:17:41:997,-1.87993,-3.84514,-8.84597,23.8958,-9.95994,84.0198
2023-03-10 00:17:42:6,-1.87221,-3.89402,-8.82293,24.0438,-10.0084,83.9573
2023-03-10 00:17:42:16,-1.83517,-3.94711,-8.79553,24.1977,-10.0566,83.8957
2023-03-10 00:17:42:27,-1.82889,-3.99287,-8.7789,24.3608,-10.0986,83.8401
2023-03-10 00:17:42:37,-1.82845,-4.04687,-8.74346,24.5238,-10.1362,83.7828
2023-03-10 00:17:42:47,-1.83435,-4.13295,-8.69866,24.6924,-10.1765,83.7279
2023-03-10 00:17:42:57,-1.8893,-4.1926,-8.65429,24.865,-10.2189,83.6783
2023-03-10 00:17:42:67,-1.96092,-4.23444,-8.59676,25.038,-10.2622,83.6305
2023-03-10 00:17:42:77,-2.01662,-4.27803,-8.52933,25.2086,-10.3045,83.5833
2023-03-10 00:17:42:87,-2.01888,-4.32183,-8.48104,25.378,-10.3419,83.5322
2023-03-10 00:17:42:97,-2.00505,-4.35408,-8.45286,25.5395,-10.3673,83.4799
2023-03-10 00:17:42:106,-2.01692,-4.38623,-8.42166,25.6931,-10.3876,83.4237
2023-03-10 00:17:42:116,-2.01947,-4.41452,-8.39925,25.8431,-10.4032,83.3666
2023-03-10 00:17:42:126,-1.99395,-4.44295,-8.36545,25.9907,-10.4102,83.3072
2023-03-10 00:17:42:136,-1.95086,-4.48948,-8.34165,26.1331,-10.4123,83.2427
2023-03-10 00:17:42:147,-1.91972,-4.51534,-8.33949,26.2625,-10.4105,83.1792
2023-03-10 00:17:42:157,-1.91834,-4.52653,-8.32459,26.3849,-10.4076,83.1162
2023-03-10 00:17:42:167,-1.93035,-4.52383,-8.30582,26.5025,-10.4061,83.0488
2023-03-10 00:17:42:177,-1.92962,-4.54487,-8.31083,26.6102,-10.4001,82.9809
2023-03-10 00:17:42:187,-1.90653,-4.56985,-8.28709,26.7122,-10.3903,82.9071
2023-03-10 00:17:42:197,-1.85592,-4.59618,-8.2629,26.8055,-10.3749,82.8329
2023-03-10 00:17:42:207,-1.79579,-4.62869,-8.26238,26.8916,-10.3557,82.7541
2023-03-10 00:17:42:217,-1.73237,-4.64652,-8.28024,26.9651,-10.3343,82.675
2023-03-10 00:17:42:227,-1.6818,-4.62324,-8.33015,27.0277,-10.3099,82.5931
2023-03-10 00:17:42:237,-1.64668,-4.59333,-8.36304,27.0755,-10.2967,82.5112
2023-03-10 00:17:42:247,-1.67588,-4.5527,-8.38356,27.1191,-10.2842,82.4302
2023-03-10 00:17:42:257,-1.74401,-4.53161,-8.39991,27.158,-10.2758,82.3518
2023-03-10 00:17:42:267,-1.75131,-4.51265,-8.41454,27.1896,-10.2694,82.2766
2023-03-10 00:17:42:277,-1.73753,-4.49842,-8.4107,27.225,-10.2576,82.199
2023-03-10 00:17:42:287,-1.70571,-4.51381,-8.37111,27.2559,-10.2442,82.1205
2023-03-10 00:17:42:297,-1.63245,-4.5446,-8.34388,27.2834,-10.2263,82.0463
2023-03-10 00:17:42:307,-1.54839,-4.54422,-8.35239,27.3047,-10.2067,81.9705
2023-03-10 00:17:42:317,-1.51599,-4.49358,-8.38812,27.3087,-10.1905,81.8996
2023-03-10 00:17:42:327,-1.54942,-4.4614,-8.43435,27.3059,-10.1819,81.8359
2023-03-10 00:17:42:336,-1.5995,-4.4281,-8.48935,27.2944,-10.178,81.7825
2023-03-10 00:17:42:346,-1.61731,-4.40129,-8.52655,27.276,-10.176,81.7328
2023-03-10 00:17:42:356,-1.60785,-4.39077,-8.57636,27.2572,-10.1721,81.6887
2023-03-10 00:17:42:366,-1.60267,-4.35999,-8.62315,27.2343,-10.1685,81.6487
2023-03-10 00:17:42:376,-1.60585,-4.33915,-8.64399,27.2103,-10.1632,81.6129
2023-03-10 00:17:42:386,-1.58974,-4.33614,-8.6608,27.188,-10.1614,81.5818
2023-03-10 00:17:42:396,-1.5747,-4.35405,-8.68651,27.1684,-10.1587,81.5586
2023-03-10 00:17:42:406,-1.56513,-4.3643,-8.68469,27.1515,-10.1565,81.535
2023-03-10 00:17:42:417,-1.5943,-4.35284,-8.70376,27.1374,-10.1563,81.5171
2023-03-10 00:17:42:427,-1.58829,-4.33914,-8.70551,27.12,-10.1575,81.5028
2023-03-10 00:17:42:437,-1.54161,-4.32506,-8.71223,27.1057,-10.1522,81.49
2023-03-10 00:17:42:447,-1.50002,-4.33308,-8.70516,27.0962,-10.1531,81.4788
2023-03-10 00:17:42:457,-1.51056,-4.35469,-8.67922,27.0892,-10.1542,81.4681
2023-03-10 00:17:42:467,-1.54211,-4.34028,-8.63863,27.0827,-10.1622,81.4615
2023-03-10 00:17:42:477,-1.51073,-4.34113,-8.6254,27.0794,-10.1689,81.4572
2023-03-10 00:17:42:487,-1.47299,-4.34779,-8.63956,27.0747,-10.1761,81.4514
2023-03-10 00:17:42:497,-1.49184,-4.34147,-8.64978,27.0727,-10.1856,81.4439
2023-03-10 00:17:42:507,-1.56582,-4.32051,-8.65171,27.0737,-10.2041,81.4347
2023-03-10 00:17:42:517,-1.62792,-4.33168,-8.64102,27.0725,-10.2276,81.4247
2023-03-10 00:17:42:527,-1.63761,-4.36801,-8.62151,27.0778,-10.2455,81.4103
2023-03-10 00:17:42:537,-1.54439,-4.39233,-8.59849,27.0858,-10.2615,81.3868
2023-03-10 00:17:42:547,-1.35295,-4.44239,-8.59383,27.0925,-10.2743,81.3589
2023-03-10 00:17:42:557,-1.15578,-4.49624,-8.61193,27.0964,-10.2872,81.3365
2023-03-10 00:17:42:567,-1.03683,-4.55596,-8.6076,27.0947,-10.3187,81.3273
2023-03-10 00:17:42:577,-1.06521,-4.50633,-8.56421,27.0799,-10.3831,81.3392
2023-03-10 00:17:42:587,-1.36411,-4.38774,-8.5453,27.0485,-10.4814,81.3781
2023-03-10 00:17:42:597,-1.78416,-4.27546,-8.54586,27.0103,-10.6128,81.4464
2023-03-10 00:17:42:607,-2.15072,-4.16621,-8.55955,26.9682,-10.7604,81.5365
2023-03-10 00:17:42:617,-2.41795,-4.08153,-8.59347,26.9235,-10.9011,81.6376
2023-03-10 00:17:42:627,-2.58054,-4.0424,-8.63457,26.8887,-11.0214,81.7423
2023-03-10 00:17:42:637,-2.66193,-4.05654,-8.63357,26.8671,-11.1152,81.8394
2023-03-10 00:17:42:647,-2.6744,-4.12026,-8.59011,26.8634,-11.1909,81.9276
2023-03-10 00:17:42:657,-2.60934,-4.20476,-8.53128,26.8731,-11.2409,82.001
2023-03-10 00:17:42:667,-2.44026,-4.2799,-8.49306,26.8848,-11.2685,82.0526
2023-03-10 00:17:42:677,-2.23903,-4.34918,-8.48483,26.8962,-11.2779,82.0813
2023-03-10 00:17:42:687,-2.09597,-4.37762,-8.48983,26.9052,-11.278,82.0935
2023-03-10 00:17:42:697,-1.99066,-4.37223,-8.51482,26.9096,-11.2758,82.095
2023-03-10 00:17:42:707,-1.87371,-4.37112,-8.54436,26.904,-11.273,82.0879
2023-03-10 00:17:42:717,-1.78506,-4.35607,-8.57288,26.8933,-11.2777,82.0789
2023-03-10 00:17:42:727,-1.78749,-4.33812,-8.61425,26.8766,-11.295,82.0726
2023-03-10 00:17:42:737,-1.86176,-4.28594,-8.66292,26.8608,-11.3244,82.0689
2023-03-10 00:17:42:747,-1.91743,-4.25219,-8.70211,26.8446,-11.3622,82.0719
2023-03-10 00:17:42:757,-1.96134,-4.21566,-8.6925,26.8281,-11.4023,82.0841
2023-03-10 00:17:42:767,-2.0284,-4.20939,-8.69622,26.8221,-11.4468,82.1033
2023-03-10 00:17:42:777,-2.09673,-4.21929,-8.66754,26.8214,-11.4936,82.1259
2023-03-10 00:17:42:787,-2.10934,-4.2575,-8.62055,26.8273,-11.5409,82.1502
2023-03-10 00:17:42:797,-2.09577,-4.28178,-8.57796,26.8375,-11.5851,82.1757
2023-03-10 00:17:42:807,-2.14992,-4.29609,-8.54893,26.8471,-11.6295,82.2018
2023-03-10 00:17:42:817,-2.21788,-4.29385,-8.5152,26.8608,-11.6727,82.2283
2023-03-10 00:17:42:827,-2.27387,-4.30541,-8.49394,26.873,-11.7162,82.2505
2023-03-10 00:17:42:837,-2.28787,-4.31679,-8.48213,26.8811,-11.7524,82.2725
2023-03-10 00:17:42:847,-2.30879,-4.32423,-8.45728,26.8883,-11.787,82.2879
2023-03-10 00:17:42:857,-2.30244,-4.3289,-8.46147,26.8933,-11.8163,82.3032
2023-03-10 00:17:42:867,-2.25505,-4.32169,-8.49584,26.898,-11.836,82.3153
2023-03-10 00:17:42:877,-2.2035,-4.31411,-8.52352,26.8973,-11.8484,82.3224
2023-03-10 00:17:42:887,-2.16691,-4.30718,-8.56282,26.8947,-11.8549,82.323
2023-03-10 00:17:42:897,-2.16248,-4.29661,-8.57443,26.8933,-11.859,82.3204
2023-03-10 00:17:42:907,-2.18669,-4.29783,-8.58545,26.8929,-11.8656,82.3181
2023-03-10 00:17:42:917,-2.20941,-4.29466,-8.58929,26.8954,-11.8702,82.3137
2023-03-10 00:17:42:927,-2.17908,-4.29334,-8.57565,26.8965,-11.8718,82.3051
2023-03-10 00:17:42:937,-2.14393,-4.29992,-8.55854,26.9021,-11.8695,82.2911
2023-03-10 00:17:42:947,-2.11471,-4.30746,-8.54023,26.9086,-11.8624,82.2764
2023-03-10 00:17:42:957,-2.10249,-4.31181,-8.53198,26.9159,-11.8563,82.2544
2023-03-10 00:17:42:967,-2.0924,-4.33137,-8.5233,26.9211,-11.85,82.2296
2023-03-10 00:17:42:977,-2.06477,-4.34341,-8.51622,26.9296,-11.8425,82.2019
2023-03-10 00:17:42:987,-2.04936,-4.35239,-8.51666,26.9387,-11.8326,82.1745
2023-03-10 00:17:42:997,-2.06123,-4.33671,-8.50971,26.9432,-11.8257,82.1471
2023-03-10 00:17:43:7,-2.04467,-4.32677,-8.50158,26.9503,-11.8216,82.1142
2023-03-10 00:17:43:17,-2.02816,-4.33264,-8.50456,26.9549,-11.8132,82.0837
2023-03-10 00:17:43:27,-2.02471,-4.33394,-8.50662,26.9598,-11.7993,82.0526
2023-03-10 00:17:43:37,-2.01254,-4.32602,-8.52951,26.9582,-11.7872,82.0291
2023-03-10 00:17:43:47,-1.9944,-4.32295,-8.55308,26.9565,-11.7791,81.9991
2023-03-10 00:17:43:57,-1.96843,-4.32973,-8.5606,26.9511,-11.7682,81.9741
2023-03-10 00:17:43:67,-1.94079,-4.33773,-8.57042,26.9488,-11.7584,81.9455
2023-03-10 00:17:43:77,-1.89058,-4.34116,-8.59155,26.944,-11.7469,81.9223
2023-03-10 00:17:43:87,-1.85754,-4.33133,-8.61872,26.9365,-11.7397,81.9032
2023-03-10 00:17:43:97,-1.89015,-4.30622,-8.63506,26.9325,-11.7365,81.8873
2023-03-10 00:17:43:107,-1.93169,-4.30498,-8.61783,26.9284,-11.7386,81.8806
2023-03-10 00:17:43:117,-1.9763,-4.30012,-8.58753,26.9242,-11.7441,81.8801
2023-03-10 00:17:43:127,-1.99568,-4.28406,-8.55234,26.9237,-11.7474,81.8806
2023-03-10 00:17:43:137,-2.03039,-4.27597,-8.54099,26.921,-11.753,81.8863
2023-03-10 00:17:43:147,-2.04299,-4.26731,-8.54033,26.9155,-11.7538,81.8923
2023-03-10 00:17:43:157,-2.06963,-4.25168,-8.5187,26.9123,-11.7552,81.9005
2023-03-10 00:17:43:167,-2.09211,-4.25939,-8.50878,26.9102,-11.7531,81.9085
2023-03-10 00:17:43:177,-2.08926,-4.24766,-8.50521,26.9075,-11.751,81.9162
2023-03-10 00:17:43:187,-2.07372,-4.26103,-8.50377,26.9011,-11.742,81.921
2023-03-10 00:17:43:197,-2.03553,-4.27424,-8.48324,26.8935,-11.727,81.924
2023-03-10 00:17:43:207,-2.00626,-4.29505,-8.47995,26.883,-11.7086,81.9299
2023-03-10 00:17:43:217,-1.98749,-4.29702,-8.4773,26.8683,-11.6921,81.9372
2023-03-10 00:17:43:227,-1.99163,-4.30118,-8.48575,26.8485,-11.6764,81.9432
2023-03-10 00:17:43:237,-1.99303,-4.2801,-8.52748,26.8232,-11.6609,81.9472
2023-03-10 00:17:43:247,-1.99828,-4.25126,-8.58275,26.7912,-11.6453,81.9488
2023-03-10 00:17:43:257,-1.9914,-4.23139,-8.61523,26.7557,-11.6305,81.9513
2023-03-10 00:17:43:267,-2.00411,-4.19673,-8.65186,26.721,-11.6187,81.9562
2023-03-10 00:17:43:277,-1.99375,-4.18151,-8.68492,26.683,-11.6058,81.9606
2023-03-10 00:17:43:287,-1.97671,-4.14537,-8.6994,26.6509,-11.5897,81.9637
2023-03-10 00:17:43:297,-1.97501,-4.1323,-8.71912,26.6217,-11.5738,81.9648
2023-03-10 00:17:43:307,-1.99958,-4.14985,-8.71764,26.5975,-11.5558,81.9631
2023-03-10 00:17:43:317,-2.01157,-4.14154,-8.66878,26.5748,-11.5419,81.9609
2023-03-10 00:17:43:327,-1.97794,-4.15756,-8.65818,26.5568,-11.5244,81.9532
2023-03-10 00:17:43:337,-1.89596,-4.17597,-8.6699,26.5417,-11.504,81.9451
2023-03-10 00:17:43:347,-1.81436,-4.17896,-8.6984,26.5297,-11.48,81.9312
2023-03-10 00:17:43:357,-1.78844,-4.19709,-8.70005,26.5206,-11.4594,81.9203
2023-03-10 00:17:43:366,-1.82777,-4.2062,-8.66421,26.517,-11.4435,81.9099
2023-03-10 00:17:43:376,-1.85832,-4.23395,-8.64257,26.5139,-11.4323,81.9041
2023-03-10 00:17:43:386,-1.8673,-4.22703,-8.65452,26.5041,-11.4246,81.9003
2023-03-10 00:17:43:396,-1.87886,-4.19331,-8.69975,26.4946,-11.4192,81.9005
2023-03-10 00:17:43:406,-1.88844,-4.176,-8.74113,26.4863,-11.4138,81.9029
2023-03-10 00:17:43:416,-1.8926,-4.15985,-8.75764,26.4833,-11.409,81.9065
2023-03-10 00:17:43:426,-1.87279,-4.15586,-8.73977,26.4858,-11.4051,81.9087
2023-03-10 00:17:43:436,-1.86332,-4.18644,-8.70303,26.4905,-11.4021,81.9116
2023-03-10 00:17:43:446,-1.86211,-4.19771,-8.65738,26.5031,-11.4048,81.9155
2023-03-10 00:17:43:457,-1.84968,-4.20545,-8.62322,26.5162,-11.4108,81.9207
2023-03-10 00:17:43:467,-1.8547,-4.22501,-8.59069,26.5287,-11.4189,81.9309
2023-03-10 00:17:43:476,-1.87427,-4.24004,-8.5646,26.5412,-11.4294,81.9353
2023-03-10 00:17:43:487,-1.89572,-4.27738,-8.55997,26.56,-11.4428,81.9389
2023-03-10 00:17:43:497,-1.90692,-4.27844,-8.56261,26.5729,-11.4565,81.9469
2023-03-10 00:17:43:507,-1.92721,-4.26752,-8.56878,26.582,-11.4718,81.9593
2023-03-10 00:17:43:517,-1.93825,-4.26375,-8.56771,26.5895,-11.4844,81.9696
2023-03-10 00:17:43:527,-1.94575,-4.2699,-8.5646,26.5965,-11.4964,81.9837
2023-03-10 00:17:43:537,-1.98955,-4.27843,-8.55639,26.6013,-11.5087,82.0001
2023-03-10 00:17:43:547,-2.00862,-4.28232,-8.55049,26.6038,-11.5245,82.0191
2023-03-10 00:17:43:557,-2.01885,-4.26452,-8.54852,26.6015,-11.541,82.0396
2023-03-10 00:17:43:567,-2.03465,-4.25271,-8.55516,26.6037,-11.5547,82.056
2023-03-10 00:17:43:577,-2.03288,-4.24319,-8.5575,26.5994,-11.5719,82.0745
2023-03-10 00:17:43:587,-2.04344,-4.25088,-8.56643,26.5979,-11.5836,82.0961
2023-03-10 00:17:43:597,-2.05744,-4.25968,-8.56421,26.592,-11.5991,82.1129
2023-03-10 00:17:43:607,-2.06485,-4.26446,-8.56995,26.5855,-11.612,82.1309
2023-03-10 00:17:43:617,-2.05752,-4.26065,-8.57565,26.581,-11.6234,82.1496
2023-03-10 00:17:43:627,-2.05455,-4.25455,-8.59438,26.5745,-11.6355,82.1613
2023-03-10 00:17:43:637,-2.06744,-4.23521,-8.60245,26.5697,-11.644,82.1743
2023-03-10 00:17:43:647,-2.08109,-4.2231,-8.61147,26.5624,-11.6552,82.1857
2023-03-10 00:17:43:657,-2.08523,-4.21669,-8.61145,26.5571,-11.6642,82.1962
2023-03-10 00:17:43:667,-2.09421,-4.21094,-8.61309,26.5507,-11.6722,82.2076
2023-03-10 00:17:43:677,-2.07949,-4.22166,-8.62155,26.5487,-11.6755,82.2139
2023-03-10 00:17:43:687,-2.05738,-4.23835,-8.62544,26.5465,-11.6769,82.2185
2023-03-10 00:17:43:697,-2.03211,-4.23284,-8.5978,26.5464,-11.6763,82.2193
2023-03-10 00:17:43:707,-2.0222,-4.22967,-8.60336,26.5491,-11.6794,82.2219
2023-03-10 00:17:43:717,-1.99902,-4.22899,-8.61027,26.5441,-11.6776,82.2231
2023-03-10 00:17:43:727,-1.98556,-4.23187,-8.60957,26.546,-11.6729,82.2245
2023-03-10 00:17:43:737,-1.97384,-4.24125,-8.6096,26.5435,-11.6722,82.2249
2023-03-10 00:17:43:747,-1.98295,-4.24288,-8.60309,26.5407,-11.6733,82.225
2023-03-10 00:17:43:757,-1.98717,-4.22929,-8.59694,26.5403,-11.6703,82.2256
2023-03-10 00:17:43:767,-1.96429,-4.24368,-8.60352,26.5403,-11.6708,82.2286
2023-03-10 00:17:43:777,-1.96055,-4.24734,-8.61076,26.5422,-11.6718,82.2305
2023-03-10 00:17:43:787,-1.9659,-4.22909,-8.61347,26.5434,-11.6731,82.235
2023-03-10 00:17:43:797,-1.97718,-4.23281,-8.59743,26.542,-11.6749,82.2409
2023-03-10 00:17:43:807,-1.99205,-4.24178,-8.59488,26.5399,-11.6787,82.2504
2023-03-10 00:17:43:817,-1.97838,-4.25154,-8.58198,26.5363,-11.6814,82.2638
2023-03-10 00:17:43:827,-1.97691,-4.23207,-8.5735,26.5329,-11.6855,82.2725
2023-03-10 00:17:43:836,-1.96969,-4.23322,-8.58744,26.5283,-11.6891,82.2835
2023-03-10 00:17:43:846,-1.9877,-4.22758,-8.59304,26.5243,-11.6939,82.2937
2023-03-10 00:17:43:856,-2.00959,-4.23649,-8.61452,26.5201,-11.698,82.3096
2023-03-10 00:17:43:866,-1.9994,-4.24166,-8.62053,26.5141,-11.7027,82.3245
2023-03-10 00:17:43:876,-1.98043,-4.23335,-8.61508,26.5095,-11.7049,82.3354
2023-03-10 00:17:43:886,-1.9864,-4.22878,-8.60368,26.5035,-11.7091,82.3507
2023-03-10 00:17:43:897,-1.9981,-4.22818,-8.60892,26.4979,-11.7168,82.3649
2023-03-10 00:17:43:907,-1.9921,-4.22666,-8.59941,26.4921,-11.7214,82.3786
2023-03-10 00:17:43:917,-2.00399,-4.22319,-8.59541,26.4849,-11.7288,82.3913
2023-03-10 00:17:43:927,-2.01647,-4.21999,-8.60601,26.4782,-11.7366,82.4009
2023-03-10 00:17:43:937,-2.03498,-4.21687,-8.61614,26.4743,-11.7434,82.4111
2023-03-10 00:17:43:947,-2.03697,-4.20983,-8.61794,26.4719,-11.7505,82.4191
2023-03-10 00:17:43:957,-2.03072,-4.21253,-8.63544,26.4679,-11.7576,82.4251
2023-03-10 00:17:43:967,-1.99587,-4.21653,-8.65672,26.464,-11.7645,82.4318
2023-03-10 00:17:43:977,-1.95759,-4.22417,-8.65188,26.4614,-11.7699,82.4408
2023-03-10 00:17:43:987,-1.99293,-4.21559,-8.62843,26.4574,-11.7759,82.452
2023-03-10 00:17:43:997,-2.04076,-4.20669,-8.6055,26.4576,-11.7889,82.4645
2023-03-10 00:17:44:7,-2.06724,-4.19502,-8.59798,26.4558,-11.8034,82.4793
2023-03-10 00:17:44:16,-2.07152,-4.20134,-8.59619,26.4528,-11.8192,82.4953
2023-03-10 00:17:44:27,-2.06919,-4.17681,-8.58652,26.4509,-11.8271,82.5133
2023-03-10 00:17:44:37,-2.0666,-4.1734,-8.59071,26.4484,-11.8374,82.5263
2023-03-10 00:17:44:47,-2.08512,-4.18109,-8.60014,26.4489,-11.842,82.5408
2023-03-10 00:17:44:57,-2.08474,-4.17426,-8.588,26.4511,-11.8483,82.5569
2023-03-10 00:17:44:67,-2.09191,-4.18148,-8.55104,26.4548,-11.8469,82.5707
2023-03-10 00:17:44:77,-2.10241,-4.20718,-8.54606,26.4605,-11.8487,82.5826
2023-03-10 00:17:44:87,-2.09795,-4.22763,-8.52588,26.4628,-11.8463,82.5977
2023-03-10 00:17:44:96,-2.10799,-4.23682,-8.53158,26.4605,-11.8439,82.609
2023-03-10 00:17:44:106,-2.09163,-4.23477,-8.55829,26.4565,-11.8408,82.6209
2023-03-10 00:17:44:116,-2.09712,-4.22287,-8.59538,26.4515,-11.8355,82.6281
2023-03-10 00:17:44:126,-2.12781,-4.20745,-8.61088,26.4426,-11.8251,82.6326
2023-03-10 00:17:44:136,-2.14864,-4.19746,-8.61291,26.4377,-11.8173,82.6377
2023-03-10 00:17:44:146,-2.10864,-4.20863,-8.63932,26.4314,-11.7989,82.6393
2023-03-10 00:17:44:156,-1.9761,-4.22165,-8.64121,26.4258,-11.7782,82.6363
2023-03-10 00:17:44:166,-1.84328,-4.2117,-8.62673,26.4197,-11.7473,82.6312
2023-03-10 00:17:44:176,-1.73406,-4.20616,-8.61102,26.4154,-11.7173,82.6262
2023-03-10 00:17:44:187,-1.65752,-4.20326,-8.63407,26.3989,-11.6945,82.6279
2023-03-10 00:17:44:197,-1.71626,-4.14451,-8.63278,26.3759,-11.6834,82.6409
2023-03-10 00:17:44:207,-1.9089,-4.0653,-8.62183,26.354,-11.6889,82.6702
2023-03-10 00:17:44:217,-2.10424,-4.00625,-8.64631,26.3232,-11.6972,82.713
2023-03-10 00:17:44:226,-2.16952,-3.94674,-8.69097,26.2941,-11.6985,82.758
2023-03-10 00:17:44:236,-2.13925,-3.92607,-8.72515,26.2737,-11.6863,82.7974
2023-03-10 00:17:44:246,-2.06846,-3.95303,-8.70099,26.2607,-11.6649,82.8267
2023-03-10 00:17:44:257,-1.99669,-4.00909,-8.64652,26.258,-11.6355,82.8499
2023-03-10 00:17:44:267,-1.9209,-4.06823,-8.61682,26.2606,-11.6005,82.8653
2023-03-10 00:17:44:277,-1.84573,-4.09904,-8.61331,26.2633,-11.5689,82.8669
2023-03-10 00:17:44:287,-1.80089,-4.11449,-8.65387,26.2592,-11.5364,82.8625
2023-03-10 00:17:44:297,-1.75979,-4.10643,-8.73371,26.2474,-11.5094,82.8529
2023-03-10 00:17:44:307,-1.72208,-4.08694,-8.80708,26.2353,-11.4931,82.8403
2023-03-10 00:17:44:317,-1.70173,-4.07024,-8.86784,26.2228,-11.482,82.8233
2023-03-10 00:17:44:327,-1.70032,-4.04795,-8.89872,26.2128,-11.4766,82.8084
2023-03-10 00:17:44:336,-1.70578,-4.06682,-8.92324,26.2137,-11.4781,82.7936
2023-03-10 00:17:44:346,-1.73331,-4.06541,-8.92605,26.2161,-11.4912,82.778
2023-03-10 00:17:44:356,-1.7596,-4.07389,-8.91096,26.2255,-11.5133,82.7677
2023-03-10 00:17:44:367,-1.80914,-4.0898,-8.92351,26.2438,-11.5433,82.7598
2023-03-10 00:17:44:377,-1.87873,-4.0868,-8.93505,26.2711,-11.5836,82.755
2023-03-10 00:17:44:387,-1.97321,-4.11828,-8.93748,26.3095,-11.6354,82.7533
2023-03-10 00:17:44:397,-2.07524,-4.15111,-8.90622,26.3612,-11.6954,82.7556
2023-03-10 00:17:44:407,-2.13662,-4.20017,-8.81825,26.4313,-11.7543,82.7546
2023-03-10 00:17:44:417,-2.19729,-4.26626,-8.73655,26.515,-11.8122,82.7543
2023-03-10 00:17:44:427,-2.25384,-4.33451,-8.65373,26.6087,-11.8683,82.7529
2023-03-10 00:17:44:437,-2.28357,-4.38197,-8.56919,26.7135,-11.9138,82.7481
2023-03-10 00:17:44:447,-2.28199,-4.42455,-8.48775,26.8211,-11.9531,82.7407
2023-03-10 00:17:44:457,-2.26524,-4.47314,-8.41757,26.9304,-11.9824,82.7305
2023-03-10 00:17:44:467,-2.21651,-4.52659,-8.35483,27.0409,-12.0029,82.7209
2023-03-10 00:17:44:477,-2.15779,-4.57888,-8.28823,27.1504,-12.0212,82.7081
2023-03-10 00:17:44:487,-2.13747,-4.60765,-8.2263,27.2536,-12.0407,82.6954
2023-03-10 00:17:44:497,-2.11177,-4.61395,-8.18157,27.3511,-12.0531,82.683
2023-03-10 00:17:44:507,-2.08222,-4.62397,-8.1419,27.4387,-12.0606,82.6685
2023-03-10 00:17:44:517,-2.07009,-4.61994,-8.12931,27.5141,-12.0618,82.6574
2023-03-10 00:17:44:527,-2.0459,-4.61414,-8.14752,27.5794,-12.0579,82.6511
2023-03-10 00:17:44:537,-1.96713,-4.6186,-8.15895,27.6339,-12.0485,82.6536
2023-03-10 00:17:44:547,-1.91146,-4.63307,-8.14688,27.6764,-12.0412,82.6548
2023-03-10 00:17:44:557,-1.90336,-4.60833,-8.15147,27.7042,-12.0365,82.6681
2023-03-10 00:17:44:567,-1.90524,-4.58473,-8.1579,27.72,-12.0341,82.6892
2023-03-10 00:17:44:577,-1.87831,-4.57828,-8.16454,27.7241,-12.0366,82.7164
2023-03-10 00:17:44:587,-1.88279,-4.56673,-8.17349,27.7124,-12.0402,82.7468
2023-03-10 00:17:44:597,-1.91472,-4.53293,-8.1872,27.6921,-12.0466,82.7868
2023-03-10 00:17:44:607,-1.97359,-4.51363,-8.22693,27.659,-12.06,82.8323
2023-03-10 00:17:44:617,-2.05509,-4.45789,-8.30322,27.6097,-12.0732,82.8881
2023-03-10 00:17:44:627,-2.14102,-4.3896,-8.39323,27.5451,-12.0934,82.9451
2023-03-10 00:17:44:637,-2.22816,-4.3255,-8.4746,27.4773,-12.1191,83.004
2023-03-10 00:17:44:646,-2.35281,-4.26805,-8.5343,27.4074,-12.1471,83.0626
2023-03-10 00:17:44:656,-2.44885,-4.2274,-8.59047,27.338,-12.1726,83.1147
2023-03-10 00:17:44:666,-2.47802,-4.18989,-8.63102,27.2749,-12.1997,83.1511
2023-03-10 00:17:44:676,-2.49613,-4.18653,-8.66257,27.216,-12.219,83.1803
2023-03-10 00:17:44:686,-2.49405,-4.17969,-8.68008,27.1643,-12.2339,83.1968
2023-03-10 00:17:44:697,-2.49026,-4.17685,-8.67615,27.1209,-12.2459,83.2045
2023-03-10 00:17:44:707,-2.48102,-4.17663,-8.68907,27.0816,-12.2464,83.1988
2023-03-10 00:17:44:717,-2.4439,-4.17956,-8.69707,27.052,-12.2398,83.1823
2023-03-10 00:17:44:727,-2.4282,-4.17752,-8.69336,27.0276,-12.2296,83.1571
2023-03-10 00:17:44:737,-2.42288,-4.18613,-8.67722,27.0092,-12.2147,83.1229
2023-03-10 00:17:44:747,-2.40927,-4.20944,-8.66012,26.9964,-12.1941,83.0817
2023-03-10 00:17:44:757,-2.35868,-4.22934,-8.63452,26.9915,-12.1635,83.0279
2023-03-10 00:17:44:767,-2.29143,-4.22687,-8.62931,26.9915,-12.1331,82.9627
2023-03-10 00:17:44:777,-2.23681,-4.23208,-8.63319,26.9946,-12.0943,82.8847
2023-03-10 00:17:44:787,-2.18227,-4.23987,-8.62666,26.9967,-12.0514,82.7973
2023-03-10 00:17:44:797,-2.13288,-4.23484,-8.63288,27.0036,-12.0042,82.6998
2023-03-10 00:17:44:807,-2.07515,-4.24315,-8.66379,27.0123,-11.9557,82.5959
2023-03-10 00:17:44:817,-2.0096,-4.2407,-8.68153,27.0304,-11.9054,82.4802
2023-03-10 00:17:44:827,-1.96695,-4.22815,-8.67928,27.0502,-11.8524,82.3643
2023-03-10 00:17:44:837,-1.92578,-4.27807,-8.67856,27.0788,-11.8008,82.2426
2023-03-10 00:17:44:847,-1.88555,-4.30731,-8.65612,27.1148,-11.747,82.1163
2023-03-10 00:17:44:857,-1.81471,-4.32092,-8.61686,27.1555,-11.6931,81.9868
2023-03-10 00:17:44:867,-1.72943,-4.37634,-8.59385,27.2035,-11.6365,81.8469
2023-03-10 00:17:44:877,-1.66424,-4.44022,-8.56443,27.252,-11.5872,81.7112
2023-03-10 00:17:44:887,-1.60032,-4.464,-8.54331,27.3007,-11.5431,81.5722
2023-03-10 00:17:44:897,-1.52484,-4.48981,-8.53755,27.3442,-11.5095,81.4294
2023-03-10 00:17:44:907,-1.46979,-4.48273,-8.53703,27.3834,-11.489,81.2896
2023-03-10 00:17:44:917,-1.49168,-4.46533,-8.53526,27.4161,-11.4859,81.16
2023-03-10 00:17:44:927,-1.574,-4.43233,-8.51282,27.4432,-11.5047,81.0388
2023-03-10 00:17:44:937,-1.67114,-4.39606,-8.50298,27.4623,-11.5406,80.9298
2023-03-10 00:17:44:947,-1.76345,-4.35341,-8.52975,27.4782,-11.589,80.8304
2023-03-10 00:17:44:957,-1.81456,-4.30332,-8.56964,27.4891,-11.6462,80.7417
2023-03-10 00:17:44:967,-1.85089,-4.28185,-8.59112,27.5061,-11.7063,80.6587
2023-03-10 00:17:44:977,-1.91393,-4.27606,-8.57417,27.5291,-11.7734,80.5873
2023-03-10 00:17:44:987,-1.97753,-4.30058,-8.53743,27.558,-11.8434,80.5246
2023-03-10 00:17:44:997,-2.06854,-4.34519,-8.51655,27.5921,-11.9135,80.477
2023-03-10 00:17:45:6,-2.1603,-4.36239,-8.46535,27.6253,-11.9814,80.44
2023-03-10 00:17:45:16,-2.20525,-4.37941,-8.43509,27.6665,-12.0458,80.4041
2023-03-10 00:17:45:27,-2.22582,-4.42385,-8.43643,27.7033,-12.1031,80.3784
2023-03-10 00:17:45:37,-2.23099,-4.44532,-8.43522,27.7399,-12.1509,80.3574
2023-03-10 00:17:45:47,-2.22164,-4.46871,-8.44299,27.7723,-12.1969,80.3417
2023-03-10 00:17:45:57,-2.26271,-4.45949,-8.41981,27.7999,-12.2372,80.33
2023-03-10 00:17:45:67,-2.30968,-4.45618,-8.3833,27.826,-12.2766,80.3192
2023-03-10 00:17:45:76,-2.3439,-4.47762,-8.36474,27.8555,-12.3087,80.3062
2023-03-10 00:17:45:86,-2.33155,-4.50482,-8.36968,27.8819,-12.3284,80.2925
2023-03-10 00:17:45:96,-2.29732,-4.51977,-8.38685,27.8982,-12.3429,80.2743
2023-03-10 00:17:45:106,-2.22419,-4.5019,-8.43364,27.9045,-12.3489,80.2484
2023-03-10 00:17:45:117,-2.16164,-4.4607,-8.47979,27.9072,-12.3508,80.2161
2023-03-10 00:17:45:127,-2.15717,-4.44034,-8.52061,27.9104,-12.3497,80.1797
2023-03-10 00:17:45:137,-2.17231,-4.42963,-8.52457,27.9145,-12.3512,80.1436
2023-03-10 00:17:45:147,-2.14556,-4.4211,-8.51158,27.9226,-12.343,80.1063
2023-03-10 00:17:45:157,-2.05033,-4.44075,-8.54891,27.9309,-12.3302,80.0663
2023-03-10 00:17:45:167,-1.975,-4.43616,-8.58202,27.9366,-12.3127,80.03
2023-03-10 00:17:45:177,-1.9718,-4.41796,-8.60243,27.9442,-12.301,79.9977
2023-03-10 00:17:45:187,-2.00044,-4.44363,-8.59283,27.9543,-12.2918,79.9704
2023-03-10 00:17:45:197,-1.9316,-4.44699,-8.60619,27.9729,-12.2828,79.9442
2023-03-10 00:17:45:207,-1.87447,-4.43945,-8.61932,27.9908,-12.2747,79.9218
2023-03-10 00:17:45:217,-1.90638,-4.45596,-8.57517,28.0133,-12.2708,79.9033
2023-03-10 00:17:45:227,-1.96477,-4.46361,-8.50399,28.0428,-12.2825,79.8912
2023-03-10 00:17:45:237,-2.01663,-4.46683,-8.45166,28.0713,-12.2986,79.8867
2023-03-10 00:17:45:247,-2.07702,-4.44917,-8.41315,28.0995,-12.3229,79.8846
2023-03-10 00:17:45:257,-2.12601,-4.44578,-8.36656,28.1243,-12.345,79.894
2023-03-10 00:17:45:267,-2.18523,-4.45436,-8.31176,28.1511,-12.3688,79.9038
2023-03-10 00:17:45:277,-2.23314,-4.44853,-8.26049,28.1746,-12.3898,79.9156
2023-03-10 00:17:45:287,-2.23681,-4.44856,-8.22312,28.188,-12.4095,79.9349
2023-03-10 00:17:45:297,-2.23316,-4.45482,-8.20235,28.1959,-12.4259,79.9543
2023-03-10 00:17:45:307,-2.23816,-4.46105,-8.21006,28.1971,-12.4368,79.9733
2023-03-10 00:17:45:317,-2.22885,-4.44654,-8.21023,28.1857,-12.449,79.9962
2023-03-10 00:17:45:327,-2.24579,-4.44226,-8.23621,28.17,-12.4572,80.0176
2023-03-10 00:17:45:337,-2.2291,-4.43425,-8.28966,28.1442,-12.4639,80.0414
2023-03-10 00:17:45:347,-2.23585,-4.42153,-8.34475,28.1048,-12.471,80.0638
2023-03-10 00:17:45:357,-2.26974,-4.39134,-8.4098,28.0611,-12.4786,80.0836
2023-03-10 00:17:45:367,-2.3063,-4.36859,-8.46212,28.0122,-12.4844,80.0995
2023-03-10 00:17:45:377,-2.31542,-4.34035,-8.52036,27.9662,-12.4963,80.1054
2023-03-10 00:17:45:387,-2.31103,-4.30797,-8.5734,27.9158,-12.504,80.1083
2023-03-10 00:17:45:397,-2.29944,-4.29531,-8.60539,27.8669,-12.512,80.1003
2023-03-10 00:17:45:407,-2.28595,-4.29009,-8.62593,27.8219,-12.5169,80.0842
2023-03-10 00:17:45:417,-2.26386,-4.27866,-8.63198,27.7862,-12.5196,80.0617
2023-03-10 00:17:45:427,-2.22359,-4.27385,-8.63989,27.7551,-12.5219,80.0373
2023-03-10 00:17:45:437,-2.19223,-4.28522,-8.65056,27.7275,-12.519,80.0063
2023-03-10 00:17:45:447,-2.14743,-4.29376,-8.65805,27.708,-12.5131,79.9747
2023-03-10 00:17:45:457,-2.13638,-4.30259,-8.65,27.6954,-12.5079,79.9429
2023-03-10 00:17:45:467,-2.15302,-4.32801,-8.65036,27.6943,-12.5004,79.9165
2023-03-10 00:17:45:477,-2.14603,-4.35479,-8.62961,27.693,-12.4928,79.8898
2023-03-10 00:17:45:486,-2.12232,-4.3739,-8.61458,27.7023,-12.4837,79.8665
2023-03-10 00:17:45:496,-2.09539,-4.39641,-8.60298,27.7104,-12.4731,79.8444
2023-03-10 00:17:45:506,-2.0793,-4.41163,-8.59203,27.7266,-12.4622,79.8221
2023-03-10 00:17:45:516,-2.09662,-4.42739,-8.57668,27.7463,-12.452,79.8001
2023-03-10 00:17:45:526,-2.11095,-4.43958,-8.55601,27.7687,-12.4407,79.7819
2023-03-10 00:17:45:536,-2.10076,-4.45041,-8.54722,27.7953,-12.4303,79.7622
2023-03-10 00:17:45:547,-2.09801,-4.4612,-8.53275,27.8271,-12.4189,79.7422
2023-03-10 00:17:45:557,-2.10244,-4.46233,-8.5125,27.8543,-12.4058,79.7228
2023-03-10 00:17:45:566,-2.07777,-4.45087,-8.47256,27.8848,-12.3949,79.7038
2023-03-10 00:17:45:577,-2.06072,-4.45772,-8.45696,27.9163,-12.3815,79.6817
2023-03-10 00:17:45:587,-2.06106,-4.4665,-8.43257,27.9519,-12.3717,79.6622
2023-03-10 00:17:45:597,-2.07545,-4.48915,-8.38499,27.9919,-12.3662,79.644
2023-03-10 00:17:45:607,-2.06875,-4.52785,-8.37204,28.028,-12.3593,79.6263
2023-03-10 00:17:45:617,-2.09625,-4.5255,-8.34661,28.0553,-12.3544,79.6151
2023-03-10 00:17:45:627,-2.14986,-4.51968,-8.33707,28.0792,-12.3545,79.6025
2023-03-10 00:17:45:637,-2.16175,-4.50136,-8.3307,28.0999,-12.3518,79.5928
2023-03-10 00:17:45:647,-2.14979,-4.50275,-8.34584,28.1178,-12.3471,79.5763
2023-03-10 00:17:45:657,-2.13718,-4.51408,-8.38041,28.1331,-12.3428,79.56
2023-03-10 00:17:45:667,-2.11733,-4.50731,-8.37716,28.1437,-12.3386,79.5485
2023-03-10 00:17:45:677,-2.10704,-4.49399,-8.37651,28.1507,-12.335,79.5338
2023-03-10 00:17:45:687,-2.09511,-4.488,-8.37984,28.157,-12.3312,79.5219
2023-03-10 00:17:45:697,-2.09631,-4.48283,-8.37457,28.1558,-12.331,79.514
2023-03-10 00:17:45:707,-2.09876,-4.46882,-8.37713,28.1537,-12.3335,79.5036
2023-03-10 00:17:45:717,-2.09751,-4.46741,-8.39266,28.1484,-12.3354,79.4988
2023-03-10 00:17:45:727,-2.06434,-4.4785,-8.40829,28.142,-12.3366,79.4914
2023-03-10 00:17:45:736,-2.05527,-4.48812,-8.42919,28.1316,-12.3379,79.49
2023-03-10 00:17:45:746,-2.06793,-4.46575,-8.46942,28.1237,-12.3467,79.4874
2023-03-10 00:17:45:757,-2.10041,-4.44343,-8.50514,28.1097,-12.3546,79.4928
2023-03-10 00:17:45:766,-2.10413,-4.43124,-8.53049,28.0982,-12.3666,79.5014
2023-03-10 00:17:45:776,-2.12625,-4.44254,-8.5394,28.0876,-12.3847,79.5142
2023-03-10 00:17:45:786,-2.15158,-4.44133,-8.51626,28.0805,-12.4025,79.5255
2023-03-10 00:17:45:797,-2.18448,-4.42481,-8.48134,28.0755,-12.4267,79.5411
2023-03-10 00:17:45:807,-2.22755,-4.42299,-8.44098,28.0734,-12.4523,79.5629
2023-03-10 00:17:45:817,-2.26549,-4.4204,-8.42574,28.0711,-12.4758,79.5865
2023-03-10 00:17:45:827,-2.26546,-4.40875,-8.41184,28.0681,-12.4916,79.6114
2023-03-10 00:17:45:837,-2.26241,-4.40787,-8.42276,28.0676,-12.5103,79.6386
2023-03-10 00:17:45:847,-2.26825,-4.40905,-8.42942,28.0624,-12.5242,79.6692
2023-03-10 00:17:45:857,-2.28937,-4.41041,-8.43837,28.0578,-12.5382,79.6993
2023-03-10 00:17:45:867,-2.29307,-4.40936,-8.44791,28.052,-12.5501,79.7304
2023-03-10 00:17:45:877,-2.30235,-4.41021,-8.44294,28.0514,-12.5569,79.7556
2023-03-10 00:17:45:887,-2.29429,-4.42324,-8.42867,28.0481,-12.5648,79.7804
2023-03-10 00:17:45:897,-2.26447,-4.43753,-8.4221,28.051,-12.5691,79.8022
2023-03-10 00:17:45:907,-2.23296,-4.46521,-8.42618,28.0513,-12.5666,79.8174
2023-03-10 00:17:45:917,-2.2219,-4.47097,-8.43552,28.0484,-12.5657,79.8299
2023-03-10 00:17:45:927,-2.22381,-4.45844,-8.44384,28.045,-12.565,79.8443
2023-03-10 00:17:45:936,-2.20104,-4.44965,-8.45808,28.037,-12.5616,79.8519
2023-03-10 00:17:45:946,-2.17133,-4.46226,-8.46377,28.0305,-12.5563,79.8599
2023-03-10 00:17:45:956,-2.13426,-4.46588,-8.45659,28.0259,-12.5537,79.8634
2023-03-10 00:17:45:966,-2.13074,-4.46823,-8.46067,28.0181,-12.5456,79.8696
2023-03-10 00:17:45:976,-2.11347,-4.45807,-8.4437,28.013,-12.5427,79.875
2023-03-10 00:17:45:986,-2.13675,-4.45239,-8.44389,28.0059,-12.5423,79.8805
2023-03-10 00:17:45:996,-2.201,-4.4595,-8.42654,27.9988,-12.545,79.8859
2023-03-10 00:17:46:6,-2.23874,-4.43606,-8.39925,27.9916,-12.5489,79.8978
2023-03-10 00:17:46:16,-2.19454,-4.43576,-8.4148,27.9796,-12.5427,79.9091
2023-03-10 00:17:46:26,-2.08555,-4.43757,-8.44758,27.9665,-12.5301,79.9226
2023-03-10 00:17:46:36,-2.01706,-4.44856,-8.47323,27.9554,-12.5186,79.9336
2023-03-10 00:17:46:46,-2.01662,-4.46546,-8.4712,27.9443,-12.5108,79.9469
2023-03-10 00:17:46:56,-2.06152,-4.46468,-8.4507,27.9342,-12.5104,79.964
2023-03-10 00:17:46:66,-2.08741,-4.46881,-8.46477,27.9223,-12.5099,79.9844
2023-03-10 00:17:46:76,-2.13758,-4.44163,-8.48297,27.9061,-12.5108,80.0061
2023-03-10 00:17:46:86,-2.17714,-4.42083,-8.4864,27.8882,-12.5103,80.0359
2023-03-10 00:17:46:96,-2.18964,-4.39724,-8.49263,27.8723,-12.5105,80.0646
2023-03-10 00:17:46:106,-2.1674,-4.39134,-8.49233,27.8543,-12.502,80.0941
2023-03-10 00:17:46:116,-2.14772,-4.38443,-8.5127,27.8402,-12.4945,80.1244
2023-03-10 00:17:46:126,-2.12032,-4.37533,-8.51871,27.8235,-12.4863,80.1513
2023-03-10 00:17:46:136,-2.11266,-4.37958,-8.52022,27.8108,-12.4798,80.1751
2023-03-10 00:17:46:146,-2.16782,-4.36918,-8.50865,27.8023,-12.4747,80.1998
2023-03-10 00:17:46:156,-2.19254,-4.36446,-8.50858,27.7971,-12.4728,80.2243
2023-03-10 00:17:46:166,-2.17427,-4.36767,-8.4995,27.7925,-12.4672,80.2425
2023-03-10 00:17:46:176,-2.14042,-4.37032,-8.50163,27.7881,-12.4573,80.2613
2023-03-10 00:17:46:186,-2.1203,-4.38183,-8.49935,27.7871,-12.4496,80.2727
2023-03-10 00:17:46:196,-2.10065,-4.40148,-8.47981,27.7854,-12.4437,80.2844
2023-03-10 00:17:46:206,-2.06649,-4.41527,-8.48343,27.7868,-12.4352,80.2911
2023-03-10 00:17:46:216,-2.04146,-4.42429,-8.48941,27.7834,-12.4311,80.2958
2023-03-10 00:17:46:226,-2.05723,-4.43107,-8.49464,27.7791,-12.427,80.3014
2023-03-10 00:17:46:236,-2.07529,-4.41056,-8.48465,27.7765,-12.4216,80.3053
2023-03-10 00:17:46:246,-2.07029,-4.40465,-8.47784,27.7722,-12.4178,80.3123
2023-03-10 00:17:46:256,-2.0614,-4.40944,-8.48668,27.7703,-12.4151,80.3163
2023-03-10 00:17:46:266,-2.0539,-4.41361,-8.48616,27.769,-12.4119,80.3238
2023-03-10 00:17:46:276,-2.05045,-4.41919,-8.48236,27.7645,-12.409,80.3313
2023-03-10 00:17:46:286,-2.05905,-4.41378,-8.47734,27.7611,-12.4085,80.3431
2023-03-10 00:17:46:297,-2.04297,-4.41716,-8.47912,27.7555,-12.4071,80.3546
2023-03-10 00:17:46:306,-2.05375,-4.41789,-8.46918,27.7478,-12.4073,80.3717
2023-03-10 00:17:46:317,-2.06394,-4.41384,-8.46358,27.7432,-12.4069,80.3886
2023-03-10 00:17:46:327,-2.07461,-4.41963,-8.47553,27.7337,-12.4041,80.4096
2023-03-10 00:17:46:337,-2.06267,-4.4166,-8.47915,27.7198,-12.4051,80.4304
2023-03-10 00:17:46:347,-2.04271,-4.41358,-8.46226,27.7125,-12.4007,80.4501
2023-03-10 00:17:46:357,-2.03233,-4.41494,-8.46342,27.7014,-12.4004,80.4717
2023-03-10 00:17:46:367,-2.03643,-4.43148,-8.45566,27.6873,-12.397,80.4934
2023-03-10 00:17:46:377,-2.02522,-4.41854,-8.45146,27.6711,-12.3967,80.5187
2023-03-10 00:17:46:387,-2.04416,-4.4015,-8.4864,27.6566,-12.3967,80.5472
2023-03-10 00:17:46:397,-2.06389,-4.38526,-8.52045,27.6396,-12.3946,80.5809
2023-03-10 00:17:46:407,-2.05407,-4.38097,-8.52634,27.6255,-12.3937,80.6173
2023-03-10 00:17:46:417,-2.07215,-4.37871,-8.53322,27.6098,-12.3907,80.657
2023-03-10 00:17:46:427,-2.05924,-4.38172,-8.54064,27.5922,-12.3892,80.6989
2023-03-10 00:17:46:437,-2.04279,-4.37142,-8.53656,27.576,-12.3881,80.7456
2023-03-10 00:17:46:447,-2.04875,-4.35897,-8.5381,27.5621,-12.3865,80.7951
2023-03-10 00:17:46:457,-2.07023,-4.35108,-8.54264,27.5465,-12.386,80.8464
2023-03-10 00:17:46:467,-2.08691,-4.34168,-8.51849,27.534,-12.3867,80.9019
2023-03-10 00:17:46:477,-2.0955,-4.35135,-8.52427,27.5212,-12.389,80.9561
2023-03-10 00:17:46:487,-2.10185,-4.33909,-8.52442,27.5138,-12.3894,81.0089
2023-03-10 00:17:46:497,-2.11331,-4.33615,-8.52724,27.503,-12.391,81.064
2023-03-10 00:17:46:507,-2.09903,-4.33232,-8.55119,27.4923,-12.394,81.1155
2023-03-10 00:17:46:517,-2.07723,-4.32649,-8.54495,27.4842,-12.3968,81.1641
2023-03-10 00:17:46:527,-2.09167,-4.32324,-8.52745,27.4766,-12.4018,81.2117
2023-03-10 00:17:46:537,-2.11273,-4.32323,-8.52536,27.4664,-12.4035,81.261
2023-03-10 00:17:46:547,-2.13792,-4.32463,-8.52858,27.4568,-12.4117,81.309
2023-03-10 00:17:46:557,-2.15562,-4.32731,-8.54299,27.4498,-12.4197,81.3527
2023-03-10 00:17:46:567,-2.15515,-4.33708,-8.55155,27.4441,-12.4256,81.393
2023-03-10 00:17:46:577,-2.14866,-4.33243,-8.55237,27.4381,-12.4327,81.4308
2023-03-10 00:17:46:587,-2.1379,-4.32541,-8.53612,27.4371,-12.4398,81.4643
2023-03-10 00:17:46:597,-2.13714,-4.33909,-8.52195,27.4339,-12.4561,81.495
2023-03-10 00:17:46:607,-2.14108,-4.35336,-8.51217,27.4341,-12.4732,81.5248
2023-03-10 00:17:46:617,-2.15365,-4.36654,-8.48365,27.4369,-12.4907,81.5521
2023-03-10 00:17:46:627,-2.1759,-4.38934,-8.47625,27.4386,-12.5118,81.577
2023-03-10 00:17:46:637,-2.2076,-4.3842,-8.4839,27.44,-12.5318,81.5997
2023-03-10 00:17:46:647,-2.21354,-4.36354,-8.49781,27.4405,-12.5532,81.6234
2023-03-10 00:17:46:657,-2.17003,-4.35497,-8.50132,27.4387,-12.5687,81.6492
2023-03-10 00:17:46:667,-2.15853,-4.37102,-8.48228,27.4383,-12.587,81.6753
2023-03-10 00:17:46:677,-2.18569,-4.36365,-8.44008,27.4402,-12.6075,81.7021
2023-03-10 00:17:46:687,-2.23499,-4.36762,-8.43241,27.437,-12.633,81.7358
2023-03-10 00:17:46:697,-2.25606,-4.35869,-8.43701,27.4365,-12.652,81.7697
2023-03-10 00:17:46:707,-2.26485,-4.33507,-8.44159,27.4293,-12.6655,81.8071
2023-03-10 00:17:46:717,-2.25097,-4.3113,-8.44729,27.4261,-12.676,81.8416
2023-03-10 00:17:46:727,-2.2335,-4.30806,-8.46493,27.4178,-12.6843,81.8824
2023-03-10 00:17:46:737,-2.22218,-4.28581,-8.47028,27.4091,-12.693,81.9235
2023-03-10 00:17:46:747,-2.21269,-4.30274,-8.47256,27.4029,-12.6993,81.9642
2023-03-10 00:17:46:757,-2.23293,-4.33379,-8.47422,27.3957,-12.7068,82.0057
2023-03-10 00:17:46:767,-2.2652,-4.34535,-8.47488,27.3873,-12.7122,82.05
2023-03-10 00:17:46:777,-2.25993,-4.34315,-8.47998,27.3786,-12.7206,82.0914
2023-03-10 00:17:46:787,-2.23922,-4.34179,-8.48248,27.3675,-12.7276,82.1316
2023-03-10 00:17:46:797,-2.23709,-4.34806,-8.5047,27.3528,-12.7317,82.1741
2023-03-10 00:17:46:807,-2.2458,-4.33818,-8.52236,27.3402,-12.7333,82.2182
2023-03-10 00:17:46:817,-2.26536,-4.34038,-8.52661,27.3273,-12.7323,82.2622
2023-03-10 00:17:46:827,-2.27146,-4.34682,-8.5188,27.3094,-12.7299,82.3045
2023-03-10 00:17:46:837,-2.27129,-4.33801,-8.50992,27.2954,-12.7231,82.3453
2023-03-10 00:17:46:847,-2.24777,-4.34926,-8.50394,27.2789,-12.7201,82.3832
2023-03-10 00:17:46:857,-2.2342,-4.34129,-8.51142,27.2664,-12.7148,82.4181
2023-03-10 00:17:46:867,-2.22491,-4.31446,-8.49364,27.253,-12.7112,82.4517
2023-03-10 00:17:46:877,-2.26665,-4.31955,-8.48677,27.24,-12.7069,82.4863
2023-03-10 00:17:46:887,-2.29392,-4.31343,-8.47093,27.2257,-12.701,82.5176
2023-03-10 00:17:46:897,-2.26169,-4.30812,-8.49191,27.2105,-12.694,82.539
2023-03-10 00:17:46:907,-2.19257,-4.30485,-8.53882,27.1938,-12.6835,82.5638
2023-03-10 00:17:46:917,-2.16057,-4.31018,-8.55601,27.1793,-12.6718,82.5816
2023-03-10 00:17:46:927,-2.16325,-4.32601,-8.52961,27.1711,-12.6583,82.5961
2023-03-10 00:17:46:937,-2.18704,-4.34325,-8.48667,27.1643,-12.6532,82.6078
2023-03-10 00:17:46:947,-2.20448,-4.34864,-8.46852,27.1587,-12.6464,82.6183
2023-03-10 00:17:46:957,-2.20129,-4.34318,-8.46688,27.1487,-12.64,82.6255
2023-03-10 00:17:46:967,-2.20736,-4.3242,-8.49978,27.1398,-12.6319,82.6322
2023-03-10 00:17:46:977,-2.21348,-4.31219,-8.5229,27.1249,-12.624,82.6344
2023-03-10 00:17:46:987,-2.20974,-4.29691,-8.53706,27.1104,-12.6177,82.6346
2023-03-10 00:17:46:997,-2.19779,-4.29598,-8.54206,27.0981,-12.6088,82.6319
2023-03-10 00:17:47:7,-2.16229,-4.29689,-8.54754,27.0824,-12.6,82.6252
2023-03-10 00:17:47:17,-2.11217,-4.29203,-8.56497,27.0729,-12.5917,82.6181
2023-03-10 00:17:47:27,-2.08788,-4.27015,-8.56744,27.0631,-12.5803,82.6061
2023-03-10 00:17:47:37,-2.089,-4.28167,-8.55382,27.0559,-12.5728,82.5991
2023-03-10 00:17:47:47,-2.10674,-4.2893,-8.53436,27.0491,-12.5656,82.5892
2023-03-10 00:17:47:57,-2.12453,-4.29465,-8.51937,27.0445,-12.5602,82.5812
2023-03-10 00:17:47:67,-2.11641,-4.28505,-8.53306,27.0401,-12.5598,82.5683
2023-03-10 00:17:47:77,-2.09319,-4.28064,-8.55484,27.0331,-12.5581,82.5614
2023-03-10 00:17:47:87,-2.08946,-4.29529,-8.56284,27.0242,-12.5559,82.5553
2023-03-10 00:17:47:97,-2.09131,-4.2869,-8.56691,27.0172,-12.5555,82.5517
2023-03-10 00:17:47:107,-2.12247,-4.28147,-8.55696,27.0068,-12.5559,82.5495
2023-03-10 00:17:47:117,-2.14883,-4.27541,-8.55939,27.0002,-12.5586,82.5493
2023-03-10 00:17:47:127,-2.17286,-4.27128,-8.56411,26.9904,-12.5582,82.5483
2023-03-10 00:17:47:137,-2.16997,-4.26926,-8.5411,26.9847,-12.5568,82.5486
2023-03-10 00:17:47:147,-2.16666,-4.2586,-8.53048,26.981,-12.5571,82.5509
2023-03-10 00:17:47:157,-2.16596,-4.2754,-8.52618,26.9733,-12.5543,82.5546
2023-03-10 00:17:47:167,-2.16083,-4.2634,-8.53027,26.9631,-12.5514,82.556
2023-03-10 00:17:47:177,-2.17043,-4.23818,-8.5342,26.9542,-12.5462,82.5538
2023-03-10 00:17:47:187,-2.15175,-4.24922,-8.56242,26.9442,-12.5405,82.5533
2023-03-10 00:17:47:197,-2.12317,-4.24393,-8.56484,26.9386,-12.536,82.549
2023-03-10 00:17:47:207,-2.11593,-4.24498,-8.56647,26.9315,-12.5324,82.5434
2023-03-10 00:17:47:217,-2.10192,-4.24407,-8.56369,26.9281,-12.5268,82.5318
2023-03-10 00:17:47:227,-2.09836,-4.23817,-8.57804,26.92,-12.5249,82.5206
2023-03-10 00:17:47:237,-2.10089,-4.24015,-8.59594,26.9136,-12.525,82.5063
2023-03-10 00:17:47:247,-2.11529,-4.24347,-8.58863,26.9072,-12.5263,82.4928
2023-03-10 00:17:47:257,-2.11977,-4.23747,-8.57912,26.9053,-12.5306,82.4785
2023-03-10 00:17:47:267,-2.11516,-4.23696,-8.58599,26.8993,-12.5354,82.4645
2023-03-10 00:17:47:277,-2.10815,-4.24695,-8.5925,26.8975,-12.5408,82.4514
2023-03-10 00:17:47:287,-2.10367,-4.24245,-8.58145,26.8951,-12.5491,82.443
2023-03-10 00:17:47:297,-2.12226,-4.24592,-8.56355,26.8941,-12.5566,82.4355
2023-03-10 00:17:47:307,-2.13152,-4.24949,-8.55743,26.8912,-12.5633,82.4311
2023-03-10 00:17:47:317,-2.14752,-4.24191,-8.56128,26.8957,-12.5687,82.4311
2023-03-10 00:17:47:327,-2.17796,-4.24931,-8.57318,26.8964,-12.5746,82.4337
2023-03-10 00:17:47:337,-2.18357,-4.23567,-8.58097,26.8939,-12.5831,82.44
2023-03-10 00:17:47:347,-2.1758,-4.22425,-8.59751,26.8974,-12.5863,82.4467
2023-03-10 00:17:47:357,-2.16916,-4.23057,-8.58602,26.9006,-12.5898,82.4556
2023-03-10 00:17:47:367,-2.19085,-4.24047,-8.56936,26.9068,-12.5939,82.4638
2023-03-10 00:17:47:377,-2.21694,-4.24614,-8.5443,26.9147,-12.6011,82.4678
2023-03-10 00:17:47:387,-2.24436,-4.25197,-8.55031,26.9214,-12.6109,82.4713
2023-03-10 00:17:47:397,-2.26078,-4.26079,-8.5811,26.9295,-12.6175,82.4704
2023-03-10 00:17:47:407,-2.26696,-4.24981,-8.59075,26.9372,-12.6267,82.4674
2023-03-10 00:17:47:417,-2.26507,-4.25042,-8.58671,26.9476,-12.6334,82.4602
2023-03-10 00:17:47:427,-2.28301,-4.26947,-8.57141,26.9561,-12.6394,82.4534
2023-03-10 00:17:47:437,-2.27086,-4.28526,-8.56139,26.9684,-12.6435,82.4417
2023-03-10 00:17:47:447,-2.23589,-4.2838,-8.55138,26.9839,-12.6467,82.4274
2023-03-10 00:17:47:457,-2.22053,-4.28395,-8.54018,27.0003,-12.6485,82.4127
2023-03-10 00:17:47:467,-2.21906,-4.29247,-8.53366,27.0193,-12.6486,82.3935
2023-03-10 00:17:47:477,-2.21426,-4.30789,-8.51607,27.0353,-12.6515,82.3726
2023-03-10 00:17:47:487,-2.20017,-4.33344,-8.49385,27.0601,-12.6503,82.35
2023-03-10 00:17:47:497,-2.20194,-4.34715,-8.48272,27.0825,-12.6509,82.3305
2023-03-10 00:17:47:507,-2.19794,-4.36386,-8.46728,27.1037,-12.6484,82.3087
2023-03-10 00:17:47:517,-2.2418,-4.36157,-8.46886,27.1242,-12.6491,82.2864
2023-03-10 00:17:47:527,-2.22923,-4.36517,-8.47985,27.1409,-12.6467,82.2625
2023-03-10 00:17:47:537,-2.18592,-4.36278,-8.49346,27.1592,-12.6421,82.2385
2023-03-10 00:17:47:547,-2.12409,-4.37446,-8.50532,27.1732,-12.6353,82.2132
2023-03-10 00:17:47:557,-2.111,-4.38841,-8.4752,27.1874,-12.6303,82.1871
2023-03-10 00:17:47:567,-2.16203,-4.39669,-8.44419,27.1981,-12.6318,82.1632
2023-03-10 00:17:47:577,-2.2087,-4.37778,-8.44307,27.2061,-12.6363,82.1432
2023-03-10 00:17:47:587,-2.22023,-4.33692,-8.45606,27.2098,-12.6351,82.1273
2023-03-10 00:17:47:597,-2.18831,-4.32239,-8.4546,27.2088,-12.6344,82.1121
2023-03-10 00:17:47:607,-2.16048,-4.31326,-8.45761,27.2091,-12.6258,82.0921
2023-03-10 00:17:47:617,-2.13479,-4.31968,-8.46037,27.206,-12.6161,82.0798
2023-03-10 00:17:47:627,-2.10913,-4.30917,-8.45086,27.2048,-12.6068,82.0701
2023-03-10 00:17:47:637,-2.11425,-4.31287,-8.47157,27.2006,-12.5977,82.0641
2023-03-10 00:17:47:647,-2.12127,-4.31177,-8.49479,27.1972,-12.5899,82.0599
2023-03-10 00:17:47:657,-2.13829,-4.29708,-8.51246,27.1924,-12.5828,82.0596
2023-03-10 00:17:47:667,-2.133,-4.30758,-8.53397,27.1846,-12.5736,82.0636
2023-03-10 00:17:47:677,-2.11854,-4.31744,-8.53382,27.1798,-12.5603,82.0669
2023-03-10 00:17:47:687,-2.13086,-4.32174,-8.54999,27.1718,-12.5488,82.0722
2023-03-10 00:17:47:697,-2.1345,-4.32402,-8.56479,27.1632,-12.5379,82.0777
2023-03-10 00:17:47:707,-2.1418,-4.31295,-8.56388,27.1503,-12.5308,82.0817
2023-03-10 00:17:47:717,-2.13957,-4.3029,-8.58051,27.1385,-12.5191,82.0834
2023-03-10 00:17:47:727,-2.13374,-4.29052,-8.59783,27.1301,-12.5101,82.0823
2023-03-10 00:17:47:737,-2.13191,-4.28102,-8.60309,27.1229,-12.5024,82.0779
2023-03-10 00:17:47:747,-2.1132,-4.27492,-8.60276,27.1171,-12.4909,82.0693
2023-03-10 00:17:47:757,-2.11338,-4.26292,-8.59502,27.1168,-12.4849,82.0604
2023-03-10 00:17:47:767,-2.14814,-4.27206,-8.58277,27.1162,-12.4763,82.0468
2023-03-10 00:17:47:777,-2.15318,-4.26564,-8.55166,27.1165,-12.4684,82.037
2023-03-10 00:17:47:787,-2.10724,-4.28182,-8.5523,27.1239,-12.458,82.0228
2023-03-10 00:17:47:797,-2.00555,-4.29974,-8.56309,27.1276,-12.4435,82.0076
2023-03-10 00:17:47:807,-1.94209,-4.30927,-8.5702,27.1337,-12.43,81.9941
2023-03-10 00:17:47:817,-1.95718,-4.33505,-8.55484,27.1432,-12.4237,81.9874
2023-03-10 00:17:47:827,-2.01666,-4.34197,-8.52391,27.1528,-12.425,81.9859
2023-03-10 00:17:47:837,-2.07579,-4.33653,-8.52105,27.1594,-12.4296,81.9862
2023-03-10 00:17:47:847,-2.10537,-4.32499,-8.5105,27.1635,-12.4366,81.9908
2023-03-10 00:17:47:857,-2.13205,-4.32764,-8.52035,27.1665,-12.443,81.9971
2023-03-10 00:17:47:867,-2.14148,-4.30823,-8.52846,27.168,-12.4464,82.0091
2023-03-10 00:17:47:877,-2.14609,-4.28447,-8.53454,27.1676,-12.4529,82.023
2023-03-10 00:17:47:887,-2.14204,-4.28299,-8.54011,27.1666,-12.4564,82.0344
2023-03-10 00:17:47:897,-2.13468,-4.28624,-8.53587,27.169,-12.4581,82.0478
2023-03-10 00:17:47:907,-2.15123,-4.28865,-8.52546,27.1694,-12.4617,82.0616
2023-03-10 00:17:47:917,-2.17199,-4.28438,-8.50068,27.1726,-12.4678,82.0743
2023-03-10 00:17:47:927,-2.18189,-4.28375,-8.50163,27.1743,-12.4752,82.0869
2023-03-10 00:17:47:937,-2.16558,-4.29787,-8.50408,27.1752,-12.4807,82.0963
2023-03-10 00:17:47:947,-2.14043,-4.30482,-8.50285,27.1769,-12.4836,82.1029
2023-03-10 00:17:47:957,-2.13589,-4.32988,-8.50829,27.1778,-12.4872,82.105
2023-03-10 00:17:47:967,-2.13747,-4.33292,-8.50785,27.1766,-12.4948,82.1072
2023-03-10 00:17:47:977,-2.14905,-4.32768,-8.50313,27.178,-12.5068,82.1111
2023-03-10 00:17:47:987,-2.17366,-4.31132,-8.51123,27.1752,-12.5172,82.1153
2023-03-10 00:17:47:997,-2.19344,-4.30931,-8.52954,27.1711,-12.5279,82.1224
2023-03-10 00:17:48:7,-2.19679,-4.30623,-8.55646,27.1626,-12.5381,82.129
2023-03-10 00:17:48:17,-2.20728,-4.29431,-8.54992,27.156,-12.548,82.1334
2023-03-10 00:17:48:27,-2.21001,-4.29989,-8.54443,27.1565,-12.5541,82.1401
2023-03-10 00:17:48:37,-2.21285,-4.29982,-8.51453,27.157,-12.5593,82.1478
2023-03-10 00:17:48:47,-2.22233,-4.3136,-8.51372,27.1584,-12.5587,82.1582
2023-03-10 00:17:48:57,-2.2044,-4.30594,-8.5184,27.1604,-12.562,82.1631
2023-03-10 00:17:48:67,-2.18466,-4.30122,-8.52172,27.1603,-12.5631,82.1701
2023-03-10 00:17:48:77,-2.19606,-4.30306,-8.53076,27.1628,-12.5601,82.1787
2023-03-10 00:17:48:87,-2.19627,-4.30108,-8.51348,27.1648,-12.5565,82.1832
2023-03-10 00:17:48:97,-2.18491,-4.31163,-8.50876,27.1694,-12.5514,82.1892
2023-03-10 00:17:48:107,-2.16593,-4.32275,-8.5072,27.168,-12.5523,82.1932
2023-03-10 00:17:48:117,-2.15382,-4.33037,-8.50835,27.1693,-12.5442,82.1955
2023-03-10 00:17:48:127,-2.15068,-4.32914,-8.50611,27.1702,-12.5399,82.1938
2023-03-10 00:17:48:137,-2.14168,-4.32157,-8.51217,27.1674,-12.5379,82.1947
2023-03-10 00:17:48:147,-2.14273,-4.32405,-8.52594,27.1651,-12.5353,82.1961
2023-03-10 00:17:48:157,-2.1325,-4.32081,-8.52193,27.164,-12.5305,82.1958
2023-03-10 00:17:48:167,-2.11875,-4.3395,-8.52515,27.1648,-12.5258,82.1905
2023-03-10 00:17:48:177,-2.10759,-4.34952,-8.50477,27.1628,-12.5218,82.1915
2023-03-10 00:17:48:187,-2.08844,-4.34821,-8.50188,27.16,-12.5182,82.1918
2023-03-10 00:17:48:197,-2.09259,-4.32818,-8.51338,27.156,-12.5186,82.1919
2023-03-10 00:17:48:207,-2.11659,-4.3292,-8.52952,27.1506,-12.5183,82.1948
2023-03-10 00:17:48:217,-2.12142,-4.32002,-8.54477,27.1441,-12.5154,82.1948
2023-03-10 00:17:48:227,-2.12415,-4.29963,-8.5411,27.138,-12.5142,82.1944
2023-03-10 00:17:48:237,-2.13652,-4.30067,-8.55031,27.133,-12.5141,82.1987
2023-03-10 00:17:48:247,-2.13462,-4.29932,-8.5423,27.1294,-12.5136,82.2022
2023-03-10 00:17:48:257,-2.1257,-4.28682,-8.53345,27.1291,-12.5151,82.2093
2023-03-10 00:17:48:267,-2.11436,-4.28648,-8.53202,27.1231,-12.5173,82.2133
2023-03-10 00:17:48:277,-2.11902,-4.28891,-8.54446,27.1168,-12.5176,82.2165
2023-03-10 00:17:48:287,-2.13093,-4.2803,-8.56109,27.1101,-12.5221,82.2209
2023-03-10 00:17:48:297,-2.12762,-4.28311,-8.57134,27.1046,-12.5233,82.222
2023-03-10 00:17:48:307,-2.12972,-4.28765,-8.58818,27.1014,-12.5248,82.2227
2023-03-10 00:17:48:317,-2.13306,-4.27672,-8.58487,27.0978,-12.5269,82.2205
2023-03-10 00:17:48:327,-2.12556,-4.26612,-8.56261,27.0975,-12.5298,82.2218
2023-03-10 00:17:48:337,-2.11353,-4.26701,-8.53351,27.098,-12.5356,82.2245
2023-03-10 00:17:48:347,-2.1115,-4.28589,-8.5478,27.1006,-12.5366,82.2211
2023-03-10 00:17:48:357,-2.12428,-4.29249,-8.53018,27.0979,-12.5423,82.2233
2023-03-10 00:17:48:367,-2.13345,-4.30814,-8.53237,27.0978,-12.5491,82.2268
2023-03-10 00:17:48:377,-2.17682,-4.29527,-8.53497,27.0983,-12.5599,82.2288
2023-03-10 00:17:48:387,-2.18995,-4.29272,-8.5364,27.0973,-12.5706,82.2332
2023-03-10 00:17:48:397,-2.14582,-4.29378,-8.56136,27.098,-12.5755,82.236
2023-03-10 00:17:48:407,-2.0997,-4.30542,-8.55538,27.0967,-12.5803,82.243
2023-03-10 00:17:48:417,-2.12731,-4.31247,-8.53322,27.0985,-12.5912,82.2504
2023-03-10 00:17:48:427,-2.18961,-4.30971,-8.49395,27.1037,-12.6054,82.2576
2023-03-10 00:17:48:437,-2.23943,-4.29645,-8.47581,27.1008,-12.6221,82.2695
2023-03-10 00:17:48:447,-2.27674,-4.28596,-8.4762,27.0989,-12.6353,82.2776
2023-03-10 00:17:48:457,-2.29073,-4.27468,-8.47789,27.0978,-12.6497,82.2853
2023-03-10 00:17:48:467,-2.28768,-4.25613,-8.485,27.0965,-12.6607,82.2924
2023-03-10 00:17:48:477,-2.29104,-4.2512,-8.50025,27.0949,-12.671,82.2956
2023-03-10 00:17:48:487,-2.32007,-4.24151,-8.53586,27.0922,-12.6808,82.2932
2023-03-10 00:17:48:497,-2.36041,-4.22045,-8.56774,27.0954,-12.688,82.2885
2023-03-10 00:17:48:507,-2.41838,-4.22571,-8.59178,27.0959,-12.6954,82.2732
2023-03-10 00:17:48:517,-2.5728,-4.21637,-8.64995,27.1083,-12.7087,82.2357
2023-03-10 00:17:48:527,-3.07122,-4.10022,-8.67535,27.1338,-12.7385,82.1661
2023-03-10 00:17:48:537,-3.66099,-3.97991,-8.71663,27.1748,-12.8072,82.025
2023-03-10 00:17:48:547,-3.81812,-3.95485,-8.84602,27.2425,-12.8899,81.7441
2023-03-10 00:17:48:557,-3.56744,-3.83905,-8.99042,27.3203,-12.9867,81.2795
2023-03-10 00:17:48:567,-3.16454,-3.83896,-9.13656,27.4371,-13.1142,80.6225
2023-03-10 00:17:48:577,-2.91644,-3.92439,-9.18896,27.6101,-13.2966,79.7919
2023-03-10 00:17:48:587,-2.88176,-3.9858,-9.09714,27.8374,-13.5499,78.8062
2023-03-10 00:17:48:597,-2.89531,-4.10272,-8.87357,28.1187,-13.8704,77.6683
2023-03-10 00:17:48:607,-2.78634,-4.26076,-8.6031,28.4452,-14.2323,76.4038
2023-03-10 00:17:48:617,-2.5161,-4.43243,-8.36346,28.7928,-14.6004,75.0527
2023-03-10 00:17:48:627,-2.26411,-4.64081,-8.11062,29.1587,-14.9651,73.6662
2023-03-10 00:17:48:637,-1.89349,-4.82169,-8.03137,29.5202,-15.2917,72.2893
2023-03-10 00:17:48:647,-1.60227,-4.85218,-7.93703,29.8592,-15.6048,70.9726
2023-03-10 00:17:48:657,-1.45674,-4.93318,-7.83573,30.176,-15.8995,69.7343
2023-03-10 00:17:48:667,-1.38415,-5.0222,-7.74052,30.4628,-16.1786,68.6116
2023-03-10 00:17:48:677,-1.3394,-5.10414,-7.62988,30.712,-16.4408,67.6208
2023-03-10 00:17:48:687,-1.30872,-5.18433,-7.57234,30.9204,-16.6772,66.786
2023-03-10 00:17:48:697,-1.28172,-5.24954,-7.59859,31.0779,-16.8849,66.121
2023-03-10 00:17:48:707,-1.21238,-5.2101,-7.71662,31.173,-17.0588,65.6439
2023-03-10 00:17:48:717,-1.14752,-5.12508,-7.88043,31.2032,-17.193,65.3757
2023-03-10 00:17:48:727,-1.14641,-5.0482,-8.01554,31.1819,-17.2838,65.3319
2023-03-10 00:17:48:737,-1.20063,-4.96435,-8.06539,31.1109,-17.3298,65.5343
2023-03-10 00:17:48:747,-1.29858,-4.84927,-8.04409,30.9894,-17.316,65.9947
2023-03-10 00:17:48:757,-1.42362,-4.78628,-8.03093,30.8187,-17.2344,66.7208
2023-03-10 00:17:48:767,-1.43675,-4.81003,-8.03197,30.6069,-17.083,67.6958
2023-03-10 00:17:48:777,-1.4002,-4.74981,-8.05286,30.3437,-16.8526,68.9078
2023-03-10 00:17:48:787,-1.45703,-4.68507,-8.16824,30.0259,-16.5551,70.3436
2023-03-10 00:17:48:797,-1.53201,-4.62143,-8.23871,29.6701,-16.2082,71.9809
2023-03-10 00:17:48:807,-1.61136,-4.48022,-8.32307,29.2712,-15.8078,73.8095
2023-03-10 00:17:48:817,-1.70675,-4.29978,-8.4659,28.84,-15.3499,75.8159
2023-03-10 00:17:48:827,-1.85238,-4.06355,-8.59208,28.3882,-14.8275,77.9828
2023-03-10 00:17:48:837,-2.22382,-3.81596,-8.68123,27.9305,-14.2465,80.2907
2023-03-10 00:17:48:847,-2.87626,-3.71258,-8.76235,27.4974,-13.6273,82.6919
2023-03-10 00:17:48:857,-3.67063,-3.72937,-8.90736,27.1071,-12.9815,85.1116
2023-03-10 00:17:48:867,-4.38234,-3.71224,-9.1491,26.7664,-12.3311,87.4511
2023-03-10 00:17:48:877,-4.67932,-3.61589,-9.39295,26.471,-11.6881,89.5924
2023-03-10 00:17:48:887,-4.41962,-3.4307,-9.5731,26.2227,-11.0837,91.4215
2023-03-10 00:17:48:897,-4.01454,-3.26182,-9.67426,26.0241,-10.5723,92.8862
2023-03-10 00:17:48:907,-3.87476,-3.24491,-9.70396,25.9006,-10.2147,93.977
2023-03-10 00:17:48:917,-4.10897,-3.34443,-9.58116,25.8663,-10.0448,94.6855
2023-03-10 00:17:48:927,-4.45478,-3.46085,-9.29317,25.9036,-10.0539,95.0114
2023-03-10 00:17:48:937,-4.47565,-3.60396,-8.99253,25.9983,-10.2021,94.955
2023-03-10 00:17:48:947,-4.51208,-3.63713,-8.61559,26.1355,-10.4599,94.5294
2023-03-10 00:17:48:957,-4.02012,-4.00016,-8.57353,26.3137,-10.7717,93.7233
2023-03-10 00:17:48:967,-3.26084,-3.96378,-8.59949,26.5071,-11.1445,92.6509
2023-03-10 00:17:48:977,-2.97209,-4.00637,-8.55627,26.7271,-11.5925,91.3372
2023-03-10 00:17:48:987,-2.78394,-4.13248,-8.51548,26.9749,-12.1046,89.8208
2023-03-10 00:17:48:997,-2.69551,-4.24934,-8.4345,27.2454,-12.6689,88.1578
2023-03-10 00:17:49:7,-2.64286,-4.25222,-8.3637,27.5353,-13.2674,86.3748
2023-03-10 00:17:49:17,-2.3824,-4.29475,-8.38405,27.8348,-13.8526,84.4986
2023-03-10 00:17:49:27,-2.18507,-4.3438,-8.31007,28.1499,-14.4427,82.5768
2023-03-10 00:17:49:37,-2.01518,-4.50766,-8.24691,28.482,-15.0107,80.6502
2023-03-10 00:17:49:47,-1.5824,-4.74992,-8.1667,28.8107,-15.547,78.768
2023-03-10 00:17:49:57,-1.15755,-4.89045,-8.14835,29.1237,-16.0487,76.9811
2023-03-10 00:17:49:67,-0.897253,-4.94643,-8.29994,29.3979,-16.5068,75.3519
2023-03-10 00:17:49:77,-0.631339,-4.93798,-8.49834,29.6401,-16.9063,73.9242
2023-03-10 00:17:49:87,-0.4516,-4.80903,-8.55491,29.8362,-17.2493,72.7705
2023-03-10 00:17:49:97,-0.624686,-4.64739,-8.42992,29.9923,-17.5385,71.9478
2023-03-10 00:17:49:107,-1.14377,-4.6785,-8.16165,30.1272,-17.7792,71.4681
2023-03-10 00:17:49:117,-1.70147,-4.84522,-7.83655,30.2327,-17.9579,71.3077
2023-03-10 00:17:49:127,-1.96701,-4.94442,-7.59777,30.2663,-18.0369,71.4449
2023-03-10 00:17:49:137,-1.92081,-4.96937,-7.56071,30.221,-18.0009,71.8562
2023-03-10 00:17:49:147,-1.76531,-4.85742,-7.66856,30.089,-17.8587,72.5151
2023-03-10 00:17:49:157,-1.73374,-4.73314,-7.87467,29.8822,-17.6441,73.3919
2023-03-10 00:17:49:167,-1.8786,-4.64002,-8.01751,29.622,-17.3778,74.4665
2023-03-10 00:17:49:177,-2.17641,-4.49216,-8.09911,29.3248,-17.0755,75.7128
2023-03-10 00:17:49:187,-2.56393,-4.38164,-8.1853,28.9996,-16.7391,77.0964
2023-03-10 00:17:49:197,-2.98327,-4.32031,-8.29664,28.6646,-16.3705,78.5717
2023-03-10 00:17:49:207,-3.35596,-4.27281,-8.49694,28.3359,-15.9643,80.0917
2023-03-10 00:17:49:217,-3.6388,-4.19268,-8.74499,28.0177,-15.5275,81.6037
2023-03-10 00:17:49:227,-3.87166,-4.04549,-8.89766,27.7212,-15.0862,83.0476
2023-03-10 00:17:49:237,-3.88666,-3.92942,-9.00277,27.4676,-14.6578,84.3564
2023-03-10 00:17:49:247,-3.70826,-3.9045,-9.07602,27.2647,-14.2574,85.4916
2023-03-10 00:17:49:257,-3.48482,-3.91792,-9.06221,27.1225,-13.9045,86.4384
2023-03-10 00:17:49:267,-3.38575,-3.98997,-8.97199,27.0391,-13.6216,87.19
2023-03-10 00:17:49:277,-3.49992,-4.04349,-8.82673,27.0044,-13.4244,87.7528
2023-03-10 00:17:49:287,-3.67107,-4.06319,-8.66829,27.0097,-13.3146,88.1243
2023-03-10 00:17:49:297,-3.68239,-4.10877,-8.53915,27.0491,-13.2681,88.2887
2023-03-10 00:17:49:307,-3.58427,-4.15762,-8.37202,27.1149,-13.2789,88.2502
2023-03-10 00:17:49:317,-3.34016,-4.24809,-8.20572,27.2037,-13.3406,88.0244
2023-03-10 00:17:49:326,-2.95715,-4.35531,-8.10724,27.2932,-13.4354,87.6432
2023-03-10 00:17:49:337,-2.63891,-4.39678,-8.06646,27.3846,-13.5562,87.1371
2023-03-10 00:17:49:347,-2.41067,-4.41322,-8.05942,27.4742,-13.7112,86.5524
2023-03-10 00:17:49:357,-2.27253,-4.43717,-8.0846,27.5521,-13.8901,85.9138
2023-03-10 00:17:49:367,-2.22232,-4.44547,-8.15512,27.6196,-14.087,85.2489
2023-03-10 00:17:49:377,-2.26304,-4.39237,-8.22192,27.6751,-14.2973,84.5829
2023-03-10 00:17:49:387,-2.32254,-4.34029,-8.28509,27.7248,-14.5057,83.9365
2023-03-10 00:17:49:397,-2.36424,-4.33641,-8.29815,27.7668,-14.7027,83.3179
2023-03-10 00:17:49:407,-2.40227,-4.35911,-8.38132,27.8065,-14.8788,82.7384
2023-03-10 00:17:49:417,-2.32455,-4.36754,-8.42818,27.8355,-15.0264,82.208
2023-03-10 00:17:49:427,-2.30578,-4.3426,-8.48035,27.8578,-15.1517,81.7374
2023-03-10 00:17:49:437,-2.30895,-4.32371,-8.53535,27.8693,-15.2421,81.3373
2023-03-10 00:17:49:447,-2.2288,-4.35072,-8.53947,27.8783,-15.3043,80.9985
2023-03-10 00:17:49:457,-2.17849,-4.36865,-8.53812,27.8779,-15.3436,80.7416
2023-03-10 00:17:49:467,-2.20827,-4.35515,-8.5735,27.8706,-15.3672,80.5634
2023-03-10 00:17:49:477,-2.33511,-4.3093,-8.54684,27.8541,-15.3754,80.4561
2023-03-10 00:17:49:487,-2.40891,-4.32853,-8.60311,27.8364,-15.3553,80.4078
2023-03-10 00:17:49:497,-2.27924,-4.24407,-8.62575,27.8119,-15.3068,80.422
2023-03-10 00:17:49:507,-2.27662,-4.25366,-8.61769,27.7917,-15.2477,80.4846
2023-03-10 00:17:49:517,-2.38563,-4.29874,-8.57325,27.7766,-15.1865,80.5879
2023-03-10 00:17:49:527,-2.53573,-4.30403,-8.4819,27.7673,-15.1273,80.7237
2023-03-10 00:17:49:537,-2.57124,-4.30893,-8.47039,27.7599,-15.0561,80.8771
2023-03-10 00:17:49:547,-2.49909,-4.30389,-8.48635,27.7517,-14.9768,81.0361
2023-03-10 00:17:49:557,-2.44833,-4.31323,-8.52546,27.7483,-14.8966,81.193
2023-03-10 00:17:49:567,-2.46332,-4.32287,-8.51681,27.7551,-14.8202,81.3507
2023-03-10 00:17:49:577,-2.50859,-4.36207,-8.48279,27.77,-14.7478,81.4986
2023-03-10 00:17:49:587,-2.5063,-4.40751,-8.42862,27.7925,-14.686,81.6308
2023-03-10 00:17:49:597,-2.48144,-4.44594,-8.39306,27.8177,-14.6271,81.75
2023-03-10 00:17:49:607,-2.46591,-4.4518,-8.35343,27.8468,-14.5768,81.8539
2023-03-10 00:17:49:617,-2.47499,-4.45961,-8.31524,27.8734,-14.5379,81.9404
2023-03-10 00:17:49:627,-2.4859,-4.46707,-8.28546,27.8981,-14.5054,82.0118
2023-03-10 00:17:49:637,-2.49423,-4.45913,-8.28411,27.9185,-14.4799,82.0587
2023-03-10 00:17:49:647,-2.51046,-4.44193,-8.27786,27.9382,-14.4605,82.0924
2023-03-10 00:17:49:657,-2.52645,-4.43023,-8.2556,27.9537,-14.4503,82.1096
2023-03-10 00:17:49:667,-2.51072,-4.43307,-8.24041,27.9679,-14.4428,82.1092
2023-03-10 00:17:49:677,-2.47183,-4.44535,-8.23378,27.977,-14.4404,82.095
2023-03-10 00:17:49:687,-2.43174,-4.44884,-8.24245,27.9877,-14.4404,82.0641
2023-03-10 00:17:49:697,-2.3986,-4.438,-8.23222,27.9902,-14.4383,82.0279
2023-03-10 00:17:49:707,-2.37621,-4.45307,-8.26412,27.9916,-14.4416,81.9857
2023-03-10 00:17:49:717,-2.36431,-4.43428,-8.27058,27.9863,-14.4481,81.9426
2023-03-10 00:17:49:727,-2.37555,-4.42629,-8.31498,27.9777,-14.4566,81.903
2023-03-10 00:17:49:737,-2.39058,-4.43719,-8.3551,27.9643,-14.4682,81.8666
2023-03-10 00:17:49:747,-2.38119,-4.42681,-8.37123,27.9447,-14.4753,81.8354
2023-03-10 00:17:49:757,-2.41811,-4.40659,-8.39903,27.9255,-14.483,81.8107
2023-03-10 00:17:49:767,-2.47561,-4.36823,-8.43173,27.8984,-14.488,81.7935
2023-03-10 00:17:49:777,-2.49569,-4.35137,-8.46821,27.8706,-14.4951,81.7825
2023-03-10 00:17:49:787,-2.48237,-4.3494,-8.50415,27.8495,-14.4961,81.7759
2023-03-10 00:17:49:797,-2.47938,-4.33817,-8.51365,27.8273,-14.4928,81.7736
2023-03-10 00:17:49:807,-2.48478,-4.31737,-8.50907,27.8047,-14.4869,81.7729
2023-03-10 00:17:49:817,-2.48686,-4.32801,-8.50616,27.7905,-14.4807,81.7741
2023-03-10 00:17:49:827,-2.4702,-4.32652,-8.48135,27.7746,-14.4733,81.7783
2023-03-10 00:17:49:837,-2.46765,-4.32703,-8.48381,27.7619,-14.4581,81.7813
2023-03-10 00:17:49:847,-2.46117,-4.31862,-8.45989,27.7542,-14.4433,81.7866
2023-03-10 00:17:49:857,-2.47234,-4.32184,-8.45072,27.7495,-14.4289,81.788
2023-03-10 00:17:49:867,-2.48123,-4.31518,-8.43899,27.7421,-14.4176,81.7881
2023-03-10 00:17:49:877,-2.4975,-4.31378,-8.44296,27.7381,-14.407,81.7855
2023-03-10 00:17:49:887,-2.48162,-4.31582,-8.44871,27.7347,-14.3979,81.7821
2023-03-10 00:17:49:897,-2.45625,-4.32878,-8.46709,27.7328,-14.3868,81.7705
2023-03-10 00:17:49:907,-2.41862,-4.33223,-8.46041,27.7316,-14.3783,81.7551
2023-03-10 00:17:49:917,-2.40735,-4.32996,-8.46768,27.7351,-14.3689,81.7412
2023-03-10 00:17:49:927,-2.409,-4.32831,-8.48227,27.7388,-14.359,81.7288
2023-03-10 00:17:49:937,-2.4077,-4.33339,-8.49557,27.7441,-14.3563,81.7119
2023-03-10 00:17:49:947,-2.4181,-4.3461,-8.53216,27.7513,-14.3533,81.6955
2023-03-10 00:17:49:957,-2.44103,-4.35097,-8.59073,27.7598,-14.356,81.6799
2023-03-10 00:17:49:967,-2.45425,-4.28933,-8.66378,27.7741,-14.3568,81.6638
2023-03-10 00:17:49:977,-2.48088,-4.21509,-8.71305,27.795,-14.362,81.6438
2023-03-10 00:17:49:987,-2.54372,-4.20392,-8.69533,27.8296,-14.3686,81.621
2023-03-10 00:17:49:997,-2.55223,-4.26193,-8.57793,27.8858,-14.3814,81.59
2023-03-10 00:17:50:7,-2.5224,-4.35971,-8.42095,27.9602,-14.3965,81.5459
2023-03-10 00:17:50:17,-2.46954,-4.45255,-8.30029,28.0362,-14.4044,81.4961
2023-03-10 00:17:50:27,-2.44806,-4.48357,-8.25945,28.1133,-14.4192,81.4422
2023-03-10 00:17:50:37,-2.45635,-4.44923,-8.2752,28.1793,-14.4366,81.3855
2023-03-10 00:17:50:47,-2.50166,-4.4305,-8.31832,28.2354,-14.4576,81.3266
2023-03-10 00:17:50:57,-2.52964,-4.42502,-8.30215,28.2915,-14.4768,81.2653
2023-03-10 00:17:50:67,-2.52294,-4.43998,-8.29915,28.3459,-14.4971,81.2044
2023-03-10 00:17:50:77,-2.52215,-4.47307,-8.29672,28.3978,-14.5149,81.1423
2023-03-10 00:17:50:87,-2.49994,-4.47572,-8.28727,28.4452,-14.531,81.0845
2023-03-10 00:17:50:97,-2.47393,-4.48841,-8.29276,28.4887,-14.5476,81.0219
2023-03-10 00:17:50:107,-2.4608,-4.49662,-8.29658,28.5314,-14.5607,80.9675
2023-03-10 00:17:50:117,-2.45362,-4.49619,-8.29334,28.569,-14.5746,80.9211
2023-03-10 00:17:50:127,-2.45273,-4.50571,-8.29087,28.6041,-14.5842,80.8772
2023-03-10 00:17:50:137,-2.46025,-4.51816,-8.27311,28.6397,-14.5894,80.8404
2023-03-10 00:17:50:147,-2.48329,-4.53933,-8.26229,28.6657,-14.5943,80.8114
2023-03-10 00:17:50:157,-2.487,-4.55217,-8.25367,28.6943,-14.5942,80.7886
2023-03-10 00:17:50:167,-2.47906,-4.55261,-8.26868,28.7162,-14.5925,80.7703
2023-03-10 00:17:50:177,-2.47138,-4.54563,-8.27959,28.736,-14.5841,80.7593
2023-03-10 00:17:50:187,-2.44408,-4.55656,-8.29435,28.7504,-14.5739,80.7491
2023-03-10 00:17:50:197,-2.41937,-4.55289,-8.2881,28.7668,-14.565,80.7427
2023-03-10 00:17:50:207,-2.41254,-4.57147,-8.31689,28.7827,-14.5543,80.7359
2023-03-10 00:17:50:217,-2.45863,-4.54996,-8.33193,28.795,-14.5539,80.7271
2023-03-10 00:17:50:227,-2.5112,-4.52502,-8.31756,28.8068,-14.5569,80.7161
2023-03-10 00:17:50:237,-2.55555,-4.52425,-8.28838,28.8193,-14.5622,80.7016
2023-03-10 00:17:50:247,-2.58287,-4.52447,-8.27413,28.8308,-14.5682,80.6737
2023-03-10 00:17:50:257,-2.59309,-4.50439,-8.26933,28.8427,-14.5754,80.6404
2023-03-10 00:17:50:267,-2.58897,-4.50018,-8.26323,28.851,-14.5797,80.5985
2023-03-10 00:17:50:277,-2.55833,-4.49735,-8.27273,28.8583,-14.5861,80.5457
2023-03-10 00:17:50:287,-2.56729,-4.48626,-8.28933,28.8713,-14.5961,80.4789
2023-03-10 00:17:50:297,-2.58696,-4.48446,-8.30408,28.8825,-14.6082,80.4034
2023-03-10 00:17:50:307,-2.56857,-4.50273,-8.33566,28.9025,-14.6243,80.3162
2023-03-10 00:17:50:317,-2.53719,-4.52199,-8.35017,28.9268,-14.6374,80.2187
2023-03-10 00:17:50:327,-2.54768,-4.54099,-8.37034,28.9547,-14.6534,80.1132
2023-03-10 00:17:50:337,-2.5643,-4.54236,-8.4109,28.9838,-14.6723,79.9914
2023-03-10 00:17:50:347,-2.61229,-4.52665,-8.47183,29.0169,-14.6966,79.8619
2023-03-10 00:17:50:357,-2.65189,-4.51115,-8.50656,29.0586,-14.7229,79.7251
2023-03-10 00:17:50:367,-2.67578,-4.53252,-8.47033,29.1143,-14.749,79.574
2023-03-10 00:17:50:377,-2.64147,-4.57284,-8.3886,29.184,-14.7716,79.4063
2023-03-10 00:17:50:387,-2.61506,-4.63221,-8.30288,29.2616,-14.7963,79.2315
2023-03-10 00:17:50:397,-2.59218,-4.66891,-8.20847,29.346,-14.8196,79.0497
2023-03-10 00:17:50:407,-2.54497,-4.70582,-8.14182,29.426,-14.8405,78.8634
2023-03-10 00:17:50:417,-2.50965,-4.7065,-8.11824,29.4985,-14.8621,78.6713
2023-03-10 00:17:50:427,-2.51959,-4.70752,-8.12527,29.5654,-14.8799,78.4759
2023-03-10 00:17:50:437,-2.5517,-4.6857,-8.12107,29.6235,-14.8954,78.2874
2023-03-10 00:17:50:447,-2.56547,-4.67467,-8.14542,29.6776,-14.9081,78.1008
2023-03-10 00:17:50:457,-2.55456,-4.67794,-8.18544,29.7338,-14.9209,77.9145
2023-03-10 00:17:50:467,-2.51443,-4.66213,-8.22692,29.7843,-14.9283,77.7334
2023-03-10 00:17:50:477,-2.54379,-4.66708,-8.24387,29.8317,-14.9392,77.5497
2023-03-10 00:17:50:487,-2.6607,-4.66249,-8.2245,29.8845,-14.9503,77.3622
2023-03-10 00:17:50:497,-2.78787,-4.65755,-8.18976,29.9392,-14.9671,77.1697
2023-03-10 00:17:50:507,-2.80748,-4.67633,-8.15952,29.995,-14.978,76.9642
2023-03-10 00:17:50:516,-2.78516,-4.6932,-8.13524,30.0527,-14.9867,76.7417
2023-03-10 00:17:50:527,-2.75252,-4.70328,-8.12263,30.1096,-14.9935,76.4982
2023-03-10 00:17:50:537,-2.68248,-4.70705,-8.1071,30.1648,-14.9959,76.2386
2023-03-10 00:17:50:547,-2.62563,-4.71381,-8.10288,30.2212,-15,75.9668
2023-03-10 00:17:50:557,-2.6051,-4.7012,-8.1008,30.275,-15.0092,75.6785
2023-03-10 00:17:50:567,-2.5513,-4.71183,-8.11056,30.3197,-15.0187,75.3773
2023-03-10 00:17:50:577,-2.42893,-4.7298,-8.1188,30.3635,-15.0273,75.0697
2023-03-10 00:17:50:587,-2.30938,-4.74737,-8.11802,30.4025,-15.0409,74.7607
2023-03-10 00:17:50:597,-2.27329,-4.77197,-8.08727,30.4429,-15.0606,74.4576
2023-03-10 00:17:50:607,-2.2729,-4.81692,-8.07252,30.4838,-15.0884,74.1579
2023-03-10 00:17:50:617,-2.30729,-4.83253,-8.0367,30.5152,-15.1212,73.8728
2023-03-10 00:17:50:627,-2.34072,-4.841,-8.04199,30.5386,-15.1567,73.6066
2023-03-10 00:17:50:637,-2.34439,-4.83685,-8.05504,30.5566,-15.1897,73.3583
2023-03-10 00:17:50:647,-2.33768,-4.83182,-8.06795,30.5669,-15.2217,73.1237
2023-03-10 00:17:50:657,-2.33937,-4.8403,-8.09655,30.5737,-15.252,72.9094
2023-03-10 00:17:50:667,-2.36633,-4.84503,-8.10476,30.572,-15.2843,72.7106
2023-03-10 00:17:50:677,-2.42657,-4.82481,-8.11989,30.5623,-15.323,72.5308
2023-03-10 00:17:50:687,-2.49896,-4.79235,-8.13756,30.547,-15.3628,72.3675
2023-03-10 00:17:50:697,-2.55318,-4.76528,-8.14898,30.5279,-15.4022,72.2169
2023-03-10 00:17:50:707,-2.58012,-4.7611,-8.18727,30.5041,-15.4329,72.0845
2023-03-10 00:17:50:717,-2.60322,-4.73959,-8.19355,30.476,-15.4585,71.9652
2023-03-10 00:17:50:727,-2.61138,-4.71722,-8.20234,30.4451,-15.478,71.8637
2023-03-10 00:17:50:737,-2.62024,-4.71127,-8.19984,30.417,-15.4885,71.7702
2023-03-10 00:17:50:747,-2.60372,-4.71994,-8.19169,30.3868,-15.4931,71.6904
2023-03-10 00:17:50:757,-2.59895,-4.71023,-8.19138,30.3553,-15.4957,71.6284
2023-03-10 00:17:50:767,-2.61337,-4.69341,-8.21258,30.3231,-15.4925,71.5738
2023-03-10 00:17:50:777,-2.62834,-4.68576,-8.21814,30.2896,-15.4862,71.5282
2023-03-10 00:17:50:787,-2.64969,-4.67912,-8.21836,30.2569,-15.4767,71.4887
2023-03-10 00:17:50:797,-2.64232,-4.6756,-8.23006,30.2189,-15.4635,71.4574
2023-03-10 00:17:50:807,-2.60618,-4.66603,-8.21815,30.1859,-15.4505,71.4301
2023-03-10 00:17:50:817,-2.59087,-4.6809,-8.20395,30.1507,-15.4332,71.4085
2023-03-10 00:17:50:827,-2.59845,-4.67787,-8.19423,30.1161,-15.4163,71.3892
2023-03-10 00:17:50:837,-2.59578,-4.66493,-8.18069,30.0812,-15.4005,71.3725
2023-03-10 00:17:50:847,-2.58974,-4.66057,-8.18711,30.047,-15.3834,71.3581
2023-03-10 00:17:50:857,-2.57568,-4.65461,-8.20506,30.0127,-15.3622,71.3451
2023-03-10 00:17:50:867,-2.55683,-4.63926,-8.21076,29.9749,-15.3432,71.3331
2023-03-10 00:17:50:877,-2.55536,-4.64173,-8.21956,29.9357,-15.323,71.3235
2023-03-10 00:17:50:887,-2.55662,-4.62679,-8.23667,29.898,-15.3109,71.3156
2023-03-10 00:17:50:897,-2.52791,-4.60929,-8.25508,29.8585,-15.2966,71.3065
2023-03-10 00:17:50:907,-2.5165,-4.60356,-8.26227,29.8231,-15.286,71.2995
2023-03-10 00:17:50:917,-2.54386,-4.59745,-8.23694,29.7903,-15.2825,71.2884
2023-03-10 00:17:50:927,-2.5881,-4.58602,-8.2393,29.7575,-15.2822,71.2799
2023-03-10 00:17:50:937,-2.60511,-4.57582,-8.23658,29.7247,-15.287,71.2713
2023-03-10 00:17:50:947,-2.61348,-4.56429,-8.24831,29.6845,-15.2953,71.265
2023-03-10 00:17:50:957,-2.61632,-4.55731,-8.25749,29.6499,-15.3007,71.2563
2023-03-10 00:17:50:967,-2.63487,-4.53608,-8.26884,29.6162,-15.3044,71.2478
2023-03-10 00:17:50:977,-2.64373,-4.54352,-8.28665,29.584,-15.3079,71.2386
2023-03-10 00:17:50:987,-2.6544,-4.54383,-8.28442,29.5529,-15.3134,71.2326
2023-03-10 00:17:50:997,-2.65956,-4.55264,-8.28311,29.5266,-15.3186,71.2251
2023-03-10 00:17:51:7,-2.64295,-4.5642,-8.29686,29.4961,-15.3209,71.2203
2023-03-10 00:17:51:17,-2.63427,-4.54783,-8.30604,29.4652,-15.3213,71.2161
2023-03-10 00:17:51:27,-2.6303,-4.54401,-8.29904,29.4378,-15.3202,71.2163
2023-03-10 00:17:51:37,-2.62843,-4.53204,-8.28581,29.4124,-15.3148,71.216
2023-03-10 00:17:51:47,-2.63268,-4.5293,-8.30364,29.3865,-15.3078,71.2195
2023-03-10 00:17:51:57,-2.65435,-4.52572,-8.30659,29.363,-15.3019,71.2195
2023-03-10 00:17:51:67,-2.67977,-4.5384,-8.29596,29.3409,-15.2941,71.221
2023-03-10 00:17:51:77,-2.67328,-4.53664,-8.29774,29.3224,-15.284,71.2204
2023-03-10 00:17:51:87,-2.63028,-4.54723,-8.31079,29.3039,-15.2717,71.2167
2023-03-10 00:17:51:97,-2.56916,-4.54916,-8.34631,29.2852,-15.2566,71.2093
2023-03-10 00:17:51:107,-2.53154,-4.56238,-8.33747,29.2685,-15.2361,71.2071
2023-03-10 00:17:51:117,-2.54071,-4.57536,-8.32595,29.2586,-15.2222,71.2017
2023-03-10 00:17:51:127,-2.56835,-4.5697,-8.3063,29.2479,-15.2162,71.1961
2023-03-10 00:17:51:137,-2.60369,-4.55094,-8.29506,29.2364,-15.2124,71.1957
2023-03-10 00:17:51:147,-2.61724,-4.53137,-8.28301,29.227,-15.2067,71.1921
2023-03-10 00:17:51:157,-2.62235,-4.5136,-8.27526,29.2198,-15.2,71.1953
2023-03-10 00:17:51:167,-2.60711,-4.51323,-8.26982,29.2086,-15.1934,71.1979
2023-03-10 00:17:51:177,-2.58994,-4.52028,-8.25917,29.2045,-15.1843,71.1986
2023-03-10 00:17:51:187,-2.55475,-4.53053,-8.24017,29.2004,-15.1744,71.1982
2023-03-10 00:17:51:197,-2.54103,-4.547,-8.2244,29.1979,-15.1666,71.1966
2023-03-10 00:17:51:207,-2.53759,-4.55977,-8.21675,29.188,-15.1581,71.1957
2023-03-10 00:17:51:217,-2.5563,-4.56798,-8.22044,29.18,-15.1518,71.1984
2023-03-10 00:17:51:227,-2.57843,-4.57479,-8.24898,29.1711,-15.1482,71.2
2023-03-10 00:17:51:237,-2.57283,-4.56709,-8.26921,29.1563,-15.1416,71.2049
2023-03-10 00:17:51:247,-2.55853,-4.55717,-8.27313,29.1419,-15.1312,71.2077
2023-03-10 00:17:51:257,-2.55107,-4.56018,-8.27952,29.1278,-15.1195,71.2142
2023-03-10 00:17:51:267,-2.54192,-4.56213,-8.29357,29.1089,-15.1097,71.227
2023-03-10 00:17:51:277,-2.53731,-4.55445,-8.30599,29.091,-15.1005,71.2367
2023-03-10 00:17:51:287,-2.51143,-4.55325,-8.31819,29.0721,-15.0906,71.2505
2023-03-10 00:17:51:297,-2.53113,-4.53495,-8.33569,29.0538,-15.0823,71.2666
2023-03-10 00:17:51:307,-2.5529,-4.49646,-8.3428,29.0317,-15.0731,71.2886
2023-03-10 00:17:51:317,-2.57271,-4.4969,-8.34681,29.0129,-15.0646,71.3113
2023-03-10 00:17:51:327,-2.57825,-4.51301,-8.31551,28.9964,-15.0549,71.333
2023-03-10 00:17:51:337,-2.56116,-4.50561,-8.30388,28.9812,-15.043,71.3555
2023-03-10 00:17:51:347,-2.51435,-4.50617,-8.32603,28.9684,-15.0284,71.3738
2023-03-10 00:17:51:357,-2.48182,-4.49862,-8.35782,28.9515,-15.0137,71.394
2023-03-10 00:17:51:367,-2.47513,-4.50717,-8.38502,28.9407,-15.0024,71.411
2023-03-10 00:17:51:377,-2.49079,-4.51869,-8.35981,28.9355,-14.9934,71.4325
2023-03-10 00:17:51:387,-2.5078,-4.53146,-8.33141,28.9301,-14.9892,71.4539
2023-03-10 00:17:51:397,-2.53212,-4.53344,-8.32651,28.9274,-14.9872,71.4714
2023-03-10 00:17:51:407,-2.54468,-4.52224,-8.31922,28.9238,-14.9874,71.4885
2023-03-10 00:17:51:417,-2.55512,-4.51633,-8.30072,28.9215,-14.9867,71.5096
2023-03-10 00:17:51:427,-2.54078,-4.51008,-8.29181,28.916,-14.9823,71.5263
2023-03-10 00:17:51:437,-2.50646,-4.49969,-8.29741,28.9114,-14.9809,71.5462
2023-03-10 00:17:51:447,-2.51077,-4.49386,-8.30982,28.9096,-14.9821,71.5647
2023-03-10 00:17:51:457,-2.50579,-4.48749,-8.306,28.9037,-14.9818,71.5849
2023-03-10 00:17:51:467,-2.49451,-4.51755,-8.31676,28.9031,-14.9812,71.6036
2023-03-10 00:17:51:477,-2.47205,-4.52115,-8.31739,28.9026,-14.9794,71.628
2023-03-10 00:17:51:487,-2.46569,-4.51534,-8.32243,28.9025,-14.979,71.6522
2023-03-10 00:17:51:497,-2.44506,-4.51246,-8.31463,28.8984,-14.9786,71.6763
2023-03-10 00:17:51:507,-2.42265,-4.53168,-8.3133,28.8919,-14.9844,71.7071
2023-03-10 00:17:51:517,-2.406,-4.55111,-8.30697,28.8848,-14.994,71.7419
2023-03-10 00:17:51:527,-2.4003,-4.55507,-8.2907,28.8821,-15.0016,71.7775
2023-03-10 00:17:51:537,-2.41113,-4.54907,-8.29167,28.8746,-15.0116,71.8218
2023-03-10 00:17:51:547,-2.42783,-4.54763,-8.29767,28.8616,-15.026,71.8695
2023-03-10 00:17:51:557,-2.45743,-4.54443,-8.30686,28.8514,-15.0437,71.926
2023-03-10 00:17:51:567,-2.47318,-4.53676,-8.29853,28.8384,-15.0657,71.9862
2023-03-10 00:17:51:577,-2.48391,-4.52622,-8.28298,28.8265,-15.0883,72.0516
2023-03-10 00:17:51:587,-2.51643,-4.51222,-8.27437,28.8099,-15.1075,72.1249
2023-03-10 00:17:51:597,-2.53844,-4.51665,-8.27492,28.7899,-15.1308,72.2013
2023-03-10 00:17:51:607,-2.56301,-4.50096,-8.26671,28.7705,-15.155,72.2868
2023-03-10 00:17:51:617,-2.59469,-4.48912,-8.27813,28.7492,-15.1764,72.3765
2023-03-10 00:17:51:627,-2.63631,-4.48974,-8.28378,28.7249,-15.1952,72.4721
2023-03-10 00:17:51:637,-2.65546,-4.47104,-8.29033,28.6972,-15.2096,72.5754
2023-03-10 00:17:51:647,-2.6699,-4.4723,-8.30811,28.6733,-15.2208,72.6758
2023-03-10 00:17:51:657,-2.65924,-4.4675,-8.31984,28.6488,-15.2318,72.7776
2023-03-10 00:17:51:667,-2.65319,-4.46054,-8.32245,28.621,-15.2407,72.8823
2023-03-10 00:17:51:677,-2.67261,-4.46302,-8.32987,28.5981,-15.2466,72.9816
2023-03-10 00:17:51:687,-2.68456,-4.45025,-8.34742,28.5702,-15.2531,73.0842
2023-03-10 00:17:51:697,-2.69596,-4.42208,-8.35345,28.5452,-15.2582,73.1828
2023-03-10 00:17:51:707,-2.707,-4.41453,-8.36092,28.5207,-15.2635,73.2747
2023-03-10 00:17:51:717,-2.72046,-4.40593,-8.36821,28.4952,-15.2648,73.3625
2023-03-10 00:17:51:727,-2.70401,-4.41475,-8.37004,28.4718,-15.2665,73.4454
2023-03-10 00:17:51:737,-2.6971,-4.41993,-8.3756,28.4555,-15.2671,73.5188
2023-03-10 00:17:51:747,-2.68508,-4.41101,-8.36304,28.4437,-15.2656,73.5878
2023-03-10 00:17:51:757,-2.67927,-4.41969,-8.34593,28.435,-15.2687,73.6499
2023-03-10 00:17:51:767,-2.66905,-4.42668,-8.32838,28.4299,-15.2705,73.7091
2023-03-10 00:17:51:777,-2.65831,-4.43752,-8.3312,28.4235,-15.2751,73.7617
2023-03-10 00:17:51:787,-2.6667,-4.44256,-8.32849,28.4183,-15.2829,73.8119
2023-03-10 00:17:51:797,-2.66115,-4.44368,-8.30729,28.4141,-15.2895,73.8585
2023-03-10 00:17:51:807,-2.64644,-4.44456,-8.28852,28.4115,-15.2956,73.8997
2023-03-10 00:17:51:817,-2.63231,-4.44812,-8.28306,28.4109,-15.2994,73.9373
2023-03-10 00:17:51:827,-2.62407,-4.45155,-8.28101,28.4087,-15.3108,73.9718
2023-03-10 00:17:51:837,-2.61798,-4.45665,-8.27691,28.4047,-15.3194,74.0098
2023-03-10 00:17:51:847,-2.62396,-4.45572,-8.2909,28.397,-15.3294,74.0472
2023-03-10 00:17:51:857,-2.63497,-4.44805,-8.30502,28.3896,-15.3407,74.0844
2023-03-10 00:17:51:867,-2.64248,-4.4339,-8.3197,28.3816,-15.3511,74.1212
2023-03-10 00:17:51:877,-2.65217,-4.42218,-8.33792,28.3733,-15.3598,74.1572
2023-03-10 00:17:51:887,-2.65473,-4.43426,-8.34578,28.3674,-15.3662,74.1923
2023-03-10 00:17:51:897,-2.64558,-4.44741,-8.32709,28.3584,-15.37,74.2294
2023-03-10 00:17:51:907,-2.62017,-4.44514,-8.30368,28.3498,-15.3752,74.2687
2023-03-10 00:17:51:917,-2.60472,-4.44246,-8.30036,28.342,-15.38,74.3026
2023-03-10 00:17:51:927,-2.63157,-4.44344,-8.33174,28.3311,-15.3862,74.3441
2023-03-10 00:17:51:937,-2.67236,-4.41436,-8.34307,28.3187,-15.392,74.3844
2023-03-10 00:17:51:947,-2.70581,-4.40017,-8.36186,28.3085,-15.3963,74.4256
2023-03-10 00:17:51:957,-2.7314,-4.39488,-8.38102,28.3001,-15.3982,74.4651
2023-03-10 00:17:51:967,-2.71981,-4.40786,-8.38043,28.2916,-15.3965,74.5013
2023-03-10 00:17:51:977,-2.71047,-4.39726,-8.36929,28.2895,-15.3919,74.536
2023-03-10 00:17:51:987,-2.7013,-4.39822,-8.35883,28.2876,-15.3879,74.5628
2023-03-10 00:17:51:997,-2.68127,-4.39602,-8.34525,28.2873,-15.384,74.5855
2023-03-10 00:17:52:7,-2.68042,-4.40204,-8.34573,28.2877,-15.38,74.6025
2023-03-10 00:17:52:17,-2.70599,-4.4139,-8.35424,28.2921,-15.3773,74.6134
2023-03-10 00:17:52:27,-2.71426,-4.42995,-8.35619,28.2991,-15.3763,74.6127
2023-03-10 00:17:52:37,-2.69002,-4.42095,-8.36403,28.3046,-15.3747,74.604
2023-03-10 00:17:52:47,-2.62787,-4.42684,-8.37284,28.3151,-15.3704,74.5932
2023-03-10 00:17:52:57,-2.56684,-4.44224,-8.3773,28.3264,-15.3681,74.5741
2023-03-10 00:17:52:67,-2.57919,-4.44591,-8.3541,28.3389,-15.3707,74.5521
2023-03-10 00:17:52:77,-2.626,-4.44818,-8.32285,28.3533,-15.3779,74.533
2023-03-10 00:17:52:87,-2.66984,-4.42777,-8.29442,28.3662,-15.3906,74.514
2023-03-10 00:17:52:97,-2.70136,-4.41666,-8.29601,28.3793,-15.4018,74.4995
2023-03-10 00:17:52:107,-2.70031,-4.40343,-8.30631,28.3902,-15.4087,74.4813
2023-03-10 00:17:52:117,-2.68633,-4.39537,-8.3121,28.399,-15.4089,74.4615
2023-03-10 00:17:52:127,-2.65704,-4.38509,-8.32252,28.4107,-15.4053,74.4473
2023-03-10 00:17:52:137,-2.61588,-4.38493,-8.31426,28.4228,-15.3986,74.4322
2023-03-10 00:17:52:147,-2.58954,-4.39947,-8.30983,28.4354,-15.3892,74.4196
2023-03-10 00:17:52:157,-2.5749,-4.43537,-8.31809,28.4512,-15.3775,74.4099
2023-03-10 00:17:52:167,-2.56682,-4.44194,-8.31789,28.4608,-15.3677,74.4031
2023-03-10 00:17:52:177,-2.55269,-4.44503,-8.31486,28.472,-15.3606,74.3945
2023-03-10 00:17:52:187,-2.55812,-4.45556,-8.33853,28.4799,-15.3545,74.3904
2023-03-10 00:17:52:197,-2.58121,-4.45035,-8.34692,28.4858,-15.3526,74.3882
2023-03-10 00:17:52:207,-2.58823,-4.44054,-8.35355,28.4859,-15.3494,74.3883
2023-03-10 00:17:52:217,-2.57977,-4.43246,-8.36585,28.4874,-15.3437,74.3879
2023-03-10 00:17:52:227,-2.57465,-4.42377,-8.38324,28.4883,-15.3405,74.3913
2023-03-10 00:17:52:237,-2.58069,-4.42782,-8.3878,28.4944,-15.3384,74.396
2023-03-10 00:17:52:247,-2.59801,-4.42593,-8.38048,28.5013,-15.3325,74.4033
2023-03-10 00:17:52:257,-2.60097,-4.43913,-8.36717,28.5088,-15.3291,74.4132
2023-03-10 00:17:52:267,-2.59892,-4.43625,-8.33635,28.5197,-15.3269,74.4226
2023-03-10 00:17:52:277,-2.60655,-4.44536,-8.32186,28.5271,-15.3249,74.4341
2023-03-10 00:17:52:287,-2.63176,-4.46862,-8.29145,28.5392,-15.3208,74.4492
2023-03-10 00:17:52:297,-2.62778,-4.47971,-8.2632,28.5493,-15.3138,74.4631
2023-03-10 00:17:52:307,-2.56895,-4.47305,-8.29638,28.5571,-15.3052,74.4765
2023-03-10 00:17:52:317,-2.49634,-4.45746,-8.32774,28.5598,-15.2953,74.4865
2023-03-10 00:17:52:327,-2.48348,-4.47401,-8.34345,28.5709,-15.2856,74.498
2023-03-10 00:17:52:337,-2.52638,-4.50584,-8.32036,28.5794,-15.2832,74.5128
2023-03-10 00:17:52:347,-2.5759,-4.51753,-8.29479,28.5891,-15.2843,74.5329
2023-03-10 00:17:52:357,-2.59579,-4.52724,-8.28464,28.6007,-15.2863,74.5518
2023-03-10 00:17:52:367,-2.58425,-4.54438,-8.29327,28.6058,-15.2851,74.5748
2023-03-10 00:17:52:377,-2.56825,-4.52655,-8.29053,28.6109,-15.2861,74.5989
2023-03-10 00:17:52:387,-2.5756,-4.48681,-8.29333,28.6149,-15.2818,74.6196
2023-03-10 00:17:52:397,-2.55834,-4.48668,-8.30868,28.616,-15.281,74.6473
2023-03-10 00:17:52:407,-2.53299,-4.47963,-8.29957,28.6162,-15.2788,74.6779
2023-03-10 00:17:52:417,-2.52132,-4.49356,-8.26668,28.6174,-15.2759,74.7144
2023-03-10 00:17:52:427,-2.52763,-4.50941,-8.2641,28.6196,-15.2762,74.754
2023-03-10 00:17:52:437,-2.55518,-4.51857,-8.24445,28.6189,-15.2785,74.7935
2023-03-10 00:17:52:447,-2.58676,-4.51017,-8.24497,28.6166,-15.2823,74.8386
2023-03-10 00:17:52:457,-2.59666,-4.51204,-8.25694,28.6146,-15.2812,74.8881
2023-03-10 00:17:52:467,-2.58804,-4.51624,-8.28225,28.6111,-15.2788,74.9393
2023-03-10 00:17:52:477,-2.59022,-4.50938,-8.29801,28.6037,-15.2757,74.995
2023-03-10 00:17:52:487,-2.60775,-4.50762,-8.29743,28.5945,-15.2741,75.0526
2023-03-10 00:17:52:497,-2.62158,-4.50681,-8.29575,28.586,-15.2712,75.1107
2023-03-10 00:17:52:507,-2.66296,-4.50494,-8.30004,28.5783,-15.2705,75.1697
2023-03-10 00:17:52:517,-2.70213,-4.48309,-8.30258,28.569,-15.2705,75.2249
2023-03-10 00:17:52:527,-2.72048,-4.4678,-8.31464,28.5639,-15.2692,75.2761
2023-03-10 00:17:52:537,-2.71677,-4.48013,-8.32305,28.5599,-15.2671,75.3197
2023-03-10 00:17:52:547,-2.73345,-4.47606,-8.31438,28.5539,-15.2651,75.3527
2023-03-10 00:17:52:557,-2.74273,-4.46285,-8.30615,28.5503,-15.2609,75.3849
2023-03-10 00:17:52:567,-2.74376,-4.45574,-8.29838,28.5502,-15.2585,75.407
2023-03-10 00:17:52:577,-2.74511,-4.45304,-8.27071,28.5462,-15.2563,75.4175
2023-03-10 00:17:52:587,-2.73787,-4.45909,-8.27636,28.5464,-15.2546,75.4194
2023-03-10 00:17:52:597,-2.71084,-4.46037,-8.2875,28.5478,-15.2502,75.4147
2023-03-10 00:17:52:607,-2.66951,-4.46519,-8.2806,28.5484,-15.2443,75.4057
2023-03-10 00:17:52:617,-2.63928,-4.47431,-8.26927,28.5467,-15.2371,75.3865
2023-03-10 00:17:52:627,-2.61405,-4.47117,-8.26914,28.547,-15.2289,75.3628
2023-03-10 00:17:52:637,-2.60825,-4.46415,-8.28425,28.5428,-15.2266,75.3401
2023-03-10 00:17:52:647,-2.59974,-4.45909,-8.3148,28.5404,-15.2233,75.3172
2023-03-10 00:17:52:657,-2.61418,-4.45092,-8.31444,28.5361,-15.2176,75.2913
2023-03-10 00:17:52:667,-2.60779,-4.46452,-8.33189,28.5338,-15.213,75.2663
2023-03-10 00:17:52:677,-2.59234,-4.46256,-8.33896,28.5315,-15.2039,75.2446
2023-03-10 00:17:52:687,-2.57222,-4.44271,-8.34398,28.5273,-15.1939,75.2281
2023-03-10 00:17:52:697,-2.55801,-4.4416,-8.36775,28.5263,-15.1803,75.2119
2023-03-10 00:17:52:707,-2.55579,-4.44179,-8.36055,28.522,-15.1689,75.2001
2023-03-10 00:17:52:717,-2.55628,-4.45341,-8.34969,28.5185,-15.159,75.1857
2023-03-10 00:17:52:727,-2.55785,-4.45901,-8.34868,28.5169,-15.1485,75.176
2023-03-10 00:17:52:737,-2.57244,-4.4343,-8.35506,28.5136,-15.1421,75.1669
2023-03-10 00:17:52:747,-2.58788,-4.42712,-8.34909,28.5141,-15.1339,75.1579
2023-03-10 00:17:52:757,-2.58312,-4.42549,-8.33462,28.5126,-15.1264,75.1494
2023-03-10 00:17:52:767,-2.58333,-4.43037,-8.33427,28.5144,-15.1216,75.1425
2023-03-10 00:17:52:777,-2.57541,-4.44001,-8.33739,28.5162,-15.1163,75.133
2023-03-10 00:17:52:787,-2.56738,-4.45526,-8.34015,28.5179,-15.1089,75.1214
2023-03-10 00:17:52:797,-2.58428,-4.4519,-8.3391,28.5209,-15.1,75.1119
2023-03-10 00:17:52:807,-2.59369,-4.45183,-8.34039,28.5219,-15.0943,75.0979
2023-03-10 00:17:52:817,-2.60591,-4.43957,-8.35078,28.5236,-15.0892,75.0848
2023-03-10 00:17:52:827,-2.61508,-4.43288,-8.34545,28.5251,-15.0826,75.068
2023-03-10 00:17:52:837,-2.62653,-4.44736,-8.35094,28.535,-15.0835,75.0431
2023-03-10 00:17:52:847,-2.61981,-4.46094,-8.33414,28.5472,-15.0804,75.0133
2023-03-10 00:17:52:857,-2.58962,-4.46241,-8.31935,28.5588,-15.0776,74.9782
2023-03-10 00:17:52:867,-2.58164,-4.47111,-8.32515,28.5687,-15.0769,74.9369
2023-03-10 00:17:52:877,-2.57275,-4.47209,-8.29781,28.5794,-15.0775,74.8939
2023-03-10 00:17:52:887,-2.55136,-4.4845,-8.28621,28.5909,-15.0768,74.8489
2023-03-10 00:17:52:897,-2.52801,-4.49511,-8.27081,28.5999,-15.0762,74.8024
2023-03-10 00:17:52:907,-2.51745,-4.51506,-8.29404,28.609,-15.0785,74.7552
2023-03-10 00:17:52:917,-2.54293,-4.50441,-8.29429,28.6133,-15.08,74.7141
2023-03-10 00:17:52:927,-2.5488,-4.51303,-8.28973,28.6178,-15.082,74.6749
2023-03-10 00:17:52:937,-2.55546,-4.51376,-8.30109,28.6218,-15.0827,74.6364
2023-03-10 00:17:52:947,-2.55673,-4.50294,-8.31046,28.6249,-15.0794,74.6054
2023-03-10 00:17:52:957,-2.55147,-4.48192,-8.30997,28.6243,-15.0767,74.5834
2023-03-10 00:17:52:967,-2.52126,-4.50059,-8.31961,28.6252,-15.0697,74.5667
2023-03-10 00:17:52:977,-2.524,-4.51389,-8.30937,28.626,-15.0613,74.5508
2023-03-10 00:17:52:987,-2.50235,-4.52299,-8.30452,28.6258,-15.0516,74.5385
2023-03-10 00:17:52:997,-2.50169,-4.51426,-8.30636,28.6227,-15.0441,74.5281
2023-03-10 00:17:53:7,-2.49761,-4.49758,-8.3064,28.6166,-15.0326,74.5234
2023-03-10 00:17:53:17,-2.50316,-4.51647,-8.32207,28.6107,-15.0236,74.5237
2023-03-10 00:17:53:27,-2.54503,-4.50912,-8.32272,28.6032,-15.0168,74.528
2023-03-10 00:17:53:37,-2.56397,-4.49061,-8.3339,28.5925,-15.0093,74.5368
2023-03-10 00:17:53:47,-2.5297,-4.46915,-8.35937,28.5843,-14.9999,74.5403
2023-03-10 00:17:53:57,-2.47841,-4.47124,-8.37409,28.5746,-14.9907,74.5412
2023-03-10 00:17:53:67,-2.44751,-4.48639,-8.37425,28.5679,-14.9854,74.5431
2023-03-10 00:17:53:77,-2.48057,-4.48413,-8.3503,28.56,-14.9829,74.5409
2023-03-10 00:17:53:87,-2.54449,-4.46727,-8.333,28.5515,-14.985,74.54
2023-03-10 00:17:53:97,-2.59172,-4.44343,-8.32744,28.5472,-14.9936,74.542
2023-03-10 00:17:53:107,-2.61626,-4.41337,-8.33683,28.5443,-15.0025,74.5394
2023-03-10 00:17:53:117,-2.62468,-4.40035,-8.33194,28.5374,-15.0087,74.5376
2023-03-10 00:17:53:127,-2.60972,-4.40084,-8.33396,28.5365,-15.0175,74.528
2023-03-10 00:17:53:137,-2.59498,-4.41581,-8.34191,28.5379,-15.0255,74.5159
2023-03-10 00:17:53:147,-2.58554,-4.40884,-8.33335,28.5417,-15.0285,74.503
2023-03-10 00:17:53:157,-2.57893,-4.42125,-8.341,28.5451,-15.0318,74.4879
2023-03-10 00:17:53:167,-2.5803,-4.42786,-8.32496,28.5512,-15.0366,74.4699
2023-03-10 00:17:53:177,-2.59306,-4.43703,-8.30749,28.5554,-15.0383,74.4582
2023-03-10 00:17:53:187,-2.62884,-4.44436,-8.30059,28.557,-15.0379,74.4474
2023-03-10 00:17:53:197,-2.62057,-4.44786,-8.31738,28.5571,-15.039,74.4353
2023-03-10 00:17:53:207,-2.54395,-4.4465,-8.36298,28.5543,-15.0365,74.4188
2023-03-10 00:17:53:217,-2.52787,-4.43892,-8.39053,28.5481,-15.032,74.4086
2023-03-10 00:17:53:227,-2.563,-4.43013,-8.38096,28.5444,-15.0285,74.4
2023-03-10 00:17:53:237,-2.58724,-4.43557,-8.3681,28.5408,-15.0256,74.3906
2023-03-10 00:17:53:247,-2.58023,-4.43637,-8.35657,28.5361,-15.0234,74.3853
2023-03-10 00:17:53:257,-2.55204,-4.43929,-8.36316,28.5366,-15.02,74.379
2023-03-10 00:17:53:267,-2.53464,-4.42402,-8.37949,28.5385,-15.0138,74.3774
2023-03-10 00:17:53:277,-2.55924,-4.42096,-8.37681,28.541,-15.0088,74.3759
2023-03-10 00:17:53:287,-2.58822,-4.43856,-8.3394,28.5453,-15.0066,74.3775
2023-03-10 00:17:53:297,-2.5793,-4.4355,-8.32773,28.5495,-15.0012,74.3763
2023-03-10 00:17:53:307,-2.49061,-4.46429,-8.36438,28.55,-14.9882,74.3753
2023-03-10 00:17:53:317,-2.42777,-4.43698,-8.37224,28.5519,-14.9734,74.3753
2023-03-10 00:17:53:327,-2.44244,-4.45202,-8.36657,28.5568,-14.9683,74.3754
2023-03-10 00:17:53:337,-2.49112,-4.48456,-8.34269,28.5649,-14.9644,74.3753
2023-03-10 00:17:53:347,-2.51967,-4.49811,-8.32017,28.5738,-14.9642,74.3822
2023-03-10 00:17:53:357,-2.51743,-4.49334,-8.29522,28.5841,-14.9629,74.3873
2023-03-10 00:17:53:367,-2.52233,-4.5073,-8.29551,28.5928,-14.9664,74.3884
2023-03-10 00:17:53:377,-2.55256,-4.50746,-8.30485,28.5977,-14.969,74.3921
2023-03-10 00:17:53:387,-2.55916,-4.48392,-8.31796,28.5991,-14.9714,74.3996
2023-03-10 00:17:53:397,-2.53769,-4.46343,-8.32421,28.6055,-14.9716,74.4049
2023-03-10 00:17:53:407,-2.52049,-4.46246,-8.33479,28.6067,-14.9708,74.4099
2023-03-10 00:17:53:417,-2.51504,-4.46773,-8.33108,28.6101,-14.9722,74.4174
2023-03-10 00:17:53:427,-2.50807,-4.47379,-8.31773,28.6125,-14.9713,74.4278
2023-03-10 00:17:53:437,-2.50548,-4.48724,-8.30479,28.6172,-14.9684,74.4379
2023-03-10 00:17:53:447,-2.501,-4.48566,-8.29722,28.621,-14.9667,74.451
2023-03-10 00:17:53:457,-2.49643,-4.5052,-8.30512,28.6285,-14.9689,74.4624
2023-03-10 00:17:53:467,-2.47158,-4.50825,-8.30707,28.633,-14.9701,74.4781
2023-03-10 00:17:53:477,-2.45813,-4.51073,-8.32854,28.6299,-14.9702,74.4969
2023-03-10 00:17:53:487,-2.45048,-4.51677,-8.33208,28.6237,-14.9709,74.5171
2023-03-10 00:17:53:497,-2.45901,-4.50492,-8.32304,28.6203,-14.9753,74.5442
2023-03-10 00:17:53:507,-2.46163,-4.5136,-8.31607,28.617,-14.9823,74.5721
2023-03-10 00:17:53:517,-2.47232,-4.51973,-8.33021,28.6105,-14.9887,74.6054
2023-03-10 00:17:53:527,-2.47313,-4.50352,-8.32761,28.6039,-14.9925,74.6458
2023-03-10 00:17:53:537,-2.4691,-4.51649,-8.31598,28.5925,-15.0039,74.6917
2023-03-10 00:17:53:547,-2.45192,-4.51966,-8.29123,28.5817,-15.0099,74.7453
2023-03-10 00:17:53:557,-2.44605,-4.51166,-8.28265,28.5721,-15.0151,74.8057
2023-03-10 00:17:53:567,-2.44669,-4.51408,-8.27483,28.5606,-15.0172,74.8802
2023-03-10 00:17:53:577,-2.44201,-4.51583,-8.27407,28.5402,-15.0227,74.9665
2023-03-10 00:17:53:587,-2.42458,-4.52551,-8.26194,28.5222,-15.0255,75.0649
2023-03-10 00:17:53:597,-2.39654,-4.52448,-8.25499,28.5015,-15.0252,75.1765
2023-03-10 00:17:53:607,-2.37981,-4.53214,-8.23979,28.4709,-15.0207,75.3021
2023-03-10 00:17:53:617,-2.3714,-4.53055,-8.25311,28.437,-15.0155,75.4467
2023-03-10 00:17:53:627,-2.33456,-4.51796,-8.27466,28.393,-15.0046,75.6101
2023-03-10 00:17:53:637,-2.3427,-4.50661,-8.28924,28.3478,-14.9909,75.7875
2023-03-10 00:17:53:647,-2.37591,-4.49349,-8.31169,28.2972,-14.9797,75.9843
2023-03-10 00:17:53:657,-2.38721,-4.47813,-8.33607,28.2435,-14.9631,76.1989
2023-03-10 00:17:53:667,-2.39395,-4.45408,-8.34602,28.1806,-14.9472,76.4339
2023-03-10 00:17:53:677,-2.42298,-4.43731,-8.35352,28.1164,-14.927,76.6858
2023-03-10 00:17:53:687,-2.45175,-4.43199,-8.35787,28.0489,-14.9075,76.9495
2023-03-10 00:17:53:697,-2.47436,-4.42177,-8.37205,27.9747,-14.8797,77.227
2023-03-10 00:17:53:707,-2.49348,-4.394,-8.38862,27.9016,-14.8482,77.5137
2023-03-10 00:17:53:717,-2.53968,-4.36157,-8.41046,27.8318,-14.8165,77.8089
2023-03-10 00:17:53:727,-2.55868,-4.33344,-8.43223,27.7614,-14.7799,78.1077
2023-03-10 00:17:53:737,-2.56225,-4.3326,-8.45858,27.6887,-14.7421,78.4111
2023-03-10 00:17:53:747,-2.57163,-4.32451,-8.46809,27.6224,-14.6983,78.7151
2023-03-10 00:17:53:757,-2.5723,-4.31171,-8.46142,27.5563,-14.6536,79.0192
2023-03-10 00:17:53:767,-2.55066,-4.31467,-8.45181,27.4923,-14.612,79.3182
2023-03-10 00:17:53:777,-2.56242,-4.30759,-8.42681,27.4319,-14.5688,79.6092
2023-03-10 00:17:53:787,-2.58425,-4.30739,-8.41027,27.3716,-14.5275,79.8949
2023-03-10 00:17:53:797,-2.59239,-4.30498,-8.3994,27.3127,-14.4887,80.1734
2023-03-10 00:17:53:807,-2.59181,-4.30037,-8.41444,27.2576,-14.4493,80.4427
2023-03-10 00:17:53:817,-2.59547,-4.28349,-8.43998,27.1984,-14.4119,80.7026
2023-03-10 00:17:53:827,-2.6156,-4.25045,-8.45754,27.141,-14.3774,80.9509
2023-03-10 00:17:53:837,-2.65676,-4.22424,-8.47648,27.083,-14.3421,81.1895
2023-03-10 00:17:53:847,-2.69797,-4.20832,-8.47856,27.0291,-14.3123,81.4118
2023-03-10 00:17:53:857,-2.7245,-4.19895,-8.4578,26.9814,-14.2863,81.6153
2023-03-10 00:17:53:867,-2.73951,-4.19529,-8.45109,26.9378,-14.2606,81.7986
2023-03-10 00:17:53:877,-2.72792,-4.20472,-8.45725,26.8961,-14.2326,81.9596
2023-03-10 00:17:53:887,-2.70847,-4.20514,-8.47132,26.8551,-14.2077,82.0948
2023-03-10 00:17:53:897,-2.74462,-4.19108,-8.48661,26.817,-14.1917,82.2081
2023-03-10 00:17:53:907,-2.84104,-4.16902,-8.49959,26.7832,-14.1714,82.2983
2023-03-10 00:17:53:917,-2.92339,-4.14461,-8.51037,26.758,-14.1617,82.3576
2023-03-10 00:17:53:927,-2.92196,-4.12465,-8.52752,26.7353,-14.152,82.3794
2023-03-10 00:17:53:937,-2.8194,-4.12396,-8.55861,26.72,-14.1435,82.3546
2023-03-10 00:17:53:947,-2.72544,-4.12261,-8.55514,26.7075,-14.1401,82.2867
2023-03-10 00:17:53:957,-2.70523,-4.12774,-8.55647,26.7089,-14.148,82.1887
2023-03-10 00:17:53:967,-2.73628,-4.12742,-8.52304,26.7136,-14.1674,82.0517
2023-03-10 00:17:53:977,-2.72197,-4.15928,-8.49698,26.7247,-14.1943,81.8845
2023-03-10 00:17:53:987,-2.67318,-4.17792,-8.50527,26.7381,-14.2181,81.6863
2023-03-10 00:17:53:997,-2.62821,-4.16281,-8.52358,26.7547,-14.2468,81.4616
2023-03-10 00:17:54:7,-2.56618,-4.16778,-8.53687,26.7671,-14.2803,81.2151
2023-03-10 00:17:54:17,-2.51631,-4.17387,-8.52997,26.7857,-14.3129,80.9552
2023-03-10 00:17:54:27,-2.51117,-4.18614,-8.52006,26.8123,-14.3511,80.6864
2023-03-10 00:17:54:37,-2.52745,-4.189,-8.52564,26.8393,-14.3944,80.4142
2023-03-10 00:17:54:47,-2.53815,-4.16868,-8.53124,26.8638,-14.4376,80.1422
2023-03-10 00:17:54:57,-2.51711,-4.15523,-8.54556,26.8913,-14.473,79.8693
2023-03-10 00:17:54:67,-2.51411,-4.1407,-8.54242,26.9183,-14.5009,79.6024
2023-03-10 00:17:54:77,-2.49239,-4.14963,-8.53781,26.9511,-14.5285,79.3393
2023-03-10 00:17:54:87,-2.47332,-4.16227,-8.51449,26.9854,-14.5506,79.0865
2023-03-10 00:17:54:97,-2.46959,-4.16675,-8.50355,27.0273,-14.5688,78.8406
2023-03-10 00:17:54:107,-2.4552,-4.18869,-8.48988,27.0702,-14.5828,78.6007
2023-03-10 00:17:54:117,-2.42958,-4.21445,-8.4944,27.115,-14.5931,78.3674
2023-03-10 00:17:54:127,-2.40577,-4.24806,-8.47751,27.1548,-14.5974,78.1442
2023-03-10 00:17:54:137,-2.38929,-4.27322,-8.46734,27.1902,-14.6036,77.9304
2023-03-10 00:17:54:147,-2.3683,-4.29235,-8.47387,27.2286,-14.605,77.7248
2023-03-10 00:17:54:157,-2.37051,-4.29367,-8.47903,27.2607,-14.6081,77.5312
2023-03-10 00:17:54:167,-2.37873,-4.28758,-8.4888,27.2912,-14.6087,77.3489
2023-03-10 00:17:54:177,-2.39154,-4.28131,-8.49649,27.3197,-14.6088,77.1774
2023-03-10 00:17:54:187,-2.3938,-4.28809,-8.50293,27.3473,-14.6046,77.0167
2023-03-10 00:17:54:197,-2.3556,-4.31059,-8.49054,27.3755,-14.5984,76.8656
2023-03-10 00:17:54:207,-2.33589,-4.3175,-8.48398,27.3994,-14.5919,76.7281
2023-03-10 00:17:54:217,-2.34031,-4.30305,-8.4815,27.4254,-14.5812,76.6003
2023-03-10 00:17:54:227,-2.39182,-4.2894,-8.47566,27.4534,-14.5737,76.4797
2023-03-10 00:17:54:237,-2.43513,-4.31382,-8.45772,27.4777,-14.5657,76.3718
2023-03-10 00:17:54:247,-2.42426,-4.32806,-8.41354,27.5075,-14.5557,76.2686
2023-03-10 00:17:54:257,-2.35001,-4.34714,-8.41722,27.5387,-14.5399,76.1667
2023-03-10 00:17:54:267,-2.2513,-4.37366,-8.4363,27.5663,-14.5183,76.0713
2023-03-10 00:17:54:277,-2.18622,-4.37168,-8.44329,27.5929,-14.4982,75.9807
2023-03-10 00:17:54:287,-2.17966,-4.40703,-8.43337,27.6173,-14.4863,75.9043
2023-03-10 00:17:54:297,-2.17805,-4.43317,-8.4124,27.64,-14.4817,75.8418
2023-03-10 00:17:54:307,-2.17214,-4.44217,-8.41517,27.6606,-14.4709,75.791
2023-03-10 00:17:54:317,-2.20799,-4.44336,-8.40197,27.6769,-14.4662,75.759
2023-03-10 00:17:54:327,-2.25881,-4.43554,-8.39336,27.6899,-14.4626,75.7477
2023-03-10 00:17:54:337,-2.31674,-4.42083,-8.39551,27.6996,-14.459,75.7533
2023-03-10 00:17:54:347,-2.34148,-4.40153,-8.39615,27.7027,-14.4497,75.7749
2023-03-10 00:17:54:357,-2.33676,-4.38227,-8.39435,27.7032,-14.4379,75.8045
2023-03-10 00:17:54:367,-2.32083,-4.39251,-8.39236,27.7034,-14.4236,75.8437
2023-03-10 00:17:54:377,-2.31305,-4.40106,-8.36894,27.7047,-14.4094,75.8903
2023-03-10 00:17:54:387,-2.30549,-4.41937,-8.37266,27.7031,-14.3932,75.9435
2023-03-10 00:17:54:397,-2.30146,-4.42806,-8.36763,27.6984,-14.3801,76.0028
2023-03-10 00:17:54:407,-2.30976,-4.44318,-8.37307,27.6931,-14.366,76.0674
2023-03-10 00:17:54:417,-2.32479,-4.42066,-8.37359,27.6845,-14.3589,76.1393
2023-03-10 00:17:54:427,-2.33547,-4.42098,-8.37259,27.6736,-14.3499,76.2205
2023-03-10 00:17:54:437,-2.32708,-4.43378,-8.35849,27.6591,-14.3421,76.3035
2023-03-10 00:17:54:447,-2.3382,-4.44679,-8.36164,27.6409,-14.3344,76.3946
2023-03-10 00:17:54:457,-2.35027,-4.42978,-8.35786,27.6178,-14.3244,76.4946
2023-03-10 00:17:54:467,-2.35898,-4.41449,-8.37116,27.5936,-14.3164,76.5966
2023-03-10 00:17:54:477,-2.39419,-4.38632,-8.36582,27.5637,-14.3086,76.7085
2023-03-10 00:17:54:487,-2.42693,-4.37821,-8.38224,27.5316,-14.3003,76.8266
2023-03-10 00:17:54:497,-2.44608,-4.36564,-8.39363,27.4948,-14.2872,76.9501
2023-03-10 00:17:54:507,-2.4416,-4.35413,-8.40915,27.4558,-14.2727,77.0784
2023-03-10 00:17:54:517,-2.44933,-4.33794,-8.43041,27.4172,-14.2566,77.2061
2023-03-10 00:17:54:527,-2.48024,-4.31653,-8.43823,27.3835,-14.2392,77.3381
2023-03-10 00:17:54:537,-2.51084,-4.30303,-8.45267,27.3463,-14.2216,77.4692
2023-03-10 00:17:54:547,-2.53119,-4.28732,-8.47307,27.3099,-14.2033,77.5909
2023-03-10 00:17:54:557,-2.55899,-4.27424,-8.47957,27.2768,-14.1849,77.7083
2023-03-10 00:17:54:567,-2.58776,-4.26101,-8.47707,27.2455,-14.1712,77.8119
2023-03-10 00:17:54:577,-2.60474,-4.23125,-8.47485,27.2194,-14.1569,77.9
2023-03-10 00:17:54:587,-2.59545,-4.2288,-8.48973,27.1964,-14.1461,77.9701
2023-03-10 00:17:54:597,-2.61637,-4.2305,-8.49129,27.1764,-14.1385,78.0203
2023-03-10 00:17:54:607,-2.63786,-4.23186,-8.48448,27.1585,-14.1372,78.0471
2023-03-10 00:17:54:617,-2.66266,-4.21626,-8.48687,27.1454,-14.1408,78.0515
2023-03-10 00:17:54:627,-2.68356,-4.19076,-8.49596,27.1352,-14.1484,78.0269
2023-03-10 00:17:54:637,-2.67161,-4.19726,-8.51796,27.1281,-14.16,77.9832
2023-03-10 00:17:54:647,-2.62574,-4.20051,-8.52621,27.13,-14.1749,77.9142
2023-03-10 00:17:54:657,-2.60602,-4.19249,-8.50657,27.1345,-14.1912,77.8273
2023-03-10 00:17:54:667,-2.58505,-4.20524,-8.4767,27.1464,-14.2089,77.7197
2023-03-10 00:17:54:677,-2.54219,-4.24241,-8.46519,27.1582,-14.229,77.5952
2023-03-10 00:17:54:687,-2.49064,-4.24933,-8.45003,27.176,-14.2508,77.4603
2023-03-10 00:17:54:697,-2.44462,-4.24743,-8.45588,27.1935,-14.2684,77.3209
2023-03-10 00:17:54:707,-2.40973,-4.25615,-8.47567,27.2077,-14.291,77.1792
2023-03-10 00:17:54:717,-2.40509,-4.24981,-8.50724,27.2198,-14.3109,77.0374
2023-03-10 00:17:54:727,-2.42803,-4.23863,-8.52183,27.23,-14.3295,76.899
2023-03-10 00:17:54:737,-2.43334,-4.23139,-8.53877,27.2389,-14.3487,76.7661
2023-03-10 00:17:54:747,-2.43354,-4.22312,-8.54668,27.2538,-14.3631,76.637
2023-03-10 00:17:54:757,-2.42761,-4.24089,-8.55404,27.2709,-14.3778,76.5166
2023-03-10 00:17:54:767,-2.4235,-4.24644,-8.54724,27.2924,-14.3897,76.4028
2023-03-10 00:17:54:777,-2.42268,-4.26811,-8.5193,27.3138,-14.3975,76.2977
2023-03-10 00:17:54:787,-2.42704,-4.26119,-8.49396,27.3382,-14.4053,76.2016
2023-03-10 00:17:54:797,-2.42701,-4.27672,-8.48074,27.3608,-14.4082,76.1101
2023-03-10 00:17:54:807,-2.43073,-4.28117,-8.45447,27.3841,-14.4097,76.027
2023-03-10 00:17:54:817,-2.41824,-4.30549,-8.43898,27.4059,-14.4077,75.9533
2023-03-10 00:17:54:827,-2.4266,-4.30872,-8.431,27.4281,-14.4026,75.8846
2023-03-10 00:17:54:837,-2.43751,-4.3162,-8.44383,27.4478,-14.3989,75.8222
2023-03-10 00:17:54:847,-2.42713,-4.31119,-8.44973,27.4666,-14.388,75.7659
2023-03-10 00:17:54:857,-2.40751,-4.31345,-8.44165,27.486,-14.3755,75.7145
2023-03-10 00:17:54:867,-2.3985,-4.32666,-8.43063,27.504,-14.3623,75.6669
2023-03-10 00:17:54:877,-2.3956,-4.34157,-8.4095,27.5231,-14.3476,75.627
2023-03-10 00:17:54:887,-2.38959,-4.36449,-8.38826,27.5438,-14.3342,75.5951
2023-03-10 00:17:54:897,-2.37368,-4.36167,-8.37635,27.5603,-14.3204,75.5632
2023-03-10 00:17:54:907,-2.36845,-4.37716,-8.38947,27.5772,-14.3057,75.5374
2023-03-10 00:17:54:917,-2.39457,-4.40095,-8.39614,27.5924,-14.2938,75.5096
2023-03-10 00:17:54:927,-2.41174,-4.38697,-8.41137,27.6045,-14.2829,75.4894
2023-03-10 00:17:54:937,-2.38955,-4.36641,-8.43962,27.6163,-14.2735,75.4662
2023-03-10 00:17:54:947,-2.36026,-4.37015,-8.47318,27.6255,-14.2592,75.4412
2023-03-10 00:17:54:957,-2.37038,-4.39103,-8.46703,27.6387,-14.2505,75.4169
2023-03-10 00:17:54:967,-2.40982,-4.39712,-8.44403,27.6516,-14.2457,75.3927
2023-03-10 00:17:54:977,-2.4282,-4.38676,-8.43025,27.6646,-14.2431,75.3718
2023-03-10 00:17:54:987,-2.43263,-4.36764,-8.42469,27.6803,-14.2411,75.3427
2023-03-10 00:17:54:997,-2.42923,-4.3656,-8.40972,27.693,-14.2474,75.32
2023-03-10 00:17:55:7,-2.4256,-4.3692,-8.37859,27.7079,-14.2494,75.2892
2023-03-10 00:17:55:17,-2.42218,-4.3618,-8.35496,27.7246,-14.2514,75.2572
2023-03-10 00:17:55:27,-2.43464,-4.36843,-8.36031,27.7433,-14.2523,75.2257
2023-03-10 00:17:55:37,-2.45022,-4.37342,-8.36216,27.759,-14.2533,75.1961
2023-03-10 00:17:55:47,-2.43955,-4.39111,-8.35975,27.774,-14.256,75.1628
2023-03-10 00:17:55:57,-2.43014,-4.41482,-8.34714,27.7868,-14.2513,75.1325
2023-03-10 00:17:55:67,-2.41936,-4.43037,-8.34807,27.7993,-14.2465,75.0962
2023-03-10 00:17:55:77,-2.41973,-4.43882,-8.36231,27.806,-14.2416,75.0617
2023-03-10 00:17:55:87,-2.41165,-4.42192,-8.37546,27.8119,-14.2382,75.0266
2023-03-10 00:17:55:97,-2.38647,-4.41707,-8.38175,27.8131,-14.2345,74.9955
2023-03-10 00:17:55:107,-2.3453,-4.41254,-8.38951,27.8099,-14.2261,74.9686
2023-03-10 00:17:55:117,-2.29022,-4.41939,-8.38583,27.8046,-14.2159,74.9483
2023-03-10 00:17:55:127,-2.26525,-4.42903,-8.40024,27.7962,-14.2087,74.9326
2023-03-10 00:17:55:137,-2.23162,-4.42433,-8.42748,27.7852,-14.1981,74.9251
2023-03-10 00:17:55:147,-2.19852,-4.40225,-8.43475,27.7728,-14.1849,74.9262
2023-03-10 00:17:55:157,-2.1601,-4.38168,-8.442,27.7546,-14.1731,74.9368
2023-03-10 00:17:55:167,-2.15202,-4.39303,-8.44835,27.7367,-14.1609,74.9607
2023-03-10 00:17:55:177,-2.15126,-4.41154,-8.43618,27.721,-14.1497,74.9976
2023-03-10 00:17:55:187,-2.11627,-4.40328,-8.41727,27.7019,-14.1374,75.053
2023-03-10 00:17:55:197,-2.04035,-4.41545,-8.43991,27.6794,-14.1237,75.1233
2023-03-10 00:17:55:207,-1.95016,-4.40998,-8.48462,27.6529,-14.1073,75.2084
2023-03-10 00:17:55:217,-1.91443,-4.40141,-8.50857,27.6238,-14.1027,75.319
2023-03-10 00:17:55:227,-1.97955,-4.4022,-8.46188,27.5993,-14.1028,75.4549
2023-03-10 00:17:55:237,-2.06572,-4.42329,-8.39521,27.5692,-14.1098,75.6192
2023-03-10 00:17:55:247,-2.12219,-4.43953,-8.3676,27.5391,-14.1126,75.811
2023-03-10 00:17:55:257,-2.17076,-4.44036,-8.3675,27.4989,-14.114,76.0294
2023-03-10 00:17:55:267,-2.22929,-4.39696,-8.37116,27.4489,-14.1157,76.276
2023-03-10 00:17:55:277,-2.30351,-4.3602,-8.38185,27.3951,-14.1069,76.5387
2023-03-10 00:17:55:287,-2.32456,-4.34205,-8.40817,27.3361,-14.0958,76.8207
2023-03-10 00:17:55:297,-2.32112,-4.30948,-8.43681,27.2686,-14.0716,77.1197
2023-03-10 00:17:55:307,-2.34856,-4.29492,-8.44893,27.2044,-14.0498,77.4291
2023-03-10 00:17:55:317,-2.38406,-4.26737,-8.44051,27.1402,-14.0238,77.7492
2023-03-10 00:17:55:327,-2.42901,-4.2602,-8.43374,27.0745,-13.9973,78.0758
2023-03-10 00:17:55:337,-2.44866,-4.26532,-8.43123,27.0077,-13.965,78.3993
2023-03-10 00:17:55:347,-2.44426,-4.26833,-8.4475,26.9395,-13.9313,78.7284
2023-03-10 00:17:55:357,-2.43619,-4.25789,-8.45591,26.8665,-13.8898,79.0569
2023-03-10 00:17:55:367,-2.44766,-4.2512,-8.47059,26.792,-13.8463,79.3823
2023-03-10 00:17:55:377,-2.44893,-4.25142,-8.48884,26.7175,-13.8058,79.7035
2023-03-10 00:17:55:387,-2.4644,-4.23492,-8.51108,26.6426,-13.7626,80.0196
2023-03-10 00:17:55:397,-2.49732,-4.20376,-8.52217,26.5692,-13.7209,80.3319
2023-03-10 00:17:55:407,-2.52572,-4.1857,-8.51823,26.4883,-13.6841,80.6356
2023-03-10 00:17:55:417,-2.53144,-4.18782,-8.53326,26.4146,-13.643,80.9307
2023-03-10 00:17:55:427,-2.52388,-4.18524,-8.5529,26.3443,-13.6039,81.2141
2023-03-10 00:17:55:437,-2.50572,-4.16371,-8.54712,26.2725,-13.5623,81.4837
2023-03-10 00:17:55:447,-2.48065,-4.12766,-8.53173,26.206,-13.5225,81.7422
2023-03-10 00:17:55:457,-2.46855,-4.13899,-8.5361,26.1406,-13.4789,81.9892
2023-03-10 00:17:55:467,-2.45474,-4.13174,-8.54294,26.074,-13.4372,82.2227
2023-03-10 00:17:55:477,-2.46204,-4.1131,-8.55765,26.008,-13.4,82.4433
2023-03-10 00:17:55:487,-2.46724,-4.09817,-8.58607,25.9451,-13.363,82.6507
2023-03-10 00:17:55:497,-2.45269,-4.07139,-8.59683,25.8843,-13.3261,82.8474
2023-03-10 00:17:55:507,-2.44027,-4.06956,-8.5787,25.8282,-13.291,83.0277
2023-03-10 00:17:55:517,-2.43651,-4.06901,-8.55878,25.7737,-13.2546,83.1982
2023-03-10 00:17:55:527,-2.41565,-4.09067,-8.54194,25.7187,-13.2206,83.3565
2023-03-10 00:17:55:537,-2.38615,-4.08156,-8.55771,25.663,-13.1884,83.4971
2023-03-10 00:17:55:547,-2.35463,-4.04947,-8.59772,25.6012,-13.1541,83.6314
2023-03-10 00:17:55:557,-2.3304,-4.02572,-8.62812,25.539,-13.1222,83.751
2023-03-10 00:17:55:567,-2.33126,-4.01281,-8.66891,25.4755,-13.0939,83.861
2023-03-10 00:17:55:577,-2.31928,-3.99112,-8.68416,25.4203,-13.0595,83.958
2023-03-10 00:17:55:587,-2.28648,-3.98127,-8.65639,25.3668,-13.0342,84.0457
2023-03-10 00:17:55:597,-2.23779,-3.99638,-8.65358,25.317,-13.0094,84.1274
2023-03-10 00:17:55:607,-2.21645,-4.01304,-8.66297,25.27,-12.9864,84.1984
2023-03-10 00:17:55:617,-2.21565,-3.98449,-8.67245,25.2223,-12.9636,84.2689
2023-03-10 00:17:55:627,-2.23805,-3.95656,-8.6993,25.1744,-12.9458,84.3356
2023-03-10 00:17:55:637,-2.24779,-3.93851,-8.7064,25.1229,-12.9276,84.3996
2023-03-10 00:17:55:647,-2.24851,-3.93609,-8.72556,25.0792,-12.9126,84.4607
2023-03-10 00:17:55:657,-2.22999,-3.93904,-8.72484,25.0378,-12.8926,84.5118
2023-03-10 00:17:55:667,-2.20546,-3.93097,-8.73983,25.0001,-12.8714,84.562
2023-03-10 00:17:55:677,-2.17828,-3.9342,-8.75479,24.9635,-12.8487,84.6096
2023-03-10 00:17:55:687,-2.1731,-3.92876,-8.75649,24.9309,-12.8302,84.6517
2023-03-10 00:17:55:697,-2.16529,-3.92697,-8.77461,24.9008,-12.8129,84.6925
2023-03-10 00:17:55:707,-2.15985,-3.92452,-8.77865,24.8721,-12.7985,84.7296
2023-03-10 00:17:55:717,-2.1601,-3.90217,-8.78119,24.8445,-12.7828,84.7634
2023-03-10 00:17:55:727,-2.18044,-3.89071,-8.77008,24.8255,-12.7722,84.7966
2023-03-10 00:17:55:737,-2.20458,-3.90017,-8.75867,24.8052,-12.765,84.8345
2023-03-10 00:17:55:747,-2.21718,-3.91523,-8.73549,24.789,-12.7599,84.8682
2023-03-10 00:17:55:757,-2.21447,-3.9041,-8.72819,24.7748,-12.7495,84.8993
2023-03-10 00:17:55:767,-2.22371,-3.90159,-8.71407,24.7643,-12.7432,84.9295
2023-03-10 00:17:55:777,-2.23462,-3.91237,-8.69694,24.7525,-12.7386,84.9559
2023-03-10 00:17:55:787,-2.25563,-3.91312,-8.67918,24.7431,-12.7362,84.9792
2023-03-10 00:17:55:797,-2.26976,-3.93497,-8.68339,24.7333,-12.7304,85
2023-03-10 00:17:55:807,-2.26878,-3.93584,-8.68251,24.7256,-12.7193,85.0171
2023-03-10 00:17:55:817,-2.24402,-3.93657,-8.68398,24.7153,-12.7112,85.0278
2023-03-10 00:17:55:827,-2.2419,-3.93541,-8.67889,24.7068,-12.7027,85.0367
2023-03-10 00:17:55:837,-2.24111,-3.93784,-8.67199,24.6962,-12.6925,85.0431
2023-03-10 00:17:55:847,-2.23455,-3.9419,-8.66903,24.6879,-12.6839,85.0455
2023-03-10 00:17:55:857,-2.20979,-3.93804,-8.66858,24.6833,-12.6756,85.0433
2023-03-10 00:17:55:867,-2.18983,-3.95496,-8.69102,24.6757,-12.668,85.0378
2023-03-10 00:17:55:877,-2.20256,-3.95968,-8.70945,24.6681,-12.6586,85.0301
2023-03-10 00:17:55:887,-2.1999,-3.94845,-8.72049,24.6575,-12.6527,85.0232
2023-03-10 00:17:55:897,-2.16961,-3.94308,-8.74185,24.6455,-12.6456,85.0143
2023-03-10 00:17:55:907,-2.11791,-3.94758,-8.74707,24.6363,-12.6328,84.9995
2023-03-10 00:17:55:917,-2.10072,-3.95267,-8.73222,24.6307,-12.6256,84.9899
2023-03-10 00:17:55:927,-2.12724,-3.96041,-8.70496,24.6276,-12.6208,84.9809
2023-03-10 00:17:55:937,-2.15214,-3.94746,-8.67806,24.6221,-12.6171,84.976
2023-03-10 00:17:55:947,-2.1547,-3.94978,-8.66617,24.614,-12.6141,84.9732
2023-03-10 00:17:55:957,-2.15123,-3.93226,-8.67206,24.6023,-12.611,84.9724
2023-03-10 00:17:55:967,-2.17016,-3.91867,-8.6863,24.5911,-12.6068,84.9717
2023-03-10 00:17:55:977,-2.16564,-3.89366,-8.69732,24.5786,-12.6043,84.9717
2023-03-10 00:17:55:987,-2.17458,-3.88367,-8.72218,24.5689,-12.5989,84.9737
2023-03-10 00:17:55:997,-2.17501,-3.88871,-8.72045,24.5586,-12.586,84.9729
2023-03-10 00:17:56:7,-2.17419,-3.88741,-8.72803,24.5485,-12.5729,84.9723
2023-03-10 00:17:56:17,-2.16001,-3.89334,-8.72968,24.5405,-12.5582,84.9693
2023-03-10 00:17:56:27,-2.15492,-3.91251,-8.72039,24.5305,-12.5433,84.9653
2023-03-10 00:17:56:37,-2.17114,-3.92508,-8.71659,24.5242,-12.5307,84.9605
2023-03-10 00:17:56:47,-2.15981,-3.91717,-8.72169,24.5154,-12.518,84.9554
2023-03-10 00:17:56:57,-2.15258,-3.91516,-8.73168,24.5033,-12.5015,84.951
2023-03-10 00:17:56:67,-2.16797,-3.90077,-8.75602,24.4923,-12.485,84.9406
2023-03-10 00:17:56:77,-2.15606,-3.89624,-8.77289,24.4796,-12.4688,84.925
2023-03-10 00:17:56:87,-2.14005,-3.89463,-8.78223,24.4661,-12.4516,84.9071
2023-03-10 00:17:56:97,-2.11787,-3.90076,-8.78933,24.4589,-12.4361,84.8796
2023-03-10 00:17:56:107,-2.07686,-3.89519,-8.7755,24.4516,-12.4195,84.8521
2023-03-10 00:17:56:117,-2.06091,-3.87781,-8.77868,24.4471,-12.4063,84.82
2023-03-10 00:17:56:127,-2.06729,-3.87518,-8.79088,24.4437,-12.3967,84.7882
2023-03-10 00:17:56:137,-2.08628,-3.88995,-8.77177,24.4378,-12.3876,84.7556
2023-03-10 00:17:56:147,-2.0793,-3.88068,-8.74447,24.4376,-12.376,84.7229
2023-03-10 00:17:56:157,-2.02195,-3.89227,-8.75426,24.435,-12.3631,84.6875
2023-03-10 00:17:56:167,-1.94274,-3.87757,-8.77561,24.4316,-12.3499,84.6516
2023-03-10 00:17:56:177,-1.93081,-3.88577,-8.78859,24.4334,-12.3401,84.6201
2023-03-10 00:17:56:187,-1.98548,-3.90189,-8.76693,24.4343,-12.3326,84.5923
2023-03-10 00:17:56:197,-2.04522,-3.91778,-8.72329,24.4404,-12.3313,84.5625
2023-03-10 00:17:56:207,-2.04038,-3.93647,-8.70467,24.4449,-12.3308,84.5401
2023-03-10 00:17:56:217,-2.0186,-3.92277,-8.71689,24.4466,-12.3257,84.5187
2023-03-10 00:17:56:227,-2.00527,-3.90957,-8.7317,24.4461,-12.3245,84.5025
2023-03-10 00:17:56:237,-2.01152,-3.89834,-8.76205,24.445,-12.3207,84.4831
2023-03-10 00:17:56:247,-2.02773,-3.86195,-8.79282,24.4359,-12.3202,84.4712
2023-03-10 00:17:56:257,-2.02984,-3.85381,-8.79827,24.4311,-12.3219,84.4613
2023-03-10 00:17:56:267,-2.01304,-3.86599,-8.77672,24.4297,-12.3226,84.4522
2023-03-10 00:17:56:277,-2.00233,-3.87582,-8.77361,24.4311,-12.3256,84.442
2023-03-10 00:17:56:287,-2.00185,-3.8763,-8.77386,24.4316,-12.3293,84.4349
2023-03-10 00:17:56:297,-2.02359,-3.87255,-8.78469,24.4301,-12.337,84.4325
2023-03-10 00:17:56:307,-2.04443,-3.8787,-8.78046,24.4348,-12.3521,84.4329
2023-03-10 00:17:56:317,-2.05331,-3.8901,-8.76079,24.439,-12.3666,84.4312
2023-03-10 00:17:56:327,-2.0672,-3.91258,-8.74365,24.4469,-12.3789,84.4304
2023-03-10 00:17:56:337,-2.09007,-3.91988,-8.73283,24.4561,-12.3931,84.4284
2023-03-10 00:17:56:347,-2.11406,-3.90595,-8.72387,24.466,-12.4112,84.4324
2023-03-10 00:17:56:357,-2.15587,-3.90637,-8.73423,24.4679,-12.429,84.4405
2023-03-10 00:17:56:367,-2.1922,-3.90411,-8.72956,24.4739,-12.4496,84.4472
2023-03-10 00:17:56:377,-2.21992,-3.90215,-8.71329,24.4807,-12.4688,84.4515
2023-03-10 00:17:56:387,-2.23237,-3.90278,-8.71178,24.4872,-12.4852,84.4606
2023-03-10 00:17:56:397,-2.23932,-3.90346,-8.70586,24.494,-12.5037,84.4668
2023-03-10 00:17:56:407,-2.25496,-3.91069,-8.71661,24.5009,-12.5181,84.4718
2023-03-10 00:17:56:417,-2.28827,-3.89596,-8.73841,24.5105,-12.5327,84.4712
2023-03-10 00:17:56:427,-2.33326,-3.8677,-8.75172,24.5231,-12.5462,84.4657
2023-03-10 00:17:56:437,-2.39304,-3.87147,-8.74775,24.5377,-12.5598,84.4507
2023-03-10 00:17:56:447,-2.45269,-3.86743,-8.75121,24.5602,-12.5763,84.4298
2023-03-10 00:17:56:457,-2.46398,-3.87401,-8.76145,24.5831,-12.5929,84.3856
2023-03-10 00:17:56:467,-2.47981,-3.8798,-8.74226,24.6132,-12.6125,84.3142
2023-03-10 00:17:56:477,-2.46558,-3.90004,-8.72721,24.6494,-12.6361,84.2106
2023-03-10 00:17:56:487,-2.48176,-3.9061,-8.69058,24.687,-12.6681,84.0749
2023-03-10 00:17:56:497,-2.48934,-3.91911,-8.68264,24.726,-12.7088,83.9113
2023-03-10 00:17:56:507,-2.49101,-3.92425,-8.66288,24.769,-12.7548,83.7171
2023-03-10 00:17:56:517,-2.4518,-3.93524,-8.66583,24.8132,-12.8052,83.4972
2023-03-10 00:17:56:527,-2.39316,-3.94666,-8.67393,24.8615,-12.8576,83.2516
2023-03-10 00:17:56:537,-2.35748,-3.9674,-8.67355,24.9133,-12.9148,82.9872
2023-03-10 00:17:56:547,-2.34313,-3.98786,-8.66581,24.9667,-12.9729,82.7065
2023-03-10 00:17:56:557,-2.31983,-3.99568,-8.65253,25.0225,-13.0329,82.4116
2023-03-10 00:17:56:567,-2.29457,-3.99002,-8.64723,25.081,-13.0963,82.1068
2023-03-10 00:17:56:577,-2.25132,-4.00857,-8.65416,25.1394,-13.1574,81.8021
2023-03-10 00:17:56:587,-2.23628,-4.02551,-8.64725,25.1966,-13.2203,81.4962
2023-03-10 00:17:56:597,-2.25529,-4.02844,-8.63195,25.2531,-13.2827,81.1901
2023-03-10 00:17:56:607,-2.26864,-4.04345,-8.61177,25.3111,-13.3452,80.8882
2023-03-10 00:17:56:617,-2.23648,-4.04464,-8.59181,25.3696,-13.4031,80.5894
2023-03-10 00:17:56:627,-2.20253,-4.05437,-8.59828,25.4223,-13.4586,80.2987
2023-03-10 00:17:56:637,-2.18805,-4.06728,-8.59853,25.4781,-13.5117,80.0107
2023-03-10 00:17:56:647,-2.18314,-4.08472,-8.57877,25.5299,-13.5634,79.7344
2023-03-10 00:17:56:657,-2.18481,-4.0994,-8.57897,25.5845,-13.6147,79.469
2023-03-10 00:17:56:667,-2.19627,-4.11154,-8.57222,25.6314,-13.6612,79.2222
2023-03-10 00:17:56:677,-2.22424,-4.11153,-8.55902,25.6771,-13.705,78.9915
2023-03-10 00:17:56:687,-2.26364,-4.09419,-8.56462,25.719,-13.7476,78.7734
2023-03-10 00:17:56:697,-2.30194,-4.09188,-8.55385,25.7573,-13.7878,78.5684
2023-03-10 00:17:56:707,-2.29199,-4.10256,-8.57744,25.7902,-13.82,78.3764
2023-03-10 00:17:56:717,-2.28328,-4.10286,-8.58499,25.8238,-13.8426,78.1925
2023-03-10 00:17:56:727,-2.29157,-4.10538,-8.59925,25.8571,-13.8644,78.0239
2023-03-10 00:17:56:737,-2.30179,-4.12016,-8.61303,25.8923,-13.8848,77.8611
2023-03-10 00:17:56:747,-2.28544,-4.12287,-8.60166,25.925,-13.9014,77.7048
2023-03-10 00:17:56:757,-2.26607,-4.12616,-8.58278,25.9646,-13.9179,77.5515
2023-03-10 00:17:56:768,-2.25034,-4.14377,-8.55891,26.0023,-13.9292,77.4071
2023-03-10 00:17:56:777,-2.24403,-4.17445,-8.53626,26.0376,-13.9431,77.2679
2023-03-10 00:17:56:787,-2.2529,-4.18262,-8.50262,26.0779,-13.9602,77.1348
2023-03-10 00:17:56:797,-2.26108,-4.18461,-8.50066,26.113,-13.9769,77.0084
2023-03-10 00:17:56:807,-2.27905,-4.19038,-8.49938,26.144,-13.9949,76.8903
2023-03-10 00:17:56:817,-2.2939,-4.20415,-8.49648,26.1722,-14.0134,76.7774
2023-03-10 00:17:56:827,-2.27665,-4.2008,-8.50933,26.1945,-14.0286,76.6716
2023-03-10 00:17:56:837,-2.21904,-4.19084,-8.53182,26.2154,-14.0367,76.5735
2023-03-10 00:17:56:847,-2.15628,-4.20039,-8.55717,26.2323,-14.0465,76.4849
2023-03-10 00:17:56:857,-2.14321,-4.20576,-8.5465,26.2477,-14.0574,76.4105
2023-03-10 00:17:56:867,-2.17059,-4.207,-8.51909,26.2605,-14.0705,76.3516
2023-03-10 00:17:56:877,-2.22589,-4.18108,-8.50307,26.2678,-14.0871,76.3108
2023-03-10 00:17:56:887,-2.29358,-4.16115,-8.50319,26.2741,-14.098,76.286
2023-03-10 00:17:56:897,-2.36231,-4.1325,-8.4958,26.2782,-14.1101,76.2778
2023-03-10 00:17:56:907,-2.40375,-4.11843,-8.49804,26.2797,-14.1147,76.2814
2023-03-10 00:17:56:917,-2.40586,-4.13402,-8.49217,26.2838,-14.1152,76.2958
2023-03-10 00:17:56:927,-2.3815,-4.15403,-8.48957,26.283,-14.1059,76.3201
2023-03-10 00:17:56:937,-2.34619,-4.15739,-8.49114,26.28,-14.0866,76.3509
2023-03-10 00:17:56:947,-2.35066,-4.15519,-8.50693,26.2744,-14.0666,76.3858
2023-03-10 00:17:56:957,-2.36318,-4.15074,-8.52102,26.2672,-14.0521,76.4234
2023-03-10 00:17:56:967,-2.40159,-4.14944,-8.52712,26.256,-14.0417,76.4615
