Timestamp,Acceleration_x,Acceleration_y,Acceleration_z,roll,pitch,yaw
2023-03-15 22:18:24:349,-0.799341,1.53128,-9.57472,-9.48093,-4.95757,-20.1145
2023-03-15 22:18:24:356,-0.800882,1.55958,-9.58467,-9.47094,-4.97027,-20.0907
2023-03-15 22:18:24:366,-0.799104,1.55637,-9.57509,-9.4613,-4.98484,-20.0662
2023-03-15 22:18:24:376,-0.844721,1.56852,-9.5673,-9.45851,-5.00237,-20.041
2023-03-15 22:18:24:386,-0.884738,1.60007,-9.60071,-9.4558,-5.01654,-20.0179
2023-03-15 22:18:24:396,-0.886335,1.61048,-9.62331,-9.44828,-5.03218,-19.995
2023-03-15 22:18:24:406,-0.850042,1.61671,-9.65943,-9.44598,-5.04664,-19.9773
2023-03-15 22:18:24:416,-0.827364,1.60477,-9.66942,-9.43644,-5.06327,-19.9572
2023-03-15 22:18:24:426,-0.843135,1.57622,-9.64006,-9.42219,-5.0722,-19.9348
2023-03-15 22:18:24:436,-0.879309,1.54232,-9.58936,-9.40315,-5.08601,-19.9101
2023-03-15 22:18:24:446,-0.935113,1.54642,-9.55226,-9.3848,-5.09485,-19.8859
2023-03-15 22:18:24:456,-0.964807,1.53746,-9.52853,-9.36742,-5.10122,-19.8675
2023-03-15 22:18:24:466,-0.940891,1.54692,-9.53914,-9.35435,-5.09636,-19.8454
2023-03-15 22:18:24:476,-0.876368,1.51383,-9.50944,-9.34435,-5.08993,-19.8264
2023-03-15 22:18:24:486,-0.876742,1.49589,-9.46651,-9.3435,-5.08792,-19.8087
2023-03-15 22:18:24:496,-0.900566,1.5723,-9.54634,-9.35494,-5.08648,-19.7901
2023-03-15 22:18:24:506,-0.914307,1.641,-9.64985,-9.37029,-5.08133,-19.7752
2023-03-15 22:18:24:516,-0.909667,1.68662,-9.72251,-9.37745,-5.07159,-19.7631
2023-03-15 22:18:24:526,-0.899219,1.66977,-9.68334,-9.3758,-5.06013,-19.7546
2023-03-15 22:18:24:536,-0.911612,1.64598,-9.64949,-9.36979,-5.04376,-19.7473
2023-03-15 22:18:24:546,-0.870905,1.61077,-9.6228,-9.35999,-5.02629,-19.7412
2023-03-15 22:18:24:556,-0.827327,1.53594,-9.53515,-9.34983,-5.01829,-19.7362
2023-03-15 22:18:24:566,-0.822906,1.55386,-9.51987,-9.34975,-5.0185,-19.7338
2023-03-15 22:18:24:576,-0.843149,1.61758,-9.59391,-9.35773,-5.02187,-19.7348
2023-03-15 22:18:24:586,-0.862555,1.69187,-9.7094,-9.36623,-5.02065,-19.7332
2023-03-15 22:18:24:596,-0.80693,1.64838,-9.70667,-9.36763,-5.0168,-19.733
2023-03-15 22:18:24:606,-0.779565,1.55706,-9.58453,-9.36127,-5.0188,-19.7313
2023-03-15 22:18:24:616,-0.805566,1.56502,-9.5916,-9.36095,-5.02523,-19.7224
2023-03-15 22:18:24:626,-0.850229,1.61866,-9.68067,-9.36802,-5.02862,-19.7129
2023-03-15 22:18:24:636,-0.88995,1.64841,-9.68804,-9.37322,-5.02683,-19.7011
2023-03-15 22:18:24:646,-0.917348,1.62466,-9.62726,-9.373,-5.02344,-19.6922
2023-03-15 22:18:24:656,-0.926733,1.60155,-9.56691,-9.36587,-5.01308,-19.6801
2023-03-15 22:18:24:666,-0.904668,1.59192,-9.54923,-9.36142,-4.9991,-19.6758
2023-03-15 22:18:24:676,-0.878578,1.60793,-9.56363,-9.36457,-4.98239,-19.6709
2023-03-15 22:18:24:686,-0.852945,1.63445,-9.5891,-9.37582,-4.96163,-19.6712
2023-03-15 22:18:24:696,-0.822831,1.65319,-9.62311,-9.38841,-4.94254,-19.6718
2023-03-15 22:18:24:706,-0.77784,1.68299,-9.68045,-9.40123,-4.92354,-19.68
2023-03-15 22:18:24:716,-0.735084,1.73038,-9.75402,-9.40701,-4.90405,-19.6902
2023-03-15 22:18:24:726,-0.681449,1.70862,-9.74075,-9.40779,-4.8835,-19.7034
2023-03-15 22:18:24:736,-0.677714,1.64874,-9.67816,-9.39684,-4.87472,-19.7168
2023-03-15 22:18:24:746,-0.649231,1.65918,-9.6781,-9.38217,-4.86986,-19.7307
2023-03-15 22:18:24:756,-0.609388,1.6473,-9.67237,-9.36698,-4.86842,-19.7372
2023-03-15 22:18:24:766,-0.59333,1.61122,-9.6416,-9.35131,-4.87198,-19.7383
2023-03-15 22:18:24:776,-0.601326,1.56819,-9.63886,-9.32743,-4.87367,-19.7309
2023-03-15 22:18:24:786,-0.615271,1.50937,-9.60483,-9.2988,-4.87546,-19.7175
2023-03-15 22:18:24:796,-0.677501,1.49655,-9.56898,-9.27412,-4.88496,-19.6899
2023-03-15 22:18:24:806,-0.730651,1.52927,-9.58401,-9.25953,-4.89821,-19.6582
2023-03-15 22:18:24:816,-0.747507,1.53276,-9.59829,-9.24331,-4.90947,-19.6272
2023-03-15 22:18:24:826,-0.788477,1.54167,-9.58427,-9.23149,-4.91786,-19.5915
2023-03-15 22:18:24:836,-0.84151,1.54509,-9.57473,-9.22174,-4.92451,-19.5483
2023-03-15 22:18:24:846,-0.88246,1.53926,-9.54871,-9.2104,-4.93049,-19.5062
2023-03-15 22:18:24:856,-0.936977,1.53158,-9.54282,-9.19978,-4.93574,-19.4652
2023-03-15 22:18:24:866,-0.963015,1.53763,-9.5783,-9.1905,-4.9411,-19.4297
2023-03-15 22:18:24:876,-0.962411,1.56232,-9.66136,-9.1861,-4.94543,-19.3981
2023-03-15 22:18:24:886,-0.935226,1.58241,-9.67717,-9.18063,-4.94947,-19.3709
2023-03-15 22:18:24:896,-0.91986,1.55292,-9.62467,-9.17066,-4.95664,-19.3514
2023-03-15 22:18:24:906,-0.958145,1.52945,-9.56897,-9.15676,-4.97218,-19.3314
2023-03-15 22:18:24:916,-0.978799,1.53059,-9.55432,-9.14966,-4.98682,-19.3177
2023-03-15 22:18:24:926,-0.978437,1.56604,-9.58412,-9.14786,-4.99734,-19.3078
2023-03-15 22:18:24:936,-0.969913,1.61395,-9.60961,-9.1518,-5.00797,-19.3
2023-03-15 22:18:24:946,-0.938558,1.62734,-9.62161,-9.15875,-5.01389,-19.2936
2023-03-15 22:18:24:956,-0.916288,1.62235,-9.61573,-9.16447,-5.01977,-19.2919
2023-03-15 22:18:24:966,-0.897057,1.62632,-9.60028,-9.16582,-5.02687,-19.2917
2023-03-15 22:18:24:976,-0.876159,1.61089,-9.61552,-9.16135,-5.02931,-19.2949
2023-03-15 22:18:24:986,-0.864675,1.5992,-9.6056,-9.15511,-5.03392,-19.296
2023-03-15 22:18:24:996,-0.849434,1.5844,-9.60138,-9.14958,-5.03584,-19.2938
2023-03-15 22:18:25:6,-0.852392,1.55909,-9.58808,-9.14102,-5.03378,-19.2938
2023-03-15 22:18:25:16,-0.844026,1.53344,-9.59867,-9.13165,-5.03376,-19.291
2023-03-15 22:18:25:26,-0.840319,1.52997,-9.60129,-9.12425,-5.03009,-19.2865
2023-03-15 22:18:25:36,-0.842968,1.50505,-9.60974,-9.11665,-5.02745,-19.2818
2023-03-15 22:18:25:46,-0.850304,1.49536,-9.57723,-9.1138,-5.02616,-19.2742
2023-03-15 22:18:25:56,-0.864025,1.48636,-9.55895,-9.11179,-5.02888,-19.2608
2023-03-15 22:18:25:66,-0.8788,1.48363,-9.56859,-9.11333,-5.02828,-19.2495
2023-03-15 22:18:25:76,-0.921397,1.51937,-9.59933,-9.11905,-5.02635,-19.2355
2023-03-15 22:18:25:86,-0.937549,1.54236,-9.62184,-9.12616,-5.02407,-19.2285
2023-03-15 22:18:25:96,-0.917551,1.56218,-9.63091,-9.13645,-5.01812,-19.2219
2023-03-15 22:18:25:106,-0.872731,1.55528,-9.6337,-9.14407,-5.01325,-19.22
2023-03-15 22:18:25:116,-0.871703,1.5338,-9.62232,-9.14806,-5.00912,-19.2163
2023-03-15 22:18:25:126,-0.881349,1.53221,-9.58946,-9.14952,-5.00697,-19.2128
2023-03-15 22:18:25:135,-0.888931,1.53211,-9.58127,-9.15392,-5.00408,-19.2115
2023-03-15 22:18:25:146,-0.883186,1.54609,-9.58659,-9.15669,-5.00037,-19.2126
2023-03-15 22:18:25:156,-0.850796,1.54504,-9.56865,-9.16778,-4.99232,-19.2165
2023-03-15 22:18:25:166,-0.806349,1.53988,-9.55529,-9.17339,-4.98541,-19.2198
2023-03-15 22:18:25:176,-0.775142,1.53424,-9.58172,-9.18521,-4.97654,-19.218
2023-03-15 22:18:25:185,-0.796284,1.5589,-9.62529,-9.20007,-4.9658,-19.214
2023-03-15 22:18:25:196,-0.824969,1.60867,-9.66841,-9.21945,-4.95785,-19.2074
2023-03-15 22:18:25:205,-0.841972,1.65346,-9.69093,-9.23633,-4.95025,-19.2032
2023-03-15 22:18:25:216,-0.868573,1.64662,-9.67155,-9.24863,-4.94011,-19.1998
2023-03-15 22:18:25:226,-0.881145,1.61795,-9.65586,-9.25511,-4.93169,-19.198
2023-03-15 22:18:25:236,-0.853936,1.60235,-9.62174,-9.25767,-4.91749,-19.1989
2023-03-15 22:18:25:245,-0.836683,1.58531,-9.60853,-9.26303,-4.90737,-19.1977
2023-03-15 22:18:25:255,-0.820805,1.58269,-9.62783,-9.26913,-4.89575,-19.1997
2023-03-15 22:18:25:266,-0.792587,1.61292,-9.65879,-9.27976,-4.8858,-19.201
2023-03-15 22:18:25:276,-0.76011,1.63099,-9.65637,-9.29111,-4.87607,-19.2062
2023-03-15 22:18:25:286,-0.744124,1.62493,-9.64207,-9.30055,-4.86659,-19.21
2023-03-15 22:18:25:296,-0.751467,1.60564,-9.60732,-9.30631,-4.85926,-19.2097
2023-03-15 22:18:25:306,-0.756129,1.59889,-9.57908,-9.3111,-4.8452,-19.2049
2023-03-15 22:18:25:316,-0.747961,1.58474,-9.57357,-9.31871,-4.83648,-19.1992
2023-03-15 22:18:25:326,-0.748231,1.59123,-9.5728,-9.33031,-4.82344,-19.1851
2023-03-15 22:18:25:336,-0.776636,1.60902,-9.60367,-9.34131,-4.80982,-19.1645
2023-03-15 22:18:25:346,-0.771352,1.61691,-9.60003,-9.35395,-4.79879,-19.1469
2023-03-15 22:18:25:356,-0.759419,1.60865,-9.5812,-9.36712,-4.78248,-19.1283
2023-03-15 22:18:25:366,-0.730016,1.60436,-9.57751,-9.38024,-4.76684,-19.1079
2023-03-15 22:18:25:376,-0.712849,1.62076,-9.60285,-9.39288,-4.74788,-19.0847
2023-03-15 22:18:25:386,-0.694364,1.65174,-9.61083,-9.41085,-4.73179,-19.0599
2023-03-15 22:18:25:396,-0.688112,1.63325,-9.5966,-9.42977,-4.72147,-19.0367
2023-03-15 22:18:25:406,-0.698032,1.63934,-9.60618,-9.45336,-4.71689,-19.0085
2023-03-15 22:18:25:416,-0.695472,1.63804,-9.60912,-9.47914,-4.7159,-18.9814
2023-03-15 22:18:25:426,-0.70188,1.64879,-9.60757,-9.49991,-4.71825,-18.9513
2023-03-15 22:18:25:436,-0.720229,1.66112,-9.5994,-9.52209,-4.71958,-18.919
2023-03-15 22:18:25:446,-0.734841,1.66621,-9.61348,-9.54478,-4.72243,-18.8812
2023-03-15 22:18:25:456,-0.745357,1.67751,-9.64467,-9.56616,-4.72531,-18.848
2023-03-15 22:18:25:466,-0.756638,1.67037,-9.6752,-9.58395,-4.72279,-18.8127
2023-03-15 22:18:25:476,-0.751065,1.68443,-9.67184,-9.60285,-4.72523,-18.7762
2023-03-15 22:18:25:486,-0.766838,1.71507,-9.67985,-9.62177,-4.72922,-18.7384
2023-03-15 22:18:25:496,-0.803198,1.74384,-9.71038,-9.63783,-4.73372,-18.6998
2023-03-15 22:18:25:505,-0.849452,1.73776,-9.68422,-9.64897,-4.73797,-18.6657
2023-03-15 22:18:25:516,-0.85916,1.68699,-9.6144,-9.65381,-4.74043,-18.6359
2023-03-15 22:18:25:525,-0.83253,1.65121,-9.5671,-9.65486,-4.74413,-18.6113
2023-03-15 22:18:25:536,-0.784986,1.64196,-9.57437,-9.65595,-4.75136,-18.5884
2023-03-15 22:18:25:545,-0.712949,1.63629,-9.63677,-9.66345,-4.7542,-18.566
2023-03-15 22:18:25:556,-0.661111,1.66989,-9.71214,-9.67289,-4.76268,-18.5377
2023-03-15 22:18:25:565,-0.629392,1.67629,-9.74595,-9.6824,-4.77727,-18.5066
2023-03-15 22:18:25:576,-0.671958,1.649,-9.69634,-9.68877,-4.80545,-18.4682
2023-03-15 22:18:25:585,-0.769425,1.65142,-9.63699,-9.69567,-4.83324,-18.4231
2023-03-15 22:18:25:596,-0.835761,1.65336,-9.58948,-9.70184,-4.85839,-18.3751
2023-03-15 22:18:25:605,-0.843598,1.64906,-9.55391,-9.71066,-4.8807,-18.325
2023-03-15 22:18:25:615,-0.853725,1.62995,-9.51548,-9.71868,-4.89655,-18.2749
2023-03-15 22:18:25:625,-0.871852,1.63951,-9.54383,-9.73362,-4.90875,-18.2197
2023-03-15 22:18:25:635,-0.858934,1.68641,-9.60717,-9.7493,-4.91498,-18.1621
2023-03-15 22:18:25:645,-0.842286,1.72228,-9.6649,-9.76012,-4.92164,-18.1099
2023-03-15 22:18:25:655,-0.843608,1.72136,-9.66992,-9.76822,-4.92916,-18.0539
2023-03-15 22:18:25:665,-0.838737,1.70998,-9.61805,-9.77073,-4.93619,-17.9948
2023-03-15 22:18:25:675,-0.80432,1.63853,-9.57001,-9.7652,-4.93792,-17.936
2023-03-15 22:18:25:685,-0.762479,1.58478,-9.53682,-9.76184,-4.94361,-17.877
2023-03-15 22:18:25:695,-0.739938,1.59843,-9.55522,-9.76625,-4.95244,-17.8047
2023-03-15 22:18:25:705,-0.754483,1.63092,-9.6243,-9.77537,-4.96031,-17.7319
2023-03-15 22:18:25:715,-0.758179,1.64414,-9.64543,-9.78415,-4.96799,-17.6502
2023-03-15 22:18:25:725,-0.784346,1.66139,-9.60166,-9.79177,-4.97459,-17.5634
2023-03-15 22:18:25:735,-0.833857,1.67722,-9.56276,-9.79883,-4.98237,-17.47
2023-03-15 22:18:25:745,-0.865537,1.66423,-9.56131,-9.81081,-4.98048,-17.3707
2023-03-15 22:18:25:755,-0.873749,1.65293,-9.561,-9.82046,-4.97326,-17.2694
2023-03-15 22:18:25:765,-0.918735,1.69391,-9.62907,-9.83914,-4.96359,-17.1662
2023-03-15 22:18:25:775,-0.964297,1.73819,-9.67394,-9.86135,-4.95447,-17.0644
2023-03-15 22:18:25:785,-0.971603,1.74707,-9.67553,-9.87313,-4.94319,-16.9669
2023-03-15 22:18:25:795,-0.940163,1.7133,-9.6274,-9.8792,-4.92822,-16.8755
2023-03-15 22:18:25:805,-0.889772,1.65926,-9.59035,-9.87894,-4.91086,-16.787
2023-03-15 22:18:25:815,-0.829655,1.63731,-9.56092,-9.88142,-4.89315,-16.7038
2023-03-15 22:18:25:825,-0.778042,1.5875,-9.48476,-9.88124,-4.88144,-16.623
2023-03-15 22:18:25:835,-0.769017,1.56591,-9.43555,-9.88565,-4.872,-16.5363
2023-03-15 22:18:25:846,-0.770946,1.59093,-9.41383,-9.9021,-4.86152,-16.4491
2023-03-15 22:18:25:855,-0.778863,1.61225,-9.47667,-9.92622,-4.8517,-16.358
2023-03-15 22:18:25:866,-0.806566,1.67604,-9.5706,-9.95788,-4.84784,-16.2704
2023-03-15 22:18:25:875,-0.85246,1.74015,-9.62335,-9.99065,-4.84327,-16.1841
2023-03-15 22:18:25:886,-0.946781,1.76262,-9.64617,-10.0176,-4.8402,-16.1053
2023-03-15 22:18:25:896,-0.956598,1.76922,-9.67346,-10.0399,-4.83112,-16.0321
2023-03-15 22:18:25:905,-0.886518,1.75281,-9.69439,-10.0556,-4.82493,-15.9701
2023-03-15 22:18:25:916,-0.800791,1.70065,-9.67474,-10.0657,-4.81686,-15.9122
2023-03-15 22:18:25:925,-0.81388,1.67511,-9.63836,-10.0715,-4.80933,-15.8541
2023-03-15 22:18:25:936,-0.853101,1.69062,-9.61019,-10.0846,-4.80445,-15.7935
2023-03-15 22:18:25:945,-0.819564,1.6992,-9.59224,-10.0992,-4.80216,-15.7388
2023-03-15 22:18:25:955,-0.778837,1.72836,-9.61862,-10.1194,-4.80155,-15.6851
2023-03-15 22:18:25:965,-0.811582,1.80076,-9.65638,-10.1442,-4.80272,-15.6283
2023-03-15 22:18:25:975,-0.899988,1.8674,-9.69094,-10.173,-4.80527,-15.5697
2023-03-15 22:18:25:985,-0.959014,1.94949,-9.71848,-10.1979,-4.80447,-15.5164
2023-03-15 22:18:25:995,-0.9543,1.9818,-9.74986,-10.215,-4.80075,-15.4709
2023-03-15 22:18:26:5,-0.937161,1.97761,-9.77469,-10.2206,-4.79725,-15.4335
2023-03-15 22:18:26:15,-0.938568,1.96813,-9.76643,-10.2183,-4.79811,-15.4009
2023-03-15 22:18:26:25,-0.963277,1.94869,-9.72988,-10.2055,-4.79968,-15.3709
2023-03-15 22:18:26:35,-0.95365,1.88019,-9.68208,-10.1846,-4.80232,-15.3461
2023-03-15 22:18:26:45,-0.90309,1.89027,-9.68842,-10.1601,-4.79988,-15.3232
2023-03-15 22:18:26:55,-0.875367,1.90608,-9.66663,-10.1323,-4.79925,-15.3051
2023-03-15 22:18:26:65,-1.01108,1.88988,-9.58706,-10.0991,-4.80313,-15.2847
2023-03-15 22:18:26:75,-1.18821,1.94007,-9.65858,-10.0638,-4.79768,-15.2647
2023-03-15 22:18:26:85,-1.16774,1.92969,-9.73763,-10.0191,-4.78148,-15.268
2023-03-15 22:18:26:95,-1.00276,1.87775,-9.73585,-9.96585,-4.76228,-15.2884
2023-03-15 22:18:26:105,-0.898884,1.80147,-9.69418,-9.89624,-4.73554,-15.3183
2023-03-15 22:18:26:115,-0.90572,1.71997,-9.56588,-9.82311,-4.71167,-15.3458
2023-03-15 22:18:26:125,-0.967017,1.67285,-9.48742,-9.75009,-4.68859,-15.3721
2023-03-15 22:18:26:135,-0.971843,1.63925,-9.49418,-9.68685,-4.66657,-15.4084
2023-03-15 22:18:26:145,-0.900752,1.64229,-9.5805,-9.63338,-4.64644,-15.4568
2023-03-15 22:18:26:155,-0.826613,1.65526,-9.69115,-9.58214,-4.62298,-15.5072
2023-03-15 22:18:26:165,-0.808939,1.65796,-9.73623,-9.53119,-4.60033,-15.5625
2023-03-15 22:18:26:175,-0.816611,1.61461,-9.72287,-9.47489,-4.58118,-15.6209
2023-03-15 22:18:26:185,-0.829657,1.5705,-9.66302,-9.40998,-4.56683,-15.6819
2023-03-15 22:18:26:195,-0.877449,1.57944,-9.61396,-9.34459,-4.54802,-15.7429
2023-03-15 22:18:26:205,-0.876988,1.52603,-9.56451,-9.27158,-4.52006,-15.8071
2023-03-15 22:18:26:215,-0.818581,1.4348,-9.51475,-9.19232,-4.49252,-15.8841
2023-03-15 22:18:26:225,-0.757862,1.41061,-9.55658,-9.11566,-4.45937,-15.9643
2023-03-15 22:18:26:236,-0.655441,1.34858,-9.55019,-9.04195,-4.42836,-16.0452
2023-03-15 22:18:26:245,-0.603537,1.33314,-9.55934,-8.97248,-4.39849,-16.1265
2023-03-15 22:18:26:255,-0.56129,1.27318,-9.50826,-8.90602,-4.37363,-16.2044
2023-03-15 22:18:26:265,-0.551002,1.23947,-9.48224,-8.85123,-4.35362,-16.2733
2023-03-15 22:18:26:275,-0.549049,1.26917,-9.50935,-8.81016,-4.33406,-16.3393
2023-03-15 22:18:26:285,-0.55914,1.32803,-9.50768,-8.77672,-4.31657,-16.4024
2023-03-15 22:18:26:295,-0.60979,1.36005,-9.49984,-8.75421,-4.29935,-16.4597
2023-03-15 22:18:26:305,-0.630506,1.42556,-9.51724,-8.73861,-4.27965,-16.5168
2023-03-15 22:18:26:315,-0.622516,1.51262,-9.58114,-8.72848,-4.25793,-16.5764
2023-03-15 22:18:26:325,-0.628719,1.4865,-9.5174,-8.71565,-4.22634,-16.6371
2023-03-15 22:18:26:335,-0.712269,1.55051,-9.54875,-8.70777,-4.18986,-16.6938
2023-03-15 22:18:26:345,-0.623641,1.52401,-9.55002,-8.69975,-4.14752,-16.7631
2023-03-15 22:18:26:355,-0.56775,1.51498,-9.56914,-8.69106,-4.1076,-16.8275
2023-03-15 22:18:26:365,-0.61173,1.58963,-9.68982,-8.68747,-4.0665,-16.8936
2023-03-15 22:18:26:375,-0.471648,1.5436,-9.67774,-8.67988,-4.03282,-16.9656
2023-03-15 22:18:26:385,-0.445597,1.50233,-9.62538,-8.67014,-4.00216,-17.0273
2023-03-15 22:18:26:395,-0.551975,1.55514,-9.66511,-8.66249,-3.97211,-17.0827
2023-03-15 22:18:26:405,-0.640373,1.57426,-9.7159,-8.65817,-3.94684,-17.1413
2023-03-15 22:18:26:415,-0.628827,1.58923,-9.74044,-8.65611,-3.92554,-17.2069
2023-03-15 22:18:26:425,-0.573866,1.58701,-9.77127,-8.65529,-3.90591,-17.2806
2023-03-15 22:18:26:435,-0.551844,1.57709,-9.75969,-8.64402,-3.88875,-17.3529
2023-03-15 22:18:26:445,-0.520567,1.55499,-9.74692,-8.62454,-3.87498,-17.4232
2023-03-15 22:18:26:455,-0.445312,1.49725,-9.70148,-8.60097,-3.85558,-17.495
2023-03-15 22:18:26:465,-0.390184,1.452,-9.64721,-8.57815,-3.84556,-17.5589
2023-03-15 22:18:26:475,-0.417302,1.43804,-9.617,-8.56215,-3.83767,-17.6146
2023-03-15 22:18:26:485,-0.477206,1.43924,-9.61326,-8.54944,-3.83007,-17.662
2023-03-15 22:18:26:495,-0.518643,1.44919,-9.65167,-8.53954,-3.82668,-17.7075
2023-03-15 22:18:26:505,-0.503821,1.46065,-9.71575,-8.52808,-3.82505,-17.7512
2023-03-15 22:18:26:515,-0.453004,1.44588,-9.76198,-8.51304,-3.82447,-17.7956
2023-03-15 22:18:26:525,-0.418465,1.39834,-9.74377,-8.49357,-3.82488,-17.8335
2023-03-15 22:18:26:535,-0.44821,1.32585,-9.67175,-8.46807,-3.8388,-17.86
2023-03-15 22:18:26:545,-0.46452,1.29056,-9.60089,-8.44379,-3.85658,-17.8732
2023-03-15 22:18:26:555,-0.469958,1.25578,-9.51479,-8.42323,-3.88022,-17.8771
2023-03-15 22:18:26:565,-0.577464,1.25988,-9.48618,-8.40742,-3.90012,-17.8713
2023-03-15 22:18:26:575,-0.648378,1.24546,-9.42913,-8.39835,-3.92681,-17.8558
2023-03-15 22:18:26:585,-0.70059,1.26162,-9.45098,-8.39581,-3.9454,-17.8382
2023-03-15 22:18:26:595,-0.764062,1.3426,-9.57035,-8.40955,-3.97138,-17.8155
2023-03-15 22:18:26:605,-0.846812,1.43063,-9.68046,-8.43055,-4.00024,-17.7966
2023-03-15 22:18:26:615,-0.943397,1.46986,-9.71235,-8.4437,-4.027,-17.7835
2023-03-15 22:18:26:625,-1.01797,1.44096,-9.64026,-8.44943,-4.05367,-17.7798
2023-03-15 22:18:26:635,-1.03771,1.41634,-9.56697,-8.45313,-4.06842,-17.7885
2023-03-15 22:18:26:645,-1.01029,1.439,-9.60486,-8.46295,-4.07894,-17.8118
2023-03-15 22:18:26:655,-0.930355,1.46673,-9.7025,-8.47676,-4.08627,-17.8477
2023-03-15 22:18:26:665,-0.844924,1.44299,-9.71966,-8.48758,-4.09675,-17.8941
2023-03-15 22:18:26:675,-0.793409,1.37523,-9.66191,-8.48891,-4.10645,-17.943
2023-03-15 22:18:26:685,-0.771902,1.34781,-9.56063,-8.48917,-4.11662,-17.9905
2023-03-15 22:18:26:695,-0.770537,1.3385,-9.46979,-8.49067,-4.12288,-18.0395
2023-03-15 22:18:26:705,-0.733641,1.33413,-9.47648,-8.49563,-4.12478,-18.0985
2023-03-15 22:18:26:715,-0.610863,1.34002,-9.50887,-8.51167,-4.11813,-18.1568
2023-03-15 22:18:26:725,-0.527677,1.37289,-9.5758,-8.53559,-4.10978,-18.2152
2023-03-15 22:18:26:735,-0.528624,1.44315,-9.62338,-8.56903,-4.10283,-18.2675
2023-03-15 22:18:26:745,-0.563197,1.45719,-9.59882,-8.60513,-4.10164,-18.3185
2023-03-15 22:18:26:755,-0.555324,1.46888,-9.60132,-8.64217,-4.09125,-18.3668
2023-03-15 22:18:26:765,-0.528256,1.49894,-9.63503,-8.67869,-4.08153,-18.4167
2023-03-15 22:18:26:775,-0.481229,1.53972,-9.71387,-8.71823,-4.07836,-18.4651
2023-03-15 22:18:26:785,-0.407916,1.60761,-9.8032,-8.75755,-4.07769,-18.5183
2023-03-15 22:18:26:795,-0.341476,1.63126,-9.82633,-8.79235,-4.08201,-18.5676
2023-03-15 22:18:26:805,-0.38411,1.63053,-9.79415,-8.81835,-4.09719,-18.6084
2023-03-15 22:18:26:815,-0.460869,1.64716,-9.78548,-8.838,-4.1176,-18.6423
2023-03-15 22:18:26:825,-0.520172,1.66219,-9.78691,-8.85237,-4.1392,-18.6759
2023-03-15 22:18:26:835,-0.561005,1.613,-9.73803,-8.85646,-4.15842,-18.7055
2023-03-15 22:18:26:845,-0.559194,1.56919,-9.69288,-8.85346,-4.17409,-18.7327
2023-03-15 22:18:26:855,-0.495805,1.53489,-9.64279,-8.84715,-4.18444,-18.7529
2023-03-15 22:18:26:865,-0.451196,1.48746,-9.59952,-8.84569,-4.1891,-18.7668
2023-03-15 22:18:26:875,-0.479947,1.47362,-9.55159,-8.84749,-4.19813,-18.7632
2023-03-15 22:18:26:885,-0.575204,1.51899,-9.50636,-8.85849,-4.20601,-18.7547
2023-03-15 22:18:26:895,-0.643718,1.532,-9.55115,-8.86995,-4.20405,-18.7381
2023-03-15 22:18:26:905,-0.629246,1.59329,-9.59868,-8.88686,-4.19885,-18.725
2023-03-15 22:18:26:915,-0.521827,1.57725,-9.62747,-8.90016,-4.18935,-18.716
2023-03-15 22:18:26:925,-0.480034,1.56739,-9.61877,-8.91022,-4.17459,-18.6942
2023-03-15 22:18:26:935,-0.480622,1.55736,-9.60849,-8.91786,-4.15911,-18.6645
2023-03-15 22:18:26:945,-0.486792,1.54723,-9.60245,-8.92856,-4.146,-18.6272
2023-03-15 22:18:26:955,-0.50315,1.52549,-9.58188,-8.94645,-4.13559,-18.5834
2023-03-15 22:18:26:965,-0.545493,1.54295,-9.57171,-8.96401,-4.13359,-18.5317
2023-03-15 22:18:26:975,-0.590115,1.57543,-9.64112,-8.98897,-4.13168,-18.4713
2023-03-15 22:18:26:985,-0.625569,1.6287,-9.73678,-9.02084,-4.13614,-18.4078
2023-03-15 22:18:26:995,-0.692424,1.67882,-9.76279,-9.0453,-4.14486,-18.3431
2023-03-15 22:18:27:5,-0.847279,1.65141,-9.65927,-9.05868,-4.15597,-18.2757
2023-03-15 22:18:27:15,-0.993186,1.56364,-9.48314,-9.06334,-4.16992,-18.2095
2023-03-15 22:18:27:25,-1.06782,1.47656,-9.32636,-9.07174,-4.18276,-18.1531
2023-03-15 22:18:27:35,-1.12746,1.39116,-9.27329,-9.08483,-4.20051,-18.1062
2023-03-15 22:18:27:45,-1.13586,1.37568,-9.34575,-9.11837,-4.22042,-18.073
2023-03-15 22:18:27:55,-1.04753,1.5058,-9.50623,-9.17512,-4.24568,-18.052
2023-03-15 22:18:27:65,-0.991969,1.6662,-9.61426,-9.24099,-4.27196,-18.0521
2023-03-15 22:18:27:75,-0.982254,1.68971,-9.53031,-9.29618,-4.2993,-18.0689
2023-03-15 22:18:27:85,-0.982321,1.60008,-9.39595,-9.34231,-4.32767,-18.0901
2023-03-15 22:18:27:95,-0.95892,1.59297,-9.43553,-9.39673,-4.34906,-18.1106
2023-03-15 22:18:27:105,-0.914299,1.68789,-9.69762,-9.47391,-4.37195,-18.1372
2023-03-15 22:18:27:115,-0.873657,1.87514,-9.94035,-9.56127,-4.39098,-18.1683
2023-03-15 22:18:27:125,-0.928985,1.98376,-9.98982,-9.63637,-4.40635,-18.2055
2023-03-15 22:18:27:135,-0.990842,1.98386,-9.88059,-9.68969,-4.41675,-18.2523
2023-03-15 22:18:27:145,-0.922414,1.92741,-9.71108,-9.72111,-4.41839,-18.3042
2023-03-15 22:18:27:155,-0.798029,1.82999,-9.5581,-9.74074,-4.40862,-18.3577
2023-03-15 22:18:27:165,-0.748123,1.71011,-9.53411,-9.75538,-4.40116,-18.4007
2023-03-15 22:18:27:175,-0.789685,1.79537,-9.72222,-9.78942,-4.40113,-18.437
2023-03-15 22:18:27:185,-0.853185,1.98327,-9.91898,-9.83187,-4.40424,-18.4804
2023-03-15 22:18:27:195,-0.92181,2.03097,-9.92492,-9.86396,-4.40868,-18.5319
2023-03-15 22:18:27:205,-0.8765,1.96668,-9.84408,-9.86813,-4.40475,-18.5846
2023-03-15 22:18:27:215,-0.753552,1.87823,-9.78056,-9.85717,-4.39408,-18.6445
2023-03-15 22:18:27:225,-0.707526,1.81892,-9.75079,-9.83867,-4.37847,-18.6963
2023-03-15 22:18:27:235,-0.751056,1.76237,-9.72254,-9.8143,-4.36163,-18.7412
2023-03-15 22:18:27:245,-0.834811,1.73109,-9.67647,-9.78286,-4.34795,-18.78
2023-03-15 22:18:27:255,-0.89198,1.72636,-9.60168,-9.75353,-4.33329,-18.8182
2023-03-15 22:18:27:265,-0.879544,1.69675,-9.55426,-9.72263,-4.31104,-18.8643
2023-03-15 22:18:27:275,-0.847985,1.69082,-9.54466,-9.69216,-4.27985,-18.9098
2023-03-15 22:18:27:285,-0.832405,1.68169,-9.54454,-9.66297,-4.24835,-18.9588
2023-03-15 22:18:27:295,-0.834466,1.64731,-9.48088,-9.63334,-4.2172,-19.0133
2023-03-15 22:18:27:305,-0.815766,1.60731,-9.37853,-9.60617,-4.1877,-19.0737
2023-03-15 22:18:27:315,-0.812919,1.61479,-9.30142,-9.59066,-4.15073,-19.1371
2023-03-15 22:18:27:325,-0.773993,1.65475,-9.30065,-9.59533,-4.11143,-19.2099
2023-03-15 22:18:27:335,-0.710866,1.7245,-9.41763,-9.62212,-4.07276,-19.2921
2023-03-15 22:18:27:345,-0.613901,1.83195,-9.62686,-9.66745,-4.02579,-19.3864
2023-03-15 22:18:27:355,-0.491182,1.92352,-9.87977,-9.71881,-3.97373,-19.4851
2023-03-15 22:18:27:365,-0.378994,2.03024,-10.0084,-9.76103,-3.92055,-19.5881
2023-03-15 22:18:27:375,-0.285918,2.00635,-9.99343,-9.78683,-3.87165,-19.6954
2023-03-15 22:18:27:385,-0.218381,1.92167,-9.94753,-9.7948,-3.82452,-19.798
2023-03-15 22:18:27:395,-0.186765,1.88232,-9.99059,-9.79426,-3.7779,-19.8878
2023-03-15 22:18:27:405,-0.175594,1.91164,-10.0657,-9.7891,-3.73804,-19.9692
2023-03-15 22:18:27:415,-0.171914,1.94511,-10.0405,-9.76872,-3.70244,-20.0478
2023-03-15 22:18:27:425,-0.176027,1.89241,-9.88916,-9.72715,-3.67303,-20.1227
2023-03-15 22:18:27:435,-0.211127,1.81456,-9.76268,-9.6695,-3.64111,-20.1928
2023-03-15 22:18:27:445,-0.246392,1.81646,-9.75421,-9.60211,-3.60764,-20.2482
2023-03-15 22:18:27:455,-0.289685,1.80839,-9.80923,-9.53158,-3.578,-20.3057
2023-03-15 22:18:27:465,-0.36297,1.78956,-9.79392,-9.44728,-3.55125,-20.3614
2023-03-15 22:18:27:475,-0.389536,1.69566,-9.70245,-9.34578,-3.52547,-20.4237
2023-03-15 22:18:27:485,-0.418356,1.55569,-9.59504,-9.22815,-3.50408,-20.4907
2023-03-15 22:18:27:495,-0.479546,1.4708,-9.46714,-9.10881,-3.47649,-20.5491
2023-03-15 22:18:27:505,-0.51774,1.38659,-9.4173,-8.98656,-3.44669,-20.6053
2023-03-15 22:18:27:515,-0.494152,1.36536,-9.51921,-8.87005,-3.40446,-20.662
2023-03-15 22:18:27:525,-0.40405,1.40692,-9.65629,-8.75513,-3.35722,-20.7192
2023-03-15 22:18:27:535,-0.313103,1.35773,-9.64587,-8.63393,-3.30797,-20.7721
2023-03-15 22:18:27:545,-0.228902,1.2145,-9.46067,-8.49972,-3.25618,-20.8112
2023-03-15 22:18:27:555,-0.173998,0.996268,-9.28851,-8.36188,-3.20521,-20.83
2023-03-15 22:18:27:565,-0.18177,0.86142,-9.26778,-8.24069,-3.16136,-20.8233
2023-03-15 22:18:27:575,-0.253309,0.898952,-9.37524,-8.15314,-3.13816,-20.7961
2023-03-15 22:18:27:585,-0.345069,1.02108,-9.54362,-8.09748,-3.13146,-20.7579
2023-03-15 22:18:27:595,-0.466694,1.151,-9.64461,-8.05539,-3.1431,-20.7117
2023-03-15 22:18:27:605,-0.609785,1.19733,-9.58492,-8.01564,-3.16415,-20.6603
2023-03-15 22:18:27:615,-0.708084,1.13208,-9.43424,-7.96957,-3.19045,-20.6127
2023-03-15 22:18:27:625,-0.757413,1.05753,-9.33685,-7.93106,-3.22248,-20.5666
2023-03-15 22:18:27:635,-0.767047,1.05441,-9.29348,-7.90953,-3.26107,-20.5204
2023-03-15 22:18:27:645,-0.790086,1.07841,-9.27876,-7.90474,-3.3077,-20.4798
2023-03-15 22:18:27:655,-0.789327,1.12911,-9.26319,-7.91679,-3.36088,-20.4496
2023-03-15 22:18:27:667,-0.706813,1.15061,-9.24517,-7.94486,-3.41575,-20.421
2023-03-15 22:18:27:675,-0.677064,1.16044,-9.28246,-7.98994,-3.47033,-20.397
2023-03-15 22:18:27:685,-0.705093,1.24097,-9.47223,-8.06312,-3.53302,-20.3693
2023-03-15 22:18:27:695,-0.707667,1.41353,-9.66501,-8.15467,-3.59768,-20.343
2023-03-15 22:18:27:705,-0.742338,1.50649,-9.72938,-8.24884,-3.67069,-20.3245
2023-03-15 22:18:27:715,-0.801049,1.52391,-9.68154,-8.33203,-3.74419,-20.3095
2023-03-15 22:18:27:725,-0.814532,1.50291,-9.60761,-8.40534,-3.81599,-20.3031
2023-03-15 22:18:27:735,-0.795639,1.49231,-9.50793,-8.47404,-3.88316,-20.3025
2023-03-15 22:18:27:745,-0.761161,1.42708,-9.39223,-8.53991,-3.94495,-20.3097
2023-03-15 22:18:27:755,-0.739942,1.41645,-9.3584,-8.61611,-4.00556,-20.3187
2023-03-15 22:18:27:765,-0.682092,1.48342,-9.41972,-8.70877,-4.0649,-20.3369
2023-03-15 22:18:27:775,-0.683363,1.50541,-9.5409,-8.81421,-4.12695,-20.3604
2023-03-15 22:18:27:785,-0.73112,1.54493,-9.72458,-8.9296,-4.19797,-20.3845
2023-03-15 22:18:27:795,-0.781819,1.59928,-10.0335,-9.04947,-4.27572,-20.4177
2023-03-15 22:18:27:805,-0.851832,1.87058,-10.2468,-9.16367,-4.36146,-20.4605
2023-03-15 22:18:27:815,-0.927964,1.96754,-10.0508,-9.24656,-4.44542,-20.5298
2023-03-15 22:18:27:825,-0.993242,1.57833,-9.62098,-9.26622,-4.51277,-20.6137
2023-03-15 22:18:27:835,-0.982985,1.37141,-9.3519,-9.27545,-4.56248,-20.6984
2023-03-15 22:18:27:845,-0.863821,1.34685,-9.32219,-9.29723,-4.5867,-20.7923
2023-03-15 22:18:27:855,-0.726839,1.3249,-9.32797,-9.34086,-4.59805,-20.8935
2023-03-15 22:18:27:865,-0.648478,1.3551,-9.39719,-9.40497,-4.59944,-20.9968
2023-03-15 22:18:27:875,-0.579005,1.4845,-9.59658,-9.49348,-4.59354,-21.1007
2023-03-15 22:18:27:885,-0.500264,1.61846,-9.76736,-9.58987,-4.5807,-21.2068
2023-03-15 22:18:27:895,-0.411139,1.66191,-9.78272,-9.67977,-4.56138,-21.314
2023-03-15 22:18:27:905,-0.360166,1.59813,-9.72994,-9.75389,-4.53033,-21.4153
2023-03-15 22:18:27:915,-0.316558,1.60325,-9.71281,-9.82937,-4.50087,-21.5047
2023-03-15 22:18:27:925,-0.302301,1.71638,-9.70184,-9.90877,-4.47154,-21.5812
2023-03-15 22:18:27:935,-0.321192,1.74206,-9.64586,-9.98318,-4.44158,-21.6512
2023-03-15 22:18:27:945,-0.310149,1.70973,-9.6596,-10.0525,-4.40842,-21.7113
2023-03-15 22:18:27:955,-0.315684,1.78536,-9.81152,-10.1254,-4.37692,-21.7514
2023-03-15 22:18:27:965,-0.337356,1.88389,-9.9853,-10.1971,-4.34967,-21.7833
2023-03-15 22:18:27:975,-0.347256,1.88533,-9.99616,-10.2477,-4.332,-21.8098
2023-03-15 22:18:27:985,-0.340659,1.75756,-9.78612,-10.2786,-4.31891,-21.8169
2023-03-15 22:18:27:995,-0.385383,1.58903,-9.54686,-10.2982,-4.31157,-21.8044
2023-03-15 22:18:28:5,-0.434546,1.58669,-9.46429,-10.3348,-4.31959,-21.7671
2023-03-15 22:18:28:15,-0.483243,1.65573,-9.52111,-10.3985,-4.34843,-21.7154
2023-03-15 22:18:28:25,-0.637293,1.77965,-9.62886,-10.4862,-4.40702,-21.6463
2023-03-15 22:18:28:35,-0.863954,1.93413,-9.75201,-10.5878,-4.48336,-21.5672
2023-03-15 22:18:28:45,-1.08791,2.09711,-9.90502,-10.6946,-4.57842,-21.4838
2023-03-15 22:18:28:55,-1.28987,2.24865,-9.97444,-10.794,-4.67954,-21.399
2023-03-15 22:18:28:65,-1.43472,2.28145,-9.88212,-10.8673,-4.77586,-21.3172
2023-03-15 22:18:28:75,-1.47364,2.17035,-9.72265,-10.91,-4.86261,-21.2378
2023-03-15 22:18:28:85,-1.36456,2.09164,-9.64419,-10.9365,-4.9347,-21.1577
2023-03-15 22:18:28:95,-1.20605,2.09868,-9.70537,-10.9626,-4.99944,-21.0708
2023-03-15 22:18:28:105,-1.09365,2.13489,-9.77862,-10.9889,-5.06587,-20.975
2023-03-15 22:18:28:115,-1.06865,2.16602,-9.81856,-10.9996,-5.13834,-20.8624
2023-03-15 22:18:28:125,-1.09791,2.17563,-9.7865,-11.0021,-5.21785,-20.7378
2023-03-15 22:18:28:135,-1.11428,2.13384,-9.65318,-10.9845,-5.3042,-20.5997
2023-03-15 22:18:28:145,-1.15811,2.04058,-9.45757,-10.9443,-5.39801,-20.4483
2023-03-15 22:18:28:155,-1.26809,1.94915,-9.30079,-10.8929,-5.48711,-20.2854
2023-03-15 22:18:28:165,-1.40169,1.88231,-9.2485,-10.8362,-5.56879,-20.1179
2023-03-15 22:18:28:175,-1.50536,1.81742,-9.2053,-10.7728,-5.637,-19.9571
2023-03-15 22:18:28:185,-1.55592,1.71798,-9.16589,-10.7041,-5.68643,-19.8077
2023-03-15 22:18:28:195,-1.55764,1.59591,-9.14139,-10.6342,-5.71666,-19.6743
2023-03-15 22:18:28:205,-1.49909,1.5068,-9.1289,-10.5668,-5.72867,-19.5563
2023-03-15 22:18:28:215,-1.39227,1.4253,-9.12043,-10.5094,-5.72217,-19.4603
2023-03-15 22:18:28:225,-1.26925,1.40426,-9.13118,-10.4707,-5.70462,-19.3827
2023-03-15 22:18:28:235,-1.1055,1.43836,-9.18971,-10.4629,-5.6844,-19.3214
2023-03-15 22:18:28:245,-0.922718,1.52138,-9.27652,-10.4806,-5.65985,-19.2772
2023-03-15 22:18:28:255,-0.784926,1.61138,-9.35055,-10.5246,-5.63964,-19.2437
2023-03-15 22:18:28:265,-0.714433,1.65662,-9.39371,-10.5778,-5.62855,-19.2201
2023-03-15 22:18:28:275,-0.676451,1.73003,-9.48173,-10.6431,-5.62288,-19.1996
2023-03-15 22:18:28:285,-0.600952,1.80573,-9.59659,-10.7171,-5.62837,-19.1823
2023-03-15 22:18:28:295,-0.48285,1.83556,-9.67572,-10.7877,-5.63751,-19.1645
2023-03-15 22:18:28:305,-0.409401,1.84272,-9.67725,-10.8552,-5.65131,-19.1379
2023-03-15 22:18:28:315,-0.393233,1.85701,-9.6645,-10.9214,-5.66501,-19.0917
2023-03-15 22:18:28:325,-0.462505,1.91979,-9.67002,-10.9919,-5.68041,-19.0317
2023-03-15 22:18:28:335,-0.575035,2.01425,-9.7125,-11.0634,-5.70113,-18.9584
2023-03-15 22:18:28:345,-0.684306,2.11103,-9.75721,-11.138,-5.7226,-18.872
2023-03-15 22:18:28:355,-0.723822,2.16857,-9.77859,-11.2017,-5.74352,-18.7865
2023-03-15 22:18:28:365,-0.755859,2.15802,-9.81221,-11.2504,-5.75279,-18.6943
2023-03-15 22:18:28:375,-0.80586,2.13404,-9.8842,-11.288,-5.761,-18.5946
2023-03-15 22:18:28:385,-0.883502,2.12742,-9.9271,-11.3125,-5.76957,-18.4905
2023-03-15 22:18:28:395,-0.982048,2.11099,-9.87908,-11.3272,-5.78299,-18.3818
2023-03-15 22:18:28:405,-1.02982,2.05538,-9.72808,-11.3273,-5.80108,-18.2805
2023-03-15 22:18:28:415,-1.01607,1.98856,-9.59869,-11.3214,-5.81693,-18.1857
2023-03-15 22:18:28:425,-0.972683,1.95902,-9.57563,-11.3191,-5.83142,-18.0944
2023-03-15 22:18:28:435,-0.946476,1.98383,-9.66562,-11.3207,-5.84571,-18.0042
2023-03-15 22:18:28:445,-0.946336,2.0358,-9.75531,-11.3229,-5.86792,-17.9153
2023-03-15 22:18:28:455,-1.01706,2.07477,-9.77149,-11.3213,-5.89291,-17.8271
2023-03-15 22:18:28:465,-1.11304,2.10989,-9.74526,-11.3071,-5.92223,-17.7461
2023-03-15 22:18:28:475,-1.1483,2.11351,-9.6481,-11.2773,-5.94365,-17.6718
2023-03-15 22:18:28:485,-1.1137,2.08859,-9.51337,-11.2297,-5.95384,-17.6157
2023-03-15 22:18:28:495,-1.05177,2.0697,-9.44089,-11.1792,-5.95219,-17.5603
2023-03-15 22:18:28:505,-0.98418,2.03668,-9.43233,-11.125,-5.93918,-17.5055
2023-03-15 22:18:28:515,-0.965923,2.02385,-9.48683,-11.0754,-5.92714,-17.4522
2023-03-15 22:18:28:525,-0.966527,2.03812,-9.57893,-11.0291,-5.92254,-17.3988
2023-03-15 22:18:28:535,-0.971716,2.05782,-9.62321,-10.9849,-5.92192,-17.3486
2023-03-15 22:18:28:545,-1.01218,2.01884,-9.60213,-10.9373,-5.91933,-17.2986
2023-03-15 22:18:28:555,-1.095,1.95819,-9.54124,-10.8782,-5.92098,-17.2501
2023-03-15 22:18:28:565,-1.14279,1.94922,-9.48608,-10.8171,-5.91776,-17.2098
2023-03-15 22:18:28:575,-1.11568,1.91398,-9.47182,-10.7562,-5.90873,-17.1851
2023-03-15 22:18:28:585,-1.02643,1.90254,-9.495,-10.6936,-5.896,-17.1666
2023-03-15 22:18:28:595,-0.929424,1.86662,-9.53236,-10.6342,-5.88183,-17.1583
2023-03-15 22:18:28:605,-0.845306,1.8026,-9.52115,-10.5706,-5.86917,-17.1509
2023-03-15 22:18:28:615,-0.827577,1.75975,-9.47649,-10.5115,-5.86177,-17.1417
2023-03-15 22:18:28:625,-0.83842,1.72774,-9.45803,-10.4595,-5.86252,-17.1342
2023-03-15 22:18:28:635,-0.857253,1.70311,-9.44838,-10.4174,-5.87134,-17.123
2023-03-15 22:18:28:645,-0.899562,1.70581,-9.4796,-10.388,-5.88168,-17.1103
2023-03-15 22:18:28:655,-0.926429,1.73426,-9.52175,-10.363,-5.89466,-17.0959
2023-03-15 22:18:28:665,-0.920761,1.71246,-9.50124,-10.3378,-5.90111,-17.0849
2023-03-15 22:18:28:675,-0.905309,1.66473,-9.45385,-10.3114,-5.90615,-17.0756
2023-03-15 22:18:28:685,-0.872193,1.6507,-9.42377,-10.2914,-5.9082,-17.054
2023-03-15 22:18:28:695,-0.89035,1.66491,-9.43161,-10.2824,-5.90536,-17.0269
2023-03-15 22:18:28:705,-0.916001,1.69217,-9.41825,-10.2806,-5.89892,-16.9943
2023-03-15 22:18:28:715,-0.927844,1.70635,-9.3876,-10.2891,-5.88662,-16.9557
2023-03-15 22:18:28:725,-0.937559,1.74379,-9.40814,-10.3034,-5.86874,-16.9164
2023-03-15 22:18:28:735,-0.949005,1.80011,-9.50609,-10.3261,-5.84567,-16.8717
2023-03-15 22:18:28:744,-0.9655,1.87734,-9.59477,-10.3498,-5.81904,-16.8302
2023-03-15 22:18:28:755,-1.03351,1.94539,-9.69698,-10.3775,-5.79172,-16.7842
2023-03-15 22:18:28:765,-1.10296,2.00272,-9.76431,-10.3985,-5.76825,-16.7417
2023-03-15 22:18:28:775,-1.12066,2.03795,-9.76795,-10.4131,-5.74908,-16.7076
2023-03-15 22:18:28:785,-1.1313,2.02083,-9.74146,-10.4139,-5.7356,-16.6843
2023-03-15 22:18:28:795,-1.13247,2.01112,-9.7117,-10.4061,-5.72482,-16.6704
2023-03-15 22:18:28:805,-1.1063,1.99134,-9.68022,-10.3865,-5.71247,-16.6643
2023-03-15 22:18:28:815,-1.06974,1.92648,-9.63175,-10.3595,-5.70384,-16.6673
2023-03-15 22:18:28:825,-1.02804,1.87218,-9.59458,-10.331,-5.70107,-16.6771
2023-03-15 22:18:28:835,-0.995042,1.86019,-9.60224,-10.3049,-5.70012,-16.6862
2023-03-15 22:18:28:845,-0.999684,1.86658,-9.62577,-10.2813,-5.69853,-16.6969
2023-03-15 22:18:28:855,-0.968155,1.86211,-9.63046,-10.2514,-5.69772,-16.7147
2023-03-15 22:18:28:865,-0.931293,1.82555,-9.62415,-10.2163,-5.69997,-16.7286
2023-03-15 22:18:28:875,-0.925244,1.8096,-9.61358,-10.1804,-5.70389,-16.7412
2023-03-15 22:18:28:885,-0.930136,1.78614,-9.5988,-10.1415,-5.71145,-16.7492
2023-03-15 22:18:28:894,-0.92759,1.74352,-9.57323,-10.0977,-5.71643,-16.7586
2023-03-15 22:18:28:905,-0.930512,1.70392,-9.51189,-10.0539,-5.72677,-16.766
2023-03-15 22:18:28:915,-0.941349,1.64853,-9.46881,-10.0089,-5.73615,-16.7679
2023-03-15 22:18:28:925,-0.957501,1.63474,-9.46728,-9.97074,-5.74274,-16.7651
2023-03-15 22:18:28:935,-0.961237,1.63471,-9.51277,-9.93599,-5.7491,-16.7602
2023-03-15 22:18:28:944,-0.960148,1.6537,-9.54599,-9.91112,-5.75726,-16.7538
2023-03-15 22:18:28:955,-0.980722,1.66934,-9.55323,-9.89069,-5.76872,-16.7416
2023-03-15 22:18:28:965,-0.991277,1.66924,-9.56603,-9.8678,-5.78098,-16.7281
2023-03-15 22:18:28:974,-1.00471,1.66898,-9.58812,-9.84781,-5.79518,-16.7181
2023-03-15 22:18:28:985,-1.03538,1.67016,-9.57945,-9.82764,-5.80462,-16.7025
2023-03-15 22:18:28:995,-1.07197,1.63893,-9.55123,-9.80454,-5.81511,-16.6901
2023-03-15 22:18:29:5,-1.09914,1.62175,-9.52109,-9.78042,-5.82395,-16.6735
2023-03-15 22:18:29:15,-1.11752,1.62494,-9.51304,-9.75786,-5.83186,-16.6621
2023-03-15 22:18:29:25,-1.12426,1.61851,-9.50441,-9.73953,-5.83591,-16.6542
2023-03-15 22:18:29:35,-1.1027,1.61602,-9.50552,-9.71941,-5.83688,-16.6477
2023-03-15 22:18:29:45,-1.09131,1.61782,-9.54289,-9.70434,-5.83452,-16.6417
2023-03-15 22:18:29:55,-1.06966,1.63381,-9.5811,-9.69164,-5.83164,-16.634
2023-03-15 22:18:29:65,-1.04497,1.65123,-9.59962,-9.67713,-5.82611,-16.6293
2023-03-15 22:18:29:75,-1.0449,1.66332,-9.61218,-9.66549,-5.81941,-16.6247
2023-03-15 22:18:29:85,-1.02153,1.65829,-9.62198,-9.65259,-5.81319,-16.6236
2023-03-15 22:18:29:95,-1.01999,1.64605,-9.61869,-9.63396,-5.80888,-16.6213
2023-03-15 22:18:29:105,-1.01831,1.63831,-9.5935,-9.61491,-5.80413,-16.6237
2023-03-15 22:18:29:115,-1.00241,1.60789,-9.57818,-9.59238,-5.80272,-16.6234
2023-03-15 22:18:29:125,-0.976549,1.58011,-9.57539,-9.56792,-5.79948,-16.6224
2023-03-15 22:18:29:135,-0.934588,1.5588,-9.59593,-9.54394,-5.79426,-16.6172
2023-03-15 22:18:29:145,-0.918597,1.57215,-9.65192,-9.52231,-5.79324,-16.61
2023-03-15 22:18:29:155,-0.887309,1.58846,-9.69241,-9.5056,-5.79363,-16.6008
2023-03-15 22:18:29:165,-0.888755,1.56079,-9.67271,-9.47943,-5.79682,-16.5886
2023-03-15 22:18:29:175,-0.921801,1.53266,-9.59666,-9.45448,-5.80142,-16.5699
2023-03-15 22:18:29:185,-0.946462,1.51529,-9.52993,-9.4266,-5.80742,-16.5445
2023-03-15 22:18:29:195,-0.9782,1.52548,-9.49613,-9.40518,-5.81482,-16.5195
2023-03-15 22:18:29:205,-1.00367,1.54574,-9.49743,-9.39398,-5.81964,-16.4926
2023-03-15 22:18:29:215,-1.0157,1.55593,-9.50572,-9.38598,-5.8214,-16.4656
2023-03-15 22:18:29:224,-1.05018,1.60393,-9.54901,-9.38169,-5.82562,-16.4318
2023-03-15 22:18:29:235,-1.07646,1.6732,-9.6188,-9.38159,-5.82417,-16.4026
2023-03-15 22:18:29:245,-1.08452,1.69979,-9.632,-9.37913,-5.82315,-16.3761
2023-03-15 22:18:29:254,-1.0968,1.68005,-9.62366,-9.36889,-5.81837,-16.356
2023-03-15 22:18:29:264,-1.1042,1.66561,-9.61466,-9.35094,-5.81077,-16.3397
2023-03-15 22:18:29:275,-1.07893,1.64313,-9.60938,-9.33155,-5.79966,-16.3315
2023-03-15 22:18:29:284,-1.04358,1.60909,-9.57671,-9.30717,-5.78612,-16.3206
2023-03-15 22:18:29:295,-1.02567,1.56527,-9.54169,-9.28107,-5.77114,-16.3148
2023-03-15 22:18:29:305,-1.02079,1.52678,-9.52183,-9.25611,-5.75514,-16.3078
2023-03-15 22:18:29:315,-1.01362,1.52091,-9.5252,-9.23546,-5.73559,-16.2984
2023-03-15 22:18:29:325,-0.989102,1.52865,-9.53167,-9.21902,-5.71808,-16.2969
2023-03-15 22:18:29:335,-0.983722,1.54282,-9.57634,-9.20684,-5.69827,-16.2944
2023-03-15 22:18:29:345,-0.977997,1.57613,-9.61171,-9.19898,-5.67943,-16.293
2023-03-15 22:18:29:355,-0.961307,1.57246,-9.64214,-9.18803,-5.6574,-16.2924
2023-03-15 22:18:29:364,-0.908308,1.56894,-9.64471,-9.17741,-5.63019,-16.2915
2023-03-15 22:18:29:375,-0.839222,1.54816,-9.61854,-9.16145,-5.60036,-16.2927
2023-03-15 22:18:29:384,-0.823663,1.50845,-9.58182,-9.14533,-5.57435,-16.2869
2023-03-15 22:18:29:395,-0.852877,1.47828,-9.53259,-9.12611,-5.54937,-16.2779
2023-03-15 22:18:29:405,-0.886256,1.4714,-9.50696,-9.11279,-5.52773,-16.2673
2023-03-15 22:18:29:415,-0.914285,1.49933,-9.52158,-9.11014,-5.50925,-16.255
2023-03-15 22:18:29:425,-0.931566,1.52659,-9.55181,-9.11183,-5.4922,-16.2479
2023-03-15 22:18:29:435,-0.936412,1.56455,-9.59821,-9.11423,-5.47433,-16.2427
2023-03-15 22:18:29:444,-0.921419,1.59853,-9.63124,-9.11826,-5.45957,-16.239
2023-03-15 22:18:29:455,-0.917075,1.59653,-9.62146,-9.11915,-5.44386,-16.2429
2023-03-15 22:18:29:464,-0.894453,1.58567,-9.61628,-9.11719,-5.42622,-16.2481
2023-03-15 22:18:29:474,-0.854524,1.59298,-9.63768,-9.11432,-5.41582,-16.2512
2023-03-15 22:18:29:485,-0.844331,1.60819,-9.66147,-9.11277,-5.40624,-16.2573
2023-03-15 22:18:29:495,-0.841626,1.59672,-9.64164,-9.1064,-5.39774,-16.2631
2023-03-15 22:18:29:504,-0.810541,1.58556,-9.6355,-9.09934,-5.39299,-16.2735
2023-03-15 22:18:29:514,-0.776716,1.55085,-9.64721,-9.09828,-5.39178,-16.2786
2023-03-15 22:18:29:524,-0.751813,1.53188,-9.6451,-9.09141,-5.39151,-16.2787
2023-03-15 22:18:29:534,-0.747432,1.52108,-9.60556,-9.0863,-5.39537,-16.2749
2023-03-15 22:18:29:544,-0.759954,1.51409,-9.59686,-9.08673,-5.40103,-16.2665
2023-03-15 22:18:29:555,-0.795731,1.52956,-9.62619,-9.08461,-5.41344,-16.2528
2023-03-15 22:18:29:565,-0.822949,1.56823,-9.65222,-9.08713,-5.42086,-16.2374
2023-03-15 22:18:29:575,-0.845056,1.59694,-9.68118,-9.09083,-5.42921,-16.219
2023-03-15 22:18:29:584,-0.866725,1.6131,-9.69459,-9.08874,-5.44029,-16.1962
2023-03-15 22:18:29:594,-0.917031,1.62756,-9.66623,-9.08589,-5.4501,-16.1717
2023-03-15 22:18:29:604,-0.948666,1.60044,-9.62697,-9.07856,-5.45977,-16.1471
2023-03-15 22:18:29:614,-0.995595,1.55748,-9.56101,-9.067,-5.46668,-16.1226
2023-03-15 22:18:29:624,-1.04655,1.54485,-9.51132,-9.0585,-5.47455,-16.095
2023-03-15 22:18:29:635,-1.04606,1.55097,-9.52864,-9.05336,-5.48233,-16.071
2023-03-15 22:18:29:644,-1.0347,1.58075,-9.56632,-9.05281,-5.48851,-16.0518
2023-03-15 22:18:29:655,-1.04553,1.59479,-9.61603,-9.05608,-5.492,-16.036
2023-03-15 22:18:29:664,-1.05319,1.60782,-9.63014,-9.05615,-5.49294,-16.0273
2023-03-15 22:18:29:674,-1.04731,1.61307,-9.63501,-9.0579,-5.49242,-16.0218
2023-03-15 22:18:29:684,-1.0496,1.61893,-9.64581,-9.05508,-5.49418,-16.0179
2023-03-15 22:18:29:694,-1.05369,1.62185,-9.63133,-9.05089,-5.49208,-16.0178
2023-03-15 22:18:29:704,-1.01934,1.62017,-9.63144,-9.04304,-5.48988,-16.0244
2023-03-15 22:18:29:714,-0.99173,1.61971,-9.65064,-9.03403,-5.48675,-16.0314
2023-03-15 22:18:29:724,-0.958381,1.62501,-9.68299,-9.02069,-5.48044,-16.042
2023-03-15 22:18:29:735,-0.944068,1.62188,-9.6746,-9.00727,-5.47171,-16.0542
2023-03-15 22:18:29:744,-0.919763,1.6103,-9.63844,-8.99296,-5.46624,-16.0671
2023-03-15 22:18:29:755,-0.896944,1.5861,-9.60739,-8.97265,-5.45948,-16.0809
2023-03-15 22:18:29:764,-0.867283,1.54924,-9.59632,-8.95252,-5.44867,-16.0921
2023-03-15 22:18:29:775,-0.844343,1.54548,-9.58663,-8.92953,-5.43967,-16.1009
2023-03-15 22:18:29:784,-0.836351,1.55139,-9.60996,-8.90977,-5.43037,-16.1088
2023-03-15 22:18:29:794,-0.840579,1.56142,-9.63041,-8.89394,-5.42146,-16.1163
2023-03-15 22:18:29:804,-0.847996,1.55954,-9.62302,-8.87632,-5.41438,-16.1235
2023-03-15 22:18:29:814,-0.852002,1.54028,-9.60478,-8.85828,-5.40956,-16.1273
2023-03-15 22:18:29:824,-0.873589,1.51685,-9.58537,-8.83958,-5.4045,-16.1255
2023-03-15 22:18:29:834,-0.900183,1.50622,-9.57976,-8.81971,-5.40001,-16.1253
2023-03-15 22:18:29:844,-0.905106,1.50006,-9.59835,-8.80399,-5.38957,-16.1267
2023-03-15 22:18:29:854,-0.887142,1.48645,-9.62793,-8.78849,-5.38291,-16.126
2023-03-15 22:18:29:864,-0.876786,1.47935,-9.62525,-8.77188,-5.37822,-16.1262
2023-03-15 22:18:29:875,-0.904313,1.48413,-9.60136,-8.75675,-5.37511,-16.1296
2023-03-15 22:18:29:885,-0.890588,1.45741,-9.57372,-8.74101,-5.37279,-16.1326
2023-03-15 22:18:29:895,-0.842046,1.4115,-9.55184,-8.72335,-5.36977,-16.1355
2023-03-15 22:18:29:905,-0.792821,1.38176,-9.57606,-8.70965,-5.36722,-16.1387
2023-03-15 22:18:29:914,-0.77671,1.39806,-9.6466,-8.70154,-5.36974,-16.1359
2023-03-15 22:18:29:924,-0.763807,1.4492,-9.74064,-8.702,-5.37495,-16.1272
2023-03-15 22:18:29:935,-0.758212,1.4507,-9.7334,-8.69633,-5.38485,-16.1168
2023-03-15 22:18:29:944,-0.77818,1.41109,-9.64957,-8.68644,-5.3937,-16.1051
2023-03-15 22:18:29:954,-0.815441,1.38011,-9.58005,-8.6763,-5.40645,-16.0861
2023-03-15 22:18:29:964,-0.839369,1.39162,-9.54309,-8.67064,-5.41771,-16.0602
2023-03-15 22:18:29:974,-0.870746,1.40005,-9.54889,-8.67113,-5.4254,-16.0316
2023-03-15 22:18:29:984,-0.914494,1.45118,-9.54869,-8.68025,-5.43406,-16.0002
2023-03-15 22:18:29:995,-0.929183,1.49492,-9.56231,-8.69134,-5.43817,-15.9732
2023-03-15 22:18:30:4,-0.932335,1.52976,-9.57828,-8.70405,-5.44003,-15.9477
2023-03-15 22:18:30:14,-0.935799,1.54439,-9.64356,-8.72119,-5.4376,-15.924
2023-03-15 22:18:30:24,-0.934888,1.56214,-9.70226,-8.73514,-5.43916,-15.9034
2023-03-15 22:18:30:34,-0.951326,1.57079,-9.75415,-8.7475,-5.44564,-15.8883
2023-03-15 22:18:30:44,-0.959752,1.57702,-9.74622,-8.75335,-5.45688,-15.8773
2023-03-15 22:18:30:54,-0.965908,1.55433,-9.69378,-8.74781,-5.47942,-15.8751
2023-03-15 22:18:30:64,-0.994346,1.50016,-9.65929,-8.73728,-5.50539,-15.8777
2023-03-15 22:18:30:74,-1.02525,1.46554,-9.59249,-8.72594,-5.53729,-15.8879
2023-03-15 22:18:30:84,-1.00042,1.422,-9.5547,-8.7157,-5.56842,-15.8963
2023-03-15 22:18:30:94,-0.954714,1.4226,-9.5736,-8.70817,-5.59616,-15.9084
2023-03-15 22:18:30:104,-0.946529,1.4503,-9.61887,-8.70941,-5.62398,-15.9263
2023-03-15 22:18:30:114,-0.98512,1.48005,-9.65725,-8.71445,-5.65172,-15.9407
2023-03-15 22:18:30:124,-1.00734,1.50977,-9.69028,-8.71421,-5.68345,-15.9537
2023-03-15 22:18:30:134,-1.01773,1.5153,-9.73126,-8.71352,-5.71538,-15.9709
2023-03-15 22:18:30:144,-0.979901,1.53931,-9.70743,-8.70336,-5.73871,-15.9852
2023-03-15 22:18:30:154,-0.9081,1.51904,-9.62806,-8.69186,-5.75961,-16.001
2023-03-15 22:18:30:164,-0.867407,1.46279,-9.52213,-8.6727,-5.77822,-16.0101
2023-03-15 22:18:30:174,-0.859662,1.43542,-9.45455,-8.65365,-5.7962,-16.0135
2023-03-15 22:18:30:184,-0.873318,1.45155,-9.48314,-8.64205,-5.80604,-16.0036
2023-03-15 22:18:30:194,-0.873829,1.5049,-9.55109,-8.63941,-5.81502,-15.9894
2023-03-15 22:18:30:204,-0.865762,1.53403,-9.59969,-8.63822,-5.81273,-15.9665
2023-03-15 22:18:30:214,-0.89841,1.53385,-9.59854,-8.63707,-5.80182,-15.9334
2023-03-15 22:18:30:224,-0.959545,1.53582,-9.62066,-8.63528,-5.78176,-15.8891
2023-03-15 22:18:30:234,-0.986922,1.53286,-9.64982,-8.63452,-5.76,-15.8381
2023-03-15 22:18:30:244,-0.897386,1.44953,-9.57567,-8.62999,-5.74152,-15.7867
2023-03-15 22:18:30:254,-1.11139,1.33694,-9.32997,-8.62944,-5.75455,-15.7304
2023-03-15 22:18:30:264,-1.22014,1.58521,-9.65738,-8.65027,-5.74069,-15.6825
2023-03-15 22:18:30:274,-1.15941,1.52373,-9.57663,-8.6496,-5.70336,-15.6458
2023-03-15 22:18:30:284,-1.20671,1.45831,-9.45887,-8.64418,-5.66698,-15.6223
2023-03-15 22:18:30:294,-0.894662,1.36561,-9.37709,-8.64364,-5.62813,-15.6089
2023-03-15 22:18:30:304,-0.76087,1.36038,-9.41952,-8.65442,-5.58388,-15.59
2023-03-15 22:18:30:314,-0.867449,1.37121,-9.39006,-8.68056,-5.55964,-15.5664
2023-03-15 22:18:30:324,-1.05487,1.63103,-9.73343,-8.73139,-5.52685,-15.5419
2023-03-15 22:18:30:334,-0.90367,1.64187,-9.8219,-8.76587,-5.47666,-15.5348
2023-03-15 22:18:30:344,-0.799736,1.41764,-9.53765,-8.78375,-5.45029,-15.5318
2023-03-15 22:18:30:354,-0.990205,1.43683,-9.51352,-8.81373,-5.43903,-15.5218
2023-03-15 22:18:30:364,-1.061,1.60207,-9.69362,-8.86286,-5.43821,-15.528
2023-03-15 22:18:30:374,-0.964136,1.69429,-9.84092,-8.90376,-5.42249,-15.5551
2023-03-15 22:18:30:384,-0.772357,1.59159,-9.75857,-8.92537,-5.40155,-15.5929
2023-03-15 22:18:30:394,-0.680814,1.51335,-9.68017,-8.93996,-5.38372,-15.6225
2023-03-15 22:18:30:404,-0.624944,1.49843,-9.68531,-8.96461,-5.37217,-15.6497
2023-03-15 22:18:30:414,-0.626774,1.58957,-9.75829,-8.99232,-5.36227,-15.6653
2023-03-15 22:18:30:424,-0.676715,1.66789,-9.77895,-9.02249,-5.35535,-15.6728
2023-03-15 22:18:30:434,-0.696316,1.68273,-9.77484,-9.04912,-5.35369,-15.6744
2023-03-15 22:18:30:444,-0.723804,1.6981,-9.7149,-9.07591,-5.35332,-15.6743
2023-03-15 22:18:30:454,-0.767605,1.73125,-9.75909,-9.09433,-5.34808,-15.6722
2023-03-15 22:18:30:464,-0.756807,1.71118,-9.75212,-9.10421,-5.3425,-15.6667
2023-03-15 22:18:30:474,-0.707992,1.60059,-9.59382,-9.10644,-5.34769,-15.654
2023-03-15 22:18:30:484,-0.740256,1.54384,-9.45734,-9.11493,-5.37302,-15.6336
2023-03-15 22:18:30:494,-0.85888,1.59621,-9.4786,-9.13749,-5.41063,-15.6073
2023-03-15 22:18:30:504,-0.934753,1.66789,-9.58627,-9.16281,-5.44972,-15.5834
2023-03-15 22:18:30:514,-0.946618,1.682,-9.68985,-9.18276,-5.48206,-15.5576
2023-03-15 22:18:30:524,-0.970097,1.62908,-9.67847,-9.19428,-5.51247,-15.5283
2023-03-15 22:18:30:534,-1.00413,1.51366,-9.55945,-9.19657,-5.54403,-15.4999
2023-03-15 22:18:30:544,-1.06427,1.46624,-9.50925,-9.20291,-5.58518,-15.4728
2023-03-15 22:18:30:554,-1.12707,1.51543,-9.53229,-9.2174,-5.63348,-15.4476
2023-03-15 22:18:30:564,-1.16462,1.54745,-9.53571,-9.23771,-5.67804,-15.4275
2023-03-15 22:18:30:574,-1.19471,1.55403,-9.56456,-9.2546,-5.71227,-15.4145
2023-03-15 22:18:30:584,-1.21416,1.61433,-9.64428,-9.26749,-5.72829,-15.4062
2023-03-15 22:18:30:594,-1.16339,1.6055,-9.66928,-9.27192,-5.72192,-15.4021
2023-03-15 22:18:30:604,-1.08039,1.50772,-9.57826,-9.26361,-5.70765,-15.4053
2023-03-15 22:18:30:614,-1.0185,1.47611,-9.53266,-9.25866,-5.69609,-15.4074
2023-03-15 22:18:30:624,-1.00611,1.53588,-9.54746,-9.26384,-5.68523,-15.4084
2023-03-15 22:18:30:634,-1.00319,1.57778,-9.57237,-9.27343,-5.67024,-15.4135
2023-03-15 22:18:30:644,-0.977404,1.57963,-9.54213,-9.28112,-5.65213,-15.4208
2023-03-15 22:18:30:654,-0.933789,1.57742,-9.55093,-9.29123,-5.63439,-15.4329
2023-03-15 22:18:30:664,-0.891196,1.63239,-9.61835,-9.30877,-5.61967,-15.4494
2023-03-15 22:18:30:674,-0.812904,1.66187,-9.69885,-9.32397,-5.60679,-15.4663
2023-03-15 22:18:30:684,-0.707534,1.62974,-9.7019,-9.33282,-5.59985,-15.4852
2023-03-15 22:18:30:694,-0.682097,1.58953,-9.66821,-9.33348,-5.60176,-15.4961
2023-03-15 22:18:30:704,-0.73331,1.58494,-9.64736,-9.33354,-5.61367,-15.4967
2023-03-15 22:18:30:714,-0.789164,1.59949,-9.62875,-9.3362,-5.63808,-15.4928
2023-03-15 22:18:30:724,-0.821902,1.60625,-9.62374,-9.34485,-5.66886,-15.4863
2023-03-15 22:18:30:734,-0.891659,1.65539,-9.62992,-9.35727,-5.70522,-15.4759
2023-03-15 22:18:30:744,-0.937588,1.67641,-9.67774,-9.36916,-5.73656,-15.4602
2023-03-15 22:18:30:754,-0.935102,1.64608,-9.64979,-9.37398,-5.76183,-15.4415
2023-03-15 22:18:30:764,-0.950485,1.65663,-9.62168,-9.37699,-5.78794,-15.4228
2023-03-15 22:18:30:774,-0.977379,1.72537,-9.6783,-9.37913,-5.80374,-15.4017
2023-03-15 22:18:30:784,-1.00949,1.72898,-9.66606,-9.37145,-5.81043,-15.3784
2023-03-15 22:18:30:794,-1.01711,1.67901,-9.58563,-9.35413,-5.814,-15.354
2023-03-15 22:18:30:804,-1.0293,1.64479,-9.50036,-9.33917,-5.80973,-15.3263
2023-03-15 22:18:30:814,-1.08928,1.64655,-9.50786,-9.32634,-5.81011,-15.2966
2023-03-15 22:18:30:824,-1.11258,1.67512,-9.54477,-9.31792,-5.80983,-15.2724
2023-03-15 22:18:30:834,-1.09915,1.66381,-9.5554,-9.31664,-5.80123,-15.2527
2023-03-15 22:18:30:844,-1.10072,1.65537,-9.5788,-9.31326,-5.79274,-15.2399
2023-03-15 22:18:30:854,-1.03829,1.67316,-9.6051,-9.31217,-5.77884,-15.2299
2023-03-15 22:18:30:864,-0.986711,1.67845,-9.60785,-9.31091,-5.76613,-15.2214
2023-03-15 22:18:30:874,-0.976113,1.64858,-9.59288,-9.30789,-5.75378,-15.2161
2023-03-15 22:18:30:884,-1.0019,1.64522,-9.60242,-9.30209,-5.7468,-15.2121
2023-03-15 22:18:30:894,-0.998126,1.67336,-9.64447,-9.30205,-5.74112,-15.2088
2023-03-15 22:18:30:904,-0.955462,1.6613,-9.67185,-9.2968,-5.73713,-15.2138
2023-03-15 22:18:30:914,-0.920976,1.6247,-9.60654,-9.28966,-5.73627,-15.2181
2023-03-15 22:18:30:924,-0.968644,1.61054,-9.54875,-9.28047,-5.7389,-15.2204
2023-03-15 22:18:30:934,-1.03515,1.64922,-9.5705,-9.27804,-5.74007,-15.2239
2023-03-15 22:18:30:944,-1.02525,1.68293,-9.64974,-9.28031,-5.7323,-15.2275
2023-03-15 22:18:30:954,-0.92068,1.63934,-9.64119,-9.26953,-5.71659,-15.2349
2023-03-15 22:18:30:964,-0.858629,1.57418,-9.57099,-9.25634,-5.70535,-15.2427
2023-03-15 22:18:30:974,-0.856014,1.58657,-9.57538,-9.25145,-5.70195,-15.2463
2023-03-15 22:18:30:984,-0.904071,1.64941,-9.62584,-9.25197,-5.70322,-15.2449
2023-03-15 22:18:30:994,-0.930653,1.68507,-9.67825,-9.25363,-5.70526,-15.2482
2023-03-15 22:18:31:4,-0.932819,1.6608,-9.6652,-9.24942,-5.70165,-15.2483
2023-03-15 22:18:31:14,-0.913312,1.5874,-9.57892,-9.23464,-5.6989,-15.2488
2023-03-15 22:18:31:24,-0.92133,1.57994,-9.53725,-9.2208,-5.69299,-15.2483
2023-03-15 22:18:31:34,-0.938726,1.62981,-9.60898,-9.20897,-5.68994,-15.2451
2023-03-15 22:18:31:44,-0.910564,1.62571,-9.65356,-9.19243,-5.67772,-15.2416
2023-03-15 22:18:31:54,-0.85528,1.55165,-9.59217,-9.1727,-5.66744,-15.2403
2023-03-15 22:18:31:64,-0.859566,1.5251,-9.5515,-9.15477,-5.6625,-15.233
2023-03-15 22:18:31:74,-0.861659,1.51985,-9.5676,-9.13998,-5.65949,-15.2204
2023-03-15 22:18:31:84,-0.886447,1.54432,-9.61494,-9.12982,-5.65654,-15.2014
2023-03-15 22:18:31:94,-0.909762,1.55665,-9.63627,-9.12537,-5.65653,-15.1828
2023-03-15 22:18:31:104,-0.933368,1.5329,-9.59557,-9.11893,-5.66084,-15.1636
2023-03-15 22:18:31:114,-0.978769,1.53157,-9.54801,-9.11124,-5.66812,-15.1384
2023-03-15 22:18:31:124,-1.01246,1.55214,-9.54014,-9.10806,-5.67518,-15.1153
2023-03-15 22:18:31:134,-1.04726,1.56367,-9.56061,-9.10698,-5.68203,-15.0917
2023-03-15 22:18:31:144,-1.06977,1.57279,-9.57219,-9.10773,-5.68556,-15.0716
2023-03-15 22:18:31:154,-1.06562,1.59177,-9.59513,-9.11349,-5.68988,-15.0532
2023-03-15 22:18:31:164,-1.06301,1.59648,-9.62984,-9.11001,-5.68858,-15.0389
2023-03-15 22:18:31:174,-1.0201,1.60502,-9.6369,-9.10867,-5.68398,-15.0294
2023-03-15 22:18:31:184,-1.00133,1.58995,-9.64765,-9.10304,-5.67979,-15.0194
2023-03-15 22:18:31:194,-0.968092,1.5841,-9.67069,-9.09684,-5.67823,-15.0094
2023-03-15 22:18:31:204,-0.982598,1.58755,-9.63826,-9.09061,-5.67473,-14.9939
2023-03-15 22:18:31:214,-1.01485,1.61819,-9.64538,-9.08174,-5.67325,-14.977
2023-03-15 22:18:31:224,-1.01111,1.59517,-9.61487,-9.07412,-5.67043,-14.9604
2023-03-15 22:18:31:234,-0.98343,1.57656,-9.6184,-9.06752,-5.66227,-14.9396
2023-03-15 22:18:31:244,-0.972716,1.55731,-9.58886,-9.05712,-5.6536,-14.9189
2023-03-15 22:18:31:254,-0.986491,1.54237,-9.56105,-9.04357,-5.64627,-14.8943
2023-03-15 22:18:31:264,-0.973769,1.53224,-9.54556,-9.03376,-5.63891,-14.8713
2023-03-15 22:18:31:274,-0.988304,1.52281,-9.56151,-9.02522,-5.62815,-14.8458
2023-03-15 22:18:31:284,-1.01539,1.5378,-9.5798,-9.01639,-5.61848,-14.8218
2023-03-15 22:18:31:294,-1.01378,1.54095,-9.58747,-9.01227,-5.61082,-14.7989
2023-03-15 22:18:31:304,-1.01602,1.55508,-9.59522,-9.01252,-5.60184,-14.7788
2023-03-15 22:18:31:314,-1.00047,1.57922,-9.60476,-9.01109,-5.59344,-14.7615
2023-03-15 22:18:31:324,-0.978215,1.5667,-9.61864,-9.0116,-5.58909,-14.7488
2023-03-15 22:18:31:334,-0.981771,1.54258,-9.60745,-9.00567,-5.58546,-14.7369
2023-03-15 22:18:31:344,-0.992657,1.51834,-9.58822,-8.99962,-5.58429,-14.7256
2023-03-15 22:18:31:354,-0.985583,1.49059,-9.58028,-8.99144,-5.58419,-14.7171
2023-03-15 22:18:31:364,-0.980785,1.47178,-9.5563,-8.98381,-5.58617,-14.7145
2023-03-15 22:18:31:374,-0.958124,1.47364,-9.54534,-8.98077,-5.58316,-14.7104
2023-03-15 22:18:31:384,-0.932047,1.47374,-9.56477,-8.97861,-5.58095,-14.7087
2023-03-15 22:18:31:394,-0.909934,1.4597,-9.58806,-8.97965,-5.57809,-14.7094
2023-03-15 22:18:31:404,-0.885926,1.43917,-9.58967,-8.9779,-5.57723,-14.7113
2023-03-15 22:18:31:414,-0.86913,1.44835,-9.62681,-8.9809,-5.57614,-14.7091
2023-03-15 22:18:31:424,-0.842603,1.49139,-9.70254,-8.9877,-5.56969,-14.7035
2023-03-15 22:18:31:434,-0.808614,1.50991,-9.74559,-8.99289,-5.5653,-14.7006
2023-03-15 22:18:31:444,-0.828329,1.49669,-9.67041,-8.9954,-5.56615,-14.6914
2023-03-15 22:18:31:454,-0.891322,1.49474,-9.60864,-8.99337,-5.5676,-14.6785
2023-03-15 22:18:31:464,-0.927617,1.50972,-9.58812,-8.99379,-5.56817,-14.6636
2023-03-15 22:18:31:474,-0.933658,1.53155,-9.61447,-9.00004,-5.56911,-14.6525
2023-03-15 22:18:31:484,-0.919687,1.56645,-9.64343,-9.00647,-5.56625,-14.6418
2023-03-15 22:18:31:494,-0.927555,1.59494,-9.64983,-9.01009,-5.5596,-14.6301
2023-03-15 22:18:31:504,-0.93903,1.60536,-9.65958,-9.005,-5.55254,-14.625
2023-03-15 22:18:31:514,-0.917765,1.58839,-9.6262,-8.99651,-5.54378,-14.6239
2023-03-15 22:18:31:524,-0.901408,1.52351,-9.56761,-8.98026,-5.5363,-14.6219
2023-03-15 22:18:31:534,-0.913611,1.46837,-9.52297,-8.96386,-5.52605,-14.6214
2023-03-15 22:18:31:544,-0.921314,1.49597,-9.53066,-8.94978,-5.51777,-14.6207
2023-03-15 22:18:31:554,-0.913967,1.46868,-9.48378,-8.9369,-5.51358,-14.6294
2023-03-15 22:18:31:564,-0.889704,1.41256,-9.38206,-8.92384,-5.50619,-14.6338
2023-03-15 22:18:31:574,-0.831227,1.41805,-9.39739,-8.92632,-5.49444,-14.6399
2023-03-15 22:18:31:584,-0.776627,1.45187,-9.53547,-8.93662,-5.48113,-14.6474
2023-03-15 22:18:31:594,-0.786076,1.55882,-9.70098,-8.96116,-5.47216,-14.6537
2023-03-15 22:18:31:604,-0.820271,1.61594,-9.77598,-8.98565,-5.46894,-14.6564
2023-03-15 22:18:31:613,-0.857761,1.57882,-9.74294,-9.0001,-5.46765,-14.6587
2023-03-15 22:18:31:623,-0.872007,1.5131,-9.63501,-9.00341,-5.46336,-14.6614
2023-03-15 22:18:31:634,-0.900363,1.4962,-9.59106,-9.00614,-5.45976,-14.6582
2023-03-15 22:18:31:644,-0.861646,1.50269,-9.61389,-9.01524,-5.45486,-14.6563
2023-03-15 22:18:31:654,-0.823041,1.51238,-9.64923,-9.02716,-5.44699,-14.656
2023-03-15 22:18:31:664,-0.849081,1.53739,-9.65867,-9.04088,-5.44413,-14.6502
2023-03-15 22:18:31:674,-0.911522,1.56637,-9.65979,-9.0536,-5.44687,-14.6469
2023-03-15 22:18:31:683,-0.958938,1.59817,-9.66091,-9.06614,-5.45002,-14.6448
2023-03-15 22:18:31:694,-0.958598,1.60545,-9.6521,-9.07402,-5.45303,-14.644
2023-03-15 22:18:31:704,-0.9449,1.59856,-9.62154,-9.07785,-5.45463,-14.6475
2023-03-15 22:18:31:714,-0.932486,1.61649,-9.66777,-9.08052,-5.45281,-14.65
2023-03-15 22:18:31:724,-0.924876,1.67435,-9.74386,-9.08717,-5.44897,-14.6539
2023-03-15 22:18:31:734,-0.920133,1.68411,-9.73528,-9.08663,-5.44978,-14.6597
2023-03-15 22:18:31:744,-0.915057,1.64655,-9.68937,-9.08212,-5.44689,-14.6656
2023-03-15 22:18:31:754,-0.907627,1.64401,-9.6655,-9.07119,-5.45207,-14.6697
2023-03-15 22:18:31:764,-0.889492,1.63334,-9.64737,-9.05752,-5.45499,-14.6719
2023-03-15 22:18:31:774,-0.88631,1.59557,-9.60801,-9.04492,-5.45133,-14.674
2023-03-15 22:18:31:784,-0.8967,1.57039,-9.59772,-9.03035,-5.45212,-14.6709
2023-03-15 22:18:31:794,-0.900781,1.57248,-9.62681,-9.02225,-5.45362,-14.6675
2023-03-15 22:18:31:804,-0.916117,1.58033,-9.62678,-9.01602,-5.45709,-14.6629
2023-03-15 22:18:31:814,-0.934803,1.58046,-9.60954,-9.00783,-5.46194,-14.655
2023-03-15 22:18:31:824,-0.925357,1.57285,-9.59888,-8.99646,-5.46753,-14.6499
2023-03-15 22:18:31:834,-0.918461,1.58307,-9.60486,-8.98793,-5.47217,-14.6444
2023-03-15 22:18:31:844,-0.92723,1.59032,-9.63126,-8.97813,-5.48174,-14.6332
2023-03-15 22:18:31:854,-0.934255,1.59448,-9.6321,-8.96872,-5.48646,-14.6249
2023-03-15 22:18:31:864,-0.944123,1.58289,-9.60597,-8.95331,-5.48778,-14.6151
2023-03-15 22:18:31:874,-0.953915,1.54751,-9.56657,-8.93464,-5.4889,-14.6098
2023-03-15 22:18:31:884,-0.985348,1.5363,-9.55312,-8.9193,-5.49447,-14.5998
2023-03-15 22:18:31:894,-0.990289,1.54352,-9.56268,-8.90889,-5.49939,-14.5921
2023-03-15 22:18:31:903,-1.00006,1.54194,-9.559,-8.89781,-5.50401,-14.5857
2023-03-15 22:18:31:914,-1.00852,1.51657,-9.52657,-8.88438,-5.50392,-14.5814
2023-03-15 22:18:31:924,-0.991513,1.48467,-9.51616,-8.87645,-5.50384,-14.5794
2023-03-15 22:18:31:934,-0.982731,1.50017,-9.54442,-8.87288,-5.50128,-14.5802
2023-03-15 22:18:31:944,-0.960301,1.52999,-9.59763,-8.87476,-5.49801,-14.588
2023-03-15 22:18:31:954,-0.952647,1.5588,-9.61538,-8.87986,-5.4994,-14.5938
2023-03-15 22:18:31:964,-0.947827,1.54952,-9.60215,-8.88392,-5.49855,-14.6024
2023-03-15 22:18:31:974,-0.939649,1.53499,-9.6059,-8.88715,-5.49806,-14.6094
2023-03-15 22:18:31:984,-0.913149,1.55472,-9.61659,-8.88933,-5.49616,-14.6204
2023-03-15 22:18:31:994,-0.905778,1.56185,-9.61686,-8.89214,-5.49427,-14.6311
2023-03-15 22:18:32:4,-0.885417,1.5406,-9.58831,-8.89455,-5.48899,-14.6393
2023-03-15 22:18:32:14,-0.883246,1.52399,-9.55953,-8.89271,-5.48431,-14.6442
2023-03-15 22:18:32:24,-0.898757,1.54479,-9.5942,-8.89495,-5.47572,-14.6414
2023-03-15 22:18:32:34,-0.898692,1.58339,-9.65153,-8.90115,-5.46865,-14.6405
2023-03-15 22:18:32:44,-0.918447,1.60768,-9.68237,-8.90519,-5.46018,-14.6425
2023-03-15 22:18:32:54,-0.943324,1.58394,-9.64019,-8.90809,-5.45243,-14.6448
2023-03-15 22:18:32:64,-0.941128,1.543,-9.60552,-8.90359,-5.44772,-14.6485
2023-03-15 22:18:32:74,-0.954564,1.52864,-9.60693,-8.89386,-5.44178,-14.6495
2023-03-15 22:18:32:84,-0.947616,1.51842,-9.6115,-8.89144,-5.43066,-14.6529
2023-03-15 22:18:32:94,-0.931311,1.50333,-9.60518,-8.88632,-5.42268,-14.654
2023-03-15 22:18:32:104,-0.930854,1.48201,-9.58276,-8.88131,-5.4137,-14.6609
2023-03-15 22:18:32:114,-0.922636,1.47325,-9.54531,-8.87773,-5.40695,-14.6664
2023-03-15 22:18:32:124,-0.908842,1.4591,-9.55147,-8.87868,-5.40088,-14.6737
2023-03-15 22:18:32:134,-0.898884,1.47859,-9.59201,-8.88496,-5.39345,-14.6798
2023-03-15 22:18:32:144,-0.834606,1.47056,-9.62842,-8.89226,-5.38642,-14.6896
2023-03-15 22:18:32:154,-0.804389,1.46482,-9.64745,-8.90051,-5.38039,-14.6969
2023-03-15 22:18:32:164,-0.823712,1.53404,-9.72372,-8.91301,-5.38252,-14.7017
2023-03-15 22:18:32:174,-0.823601,1.59745,-9.82946,-8.92418,-5.38214,-14.7049
2023-03-15 22:18:32:184,-0.766675,1.49015,-9.6599,-8.92047,-5.38729,-14.7108
2023-03-15 22:18:32:194,-0.851981,1.47776,-9.55743,-8.91845,-5.39648,-14.7062
2023-03-15 22:18:32:204,-0.958638,1.50167,-9.53891,-8.92382,-5.40736,-14.696
2023-03-15 22:18:32:214,-0.980422,1.52805,-9.53621,-8.93064,-5.41275,-14.6932
2023-03-15 22:18:32:224,-0.954669,1.5438,-9.55434,-8.94379,-5.40885,-14.6874
2023-03-15 22:18:32:234,-0.981223,1.56079,-9.57395,-8.95464,-5.40061,-14.6775
2023-03-15 22:18:32:244,-0.98025,1.55984,-9.55252,-8.96559,-5.39181,-14.6727
2023-03-15 22:18:32:254,-0.941802,1.58907,-9.61459,-8.98201,-5.3791,-14.6719
2023-03-15 22:18:32:264,-0.911591,1.62751,-9.68414,-8.99542,-5.36459,-14.6744
2023-03-15 22:18:32:274,-0.91841,1.62293,-9.67463,-9.00377,-5.35051,-14.6787
2023-03-15 22:18:32:284,-0.914306,1.59294,-9.62372,-9.00543,-5.33777,-14.6855
2023-03-15 22:18:32:294,-0.887708,1.55664,-9.59144,-9.00275,-5.32903,-14.6934
2023-03-15 22:18:32:304,-0.833819,1.49569,-9.56661,-9.0012,-5.32621,-14.7013
2023-03-15 22:18:32:314,-0.829339,1.46914,-9.56945,-9.0007,-5.32817,-14.7079
2023-03-15 22:18:32:324,-0.857063,1.50292,-9.60447,-9.00981,-5.33731,-14.7099
2023-03-15 22:18:32:333,-0.874182,1.55721,-9.65382,-9.02422,-5.34506,-14.711
2023-03-15 22:18:32:344,-0.872814,1.55407,-9.63435,-9.03481,-5.34957,-14.7135
2023-03-15 22:18:32:354,-0.901172,1.53104,-9.58435,-9.04253,-5.35454,-14.7107
2023-03-15 22:18:32:364,-0.94987,1.5389,-9.56091,-9.05794,-5.35884,-14.7073
2023-03-15 22:18:32:374,-0.962733,1.57406,-9.57434,-9.07264,-5.35616,-14.7045
2023-03-15 22:18:32:384,-0.899486,1.59613,-9.60628,-9.08764,-5.34837,-14.7047
2023-03-15 22:18:32:394,-0.864078,1.59222,-9.6059,-9.09889,-5.33618,-14.7079
2023-03-15 22:18:32:404,-0.900597,1.59711,-9.61422,-9.10788,-5.32776,-14.7022
2023-03-15 22:18:32:414,-0.928271,1.63467,-9.63782,-9.11876,-5.31693,-14.7011
2023-03-15 22:18:32:424,-0.9286,1.66724,-9.67685,-9.12987,-5.30516,-14.702
2023-03-15 22:18:32:434,-0.922194,1.70439,-9.72539,-9.13708,-5.29227,-14.7076
2023-03-15 22:18:32:444,-0.902939,1.67814,-9.71053,-9.13853,-5.27341,-14.7162
2023-03-15 22:18:32:454,-0.880109,1.67991,-9.68927,-9.13925,-5.25842,-14.7251
2023-03-15 22:18:32:464,-0.858385,1.66389,-9.65809,-9.1382,-5.24475,-14.7376
2023-03-15 22:18:32:474,-0.851702,1.64463,-9.63964,-9.13287,-5.23296,-14.7465
2023-03-15 22:18:32:484,-0.810061,1.62915,-9.63334,-9.12837,-5.22449,-14.7558
2023-03-15 22:18:32:494,-0.784242,1.64077,-9.65631,-9.12425,-5.21376,-14.7646
2023-03-15 22:18:32:504,-0.775649,1.64003,-9.6586,-9.11815,-5.20331,-14.7705
2023-03-15 22:18:32:514,-0.758006,1.62604,-9.63453,-9.10945,-5.1965,-14.7745
2023-03-15 22:18:32:524,-0.752008,1.57577,-9.59327,-9.09945,-5.19386,-14.7754
2023-03-15 22:18:32:534,-0.774727,1.55484,-9.5616,-9.08681,-5.18907,-14.7694
2023-03-15 22:18:32:544,-0.807835,1.52477,-9.55096,-9.07454,-5.19044,-14.7633
2023-03-15 22:18:32:554,-0.826161,1.5588,-9.58551,-9.0671,-5.1885,-14.7515
2023-03-15 22:18:32:564,-0.812407,1.54847,-9.59517,-9.06062,-5.18443,-14.7388
2023-03-15 22:18:32:574,-0.808868,1.50606,-9.54315,-9.05536,-5.18564,-14.7251
2023-03-15 22:18:32:584,-0.83846,1.50752,-9.53002,-9.05581,-5.18987,-14.7125
2023-03-15 22:18:32:594,-0.867993,1.55739,-9.61039,-9.06023,-5.19513,-14.6981
2023-03-15 22:18:32:604,-0.887628,1.59371,-9.68015,-9.07003,-5.20261,-14.6874
2023-03-15 22:18:32:614,-0.899779,1.60049,-9.66441,-9.0769,-5.20526,-14.6816
2023-03-15 22:18:32:624,-0.882634,1.54334,-9.6126,-9.07158,-5.20844,-14.6761
2023-03-15 22:18:32:634,-0.886595,1.51654,-9.58296,-9.06895,-5.21301,-14.6691
2023-03-15 22:18:32:644,-0.896543,1.56133,-9.60719,-9.07125,-5.2151,-14.6606
2023-03-15 22:18:32:654,-0.893318,1.58989,-9.63666,-9.07577,-5.21746,-14.6519
2023-03-15 22:18:32:664,-0.861035,1.59679,-9.63696,-9.0773,-5.21613,-14.6493
2023-03-15 22:18:32:673,-0.843085,1.59674,-9.62472,-9.08024,-5.2198,-14.643
2023-03-15 22:18:32:683,-0.854673,1.59011,-9.61945,-9.08125,-5.22152,-14.6363
2023-03-15 22:18:32:693,-0.86458,1.6088,-9.62812,-9.08064,-5.22334,-14.6275
2023-03-15 22:18:32:703,-0.869015,1.62653,-9.64716,-9.08347,-5.22363,-14.6176
2023-03-15 22:18:32:713,-0.847303,1.58985,-9.62359,-9.08507,-5.22788,-14.608
2023-03-15 22:18:32:724,-0.847186,1.57439,-9.61053,-9.08411,-5.23028,-14.5976
2023-03-15 22:18:32:734,-0.868104,1.5639,-9.59816,-9.08289,-5.23915,-14.5878
2023-03-15 22:18:32:744,-0.892799,1.54936,-9.61074,-9.08375,-5.2516,-14.5776
2023-03-15 22:18:32:753,-0.902786,1.5532,-9.63143,-9.08409,-5.26451,-14.5672
2023-03-15 22:18:32:763,-0.919926,1.56044,-9.63754,-9.08013,-5.27699,-14.558
2023-03-15 22:18:32:773,-0.921657,1.53065,-9.59176,-9.07329,-5.28901,-14.5495
2023-03-15 22:18:32:783,-0.918971,1.48907,-9.55765,-9.06687,-5.29883,-14.5423
2023-03-15 22:18:32:794,-0.923102,1.47113,-9.56563,-9.05882,-5.30461,-14.5312
2023-03-15 22:18:32:804,-0.931234,1.49361,-9.59123,-9.05596,-5.30829,-14.5193
2023-03-15 22:18:32:814,-0.935981,1.519,-9.61427,-9.05568,-5.3087,-14.5083
2023-03-15 22:18:32:824,-0.93942,1.52959,-9.61413,-9.05233,-5.30774,-14.4988
2023-03-15 22:18:32:834,-0.924917,1.52028,-9.59532,-9.04723,-5.30378,-14.4899
2023-03-15 22:18:32:843,-0.924065,1.50228,-9.54963,-9.04331,-5.29748,-14.4793
2023-03-15 22:18:32:853,-0.936373,1.4859,-9.53132,-9.0409,-5.28951,-14.4656
2023-03-15 22:18:32:863,-0.931115,1.49151,-9.51128,-9.03899,-5.27957,-14.4509
2023-03-15 22:18:32:874,-0.917168,1.48018,-9.49417,-9.03991,-5.26739,-14.4399
2023-03-15 22:18:32:884,-0.898951,1.49352,-9.53191,-9.04839,-5.25543,-14.4313
2023-03-15 22:18:32:894,-0.885084,1.54063,-9.63025,-9.06128,-5.24211,-14.4228
2023-03-15 22:18:32:903,-0.864551,1.57902,-9.71506,-9.07837,-5.23298,-14.4184
2023-03-15 22:18:32:914,-0.828873,1.56215,-9.7121,-9.09164,-5.22416,-14.4161
2023-03-15 22:18:32:923,-0.83907,1.50421,-9.61602,-9.09655,-5.22461,-14.4091
2023-03-15 22:18:32:934,-0.884428,1.49092,-9.57279,-9.10691,-5.22535,-14.4023
2023-03-15 22:18:32:943,-0.888614,1.47603,-9.50854,-9.12113,-5.22614,-14.3938
2023-03-15 22:18:32:954,-0.885797,1.48872,-9.46448,-9.14346,-5.22359,-14.3863
2023-03-15 22:18:32:964,-0.864908,1.52475,-9.5027,-9.17593,-5.21283,-14.376
2023-03-15 22:18:32:974,-0.846518,1.55715,-9.53412,-9.2132,-5.20747,-14.3692
2023-03-15 22:18:32:984,-0.858094,1.6227,-9.59813,-9.25405,-5.19734,-14.3622
2023-03-15 22:18:32:994,-0.871471,1.6863,-9.64595,-9.29976,-5.18685,-14.3512
2023-03-15 22:18:33:4,-0.873603,1.70005,-9.65126,-9.33668,-5.1761,-14.3421
2023-03-15 22:18:33:14,-0.873927,1.71232,-9.64126,-9.36733,-5.16381,-14.3357
2023-03-15 22:18:33:23,-0.879507,1.6835,-9.61443,-9.39166,-5.15461,-14.3328
2023-03-15 22:18:33:33,-0.864575,1.63703,-9.57005,-9.41,-5.14136,-14.3308
2023-03-15 22:18:33:43,-0.818695,1.59506,-9.5467,-9.42768,-5.13044,-14.3253
2023-03-15 22:18:33:53,-0.803398,1.58781,-9.58245,-9.45235,-5.1186,-14.3152
2023-03-15 22:18:33:63,-0.828537,1.65653,-9.67342,-9.48476,-5.11268,-14.3073
2023-03-15 22:18:33:73,-0.845524,1.74521,-9.76418,-9.52137,-5.10757,-14.3015
2023-03-15 22:18:33:83,-0.824654,1.78977,-9.79782,-9.5524,-5.10899,-14.3016
2023-03-15 22:18:33:94,-0.825678,1.75277,-9.75047,-9.5652,-5.11184,-14.3039
2023-03-15 22:18:33:103,-0.834717,1.7048,-9.63076,-9.57073,-5.11197,-14.3002
2023-03-15 22:18:33:114,-0.836553,1.66668,-9.57284,-9.57746,-5.10791,-14.3032
2023-03-15 22:18:33:123,-0.792308,1.66299,-9.57539,-9.58598,-5.10123,-14.3012
2023-03-15 22:18:33:133,-0.722021,1.64997,-9.55366,-9.59704,-5.09588,-14.3021
2023-03-15 22:18:33:143,-0.683809,1.60128,-9.50602,-9.61227,-5.09285,-14.2942
2023-03-15 22:18:33:153,-0.715252,1.57281,-9.49694,-9.6316,-5.0968,-14.2791
2023-03-15 22:18:33:163,-0.773736,1.61502,-9.5398,-9.65692,-5.10574,-14.2603
2023-03-15 22:18:33:173,-0.808572,1.69754,-9.64714,-9.68907,-5.11611,-14.2429
2023-03-15 22:18:33:183,-0.819188,1.75333,-9.71962,-9.71857,-5.12596,-14.228
2023-03-15 22:18:33:193,-0.824059,1.74554,-9.72229,-9.74408,-5.13662,-14.2137
2023-03-15 22:18:33:203,-0.850927,1.7444,-9.71259,-9.76107,-5.15508,-14.199
2023-03-15 22:18:33:214,-0.867821,1.72368,-9.65371,-9.77213,-5.17053,-14.1807
2023-03-15 22:18:33:223,-0.897846,1.68536,-9.57019,-9.77967,-5.18041,-14.1618
2023-03-15 22:18:33:234,-0.873854,1.63218,-9.50151,-9.78654,-5.18995,-14.1445
2023-03-15 22:18:33:243,-0.845163,1.60532,-9.47279,-9.79486,-5.19756,-14.1236
2023-03-15 22:18:33:253,-0.838102,1.63803,-9.52448,-9.81091,-5.20604,-14.098
2023-03-15 22:18:33:263,-0.850096,1.7167,-9.63439,-9.83433,-5.2115,-14.0751
2023-03-15 22:18:33:273,-0.870693,1.78607,-9.73004,-9.85455,-5.21855,-14.0524
2023-03-15 22:18:33:283,-0.868432,1.81252,-9.77194,-9.8695,-5.22987,-14.0336
2023-03-15 22:18:33:293,-0.857936,1.79491,-9.74754,-9.87608,-5.24129,-14.013
2023-03-15 22:18:33:303,-0.859457,1.76364,-9.68593,-9.87096,-5.25286,-13.9899
2023-03-15 22:18:33:313,-0.867409,1.72423,-9.63039,-9.86693,-5.26073,-13.9614
2023-03-15 22:18:33:323,-0.898449,1.69673,-9.58748,-9.85904,-5.27277,-13.93
2023-03-15 22:18:33:333,-0.932545,1.71422,-9.59403,-9.85259,-5.28707,-13.8975
2023-03-15 22:18:33:343,-0.959682,1.73876,-9.63258,-9.85297,-5.30212,-13.8675
2023-03-15 22:18:33:353,-0.967862,1.74555,-9.63439,-9.84914,-5.31896,-13.8412
2023-03-15 22:18:33:363,-0.98038,1.7601,-9.64018,-9.84736,-5.33508,-13.8158
2023-03-15 22:18:33:373,-0.984571,1.74065,-9.63582,-9.84103,-5.35124,-13.7911
2023-03-15 22:18:33:383,-0.973315,1.7438,-9.634,-9.8288,-5.3635,-13.7702
2023-03-15 22:18:33:393,-0.975899,1.73837,-9.64012,-9.81741,-5.37214,-13.7482
2023-03-15 22:18:33:403,-0.973979,1.73119,-9.64668,-9.801,-5.38051,-13.7288
2023-03-15 22:18:33:413,-0.971368,1.71938,-9.62968,-9.7831,-5.38713,-13.7123
2023-03-15 22:18:33:423,-0.960526,1.70493,-9.61187,-9.76348,-5.3884,-13.7
2023-03-15 22:18:33:433,-0.946129,1.69074,-9.613,-9.73929,-5.38755,-13.6896
2023-03-15 22:18:33:443,-0.943848,1.69448,-9.61629,-9.71323,-5.38685,-13.6794
2023-03-15 22:18:33:453,-0.943273,1.68458,-9.61178,-9.68759,-5.38886,-13.6711
2023-03-15 22:18:33:463,-0.92953,1.66159,-9.57853,-9.65976,-5.39136,-13.6619
2023-03-15 22:18:33:473,-0.904367,1.64329,-9.55185,-9.63431,-5.39683,-13.6567
2023-03-15 22:18:33:483,-0.905663,1.63294,-9.57288,-9.60783,-5.40018,-13.6528
2023-03-15 22:18:33:493,-0.893396,1.63597,-9.59656,-9.58156,-5.405,-13.6493
2023-03-15 22:18:33:503,-0.894751,1.64638,-9.60796,-9.55507,-5.40729,-13.6431
2023-03-15 22:18:33:513,-0.881913,1.63499,-9.58929,-9.52683,-5.41087,-13.6359
2023-03-15 22:18:33:523,-0.881853,1.60458,-9.54133,-9.50192,-5.41715,-13.6281
2023-03-15 22:18:33:533,-0.869457,1.56829,-9.527,-9.477,-5.42546,-13.6168
2023-03-15 22:18:33:543,-0.888684,1.5656,-9.56274,-9.45816,-5.44083,-13.6082
2023-03-15 22:18:33:553,-0.924807,1.5763,-9.58789,-9.44321,-5.45591,-13.5967
2023-03-15 22:18:33:563,-0.930024,1.56687,-9.58374,-9.42972,-5.47323,-13.5862
2023-03-15 22:18:33:573,-0.914315,1.54529,-9.5652,-9.41162,-5.48892,-13.5775
2023-03-15 22:18:33:583,-0.918134,1.53009,-9.55137,-9.39957,-5.50762,-13.5685
2023-03-15 22:18:33:593,-0.940877,1.54955,-9.54255,-9.38714,-5.52386,-13.5551
2023-03-15 22:18:33:603,-0.941039,1.55486,-9.5498,-9.37736,-5.53813,-13.544
2023-03-15 22:18:33:613,-0.914636,1.54455,-9.57746,-9.36766,-5.54307,-13.5325
2023-03-15 22:18:33:623,-0.881102,1.49471,-9.5646,-9.35638,-5.54681,-13.5227
2023-03-15 22:18:33:633,-0.88202,1.50379,-9.58428,-9.3491,-5.55048,-13.511
2023-03-15 22:18:33:643,-0.843697,1.55183,-9.63581,-9.34557,-5.55167,-13.4962
2023-03-15 22:18:33:653,-0.833471,1.57459,-9.62684,-9.34052,-5.55101,-13.483
2023-03-15 22:18:33:663,-0.867114,1.5711,-9.58931,-9.33746,-5.54948,-13.4679
2023-03-15 22:18:33:673,-0.902811,1.57908,-9.58061,-9.33223,-5.55166,-13.4466
2023-03-15 22:18:33:683,-0.928648,1.60987,-9.55746,-9.33543,-5.55377,-13.4257
2023-03-15 22:18:33:693,-0.952167,1.64779,-9.58734,-9.34663,-5.55143,-13.4065
2023-03-15 22:18:33:703,-0.936889,1.69998,-9.62023,-9.35651,-5.5487,-13.3878
2023-03-15 22:18:33:713,-0.93906,1.72562,-9.64265,-9.36309,-5.54641,-13.3787
2023-03-15 22:18:33:723,-0.949043,1.73165,-9.66083,-9.36486,-5.53986,-13.3695
2023-03-15 22:18:33:733,-0.946149,1.67438,-9.63242,-9.35893,-5.53873,-13.3598
2023-03-15 22:18:33:743,-0.952335,1.63505,-9.57754,-9.35035,-5.54153,-13.3522
2023-03-15 22:18:33:753,-0.972757,1.61617,-9.56002,-9.33724,-5.54996,-13.3455
2023-03-15 22:18:33:763,-0.978965,1.60332,-9.57305,-9.33136,-5.55891,-13.3439
2023-03-15 22:18:33:773,-0.954114,1.59228,-9.57121,-9.32152,-5.56829,-13.3411
2023-03-15 22:18:33:783,-0.940362,1.57108,-9.56728,-9.31469,-5.57685,-13.3397
2023-03-15 22:18:33:793,-0.967215,1.55993,-9.58731,-9.30808,-5.58422,-13.3362
2023-03-15 22:18:33:803,-0.990608,1.57711,-9.60355,-9.30403,-5.5928,-13.3308
2023-03-15 22:18:33:813,-0.989556,1.58639,-9.59476,-9.30361,-5.60017,-13.3281
2023-03-15 22:18:33:823,-1.01628,1.60259,-9.57224,-9.30246,-5.61316,-13.3251
2023-03-15 22:18:33:833,-1.0726,1.64389,-9.61828,-9.30795,-5.61645,-13.3245
2023-03-15 22:18:33:843,-1.06716,1.66604,-9.66829,-9.30686,-5.60882,-13.3272
2023-03-15 22:18:33:853,-0.988081,1.60771,-9.60568,-9.29818,-5.59822,-13.3312
2023-03-15 22:18:33:863,-0.903234,1.56407,-9.51115,-9.28832,-5.59014,-13.3333
2023-03-15 22:18:33:873,-0.927148,1.577,-9.51592,-9.29117,-5.58581,-13.332
2023-03-15 22:18:33:883,-0.975569,1.60948,-9.56483,-9.30062,-5.58718,-13.3286
2023-03-15 22:18:33:893,-1.00789,1.64174,-9.58998,-9.31203,-5.59312,-13.3252
2023-03-15 22:18:33:903,-0.993434,1.64873,-9.59893,-9.32118,-5.59756,-13.3273
2023-03-15 22:18:33:913,-0.967817,1.64667,-9.61737,-9.32802,-5.59689,-13.3315
2023-03-15 22:18:33:923,-0.944782,1.63566,-9.63313,-9.33318,-5.59542,-13.3391
2023-03-15 22:18:33:933,-0.928869,1.63089,-9.65989,-9.3352,-5.59672,-13.3481
2023-03-15 22:18:33:943,-0.931242,1.64849,-9.69469,-9.33521,-5.59687,-13.3538
2023-03-15 22:18:33:953,-0.94727,1.66817,-9.71467,-9.33288,-5.59418,-13.364
2023-03-15 22:18:33:963,-0.921063,1.64399,-9.69214,-9.3222,-5.58816,-13.3709
2023-03-15 22:18:33:973,-0.890643,1.56259,-9.58323,-9.30188,-5.5842,-13.3801
2023-03-15 22:18:33:983,-0.88185,1.53562,-9.53676,-9.28104,-5.58195,-13.3865
2023-03-15 22:18:33:993,-0.876231,1.56116,-9.56104,-9.27217,-5.57671,-13.3862
2023-03-15 22:18:34:3,-0.874729,1.57107,-9.556,-9.26277,-5.5719,-13.3894
2023-03-15 22:18:34:13,-0.856608,1.55489,-9.55489,-9.25464,-5.56829,-13.3884
2023-03-15 22:18:34:23,-0.846179,1.55284,-9.5713,-9.2477,-5.56635,-13.3846
2023-03-15 22:18:34:33,-0.86123,1.57498,-9.58968,-9.2461,-5.56096,-13.3751
2023-03-15 22:18:34:43,-0.887723,1.59712,-9.61832,-9.24562,-5.55588,-13.3668
2023-03-15 22:18:34:53,-0.921555,1.6176,-9.64153,-9.24731,-5.55128,-13.3576
2023-03-15 22:18:34:63,-0.925572,1.63487,-9.63743,-9.24531,-5.54835,-13.3474
2023-03-15 22:18:34:73,-0.91759,1.6286,-9.64032,-9.24282,-5.54996,-13.3384
2023-03-15 22:18:34:83,-0.936745,1.61923,-9.63845,-9.23865,-5.54905,-13.327
2023-03-15 22:18:34:93,-0.945567,1.62022,-9.62359,-9.23254,-5.55295,-13.3166
2023-03-15 22:18:34:103,-0.956255,1.62225,-9.59866,-9.2287,-5.5539,-13.3089
2023-03-15 22:18:34:113,-0.969837,1.60668,-9.59917,-9.22228,-5.55323,-13.3046
2023-03-15 22:18:34:123,-0.961171,1.60448,-9.60436,-9.21653,-5.55485,-13.2959
2023-03-15 22:18:34:133,-0.954399,1.58627,-9.59599,-9.21041,-5.55438,-13.2918
2023-03-15 22:18:34:143,-0.950694,1.58258,-9.59771,-9.20603,-5.55336,-13.2878
2023-03-15 22:18:34:153,-0.954075,1.58741,-9.59461,-9.20393,-5.54925,-13.2838
2023-03-15 22:18:34:163,-0.936906,1.5898,-9.57622,-9.19983,-5.54463,-13.2827
2023-03-15 22:18:34:173,-0.921792,1.5652,-9.58608,-9.19606,-5.54007,-13.2809
2023-03-15 22:18:34:183,-0.915193,1.57125,-9.60257,-9.19496,-5.53787,-13.2779
2023-03-15 22:18:34:193,-0.912005,1.59767,-9.61701,-9.19281,-5.53693,-13.279
2023-03-15 22:18:34:203,-0.886673,1.59897,-9.60593,-9.18562,-5.53501,-13.2808
2023-03-15 22:18:34:213,-0.880229,1.58052,-9.60914,-9.17765,-5.53145,-13.2826
2023-03-15 22:18:34:223,-0.878188,1.58094,-9.6159,-9.17411,-5.53215,-13.2806
2023-03-15 22:18:34:233,-0.882771,1.59666,-9.63492,-9.17122,-5.52671,-13.2765
2023-03-15 22:18:34:243,-0.884446,1.60225,-9.62853,-9.16457,-5.52613,-13.2709
2023-03-15 22:18:34:253,-0.879897,1.59593,-9.61637,-9.15926,-5.52593,-13.2706
2023-03-15 22:18:34:263,-0.900663,1.59785,-9.6061,-9.15389,-5.52545,-13.2662
2023-03-15 22:18:34:273,-0.908969,1.58684,-9.61838,-9.15011,-5.52383,-13.2609
2023-03-15 22:18:34:283,-0.930551,1.57745,-9.60828,-9.14205,-5.52155,-13.2551
2023-03-15 22:18:34:293,-0.92977,1.56553,-9.59922,-9.13611,-5.51589,-13.2505
2023-03-15 22:18:34:303,-0.922163,1.56647,-9.6137,-9.12701,-5.51402,-13.2449
2023-03-15 22:18:34:313,-0.933429,1.57894,-9.64854,-9.12272,-5.51081,-13.241
2023-03-15 22:18:34:323,-0.922548,1.59375,-9.63275,-9.12001,-5.51353,-13.2395
2023-03-15 22:18:34:333,-0.902809,1.55154,-9.58729,-9.10924,-5.51363,-13.2407
2023-03-15 22:18:34:343,-0.91326,1.51606,-9.55049,-9.09735,-5.51246,-13.2366
2023-03-15 22:18:34:353,-0.897886,1.51953,-9.57931,-9.09148,-5.51218,-13.2317
2023-03-15 22:18:34:363,-0.882653,1.56327,-9.63561,-9.08572,-5.5063,-13.2247
2023-03-15 22:18:34:373,-0.838861,1.55787,-9.6629,-9.0805,-5.50218,-13.2172
2023-03-15 22:18:34:383,-0.806969,1.5026,-9.63803,-9.07013,-5.50521,-13.2119
2023-03-15 22:18:34:393,-0.822445,1.47281,-9.59147,-9.06146,-5.50927,-13.1984
2023-03-15 22:18:34:403,-0.87747,1.47349,-9.59374,-9.05655,-5.51526,-13.1789
2023-03-15 22:18:34:413,-0.903967,1.51209,-9.58708,-9.05863,-5.52576,-13.1584
2023-03-15 22:18:34:423,-0.916095,1.55308,-9.60469,-9.0677,-5.5331,-13.1399
2023-03-15 22:18:34:433,-0.920345,1.58648,-9.61853,-9.07687,-5.53797,-13.1275
2023-03-15 22:18:34:443,-0.94089,1.63183,-9.66204,-9.08615,-5.54157,-13.1095
2023-03-15 22:18:34:453,-0.961839,1.67524,-9.70708,-9.09258,-5.542,-13.0954
2023-03-15 22:18:34:463,-0.969603,1.64682,-9.66019,-9.09213,-5.5431,-13.089
2023-03-15 22:18:34:473,-0.985546,1.58375,-9.57328,-9.08429,-5.54729,-13.0805
2023-03-15 22:18:34:483,-1.00769,1.54218,-9.52504,-9.0739,-5.54829,-13.0741
2023-03-15 22:18:34:493,-1.00812,1.51563,-9.48627,-9.06564,-5.54739,-13.0713
2023-03-15 22:18:34:503,-0.989846,1.45453,-9.45849,-9.05704,-5.54583,-13.07
2023-03-15 22:18:34:513,-0.972414,1.44457,-9.52411,-9.05097,-5.54567,-13.0724
2023-03-15 22:18:34:523,-0.938319,1.52834,-9.61927,-9.06052,-5.54362,-13.0743
2023-03-15 22:18:34:533,-0.921256,1.53418,-9.60089,-9.06454,-5.54547,-13.0789
2023-03-15 22:18:34:543,-0.927356,1.49392,-9.45804,-9.06269,-5.54856,-13.0842
2023-03-15 22:18:34:553,-0.893407,1.4893,-9.39515,-9.06639,-5.54405,-13.0884
2023-03-15 22:18:34:563,-0.881191,1.52444,-9.45372,-9.08522,-5.54349,-13.0875
2023-03-15 22:18:34:573,-0.899327,1.61162,-9.59323,-9.1161,-5.53372,-13.0833
2023-03-15 22:18:34:583,-0.938653,1.71011,-9.74029,-9.1497,-5.52743,-13.0819
2023-03-15 22:18:34:593,-0.939594,1.72958,-9.75312,-9.17441,-5.5198,-13.0827
2023-03-15 22:18:34:603,-0.912637,1.66163,-9.67702,-9.18748,-5.5139,-13.084
2023-03-15 22:18:34:613,-0.911621,1.62751,-9.60089,-9.19374,-5.5084,-13.0802
2023-03-15 22:18:34:623,-0.947478,1.63929,-9.58881,-9.20409,-5.50314,-13.0766
2023-03-15 22:18:34:633,-0.984539,1.66456,-9.62036,-9.21441,-5.50028,-13.0737
2023-03-15 22:18:34:643,-0.980082,1.67556,-9.6497,-9.2234,-5.49702,-13.0752
2023-03-15 22:18:34:653,-0.972813,1.67929,-9.67577,-9.22714,-5.49029,-13.079
2023-03-15 22:18:34:663,-0.958061,1.68191,-9.68997,-9.23378,-5.48391,-13.0833
2023-03-15 22:18:34:673,-0.946601,1.68662,-9.7143,-9.24179,-5.47902,-13.0898
2023-03-15 22:18:34:683,-0.908532,1.69013,-9.71886,-9.24067,-5.47379,-13.0969
2023-03-15 22:18:34:693,-0.87434,1.71523,-9.77233,-9.24437,-5.46798,-13.106
2023-03-15 22:18:34:703,-0.850422,1.76431,-9.80286,-9.2445,-5.46452,-13.1135
2023-03-15 22:18:34:713,-0.851261,1.73436,-9.75644,-9.23175,-5.46315,-13.1208
2023-03-15 22:18:34:723,-0.837044,1.70147,-9.67705,-9.21299,-5.46519,-13.1284
2023-03-15 22:18:34:733,-0.811845,1.68175,-9.65701,-9.19241,-5.46762,-13.1308
2023-03-15 22:18:34:743,-0.79202,1.66841,-9.65236,-9.1691,-5.47328,-13.1288
2023-03-15 22:18:34:753,-0.787754,1.5647,-9.60733,-9.13924,-5.47797,-13.12
2023-03-15 22:18:34:763,-0.810522,1.50096,-9.58672,-9.11095,-5.47713,-13.1014
2023-03-15 22:18:34:773,-0.862595,1.51929,-9.5866,-9.08196,-5.47982,-13.0759
2023-03-15 22:18:34:783,-0.904022,1.4959,-9.51959,-9.05514,-5.48776,-13.0498
2023-03-15 22:18:34:793,-0.922796,1.41975,-9.40312,-9.02594,-5.50028,-13.0273
2023-03-15 22:18:34:803,-0.930518,1.39251,-9.33928,-9.00641,-5.50904,-13.0022
2023-03-15 22:18:34:813,-0.941033,1.44653,-9.43292,-9.00287,-5.5151,-12.9779
2023-03-15 22:18:34:823,-0.986961,1.53963,-9.55181,-9.01478,-5.52188,-12.9578
2023-03-15 22:18:34:833,-1.03358,1.57439,-9.58437,-9.02687,-5.53275,-12.9459
2023-03-15 22:18:34:843,-0.981471,1.56019,-9.62996,-9.03804,-5.54214,-12.9356
2023-03-15 22:18:34:853,-0.922734,1.59667,-9.72611,-9.04903,-5.54431,-12.9272
2023-03-15 22:18:34:863,-0.939725,1.61565,-9.77918,-9.0581,-5.54703,-12.9176
2023-03-15 22:18:34:873,-0.951563,1.54064,-9.70289,-9.04863,-5.54927,-12.9087
2023-03-15 22:18:34:882,-0.956211,1.42213,-9.54934,-9.02842,-5.55008,-12.896
2023-03-15 22:18:34:893,-0.977057,1.35626,-9.42008,-9.00889,-5.55232,-12.8847
2023-03-15 22:18:34:903,-1.00402,1.36191,-9.33073,-9.00335,-5.5536,-12.8686
2023-03-15 22:18:34:913,-1.00764,1.35758,-9.28993,-9.00618,-5.54909,-12.8573
2023-03-15 22:18:34:923,-0.978474,1.414,-9.35592,-9.02646,-5.54165,-12.8524
2023-03-15 22:18:34:933,-0.94657,1.52088,-9.53225,-9.06505,-5.53407,-12.8522
2023-03-15 22:18:34:943,-0.93461,1.65409,-9.80589,-9.11514,-5.52558,-12.8551
2023-03-15 22:18:34:953,-0.948346,1.81236,-10.0523,-9.15824,-5.52199,-12.8617
2023-03-15 22:18:34:963,-0.951378,1.84576,-10.0865,-9.18315,-5.52212,-12.8752
2023-03-15 22:18:34:973,-0.916149,1.66836,-9.85322,-9.17169,-5.52251,-12.8903
2023-03-15 22:18:34:983,-0.857676,1.4916,-9.59742,-9.14363,-5.51765,-12.8968
2023-03-15 22:18:34:993,-0.838637,1.43154,-9.45424,-9.11516,-5.50997,-12.8954
2023-03-15 22:18:35:3,-0.862402,1.43927,-9.37636,-9.09916,-5.50436,-12.8909
2023-03-15 22:18:35:13,-0.890651,1.38376,-9.3056,-9.09409,-5.49655,-12.8796
2023-03-15 22:18:35:23,-0.881618,1.3887,-9.34199,-9.10668,-5.48494,-12.8659
2023-03-15 22:18:35:33,-0.865702,1.56381,-9.57782,-9.13898,-5.47449,-12.8539
2023-03-15 22:18:35:43,-0.885533,1.68648,-9.72163,-9.17889,-5.46348,-12.8472
2023-03-15 22:18:35:53,-0.918603,1.57675,-9.717,-9.20062,-5.45813,-12.8399
2023-03-15 22:18:35:63,-0.938333,1.59481,-9.81525,-9.22504,-5.45747,-12.8312
2023-03-15 22:18:35:73,-0.921453,1.73995,-9.97838,-9.25226,-5.45683,-12.8259
2023-03-15 22:18:35:83,-0.945116,1.76423,-9.91617,-9.25895,-5.45989,-12.8243
2023-03-15 22:18:35:93,-0.93726,1.57564,-9.61957,-9.23498,-5.46443,-12.8278
2023-03-15 22:18:35:103,-0.908833,1.42694,-9.4336,-9.20593,-5.46831,-12.826
2023-03-15 22:18:35:113,-0.851957,1.43335,-9.42612,-9.19201,-5.46605,-12.8193
2023-03-15 22:18:35:123,-0.81036,1.41885,-9.49051,-9.18303,-5.46224,-12.8123
2023-03-15 22:18:35:133,-0.827817,1.48707,-9.52143,-9.18886,-5.46178,-12.8031
2023-03-15 22:18:35:143,-0.833519,1.48298,-9.45796,-9.19538,-5.45785,-12.7957
2023-03-15 22:18:35:153,-0.856775,1.43715,-9.44361,-9.20845,-5.45852,-12.7797
2023-03-15 22:18:35:163,-0.913862,1.53858,-9.56299,-9.23698,-5.45884,-12.7576
2023-03-15 22:18:35:173,-0.935589,1.66571,-9.71995,-9.2787,-5.46368,-12.7422
2023-03-15 22:18:35:183,-0.949702,1.69962,-9.71867,-9.31133,-5.46507,-12.7315
2023-03-15 22:18:35:193,-0.976401,1.63004,-9.6015,-9.33194,-5.46452,-12.7199
2023-03-15 22:18:35:203,-0.997382,1.60676,-9.53267,-9.3486,-5.46416,-12.7118
2023-03-15 22:18:35:213,-1.00067,1.58756,-9.53685,-9.3668,-5.45557,-12.7064
2023-03-15 22:18:35:223,-0.963792,1.57809,-9.57135,-9.38525,-5.44508,-12.7052
2023-03-15 22:18:35:233,-0.882754,1.62235,-9.63758,-9.40668,-5.43088,-12.7026
2023-03-15 22:18:35:243,-0.849914,1.67162,-9.76745,-9.42935,-5.41658,-12.6969
2023-03-15 22:18:35:253,-0.880582,1.7356,-9.85933,-9.44788,-5.40842,-12.6927
2023-03-15 22:18:35:263,-0.904816,1.72219,-9.81842,-9.45364,-5.40271,-12.6872
2023-03-15 22:18:35:273,-0.921291,1.63207,-9.66368,-9.44499,-5.40166,-12.6825
2023-03-15 22:18:35:283,-0.937381,1.56521,-9.58966,-9.42911,-5.39733,-12.6794
2023-03-15 22:18:35:293,-0.924296,1.62972,-9.62574,-9.42145,-5.39576,-12.6754
2023-03-15 22:18:35:303,-0.912575,1.69842,-9.6577,-9.41618,-5.40048,-12.6745
2023-03-15 22:18:35:313,-0.913393,1.69848,-9.58279,-9.40826,-5.39474,-12.6764
2023-03-15 22:18:35:323,-0.898491,1.61917,-9.49329,-9.40024,-5.38585,-12.6737
2023-03-15 22:18:35:333,-0.883719,1.61559,-9.52297,-9.39632,-5.37575,-12.6693
2023-03-15 22:18:35:343,-0.89741,1.70439,-9.70149,-9.40396,-5.3692,-12.6678
2023-03-15 22:18:35:353,-0.887355,1.76993,-9.81043,-9.4093,-5.36927,-12.6698
2023-03-15 22:18:35:363,-0.872117,1.75032,-9.75539,-9.39948,-5.36755,-12.6757
2023-03-15 22:18:35:373,-0.866966,1.65601,-9.60491,-9.37736,-5.3647,-12.6787
2023-03-15 22:18:35:383,-0.852197,1.59743,-9.54934,-9.35288,-5.36498,-12.6765
2023-03-15 22:18:35:393,-0.849321,1.61896,-9.586,-9.33418,-5.36335,-12.675
2023-03-15 22:18:35:403,-0.854981,1.63406,-9.63301,-9.32556,-5.36591,-12.6705
2023-03-15 22:18:35:413,-0.860218,1.62283,-9.63306,-9.31523,-5.36839,-12.664
2023-03-15 22:18:35:423,-0.847758,1.59471,-9.59141,-9.30186,-5.36839,-12.656
2023-03-15 22:18:35:433,-0.840693,1.56542,-9.55254,-9.28688,-5.37123,-12.6484
2023-03-15 22:18:35:443,-0.86194,1.5596,-9.53745,-9.2747,-5.37702,-12.6368
2023-03-15 22:18:35:453,-0.883509,1.5841,-9.55187,-9.27072,-5.38296,-12.6254
2023-03-15 22:18:35:463,-0.897449,1.61856,-9.62421,-9.2729,-5.389,-12.6149
2023-03-15 22:18:35:473,-0.889053,1.66061,-9.67215,-9.27025,-5.39575,-12.6057
2023-03-15 22:18:35:483,-0.888096,1.65261,-9.64744,-9.26601,-5.40107,-12.5996
2023-03-15 22:18:35:493,-0.89992,1.59278,-9.59873,-9.25451,-5.40702,-12.5916
2023-03-15 22:18:35:503,-0.922734,1.57418,-9.5562,-9.24205,-5.41657,-12.5808
2023-03-15 22:18:35:513,-0.91804,1.58794,-9.54066,-9.23532,-5.42439,-12.568
2023-03-15 22:18:35:523,-0.915663,1.57998,-9.55233,-9.23189,-5.42927,-12.5583
2023-03-15 22:18:35:533,-0.928088,1.57727,-9.58196,-9.23064,-5.43329,-12.5489
2023-03-15 22:18:35:543,-0.917789,1.6113,-9.62923,-9.23383,-5.43802,-12.5407
2023-03-15 22:18:35:553,-0.920612,1.64385,-9.66905,-9.23697,-5.43736,-12.5286
2023-03-15 22:18:35:563,-0.929949,1.66466,-9.68432,-9.2397,-5.43779,-12.5199
2023-03-15 22:18:35:572,-0.949965,1.6541,-9.65954,-9.23798,-5.44059,-12.5114
2023-03-15 22:18:35:583,-0.951991,1.64401,-9.62693,-9.23394,-5.44524,-12.5029
2023-03-15 22:18:35:593,-0.935398,1.64461,-9.61153,-9.22738,-5.44864,-12.4962
2023-03-15 22:18:35:603,-0.934996,1.64897,-9.60831,-9.22242,-5.4529,-12.4902
2023-03-15 22:18:35:613,-0.954621,1.63139,-9.60038,-9.21436,-5.45938,-12.4873
2023-03-15 22:18:35:623,-0.946994,1.62436,-9.5868,-9.20501,-5.46105,-12.4852
2023-03-15 22:18:35:633,-0.929148,1.61807,-9.59279,-9.19668,-5.46147,-12.4846
2023-03-15 22:18:35:643,-0.909307,1.6141,-9.59996,-9.19018,-5.46234,-12.4829
2023-03-15 22:18:35:652,-0.904512,1.6268,-9.61516,-9.18718,-5.46222,-12.4799
2023-03-15 22:18:35:663,-0.896931,1.61836,-9.61926,-9.1814,-5.46242,-12.48
2023-03-15 22:18:35:672,-0.881334,1.57883,-9.6107,-9.17459,-5.46461,-12.4788
2023-03-15 22:18:35:683,-0.862924,1.56633,-9.61059,-9.16642,-5.46455,-12.4731
2023-03-15 22:18:35:692,-0.854187,1.56347,-9.62852,-9.15852,-5.46686,-12.4663
2023-03-15 22:18:35:703,-0.841952,1.58881,-9.63884,-9.15356,-5.46737,-12.4622
2023-03-15 22:18:35:713,-0.841619,1.57825,-9.64609,-9.14556,-5.47071,-12.4577
2023-03-15 22:18:35:723,-0.845964,1.56777,-9.6434,-9.13732,-5.47195,-12.4498
2023-03-15 22:18:35:733,-0.850207,1.56397,-9.63668,-9.12733,-5.47209,-12.4408
2023-03-15 22:18:35:743,-0.857752,1.55358,-9.63216,-9.11722,-5.47533,-12.431
2023-03-15 22:18:35:753,-0.873356,1.54898,-9.61372,-9.10544,-5.48004,-12.419
2023-03-15 22:18:35:763,-0.899023,1.53865,-9.58046,-9.0974,-5.48577,-12.4068
2023-03-15 22:18:35:773,-0.920467,1.52512,-9.57683,-9.08821,-5.4897,-12.3923
2023-03-15 22:18:35:783,-0.921898,1.53578,-9.59838,-9.08056,-5.49585,-12.3797
2023-03-15 22:18:35:793,-0.913777,1.55625,-9.63671,-9.07384,-5.50169,-12.3656
2023-03-15 22:18:35:803,-0.922285,1.57474,-9.63988,-9.06754,-5.50569,-12.3548
2023-03-15 22:18:35:813,-0.928769,1.56655,-9.6211,-9.05789,-5.51202,-12.3461
2023-03-15 22:18:35:823,-0.939995,1.55875,-9.62274,-9.04874,-5.51914,-12.3371
2023-03-15 22:18:35:833,-0.937523,1.55583,-9.59531,-9.03886,-5.52475,-12.3291
2023-03-15 22:18:35:843,-0.939002,1.52749,-9.56919,-9.02622,-5.52857,-12.3267
2023-03-15 22:18:35:853,-0.922675,1.50539,-9.57728,-9.01705,-5.5358,-12.3177
2023-03-15 22:18:35:863,-0.923612,1.51637,-9.64047,-9.01155,-5.53913,-12.3092
2023-03-15 22:18:35:873,-0.898788,1.55513,-9.69894,-9.00341,-5.54336,-12.3017
2023-03-15 22:18:35:883,-0.870473,1.5403,-9.68934,-8.99307,-5.54975,-12.2953
2023-03-15 22:18:35:893,-0.885696,1.49052,-9.64714,-8.97799,-5.56139,-12.28
2023-03-15 22:18:35:902,-0.938024,1.47474,-9.58987,-8.96892,-5.57569,-12.2658
2023-03-15 22:18:35:912,-0.972373,1.48698,-9.5813,-8.96038,-5.59278,-12.2479
2023-03-15 22:18:35:923,-0.980651,1.5387,-9.59047,-8.95453,-5.60799,-12.2299
2023-03-15 22:18:35:933,-0.989466,1.54332,-9.59333,-8.94976,-5.61852,-12.21
2023-03-15 22:18:35:943,-1.00392,1.52851,-9.55894,-8.94796,-5.62457,-12.1951
2023-03-15 22:18:35:953,-0.994462,1.51331,-9.55474,-8.9449,-5.62999,-12.1797
2023-03-15 22:18:35:963,-0.994274,1.51559,-9.58243,-8.94365,-5.62967,-12.1678
2023-03-15 22:18:35:972,-1.01009,1.52414,-9.59358,-8.94103,-5.62993,-12.157
2023-03-15 22:18:35:983,-1.0218,1.49886,-9.56639,-8.93694,-5.63252,-12.1493
2023-03-15 22:18:35:992,-0.991843,1.4634,-9.5137,-8.92898,-5.63201,-12.1438
2023-03-15 22:18:36:3,-0.956203,1.44303,-9.49707,-8.92198,-5.63004,-12.1366
2023-03-15 22:18:36:13,-0.94681,1.44484,-9.5526,-8.92352,-5.62771,-12.1286
2023-03-15 22:18:36:23,-0.949956,1.48111,-9.59982,-8.92723,-5.62698,-12.123
2023-03-15 22:18:36:33,-0.961856,1.50312,-9.62432,-8.93443,-5.62481,-12.1185
2023-03-15 22:18:36:43,-0.95549,1.51879,-9.62081,-8.93926,-5.62326,-12.1137
2023-03-15 22:18:36:53,-0.944534,1.5197,-9.62839,-8.94947,-5.61787,-12.1106
2023-03-15 22:18:36:63,-0.966535,1.55739,-9.64563,-8.96124,-5.6166,-12.1077
2023-03-15 22:18:36:73,-0.981014,1.57028,-9.65813,-8.96763,-5.61467,-12.1042
2023-03-15 22:18:36:83,-0.991105,1.58573,-9.64966,-8.97648,-5.61058,-12.1
2023-03-15 22:18:36:93,-0.949657,1.59005,-9.65279,-8.97828,-5.60542,-12.1033
2023-03-15 22:18:36:103,-0.923221,1.56697,-9.65336,-8.97664,-5.59929,-12.1073
2023-03-15 22:18:36:112,-0.933592,1.55383,-9.62129,-8.97831,-5.59777,-12.1069
2023-03-15 22:18:36:123,-0.956375,1.55945,-9.61945,-8.97452,-5.5949,-12.1089
2023-03-15 22:18:36:133,-0.955164,1.55873,-9.61939,-8.97371,-5.58982,-12.11
2023-03-15 22:18:36:143,-0.942952,1.55686,-9.63297,-8.97275,-5.58672,-12.1142
2023-03-15 22:18:36:153,-0.923286,1.55175,-9.63145,-8.97128,-5.58289,-12.1171
2023-03-15 22:18:36:163,-0.905144,1.54293,-9.62234,-8.97141,-5.57494,-12.1157
2023-03-15 22:18:36:173,-0.908591,1.53407,-9.61667,-8.96798,-5.56636,-12.1184
2023-03-15 22:18:36:183,-0.904524,1.53839,-9.62914,-8.96622,-5.56157,-12.1158
2023-03-15 22:18:36:193,-0.899501,1.55318,-9.63324,-8.96761,-5.55674,-12.1127
2023-03-15 22:18:36:203,-0.882776,1.5511,-9.63568,-8.96794,-5.55348,-12.113
2023-03-15 22:18:36:212,-0.865669,1.54318,-9.61269,-8.96214,-5.54967,-12.1127
2023-03-15 22:18:36:223,-0.864784,1.52689,-9.60483,-8.95903,-5.54649,-12.1101
2023-03-15 22:18:36:233,-0.879815,1.53367,-9.59749,-8.95798,-5.54943,-12.1046
2023-03-15 22:18:36:243,-0.890524,1.53688,-9.60802,-8.95629,-5.553,-12.0986
2023-03-15 22:18:36:253,-0.885951,1.52105,-9.59029,-8.95343,-5.55398,-12.0877
2023-03-15 22:18:36:263,-0.896817,1.50476,-9.57184,-8.95641,-5.55722,-12.0772
2023-03-15 22:18:36:273,-0.912427,1.51217,-9.57748,-8.96194,-5.55919,-12.0645
2023-03-15 22:18:36:283,-0.925046,1.52919,-9.58344,-8.9675,-5.56467,-12.0499
2023-03-15 22:18:36:293,-0.927903,1.53188,-9.59803,-8.97469,-5.57027,-12.0347
2023-03-15 22:18:36:303,-0.938747,1.54092,-9.60007,-8.97758,-5.57255,-12.0211
2023-03-15 22:18:36:312,-0.958071,1.55065,-9.61663,-8.98219,-5.57057,-12.0041
2023-03-15 22:18:36:323,-0.966927,1.56879,-9.62386,-8.98962,-5.57144,-11.9887
2023-03-15 22:18:36:333,-0.962809,1.57888,-9.62435,-8.99711,-5.57521,-11.9784
2023-03-15 22:18:36:343,-0.97396,1.57697,-9.62229,-9.0028,-5.57457,-11.971
2023-03-15 22:18:36:352,-0.975066,1.5653,-9.62879,-9.00567,-5.57259,-11.958
2023-03-15 22:18:36:363,-0.965005,1.57871,-9.6167,-9.00686,-5.56893,-11.9512
2023-03-15 22:18:36:373,-0.961356,1.58043,-9.61123,-9.01176,-5.5657,-11.9462
2023-03-15 22:18:36:383,-0.957597,1.57065,-9.60051,-9.01269,-5.56412,-11.9404
2023-03-15 22:18:36:392,-0.944721,1.5751,-9.60683,-9.01376,-5.55964,-11.9336
2023-03-15 22:18:36:403,-0.949207,1.57406,-9.61661,-9.01774,-5.55558,-11.9308
2023-03-15 22:18:36:412,-0.939912,1.57558,-9.6073,-9.02116,-5.55372,-11.9287
2023-03-15 22:18:36:423,-0.919377,1.54932,-9.5939,-9.02523,-5.54858,-11.9276
2023-03-15 22:18:36:433,-0.907775,1.54136,-9.5866,-9.0251,-5.54372,-11.9264
2023-03-15 22:18:36:443,-0.910621,1.55682,-9.59906,-9.02669,-5.54059,-11.9231
2023-03-15 22:18:36:452,-0.922733,1.56199,-9.61285,-9.02908,-5.53803,-11.9202
2023-03-15 22:18:36:463,-0.925713,1.56529,-9.63206,-9.03347,-5.53545,-11.917
2023-03-15 22:18:36:473,-0.914764,1.56272,-9.63338,-9.03319,-5.5282,-11.9153
2023-03-15 22:18:36:483,-0.911528,1.57195,-9.6225,-9.0353,-5.52329,-11.9145
2023-03-15 22:18:36:493,-0.892278,1.5598,-9.60779,-9.03442,-5.51839,-11.9132
2023-03-15 22:18:36:503,-0.895025,1.53827,-9.58298,-9.03447,-5.51228,-11.9133
2023-03-15 22:18:36:513,-0.883878,1.54809,-9.57885,-9.03751,-5.50414,-11.911
2023-03-15 22:18:36:523,-0.885866,1.55753,-9.6016,-9.04244,-5.4975,-11.906
2023-03-15 22:18:36:533,-0.886886,1.57562,-9.6046,-9.04543,-5.4913,-11.9029
2023-03-15 22:18:36:543,-0.892343,1.57015,-9.60784,-9.04918,-5.48357,-11.8955
2023-03-15 22:18:36:553,-0.898459,1.56047,-9.5941,-9.05386,-5.48244,-11.8893
2023-03-15 22:18:36:563,-0.916769,1.54694,-9.59116,-9.05617,-5.4788,-11.8799
2023-03-15 22:18:36:572,-0.931235,1.56725,-9.61619,-9.06169,-5.475,-11.8716
2023-03-15 22:18:36:583,-0.920361,1.5754,-9.66228,-9.06553,-5.46848,-11.8675
2023-03-15 22:18:36:593,-0.920865,1.58459,-9.64601,-9.06422,-5.46638,-11.8648
2023-03-15 22:18:36:603,-0.925867,1.59144,-9.63081,-9.06448,-5.46063,-11.8663
2023-03-15 22:18:36:613,-0.909924,1.58742,-9.63218,-9.06148,-5.45684,-11.8698
2023-03-15 22:18:36:623,-0.892564,1.55637,-9.61638,-9.05641,-5.45168,-11.8733
2023-03-15 22:18:36:633,-0.873023,1.53338,-9.61492,-9.04884,-5.44815,-11.874
2023-03-15 22:18:36:643,-0.844003,1.52321,-9.64658,-9.04356,-5.43863,-11.8745
2023-03-15 22:18:36:653,-0.79121,1.53931,-9.67229,-9.04305,-5.43368,-11.8683
2023-03-15 22:18:36:663,-0.789159,1.5379,-9.66751,-9.04009,-5.43321,-11.8611
2023-03-15 22:18:36:672,-0.828769,1.51095,-9.64124,-9.03965,-5.4401,-11.851
2023-03-15 22:18:36:683,-0.885226,1.5203,-9.62189,-9.03945,-5.44737,-11.8393
2023-03-15 22:18:36:692,-0.89632,1.56314,-9.61768,-9.04536,-5.45961,-11.8283
2023-03-15 22:18:36:703,-0.908006,1.58698,-9.62296,-9.05509,-5.46517,-11.8173
2023-03-15 22:18:36:712,-0.925744,1.61047,-9.63126,-9.06243,-5.47451,-11.8066
2023-03-15 22:18:36:723,-0.922402,1.63772,-9.63435,-9.06498,-5.4808,-11.7972
2023-03-15 22:18:36:732,-0.926833,1.65174,-9.64574,-9.06586,-5.48268,-11.7912
2023-03-15 22:18:36:742,-0.945389,1.6319,-9.63789,-9.06042,-5.48457,-11.7823
2023-03-15 22:18:36:752,-0.953557,1.61631,-9.60187,-9.05031,-5.48303,-11.7788
2023-03-15 22:18:36:763,-0.950698,1.58335,-9.60254,-9.03721,-5.48072,-11.7764
2023-03-15 22:18:36:772,-0.935993,1.54842,-9.58953,-9.02153,-5.48154,-11.7754
2023-03-15 22:18:36:783,-0.917538,1.50491,-9.57757,-9.00274,-5.48334,-11.7743
2023-03-15 22:18:36:792,-0.90853,1.477,-9.56941,-8.9871,-5.48088,-11.7746
2023-03-15 22:18:36:802,-0.909485,1.46611,-9.58809,-8.9767,-5.48306,-11.77
2023-03-15 22:18:36:812,-0.917957,1.48383,-9.60895,-8.96664,-5.48542,-11.7674
2023-03-15 22:18:36:823,-0.922748,1.4954,-9.59444,-8.96196,-5.48744,-11.7694
2023-03-15 22:18:36:832,-0.939902,1.52077,-9.60883,-8.95788,-5.49052,-11.7685
2023-03-15 22:18:36:843,-0.939073,1.53579,-9.62563,-8.95288,-5.48598,-11.7698
2023-03-15 22:18:36:852,-0.923766,1.47826,-9.55116,-8.94863,-5.48416,-11.7681
2023-03-15 22:18:36:863,-0.90917,1.50056,-9.55963,-8.94909,-5.47805,-11.7645
2023-03-15 22:18:36:872,-0.905445,1.58712,-9.64628,-8.95505,-5.47076,-11.7644
2023-03-15 22:18:36:882,-0.883943,1.62769,-9.73987,-8.95549,-5.45537,-11.7618
2023-03-15 22:18:36:892,-0.830802,1.52141,-9.62547,-8.94216,-5.43726,-11.7569
2023-03-15 22:18:36:902,-0.854166,1.42246,-9.46274,-8.92828,-5.43197,-11.7437
2023-03-15 22:18:36:912,-0.943036,1.46009,-9.47353,-8.92704,-5.43034,-11.7244
2023-03-15 22:18:36:923,-0.973882,1.55422,-9.56417,-8.94362,-5.42582,-11.7031
2023-03-15 22:18:36:932,-0.918804,1.57067,-9.58496,-8.95764,-5.42423,-11.6941
2023-03-15 22:18:36:942,-0.856607,1.52337,-9.56718,-8.97345,-5.42384,-11.6832
2023-03-15 22:18:36:952,-0.856965,1.5285,-9.58976,-8.99304,-5.42239,-11.6703
2023-03-15 22:18:36:962,-0.871561,1.56513,-9.64044,-9.01873,-5.43044,-11.6541
2023-03-15 22:18:36:972,-0.886487,1.59678,-9.65294,-9.04799,-5.44434,-11.6399
2023-03-15 22:18:36:982,-0.924275,1.62057,-9.67434,-9.07036,-5.46389,-11.634
2023-03-15 22:18:36:992,-0.942315,1.65263,-9.69468,-9.09262,-5.47656,-11.6233
2023-03-15 22:18:37:2,-0.960094,1.65334,-9.69458,-9.10465,-5.48673,-11.62
2023-03-15 22:18:37:12,-0.942582,1.62172,-9.64818,-9.10437,-5.49022,-11.6213
2023-03-15 22:18:37:23,-0.939828,1.57136,-9.56729,-9.10067,-5.49851,-11.6251
2023-03-15 22:18:37:32,-0.975269,1.59017,-9.57999,-9.10297,-5.50885,-11.6306
2023-03-15 22:18:37:43,-1.00787,1.65429,-9.67226,-9.10537,-5.51111,-11.6366
2023-03-15 22:18:37:52,-0.979007,1.66517,-9.70856,-9.09919,-5.5104,-11.6482
2023-03-15 22:18:37:63,-0.904851,1.58948,-9.65206,-9.08383,-5.50818,-11.6644
2023-03-15 22:18:37:72,-0.876419,1.54882,-9.59315,-9.06844,-5.50775,-11.6812
2023-03-15 22:18:37:82,-0.885111,1.57156,-9.61785,-9.05742,-5.51312,-11.6927
2023-03-15 22:18:37:92,-0.910522,1.59137,-9.66678,-9.05153,-5.51946,-11.7023
2023-03-15 22:18:37:102,-0.923498,1.60829,-9.66616,-9.04127,-5.53034,-11.713
2023-03-15 22:18:37:112,-0.949235,1.65415,-9.70524,-9.02678,-5.53474,-11.7224
2023-03-15 22:18:37:122,-0.945438,1.61448,-9.70314,-9.00402,-5.52731,-11.7349
2023-03-15 22:18:37:132,-0.900917,1.51915,-9.61361,-8.9748,-5.51988,-11.7419
2023-03-15 22:18:37:142,-0.865457,1.47497,-9.57496,-8.94281,-5.51328,-11.7444
2023-03-15 22:18:37:152,-0.887701,1.49838,-9.59498,-8.91755,-5.50676,-11.7479
2023-03-15 22:18:37:162,-0.871963,1.50698,-9.62392,-8.89581,-5.50513,-11.7448
2023-03-15 22:18:37:172,-0.852039,1.50979,-9.62422,-8.87337,-5.49679,-11.7409
2023-03-15 22:18:37:182,-0.860558,1.47802,-9.59581,-8.85357,-5.4895,-11.7348
2023-03-15 22:18:37:192,-0.89647,1.45015,-9.5595,-8.8331,-5.48686,-11.7267
2023-03-15 22:18:37:202,-0.921529,1.48217,-9.60387,-8.81837,-5.48404,-11.7161
2023-03-15 22:18:37:212,-0.916129,1.48985,-9.61801,-8.80168,-5.47845,-11.7059
2023-03-15 22:18:37:222,-0.914506,1.47221,-9.59806,-8.78394,-5.47944,-11.698
2023-03-15 22:18:37:232,-0.908138,1.44189,-9.58953,-8.76508,-5.48083,-11.6904
2023-03-15 22:18:37:242,-0.934753,1.44866,-9.59399,-8.748,-5.47828,-11.6821
2023-03-15 22:18:37:252,-0.930043,1.46339,-9.5972,-8.73222,-5.47612,-11.6759
2023-03-15 22:18:37:262,-0.93375,1.46177,-9.58863,-8.71257,-5.47222,-11.6701
2023-03-15 22:18:37:272,-0.943418,1.45651,-9.57365,-8.69519,-5.4627,-11.6658
2023-03-15 22:18:37:282,-0.920924,1.41852,-9.5319,-8.67849,-5.45624,-11.6607
2023-03-15 22:18:37:292,-0.887211,1.40742,-9.52847,-8.66536,-5.44632,-11.6586
2023-03-15 22:18:37:302,-0.855693,1.4129,-9.54684,-8.65927,-5.43622,-11.6555
2023-03-15 22:18:37:312,-0.852517,1.42276,-9.58856,-8.65719,-5.43111,-11.6462
2023-03-15 22:18:37:322,-0.859664,1.45535,-9.62427,-8.66236,-5.42834,-11.6406
2023-03-15 22:18:37:332,-0.866371,1.46337,-9.64388,-8.66626,-5.42426,-11.6393
2023-03-15 22:18:37:342,-0.894101,1.46289,-9.65349,-8.66664,-5.41892,-11.6384
2023-03-15 22:18:37:352,-0.885754,1.48219,-9.65051,-8.67357,-5.41842,-11.6369
2023-03-15 22:18:37:362,-0.872973,1.48285,-9.6279,-8.67545,-5.41704,-11.6341
2023-03-15 22:18:37:372,-0.836821,1.46872,-9.60167,-8.67659,-5.41659,-11.6313
2023-03-15 22:18:37:382,-0.797544,1.43633,-9.61466,-8.67662,-5.41462,-11.6301
2023-03-15 22:18:37:392,-0.792057,1.45529,-9.65108,-8.67665,-5.41079,-11.6241
2023-03-15 22:18:37:402,-0.78276,1.48864,-9.68259,-8.67924,-5.41103,-11.6155
2023-03-15 22:18:37:412,-0.790243,1.47663,-9.65924,-8.67496,-5.40481,-11.6071
2023-03-15 22:18:37:422,-0.823824,1.44642,-9.62587,-8.67028,-5.40382,-11.5917
2023-03-15 22:18:37:432,-0.875594,1.45901,-9.5905,-8.66933,-5.40172,-11.5713
2023-03-15 22:18:37:442,-0.916619,1.48335,-9.5927,-8.66995,-5.39896,-11.5504
2023-03-15 22:18:37:452,-0.91499,1.50216,-9.60645,-8.67573,-5.40273,-11.5363
2023-03-15 22:18:37:462,-0.888742,1.50979,-9.59613,-8.68555,-5.40551,-11.521
2023-03-15 22:18:37:472,-0.856466,1.51911,-9.59539,-8.69632,-5.40294,-11.5065
2023-03-15 22:18:37:482,-0.856741,1.54392,-9.61173,-8.70843,-5.40622,-11.4896
2023-03-15 22:18:37:492,-0.896368,1.60537,-9.65521,-8.72493,-5.40725,-11.4736
2023-03-15 22:18:37:502,-0.92825,1.64264,-9.70538,-8.73922,-5.40607,-11.4597
2023-03-15 22:18:37:512,-0.911738,1.58534,-9.66299,-8.73739,-5.40134,-11.45
2023-03-15 22:18:37:522,-0.87802,1.50483,-9.57529,-8.72796,-5.39696,-11.4404
2023-03-15 22:18:37:532,-0.85602,1.46561,-9.52597,-8.72076,-5.39582,-11.4295
2023-03-15 22:18:37:542,-0.875332,1.48753,-9.56272,-8.72202,-5.40418,-11.4175
2023-03-15 22:18:37:552,-0.908047,1.52847,-9.64626,-8.72896,-5.41587,-11.4063
2023-03-15 22:18:37:562,-0.922441,1.54297,-9.67792,-8.73497,-5.42448,-11.3988
2023-03-15 22:18:37:572,-0.904201,1.52442,-9.66243,-8.73345,-5.43112,-11.3923
2023-03-15 22:18:37:582,-0.886933,1.4919,-9.63843,-8.73101,-5.44202,-11.3878
2023-03-15 22:18:37:592,-0.91003,1.50367,-9.59848,-8.73376,-5.45712,-11.379
2023-03-15 22:18:37:602,-0.940586,1.51093,-9.59098,-8.73607,-5.47038,-11.3725
2023-03-15 22:18:37:612,-0.968557,1.56254,-9.6329,-8.74706,-5.4823,-11.3602
2023-03-15 22:18:37:622,-0.953245,1.58943,-9.67093,-8.75571,-5.4894,-11.3529
2023-03-15 22:18:37:632,-0.951431,1.58457,-9.65778,-8.75861,-5.49858,-11.3453
2023-03-15 22:18:37:642,-0.977842,1.55742,-9.63099,-8.75524,-5.50725,-11.336
2023-03-15 22:18:37:652,-1.01136,1.53155,-9.59537,-8.75099,-5.51739,-11.3257
2023-03-15 22:18:37:662,-1.03731,1.54165,-9.60457,-8.74774,-5.52404,-11.3185
2023-03-15 22:18:37:672,-1.03186,1.5492,-9.62357,-8.745,-5.5308,-11.3112
2023-03-15 22:18:37:682,-0.999554,1.55136,-9.64608,-8.74391,-5.53266,-11.3071
2023-03-15 22:18:37:692,-0.970878,1.54455,-9.65754,-8.74079,-5.53616,-11.304
2023-03-15 22:18:37:702,-0.971048,1.54011,-9.6511,-8.73422,-5.53827,-11.3
2023-03-15 22:18:37:712,-0.968264,1.52089,-9.6387,-8.7292,-5.5403,-11.2996
2023-03-15 22:18:37:722,-0.972777,1.51475,-9.62312,-8.71746,-5.5424,-11.2975
2023-03-15 22:18:37:732,-0.970096,1.49897,-9.62185,-8.70858,-5.54534,-11.2951
2023-03-15 22:18:37:742,-0.968915,1.49032,-9.60055,-8.69951,-5.54966,-11.2917
2023-03-15 22:18:37:752,-0.944183,1.47158,-9.58806,-8.69144,-5.54944,-11.2895
2023-03-15 22:18:37:762,-0.924305,1.46894,-9.57868,-8.68657,-5.55364,-11.2865
2023-03-15 22:18:37:772,-0.925739,1.48083,-9.58667,-8.67811,-5.55579,-11.2858
2023-03-15 22:18:37:782,-0.923633,1.47107,-9.59314,-8.67118,-5.55616,-11.2859
2023-03-15 22:18:37:792,-0.922646,1.45707,-9.5693,-8.66405,-5.55275,-11.2791
2023-03-15 22:18:37:802,-0.911164,1.45407,-9.57412,-8.6551,-5.5516,-11.276
2023-03-15 22:18:37:812,-0.926194,1.47721,-9.59785,-8.65212,-5.55078,-11.2686
2023-03-15 22:18:37:822,-0.927045,1.502,-9.62727,-8.64872,-5.55381,-11.2622
2023-03-15 22:18:37:832,-0.936515,1.50797,-9.64115,-8.65097,-5.55694,-11.2575
2023-03-15 22:18:37:842,-0.950214,1.50135,-9.61647,-8.64866,-5.55263,-11.2513
2023-03-15 22:18:37:852,-0.982136,1.49214,-9.60246,-8.64534,-5.54967,-11.2448
2023-03-15 22:18:37:862,-0.999863,1.52655,-9.62062,-8.64558,-5.54619,-11.2368
2023-03-15 22:18:37:872,-1.00059,1.51396,-9.59905,-8.64562,-5.54341,-11.2358
2023-03-15 22:18:37:882,-0.995558,1.51691,-9.61242,-8.64521,-5.53609,-11.2311
2023-03-15 22:18:37:892,-0.962816,1.52355,-9.60542,-8.64663,-5.52623,-11.2314
2023-03-15 22:18:37:902,-0.930431,1.5316,-9.61391,-8.64741,-5.51624,-11.2368
2023-03-15 22:18:37:912,-0.905988,1.54225,-9.63775,-8.64994,-5.50874,-11.2393
2023-03-15 22:18:37:922,-0.879865,1.53731,-9.65521,-8.65105,-5.49824,-11.2438
2023-03-15 22:18:37:932,-0.875212,1.5277,-9.64319,-8.65481,-5.48834,-11.2479
2023-03-15 22:18:37:942,-0.853076,1.51798,-9.63777,-8.65601,-5.47854,-11.2549
2023-03-15 22:18:37:952,-0.812919,1.51649,-9.63559,-8.65379,-5.47136,-11.2556
2023-03-15 22:18:37:962,-0.792806,1.50731,-9.63185,-8.65049,-5.45884,-11.2556
2023-03-15 22:18:37:972,-0.759199,1.47391,-9.62969,-8.64535,-5.44341,-11.2487
2023-03-15 22:18:37:982,-0.74147,1.4601,-9.60277,-8.64071,-5.42499,-11.2369
2023-03-15 22:18:37:992,-0.782208,1.47672,-9.61736,-8.6417,-5.41832,-11.2185
2023-03-15 22:18:38:2,-0.835578,1.49641,-9.63996,-8.6452,-5.40761,-11.1926
2023-03-15 22:18:38:12,-0.909012,1.55137,-9.69149,-8.64825,-5.39931,-11.1678
2023-03-15 22:18:38:22,-0.92105,1.5572,-9.67273,-8.64383,-5.39114,-11.1477
2023-03-15 22:18:38:32,-0.917846,1.50834,-9.60637,-8.63515,-5.38271,-11.1287
2023-03-15 22:18:38:42,-0.865936,1.43261,-9.51175,-8.6253,-5.37617,-11.109
2023-03-15 22:18:38:52,-0.863163,1.42878,-9.48774,-8.62459,-5.3764,-11.0869
2023-03-15 22:18:38:62,-0.898702,1.47215,-9.55981,-8.63731,-5.37827,-11.0665
2023-03-15 22:18:38:72,-0.925839,1.49869,-9.6185,-8.65051,-5.38135,-11.0493
2023-03-15 22:18:38:82,-0.94112,1.53627,-9.66284,-8.66208,-5.38127,-11.0302
2023-03-15 22:18:38:92,-0.948893,1.53201,-9.67377,-8.67276,-5.38552,-11.0165
2023-03-15 22:18:38:102,-0.949744,1.50293,-9.65001,-8.67549,-5.38408,-11.0063
2023-03-15 22:18:38:112,-0.924826,1.48551,-9.61244,-8.68029,-5.38817,-11.0035
2023-03-15 22:18:38:122,-0.929984,1.49633,-9.58305,-8.68617,-5.39837,-11.0001
2023-03-15 22:18:38:132,-0.952076,1.52076,-9.63554,-8.69434,-5.40923,-11.0107
2023-03-15 22:18:38:142,-0.928743,1.51753,-9.67074,-8.70119,-5.42053,-11.0274
2023-03-15 22:18:38:152,-0.857118,1.50896,-9.71479,-8.70655,-5.43207,-11.0434
2023-03-15 22:18:38:162,-0.800262,1.51994,-9.73946,-8.71279,-5.44505,-11.0644
2023-03-15 22:18:38:172,-0.764736,1.49564,-9.75196,-8.7143,-5.46525,-11.083
2023-03-15 22:18:38:182,-0.780839,1.47919,-9.70237,-8.71096,-5.49533,-11.0993
2023-03-15 22:18:38:192,-0.835852,1.45919,-9.6319,-8.70408,-5.53411,-11.1132
2023-03-15 22:18:38:202,-0.852979,1.41853,-9.60124,-8.69698,-5.57626,-11.1282
2023-03-15 22:18:38:212,-0.85436,1.42378,-9.59744,-8.69727,-5.619,-11.1403
2023-03-15 22:18:38:222,-0.859627,1.45679,-9.6193,-8.70165,-5.66565,-11.1482
2023-03-15 22:18:38:232,-0.874942,1.4598,-9.64359,-8.70668,-5.71085,-11.1545
2023-03-15 22:18:38:242,-0.927816,1.51821,-9.68642,-8.71267,-5.75105,-11.1566
2023-03-15 22:18:38:252,-0.964515,1.54382,-9.71075,-8.71137,-5.78343,-11.1574
2023-03-15 22:18:38:262,-0.964288,1.51285,-9.66248,-8.6999,-5.80164,-11.1568
2023-03-15 22:18:38:272,-0.935291,1.44251,-9.58525,-8.67917,-5.81508,-11.1485
2023-03-15 22:18:38:282,-0.916595,1.38524,-9.49678,-8.65602,-5.82618,-11.1344
2023-03-15 22:18:38:292,-0.941426,1.37404,-9.48137,-8.64002,-5.83635,-11.114
2023-03-15 22:18:38:302,-0.96833,1.39512,-9.49118,-8.63399,-5.8429,-11.0914
2023-03-15 22:18:38:312,-1.00664,1.44062,-9.58815,-8.63282,-5.84621,-11.0641
2023-03-15 22:18:38:322,-1.02,1.47285,-9.63856,-8.63146,-5.84146,-11.036
2023-03-15 22:18:38:332,-0.986044,1.46182,-9.64577,-8.62136,-5.83136,-11.0097
2023-03-15 22:18:38:342,-0.991192,1.43417,-9.5925,-8.61039,-5.82412,-10.9808
2023-03-15 22:18:38:352,-1.04045,1.43048,-9.58937,-8.60011,-5.81086,-10.95
2023-03-15 22:18:38:362,-1.06371,1.43611,-9.57649,-8.59238,-5.80172,-10.9232
2023-03-15 22:18:38:372,-1.08305,1.43633,-9.58181,-8.59092,-5.79414,-10.8926
2023-03-15 22:18:38:382,-1.07247,1.46953,-9.60243,-8.59277,-5.78047,-10.8678
2023-03-15 22:18:38:392,-1.02198,1.48599,-9.61278,-8.59837,-5.76637,-10.8506
2023-03-15 22:18:38:402,-0.977801,1.47701,-9.59485,-8.59881,-5.74992,-10.8343
2023-03-15 22:18:38:412,-1.01211,1.48463,-9.52985,-8.60178,-5.73559,-10.8193
2023-03-15 22:18:38:422,-1.06931,1.51057,-9.53011,-8.60383,-5.72107,-10.8065
2023-03-15 22:18:38:432,-1.03619,1.54661,-9.57917,-8.61577,-5.70345,-10.7998
2023-03-15 22:18:38:442,-0.924009,1.55878,-9.67007,-8.63137,-5.68603,-10.802
2023-03-15 22:18:38:452,-0.890072,1.57757,-9.73026,-8.64281,-5.66562,-10.7986
2023-03-15 22:18:38:462,-0.917101,1.5986,-9.73519,-8.64744,-5.6493,-10.7978
2023-03-15 22:18:38:472,-0.91973,1.58638,-9.69922,-8.64903,-5.63432,-10.7967
2023-03-15 22:18:38:482,-0.884571,1.55511,-9.68037,-8.64327,-5.62184,-10.7912
2023-03-15 22:18:38:492,-0.881583,1.55127,-9.65911,-8.63633,-5.60901,-10.7874
2023-03-15 22:18:38:502,-0.87135,1.53339,-9.63876,-8.6338,-5.6033,-10.7807
2023-03-15 22:18:38:512,-0.851123,1.52135,-9.62187,-8.62968,-5.60353,-10.7741
2023-03-15 22:18:38:522,-0.857235,1.51021,-9.63189,-8.62725,-5.60106,-10.7627
2023-03-15 22:18:38:532,-0.864359,1.50096,-9.62415,-8.61928,-5.6005,-10.7501
2023-03-15 22:18:38:542,-0.875224,1.48121,-9.59699,-8.6118,-5.60054,-10.7337
2023-03-15 22:18:38:552,-0.896014,1.47075,-9.60062,-8.60641,-5.6063,-10.7118
2023-03-15 22:18:38:562,-0.908412,1.47144,-9.61339,-8.6047,-5.61083,-10.6861
2023-03-15 22:18:38:572,-0.910825,1.47313,-9.612,-8.60399,-5.6153,-10.6585
2023-03-15 22:18:38:582,-0.921562,1.48471,-9.60756,-8.60451,-5.62005,-10.634
2023-03-15 22:18:38:592,-0.93064,1.48883,-9.61325,-8.60345,-5.62573,-10.6062
2023-03-15 22:18:38:602,-0.933567,1.48896,-9.60624,-8.60569,-5.63338,-10.5749
2023-03-15 22:18:38:612,-0.974214,1.51545,-9.61033,-8.61078,-5.64084,-10.5407
2023-03-15 22:18:38:622,-0.971515,1.55122,-9.63984,-8.61881,-5.64487,-10.5064
2023-03-15 22:18:38:632,-0.969457,1.56063,-9.6468,-8.62393,-5.64491,-10.4688
2023-03-15 22:18:38:642,-1.02055,1.56058,-9.63961,-8.62496,-5.64258,-10.4288
2023-03-15 22:18:38:652,-1.05755,1.55676,-9.64368,-8.62136,-5.64143,-10.3932
2023-03-15 22:18:38:662,-1.01205,1.55725,-9.65617,-8.61852,-5.63357,-10.3589
2023-03-15 22:18:38:672,-1.00774,1.54576,-9.62775,-8.6107,-5.61993,-10.3298
2023-03-15 22:18:38:682,-1.03808,1.51171,-9.59285,-8.59805,-5.60809,-10.2969
2023-03-15 22:18:38:692,-1.00173,1.50614,-9.61998,-8.58984,-5.59849,-10.265
2023-03-15 22:18:38:702,-1.01248,1.52697,-9.64164,-8.58239,-5.59393,-10.2368
2023-03-15 22:18:38:712,-1.02795,1.52351,-9.6598,-8.57449,-5.58667,-10.215
2023-03-15 22:18:38:722,-1.00762,1.51244,-9.66072,-8.56632,-5.57999,-10.1982
2023-03-15 22:18:38:732,-0.993723,1.48123,-9.63417,-8.55539,-5.57986,-10.1831
2023-03-15 22:18:38:742,-0.99791,1.47856,-9.62641,-8.54356,-5.58052,-10.1745
2023-03-15 22:18:38:752,-0.973387,1.47985,-9.63706,-8.53253,-5.58305,-10.1709
2023-03-15 22:18:38:762,-0.962088,1.46755,-9.63232,-8.52189,-5.58796,-10.1706
2023-03-15 22:18:38:772,-0.949351,1.44387,-9.61465,-8.51275,-5.59687,-10.1738
2023-03-15 22:18:38:782,-0.942665,1.41734,-9.62505,-8.50221,-5.60895,-10.1751
2023-03-15 22:18:38:792,-0.936747,1.41199,-9.63361,-8.49292,-5.62138,-10.1802
2023-03-15 22:18:38:802,-0.9349,1.43054,-9.62943,-8.48285,-5.63684,-10.1857
2023-03-15 22:18:38:812,-0.922784,1.42472,-9.60541,-8.47424,-5.64634,-10.1916
2023-03-15 22:18:38:822,-0.907266,1.39626,-9.58531,-8.46263,-5.65914,-10.1962
2023-03-15 22:18:38:832,-0.910368,1.38943,-9.58743,-8.45209,-5.67045,-10.1964
2023-03-15 22:18:38:842,-0.91102,1.4016,-9.5991,-8.44783,-5.67902,-10.1962
2023-03-15 22:18:38:852,-0.903773,1.41741,-9.618,-8.44429,-5.68531,-10.1943
2023-03-15 22:18:38:862,-0.90849,1.40275,-9.63751,-8.44094,-5.68736,-10.1869
2023-03-15 22:18:38:872,-0.931168,1.40339,-9.63712,-8.43387,-5.69071,-10.1745
2023-03-15 22:18:38:882,-0.975833,1.42528,-9.64423,-8.42786,-5.6932,-10.1624
2023-03-15 22:18:38:892,-0.995298,1.42705,-9.65329,-8.42057,-5.69329,-10.152
2023-03-15 22:18:38:902,-0.998301,1.4104,-9.63872,-8.40959,-5.68986,-10.1409
2023-03-15 22:18:38:912,-1.00224,1.40605,-9.61999,-8.39839,-5.68459,-10.1304
2023-03-15 22:18:38:922,-0.992441,1.40017,-9.59377,-8.38411,-5.67818,-10.1295
2023-03-15 22:18:38:932,-0.955405,1.37321,-9.55685,-8.37067,-5.67245,-10.1279
2023-03-15 22:18:38:942,-0.930364,1.35228,-9.55937,-8.35907,-5.66224,-10.1297
2023-03-15 22:18:38:952,-0.888889,1.36323,-9.59694,-8.35155,-5.65231,-10.1271
2023-03-15 22:18:38:962,-0.829594,1.37963,-9.65721,-8.34914,-5.64311,-10.1288
2023-03-15 22:18:38:972,-0.759575,1.3743,-9.64492,-8.34713,-5.63545,-10.1255
2023-03-15 22:18:38:982,-0.737691,1.35104,-9.58636,-8.34429,-5.63254,-10.1162
2023-03-15 22:18:38:992,-0.79276,1.3783,-9.59258,-8.35043,-5.63709,-10.0971
2023-03-15 22:18:39:2,-0.869748,1.42767,-9.6309,-8.36044,-5.64171,-10.0791
2023-03-15 22:18:39:12,-0.924679,1.49241,-9.67383,-8.37073,-5.64268,-10.0557
2023-03-15 22:18:39:22,-0.931598,1.50071,-9.67851,-8.37922,-5.64564,-10.0352
2023-03-15 22:18:39:32,-0.940809,1.48042,-9.66791,-8.3832,-5.64819,-10.0127
2023-03-15 22:18:39:42,-0.976082,1.48941,-9.65582,-8.3853,-5.65327,-9.99094
2023-03-15 22:18:39:52,-1.01336,1.47599,-9.67241,-8.3855,-5.66262,-9.97243
2023-03-15 22:18:39:62,-1.02883,1.48065,-9.63983,-8.38399,-5.67171,-9.96158
2023-03-15 22:18:39:72,-1.04392,1.45213,-9.59392,-8.37874,-5.68346,-9.95609
2023-03-15 22:18:39:82,-1.04654,1.4195,-9.57377,-8.37127,-5.69073,-9.95102
2023-03-15 22:18:39:92,-1.01394,1.40156,-9.56266,-8.35827,-5.69003,-9.95012
2023-03-15 22:18:39:102,-0.968993,1.37681,-9.54191,-8.3469,-5.68968,-9.94893
2023-03-15 22:18:39:112,-0.935213,1.36795,-9.53896,-8.3482,-5.68913,-9.95056
2023-03-15 22:18:39:122,-0.938179,1.40812,-9.5802,-8.35138,-5.68678,-9.95142
2023-03-15 22:18:39:132,-0.931165,1.45514,-9.63643,-8.36264,-5.68779,-9.95182
2023-03-15 22:18:39:142,-0.882015,1.46921,-9.6452,-8.37558,-5.68181,-9.95314
2023-03-15 22:18:39:152,-0.83429,1.46224,-9.6477,-8.38596,-5.67441,-9.9459
2023-03-15 22:18:39:162,-0.85758,1.48058,-9.64893,-8.39271,-5.66327,-9.93557
2023-03-15 22:18:39:172,-0.895556,1.4991,-9.64635,-8.39871,-5.65619,-9.92392
2023-03-15 22:18:39:182,-0.91186,1.51177,-9.66508,-8.40953,-5.64494,-9.90755
2023-03-15 22:18:39:192,-0.886449,1.50847,-9.6792,-8.41767,-5.63595,-9.89267
2023-03-15 22:18:39:202,-0.901519,1.49755,-9.64863,-8.42415,-5.63216,-9.87627
2023-03-15 22:18:39:212,-0.96119,1.5114,-9.64736,-8.4273,-5.63065,-9.86144
2023-03-15 22:18:39:222,-1.03061,1.51175,-9.67114,-8.42947,-5.63128,-9.84921
2023-03-15 22:18:39:232,-1.0389,1.52464,-9.69416,-8.43078,-5.63427,-9.83713
2023-03-15 22:18:39:242,-1.01582,1.48004,-9.67689,-8.42667,-5.64164,-9.83178
2023-03-15 22:18:39:252,-1.00834,1.45538,-9.62134,-8.41983,-5.64905,-9.83075
2023-03-15 22:18:39:262,-0.996745,1.4308,-9.61874,-8.41688,-5.65832,-9.83325
2023-03-15 22:18:39:272,-0.989064,1.43004,-9.63481,-8.41734,-5.67365,-9.83535
2023-03-15 22:18:39:282,-0.99846,1.44763,-9.64039,-8.41588,-5.6893,-9.83859
2023-03-15 22:18:39:292,-1.0092,1.44936,-9.64411,-8.4144,-5.70726,-9.84545
2023-03-15 22:18:39:302,-0.986098,1.43254,-9.61253,-8.4104,-5.71483,-9.85242
2023-03-15 22:18:39:312,-0.940904,1.37538,-9.55168,-8.40081,-5.71991,-9.85994
2023-03-15 22:18:39:322,-0.901842,1.3736,-9.54616,-8.39731,-5.72481,-9.86069
2023-03-15 22:18:39:332,-0.884569,1.40674,-9.57491,-8.40101,-5.72741,-9.85908
2023-03-15 22:18:39:342,-0.883029,1.43819,-9.62353,-8.40726,-5.72581,-9.8536
2023-03-15 22:18:39:352,-0.864214,1.46481,-9.64545,-8.41625,-5.71862,-9.84203
2023-03-15 22:18:39:362,-0.856904,1.4811,-9.64366,-8.42456,-5.7114,-9.82892
2023-03-15 22:18:39:372,-0.872532,1.48608,-9.63192,-8.42871,-5.70432,-9.81092
2023-03-15 22:18:39:382,-0.900946,1.47878,-9.63012,-8.43378,-5.69613,-9.7876
2023-03-15 22:18:39:392,-0.944186,1.52532,-9.66359,-8.44328,-5.68927,-9.76402
2023-03-15 22:18:39:402,-0.976065,1.56116,-9.69273,-8.44585,-5.68248,-9.74203
2023-03-15 22:18:39:412,-1.00252,1.55986,-9.69293,-8.44632,-5.67605,-9.71835
2023-03-15 22:18:39:422,-0.982473,1.53248,-9.66947,-8.44284,-5.6706,-9.69909
2023-03-15 22:18:39:432,-0.968883,1.50224,-9.63993,-8.43765,-5.66585,-9.68182
2023-03-15 22:18:39:442,-0.96347,1.48629,-9.64022,-8.43108,-5.6607,-9.6649
2023-03-15 22:18:39:452,-0.980896,1.48769,-9.62357,-8.42894,-5.66473,-9.65194
2023-03-15 22:18:39:462,-0.961731,1.49539,-9.60368,-8.42599,-5.66867,-9.64366
2023-03-15 22:18:39:472,-0.948993,1.46165,-9.60332,-8.42374,-5.67651,-9.63145
2023-03-15 22:18:39:482,-0.942276,1.44451,-9.61183,-8.42089,-5.68167,-9.62173
2023-03-15 22:18:39:492,-0.916958,1.44458,-9.60366,-8.42023,-5.68202,-9.60775
2023-03-15 22:18:39:502,-0.887191,1.4438,-9.60266,-8.42113,-5.6811,-9.59561
2023-03-15 22:18:39:512,-0.870377,1.42663,-9.61605,-8.41937,-5.67701,-9.57746
2023-03-15 22:18:39:522,-0.871343,1.42251,-9.63039,-8.41983,-5.67372,-9.55491
2023-03-15 22:18:39:532,-0.879475,1.4379,-9.6415,-8.41897,-5.66623,-9.52946
2023-03-15 22:18:39:542,-0.877252,1.44649,-9.64855,-8.41496,-5.65446,-9.49974
2023-03-15 22:18:39:552,-0.866144,1.44556,-9.61522,-8.41086,-5.63534,-9.46833
2023-03-15 22:18:39:562,-0.80276,1.38487,-9.55618,-8.40306,-5.61143,-9.43291
2023-03-15 22:18:39:572,-0.754789,1.2786,-9.4,-8.39989,-5.6003,-9.38905
2023-03-15 22:18:39:582,-0.784985,1.36595,-9.49516,-8.41615,-5.58708,-9.33512
2023-03-15 22:18:39:592,-0.8249,1.47315,-9.62643,-8.44225,-5.56526,-9.27317
2023-03-15 22:18:39:602,-0.816803,1.43981,-9.60443,-8.46644,-5.5425,-9.21238
2023-03-15 22:18:39:612,-0.739734,1.36674,-9.52128,-8.48738,-5.52415,-9.14875
2023-03-15 22:18:39:622,-0.72524,1.36694,-9.49562,-8.51655,-5.51083,-9.07464
2023-03-15 22:18:39:631,-0.767372,1.39089,-9.49611,-8.55486,-5.5037,-8.99604
2023-03-15 22:18:39:642,-0.771848,1.42495,-9.50687,-8.59947,-5.49607,-8.9187
2023-03-15 22:18:39:652,-0.730707,1.43314,-9.53834,-8.64635,-5.4863,-8.83687
2023-03-15 22:18:39:662,-0.702301,1.48059,-9.59455,-8.70086,-5.48011,-8.75069
2023-03-15 22:18:39:671,-0.743537,1.56389,-9.67431,-8.75909,-5.47195,-8.65901
2023-03-15 22:18:39:682,-0.805413,1.5577,-9.66162,-8.8095,-5.46531,-8.56615
2023-03-15 22:18:39:691,-0.762829,1.48709,-9.67267,-8.85433,-5.45419,-8.46447
2023-03-15 22:18:39:702,-0.654728,1.52349,-9.78216,-8.90179,-5.43274,-8.3564
2023-03-15 22:18:39:711,-0.566275,1.57422,-9.85094,-8.94453,-5.41491,-8.23977
2023-03-15 22:18:39:722,-0.591331,1.60154,-9.78971,-8.97568,-5.39957,-8.11133
2023-03-15 22:18:39:731,-0.651426,1.60571,-9.74528,-8.99772,-5.37957,-7.96149
2023-03-15 22:18:39:742,-0.646745,1.51993,-9.66184,-9.00443,-5.35927,-7.79797
2023-03-15 22:18:39:751,-0.628135,1.50568,-9.68103,-9.00444,-5.33169,-7.61279
2023-03-15 22:18:39:762,-0.658282,1.47178,-9.7518,-9.00179,-5.30507,-7.41045
2023-03-15 22:18:39:772,-0.736999,1.46381,-9.83308,-8.99631,-5.27372,-7.18769
2023-03-15 22:18:39:782,-0.823391,1.46721,-9.87554,-8.98076,-5.23872,-6.94793
2023-03-15 22:18:39:791,-0.936129,1.41016,-9.85549,-8.95283,-5.20427,-6.69476
2023-03-15 22:18:39:802,-1.10944,1.33344,-9.70024,-8.91802,-5.17872,-6.42812
2023-03-15 22:18:39:812,-1.35595,1.3217,-9.56743,-8.88201,-5.15994,-6.16515
2023-03-15 22:18:39:822,-1.55485,1.31205,-9.43433,-8.84814,-5.1365,-5.91003
2023-03-15 22:18:39:832,-1.64984,1.27739,-9.27742,-8.82121,-5.11463,-5.67672
2023-03-15 22:18:39:842,-1.68285,1.29391,-9.1922,-8.81092,-5.09039,-5.46948
2023-03-15 22:18:39:852,-1.70837,1.36881,-9.20903,-8.83016,-5.06358,-5.29282
2023-03-15 22:18:39:862,-1.70095,1.48826,-9.32308,-8.86836,-5.0394,-5.15053
2023-03-15 22:18:39:872,-1.71403,1.60254,-9.46285,-8.92823,-5.00928,-5.0421
2023-03-15 22:18:39:881,-1.72964,1.65872,-9.54762,-8.9856,-4.97311,-4.97247
