Timestamp,Acceleration_x,Acceleration_y,Acceleration_z,roll,pitch,yaw
2023-03-15 21:26:47:337,0.351987,7.99502,-5.61039,-54.866,1.88537,148.021
2023-03-15 21:26:47:340,0.358714,7.98483,-5.62258,-54.8669,1.8877,148.02
2023-03-15 21:26:47:350,0.363447,7.98853,-5.62102,-54.8709,1.88746,148.02
2023-03-15 21:26:47:360,0.35893,7.98957,-5.61149,-54.8698,1.88903,148.02
2023-03-15 21:26:47:370,0.355446,7.98583,-5.61809,-54.8701,1.88603,148.018
2023-03-15 21:26:47:380,0.35113,7.9909,-5.60995,-54.8661,1.88554,148.019
2023-03-15 21:26:47:390,0.336901,7.9917,-5.60816,-54.8697,1.88461,148.018
2023-03-15 21:26:47:400,0.34465,7.99448,-5.61336,-54.8683,1.88197,148.023
2023-03-15 21:26:47:410,0.356312,7.97568,-5.61794,-54.8682,1.88029,148.019
2023-03-15 21:26:47:420,0.348359,7.98101,-5.61252,-54.8674,1.87853,148.018
2023-03-15 21:26:47:430,0.351312,7.9818,-5.62554,-54.8671,1.8806,148.018
2023-03-15 21:26:47:440,0.355943,7.98539,-5.61635,-54.8663,1.88149,148.015
2023-03-15 21:26:47:450,0.365657,7.98611,-5.61808,-54.863,1.8827,148.016
2023-03-15 21:26:47:460,0.366096,7.99202,-5.60968,-54.8614,1.88396,148.014
2023-03-15 21:26:47:470,0.336505,7.99485,-5.60613,-54.8624,1.88553,148.016
2023-03-15 21:26:47:480,0.336596,7.99824,-5.60178,-54.861,1.8869,148.016
2023-03-15 21:26:47:490,0.343939,7.98544,-5.60933,-54.8613,1.88448,148.017
2023-03-15 21:26:47:500,0.349921,7.98612,-5.61557,-54.8608,1.88518,148.016
2023-03-15 21:26:47:510,0.35991,7.99187,-5.61984,-54.8594,1.88703,148.017
2023-03-15 21:26:47:520,0.35842,7.99675,-5.61002,-54.8567,1.88915,148.015
2023-03-15 21:26:47:530,0.362404,7.98557,-5.61407,-54.8557,1.89027,148.016
2023-03-15 21:26:47:540,0.364231,7.9791,-5.62233,-54.8541,1.89018,148.016
2023-03-15 21:26:47:550,0.359994,7.98622,-5.62411,-54.8522,1.8952,148.019
2023-03-15 21:26:47:560,0.339284,7.99586,-5.60998,-54.8526,1.89675,148.019
2023-03-15 21:26:47:570,0.341247,7.99339,-5.60789,-54.8534,1.89292,148.019
2023-03-15 21:26:47:580,0.35123,7.97799,-5.61936,-54.8549,1.89232,148.02
2023-03-15 21:26:47:590,0.35476,7.98282,-5.61657,-54.8569,1.89347,148.02
2023-03-15 21:26:47:600,0.360957,7.98655,-5.61268,-54.8573,1.89358,148.017
2023-03-15 21:26:47:611,0.366546,7.99046,-5.61511,-54.8553,1.89281,148.012
2023-03-15 21:26:47:620,0.355689,7.99619,-5.61015,-54.8585,1.89028,148.012
2023-03-15 21:26:47:630,0.350873,7.99127,-5.61309,-54.858,1.88976,148.013
2023-03-15 21:26:47:640,0.336965,7.9928,-5.61132,-54.8566,1.88964,148.013
2023-03-15 21:26:47:650,0.340324,7.99287,-5.61339,-54.8495,1.88798,148.012
2023-03-15 21:26:47:660,0.348653,7.99203,-5.60804,-54.847,1.88628,148.013
2023-03-15 21:26:47:670,0.358464,7.99018,-5.60959,-54.8464,1.88507,148.012
2023-03-15 21:26:47:680,0.362182,7.9977,-5.61153,-54.8455,1.88677,148.011
2023-03-15 21:26:47:691,0.353209,7.98878,-5.61472,-54.8447,1.88888,148.01
2023-03-15 21:26:47:700,0.354271,7.98798,-5.62415,-54.8436,1.8883,148.015
2023-03-15 21:26:47:710,0.35744,7.99132,-5.61713,-54.8434,1.88553,148.017
2023-03-15 21:26:47:720,0.351652,7.98967,-5.61812,-54.8435,1.88359,148.019
2023-03-15 21:26:47:730,0.353928,7.99058,-5.61415,-54.8437,1.8854,148.02
2023-03-15 21:26:47:740,0.343046,7.98483,-5.61149,-54.8429,1.88601,148.022
2023-03-15 21:26:47:750,0.348395,7.99092,-5.61141,-54.8417,1.8861,148.024
2023-03-15 21:26:47:760,0.353198,8.00235,-5.61558,-54.8407,1.88383,148.023
2023-03-15 21:26:47:770,0.355753,8.00049,-5.60878,-54.8416,1.88516,148.021
2023-03-15 21:26:47:780,0.362994,7.99726,-5.61111,-54.8412,1.88376,148.02
2023-03-15 21:26:47:790,0.357199,7.99129,-5.61662,-54.8404,1.88144,148.019
2023-03-15 21:26:47:800,0.358494,7.9875,-5.61873,-54.8417,1.88261,148.017
2023-03-15 21:26:47:810,0.355296,7.98478,-5.61892,-54.8378,1.88097,148.015
2023-03-15 21:26:47:820,0.34815,7.98527,-5.61674,-54.8379,1.88101,148.016
2023-03-15 21:26:47:830,0.352118,7.99328,-5.61698,-54.8367,1.88032,148.014
2023-03-15 21:26:47:840,0.358938,7.99973,-5.61392,-54.8382,1.87634,148.013
2023-03-15 21:26:47:850,0.363424,7.9906,-5.61278,-54.8353,1.87669,148.011
2023-03-15 21:26:47:860,0.346775,7.98243,-5.62037,-54.8368,1.87772,148.011
2023-03-15 21:26:47:870,0.344787,7.97229,-5.61469,-54.8388,1.87704,148.009
2023-03-15 21:26:47:880,0.354083,7.97734,-5.62609,-54.8385,1.87701,148.01
2023-03-15 21:26:47:890,0.360604,7.98776,-5.61615,-54.8414,1.87962,148.01
2023-03-15 21:26:47:900,0.362459,7.99018,-5.61366,-54.8464,1.88161,148.012
2023-03-15 21:26:47:910,0.346581,7.99087,-5.61781,-54.8452,1.88102,148.009
2023-03-15 21:26:47:920,0.350566,7.99439,-5.60853,-54.844,1.8806,148.007
2023-03-15 21:26:47:930,0.34922,7.99933,-5.61244,-54.8417,1.88174,148.007
2023-03-15 21:26:47:940,0.345552,7.9971,-5.61019,-54.8434,1.88336,148.005
2023-03-15 21:26:47:950,0.353685,7.98485,-5.61866,-54.8424,1.88251,148.005
2023-03-15 21:26:47:960,0.361727,7.98534,-5.61866,-54.8423,1.88336,148.007
2023-03-15 21:26:47:970,0.349438,7.98712,-5.61498,-54.8425,1.88448,148.007
2023-03-15 21:26:47:980,0.361025,7.98375,-5.61678,-54.8425,1.88113,148.007
2023-03-15 21:26:47:990,0.361081,7.98436,-5.62012,-54.845,1.87968,148.009
2023-03-15 21:26:48:0,0.358499,7.98863,-5.61711,-54.845,1.87952,148.01
2023-03-15 21:26:48:10,0.347801,7.99137,-5.61547,-54.8447,1.87704,148.008
2023-03-15 21:26:48:20,0.352159,7.98122,-5.62171,-54.8467,1.87824,148.005
2023-03-15 21:26:48:30,0.353809,7.98715,-5.6224,-54.8474,1.87858,148.007
2023-03-15 21:26:48:40,0.355185,7.99644,-5.61313,-54.8484,1.87867,148.007
2023-03-15 21:26:48:50,0.365011,7.98863,-5.61774,-54.8473,1.8781,148.008
2023-03-15 21:26:48:60,0.353372,7.98212,-5.60914,-54.8471,1.88176,148.005
2023-03-15 21:26:48:70,0.352925,7.99151,-5.60748,-54.8505,1.88204,148.002
2023-03-15 21:26:48:80,0.353876,7.98819,-5.61235,-54.8518,1.88203,148.003
2023-03-15 21:26:48:90,0.358208,7.99996,-5.6144,-54.8502,1.88268,148.005
2023-03-15 21:26:48:100,0.349467,7.98682,-5.62228,-54.85,1.88034,148.002
2023-03-15 21:26:48:110,0.346827,7.98805,-5.61941,-54.8513,1.88167,148.001
2023-03-15 21:26:48:120,0.363087,7.99784,-5.60884,-54.8539,1.88297,148.001
2023-03-15 21:26:48:130,0.36034,7.99387,-5.61407,-54.8498,1.88431,148.002
2023-03-15 21:26:48:140,0.354211,7.99998,-5.61119,-54.852,1.88245,148.003
2023-03-15 21:26:48:150,0.35626,7.99574,-5.62069,-54.853,1.88377,148.002
2023-03-15 21:26:48:160,0.362483,7.98747,-5.61268,-54.8529,1.88377,148.002
2023-03-15 21:26:48:170,0.368422,7.99432,-5.60855,-54.8532,1.88597,148.003
2023-03-15 21:26:48:180,0.360922,7.98526,-5.61858,-54.8539,1.88758,148.004
2023-03-15 21:26:48:190,0.349022,7.98444,-5.61942,-54.8543,1.88867,148.005
2023-03-15 21:26:48:200,0.352412,7.99366,-5.60944,-54.8555,1.88923,148.006
2023-03-15 21:26:48:211,0.344895,7.99168,-5.61633,-54.8582,1.89294,148.011
2023-03-15 21:26:48:220,0.355256,7.98853,-5.62113,-54.8548,1.89542,148.012
2023-03-15 21:26:48:231,0.355026,7.98781,-5.6087,-54.853,1.8922,148.011
2023-03-15 21:26:48:240,0.35441,7.99252,-5.60142,-54.8518,1.89065,148.013
2023-03-15 21:26:48:250,0.356474,7.99499,-5.61403,-54.8525,1.88972,148.012
2023-03-15 21:26:48:260,0.352014,7.98036,-5.60937,-54.8519,1.88933,148.013
2023-03-15 21:26:48:270,0.350926,7.98112,-5.61448,-54.8493,1.892,148.013
2023-03-15 21:26:48:280,0.344807,7.9811,-5.62642,-54.8513,1.89144,148.012
2023-03-15 21:26:48:290,0.345106,7.98455,-5.62636,-54.8496,1.89352,148.009
2023-03-15 21:26:48:300,0.349477,7.98523,-5.62219,-54.8509,1.89178,148.012
2023-03-15 21:26:48:310,0.349491,7.98097,-5.62395,-54.8537,1.88821,148.012
2023-03-15 21:26:48:320,0.348276,7.9795,-5.61541,-54.8549,1.88595,148.011
2023-03-15 21:26:48:330,0.355811,7.99208,-5.608,-54.8533,1.887,148.012
2023-03-15 21:26:48:340,0.35606,7.99498,-5.61532,-54.8531,1.88881,148.01
2023-03-15 21:26:48:350,0.356019,7.98357,-5.61957,-54.8551,1.8894,148.009
2023-03-15 21:26:48:360,0.349878,7.98854,-5.61937,-54.8576,1.88671,148.009
2023-03-15 21:26:48:370,0.355692,8.00235,-5.61544,-54.858,1.88123,148.01
2023-03-15 21:26:48:380,0.349021,8.00058,-5.61667,-54.8586,1.88047,148.007
2023-03-15 21:26:48:390,0.354423,7.9927,-5.61035,-54.86,1.87965,148.005
2023-03-15 21:26:48:400,0.346401,7.98569,-5.61331,-54.8592,1.87922,148.003
2023-03-15 21:26:48:411,0.345133,7.98967,-5.60739,-54.8587,1.88008,148.003
2023-03-15 21:26:48:420,0.36176,7.9953,-5.60565,-54.8582,1.87957,148.001
2023-03-15 21:26:48:430,0.359961,7.97905,-5.62381,-54.8563,1.87959,148
2023-03-15 21:26:48:440,0.360635,7.98279,-5.627,-54.857,1.88124,148
2023-03-15 21:26:48:450,0.35205,7.98079,-5.61513,-54.8551,1.88118,148.001
2023-03-15 21:26:48:460,0.344686,7.97671,-5.61382,-54.8522,1.8808,148.002
2023-03-15 21:26:48:470,0.328308,7.98786,-5.62206,-54.853,1.87747,148.002
2023-03-15 21:26:48:480,0.343802,7.98745,-5.61403,-54.8517,1.87468,148.005
2023-03-15 21:26:48:490,0.360725,7.98063,-5.61539,-54.85,1.87228,148.008
2023-03-15 21:26:48:500,0.369711,7.97399,-5.62429,-54.848,1.87495,148.012
2023-03-15 21:26:48:510,0.367077,7.97651,-5.62988,-54.8473,1.87395,148.011
2023-03-15 21:26:48:520,0.361776,7.97934,-5.62675,-54.848,1.87589,148.01
2023-03-15 21:26:48:531,0.353214,7.98342,-5.60648,-54.8478,1.8767,148.011
2023-03-15 21:26:48:541,0.348529,7.98081,-5.62232,-54.8482,1.87671,148.008
2023-03-15 21:26:48:550,0.357719,7.98552,-5.6265,-54.8492,1.87864,148.005
2023-03-15 21:26:48:561,0.344195,7.99155,-5.61162,-54.8485,1.87534,148.008
2023-03-15 21:26:48:571,0.335578,7.98904,-5.60453,-54.8531,1.87302,148.007
2023-03-15 21:26:48:581,0.363316,7.99219,-5.61393,-54.8551,1.8744,148.006
2023-03-15 21:26:48:591,0.356125,7.99029,-5.62009,-54.8531,1.87253,148.01
2023-03-15 21:26:48:600,0.362306,7.99101,-5.62097,-54.8485,1.87273,148.012
2023-03-15 21:26:48:610,0.368922,7.98612,-5.62255,-54.8463,1.87494,148.01
2023-03-15 21:26:48:621,0.357329,7.98069,-5.61762,-54.8469,1.86951,148.014
2023-03-15 21:26:48:631,0.348701,7.9839,-5.61803,-54.8464,1.87099,148.015
2023-03-15 21:26:48:640,0.34455,7.9869,-5.6116,-54.8473,1.87272,148.017
2023-03-15 21:26:48:650,0.356283,7.99449,-5.61687,-54.8488,1.87338,148.019
2023-03-15 21:26:48:660,0.349967,7.9992,-5.60782,-54.849,1.8706,148.018
2023-03-15 21:26:48:670,0.349248,7.98605,-5.61878,-54.8477,1.8718,148.019
2023-03-15 21:26:48:681,0.354613,7.97385,-5.62105,-54.8478,1.87071,148.02
2023-03-15 21:26:48:691,0.359783,7.99099,-5.61421,-54.8469,1.87519,148.019
2023-03-15 21:26:48:700,0.360767,7.99834,-5.61644,-54.8483,1.87379,148.019
2023-03-15 21:26:48:710,0.358023,7.98672,-5.6059,-54.8512,1.87361,148.016
2023-03-15 21:26:48:720,0.352631,7.98687,-5.6168,-54.8512,1.87364,148.013
2023-03-15 21:26:48:730,0.343764,7.99878,-5.60962,-54.8539,1.87199,148.015
2023-03-15 21:26:48:740,0.355225,7.99492,-5.60777,-54.8514,1.87449,148.014
2023-03-15 21:26:48:750,0.352469,7.99272,-5.61205,-54.8507,1.87329,148.015
2023-03-15 21:26:48:760,0.351058,7.99114,-5.60854,-54.8513,1.87328,148.014
2023-03-15 21:26:48:770,0.357216,7.99127,-5.61315,-54.8509,1.87343,148.014
2023-03-15 21:26:48:780,0.354151,7.989,-5.6166,-54.8514,1.87108,148.014
2023-03-15 21:26:48:790,0.359294,7.99458,-5.60134,-54.8501,1.87043,148.012
2023-03-15 21:26:48:800,0.358059,7.98736,-5.61135,-54.851,1.87071,148.013
2023-03-15 21:26:48:811,0.355909,7.99667,-5.60042,-54.8504,1.86931,148.011
2023-03-15 21:26:48:820,0.358032,7.99532,-5.60831,-54.8525,1.86897,148.013
2023-03-15 21:26:48:831,0.356111,7.98782,-5.62408,-54.8496,1.86789,148.013
2023-03-15 21:26:48:840,0.360149,7.99679,-5.62554,-54.847,1.86896,148.014
2023-03-15 21:26:48:850,0.364514,7.98383,-5.6222,-54.842,1.86815,148.016
2023-03-15 21:26:48:860,0.359962,7.98806,-5.61414,-54.8405,1.86727,148.012
2023-03-15 21:26:48:870,0.349867,7.98995,-5.61842,-54.84,1.86661,148.012
2023-03-15 21:26:48:880,0.354575,7.98911,-5.61327,-54.8383,1.86468,148.007
2023-03-15 21:26:48:890,0.360753,7.99289,-5.61198,-54.8368,1.86461,148.007
2023-03-15 21:26:48:900,0.350195,7.99012,-5.61721,-54.8373,1.86243,148.008
2023-03-15 21:26:48:910,0.356863,7.99011,-5.61858,-54.837,1.8638,148.006
2023-03-15 21:26:48:920,0.365531,7.97831,-5.63095,-54.8358,1.86359,148.008
2023-03-15 21:26:48:930,0.352169,7.98604,-5.62589,-54.8358,1.86171,148.01
2023-03-15 21:26:48:940,0.346738,7.98381,-5.62299,-54.8354,1.86034,148.005
2023-03-15 21:26:48:950,0.353534,7.99403,-5.61938,-54.8361,1.85825,148.005
2023-03-15 21:26:48:960,0.34745,7.98801,-5.6097,-54.833,1.85609,148.003
2023-03-15 21:26:48:970,0.349577,7.9786,-5.61293,-54.8326,1.85595,148.003
2023-03-15 21:26:48:981,0.364233,7.98234,-5.62909,-54.8316,1.85354,148
2023-03-15 21:26:48:991,0.362871,7.98597,-5.62536,-54.8306,1.85517,147.997
2023-03-15 21:26:49:0,0.356633,7.97899,-5.61568,-54.8293,1.85543,147.998
2023-03-15 21:26:49:11,0.355043,7.98143,-5.61064,-54.8292,1.85378,148
2023-03-15 21:26:49:20,0.344017,7.99578,-5.6214,-54.8333,1.8517,148
2023-03-15 21:26:49:30,0.343625,7.99562,-5.60947,-54.833,1.84823,148.001
2023-03-15 21:26:49:40,0.350532,7.98529,-5.60875,-54.8335,1.84677,148
2023-03-15 21:26:49:50,0.354159,7.98708,-5.60628,-54.8356,1.84475,148
2023-03-15 21:26:49:60,0.343419,7.9733,-5.6238,-54.8354,1.84231,148.002
2023-03-15 21:26:49:70,0.364793,7.97774,-5.62217,-54.837,1.84333,148.005
2023-03-15 21:26:49:80,0.348668,7.99168,-5.61598,-54.8372,1.84212,148.006
2023-03-15 21:26:49:90,0.342827,7.983,-5.61919,-54.8353,1.84107,148.003
2023-03-15 21:26:49:100,0.362298,7.98051,-5.63107,-54.8373,1.84029,148.001
2023-03-15 21:26:49:110,0.355608,7.97251,-5.62917,-54.84,1.839,147.998
2023-03-15 21:26:49:120,0.35461,7.98401,-5.62377,-54.8457,1.83884,147.998
2023-03-15 21:26:49:130,0.363075,7.99025,-5.61578,-54.8466,1.83958,148.002
2023-03-15 21:26:49:140,0.34958,7.99228,-5.61192,-54.8472,1.84001,148.003
2023-03-15 21:26:49:150,0.340691,7.98812,-5.60986,-54.8454,1.83422,148.001
2023-03-15 21:26:49:160,0.350432,7.98854,-5.6197,-54.8438,1.83098,148
2023-03-15 21:26:49:171,0.362588,7.99041,-5.61651,-54.8458,1.83,148
2023-03-15 21:26:49:180,0.362134,7.98737,-5.61479,-54.8464,1.82964,147.999
2023-03-15 21:26:49:191,0.358302,7.98877,-5.6098,-54.8477,1.83237,148
2023-03-15 21:26:49:200,0.350365,7.98606,-5.60841,-54.8475,1.83007,147.999
2023-03-15 21:26:49:210,0.357741,7.98215,-5.61545,-54.8482,1.82901,147.998
2023-03-15 21:26:49:220,0.361276,7.99587,-5.60443,-54.8508,1.82791,147.999
2023-03-15 21:26:49:230,0.354058,7.98523,-5.62151,-54.851,1.82778,148.001
2023-03-15 21:26:49:240,0.353704,7.99149,-5.62015,-54.8497,1.82946,148.001
2023-03-15 21:26:49:250,0.348756,7.985,-5.62048,-54.8495,1.83045,148.001
2023-03-15 21:26:49:260,0.35119,7.98591,-5.61694,-54.8506,1.82764,148
2023-03-15 21:26:49:271,0.355037,7.9917,-5.61368,-54.8491,1.82806,148
2023-03-15 21:26:49:280,0.346102,7.99662,-5.61077,-54.8492,1.82989,148.001
2023-03-15 21:26:49:291,0.351498,7.99574,-5.61025,-54.8496,1.82956,147.999
2023-03-15 21:26:49:300,0.356124,7.99683,-5.60365,-54.8498,1.83046,147.998
2023-03-15 21:26:49:311,0.350425,7.98805,-5.61012,-54.8521,1.83318,147.999
2023-03-15 21:26:49:320,0.354229,7.98863,-5.61722,-54.8512,1.83207,147.997
2023-03-15 21:26:49:331,0.349559,8.00033,-5.6079,-54.8516,1.83424,147.999
2023-03-15 21:26:49:340,0.346149,8.0061,-5.60725,-54.8509,1.83316,147.997
2023-03-15 21:26:49:350,0.350378,7.99405,-5.61137,-54.8482,1.83544,147.996
2023-03-15 21:26:49:360,0.352743,7.98973,-5.60999,-54.8491,1.83288,147.995
2023-03-15 21:26:49:370,0.363677,7.99617,-5.61663,-54.8475,1.83236,147.992
2023-03-15 21:26:49:380,0.363386,7.99437,-5.60266,-54.8485,1.83156,147.991
2023-03-15 21:26:49:390,0.351964,7.98847,-5.60812,-54.8452,1.83108,147.989
2023-03-15 21:26:49:400,0.353223,7.99578,-5.59469,-54.8467,1.82727,147.99
2023-03-15 21:26:49:411,0.345605,7.99305,-5.60507,-54.8473,1.82669,147.993
2023-03-15 21:26:49:420,0.343912,7.98816,-5.60941,-54.8499,1.82404,147.992
2023-03-15 21:26:49:430,0.341304,7.99781,-5.60599,-54.8515,1.82577,147.992
2023-03-15 21:26:49:440,0.334177,7.98766,-5.62128,-54.8519,1.82413,147.992
2023-03-15 21:26:49:450,0.345356,7.97606,-5.62012,-54.8483,1.82218,147.989
2023-03-15 21:26:49:460,0.347188,7.97951,-5.61991,-54.8491,1.8193,147.99
2023-03-15 21:26:49:470,0.355429,7.97583,-5.62891,-54.8486,1.81804,147.99
2023-03-15 21:26:49:480,0.353573,7.98914,-5.61817,-54.8471,1.81387,147.99
2023-03-15 21:26:49:490,0.347597,7.9925,-5.61861,-54.8473,1.80926,147.988
2023-03-15 21:26:49:500,0.349411,7.9886,-5.60529,-54.8477,1.80547,147.987
2023-03-15 21:26:49:511,0.356572,7.98425,-5.6086,-54.8492,1.80424,147.989
2023-03-15 21:26:49:520,0.360213,7.9921,-5.6098,-54.848,1.80389,147.99
2023-03-15 21:26:49:530,0.366659,7.98654,-5.62372,-54.8487,1.8046,147.988
2023-03-15 21:26:49:540,0.356924,7.98928,-5.62185,-54.8497,1.80592,147.988
2023-03-15 21:26:49:550,0.342414,7.99271,-5.61263,-54.8482,1.80638,147.988
2023-03-15 21:26:49:560,0.360229,7.99171,-5.61897,-54.8488,1.80751,147.987
2023-03-15 21:26:49:570,0.353978,7.99714,-5.61147,-54.8489,1.80658,147.987
2023-03-15 21:26:49:580,0.360922,7.98562,-5.61708,-54.8484,1.81014,147.99
2023-03-15 21:26:49:590,0.358991,7.98724,-5.61618,-54.8497,1.8094,147.991
2023-03-15 21:26:49:600,0.362205,7.98699,-5.61637,-54.8482,1.80794,147.994
2023-03-15 21:26:49:610,0.35311,7.98788,-5.6059,-54.8508,1.8081,147.993
2023-03-15 21:26:49:620,0.356082,7.98521,-5.6193,-54.8494,1.80846,147.992
2023-03-15 21:26:49:630,0.365857,7.99163,-5.61879,-54.8476,1.80951,147.991
2023-03-15 21:26:49:640,0.354842,7.98558,-5.61264,-54.8489,1.80986,147.989
2023-03-15 21:26:49:650,0.345952,7.99408,-5.61153,-54.8519,1.80973,147.992
2023-03-15 21:26:49:660,0.351538,7.98452,-5.61431,-54.8539,1.80811,147.993
2023-03-15 21:26:49:670,0.344609,7.99322,-5.60908,-54.8532,1.80735,147.993
2023-03-15 21:26:49:680,0.351581,7.98924,-5.61595,-54.8544,1.808,147.991
2023-03-15 21:26:49:690,0.339956,7.98831,-5.61152,-54.855,1.80801,147.993
2023-03-15 21:26:49:700,0.354329,7.98094,-5.62105,-54.8585,1.80653,147.992
2023-03-15 21:26:49:710,0.355754,7.98601,-5.61971,-54.8561,1.80828,147.989
2023-03-15 21:26:49:720,0.359364,8.00367,-5.60597,-54.8556,1.81107,147.987
2023-03-15 21:26:49:730,0.350223,7.99659,-5.61889,-54.8536,1.81165,147.986
2023-03-15 21:26:49:740,0.347283,7.98727,-5.61127,-54.8544,1.81398,147.989
2023-03-15 21:26:49:751,0.350024,7.98614,-5.62209,-54.8557,1.81774,147.988
2023-03-15 21:26:49:760,0.346964,7.98642,-5.6227,-54.8577,1.81776,147.987
2023-03-15 21:26:49:770,0.355639,7.99393,-5.60679,-54.8562,1.81962,147.988
2023-03-15 21:26:49:780,0.36232,7.99474,-5.61596,-54.8557,1.82227,147.986
2023-03-15 21:26:49:790,0.343351,7.98965,-5.61915,-54.853,1.82189,147.985
2023-03-15 21:26:49:800,0.35438,7.98233,-5.62376,-54.8547,1.82274,147.985
2023-03-15 21:26:49:810,0.354664,7.9898,-5.61147,-54.8528,1.82103,147.987
2023-03-15 21:26:49:820,0.356184,7.98987,-5.61238,-54.8493,1.81944,147.986
2023-03-15 21:26:49:830,0.353496,7.98426,-5.6219,-54.8502,1.8189,147.986
2023-03-15 21:26:49:840,0.346326,7.99194,-5.6144,-54.8491,1.81877,147.988
2023-03-15 21:26:49:850,0.354476,7.99108,-5.61163,-54.8476,1.8182,147.988
2023-03-15 21:26:49:860,0.356476,7.98792,-5.61546,-54.8482,1.81763,147.989
2023-03-15 21:26:49:870,0.348472,7.9936,-5.61663,-54.846,1.81941,147.99
2023-03-15 21:26:49:880,0.34589,7.99117,-5.61991,-54.8465,1.81925,147.99
2023-03-15 21:26:49:891,0.355539,7.99336,-5.61832,-54.8471,1.81715,147.989
2023-03-15 21:26:49:900,0.358165,7.99639,-5.60862,-54.8487,1.81499,147.987
2023-03-15 21:26:49:910,0.34675,7.97961,-5.62173,-54.8503,1.8156,147.988
2023-03-15 21:26:49:920,0.350302,7.98253,-5.62843,-54.8512,1.81546,147.987
2023-03-15 21:26:49:930,0.347422,7.99352,-5.60638,-54.8538,1.81534,147.986
2023-03-15 21:26:49:940,0.349447,7.97772,-5.62889,-54.8532,1.81851,147.984
2023-03-15 21:26:49:950,0.348965,7.98701,-5.62065,-54.8506,1.81868,147.983
2023-03-15 21:26:49:960,0.346802,7.99572,-5.61191,-54.8489,1.82014,147.985
2023-03-15 21:26:49:970,0.338047,8.00638,-5.61236,-54.8486,1.81878,147.986
2023-03-15 21:26:49:980,0.341175,8.00371,-5.60515,-54.8496,1.82011,147.986
2023-03-15 21:26:49:990,0.344727,7.99961,-5.60679,-54.8529,1.82487,147.988
2023-03-15 21:26:50:0,0.337094,7.99607,-5.6084,-54.8576,1.82588,147.99
2023-03-15 21:26:50:10,0.359782,7.98672,-5.61541,-54.8575,1.82585,147.989
2023-03-15 21:26:50:20,0.383204,7.9824,-5.61701,-54.8557,1.82551,147.988
2023-03-15 21:26:50:30,0.37636,7.98714,-5.62475,-54.8545,1.82573,147.99
2023-03-15 21:26:50:40,0.367783,7.98684,-5.62125,-54.8527,1.82434,147.99
2023-03-15 21:26:50:50,0.358628,7.98307,-5.6114,-54.8573,1.82218,147.991
2023-03-15 21:26:50:60,0.357981,7.99056,-5.61671,-54.8605,1.82149,147.995
2023-03-15 21:26:50:70,0.342541,7.98709,-5.61937,-54.8608,1.82104,147.995
2023-03-15 21:26:50:80,0.351403,7.99364,-5.61154,-54.8617,1.82383,147.995
2023-03-15 21:26:50:90,0.349923,7.99693,-5.60229,-54.8582,1.82278,147.996
2023-03-15 21:26:50:100,0.353744,7.99378,-5.61019,-54.8627,1.82585,147.996
2023-03-15 21:26:50:110,0.361999,7.98682,-5.60925,-54.8637,1.8259,147.998
2023-03-15 21:26:50:120,0.364509,7.99071,-5.61457,-54.8621,1.82621,147.999
2023-03-15 21:26:50:130,0.365006,7.98814,-5.61521,-54.8615,1.82397,147.996
2023-03-15 21:26:50:140,0.345082,7.98518,-5.60347,-54.8609,1.82235,147.998
2023-03-15 21:26:50:150,0.341668,7.98433,-5.59808,-54.8602,1.822,148
2023-03-15 21:26:50:160,0.347435,7.99287,-5.59412,-54.8575,1.82037,147.999
2023-03-15 21:26:50:170,0.349582,7.99025,-5.61077,-54.8611,1.82057,147.998
2023-03-15 21:26:50:180,0.374254,7.99551,-5.60667,-54.8595,1.82081,147.998
2023-03-15 21:26:50:190,0.35466,7.99004,-5.60749,-54.8606,1.82116,148
2023-03-15 21:26:50:200,0.354008,7.98794,-5.61016,-54.8587,1.82238,148
2023-03-15 21:26:50:210,0.362994,7.98969,-5.61188,-54.8604,1.82274,148.001
2023-03-15 21:26:50:220,0.366059,7.98558,-5.61393,-54.8635,1.82182,148.004
2023-03-15 21:26:50:230,0.360137,7.99763,-5.61043,-54.8635,1.8199,148.003
2023-03-15 21:26:50:240,0.360947,7.99481,-5.61229,-54.8631,1.82277,148.002
2023-03-15 21:26:50:250,0.367778,7.98828,-5.60787,-54.8608,1.82228,148.001
2023-03-15 21:26:50:260,0.357829,8.00161,-5.60434,-54.8602,1.82032,148.001
2023-03-15 21:26:50:270,0.361063,7.98614,-5.61485,-54.8608,1.8194,148.002
2023-03-15 21:26:50:280,0.363497,7.98519,-5.61268,-54.8613,1.82385,148.001
2023-03-15 21:26:50:290,0.358627,7.98765,-5.61662,-54.8618,1.82697,148.001
2023-03-15 21:26:50:300,0.356673,7.99383,-5.61509,-54.8605,1.82919,148
2023-03-15 21:26:50:310,0.347878,8.00179,-5.60075,-54.8604,1.82808,147.998
2023-03-15 21:26:50:320,0.352831,8.00023,-5.60656,-54.8621,1.82814,147.993
2023-03-15 21:26:50:330,0.349239,8.00259,-5.61172,-54.8597,1.82656,147.994
2023-03-15 21:26:50:340,0.343614,7.99097,-5.61046,-54.8608,1.82747,147.991
2023-03-15 21:26:50:350,0.354665,7.98432,-5.6116,-54.8575,1.8295,147.99
2023-03-15 21:26:50:360,0.364988,7.97726,-5.61346,-54.8585,1.82879,147.991
2023-03-15 21:26:50:370,0.368002,7.98382,-5.61385,-54.8591,1.8251,147.996
2023-03-15 21:26:50:380,0.358094,7.99017,-5.6107,-54.8593,1.8284,147.997
2023-03-15 21:26:50:390,0.364537,7.98397,-5.61462,-54.8588,1.82809,147.998
2023-03-15 21:26:50:400,0.366716,7.986,-5.61198,-54.8565,1.82714,147.997
2023-03-15 21:26:50:410,0.351257,7.97936,-5.60894,-54.8531,1.8255,147.994
2023-03-15 21:26:50:420,0.356523,7.98731,-5.60758,-54.855,1.82525,147.994
2023-03-15 21:26:50:430,0.360049,7.98085,-5.61488,-54.8577,1.826,147.996
2023-03-15 21:26:50:440,0.368714,7.96985,-5.62759,-54.8584,1.82537,147.998
2023-03-15 21:26:50:450,0.352106,7.98344,-5.61044,-54.8597,1.82658,147.999
2023-03-15 21:26:50:460,0.358012,7.97548,-5.62344,-54.8603,1.82507,147.999
2023-03-15 21:26:50:470,0.352682,7.98023,-5.62203,-54.8579,1.82347,148
2023-03-15 21:26:50:480,0.348492,7.98231,-5.62168,-54.8587,1.82419,148.001
2023-03-15 21:26:50:490,0.352348,7.99014,-5.60447,-54.861,1.82298,148.004
2023-03-15 21:26:50:500,0.354888,7.98018,-5.61751,-54.8594,1.824,148.004
2023-03-15 21:26:50:510,0.368098,7.99085,-5.61664,-54.8604,1.83032,148
2023-03-15 21:26:50:520,0.353935,7.99777,-5.60339,-54.8624,1.83317,147.997
2023-03-15 21:26:50:530,0.356021,7.98703,-5.61333,-54.8623,1.83391,147.995
2023-03-15 21:26:50:540,0.359826,7.98269,-5.62439,-54.8658,1.83041,147.993
2023-03-15 21:26:50:550,0.35834,7.97926,-5.62176,-54.8651,1.83238,147.994
2023-03-15 21:26:50:560,0.364025,7.99305,-5.61369,-54.8652,1.83226,147.997
2023-03-15 21:26:50:570,0.355221,7.99849,-5.61428,-54.8647,1.83225,147.999
2023-03-15 21:26:50:580,0.354192,7.99721,-5.61304,-54.8647,1.83497,148
2023-03-15 21:26:50:590,0.355367,7.98435,-5.61729,-54.8671,1.83457,147.999
2023-03-15 21:26:50:600,0.359952,7.98065,-5.61992,-54.8662,1.83515,148.002
2023-03-15 21:26:50:610,0.359045,7.99095,-5.6146,-54.8677,1.83617,148
2023-03-15 21:26:50:620,0.357977,7.99246,-5.61631,-54.8642,1.83504,148.006
2023-03-15 21:26:50:630,0.368745,7.99277,-5.61739,-54.863,1.83102,148.007
2023-03-15 21:26:50:640,0.351629,7.98294,-5.62382,-54.8628,1.83131,148.006
2023-03-15 21:26:50:650,0.34921,7.99197,-5.60542,-54.861,1.82927,148.005
2023-03-15 21:26:50:660,0.353332,7.997,-5.59883,-54.8607,1.82752,148
2023-03-15 21:26:50:670,0.348516,7.992,-5.61263,-54.8627,1.82847,148.001
2023-03-15 21:26:50:680,0.358932,7.99471,-5.61592,-54.8653,1.82691,147.999
2023-03-15 21:26:50:690,0.369197,7.99452,-5.6088,-54.8633,1.82546,148.002
2023-03-15 21:26:50:700,0.36628,7.98918,-5.60566,-54.8664,1.82668,148.002
2023-03-15 21:26:50:710,0.356743,7.97993,-5.6198,-54.8647,1.82445,148
2023-03-15 21:26:50:720,0.358822,7.97944,-5.62136,-54.8634,1.82509,147.998
2023-03-15 21:26:50:730,0.350483,7.99228,-5.61858,-54.8647,1.82503,147.996
2023-03-15 21:26:50:740,0.351777,7.99156,-5.61818,-54.8637,1.82665,147.992
2023-03-15 21:26:50:750,0.359294,7.99297,-5.61169,-54.8621,1.82645,147.989
2023-03-15 21:26:50:760,0.349091,7.99686,-5.60658,-54.8639,1.82635,147.99
2023-03-15 21:26:50:770,0.348094,7.98842,-5.61862,-54.8628,1.82385,147.99
2023-03-15 21:26:50:780,0.352928,7.98444,-5.62091,-54.862,1.8245,147.991
2023-03-15 21:26:50:790,0.363192,7.99031,-5.61974,-54.8635,1.82629,147.995
2023-03-15 21:26:50:800,0.369494,7.99542,-5.62218,-54.8637,1.82757,147.996
2023-03-15 21:26:50:810,0.368163,7.99182,-5.62045,-54.8629,1.82904,147.999
2023-03-15 21:26:50:820,0.368242,8.00765,-5.60706,-54.8635,1.82906,148
2023-03-15 21:26:50:830,0.356853,7.99347,-5.61523,-54.8644,1.82929,147.997
2023-03-15 21:26:50:840,0.346568,7.99444,-5.61277,-54.8659,1.82955,147.997
2023-03-15 21:26:50:850,0.350612,7.99471,-5.6098,-54.8671,1.83009,147.995
2023-03-15 21:26:50:860,0.36185,7.99799,-5.61165,-54.8659,1.82957,147.993
2023-03-15 21:26:50:870,0.354402,7.98752,-5.61646,-54.8663,1.82993,147.992
2023-03-15 21:26:50:880,0.352969,7.98406,-5.61749,-54.8638,1.82786,147.993
2023-03-15 21:26:50:890,0.365253,7.98962,-5.62641,-54.8634,1.8285,147.996
2023-03-15 21:26:50:900,0.354902,7.97406,-5.63612,-54.8588,1.83171,147.996
2023-03-15 21:26:50:910,0.358288,8.00038,-5.61276,-54.858,1.83343,147.997
2023-03-15 21:26:50:920,0.361578,7.99311,-5.60919,-54.8607,1.83448,148.002
2023-03-15 21:26:50:930,0.35701,7.99087,-5.61975,-54.8621,1.83846,148.003
2023-03-15 21:26:50:940,0.346999,7.99591,-5.60993,-54.8607,1.83524,148.004
2023-03-15 21:26:50:950,0.345279,7.99104,-5.60697,-54.8598,1.835,148.005
2023-03-15 21:26:50:960,0.342393,7.9929,-5.61531,-54.8615,1.83748,148.005
2023-03-15 21:26:50:970,0.342627,7.99595,-5.61354,-54.863,1.83886,148.003
2023-03-15 21:26:50:980,0.349451,7.9857,-5.62412,-54.8607,1.83794,148.001
2023-03-15 21:26:50:990,0.358844,7.98448,-5.62761,-54.8599,1.83784,148
2023-03-15 21:26:51:0,0.350593,7.9891,-5.62998,-54.8631,1.83943,148.004
2023-03-15 21:26:51:10,0.352012,7.99408,-5.61866,-54.8578,1.84042,148.004
2023-03-15 21:26:51:20,0.356188,7.98779,-5.61356,-54.856,1.84019,148.004
2023-03-15 21:26:51:30,0.359463,7.9943,-5.61127,-54.8562,1.84244,148.005
2023-03-15 21:26:51:40,0.349802,7.99202,-5.61465,-54.8566,1.84314,148.006
2023-03-15 21:26:51:50,0.360483,7.98613,-5.61084,-54.8557,1.84431,148.006
2023-03-15 21:26:51:60,0.354942,7.98638,-5.59829,-54.8543,1.84543,148.006
2023-03-15 21:26:51:70,0.349843,7.99094,-5.60994,-54.8554,1.84844,148.005
2023-03-15 21:26:51:80,0.362073,7.99619,-5.60466,-54.8551,1.84814,148.003
2023-03-15 21:26:51:90,0.359382,7.99204,-5.61337,-54.8527,1.84484,148.006
2023-03-15 21:26:51:100,0.352574,7.99489,-5.60683,-54.8516,1.84448,148.007
2023-03-15 21:26:51:110,0.348275,7.99711,-5.61028,-54.8523,1.84462,148.01
2023-03-15 21:26:51:120,0.348344,7.99859,-5.59966,-54.8545,1.84217,148.011
2023-03-15 21:26:51:130,0.347328,7.99386,-5.59951,-54.8543,1.84203,148.012
2023-03-15 21:26:51:140,0.337482,7.99511,-5.60323,-54.8585,1.84272,148.011
2023-03-15 21:26:51:150,0.34686,7.99258,-5.60981,-54.8578,1.84358,148.013
2023-03-15 21:26:51:160,0.336208,7.99117,-5.6049,-54.8591,1.84393,148.013
2023-03-15 21:26:51:170,0.341035,7.9898,-5.61679,-54.8594,1.84388,148.012
2023-03-15 21:26:51:180,0.353248,7.99592,-5.62393,-54.8601,1.84212,148.011
2023-03-15 21:26:51:190,0.346695,7.97869,-5.62166,-54.8582,1.84237,148.009
2023-03-15 21:26:51:200,0.353164,7.97851,-5.61548,-54.8597,1.83787,148.009
2023-03-15 21:26:51:210,0.366231,7.98863,-5.6237,-54.8576,1.83762,148.01
2023-03-15 21:26:51:220,0.358314,8.00014,-5.6184,-54.8561,1.83909,148.009
2023-03-15 21:26:51:230,0.360357,7.98928,-5.62356,-54.8574,1.84172,148.01
2023-03-15 21:26:51:240,0.353224,7.99527,-5.62587,-54.8569,1.84155,148.012
2023-03-15 21:26:51:250,0.343756,7.9973,-5.62099,-54.8589,1.84359,148.011
2023-03-15 21:26:51:260,0.360893,7.99853,-5.61899,-54.8598,1.84359,148.011
2023-03-15 21:26:51:270,0.362055,7.99953,-5.61324,-54.8604,1.84299,148.014
2023-03-15 21:26:51:280,0.358407,7.99725,-5.60825,-54.8622,1.84505,148.015
2023-03-15 21:26:51:290,0.36328,7.99577,-5.60301,-54.8636,1.84525,148.013
2023-03-15 21:26:51:300,0.35624,7.98951,-5.61403,-54.8653,1.84235,148.013
2023-03-15 21:26:51:310,0.352082,7.98113,-5.61816,-54.8642,1.83872,148.012
2023-03-15 21:26:51:320,0.350043,7.99901,-5.61758,-54.8645,1.83738,148.011
2023-03-15 21:26:51:330,0.348583,7.99924,-5.61919,-54.8665,1.83672,148.01
2023-03-15 21:26:51:340,0.342325,7.99183,-5.61259,-54.8668,1.83725,148.006
2023-03-15 21:26:51:350,0.349895,7.98992,-5.60179,-54.8698,1.83678,148.006
2023-03-15 21:26:51:360,0.344296,7.98583,-5.61177,-54.8715,1.83729,148.007
2023-03-15 21:26:51:370,0.346133,7.98936,-5.62179,-54.8721,1.83913,148.007
2023-03-15 21:26:51:380,0.356485,7.99846,-5.60652,-54.8719,1.83626,148.007
2023-03-15 21:26:51:390,0.3551,7.99635,-5.61007,-54.8698,1.83751,148.006
2023-03-15 21:26:51:400,0.361263,7.99019,-5.6084,-54.8709,1.83724,148.005
2023-03-15 21:26:51:410,0.363429,7.99277,-5.60706,-54.8727,1.83829,148.008
2023-03-15 21:26:51:420,0.354688,7.99416,-5.61355,-54.8752,1.84067,148.009
2023-03-15 21:26:51:430,0.353891,7.99537,-5.62231,-54.8789,1.83917,148.01
2023-03-15 21:26:51:440,0.34975,7.99614,-5.61634,-54.8788,1.84173,148.011
2023-03-15 21:26:51:450,0.353006,7.98457,-5.61007,-54.8797,1.84293,148.009
2023-03-15 21:26:51:460,0.351128,7.99313,-5.61732,-54.8779,1.84405,148.01
2023-03-15 21:26:51:470,0.350934,7.99882,-5.61705,-54.879,1.84388,148.008
2023-03-15 21:26:51:480,0.351137,7.99959,-5.62152,-54.8762,1.84304,148.005
2023-03-15 21:26:51:490,0.342354,8.00457,-5.60879,-54.8756,1.84228,148.005
2023-03-15 21:26:51:500,0.355882,8.00097,-5.59853,-54.8724,1.84235,148.005
2023-03-15 21:26:51:510,0.35785,7.98172,-5.60997,-54.8706,1.84319,148.005
2023-03-15 21:26:51:520,0.360956,7.99622,-5.61235,-54.8709,1.84287,148.009
2023-03-15 21:26:51:530,0.364665,7.99872,-5.60891,-54.8687,1.84599,148.009
2023-03-15 21:26:51:540,0.35361,7.99052,-5.61266,-54.8711,1.84564,148.009
2023-03-15 21:26:51:550,0.348591,7.99128,-5.61642,-54.8718,1.84453,148.009
2023-03-15 21:26:51:560,0.35183,7.99002,-5.61475,-54.8708,1.84434,148.012
2023-03-15 21:26:51:570,0.357397,7.98859,-5.62405,-54.8696,1.84144,148.015
2023-03-15 21:26:51:580,0.360219,7.98489,-5.61578,-54.8706,1.83989,148.02
2023-03-15 21:26:51:590,0.364892,7.99135,-5.60929,-54.8719,1.84038,148.022
2023-03-15 21:26:51:600,0.367383,7.98329,-5.60546,-54.8737,1.84114,148.021
2023-03-15 21:26:51:610,0.366979,7.98255,-5.61689,-54.8741,1.84023,148.021
2023-03-15 21:26:51:620,0.341209,7.99703,-5.60932,-54.8708,1.84179,148.022
2023-03-15 21:26:51:630,0.334109,8.0012,-5.60877,-54.8723,1.84281,148.022
2023-03-15 21:26:51:640,0.343884,7.9856,-5.6161,-54.8729,1.84261,148.021
2023-03-15 21:26:51:650,0.349889,7.98566,-5.60869,-54.8773,1.84169,148.018
2023-03-15 21:26:51:660,0.365347,7.99206,-5.60126,-54.8806,1.83942,148.018
2023-03-15 21:26:51:670,0.373618,7.98446,-5.60959,-54.8806,1.83951,148.02
2023-03-15 21:26:51:680,0.377173,7.99303,-5.6001,-54.8795,1.8397,148.021
2023-03-15 21:26:51:690,0.358578,7.99075,-5.60394,-54.8794,1.83731,148.021
2023-03-15 21:26:51:700,0.351128,7.98811,-5.61319,-54.8824,1.83965,148.021
2023-03-15 21:26:51:710,0.352554,7.98445,-5.61911,-54.8834,1.84263,148.022
2023-03-15 21:26:51:720,0.339468,7.98552,-5.61557,-54.8829,1.8437,148.024
2023-03-15 21:26:51:730,0.350856,8.00268,-5.60506,-54.884,1.84576,148.025
2023-03-15 21:26:51:740,0.357101,7.99467,-5.60468,-54.8842,1.84827,148.022
2023-03-15 21:26:51:750,0.366812,7.98425,-5.60537,-54.885,1.8519,148.022
2023-03-15 21:26:51:760,0.348695,7.99155,-5.61302,-54.8855,1.85299,148.022
2023-03-15 21:26:51:770,0.358405,7.97895,-5.61565,-54.8891,1.85333,148.021
2023-03-15 21:26:51:780,0.362096,7.99056,-5.60691,-54.8911,1.85309,148.018
2023-03-15 21:26:51:790,0.354675,8.00474,-5.59797,-54.8938,1.85359,148.021
2023-03-15 21:26:51:800,0.354447,8.00632,-5.60576,-54.8911,1.85637,148.02
2023-03-15 21:26:51:810,0.349535,7.99647,-5.60409,-54.8917,1.85461,148.02
2023-03-15 21:26:51:820,0.348404,7.98186,-5.61715,-54.8958,1.85386,148.019
2023-03-15 21:26:51:830,0.365841,7.98928,-5.61266,-54.8965,1.8545,148.021
2023-03-15 21:26:51:840,0.36948,7.99833,-5.61324,-54.8979,1.85199,148.02
2023-03-15 21:26:51:850,0.356164,7.97698,-5.61575,-54.9002,1.85472,148.018
2023-03-15 21:26:51:860,0.358532,7.98743,-5.61298,-54.8992,1.85346,148.022
2023-03-15 21:26:51:870,0.359285,7.98842,-5.60845,-54.8991,1.85133,148.018
2023-03-15 21:26:51:880,0.349949,7.98947,-5.61851,-54.9003,1.84971,148.018
2023-03-15 21:26:51:890,0.352129,7.9906,-5.61651,-54.8999,1.8523,148.02
2023-03-15 21:26:51:900,0.350192,7.98785,-5.60868,-54.8964,1.85406,148.019
2023-03-15 21:26:51:910,0.354657,7.9937,-5.60916,-54.8949,1.85283,148.019
2023-03-15 21:26:51:920,0.363059,7.9935,-5.61509,-54.8949,1.84919,148.02
2023-03-15 21:26:51:930,0.368092,7.98782,-5.61349,-54.8969,1.85068,148.017
2023-03-15 21:26:51:940,0.371184,7.98649,-5.62099,-54.8926,1.8518,148.016
2023-03-15 21:26:51:950,0.364166,7.99099,-5.60892,-54.8905,1.85173,148.016
2023-03-15 21:26:51:960,0.358215,7.98252,-5.60517,-54.8877,1.8511,148.016
2023-03-15 21:26:51:970,0.351224,7.98833,-5.61023,-54.8852,1.85191,148.017
2023-03-15 21:26:51:980,0.345258,7.98678,-5.60246,-54.8833,1.84802,148.021
2023-03-15 21:26:51:990,0.343872,7.99548,-5.59769,-54.8855,1.84373,148.023
2023-03-15 21:26:52:0,0.351638,7.99019,-5.61828,-54.8854,1.84442,148.02
2023-03-15 21:26:52:10,0.366299,7.9778,-5.61472,-54.8884,1.84357,148.02
2023-03-15 21:26:52:20,0.359742,7.96985,-5.61591,-54.8878,1.84263,148.019
2023-03-15 21:26:52:30,0.366708,7.97749,-5.61383,-54.8897,1.84421,148.021
2023-03-15 21:26:52:40,0.359649,7.99371,-5.60824,-54.8906,1.84272,148.026
2023-03-15 21:26:52:50,0.347265,7.99654,-5.60586,-54.8925,1.84248,148.029
2023-03-15 21:26:52:60,0.346218,7.9921,-5.60971,-54.8922,1.83857,148.027
2023-03-15 21:26:52:70,0.347128,7.99422,-5.61558,-54.8903,1.8394,148.027
2023-03-15 21:26:52:80,0.348237,7.99154,-5.60933,-54.8891,1.83665,148.024
2023-03-15 21:26:52:90,0.355357,7.99013,-5.60477,-54.8893,1.83753,148.027
2023-03-15 21:26:52:100,0.354255,7.98209,-5.61916,-54.8899,1.83821,148.025
2023-03-15 21:26:52:110,0.365045,7.9913,-5.62054,-54.8933,1.83771,148.025
2023-03-15 21:26:52:120,0.369401,7.98252,-5.61494,-54.8919,1.83757,148.026
2023-03-15 21:26:52:130,0.354923,7.97906,-5.60714,-54.8921,1.83751,148.029
2023-03-15 21:26:52:140,0.340759,7.98425,-5.60385,-54.8917,1.83611,148.029
2023-03-15 21:26:52:150,0.34135,7.98581,-5.60998,-54.8908,1.83539,148.032
2023-03-15 21:26:52:160,0.342984,7.99003,-5.60272,-54.89,1.83505,148.035
2023-03-15 21:26:52:170,0.347258,7.9944,-5.60855,-54.8917,1.83873,148.034
2023-03-15 21:26:52:180,0.353143,7.98755,-5.61264,-54.8899,1.83617,148.032
2023-03-15 21:26:52:190,0.366104,7.98943,-5.60954,-54.8903,1.83472,148.033
2023-03-15 21:26:52:200,0.372371,7.98297,-5.60486,-54.8934,1.83241,148.032
2023-03-15 21:26:52:210,0.367447,7.98933,-5.60184,-54.8951,1.83089,148.034
2023-03-15 21:26:52:220,0.360023,7.98544,-5.61644,-54.8969,1.83051,148.035
2023-03-15 21:26:52:230,0.353538,7.99143,-5.6185,-54.8985,1.82852,148.035
2023-03-15 21:26:52:240,0.357085,7.98652,-5.61072,-54.8987,1.82844,148.035
2023-03-15 21:26:52:250,0.357891,7.9925,-5.60549,-54.8972,1.8288,148.033
2023-03-15 21:26:52:260,0.358315,7.99308,-5.61272,-54.8961,1.83092,148.033
2023-03-15 21:26:52:270,0.357818,7.9908,-5.617,-54.8931,1.83106,148.035
2023-03-15 21:26:52:280,0.356359,7.98458,-5.6232,-54.8951,1.83436,148.035
2023-03-15 21:26:52:290,0.35274,7.98741,-5.60987,-54.8971,1.83583,148.034
2023-03-15 21:26:52:300,0.355038,7.9952,-5.60799,-54.8963,1.83476,148.033
2023-03-15 21:26:52:310,0.341419,7.98452,-5.61006,-54.8951,1.83268,148.034
2023-03-15 21:26:52:320,0.335726,7.97412,-5.62724,-54.8952,1.83324,148.033
2023-03-15 21:26:52:330,0.347667,7.98594,-5.62304,-54.8958,1.82898,148.035
2023-03-15 21:26:52:340,0.352376,7.98971,-5.60299,-54.8952,1.82955,148.035
2023-03-15 21:26:52:350,0.352749,7.98323,-5.6122,-54.894,1.82997,148.037
2023-03-15 21:26:52:360,0.360212,7.98998,-5.60932,-54.8922,1.82932,148.041
2023-03-15 21:26:52:370,0.36768,7.9903,-5.61045,-54.8914,1.8295,148.042
2023-03-15 21:26:52:380,0.364306,7.98159,-5.60631,-54.8931,1.82813,148.037
2023-03-15 21:26:52:390,0.361592,7.99024,-5.6073,-54.8961,1.83148,148.04
2023-03-15 21:26:52:400,0.349931,7.98943,-5.61854,-54.8959,1.83362,148.042
2023-03-15 21:26:52:410,0.353373,8.00434,-5.60818,-54.8944,1.83379,148.044
2023-03-15 21:26:52:420,0.350836,7.99969,-5.61811,-54.8946,1.83484,148.041
2023-03-15 21:26:52:430,0.361824,8.0008,-5.61036,-54.8951,1.8348,148.041
2023-03-15 21:26:52:440,0.362025,7.99067,-5.61339,-54.893,1.83475,148.043
2023-03-15 21:26:52:450,0.36196,7.97593,-5.61299,-54.8936,1.83341,148.042
2023-03-15 21:26:52:460,0.341038,7.98535,-5.5957,-54.8941,1.83409,148.045
2023-03-15 21:26:52:470,0.343309,7.99706,-5.60512,-54.8954,1.83141,148.047
2023-03-15 21:26:52:480,0.35209,7.99184,-5.60745,-54.8986,1.83196,148.048
2023-03-15 21:26:52:490,0.340405,7.9852,-5.61598,-54.8987,1.83206,148.048
2023-03-15 21:26:52:500,0.360571,7.9893,-5.61548,-54.9005,1.83253,148.046
2023-03-15 21:26:52:510,0.36523,7.9905,-5.61537,-54.8994,1.83231,148.048
2023-03-15 21:26:52:520,0.351711,7.99348,-5.60234,-54.8972,1.83111,148.049
2023-03-15 21:26:52:530,0.354285,7.99856,-5.59858,-54.8992,1.83119,148.05
2023-03-15 21:26:52:540,0.354224,7.98865,-5.61534,-54.8965,1.8324,148.055
2023-03-15 21:26:52:550,0.358273,7.98917,-5.61091,-54.8966,1.83268,148.054
2023-03-15 21:26:52:560,0.357069,7.99326,-5.61036,-54.8979,1.83127,148.052
2023-03-15 21:26:52:570,0.343324,7.98729,-5.61448,-54.8989,1.82969,148.051
2023-03-15 21:26:52:580,0.341804,7.99231,-5.60873,-54.9018,1.83,148.048
2023-03-15 21:26:52:590,0.345954,7.9976,-5.59792,-54.9018,1.83037,148.048
2023-03-15 21:26:52:600,0.351106,7.98938,-5.60419,-54.9019,1.82991,148.048
2023-03-15 21:26:52:610,0.358166,7.98226,-5.61266,-54.9032,1.83077,148.046
2023-03-15 21:26:52:620,0.362586,7.98347,-5.61231,-54.8989,1.83023,148.05
2023-03-15 21:26:52:630,0.356591,7.9868,-5.62631,-54.8989,1.83067,148.052
2023-03-15 21:26:52:640,0.358395,7.99128,-5.61749,-54.8969,1.83133,148.051
2023-03-15 21:26:52:650,0.349996,7.98504,-5.61657,-54.8964,1.83033,148.051
2023-03-15 21:26:52:660,0.344137,7.98754,-5.61263,-54.8936,1.82925,148.053
2023-03-15 21:26:52:670,0.350922,7.99557,-5.60218,-54.8922,1.8268,148.054
2023-03-15 21:26:52:680,0.351063,7.99539,-5.60494,-54.89,1.82818,148.053
2023-03-15 21:26:52:690,0.355967,7.989,-5.62152,-54.8904,1.82941,148.056
2023-03-15 21:26:52:700,0.349718,7.99096,-5.61668,-54.89,1.82812,148.054
2023-03-15 21:26:52:710,0.355627,7.99157,-5.61098,-54.8913,1.82996,148.053
2023-03-15 21:26:52:720,0.34868,7.99501,-5.60119,-54.8894,1.82848,148.055
2023-03-15 21:26:52:730,0.341479,8.00343,-5.59985,-54.8904,1.82853,148.054
2023-03-15 21:26:52:740,0.352379,7.9946,-5.6125,-54.8904,1.8293,148.052
2023-03-15 21:26:52:750,0.355611,7.99196,-5.61285,-54.888,1.82568,148.053
2023-03-15 21:26:52:760,0.348129,7.98639,-5.61802,-54.8864,1.82637,148.054
2023-03-15 21:26:52:770,0.355514,7.9867,-5.61971,-54.8857,1.82433,148.055
2023-03-15 21:26:52:780,0.354628,7.98945,-5.60641,-54.8883,1.82711,148.055
2023-03-15 21:26:52:790,0.360476,7.98474,-5.60271,-54.8881,1.82873,148.055
2023-03-15 21:26:52:800,0.365471,8.00162,-5.60902,-54.8894,1.82896,148.057
2023-03-15 21:26:52:810,0.356989,7.98971,-5.61326,-54.8865,1.82818,148.058
2023-03-15 21:26:52:820,0.338268,7.99433,-5.59564,-54.8853,1.8318,148.058
2023-03-15 21:26:52:830,0.34679,7.98828,-5.60178,-54.8848,1.8333,148.062
2023-03-15 21:26:52:840,0.340695,7.99369,-5.60572,-54.8851,1.83157,148.06
2023-03-15 21:26:52:850,0.345282,7.9874,-5.61021,-54.8853,1.83333,148.056
2023-03-15 21:26:52:860,0.355557,7.98634,-5.60324,-54.8827,1.83457,148.055
2023-03-15 21:26:52:870,0.351197,7.99835,-5.60601,-54.8834,1.83445,148.055
2023-03-15 21:26:52:880,0.362782,7.99657,-5.61814,-54.8827,1.83253,148.055
2023-03-15 21:26:52:890,0.370424,8.00134,-5.6137,-54.8792,1.83231,148.054
2023-03-15 21:26:52:900,0.354065,7.98782,-5.61841,-54.8816,1.83133,148.056
2023-03-15 21:26:52:910,0.348946,7.99512,-5.6188,-54.8825,1.83144,148.056
2023-03-15 21:26:52:920,0.352844,7.98442,-5.62325,-54.8797,1.83194,148.055
2023-03-15 21:26:52:930,0.34027,7.99948,-5.60299,-54.8766,1.82987,148.055
2023-03-15 21:26:52:940,0.351127,7.99554,-5.59545,-54.8771,1.83054,148.055
2023-03-15 21:26:52:950,0.361725,7.99052,-5.61323,-54.8776,1.83043,148.056
2023-03-15 21:26:52:960,0.358219,7.98434,-5.62493,-54.8772,1.83435,148.053
2023-03-15 21:26:52:970,0.352296,7.98525,-5.60929,-54.8776,1.83455,148.052
2023-03-15 21:26:52:980,0.340943,7.99072,-5.60669,-54.8764,1.83643,148.053
2023-03-15 21:26:52:990,0.351728,7.98678,-5.61984,-54.8775,1.83613,148.054
2023-03-15 21:26:53:0,0.35302,7.97742,-5.61624,-54.8776,1.83543,148.058
2023-03-15 21:26:53:10,0.354053,7.9883,-5.60875,-54.8768,1.83452,148.056
2023-03-15 21:26:53:20,0.349786,7.99419,-5.61491,-54.8756,1.8343,148.057
2023-03-15 21:26:53:30,0.353315,7.99443,-5.60521,-54.8755,1.83364,148.059
2023-03-15 21:26:53:40,0.348852,7.9931,-5.60053,-54.876,1.83529,148.06
2023-03-15 21:26:53:50,0.349632,7.98919,-5.60742,-54.8776,1.83161,148.061
2023-03-15 21:26:53:60,0.354246,7.99415,-5.59921,-54.8795,1.83456,148.06
2023-03-15 21:26:53:70,0.355718,7.99796,-5.60355,-54.8822,1.83436,148.059
2023-03-15 21:26:53:80,0.355137,7.98924,-5.61299,-54.883,1.83368,148.057
2023-03-15 21:26:53:90,0.35961,7.9925,-5.61468,-54.8827,1.83643,148.055
2023-03-15 21:26:53:100,0.360007,7.9938,-5.60309,-54.8812,1.83705,148.051
2023-03-15 21:26:53:110,0.365573,7.98849,-5.60563,-54.8806,1.83817,148.049
2023-03-15 21:26:53:120,0.35679,7.99153,-5.61635,-54.8813,1.83782,148.05
2023-03-15 21:26:53:130,0.35182,7.98186,-5.62242,-54.8763,1.84078,148.049
2023-03-15 21:26:53:140,0.360315,7.99152,-5.60738,-54.8742,1.84147,148.05
2023-03-15 21:26:53:150,0.358874,7.98677,-5.61067,-54.8761,1.84092,148.049
2023-03-15 21:26:53:160,0.354689,7.99008,-5.6078,-54.8727,1.84171,148.051
2023-03-15 21:26:53:170,0.350207,7.99388,-5.61239,-54.8756,1.83948,148.052
2023-03-15 21:26:53:180,0.350297,7.98842,-5.60474,-54.8738,1.8415,148.051
2023-03-15 21:26:53:190,0.343583,7.98038,-5.60625,-54.8737,1.84317,148.049
2023-03-15 21:26:53:200,0.358287,7.99385,-5.60761,-54.8728,1.84082,148.053
2023-03-15 21:26:53:210,0.375209,8.00397,-5.60548,-54.8722,1.83966,148.052
2023-03-15 21:26:53:220,0.36348,7.99906,-5.60761,-54.872,1.84093,148.051
2023-03-15 21:26:53:230,0.350414,8.00062,-5.61187,-54.8721,1.84001,148.053
2023-03-15 21:26:53:240,0.354636,7.99809,-5.59794,-54.8732,1.83881,148.054
2023-03-15 21:26:53:250,0.355792,7.98634,-5.60389,-54.8695,1.84008,148.052
2023-03-15 21:26:53:260,0.351716,7.98628,-5.61165,-54.8654,1.84188,148.052
2023-03-15 21:26:53:270,0.34972,7.98193,-5.61314,-54.8657,1.8447,148.052
2023-03-15 21:26:53:280,0.352127,7.98499,-5.61131,-54.8644,1.8449,148.052
2023-03-15 21:26:53:290,0.361349,7.98933,-5.61151,-54.8611,1.84833,148.051
2023-03-15 21:26:53:300,0.354727,7.99285,-5.61187,-54.8596,1.84895,148.05
2023-03-15 21:26:53:310,0.354323,7.9872,-5.60624,-54.8583,1.84937,148.048
2023-03-15 21:26:53:320,0.352813,7.99641,-5.607,-54.8583,1.84929,148.048
2023-03-15 21:26:53:330,0.346305,7.99053,-5.62167,-54.8578,1.85048,148.049
2023-03-15 21:26:53:340,0.351207,7.9961,-5.60649,-54.8563,1.85122,148.051
2023-03-15 21:26:53:350,0.365102,7.98906,-5.60441,-54.8574,1.8493,148.05
2023-03-15 21:26:53:360,0.353401,7.98498,-5.61295,-54.8589,1.84679,148.048
2023-03-15 21:26:53:370,0.357643,7.98472,-5.60545,-54.8567,1.84679,148.049
2023-03-15 21:26:53:380,0.361939,7.99194,-5.60529,-54.856,1.84442,148.049
2023-03-15 21:26:53:390,0.359692,7.98217,-5.6238,-54.8564,1.84575,148.048
2023-03-15 21:26:53:400,0.363102,7.99189,-5.6113,-54.8573,1.84748,148.045
2023-03-15 21:26:53:410,0.354425,7.98117,-5.60832,-54.8586,1.84926,148.046
2023-03-15 21:26:53:420,0.35835,7.99495,-5.60949,-54.8597,1.84721,148.044
2023-03-15 21:26:53:430,0.360847,7.97745,-5.61299,-54.8615,1.84976,148.045
2023-03-15 21:26:53:440,0.363025,7.99093,-5.61163,-54.8618,1.8514,148.046
2023-03-15 21:26:53:450,0.360169,7.99944,-5.61017,-54.8619,1.85008,148.048
2023-03-15 21:26:53:460,0.366016,7.98819,-5.62324,-54.8638,1.85037,148.049
2023-03-15 21:26:53:470,0.355872,7.98948,-5.62315,-54.8609,1.85035,148.048
2023-03-15 21:26:53:480,0.349443,7.98996,-5.61131,-54.8616,1.84815,148.044
2023-03-15 21:26:53:490,0.34407,7.9953,-5.61526,-54.8641,1.85037,148.043
2023-03-15 21:26:53:500,0.352384,7.99703,-5.60976,-54.8648,1.8525,148.044
2023-03-15 21:26:53:510,0.357522,7.98194,-5.61274,-54.8623,1.85504,148.043
2023-03-15 21:26:53:520,0.359009,7.98286,-5.61795,-54.8617,1.85511,148.043
2023-03-15 21:26:53:530,0.355729,7.98675,-5.62305,-54.8647,1.85454,148.044
2023-03-15 21:26:53:540,0.358627,7.98999,-5.61969,-54.865,1.85106,148.045
2023-03-15 21:26:53:550,0.359835,7.9862,-5.61181,-54.8656,1.84947,148.043
2023-03-15 21:26:53:560,0.361116,7.99434,-5.60554,-54.8624,1.84978,148.044
2023-03-15 21:26:53:570,0.349967,7.98896,-5.60628,-54.8609,1.84844,148.047
2023-03-15 21:26:53:580,0.355686,7.98657,-5.60471,-54.8597,1.85049,148.042
2023-03-15 21:26:53:590,0.358401,7.99357,-5.61215,-54.8598,1.84811,148.042
2023-03-15 21:26:53:600,0.358628,7.98945,-5.60662,-54.862,1.84769,148.042
2023-03-15 21:26:53:610,0.355286,7.98383,-5.61792,-54.8622,1.84764,148.043
2023-03-15 21:26:53:620,0.348514,7.97355,-5.62859,-54.8593,1.84945,148.044
2023-03-15 21:26:53:630,0.351354,7.98852,-5.6123,-54.8594,1.85146,148.047
2023-03-15 21:26:53:640,0.367807,7.98817,-5.60646,-54.8566,1.85138,148.049
2023-03-15 21:26:53:650,0.354231,7.99213,-5.61202,-54.8557,1.85154,148.052
2023-03-15 21:26:53:660,0.357645,7.9916,-5.61863,-54.8549,1.85006,148.05
2023-03-15 21:26:53:670,0.357616,7.98665,-5.61528,-54.8544,1.85233,148.049
2023-03-15 21:26:53:680,0.347089,7.99868,-5.60427,-54.8573,1.85244,148.051
2023-03-15 21:26:53:690,0.346787,7.99935,-5.58966,-54.8571,1.85376,148.054
2023-03-15 21:26:53:700,0.354814,7.99748,-5.60451,-54.8585,1.85658,148.051
2023-03-15 21:26:53:710,0.360971,7.98526,-5.60881,-54.8581,1.85857,148.051
2023-03-15 21:26:53:720,0.368056,7.98592,-5.61814,-54.8602,1.85667,148.05
2023-03-15 21:26:53:730,0.36279,7.98192,-5.61604,-54.8624,1.85822,148.049
2023-03-15 21:26:53:740,0.357726,7.98749,-5.61106,-54.8616,1.85652,148.05
2023-03-15 21:26:53:750,0.353807,7.99179,-5.61494,-54.8634,1.85956,148.047
2023-03-15 21:26:53:760,0.352122,7.99082,-5.60453,-54.8638,1.86117,148.048
2023-03-15 21:26:53:770,0.358269,7.97835,-5.61037,-54.8634,1.86219,148.048
2023-03-15 21:26:53:780,0.353687,7.98247,-5.60637,-54.8617,1.86106,148.045
2023-03-15 21:26:53:790,0.3519,7.98035,-5.62184,-54.8629,1.8649,148.043
2023-03-15 21:26:53:800,0.353725,7.98783,-5.60761,-54.8616,1.86454,148.045
2023-03-15 21:26:53:810,0.35377,7.98489,-5.6149,-54.8603,1.866,148.042
2023-03-15 21:26:53:820,0.351958,7.99162,-5.61524,-54.8605,1.86286,148.042
2023-03-15 21:26:53:830,0.346874,7.97507,-5.60927,-54.8593,1.86114,148.042
2023-03-15 21:26:53:840,0.356853,7.98428,-5.60113,-54.8585,1.86109,148.042
2023-03-15 21:26:53:850,0.352982,7.98183,-5.61577,-54.8607,1.86241,148.041
2023-03-15 21:26:53:860,0.347158,7.97809,-5.62324,-54.8604,1.86538,148.041
2023-03-15 21:26:53:870,0.355088,7.98557,-5.60997,-54.8611,1.86633,148.041
2023-03-15 21:26:53:880,0.353334,7.9976,-5.60888,-54.8605,1.86606,148.039
2023-03-15 21:26:53:890,0.35228,7.99243,-5.61436,-54.8603,1.86556,148.042
2023-03-15 21:26:53:900,0.351257,7.99245,-5.61126,-54.8617,1.86633,148.038
2023-03-15 21:26:53:910,0.360339,7.9893,-5.61507,-54.8613,1.86383,148.04
2023-03-15 21:26:53:920,0.358258,7.99448,-5.60843,-54.8639,1.8621,148.04
2023-03-15 21:26:53:930,0.355698,7.99506,-5.60613,-54.8668,1.86177,148.04
2023-03-15 21:26:53:940,0.362539,7.98732,-5.61168,-54.8665,1.86207,148.039
2023-03-15 21:26:53:950,0.354106,7.9891,-5.60852,-54.866,1.85909,148.04
2023-03-15 21:26:53:960,0.358273,7.99328,-5.60736,-54.8657,1.85955,148.042
2023-03-15 21:26:53:970,0.362036,7.97359,-5.6155,-54.8676,1.86187,148.042
2023-03-15 21:26:53:980,0.358248,7.97817,-5.61273,-54.8644,1.86043,148.043
2023-03-15 21:26:53:990,0.351272,7.98521,-5.61472,-54.8609,1.85961,148.044
2023-03-15 21:26:54:0,0.367033,7.97924,-5.62013,-54.8566,1.85771,148.048
2023-03-15 21:26:54:10,0.361248,7.97731,-5.62078,-54.8511,1.85619,148.047
2023-03-15 21:26:54:20,0.360063,7.98419,-5.61205,-54.8476,1.85638,148.049
2023-03-15 21:26:54:30,0.362753,7.97825,-5.61269,-54.8469,1.85866,148.049
2023-03-15 21:26:54:40,0.349892,7.98746,-5.61455,-54.8479,1.85984,148.048
2023-03-15 21:26:54:50,0.352472,7.98763,-5.61352,-54.85,1.85916,148.048
2023-03-15 21:26:54:60,0.373366,7.98229,-5.60926,-54.8512,1.85796,148.048
2023-03-15 21:26:54:70,0.364072,7.98788,-5.61096,-54.851,1.85638,148.047
2023-03-15 21:26:54:80,0.360236,7.98388,-5.61123,-54.8536,1.85391,148.048
2023-03-15 21:26:54:90,0.363404,7.97334,-5.61552,-54.856,1.85465,148.048
2023-03-15 21:26:54:100,0.355205,7.98093,-5.6192,-54.8576,1.85315,148.046
2023-03-15 21:26:54:110,0.355919,7.9822,-5.61978,-54.8587,1.85113,148.046
2023-03-15 21:26:54:120,0.355216,7.98142,-5.61734,-54.8582,1.84987,148.046
2023-03-15 21:26:54:130,0.349577,7.99061,-5.61124,-54.8577,1.84876,148.048
2023-03-15 21:26:54:140,0.330924,7.99754,-5.6041,-54.8582,1.85103,148.05
2023-03-15 21:26:54:150,0.335562,8.00558,-5.61197,-54.8605,1.85188,148.05
2023-03-15 21:26:54:160,0.357059,7.9994,-5.61412,-54.8605,1.85043,148.052
2023-03-15 21:26:54:170,0.358416,7.97793,-5.62287,-54.859,1.84929,148.051
2023-03-15 21:26:54:180,0.379154,7.9626,-5.63738,-54.8587,1.85441,148.053
2023-03-15 21:26:54:190,0.383995,7.96568,-5.63265,-54.8555,1.85601,148.052
2023-03-15 21:26:54:200,0.376353,7.98948,-5.6128,-54.8581,1.8571,148.053
2023-03-15 21:26:54:210,0.351406,8.00188,-5.60408,-54.8586,1.85566,148.054
2023-03-15 21:26:54:220,0.314359,8.00294,-5.59957,-54.86,1.85101,148.054
2023-03-15 21:26:54:230,0.298782,7.9953,-5.60262,-54.8619,1.84411,148.054
2023-03-15 21:26:54:240,0.315743,8.00086,-5.59901,-54.8606,1.84373,148.054
2023-03-15 21:26:54:250,0.348664,7.99735,-5.60907,-54.8609,1.84188,148.05
2023-03-15 21:26:54:260,0.365702,7.99848,-5.61039,-54.86,1.84002,148.049
2023-03-15 21:26:54:270,0.383824,7.99787,-5.60741,-54.8599,1.8433,148.047
2023-03-15 21:26:54:280,0.376961,7.97742,-5.62882,-54.8581,1.84463,148.049
2023-03-15 21:26:54:290,0.358315,7.97661,-5.62741,-54.8573,1.84493,148.048
2023-03-15 21:26:54:300,0.350898,7.98564,-5.61139,-54.8576,1.84424,148.049
2023-03-15 21:26:54:310,0.334863,7.97592,-5.61296,-54.8604,1.84214,148.054
2023-03-15 21:26:54:320,0.328711,7.98524,-5.60985,-54.8613,1.84068,148.05
2023-03-15 21:26:54:330,0.334323,7.98845,-5.60976,-54.8595,1.84042,148.049
2023-03-15 21:26:54:340,0.3429,7.98954,-5.62358,-54.8557,1.839,148.048
2023-03-15 21:26:54:350,0.357073,7.97707,-5.6209,-54.8521,1.8399,148.047
2023-03-15 21:26:54:360,0.381026,7.97868,-5.62165,-54.8514,1.8429,148.044
2023-03-15 21:26:54:370,0.380337,7.99195,-5.60523,-54.8532,1.84264,148.042
2023-03-15 21:26:54:380,0.374449,7.99064,-5.60858,-54.8533,1.84123,148.042
2023-03-15 21:26:54:390,0.369922,7.98924,-5.61347,-54.8572,1.84135,148.043
2023-03-15 21:26:54:400,0.350512,7.99098,-5.60475,-54.8579,1.8397,148.045
2023-03-15 21:26:54:410,0.333851,7.99693,-5.60128,-54.857,1.83897,148.042
2023-03-15 21:26:54:420,0.332168,7.99274,-5.61463,-54.8584,1.83688,148.04
2023-03-15 21:26:54:430,0.347488,7.99045,-5.61154,-54.8599,1.83414,148.04
2023-03-15 21:26:54:440,0.356815,7.99529,-5.60785,-54.863,1.83285,148.04
2023-03-15 21:26:54:450,0.362736,7.98921,-5.60634,-54.8651,1.83442,148.038
2023-03-15 21:26:54:460,0.371672,7.99802,-5.60834,-54.8692,1.83383,148.039
2023-03-15 21:26:54:470,0.367475,7.9917,-5.61605,-54.8662,1.83244,148.039
2023-03-15 21:26:54:480,0.354563,7.98714,-5.60381,-54.8672,1.83234,148.04
2023-03-15 21:26:54:490,0.349582,7.98673,-5.6035,-54.8671,1.83146,148.04
2023-03-15 21:26:54:500,0.339309,7.99063,-5.6078,-54.8682,1.83269,148.039
2023-03-15 21:26:54:510,0.346299,7.98796,-5.61119,-54.8653,1.83344,148.038
2023-03-15 21:26:54:520,0.357394,7.98998,-5.60985,-54.8664,1.83307,148.039
2023-03-15 21:26:54:530,0.355337,7.99008,-5.61657,-54.8673,1.83513,148.039
2023-03-15 21:26:54:540,0.361334,7.98666,-5.62424,-54.8671,1.8358,148.04
2023-03-15 21:26:54:550,0.360177,7.9818,-5.61066,-54.8678,1.83801,148.038
2023-03-15 21:26:54:560,0.359733,8.00209,-5.6097,-54.867,1.83678,148.039
2023-03-15 21:26:54:570,0.366201,8.00495,-5.60304,-54.8679,1.83805,148.038
2023-03-15 21:26:54:580,0.357773,7.99826,-5.60649,-54.8715,1.83634,148.036
2023-03-15 21:26:54:590,0.348033,7.9801,-5.61149,-54.868,1.83627,148.035
2023-03-15 21:26:54:600,0.353276,7.98786,-5.61418,-54.8677,1.83757,148.035
2023-03-15 21:26:54:610,0.356112,7.99023,-5.60911,-54.8696,1.83859,148.034
2023-03-15 21:26:54:620,0.360374,7.98852,-5.62181,-54.871,1.83965,148.034
2023-03-15 21:26:54:630,0.364889,7.98749,-5.62137,-54.8677,1.83928,148.036
2023-03-15 21:26:54:640,0.361587,7.99935,-5.61173,-54.8663,1.84022,148.033
2023-03-15 21:26:54:650,0.364953,7.99353,-5.60751,-54.8703,1.84174,148.034
2023-03-15 21:26:54:660,0.364623,7.9936,-5.60808,-54.8697,1.8418,148.033
2023-03-15 21:26:54:670,0.364645,7.99556,-5.60338,-54.8698,1.83886,148.035
2023-03-15 21:26:54:680,0.348622,7.989,-5.61163,-54.8707,1.83862,148.036
2023-03-15 21:26:54:690,0.341288,7.99374,-5.62066,-54.868,1.8401,148.039
2023-03-15 21:26:54:700,0.346327,8.00147,-5.60687,-54.87,1.8416,148.038
2023-03-15 21:26:54:710,0.338604,7.98265,-5.62342,-54.8718,1.83956,148.036
2023-03-15 21:26:54:720,0.349844,7.98619,-5.62282,-54.8677,1.84278,148.037
2023-03-15 21:26:54:730,0.354891,7.99505,-5.60693,-54.8697,1.84327,148.038
2023-03-15 21:26:54:740,0.367107,7.98553,-5.60531,-54.8722,1.84616,148.039
2023-03-15 21:26:54:750,0.357967,7.99103,-5.60792,-54.8686,1.84765,148.038
2023-03-15 21:26:54:760,0.351257,7.9981,-5.60642,-54.871,1.8485,148.038
2023-03-15 21:26:54:770,0.361474,7.98705,-5.61573,-54.8711,1.8487,148.037
2023-03-15 21:26:54:780,0.365826,7.98771,-5.62446,-54.8744,1.84664,148.037
2023-03-15 21:26:54:790,0.360648,7.99083,-5.60437,-54.873,1.84428,148.033
2023-03-15 21:26:54:800,0.34951,7.98578,-5.60326,-54.873,1.84434,148.035
2023-03-15 21:26:54:810,0.347091,7.99053,-5.61096,-54.8732,1.8456,148.038
2023-03-15 21:26:54:820,0.344232,7.99879,-5.60952,-54.8746,1.84679,148.036
2023-03-15 21:26:54:830,0.352672,7.99694,-5.61171,-54.8729,1.84734,148.036
2023-03-15 21:26:54:840,0.360841,7.99336,-5.60861,-54.875,1.84792,148.038
2023-03-15 21:26:54:850,0.362745,7.97494,-5.6173,-54.8761,1.8456,148.038
2023-03-15 21:26:54:860,0.3502,7.9842,-5.61973,-54.8757,1.84443,148.038
2023-03-15 21:26:54:870,0.354794,7.98785,-5.61541,-54.8758,1.84329,148.039
2023-03-15 21:26:54:880,0.35193,7.99829,-5.60253,-54.8754,1.84176,148.039
2023-03-15 21:26:54:890,0.351647,7.99712,-5.60934,-54.8753,1.84279,148.037
2023-03-15 21:26:54:900,0.347587,7.98853,-5.61047,-54.8735,1.84061,148.035
2023-03-15 21:26:54:910,0.346213,7.98537,-5.61418,-54.8736,1.84096,148.035
2023-03-15 21:26:54:920,0.354559,7.97906,-5.6221,-54.8743,1.84052,148.036
2023-03-15 21:26:54:930,0.348974,7.98418,-5.62232,-54.8734,1.83928,148.034
2023-03-15 21:26:54:940,0.347463,7.99155,-5.6139,-54.8728,1.83942,148.032
2023-03-15 21:26:54:950,0.35442,7.98385,-5.61515,-54.8738,1.83904,148.034
2023-03-15 21:26:54:960,0.353187,7.9885,-5.61492,-54.8755,1.83781,148.035
2023-03-15 21:26:54:970,0.369566,7.98929,-5.60673,-54.873,1.83885,148.034
2023-03-15 21:26:54:980,0.362278,7.98771,-5.6038,-54.8728,1.84271,148.039
2023-03-15 21:26:54:990,0.354234,7.99269,-5.61113,-54.875,1.84173,148.039
2023-03-15 21:26:55:0,0.362274,8.00448,-5.61201,-54.8765,1.84185,148.041
2023-03-15 21:26:55:10,0.358331,7.99802,-5.60698,-54.8768,1.84197,148.043
2023-03-15 21:26:55:20,0.347954,7.98777,-5.60487,-54.8785,1.84221,148.043
2023-03-15 21:26:55:30,0.341404,7.99152,-5.60677,-54.8793,1.84279,148.041
2023-03-15 21:26:55:40,0.354563,7.99157,-5.61097,-54.8796,1.84439,148.04
2023-03-15 21:26:55:50,0.362898,7.98227,-5.61198,-54.8793,1.84544,148.041
2023-03-15 21:26:55:60,0.357744,7.98629,-5.60967,-54.8792,1.84522,148.042
2023-03-15 21:26:55:70,0.363476,7.98939,-5.61454,-54.8814,1.84569,148.042
2023-03-15 21:26:55:80,0.363236,7.99027,-5.61365,-54.8811,1.84647,148.042
2023-03-15 21:26:55:90,0.366585,7.99274,-5.60469,-54.8798,1.84702,148.042
2023-03-15 21:26:55:100,0.364818,7.99275,-5.6041,-54.8776,1.85197,148.042
2023-03-15 21:26:55:110,0.354403,7.98754,-5.6034,-54.879,1.85374,148.039
2023-03-15 21:26:55:120,0.355547,7.99725,-5.59275,-54.8799,1.85574,148.04
2023-03-15 21:26:55:130,0.348794,7.99216,-5.60734,-54.8789,1.8575,148.039
2023-03-15 21:26:55:140,0.356946,7.99687,-5.61045,-54.8806,1.85762,148.04
2023-03-15 21:26:55:150,0.361464,7.99793,-5.60782,-54.8838,1.85867,148.043
2023-03-15 21:26:55:160,0.361056,7.98494,-5.60832,-54.8863,1.85887,148.039
2023-03-15 21:26:55:170,0.359613,7.99567,-5.60966,-54.8831,1.85559,148.041
2023-03-15 21:26:55:180,0.350793,7.98456,-5.61568,-54.8815,1.85392,148.043
2023-03-15 21:26:55:190,0.347913,7.98014,-5.61693,-54.8802,1.85485,148.048
2023-03-15 21:26:55:200,0.340838,7.98304,-5.61467,-54.8816,1.85834,148.048
2023-03-15 21:26:55:210,0.348786,7.99344,-5.60734,-54.883,1.85741,148.047
2023-03-15 21:26:55:220,0.362257,7.99623,-5.61034,-54.8805,1.85207,148.045
2023-03-15 21:26:55:230,0.353319,7.98532,-5.61052,-54.8787,1.85202,148.046
2023-03-15 21:26:55:240,0.368074,7.99909,-5.60458,-54.8789,1.85529,148.043
2023-03-15 21:26:55:250,0.366737,7.98588,-5.62267,-54.8799,1.85487,148.045
2023-03-15 21:26:55:260,0.364082,7.9837,-5.61379,-54.8788,1.85785,148.047
2023-03-15 21:26:55:270,0.355861,8.00239,-5.61111,-54.8774,1.85709,148.05
2023-03-15 21:26:55:280,0.342894,8.00535,-5.60191,-54.8781,1.85727,148.05
2023-03-15 21:26:55:290,0.332758,8.0034,-5.60407,-54.8799,1.85541,148.051
2023-03-15 21:26:55:300,0.337847,7.99011,-5.61233,-54.8792,1.85333,148.05
2023-03-15 21:26:55:310,0.35988,7.98511,-5.61692,-54.8783,1.85555,148.048
2023-03-15 21:26:55:320,0.371782,7.98924,-5.61365,-54.8822,1.85438,148.047
2023-03-15 21:26:55:330,0.370266,7.98618,-5.61476,-54.8839,1.85657,148.048
2023-03-15 21:26:55:340,0.386531,7.98805,-5.62183,-54.8852,1.85893,148.05
2023-03-15 21:26:55:350,0.374543,7.98579,-5.62429,-54.8862,1.86246,148.051
2023-03-15 21:26:55:360,0.355402,7.99853,-5.61336,-54.8855,1.86347,148.051
2023-03-15 21:26:55:370,0.34439,8.00159,-5.62081,-54.8868,1.86446,148.049
2023-03-15 21:26:55:380,0.331074,7.98871,-5.61623,-54.8848,1.86453,148.045
2023-03-15 21:26:55:390,0.332652,7.99457,-5.61514,-54.885,1.86635,148.046
2023-03-15 21:26:55:400,0.350822,7.98361,-5.61446,-54.8846,1.8677,148.047
2023-03-15 21:26:55:410,0.359149,7.99818,-5.60715,-54.8843,1.86692,148.048
2023-03-15 21:26:55:420,0.349702,7.9949,-5.61483,-54.8823,1.86861,148.048
2023-03-15 21:26:55:430,0.336634,7.9855,-5.61716,-54.8814,1.8701,148.049
2023-03-15 21:26:55:440,0.34306,7.99107,-5.61328,-54.8797,1.87109,148.047
2023-03-15 21:26:55:450,0.357087,7.98885,-5.61098,-54.8839,1.86987,148.048
2023-03-15 21:26:55:460,0.363301,7.98468,-5.61151,-54.8799,1.86779,148.045
2023-03-15 21:26:55:470,0.359478,7.99415,-5.60933,-54.8802,1.86879,148.041
2023-03-15 21:26:55:480,0.358617,7.98449,-5.6251,-54.8793,1.86693,148.042
2023-03-15 21:26:55:490,0.351153,7.9812,-5.61493,-54.8813,1.86753,148.043
2023-03-15 21:26:55:500,0.355936,7.99003,-5.61333,-54.8841,1.86774,148.04
2023-03-15 21:26:55:510,0.350835,7.9908,-5.61741,-54.8841,1.8696,148.042
2023-03-15 21:26:55:520,0.345527,7.98531,-5.62237,-54.8823,1.8682,148.044
2023-03-15 21:26:55:530,0.353353,7.98664,-5.60655,-54.8826,1.8714,148.044
2023-03-15 21:26:55:540,0.362401,7.98119,-5.61644,-54.8827,1.87222,148.042
2023-03-15 21:26:55:550,0.365816,7.98889,-5.61578,-54.8855,1.87081,148.042
2023-03-15 21:26:55:560,0.355058,7.9831,-5.61815,-54.8849,1.87414,148.042
2023-03-15 21:26:55:570,0.36043,7.97857,-5.61364,-54.8826,1.8734,148.041
2023-03-15 21:26:55:580,0.349735,7.97897,-5.61304,-54.8856,1.87344,148.042
2023-03-15 21:26:55:590,0.358489,7.9884,-5.61748,-54.8883,1.87389,148.042
2023-03-15 21:26:55:600,0.354266,7.99667,-5.60531,-54.8855,1.87277,148.04
2023-03-15 21:26:55:610,0.346581,7.99598,-5.6006,-54.8843,1.8729,148.037
2023-03-15 21:26:55:620,0.344302,7.99585,-5.60625,-54.8867,1.87046,148.036
2023-03-15 21:26:55:630,0.35131,7.98998,-5.60923,-54.8863,1.87043,148.033
2023-03-15 21:26:55:640,0.361099,7.98536,-5.61685,-54.8872,1.8693,148.033
2023-03-15 21:26:55:650,0.361448,7.98821,-5.62149,-54.8873,1.86669,148.033
2023-03-15 21:26:55:660,0.367511,7.98687,-5.6183,-54.8887,1.86889,148.033
2023-03-15 21:26:55:670,0.368813,7.98197,-5.6204,-54.8873,1.86746,148.034
2023-03-15 21:26:55:680,0.353307,7.98649,-5.61426,-54.8891,1.86615,148.034
2023-03-15 21:26:55:690,0.342019,7.99865,-5.60795,-54.8873,1.867,148.032
2023-03-15 21:26:55:700,0.33903,7.98492,-5.59933,-54.8856,1.87147,148.033
2023-03-15 21:26:55:710,0.346571,7.98071,-5.60532,-54.8867,1.87018,148.033
2023-03-15 21:26:55:720,0.347185,7.9956,-5.60791,-54.8864,1.8693,148.033
2023-03-15 21:26:55:730,0.352324,7.99721,-5.6074,-54.886,1.86969,148.032
2023-03-15 21:26:55:740,0.353471,7.98181,-5.61773,-54.884,1.86911,148.03
2023-03-15 21:26:55:750,0.356552,7.97942,-5.61669,-54.8821,1.86877,148.031
2023-03-15 21:26:55:760,0.359814,7.99231,-5.61005,-54.8833,1.86903,148.032
2023-03-15 21:26:55:770,0.347433,7.98682,-5.61428,-54.8846,1.86906,148.032
2023-03-15 21:26:55:780,0.362816,7.98208,-5.61555,-54.8826,1.86823,148.034
2023-03-15 21:26:55:789,0.367358,7.98123,-5.61121,-54.8833,1.86785,148.036
2023-03-15 21:26:55:800,0.361489,7.98084,-5.61115,-54.8858,1.86936,148.039
2023-03-15 21:26:55:810,0.355087,7.98175,-5.60565,-54.8888,1.87226,148.036
2023-03-15 21:26:55:820,0.361044,8.00621,-5.59496,-54.8888,1.8724,148.036
2023-03-15 21:26:55:830,0.344822,8.00259,-5.60605,-54.8866,1.87381,148.037
2023-03-15 21:26:55:840,0.341627,7.99478,-5.60947,-54.8871,1.87281,148.032
2023-03-15 21:26:55:850,0.344617,7.99601,-5.61778,-54.889,1.87299,148.03
2023-03-15 21:26:55:860,0.362785,7.99254,-5.62177,-54.8878,1.87218,148.03
2023-03-15 21:26:55:870,0.36217,7.97917,-5.629,-54.8868,1.87259,148.032
2023-03-15 21:26:55:880,0.36359,7.98035,-5.62132,-54.8845,1.87183,148.034
2023-03-15 21:26:55:890,0.368528,7.97651,-5.62021,-54.884,1.87087,148.032
2023-03-15 21:26:55:900,0.358383,7.98973,-5.62106,-54.8772,1.86977,148.031
2023-03-15 21:26:55:910,0.345144,7.99759,-5.62104,-54.8762,1.87119,148.031
2023-03-15 21:26:55:920,0.358253,7.99081,-5.61604,-54.8768,1.87038,148.03
2023-03-15 21:26:55:930,0.356317,7.99847,-5.61061,-54.8786,1.87454,148.029
2023-03-15 21:26:55:940,0.346465,8.00053,-5.60289,-54.8795,1.87645,148.03
2023-03-15 21:26:55:950,0.346604,7.99703,-5.60937,-54.8788,1.87428,148.029
2023-03-15 21:26:55:960,0.34873,7.99433,-5.61669,-54.8827,1.8747,148.031
2023-03-15 21:26:55:970,0.349577,7.99244,-5.61279,-54.8812,1.87004,148.032
2023-03-15 21:26:55:980,0.358927,7.98649,-5.61521,-54.8804,1.87134,148.034
2023-03-15 21:26:55:990,0.358211,7.98069,-5.61874,-54.8818,1.86883,148.033
2023-03-15 21:26:56:0,0.360121,7.97898,-5.62321,-54.8799,1.86924,148.033
2023-03-15 21:26:56:10,0.365689,7.9836,-5.62736,-54.8775,1.87043,148.031
2023-03-15 21:26:56:20,0.361036,7.99192,-5.60762,-54.8752,1.87139,148.028
2023-03-15 21:26:56:30,0.356754,7.98891,-5.61317,-54.8748,1.87019,148.029
2023-03-15 21:26:56:40,0.346336,7.99185,-5.61633,-54.8727,1.87152,148.03
2023-03-15 21:26:56:50,0.340289,7.99361,-5.60596,-54.8707,1.86939,148.029
2023-03-15 21:26:56:60,0.343363,7.98515,-5.61106,-54.872,1.86786,148.027
2023-03-15 21:26:56:70,0.366187,7.98991,-5.60938,-54.8721,1.86992,148.026
2023-03-15 21:26:56:80,0.340953,7.98547,-5.61031,-54.8718,1.8696,148.025
2023-03-15 21:26:56:90,0.346973,7.99007,-5.60804,-54.8692,1.86871,148.025
2023-03-15 21:26:56:100,0.354887,7.99656,-5.60872,-54.8668,1.86942,148.029
2023-03-15 21:26:56:110,0.353606,7.98818,-5.61508,-54.8646,1.86982,148.025
2023-03-15 21:26:56:120,0.353824,7.99106,-5.61567,-54.8652,1.87122,148.021
2023-03-15 21:26:56:130,0.364728,7.98433,-5.62662,-54.8644,1.87263,148.022
2023-03-15 21:26:56:140,0.362576,7.98346,-5.61368,-54.8638,1.87312,148.022
2023-03-15 21:26:56:150,0.353067,8.00433,-5.60939,-54.8644,1.87184,148.021
2023-03-15 21:26:56:160,0.350798,8.00052,-5.60391,-54.8638,1.8714,148.021
2023-03-15 21:26:56:170,0.360558,7.99217,-5.60706,-54.8624,1.87232,148.02
2023-03-15 21:26:56:180,0.372427,7.99447,-5.60979,-54.8623,1.8724,148.02
2023-03-15 21:26:56:190,0.366132,7.97734,-5.62758,-54.8635,1.86895,148.019
2023-03-15 21:26:56:200,0.360958,7.98434,-5.62479,-54.8618,1.86776,148.017
2023-03-15 21:26:56:210,0.358252,7.99461,-5.61232,-54.8619,1.8659,148.015
2023-03-15 21:26:56:220,0.351978,7.99049,-5.61604,-54.8632,1.86689,148.013
2023-03-15 21:26:56:230,0.342635,7.99636,-5.61273,-54.8647,1.86886,148.015
2023-03-15 21:26:56:240,0.349211,7.98867,-5.62218,-54.8639,1.87093,148.015
2023-03-15 21:26:56:250,0.356289,8.00176,-5.61111,-54.8656,1.8717,148.014
2023-03-15 21:26:56:260,0.352275,7.99999,-5.61115,-54.8668,1.87041,148.012
2023-03-15 21:26:56:270,0.356657,7.98946,-5.61503,-54.8701,1.87083,148.012
2023-03-15 21:26:56:280,0.367869,7.98772,-5.6119,-54.8702,1.87246,148.015
2023-03-15 21:26:56:290,0.36537,7.99522,-5.60639,-54.8703,1.8728,148.014
2023-03-15 21:26:56:300,0.353315,8.00249,-5.60915,-54.87,1.87568,148.013
2023-03-15 21:26:56:310,0.352674,7.99499,-5.60406,-54.8686,1.87413,148.012
2023-03-15 21:26:56:320,0.363396,7.9876,-5.60698,-54.8671,1.87303,148.011
2023-03-15 21:26:56:330,0.349296,7.98417,-5.6138,-54.8662,1.87167,148.009
2023-03-15 21:26:56:340,0.353287,7.99391,-5.59855,-54.868,1.87163,148.01
2023-03-15 21:26:56:349,0.357031,7.99662,-5.60096,-54.8658,1.87072,148.009
2023-03-15 21:26:56:360,0.353532,7.99544,-5.61844,-54.867,1.87034,148.009
2023-03-15 21:26:56:369,0.365539,7.98869,-5.62097,-54.8684,1.86878,148.01
2023-03-15 21:26:56:379,0.363493,7.99269,-5.62219,-54.8676,1.86813,148.012
2023-03-15 21:26:56:390,0.361139,7.99203,-5.61469,-54.8667,1.87053,148.015
2023-03-15 21:26:56:400,0.353402,7.99249,-5.60593,-54.8666,1.86989,148.018
2023-03-15 21:26:56:410,0.344932,7.99166,-5.61005,-54.8653,1.86918,148.018
2023-03-15 21:26:56:420,0.33707,7.99724,-5.60229,-54.8664,1.86979,148.016
2023-03-15 21:26:56:430,0.344839,8.00043,-5.61521,-54.865,1.86853,148.017
2023-03-15 21:26:56:440,0.34724,8.00091,-5.6055,-54.8624,1.86969,148.02
2023-03-15 21:26:56:450,0.348944,7.99456,-5.60857,-54.8614,1.87037,148.018
2023-03-15 21:26:56:460,0.343434,7.99684,-5.61267,-54.8608,1.86935,148.02
2023-03-15 21:26:56:470,0.352074,8.00294,-5.61351,-54.8616,1.86621,148.022
2023-03-15 21:26:56:480,0.36671,7.991,-5.62384,-54.8612,1.86648,148.024
2023-03-15 21:26:56:490,0.362505,7.99234,-5.61519,-54.862,1.86583,148.019
2023-03-15 21:26:56:500,0.365909,7.99367,-5.61004,-54.8606,1.86995,148.021
2023-03-15 21:26:56:510,0.358515,7.97996,-5.61006,-54.8627,1.87042,148.02
2023-03-15 21:26:56:520,0.353258,7.97371,-5.60875,-54.8603,1.87297,148.017
2023-03-15 21:26:56:530,0.363271,7.97618,-5.61195,-54.8624,1.87265,148.013
2023-03-15 21:26:56:540,0.351577,7.98631,-5.6075,-54.8604,1.87553,148.014
2023-03-15 21:26:56:550,0.339764,7.99874,-5.59608,-54.8603,1.87714,148.012
2023-03-15 21:26:56:560,0.335242,7.99967,-5.60845,-54.863,1.87692,148.015
2023-03-15 21:26:56:570,0.341736,7.9928,-5.61696,-54.8605,1.87346,148.012
2023-03-15 21:26:56:580,0.342098,7.98977,-5.61444,-54.8617,1.87099,148.014
2023-03-15 21:26:56:590,0.345691,7.9866,-5.60982,-54.8608,1.87285,148.015
2023-03-15 21:26:56:599,0.366126,7.97814,-5.61608,-54.862,1.8728,148.02
2023-03-15 21:26:56:610,0.373497,7.97908,-5.62996,-54.8633,1.87233,148.021
2023-03-15 21:26:56:619,0.370683,7.98191,-5.6271,-54.8598,1.87259,148.022
2023-03-15 21:26:56:629,0.35604,8.00716,-5.60638,-54.8613,1.87123,148.022
2023-03-15 21:26:56:640,0.351872,7.99563,-5.61464,-54.8625,1.87411,148.022
2023-03-15 21:26:56:650,0.339764,7.99824,-5.60747,-54.8646,1.87351,148.023
2023-03-15 21:26:56:659,0.342802,7.9896,-5.61687,-54.8661,1.87168,148.021
2023-03-15 21:26:56:670,0.348103,8.00193,-5.60781,-54.8648,1.87248,148.02
2023-03-15 21:26:56:680,0.361285,7.99774,-5.60152,-54.8673,1.87123,148.021
2023-03-15 21:26:56:690,0.367781,7.97262,-5.62516,-54.8639,1.8715,148.02
2023-03-15 21:26:56:700,0.368423,7.98457,-5.61491,-54.8615,1.87,148.021
2023-03-15 21:26:56:710,0.365748,7.9789,-5.62273,-54.8631,1.87071,148.023
2023-03-15 21:26:56:720,0.355386,7.98503,-5.61608,-54.8618,1.87079,148.023
2023-03-15 21:26:56:730,0.3494,8.00258,-5.6058,-54.863,1.8715,148.023
2023-03-15 21:26:56:740,0.345513,7.99724,-5.60249,-54.8624,1.87253,148.022
2023-03-15 21:26:56:750,0.333594,7.98212,-5.60724,-54.8663,1.87234,148.02
2023-03-15 21:26:56:760,0.345134,7.99605,-5.61149,-54.8673,1.87088,148.02
2023-03-15 21:26:56:770,0.350307,7.98721,-5.61539,-54.8656,1.87003,148.021
2023-03-15 21:26:56:780,0.360541,7.99191,-5.60903,-54.8656,1.87072,148.022
2023-03-15 21:26:56:790,0.360046,7.9939,-5.62015,-54.8636,1.87101,148.023
2023-03-15 21:26:56:800,0.344244,8.00435,-5.61655,-54.8616,1.87481,148.025
2023-03-15 21:26:56:810,0.353886,7.98756,-5.62054,-54.8623,1.87765,148.028
2023-03-15 21:26:56:820,0.357823,7.98255,-5.62584,-54.8636,1.87738,148.028
2023-03-15 21:26:56:830,0.355711,7.97568,-5.61246,-54.8668,1.87721,148.028
2023-03-15 21:26:56:840,0.358957,7.98087,-5.61521,-54.8656,1.87866,148.031
2023-03-15 21:26:56:850,0.351377,7.98271,-5.61595,-54.8649,1.87721,148.032
2023-03-15 21:26:56:860,0.34217,7.99146,-5.60324,-54.8669,1.87959,148.036
2023-03-15 21:26:56:869,0.334088,7.98714,-5.61197,-54.8653,1.87703,148.036
2023-03-15 21:26:56:879,0.345343,7.99964,-5.6128,-54.8653,1.87676,148.036
2023-03-15 21:26:56:889,0.344579,8.00122,-5.60631,-54.8635,1.87541,148.037
2023-03-15 21:26:56:899,0.354401,7.97654,-5.62585,-54.8651,1.87341,148.036
2023-03-15 21:26:56:909,0.362625,7.97503,-5.62455,-54.8659,1.87467,148.039
2023-03-15 21:26:56:920,0.362966,7.98135,-5.61638,-54.8681,1.87872,148.04
2023-03-15 21:26:56:930,0.349615,7.9836,-5.62535,-54.8682,1.87735,148.04
2023-03-15 21:26:56:940,0.335134,7.9902,-5.6094,-54.8686,1.87985,148.04
2023-03-15 21:26:56:950,0.350133,8.00147,-5.60516,-54.8684,1.88178,148.037
2023-03-15 21:26:56:960,0.356013,8.00318,-5.61342,-54.8672,1.88283,148.037
2023-03-15 21:26:56:969,0.35564,7.97948,-5.61889,-54.8695,1.88197,148.038
2023-03-15 21:26:56:979,0.365271,7.97075,-5.61823,-54.8682,1.88271,148.04
2023-03-15 21:26:56:990,0.360678,7.98066,-5.62179,-54.8691,1.88111,148.042
2023-03-15 21:26:57:0,0.357594,7.99387,-5.61461,-54.8702,1.88162,148.041
2023-03-15 21:26:57:10,0.358774,7.99546,-5.60538,-54.8687,1.88189,148.041
2023-03-15 21:26:57:20,0.349406,7.98711,-5.60719,-54.8701,1.88053,148.043
2023-03-15 21:26:57:30,0.339476,7.98972,-5.62113,-54.8695,1.88154,148.045
2023-03-15 21:26:57:40,0.350126,7.99308,-5.61315,-54.8709,1.8803,148.044
2023-03-15 21:26:57:50,0.347624,7.99047,-5.6166,-54.8715,1.87941,148.045
2023-03-15 21:26:57:60,0.353652,7.98483,-5.62207,-54.869,1.87812,148.047
2023-03-15 21:26:57:70,0.361007,7.98334,-5.61825,-54.8672,1.88052,148.047
2023-03-15 21:26:57:80,0.363774,7.98207,-5.6263,-54.8671,1.87856,148.047
2023-03-15 21:26:57:90,0.354112,7.99142,-5.60887,-54.8663,1.88252,148.049
2023-03-15 21:26:57:100,0.353064,7.99521,-5.60596,-54.8657,1.87972,148.052
2023-03-15 21:26:57:110,0.351398,8.00032,-5.60898,-54.8681,1.8819,148.053
2023-03-15 21:26:57:120,0.359789,7.99753,-5.60775,-54.8696,1.88242,148.051
2023-03-15 21:26:57:130,0.356815,7.98647,-5.60628,-54.8711,1.88165,148.052
2023-03-15 21:26:57:140,0.349726,7.98049,-5.61292,-54.8708,1.88386,148.052
2023-03-15 21:26:57:150,0.350594,7.9845,-5.61189,-54.8719,1.87965,148.052
2023-03-15 21:26:57:160,0.354098,7.99197,-5.61042,-54.8721,1.88415,148.054
2023-03-15 21:26:57:170,0.353036,7.9905,-5.61381,-54.8694,1.88197,148.053
2023-03-15 21:26:57:180,0.353667,7.98919,-5.62712,-54.8707,1.88393,148.052
2023-03-15 21:26:57:190,0.345417,7.9831,-5.61678,-54.8713,1.88276,148.053
2023-03-15 21:26:57:200,0.351715,7.98611,-5.61126,-54.8726,1.88018,148.057
2023-03-15 21:26:57:210,0.354208,8.00854,-5.6032,-54.8737,1.88039,148.055
2023-03-15 21:26:57:220,0.357095,8.00458,-5.61831,-54.8756,1.87757,148.054
2023-03-15 21:26:57:230,0.347707,7.98435,-5.62152,-54.8756,1.87946,148.053
2023-03-15 21:26:57:240,0.356209,7.98291,-5.61494,-54.8781,1.87864,148.052
2023-03-15 21:26:57:250,0.355297,7.99256,-5.6109,-54.8785,1.87638,148.049
2023-03-15 21:26:57:260,0.361019,7.98564,-5.61474,-54.8805,1.87575,148.049
2023-03-15 21:26:57:270,0.363046,7.97647,-5.62055,-54.8802,1.87535,148.049
2023-03-15 21:26:57:280,0.355116,7.99764,-5.60872,-54.8798,1.87505,148.049
2023-03-15 21:26:57:290,0.350675,8.00205,-5.60781,-54.88,1.87365,148.05
2023-03-15 21:26:57:300,0.357324,7.985,-5.61461,-54.8796,1.87418,148.046
2023-03-15 21:26:57:310,0.352278,7.9897,-5.61888,-54.8812,1.87256,148.045
2023-03-15 21:26:57:320,0.335021,7.98464,-5.6186,-54.8836,1.86994,148.045
2023-03-15 21:26:57:330,0.349456,7.98897,-5.59888,-54.8856,1.86844,148.047
2023-03-15 21:26:57:340,0.359639,7.98007,-5.61031,-54.8878,1.86874,148.046
2023-03-15 21:26:57:350,0.366359,7.99657,-5.61233,-54.8904,1.86848,148.046
2023-03-15 21:26:57:360,0.358959,7.99076,-5.60654,-54.8904,1.87126,148.047
2023-03-15 21:26:57:370,0.356648,7.98496,-5.61947,-54.8917,1.87498,148.047
2023-03-15 21:26:57:380,0.355042,7.98263,-5.62066,-54.8918,1.8759,148.047
2023-03-15 21:26:57:390,0.357411,7.98372,-5.61476,-54.8919,1.87429,148.046
2023-03-15 21:26:57:400,0.344075,7.99269,-5.60518,-54.89,1.87272,148.044
2023-03-15 21:26:57:410,0.349783,7.97493,-5.62081,-54.8886,1.87044,148.045
2023-03-15 21:26:57:420,0.354381,7.98309,-5.61213,-54.889,1.87271,148.045
2023-03-15 21:26:57:430,0.356688,7.98888,-5.61065,-54.8885,1.87325,148.046
2023-03-15 21:26:57:440,0.355687,7.98869,-5.61567,-54.8908,1.87331,148.045
2023-03-15 21:26:57:450,0.358481,7.99415,-5.60266,-54.8881,1.87446,148.043
2023-03-15 21:26:57:460,0.353231,7.99211,-5.60771,-54.8868,1.87565,148.044
2023-03-15 21:26:57:470,0.349736,7.99159,-5.61302,-54.8842,1.87507,148.046
2023-03-15 21:26:57:480,0.346473,7.98871,-5.62158,-54.8848,1.87496,148.046
2023-03-15 21:26:57:490,0.332896,7.9905,-5.60724,-54.8866,1.87337,148.046
2023-03-15 21:26:57:500,0.341105,7.99535,-5.60248,-54.8853,1.87091,148.047
2023-03-15 21:26:57:510,0.366324,7.98781,-5.62454,-54.8853,1.87057,148.044
2023-03-15 21:26:57:520,0.361287,7.9901,-5.61865,-54.8841,1.87239,148.046
2023-03-15 21:26:57:530,0.358813,7.98891,-5.61708,-54.8831,1.87089,148.045
2023-03-15 21:26:57:540,0.359494,7.98404,-5.61577,-54.8837,1.8714,148.047
2023-03-15 21:26:57:550,0.349871,7.98745,-5.60903,-54.8852,1.87475,148.047
2023-03-15 21:26:57:560,0.355307,7.9946,-5.60774,-54.8825,1.87124,148.044
2023-03-15 21:26:57:570,0.350036,7.99488,-5.61304,-54.8818,1.87378,148.045
2023-03-15 21:26:57:580,0.352739,7.99827,-5.61495,-54.8814,1.87436,148.043
2023-03-15 21:26:57:590,0.3535,8.00066,-5.60737,-54.8828,1.87561,148.043
2023-03-15 21:26:57:600,0.355751,7.98565,-5.60952,-54.8804,1.87694,148.042
2023-03-15 21:26:57:610,0.365749,7.98914,-5.61385,-54.878,1.87706,148.042
2023-03-15 21:26:57:620,0.374805,7.98871,-5.61882,-54.8786,1.87557,148.044
2023-03-15 21:26:57:630,0.361602,7.9799,-5.61725,-54.8788,1.87683,148.041
2023-03-15 21:26:57:640,0.357135,7.9776,-5.61395,-54.8755,1.8742,148.045
2023-03-15 21:26:57:650,0.35677,7.98448,-5.61415,-54.8755,1.87298,148.046
2023-03-15 21:26:57:660,0.350996,7.99025,-5.61582,-54.8713,1.87351,148.051
2023-03-15 21:26:57:670,0.349775,7.98676,-5.60995,-54.8746,1.87566,148.052
2023-03-15 21:26:57:680,0.350403,7.99271,-5.61818,-54.8736,1.87462,148.053
2023-03-15 21:26:57:690,0.358471,7.98726,-5.61896,-54.8701,1.87367,148.053
2023-03-15 21:26:57:700,0.361775,7.98856,-5.61706,-54.8711,1.87422,148.051
2023-03-15 21:26:57:710,0.354807,8.00109,-5.61331,-54.8699,1.8753,148.052
2023-03-15 21:26:57:720,0.356167,7.98737,-5.61496,-54.8707,1.87428,148.05
2023-03-15 21:26:57:730,0.346986,7.99485,-5.61069,-54.8684,1.87443,148.051
2023-03-15 21:26:57:740,0.344228,7.99467,-5.61358,-54.8693,1.87148,148.049
2023-03-15 21:26:57:750,0.357741,7.98846,-5.61921,-54.8707,1.87154,148.046
2023-03-15 21:26:57:760,0.351069,7.99186,-5.61543,-54.8699,1.87071,148.047
2023-03-15 21:26:57:770,0.352452,7.99332,-5.61196,-54.8688,1.87282,148.047
2023-03-15 21:26:57:780,0.356186,7.98699,-5.61261,-54.8712,1.87148,148.042
2023-03-15 21:26:57:790,0.369223,7.98159,-5.62724,-54.8711,1.86978,148.039
2023-03-15 21:26:57:800,0.368492,7.98489,-5.61427,-54.8701,1.8721,148.038
2023-03-15 21:26:57:810,0.358209,7.97949,-5.61763,-54.8707,1.87256,148.038
2023-03-15 21:26:57:820,0.355848,7.98753,-5.61464,-54.868,1.87297,148.04
2023-03-15 21:26:57:830,0.354094,7.99102,-5.60977,-54.8706,1.87268,148.041
2023-03-15 21:26:57:840,0.362818,7.99098,-5.60459,-54.8698,1.87217,148.043
2023-03-15 21:26:57:850,0.359251,7.98408,-5.62513,-54.8721,1.87085,148.043
2023-03-15 21:26:57:860,0.353311,7.97707,-5.61862,-54.8718,1.87183,148.046
2023-03-15 21:26:57:870,0.353564,7.98564,-5.62053,-54.8699,1.87311,148.048
2023-03-15 21:26:57:880,0.348752,7.99332,-5.62304,-54.8714,1.87252,148.043
2023-03-15 21:26:57:890,0.352495,7.98957,-5.6203,-54.8718,1.86988,148.043
2023-03-15 21:26:57:900,0.357279,7.98791,-5.61644,-54.8684,1.87086,148.047
2023-03-15 21:26:57:910,0.355676,7.9801,-5.62247,-54.8686,1.87108,148.044
2023-03-15 21:26:57:920,0.364836,7.98211,-5.61073,-54.8684,1.87376,148.043
2023-03-15 21:26:57:930,0.351058,7.99725,-5.60149,-54.866,1.87206,148.047
2023-03-15 21:26:57:940,0.344011,7.99711,-5.60831,-54.8646,1.87044,148.044
2023-03-15 21:26:57:950,0.343438,7.98806,-5.61768,-54.8657,1.872,148.044
2023-03-15 21:26:57:960,0.349351,7.98431,-5.6152,-54.8651,1.87474,148.045
2023-03-15 21:26:57:970,0.365295,7.98532,-5.61148,-54.8654,1.87817,148.046
2023-03-15 21:26:57:980,0.361716,7.98035,-5.61028,-54.8648,1.87602,148.047
2023-03-15 21:26:57:990,0.355436,7.98784,-5.61585,-54.8607,1.87527,148.047
2023-03-15 21:26:58:0,0.353005,7.9929,-5.62502,-54.8637,1.87287,148.048
2023-03-15 21:26:58:10,0.35537,7.99705,-5.61711,-54.8622,1.87313,148.046
2023-03-15 21:26:58:20,0.34555,7.98817,-5.61421,-54.8649,1.87204,148.047
2023-03-15 21:26:58:30,0.345095,7.97884,-5.6187,-54.8643,1.87449,148.049
2023-03-15 21:26:58:40,0.348538,7.97769,-5.62174,-54.8617,1.87367,148.048
2023-03-15 21:26:58:50,0.354688,7.98354,-5.6116,-54.8623,1.86947,148.05
2023-03-15 21:26:58:60,0.351149,7.97491,-5.61899,-54.8631,1.86723,148.053
2023-03-15 21:26:58:70,0.347855,7.98524,-5.62055,-54.8609,1.86676,148.057
2023-03-15 21:26:58:80,0.352706,7.99237,-5.61098,-54.8639,1.86744,148.058
2023-03-15 21:26:58:90,0.357728,7.99006,-5.60867,-54.862,1.86392,148.056
2023-03-15 21:26:58:100,0.357421,7.98079,-5.625,-54.8647,1.8668,148.057
2023-03-15 21:26:58:110,0.356921,7.97981,-5.62848,-54.8654,1.86589,148.056
2023-03-15 21:26:58:120,0.352982,7.99038,-5.60837,-54.8682,1.86564,148.057
2023-03-15 21:26:58:130,0.344066,7.99185,-5.60528,-54.8687,1.86516,148.055
2023-03-15 21:26:58:140,0.354829,7.99305,-5.61709,-54.8689,1.86295,148.054
2023-03-15 21:26:58:150,0.357801,7.99514,-5.60528,-54.8664,1.86182,148.057
2023-03-15 21:26:58:160,0.356689,7.99726,-5.60147,-54.8679,1.85982,148.054
2023-03-15 21:26:58:170,0.348201,7.98478,-5.60708,-54.8676,1.85756,148.055
2023-03-15 21:26:58:180,0.343996,7.98983,-5.61656,-54.8691,1.85557,148.053
2023-03-15 21:26:58:190,0.351246,7.99074,-5.61412,-54.8714,1.85699,148.054
2023-03-15 21:26:58:200,0.36481,7.97854,-5.61721,-54.8726,1.85849,148.052
2023-03-15 21:26:58:210,0.355153,7.987,-5.61081,-54.8745,1.85609,148.052
2023-03-15 21:26:58:220,0.35734,7.99193,-5.61557,-54.876,1.8547,148.053
2023-03-15 21:26:58:230,0.357984,7.98217,-5.61318,-54.8772,1.85476,148.051
2023-03-15 21:26:58:240,0.353973,7.97629,-5.61635,-54.8773,1.85235,148.053
2023-03-15 21:26:58:250,0.351732,7.98227,-5.62122,-54.8774,1.84989,148.054
2023-03-15 21:26:58:260,0.362352,7.98861,-5.61487,-54.8817,1.85214,148.052
2023-03-15 21:26:58:270,0.364803,7.98284,-5.6146,-54.8817,1.84909,148.052
2023-03-15 21:26:58:280,0.358258,7.99313,-5.61028,-54.8788,1.85145,148.054
2023-03-15 21:26:58:290,0.358121,7.99517,-5.61621,-54.8804,1.85228,148.056
2023-03-15 21:26:58:300,0.359912,7.996,-5.61226,-54.8835,1.85314,148.059
2023-03-15 21:26:58:310,0.346575,7.98923,-5.61622,-54.8835,1.85199,148.058
2023-03-15 21:26:58:320,0.352725,7.98089,-5.61819,-54.8809,1.85255,148.055
2023-03-15 21:26:58:330,0.363366,7.98672,-5.62085,-54.8817,1.8515,148.055
2023-03-15 21:26:58:340,0.351958,7.98831,-5.63218,-54.8797,1.85251,148.055
2023-03-15 21:26:58:350,0.361269,7.98475,-5.62691,-54.8787,1.85249,148.058
2023-03-15 21:26:58:360,0.366381,7.99206,-5.61442,-54.8757,1.85377,148.06
2023-03-15 21:26:58:370,0.355994,7.99407,-5.60311,-54.8756,1.85759,148.054
2023-03-15 21:26:58:380,0.359091,7.99362,-5.60915,-54.8779,1.85871,148.055
2023-03-15 21:26:58:390,0.341022,7.99082,-5.61885,-54.8794,1.86084,148.053
2023-03-15 21:26:58:400,0.349954,8.00067,-5.60958,-54.8788,1.85849,148.052
2023-03-15 21:26:58:410,0.367427,7.98053,-5.6134,-54.8794,1.86041,148.052
2023-03-15 21:26:58:420,0.360734,7.98437,-5.62316,-54.8786,1.86297,148.056
2023-03-15 21:26:58:430,0.362034,7.97858,-5.6152,-54.8795,1.86777,148.054
2023-03-15 21:26:58:440,0.365279,7.98362,-5.61826,-54.8801,1.86681,148.054
2023-03-15 21:26:58:450,0.360281,7.9882,-5.61603,-54.8797,1.87135,148.051
2023-03-15 21:26:58:460,0.350576,7.99306,-5.60833,-54.8821,1.87309,148.055
2023-03-15 21:26:58:470,0.356114,7.99128,-5.62193,-54.8808,1.87236,148.055
2023-03-15 21:26:58:480,0.348917,7.99422,-5.62545,-54.8786,1.87572,148.053
2023-03-15 21:26:58:490,0.348601,7.98971,-5.61706,-54.8792,1.87548,148.06
2023-03-15 21:26:58:500,0.36317,7.97763,-5.61479,-54.8801,1.87361,148.059
2023-03-15 21:26:58:510,0.361115,7.97782,-5.62111,-54.8815,1.8712,148.06
2023-03-15 21:26:58:520,0.353818,7.98704,-5.62115,-54.8778,1.87184,148.058
2023-03-15 21:26:58:530,0.35123,7.98775,-5.62195,-54.8768,1.87229,148.057
2023-03-15 21:26:58:540,0.357613,7.98826,-5.61812,-54.878,1.87117,148.056
2023-03-15 21:26:58:550,0.344104,7.99521,-5.61128,-54.8769,1.87282,148.054
2023-03-15 21:26:58:560,0.345384,7.99616,-5.61194,-54.8773,1.87389,148.051
2023-03-15 21:26:58:570,0.352823,7.99491,-5.61842,-54.8745,1.87278,148.05
2023-03-15 21:26:58:580,0.346024,7.99794,-5.61067,-54.8749,1.87312,148.047
2023-03-15 21:26:58:590,0.367723,7.99253,-5.60648,-54.8772,1.87299,148.049
2023-03-15 21:26:58:600,0.366366,7.98943,-5.60774,-54.8791,1.87242,148.05
2023-03-15 21:26:58:610,0.353876,7.98415,-5.61574,-54.8774,1.8737,148.05
2023-03-15 21:26:58:620,0.350065,7.99154,-5.61314,-54.8772,1.87419,148.051
2023-03-15 21:26:58:630,0.343268,7.98859,-5.62165,-54.8729,1.87672,148.05
2023-03-15 21:26:58:640,0.341527,7.99363,-5.62409,-54.8745,1.87756,148.049
2023-03-15 21:26:58:650,0.348929,7.99274,-5.61337,-54.8762,1.87443,148.048
2023-03-15 21:26:58:660,0.342097,7.98484,-5.62008,-54.8764,1.87138,148.047
2023-03-15 21:26:58:670,0.357835,7.99128,-5.618,-54.8748,1.87287,148.043
2023-03-15 21:26:58:680,0.367819,7.99307,-5.62437,-54.8734,1.8732,148.042
2023-03-15 21:26:58:690,0.371016,7.99854,-5.61184,-54.8725,1.87507,148.045
2023-03-15 21:26:58:700,0.36951,7.99066,-5.61504,-54.8707,1.87624,148.049
2023-03-15 21:26:58:710,0.353503,8.00574,-5.60262,-54.8689,1.87765,148.052
2023-03-15 21:26:58:720,0.3451,8.0061,-5.59668,-54.8718,1.87855,148.051
2023-03-15 21:26:58:730,0.339682,7.99138,-5.61352,-54.8718,1.87879,148.05
2023-03-15 21:26:58:740,0.355937,7.99552,-5.60843,-54.871,1.88184,148.05
2023-03-15 21:26:58:750,0.354706,7.98637,-5.61965,-54.872,1.87868,148.048
2023-03-15 21:26:58:760,0.362147,7.98625,-5.61396,-54.8722,1.88153,148.049
2023-03-15 21:26:58:770,0.354411,7.98979,-5.61325,-54.8693,1.88332,148.049
2023-03-15 21:26:58:780,0.358692,7.98925,-5.61086,-54.868,1.88428,148.052
2023-03-15 21:26:58:790,0.357737,7.98416,-5.6252,-54.8658,1.88416,148.052
2023-03-15 21:26:58:800,0.347834,7.99117,-5.62017,-54.8628,1.88479,148.051
2023-03-15 21:26:58:810,0.336393,7.98962,-5.60276,-54.8637,1.88353,148.052
2023-03-15 21:26:58:820,0.350287,7.99082,-5.615,-54.8649,1.88493,148.052
2023-03-15 21:26:58:830,0.357599,7.99346,-5.61429,-54.8642,1.88464,148.054
2023-03-15 21:26:58:840,0.356067,7.98306,-5.61234,-54.8632,1.88515,148.052
2023-03-15 21:26:58:850,0.357015,7.98982,-5.60898,-54.8635,1.88475,148.051
2023-03-15 21:26:58:860,0.358937,7.99796,-5.61432,-54.8617,1.88549,148.049
2023-03-15 21:26:58:870,0.361881,7.99333,-5.6114,-54.8614,1.88489,148.048
2023-03-15 21:26:58:880,0.35088,7.99245,-5.6099,-54.8622,1.88425,148.048
2023-03-15 21:26:58:890,0.354993,7.98949,-5.61066,-54.8606,1.88325,148.05
2023-03-15 21:26:58:900,0.347532,7.98394,-5.61292,-54.8599,1.88349,148.05
2023-03-15 21:26:58:910,0.335887,7.98629,-5.60842,-54.8623,1.88433,148.055
2023-03-15 21:26:58:920,0.355698,7.99608,-5.60778,-54.8611,1.88764,148.055
2023-03-15 21:26:58:930,0.358016,7.99187,-5.61346,-54.8623,1.88756,148.057
2023-03-15 21:26:58:940,0.369048,7.9846,-5.6176,-54.8621,1.88654,148.057
2023-03-15 21:26:58:950,0.356454,7.98889,-5.6208,-54.8615,1.88459,148.055
2023-03-15 21:26:58:960,0.350223,7.99637,-5.60804,-54.8634,1.88483,148.058
2023-03-15 21:26:58:970,0.356125,7.99502,-5.60509,-54.8647,1.88426,148.059
2023-03-15 21:26:58:980,0.347232,7.99481,-5.61174,-54.8629,1.88432,148.056
2023-03-15 21:26:58:990,0.350549,7.98911,-5.60322,-54.863,1.88287,148.056
2023-03-15 21:26:59:0,0.352327,7.98428,-5.6059,-54.8636,1.88076,148.053
2023-03-15 21:26:59:10,0.353855,7.98169,-5.61889,-54.8628,1.87993,148.054
2023-03-15 21:26:59:20,0.361247,7.983,-5.62692,-54.8642,1.8775,148.058
2023-03-15 21:26:59:30,0.352707,7.98847,-5.62442,-54.8632,1.8778,148.057
2023-03-15 21:26:59:40,0.357988,7.98425,-5.61026,-54.8644,1.87594,148.056
2023-03-15 21:26:59:50,0.356125,7.9844,-5.61162,-54.864,1.87584,148.055
2023-03-15 21:26:59:60,0.362905,7.99039,-5.6144,-54.8625,1.87437,148.055
2023-03-15 21:26:59:70,0.353928,8.00098,-5.61184,-54.8645,1.87594,148.057
2023-03-15 21:26:59:80,0.355031,7.9933,-5.62155,-54.8659,1.87302,148.058
2023-03-15 21:26:59:90,0.340633,7.99249,-5.61142,-54.8657,1.87425,148.059
2023-03-15 21:26:59:100,0.349289,8.0002,-5.60952,-54.8642,1.87337,148.062
2023-03-15 21:26:59:110,0.356006,7.98695,-5.60392,-54.8651,1.87103,148.065
2023-03-15 21:26:59:120,0.356192,7.9939,-5.59446,-54.8663,1.86913,148.066
2023-03-15 21:26:59:130,0.353674,7.98629,-5.61518,-54.8675,1.86803,148.069
2023-03-15 21:26:59:140,0.357916,7.98933,-5.6158,-54.8681,1.86646,148.071
2023-03-15 21:26:59:150,0.353487,7.98481,-5.6202,-54.866,1.86636,148.072
2023-03-15 21:26:59:160,0.348979,7.99416,-5.61257,-54.8624,1.86329,148.07
2023-03-15 21:26:59:170,0.347212,7.99731,-5.60989,-54.8654,1.86467,148.07
2023-03-15 21:26:59:180,0.348695,7.99937,-5.60326,-54.8669,1.86693,148.07
2023-03-15 21:26:59:190,0.358249,7.98894,-5.61442,-54.8646,1.86985,148.069
2023-03-15 21:26:59:200,0.360502,7.9875,-5.61558,-54.8649,1.86841,148.071
2023-03-15 21:26:59:210,0.368451,7.98886,-5.61583,-54.8626,1.86796,148.07
2023-03-15 21:26:59:220,0.370695,7.9941,-5.61255,-54.8616,1.87123,148.069
2023-03-15 21:26:59:230,0.3608,7.9945,-5.60174,-54.8593,1.87315,148.069
2023-03-15 21:26:59:240,0.351754,7.99921,-5.60321,-54.8559,1.87456,148.07
2023-03-15 21:26:59:250,0.3496,7.99471,-5.61542,-54.8561,1.87389,148.07
2023-03-15 21:26:59:260,0.351319,7.98707,-5.61767,-54.8529,1.87343,148.072
2023-03-15 21:26:59:270,0.359166,7.98623,-5.61247,-54.8517,1.87479,148.07
2023-03-15 21:26:59:280,0.363502,7.99301,-5.60728,-54.8501,1.87842,148.071
2023-03-15 21:26:59:290,0.369479,7.99028,-5.62797,-54.8502,1.87871,148.071
2023-03-15 21:26:59:300,0.362013,7.97739,-5.62637,-54.8512,1.87896,148.073
2023-03-15 21:26:59:310,0.357743,7.98383,-5.62213,-54.8526,1.87938,148.071
2023-03-15 21:26:59:320,0.3506,7.98409,-5.61987,-54.848,1.88133,148.071
2023-03-15 21:26:59:330,0.344959,7.98295,-5.61119,-54.848,1.88402,148.074
2023-03-15 21:26:59:340,0.349057,7.9982,-5.59858,-54.8453,1.88439,148.072
2023-03-15 21:26:59:350,0.355466,7.99172,-5.60786,-54.8446,1.88485,148.075
2023-03-15 21:26:59:360,0.355568,7.98914,-5.60972,-54.8453,1.88291,148.076
2023-03-15 21:26:59:370,0.361934,7.99528,-5.61347,-54.8467,1.87902,148.075
2023-03-15 21:26:59:380,0.360013,7.99077,-5.62738,-54.8461,1.88114,148.073
2023-03-15 21:26:59:390,0.361377,7.98762,-5.61951,-54.8456,1.88224,148.074
2023-03-15 21:26:59:400,0.345876,7.98723,-5.61683,-54.8467,1.88207,148.078
2023-03-15 21:26:59:410,0.351542,7.99647,-5.60354,-54.8477,1.88534,148.077
2023-03-15 21:26:59:420,0.341156,7.99726,-5.6157,-54.8482,1.88264,148.077
2023-03-15 21:26:59:430,0.350303,7.9899,-5.61364,-54.8466,1.88158,148.074
2023-03-15 21:26:59:440,0.349004,7.99343,-5.62322,-54.8467,1.88074,148.072
2023-03-15 21:26:59:450,0.346542,7.99952,-5.62477,-54.8427,1.88236,148.072
2023-03-15 21:26:59:460,0.35607,7.99342,-5.62491,-54.8446,1.8815,148.073
2023-03-15 21:26:59:470,0.356974,7.99134,-5.62419,-54.8464,1.88225,148.073
2023-03-15 21:26:59:480,0.358051,7.98606,-5.61354,-54.8455,1.88208,148.074
2023-03-15 21:26:59:490,0.350305,7.99289,-5.61074,-54.8447,1.88296,148.076
2023-03-15 21:26:59:500,0.359444,7.99222,-5.61561,-54.8402,1.88264,148.075
2023-03-15 21:26:59:510,0.366988,7.99922,-5.62262,-54.8411,1.88006,148.074
2023-03-15 21:26:59:520,0.343878,7.99532,-5.61896,-54.8376,1.88135,148.072
2023-03-15 21:26:59:530,0.348534,7.9966,-5.60822,-54.8385,1.87834,148.071
2023-03-15 21:26:59:540,0.342105,7.98813,-5.61493,-54.8377,1.87946,148.07
2023-03-15 21:26:59:550,0.349658,7.98434,-5.60801,-54.8376,1.87997,148.067
2023-03-15 21:26:59:560,0.343406,7.99484,-5.60719,-54.8399,1.88339,148.063
2023-03-15 21:26:59:570,0.348322,7.99509,-5.60554,-54.8403,1.88378,148.062
2023-03-15 21:26:59:580,0.365247,7.98666,-5.60793,-54.8408,1.88407,148.06
2023-03-15 21:26:59:590,0.3649,7.97994,-5.61731,-54.843,1.88702,148.061
2023-03-15 21:26:59:600,0.364671,7.97027,-5.62335,-54.8445,1.88633,148.064
2023-03-15 21:26:59:609,0.360321,7.98502,-5.62298,-54.8436,1.88508,148.064
2023-03-15 21:26:59:619,0.352946,8.00336,-5.60424,-54.8445,1.88587,148.064
2023-03-15 21:26:59:630,0.33265,7.99825,-5.6014,-54.8451,1.8867,148.062
2023-03-15 21:26:59:640,0.349826,7.99717,-5.60694,-54.8454,1.88522,148.062
2023-03-15 21:26:59:650,0.350794,7.99104,-5.61187,-54.842,1.88618,148.063
2023-03-15 21:26:59:660,0.359382,7.98553,-5.61891,-54.8408,1.88716,148.063
2023-03-15 21:26:59:670,0.359884,7.97991,-5.62075,-54.8401,1.88688,148.061
2023-03-15 21:26:59:680,0.371096,7.99011,-5.6081,-54.8416,1.88635,148.062
2023-03-15 21:26:59:690,0.351149,7.99454,-5.61513,-54.8426,1.88695,148.063
2023-03-15 21:26:59:700,0.345195,7.98697,-5.60903,-54.8441,1.88495,148.063
2023-03-15 21:26:59:710,0.346421,7.97933,-5.61282,-54.8474,1.88612,148.063
2023-03-15 21:26:59:720,0.354348,7.99131,-5.61864,-54.847,1.88632,148.062
2023-03-15 21:26:59:730,0.354848,7.9864,-5.62024,-54.8437,1.88727,148.063
2023-03-15 21:26:59:740,0.369798,7.98221,-5.61446,-54.844,1.88783,148.065
2023-03-15 21:26:59:750,0.3714,7.98988,-5.60859,-54.8463,1.88616,148.064
2023-03-15 21:26:59:760,0.350251,7.9851,-5.62295,-54.8462,1.88601,148.063
2023-03-15 21:26:59:770,0.344712,7.98689,-5.62039,-54.8456,1.8853,148.061
2023-03-15 21:26:59:780,0.35601,7.97362,-5.61525,-54.8474,1.886,148.061
2023-03-15 21:26:59:790,0.355721,7.9939,-5.60463,-54.8476,1.88783,148.06
2023-03-15 21:26:59:800,0.343842,7.99698,-5.60964,-54.8481,1.88637,148.059
2023-03-15 21:26:59:810,0.341461,7.99024,-5.61096,-54.8442,1.88546,148.057
2023-03-15 21:26:59:820,0.353825,7.98087,-5.62167,-54.8445,1.88463,148.053
2023-03-15 21:26:59:830,0.355502,7.98828,-5.61742,-54.8429,1.88301,148.052
2023-03-15 21:26:59:840,0.350263,7.99407,-5.61358,-54.8416,1.88088,148.053
2023-03-15 21:26:59:850,0.354125,7.99835,-5.62119,-54.8404,1.88007,148.052
2023-03-15 21:26:59:860,0.353048,7.98816,-5.61228,-54.842,1.87846,148.051
2023-03-15 21:26:59:870,0.355358,7.98144,-5.61008,-54.8371,1.88004,148.051
2023-03-15 21:26:59:880,0.364065,7.98436,-5.61555,-54.8383,1.881,148.05
2023-03-15 21:26:59:890,0.361888,7.98791,-5.61318,-54.8386,1.88247,148.049
2023-03-15 21:26:59:900,0.352463,7.98531,-5.60634,-54.8377,1.88413,148.046
2023-03-15 21:26:59:910,0.353752,7.99532,-5.59756,-54.8385,1.883,148.052
2023-03-15 21:26:59:920,0.353739,7.99692,-5.60884,-54.8402,1.88358,148.051
2023-03-15 21:26:59:930,0.344137,7.99858,-5.61176,-54.8392,1.88275,148.053
2023-03-15 21:26:59:940,0.340672,7.98397,-5.614,-54.8376,1.883,148.052
2023-03-15 21:26:59:950,0.346855,7.98556,-5.61455,-54.8349,1.88285,148.053
2023-03-15 21:26:59:960,0.354696,7.983,-5.61097,-54.8337,1.88136,148.054
2023-03-15 21:26:59:970,0.362206,7.99383,-5.61933,-54.8335,1.88341,148.055
2023-03-15 21:26:59:980,0.350351,7.99266,-5.62537,-54.8328,1.88471,148.055
2023-03-15 21:26:59:990,0.358115,7.9819,-5.61737,-54.8358,1.88634,148.053
2023-03-15 21:27:00:0,0.356719,7.9964,-5.60907,-54.838,1.8877,148.052
2023-03-15 21:27:00:10,0.342168,7.9922,-5.6119,-54.8379,1.88765,148.052
2023-03-15 21:27:00:20,0.345147,7.9981,-5.60611,-54.8388,1.8891,148.055
2023-03-15 21:27:00:30,0.342194,7.9978,-5.60357,-54.8394,1.8888,148.058
2023-03-15 21:27:00:40,0.352315,7.99384,-5.60779,-54.8421,1.88618,148.059
2023-03-15 21:27:00:50,0.35468,7.97846,-5.61651,-54.8458,1.88423,148.06
2023-03-15 21:27:00:60,0.356511,7.99256,-5.6067,-54.8489,1.88293,148.059
2023-03-15 21:27:00:70,0.354637,7.98714,-5.615,-54.8489,1.88409,148.061
2023-03-15 21:27:00:80,0.356771,7.9796,-5.61564,-54.8493,1.88271,148.064
2023-03-15 21:27:00:90,0.357716,7.98926,-5.59882,-54.8492,1.88123,148.066
2023-03-15 21:27:00:100,0.352554,7.99174,-5.60973,-54.8497,1.88152,148.067
2023-03-15 21:27:00:110,0.339494,7.98227,-5.61093,-54.8486,1.88062,148.07
2023-03-15 21:27:00:120,0.356838,7.97191,-5.61301,-54.849,1.88082,148.075
2023-03-15 21:27:00:130,0.362927,7.98174,-5.60793,-54.8465,1.88042,148.077
2023-03-15 21:27:00:140,0.360236,7.99663,-5.60042,-54.8466,1.87921,148.078
2023-03-15 21:27:00:150,0.356087,7.99424,-5.59752,-54.8445,1.87888,148.081
2023-03-15 21:27:00:160,0.371959,7.98444,-5.6129,-54.8461,1.88098,148.08
2023-03-15 21:27:00:170,0.360268,7.99407,-5.62005,-54.8464,1.8808,148.084
2023-03-15 21:27:00:180,0.351048,7.9778,-5.61881,-54.8466,1.88018,148.084
2023-03-15 21:27:00:190,0.352651,7.98257,-5.60433,-54.85,1.87931,148.083
2023-03-15 21:27:00:200,0.354796,7.99068,-5.61202,-54.8507,1.87999,148.084
2023-03-15 21:27:00:210,0.348669,7.98598,-5.61818,-54.8531,1.88096,148.08
2023-03-15 21:27:00:220,0.344801,7.9888,-5.61694,-54.8532,1.88301,148.081
2023-03-15 21:27:00:230,0.357586,7.99082,-5.61522,-54.8532,1.88151,148.082
2023-03-15 21:27:00:240,0.357704,7.98796,-5.61236,-54.8561,1.88273,148.082
2023-03-15 21:27:00:250,0.359319,7.98393,-5.60449,-54.8567,1.88309,148.082
2023-03-15 21:27:00:260,0.361138,7.9885,-5.61541,-54.8576,1.88487,148.08
2023-03-15 21:27:00:270,0.355974,7.98661,-5.61948,-54.8581,1.88299,148.079
2023-03-15 21:27:00:280,0.353556,7.98694,-5.60899,-54.8579,1.88108,148.078
2023-03-15 21:27:00:290,0.354939,7.98688,-5.60673,-54.8571,1.88048,148.078
2023-03-15 21:27:00:300,0.356687,7.99068,-5.60676,-54.8597,1.88133,148.078
2023-03-15 21:27:00:310,0.355038,7.98968,-5.61271,-54.8608,1.88162,148.077
2023-03-15 21:27:00:320,0.350098,7.98253,-5.62351,-54.8604,1.88158,148.076
2023-03-15 21:27:00:330,0.353688,7.99162,-5.61978,-54.8599,1.88358,148.078
2023-03-15 21:27:00:340,0.361883,7.99033,-5.61117,-54.8588,1.88446,148.079
2023-03-15 21:27:00:350,0.359,7.9988,-5.61345,-54.8571,1.88458,148.078
2023-03-15 21:27:00:360,0.35915,7.9846,-5.61598,-54.8569,1.88284,148.078
2023-03-15 21:27:00:370,0.362393,7.97454,-5.62059,-54.8547,1.88059,148.08
2023-03-15 21:27:00:380,0.368664,7.97944,-5.61978,-54.8583,1.88063,148.082
2023-03-15 21:27:00:390,0.368388,7.98353,-5.60958,-54.8605,1.88181,148.082
2023-03-15 21:27:00:400,0.361969,7.97894,-5.62264,-54.8594,1.88352,148.082
2023-03-15 21:27:00:410,0.365425,7.98088,-5.6213,-54.862,1.88453,148.079
2023-03-15 21:27:00:420,0.373837,7.98649,-5.62101,-54.861,1.88432,148.08
2023-03-15 21:27:00:430,0.363369,7.99414,-5.60512,-54.8582,1.88519,148.079
2023-03-15 21:27:00:440,0.358853,7.9863,-5.61395,-54.8576,1.88532,148.08
2023-03-15 21:27:00:450,0.358551,7.97745,-5.61829,-54.859,1.88379,148.079
2023-03-15 21:27:00:460,0.359566,7.98218,-5.60753,-54.856,1.88439,148.08
2023-03-15 21:27:00:470,0.353672,7.98716,-5.60644,-54.8581,1.88381,148.078
2023-03-15 21:27:00:480,0.354821,7.97701,-5.61192,-54.8585,1.88715,148.077
2023-03-15 21:27:00:490,0.350802,7.98016,-5.6201,-54.8584,1.88678,148.079
2023-03-15 21:27:00:500,0.355051,7.98829,-5.62553,-54.8561,1.8857,148.079
2023-03-15 21:27:00:510,0.363524,7.98848,-5.62149,-54.8557,1.88842,148.08
2023-03-15 21:27:00:520,0.352614,7.99586,-5.6115,-54.8543,1.88815,148.079
2023-03-15 21:27:00:530,0.354136,8.00037,-5.60894,-54.8514,1.88695,148.081
2023-03-15 21:27:00:540,0.357512,7.99311,-5.61487,-54.8513,1.8902,148.08
2023-03-15 21:27:00:550,0.350802,7.99766,-5.60517,-54.852,1.89247,148.079
2023-03-15 21:27:00:560,0.354235,7.99441,-5.61151,-54.8535,1.89243,148.081
2023-03-15 21:27:00:570,0.350776,7.99473,-5.61124,-54.8521,1.88931,148.079
2023-03-15 21:27:00:580,0.353761,7.9891,-5.61441,-54.8562,1.88741,148.079
2023-03-15 21:27:00:590,0.350332,7.99526,-5.60506,-54.8577,1.88757,148.079
2023-03-15 21:27:00:600,0.362746,7.99481,-5.61307,-54.8571,1.88841,148.077
2023-03-15 21:27:00:610,0.361533,7.98914,-5.61879,-54.8524,1.88866,148.078
2023-03-15 21:27:00:620,0.360571,7.98609,-5.60992,-54.8536,1.88708,148.079
2023-03-15 21:27:00:630,0.359275,7.98648,-5.61088,-54.8549,1.8905,148.081
2023-03-15 21:27:00:640,0.351479,7.98471,-5.62223,-54.8561,1.88976,148.083
2023-03-15 21:27:00:650,0.367611,7.99372,-5.60856,-54.8597,1.88791,148.082
2023-03-15 21:27:00:660,0.372145,7.98931,-5.60835,-54.8602,1.88815,148.08
2023-03-15 21:27:00:670,0.359178,7.98711,-5.61258,-54.8594,1.89101,148.079
2023-03-15 21:27:00:680,0.366275,7.9948,-5.60353,-54.8589,1.89659,148.079
2023-03-15 21:27:00:690,0.358972,7.99263,-5.61407,-54.8608,1.89804,148.077
2023-03-15 21:27:00:699,0.368608,7.99334,-5.61564,-54.8618,1.89519,148.078
2023-03-15 21:27:00:710,0.361031,7.998,-5.61347,-54.8648,1.89431,148.077
2023-03-15 21:27:00:720,0.364223,7.99403,-5.60959,-54.8623,1.89546,148.078
2023-03-15 21:27:00:730,0.36682,7.9876,-5.61178,-54.8591,1.89354,148.079
2023-03-15 21:27:00:740,0.364648,7.98744,-5.61175,-54.8608,1.89378,148.075
2023-03-15 21:27:00:750,0.344982,7.99271,-5.61328,-54.8641,1.89234,148.075
2023-03-15 21:27:00:760,0.320914,8.00268,-5.60748,-54.8625,1.88992,148.075
2023-03-15 21:27:00:770,0.351534,7.99025,-5.61001,-54.8592,1.89161,148.071
2023-03-15 21:27:00:780,0.361921,7.98817,-5.63225,-54.8592,1.89164,148.07
2023-03-15 21:27:00:790,0.37365,7.98517,-5.62579,-54.8594,1.88858,148.07
2023-03-15 21:27:00:800,0.368027,7.99026,-5.60937,-54.8578,1.88747,148.068
2023-03-15 21:27:00:810,0.355328,8.00019,-5.61115,-54.8577,1.88615,148.072
2023-03-15 21:27:00:820,0.357338,7.99003,-5.60852,-54.8591,1.88307,148.071
2023-03-15 21:27:00:830,0.346711,7.99381,-5.60656,-54.8559,1.8806,148.072
2023-03-15 21:27:00:840,0.344619,7.99493,-5.6063,-54.8551,1.87822,148.076
2023-03-15 21:27:00:850,0.340514,7.98541,-5.60346,-54.8521,1.8761,148.079
2023-03-15 21:27:00:860,0.352972,7.97701,-5.61214,-54.8504,1.87363,148.077
2023-03-15 21:27:00:870,0.364044,7.98353,-5.6101,-54.8533,1.87433,148.076
2023-03-15 21:27:00:880,0.359916,7.986,-5.62216,-54.8548,1.87731,148.075
2023-03-15 21:27:00:890,0.357083,7.98904,-5.62231,-54.8543,1.87928,148.076
2023-03-15 21:27:00:900,0.34875,7.9894,-5.60673,-54.8561,1.88011,148.074
2023-03-15 21:27:00:910,0.344997,7.98982,-5.60279,-54.8546,1.87936,148.074
2023-03-15 21:27:00:920,0.344064,7.99082,-5.6083,-54.8548,1.8795,148.077
2023-03-15 21:27:00:930,0.348009,7.99373,-5.60576,-54.8536,1.87922,148.075
2023-03-15 21:27:00:940,0.349989,7.98781,-5.61452,-54.8518,1.87731,148.078
2023-03-15 21:27:00:950,0.336133,7.98633,-5.6082,-54.8498,1.87411,148.077
2023-03-15 21:27:00:960,0.35491,7.9976,-5.60415,-54.8517,1.87226,148.076
2023-03-15 21:27:00:970,0.377859,7.99449,-5.61387,-54.8518,1.87136,148.075
2023-03-15 21:27:00:980,0.375612,7.98989,-5.61707,-54.8519,1.87232,148.074
2023-03-15 21:27:00:990,0.359405,7.98677,-5.62557,-54.8505,1.8727,148.075
2023-03-15 21:27:01:0,0.347043,7.98404,-5.62494,-54.8492,1.87237,148.075
2023-03-15 21:27:01:10,0.344485,7.97922,-5.61596,-54.8499,1.8707,148.075
2023-03-15 21:27:01:20,0.356777,7.99583,-5.61455,-54.8489,1.87126,148.073
2023-03-15 21:27:01:30,0.356264,8.00452,-5.61086,-54.8487,1.87108,148.074
2023-03-15 21:27:01:40,0.352605,7.99665,-5.61207,-54.8513,1.86956,148.074
2023-03-15 21:27:01:50,0.355673,7.98594,-5.60897,-54.8474,1.87159,148.072
2023-03-15 21:27:01:60,0.361627,7.98013,-5.62451,-54.8485,1.87132,148.069
2023-03-15 21:27:01:70,0.367439,7.98152,-5.6206,-54.8464,1.87094,148.069
2023-03-15 21:27:01:80,0.364845,7.99103,-5.60381,-54.8452,1.87393,148.07
2023-03-15 21:27:01:90,0.352004,7.99121,-5.61131,-54.8464,1.87387,148.072
2023-03-15 21:27:01:100,0.346455,7.9883,-5.61343,-54.8472,1.87244,148.071
2023-03-15 21:27:01:110,0.34771,7.9952,-5.61185,-54.849,1.87034,148.069
2023-03-15 21:27:01:120,0.352208,8.00126,-5.59668,-54.8495,1.86865,148.068
2023-03-15 21:27:01:130,0.350802,7.98992,-5.6117,-54.851,1.8689,148.069
2023-03-15 21:27:01:140,0.366479,7.99347,-5.60961,-54.8519,1.87382,148.069
2023-03-15 21:27:01:150,0.363713,7.98076,-5.61398,-54.8537,1.87411,148.068
2023-03-15 21:27:01:160,0.362692,7.98757,-5.60467,-54.8532,1.87644,148.068
2023-03-15 21:27:01:170,0.358071,7.99802,-5.61165,-54.8542,1.87424,148.07
2023-03-15 21:27:01:180,0.338774,8.00318,-5.60652,-54.8562,1.87416,148.071
2023-03-15 21:27:01:190,0.337976,7.99553,-5.61192,-54.8557,1.87429,148.075
2023-03-15 21:27:01:200,0.34154,7.99047,-5.61291,-54.8528,1.87357,148.075
2023-03-15 21:27:01:210,0.346147,7.9875,-5.61245,-54.8493,1.87302,148.072
2023-03-15 21:27:01:220,0.357729,7.98904,-5.61128,-54.8502,1.87344,148.068
2023-03-15 21:27:01:230,0.357747,7.99543,-5.61423,-54.8482,1.87467,148.068
2023-03-15 21:27:01:240,0.370407,7.99628,-5.60869,-54.8465,1.87476,148.069
2023-03-15 21:27:01:250,0.359654,7.99331,-5.61886,-54.8471,1.87518,148.072
2023-03-15 21:27:01:260,0.362845,7.98256,-5.62079,-54.8483,1.87747,148.072
2023-03-15 21:27:01:270,0.356384,7.98609,-5.6102,-54.8478,1.87734,148.069
2023-03-15 21:27:01:280,0.342031,7.98015,-5.62089,-54.845,1.87873,148.069
2023-03-15 21:27:01:290,0.353734,7.99125,-5.61628,-54.8456,1.88017,148.064
2023-03-15 21:27:01:300,0.362293,7.99145,-5.61142,-54.8452,1.8811,148.064
2023-03-15 21:27:01:310,0.352157,8.00128,-5.61453,-54.8447,1.87911,148.066
2023-03-15 21:27:01:320,0.355441,7.9999,-5.61781,-54.849,1.8789,148.063
2023-03-15 21:27:01:330,0.350035,7.98754,-5.61939,-54.8488,1.88006,148.064
2023-03-15 21:27:01:340,0.359151,7.98636,-5.60601,-54.8523,1.88229,148.063
2023-03-15 21:27:01:350,0.362002,7.99285,-5.60623,-54.8518,1.88196,148.061
2023-03-15 21:27:01:360,0.356526,8.00212,-5.59973,-54.8522,1.88058,148.059
2023-03-15 21:27:01:370,0.360677,7.99499,-5.60972,-54.8519,1.8793,148.063
2023-03-15 21:27:01:380,0.344139,7.9888,-5.61073,-54.852,1.88132,148.062
2023-03-15 21:27:01:390,0.341167,7.99308,-5.60683,-54.8514,1.87893,148.064
2023-03-15 21:27:01:400,0.357249,7.99519,-5.61431,-54.8497,1.87655,148.065
2023-03-15 21:27:01:410,0.362747,7.96762,-5.64506,-54.8486,1.87646,148.065
2023-03-15 21:27:01:420,0.338126,8.00853,-5.5895,-54.8562,1.87313,148.069
2023-03-15 21:27:01:430,0.362356,8.0038,-5.57959,-54.8634,1.8706,148.066
2023-03-15 21:27:01:440,0.366997,7.98399,-5.63246,-54.8676,1.87246,148.065
2023-03-15 21:27:01:450,0.372384,7.95478,-5.65793,-54.8706,1.87149,148.065
2023-03-15 21:27:01:460,0.340953,7.98206,-5.63266,-54.8774,1.86385,148.067
2023-03-15 21:27:01:470,0.344977,7.97974,-5.6012,-54.89,1.85967,148.065
2023-03-15 21:27:01:480,0.336363,7.97486,-5.65026,-54.8833,1.85769,148.067
2023-03-15 21:27:01:490,0.328767,7.99882,-5.5797,-54.8867,1.85811,148.065
2023-03-15 21:27:01:500,0.340484,7.98191,-5.63046,-54.8842,1.85788,148.064
2023-03-15 21:27:01:510,0.342278,8.01875,-5.56331,-54.8865,1.85971,148.065
2023-03-15 21:27:01:520,0.352434,8.00593,-5.60376,-54.8809,1.86237,148.066
2023-03-15 21:27:01:530,0.356382,7.99294,-5.62525,-54.8735,1.86858,148.064
2023-03-15 21:27:01:540,0.361664,7.98978,-5.62026,-54.871,1.87042,148.064
2023-03-15 21:27:01:550,0.336086,7.99904,-5.62385,-54.8657,1.87204,148.067
2023-03-15 21:27:01:560,0.332728,8.01498,-5.5528,-54.8686,1.87488,148.065
2023-03-15 21:27:01:570,0.363241,7.94059,-5.68811,-54.8513,1.88217,148.065
2023-03-15 21:27:01:580,0.336075,8.0256,-5.54737,-54.8592,1.87952,148.063
2023-03-15 21:27:01:590,0.381652,7.9209,-5.69526,-54.8515,1.88161,148.064
2023-03-15 21:27:01:600,0.34786,8.02348,-5.55455,-54.869,1.87447,148.064
2023-03-15 21:27:01:610,0.352755,8.01869,-5.5928,-54.8722,1.87233,148.065
2023-03-15 21:27:01:620,0.372701,7.94024,-5.68171,-54.8735,1.87628,148.066
2023-03-15 21:27:01:630,0.297508,8.07033,-5.51522,-54.897,1.86449,148.063
2023-03-15 21:27:01:640,0.359605,7.98641,-5.6405,-54.8925,1.86581,148.065
2023-03-15 21:27:01:650,0.346989,8.03872,-5.56199,-54.8929,1.8659,148.063
2023-03-15 21:27:01:660,0.366798,7.96753,-5.65176,-54.8816,1.86943,148.065
2023-03-15 21:27:01:670,0.347885,7.99956,-5.59325,-54.8795,1.87125,148.066
2023-03-15 21:27:01:680,0.357092,7.98475,-5.62272,-54.87,1.87573,148.066
2023-03-15 21:27:01:690,0.350303,7.98729,-5.62486,-54.8664,1.87998,148.066
2023-03-15 21:27:01:700,0.319939,8.0146,-5.58573,-54.8686,1.87888,148.068
2023-03-15 21:27:01:710,0.355478,7.94794,-5.66594,-54.859,1.88503,148.068
2023-03-15 21:27:01:720,0.341692,8.02151,-5.57479,-54.8658,1.88096,148.068
2023-03-15 21:27:01:730,0.372776,7.9812,-5.64754,-54.8605,1.88123,148.065
2023-03-15 21:27:01:740,0.360557,8.00332,-5.60614,-54.8618,1.88059,148.065
2023-03-15 21:27:01:750,0.361132,7.99066,-5.61492,-54.861,1.88107,148.064
2023-03-15 21:27:01:760,0.373065,7.98383,-5.62776,-54.8613,1.88192,148.065
2023-03-15 21:27:01:770,0.353543,8.0004,-5.61084,-54.8638,1.88019,148.067
2023-03-15 21:27:01:780,0.347283,7.99144,-5.63864,-54.862,1.88258,148.067
2023-03-15 21:27:01:790,0.337541,8.00169,-5.59851,-54.8646,1.88149,148.067
2023-03-15 21:27:01:800,0.347181,7.98651,-5.6021,-54.8641,1.88089,148.067
2023-03-15 21:27:01:810,0.347084,7.98939,-5.60195,-54.8638,1.88089,148.067
2023-03-15 21:27:01:820,0.365206,7.99499,-5.61548,-54.8671,1.88125,148.07
2023-03-15 21:27:01:830,0.36233,7.99727,-5.61051,-54.8673,1.88287,148.072
2023-03-15 21:27:01:840,0.355849,7.99319,-5.60969,-54.8675,1.8823,148.072
2023-03-15 21:27:01:850,0.364734,7.97515,-5.63047,-54.8659,1.87958,148.074
2023-03-15 21:27:01:860,0.357632,7.9907,-5.60962,-54.8669,1.87776,148.073
2023-03-15 21:27:01:870,0.351792,7.99162,-5.60509,-54.8698,1.87695,148.074
2023-03-15 21:27:01:880,0.347129,7.9967,-5.60053,-54.8716,1.87546,148.073
2023-03-15 21:27:01:890,0.356987,7.98772,-5.60181,-54.8711,1.87605,148.072
2023-03-15 21:27:01:900,0.344479,7.99098,-5.59333,-54.8706,1.87466,148.071
2023-03-15 21:27:01:910,0.351796,7.98782,-5.6188,-54.8683,1.8757,148.073
2023-03-15 21:27:01:920,0.358675,7.9861,-5.61399,-54.8684,1.87471,148.073
2023-03-15 21:27:01:930,0.366875,7.99022,-5.61101,-54.8698,1.87079,148.074
2023-03-15 21:27:01:940,0.358815,7.98084,-5.61023,-54.8681,1.87181,148.076
2023-03-15 21:27:01:950,0.360549,7.9812,-5.61512,-54.8696,1.87381,148.075
2023-03-15 21:27:01:960,0.34261,7.99798,-5.59042,-54.8718,1.87525,148.075
2023-03-15 21:27:01:970,0.339768,7.99374,-5.60879,-54.8708,1.87434,148.072
2023-03-15 21:27:01:980,0.347612,7.97959,-5.62561,-54.8689,1.87335,148.073
2023-03-15 21:27:01:990,0.352857,7.98938,-5.6154,-54.8701,1.87326,148.074
2023-03-15 21:27:02:0,0.352245,7.98271,-5.62737,-54.8699,1.87648,148.075
2023-03-15 21:27:02:10,0.363852,7.9871,-5.62046,-54.8718,1.87658,148.077
2023-03-15 21:27:02:20,0.353428,7.97712,-5.62444,-54.8656,1.87541,148.076
2023-03-15 21:27:02:30,0.350209,7.98923,-5.61415,-54.8655,1.87697,148.073
2023-03-15 21:27:02:40,0.351427,8.00368,-5.60036,-54.8611,1.87493,148.075
2023-03-15 21:27:02:50,0.357997,8.0139,-5.59529,-54.864,1.87651,148.07
2023-03-15 21:27:02:60,0.352808,7.98997,-5.61005,-54.8646,1.87866,148.072
2023-03-15 21:27:02:70,0.345992,7.99839,-5.60053,-54.8658,1.87781,148.07
2023-03-15 21:27:02:80,0.357935,7.99084,-5.61181,-54.8617,1.87878,148.069
2023-03-15 21:27:02:90,0.366931,7.99794,-5.60716,-54.8612,1.87881,148.069
2023-03-15 21:27:02:100,0.360819,7.99632,-5.60854,-54.8625,1.87829,148.069
2023-03-15 21:27:02:110,0.372388,7.98647,-5.60788,-54.8622,1.87716,148.069
2023-03-15 21:27:02:120,0.36458,7.98954,-5.59499,-54.8618,1.87472,148.066
2023-03-15 21:27:02:130,0.343146,8.00732,-5.59616,-54.8637,1.87495,148.066
2023-03-15 21:27:02:140,0.339324,7.99597,-5.61164,-54.8648,1.8765,148.065
2023-03-15 21:27:02:150,0.341225,7.99392,-5.60662,-54.8645,1.87601,148.067
2023-03-15 21:27:02:160,0.353829,8.00577,-5.59934,-54.8661,1.87738,148.069
2023-03-15 21:27:02:170,0.358616,7.99484,-5.61395,-54.865,1.8747,148.07
2023-03-15 21:27:02:180,0.357908,7.97686,-5.62749,-54.8644,1.87251,148.071
2023-03-15 21:27:02:190,0.356664,7.99433,-5.60687,-54.8696,1.8722,148.069
2023-03-15 21:27:02:200,0.364237,7.99718,-5.60249,-54.8724,1.87006,148.067
2023-03-15 21:27:02:210,0.359787,7.98326,-5.61772,-54.8706,1.86938,148.067
2023-03-15 21:27:02:220,0.349752,7.97505,-5.61141,-54.8706,1.8694,148.068
2023-03-15 21:27:02:230,0.349905,7.98626,-5.60286,-54.8713,1.86629,148.069
2023-03-15 21:27:02:240,0.356223,7.99551,-5.59973,-54.8712,1.86563,148.072
2023-03-15 21:27:02:250,0.348752,8.00931,-5.59785,-54.8718,1.86395,148.073
2023-03-15 21:27:02:260,0.34213,7.99387,-5.60403,-54.8727,1.86322,148.074
2023-03-15 21:27:02:270,0.361998,7.99485,-5.59159,-54.8699,1.86156,148.075
2023-03-15 21:27:02:280,0.367402,7.99269,-5.60194,-54.8708,1.86454,148.074
2023-03-15 21:27:02:290,0.35261,7.98946,-5.61499,-54.872,1.86423,148.074
2023-03-15 21:27:02:300,0.357716,7.98442,-5.6138,-54.8726,1.86319,148.074
2023-03-15 21:27:02:310,0.35481,7.99643,-5.60523,-54.8728,1.86291,148.076
2023-03-15 21:27:02:320,0.339325,7.98847,-5.6069,-54.8718,1.8647,148.078
2023-03-15 21:27:02:330,0.34455,7.98346,-5.61196,-54.8702,1.86266,148.078
2023-03-15 21:27:02:340,0.356678,7.98781,-5.6104,-54.8719,1.86041,148.08
2023-03-15 21:27:02:350,0.363419,7.98522,-5.61427,-54.8727,1.86128,148.081
2023-03-15 21:27:02:360,0.357005,7.98467,-5.62313,-54.8688,1.86114,148.078
2023-03-15 21:27:02:370,0.371828,7.98405,-5.62012,-54.8691,1.85957,148.075
2023-03-15 21:27:02:380,0.384605,7.91971,-5.70944,-54.87,1.85814,148.074
2023-03-15 21:27:02:390,0.339379,8.02815,-5.56579,-54.9039,1.84113,148.073
2023-03-15 21:27:02:400,0.329136,8.04693,-5.5213,-54.9281,1.82935,148.071
2023-03-15 21:27:02:410,0.407486,7.95723,-5.63935,-54.9221,1.83077,148.071
2023-03-15 21:27:02:420,0.393447,7.89684,-5.76525,-54.9182,1.82432,148.074
2023-03-15 21:27:02:430,0.28018,8.16374,-5.32198,-54.9754,1.80198,148.071
2023-03-15 21:27:02:440,0.396284,7.90403,-5.77774,-54.9441,1.81466,148.071
2023-03-15 21:27:02:450,0.339924,8.0559,-5.48129,-54.9663,1.80949,148.068
2023-03-15 21:27:02:460,0.355173,7.97199,-5.63441,-54.9501,1.81145,148.071
2023-03-15 21:27:02:470,0.356537,7.99815,-5.59057,-54.9461,1.81825,148.074
2023-03-15 21:27:02:480,0.336894,8.01192,-5.57007,-54.937,1.82217,148.076
2023-03-15 21:27:02:490,0.339831,8.01357,-5.5852,-54.925,1.82945,148.074
2023-03-15 21:27:02:500,0.375174,7.92547,-5.72073,-54.9022,1.83864,148.074
2023-03-15 21:27:02:510,0.298717,8.10751,-5.43048,-54.9136,1.83037,148.076
2023-03-15 21:27:02:520,0.415137,7.9163,-5.67492,-54.8824,1.84839,148.077
2023-03-15 21:27:02:530,0.363638,7.94197,-5.71177,-54.8693,1.85175,148.079
2023-03-15 21:27:02:540,0.325528,8.02304,-5.54257,-54.8828,1.84779,148.077
2023-03-15 21:27:02:550,0.364512,7.95351,-5.68108,-54.8762,1.85262,148.079
2023-03-15 21:27:02:560,0.400267,7.89046,-5.76148,-54.8814,1.85025,148.08
2023-03-15 21:27:02:570,0.30608,8.01914,-5.60946,-54.9316,1.82068,148.077
2023-03-15 21:27:02:580,0.285577,8.07422,-5.47375,-54.9789,1.79729,148.072
2023-03-15 21:27:02:590,0.336348,8.00733,-5.59389,-54.9907,1.78851,148.067
2023-03-15 21:27:02:600,0.31836,8.06055,-5.51201,-55.0052,1.77657,148.065
2023-03-15 21:27:02:610,0.350447,8.00357,-5.59395,-54.998,1.7765,148.065
2023-03-15 21:27:02:620,0.356876,8.00745,-5.59111,-54.9846,1.78105,148.069
2023-03-15 21:27:02:630,0.352683,8.03222,-5.53835,-54.9715,1.79089,148.067
2023-03-15 21:27:02:640,0.372325,7.98646,-5.619,-54.9434,1.80688,148.069
2023-03-15 21:27:02:650,0.402589,7.93516,-5.70313,-54.9217,1.82087,148.072
2023-03-15 21:27:02:660,0.31894,8.04644,-5.54319,-54.9226,1.81374,148.075
2023-03-15 21:27:02:670,0.344884,8.03626,-5.52402,-54.9157,1.82189,148.072
2023-03-15 21:27:02:680,0.379736,7.94659,-5.71675,-54.8861,1.82567,148.074
2023-03-15 21:27:02:690,0.337697,8.0254,-5.54806,-54.8957,1.82253,148.072
2023-03-15 21:27:02:700,0.366562,7.97059,-5.63956,-54.8896,1.82711,148.075
2023-03-15 21:27:02:710,0.35684,7.98449,-5.60455,-54.8952,1.82899,148.073
2023-03-15 21:27:02:720,0.34143,8.01809,-5.56057,-54.8964,1.82633,148.071
2023-03-15 21:27:02:729,0.367568,7.95489,-5.6584,-54.8839,1.83411,148.071
2023-03-15 21:27:02:739,0.355217,7.99367,-5.5984,-54.8872,1.83351,148.069
2023-03-15 21:27:02:750,0.347763,8.00807,-5.57178,-54.8902,1.83218,148.069
2023-03-15 21:27:02:760,0.368139,7.9846,-5.62139,-54.8879,1.83286,148.067
2023-03-15 21:27:02:770,0.365111,7.98591,-5.62777,-54.8895,1.83581,148.067
2023-03-15 21:27:02:780,0.375793,7.98647,-5.61847,-54.8893,1.83442,148.064
2023-03-15 21:27:02:790,0.369542,7.9861,-5.60419,-54.8881,1.83542,148.066
2023-03-15 21:27:02:800,0.359667,7.98296,-5.6156,-54.8872,1.83602,148.068
2023-03-15 21:27:02:809,0.357515,7.97894,-5.62773,-54.8859,1.83988,148.068
2023-03-15 21:27:02:819,0.349698,7.98748,-5.61138,-54.8881,1.84152,148.067
2023-03-15 21:27:02:830,0.332455,8.00228,-5.59245,-54.8933,1.84108,148.069
2023-03-15 21:27:02:840,0.336053,7.99589,-5.61169,-54.8908,1.84069,148.068
2023-03-15 21:27:02:850,0.341285,7.99517,-5.6115,-54.8937,1.84298,148.068
2023-03-15 21:27:02:860,0.333401,7.99306,-5.61392,-54.8948,1.84411,148.069
2023-03-15 21:27:02:870,0.356291,7.99265,-5.59606,-54.8944,1.84021,148.067
2023-03-15 21:27:02:880,0.364787,7.98115,-5.62133,-54.8918,1.83691,148.068
2023-03-15 21:27:02:890,0.374779,7.99127,-5.60996,-54.8935,1.83885,148.066
2023-03-15 21:27:02:900,0.3538,7.9908,-5.60828,-54.8931,1.83619,148.064
2023-03-15 21:27:02:910,0.360918,8.00763,-5.58847,-54.8941,1.83316,148.067
2023-03-15 21:27:02:920,0.360768,7.98818,-5.61467,-54.8928,1.83424,148.068
2023-03-15 21:27:02:930,0.342402,7.99258,-5.60394,-54.892,1.83266,148.07
2023-03-15 21:27:02:940,0.338722,7.99704,-5.58665,-54.8953,1.83687,148.069
2023-03-15 21:27:02:950,0.356381,7.99281,-5.60613,-54.8946,1.84009,148.07
2023-03-15 21:27:02:960,0.352158,8.00003,-5.61618,-54.8961,1.84175,148.071
2023-03-15 21:27:02:970,0.354838,7.9982,-5.61409,-54.8959,1.84126,148.074
2023-03-15 21:27:02:980,0.348954,7.99375,-5.61952,-54.8979,1.83872,148.074
2023-03-15 21:27:02:990,0.354718,7.98017,-5.61294,-54.8978,1.83824,148.073
2023-03-15 21:27:03:0,0.343936,7.98428,-5.62096,-54.8968,1.8388,148.072
2023-03-15 21:27:03:10,0.339886,7.9861,-5.61265,-54.8955,1.83682,148.072
2023-03-15 21:27:03:20,0.337999,7.97965,-5.61195,-54.8947,1.8381,148.073
2023-03-15 21:27:03:30,0.339797,7.98831,-5.60103,-54.897,1.83645,148.071
2023-03-15 21:27:03:40,0.357389,7.98846,-5.6034,-54.8948,1.8368,148.07
2023-03-15 21:27:03:50,0.369249,7.98487,-5.60148,-54.8926,1.83853,148.075
2023-03-15 21:27:03:60,0.355818,7.98906,-5.60899,-54.893,1.83874,148.074
2023-03-15 21:27:03:70,0.362508,8.00764,-5.60233,-54.8938,1.83952,148.074
2023-03-15 21:27:03:80,0.348987,7.99955,-5.61003,-54.8919,1.84311,148.072
2023-03-15 21:27:03:90,0.347633,7.99731,-5.59928,-54.8935,1.84169,148.075
2023-03-15 21:27:03:100,0.315195,8.01407,-5.59619,-54.8929,1.84089,148.075
2023-03-15 21:27:03:110,0.354188,7.97218,-5.63429,-54.8868,1.84642,148.074
2023-03-15 21:27:03:120,0.331708,8.00709,-5.58813,-54.8924,1.83989,148.076
2023-03-15 21:27:03:130,0.355606,7.99831,-5.60506,-54.8926,1.84001,148.074
2023-03-15 21:27:03:140,0.361297,7.9928,-5.61182,-54.8933,1.83803,148.075
2023-03-15 21:27:03:150,0.351771,8.00238,-5.58662,-54.8954,1.83358,148.077
2023-03-15 21:27:03:160,0.360808,7.9924,-5.61336,-54.8973,1.83236,148.074
2023-03-15 21:27:03:170,0.361825,7.98519,-5.61252,-54.8994,1.83176,148.074
2023-03-15 21:27:03:180,0.348019,8.00054,-5.59541,-54.9007,1.83363,148.076
2023-03-15 21:27:03:190,0.33829,7.98278,-5.62111,-54.8995,1.83501,148.078
2023-03-15 21:27:03:200,0.345441,7.99231,-5.60313,-54.9,1.82942,148.078
2023-03-15 21:27:03:210,0.354161,7.9766,-5.62327,-54.8998,1.832,148.079
2023-03-15 21:27:03:220,0.354702,7.9861,-5.61789,-54.8997,1.82922,148.079
2023-03-15 21:27:03:230,0.340948,7.99061,-5.61444,-54.8988,1.82764,148.079
2023-03-15 21:27:03:240,0.375886,7.9541,-5.66291,-54.9004,1.82613,148.076
2023-03-15 21:27:03:250,0.333351,8.01997,-5.56127,-54.9182,1.81725,148.074
2023-03-15 21:27:03:260,0.34771,7.99605,-5.58678,-54.9218,1.81655,148.076
2023-03-15 21:27:03:270,0.353217,7.97556,-5.64298,-54.9244,1.81588,148.077
2023-03-15 21:27:03:280,0.332426,8.0263,-5.55025,-54.9351,1.80871,148.076
2023-03-15 21:27:03:290,0.359166,7.99584,-5.58244,-54.9329,1.8075,148.077
2023-03-15 21:27:03:300,0.361648,7.95109,-5.69853,-54.9286,1.80952,148.079
2023-03-15 21:27:03:310,0.312231,8.06456,-5.46405,-54.9586,1.80128,148.076
2023-03-15 21:27:03:320,0.375967,7.92776,-5.73988,-54.9397,1.80469,148.075
2023-03-15 21:27:03:330,0.349782,8.04647,-5.51385,-54.9546,1.79724,148.071
2023-03-15 21:27:03:339,0.35352,7.99249,-5.63097,-54.951,1.79491,148.075
2023-03-15 21:27:03:350,0.362522,8.01495,-5.55774,-54.9551,1.7926,148.074
2023-03-15 21:27:03:360,0.3627,8.00062,-5.55653,-54.9571,1.79553,148.074
2023-03-15 21:27:03:370,0.34416,8.04478,-5.53586,-54.9585,1.79243,148.075
2023-03-15 21:27:03:380,0.342337,7.99508,-5.59662,-54.9494,1.79851,148.076
2023-03-15 21:27:03:390,0.306262,8.00657,-5.58194,-54.9404,1.79991,148.076
2023-03-15 21:27:03:400,0.330027,7.97046,-5.61779,-54.9235,1.8079,148.077
2023-03-15 21:27:03:410,0.382896,7.90641,-5.72369,-54.9041,1.81755,148.078
2023-03-15 21:27:03:420,0.339958,8.00893,-5.55844,-54.9031,1.81372,148.081
2023-03-15 21:27:03:430,0.406173,7.94998,-5.62725,-54.8853,1.82309,148.08
2023-03-15 21:27:03:440,0.404418,7.96669,-5.64354,-54.8758,1.82387,148.079
2023-03-15 21:27:03:450,0.359379,8.04223,-5.52481,-54.8847,1.82249,148.078
2023-03-15 21:27:03:460,0.344909,8.02962,-5.56744,-54.8856,1.82303,148.079
2023-03-15 21:27:03:470,0.351544,7.99682,-5.58951,-54.8876,1.82516,148.08
2023-03-15 21:27:03:480,0.316057,7.99,-5.62002,-54.8916,1.82156,148.077
