Timestamp,Acceleration_x,Acceleration_y,Acceleration_z,roll,pitch,yaw
2023-03-15 21:04:56:131,0.423844,7.9383,-5.68783,-54.2797,2.29211,134.458
2023-03-15 21:04:56:139,0.412175,7.93659,-5.67918,-54.2784,2.29444,134.461
2023-03-15 21:04:56:150,0.419154,7.9277,-5.68927,-54.2787,2.29423,134.458
2023-03-15 21:04:56:160,0.42443,7.9284,-5.69282,-54.2782,2.29443,134.456
2023-03-15 21:04:56:170,0.420589,7.92567,-5.6926,-54.2761,2.29186,134.458
2023-03-15 21:04:56:180,0.413938,7.93417,-5.69274,-54.2768,2.29068,134.458
2023-03-15 21:04:56:190,0.408549,7.93279,-5.6943,-54.2758,2.2922,134.459
2023-03-15 21:04:56:200,0.408507,7.93638,-5.68596,-54.2796,2.29427,134.455
2023-03-15 21:04:56:210,0.412716,7.94069,-5.68935,-54.2798,2.29505,134.454
2023-03-15 21:04:56:220,0.412302,7.94204,-5.68992,-54.2805,2.29548,134.453
2023-03-15 21:04:56:230,0.413168,7.94646,-5.6889,-54.2805,2.29764,134.453
2023-03-15 21:04:56:240,0.411994,7.93157,-5.68621,-54.278,2.30041,134.453
2023-03-15 21:04:56:250,0.416177,7.93303,-5.68456,-54.2778,2.30095,134.454
2023-03-15 21:04:56:260,0.423741,7.93142,-5.69616,-54.2746,2.30347,134.454
2023-03-15 21:04:56:270,0.418727,7.93276,-5.68791,-54.2745,2.30547,134.456
2023-03-15 21:04:56:280,0.407566,7.92665,-5.69085,-54.2744,2.30568,134.456
2023-03-15 21:04:56:290,0.40636,7.92534,-5.69197,-54.2721,2.3054,134.457
2023-03-15 21:04:56:300,0.40397,7.93554,-5.68016,-54.2744,2.30587,134.454
2023-03-15 21:04:56:310,0.415978,7.93661,-5.68679,-54.2741,2.30773,134.454
2023-03-15 21:04:56:320,0.408555,7.92908,-5.6857,-54.2747,2.30717,134.453
2023-03-15 21:04:56:330,0.419697,7.9267,-5.69261,-54.2735,2.30716,134.456
2023-03-15 21:04:56:340,0.411539,7.93894,-5.67588,-54.2714,2.31037,134.458
2023-03-15 21:04:56:350,0.421498,7.93659,-5.68018,-54.2703,2.31094,134.457
2023-03-15 21:04:56:360,0.414414,7.93609,-5.68141,-54.2686,2.31168,134.457
2023-03-15 21:04:56:370,0.410098,7.93619,-5.68891,-54.2678,2.31008,134.456
2023-03-15 21:04:56:380,0.413228,7.93046,-5.68404,-54.2652,2.30975,134.458
2023-03-15 21:04:56:390,0.409047,7.94038,-5.686,-54.2656,2.30985,134.46
2023-03-15 21:04:56:400,0.413763,7.93043,-5.69858,-54.2616,2.30781,134.456
2023-03-15 21:04:56:410,0.409991,7.93198,-5.67428,-54.2616,2.30731,134.457
2023-03-15 21:04:56:420,0.420791,7.94208,-5.68451,-54.2617,2.30592,134.461
2023-03-15 21:04:56:430,0.42583,7.9415,-5.67782,-54.2591,2.3065,134.465
2023-03-15 21:04:56:440,0.418733,7.94317,-5.6789,-54.2587,2.3044,134.466
2023-03-15 21:04:56:450,0.412325,7.92971,-5.69799,-54.2589,2.30182,134.467
2023-03-15 21:04:56:460,0.424401,7.94079,-5.68689,-54.2608,2.30295,134.467
2023-03-15 21:04:56:470,0.417345,7.93757,-5.68656,-54.2593,2.30173,134.467
2023-03-15 21:04:56:480,0.414445,7.92951,-5.68349,-54.2599,2.30587,134.47
2023-03-15 21:04:56:490,0.403041,7.93508,-5.68705,-54.2576,2.30268,134.465
2023-03-15 21:04:56:500,0.402866,7.93087,-5.69263,-54.2561,2.30548,134.463
2023-03-15 21:04:56:510,0.418952,7.93476,-5.67804,-54.2558,2.3034,134.465
2023-03-15 21:04:56:520,0.426591,7.94016,-5.68505,-54.2543,2.30588,134.466
2023-03-15 21:04:56:530,0.418028,7.94334,-5.67662,-54.2546,2.30819,134.467
2023-03-15 21:04:56:540,0.413477,7.95007,-5.67709,-54.2554,2.3087,134.468
2023-03-15 21:04:56:550,0.397416,7.93968,-5.68279,-54.2562,2.30986,134.47
2023-03-15 21:04:56:560,0.414782,7.93969,-5.6725,-54.2572,2.30977,134.466
2023-03-15 21:04:56:570,0.420614,7.92536,-5.6901,-54.2543,2.30974,134.468
2023-03-15 21:04:56:580,0.416013,7.93068,-5.68772,-54.2546,2.30969,134.468
2023-03-15 21:04:56:590,0.422199,7.93898,-5.68151,-54.2529,2.30867,134.47
2023-03-15 21:04:56:600,0.430324,7.93366,-5.68602,-54.2509,2.30707,134.471
2023-03-15 21:04:56:610,0.418898,7.93405,-5.68607,-54.2487,2.30614,134.469
2023-03-15 21:04:56:620,0.407604,7.94095,-5.68502,-54.2507,2.30564,134.469
2023-03-15 21:04:56:630,0.41568,7.94212,-5.67975,-54.2507,2.3065,134.466
2023-03-15 21:04:56:640,0.415275,7.92445,-5.69467,-54.2505,2.30448,134.467
2023-03-15 21:04:56:650,0.415434,7.93404,-5.68741,-54.2474,2.30313,134.467
2023-03-15 21:04:56:660,0.421521,7.9416,-5.68436,-54.249,2.30317,134.466
2023-03-15 21:04:56:670,0.418872,7.94282,-5.68206,-54.2505,2.30356,134.466
2023-03-15 21:04:56:680,0.413538,7.93433,-5.67133,-54.2479,2.30491,134.462
2023-03-15 21:04:56:690,0.415033,7.93373,-5.67613,-54.2482,2.30368,134.461
2023-03-15 21:04:56:700,0.415724,7.92869,-5.68511,-54.2495,2.30403,134.458
2023-03-15 21:04:56:710,0.41096,7.92389,-5.69372,-54.2502,2.30346,134.459
2023-03-15 21:04:56:720,0.417747,7.93634,-5.68997,-54.2494,2.30307,134.457
2023-03-15 21:04:56:730,0.417484,7.92874,-5.69893,-54.2507,2.30596,134.459
2023-03-15 21:04:56:740,0.410484,7.93503,-5.68348,-54.2501,2.3061,134.462
2023-03-15 21:04:56:749,0.405052,7.94104,-5.67305,-54.2523,2.30742,134.459
2023-03-15 21:04:56:759,0.411975,7.92701,-5.68435,-54.2522,2.3071,134.459
2023-03-15 21:04:56:769,0.419596,7.93748,-5.6779,-54.2531,2.30799,134.459
2023-03-15 21:04:56:779,0.415822,7.9416,-5.68453,-54.2531,2.3067,134.46
2023-03-15 21:04:56:789,0.408143,7.94438,-5.67668,-54.2531,2.30493,134.463
2023-03-15 21:04:56:799,0.416665,7.94342,-5.6779,-54.2562,2.30229,134.464
2023-03-15 21:04:56:809,0.419169,7.93342,-5.68485,-54.2558,2.30092,134.467
2023-03-15 21:04:56:819,0.405531,7.94475,-5.68111,-54.2616,2.29914,134.468
2023-03-15 21:04:56:829,0.41627,7.93665,-5.68224,-54.2609,2.29855,134.467
2023-03-15 21:04:56:839,0.418097,7.93792,-5.67375,-54.2625,2.30085,134.468
2023-03-15 21:04:56:850,0.410705,7.9334,-5.68752,-54.266,2.29928,134.469
2023-03-15 21:04:56:860,0.416128,7.93425,-5.68183,-54.2647,2.29872,134.468
2023-03-15 21:04:56:870,0.4183,7.94167,-5.67555,-54.2683,2.29791,134.471
2023-03-15 21:04:56:880,0.407458,7.93329,-5.66972,-54.2662,2.29554,134.47
2023-03-15 21:04:56:890,0.414206,7.93352,-5.68172,-54.2672,2.29678,134.468
2023-03-15 21:04:56:900,0.415945,7.92083,-5.68549,-54.2686,2.29973,134.47
2023-03-15 21:04:56:910,0.412785,7.93339,-5.6886,-54.2686,2.30078,134.47
2023-03-15 21:04:56:920,0.402157,7.93829,-5.68657,-54.2673,2.30149,134.47
2023-03-15 21:04:56:930,0.413696,7.92705,-5.67973,-54.2695,2.30093,134.472
2023-03-15 21:04:56:940,0.414541,7.93354,-5.6797,-54.2698,2.304,134.472
2023-03-15 21:04:56:950,0.420465,7.92892,-5.67648,-54.2695,2.30452,134.47
2023-03-15 21:04:56:960,0.418169,7.94025,-5.67286,-54.2704,2.30463,134.47
2023-03-15 21:04:56:970,0.419091,7.93757,-5.68114,-54.2676,2.30401,134.471
2023-03-15 21:04:56:980,0.419899,7.93363,-5.68355,-54.2678,2.30115,134.471
2023-03-15 21:04:56:990,0.410452,7.93069,-5.68002,-54.2696,2.30016,134.471
2023-03-15 21:04:57:0,0.412974,7.93015,-5.67712,-54.2698,2.29929,134.471
2023-03-15 21:04:57:10,0.406373,7.94103,-5.67929,-54.2731,2.29822,134.471
2023-03-15 21:04:57:20,0.406435,7.93375,-5.68803,-54.2737,2.2998,134.472
2023-03-15 21:04:57:30,0.406148,7.93378,-5.68332,-54.2754,2.2985,134.472
2023-03-15 21:04:57:40,0.403347,7.94388,-5.69494,-54.2757,2.29556,134.472
2023-03-15 21:04:57:50,0.406918,7.94988,-5.67521,-54.2761,2.29736,134.471
2023-03-15 21:04:57:60,0.415048,7.92924,-5.68047,-54.2796,2.29834,134.469
2023-03-15 21:04:57:70,0.419396,7.92892,-5.69122,-54.278,2.30099,134.467
2023-03-15 21:04:57:80,0.419232,7.94223,-5.68042,-54.2777,2.30103,134.465
2023-03-15 21:04:57:90,0.419828,7.9238,-5.68033,-54.2748,2.30262,134.465
2023-03-15 21:04:57:100,0.41486,7.93672,-5.67782,-54.2759,2.30177,134.461
2023-03-15 21:04:57:110,0.411974,7.94133,-5.67287,-54.2771,2.30001,134.459
2023-03-15 21:04:57:120,0.402429,7.94748,-5.67507,-54.2806,2.29914,134.459
2023-03-15 21:04:57:130,0.402115,7.94474,-5.67644,-54.2801,2.29707,134.462
2023-03-15 21:04:57:140,0.391681,7.93686,-5.6801,-54.2773,2.29647,134.461
2023-03-15 21:04:57:150,0.403913,7.93308,-5.68223,-54.2817,2.29872,134.457
2023-03-15 21:04:57:160,0.429209,7.93167,-5.68858,-54.2793,2.30036,134.457
2023-03-15 21:04:57:170,0.433355,7.93018,-5.68423,-54.2788,2.29868,134.457
2023-03-15 21:04:57:180,0.421561,7.93667,-5.67465,-54.2791,2.29643,134.456
2023-03-15 21:04:57:190,0.413732,7.93477,-5.69071,-54.2803,2.2967,134.456
2023-03-15 21:04:57:200,0.413862,7.93878,-5.68042,-54.2839,2.29491,134.457
2023-03-15 21:04:57:210,0.399373,7.93247,-5.67658,-54.2835,2.29442,134.459
2023-03-15 21:04:57:220,0.400068,7.9426,-5.6721,-54.2874,2.29398,134.459
2023-03-15 21:04:57:230,0.408812,7.9371,-5.67971,-54.2891,2.29441,134.457
2023-03-15 21:04:57:240,0.424936,7.94933,-5.68627,-54.2881,2.29312,134.456
2023-03-15 21:04:57:249,0.429641,7.94113,-5.6879,-54.2879,2.2946,134.455
2023-03-15 21:04:57:259,0.420317,7.93622,-5.68015,-54.2876,2.29506,134.455
2023-03-15 21:04:57:269,0.418968,7.9406,-5.68495,-54.2886,2.29431,134.454
2023-03-15 21:04:57:279,0.410869,7.93174,-5.68912,-54.2861,2.29394,134.453
2023-03-15 21:04:57:289,0.399423,7.93889,-5.68612,-54.285,2.29363,134.455
2023-03-15 21:04:57:299,0.407021,7.93458,-5.68512,-54.287,2.29383,134.453
2023-03-15 21:04:57:309,0.411545,7.92774,-5.68764,-54.2877,2.29253,134.454
2023-03-15 21:04:57:319,0.414745,7.92813,-5.68987,-54.2863,2.29231,134.453
2023-03-15 21:04:57:329,0.415371,7.93077,-5.69038,-54.2848,2.29538,134.452
2023-03-15 21:04:57:340,0.419385,7.94618,-5.678,-54.2841,2.2958,134.452
2023-03-15 21:04:57:350,0.422726,7.93137,-5.69581,-54.2838,2.29553,134.454
2023-03-15 21:04:57:360,0.417429,7.93098,-5.69414,-54.2852,2.29465,134.456
2023-03-15 21:04:57:370,0.398265,7.93846,-5.67985,-54.2854,2.29439,134.456
2023-03-15 21:04:57:380,0.399758,7.93366,-5.6783,-54.2849,2.29714,134.456
2023-03-15 21:04:57:389,0.411547,7.93243,-5.68272,-54.2857,2.29492,134.457
2023-03-15 21:04:57:400,0.419262,7.93081,-5.68539,-54.2848,2.29459,134.457
2023-03-15 21:04:57:409,0.425666,7.93716,-5.68386,-54.2856,2.29433,134.455
2023-03-15 21:04:57:419,0.427975,7.93439,-5.68947,-54.2845,2.29307,134.456
2023-03-15 21:04:57:429,0.420696,7.93531,-5.68324,-54.2858,2.29274,134.458
2023-03-15 21:04:57:439,0.409557,7.93301,-5.67986,-54.2821,2.29457,134.457
2023-03-15 21:04:57:449,0.411586,7.93117,-5.68953,-54.2819,2.29574,134.461
2023-03-15 21:04:57:459,0.40885,7.94546,-5.67773,-54.2832,2.29441,134.461
2023-03-15 21:04:57:469,0.418917,7.93684,-5.68355,-54.2838,2.29232,134.462
2023-03-15 21:04:57:479,0.431939,7.93628,-5.68449,-54.2802,2.29101,134.463
2023-03-15 21:04:57:489,0.431277,7.93875,-5.68531,-54.2763,2.28944,134.461
2023-03-15 21:04:57:499,0.425182,7.93465,-5.68644,-54.2779,2.29132,134.461
2023-03-15 21:04:57:509,0.424095,7.93308,-5.68244,-54.2793,2.29199,134.459
2023-03-15 21:04:57:519,0.416997,7.93741,-5.69238,-54.2805,2.29176,134.458
2023-03-15 21:04:57:529,0.412211,7.94277,-5.68245,-54.2804,2.29116,134.457
2023-03-15 21:04:57:539,0.417011,7.92613,-5.67828,-54.2798,2.29006,134.458
2023-03-15 21:04:57:549,0.407735,7.95297,-5.66972,-54.2851,2.29374,134.46
2023-03-15 21:04:57:559,0.41011,7.94978,-5.67768,-54.2819,2.2943,134.463
2023-03-15 21:04:57:570,0.416315,7.93625,-5.67654,-54.2814,2.29164,134.463
2023-03-15 21:04:57:579,0.416922,7.9354,-5.68247,-54.2804,2.29119,134.465
2023-03-15 21:04:57:590,0.427013,7.9323,-5.67971,-54.2804,2.28944,134.467
2023-03-15 21:04:57:600,0.419016,7.94404,-5.68578,-54.2833,2.28814,134.468
2023-03-15 21:04:57:610,0.411756,7.92803,-5.69146,-54.2808,2.28758,134.468
2023-03-15 21:04:57:620,0.43033,7.91811,-5.68934,-54.2802,2.2909,134.467
2023-03-15 21:04:57:629,0.418887,7.91753,-5.69254,-54.277,2.29251,134.465
2023-03-15 21:04:57:639,0.404694,7.92264,-5.69388,-54.275,2.29207,134.465
2023-03-15 21:04:57:650,0.417817,7.93738,-5.67957,-54.2744,2.28946,134.467
2023-03-15 21:04:57:660,0.427313,7.93747,-5.68978,-54.275,2.28747,134.469
2023-03-15 21:04:57:670,0.430762,7.93997,-5.68837,-54.2737,2.28693,134.466
2023-03-15 21:04:57:680,0.4114,7.93094,-5.69323,-54.2724,2.28625,134.464
2023-03-15 21:04:57:689,0.408765,7.93507,-5.68722,-54.2704,2.28844,134.464
2023-03-15 21:04:57:700,0.418096,7.9279,-5.68232,-54.2666,2.29115,134.465
2023-03-15 21:04:57:710,0.424974,7.93206,-5.69524,-54.2682,2.2952,134.466
2023-03-15 21:04:57:720,0.422496,7.94789,-5.67963,-54.2643,2.29794,134.465
2023-03-15 21:04:57:730,0.420258,7.93354,-5.68026,-54.264,2.29577,134.465
2023-03-15 21:04:57:740,0.424968,7.92978,-5.68825,-54.2628,2.29758,134.463
2023-03-15 21:04:57:750,0.419056,7.93547,-5.68887,-54.2642,2.29536,134.463
2023-03-15 21:04:57:760,0.417813,7.9293,-5.6773,-54.2617,2.29473,134.464
2023-03-15 21:04:57:770,0.425516,7.94398,-5.67786,-54.2606,2.29349,134.469
2023-03-15 21:04:57:780,0.431495,7.93432,-5.68242,-54.2595,2.29194,134.469
2023-03-15 21:04:57:790,0.41785,7.92249,-5.68895,-54.2617,2.29029,134.469
2023-03-15 21:04:57:800,0.426619,7.92483,-5.68646,-54.2635,2.28952,134.472
2023-03-15 21:04:57:810,0.426329,7.94197,-5.67859,-54.2632,2.29106,134.472
2023-03-15 21:04:57:820,0.417651,7.94479,-5.68622,-54.263,2.28984,134.469
2023-03-15 21:04:57:830,0.421071,7.93435,-5.68888,-54.2664,2.28854,134.468
2023-03-15 21:04:57:840,0.421228,7.9333,-5.67987,-54.2651,2.28898,134.468
2023-03-15 21:04:57:850,0.422211,7.9309,-5.68993,-54.2632,2.28824,134.469
2023-03-15 21:04:57:860,0.41682,7.94186,-5.68116,-54.2654,2.28958,134.471
2023-03-15 21:04:57:870,0.409275,7.93404,-5.686,-54.2653,2.28926,134.473
2023-03-15 21:04:57:880,0.412886,7.93944,-5.68241,-54.2683,2.28874,134.469
2023-03-15 21:04:57:890,0.425343,7.92435,-5.69634,-54.2689,2.28854,134.47
2023-03-15 21:04:57:900,0.430691,7.92747,-5.68797,-54.2675,2.29182,134.473
2023-03-15 21:04:57:909,0.423334,7.93985,-5.68269,-54.2705,2.29237,134.471
2023-03-15 21:04:57:919,0.414205,7.94432,-5.67384,-54.2719,2.29153,134.471
2023-03-15 21:04:57:929,0.407501,7.95801,-5.66581,-54.2726,2.29117,134.468
2023-03-15 21:04:57:939,0.397855,7.94422,-5.67692,-54.2701,2.29233,134.468
2023-03-15 21:04:57:949,0.403436,7.94683,-5.67066,-54.2683,2.28986,134.468
2023-03-15 21:04:57:959,0.420493,7.93837,-5.67689,-54.27,2.28928,134.464
2023-03-15 21:04:57:969,0.437882,7.93412,-5.68881,-54.2695,2.28909,134.464
2023-03-15 21:04:57:980,0.422829,7.93547,-5.68972,-54.2712,2.28838,134.463
2023-03-15 21:04:57:990,0.422855,7.92529,-5.68399,-54.272,2.28798,134.464
2023-03-15 21:04:58:0,0.417772,7.93745,-5.68687,-54.2737,2.28649,134.466
2023-03-15 21:04:58:10,0.414275,7.94733,-5.68363,-54.2737,2.28728,134.466
2023-03-15 21:04:58:20,0.424612,7.93294,-5.67879,-54.2712,2.28835,134.464
2023-03-15 21:04:58:30,0.41943,7.93719,-5.68007,-54.2704,2.28742,134.462
2023-03-15 21:04:58:40,0.419738,7.93362,-5.68492,-54.2697,2.28854,134.461
2023-03-15 21:04:58:50,0.410604,7.93582,-5.68962,-54.2682,2.2871,134.462
2023-03-15 21:04:58:60,0.424217,7.93811,-5.68467,-54.2671,2.28391,134.458
2023-03-15 21:04:58:70,0.429999,7.94626,-5.67901,-54.2726,2.28409,134.456
2023-03-15 21:04:58:80,0.418531,7.93959,-5.67991,-54.2707,2.28357,134.458
2023-03-15 21:04:58:90,0.42195,7.93133,-5.68136,-54.2696,2.28234,134.459
2023-03-15 21:04:58:100,0.423498,7.93255,-5.68836,-54.2725,2.28258,134.461
2023-03-15 21:04:58:110,0.402784,7.92524,-5.6899,-54.273,2.28197,134.46
2023-03-15 21:04:58:120,0.400421,7.93102,-5.67814,-54.2716,2.28023,134.463
2023-03-15 21:04:58:130,0.407093,7.91826,-5.68974,-54.2713,2.27996,134.464
2023-03-15 21:04:58:140,0.416849,7.93823,-5.68037,-54.27,2.27802,134.464
2023-03-15 21:04:58:150,0.426916,7.92574,-5.68885,-54.2684,2.27892,134.464
2023-03-15 21:04:58:160,0.436756,7.93028,-5.69206,-54.2682,2.27658,134.468
2023-03-15 21:04:58:170,0.415101,7.93113,-5.69468,-54.2677,2.27544,134.468
2023-03-15 21:04:58:180,0.42389,7.93561,-5.68757,-54.2693,2.27797,134.467
2023-03-15 21:04:58:190,0.42241,7.93178,-5.68453,-54.2712,2.27899,134.464
2023-03-15 21:04:58:200,0.404409,7.93243,-5.69279,-54.27,2.27713,134.464
2023-03-15 21:04:58:210,0.404139,7.94298,-5.68724,-54.2709,2.2754,134.464
2023-03-15 21:04:58:220,0.405906,7.9504,-5.6817,-54.2716,2.27459,134.466
2023-03-15 21:04:58:230,0.407128,7.93549,-5.68123,-54.2709,2.27011,134.463
2023-03-15 21:04:58:240,0.421272,7.93887,-5.6801,-54.2691,2.27028,134.467
2023-03-15 21:04:58:250,0.422574,7.93848,-5.67832,-54.2693,2.27159,134.467
2023-03-15 21:04:58:260,0.427778,7.95436,-5.67878,-54.269,2.27258,134.465
2023-03-15 21:04:58:270,0.424798,7.93974,-5.69206,-54.2694,2.27251,134.462
2023-03-15 21:04:58:280,0.413085,7.92573,-5.68886,-54.2702,2.27235,134.462
2023-03-15 21:04:58:290,0.403237,7.93239,-5.67719,-54.2706,2.27108,134.461
2023-03-15 21:04:58:300,0.40846,7.94296,-5.6687,-54.2681,2.26926,134.461
2023-03-15 21:04:58:310,0.408751,7.94075,-5.67453,-54.2706,2.26904,134.458
2023-03-15 21:04:58:320,0.41097,7.92709,-5.67993,-54.2715,2.26764,134.46
2023-03-15 21:04:58:330,0.415733,7.94339,-5.68549,-54.2686,2.26917,134.461
2023-03-15 21:04:58:340,0.411964,7.94954,-5.67875,-54.2669,2.26935,134.458
2023-03-15 21:04:58:350,0.407327,7.93835,-5.68449,-54.2682,2.26959,134.46
2023-03-15 21:04:58:360,0.421359,7.94323,-5.68637,-54.2705,2.26518,134.458
2023-03-15 21:04:58:370,0.421725,7.93771,-5.6848,-54.2717,2.268,134.458
2023-03-15 21:04:58:380,0.413446,7.94094,-5.68132,-54.2704,2.2656,134.459
2023-03-15 21:04:58:390,0.413945,7.9328,-5.6864,-54.2663,2.26428,134.456
2023-03-15 21:04:58:400,0.412945,7.93608,-5.67731,-54.2669,2.26173,134.458
2023-03-15 21:04:58:410,0.411586,7.93423,-5.67786,-54.2671,2.26136,134.457
2023-03-15 21:04:58:420,0.416249,7.9281,-5.68266,-54.2688,2.25981,134.455
2023-03-15 21:04:58:430,0.422948,7.95024,-5.68277,-54.2704,2.26024,134.456
2023-03-15 21:04:58:440,0.427422,7.93028,-5.68214,-54.2703,2.25975,134.456
2023-03-15 21:04:58:450,0.411995,7.94045,-5.68236,-54.2693,2.2582,134.455
2023-03-15 21:04:58:460,0.410314,7.93101,-5.68952,-54.27,2.25797,134.456
2023-03-15 21:04:58:470,0.407731,7.94359,-5.67957,-54.2704,2.25686,134.456
2023-03-15 21:04:58:480,0.418045,7.93507,-5.68443,-54.2722,2.25645,134.457
2023-03-15 21:04:58:490,0.413165,7.93541,-5.68064,-54.2708,2.25511,134.462
2023-03-15 21:04:58:500,0.421889,7.93683,-5.68512,-54.271,2.25455,134.463
2023-03-15 21:04:58:510,0.414813,7.94102,-5.68117,-54.2707,2.25339,134.465
2023-03-15 21:04:58:520,0.419199,7.94421,-5.67287,-54.269,2.25218,134.465
2023-03-15 21:04:58:530,0.420005,7.93195,-5.69417,-54.2671,2.25239,134.468
2023-03-15 21:04:58:540,0.417765,7.92945,-5.69462,-54.2637,2.2529,134.468
2023-03-15 21:04:58:550,0.419433,7.94243,-5.6753,-54.2639,2.25287,134.47
2023-03-15 21:04:58:560,0.409613,7.94241,-5.67642,-54.264,2.25223,134.468
2023-03-15 21:04:58:570,0.410521,7.94647,-5.69179,-54.2652,2.25131,134.467
2023-03-15 21:04:58:580,0.421665,7.93959,-5.6805,-54.2651,2.25277,134.463
2023-03-15 21:04:58:590,0.419199,7.94147,-5.67522,-54.2642,2.25373,134.463
2023-03-15 21:04:58:600,0.410914,7.92904,-5.68578,-54.2678,2.25254,134.464
2023-03-15 21:04:58:610,0.419265,7.92887,-5.68789,-54.2665,2.25406,134.464
2023-03-15 21:04:58:620,0.418481,7.93486,-5.67972,-54.2661,2.25332,134.463
2023-03-15 21:04:58:630,0.413169,7.93412,-5.6812,-54.2661,2.25364,134.464
2023-03-15 21:04:58:640,0.412936,7.9439,-5.67191,-54.2653,2.25475,134.462
2023-03-15 21:04:58:650,0.430506,7.9387,-5.68189,-54.2643,2.25876,134.462
2023-03-15 21:04:58:660,0.413189,7.94253,-5.68222,-54.2653,2.26081,134.461
2023-03-15 21:04:58:670,0.413615,7.95176,-5.68186,-54.2685,2.26252,134.461
2023-03-15 21:04:58:680,0.413436,7.9423,-5.68157,-54.271,2.26069,134.462
2023-03-15 21:04:58:690,0.422567,7.95461,-5.67645,-54.2701,2.26,134.464
2023-03-15 21:04:58:700,0.430872,7.93414,-5.68009,-54.2674,2.26268,134.465
2023-03-15 21:04:58:710,0.420776,7.93886,-5.68147,-54.2683,2.26504,134.466
2023-03-15 21:04:58:720,0.417868,7.92633,-5.6942,-54.2675,2.26555,134.466
2023-03-15 21:04:58:730,0.415964,7.93257,-5.68495,-54.2683,2.26481,134.467
2023-03-15 21:04:58:740,0.416958,7.93318,-5.6698,-54.2684,2.2639,134.466
2023-03-15 21:04:58:750,0.424965,7.93483,-5.68377,-54.2674,2.26399,134.466
2023-03-15 21:04:58:760,0.429716,7.93927,-5.69016,-54.2664,2.26514,134.466
2023-03-15 21:04:58:770,0.431045,7.93012,-5.69217,-54.2677,2.26492,134.467
2023-03-15 21:04:58:780,0.428735,7.93475,-5.6851,-54.2686,2.26302,134.465
2023-03-15 21:04:58:790,0.426983,7.92911,-5.68725,-54.2695,2.26172,134.468
2023-03-15 21:04:58:800,0.421051,7.92889,-5.69554,-54.2713,2.26253,134.47
2023-03-15 21:04:58:810,0.409969,7.92471,-5.68607,-54.2717,2.26175,134.472
2023-03-15 21:04:58:820,0.414706,7.93535,-5.68909,-54.2704,2.26264,134.471
2023-03-15 21:04:58:830,0.422491,7.93469,-5.69226,-54.2681,2.26375,134.469
2023-03-15 21:04:58:840,0.418848,7.93507,-5.68419,-54.2642,2.26401,134.47
2023-03-15 21:04:58:850,0.416555,7.94439,-5.68185,-54.2669,2.26608,134.47
2023-03-15 21:04:58:860,0.420993,7.93859,-5.6843,-54.269,2.2657,134.471
2023-03-15 21:04:58:870,0.425597,7.91941,-5.69806,-54.2708,2.26732,134.473
2023-03-15 21:04:58:880,0.419935,7.93519,-5.67795,-54.2721,2.26695,134.469
2023-03-15 21:04:58:890,0.424771,7.939,-5.68411,-54.2751,2.26774,134.468
2023-03-15 21:04:58:900,0.4114,7.94632,-5.68076,-54.2739,2.26765,134.467
2023-03-15 21:04:58:910,0.420637,7.93687,-5.67976,-54.2761,2.26644,134.466
2023-03-15 21:04:58:920,0.422465,7.9483,-5.67325,-54.2775,2.2668,134.466
2023-03-15 21:04:58:930,0.421302,7.93631,-5.68852,-54.2797,2.26577,134.466
2023-03-15 21:04:58:940,0.419308,7.93674,-5.68558,-54.277,2.26668,134.467
2023-03-15 21:04:58:950,0.420826,7.94625,-5.67875,-54.2769,2.26476,134.466
2023-03-15 21:04:58:960,0.418251,7.9356,-5.68808,-54.2764,2.26485,134.465
2023-03-15 21:04:58:970,0.418559,7.9381,-5.67673,-54.275,2.26436,134.462
2023-03-15 21:04:58:980,0.420645,7.93397,-5.68103,-54.2757,2.26624,134.463
2023-03-15 21:04:58:990,0.430911,7.93282,-5.67464,-54.2766,2.26498,134.464
2023-03-15 21:04:59:0,0.424509,7.93979,-5.67559,-54.2788,2.26292,134.461
2023-03-15 21:04:59:10,0.415384,7.94014,-5.69156,-54.2757,2.26627,134.462
2023-03-15 21:04:59:20,0.421559,7.9369,-5.68569,-54.2786,2.26512,134.459
2023-03-15 21:04:59:30,0.419795,7.93174,-5.68905,-54.2794,2.26588,134.456
2023-03-15 21:04:59:40,0.410296,7.93778,-5.68492,-54.2779,2.26423,134.454
2023-03-15 21:04:59:50,0.409139,7.92443,-5.68963,-54.2751,2.26013,134.451
2023-03-15 21:04:59:60,0.422216,7.93175,-5.68786,-54.2756,2.26242,134.449
2023-03-15 21:04:59:70,0.41877,7.93104,-5.68676,-54.2793,2.26082,134.448
2023-03-15 21:04:59:80,0.421449,7.92978,-5.68492,-54.2783,2.25888,134.45
2023-03-15 21:04:59:90,0.416134,7.9477,-5.67862,-54.2803,2.25908,134.448
2023-03-15 21:04:59:99,0.404323,7.93762,-5.68543,-54.2826,2.25386,134.452
2023-03-15 21:04:59:110,0.408587,7.9394,-5.6841,-54.279,2.25317,134.449
2023-03-15 21:04:59:120,0.40691,7.93617,-5.68536,-54.279,2.25104,134.447
2023-03-15 21:04:59:130,0.417286,7.94047,-5.68119,-54.2744,2.24936,134.451
2023-03-15 21:04:59:140,0.421099,7.93824,-5.67863,-54.2745,2.2501,134.449
2023-03-15 21:04:59:150,0.419922,7.93181,-5.691,-54.2756,2.25039,134.448
2023-03-15 21:04:59:160,0.414554,7.94095,-5.68068,-54.2765,2.24982,134.448
2023-03-15 21:04:59:170,0.417622,7.94346,-5.67659,-54.276,2.24873,134.447
2023-03-15 21:04:59:180,0.416629,7.94424,-5.68031,-54.2763,2.24932,134.445
2023-03-15 21:04:59:190,0.410385,7.93418,-5.68434,-54.279,2.24989,134.444
2023-03-15 21:04:59:200,0.410495,7.94552,-5.67052,-54.2795,2.25374,134.445
2023-03-15 21:04:59:210,0.41884,7.93145,-5.68522,-54.2817,2.25007,134.444
2023-03-15 21:04:59:220,0.404017,7.93498,-5.67486,-54.2854,2.25183,134.441
2023-03-15 21:04:59:230,0.416798,7.94797,-5.665,-54.2884,2.24926,134.438
2023-03-15 21:04:59:240,0.41801,7.94313,-5.66831,-54.2896,2.25225,134.438
2023-03-15 21:04:59:250,0.423062,7.94827,-5.67675,-54.2886,2.25407,134.44
2023-03-15 21:04:59:260,0.423127,7.93866,-5.68693,-54.2877,2.25638,134.445
2023-03-15 21:04:59:270,0.414934,7.9494,-5.67634,-54.2853,2.25486,134.443
2023-03-15 21:04:59:280,0.413144,7.92913,-5.67485,-54.2852,2.25495,134.441
2023-03-15 21:04:59:290,0.416624,7.93117,-5.68114,-54.2863,2.25301,134.44
2023-03-15 21:04:59:300,0.438529,7.9195,-5.687,-54.2859,2.25824,134.442
2023-03-15 21:04:59:310,0.419359,7.93705,-5.6868,-54.2871,2.25862,134.442
2023-03-15 21:04:59:320,0.416673,8.00246,-5.6466,-54.2887,2.25799,134.443
2023-03-15 21:04:59:330,0.424698,7.91894,-5.68685,-54.2829,2.26172,134.443
2023-03-15 21:04:59:340,0.411662,7.9461,-5.68701,-54.284,2.25759,134.442
2023-03-15 21:04:59:350,0.426941,7.91521,-5.70227,-54.2826,2.25896,134.444
2023-03-15 21:04:59:360,0.424905,7.9306,-5.69243,-54.2833,2.25927,134.444
2023-03-15 21:04:59:370,0.415663,7.93536,-5.67693,-54.2837,2.25969,134.443
2023-03-15 21:04:59:380,0.417502,7.93237,-5.68051,-54.286,2.26115,134.444
2023-03-15 21:04:59:390,0.418657,7.93433,-5.68588,-54.2862,2.26391,134.443
2023-03-15 21:04:59:400,0.414261,7.92758,-5.68833,-54.2862,2.26411,134.444
2023-03-15 21:04:59:410,0.416943,7.94803,-5.66703,-54.2873,2.264,134.443
2023-03-15 21:04:59:420,0.416516,7.92977,-5.68552,-54.285,2.26383,134.443
2023-03-15 21:04:59:430,0.419537,7.94199,-5.69039,-54.2888,2.26446,134.444
2023-03-15 21:04:59:440,0.408705,7.93395,-5.68286,-54.2862,2.26625,134.446
2023-03-15 21:04:59:450,0.413214,7.92573,-5.68936,-54.286,2.26486,134.447
2023-03-15 21:04:59:460,0.412809,7.92064,-5.70466,-54.2848,2.26162,134.447
2023-03-15 21:04:59:470,0.413959,7.94326,-5.68207,-54.2867,2.25868,134.446
2023-03-15 21:04:59:480,0.430218,7.92116,-5.69949,-54.2859,2.25756,134.449
2023-03-15 21:04:59:490,0.42524,7.98225,-5.65746,-54.2954,2.25662,134.445
2023-03-15 21:04:59:500,0.415779,7.94653,-5.68364,-54.2951,2.2577,134.446
2023-03-15 21:04:59:510,0.420163,7.94851,-5.6876,-54.2914,2.26032,134.446
2023-03-15 21:04:59:520,0.432264,7.91403,-5.70029,-54.2906,2.26054,134.446
2023-03-15 21:04:59:530,0.427235,7.94311,-5.68147,-54.2931,2.25983,134.443
2023-03-15 21:04:59:540,0.433114,7.94207,-5.68137,-54.2935,2.258,134.44
2023-03-15 21:04:59:550,0.409693,7.9556,-5.67243,-54.2962,2.25591,134.438
2023-03-15 21:04:59:560,0.414128,7.93915,-5.68448,-54.2935,2.2564,134.439
2023-03-15 21:04:59:570,0.410497,7.9247,-5.68738,-54.2906,2.25694,134.438
2023-03-15 21:04:59:580,0.406085,7.93471,-5.6886,-54.2863,2.25725,134.438
2023-03-15 21:04:59:590,0.405676,7.9351,-5.68883,-54.2873,2.25394,134.436
2023-03-15 21:04:59:600,0.404344,7.93886,-5.68089,-54.2879,2.25248,134.436
2023-03-15 21:04:59:610,0.406533,7.94372,-5.67453,-54.2891,2.25326,134.436
2023-03-15 21:04:59:620,0.420529,7.93621,-5.68097,-54.2851,2.2536,134.439
2023-03-15 21:04:59:630,0.415669,7.92754,-5.69296,-54.2842,2.25083,134.437
2023-03-15 21:04:59:639,0.422791,7.92114,-5.69252,-54.2833,2.24999,134.437
2023-03-15 21:04:59:650,0.438036,7.93806,-5.68254,-54.2879,2.24874,134.437
2023-03-15 21:04:59:660,0.433187,7.9578,-5.66904,-54.2879,2.2461,134.434
2023-03-15 21:04:59:670,0.425779,7.92801,-5.68471,-54.2868,2.24705,134.433
2023-03-15 21:04:59:680,0.422781,7.92621,-5.68954,-54.2864,2.25124,134.433
2023-03-15 21:04:59:690,0.425512,7.93573,-5.68174,-54.2872,2.25125,134.433
2023-03-15 21:04:59:700,0.418604,7.93614,-5.68005,-54.2896,2.24843,134.432
2023-03-15 21:04:59:710,0.405468,7.94264,-5.68896,-54.2879,2.24765,134.429
2023-03-15 21:04:59:720,0.410893,7.93864,-5.68778,-54.289,2.24986,134.432
2023-03-15 21:04:59:730,0.411419,7.94708,-5.67443,-54.2869,2.25022,134.432
2023-03-15 21:04:59:740,0.406175,7.92601,-5.67289,-54.2859,2.24919,134.432
2023-03-15 21:04:59:750,0.412111,7.92834,-5.67304,-54.2875,2.25314,134.433
2023-03-15 21:04:59:760,0.417232,7.93219,-5.68407,-54.2892,2.2536,134.432
2023-03-15 21:04:59:770,0.422494,7.93429,-5.6813,-54.2906,2.25553,134.43
2023-03-15 21:04:59:780,0.424614,7.93489,-5.68717,-54.29,2.25687,134.431
2023-03-15 21:04:59:790,0.424151,7.92902,-5.67893,-54.2881,2.25613,134.43
2023-03-15 21:04:59:800,0.42756,7.93268,-5.68256,-54.2871,2.25867,134.43
2023-03-15 21:04:59:810,0.429148,7.93823,-5.6805,-54.2875,2.26192,134.428
2023-03-15 21:04:59:820,0.42154,7.94221,-5.67281,-54.2869,2.25724,134.428
2023-03-15 21:04:59:830,0.421496,7.94185,-5.67922,-54.2883,2.26137,134.429
2023-03-15 21:04:59:840,0.420781,7.93789,-5.69201,-54.2863,2.26189,134.428
2023-03-15 21:04:59:850,0.417889,7.9379,-5.68086,-54.2876,2.26251,134.428
2023-03-15 21:04:59:860,0.41311,7.93714,-5.686,-54.2883,2.26187,134.425
2023-03-15 21:04:59:870,0.407689,7.94106,-5.6759,-54.2876,2.26259,134.426
2023-03-15 21:04:59:880,0.407496,7.93336,-5.6869,-54.2866,2.26186,134.426
2023-03-15 21:04:59:890,0.420783,7.93031,-5.68727,-54.2864,2.26148,134.427
2023-03-15 21:04:59:900,0.416919,7.92934,-5.68869,-54.2831,2.26122,134.426
2023-03-15 21:04:59:910,0.404636,7.92758,-5.68725,-54.2804,2.26058,134.427
2023-03-15 21:04:59:920,0.405362,7.92655,-5.67654,-54.2826,2.25974,134.424
2023-03-15 21:04:59:930,0.415927,7.92359,-5.68621,-54.2806,2.26038,134.427
2023-03-15 21:04:59:940,0.413052,7.93708,-5.68308,-54.2823,2.26229,134.427
2023-03-15 21:04:59:950,0.422698,7.94273,-5.67899,-54.2839,2.26265,134.426
2023-03-15 21:04:59:960,0.427701,7.9446,-5.67507,-54.2828,2.2623,134.429
2023-03-15 21:04:59:970,0.428041,7.94986,-5.67884,-54.2839,2.26185,134.428
2023-03-15 21:04:59:980,0.419265,7.93751,-5.67991,-54.2863,2.25993,134.427
2023-03-15 21:04:59:990,0.42125,7.93426,-5.68632,-54.2863,2.25934,134.426
2023-03-15 21:05:00:0,0.425005,7.92681,-5.68511,-54.2864,2.26087,134.425
2023-03-15 21:05:00:10,0.418425,7.93788,-5.67332,-54.286,2.26204,134.427
2023-03-15 21:05:00:20,0.409151,7.941,-5.67389,-54.2844,2.26179,134.428
2023-03-15 21:05:00:30,0.417609,7.93874,-5.68557,-54.2866,2.26003,134.426
2023-03-15 21:05:00:40,0.413315,7.93597,-5.69185,-54.2862,2.25687,134.429
2023-03-15 21:05:00:50,0.410351,7.9301,-5.68399,-54.2857,2.25797,134.43
2023-03-15 21:05:00:60,0.417809,7.94387,-5.68673,-54.2857,2.25655,134.429
2023-03-15 21:05:00:70,0.420017,7.93769,-5.68706,-54.2843,2.25762,134.43
2023-03-15 21:05:00:80,0.414089,7.93425,-5.68682,-54.2858,2.25586,134.431
2023-03-15 21:05:00:90,0.410351,7.94316,-5.68446,-54.2824,2.25664,134.43
2023-03-15 21:05:00:100,0.418995,7.95369,-5.68112,-54.2842,2.25958,134.433
2023-03-15 21:05:00:110,0.419142,7.95143,-5.67323,-54.2853,2.25831,134.433
2023-03-15 21:05:00:120,0.416776,7.93631,-5.67979,-54.288,2.26051,134.431
2023-03-15 21:05:00:130,0.415372,7.94103,-5.6699,-54.2863,2.25872,134.43
2023-03-15 21:05:00:140,0.416345,7.93434,-5.68489,-54.2872,2.25969,134.434
2023-03-15 21:05:00:150,0.418377,7.9388,-5.68932,-54.285,2.25722,134.431
2023-03-15 21:05:00:160,0.420973,7.94769,-5.68955,-54.2832,2.25618,134.428
2023-03-15 21:05:00:170,0.423653,7.94207,-5.69133,-54.2813,2.25926,134.431
2023-03-15 21:05:00:180,0.412361,7.93454,-5.69085,-54.2809,2.26131,134.431
2023-03-15 21:05:00:190,0.409295,7.92976,-5.68569,-54.2824,2.26324,134.433
2023-03-15 21:05:00:200,0.415205,7.93577,-5.69714,-54.2823,2.26382,134.434
2023-03-15 21:05:00:210,0.419382,7.93448,-5.69871,-54.2797,2.26264,134.436
2023-03-15 21:05:00:220,0.418405,7.92761,-5.68415,-54.2798,2.26364,134.437
2023-03-15 21:05:00:230,0.414072,7.92827,-5.68192,-54.2792,2.26386,134.434
2023-03-15 21:05:00:240,0.407138,7.92243,-5.68977,-54.2803,2.26393,134.435
2023-03-15 21:05:00:250,0.4085,7.94018,-5.68629,-54.28,2.26273,134.433
2023-03-15 21:05:00:260,0.414347,7.94129,-5.67776,-54.2796,2.26271,134.435
2023-03-15 21:05:00:270,0.408829,7.93729,-5.67654,-54.2807,2.26385,134.436
2023-03-15 21:05:00:280,0.408857,7.93361,-5.67596,-54.2834,2.26455,134.436
2023-03-15 21:05:00:290,0.421637,7.93012,-5.69109,-54.2832,2.26917,134.438
2023-03-15 21:05:00:300,0.418175,7.9398,-5.68331,-54.2842,2.26892,134.438
2023-03-15 21:05:00:310,0.420244,7.93438,-5.69109,-54.2862,2.26955,134.436
2023-03-15 21:05:00:320,0.417394,7.93345,-5.6853,-54.285,2.27123,134.438
2023-03-15 21:05:00:330,0.413885,7.92759,-5.68621,-54.284,2.2709,134.44
2023-03-15 21:05:00:340,0.412982,7.93451,-5.68332,-54.2801,2.27122,134.439
2023-03-15 21:05:00:350,0.415095,7.94301,-5.68354,-54.2809,2.26765,134.436
2023-03-15 21:05:00:359,0.398941,7.9393,-5.69625,-54.2792,2.26751,134.438
2023-03-15 21:05:00:370,0.406509,7.94359,-5.68045,-54.2792,2.27012,134.438
2023-03-15 21:05:00:380,0.405623,7.93382,-5.68932,-54.2791,2.27312,134.437
2023-03-15 21:05:00:390,0.420099,7.93988,-5.68439,-54.2775,2.2726,134.434
2023-03-15 21:05:00:400,0.41926,7.93791,-5.67959,-54.2771,2.27194,134.434
2023-03-15 21:05:00:410,0.417034,7.93729,-5.67647,-54.2751,2.27063,134.433
2023-03-15 21:05:00:420,0.42969,7.94402,-5.67753,-54.2768,2.27284,134.434
2023-03-15 21:05:00:430,0.419224,7.92924,-5.68092,-54.278,2.27772,134.431
2023-03-15 21:05:00:440,0.41485,7.93688,-5.67839,-54.2786,2.28235,134.429
2023-03-15 21:05:00:450,0.404255,7.94042,-5.6955,-54.2809,2.28107,134.427
2023-03-15 21:05:00:460,0.413539,7.93475,-5.68421,-54.2814,2.2797,134.427
2023-03-15 21:05:00:470,0.419601,7.92307,-5.69006,-54.2805,2.2817,134.425
2023-03-15 21:05:00:480,0.421949,7.93527,-5.69948,-54.2796,2.28488,134.424
2023-03-15 21:05:00:490,0.41283,7.94,-5.6891,-54.2814,2.28462,134.42
2023-03-15 21:05:00:500,0.41504,7.92632,-5.6949,-54.2815,2.28376,134.416
2023-03-15 21:05:00:510,0.421668,7.92814,-5.67834,-54.2821,2.28734,134.414
2023-03-15 21:05:00:520,0.431365,7.93391,-5.68902,-54.2832,2.28595,134.411
2023-03-15 21:05:00:530,0.419626,7.93278,-5.68938,-54.2813,2.28705,134.41
2023-03-15 21:05:00:540,0.417095,7.92097,-5.69368,-54.2783,2.28951,134.409
2023-03-15 21:05:00:550,0.416501,7.92875,-5.6916,-54.2779,2.29043,134.41
2023-03-15 21:05:00:560,0.412107,7.94169,-5.68716,-54.2783,2.29022,134.408
2023-03-15 21:05:00:570,0.407814,7.93199,-5.68836,-54.2783,2.29046,134.409
2023-03-15 21:05:00:580,0.415176,7.94679,-5.68145,-54.2774,2.29114,134.405
2023-03-15 21:05:00:590,0.417373,7.93739,-5.67452,-54.2762,2.29282,134.404
2023-03-15 21:05:00:600,0.421482,7.93078,-5.67949,-54.2752,2.2928,134.406
2023-03-15 21:05:00:610,0.423711,7.9477,-5.67927,-54.2761,2.29336,134.406
2023-03-15 21:05:00:620,0.415504,7.94051,-5.67477,-54.275,2.29217,134.405
2023-03-15 21:05:00:630,0.427601,7.93764,-5.67277,-54.2785,2.29326,134.405
2023-03-15 21:05:00:640,0.411742,7.94077,-5.68317,-54.277,2.29129,134.405
2023-03-15 21:05:00:650,0.415384,7.93942,-5.68125,-54.2767,2.28979,134.403
2023-03-15 21:05:00:660,0.424429,7.93309,-5.68123,-54.2784,2.28742,134.403
2023-03-15 21:05:00:670,0.428315,7.94199,-5.68092,-54.2776,2.28776,134.408
2023-03-15 21:05:00:680,0.406054,7.94289,-5.67817,-54.2804,2.29012,134.408
2023-03-15 21:05:00:690,0.402093,7.93585,-5.67614,-54.2807,2.28909,134.408
2023-03-15 21:05:00:700,0.411166,7.93994,-5.68535,-54.2793,2.29011,134.409
2023-03-15 21:05:00:710,0.411833,7.93396,-5.68751,-54.279,2.29094,134.41
2023-03-15 21:05:00:720,0.413697,7.9289,-5.67861,-54.2816,2.28976,134.411
2023-03-15 21:05:00:730,0.415522,7.93016,-5.68123,-54.279,2.28731,134.41
2023-03-15 21:05:00:740,0.412027,7.94207,-5.66502,-54.2781,2.28757,134.412
2023-03-15 21:05:00:750,0.421102,7.94352,-5.66528,-54.2778,2.29036,134.412
2023-03-15 21:05:00:759,0.423253,7.93711,-5.68451,-54.2804,2.29207,134.411
2023-03-15 21:05:00:770,0.412103,7.94077,-5.67767,-54.2816,2.29047,134.409
2023-03-15 21:05:00:780,0.423095,7.93745,-5.67306,-54.2836,2.29128,134.41
2023-03-15 21:05:00:790,0.415627,7.93753,-5.68249,-54.2841,2.29047,134.411
2023-03-15 21:05:00:800,0.414147,7.93249,-5.68033,-54.2828,2.28864,134.409
2023-03-15 21:05:00:810,0.418089,7.92257,-5.67757,-54.2813,2.28969,134.41
2023-03-15 21:05:00:820,0.419674,7.92917,-5.67486,-54.2841,2.29028,134.41
2023-03-15 21:05:00:830,0.417011,7.9373,-5.6803,-54.2846,2.29006,134.406
2023-03-15 21:05:00:840,0.416862,7.93973,-5.67666,-54.283,2.2918,134.404
2023-03-15 21:05:00:850,0.424318,7.92995,-5.68814,-54.2836,2.29061,134.405
2023-03-15 21:05:00:860,0.421133,7.93402,-5.68001,-54.2815,2.29189,134.407
2023-03-15 21:05:00:870,0.416092,7.94001,-5.6825,-54.2827,2.29226,134.41
2023-03-15 21:05:00:880,0.426072,7.93099,-5.68962,-54.2828,2.29052,134.41
2023-03-15 21:05:00:890,0.428102,7.93771,-5.68092,-54.2842,2.29239,134.409
2023-03-15 21:05:00:900,0.412934,7.93684,-5.6775,-54.2864,2.28975,134.41
2023-03-15 21:05:00:910,0.42059,7.93404,-5.67765,-54.2848,2.29247,134.409
2023-03-15 21:05:00:920,0.415725,7.93351,-5.68336,-54.2878,2.29443,134.408
2023-03-15 21:05:00:930,0.415106,7.92886,-5.68373,-54.2878,2.29371,134.409
2023-03-15 21:05:00:940,0.403758,7.93158,-5.69369,-54.285,2.29412,134.407
2023-03-15 21:05:00:950,0.413387,7.92382,-5.69246,-54.2832,2.29545,134.404
2023-03-15 21:05:00:960,0.415597,7.93379,-5.67882,-54.2861,2.29699,134.402
2023-03-15 21:05:00:970,0.413353,7.94251,-5.68111,-54.2828,2.29783,134.403
2023-03-15 21:05:00:980,0.421345,7.93907,-5.69115,-54.2805,2.29842,134.404
2023-03-15 21:05:00:990,0.40763,7.95218,-5.67453,-54.2836,2.29737,134.403
2023-03-15 21:05:01:0,0.409193,7.93405,-5.68564,-54.284,2.29528,134.403
2023-03-15 21:05:01:10,0.423813,7.93638,-5.68589,-54.2852,2.2968,134.404
2023-03-15 21:05:01:20,0.424593,7.93862,-5.68688,-54.2846,2.29508,134.403
2023-03-15 21:05:01:30,0.417467,7.93583,-5.68485,-54.2838,2.29674,134.403
2023-03-15 21:05:01:40,0.404618,7.9435,-5.67615,-54.2835,2.29744,134.405
2023-03-15 21:05:01:50,0.399962,7.94097,-5.67699,-54.2838,2.29711,134.404
2023-03-15 21:05:01:60,0.406266,7.94512,-5.68005,-54.2835,2.29889,134.403
2023-03-15 21:05:01:70,0.41866,7.93359,-5.68864,-54.2844,2.30175,134.403
2023-03-15 21:05:01:80,0.418087,7.93302,-5.69083,-54.2874,2.30321,134.402
2023-03-15 21:05:01:90,0.412003,7.93329,-5.67575,-54.2873,2.30471,134.401
2023-03-15 21:05:01:100,0.405964,7.93553,-5.68568,-54.2883,2.30628,134.399
2023-03-15 21:05:01:110,0.408509,7.93575,-5.68944,-54.287,2.30396,134.398
2023-03-15 21:05:01:120,0.401496,7.92637,-5.68842,-54.2875,2.30557,134.402
2023-03-15 21:05:01:130,0.408876,7.93201,-5.6753,-54.2892,2.30479,134.401
2023-03-15 21:05:01:140,0.427591,7.93053,-5.68012,-54.2882,2.30153,134.4
2023-03-15 21:05:01:150,0.421045,7.93784,-5.67789,-54.2871,2.30401,134.399
2023-03-15 21:05:01:160,0.426665,7.94251,-5.68642,-54.2863,2.30276,134.399
2023-03-15 21:05:01:170,0.426389,7.93554,-5.68629,-54.2859,2.30449,134.403
2023-03-15 21:05:01:179,0.421987,7.94225,-5.68832,-54.2878,2.30385,134.403
2023-03-15 21:05:01:190,0.420637,7.93243,-5.69442,-54.2851,2.30285,134.404
2023-03-15 21:05:01:200,0.412288,7.94204,-5.68407,-54.2844,2.30341,134.405
2023-03-15 21:05:01:210,0.420183,7.94068,-5.68375,-54.2836,2.30487,134.405
2023-03-15 21:05:01:220,0.426607,7.93043,-5.68278,-54.2838,2.30501,134.405
2023-03-15 21:05:01:230,0.418176,7.92956,-5.68156,-54.286,2.30251,134.403
2023-03-15 21:05:01:240,0.41616,7.94487,-5.69094,-54.2888,2.30192,134.408
2023-03-15 21:05:01:250,0.410629,7.94627,-5.68756,-54.2916,2.30481,134.405
2023-03-15 21:05:01:260,0.412875,7.93149,-5.69019,-54.2958,2.3039,134.406
2023-03-15 21:05:01:269,0.420324,7.93461,-5.69158,-54.2965,2.304,134.404
2023-03-15 21:05:01:279,0.421358,7.93395,-5.69379,-54.2961,2.30188,134.404
2023-03-15 21:05:01:290,0.418695,7.92378,-5.69217,-54.2948,2.30214,134.407
2023-03-15 21:05:01:300,0.42907,7.93468,-5.68315,-54.2961,2.30299,134.405
2023-03-15 21:05:01:310,0.420275,7.93133,-5.69002,-54.2968,2.30335,134.405
2023-03-15 21:05:01:320,0.410641,7.93466,-5.69586,-54.2978,2.30062,134.409
2023-03-15 21:05:01:330,0.415664,7.93091,-5.68308,-54.2984,2.30216,134.411
2023-03-15 21:05:01:340,0.423533,7.94325,-5.67397,-54.298,2.30372,134.409
2023-03-15 21:05:01:350,0.421315,7.93504,-5.68778,-54.2979,2.30581,134.409
2023-03-15 21:05:01:360,0.417511,7.94373,-5.68316,-54.2957,2.30753,134.407
2023-03-15 21:05:01:370,0.41969,7.95302,-5.6743,-54.2956,2.30701,134.407
2023-03-15 21:05:01:380,0.425516,7.92958,-5.68958,-54.2953,2.31025,134.408
2023-03-15 21:05:01:390,0.420753,7.94018,-5.68293,-54.2966,2.31461,134.404
2023-03-15 21:05:01:400,0.423601,7.93149,-5.68562,-54.2994,2.31103,134.403
2023-03-15 21:05:01:410,0.422051,7.94059,-5.68103,-54.2999,2.31232,134.404
2023-03-15 21:05:01:420,0.412515,7.93287,-5.68283,-54.3001,2.31338,134.403
2023-03-15 21:05:01:430,0.412384,7.93169,-5.69078,-54.2959,2.31735,134.403
2023-03-15 21:05:01:440,0.406368,7.93517,-5.68554,-54.2966,2.31982,134.401
2023-03-15 21:05:01:450,0.415453,7.92477,-5.68421,-54.2943,2.32051,134.401
2023-03-15 21:05:01:460,0.418049,7.93592,-5.69354,-54.2946,2.32338,134.403
2023-03-15 21:05:01:470,0.407699,7.93184,-5.69268,-54.294,2.32768,134.406
2023-03-15 21:05:01:480,0.417458,7.92655,-5.68253,-54.2905,2.329,134.404
2023-03-15 21:05:01:490,0.409327,7.93323,-5.68929,-54.2902,2.3283,134.403
2023-03-15 21:05:01:500,0.414686,7.93965,-5.68752,-54.2905,2.32768,134.401
2023-03-15 21:05:01:510,0.420799,7.93183,-5.68316,-54.2896,2.32824,134.403
2023-03-15 21:05:01:520,0.416403,7.92532,-5.69566,-54.2925,2.33013,134.406
2023-03-15 21:05:01:530,0.409292,7.93577,-5.69183,-54.2903,2.33123,134.405
2023-03-15 21:05:01:540,0.414012,7.94082,-5.69101,-54.2873,2.33215,134.406
2023-03-15 21:05:01:550,0.405078,7.93405,-5.69737,-54.2875,2.33137,134.409
2023-03-15 21:05:01:560,0.41138,7.93093,-5.68501,-54.2881,2.32721,134.409
2023-03-15 21:05:01:570,0.424059,7.92445,-5.69476,-54.2873,2.32775,134.408
2023-03-15 21:05:01:580,0.414031,7.93383,-5.68277,-54.2899,2.3258,134.407
2023-03-15 21:05:01:590,0.412934,7.93911,-5.68596,-54.2884,2.32265,134.405
2023-03-15 21:05:01:600,0.41659,7.94278,-5.67781,-54.2926,2.32196,134.403
2023-03-15 21:05:01:610,0.419101,7.93964,-5.68894,-54.2903,2.32228,134.403
2023-03-15 21:05:01:620,0.425048,7.93222,-5.67404,-54.2894,2.3254,134.402
2023-03-15 21:05:01:630,0.427282,7.94665,-5.68614,-54.2912,2.32617,134.399
2023-03-15 21:05:01:640,0.415163,7.93432,-5.69253,-54.2931,2.32551,134.397
2023-03-15 21:05:01:650,0.41228,7.93321,-5.69208,-54.2919,2.32497,134.392
2023-03-15 21:05:01:660,0.421875,7.92751,-5.68274,-54.2918,2.32612,134.391
2023-03-15 21:05:01:670,0.419952,7.92865,-5.68054,-54.292,2.32632,134.392
2023-03-15 21:05:01:680,0.414572,7.93825,-5.68248,-54.2957,2.32439,134.39
2023-03-15 21:05:01:690,0.421084,7.9431,-5.66739,-54.2933,2.32335,134.39
2023-03-15 21:05:01:700,0.421324,7.94123,-5.6807,-54.2948,2.32157,134.39
2023-03-15 21:05:01:710,0.412049,7.93459,-5.68958,-54.2937,2.31954,134.393
2023-03-15 21:05:01:720,0.426302,7.93872,-5.6839,-54.2944,2.31847,134.393
2023-03-15 21:05:01:730,0.423285,7.9338,-5.68238,-54.2936,2.32084,134.392
2023-03-15 21:05:01:740,0.420786,7.93614,-5.6813,-54.2917,2.32401,134.392
2023-03-15 21:05:01:750,0.421955,7.92689,-5.69417,-54.2909,2.32495,134.391
2023-03-15 21:05:01:760,0.406482,7.92928,-5.69628,-54.2926,2.3238,134.39
2023-03-15 21:05:01:770,0.408859,7.9407,-5.69142,-54.2941,2.32461,134.388
2023-03-15 21:05:01:780,0.412397,7.93529,-5.68534,-54.2977,2.32612,134.388
2023-03-15 21:05:01:790,0.413865,7.93403,-5.68348,-54.3014,2.32687,134.388
2023-03-15 21:05:01:800,0.41403,7.91837,-5.69614,-54.3021,2.32659,134.388
2023-03-15 21:05:01:810,0.415818,7.93359,-5.67903,-54.2998,2.32834,134.388
2023-03-15 21:05:01:820,0.408761,7.94821,-5.67473,-54.2996,2.32746,134.386
2023-03-15 21:05:01:830,0.419505,7.93034,-5.69448,-54.2983,2.32802,134.386
2023-03-15 21:05:01:840,0.414923,7.94438,-5.69296,-54.2989,2.32817,134.385
2023-03-15 21:05:01:850,0.417327,7.93308,-5.69293,-54.2947,2.32615,134.387
2023-03-15 21:05:01:860,0.419624,7.93764,-5.68291,-54.2947,2.328,134.387
2023-03-15 21:05:01:870,0.41436,7.94599,-5.68103,-54.2944,2.32922,134.389
2023-03-15 21:05:01:880,0.416655,7.93603,-5.68368,-54.2954,2.32954,134.389
2023-03-15 21:05:01:890,0.415996,7.93457,-5.68675,-54.2958,2.33003,134.388
2023-03-15 21:05:01:900,0.411334,7.93053,-5.68969,-54.2931,2.33022,134.387
2023-03-15 21:05:01:910,0.418128,7.94711,-5.68165,-54.2936,2.3295,134.386
2023-03-15 21:05:01:920,0.422171,7.93785,-5.69722,-54.2964,2.33006,134.389
2023-03-15 21:05:01:930,0.42183,7.93195,-5.69419,-54.2975,2.33222,134.392
2023-03-15 21:05:01:940,0.409634,7.93278,-5.68952,-54.2999,2.33395,134.392
2023-03-15 21:05:01:950,0.410587,7.93132,-5.68172,-54.2972,2.33303,134.393
2023-03-15 21:05:01:960,0.410115,7.93125,-5.69081,-54.296,2.332,134.391
2023-03-15 21:05:01:970,0.413993,7.92449,-5.69407,-54.296,2.33001,134.389
2023-03-15 21:05:01:980,0.413228,7.9451,-5.68255,-54.2976,2.32862,134.389
2023-03-15 21:05:01:990,0.410833,7.94924,-5.67655,-54.2991,2.3301,134.388
2023-03-15 21:05:02:0,0.412172,7.93484,-5.69264,-54.2987,2.33147,134.388
2023-03-15 21:05:02:10,0.411892,7.93884,-5.68365,-54.3001,2.3296,134.389
2023-03-15 21:05:02:20,0.410063,7.94274,-5.67724,-54.3004,2.32793,134.389
2023-03-15 21:05:02:30,0.410129,7.94264,-5.67918,-54.3016,2.32925,134.389
2023-03-15 21:05:02:40,0.417044,7.93691,-5.6845,-54.3004,2.32955,134.39
2023-03-15 21:05:02:50,0.414225,7.94359,-5.67964,-54.2992,2.32843,134.387
2023-03-15 21:05:02:60,0.414705,7.93884,-5.68375,-54.3015,2.32279,134.388
2023-03-15 21:05:02:70,0.418764,7.93541,-5.68135,-54.3017,2.32457,134.386
2023-03-15 21:05:02:80,0.420637,7.92712,-5.69642,-54.3026,2.32595,134.384
2023-03-15 21:05:02:90,0.419211,7.93037,-5.69083,-54.3008,2.32672,134.384
2023-03-15 21:05:02:100,0.414385,7.94069,-5.68206,-54.2967,2.32855,134.383
2023-03-15 21:05:02:110,0.407582,7.93483,-5.68237,-54.2939,2.32613,134.384
2023-03-15 21:05:02:120,0.430111,7.94204,-5.67517,-54.2909,2.32606,134.382
2023-03-15 21:05:02:130,0.429735,7.93295,-5.68981,-54.2895,2.32637,134.38
2023-03-15 21:05:02:140,0.431345,7.9369,-5.6866,-54.2907,2.32642,134.381
2023-03-15 21:05:02:150,0.423773,7.92985,-5.6963,-54.2941,2.32544,134.381
2023-03-15 21:05:02:160,0.424032,7.9222,-5.70033,-54.29,2.32852,134.38
2023-03-15 21:05:02:170,0.412824,7.94226,-5.68733,-54.2922,2.32862,134.378
2023-03-15 21:05:02:180,0.407671,7.93491,-5.69381,-54.2958,2.32995,134.382
2023-03-15 21:05:02:190,0.413244,7.93469,-5.69111,-54.2921,2.33121,134.38
2023-03-15 21:05:02:200,0.413277,7.93383,-5.69832,-54.2933,2.33211,134.378
2023-03-15 21:05:02:209,0.423039,7.9371,-5.6913,-54.2932,2.33068,134.379
2023-03-15 21:05:02:220,0.431643,7.9342,-5.69397,-54.2929,2.33114,134.377
2023-03-15 21:05:02:230,0.421694,7.93994,-5.68594,-54.2911,2.33077,134.376
2023-03-15 21:05:02:240,0.417982,7.93994,-5.67674,-54.2925,2.33005,134.377
2023-03-15 21:05:02:250,0.420455,7.93039,-5.68759,-54.2939,2.32967,134.376
2023-03-15 21:05:02:260,0.421101,7.93202,-5.68549,-54.2955,2.32981,134.375
2023-03-15 21:05:02:270,0.412003,7.93814,-5.67099,-54.2942,2.3289,134.373
2023-03-15 21:05:02:280,0.410941,7.94247,-5.68049,-54.2935,2.33071,134.37
2023-03-15 21:05:02:290,0.418225,7.9451,-5.68285,-54.2949,2.32706,134.374
2023-03-15 21:05:02:300,0.415092,7.93945,-5.68701,-54.2943,2.32623,134.376
2023-03-15 21:05:02:310,0.417963,7.94274,-5.67691,-54.2933,2.32242,134.377
2023-03-15 21:05:02:320,0.411895,7.93568,-5.68785,-54.2914,2.32246,134.381
2023-03-15 21:05:02:330,0.420741,7.93649,-5.67618,-54.2938,2.32246,134.38
2023-03-15 21:05:02:340,0.407554,7.93802,-5.67435,-54.2915,2.32145,134.379
2023-03-15 21:05:02:350,0.417483,7.93186,-5.68545,-54.2933,2.32342,134.379
2023-03-15 21:05:02:360,0.405283,7.93792,-5.68787,-54.2909,2.32419,134.377
2023-03-15 21:05:02:370,0.414884,7.92594,-5.694,-54.2923,2.32593,134.374
2023-03-15 21:05:02:380,0.427252,7.93512,-5.68841,-54.2921,2.32673,134.372
2023-03-15 21:05:02:390,0.418218,7.93508,-5.69238,-54.2914,2.3261,134.371
2023-03-15 21:05:02:400,0.424343,7.93881,-5.67648,-54.2904,2.32689,134.371
2023-03-15 21:05:02:410,0.419978,7.93803,-5.67999,-54.2898,2.32562,134.369
2023-03-15 21:05:02:420,0.407289,7.93126,-5.68345,-54.2881,2.32468,134.369
2023-03-15 21:05:02:430,0.415516,7.94992,-5.67552,-54.29,2.32389,134.372
2023-03-15 21:05:02:440,0.419533,7.95403,-5.68328,-54.2897,2.32341,134.37
2023-03-15 21:05:02:450,0.406673,7.93871,-5.68405,-54.2888,2.32557,134.372
2023-03-15 21:05:02:460,0.408976,7.93352,-5.68161,-54.2865,2.32518,134.372
2023-03-15 21:05:02:470,0.417587,7.93385,-5.68049,-54.2842,2.32472,134.37
2023-03-15 21:05:02:480,0.420488,7.94426,-5.68227,-54.2851,2.32357,134.372
2023-03-15 21:05:02:490,0.417273,7.93395,-5.68852,-54.2827,2.32322,134.373
2023-03-15 21:05:02:500,0.410798,7.93124,-5.68568,-54.2853,2.32446,134.372
2023-03-15 21:05:02:510,0.425919,7.93375,-5.68317,-54.2846,2.32549,134.37
2023-03-15 21:05:02:520,0.428636,7.93964,-5.66943,-54.2868,2.32327,134.37
2023-03-15 21:05:02:530,0.416507,7.93827,-5.67952,-54.2858,2.32316,134.371
2023-03-15 21:05:02:540,0.415431,7.93113,-5.69026,-54.2866,2.32126,134.37
2023-03-15 21:05:02:550,0.414717,7.94138,-5.69088,-54.2864,2.32034,134.371
2023-03-15 21:05:02:560,0.406282,7.94744,-5.68432,-54.2885,2.3201,134.371
2023-03-15 21:05:02:570,0.422124,7.94398,-5.67652,-54.2873,2.32027,134.374
2023-03-15 21:05:02:580,0.422844,7.93663,-5.69459,-54.2893,2.31999,134.377
2023-03-15 21:05:02:590,0.408812,7.94167,-5.68416,-54.288,2.32021,134.376
2023-03-15 21:05:02:600,0.416366,7.94474,-5.68223,-54.286,2.31842,134.375
2023-03-15 21:05:02:610,0.413887,7.94621,-5.67913,-54.2864,2.31707,134.378
2023-03-15 21:05:02:620,0.411161,7.94976,-5.67506,-54.2874,2.31652,134.38
2023-03-15 21:05:02:630,0.418341,7.94035,-5.6802,-54.2874,2.31571,134.379
2023-03-15 21:05:02:640,0.404396,7.94467,-5.6804,-54.2866,2.31557,134.379
2023-03-15 21:05:02:650,0.418862,7.94321,-5.68322,-54.2861,2.31699,134.381
2023-03-15 21:05:02:660,0.421476,7.93308,-5.68677,-54.2821,2.31838,134.381
2023-03-15 21:05:02:670,0.424982,7.94426,-5.68183,-54.2804,2.31787,134.38
2023-03-15 21:05:02:680,0.418141,7.94869,-5.67845,-54.2846,2.31891,134.381
2023-03-15 21:05:02:690,0.41485,7.95733,-5.68106,-54.2811,2.32161,134.381
2023-03-15 21:05:02:699,0.413282,7.94253,-5.68827,-54.2786,2.3197,134.379
2023-03-15 21:05:02:709,0.406764,7.93809,-5.69208,-54.2776,2.31988,134.378
2023-03-15 21:05:02:720,0.408391,7.93698,-5.68008,-54.2785,2.31801,134.377
2023-03-15 21:05:02:730,0.423193,7.939,-5.68861,-54.2788,2.32011,134.377
2023-03-15 21:05:02:740,0.420346,7.93534,-5.68547,-54.2791,2.31923,134.376
2023-03-15 21:05:02:750,0.41807,7.93156,-5.68089,-54.2802,2.32252,134.375
2023-03-15 21:05:02:760,0.413267,7.94264,-5.66837,-54.2803,2.3238,134.376
2023-03-15 21:05:02:770,0.409819,7.93692,-5.68267,-54.2796,2.32339,134.374
2023-03-15 21:05:02:780,0.415095,7.93406,-5.68929,-54.278,2.32449,134.375
2023-03-15 21:05:02:790,0.404421,7.95005,-5.68406,-54.2815,2.32152,134.374
2023-03-15 21:05:02:800,0.415384,7.93418,-5.68311,-54.2799,2.32015,134.376
2023-03-15 21:05:02:810,0.414458,7.94424,-5.66912,-54.2812,2.32207,134.376
2023-03-15 21:05:02:820,0.407962,7.93635,-5.68378,-54.2807,2.32592,134.375
2023-03-15 21:05:02:830,0.410687,7.94255,-5.68035,-54.2816,2.32681,134.376
2023-03-15 21:05:02:840,0.418172,7.93682,-5.68437,-54.2846,2.32522,134.376
2023-03-15 21:05:02:850,0.410434,7.93456,-5.67722,-54.286,2.32365,134.374
2023-03-15 21:05:02:860,0.40681,7.93753,-5.68629,-54.2879,2.32098,134.376
2023-03-15 21:05:02:870,0.410946,7.9353,-5.68389,-54.2858,2.32386,134.377
2023-03-15 21:05:02:880,0.409098,7.93498,-5.68362,-54.2833,2.32369,134.376
2023-03-15 21:05:02:890,0.412535,7.93673,-5.68521,-54.284,2.32558,134.376
2023-03-15 21:05:02:900,0.412233,7.94337,-5.67704,-54.2855,2.32601,134.377
2023-03-15 21:05:02:910,0.420192,7.93272,-5.68681,-54.2866,2.32833,134.376
2023-03-15 21:05:02:920,0.425991,7.92337,-5.69316,-54.2859,2.32925,134.377
2023-03-15 21:05:02:930,0.421507,7.93468,-5.6922,-54.2852,2.33049,134.379
2023-03-15 21:05:02:940,0.409952,7.93269,-5.68995,-54.2851,2.33062,134.377
2023-03-15 21:05:02:950,0.404317,7.94148,-5.68303,-54.2853,2.32885,134.374
2023-03-15 21:05:02:960,0.403554,7.94297,-5.6875,-54.2856,2.32919,134.374
2023-03-15 21:05:02:970,0.410986,7.93809,-5.67612,-54.2842,2.32843,134.374
2023-03-15 21:05:02:980,0.412023,7.92993,-5.68436,-54.2829,2.3279,134.375
2023-03-15 21:05:02:990,0.420989,7.92101,-5.69731,-54.2805,2.32609,134.376
2023-03-15 21:05:03:0,0.415054,7.93386,-5.69504,-54.2823,2.32838,134.378
2023-03-15 21:05:03:10,0.41005,7.93585,-5.69573,-54.2811,2.32581,134.378
2023-03-15 21:05:03:20,0.417935,7.93707,-5.68365,-54.2815,2.32621,134.379
2023-03-15 21:05:03:30,0.410133,7.93893,-5.68179,-54.2814,2.32559,134.377
2023-03-15 21:05:03:40,0.41695,7.94464,-5.67978,-54.2758,2.32626,134.379
2023-03-15 21:05:03:50,0.414878,7.9453,-5.67652,-54.2744,2.32854,134.38
2023-03-15 21:05:03:60,0.427587,7.92562,-5.69335,-54.2749,2.32788,134.381
2023-03-15 21:05:03:70,0.414913,7.94138,-5.68599,-54.2766,2.32799,134.383
2023-03-15 21:05:03:80,0.419479,7.94298,-5.68726,-54.2749,2.32677,134.387
2023-03-15 21:05:03:90,0.420877,7.947,-5.67958,-54.2768,2.32805,134.388
2023-03-15 21:05:03:100,0.414343,7.92988,-5.67515,-54.2764,2.32429,134.386
2023-03-15 21:05:03:110,0.412327,7.92979,-5.68673,-54.273,2.32229,134.384
2023-03-15 21:05:03:120,0.410389,7.94641,-5.6734,-54.2711,2.32323,134.385
2023-03-15 21:05:03:130,0.414038,7.92958,-5.68367,-54.268,2.32547,134.384
2023-03-15 21:05:03:140,0.422207,7.93882,-5.68056,-54.2678,2.32534,134.386
2023-03-15 21:05:03:150,0.418303,7.94022,-5.68547,-54.2654,2.3226,134.387
2023-03-15 21:05:03:160,0.410154,7.9473,-5.67187,-54.2639,2.32344,134.385
2023-03-15 21:05:03:170,0.419405,7.93303,-5.68269,-54.2611,2.32241,134.387
2023-03-15 21:05:03:180,0.425259,7.92655,-5.70163,-54.2622,2.32128,134.385
2023-03-15 21:05:03:190,0.417857,7.9331,-5.68487,-54.2601,2.32278,134.383
2023-03-15 21:05:03:200,0.410576,7.93378,-5.69015,-54.2604,2.32174,134.383
2023-03-15 21:05:03:210,0.41258,7.93546,-5.68977,-54.2613,2.32017,134.384
2023-03-15 21:05:03:220,0.423234,7.93356,-5.69742,-54.2615,2.31963,134.383
2023-03-15 21:05:03:229,0.423648,7.94496,-5.68588,-54.2628,2.31869,134.38
2023-03-15 21:05:03:239,0.414894,7.9469,-5.68263,-54.2654,2.31918,134.381
2023-03-15 21:05:03:250,0.41292,7.9245,-5.69654,-54.2651,2.31831,134.38
2023-03-15 21:05:03:260,0.420023,7.93672,-5.68271,-54.2626,2.32085,134.383
2023-03-15 21:05:03:269,0.430347,7.94103,-5.68633,-54.2614,2.32063,134.385
2023-03-15 21:05:03:279,0.421928,7.93726,-5.6859,-54.2608,2.32067,134.386
2023-03-15 21:05:03:290,0.418166,7.93493,-5.68553,-54.2631,2.31992,134.384
2023-03-15 21:05:03:299,0.418903,7.93277,-5.6852,-54.2623,2.31923,134.384
2023-03-15 21:05:03:310,0.422201,7.9481,-5.6832,-54.2639,2.31659,134.387
2023-03-15 21:05:03:320,0.423228,7.94477,-5.68871,-54.2645,2.31864,134.387
2023-03-15 21:05:03:330,0.416225,7.94364,-5.67938,-54.2596,2.32008,134.387
2023-03-15 21:05:03:340,0.409543,7.93095,-5.69142,-54.2623,2.31758,134.388
2023-03-15 21:05:03:350,0.421889,7.92915,-5.68724,-54.2626,2.31753,134.385
2023-03-15 21:05:03:360,0.414293,7.92571,-5.69525,-54.2604,2.31648,134.381
2023-03-15 21:05:03:370,0.40928,7.92497,-5.69894,-54.2592,2.31196,134.38
2023-03-15 21:05:03:380,0.414139,7.9309,-5.68936,-54.2616,2.31236,134.377
2023-03-15 21:05:03:390,0.411797,7.93774,-5.68483,-54.2588,2.31292,134.38
2023-03-15 21:05:03:400,0.424906,7.9459,-5.67794,-54.2582,2.31305,134.382
2023-03-15 21:05:03:410,0.414057,7.93469,-5.68638,-54.2604,2.31062,134.381
2023-03-15 21:05:03:420,0.417123,7.93671,-5.68358,-54.2626,2.31066,134.382
2023-03-15 21:05:03:430,0.418626,7.94166,-5.68265,-54.2666,2.31053,134.38
2023-03-15 21:05:03:440,0.411101,7.94023,-5.69013,-54.2663,2.31314,134.38
2023-03-15 21:05:03:450,0.417136,7.93515,-5.69407,-54.2693,2.31296,134.382
2023-03-15 21:05:03:460,0.427068,7.93399,-5.68954,-54.2671,2.31324,134.385
2023-03-15 21:05:03:470,0.415871,7.94921,-5.69007,-54.2693,2.31406,134.384
2023-03-15 21:05:03:480,0.399931,7.93975,-5.68945,-54.2684,2.31475,134.385
2023-03-15 21:05:03:490,0.408127,7.9404,-5.6785,-54.2712,2.31364,134.385
2023-03-15 21:05:03:500,0.415438,7.92781,-5.69028,-54.2771,2.31188,134.382
2023-03-15 21:05:03:509,0.413645,7.92761,-5.69521,-54.2774,2.31527,134.384
2023-03-15 21:05:03:520,0.412886,7.93999,-5.68983,-54.2797,2.31466,134.385
2023-03-15 21:05:03:530,0.413552,7.92646,-5.69797,-54.2831,2.31518,134.386
2023-03-15 21:05:03:540,0.41227,7.93655,-5.68875,-54.282,2.31663,134.388
2023-03-15 21:05:03:550,0.406583,7.94101,-5.68149,-54.2828,2.31434,134.39
2023-03-15 21:05:03:560,0.407514,7.9409,-5.68645,-54.2835,2.31443,134.39
2023-03-15 21:05:03:570,0.422328,7.95262,-5.67425,-54.2846,2.31335,134.391
2023-03-15 21:05:03:580,0.418304,7.93729,-5.68776,-54.2847,2.31198,134.39
2023-03-15 21:05:03:590,0.41804,7.93548,-5.69254,-54.2868,2.31242,134.389
2023-03-15 21:05:03:600,0.42581,7.93909,-5.69345,-54.2896,2.31746,134.388
2023-03-15 21:05:03:610,0.42071,7.93107,-5.68305,-54.2882,2.32012,134.393
2023-03-15 21:05:03:620,0.437758,7.9305,-5.68388,-54.2888,2.32043,134.394
2023-03-15 21:05:03:630,0.430607,7.93947,-5.6862,-54.287,2.31992,134.395
2023-03-15 21:05:03:640,0.425438,7.93493,-5.68214,-54.2863,2.32026,134.394
2023-03-15 21:05:03:650,0.42383,7.93097,-5.68576,-54.2856,2.31985,134.393
2023-03-15 21:05:03:660,0.422956,7.94244,-5.67428,-54.2854,2.32009,134.393
2023-03-15 21:05:03:670,0.410866,7.94055,-5.67942,-54.2873,2.31999,134.392
2023-03-15 21:05:03:680,0.429257,7.94376,-5.6802,-54.2902,2.31864,134.391
2023-03-15 21:05:03:690,0.427851,7.94146,-5.68756,-54.2893,2.31866,134.394
2023-03-15 21:05:03:700,0.41897,7.9361,-5.68606,-54.2895,2.32089,134.396
2023-03-15 21:05:03:710,0.418408,7.94022,-5.68202,-54.2886,2.31995,134.395
2023-03-15 21:05:03:720,0.402694,7.93033,-5.68367,-54.2914,2.31963,134.398
2023-03-15 21:05:03:730,0.421268,7.94333,-5.68401,-54.2843,2.32104,134.4
2023-03-15 21:05:03:739,0.42341,7.94661,-5.67439,-54.2838,2.32181,134.401
2023-03-15 21:05:03:750,0.417246,7.93558,-5.69091,-54.2784,2.32103,134.4
2023-03-15 21:05:03:760,0.425717,7.95093,-5.68515,-54.278,2.32169,134.399
2023-03-15 21:05:03:770,0.418022,7.93656,-5.68313,-54.2782,2.32523,134.4
2023-03-15 21:05:03:780,0.409943,7.93845,-5.6754,-54.2805,2.32791,134.401
2023-03-15 21:05:03:789,0.412793,7.9301,-5.68837,-54.2759,2.32715,134.401
2023-03-15 21:05:03:800,0.406843,7.93155,-5.68694,-54.2738,2.32606,134.403
2023-03-15 21:05:03:810,0.420465,7.94094,-5.68623,-54.2736,2.32664,134.402
2023-03-15 21:05:03:820,0.416053,7.9295,-5.69425,-54.2746,2.32513,134.401
2023-03-15 21:05:03:830,0.403614,7.94267,-5.67949,-54.2744,2.32721,134.399
2023-03-15 21:05:03:840,0.421688,7.94097,-5.6731,-54.2723,2.32892,134.394
2023-03-15 21:05:03:850,0.418091,7.94435,-5.6807,-54.2713,2.33087,134.394
2023-03-15 21:05:03:860,0.409532,7.94077,-5.67735,-54.2727,2.32859,134.395
2023-03-15 21:05:03:870,0.411478,7.93554,-5.67921,-54.2732,2.32796,134.394
2023-03-15 21:05:03:880,0.418363,7.93704,-5.69341,-54.2737,2.32719,134.391
2023-03-15 21:05:03:890,0.425654,7.9363,-5.67595,-54.2734,2.32656,134.395
2023-03-15 21:05:03:900,0.418261,7.94872,-5.68641,-54.274,2.32184,134.397
2023-03-15 21:05:03:910,0.421426,7.9431,-5.68763,-54.2733,2.31923,134.402
2023-03-15 21:05:03:920,0.419994,7.94207,-5.67487,-54.2737,2.32284,134.403
2023-03-15 21:05:03:930,0.420403,7.93716,-5.67858,-54.2736,2.32572,134.402
2023-03-15 21:05:03:940,0.415988,7.94208,-5.68391,-54.274,2.32511,134.402
2023-03-15 21:05:03:950,0.422619,7.94986,-5.6837,-54.2762,2.32517,134.4
2023-03-15 21:05:03:960,0.425576,7.93048,-5.68063,-54.2759,2.32672,134.4
2023-03-15 21:05:03:970,0.42191,7.94132,-5.67781,-54.274,2.32502,134.399
2023-03-15 21:05:03:980,0.420202,7.94768,-5.68618,-54.274,2.3248,134.399
2023-03-15 21:05:03:990,0.405528,7.93933,-5.67584,-54.2746,2.32494,134.398
2023-03-15 21:05:04:0,0.421665,7.93285,-5.68555,-54.2736,2.32419,134.402
2023-03-15 21:05:04:10,0.430512,7.93527,-5.68339,-54.2741,2.32479,134.401
2023-03-15 21:05:04:20,0.415321,7.93197,-5.68524,-54.2724,2.3244,134.4
2023-03-15 21:05:04:30,0.406753,7.92756,-5.69486,-54.2707,2.32273,134.401
2023-03-15 21:05:04:40,0.403277,7.94095,-5.67477,-54.2696,2.31895,134.4
2023-03-15 21:05:04:50,0.401556,7.9372,-5.68196,-54.269,2.31705,134.398
2023-03-15 21:05:04:60,0.420673,7.9396,-5.68346,-54.2678,2.31922,134.394
2023-03-15 21:05:04:70,0.424612,7.94663,-5.67746,-54.2659,2.32354,134.394
2023-03-15 21:05:04:80,0.408767,7.93209,-5.67917,-54.2658,2.32152,134.394
2023-03-15 21:05:04:90,0.411058,7.94045,-5.66681,-54.2652,2.31903,134.393
2023-03-15 21:05:04:100,0.423675,7.9389,-5.69169,-54.2632,2.32131,134.391
2023-03-15 21:05:04:110,0.421084,7.91843,-5.68904,-54.2614,2.32006,134.392
2023-03-15 21:05:04:120,0.413862,7.92837,-5.67836,-54.2601,2.31833,134.391
2023-03-15 21:05:04:130,0.410193,7.93864,-5.68739,-54.2577,2.31966,134.393
2023-03-15 21:05:04:140,0.424291,7.94997,-5.67469,-54.2575,2.32008,134.395
2023-03-15 21:05:04:150,0.426679,7.93123,-5.68314,-54.2579,2.31789,134.396
2023-03-15 21:05:04:160,0.411039,7.94482,-5.67664,-54.2581,2.31803,134.394
2023-03-15 21:05:04:170,0.418755,7.95063,-5.67211,-54.258,2.31616,134.393
2023-03-15 21:05:04:180,0.419517,7.9363,-5.67928,-54.2584,2.31446,134.393
2023-03-15 21:05:04:190,0.413766,7.94061,-5.6811,-54.2587,2.31417,134.395
2023-03-15 21:05:04:200,0.411111,7.93988,-5.68188,-54.2573,2.31497,134.393
2023-03-15 21:05:04:210,0.405092,7.92586,-5.68119,-54.2566,2.31409,134.393
2023-03-15 21:05:04:220,0.410002,7.92603,-5.68042,-54.255,2.31622,134.39
2023-03-15 21:05:04:230,0.415538,7.93901,-5.67154,-54.2577,2.31448,134.391
2023-03-15 21:05:04:240,0.405207,7.93049,-5.68332,-54.2558,2.31137,134.392
2023-03-15 21:05:04:250,0.409748,7.92553,-5.68269,-54.2562,2.30848,134.389
2023-03-15 21:05:04:259,0.421928,7.94074,-5.67575,-54.2575,2.30822,134.39
2023-03-15 21:05:04:269,0.418617,7.93475,-5.68259,-54.2599,2.30807,134.39
2023-03-15 21:05:04:280,0.41796,7.93926,-5.68089,-54.262,2.30948,134.391
2023-03-15 21:05:04:289,0.41219,7.93499,-5.69259,-54.2609,2.30972,134.392
2023-03-15 21:05:04:299,0.411595,7.94037,-5.68165,-54.2615,2.31092,134.393
2023-03-15 21:05:04:309,0.419053,7.93897,-5.6857,-54.2611,2.3098,134.393
2023-03-15 21:05:04:319,0.416392,7.9351,-5.69011,-54.2583,2.30846,134.393
2023-03-15 21:05:04:330,0.417375,7.94828,-5.6759,-54.2604,2.30537,134.395
2023-03-15 21:05:04:340,0.41971,7.9415,-5.68142,-54.2612,2.30556,134.396
2023-03-15 21:05:04:350,0.415187,7.93832,-5.68712,-54.2607,2.30822,134.393
2023-03-15 21:05:04:360,0.415831,7.95253,-5.67461,-54.2613,2.30819,134.391
2023-03-15 21:05:04:370,0.423055,7.94251,-5.67423,-54.2582,2.30745,134.391
2023-03-15 21:05:04:380,0.417327,7.94121,-5.67749,-54.2573,2.30876,134.392
2023-03-15 21:05:04:390,0.420808,7.93921,-5.67622,-54.2552,2.31095,134.394
2023-03-15 21:05:04:400,0.414389,7.93301,-5.67969,-54.2548,2.31229,134.393
2023-03-15 21:05:04:410,0.405719,7.926,-5.68354,-54.2528,2.31363,134.394
2023-03-15 21:05:04:420,0.408527,7.93552,-5.67615,-54.2531,2.31698,134.391
2023-03-15 21:05:04:430,0.423302,7.94067,-5.67487,-54.2552,2.31497,134.389
2023-03-15 21:05:04:440,0.427771,7.93901,-5.68117,-54.2512,2.31647,134.391
2023-03-15 21:05:04:449,0.419514,7.92492,-5.70031,-54.2525,2.31663,134.387
2023-03-15 21:05:04:460,0.416171,7.93214,-5.68926,-54.2542,2.3169,134.386
2023-03-15 21:05:04:469,0.420107,7.95206,-5.67357,-54.2583,2.31424,134.385
2023-03-15 21:05:04:480,0.40851,7.94664,-5.68,-54.2589,2.31224,134.382
2023-03-15 21:05:04:490,0.414147,7.93825,-5.68634,-54.2591,2.31228,134.382
2023-03-15 21:05:04:500,0.416714,7.92978,-5.68349,-54.2599,2.31166,134.383
2023-03-15 21:05:04:510,0.423065,7.93084,-5.68275,-54.2592,2.31263,134.383
2023-03-15 21:05:04:520,0.413859,7.94483,-5.67566,-54.2617,2.31196,134.387
2023-03-15 21:05:04:530,0.418222,7.94389,-5.68439,-54.2629,2.31373,134.388
2023-03-15 21:05:04:540,0.415592,7.94527,-5.69094,-54.2656,2.31599,134.386
2023-03-15 21:05:04:550,0.418088,7.94254,-5.68186,-54.2653,2.31716,134.384
2023-03-15 21:05:04:560,0.42451,7.93326,-5.68034,-54.2613,2.31549,134.389
2023-03-15 21:05:04:570,0.425888,7.93634,-5.67616,-54.2597,2.3152,134.386
2023-03-15 21:05:04:580,0.423914,7.93427,-5.68424,-54.2636,2.31641,134.385
2023-03-15 21:05:04:590,0.417854,7.93528,-5.68726,-54.2649,2.31193,134.387
2023-03-15 21:05:04:600,0.415948,7.93475,-5.68407,-54.2664,2.30969,134.387
2023-03-15 21:05:04:610,0.41789,7.9367,-5.67022,-54.2664,2.30866,134.386
2023-03-15 21:05:04:620,0.417125,7.93286,-5.67881,-54.2666,2.3076,134.382
2023-03-15 21:05:04:629,0.421096,7.93338,-5.68501,-54.268,2.30623,134.381
2023-03-15 21:05:04:640,0.410996,7.93615,-5.67835,-54.269,2.30488,134.382
2023-03-15 21:05:04:650,0.411453,7.92773,-5.6887,-54.2651,2.30259,134.383
2023-03-15 21:05:04:660,0.417499,7.93687,-5.68995,-54.2638,2.30251,134.385
2023-03-15 21:05:04:670,0.415585,7.92897,-5.68396,-54.2625,2.3025,134.384
2023-03-15 21:05:04:680,0.419638,7.92804,-5.69106,-54.2619,2.30138,134.384
2023-03-15 21:05:04:690,0.413534,7.93055,-5.69879,-54.2647,2.29949,134.381
2023-03-15 21:05:04:699,0.414277,7.92927,-5.68662,-54.2647,2.30052,134.382
2023-03-15 21:05:04:710,0.411591,7.94014,-5.68113,-54.268,2.29845,134.383
2023-03-15 21:05:04:720,0.414878,7.93044,-5.69102,-54.2666,2.29647,134.385
2023-03-15 21:05:04:730,0.41744,7.93648,-5.68742,-54.2678,2.29793,134.385
2023-03-15 21:05:04:740,0.415738,7.93292,-5.6925,-54.2663,2.29664,134.387
2023-03-15 21:05:04:749,0.424557,7.93241,-5.68561,-54.2671,2.29599,134.388
2023-03-15 21:05:04:759,0.422838,7.93432,-5.68836,-54.2676,2.29392,134.387
2023-03-15 21:05:04:769,0.423144,7.93527,-5.68951,-54.2682,2.29192,134.39
2023-03-15 21:05:04:780,0.418893,7.93318,-5.68994,-54.2683,2.29038,134.39
2023-03-15 21:05:04:789,0.420672,7.94219,-5.68075,-54.2669,2.29042,134.392
2023-03-15 21:05:04:800,0.429154,7.94716,-5.67147,-54.2717,2.29088,134.389
2023-03-15 21:05:04:809,0.408314,7.94528,-5.68545,-54.269,2.28813,134.389
2023-03-15 21:05:04:820,0.411854,7.93907,-5.69056,-54.2699,2.28867,134.39
2023-03-15 21:05:04:830,0.416897,7.93937,-5.68251,-54.2682,2.28891,134.39
2023-03-15 21:05:04:840,0.413893,7.94064,-5.67404,-54.2667,2.2901,134.388
2023-03-15 21:05:04:850,0.417573,7.94417,-5.6737,-54.2695,2.29115,134.388
2023-03-15 21:05:04:860,0.42868,7.92836,-5.68647,-54.2672,2.28911,134.389
2023-03-15 21:05:04:869,0.428014,7.93998,-5.67743,-54.2683,2.28707,134.387
2023-03-15 21:05:04:880,0.419704,7.9418,-5.67938,-54.2663,2.28623,134.389
2023-03-15 21:05:04:890,0.419612,7.94574,-5.6777,-54.2668,2.28644,134.39
2023-03-15 21:05:04:900,0.418951,7.93887,-5.67465,-54.2663,2.28593,134.39
2023-03-15 21:05:04:910,0.413869,7.93603,-5.67929,-54.2636,2.28703,134.39
2023-03-15 21:05:04:920,0.415285,7.94108,-5.67925,-54.2632,2.28719,134.39
2023-03-15 21:05:04:930,0.414068,7.93631,-5.68465,-54.2637,2.29006,134.389
2023-03-15 21:05:04:940,0.42188,7.93535,-5.69528,-54.2663,2.29116,134.389
2023-03-15 21:05:04:950,0.435258,7.9307,-5.69556,-54.2657,2.29298,134.389
2023-03-15 21:05:04:960,0.420155,7.92958,-5.6945,-54.2635,2.29445,134.387
2023-03-15 21:05:04:969,0.407988,7.94658,-5.68245,-54.2633,2.29075,134.389
2023-03-15 21:05:04:980,0.416472,7.93017,-5.68026,-54.2638,2.28926,134.387
2023-03-15 21:05:04:990,0.407675,7.93877,-5.67722,-54.2631,2.28852,134.387
2023-03-15 21:05:05:0,0.406174,7.93846,-5.69578,-54.2641,2.28879,134.388
2023-03-15 21:05:05:10,0.416818,7.93543,-5.68387,-54.2623,2.29184,134.385
2023-03-15 21:05:05:20,0.424607,7.94132,-5.68024,-54.2609,2.29001,134.383
2023-03-15 21:05:05:30,0.425138,7.92934,-5.69504,-54.2646,2.28991,134.384
2023-03-15 21:05:05:40,0.425351,7.9436,-5.6758,-54.2643,2.28928,134.384
2023-03-15 21:05:05:50,0.424204,7.93849,-5.6829,-54.267,2.29024,134.381
2023-03-15 21:05:05:60,0.428804,7.93674,-5.68237,-54.2687,2.28726,134.381
2023-03-15 21:05:05:70,0.40559,7.93651,-5.68911,-54.2662,2.28692,134.38
2023-03-15 21:05:05:80,0.40748,7.94163,-5.67958,-54.2678,2.2864,134.381
2023-03-15 21:05:05:89,0.416682,7.93054,-5.68465,-54.2695,2.28498,134.378
2023-03-15 21:05:05:99,0.419983,7.93119,-5.68315,-54.2665,2.28178,134.376
2023-03-15 21:05:05:109,0.418692,7.93489,-5.6916,-54.2655,2.27824,134.375
2023-03-15 21:05:05:120,0.416207,7.93005,-5.7055,-54.267,2.2792,134.375
2023-03-15 21:05:05:130,0.415065,7.94227,-5.68639,-54.2673,2.27915,134.375
2023-03-15 21:05:05:140,0.420584,7.93329,-5.68741,-54.2695,2.27912,134.375
2023-03-15 21:05:05:150,0.414782,7.93828,-5.6847,-54.2668,2.28141,134.376
2023-03-15 21:05:05:159,0.409799,7.94667,-5.67706,-54.2694,2.28012,134.377
2023-03-15 21:05:05:170,0.40754,7.93367,-5.68899,-54.2676,2.27837,134.38
2023-03-15 21:05:05:180,0.409572,7.94531,-5.67641,-54.2672,2.27533,134.382
2023-03-15 21:05:05:190,0.41018,7.93891,-5.67549,-54.2662,2.27262,134.381
2023-03-15 21:05:05:200,0.412777,7.93957,-5.6825,-54.2663,2.27047,134.382
2023-03-15 21:05:05:210,0.423707,7.92956,-5.69214,-54.2653,2.26943,134.382
2023-03-15 21:05:05:220,0.424483,7.92687,-5.6875,-54.2641,2.27071,134.38
2023-03-15 21:05:05:230,0.417674,7.93279,-5.67862,-54.265,2.27043,134.38
2023-03-15 21:05:05:240,0.418044,7.92944,-5.68623,-54.2669,2.2701,134.381
2023-03-15 21:05:05:250,0.413912,7.93587,-5.68452,-54.2706,2.27128,134.385
2023-03-15 21:05:05:260,0.415571,7.92713,-5.68547,-54.2687,2.26876,134.384
2023-03-15 21:05:05:270,0.421173,7.93122,-5.67451,-54.2699,2.27078,134.383
2023-03-15 21:05:05:279,0.421184,7.93865,-5.66667,-54.274,2.27151,134.381
2023-03-15 21:05:05:289,0.414948,7.93602,-5.67479,-54.2731,2.26994,134.382
2023-03-15 21:05:05:299,0.41646,7.94448,-5.68054,-54.2743,2.27155,134.383
2023-03-15 21:05:05:309,0.409089,7.93506,-5.69574,-54.2747,2.26795,134.386
2023-03-15 21:05:05:319,0.415845,7.92861,-5.69059,-54.2802,2.26837,134.387
2023-03-15 21:05:05:329,0.411907,7.9357,-5.69521,-54.2765,2.26823,134.386
2023-03-15 21:05:05:339,0.419334,7.94486,-5.68356,-54.2752,2.26782,134.388
2023-03-15 21:05:05:350,0.419522,7.9369,-5.67566,-54.2789,2.26945,134.391
2023-03-15 21:05:05:360,0.41115,7.93615,-5.6991,-54.2738,2.26828,134.391
2023-03-15 21:05:05:370,0.420642,7.93899,-5.69654,-54.2736,2.27011,134.392
2023-03-15 21:05:05:380,0.402438,7.93412,-5.68269,-54.2717,2.27245,134.39
2023-03-15 21:05:05:390,0.407155,7.93368,-5.68696,-54.2698,2.27367,134.39
2023-03-15 21:05:05:400,0.418587,7.92951,-5.6886,-54.2711,2.27323,134.391
2023-03-15 21:05:05:410,0.410551,7.92725,-5.69004,-54.269,2.27459,134.394
2023-03-15 21:05:05:420,0.418637,7.93286,-5.68991,-54.2689,2.27719,134.391
2023-03-15 21:05:05:429,0.42656,7.92565,-5.70156,-54.2676,2.28077,134.39
2023-03-15 21:05:05:439,0.42294,7.93759,-5.69153,-54.2655,2.27879,134.39
2023-03-15 21:05:05:450,0.412313,7.93459,-5.68449,-54.2641,2.28177,134.389
2023-03-15 21:05:05:459,0.412598,7.94407,-5.69217,-54.2662,2.28365,134.388
2023-03-15 21:05:05:470,0.419115,7.94528,-5.69119,-54.267,2.28175,134.389
2023-03-15 21:05:05:480,0.426019,7.93705,-5.68855,-54.2681,2.28497,134.389
2023-03-15 21:05:05:490,0.41504,7.93555,-5.68453,-54.2678,2.28598,134.391
2023-03-15 21:05:05:500,0.42007,7.92745,-5.68536,-54.2667,2.28819,134.392
2023-03-15 21:05:05:510,0.420691,7.93864,-5.67925,-54.2665,2.28946,134.392
2023-03-15 21:05:05:520,0.416164,7.93813,-5.68269,-54.2667,2.29121,134.39
2023-03-15 21:05:05:529,0.410352,7.93843,-5.68523,-54.2691,2.28971,134.39
2023-03-15 21:05:05:540,0.407856,7.93536,-5.67731,-54.271,2.2869,134.39
2023-03-15 21:05:05:550,0.406122,7.93578,-5.67494,-54.2706,2.28587,134.391
2023-03-15 21:05:05:560,0.403369,7.9431,-5.68226,-54.2708,2.2828,134.391
2023-03-15 21:05:05:570,0.409096,7.92488,-5.69504,-54.2703,2.28171,134.393
2023-03-15 21:05:05:579,0.413414,7.941,-5.68502,-54.2711,2.27892,134.394
2023-03-15 21:05:05:589,0.409024,7.93094,-5.68874,-54.2693,2.27728,134.394
2023-03-15 21:05:05:600,0.420879,7.93493,-5.6811,-54.2694,2.27917,134.391
2023-03-15 21:05:05:610,0.426536,7.93375,-5.68959,-54.2715,2.27928,134.392
2023-03-15 21:05:05:620,0.422783,7.92232,-5.69575,-54.2703,2.2783,134.394
2023-03-15 21:05:05:630,0.417357,7.93245,-5.68097,-54.2694,2.27891,134.396
2023-03-15 21:05:05:639,0.404001,7.93752,-5.67737,-54.2688,2.27881,134.394
2023-03-15 21:05:05:650,0.405259,7.94806,-5.67232,-54.2668,2.27661,134.397
2023-03-15 21:05:05:660,0.404206,7.94725,-5.6848,-54.2644,2.27557,134.396
2023-03-15 21:05:05:669,0.417361,7.944,-5.68143,-54.2622,2.27794,134.395
2023-03-15 21:05:05:679,0.414101,7.93451,-5.68484,-54.2668,2.27808,134.394
2023-03-15 21:05:05:690,0.420923,7.92707,-5.7037,-54.2641,2.27754,134.394
2023-03-15 21:05:05:699,0.421843,7.94405,-5.68464,-54.2646,2.27626,134.393
2023-03-15 21:05:05:709,0.410873,7.93537,-5.69642,-54.2662,2.27524,134.392
2023-03-15 21:05:05:720,0.40652,7.949,-5.68589,-54.2654,2.27436,134.395
2023-03-15 21:05:05:730,0.401384,7.94579,-5.68719,-54.2661,2.27186,134.395
2023-03-15 21:05:05:740,0.407391,7.93882,-5.69656,-54.2669,2.27099,134.394
2023-03-15 21:05:05:749,0.409416,7.94497,-5.68955,-54.2674,2.271,134.392
2023-03-15 21:05:05:759,0.419791,7.93473,-5.68701,-54.2659,2.27002,134.392
2023-03-15 21:05:05:770,0.422235,7.93145,-5.68548,-54.2695,2.27146,134.393
2023-03-15 21:05:05:780,0.417529,7.93553,-5.68763,-54.2701,2.27015,134.392
2023-03-15 21:05:05:789,0.408309,7.93829,-5.69267,-54.272,2.27063,134.393
2023-03-15 21:05:05:799,0.408185,7.92413,-5.68887,-54.2703,2.26742,134.392
2023-03-15 21:05:05:809,0.411421,7.93254,-5.67871,-54.2681,2.26871,134.394
2023-03-15 21:05:05:819,0.409977,7.94384,-5.66864,-54.2683,2.26801,134.391
2023-03-15 21:05:05:830,0.415008,7.92735,-5.68752,-54.2655,2.27092,134.392
2023-03-15 21:05:05:839,0.416799,7.93326,-5.67986,-54.2666,2.27207,134.395
2023-03-15 21:05:05:850,0.416987,7.93166,-5.68837,-54.2648,2.26865,134.391
2023-03-15 21:05:05:859,0.416234,7.94068,-5.68435,-54.2636,2.27044,134.393
2023-03-15 21:05:05:870,0.423115,7.93629,-5.68221,-54.2636,2.26803,134.391
2023-03-15 21:05:05:879,0.411797,7.9271,-5.68724,-54.2637,2.26893,134.393
2023-03-15 21:05:05:890,0.403341,7.94831,-5.68166,-54.2628,2.26787,134.398
2023-03-15 21:05:05:899,0.410793,7.9365,-5.68443,-54.2627,2.26726,134.402
2023-03-15 21:05:05:909,0.417172,7.94113,-5.68777,-54.2646,2.26546,134.405
2023-03-15 21:05:05:919,0.414177,7.94038,-5.69138,-54.2648,2.26683,134.405
2023-03-15 21:05:05:930,0.410376,7.94359,-5.68065,-54.2641,2.26702,134.402
2023-03-15 21:05:05:939,0.419887,7.94563,-5.68652,-54.2678,2.26437,134.403
2023-03-15 21:05:05:950,0.415889,7.94066,-5.6768,-54.2666,2.26311,134.406
2023-03-15 21:05:05:959,0.416945,7.93865,-5.67721,-54.268,2.26334,134.406
2023-03-15 21:05:05:970,0.41897,7.9414,-5.68406,-54.2666,2.26311,134.407
2023-03-15 21:05:05:980,0.405975,7.94183,-5.68977,-54.2686,2.26043,134.406
2023-03-15 21:05:05:990,0.406299,7.93304,-5.69687,-54.271,2.26072,134.408
2023-03-15 21:05:05:999,0.411183,7.93173,-5.68993,-54.2683,2.26194,134.407
2023-03-15 21:05:06:10,0.407124,7.93524,-5.69234,-54.268,2.26062,134.406
2023-03-15 21:05:06:20,0.418732,7.93819,-5.67495,-54.2669,2.25751,134.406
2023-03-15 21:05:06:29,0.409847,7.93919,-5.67949,-54.266,2.2576,134.408
2023-03-15 21:05:06:39,0.398897,7.93627,-5.68366,-54.2644,2.25579,134.408
2023-03-15 21:05:06:50,0.414011,7.94152,-5.66867,-54.265,2.25577,134.408
2023-03-15 21:05:06:59,0.410756,7.93921,-5.67625,-54.2668,2.25573,134.409
2023-03-15 21:05:06:69,0.419456,7.92737,-5.68432,-54.266,2.25463,134.413
2023-03-15 21:05:06:79,0.422857,7.92982,-5.67925,-54.2665,2.25574,134.416
2023-03-15 21:05:06:90,0.425179,7.91996,-5.68912,-54.264,2.25483,134.416
2023-03-15 21:05:06:100,0.417193,7.93664,-5.68872,-54.2638,2.25176,134.414
2023-03-15 21:05:06:110,0.421149,7.92835,-5.69367,-54.2638,2.25051,134.416
2023-03-15 21:05:06:120,0.417243,7.93935,-5.67965,-54.2632,2.25326,134.416
2023-03-15 21:05:06:130,0.41864,7.94108,-5.67407,-54.2661,2.25275,134.414
2023-03-15 21:05:06:140,0.40923,7.93162,-5.70452,-54.2677,2.2536,134.413
2023-03-15 21:05:06:149,0.395568,7.92933,-5.69365,-54.2666,2.25179,134.408
2023-03-15 21:05:06:159,0.421788,7.93023,-5.69285,-54.2646,2.25446,134.409
2023-03-15 21:05:06:170,0.421816,7.94592,-5.67572,-54.2635,2.2538,134.412
2023-03-15 21:05:06:179,0.423709,7.93667,-5.689,-54.2627,2.25298,134.414
2023-03-15 21:05:06:190,0.408042,7.9404,-5.68359,-54.2647,2.25406,134.412
2023-03-15 21:05:06:199,0.406255,7.94861,-5.6677,-54.2664,2.25042,134.414
2023-03-15 21:05:06:210,0.410586,7.94247,-5.67485,-54.2627,2.25008,134.413
2023-03-15 21:05:06:219,0.413127,7.94251,-5.6791,-54.2621,2.24915,134.413
2023-03-15 21:05:06:230,0.420882,7.93144,-5.69146,-54.2622,2.25041,134.413
2023-03-15 21:05:06:239,0.428756,7.92628,-5.68633,-54.2599,2.25095,134.41
2023-03-15 21:05:06:249,0.424209,7.93745,-5.68252,-54.2629,2.25442,134.41
2023-03-15 21:05:06:260,0.420078,7.94112,-5.68306,-54.2607,2.25749,134.412
2023-03-15 21:05:06:270,0.425083,7.95067,-5.67293,-54.2634,2.2579,134.414
2023-03-15 21:05:06:279,0.414552,7.94583,-5.67622,-54.261,2.25878,134.416
2023-03-15 21:05:06:289,0.407748,7.95328,-5.67618,-54.2621,2.26096,134.416
2023-03-15 21:05:06:299,0.408916,7.93912,-5.68253,-54.2638,2.25898,134.417
2023-03-15 21:05:06:309,0.420052,7.93166,-5.68367,-54.263,2.25686,134.416
2023-03-15 21:05:06:319,0.423465,7.93718,-5.68527,-54.2663,2.25612,134.416
2023-03-15 21:05:06:329,0.419871,7.93729,-5.68174,-54.2664,2.25699,134.416
2023-03-15 21:05:06:339,0.429383,7.9449,-5.67238,-54.2654,2.25855,134.414
2023-03-15 21:05:06:349,0.418757,7.92972,-5.68648,-54.2656,2.2613,134.414
2023-03-15 21:05:06:359,0.405912,7.93344,-5.68052,-54.2673,2.26202,134.413
2023-03-15 21:05:06:370,0.412109,7.93386,-5.67962,-54.2658,2.26025,134.414
2023-03-15 21:05:06:380,0.414383,7.93356,-5.67696,-54.2657,2.2597,134.411
2023-03-15 21:05:06:389,0.414356,7.93183,-5.68198,-54.2678,2.25914,134.409
2023-03-15 21:05:06:399,0.414225,7.92839,-5.69186,-54.2678,2.26069,134.407
2023-03-15 21:05:06:410,0.417178,7.93748,-5.68699,-54.2668,2.26206,134.406
2023-03-15 21:05:06:419,0.419031,7.94031,-5.68451,-54.2648,2.26277,134.404
2023-03-15 21:05:06:430,0.422985,7.94163,-5.68139,-54.2654,2.26358,134.405
2023-03-15 21:05:06:439,0.426162,7.93328,-5.69355,-54.2668,2.26284,134.405
2023-03-15 21:05:06:449,0.416744,7.941,-5.67767,-54.2657,2.26274,134.403
2023-03-15 21:05:06:459,0.401841,7.9409,-5.68052,-54.2666,2.26329,134.406
2023-03-15 21:05:06:469,0.405108,7.94103,-5.68485,-54.2634,2.26178,134.406
2023-03-15 21:05:06:479,0.395839,7.94213,-5.6863,-54.2607,2.25869,134.404
2023-03-15 21:05:06:490,0.398086,7.92507,-5.69071,-54.2587,2.25827,134.404
2023-03-15 21:05:06:499,0.431972,7.91897,-5.70323,-54.2585,2.25674,134.404
2023-03-15 21:05:06:510,0.433427,7.9256,-5.68551,-54.2596,2.25748,134.404
2023-03-15 21:05:06:519,0.42674,7.92003,-5.68127,-54.2617,2.25617,134.401
2023-03-15 21:05:06:529,0.433249,7.93688,-5.68929,-54.2619,2.25786,134.402
2023-03-15 21:05:06:539,0.419857,7.94555,-5.68758,-54.2592,2.25528,134.4
2023-03-15 21:05:06:549,0.407684,7.96189,-5.67755,-54.2606,2.25585,134.4
2023-03-15 21:05:06:559,0.395811,7.94093,-5.6912,-54.2606,2.25635,134.398
2023-03-15 21:05:06:569,0.400283,7.95382,-5.67313,-54.2618,2.25612,134.399
2023-03-15 21:05:06:579,0.41344,7.95267,-5.66782,-54.2658,2.25305,134.401
2023-03-15 21:05:06:589,0.435537,7.93733,-5.6834,-54.2645,2.25143,134.404
2023-03-15 21:05:06:599,0.44608,7.92846,-5.6902,-54.265,2.24924,134.404
2023-03-15 21:05:06:609,0.430146,7.93045,-5.68988,-54.2669,2.24785,134.406
2023-03-15 21:05:06:619,0.420664,7.93668,-5.68332,-54.2664,2.24888,134.408
2023-03-15 21:05:06:629,0.411056,7.93454,-5.69019,-54.2665,2.25045,134.408
2023-03-15 21:05:06:639,0.40567,7.9406,-5.68433,-54.2669,2.25009,134.411
2023-03-15 21:05:06:649,0.394213,7.94135,-5.68899,-54.2701,2.24924,134.412
2023-03-15 21:05:06:659,0.389895,7.95034,-5.67771,-54.2688,2.24613,134.411
2023-03-15 21:05:06:669,0.400987,7.94686,-5.68211,-54.2702,2.24564,134.41
2023-03-15 21:05:06:679,0.419395,7.94032,-5.68877,-54.2693,2.24604,134.411
2023-03-15 21:05:06:690,0.434486,7.95104,-5.68329,-54.2686,2.24678,134.411
2023-03-15 21:05:06:699,0.429674,7.93765,-5.69291,-54.2681,2.24583,134.412
2023-03-15 21:05:06:709,0.437197,7.93214,-5.68063,-54.2636,2.2481,134.409
2023-03-15 21:05:06:719,0.425407,7.93547,-5.68474,-54.2632,2.24498,134.408
2023-03-15 21:05:06:730,0.411711,7.93778,-5.68559,-54.2622,2.24301,134.409
2023-03-15 21:05:06:740,0.395448,7.93768,-5.6773,-54.2603,2.24167,134.409
2023-03-15 21:05:06:749,0.400728,7.93096,-5.68657,-54.2588,2.2423,134.413
2023-03-15 21:05:06:759,0.415742,7.93198,-5.68958,-54.261,2.24194,134.413
2023-03-15 21:05:06:770,0.41933,7.93961,-5.6873,-54.2609,2.24147,134.415
2023-03-15 21:05:06:780,0.433114,7.92626,-5.68324,-54.2627,2.23998,134.413
2023-03-15 21:05:06:789,0.43401,7.93353,-5.68669,-54.2629,2.23938,134.415
2023-03-15 21:05:06:799,0.415004,7.93866,-5.68554,-54.2643,2.23803,134.417
2023-03-15 21:05:06:810,0.40766,7.94049,-5.6875,-54.2665,2.23793,134.417
2023-03-15 21:05:06:819,0.398965,7.94596,-5.6842,-54.2623,2.23654,134.419
2023-03-15 21:05:06:829,0.403324,7.94691,-5.68084,-54.2603,2.23772,134.418
2023-03-15 21:05:06:839,0.394138,7.941,-5.67773,-54.2604,2.23425,134.418
2023-03-15 21:05:06:850,0.407674,7.94087,-5.68534,-54.2573,2.23465,134.419
2023-03-15 21:05:06:859,0.411021,7.9402,-5.67928,-54.2583,2.23559,134.418
2023-03-15 21:05:06:870,0.424577,7.93323,-5.67898,-54.2603,2.24019,134.418
2023-03-15 21:05:06:879,0.435517,7.94364,-5.68078,-54.2633,2.24073,134.416
2023-03-15 21:05:06:889,0.426313,7.93004,-5.69749,-54.2633,2.24251,134.418
2023-03-15 21:05:06:899,0.416158,7.93769,-5.68265,-54.2638,2.24335,134.417
2023-03-15 21:05:06:909,0.400011,7.9342,-5.68709,-54.2616,2.241,134.414
2023-03-15 21:05:06:919,0.394654,7.94326,-5.68627,-54.2628,2.24013,134.415
2023-03-15 21:05:06:929,0.407691,7.93876,-5.6885,-54.2642,2.23672,134.415
2023-03-15 21:05:06:939,0.43204,7.93157,-5.68628,-54.2622,2.23746,134.414
2023-03-15 21:05:06:949,0.431525,7.93719,-5.67526,-54.2601,2.23824,134.412
2023-03-15 21:05:06:959,0.421779,7.9404,-5.67461,-54.256,2.24089,134.41
2023-03-15 21:05:06:969,0.404413,7.93369,-5.67967,-54.2546,2.2403,134.411
2023-03-15 21:05:06:979,0.407286,7.9436,-5.67398,-54.2568,2.23894,134.411
2023-03-15 21:05:06:989,0.402392,7.93473,-5.69086,-54.2579,2.23698,134.411
2023-03-15 21:05:06:999,0.396729,7.93309,-5.68567,-54.262,2.23809,134.411
2023-03-15 21:05:07:9,0.406652,7.93385,-5.68075,-54.2599,2.24117,134.409
2023-03-15 21:05:07:19,0.417428,7.93878,-5.67682,-54.2583,2.24079,134.408
2023-03-15 21:05:07:29,0.432225,7.93103,-5.67305,-54.2589,2.23907,134.408
2023-03-15 21:05:07:39,0.425649,7.93517,-5.67755,-54.2549,2.24218,134.409
2023-03-15 21:05:07:49,0.405369,7.95071,-5.67684,-54.2544,2.24257,134.408
2023-03-15 21:05:07:59,0.400936,7.93981,-5.6769,-54.2527,2.24218,134.406
2023-03-15 21:05:07:69,0.4025,7.95429,-5.67042,-54.2571,2.24408,134.408
2023-03-15 21:05:07:79,0.419695,7.94815,-5.67779,-54.2571,2.24559,134.408
2023-03-15 21:05:07:89,0.42406,7.94655,-5.68724,-54.2574,2.24948,134.406
2023-03-15 21:05:07:99,0.437852,7.94717,-5.68123,-54.2617,2.24859,134.403
2023-03-15 21:05:07:109,0.450087,7.92524,-5.68749,-54.2588,2.25338,134.402
2023-03-15 21:05:07:119,0.431485,7.94207,-5.67659,-54.2595,2.25309,134.404
2023-03-15 21:05:07:129,0.422522,7.93735,-5.67484,-54.2596,2.25198,134.406
2023-03-15 21:05:07:139,0.421618,7.93588,-5.67848,-54.2581,2.25138,134.406
2023-03-15 21:05:07:149,0.410687,7.93055,-5.69311,-54.2604,2.2521,134.405
2023-03-15 21:05:07:159,0.425999,7.94229,-5.6784,-54.2605,2.25289,134.405
2023-03-15 21:05:07:169,0.422754,7.93064,-5.68171,-54.2632,2.25515,134.404
2023-03-15 21:05:07:179,0.415965,7.92649,-5.68942,-54.262,2.25419,134.405
2023-03-15 21:05:07:189,0.4223,7.93608,-5.6836,-54.2609,2.25385,134.404
2023-03-15 21:05:07:199,0.42342,7.94253,-5.6791,-54.2625,2.25541,134.404
2023-03-15 21:05:07:209,0.411088,7.94459,-5.68101,-54.2621,2.25698,134.405
2023-03-15 21:05:07:219,0.406317,7.94763,-5.68196,-54.2634,2.25535,134.402
2023-03-15 21:05:07:229,0.405458,7.94806,-5.67789,-54.2625,2.25514,134.401
2023-03-15 21:05:07:239,0.418661,7.93808,-5.68463,-54.26,2.25381,134.399
2023-03-15 21:05:07:249,0.412371,7.93491,-5.67879,-54.2589,2.25537,134.398
2023-03-15 21:05:07:259,0.399429,7.94089,-5.67267,-54.2617,2.25375,134.397
2023-03-15 21:05:07:269,0.404004,7.92345,-5.68887,-54.2598,2.25275,134.396
2023-03-15 21:05:07:279,0.400317,7.93233,-5.67962,-54.2577,2.25475,134.396
2023-03-15 21:05:07:289,0.399207,7.94881,-5.67433,-54.2586,2.25154,134.397
2023-03-15 21:05:07:299,0.405098,7.93979,-5.67938,-54.2585,2.25047,134.396
2023-03-15 21:05:07:309,0.415896,7.93457,-5.6811,-54.2572,2.24824,134.395
2023-03-15 21:05:07:319,0.419504,7.92609,-5.68985,-54.2579,2.24883,134.395
2023-03-15 21:05:07:329,0.41199,7.94267,-5.68044,-54.2586,2.24932,134.396
2023-03-15 21:05:07:339,0.413122,7.93275,-5.6882,-54.2579,2.24808,134.396
2023-03-15 21:05:07:349,0.415224,7.94762,-5.67425,-54.2626,2.24859,134.394
2023-03-15 21:05:07:359,0.39846,7.93789,-5.67622,-54.2641,2.24837,134.393
2023-03-15 21:05:07:369,0.40411,7.93372,-5.67658,-54.2623,2.24903,134.393
2023-03-15 21:05:07:379,0.406409,7.93868,-5.688,-54.2649,2.24603,134.39
2023-03-15 21:05:07:389,0.418251,7.92345,-5.69843,-54.2662,2.24612,134.391
2023-03-15 21:05:07:399,0.427326,7.94152,-5.68514,-54.2656,2.24956,134.389
2023-03-15 21:05:07:409,0.419539,7.93645,-5.69802,-54.2667,2.25205,134.386
2023-03-15 21:05:07:419,0.422989,7.93926,-5.69686,-54.2666,2.25208,134.388
2023-03-15 21:05:07:430,0.428824,7.93528,-5.68351,-54.2696,2.25087,134.386
2023-03-15 21:05:07:439,0.412212,7.93071,-5.69321,-54.274,2.24891,134.387
2023-03-15 21:05:07:450,0.402433,7.93316,-5.68671,-54.2755,2.24931,134.385
2023-03-15 21:05:07:459,0.39967,7.93111,-5.69243,-54.2739,2.24774,134.383
2023-03-15 21:05:07:470,0.408375,7.93897,-5.68306,-54.2728,2.24525,134.382
2023-03-15 21:05:07:479,0.415306,7.93341,-5.67507,-54.2726,2.24341,134.381
2023-03-15 21:05:07:489,0.42191,7.93836,-5.6694,-54.272,2.24403,134.38
2023-03-15 21:05:07:499,0.419607,7.93127,-5.68225,-54.2714,2.244,134.38
2023-03-15 21:05:07:509,0.418462,7.9304,-5.69644,-54.2719,2.24267,134.381
2023-03-15 21:05:07:519,0.42714,7.93774,-5.69119,-54.2708,2.24024,134.385
2023-03-15 21:05:07:529,0.416166,7.93118,-5.67984,-54.2713,2.24263,134.388
2023-03-15 21:05:07:539,0.409293,7.94404,-5.68527,-54.2692,2.24018,134.388
2023-03-15 21:05:07:549,0.409079,7.94108,-5.68355,-54.2669,2.23905,134.387
2023-03-15 21:05:07:559,0.411146,7.93872,-5.67812,-54.2688,2.24189,134.392
2023-03-15 21:05:07:569,0.406567,7.92759,-5.6867,-54.2667,2.24072,134.39
2023-03-15 21:05:07:579,0.405711,7.92818,-5.69375,-54.2652,2.24122,134.386
2023-03-15 21:05:07:589,0.411493,7.93453,-5.69222,-54.2666,2.24195,134.386
2023-03-15 21:05:07:599,0.415238,7.93554,-5.68505,-54.2679,2.24179,134.385
2023-03-15 21:05:07:609,0.423841,7.93345,-5.6762,-54.2725,2.23861,134.386
2023-03-15 21:05:07:619,0.417367,7.93398,-5.66981,-54.2765,2.23889,134.385
2023-03-15 21:05:07:629,0.415108,7.93621,-5.68042,-54.2762,2.24196,134.387
2023-03-15 21:05:07:639,0.40687,7.93892,-5.6827,-54.2784,2.24284,134.386
2023-03-15 21:05:07:649,0.413232,7.93482,-5.68477,-54.2785,2.24367,134.385
2023-03-15 21:05:07:659,0.405176,7.9457,-5.68807,-54.2793,2.24102,134.385
2023-03-15 21:05:07:669,0.402197,7.93182,-5.68968,-54.2799,2.2418,134.383
2023-03-15 21:05:07:679,0.408854,7.93253,-5.68042,-54.2813,2.24177,134.384
2023-03-15 21:05:07:689,0.402622,7.93329,-5.68514,-54.28,2.2371,134.381
2023-03-15 21:05:07:699,0.424683,7.93614,-5.69083,-54.2796,2.23752,134.381
2023-03-15 21:05:07:709,0.424973,7.94418,-5.67724,-54.2788,2.2384,134.382
2023-03-15 21:05:07:719,0.414603,7.94104,-5.6789,-54.2765,2.23676,134.384
2023-03-15 21:05:07:730,0.407287,7.93862,-5.66972,-54.2774,2.23918,134.384
2023-03-15 21:05:07:739,0.405901,7.9327,-5.68834,-54.2789,2.24046,134.381
2023-03-15 21:05:07:749,0.412826,7.93369,-5.68655,-54.276,2.23907,134.382
2023-03-15 21:05:07:759,0.422133,7.94335,-5.68094,-54.2754,2.23688,134.38
2023-03-15 21:05:07:769,0.430624,7.93686,-5.69105,-54.2757,2.23473,134.379
2023-03-15 21:05:07:779,0.437106,7.94063,-5.68172,-54.2744,2.23684,134.381
2023-03-15 21:05:07:789,0.427777,7.92747,-5.68181,-54.2723,2.23602,134.38
2023-03-15 21:05:07:799,0.411833,7.9431,-5.67125,-54.2678,2.23601,134.379
2023-03-15 21:05:07:809,0.398257,7.93762,-5.68488,-54.2661,2.24102,134.376
2023-03-15 21:05:07:819,0.40549,7.9444,-5.67987,-54.2651,2.23917,134.376
2023-03-15 21:05:07:829,0.415094,7.9412,-5.67801,-54.2662,2.23664,134.373
2023-03-15 21:05:07:839,0.425345,7.93504,-5.67792,-54.2624,2.23833,134.375
2023-03-15 21:05:07:849,0.420508,7.92905,-5.68458,-54.2624,2.2404,134.373
2023-03-15 21:05:07:859,0.425277,7.93384,-5.68831,-54.2607,2.23934,134.374
2023-03-15 21:05:07:869,0.416983,7.93165,-5.68041,-54.2585,2.23965,134.374
2023-03-15 21:05:07:879,0.412611,7.91782,-5.69589,-54.2547,2.24116,134.375
2023-03-15 21:05:07:889,0.400666,7.93124,-5.69071,-54.2541,2.2423,134.374
2023-03-15 21:05:07:899,0.404012,7.93299,-5.69311,-54.256,2.24033,134.376
2023-03-15 21:05:07:909,0.417788,7.9385,-5.68573,-54.2539,2.2429,134.377
2023-03-15 21:05:07:919,0.425721,7.94259,-5.68584,-54.2522,2.24568,134.377
2023-03-15 21:05:07:930,0.424625,7.92473,-5.69499,-54.2513,2.24353,134.374
2023-03-15 21:05:07:939,0.432287,7.93645,-5.68255,-54.2542,2.24334,134.372
2023-03-15 21:05:07:950,0.422748,7.93519,-5.6792,-54.2571,2.24359,134.37
2023-03-15 21:05:07:960,0.407945,7.93517,-5.68001,-54.2607,2.24304,134.369
2023-03-15 21:05:07:970,0.40698,7.95979,-5.6699,-54.2627,2.24263,134.372
2023-03-15 21:05:07:980,0.415732,7.9446,-5.68453,-54.2635,2.24218,134.369
2023-03-15 21:05:07:989,0.409939,7.94566,-5.67294,-54.2645,2.24128,134.368
2023-03-15 21:05:07:999,0.421778,7.93389,-5.68088,-54.2684,2.23992,134.368
2023-03-15 21:05:08:10,0.426519,7.93155,-5.68344,-54.2705,2.23993,134.368
2023-03-15 21:05:08:19,0.42099,7.92964,-5.68207,-54.2733,2.2385,134.37
2023-03-15 21:05:08:30,0.420623,7.93862,-5.68073,-54.2764,2.23936,134.368
2023-03-15 21:05:08:39,0.41734,7.93372,-5.6827,-54.2761,2.23808,134.371
2023-03-15 21:05:08:50,0.406574,7.93211,-5.6825,-54.2787,2.23585,134.37
2023-03-15 21:05:08:59,0.41609,7.94489,-5.67918,-54.28,2.23678,134.372
2023-03-15 21:05:08:70,0.414304,7.94083,-5.68522,-54.2829,2.23851,134.37
2023-03-15 21:05:08:80,0.410019,7.93081,-5.68561,-54.2808,2.23802,134.37
2023-03-15 21:05:08:89,0.412113,7.93532,-5.69248,-54.2813,2.23621,134.371
2023-03-15 21:05:08:99,0.406277,7.92947,-5.69255,-54.2785,2.23774,134.37
2023-03-15 21:05:08:110,0.419613,7.93583,-5.68915,-54.2768,2.23872,134.367
2023-03-15 21:05:08:119,0.433348,7.93719,-5.69085,-54.2755,2.23775,134.369
2023-03-15 21:05:08:129,0.413763,7.9436,-5.69043,-54.2745,2.23591,134.369
2023-03-15 21:05:08:139,0.416348,7.92763,-5.69208,-54.2743,2.24002,134.367
2023-03-15 21:05:08:149,0.428152,7.93246,-5.69011,-54.273,2.24103,134.366
2023-03-15 21:05:08:159,0.425303,7.93032,-5.68577,-54.2704,2.23869,134.366
2023-03-15 21:05:08:169,0.411,7.91758,-5.69473,-54.2692,2.23746,134.367
2023-03-15 21:05:08:179,0.421787,7.93487,-5.68973,-54.2713,2.24134,134.365
2023-03-15 21:05:08:190,0.419915,7.93111,-5.68475,-54.2702,2.24633,134.362
2023-03-15 21:05:08:199,0.401717,7.93802,-5.68183,-54.2666,2.24617,134.363
2023-03-15 21:05:08:209,0.412384,7.93508,-5.6885,-54.2656,2.245,134.361
2023-03-15 21:05:08:219,0.424089,7.92745,-5.70027,-54.2685,2.24681,134.362
2023-03-15 21:05:08:230,0.411863,7.93036,-5.68702,-54.2673,2.24691,134.361
2023-03-15 21:05:08:239,0.398895,7.92913,-5.69053,-54.2672,2.24896,134.361
2023-03-15 21:05:08:249,0.407177,7.94196,-5.68005,-54.2684,2.24843,134.36
2023-03-15 21:05:08:259,0.404625,7.93326,-5.68452,-54.2679,2.24635,134.358
