Timestamp,Acceleration_x,Acceleration_y,Acceleration_z,roll,pitch,yaw
2023-03-11 15:00:12:859,-0.582244,1.37396,-9.77985,-7.90834,-3.4131,84.5029
2023-03-11 15:00:12:868,-0.523466,1.35913,-9.76123,-7.90931,-3.41847,84.4904
2023-03-11 15:00:12:878,-0.494005,1.32128,-9.70243,-7.90834,-3.42137,84.4825
2023-03-11 15:00:12:888,-0.510513,1.31199,-9.66853,-7.90997,-3.42415,84.48
2023-03-11 15:00:12:898,-0.544375,1.35167,-9.65758,-7.91765,-3.42175,84.4833
2023-03-11 15:00:12:908,-0.571767,1.37702,-9.67487,-7.9254,-3.4189,84.4936
2023-03-11 15:00:12:918,-0.590207,1.40989,-9.69375,-7.9345,-3.40853,84.506
2023-03-11 15:00:12:928,-0.595883,1.43622,-9.7103,-7.93943,-3.39318,84.5187
2023-03-11 15:00:12:938,-0.571952,1.43982,-9.70197,-7.93717,-3.37839,84.5282
2023-03-11 15:00:12:948,-0.575945,1.42243,-9.69056,-7.93206,-3.36419,84.5368
2023-03-11 15:00:12:958,-0.593718,1.41204,-9.65534,-7.92239,-3.35315,84.5425
2023-03-11 15:00:12:968,-0.586763,1.38522,-9.62939,-7.91102,-3.34414,84.5427
2023-03-11 15:00:12:978,-0.557846,1.35907,-9.61309,-7.9002,-3.33342,84.5419
2023-03-11 15:00:12:988,-0.533523,1.33571,-9.63846,-7.8908,-3.32881,84.5376
2023-03-11 15:00:12:998,-0.523191,1.33623,-9.66601,-7.88367,-3.32402,84.5336
2023-03-11 15:00:13:8,-0.517748,1.34483,-9.6838,-7.87854,-3.32126,84.5246
2023-03-11 15:00:13:18,-0.522567,1.34959,-9.67881,-7.87748,-3.32232,84.5187
2023-03-11 15:00:13:28,-0.511983,1.35593,-9.67863,-7.87333,-3.32162,84.5114
2023-03-11 15:00:13:38,-0.496131,1.33168,-9.65449,-7.86917,-3.32315,84.504
2023-03-11 15:00:13:48,-0.496677,1.31962,-9.60679,-7.86758,-3.32379,84.5007
2023-03-11 15:00:13:58,-0.535936,1.30863,-9.58449,-7.86895,-3.32821,84.4984
2023-03-11 15:00:13:68,-0.574001,1.31253,-9.59604,-7.87695,-3.32631,84.4943
2023-03-11 15:00:13:78,-0.560495,1.34308,-9.65883,-7.88837,-3.3238,84.4939
2023-03-11 15:00:13:88,-0.502519,1.36163,-9.7096,-7.89662,-3.31848,84.4863
2023-03-11 15:00:13:98,-0.465409,1.37264,-9.70761,-7.90006,-3.31575,84.4803
2023-03-11 15:00:13:108,-0.497049,1.36517,-9.70749,-7.90378,-3.31857,84.4795
2023-03-11 15:00:13:118,-0.568665,1.36907,-9.69685,-7.90954,-3.32397,84.4835
2023-03-11 15:00:13:128,-0.598039,1.39421,-9.67875,-7.91133,-3.32552,84.4823
2023-03-11 15:00:13:138,-0.577286,1.39567,-9.68798,-7.91487,-3.32846,84.4802
2023-03-11 15:00:13:148,-0.530209,1.39152,-9.70979,-7.91551,-3.33343,84.4755
2023-03-11 15:00:13:158,-0.498089,1.38074,-9.71526,-7.91392,-3.33742,84.4729
2023-03-11 15:00:13:168,-0.462289,1.36754,-9.71451,-7.9142,-3.34319,84.4753
2023-03-11 15:00:13:178,-0.474543,1.36009,-9.71322,-7.91178,-3.34706,84.4759
2023-03-11 15:00:13:187,-0.491073,1.3625,-9.71744,-7.90997,-3.3537,84.4837
2023-03-11 15:00:13:198,-0.52361,1.35833,-9.70435,-7.90467,-3.35899,84.4942
2023-03-11 15:00:13:208,-0.531059,1.34909,-9.69734,-7.89897,-3.3672,84.5041
2023-03-11 15:00:13:218,-0.529989,1.34855,-9.6829,-7.88771,-3.37472,84.5176
2023-03-11 15:00:13:227,-0.541667,1.33845,-9.69417,-7.8775,-3.38411,84.5336
2023-03-11 15:00:13:237,-0.561911,1.34039,-9.68967,-7.86796,-3.38962,84.5481
2023-03-11 15:00:13:247,-0.575457,1.34343,-9.66941,-7.85676,-3.40268,84.5646
2023-03-11 15:00:13:257,-0.596626,1.33163,-9.66021,-7.84618,-3.41304,84.5838
2023-03-11 15:00:13:267,-0.610519,1.32077,-9.65271,-7.83318,-3.42514,84.6049
2023-03-11 15:00:13:278,-0.646719,1.3052,-9.6335,-7.81956,-3.43218,84.6242
2023-03-11 15:00:13:288,-0.653458,1.29553,-9.62884,-7.8099,-3.44333,84.6419
2023-03-11 15:00:13:298,-0.650955,1.28361,-9.61517,-7.79863,-3.45151,84.6623
2023-03-11 15:00:13:308,-0.673257,1.28978,-9.614,-7.79376,-3.45865,84.6796
2023-03-11 15:00:13:318,-0.694774,1.28318,-9.63621,-7.79288,-3.46441,84.6958
2023-03-11 15:00:13:328,-0.712383,1.30304,-9.61836,-7.79159,-3.46971,84.7074
2023-03-11 15:00:13:338,-0.732614,1.31686,-9.61246,-7.79547,-3.47076,84.7152
2023-03-11 15:00:13:348,-0.735293,1.33427,-9.62233,-7.80077,-3.47048,84.7186
2023-03-11 15:00:13:358,-0.715564,1.35129,-9.67051,-7.80476,-3.46926,84.7179
2023-03-11 15:00:13:368,-0.711533,1.38162,-9.70941,-7.80895,-3.46754,84.7111
2023-03-11 15:00:13:378,-0.692476,1.37758,-9.71422,-7.80729,-3.46531,84.7001
2023-03-11 15:00:13:388,-0.651942,1.35318,-9.69058,-7.8014,-3.45991,84.6835
2023-03-11 15:00:13:398,-0.617483,1.32524,-9.65517,-7.79797,-3.45682,84.6674
2023-03-11 15:00:13:408,-0.603503,1.31096,-9.64761,-7.79714,-3.44997,84.6487
2023-03-11 15:00:13:418,-0.608853,1.30657,-9.63415,-7.79615,-3.44398,84.6304
2023-03-11 15:00:13:428,-0.620612,1.29542,-9.63543,-7.79801,-3.43935,84.6155
2023-03-11 15:00:13:438,-0.616952,1.31004,-9.66118,-7.80216,-3.43801,84.5977
2023-03-11 15:00:13:448,-0.595386,1.35062,-9.70236,-7.80558,-3.435,84.581
2023-03-11 15:00:13:458,-0.574067,1.36143,-9.72544,-7.80775,-3.43735,84.5613
2023-03-11 15:00:13:468,-0.573872,1.37899,-9.70573,-7.80533,-3.44291,84.538
2023-03-11 15:00:13:478,-0.591162,1.36561,-9.68291,-7.79886,-3.45295,84.5143
2023-03-11 15:00:13:487,-0.613948,1.3321,-9.66084,-7.79283,-3.4644,84.4861
2023-03-11 15:00:13:498,-0.614655,1.30373,-9.62709,-7.79073,-3.47805,84.4596
2023-03-11 15:00:13:508,-0.624277,1.30126,-9.62511,-7.78943,-3.49096,84.4317
2023-03-11 15:00:13:518,-0.612451,1.32385,-9.63842,-7.78836,-3.50268,84.4021
2023-03-11 15:00:13:528,-0.621607,1.33824,-9.65762,-7.78996,-3.51558,84.3742
2023-03-11 15:00:13:538,-0.624174,1.3238,-9.65876,-7.78637,-3.52163,84.349
2023-03-11 15:00:13:547,-0.58264,1.32581,-9.64077,-7.78529,-3.51729,84.32
2023-03-11 15:00:13:557,-0.527724,1.31912,-9.63815,-7.78395,-3.51254,84.2906
2023-03-11 15:00:13:567,-0.480886,1.29439,-9.65465,-7.78479,-3.5062,84.2672
2023-03-11 15:00:13:577,-0.431812,1.31136,-9.69331,-7.7925,-3.49955,84.2459
2023-03-11 15:00:13:587,-0.381357,1.32252,-9.73496,-7.79723,-3.4901,84.2299
2023-03-11 15:00:13:598,-0.348301,1.30437,-9.75152,-7.80109,-3.48631,84.2301
2023-03-11 15:00:13:607,-0.388443,1.30928,-9.73579,-7.80722,-3.48424,84.2377
2023-03-11 15:00:13:617,-0.456707,1.31975,-9.72523,-7.81684,-3.48532,84.2538
2023-03-11 15:00:13:627,-0.519303,1.35504,-9.71997,-7.82612,-3.48677,84.2785
2023-03-11 15:00:13:637,-0.571387,1.38619,-9.70002,-7.83297,-3.48017,84.3081
2023-03-11 15:00:13:647,-0.60103,1.38326,-9.66407,-7.8335,-3.47633,84.3414
2023-03-11 15:00:13:658,-0.591613,1.37884,-9.64572,-7.83732,-3.46588,84.3718
2023-03-11 15:00:13:667,-0.584407,1.38099,-9.65863,-7.84201,-3.45825,84.4045
2023-03-11 15:00:13:678,-0.582017,1.3741,-9.66771,-7.8474,-3.44754,84.4356
2023-03-11 15:00:13:687,-0.580951,1.37113,-9.66746,-7.84706,-3.43516,84.4619
2023-03-11 15:00:13:698,-0.609079,1.35848,-9.64268,-7.85004,-3.42884,84.4882
2023-03-11 15:00:13:708,-0.608115,1.34349,-9.60106,-7.84904,-3.42477,84.5086
2023-03-11 15:00:13:718,-0.586698,1.31079,-9.60274,-7.84954,-3.42175,84.5271
2023-03-11 15:00:13:728,-0.60573,1.29762,-9.64395,-7.85103,-3.41674,84.5478
2023-03-11 15:00:13:738,-0.637732,1.32706,-9.67209,-7.85536,-3.41504,84.5627
2023-03-11 15:00:13:748,-0.637559,1.33981,-9.69285,-7.85732,-3.41668,84.5741
2023-03-11 15:00:13:758,-0.623521,1.351,-9.68793,-7.86263,-3.41517,84.5853
2023-03-11 15:00:13:767,-0.610155,1.34336,-9.66986,-7.86457,-3.40965,84.5924
2023-03-11 15:00:13:778,-0.583322,1.32374,-9.65844,-7.86962,-3.40674,84.5926
2023-03-11 15:00:13:788,-0.594364,1.3213,-9.64183,-7.8745,-3.40943,84.593
2023-03-11 15:00:13:798,-0.616162,1.31556,-9.64644,-7.88307,-3.40712,84.5957
2023-03-11 15:00:13:808,-0.61648,1.34161,-9.66768,-7.89754,-3.4055,84.5945
2023-03-11 15:00:13:818,-0.605652,1.38505,-9.69,-7.90516,-3.40052,84.5901
2023-03-11 15:00:13:828,-0.561456,1.38252,-9.74085,-7.90985,-3.3918,84.5847
2023-03-11 15:00:13:838,-0.495207,1.38461,-9.76492,-7.91181,-3.38633,84.5794
2023-03-11 15:00:13:848,-0.498584,1.3863,-9.76384,-7.90688,-3.38646,84.5731
2023-03-11 15:00:13:858,-0.548405,1.38867,-9.73339,-7.90187,-3.38465,84.5687
2023-03-11 15:00:13:868,-0.58161,1.37788,-9.69638,-7.89218,-3.38481,84.561
2023-03-11 15:00:13:878,-0.576842,1.36138,-9.6746,-7.88447,-3.38512,84.5559
2023-03-11 15:00:13:888,-0.531002,1.34083,-9.67067,-7.87799,-3.38306,84.5471
2023-03-11 15:00:13:898,-0.499881,1.33357,-9.66682,-7.86799,-3.38156,84.5394
2023-03-11 15:00:13:908,-0.493754,1.32295,-9.65263,-7.86106,-3.38351,84.5381
2023-03-11 15:00:13:918,-0.502897,1.32539,-9.65701,-7.85487,-3.38786,84.5353
2023-03-11 15:00:13:928,-0.543281,1.33811,-9.65861,-7.84936,-3.39506,84.5392
2023-03-11 15:00:13:938,-0.58274,1.3607,-9.70051,-7.84643,-3.39845,84.5377
2023-03-11 15:00:13:948,-0.565545,1.37709,-9.74776,-7.83511,-3.40517,84.5354
2023-03-11 15:00:13:958,-0.544534,1.3788,-9.76535,-7.82306,-3.40978,84.5308
2023-03-11 15:00:13:968,-0.540331,1.3628,-9.72133,-7.80135,-3.41957,84.5299
2023-03-11 15:00:13:978,-0.555497,1.31612,-9.70195,-7.77968,-3.42822,84.5307
2023-03-11 15:00:13:988,-0.573065,1.3069,-9.6699,-7.75831,-3.43941,84.5352
2023-03-11 15:00:13:998,-0.588121,1.306,-9.64036,-7.73848,-3.44984,84.5426
2023-03-11 15:00:14:8,-0.602145,1.3071,-9.62132,-7.71909,-3.4586,84.5473
2023-03-11 15:00:14:18,-0.613972,1.3074,-9.64399,-7.70695,-3.46988,84.5558
2023-03-11 15:00:14:28,-0.633477,1.33266,-9.69383,-7.69699,-3.47899,84.5612
2023-03-11 15:00:14:38,-0.634392,1.35617,-9.73298,-7.68241,-3.48822,84.5634
2023-03-11 15:00:14:48,-0.641647,1.34519,-9.7227,-7.66401,-3.50008,84.57
2023-03-11 15:00:14:58,-0.640508,1.31562,-9.66835,-7.64438,-3.51218,84.5763
2023-03-11 15:00:14:68,-0.650572,1.2907,-9.6148,-7.62606,-3.52592,84.582
2023-03-11 15:00:14:78,-0.674698,1.29402,-9.57812,-7.61324,-3.54216,84.5862
2023-03-11 15:00:14:88,-0.706561,1.28672,-9.59805,-7.60357,-3.56031,84.5924
2023-03-11 15:00:14:98,-0.770541,1.31527,-9.62284,-7.60165,-3.57498,84.597
2023-03-11 15:00:14:108,-0.810224,1.34893,-9.65376,-7.59834,-3.58449,84.5974
2023-03-11 15:00:14:118,-0.79004,1.3532,-9.67258,-7.59557,-3.58717,84.5929
2023-03-11 15:00:14:128,-0.727586,1.3502,-9.67995,-7.59428,-3.58345,84.582
2023-03-11 15:00:14:138,-0.649493,1.35628,-9.69719,-7.58672,-3.57982,84.5668
2023-03-11 15:00:14:148,-0.582601,1.37273,-9.70868,-7.57944,-3.5768,84.5483
2023-03-11 15:00:14:157,-0.544507,1.37958,-9.71731,-7.56747,-3.5683,84.5324
2023-03-11 15:00:14:167,-0.527625,1.36206,-9.73331,-7.55698,-3.56301,84.5216
2023-03-11 15:00:14:178,-0.51165,1.33768,-9.72589,-7.53982,-3.55254,84.515
2023-03-11 15:00:14:188,-0.515966,1.31061,-9.7115,-7.51881,-3.5441,84.5154
2023-03-11 15:00:14:198,-0.529071,1.27617,-9.68619,-7.49524,-3.53183,84.5226
2023-03-11 15:00:14:208,-0.541248,1.26784,-9.66363,-7.47615,-3.51606,84.532
2023-03-11 15:00:14:217,-0.536699,1.26643,-9.6704,-7.45903,-3.49964,84.5478
2023-03-11 15:00:14:227,-0.536551,1.25188,-9.69468,-7.44189,-3.485,84.5625
2023-03-11 15:00:14:237,-0.548848,1.25963,-9.70961,-7.42753,-3.47062,84.5802
2023-03-11 15:00:14:247,-0.572877,1.26399,-9.71425,-7.41224,-3.45947,84.5987
2023-03-11 15:00:14:257,-0.60084,1.27288,-9.69225,-7.39272,-3.45366,84.6122
2023-03-11 15:00:14:267,-0.625786,1.271,-9.68459,-7.37722,-3.45156,84.6222
2023-03-11 15:00:14:277,-0.629618,1.24088,-9.66209,-7.36001,-3.45272,84.6289
2023-03-11 15:00:14:288,-0.607363,1.22345,-9.64697,-7.33961,-3.45356,84.6277
2023-03-11 15:00:14:298,-0.568773,1.18359,-9.65091,-7.32421,-3.45575,84.6263
2023-03-11 15:00:14:307,-0.538117,1.16642,-9.6853,-7.31165,-3.46065,84.6229
2023-03-11 15:00:14:318,-0.516347,1.19317,-9.72073,-7.29762,-3.46929,84.6247
2023-03-11 15:00:14:328,-0.490769,1.18253,-9.73003,-7.27993,-3.47928,84.6247
2023-03-11 15:00:14:338,-0.499993,1.15989,-9.71286,-7.26374,-3.49022,84.632
2023-03-11 15:00:14:348,-0.519677,1.15313,-9.69355,-7.24959,-3.50238,84.6437
2023-03-11 15:00:14:358,-0.574335,1.15114,-9.66837,-7.23705,-3.51412,84.664
2023-03-11 15:00:14:368,-0.624429,1.14348,-9.62975,-7.22365,-3.52111,84.6866
2023-03-11 15:00:14:378,-0.655903,1.13265,-9.59829,-7.21341,-3.52454,84.7087
2023-03-11 15:00:14:388,-0.644441,1.13229,-9.58307,-7.20925,-3.52391,84.7284
2023-03-11 15:00:14:398,-0.629809,1.13504,-9.59167,-7.21081,-3.52246,84.7463
2023-03-11 15:00:14:408,-0.641824,1.16508,-9.59291,-7.21484,-3.52099,84.764
2023-03-11 15:00:14:418,-0.654305,1.17717,-9.58416,-7.22027,-3.51955,84.7776
2023-03-11 15:00:14:428,-0.675013,1.19875,-9.57107,-7.23032,-3.52033,84.7936
2023-03-11 15:00:14:438,-0.689069,1.19151,-9.5532,-7.23973,-3.52503,84.8036
2023-03-11 15:00:14:448,-0.685097,1.19874,-9.53104,-7.25408,-3.52966,84.8093
2023-03-11 15:00:14:458,-0.696582,1.20455,-9.52429,-7.27434,-3.52992,84.8118
2023-03-11 15:00:14:468,-0.71135,1.24571,-9.57271,-7.30843,-3.53625,84.8056
2023-03-11 15:00:14:478,-0.712491,1.3147,-9.64771,-7.345,-3.54267,84.7978
2023-03-11 15:00:14:488,-0.745391,1.35032,-9.70565,-7.38092,-3.5506,84.7835
2023-03-11 15:00:14:498,-0.76127,1.37374,-9.73434,-7.41447,-3.55897,84.7636
2023-03-11 15:00:14:508,-0.725108,1.40865,-9.74212,-7.44849,-3.56778,84.7323
2023-03-11 15:00:14:518,-0.695553,1.38549,-9.71204,-7.4753,-3.57643,84.6934
2023-03-11 15:00:14:528,-0.706644,1.35284,-9.66241,-7.50273,-3.58411,84.6509
2023-03-11 15:00:14:538,-0.703725,1.37512,-9.68365,-7.53217,-3.59186,84.6074
2023-03-11 15:00:14:548,-0.669505,1.42827,-9.76487,-7.56176,-3.5923,84.5636
2023-03-11 15:00:14:558,-0.56692,1.46115,-9.85239,-7.58462,-3.59241,84.5114
2023-03-11 15:00:14:568,-0.461494,1.4397,-9.88406,-7.60009,-3.59211,84.4635
2023-03-11 15:00:14:578,-0.431679,1.39267,-9.87212,-7.60806,-3.59692,84.4221
2023-03-11 15:00:14:588,-0.505531,1.37463,-9.84717,-7.61076,-3.60708,84.3902
2023-03-11 15:00:14:598,-0.610653,1.39347,-9.83025,-7.61051,-3.62282,84.3592
2023-03-11 15:00:14:608,-0.675088,1.44045,-9.85774,-7.60684,-3.63935,84.3273
2023-03-11 15:00:14:618,-0.707624,1.47771,-9.90969,-7.59233,-3.6635,84.29
2023-03-11 15:00:14:628,-0.725032,1.48243,-9.91075,-7.56444,-3.69362,84.2443
2023-03-11 15:00:14:638,-0.7096,1.4351,-9.85281,-7.52506,-3.73091,84.197
2023-03-11 15:00:14:648,-0.697846,1.35368,-9.76771,-7.47533,-3.76618,84.1388
2023-03-11 15:00:14:658,-0.713525,1.28014,-9.67547,-7.42294,-3.79753,84.0833
2023-03-11 15:00:14:668,-0.724075,1.19891,-9.61514,-7.36386,-3.82567,84.0221
2023-03-11 15:00:14:678,-0.691864,1.12701,-9.60489,-7.30454,-3.84699,83.9589
2023-03-11 15:00:14:688,-0.671493,1.08676,-9.65806,-7.24118,-3.85801,83.8942
2023-03-11 15:00:14:698,-0.595448,1.01607,-9.69088,-7.16943,-3.86368,83.8247
2023-03-11 15:00:14:708,-0.452425,0.933827,-9.62638,-7.10213,-3.86392,83.7565
2023-03-11 15:00:14:718,-0.373372,0.855411,-9.51766,-7.03691,-3.86558,83.6968
2023-03-11 15:00:14:728,-0.372257,0.802118,-9.42261,-6.98883,-3.87109,83.6491
2023-03-11 15:00:14:738,-0.394143,0.820426,-9.38651,-6.95713,-3.88319,83.6191
2023-03-11 15:00:14:748,-0.429876,0.853786,-9.37252,-6.94335,-3.89037,83.601
2023-03-11 15:00:14:758,-0.460302,0.880955,-9.3406,-6.94314,-3.89759,83.5934
2023-03-11 15:00:14:768,-0.517865,0.910626,-9.36734,-6.95591,-3.90214,83.5974
2023-03-11 15:00:14:778,-0.565093,0.96879,-9.4629,-6.97921,-3.9088,83.6089
2023-03-11 15:00:14:788,-0.594264,1.04798,-9.54586,-7.01028,-3.91713,83.6213
2023-03-11 15:00:14:798,-0.613078,1.08314,-9.58049,-7.04631,-3.93088,83.634
2023-03-11 15:00:14:808,-0.668232,1.11591,-9.53942,-7.07953,-3.94995,83.6539
2023-03-11 15:00:14:818,-0.741296,1.13836,-9.50363,-7.12021,-3.97425,83.6704
2023-03-11 15:00:14:828,-0.758617,1.10776,-9.46759,-7.17382,-4.00944,83.6831
2023-03-11 15:00:14:838,-0.750327,1.16956,-9.47983,-7.23277,-4.04258,83.6919
2023-03-11 15:00:14:848,-0.721903,1.24782,-9.59487,-7.29854,-4.08078,83.6917
2023-03-11 15:00:14:858,-0.690946,1.27516,-9.60564,-7.37073,-4.12017,83.69
2023-03-11 15:00:14:868,-0.685531,1.30303,-9.58904,-7.44086,-4.15674,83.6906
2023-03-11 15:00:14:878,-0.742286,1.34731,-9.60352,-7.51443,-4.18599,83.6953
2023-03-11 15:00:14:888,-0.789091,1.3917,-9.59782,-7.59332,-4.20868,83.699
2023-03-11 15:00:14:898,-0.787217,1.4394,-9.60885,-7.66953,-4.22119,83.7002
2023-03-11 15:00:14:908,-0.773724,1.48003,-9.65334,-7.74906,-4.22885,83.6989
2023-03-11 15:00:14:918,-0.762884,1.52289,-9.74003,-7.83043,-4.22609,83.697
2023-03-11 15:00:14:928,-0.732192,1.59778,-9.83405,-7.9105,-4.22431,83.6989
2023-03-11 15:00:14:938,-0.716667,1.68431,-9.91434,-7.98281,-4.21812,83.7002
2023-03-11 15:00:14:948,-0.701236,1.71809,-9.94202,-8.03805,-4.21113,83.7033
2023-03-11 15:00:14:958,-0.663899,1.65612,-9.89268,-8.08285,-4.20683,83.7063
2023-03-11 15:00:14:968,-0.668828,1.58023,-9.79509,-8.12063,-4.20169,83.7117
2023-03-11 15:00:14:978,-0.731575,1.53844,-9.70131,-8.14926,-4.19616,83.726
2023-03-11 15:00:14:988,-0.751043,1.48708,-9.60305,-8.17919,-4.18432,83.7402
2023-03-11 15:00:14:998,-0.732957,1.46031,-9.58347,-8.21363,-4.16539,83.7582
2023-03-11 15:00:15:8,-0.741721,1.45925,-9.58418,-8.25464,-4.1404,83.7789
2023-03-11 15:00:15:18,-0.750594,1.44907,-9.57414,-8.29176,-4.10933,83.7954
2023-03-11 15:00:15:28,-0.741852,1.40395,-9.57205,-8.33229,-4.07659,83.8091
2023-03-11 15:00:15:38,-0.715426,1.35674,-9.55075,-8.37662,-4.03928,83.8225
2023-03-11 15:00:15:48,-0.662008,1.3329,-9.54712,-8.43205,-3.99754,83.8292
2023-03-11 15:00:15:58,-0.575777,1.34311,-9.58094,-8.49882,-3.9623,83.8388
2023-03-11 15:00:15:68,-0.491619,1.35978,-9.6065,-8.57642,-3.9332,83.8456
2023-03-11 15:00:15:78,-0.474451,1.34839,-9.55638,-8.6609,-3.91595,83.8624
2023-03-11 15:00:15:88,-0.509494,1.34713,-9.49961,-8.75577,-3.91278,83.8819
2023-03-11 15:00:15:98,-0.560713,1.40255,-9.494,-8.86123,-3.92254,83.9081
2023-03-11 15:00:15:108,-0.639363,1.50365,-9.5823,-8.98174,-3.93616,83.9394
2023-03-11 15:00:15:118,-0.732995,1.62761,-9.70855,-9.10012,-3.95628,83.9718
2023-03-11 15:00:15:128,-0.796312,1.70561,-9.78863,-9.20726,-3.97067,84.0022
2023-03-11 15:00:15:138,-0.827381,1.71663,-9.78228,-9.29797,-3.97781,84.0279
2023-03-11 15:00:15:148,-0.828501,1.68931,-9.72816,-9.37279,-3.98644,84.0476
2023-03-11 15:00:15:158,-0.816552,1.65253,-9.66464,-9.43636,-3.98795,84.058
2023-03-11 15:00:15:168,-0.781967,1.66441,-9.64363,-9.49804,-3.98696,84.0609
2023-03-11 15:00:15:178,-0.73027,1.70424,-9.68949,-9.55936,-3.98327,84.0606
2023-03-11 15:00:15:188,-0.687605,1.77132,-9.73694,-9.61179,-3.97292,84.0608
2023-03-11 15:00:15:198,-0.68098,1.84064,-9.77193,-9.65005,-3.95561,84.0606
2023-03-11 15:00:15:208,-0.666049,1.83539,-9.73643,-9.67357,-3.93508,84.0611
2023-03-11 15:00:15:218,-0.677921,1.74502,-9.64439,-9.68308,-3.90804,84.0686
2023-03-11 15:00:15:228,-0.736615,1.67165,-9.52979,-9.69516,-3.88181,84.0741
2023-03-11 15:00:15:238,-0.755471,1.63968,-9.48447,-9.71321,-3.86054,84.0704
2023-03-11 15:00:15:248,-0.730622,1.67064,-9.54633,-9.74495,-3.84281,84.0584
2023-03-11 15:00:15:258,-0.692377,1.72195,-9.66108,-9.77579,-3.83084,84.0377
2023-03-11 15:00:15:268,-0.610475,1.73876,-9.75382,-9.80552,-3.82378,84.0091
2023-03-11 15:00:15:278,-0.54658,1.7497,-9.78294,-9.83453,-3.82307,83.9784
2023-03-11 15:00:15:288,-0.478262,1.72992,-9.77349,-9.85436,-3.83373,83.9442
2023-03-11 15:00:15:298,-0.417991,1.70386,-9.74713,-9.87454,-3.85619,83.9078
2023-03-11 15:00:15:308,-0.397028,1.67029,-9.70351,-9.89582,-3.88526,83.8793
2023-03-11 15:00:15:318,-0.443955,1.67693,-9.7029,-9.91687,-3.919,83.8606
2023-03-11 15:00:15:328,-0.54481,1.75672,-9.77715,-9.94278,-3.95211,83.8523
2023-03-11 15:00:15:338,-0.610986,1.83905,-9.84748,-9.96124,-3.98179,83.8489
2023-03-11 15:00:15:348,-0.606759,1.86102,-9.86679,-9.96863,-4.00803,83.8471
2023-03-11 15:00:15:358,-0.569901,1.82357,-9.81821,-9.96252,-4.03254,83.8489
2023-03-11 15:00:15:368,-0.577394,1.77228,-9.73192,-9.94814,-4.05495,83.8571
2023-03-11 15:00:15:378,-0.607566,1.71905,-9.64768,-9.92982,-4.07619,83.8727
2023-03-11 15:00:15:388,-0.638746,1.68408,-9.59661,-9.91151,-4.09392,83.8951
2023-03-11 15:00:15:398,-0.690168,1.66379,-9.56359,-9.89597,-4.11355,83.9233
2023-03-11 15:00:15:408,-0.729962,1.67902,-9.59182,-9.88053,-4.12164,83.9552
2023-03-11 15:00:15:418,-0.764652,1.69356,-9.64826,-9.8657,-4.12839,83.9857
2023-03-11 15:00:15:428,-0.800447,1.729,-9.72849,-9.84218,-4.13304,84.0146
2023-03-11 15:00:15:438,-0.831617,1.74926,-9.75124,-9.81114,-4.13351,84.0461
2023-03-11 15:00:15:448,-0.877671,1.71565,-9.71966,-9.77048,-4.13017,84.0744
2023-03-11 15:00:15:458,-0.890408,1.66676,-9.64486,-9.72038,-4.12387,84.0908
2023-03-11 15:00:15:468,-0.855817,1.59494,-9.55161,-9.67356,-4.11735,84.102
2023-03-11 15:00:15:478,-0.833499,1.55242,-9.49409,-9.63124,-4.11294,84.1059
2023-03-11 15:00:15:488,-0.823147,1.54102,-9.51881,-9.59443,-4.11341,84.107
2023-03-11 15:00:15:498,-0.82048,1.58747,-9.56533,-9.56586,-4.11282,84.1019
2023-03-11 15:00:15:508,-0.839375,1.61779,-9.60481,-9.53749,-4.11289,84.0897
2023-03-11 15:00:15:518,-0.862554,1.63728,-9.61165,-9.50915,-4.11005,84.0759
2023-03-11 15:00:15:528,-0.843007,1.63674,-9.60073,-9.47673,-4.10533,84.0602
2023-03-11 15:00:15:538,-0.788266,1.6043,-9.60009,-9.44522,-4.10053,84.0352
2023-03-11 15:00:15:548,-0.761292,1.60404,-9.57351,-9.4164,-4.09492,84.0073
2023-03-11 15:00:15:558,-0.747984,1.59126,-9.55735,-9.38951,-4.08932,83.981
2023-03-11 15:00:15:568,-0.739033,1.59999,-9.56836,-9.36916,-4.08573,83.9548
2023-03-11 15:00:15:578,-0.73007,1.63277,-9.60222,-9.34868,-4.08182,83.9261
2023-03-11 15:00:15:588,-0.727105,1.65848,-9.63614,-9.32959,-4.07794,83.8986
2023-03-11 15:00:15:598,-0.704191,1.67829,-9.70911,-9.30709,-4.0767,83.8665
2023-03-11 15:00:15:608,-0.681172,1.69282,-9.74911,-9.27624,-4.07959,83.8325
2023-03-11 15:00:15:618,-0.67265,1.67999,-9.77129,-9.2405,-4.08497,83.7946
2023-03-11 15:00:15:628,-0.665074,1.66475,-9.78193,-9.19402,-4.09468,83.7594
2023-03-11 15:00:15:638,-0.670569,1.63506,-9.74422,-9.1438,-4.10667,83.7224
2023-03-11 15:00:15:648,-0.669192,1.58685,-9.68621,-9.09027,-4.11993,83.6928
2023-03-11 15:00:15:658,-0.64677,1.52991,-9.6485,-9.03701,-4.13105,83.6621
2023-03-11 15:00:15:668,-0.659041,1.50001,-9.63662,-8.98085,-4.14101,83.6388
2023-03-11 15:00:15:678,-0.674046,1.44664,-9.61137,-8.92267,-4.14923,83.6153
2023-03-11 15:00:15:688,-0.685686,1.39039,-9.53572,-8.87114,-4.15671,83.6001
2023-03-11 15:00:15:698,-0.703044,1.3545,-9.52091,-8.82252,-4.15531,83.5906
2023-03-11 15:00:15:708,-0.695964,1.32306,-9.4921,-8.78291,-4.15782,83.5765
2023-03-11 15:00:15:718,-0.68537,1.31377,-9.47041,-8.75544,-4.1585,83.5679
2023-03-11 15:00:15:728,-0.678651,1.35972,-9.49069,-8.73687,-4.15894,83.5597
2023-03-11 15:00:15:738,-0.66644,1.40268,-9.53307,-8.72352,-4.15894,83.553
2023-03-11 15:00:15:748,-0.674436,1.40481,-9.56903,-8.71113,-4.16053,83.547
2023-03-11 15:00:15:758,-0.675961,1.40657,-9.61097,-8.69914,-4.15976,83.5404
2023-03-11 15:00:15:768,-0.636778,1.39796,-9.62693,-8.68712,-4.16125,83.5319
2023-03-11 15:00:15:778,-0.621101,1.38377,-9.62831,-8.67641,-4.16428,83.5294
2023-03-11 15:00:15:788,-0.625446,1.37263,-9.60565,-8.67053,-4.17448,83.528
2023-03-11 15:00:15:798,-0.648892,1.3784,-9.59505,-8.66967,-4.18835,83.5292
2023-03-11 15:00:15:808,-0.685886,1.42508,-9.62095,-8.67636,-4.20687,83.532
2023-03-11 15:00:15:818,-0.726434,1.48513,-9.64842,-8.68546,-4.22287,83.5352
2023-03-11 15:00:15:828,-0.750822,1.52124,-9.67497,-8.69276,-4.23633,83.54
2023-03-11 15:00:15:838,-0.774495,1.53548,-9.66627,-8.69682,-4.2441,83.5463
2023-03-11 15:00:15:848,-0.79311,1.53593,-9.63897,-8.69964,-4.2495,83.5485
2023-03-11 15:00:15:858,-0.790681,1.53386,-9.60506,-8.69981,-4.25402,83.5492
2023-03-11 15:00:15:868,-0.791897,1.51668,-9.5876,-8.69887,-4.25618,83.5509
2023-03-11 15:00:15:878,-0.783049,1.53088,-9.59758,-8.69514,-4.2535,83.5508
2023-03-11 15:00:15:888,-0.766745,1.55216,-9.6158,-8.69582,-4.24993,83.5442
2023-03-11 15:00:15:898,-0.760702,1.56562,-9.65804,-8.6901,-4.24633,83.5401
2023-03-11 15:00:15:908,-0.744796,1.55564,-9.69022,-8.68162,-4.2406,83.5337
2023-03-11 15:00:15:918,-0.731586,1.53357,-9.67354,-8.66793,-4.23168,83.5259
2023-03-11 15:00:15:928,-0.7487,1.49495,-9.63803,-8.65822,-4.229,83.5209
2023-03-11 15:00:15:938,-0.782363,1.46183,-9.60652,-8.64827,-4.22392,83.511
2023-03-11 15:00:15:948,-0.800225,1.45077,-9.57365,-8.64168,-4.22145,83.4947
2023-03-11 15:00:15:958,-0.792838,1.42351,-9.53285,-8.63621,-4.22061,83.4718
2023-03-11 15:00:15:968,-0.788153,1.40476,-9.50124,-8.63888,-4.2183,83.4433
2023-03-11 15:00:15:978,-0.770125,1.39138,-9.51158,-8.64789,-4.21872,83.4062
2023-03-11 15:00:15:988,-0.738307,1.43482,-9.57771,-8.6652,-4.21966,83.3638
2023-03-11 15:00:15:998,-0.669787,1.52523,-9.67707,-8.68429,-4.2225,83.318
2023-03-11 15:00:16:8,-0.609769,1.55405,-9.73758,-8.69877,-4.22745,83.27
2023-03-11 15:00:16:18,-0.602928,1.54179,-9.7367,-8.70747,-4.23559,83.2214
2023-03-11 15:00:16:28,-0.645537,1.52053,-9.66448,-8.71039,-4.24686,83.1725
2023-03-11 15:00:16:38,-0.666172,1.49298,-9.6074,-8.714,-4.25879,83.1264
2023-03-11 15:00:16:48,-0.638768,1.48258,-9.58597,-8.72244,-4.26671,83.0832
2023-03-11 15:00:16:58,-0.58675,1.48999,-9.6143,-8.73443,-4.27235,83.0348
2023-03-11 15:00:16:68,-0.547108,1.48354,-9.64309,-8.74661,-4.28154,82.9908
2023-03-11 15:00:16:78,-0.535941,1.52804,-9.67354,-8.76207,-4.28675,82.9582
2023-03-11 15:00:16:88,-0.541423,1.56004,-9.69206,-8.77349,-4.29099,82.9337
2023-03-11 15:00:16:98,-0.538351,1.55313,-9.67371,-8.78532,-4.29543,82.9169
2023-03-11 15:00:16:108,-0.556746,1.54701,-9.68624,-8.79181,-4.30112,82.9126
2023-03-11 15:00:16:118,-0.59545,1.57616,-9.73005,-8.79875,-4.30259,82.9179
2023-03-11 15:00:16:128,-0.642336,1.58694,-9.73189,-8.80029,-4.30812,82.9256
2023-03-11 15:00:16:138,-0.645445,1.57409,-9.70533,-8.79975,-4.31436,82.9375
2023-03-11 15:00:16:148,-0.656582,1.56276,-9.69777,-8.79809,-4.31695,82.9541
2023-03-11 15:00:16:158,-0.70009,1.56645,-9.70512,-8.79123,-4.3204,82.9747
2023-03-11 15:00:16:168,-0.706853,1.55562,-9.69445,-8.78026,-4.32248,82.994
2023-03-11 15:00:16:178,-0.711627,1.5272,-9.6782,-8.77142,-4.32811,83.0185
2023-03-11 15:00:16:188,-0.731164,1.50737,-9.66141,-8.75927,-4.33452,83.0468
2023-03-11 15:00:16:198,-0.749418,1.50583,-9.66235,-8.74338,-4.34232,83.0757
2023-03-11 15:00:16:208,-0.789073,1.50227,-9.65437,-8.73114,-4.35332,83.1038
2023-03-11 15:00:16:218,-0.837971,1.52507,-9.67865,-8.71746,-4.36611,83.1271
2023-03-11 15:00:16:228,-0.871025,1.54302,-9.69674,-8.70427,-4.37852,83.1494
2023-03-11 15:00:16:238,-0.891441,1.52805,-9.65181,-8.69113,-4.3947,83.17
2023-03-11 15:00:16:248,-0.907483,1.54321,-9.6557,-8.67893,-4.40971,83.1864
2023-03-11 15:00:16:258,-0.909673,1.55971,-9.69863,-8.6658,-4.42093,83.195
2023-03-11 15:00:16:268,-0.87741,1.53497,-9.6965,-8.64615,-4.43117,83.1993
2023-03-11 15:00:16:278,-0.860713,1.52494,-9.68761,-8.62761,-4.43759,83.1966
2023-03-11 15:00:16:288,-0.846166,1.52333,-9.68979,-8.60264,-4.43885,83.1958
2023-03-11 15:00:16:298,-0.817029,1.51498,-9.66164,-8.57461,-4.43655,83.1915
2023-03-11 15:00:16:308,-0.789501,1.48576,-9.60595,-8.54423,-4.43058,83.1912
2023-03-11 15:00:16:318,-0.770903,1.45387,-9.56459,-8.5108,-4.42351,83.1877
2023-03-11 15:00:16:328,-0.784375,1.45808,-9.58849,-8.4784,-4.41342,83.1844
2023-03-11 15:00:16:338,-0.787025,1.44838,-9.6406,-8.44409,-4.40844,83.1768
2023-03-11 15:00:16:348,-0.738044,1.43291,-9.64241,-8.41009,-4.39804,83.167
2023-03-11 15:00:16:358,-0.73463,1.44456,-9.6503,-8.37763,-4.39252,83.1551
2023-03-11 15:00:16:368,-0.719774,1.41454,-9.65623,-8.34151,-4.38952,83.141
2023-03-11 15:00:16:378,-0.697297,1.37587,-9.61869,-8.30852,-4.39127,83.1274
2023-03-11 15:00:16:388,-0.695212,1.34773,-9.58838,-8.27719,-4.39688,83.1171
2023-03-11 15:00:16:398,-0.700342,1.3346,-9.57552,-8.25109,-4.4002,83.1085
2023-03-11 15:00:16:408,-0.716731,1.33349,-9.56349,-8.23092,-4.4045,83.1046
2023-03-11 15:00:16:418,-0.743614,1.337,-9.58385,-8.2161,-4.40762,83.0985
2023-03-11 15:00:16:428,-0.753027,1.35151,-9.58406,-8.20285,-4.4095,83.0923
2023-03-11 15:00:16:438,-0.729982,1.36181,-9.5803,-8.19119,-4.40443,83.0866
2023-03-11 15:00:16:448,-0.698885,1.35687,-9.57768,-8.17632,-4.39724,83.078
2023-03-11 15:00:16:458,-0.662352,1.34013,-9.56735,-8.16622,-4.38813,83.0741
2023-03-11 15:00:16:468,-0.648829,1.31045,-9.60191,-8.16092,-4.37763,83.074
2023-03-11 15:00:16:478,-0.629693,1.33769,-9.66709,-8.15649,-4.37102,83.0709
2023-03-11 15:00:16:488,-0.59735,1.36811,-9.70605,-8.15206,-4.3684,83.0732
2023-03-11 15:00:16:498,-0.591627,1.33932,-9.71741,-8.14754,-4.37201,83.0839
2023-03-11 15:00:16:508,-0.614127,1.29604,-9.65292,-8.14074,-4.37623,83.1005
2023-03-11 15:00:16:518,-0.668868,1.30042,-9.6118,-8.14436,-4.38236,83.1259
2023-03-11 15:00:16:528,-0.732772,1.33842,-9.61829,-8.15123,-4.39023,83.1552
2023-03-11 15:00:16:538,-0.798641,1.37735,-9.63996,-8.15972,-4.39542,83.1857
2023-03-11 15:00:16:548,-0.845169,1.42158,-9.64035,-8.17344,-4.3985,83.22
2023-03-11 15:00:16:558,-0.887483,1.44833,-9.64134,-8.18236,-4.40106,83.2483
2023-03-11 15:00:16:568,-0.910573,1.4716,-9.68805,-8.19116,-4.39644,83.274
2023-03-11 15:00:16:578,-0.921138,1.48538,-9.68013,-8.19196,-4.39594,83.2941
2023-03-11 15:00:16:588,-0.912762,1.46063,-9.64512,-8.19042,-4.39034,83.3022
2023-03-11 15:00:16:598,-0.903535,1.43198,-9.63987,-8.18379,-4.38663,83.3061
2023-03-11 15:00:16:608,-0.889756,1.3984,-9.5875,-8.17863,-4.37911,83.3017
2023-03-11 15:00:16:618,-0.836632,1.36411,-9.56743,-8.17027,-4.37487,83.29
2023-03-11 15:00:16:628,-0.784043,1.36903,-9.59714,-8.16678,-4.36968,83.2757
2023-03-11 15:00:16:638,-0.768374,1.35966,-9.60707,-8.16309,-4.36777,83.2589
2023-03-11 15:00:16:648,-0.740787,1.34861,-9.62809,-8.16328,-4.36538,83.2412
2023-03-11 15:00:16:658,-0.714707,1.3654,-9.66512,-8.16767,-4.35987,83.2236
2023-03-11 15:00:16:668,-0.694139,1.40216,-9.70302,-8.17404,-4.35572,83.2089
2023-03-11 15:00:16:677,-0.667564,1.42123,-9.71565,-8.17672,-4.35014,83.1969
2023-03-11 15:00:16:687,-0.660571,1.42204,-9.71492,-8.17794,-4.34697,83.186
2023-03-11 15:00:16:697,-0.692955,1.42464,-9.70883,-8.17692,-4.34398,83.1786
2023-03-11 15:00:16:707,-0.717844,1.43654,-9.6816,-8.17452,-4.33527,83.1753
2023-03-11 15:00:16:717,-0.678062,1.45469,-9.65987,-8.17335,-4.32283,83.1674
2023-03-11 15:00:16:727,-0.60804,1.42694,-9.67677,-8.16869,-4.31258,83.1629
2023-03-11 15:00:16:737,-0.566413,1.40948,-9.70633,-8.16379,-4.30524,83.1633
2023-03-11 15:00:16:747,-0.59349,1.4311,-9.72889,-8.16055,-4.30243,83.1751
2023-03-11 15:00:16:757,-0.635904,1.43792,-9.72702,-8.15687,-4.30201,83.1894
2023-03-11 15:00:16:767,-0.674044,1.42886,-9.71489,-8.14868,-4.29907,83.2063
2023-03-11 15:00:16:777,-0.683872,1.42409,-9.68774,-8.14036,-4.29383,83.2305
2023-03-11 15:00:16:787,-0.685202,1.42115,-9.66344,-8.1286,-4.28173,83.2593
2023-03-11 15:00:16:797,-0.709168,1.42759,-9.67953,-8.11762,-4.26669,83.2859
2023-03-11 15:00:16:807,-0.729257,1.4201,-9.662,-8.10473,-4.25494,83.3164
2023-03-11 15:00:16:817,-0.764724,1.41493,-9.65479,-8.0928,-4.24527,83.3421
2023-03-11 15:00:16:827,-0.822106,1.41842,-9.6456,-8.07376,-4.24029,83.3639
2023-03-11 15:00:16:837,-0.81516,1.39013,-9.63369,-8.05214,-4.23452,83.3789
2023-03-11 15:00:16:847,-0.774194,1.32654,-9.6178,-8.03279,-4.23124,83.3877
2023-03-11 15:00:16:857,-0.740092,1.30196,-9.61666,-8.01877,-4.23146,83.3936
2023-03-11 15:00:16:867,-0.738783,1.30796,-9.59755,-8.00555,-4.23897,83.397
2023-03-11 15:00:16:877,-0.72177,1.31097,-9.63354,-7.99638,-4.2451,83.3985
2023-03-11 15:00:16:887,-0.717678,1.32403,-9.64533,-7.98623,-4.25032,83.3989
2023-03-11 15:00:16:897,-0.716098,1.3061,-9.64177,-7.97894,-4.26005,83.3947
2023-03-11 15:00:16:907,-0.712836,1.30268,-9.63951,-7.97079,-4.26791,83.3916
2023-03-11 15:00:16:917,-0.7112,1.30537,-9.64409,-7.96075,-4.27486,83.3867
2023-03-11 15:00:16:927,-0.716871,1.30664,-9.64907,-7.9552,-4.28169,83.3819
2023-03-11 15:00:16:937,-0.740786,1.30573,-9.64258,-7.94731,-4.28579,83.3785
2023-03-11 15:00:16:947,-0.739232,1.28616,-9.61182,-7.93755,-4.29128,83.3774
2023-03-11 15:00:16:957,-0.751985,1.27959,-9.60078,-7.93368,-4.2959,83.3759
2023-03-11 15:00:16:967,-0.743156,1.29845,-9.60957,-7.93278,-4.29524,83.375
2023-03-11 15:00:16:977,-0.72649,1.30394,-9.62512,-7.93684,-4.2992,83.3727
2023-03-11 15:00:16:987,-0.725297,1.32885,-9.63791,-7.94489,-4.3031,83.3715
2023-03-11 15:00:16:997,-0.736407,1.34753,-9.68983,-7.94925,-4.30573,83.3701
2023-03-11 15:00:17:7,-0.741437,1.37764,-9.70356,-7.95432,-4.3072,83.3679
2023-03-11 15:00:17:17,-0.71334,1.37745,-9.68828,-7.95556,-4.30663,83.3647
2023-03-11 15:00:17:27,-0.698834,1.367,-9.68301,-7.95222,-4.30337,83.3615
2023-03-11 15:00:17:37,-0.693712,1.34957,-9.66772,-7.9528,-4.30111,83.359
2023-03-11 15:00:17:47,-0.700991,1.34284,-9.63523,-7.95045,-4.30076,83.362
2023-03-11 15:00:17:57,-0.714856,1.34151,-9.62997,-7.95304,-4.29958,83.3609
2023-03-11 15:00:17:67,-0.738545,1.3504,-9.64998,-7.95313,-4.29871,83.3606
2023-03-11 15:00:17:77,-0.74248,1.38322,-9.67655,-7.95279,-4.29928,83.358
2023-03-11 15:00:17:87,-0.729188,1.38824,-9.69132,-7.95514,-4.2967,83.3543
2023-03-11 15:00:17:97,-0.719229,1.37872,-9.6909,-7.95321,-4.29637,83.3491
2023-03-11 15:00:17:107,-0.719142,1.35994,-9.68334,-7.95125,-4.29425,83.3463
2023-03-11 15:00:17:117,-0.711616,1.34756,-9.67653,-7.94416,-4.29553,83.3433
2023-03-11 15:00:17:127,-0.699191,1.31937,-9.68472,-7.93458,-4.29562,83.3376
2023-03-11 15:00:17:137,-0.676049,1.3229,-9.69545,-7.92768,-4.29579,83.3302
2023-03-11 15:00:17:147,-0.679257,1.36599,-9.69012,-7.91863,-4.30113,83.3269
2023-03-11 15:00:17:157,-0.674629,1.37112,-9.69092,-7.90562,-4.30346,83.3196
2023-03-11 15:00:17:167,-0.667293,1.35082,-9.65121,-7.89026,-4.30682,83.3168
2023-03-11 15:00:17:177,-0.651916,1.30933,-9.59581,-7.87806,-4.31098,83.3159
2023-03-11 15:00:17:187,-0.648754,1.27039,-9.60392,-7.86688,-4.31504,83.3149
2023-03-11 15:00:17:197,-0.641407,1.28627,-9.68621,-7.86348,-4.31827,83.3163
2023-03-11 15:00:17:207,-0.632477,1.3424,-9.74705,-7.85813,-4.32403,83.3188
2023-03-11 15:00:17:217,-0.620919,1.35102,-9.75354,-7.84843,-4.33283,83.3269
2023-03-11 15:00:17:227,-0.667211,1.34186,-9.69125,-7.83827,-4.34306,83.3348
2023-03-11 15:00:17:238,-0.742087,1.32426,-9.65135,-7.82836,-4.35609,83.3471
2023-03-11 15:00:17:248,-0.79258,1.32393,-9.62753,-7.82327,-4.36808,83.362
2023-03-11 15:00:17:258,-0.8058,1.33714,-9.61959,-7.81972,-4.38232,83.3764
2023-03-11 15:00:17:268,-0.79,1.3423,-9.61093,-7.82161,-4.38829,83.3897
2023-03-11 15:00:17:278,-0.763904,1.32525,-9.60906,-7.8231,-4.39644,83.4032
2023-03-11 15:00:17:288,-0.765532,1.33605,-9.60212,-7.82434,-4.40589,83.4171
2023-03-11 15:00:17:298,-0.787244,1.34378,-9.60664,-7.82823,-4.41446,83.4284
2023-03-11 15:00:17:308,-0.805396,1.36662,-9.61655,-7.83034,-4.42014,83.4417
2023-03-11 15:00:17:318,-0.821367,1.37002,-9.64269,-7.83116,-4.42729,83.4508
2023-03-11 15:00:17:328,-0.827411,1.3529,-9.64717,-7.8283,-4.43262,83.4565
2023-03-11 15:00:17:338,-0.809135,1.32713,-9.6228,-7.82636,-4.43329,83.4597
2023-03-11 15:00:17:348,-0.801459,1.32096,-9.61214,-7.82318,-4.43495,83.4572
2023-03-11 15:00:17:358,-0.790851,1.30048,-9.60833,-7.82177,-4.43493,83.4532
2023-03-11 15:00:17:368,-0.770754,1.28612,-9.59955,-7.82344,-4.43318,83.4476
2023-03-11 15:00:17:378,-0.762291,1.30396,-9.6153,-7.8288,-4.43483,83.4448
2023-03-11 15:00:17:388,-0.755977,1.33432,-9.65002,-7.8391,-4.43262,83.4411
2023-03-11 15:00:17:398,-0.756462,1.35125,-9.67874,-7.85074,-4.43731,83.4331
2023-03-11 15:00:17:408,-0.759711,1.36719,-9.69169,-7.86093,-4.43707,83.4304
2023-03-11 15:00:17:418,-0.767835,1.38838,-9.70713,-7.86756,-4.436,83.4245
2023-03-11 15:00:17:428,-0.764112,1.41011,-9.70793,-7.87362,-4.43199,83.4188
2023-03-11 15:00:17:438,-0.710932,1.37959,-9.69746,-7.87714,-4.42657,83.407
2023-03-11 15:00:17:448,-0.63324,1.33879,-9.6897,-7.87355,-4.42498,83.3971
2023-03-11 15:00:17:458,-0.631914,1.3303,-9.66906,-7.87312,-4.42002,83.394
2023-03-11 15:00:17:468,-0.690098,1.33816,-9.64464,-7.87581,-4.42552,83.3972
2023-03-11 15:00:17:478,-0.771309,1.34524,-9.63652,-7.87729,-4.43073,83.4017
2023-03-11 15:00:17:488,-0.787603,1.34986,-9.66056,-7.88202,-4.43347,83.4064
2023-03-11 15:00:17:498,-0.76878,1.34897,-9.67154,-7.88634,-4.43297,83.4075
2023-03-11 15:00:17:508,-0.748674,1.34809,-9.68352,-7.88723,-4.42861,83.4097
2023-03-11 15:00:17:518,-0.71144,1.35246,-9.68051,-7.89189,-4.42675,83.4098
2023-03-11 15:00:17:528,-0.698484,1.35563,-9.65518,-7.89264,-4.42578,83.4109
2023-03-11 15:00:17:538,-0.69513,1.35699,-9.63485,-7.89453,-4.42503,83.4124
2023-03-11 15:00:17:548,-0.709809,1.33806,-9.62454,-7.89717,-4.42602,83.4188
2023-03-11 15:00:17:558,-0.710632,1.33321,-9.63035,-7.90393,-4.43188,83.4245
2023-03-11 15:00:17:568,-0.723712,1.33902,-9.65475,-7.91151,-4.43522,83.4315
2023-03-11 15:00:17:578,-0.740667,1.35612,-9.68242,-7.91597,-4.44076,83.4409
2023-03-11 15:00:17:588,-0.772257,1.3533,-9.70367,-7.91807,-4.44629,83.4515
2023-03-11 15:00:17:598,-0.778917,1.37016,-9.70945,-7.91469,-4.44901,83.4606
2023-03-11 15:00:17:608,-0.781761,1.37196,-9.68961,-7.9118,-4.45437,83.4643
2023-03-11 15:00:17:618,-0.782298,1.35586,-9.66724,-7.90823,-4.45847,83.4717
2023-03-11 15:00:17:628,-0.779117,1.33793,-9.64332,-7.90311,-4.46072,83.4769
2023-03-11 15:00:17:638,-0.77416,1.32896,-9.6215,-7.89902,-4.46223,83.4826
2023-03-11 15:00:17:648,-0.771768,1.31491,-9.60408,-7.89755,-4.46158,83.4878
2023-03-11 15:00:17:658,-0.751305,1.30688,-9.61724,-7.89827,-4.46006,83.4938
2023-03-11 15:00:17:668,-0.757887,1.32327,-9.62302,-7.90404,-4.45673,83.5018
2023-03-11 15:00:17:678,-0.774253,1.335,-9.62907,-7.90884,-4.45991,83.5107
2023-03-11 15:00:17:688,-0.814151,1.35481,-9.63549,-7.91791,-4.45617,83.5191
2023-03-11 15:00:17:698,-0.825782,1.36177,-9.63728,-7.92426,-4.456,83.5247
2023-03-11 15:00:17:708,-0.811714,1.36563,-9.64613,-7.92692,-4.45362,83.5286
2023-03-11 15:00:17:718,-0.802922,1.36639,-9.66366,-7.9321,-4.45188,83.5304
2023-03-11 15:00:17:728,-0.784933,1.38024,-9.6666,-7.93514,-4.44723,83.5304
2023-03-11 15:00:17:738,-0.757702,1.37633,-9.67482,-7.93706,-4.44196,83.5279
2023-03-11 15:00:17:748,-0.737161,1.37476,-9.68209,-7.94163,-4.43579,83.5251
2023-03-11 15:00:17:758,-0.690214,1.38612,-9.69814,-7.94185,-4.42955,83.52
2023-03-11 15:00:17:767,-0.641036,1.38473,-9.71641,-7.94326,-4.42157,83.5202
2023-03-11 15:00:17:777,-0.617393,1.38715,-9.72528,-7.94137,-4.41403,83.5246
2023-03-11 15:00:17:787,-0.634735,1.37031,-9.72412,-7.93365,-4.40985,83.5312
2023-03-11 15:00:17:797,-0.662583,1.36496,-9.71025,-7.92375,-4.40923,83.5426
2023-03-11 15:00:17:807,-0.719313,1.37975,-9.70146,-7.91544,-4.41053,83.5568
2023-03-11 15:00:17:818,-0.755591,1.37944,-9.66837,-7.90433,-4.41199,83.5694
2023-03-11 15:00:17:827,-0.768155,1.36926,-9.63588,-7.89486,-4.41406,83.5817
2023-03-11 15:00:17:838,-0.771092,1.35099,-9.61368,-7.88496,-4.41643,83.5897
2023-03-11 15:00:17:848,-0.756592,1.33408,-9.61335,-7.87966,-4.41783,83.5963
2023-03-11 15:00:17:858,-0.754227,1.33613,-9.60786,-7.87707,-4.42022,83.6
2023-03-11 15:00:17:868,-0.749084,1.33137,-9.61236,-7.87378,-4.42051,83.6053
2023-03-11 15:00:17:878,-0.72877,1.32214,-9.62502,-7.87323,-4.41969,83.6084
2023-03-11 15:00:17:888,-0.704135,1.32345,-9.65368,-7.87348,-4.42218,83.6137
2023-03-11 15:00:17:898,-0.688902,1.33495,-9.6604,-7.87439,-4.42085,83.6194
2023-03-11 15:00:17:908,-0.674174,1.34102,-9.65442,-7.87085,-4.41774,83.6292
2023-03-11 15:00:17:918,-0.66411,1.32071,-9.63729,-7.86704,-4.41145,83.643
2023-03-11 15:00:17:928,-0.678839,1.30215,-9.62195,-7.8656,-4.40553,83.6555
2023-03-11 15:00:17:938,-0.675873,1.29285,-9.63151,-7.87047,-4.39953,83.6746
2023-03-11 15:00:17:948,-0.679242,1.31369,-9.68887,-7.87475,-4.39355,83.6972
2023-03-11 15:00:17:958,-0.684029,1.32984,-9.72517,-7.8817,-4.39106,83.7158
2023-03-11 15:00:17:968,-0.649378,1.30718,-9.713,-7.87978,-4.38834,83.736
2023-03-11 15:00:17:978,-0.594444,1.27083,-9.69967,-7.87951,-4.38997,83.7599
2023-03-11 15:00:17:988,-0.545194,1.26508,-9.6784,-7.88588,-4.38741,83.7927
2023-03-11 15:00:17:998,-0.524377,1.26743,-9.65631,-7.89139,-4.3778,83.8375
2023-03-11 15:00:18:8,-0.563735,1.29006,-9.63045,-7.89711,-4.36335,83.8967
2023-03-11 15:00:18:18,-0.648811,1.3165,-9.62783,-7.90745,-4.34439,83.9663
2023-03-11 15:00:18:28,-0.717631,1.33593,-9.60959,-7.91695,-4.32554,84.0471
2023-03-11 15:00:18:38,-0.783042,1.35178,-9.58846,-7.92837,-4.30536,84.127
2023-03-11 15:00:18:48,-0.815405,1.36545,-9.60215,-7.94049,-4.27934,84.2067
2023-03-11 15:00:18:58,-0.837946,1.38728,-9.59846,-7.95178,-4.25526,84.2805
2023-03-11 15:00:18:68,-0.855468,1.39825,-9.60847,-7.96591,-4.2327,84.3451
2023-03-11 15:00:18:78,-0.864471,1.4055,-9.63471,-7.97694,-4.21203,84.4039
2023-03-11 15:00:18:88,-0.849438,1.4033,-9.65969,-7.98636,-4.19814,84.452
2023-03-11 15:00:18:98,-0.84199,1.41386,-9.64408,-7.99452,-4.18456,84.4895
2023-03-11 15:00:18:108,-0.810563,1.3907,-9.63366,-8.00421,-4.17464,84.5205
2023-03-11 15:00:18:118,-0.791228,1.36508,-9.62918,-8.0143,-4.16473,84.5384
2023-03-11 15:00:18:128,-0.789163,1.3745,-9.63526,-8.02712,-4.15963,84.5472
2023-03-11 15:00:18:138,-0.761199,1.38973,-9.64813,-8.04439,-4.16044,84.5535
2023-03-11 15:00:18:148,-0.740479,1.40688,-9.67026,-8.06143,-4.16007,84.5544
2023-03-11 15:00:18:158,-0.769607,1.43734,-9.70143,-8.08054,-4.16621,84.5497
2023-03-11 15:00:18:168,-0.780828,1.45994,-9.73187,-8.09936,-4.17311,84.5416
2023-03-11 15:00:18:178,-0.764051,1.47499,-9.7563,-8.11094,-4.17872,84.5271
2023-03-11 15:00:18:188,-0.702524,1.46551,-9.75283,-8.11878,-4.18531,84.5122
2023-03-11 15:00:18:198,-0.6309,1.42872,-9.72346,-8.11953,-4.18987,84.4956
2023-03-11 15:00:18:208,-0.614823,1.39082,-9.66987,-8.12136,-4.19461,84.4843
2023-03-11 15:00:18:218,-0.65021,1.36744,-9.63383,-8.12161,-4.20012,84.4779
2023-03-11 15:00:18:228,-0.697177,1.37661,-9.63785,-8.12663,-4.20971,84.4758
2023-03-11 15:00:18:237,-0.724456,1.37795,-9.67037,-8.13039,-4.21694,84.4757
2023-03-11 15:00:18:247,-0.724389,1.40027,-9.68598,-8.13678,-4.21944,84.4751
2023-03-11 15:00:18:257,-0.725572,1.41771,-9.70139,-8.14021,-4.21689,84.477
2023-03-11 15:00:18:267,-0.723435,1.42164,-9.69202,-8.14163,-4.21566,84.4768
2023-03-11 15:00:18:277,-0.723839,1.42035,-9.68267,-8.1447,-4.21091,84.4813
2023-03-11 15:00:18:287,-0.728442,1.4169,-9.6654,-8.14313,-4.21069,84.4838
2023-03-11 15:00:18:298,-0.732337,1.41703,-9.64902,-8.13935,-4.21048,84.4871
2023-03-11 15:00:18:308,-0.73108,1.41684,-9.6423,-8.13694,-4.21129,84.4866
2023-03-11 15:00:18:318,-0.749357,1.40116,-9.64674,-8.13371,-4.2133,84.4854
2023-03-11 15:00:18:328,-0.768409,1.39479,-9.62962,-8.13061,-4.21813,84.4844
2023-03-11 15:00:18:338,-0.787613,1.40054,-9.62149,-8.12758,-4.22096,84.4785
2023-03-11 15:00:18:348,-0.786085,1.39812,-9.63497,-8.12608,-4.22772,84.4706
2023-03-11 15:00:18:358,-0.776675,1.41149,-9.67832,-8.12527,-4.23454,84.4616
2023-03-11 15:00:18:368,-0.758202,1.41745,-9.69646,-8.12426,-4.23671,84.4487
2023-03-11 15:00:18:378,-0.753233,1.41034,-9.68293,-8.12334,-4.23906,84.4348
2023-03-11 15:00:18:388,-0.74909,1.41127,-9.68785,-8.11979,-4.24335,84.4242
2023-03-11 15:00:18:398,-0.749444,1.40938,-9.67225,-8.11507,-4.24754,84.4131
2023-03-11 15:00:18:408,-0.750869,1.40433,-9.67295,-8.11055,-4.24794,84.4022
2023-03-11 15:00:18:418,-0.745534,1.39525,-9.67677,-8.10299,-4.25021,84.3918
2023-03-11 15:00:18:428,-0.739556,1.38197,-9.66321,-8.0952,-4.24792,84.3844
2023-03-11 15:00:18:438,-0.756754,1.38891,-9.6543,-8.08574,-4.24823,84.3741
2023-03-11 15:00:18:448,-0.76519,1.39664,-9.69159,-8.07367,-4.24886,84.3625
2023-03-11 15:00:18:458,-0.756525,1.43467,-9.76028,-8.06463,-4.24731,84.3532
2023-03-11 15:00:18:468,-0.773056,1.46994,-9.81247,-8.0495,-4.24825,84.3428
2023-03-11 15:00:18:478,-0.777914,1.48314,-9.80567,-8.02233,-4.24831,84.3267
2023-03-11 15:00:18:488,-0.768017,1.45687,-9.75086,-7.9899,-4.2472,84.3098
2023-03-11 15:00:18:498,-0.765639,1.41007,-9.69635,-7.95274,-4.24663,84.2956
2023-03-11 15:00:18:508,-0.743076,1.37142,-9.66896,-7.91257,-4.24442,84.2777
2023-03-11 15:00:18:518,-0.700404,1.34025,-9.66796,-7.87677,-4.23836,84.2596
2023-03-11 15:00:18:528,-0.65163,1.32481,-9.69801,-7.84144,-4.23302,84.2413
2023-03-11 15:00:18:538,-0.63646,1.35084,-9.71234,-7.80522,-4.23139,84.2245
2023-03-11 15:00:18:548,-0.697549,1.3777,-9.71849,-7.76591,-4.23004,84.2158
2023-03-11 15:00:18:558,-0.780501,1.34056,-9.66534,-7.72045,-4.22826,84.2035
2023-03-11 15:00:18:568,-0.785173,1.31025,-9.60459,-7.67814,-4.22113,84.1887
2023-03-11 15:00:18:578,-0.724995,1.303,-9.64179,-7.6331,-4.20802,84.174
2023-03-11 15:00:18:588,-0.665045,1.27249,-9.64137,-7.59205,-4.19935,84.1537
2023-03-11 15:00:18:598,-0.627792,1.23972,-9.5799,-7.55547,-4.19256,84.1319
2023-03-11 15:00:18:608,-0.61741,1.21482,-9.5553,-7.52735,-4.18701,84.1147
2023-03-11 15:00:18:618,-0.61058,1.22085,-9.57383,-7.50638,-4.18615,84.1035
2023-03-11 15:00:18:628,-0.620296,1.24249,-9.62983,-7.48784,-4.18071,84.0953
2023-03-11 15:00:18:638,-0.621325,1.2467,-9.6573,-7.47132,-4.18057,84.0889
2023-03-11 15:00:18:648,-0.631694,1.2517,-9.66217,-7.44948,-4.1753,84.0857
2023-03-11 15:00:18:658,-0.653578,1.2708,-9.65863,-7.42712,-4.16508,84.084
2023-03-11 15:00:18:668,-0.674537,1.28332,-9.68745,-7.40313,-4.15167,84.0845
2023-03-11 15:00:18:678,-0.640607,1.26954,-9.65682,-7.37515,-4.13343,84.0784
2023-03-11 15:00:18:688,-0.600352,1.24606,-9.62676,-7.34644,-4.11273,84.078
2023-03-11 15:00:18:698,-0.56953,1.22568,-9.60905,-7.32098,-4.09113,84.0776
2023-03-11 15:00:18:708,-0.581321,1.20806,-9.60738,-7.29924,-4.07339,84.0824
2023-03-11 15:00:18:718,-0.572826,1.17938,-9.63654,-7.28505,-4.06037,84.0846
2023-03-11 15:00:18:728,-0.55122,1.20061,-9.73239,-7.27689,-4.05512,84.0932
2023-03-11 15:00:18:738,-0.543524,1.23428,-9.80593,-7.27059,-4.05687,84.1026
2023-03-11 15:00:18:748,-0.61219,1.27079,-9.83826,-7.25751,-4.05985,84.1151
2023-03-11 15:00:18:758,-0.767453,1.30813,-9.80031,-7.23692,-4.07101,84.1255
2023-03-11 15:00:18:768,-0.821196,1.29367,-9.75999,-7.21108,-4.07547,84.1292
2023-03-11 15:00:18:778,-0.77057,1.27301,-9.71805,-7.17822,-4.06778,84.1276
2023-03-11 15:00:18:788,-0.692014,1.23796,-9.68404,-7.14033,-4.05106,84.1245
2023-03-11 15:00:18:798,-0.668884,1.19519,-9.63805,-7.1042,-4.03619,84.1267
2023-03-11 15:00:18:808,-0.665151,1.19589,-9.60011,-7.07232,-4.02079,84.1298
2023-03-11 15:00:18:818,-0.710365,1.18877,-9.59595,-7.04246,-4.00655,84.1356
2023-03-11 15:00:18:828,-0.716783,1.18209,-9.55665,-7.01703,-3.99801,84.1391
2023-03-11 15:00:18:838,-0.681015,1.13927,-9.51858,-6.99292,-3.99517,84.1385
2023-03-11 15:00:18:848,-0.625489,1.12616,-9.54742,-6.98179,-4.00031,84.1406
2023-03-11 15:00:18:858,-0.632042,1.15118,-9.61897,-6.9737,-4.00541,84.143
2023-03-11 15:00:18:868,-0.662961,1.17192,-9.67264,-6.96835,-4.01353,84.1473
2023-03-11 15:00:18:878,-0.680506,1.17892,-9.67891,-6.963,-4.01826,84.1497
2023-03-11 15:00:18:888,-0.689455,1.17027,-9.67796,-6.95531,-4.02527,84.154
2023-03-11 15:00:18:898,-0.688612,1.16634,-9.67682,-6.94965,-4.03071,84.1594
2023-03-11 15:00:18:908,-0.66552,1.15306,-9.67528,-6.94652,-4.03186,84.1615
2023-03-11 15:00:18:918,-0.637953,1.16837,-9.67654,-6.94793,-4.03383,84.1627
2023-03-11 15:00:18:928,-0.615937,1.1732,-9.68556,-6.95272,-4.0426,84.1652
2023-03-11 15:00:18:938,-0.641989,1.17109,-9.6977,-6.95625,-4.05074,84.1732
2023-03-11 15:00:18:948,-0.701605,1.17,-9.70137,-6.96124,-4.06358,84.1822
2023-03-11 15:00:18:958,-0.740141,1.19925,-9.72099,-6.96314,-4.0728,84.1886
2023-03-11 15:00:18:968,-0.71124,1.21335,-9.7497,-6.96576,-4.08269,84.19
2023-03-11 15:00:18:978,-0.668049,1.20345,-9.75745,-6.96172,-4.0957,84.1908
2023-03-11 15:00:18:988,-0.664752,1.16869,-9.72168,-6.95334,-4.10775,84.1898
2023-03-11 15:00:18:998,-0.704245,1.12917,-9.65663,-6.94466,-4.12347,84.1916
2023-03-11 15:00:19:8,-0.758108,1.11338,-9.61192,-6.93709,-4.13967,84.1938
2023-03-11 15:00:19:18,-0.772319,1.12017,-9.60328,-6.93646,-4.15311,84.1944
2023-03-11 15:00:19:28,-0.774573,1.12944,-9.62895,-6.9383,-4.16379,84.1938
2023-03-11 15:00:19:38,-0.761705,1.1395,-9.67539,-6.94206,-4.17466,84.1925
2023-03-11 15:00:19:48,-0.750658,1.17574,-9.69582,-6.94489,-4.18006,84.1898
2023-03-11 15:00:19:58,-0.748095,1.18919,-9.71921,-6.94617,-4.18135,84.184
2023-03-11 15:00:19:68,-0.748146,1.19884,-9.70643,-6.94188,-4.18178,84.1785
2023-03-11 15:00:19:78,-0.735497,1.18024,-9.67587,-6.93733,-4.18184,84.1702
2023-03-11 15:00:19:88,-0.718889,1.17949,-9.63782,-6.92984,-4.18369,84.1609
2023-03-11 15:00:19:98,-0.709025,1.17214,-9.61516,-6.92633,-4.1792,84.1537
2023-03-11 15:00:19:108,-0.700162,1.17151,-9.61395,-6.92324,-4.17846,84.1456
2023-03-11 15:00:19:118,-0.691207,1.17081,-9.6323,-6.93017,-4.17339,84.1391
2023-03-11 15:00:19:128,-0.685028,1.18434,-9.66644,-6.93599,-4.17038,84.1382
2023-03-11 15:00:19:138,-0.674595,1.1885,-9.69895,-6.93947,-4.16442,84.1369
2023-03-11 15:00:19:148,-0.681021,1.2022,-9.73068,-6.94592,-4.1622,84.1331
2023-03-11 15:00:19:158,-0.705205,1.22455,-9.763,-6.95154,-4.15804,84.1361
2023-03-11 15:00:19:168,-0.716218,1.23335,-9.75474,-6.95101,-4.15543,84.1361
2023-03-11 15:00:19:178,-0.7387,1.22952,-9.73014,-6.9539,-4.15146,84.1366
2023-03-11 15:00:19:188,-0.738578,1.21932,-9.71191,-6.9537,-4.14497,84.1367
2023-03-11 15:00:19:198,-0.731438,1.22052,-9.7025,-6.94935,-4.14234,84.1339
2023-03-11 15:00:19:208,-0.713529,1.21172,-9.69054,-6.95059,-4.13445,84.1305
2023-03-11 15:00:19:217,-0.73224,1.20771,-9.65819,-6.9505,-4.1303,84.1248
2023-03-11 15:00:19:228,-0.729051,1.20269,-9.65439,-6.95051,-4.12241,84.1214
2023-03-11 15:00:19:238,-0.705503,1.20994,-9.66172,-6.95313,-4.11665,84.1127
2023-03-11 15:00:19:248,-0.704815,1.22047,-9.67988,-6.95894,-4.108,84.105
2023-03-11 15:00:19:258,-0.709922,1.22913,-9.68897,-6.95959,-4.09298,84.0955
2023-03-11 15:00:19:268,-0.72553,1.23339,-9.69686,-6.95783,-4.0797,84.0845
2023-03-11 15:00:19:278,-0.719449,1.23384,-9.70139,-6.9576,-4.06315,84.0716
2023-03-11 15:00:19:288,-0.695215,1.21872,-9.68826,-6.95504,-4.04169,84.0566
2023-03-11 15:00:19:298,-0.64689,1.18429,-9.67488,-6.95248,-4.02355,84.0385
2023-03-11 15:00:19:308,-0.605674,1.17408,-9.65666,-6.94828,-4.00774,84.0219
2023-03-11 15:00:19:318,-0.586066,1.16785,-9.64348,-6.94441,-3.99061,84.0031
2023-03-11 15:00:19:328,-0.596446,1.17398,-9.64892,-6.94413,-3.97855,83.9865
2023-03-11 15:00:19:338,-0.591776,1.19407,-9.65312,-6.94912,-3.96764,83.97
2023-03-11 15:00:19:348,-0.587731,1.18578,-9.66766,-6.94979,-3.95582,83.9568
2023-03-11 15:00:19:358,-0.604619,1.20013,-9.6885,-6.95126,-3.94382,83.9467
2023-03-11 15:00:19:368,-0.609009,1.21192,-9.72844,-6.94973,-3.93605,83.9363
2023-03-11 15:00:19:378,-0.614536,1.22846,-9.76628,-6.94808,-3.92147,83.931
2023-03-11 15:00:19:388,-0.635942,1.22075,-9.77681,-6.94278,-3.91204,83.9228
2023-03-11 15:00:19:398,-0.628955,1.18945,-9.76074,-6.9264,-3.90333,83.9127
2023-03-11 15:00:19:408,-0.620266,1.16125,-9.70769,-6.91258,-3.89352,83.9007
2023-03-11 15:00:19:418,-0.609546,1.12652,-9.65699,-6.89711,-3.88519,83.8884
2023-03-11 15:00:19:428,-0.613183,1.10861,-9.63106,-6.88921,-3.88333,83.8778
2023-03-11 15:00:19:438,-0.60931,1.11854,-9.62132,-6.88563,-3.88378,83.8663
2023-03-11 15:00:19:448,-0.589941,1.12531,-9.63869,-6.88451,-3.88354,83.8561
2023-03-11 15:00:19:458,-0.589132,1.13974,-9.67033,-6.88468,-3.88333,83.8506
2023-03-11 15:00:19:468,-0.605867,1.14139,-9.73526,-6.88784,-3.88187,83.8437
2023-03-11 15:00:19:478,-0.610958,1.1537,-9.78274,-6.88623,-3.883,83.8423
2023-03-11 15:00:19:488,-0.594472,1.1658,-9.78394,-6.88361,-3.88155,83.8401
2023-03-11 15:00:19:498,-0.573416,1.14088,-9.74209,-6.87817,-3.88071,83.8392
2023-03-11 15:00:19:508,-0.579362,1.10808,-9.68107,-6.871,-3.88413,83.8433
2023-03-11 15:00:19:518,-0.624418,1.09718,-9.61497,-6.86831,-3.89075,83.8536
2023-03-11 15:00:19:528,-0.669375,1.13146,-9.60762,-6.8734,-3.89655,83.8647
2023-03-11 15:00:19:538,-0.710006,1.16916,-9.64349,-6.88039,-3.90247,83.8784
2023-03-11 15:00:19:548,-0.729277,1.2145,-9.67769,-6.88921,-3.90743,83.8901
2023-03-11 15:00:19:558,-0.724988,1.22662,-9.69687,-6.89274,-3.90549,83.8995
2023-03-11 15:00:19:568,-0.704399,1.21089,-9.72126,-6.89683,-3.9069,83.9087
2023-03-11 15:00:19:578,-0.690034,1.22789,-9.73238,-6.89754,-3.9095,83.9149
2023-03-11 15:00:19:588,-0.686619,1.23502,-9.72206,-6.89544,-3.91189,83.919
2023-03-11 15:00:19:598,-0.707725,1.22733,-9.6891,-6.89448,-3.91267,83.9206
2023-03-11 15:00:19:608,-0.701398,1.20942,-9.65255,-6.88883,-3.9163,83.921
2023-03-11 15:00:19:618,-0.689831,1.17859,-9.62712,-6.88185,-3.91662,83.9164
2023-03-11 15:00:19:628,-0.681563,1.16278,-9.61966,-6.87819,-3.91854,83.911
2023-03-11 15:00:19:638,-0.654264,1.16127,-9.64996,-6.87947,-3.91601,83.907
2023-03-11 15:00:19:648,-0.623576,1.15733,-9.68037,-6.88043,-3.91211,83.902
2023-03-11 15:00:19:658,-0.598542,1.16396,-9.71578,-6.88631,-3.91161,83.8996
2023-03-11 15:00:19:668,-0.569211,1.17225,-9.73325,-6.8931,-3.91075,83.8947
2023-03-11 15:00:19:678,-0.553391,1.19999,-9.72438,-6.90115,-3.91717,83.8966
2023-03-11 15:00:19:688,-0.575845,1.21442,-9.69199,-6.90641,-3.92751,83.9057
2023-03-11 15:00:19:698,-0.63116,1.207,-9.67369,-6.91178,-3.93522,83.9146
2023-03-11 15:00:19:708,-0.687698,1.19375,-9.66256,-6.92131,-3.94241,83.9232
2023-03-11 15:00:19:718,-0.666272,1.21112,-9.68738,-6.92729,-3.94949,83.9304
2023-03-11 15:00:19:728,-0.591048,1.21666,-9.73259,-6.93394,-3.95621,83.9339
2023-03-11 15:00:19:738,-0.567803,1.21844,-9.75248,-6.94093,-3.96595,83.9421
2023-03-11 15:00:19:748,-0.617673,1.23317,-9.77362,-6.9392,-3.98216,83.9536
2023-03-11 15:00:19:758,-0.679047,1.24386,-9.75519,-6.93387,-4.00061,83.9692
2023-03-11 15:00:19:768,-0.717553,1.21346,-9.73394,-6.92812,-4.01531,83.982
2023-03-11 15:00:19:778,-0.722271,1.19616,-9.71212,-6.9227,-4.02788,83.9961
2023-03-11 15:00:19:788,-0.708859,1.18421,-9.70304,-6.91886,-4.0373,84.0086
2023-03-11 15:00:19:798,-0.697878,1.17741,-9.70231,-6.90979,-4.0434,84.018
2023-03-11 15:00:19:808,-0.695415,1.17156,-9.69021,-6.90151,-4.04983,84.0267
2023-03-11 15:00:19:818,-0.693842,1.16317,-9.65756,-6.89786,-4.05775,84.0349
2023-03-11 15:00:19:828,-0.678707,1.15817,-9.66086,-6.89641,-4.0658,84.0447
2023-03-11 15:00:19:838,-0.68673,1.15924,-9.66791,-6.89544,-4.06869,84.0533
2023-03-11 15:00:19:848,-0.687593,1.172,-9.67584,-6.89539,-4.07429,84.0617
2023-03-11 15:00:19:858,-0.688531,1.17936,-9.68813,-6.89411,-4.0799,84.0708
2023-03-11 15:00:19:868,-0.697633,1.17554,-9.71553,-6.89312,-4.08258,84.0788
2023-03-11 15:00:19:878,-0.701117,1.17236,-9.72156,-6.88948,-4.08692,84.086
2023-03-11 15:00:19:888,-0.701503,1.17126,-9.71984,-6.88604,-4.08936,84.0959
2023-03-11 15:00:19:898,-0.721939,1.19148,-9.72614,-6.88029,-4.09483,84.104
2023-03-11 15:00:19:908,-0.761861,1.20176,-9.74275,-6.86968,-4.10442,84.1076
2023-03-11 15:00:19:918,-0.774848,1.20357,-9.73588,-6.8564,-4.11083,84.1113
2023-03-11 15:00:19:928,-0.769473,1.19446,-9.70083,-6.842,-4.12328,84.1128
2023-03-11 15:00:19:938,-0.768231,1.16401,-9.66791,-6.8271,-4.13384,84.111
2023-03-11 15:00:19:948,-0.78827,1.14601,-9.6409,-6.81627,-4.14317,84.1107
2023-03-11 15:00:19:958,-0.810984,1.17138,-9.6347,-6.80669,-4.1538,84.103
2023-03-11 15:00:19:968,-0.768088,1.16957,-9.65397,-6.79939,-4.1622,84.0888
2023-03-11 15:00:19:978,-0.712015,1.15428,-9.66536,-6.79351,-4.16918,84.0696
2023-03-11 15:00:19:988,-0.690269,1.17387,-9.68825,-6.78574,-4.1733,84.0542
2023-03-11 15:00:19:998,-0.688926,1.184,-9.69446,-6.78107,-4.17366,84.042
2023-03-11 15:00:20:8,-0.682117,1.1739,-9.69472,-6.77198,-4.17468,84.0262
2023-03-11 15:00:20:18,-0.668162,1.17136,-9.70257,-6.76433,-4.17423,84.016
2023-03-11 15:00:20:28,-0.640168,1.15928,-9.70108,-6.75621,-4.169,84.0046
2023-03-11 15:00:20:38,-0.635071,1.13366,-9.6756,-6.74381,-4.16902,83.9991
2023-03-11 15:00:20:48,-0.639023,1.11309,-9.64982,-6.73741,-4.16308,83.9965
2023-03-11 15:00:20:58,-0.648071,1.11015,-9.6368,-6.73487,-4.16061,83.9936
2023-03-11 15:00:20:68,-0.650386,1.12565,-9.65406,-6.73573,-4.15988,83.9895
2023-03-11 15:00:20:78,-0.649175,1.13411,-9.68983,-6.73382,-4.15701,83.9896
2023-03-11 15:00:20:88,-0.642386,1.14816,-9.72771,-6.73894,-4.15694,83.9906
2023-03-11 15:00:20:98,-0.64513,1.17064,-9.76528,-6.7351,-4.15926,83.9941
2023-03-11 15:00:20:108,-0.654681,1.178,-9.76717,-6.72578,-4.16104,84.0004
2023-03-11 15:00:20:118,-0.676835,1.17418,-9.73129,-6.71822,-4.16233,84.0078
2023-03-11 15:00:20:128,-0.679003,1.15983,-9.69979,-6.70661,-4.16658,84.0143
2023-03-11 15:00:20:138,-0.671837,1.1438,-9.67966,-6.69553,-4.17046,84.0217
2023-03-11 15:00:20:148,-0.67515,1.13984,-9.65153,-6.6898,-4.17657,84.0297
2023-03-11 15:00:20:158,-0.673583,1.12132,-9.67328,-6.68519,-4.18051,84.0374
2023-03-11 15:00:20:168,-0.708822,1.12645,-9.68162,-6.67496,-4.18587,84.0459
2023-03-11 15:00:20:178,-0.730456,1.11902,-9.68712,-6.66845,-4.18607,84.0534
2023-03-11 15:00:20:188,-0.752834,1.11713,-9.70181,-6.66347,-4.18805,84.06
2023-03-11 15:00:20:198,-0.766135,1.14445,-9.68281,-6.65768,-4.19053,84.0694
2023-03-11 15:00:20:208,-0.747111,1.12612,-9.66052,-6.65356,-4.1903,84.0746
2023-03-11 15:00:20:218,-0.724482,1.11244,-9.64657,-6.64919,-4.18845,84.0784
2023-03-11 15:00:20:228,-0.728559,1.10377,-9.61742,-6.64617,-4.19014,84.0827
2023-03-11 15:00:20:238,-0.731378,1.09585,-9.63579,-6.6463,-4.18894,84.0854
2023-03-11 15:00:20:248,-0.715947,1.12268,-9.69119,-6.65271,-4.18533,84.0883
2023-03-11 15:00:20:258,-0.67904,1.14768,-9.72546,-6.65937,-4.18224,84.0878
2023-03-11 15:00:20:268,-0.625542,1.13264,-9.73681,-6.66271,-4.18042,84.0875
2023-03-11 15:00:20:278,-0.616672,1.10565,-9.71218,-6.66271,-4.18278,84.0947
2023-03-11 15:00:20:288,-0.669573,1.11364,-9.70242,-6.66753,-4.18849,84.1073
2023-03-11 15:00:20:298,-0.744571,1.14656,-9.70164,-6.67574,-4.19643,84.123
2023-03-11 15:00:20:308,-0.789959,1.18773,-9.72523,-6.68261,-4.20574,84.1421
2023-03-11 15:00:20:318,-0.800913,1.20786,-9.73277,-6.69141,-4.20804,84.1602
2023-03-11 15:00:20:328,-0.803614,1.22358,-9.74718,-6.69441,-4.2066,84.1783
2023-03-11 15:00:20:338,-0.778664,1.23764,-9.75556,-6.69095,-4.20497,84.1925
2023-03-11 15:00:20:348,-0.762957,1.23704,-9.73105,-6.68851,-4.2002,84.2051
2023-03-11 15:00:20:358,-0.759603,1.21324,-9.69875,-6.68028,-4.19701,84.2116
2023-03-11 15:00:20:368,-0.764034,1.18574,-9.658,-6.66761,-4.19362,84.2127
2023-03-11 15:00:20:378,-0.766642,1.15183,-9.63645,-6.65721,-4.19172,84.2099
2023-03-11 15:00:20:388,-0.753426,1.13096,-9.62951,-6.64825,-4.18583,84.2063
2023-03-11 15:00:20:398,-0.745544,1.12007,-9.63838,-6.63705,-4.18343,84.2008
2023-03-11 15:00:20:408,-0.723187,1.12524,-9.64545,-6.63069,-4.18198,84.192
2023-03-11 15:00:20:418,-0.727472,1.13271,-9.67466,-6.62656,-4.18074,84.1835
2023-03-11 15:00:20:428,-0.719317,1.13137,-9.69349,-6.62151,-4.17514,84.1748
2023-03-11 15:00:20:438,-0.696645,1.12829,-9.7084,-6.61681,-4.17035,84.1679
2023-03-11 15:00:20:448,-0.672832,1.13711,-9.71039,-6.61658,-4.16481,84.1587
2023-03-11 15:00:20:458,-0.656669,1.13727,-9.71049,-6.61442,-4.16129,84.1506
2023-03-11 15:00:20:468,-0.677229,1.12327,-9.68553,-6.61133,-4.15456,84.1421
2023-03-11 15:00:20:478,-0.705855,1.12568,-9.67225,-6.60895,-4.14622,84.1358
2023-03-11 15:00:20:488,-0.7155,1.13972,-9.66971,-6.60838,-4.13667,84.1293
2023-03-11 15:00:20:498,-0.671347,1.12974,-9.66842,-6.60954,-4.12355,84.1214
2023-03-11 15:00:20:508,-0.602036,1.11893,-9.69076,-6.60758,-4.11014,84.1073
2023-03-11 15:00:20:518,-0.584396,1.11403,-9.7134,-6.6072,-4.10351,84.0985
2023-03-11 15:00:20:528,-0.610932,1.12653,-9.71237,-6.60589,-4.1004,84.0939
2023-03-11 15:00:20:538,-0.661301,1.13561,-9.70735,-6.60453,-4.0949,84.0904
2023-03-11 15:00:20:548,-0.681589,1.10815,-9.69019,-6.60302,-4.09028,84.0898
2023-03-11 15:00:20:558,-0.669373,1.09945,-9.68727,-6.59878,-4.08385,84.0874
2023-03-11 15:00:20:568,-0.651926,1.11258,-9.71065,-6.59962,-4.07842,84.0845
2023-03-11 15:00:20:578,-0.668028,1.12006,-9.70606,-6.60118,-4.07597,84.0841
2023-03-11 15:00:20:588,-0.693744,1.13291,-9.69182,-6.59933,-4.07408,84.081
2023-03-11 15:00:20:598,-0.69408,1.14943,-9.70171,-6.59945,-4.0742,84.08
2023-03-11 15:00:20:608,-0.678463,1.1372,-9.67755,-6.59528,-4.07143,84.0738
2023-03-11 15:00:20:618,-0.661036,1.11227,-9.63703,-6.59423,-4.07203,84.0652
2023-03-11 15:00:20:628,-0.653434,1.10764,-9.63513,-6.59653,-4.07439,84.0546
2023-03-11 15:00:20:638,-0.644608,1.11188,-9.6669,-6.59963,-4.07356,84.0483
2023-03-11 15:00:20:648,-0.640397,1.13093,-9.70243,-6.60544,-4.0784,84.04
2023-03-11 15:00:20:658,-0.647807,1.14809,-9.73312,-6.60634,-4.0799,84.0361
2023-03-11 15:00:20:668,-0.638849,1.14953,-9.74928,-6.60401,-4.07951,84.0363
2023-03-11 15:00:20:678,-0.643067,1.11498,-9.71769,-6.59909,-4.07902,84.0361
2023-03-11 15:00:20:688,-0.658813,1.10524,-9.69077,-6.5936,-4.07987,84.0432
2023-03-11 15:00:20:698,-0.682231,1.1041,-9.68225,-6.59172,-4.08335,84.0485
2023-03-11 15:00:20:708,-0.699194,1.09885,-9.66459,-6.58684,-4.08852,84.0519
2023-03-11 15:00:20:718,-0.732169,1.09231,-9.66966,-6.58756,-4.09412,84.0588
2023-03-11 15:00:20:728,-0.756989,1.11095,-9.68247,-6.58956,-4.09955,84.0631
2023-03-11 15:00:20:738,-0.759182,1.10868,-9.66467,-6.59434,-4.1052,84.066
2023-03-11 15:00:20:748,-0.750422,1.10796,-9.66614,-6.59798,-4.1069,84.0679
2023-03-11 15:00:20:758,-0.772659,1.14065,-9.69772,-6.60265,-4.10721,84.0646
2023-03-11 15:00:20:768,-0.785277,1.15847,-9.70417,-6.60828,-4.11047,84.0603
2023-03-11 15:00:20:778,-0.769364,1.1475,-9.69252,-6.61089,-4.10875,84.05
2023-03-11 15:00:20:788,-0.767979,1.14509,-9.71386,-6.61302,-4.10518,84.0366
2023-03-11 15:00:20:798,-0.788807,1.17403,-9.74431,-6.6146,-4.10064,84.0207
2023-03-11 15:00:20:808,-0.80461,1.19544,-9.75269,-6.61114,-4.09347,84.0035
2023-03-11 15:00:20:818,-0.769453,1.17045,-9.76227,-6.60173,-4.08522,83.9859
2023-03-11 15:00:20:828,-0.740683,1.16957,-9.7546,-6.58864,-4.07156,83.9616
2023-03-11 15:00:20:838,-0.74167,1.17432,-9.72069,-6.57701,-4.05777,83.9391
2023-03-11 15:00:20:848,-0.731152,1.14285,-9.69484,-6.55993,-4.04548,83.9089
2023-03-11 15:00:20:858,-0.690261,1.10758,-9.65483,-6.54509,-4.03334,83.8799
2023-03-11 15:00:20:868,-0.649188,1.08847,-9.61986,-6.53418,-4.01943,83.8451
2023-03-11 15:00:20:878,-0.639927,1.07721,-9.59531,-6.52575,-4.00785,83.8155
2023-03-11 15:00:20:888,-0.643791,1.09315,-9.63698,-6.52466,-3.99559,83.7878
2023-03-11 15:00:20:898,-0.566909,1.09525,-9.70192,-6.52423,-3.98423,83.7589
2023-03-11 15:00:20:908,-0.478283,1.1035,-9.7398,-6.522,-3.97499,83.7317
2023-03-11 15:00:20:918,-0.488169,1.10987,-9.74444,-6.52659,-3.96454,83.7145
2023-03-11 15:00:20:928,-0.541845,1.12928,-9.7202,-6.52406,-3.95917,83.7056
2023-03-11 15:00:20:938,-0.568667,1.12423,-9.70878,-6.52208,-3.95486,83.7
2023-03-11 15:00:20:948,-0.587236,1.10092,-9.69418,-6.51518,-3.94449,83.7011
2023-03-11 15:00:20:958,-0.613888,1.09765,-9.67855,-6.50976,-3.9364,83.7092
2023-03-11 15:00:20:968,-0.658058,1.09633,-9.67118,-6.50324,-3.93026,83.7195
2023-03-11 15:00:20:978,-0.705672,1.08688,-9.64678,-6.50062,-3.92474,83.7257
2023-03-11 15:00:20:988,-0.729574,1.07533,-9.63608,-6.49952,-3.92385,83.7271
2023-03-11 15:00:20:998,-0.703735,1.08051,-9.66186,-6.49838,-3.91907,83.7277
2023-03-11 15:00:21:8,-0.656896,1.09749,-9.67631,-6.49679,-3.91571,83.7218
2023-03-11 15:00:21:18,-0.627348,1.09583,-9.69569,-6.50042,-3.91566,83.718
2023-03-11 15:00:21:28,-0.632813,1.10019,-9.72389,-6.5045,-3.91575,83.7121
2023-03-11 15:00:21:38,-0.646382,1.11075,-9.76714,-6.50727,-3.91656,83.7068
2023-03-11 15:00:21:48,-0.641573,1.13605,-9.80181,-6.50812,-3.91355,83.7022
2023-03-11 15:00:21:58,-0.606143,1.14481,-9.80076,-6.50597,-3.91255,83.699
2023-03-11 15:00:21:68,-0.575772,1.11934,-9.74869,-6.50156,-3.91158,83.6959
2023-03-11 15:00:21:78,-0.579559,1.11177,-9.69058,-6.4988,-3.91372,83.6948
2023-03-11 15:00:21:88,-0.593049,1.13566,-9.68991,-6.5007,-3.92051,83.6945
2023-03-11 15:00:21:98,-0.571832,1.14984,-9.72405,-6.50632,-3.92687,83.6962
2023-03-11 15:00:21:108,-0.575515,1.15961,-9.73468,-6.513,-3.93569,83.703
2023-03-11 15:00:21:118,-0.599667,1.17757,-9.7342,-6.51633,-3.94177,83.7131
2023-03-11 15:00:21:128,-0.634503,1.19029,-9.73496,-6.51771,-3.94613,83.7274
2023-03-11 15:00:21:138,-0.666001,1.19184,-9.72969,-6.51676,-3.947,83.7428
2023-03-11 15:00:21:148,-0.685809,1.17633,-9.70254,-6.51231,-3.95058,83.7598
2023-03-11 15:00:21:158,-0.701138,1.1616,-9.66668,-6.50103,-3.95206,83.7776
2023-03-11 15:00:21:168,-0.714463,1.13954,-9.6377,-6.48983,-3.9507,83.7905
2023-03-11 15:00:21:178,-0.709277,1.12216,-9.62517,-6.47981,-3.94797,83.7995
2023-03-11 15:00:21:188,-0.702272,1.12095,-9.63611,-6.47285,-3.9462,83.8057
2023-03-11 15:00:21:198,-0.711364,1.10819,-9.64779,-6.46501,-3.94419,83.8117
2023-03-11 15:00:21:208,-0.721464,1.09773,-9.66265,-6.45779,-3.94451,83.8146
2023-03-11 15:00:21:218,-0.715641,1.08284,-9.66013,-6.45307,-3.94534,83.8148
2023-03-11 15:00:21:228,-0.709307,1.08178,-9.66351,-6.45596,-3.94495,83.8138
2023-03-11 15:00:21:238,-0.694853,1.09378,-9.67841,-6.45947,-3.9412,83.81
2023-03-11 15:00:21:248,-0.687652,1.11851,-9.68429,-6.4661,-3.9359,83.8061
2023-03-11 15:00:21:258,-0.722541,1.11995,-9.68142,-6.47419,-3.9356,83.7994
2023-03-11 15:00:21:268,-0.827904,1.14846,-9.70059,-6.486,-3.93764,83.791
2023-03-11 15:00:21:278,-0.886763,1.19684,-9.71337,-6.49208,-3.93677,83.7717
2023-03-11 15:00:21:288,-0.827604,1.19335,-9.74237,-6.49425,-3.9345,83.7399
2023-03-11 15:00:21:298,-0.718192,1.17171,-9.7576,-6.49683,-3.93279,83.7008
2023-03-11 15:00:21:308,-0.65898,1.15661,-9.72374,-6.49382,-3.93672,83.6593
2023-03-11 15:00:21:318,-0.642005,1.11389,-9.67144,-6.48783,-3.94035,83.6156
2023-03-11 15:00:21:328,-0.634841,1.07786,-9.62475,-6.48534,-3.94357,83.5702
2023-03-11 15:00:21:338,-0.619431,1.09106,-9.62895,-6.48421,-3.94764,83.5281
2023-03-11 15:00:21:348,-0.612529,1.10015,-9.66713,-6.49052,-3.94636,83.4848
2023-03-11 15:00:21:358,-0.586641,1.10272,-9.69882,-6.49347,-3.94591,83.4466
2023-03-11 15:00:21:368,-0.52958,1.09737,-9.72001,-6.49939,-3.94263,83.4111
2023-03-11 15:00:21:378,-0.490127,1.11533,-9.73187,-6.51039,-3.93933,83.3829
2023-03-11 15:00:21:388,-0.48733,1.13766,-9.73753,-6.51429,-3.93714,83.359
2023-03-11 15:00:21:398,-0.47893,1.13076,-9.74951,-6.52012,-3.93619,83.3398
2023-03-11 15:00:21:408,-0.463702,1.13362,-9.7539,-6.52132,-3.94003,83.3309
2023-03-11 15:00:21:418,-0.474854,1.12509,-9.75765,-6.52037,-3.94698,83.326
2023-03-11 15:00:21:428,-0.4941,1.11901,-9.73323,-6.51694,-3.95372,83.3339
2023-03-11 15:00:21:438,-0.53251,1.09097,-9.7085,-6.51241,-3.96467,83.3447
2023-03-11 15:00:21:448,-0.569764,1.07835,-9.68922,-6.50443,-3.97542,83.3662
2023-03-11 15:00:21:458,-0.623067,1.07521,-9.68849,-6.50093,-3.98642,83.3928
2023-03-11 15:00:21:468,-0.661139,1.07259,-9.68353,-6.4966,-3.99399,83.4208
2023-03-11 15:00:21:478,-0.698789,1.07255,-9.68566,-6.49342,-4.00309,83.4497
2023-03-11 15:00:21:488,-0.730813,1.07922,-9.70272,-6.49361,-4.00838,83.4831
2023-03-11 15:00:21:498,-0.754605,1.08154,-9.73194,-6.49288,-4.01285,83.515
2023-03-11 15:00:21:508,-0.771401,1.09188,-9.73223,-6.48926,-4.01877,83.5434
2023-03-11 15:00:21:518,-0.79952,1.09231,-9.70669,-6.48696,-4.02193,83.5678
2023-03-11 15:00:21:528,-0.807828,1.08987,-9.67843,-6.48298,-4.02563,83.5854
2023-03-11 15:00:21:538,-0.799724,1.08971,-9.65952,-6.48413,-4.02715,83.5973
2023-03-11 15:00:21:548,-0.767891,1.08705,-9.6523,-6.48298,-4.02796,83.602
2023-03-11 15:00:21:558,-0.706944,1.09157,-9.66204,-6.48684,-4.02993,83.6029
2023-03-11 15:00:21:568,-0.66904,1.08668,-9.67442,-6.48816,-4.03277,83.6045
2023-03-11 15:00:21:578,-0.641393,1.08448,-9.69013,-6.48801,-4.03369,83.6029
2023-03-11 15:00:21:588,-0.643213,1.08904,-9.69273,-6.48525,-4.03675,83.6054
2023-03-11 15:00:21:598,-0.658907,1.09693,-9.67718,-6.48299,-4.04066,83.6105
2023-03-11 15:00:21:608,-0.669659,1.08364,-9.674,-6.47947,-4.04232,83.6161
2023-03-11 15:00:21:618,-0.690517,1.0828,-9.65681,-6.48315,-4.04545,83.6245
2023-03-11 15:00:21:628,-0.706852,1.0802,-9.67067,-6.48324,-4.04713,83.6321
2023-03-11 15:00:21:638,-0.705407,1.09085,-9.68316,-6.48869,-4.04821,83.6368
2023-03-11 15:00:21:648,-0.708093,1.11525,-9.69965,-6.49801,-4.04536,83.644
2023-03-11 15:00:21:658,-0.707311,1.12368,-9.72851,-6.50464,-4.04604,83.6493
2023-03-11 15:00:21:668,-0.69436,1.13587,-9.73982,-6.51068,-4.04857,83.6541
2023-03-11 15:00:21:678,-0.6801,1.1346,-9.74873,-6.51221,-4.05031,83.6586
2023-03-11 15:00:21:688,-0.689247,1.13269,-9.73678,-6.50826,-4.05374,83.6635
2023-03-11 15:00:21:698,-0.702827,1.12028,-9.71246,-6.50233,-4.05702,83.67
2023-03-11 15:00:21:708,-0.71563,1.10268,-9.70737,-6.49757,-4.06183,83.6786
2023-03-11 15:00:21:718,-0.730256,1.12769,-9.69607,-6.49501,-4.06207,83.6865
2023-03-11 15:00:21:728,-0.740665,1.13815,-9.69146,-6.49224,-4.06291,83.6909
2023-03-11 15:00:21:738,-0.736369,1.12754,-9.68537,-6.4881,-4.06071,83.698
2023-03-11 15:00:21:748,-0.725517,1.12568,-9.68775,-6.4852,-4.05635,83.6992
2023-03-11 15:00:21:758,-0.715271,1.11596,-9.69081,-6.47906,-4.05453,83.7
2023-03-11 15:00:21:768,-0.691345,1.11132,-9.69023,-6.47497,-4.04757,83.7014
2023-03-11 15:00:21:778,-0.676334,1.09621,-9.69582,-6.46948,-4.04568,83.7001
2023-03-11 15:00:21:788,-0.656882,1.07855,-9.69042,-6.46297,-4.03938,83.6981
2023-03-11 15:00:21:798,-0.659411,1.08304,-9.66899,-6.45855,-4.03723,83.6969
2023-03-11 15:00:21:808,-0.640836,1.07595,-9.64318,-6.45283,-4.03548,83.6942
2023-03-11 15:00:21:818,-0.637377,1.06855,-9.61607,-6.44947,-4.03343,83.6928
2023-03-11 15:00:21:828,-0.65153,1.06452,-9.59724,-6.44679,-4.03209,83.6953
2023-03-11 15:00:21:838,-0.667285,1.06224,-9.63196,-6.45358,-4.02956,83.6948
2023-03-11 15:00:21:848,-0.645941,1.06725,-9.70029,-6.4601,-4.02531,83.6928
2023-03-11 15:00:21:858,-0.585911,1.08463,-9.74711,-6.47043,-4.01902,83.688
2023-03-11 15:00:21:868,-0.547596,1.08241,-9.76673,-6.47826,-4.01586,83.6838
2023-03-11 15:00:21:878,-0.543897,1.07105,-9.75397,-6.48252,-4.02087,83.6881
2023-03-11 15:00:21:888,-0.593584,1.0967,-9.74084,-6.49165,-4.03528,83.6957
2023-03-11 15:00:21:898,-0.637388,1.13737,-9.74545,-6.49841,-4.04761,83.705
2023-03-11 15:00:21:908,-0.666848,1.16686,-9.73532,-6.50759,-4.06111,83.7166
2023-03-11 15:00:21:918,-0.687232,1.17336,-9.71282,-6.51325,-4.07498,83.731
2023-03-11 15:00:21:928,-0.701304,1.16055,-9.67868,-6.51454,-4.08591,83.7468
2023-03-11 15:00:21:938,-0.704606,1.15387,-9.64112,-6.51747,-4.0964,83.7618
2023-03-11 15:00:21:948,-0.729309,1.15158,-9.63395,-6.51746,-4.10148,83.779
2023-03-11 15:00:21:958,-0.74462,1.14138,-9.63553,-6.51541,-4.10573,83.7983
2023-03-11 15:00:21:968,-0.757404,1.12268,-9.6288,-6.51353,-4.10936,83.8165
2023-03-11 15:00:21:978,-0.747514,1.10453,-9.6117,-6.51476,-4.1094,83.828
2023-03-11 15:00:21:988,-0.728233,1.08723,-9.64103,-6.51816,-4.10207,83.8356
2023-03-11 15:00:21:998,-0.716847,1.11204,-9.6687,-6.52906,-4.09963,83.8417
2023-03-11 15:00:22:8,-0.694339,1.1151,-9.67877,-6.53842,-4.09555,83.845
2023-03-11 15:00:22:18,-0.677227,1.11161,-9.70556,-6.548,-4.09226,83.8466
2023-03-11 15:00:22:28,-0.662122,1.13074,-9.736,-6.55626,-4.09371,83.8465
2023-03-11 15:00:22:38,-0.650418,1.14658,-9.77163,-6.56622,-4.09404,83.844
2023-03-11 15:00:22:48,-0.642459,1.15724,-9.76195,-6.57145,-4.09538,83.8483
2023-03-11 15:00:22:58,-0.636979,1.14751,-9.72609,-6.57573,-4.09508,83.8532
2023-03-11 15:00:22:68,-0.67037,1.12531,-9.70217,-6.57632,-4.09666,83.8616
2023-03-11 15:00:22:78,-0.736319,1.13117,-9.68576,-6.57802,-4.10174,83.8705
2023-03-11 15:00:22:88,-0.75909,1.15262,-9.66875,-6.58085,-4.0972,83.8787
2023-03-11 15:00:22:98,-0.726204,1.13787,-9.68234,-6.57968,-4.08881,83.8799
2023-03-11 15:00:22:108,-0.65214,1.12617,-9.69473,-6.58205,-4.08316,83.8784
2023-03-11 15:00:22:118,-0.609148,1.1209,-9.70522,-6.58605,-4.07687,83.8795
2023-03-11 15:00:22:128,-0.612724,1.12691,-9.7264,-6.58417,-4.07577,83.8821
2023-03-11 15:00:22:138,-0.649033,1.13823,-9.72234,-6.5828,-4.0797,83.8868
2023-03-11 15:00:22:148,-0.677504,1.14331,-9.706,-6.58082,-4.0844,83.8899
2023-03-11 15:00:22:158,-0.664063,1.12284,-9.68997,-6.57866,-4.08795,83.8924
2023-03-11 15:00:22:168,-0.64666,1.11313,-9.68222,-6.57872,-4.08881,83.8953
2023-03-11 15:00:22:178,-0.649078,1.11529,-9.69268,-6.57453,-4.08847,83.901
2023-03-11 15:00:22:188,-0.647298,1.12975,-9.68953,-6.5762,-4.08739,83.9073
2023-03-11 15:00:22:198,-0.66211,1.13287,-9.68882,-6.57785,-4.09155,83.9153
2023-03-11 15:00:22:208,-0.681282,1.1346,-9.70291,-6.5783,-4.09891,83.9224
2023-03-11 15:00:22:218,-0.698413,1.13419,-9.70273,-6.5807,-4.10361,83.9289
2023-03-11 15:00:22:228,-0.721539,1.14019,-9.68183,-6.58264,-4.11035,83.9343
2023-03-11 15:00:22:238,-0.718138,1.1449,-9.6741,-6.58257,-4.12053,83.9374
2023-03-11 15:00:22:248,-0.711164,1.14745,-9.69771,-6.58387,-4.12955,83.9414
2023-03-11 15:00:22:258,-0.700311,1.13914,-9.71572,-6.58363,-4.13703,83.9417
2023-03-11 15:00:22:267,-0.67816,1.13563,-9.71464,-6.58097,-4.15069,83.9449
2023-03-11 15:00:22:277,-0.688263,1.13541,-9.72118,-6.57728,-4.16215,83.9482
2023-03-11 15:00:22:287,-0.686663,1.14709,-9.72435,-6.57307,-4.17309,83.9535
2023-03-11 15:00:22:298,-0.706723,1.14132,-9.73352,-6.56723,-4.18462,83.9596
2023-03-11 15:00:22:307,-0.726781,1.12565,-9.70726,-6.56173,-4.19489,83.965
2023-03-11 15:00:22:317,-0.717177,1.11327,-9.66899,-6.55408,-4.20881,83.9714
2023-03-11 15:00:22:328,-0.724111,1.10156,-9.6489,-6.54947,-4.2195,83.9785
2023-03-11 15:00:22:337,-0.750508,1.10138,-9.63969,-6.54662,-4.23117,83.9875
2023-03-11 15:00:22:348,-0.769883,1.12202,-9.64357,-6.54741,-4.23926,83.9976
2023-03-11 15:00:22:357,-0.801182,1.12579,-9.6414,-6.54964,-4.24418,84.0035
2023-03-11 15:00:22:368,-0.816109,1.1205,-9.6417,-6.55176,-4.24769,84.0095
2023-03-11 15:00:22:377,-0.801953,1.12042,-9.65216,-6.55643,-4.24742,84.0117
2023-03-11 15:00:22:387,-0.792365,1.14641,-9.67203,-6.55842,-4.24455,84.013
2023-03-11 15:00:22:398,-0.773499,1.16106,-9.69738,-6.56271,-4.23982,84.0154
2023-03-11 15:00:22:408,-0.762501,1.15709,-9.7034,-6.56629,-4.23487,84.0142
2023-03-11 15:00:22:418,-0.774163,1.16555,-9.70697,-6.56743,-4.22972,84.0094
2023-03-11 15:00:22:428,-0.765087,1.15883,-9.7153,-6.56599,-4.22079,84.0039
2023-03-11 15:00:22:438,-0.749288,1.16202,-9.71865,-6.56628,-4.21297,83.9959
2023-03-11 15:00:22:448,-0.729285,1.16426,-9.74087,-6.56396,-4.20646,83.9848
2023-03-11 15:00:22:458,-0.701767,1.15477,-9.73648,-6.56227,-4.20184,83.9721
2023-03-11 15:00:22:468,-0.670565,1.14833,-9.72078,-6.55806,-4.19456,83.9604
2023-03-11 15:00:22:478,-0.656166,1.13857,-9.70766,-6.55369,-4.19018,83.9497
2023-03-11 15:00:22:488,-0.646146,1.12524,-9.7008,-6.54908,-4.1822,83.9408
2023-03-11 15:00:22:498,-0.634901,1.11974,-9.70794,-6.54534,-4.17636,83.9366
2023-03-11 15:00:22:508,-0.642208,1.1208,-9.71632,-6.5404,-4.17083,83.9343
2023-03-11 15:00:22:518,-0.641685,1.13625,-9.69741,-6.53564,-4.1647,83.9307
2023-03-11 15:00:22:528,-0.637742,1.1261,-9.68376,-6.52851,-4.16193,83.9328
2023-03-11 15:00:22:538,-0.656546,1.11434,-9.66947,-6.52123,-4.15616,83.9365
2023-03-11 15:00:22:548,-0.682716,1.11406,-9.67431,-6.51867,-4.15018,83.9376
2023-03-11 15:00:22:558,-0.700349,1.10442,-9.68487,-6.51326,-4.14456,83.9442
2023-03-11 15:00:22:568,-0.726757,1.09461,-9.68665,-6.50889,-4.14029,83.9471
2023-03-11 15:00:22:578,-0.737415,1.10361,-9.6736,-6.50646,-4.13714,83.9521
2023-03-11 15:00:22:588,-0.725736,1.10783,-9.66725,-6.50445,-4.1307,83.9524
2023-03-11 15:00:22:598,-0.712862,1.1009,-9.68358,-6.50016,-4.12596,83.9514
2023-03-11 15:00:22:608,-0.714474,1.10776,-9.67776,-6.49881,-4.12382,83.9468
2023-03-11 15:00:22:618,-0.703067,1.0905,-9.65101,-6.49339,-4.11852,83.939
2023-03-11 15:00:22:628,-0.703115,1.0643,-9.65794,-6.48844,-4.11625,83.9294
2023-03-11 15:00:22:638,-0.686661,1.08378,-9.7009,-6.49118,-4.11344,83.9188
2023-03-11 15:00:22:648,-0.637344,1.10679,-9.75525,-6.49222,-4.10967,83.9083
2023-03-11 15:00:22:658,-0.568479,1.08965,-9.7679,-6.49012,-4.10711,83.8976
2023-03-11 15:00:22:668,-0.54396,1.07303,-9.76222,-6.49092,-4.10578,83.8915
2023-03-11 15:00:22:678,-0.574516,1.09377,-9.74319,-6.48963,-4.11245,83.8915
2023-03-11 15:00:22:688,-0.636689,1.11496,-9.73606,-6.48874,-4.11838,83.9009
2023-03-11 15:00:22:698,-0.686628,1.12938,-9.72312,-6.48719,-4.12065,83.9113
2023-03-11 15:00:22:708,-0.716163,1.13981,-9.69446,-6.48625,-4.12195,83.9239
2023-03-11 15:00:22:718,-0.710728,1.12495,-9.65741,-6.4846,-4.12319,83.9388
2023-03-11 15:00:22:728,-0.715209,1.1249,-9.63237,-6.48706,-4.12399,83.9519
2023-03-11 15:00:22:738,-0.729525,1.12215,-9.64487,-6.48507,-4.12195,83.9648
2023-03-11 15:00:22:748,-0.749607,1.13789,-9.66186,-6.48659,-4.12287,83.976
2023-03-11 15:00:22:758,-0.781029,1.14799,-9.671,-6.48687,-4.12296,83.9819
2023-03-11 15:00:22:768,-0.787161,1.14796,-9.66281,-6.48101,-4.1189,83.986
2023-03-11 15:00:22:778,-0.759788,1.13155,-9.65076,-6.47301,-4.1162,83.9861
2023-03-11 15:00:22:788,-0.735791,1.10684,-9.63449,-6.46555,-4.10958,83.9833
2023-03-11 15:00:22:798,-0.730763,1.08252,-9.62753,-6.46115,-4.10602,83.9752
2023-03-11 15:00:22:808,-0.721089,1.06463,-9.63963,-6.46411,-4.09929,83.9706
2023-03-11 15:00:22:818,-0.705117,1.07049,-9.66084,-6.46433,-4.09365,83.9628
2023-03-11 15:00:22:828,-0.698024,1.0972,-9.69141,-6.47356,-4.08771,83.9561
2023-03-11 15:00:22:838,-0.679734,1.11949,-9.7232,-6.48147,-4.08272,83.9484
2023-03-11 15:00:22:848,-0.653322,1.13881,-9.72447,-6.48738,-4.07858,83.9392
2023-03-11 15:00:22:857,-0.643986,1.15123,-9.73501,-6.49715,-4.0741,83.9307
2023-03-11 15:00:22:868,-0.672293,1.15558,-9.75235,-6.50412,-4.07372,83.9254
2023-03-11 15:00:22:878,-0.697395,1.17903,-9.75586,-6.50781,-4.0694,83.9221
2023-03-11 15:00:22:888,-0.681159,1.18886,-9.77117,-6.50486,-4.06251,83.9147
2023-03-11 15:00:22:898,-0.6245,1.16756,-9.77198,-6.4961,-4.05535,83.9069
2023-03-11 15:00:22:908,-0.567543,1.13662,-9.75318,-6.48491,-4.04719,83.9012
2023-03-11 15:00:22:918,-0.563206,1.11412,-9.71822,-6.47304,-4.04366,83.8992
2023-03-11 15:00:22:928,-0.608355,1.10505,-9.68637,-6.46118,-4.04315,83.9032
2023-03-11 15:00:22:938,-0.648813,1.09011,-9.6664,-6.44677,-4.04141,83.9094
2023-03-11 15:00:22:948,-0.665785,1.08446,-9.67082,-6.44003,-4.04187,83.9152
2023-03-11 15:00:22:958,-0.649369,1.08923,-9.67743,-6.43418,-4.04148,83.9242
2023-03-11 15:00:22:968,-0.653259,1.095,-9.68756,-6.42834,-4.0407,83.9354
2023-03-11 15:00:22:978,-0.655837,1.10079,-9.7051,-6.42408,-4.03981,83.945
2023-03-11 15:00:22:988,-0.688903,1.10101,-9.72715,-6.41945,-4.04136,83.9543
2023-03-11 15:00:22:998,-0.719106,1.10426,-9.71987,-6.41297,-4.04531,83.9609
2023-03-11 15:00:23:8,-0.722914,1.11239,-9.69495,-6.4063,-4.05253,83.9664
2023-03-11 15:00:23:18,-0.717246,1.10647,-9.69442,-6.39994,-4.06006,83.969
2023-03-11 15:00:23:28,-0.713481,1.10757,-9.68513,-6.39373,-4.06775,83.97
2023-03-11 15:00:23:38,-0.7094,1.09733,-9.66304,-6.38755,-4.07456,83.9725
2023-03-11 15:00:23:48,-0.702634,1.07469,-9.64774,-6.37736,-4.08165,83.976
2023-03-11 15:00:23:57,-0.683015,1.05686,-9.65326,-6.36928,-4.08583,83.9747
2023-03-11 15:00:23:68,-0.67151,1.05194,-9.65661,-6.35986,-4.08877,83.9775
2023-03-11 15:00:23:78,-0.689408,1.05414,-9.66106,-6.35585,-4.0938,83.9852
2023-03-11 15:00:23:88,-0.703856,1.0632,-9.67119,-6.35708,-4.09799,83.9928
2023-03-11 15:00:23:97,-0.71389,1.05909,-9.68323,-6.35842,-4.096,83.9986
2023-03-11 15:00:23:108,-0.74021,1.0581,-9.68596,-6.36131,-4.09695,84.0086
2023-03-11 15:00:23:118,-0.76634,1.07019,-9.69678,-6.36335,-4.09632,84.0158
2023-03-11 15:00:23:128,-0.767005,1.08405,-9.68825,-6.36446,-4.09828,84.0237
2023-03-11 15:00:23:138,-0.774833,1.09394,-9.6728,-6.36434,-4.09649,84.0272
2023-03-11 15:00:23:148,-0.758985,1.07992,-9.66234,-6.36722,-4.09452,84.0282
2023-03-11 15:00:23:158,-0.75095,1.08217,-9.6828,-6.3678,-4.0907,84.0288
2023-03-11 15:00:23:168,-0.740948,1.10472,-9.68139,-6.37208,-4.08598,84.0279
2023-03-11 15:00:23:178,-0.731121,1.11457,-9.69283,-6.37524,-4.07691,84.0273
2023-03-11 15:00:23:188,-0.707316,1.11198,-9.70695,-6.38013,-4.06765,84.0202
2023-03-11 15:00:23:198,-0.708904,1.1183,-9.72027,-6.38256,-4.06472,84.0161
2023-03-11 15:00:23:208,-0.705528,1.12829,-9.73464,-6.38282,-4.05636,84.0104
2023-03-11 15:00:23:218,-0.697995,1.12754,-9.73877,-6.38197,-4.05335,84.0026
2023-03-11 15:00:23:228,-0.689325,1.11689,-9.72744,-6.37759,-4.04521,83.9941
2023-03-11 15:00:23:238,-0.674845,1.11012,-9.711,-6.375,-4.04062,83.9845
2023-03-11 15:00:23:247,-0.650612,1.09145,-9.71254,-6.37277,-4.03435,83.9692
2023-03-11 15:00:23:257,-0.621954,1.09342,-9.69735,-6.36691,-4.03141,83.9584
2023-03-11 15:00:23:267,-0.621668,1.09056,-9.7044,-6.36198,-4.02409,83.946
2023-03-11 15:00:23:277,-0.627899,1.08817,-9.71171,-6.35849,-4.01866,83.937
2023-03-11 15:00:23:287,-0.627328,1.0902,-9.72982,-6.35206,-4.01797,83.9326
2023-03-11 15:00:23:297,-0.629233,1.11022,-9.73226,-6.34728,-4.01556,83.9287
2023-03-11 15:00:23:307,-0.637452,1.11505,-9.72952,-6.341,-4.01162,83.9275
2023-03-11 15:00:23:317,-0.638725,1.11079,-9.71,-6.33421,-4.01248,83.9279
2023-03-11 15:00:23:327,-0.641961,1.09028,-9.69705,-6.31937,-4.01228,83.9295
2023-03-11 15:00:23:338,-0.648759,1.07517,-9.67174,-6.30819,-4.01268,83.9278
2023-03-11 15:00:23:348,-0.651873,1.05254,-9.64392,-6.30065,-4.01202,83.927
2023-03-11 15:00:23:357,-0.660707,1.0506,-9.65494,-6.29767,-4.01047,83.9314
2023-03-11 15:00:23:367,-0.666447,1.07613,-9.67042,-6.2961,-4.01356,83.9336
2023-03-11 15:00:23:378,-0.669622,1.09198,-9.69409,-6.29311,-4.01269,83.9361
2023-03-11 15:00:23:388,-0.675247,1.09803,-9.71054,-6.29283,-4.01284,83.9388
2023-03-11 15:00:23:397,-0.703514,1.09321,-9.71996,-6.2877,-4.01243,83.9443
2023-03-11 15:00:23:407,-0.717652,1.09194,-9.69651,-6.28036,-4.01054,83.9461
2023-03-11 15:00:23:418,-0.721736,1.05293,-9.67233,-6.27269,-4.00894,83.9474
2023-03-11 15:00:23:427,-0.701756,1.03676,-9.64892,-6.26707,-4.00632,83.9482
2023-03-11 15:00:23:437,-0.668857,1.02557,-9.64628,-6.26217,-4.00204,83.9474
2023-03-11 15:00:23:448,-0.643548,1.02693,-9.63835,-6.26126,-3.99947,83.9448
2023-03-11 15:00:23:457,-0.639998,1.01324,-9.61569,-6.26442,-3.99799,83.9465
2023-03-11 15:00:23:467,-0.622507,0.988273,-9.62053,-6.27388,-3.99707,83.9476
2023-03-11 15:00:23:478,-0.613478,0.99529,-9.66733,-6.28772,-3.99932,83.9513
2023-03-11 15:00:23:488,-0.597894,1.04245,-9.72819,-6.30559,-3.99971,83.9586
2023-03-11 15:00:23:498,-0.572443,1.06949,-9.79862,-6.32317,-3.99926,83.9678
2023-03-11 15:00:23:507,-0.558035,1.08523,-9.80624,-6.33939,-4.00513,83.9781
2023-03-11 15:00:23:518,-0.588519,1.08369,-9.78612,-6.35538,-4.01398,83.9927
2023-03-11 15:00:23:527,-0.641046,1.08149,-9.75593,-6.36626,-4.0227,84.0159
2023-03-11 15:00:23:537,-0.684884,1.12254,-9.7328,-6.38053,-4.02787,84.0457
2023-03-11 15:00:23:548,-0.707513,1.143,-9.72941,-6.39452,-4.0311,84.0789
2023-03-11 15:00:23:558,-0.728382,1.16586,-9.72687,-6.40374,-4.03202,84.1088
2023-03-11 15:00:23:567,-0.734181,1.17062,-9.70127,-6.41018,-4.03147,84.14
2023-03-11 15:00:23:577,-0.727361,1.14964,-9.67852,-6.41619,-4.02878,84.1689
2023-03-11 15:00:23:587,-0.749821,1.13139,-9.65287,-6.41935,-4.02607,84.194
2023-03-11 15:00:23:598,-0.778666,1.1306,-9.63868,-6.41951,-4.02085,84.2137
2023-03-11 15:00:23:607,-0.781653,1.1114,-9.64464,-6.42263,-4.01568,84.2286
2023-03-11 15:00:23:617,-0.784164,1.11556,-9.64424,-6.42364,-4.01022,84.2372
2023-03-11 15:00:23:627,-0.768792,1.11381,-9.64447,-6.42526,-4.00591,84.2408
2023-03-11 15:00:23:638,-0.747531,1.11319,-9.66327,-6.43531,-4.00248,84.2389
2023-03-11 15:00:23:648,-0.728082,1.1164,-9.7061,-6.44062,-3.9971,84.2326
2023-03-11 15:00:23:658,-0.718286,1.12243,-9.72506,-6.44358,-3.99631,84.2212
2023-03-11 15:00:23:668,-0.70088,1.11206,-9.72893,-6.44745,-3.99265,84.2083
2023-03-11 15:00:23:678,-0.675026,1.09816,-9.7137,-6.45134,-3.99024,84.1902
2023-03-11 15:00:23:688,-0.649776,1.10115,-9.69069,-6.45622,-3.98685,84.1739
2023-03-11 15:00:23:698,-0.640273,1.11159,-9.69044,-6.46109,-3.98698,84.1587
2023-03-11 15:00:23:708,-0.660952,1.121,-9.70552,-6.47089,-3.98531,84.146
2023-03-11 15:00:23:718,-0.692882,1.16114,-9.72634,-6.48017,-3.98475,84.134
2023-03-11 15:00:23:728,-0.68513,1.18635,-9.74407,-6.48429,-3.97976,84.1205
2023-03-11 15:00:23:738,-0.607389,1.15834,-9.77282,-6.48577,-3.96977,84.1075
2023-03-11 15:00:23:748,-0.523127,1.13084,-9.78841,-6.47901,-3.9611,84.0968
2023-03-11 15:00:23:757,-0.518692,1.10497,-9.7544,-6.46931,-3.95867,84.0916
2023-03-11 15:00:23:768,-0.567378,1.07905,-9.70393,-6.45935,-3.95882,84.0932
2023-03-11 15:00:23:778,-0.603137,1.05254,-9.65562,-6.44983,-3.96301,84.1032
2023-03-11 15:00:23:787,-0.631024,1.03771,-9.63335,-6.44048,-3.96746,84.1118
2023-03-11 15:00:23:797,-0.644838,1.04023,-9.62818,-6.43971,-3.97115,84.1243
2023-03-11 15:00:23:808,-0.660988,1.0561,-9.66932,-6.44134,-3.97572,84.1402
2023-03-11 15:00:23:818,-0.662041,1.08899,-9.69756,-6.44642,-3.97513,84.1572
2023-03-11 15:00:23:827,-0.683646,1.11096,-9.70751,-6.45071,-3.97865,84.1724
2023-03-11 15:00:23:838,-0.695522,1.13518,-9.71514,-6.45196,-3.9817,84.1821
2023-03-11 15:00:23:848,-0.707798,1.1423,-9.70588,-6.45508,-3.98866,84.1898
2023-03-11 15:00:23:858,-0.71566,1.12587,-9.69435,-6.45274,-3.99647,84.1975
2023-03-11 15:00:23:867,-0.715649,1.10879,-9.67519,-6.45232,-4.00267,84.2012
2023-03-11 15:00:23:877,-0.695105,1.09617,-9.65935,-6.44719,-4.01116,84.2005
2023-03-11 15:00:23:887,-0.674267,1.06843,-9.65992,-6.44813,-4.02057,84.2005
2023-03-11 15:00:23:897,-0.681175,1.06973,-9.66773,-6.45055,-4.03072,84.1983
2023-03-11 15:00:23:907,-0.676124,1.07996,-9.67326,-6.44973,-4.0417,84.1989
2023-03-11 15:00:23:917,-0.687891,1.08501,-9.68242,-6.45359,-4.0512,84.1998
2023-03-11 15:00:23:927,-0.69063,1.09466,-9.70849,-6.45722,-4.0594,84.2059
2023-03-11 15:00:23:937,-0.698231,1.10566,-9.72665,-6.45938,-4.06663,84.21
2023-03-11 15:00:23:948,-0.70224,1.11132,-9.73134,-6.4641,-4.06744,84.2135
2023-03-11 15:00:23:957,-0.722228,1.12757,-9.71198,-6.46441,-4.06893,84.2222
2023-03-11 15:00:23:968,-0.738773,1.11929,-9.70413,-6.46208,-4.07004,84.2293
2023-03-11 15:00:23:977,-0.741845,1.11848,-9.68544,-6.45984,-4.06798,84.237
2023-03-11 15:00:23:988,-0.734703,1.10548,-9.66597,-6.45851,-4.06894,84.2413
2023-03-11 15:00:23:998,-0.737206,1.09523,-9.64332,-6.45939,-4.06625,84.2434
2023-03-11 15:00:24:8,-0.735098,1.11089,-9.6496,-6.46536,-4.06323,84.2426
2023-03-11 15:00:24:18,-0.739055,1.13241,-9.67741,-6.46828,-4.06223,84.2426
2023-03-11 15:00:24:28,-0.735356,1.14868,-9.71828,-6.4722,-4.05632,84.2378
2023-03-11 15:00:24:38,-0.71596,1.14967,-9.7266,-6.47396,-4.05358,84.2312
2023-03-11 15:00:24:48,-0.696979,1.13218,-9.73004,-6.47031,-4.05051,84.2234
2023-03-11 15:00:24:58,-0.672672,1.12019,-9.71587,-6.46978,-4.04946,84.2144
2023-03-11 15:00:24:68,-0.671779,1.11181,-9.68986,-6.4656,-4.04508,84.2029
2023-03-11 15:00:24:78,-0.657907,1.10744,-9.66556,-6.46413,-4.042,84.1928
2023-03-11 15:00:24:88,-0.655416,1.08606,-9.66287,-6.46288,-4.0399,84.1876
2023-03-11 15:00:24:98,-0.659934,1.08903,-9.67242,-6.46322,-4.03952,84.1788
2023-03-11 15:00:24:108,-0.643268,1.09936,-9.71599,-6.46547,-4.03329,84.1741
2023-03-11 15:00:24:118,-0.635316,1.13007,-9.75713,-6.4667,-4.02835,84.1712
2023-03-11 15:00:24:127,-0.633278,1.14042,-9.75574,-6.46612,-4.02296,84.1686
2023-03-11 15:00:24:138,-0.637589,1.12158,-9.74521,-6.46274,-4.02075,84.1641
2023-03-11 15:00:24:147,-0.650542,1.11399,-9.71988,-6.45811,-4.01783,84.1636
2023-03-11 15:00:24:157,-0.644089,1.09201,-9.68121,-6.45381,-4.0162,84.1607
2023-03-11 15:00:24:167,-0.643787,1.09056,-9.65158,-6.45272,-4.01726,84.1613
2023-03-11 15:00:24:178,-0.64895,1.08231,-9.65059,-6.45345,-4.01573,84.1639
2023-03-11 15:00:24:188,-0.663099,1.08748,-9.6555,-6.45783,-4.01507,84.1652
2023-03-11 15:00:24:198,-0.663499,1.07915,-9.67339,-6.46135,-4.0156,84.1681
2023-03-11 15:00:24:208,-0.648662,1.09411,-9.68864,-6.47101,-4.01826,84.1715
2023-03-11 15:00:24:218,-0.665665,1.134,-9.7139,-6.48167,-4.01773,84.1768
2023-03-11 15:00:24:228,-0.652671,1.15655,-9.73241,-6.49056,-4.01848,84.1783
2023-03-11 15:00:24:237,-0.65337,1.14011,-9.74279,-6.49317,-4.02108,84.1793
2023-03-11 15:00:24:248,-0.666598,1.11797,-9.73393,-6.49231,-4.0207,84.1813
2023-03-11 15:00:24:258,-0.676936,1.121,-9.70414,-6.49158,-4.02463,84.1841
2023-03-11 15:00:24:268,-0.689079,1.10132,-9.67762,-6.49161,-4.0272,84.186
2023-03-11 15:00:24:277,-0.694262,1.08275,-9.64322,-6.49232,-4.03044,84.1894
2023-03-11 15:00:24:287,-0.696281,1.09411,-9.63506,-6.49512,-4.03207,84.19
2023-03-11 15:00:24:298,-0.683071,1.1056,-9.64386,-6.49664,-4.03163,84.1901
2023-03-11 15:00:24:308,-0.674281,1.10287,-9.65449,-6.4984,-4.03285,84.1895
2023-03-11 15:00:24:318,-0.685893,1.09322,-9.68833,-6.50267,-4.03507,84.1897
2023-03-11 15:00:24:327,-0.683116,1.0993,-9.74284,-6.50859,-4.03556,84.1879
2023-03-11 15:00:24:338,-0.658833,1.13888,-9.78695,-6.51636,-4.03249,84.1861
2023-03-11 15:00:24:347,-0.603827,1.13978,-9.79906,-6.5203,-4.03037,84.1807
2023-03-11 15:00:24:358,-0.570695,1.10576,-9.77359,-6.5188,-4.03803,84.183
2023-03-11 15:00:24:367,-0.606113,1.07814,-9.73517,-6.51797,-4.04545,84.1874
2023-03-11 15:00:24:377,-0.656844,1.09655,-9.70602,-6.5202,-4.05737,84.1956
2023-03-11 15:00:24:388,-0.708995,1.11594,-9.69356,-6.52455,-4.06883,84.2046
2023-03-11 15:00:24:398,-0.747037,1.15352,-9.68369,-6.53014,-4.07538,84.2146
2023-03-11 15:00:24:408,-0.766209,1.17436,-9.70339,-6.53423,-4.08141,84.2257
2023-03-11 15:00:24:418,-0.757429,1.19382,-9.70675,-6.53668,-4.08645,84.2371
2023-03-11 15:00:24:428,-0.754965,1.17912,-9.70078,-6.53672,-4.08796,84.245
2023-03-11 15:00:24:438,-0.753121,1.1684,-9.66658,-6.53091,-4.08941,84.2494
2023-03-11 15:00:24:448,-0.749696,1.15088,-9.62059,-6.52177,-4.08679,84.2507
2023-03-11 15:00:24:458,-0.732673,1.12078,-9.60617,-6.51379,-4.08274,84.2485
2023-03-11 15:00:24:468,-0.709894,1.09127,-9.6289,-6.50948,-4.07867,84.241
2023-03-11 15:00:24:478,-0.678318,1.09455,-9.64134,-6.50719,-4.07547,84.2336
2023-03-11 15:00:24:488,-0.661543,1.09282,-9.64824,-6.50858,-4.06851,84.226
2023-03-11 15:00:24:498,-0.666361,1.09306,-9.67912,-6.51374,-4.06787,84.2204
2023-03-11 15:00:24:508,-0.677377,1.10006,-9.7063,-6.51995,-4.0654,84.2148
2023-03-11 15:00:24:518,-0.684006,1.11575,-9.73058,-6.52304,-4.06313,84.206
2023-03-11 15:00:24:528,-0.684089,1.12631,-9.7433,-6.53269,-4.05875,84.2017
2023-03-11 15:00:24:538,-0.67875,1.16095,-9.74271,-6.54198,-4.05716,84.1987
2023-03-11 15:00:24:548,-0.660833,1.16724,-9.7284,-6.55026,-4.05694,84.1938
2023-03-11 15:00:24:558,-0.672271,1.14956,-9.70174,-6.55405,-4.05718,84.1907
2023-03-11 15:00:24:568,-0.698501,1.14155,-9.68932,-6.55672,-4.05598,84.1941
2023-03-11 15:00:24:578,-0.690801,1.15791,-9.69988,-6.55736,-4.05288,84.1897
2023-03-11 15:00:24:588,-0.626506,1.16367,-9.74554,-6.55954,-4.05032,84.1851
2023-03-11 15:00:24:598,-0.564194,1.15793,-9.79639,-6.55794,-4.04937,84.1797
2023-03-11 15:00:24:607,-0.552745,1.1641,-9.79792,-6.55572,-4.05209,84.1767
2023-03-11 15:00:24:618,-0.594271,1.15785,-9.77474,-6.5445,-4.0555,84.1837
2023-03-11 15:00:24:628,-0.653323,1.15016,-9.73943,-6.53351,-4.05956,84.195
2023-03-11 15:00:24:638,-0.669083,1.13396,-9.70835,-6.51896,-4.06527,84.2042
2023-03-11 15:00:24:648,-0.66647,1.10126,-9.68702,-6.50796,-4.06922,84.2151
2023-03-11 15:00:24:658,-0.658303,1.0913,-9.67935,-6.50114,-4.06735,84.2271
2023-03-11 15:00:24:668,-0.653317,1.11033,-9.70693,-6.49541,-4.07112,84.2398
2023-03-11 15:00:24:678,-0.678092,1.13321,-9.73194,-6.4871,-4.07452,84.2525
2023-03-11 15:00:24:688,-0.689939,1.15279,-9.72932,-6.4796,-4.08059,84.2657
2023-03-11 15:00:24:698,-0.708063,1.1485,-9.69307,-6.46622,-4.08891,84.2756
2023-03-11 15:00:24:708,-0.715358,1.13253,-9.69252,-6.45423,-4.0981,84.2806
2023-03-11 15:00:24:718,-0.722247,1.12265,-9.68533,-6.44183,-4.10999,84.2878
2023-03-11 15:00:24:728,-0.725394,1.10748,-9.67759,-6.42617,-4.12006,84.2905
2023-03-11 15:00:24:738,-0.713306,1.09064,-9.67829,-6.41112,-4.13132,84.2936
2023-03-11 15:00:24:748,-0.711024,1.07527,-9.66549,-6.39444,-4.13896,84.297
2023-03-11 15:00:24:758,-0.69987,1.04806,-9.6701,-6.37794,-4.14553,84.3026
2023-03-11 15:00:24:768,-0.696561,1.03048,-9.68368,-6.36442,-4.15662,84.3085
2023-03-11 15:00:24:778,-0.718291,1.05191,-9.69962,-6.35394,-4.1612,84.318
2023-03-11 15:00:24:788,-0.738626,1.1037,-9.71924,-6.34093,-4.16297,84.3282
2023-03-11 15:00:24:798,-0.745743,1.08865,-9.70512,-6.32487,-4.16592,84.336
2023-03-11 15:00:24:808,-0.75136,1.074,-9.67123,-6.31152,-4.16524,84.3463
2023-03-11 15:00:24:818,-0.785855,1.09173,-9.68816,-6.30084,-4.16435,84.3548
2023-03-11 15:00:24:828,-0.784959,1.06539,-9.67449,-6.29034,-4.16312,84.3621
2023-03-11 15:00:24:838,-0.763987,1.06297,-9.63518,-6.28604,-4.16086,84.3669
2023-03-11 15:00:24:848,-0.76255,1.07683,-9.64727,-6.28401,-4.15707,84.3726
2023-03-11 15:00:24:858,-0.769975,1.09705,-9.66572,-6.28135,-4.15482,84.3769
2023-03-11 15:00:24:868,-0.766984,1.09995,-9.68346,-6.28167,-4.14979,84.3757
2023-03-11 15:00:24:878,-0.738781,1.0955,-9.70223,-6.27858,-4.14578,84.3716
2023-03-11 15:00:24:888,-0.721119,1.1112,-9.71466,-6.27434,-4.13778,84.366
2023-03-11 15:00:24:898,-0.703166,1.10572,-9.73893,-6.26232,-4.12511,84.3613
2023-03-11 15:00:24:908,-0.673031,1.08951,-9.72415,-6.25004,-4.11309,84.3501
2023-03-11 15:00:24:918,-0.639491,1.07315,-9.71541,-6.23726,-4.09944,84.3426
2023-03-11 15:00:24:928,-0.639043,1.05377,-9.70289,-6.22719,-4.08754,84.3416
2023-03-11 15:00:24:938,-0.630777,1.03173,-9.69216,-6.2193,-4.08035,84.3382
2023-03-11 15:00:24:948,-0.631568,1.0294,-9.70301,-6.21283,-4.07513,84.3347
2023-03-11 15:00:24:958,-0.616554,1.05196,-9.71984,-6.20866,-4.07122,84.3358
2023-03-11 15:00:24:968,-0.62983,1.07767,-9.73209,-6.20568,-4.07042,84.3401
2023-03-11 15:00:24:978,-0.639037,1.07618,-9.73831,-6.19866,-4.0715,84.3439
2023-03-11 15:00:24:988,-0.640865,1.08346,-9.73979,-6.19003,-4.07349,84.349
2023-03-11 15:00:24:998,-0.647265,1.07655,-9.7418,-6.17993,-4.07334,84.3535
2023-03-11 15:00:25:8,-0.659596,1.07757,-9.74395,-6.16673,-4.07683,84.3606
2023-03-11 15:00:25:18,-0.675615,1.06288,-9.72504,-6.15003,-4.07853,84.3669
2023-03-11 15:00:25:28,-0.681336,1.05005,-9.69351,-6.13441,-4.07997,84.3722
2023-03-11 15:00:25:38,-0.683067,1.05477,-9.68532,-6.12146,-4.08062,84.3818
2023-03-11 15:00:25:48,-0.692205,1.03785,-9.6952,-6.10462,-4.0755,84.3896
2023-03-11 15:00:25:58,-0.682957,1.01882,-9.67897,-6.08673,-4.07389,84.397
2023-03-11 15:00:25:68,-0.692289,0.995277,-9.64386,-6.07068,-4.07068,84.4052
2023-03-11 15:00:25:78,-0.72085,0.983798,-9.63352,-6.05941,-4.06705,84.4126
2023-03-11 15:00:25:88,-0.722973,0.989335,-9.63296,-6.05219,-4.0668,84.4183
2023-03-11 15:00:25:98,-0.724772,1.02325,-9.66298,-6.04867,-4.06179,84.4198
2023-03-11 15:00:25:108,-0.714094,1.0305,-9.65947,-6.04393,-4.05734,84.4218
2023-03-11 15:00:25:118,-0.68078,1.02803,-9.65827,-6.03888,-4.05577,84.4229
2023-03-11 15:00:25:128,-0.687526,1.01948,-9.6756,-6.03082,-4.05032,84.4243
2023-03-11 15:00:25:138,-0.685529,1.0263,-9.71623,-6.0285,-4.04488,84.4268
2023-03-11 15:00:25:148,-0.664567,1.04434,-9.77019,-6.02357,-4.04108,84.4281
2023-03-11 15:00:25:158,-0.629196,1.03739,-9.78927,-6.01587,-4.03694,84.4243
2023-03-11 15:00:25:168,-0.595611,1.02447,-9.76123,-6.00827,-4.03427,84.4269
2023-03-11 15:00:25:178,-0.566033,0.983591,-9.72116,-5.99785,-4.02977,84.4311
2023-03-11 15:00:25:188,-0.582787,0.984121,-9.71369,-5.99264,-4.03,84.4394
2023-03-11 15:00:25:198,-0.6202,1.01732,-9.73107,-5.99387,-4.03245,84.4567
2023-03-11 15:00:25:208,-0.666637,1.04429,-9.74525,-5.99076,-4.04098,84.4769
2023-03-11 15:00:25:218,-0.683097,1.06311,-9.73617,-5.98339,-4.04407,84.4991
2023-03-11 15:00:25:228,-0.688793,1.06225,-9.71298,-5.98211,-4.04468,84.5181
2023-03-11 15:00:25:238,-0.689109,1.06363,-9.68928,-5.97653,-4.04734,84.5379
2023-03-11 15:00:25:248,-0.707224,1.06127,-9.67195,-5.96799,-4.04434,84.5578
2023-03-11 15:00:25:258,-0.705459,1.07248,-9.68396,-5.9535,-4.03399,84.5787
2023-03-11 15:00:25:268,-0.683876,1.04889,-9.65664,-5.93828,-4.02559,84.5924
2023-03-11 15:00:25:278,-0.66803,1.00697,-9.6264,-5.92777,-4.01381,84.6044
2023-03-11 15:00:25:288,-0.664293,1.01175,-9.63961,-5.92018,-4.00115,84.6185
2023-03-11 15:00:25:298,-0.642284,0.992285,-9.67025,-5.91451,-3.98949,84.6304
2023-03-11 15:00:25:308,-0.646337,0.986678,-9.69039,-5.91062,-3.98268,84.6471
2023-03-11 15:00:25:318,-0.681365,1.01139,-9.69697,-5.90549,-3.97736,84.6585
2023-03-11 15:00:25:328,-0.686142,1.00665,-9.72782,-5.90351,-3.97024,84.6741
2023-03-11 15:00:25:338,-0.683605,1.0076,-9.7203,-5.90153,-3.96735,84.6849
2023-03-11 15:00:25:348,-0.657312,1.02002,-9.72178,-5.9016,-3.96341,84.6927
2023-03-11 15:00:25:358,-0.638663,1.03865,-9.71922,-5.90309,-3.95436,84.7003
2023-03-11 15:00:25:368,-0.669699,1.04316,-9.7242,-5.90273,-3.95064,84.7096
2023-03-11 15:00:25:378,-0.720727,1.05213,-9.74359,-5.90396,-3.94888,84.7203
2023-03-11 15:00:25:388,-0.717433,1.07309,-9.77019,-5.90232,-3.94614,84.7254
2023-03-11 15:00:25:397,-0.673931,1.07479,-9.77065,-5.89648,-3.93564,84.7245
2023-03-11 15:00:25:407,-0.597615,1.0353,-9.73984,-5.88483,-3.92665,84.7236
2023-03-11 15:00:25:417,-0.542606,0.98839,-9.70341,-5.87066,-3.91939,84.722
2023-03-11 15:00:25:428,-0.558109,0.969967,-9.69456,-5.85638,-3.91884,84.7266
2023-03-11 15:00:25:437,-0.610885,0.98551,-9.69346,-5.8484,-3.92054,84.7393
2023-03-11 15:00:25:448,-0.638123,0.999458,-9.72262,-5.8392,-3.91919,84.7497
2023-03-11 15:00:25:458,-0.627009,0.983431,-9.72322,-5.83268,-3.91438,84.7662
2023-03-11 15:00:25:468,-0.61242,0.994195,-9.72067,-5.8258,-3.90909,84.784
2023-03-11 15:00:25:478,-0.600835,0.998719,-9.74865,-5.81616,-3.9033,84.8012
2023-03-11 15:00:25:488,-0.587559,0.98348,-9.72884,-5.80888,-3.8984,84.8206
2023-03-11 15:00:25:497,-0.609378,0.972968,-9.7081,-5.79989,-3.8943,84.8433
2023-03-11 15:00:25:508,-0.635299,0.982391,-9.6811,-5.79042,-3.88653,84.8689
2023-03-11 15:00:25:518,-0.616247,0.947554,-9.64598,-5.78544,-3.8807,84.8956
2023-03-11 15:00:25:528,-0.603961,0.934375,-9.65002,-5.77871,-3.87894,84.9288
2023-03-11 15:00:25:538,-0.639639,0.945772,-9.65758,-5.7781,-3.87629,84.9592
2023-03-11 15:00:25:548,-0.656722,0.960487,-9.68174,-5.77997,-3.87711,84.992
2023-03-11 15:00:25:558,-0.651591,0.981345,-9.71095,-5.78115,-3.87269,85.0219
2023-03-11 15:00:25:568,-0.657471,0.993741,-9.7452,-5.77826,-3.87186,85.0515
2023-03-11 15:00:25:577,-0.684027,0.996058,-9.74534,-5.77641,-3.87137,85.0833
2023-03-11 15:00:25:587,-0.701107,0.984008,-9.71597,-5.7758,-3.87358,85.1108
2023-03-11 15:00:25:597,-0.704027,0.979318,-9.70033,-5.77018,-3.87399,85.1376
2023-03-11 15:00:25:607,-0.695173,0.958364,-9.68425,-5.76914,-3.87797,85.1638
2023-03-11 15:00:25:617,-0.731298,0.972846,-9.6962,-5.76806,-3.88307,85.1916
2023-03-11 15:00:25:627,-0.736488,0.976997,-9.6986,-5.76546,-3.8856,85.2136
2023-03-11 15:00:25:638,-0.738202,0.961571,-9.67164,-5.76571,-3.88309,85.2367
2023-03-11 15:00:25:648,-0.753896,0.983584,-9.66469,-5.76667,-3.8824,85.2543
2023-03-11 15:00:25:657,-0.782406,0.996034,-9.68093,-5.77332,-3.87966,85.2704
2023-03-11 15:00:25:667,-0.776953,1.0186,-9.6867,-5.77913,-3.87967,85.2782
2023-03-11 15:00:25:677,-0.775592,1.03496,-9.72754,-5.78305,-3.88065,85.2814
2023-03-11 15:00:25:687,-0.74674,1.03276,-9.74341,-5.78405,-3.88092,85.2786
2023-03-11 15:00:25:698,-0.727254,1.0103,-9.70527,-5.78424,-3.88057,85.2703
2023-03-11 15:00:25:707,-0.703427,1.00477,-9.69584,-5.78681,-3.88095,85.2638
2023-03-11 15:00:25:718,-0.686442,0.991483,-9.69425,-5.78745,-3.87613,85.2481
2023-03-11 15:00:25:728,-0.657938,0.990555,-9.6908,-5.79027,-3.87214,85.2327
2023-03-11 15:00:25:738,-0.642009,0.998795,-9.69409,-5.79492,-3.87217,85.221
2023-03-11 15:00:25:748,-0.632882,1.00334,-9.7283,-5.79913,-3.87043,85.2076
2023-03-11 15:00:25:758,-0.626417,1.02224,-9.75208,-5.7982,-3.86528,85.1959
2023-03-11 15:00:25:768,-0.627711,1.02518,-9.75127,-5.80029,-3.86224,85.1853
2023-03-11 15:00:25:778,-0.609053,0.997116,-9.74229,-5.79739,-3.8607,85.1738
2023-03-11 15:00:25:788,-0.601511,0.992274,-9.71532,-5.79362,-3.8604,85.1623
2023-03-11 15:00:25:798,-0.614443,0.975028,-9.70569,-5.79042,-3.86114,85.1526
2023-03-11 15:00:25:808,-0.631649,0.983905,-9.69751,-5.78732,-3.86264,85.1434
2023-03-11 15:00:25:818,-0.633365,0.97879,-9.69552,-5.78409,-3.8627,85.1383
2023-03-11 15:00:25:828,-0.620876,0.979862,-9.70223,-5.78429,-3.86304,85.1325
2023-03-11 15:00:25:838,-0.622745,0.996459,-9.7014,-5.78522,-3.86162,85.1247
2023-03-11 15:00:25:848,-0.630893,0.997078,-9.69377,-5.78491,-3.85831,85.1222
2023-03-11 15:00:25:858,-0.651828,0.996243,-9.6972,-5.78375,-3.85783,85.1219
2023-03-11 15:00:25:868,-0.654787,0.987382,-9.70216,-5.78322,-3.85511,85.1218
2023-03-11 15:00:25:878,-0.661287,0.97246,-9.71305,-5.78278,-3.85287,85.1236
2023-03-11 15:00:25:888,-0.671254,0.971908,-9.70134,-5.77993,-3.84687,85.1282
2023-03-11 15:00:25:898,-0.680766,0.977938,-9.68877,-5.77843,-3.83687,85.1293
2023-03-11 15:00:25:908,-0.671459,0.98962,-9.69242,-5.7816,-3.82644,85.1249
2023-03-11 15:00:25:917,-0.663014,0.997115,-9.7078,-5.78214,-3.8178,85.1204
2023-03-11 15:00:25:928,-0.650199,1.01296,-9.71272,-5.78096,-3.81024,85.1146
2023-03-11 15:00:25:938,-0.652601,1.00491,-9.68604,-5.78226,-3.80622,85.1066
2023-03-11 15:00:25:948,-0.675191,0.983934,-9.68042,-5.78519,-3.79962,85.1
2023-03-11 15:00:25:958,-0.664443,0.993019,-9.71978,-5.78798,-3.79353,85.0853
2023-03-11 15:00:25:968,-0.608831,1.00216,-9.76293,-5.79109,-3.78786,85.0686
2023-03-11 15:00:25:978,-0.542945,1.00165,-9.78212,-5.79181,-3.7914,85.0535
2023-03-11 15:00:25:988,-0.513315,0.985231,-9.77082,-5.79363,-3.79534,85.0432
2023-03-11 15:00:25:998,-0.550399,0.98006,-9.74257,-5.79481,-3.80119,85.0383
2023-03-11 15:00:26:8,-0.59525,0.987649,-9.73297,-5.79994,-3.81249,85.0379
2023-03-11 15:00:26:18,-0.651575,0.993173,-9.73095,-5.80116,-3.81867,85.0401
2023-03-11 15:00:26:28,-0.681239,1.01351,-9.7012,-5.8032,-3.82085,85.0446
2023-03-11 15:00:26:38,-0.677118,1.0279,-9.67575,-5.80742,-3.82596,85.0499
2023-03-11 15:00:26:48,-0.690942,1.04179,-9.67252,-5.81309,-3.82449,85.0536
2023-03-11 15:00:26:58,-0.69884,1.04878,-9.69105,-5.81887,-3.82312,85.0573
2023-03-11 15:00:26:67,-0.694697,1.0485,-9.69693,-5.81864,-3.82328,85.0641
2023-03-11 15:00:26:78,-0.707667,1.0346,-9.67807,-5.8185,-3.81737,85.0661
2023-03-11 15:00:26:88,-0.710089,1.01548,-9.66341,-5.81678,-3.81215,85.063
2023-03-11 15:00:26:98,-0.677623,0.993606,-9.65293,-5.81312,-3.80522,85.0571
2023-03-11 15:00:26:108,-0.652958,0.975406,-9.6492,-5.8129,-3.7966,85.0495
2023-03-11 15:00:26:118,-0.649209,0.964229,-9.67447,-5.81809,-3.79103,85.039
2023-03-11 15:00:26:128,-0.639926,0.974192,-9.6829,-5.82398,-3.78775,85.0263
2023-03-11 15:00:26:138,-0.629231,0.988702,-9.71449,-5.83113,-3.77723,85.0171
2023-03-11 15:00:26:148,-0.611374,0.983934,-9.75126,-5.83601,-3.77187,85.0019
2023-03-11 15:00:26:158,-0.596384,0.996544,-9.75927,-5.84263,-3.76683,84.9851
2023-03-11 15:00:26:168,-0.574183,1.00431,-9.73023,-5.84966,-3.76637,84.9699
2023-03-11 15:00:26:178,-0.563789,0.997419,-9.70028,-5.85478,-3.76574,84.9601
2023-03-11 15:00:26:188,-0.599753,0.996256,-9.71378,-5.86699,-3.76512,84.9512
2023-03-11 15:00:26:198,-0.629682,1.02583,-9.72262,-5.87386,-3.76344,84.9445
2023-03-11 15:00:26:208,-0.614002,1.06383,-9.72419,-5.88223,-3.75455,84.9341
2023-03-11 15:00:26:218,-0.54334,1.04518,-9.74497,-5.88453,-3.75037,84.9256
2023-03-11 15:00:26:227,-0.481518,1.00477,-9.74946,-5.88467,-3.74551,84.9154
2023-03-11 15:00:26:238,-0.485767,1.00115,-9.7395,-5.88438,-3.74689,84.9137
2023-03-11 15:00:26:248,-0.55396,1.00928,-9.74314,-5.88483,-3.75411,84.9199
2023-03-11 15:00:26:258,-0.601917,1.01634,-9.7283,-5.8779,-3.75753,84.9241
2023-03-11 15:00:26:268,-0.62271,0.999986,-9.72695,-5.87609,-3.75955,84.9289
2023-03-11 15:00:26:278,-0.605092,0.984269,-9.73874,-5.87374,-3.75959,84.9356
2023-03-11 15:00:26:288,-0.603947,0.984621,-9.72495,-5.87193,-3.76044,84.9442
2023-03-11 15:00:26:298,-0.605307,1.00053,-9.7105,-5.87364,-3.76511,84.9505
2023-03-11 15:00:26:308,-0.622536,1.01614,-9.71129,-5.8708,-3.76976,84.9579
2023-03-11 15:00:26:318,-0.640397,1.02397,-9.70473,-5.86955,-3.77804,84.9667
2023-03-11 15:00:26:328,-0.659607,1.03727,-9.71425,-5.87088,-3.78614,84.9746
2023-03-11 15:00:26:338,-0.660468,1.03632,-9.71164,-5.86767,-3.79362,84.9781
2023-03-11 15:00:26:348,-0.660066,1.02859,-9.70706,-5.86185,-3.80745,84.9824
2023-03-11 15:00:26:358,-0.66828,1.02446,-9.70087,-5.85457,-3.81729,84.9844
2023-03-11 15:00:26:368,-0.66749,1.00758,-9.70648,-5.84617,-3.8206,84.9861
2023-03-11 15:00:26:378,-0.672525,1.00689,-9.7022,-5.8423,-3.83056,84.99
2023-03-11 15:00:26:388,-0.658392,0.985258,-9.69168,-5.83705,-3.83531,84.9944
2023-03-11 15:00:26:398,-0.662657,0.964201,-9.68707,-5.83144,-3.83863,84.9996
2023-03-11 15:00:26:408,-0.682108,0.972035,-9.6788,-5.82544,-3.84145,85.0021
2023-03-11 15:00:26:418,-0.708663,0.969673,-9.68264,-5.82307,-3.84418,85.006
2023-03-11 15:00:26:428,-0.713255,0.976761,-9.67825,-5.82258,-3.84947,85.0096
2023-03-11 15:00:26:438,-0.729628,0.981142,-9.66958,-5.81969,-3.84835,85.0157
2023-03-11 15:00:26:448,-0.72275,0.980454,-9.68726,-5.82373,-3.84696,85.0226
2023-03-11 15:00:26:458,-0.723758,0.995739,-9.69089,-5.82696,-3.84371,85.0269
2023-03-11 15:00:26:468,-0.719994,1.00935,-9.70317,-5.83391,-3.84308,85.0256
2023-03-11 15:00:26:478,-0.721962,1.02028,-9.71035,-5.83788,-3.83952,85.0233
2023-03-11 15:00:26:488,-0.723467,1.02086,-9.71724,-5.84126,-3.83261,85.0151
2023-03-11 15:00:26:498,-0.692883,1.02517,-9.711,-5.84567,-3.82813,85.0052
2023-03-11 15:00:26:508,-0.671311,1.02496,-9.71919,-5.85186,-3.82543,84.9958
2023-03-11 15:00:26:518,-0.659705,1.02669,-9.72499,-5.8513,-3.81898,84.984
2023-03-11 15:00:26:528,-0.63848,1.0266,-9.72636,-5.84894,-3.81357,84.972
2023-03-11 15:00:26:538,-0.604967,1.01925,-9.72537,-5.84793,-3.80774,84.9598
2023-03-11 15:00:26:548,-0.59846,1.01456,-9.73012,-5.84685,-3.80475,84.9486
2023-03-11 15:00:26:558,-0.594361,1.0307,-9.73835,-5.84528,-3.80041,84.9367
2023-03-11 15:00:26:568,-0.584013,1.01663,-9.7543,-5.84178,-3.79343,84.9292
2023-03-11 15:00:26:578,-0.585092,1.0141,-9.74932,-5.83707,-3.78552,84.9204
2023-03-11 15:00:26:588,-0.588563,1.01199,-9.75285,-5.82979,-3.77994,84.9155
2023-03-11 15:00:26:598,-0.590716,1.00894,-9.7533,-5.82314,-3.77496,84.9122
2023-03-11 15:00:26:608,-0.59149,1.01075,-9.72627,-5.81472,-3.77104,84.9093
2023-03-11 15:00:26:618,-0.593212,0.983952,-9.70884,-5.80584,-3.77056,84.9077
2023-03-11 15:00:26:628,-0.589672,0.976048,-9.70453,-5.8003,-3.77099,84.909
2023-03-11 15:00:26:638,-0.594218,0.982211,-9.69453,-5.79364,-3.77099,84.9067
2023-03-11 15:00:26:648,-0.608062,0.979615,-9.69787,-5.7857,-3.77168,84.9055
2023-03-11 15:00:26:658,-0.620072,0.978773,-9.70277,-5.78094,-3.7737,84.9078
2023-03-11 15:00:26:668,-0.611016,0.983271,-9.69144,-5.77814,-3.77293,84.9109
2023-03-11 15:00:26:678,-0.616471,0.982472,-9.70209,-5.77454,-3.77277,84.9119
2023-03-11 15:00:26:688,-0.625409,0.977538,-9.7066,-5.77022,-3.77183,84.9144
2023-03-11 15:00:26:698,-0.626467,0.972939,-9.69025,-5.76718,-3.77302,84.9182
2023-03-11 15:00:26:708,-0.638206,0.95688,-9.68145,-5.76386,-3.77575,84.9239
2023-03-11 15:00:26:718,-0.645889,0.955549,-9.66732,-5.76051,-3.77798,84.9269
2023-03-11 15:00:26:728,-0.653328,0.948163,-9.6573,-5.75841,-3.77783,84.9284
2023-03-11 15:00:26:738,-0.645119,0.943244,-9.67181,-5.76289,-3.78067,84.9319
2023-03-11 15:00:26:748,-0.650366,0.941045,-9.68619,-5.76664,-3.78412,84.9304
2023-03-11 15:00:26:758,-0.637506,0.965161,-9.68945,-5.77357,-3.78833,84.9285
2023-03-11 15:00:26:768,-0.618952,0.973925,-9.69683,-5.77797,-3.79403,84.9257
2023-03-11 15:00:26:778,-0.623184,0.970648,-9.70594,-5.78183,-3.7963,84.9223
2023-03-11 15:00:26:788,-0.619289,0.977038,-9.74002,-5.79011,-3.79648,84.9194
2023-03-11 15:00:26:798,-0.583774,0.984273,-9.77102,-5.79608,-3.79926,84.9145
2023-03-11 15:00:26:808,-0.512107,0.976643,-9.77652,-5.79866,-3.80226,84.9071
2023-03-11 15:00:26:818,-0.497168,0.950905,-9.75739,-5.79751,-3.811,84.9058
2023-03-11 15:00:26:828,-0.545563,0.956327,-9.72778,-5.80087,-3.82638,84.9126
2023-03-11 15:00:26:838,-0.627747,0.975914,-9.71963,-5.80905,-3.83957,84.9236
2023-03-11 15:00:26:848,-0.673673,1.00815,-9.71494,-5.8221,-3.85369,84.9369
2023-03-11 15:00:26:858,-0.692323,1.03179,-9.7267,-5.83267,-3.86588,84.9521
2023-03-11 15:00:26:868,-0.728941,1.0654,-9.72268,-5.84066,-3.8771,84.9667
2023-03-11 15:00:26:878,-0.729393,1.06922,-9.71555,-5.84663,-3.88135,84.9822
2023-03-11 15:00:26:888,-0.749507,1.06387,-9.72149,-5.8479,-3.88292,84.9917
2023-03-11 15:00:26:898,-0.758133,1.06282,-9.69176,-5.84691,-3.88423,84.9998
2023-03-11 15:00:26:907,-0.758585,1.05221,-9.66347,-5.83991,-3.88336,85.0039
2023-03-11 15:00:26:918,-0.741565,1.01485,-9.63383,-5.83181,-3.88195,85.002
2023-03-11 15:00:26:928,-0.694942,0.992747,-9.63372,-5.8268,-3.8768,84.9964
2023-03-11 15:00:26:938,-0.675537,0.9755,-9.6564,-5.82717,-3.87423,84.9896
2023-03-11 15:00:26:948,-0.662869,0.987959,-9.67396,-5.82772,-3.87382,84.9774
2023-03-11 15:00:26:958,-0.656793,0.996874,-9.69258,-5.83009,-3.87183,84.9634
2023-03-11 15:00:26:968,-0.659707,0.996756,-9.73913,-5.8335,-3.87119,84.9474
2023-03-11 15:00:26:978,-0.638765,1.00348,-9.75147,-5.83825,-3.86895,84.9366
2023-03-11 15:00:26:988,-0.61919,1.00811,-9.74391,-5.84316,-3.86625,84.9221
2023-03-11 15:00:26:998,-0.591557,1.02343,-9.73494,-5.84523,-3.8644,84.9081
2023-03-11 15:00:27:7,-0.592959,1.02775,-9.73608,-5.85163,-3.86915,84.8958
2023-03-11 15:00:27:18,-0.639457,1.04361,-9.73462,-5.85661,-3.87188,84.889
2023-03-11 15:00:27:28,-0.669255,1.06849,-9.74109,-5.85972,-3.87115,84.8828
2023-03-11 15:00:27:38,-0.646099,1.06977,-9.75189,-5.86049,-3.86736,84.8724
2023-03-11 15:00:27:48,-0.566402,1.03325,-9.77299,-5.8559,-3.86392,84.863
2023-03-11 15:00:27:58,-0.505534,1.00003,-9.74847,-5.84691,-3.86216,84.8565
2023-03-11 15:00:27:68,-0.533878,0.98274,-9.71343,-5.84041,-3.86393,84.8543
2023-03-11 15:00:27:78,-0.593831,0.983413,-9.69471,-5.83362,-3.8682,84.858
2023-03-11 15:00:27:88,-0.629161,0.995638,-9.70942,-5.8272,-3.87335,84.8614
2023-03-11 15:00:27:98,-0.627525,1.00525,-9.71971,-5.82225,-3.87721,84.8657
2023-03-11 15:00:27:108,-0.626213,1.01166,-9.72178,-5.81849,-3.88102,84.875
2023-03-11 15:00:27:118,-0.628801,1.00421,-9.71976,-5.81399,-3.8862,84.881
2023-03-11 15:00:27:128,-0.638671,1.00621,-9.71456,-5.80726,-3.89393,84.891
2023-03-11 15:00:27:138,-0.647678,1.0046,-9.70507,-5.79919,-3.90219,84.9011
2023-03-11 15:00:27:148,-0.656656,1.00229,-9.7027,-5.79301,-3.90907,84.912
2023-03-11 15:00:27:158,-0.675792,1.00624,-9.69845,-5.78351,-3.91643,84.9204
2023-03-11 15:00:27:168,-0.681413,1.00593,-9.70814,-5.77889,-3.93039,84.9283
2023-03-11 15:00:27:178,-0.6784,1.00709,-9.70241,-5.77275,-3.94242,84.9367
2023-03-11 15:00:27:187,-0.692047,1.00921,-9.69669,-5.76547,-3.95211,84.9416
2023-03-11 15:00:27:198,-0.699083,0.987149,-9.69934,-5.75815,-3.96197,84.9491
2023-03-11 15:00:27:208,-0.705416,0.961425,-9.69671,-5.74742,-3.96993,84.9591
2023-03-11 15:00:27:217,-0.699112,0.960978,-9.70375,-5.73512,-3.97965,84.9691
2023-03-11 15:00:27:227,-0.712321,0.951916,-9.69286,-5.72743,-3.98728,84.9789
2023-03-11 15:00:27:237,-0.734768,0.941497,-9.68056,-5.71851,-3.99206,84.9898
2023-03-11 15:00:27:248,-0.750177,0.943862,-9.68487,-5.71154,-3.99467,84.9984
2023-03-11 15:00:27:257,-0.767771,0.94105,-9.68428,-5.70796,-3.99931,85.0101
2023-03-11 15:00:27:267,-0.791367,0.956112,-9.66446,-5.7054,-3.99994,85.0149
2023-03-11 15:00:27:277,-0.803417,0.968459,-9.66351,-5.70287,-4.00098,85.0157
2023-03-11 15:00:27:287,-0.793309,0.983759,-9.67562,-5.70305,-4.00057,85.0155
2023-03-11 15:00:27:298,-0.781243,0.984564,-9.68638,-5.70777,-3.9993,85.0126
2023-03-11 15:00:27:307,-0.762661,0.981675,-9.68801,-5.71278,-3.99492,85.0035
2023-03-11 15:00:27:318,-0.751398,0.982067,-9.70965,-5.71353,-3.99257,84.9911
2023-03-11 15:00:27:328,-0.72706,0.985043,-9.70034,-5.71238,-3.98728,84.978
2023-03-11 15:00:27:337,-0.706695,0.970633,-9.69885,-5.71376,-3.9813,84.9658
2023-03-11 15:00:27:347,-0.68004,0.966557,-9.70869,-5.71123,-3.97231,84.9518
2023-03-11 15:00:27:357,-0.664417,0.969408,-9.70424,-5.71091,-3.96574,84.9413
2023-03-11 15:00:27:367,-0.644467,0.959333,-9.71187,-5.70861,-3.95679,84.9252
2023-03-11 15:00:27:377,-0.628077,0.964804,-9.70995,-5.70492,-3.95036,84.9124
2023-03-11 15:00:27:387,-0.608475,0.969548,-9.73063,-5.70449,-3.94663,84.9002
2023-03-11 15:00:27:397,-0.606974,0.961057,-9.71948,-5.70098,-3.94196,84.8908
2023-03-11 15:00:27:408,-0.606743,0.958872,-9.71177,-5.70117,-3.93569,84.886
2023-03-11 15:00:27:417,-0.58944,0.958803,-9.71065,-5.7002,-3.92955,84.8799
2023-03-11 15:00:27:428,-0.595348,0.94764,-9.70331,-5.6981,-3.92596,84.8757
2023-03-11 15:00:27:437,-0.59433,0.934059,-9.69683,-5.69673,-3.92133,84.875
2023-03-11 15:00:27:448,-0.609682,0.945928,-9.69544,-5.6963,-3.92054,84.8723
2023-03-11 15:00:27:458,-0.617337,0.955255,-9.71229,-5.69776,-3.92246,84.8741
2023-03-11 15:00:27:467,-0.622029,0.946392,-9.71187,-5.70073,-3.92224,84.877
2023-03-11 15:00:27:478,-0.634618,0.941843,-9.68831,-5.70299,-3.92221,84.8811
2023-03-11 15:00:27:487,-0.646506,0.942262,-9.66393,-5.7041,-3.92633,84.8855
2023-03-11 15:00:27:498,-0.6474,0.934181,-9.66161,-5.70531,-3.92639,84.8913
2023-03-11 15:00:27:508,-0.64624,0.948659,-9.6556,-5.71498,-3.92752,84.8978
2023-03-11 15:00:27:518,-0.659758,0.937987,-9.6765,-5.72018,-3.92957,84.9052
2023-03-11 15:00:27:528,-0.698109,0.95452,-9.68309,-5.73083,-3.9336,84.9155
2023-03-11 15:00:27:537,-0.720311,0.969825,-9.69267,-5.73793,-3.9333,84.922
2023-03-11 15:00:27:548,-0.719521,0.978273,-9.69978,-5.74672,-3.93256,84.9247
2023-03-11 15:00:27:557,-0.722293,0.994203,-9.69163,-5.75624,-3.93358,84.9253
2023-03-11 15:00:27:568,-0.705074,1.00673,-9.67979,-5.76627,-3.9348,84.9228
2023-03-11 15:00:27:578,-0.678702,0.993342,-9.67058,-5.77299,-3.93223,84.9191
2023-03-11 15:00:27:588,-0.682706,0.970211,-9.66555,-5.78133,-3.93232,84.9184
2023-03-11 15:00:27:598,-0.690018,0.966489,-9.7006,-5.7919,-3.9281,84.9157
2023-03-11 15:00:27:608,-0.646511,0.993498,-9.76628,-5.80417,-3.92162,84.9102
2023-03-11 15:00:27:618,-0.605833,1.00801,-9.81068,-5.81355,-3.91394,84.902
2023-03-11 15:00:27:628,-0.584702,0.988888,-9.7755,-5.81876,-3.91133,84.8963
2023-03-11 15:00:27:638,-0.606866,0.980136,-9.73489,-5.82598,-3.91112,84.897
2023-03-11 15:00:27:647,-0.650643,0.998896,-9.71075,-5.83536,-3.91522,84.9023
2023-03-11 15:00:27:658,-0.688117,1.02405,-9.72144,-5.85236,-3.91486,84.9076
2023-03-11 15:00:27:667,-0.714996,1.0583,-9.73838,-5.86506,-3.91965,84.9145
2023-03-11 15:00:27:677,-0.712154,1.07859,-9.72811,-5.8779,-3.92232,84.9198
2023-03-11 15:00:27:688,-0.706462,1.06615,-9.7092,-5.88274,-3.9213,84.9236
2023-03-11 15:00:27:697,-0.690264,1.05152,-9.68373,-5.88401,-3.91937,84.927
2023-03-11 15:00:27:708,-0.683122,1.052,-9.67464,-5.88851,-3.91665,84.9272
2023-03-11 15:00:27:717,-0.689783,1.05274,-9.6607,-5.88981,-3.91273,84.9283
2023-03-11 15:00:27:728,-0.684297,1.03647,-9.66173,-5.89319,-3.90913,84.931
2023-03-11 15:00:27:738,-0.663256,1.0199,-9.65845,-5.89483,-3.90238,84.9296
2023-03-11 15:00:27:748,-0.649317,1.00879,-9.67575,-5.89913,-3.89297,84.9254
2023-03-11 15:00:27:757,-0.631976,1.01054,-9.71052,-5.90139,-3.88377,84.9227
2023-03-11 15:00:27:768,-0.63511,1.02439,-9.74309,-5.90881,-3.87792,84.9222
2023-03-11 15:00:27:778,-0.634753,1.02798,-9.76714,-5.91218,-3.8743,84.9169
2023-03-11 15:00:27:787,-0.645553,1.04069,-9.75994,-5.91544,-3.86673,84.9121
2023-03-11 15:00:27:798,-0.628258,1.0394,-9.76117,-5.92038,-3.86462,84.9065
2023-03-11 15:00:27:807,-0.610845,1.05491,-9.74212,-5.92161,-3.85655,84.8984
2023-03-11 15:00:27:818,-0.587789,1.05667,-9.72238,-5.92525,-3.85426,84.8955
2023-03-11 15:00:27:828,-0.621393,1.04918,-9.71502,-5.92711,-3.85443,84.8926
2023-03-11 15:00:27:838,-0.671977,1.05683,-9.70844,-5.92816,-3.85195,84.8902
2023-03-11 15:00:27:848,-0.663278,1.06571,-9.73179,-5.92859,-3.84575,84.8847
2023-03-11 15:00:27:858,-0.591472,1.07766,-9.74541,-5.92374,-3.84008,84.8784
2023-03-11 15:00:27:868,-0.517759,1.0403,-9.75038,-5.91391,-3.83806,84.8696
2023-03-11 15:00:27:877,-0.503429,1.01161,-9.72928,-5.90355,-3.83771,84.8697
2023-03-11 15:00:27:888,-0.563284,1.0015,-9.69615,-5.89615,-3.84049,84.878
2023-03-11 15:00:27:898,-0.613352,0.984178,-9.68272,-5.88804,-3.84804,84.8855
2023-03-11 15:00:27:908,-0.618332,0.976852,-9.66639,-5.88179,-3.85231,84.8938
2023-03-11 15:00:27:917,-0.611939,0.964878,-9.6492,-5.87787,-3.85173,84.9021
2023-03-11 15:00:27:928,-0.610169,0.970845,-9.6662,-5.88143,-3.85321,84.9136
2023-03-11 15:00:27:938,-0.630358,0.990742,-9.69303,-5.88557,-3.85772,84.9284
2023-03-11 15:00:27:947,-0.646604,1.00517,-9.73554,-5.8862,-3.86403,84.9438
2023-03-11 15:00:27:958,-0.669723,1.03132,-9.75183,-5.88686,-3.87004,84.9577
2023-03-11 15:00:27:967,-0.691433,1.03737,-9.74587,-5.88321,-3.87849,84.9689
2023-03-11 15:00:27:978,-0.702742,1.01917,-9.72391,-5.87939,-3.88642,84.978
2023-03-11 15:00:27:987,-0.704648,1.01098,-9.70543,-5.86933,-3.89195,84.9876
2023-03-11 15:00:27:997,-0.716978,0.988294,-9.68392,-5.86325,-3.89822,84.9935
2023-03-11 15:00:28:7,-0.731195,0.978308,-9.66847,-5.85955,-3.90187,84.9993
2023-03-11 15:00:28:17,-0.712084,0.974014,-9.66483,-5.8521,-3.90572,85.002
2023-03-11 15:00:28:28,-0.700963,0.976122,-9.67219,-5.84824,-3.91279,85.0063
2023-03-11 15:00:28:37,-0.695807,0.95863,-9.6857,-5.84461,-3.91878,85.0081
2023-03-11 15:00:28:48,-0.688553,0.948558,-9.69221,-5.84402,-3.92104,85.0101
2023-03-11 15:00:28:58,-0.699023,0.947416,-9.6839,-5.84147,-3.92509,85.0116
2023-03-11 15:00:28:68,-0.695142,0.959867,-9.68133,-5.83991,-3.92455,85.0178
2023-03-11 15:00:28:78,-0.706722,0.97615,-9.68892,-5.84366,-3.92302,85.0203
2023-03-11 15:00:28:87,-0.733062,0.982471,-9.69972,-5.84471,-3.92503,85.0205
2023-03-11 15:00:28:98,-0.729469,1.00302,-9.6859,-5.84727,-3.92679,85.0209
2023-03-11 15:00:28:108,-0.750862,0.999225,-9.68874,-5.84881,-3.92829,85.0184
2023-03-11 15:00:28:118,-0.749473,0.995291,-9.67875,-5.85295,-3.92351,85.0132
2023-03-11 15:00:28:128,-0.728052,0.996311,-9.6526,-5.85508,-3.91989,85.0022
2023-03-11 15:00:28:138,-0.708347,0.988335,-9.65853,-5.85984,-3.91461,84.9926
2023-03-11 15:00:28:148,-0.689719,0.990884,-9.67254,-5.86747,-3.9117,84.9788
2023-03-11 15:00:28:158,-0.677123,1.00933,-9.69351,-5.87781,-3.90638,84.97
2023-03-11 15:00:28:168,-0.662456,1.01032,-9.71054,-5.8887,-3.90226,84.9562
2023-03-11 15:00:28:177,-0.652218,1.02261,-9.71907,-5.89585,-3.89401,84.943
2023-03-11 15:00:28:188,-0.629998,1.02199,-9.72783,-5.90144,-3.8874,84.9325
2023-03-11 15:00:28:197,-0.601981,1.02098,-9.73566,-5.90685,-3.88026,84.9229
2023-03-11 15:00:28:208,-0.60139,1.03609,-9.72974,-5.91296,-3.87411,84.9123
2023-03-11 15:00:28:217,-0.609876,1.03661,-9.73476,-5.91749,-3.8732,84.9076
2023-03-11 15:00:28:228,-0.606461,1.04317,-9.74677,-5.91748,-3.87323,84.9071
2023-03-11 15:00:28:238,-0.595143,1.0497,-9.7543,-5.91813,-3.86817,84.904
2023-03-11 15:00:28:248,-0.607498,1.05028,-9.7614,-5.91694,-3.86675,84.9072
2023-03-11 15:00:28:258,-0.629242,1.03073,-9.74842,-5.91485,-3.86624,84.9124
2023-03-11 15:00:28:268,-0.641313,1.0296,-9.71818,-5.91228,-3.86561,84.9137
2023-03-11 15:00:28:278,-0.658797,1.02692,-9.69104,-5.90905,-3.86848,84.9209
2023-03-11 15:00:28:287,-0.660612,1.02291,-9.68994,-5.90667,-3.86941,84.9282
2023-03-11 15:00:28:298,-0.666728,1.03024,-9.69518,-5.90364,-3.87047,84.9326
2023-03-11 15:00:28:308,-0.660554,1.03676,-9.70364,-5.90127,-3.86844,84.9398
2023-03-11 15:00:28:317,-0.670357,1.03136,-9.69556,-5.89503,-3.86917,84.9455
2023-03-11 15:00:28:328,-0.691696,1.02398,-9.69417,-5.8901,-3.86963,84.9499
2023-03-11 15:00:28:338,-0.685402,1.02659,-9.69993,-5.88307,-3.86596,84.951
2023-03-11 15:00:28:348,-0.701614,1.01081,-9.68645,-5.88087,-3.86334,84.9515
2023-03-11 15:00:28:357,-0.709369,1.00562,-9.66362,-5.87623,-3.86025,84.9494
2023-03-11 15:00:28:368,-0.674292,0.982983,-9.65892,-5.87243,-3.85182,84.9425
2023-03-11 15:00:28:377,-0.64868,0.96585,-9.63565,-5.87048,-3.85096,84.9376
2023-03-11 15:00:28:388,-0.632292,0.955839,-9.62522,-5.87502,-3.85002,84.9334
2023-03-11 15:00:28:398,-0.633672,0.956386,-9.65872,-5.88312,-3.84845,84.9251
2023-03-11 15:00:28:407,-0.597901,1.00176,-9.73294,-5.89525,-3.84061,84.9173
2023-03-11 15:00:28:418,-0.545504,1.02897,-9.81493,-5.90776,-3.8343,84.9128
2023-03-11 15:00:28:427,-0.48644,1.02395,-9.81447,-5.91023,-3.82817,84.9107
2023-03-11 15:00:28:437,-0.474547,0.978701,-9.76705,-5.9085,-3.82724,84.917
2023-03-11 15:00:28:447,-0.475521,0.964743,-9.74726,-5.91305,-3.8236,84.9292
2023-03-11 15:00:28:457,-0.452883,0.985191,-9.76853,-5.91739,-3.81499,84.9513
2023-03-11 15:00:28:468,-0.379481,1.00495,-9.7995,-5.92078,-3.80023,84.988
2023-03-11 15:00:28:478,-0.299128,1.00847,-9.78446,-5.92149,-3.77536,85.0386
2023-03-11 15:00:28:487,-0.214503,0.998385,-9.7357,-5.91624,-3.73811,85.1082
2023-03-11 15:00:28:498,-0.0222061,0.915791,-9.68649,-5.91127,-3.68788,85.2059
2023-03-11 15:00:28:507,0.187076,0.884823,-9.70117,-5.90637,-3.61911,85.3376
2023-03-11 15:00:28:518,0.332008,0.918433,-9.74895,-5.90023,-3.52632,85.5199
2023-03-11 15:00:28:528,0.503333,0.937527,-9.81901,-5.8912,-3.40906,85.7546
2023-03-11 15:00:28:538,0.743599,0.920943,-9.87304,-5.87888,-3.26515,86.0469
2023-03-11 15:00:28:548,1.03289,0.896669,-9.93892,-5.85232,-3.09279,86.4136
2023-03-11 15:00:28:558,1.20638,0.89785,-10.0245,-5.82156,-2.88881,86.8711
