Timestamp,Acceleration_x,Acceleration_y,Acceleration_z,roll,pitch,yaw
2023-03-15 12:53:53:899,-0.816565,1.24927,-9.70595,-6.93468,-4.96509,-40.6542
2023-03-15 12:53:53:907,-0.824155,1.25312,-9.67472,-6.93697,-4.96434,-40.6397
2023-03-15 12:53:53:917,-0.862649,1.24016,-9.6271,-6.93858,-4.96477,-40.6257
2023-03-15 12:53:53:927,-0.876434,1.22755,-9.61927,-6.94203,-4.96326,-40.6137
2023-03-15 12:53:53:937,-0.870001,1.22794,-9.6415,-6.94563,-4.95981,-40.6056
2023-03-15 12:53:53:948,-0.830341,1.22255,-9.67815,-6.94279,-4.95519,-40.5999
2023-03-15 12:53:53:957,-0.778239,1.21376,-9.70852,-6.94365,-4.94757,-40.5886
2023-03-15 12:53:53:967,-0.711334,1.20392,-9.72873,-6.94252,-4.94578,-40.5716
2023-03-15 12:53:53:977,-0.684075,1.20563,-9.72821,-6.9398,-4.94812,-40.5546
2023-03-15 12:53:53:987,-0.729806,1.20945,-9.70978,-6.9407,-4.95688,-40.5348
2023-03-15 12:53:53:997,-0.824218,1.2224,-9.67615,-6.93981,-4.9703,-40.5134
2023-03-15 12:53:54:7,-0.899116,1.24301,-9.66226,-6.93941,-4.98092,-40.497
2023-03-15 12:53:54:17,-0.902626,1.24126,-9.65913,-6.93215,-4.98389,-40.4849
2023-03-15 12:53:54:27,-0.859103,1.22024,-9.66427,-6.92561,-4.98443,-40.467
2023-03-15 12:53:54:37,-0.818402,1.21784,-9.67597,-6.92075,-4.98562,-40.4486
2023-03-15 12:53:54:47,-0.809733,1.2213,-9.67582,-6.91452,-4.97837,-40.4287
2023-03-15 12:53:54:58,-0.831127,1.22395,-9.65168,-6.90574,-4.97983,-40.4103
2023-03-15 12:53:54:67,-0.850036,1.21815,-9.61323,-6.89685,-4.98199,-40.3896
2023-03-15 12:53:54:77,-0.858514,1.20708,-9.57194,-6.89064,-4.98386,-40.374
2023-03-15 12:53:54:88,-0.855798,1.20222,-9.55783,-6.88905,-4.98601,-40.357
2023-03-15 12:53:54:98,-0.844922,1.21491,-9.57666,-6.88874,-4.98884,-40.3464
2023-03-15 12:53:54:107,-0.825249,1.23398,-9.63069,-6.89078,-4.98878,-40.338
2023-03-15 12:53:54:117,-0.815697,1.24967,-9.68613,-6.89408,-4.99042,-40.3313
2023-03-15 12:53:54:128,-0.82247,1.25973,-9.71184,-6.89286,-4.99631,-40.3224
2023-03-15 12:53:54:138,-0.823858,1.25623,-9.72925,-6.88661,-5.00066,-40.3143
2023-03-15 12:53:54:147,-0.820293,1.25215,-9.72854,-6.88166,-5.00682,-40.3061
2023-03-15 12:53:54:157,-0.821557,1.23596,-9.70653,-6.87013,-5.01162,-40.2965
2023-03-15 12:53:54:167,-0.80726,1.2049,-9.69184,-6.8599,-5.01474,-40.2871
2023-03-15 12:53:54:177,-0.780382,1.18928,-9.68092,-6.84963,-5.01621,-40.2741
2023-03-15 12:53:54:187,-0.7786,1.1693,-9.65292,-6.83767,-5.01693,-40.2562
2023-03-15 12:53:54:197,-0.803285,1.14598,-9.62788,-6.8317,-5.01747,-40.2307
2023-03-15 12:53:54:207,-0.825794,1.15098,-9.62272,-6.82721,-5.01308,-40.2057
2023-03-15 12:53:54:218,-0.823249,1.17017,-9.62041,-6.8252,-5.00595,-40.1786
2023-03-15 12:53:54:227,-0.768814,1.15653,-9.64526,-6.82134,-4.99337,-40.1472
2023-03-15 12:53:54:237,-0.731469,1.15165,-9.66696,-6.81973,-4.98466,-40.1141
2023-03-15 12:53:54:248,-0.730272,1.14333,-9.64323,-6.81581,-4.97605,-40.0766
2023-03-15 12:53:54:258,-0.78007,1.13558,-9.60697,-6.81582,-4.97336,-40.0366
2023-03-15 12:53:54:267,-0.841964,1.14261,-9.58567,-6.81664,-4.97006,-40.0029
2023-03-15 12:53:54:277,-0.872199,1.14203,-9.59647,-6.82008,-4.97017,-39.9663
2023-03-15 12:53:54:288,-0.887986,1.13691,-9.61502,-6.82669,-4.96842,-39.9361
2023-03-15 12:53:54:297,-0.872695,1.16354,-9.62391,-6.83488,-4.96549,-39.9101
2023-03-15 12:53:54:307,-0.844651,1.17652,-9.6276,-6.84465,-4.96336,-39.889
2023-03-15 12:53:54:317,-0.823297,1.16732,-9.641,-6.8575,-4.96095,-39.8638
2023-03-15 12:53:54:327,-0.828696,1.1865,-9.64768,-6.87006,-4.96411,-39.8422
2023-03-15 12:53:54:337,-0.832608,1.20751,-9.65813,-6.88834,-4.96529,-39.8261
2023-03-15 12:53:54:347,-0.838852,1.21058,-9.68445,-6.90328,-4.97035,-39.8081
2023-03-15 12:53:54:357,-0.846922,1.21062,-9.70012,-6.91724,-4.9744,-39.7959
2023-03-15 12:53:54:367,-0.841529,1.22532,-9.70796,-6.92924,-4.98016,-39.7837
2023-03-15 12:53:54:377,-0.835916,1.24088,-9.69779,-6.94179,-4.98985,-39.7737
2023-03-15 12:53:54:387,-0.828383,1.23311,-9.69645,-6.9485,-4.99492,-39.7624
2023-03-15 12:53:54:397,-0.821321,1.2327,-9.69765,-6.95762,-4.99996,-39.7505
2023-03-15 12:53:54:408,-0.82068,1.2302,-9.68937,-6.96205,-5.00882,-39.739
2023-03-15 12:53:54:418,-0.829284,1.24103,-9.67878,-6.96682,-5.01579,-39.7228
2023-03-15 12:53:54:428,-0.827357,1.23159,-9.65546,-6.97239,-5.0206,-39.7064
2023-03-15 12:53:54:437,-0.820108,1.20756,-9.65258,-6.97647,-5.02387,-39.6855
2023-03-15 12:53:54:448,-0.839491,1.23167,-9.65339,-6.98415,-5.02756,-39.6654
2023-03-15 12:53:54:458,-0.84857,1.23184,-9.66263,-6.99165,-5.03044,-39.6431
2023-03-15 12:53:54:468,-0.868866,1.23124,-9.656,-6.99467,-5.03429,-39.6209
2023-03-15 12:53:54:477,-0.866186,1.24659,-9.66171,-6.99982,-5.0332,-39.5995
2023-03-15 12:53:54:487,-0.87029,1.23625,-9.68133,-7.00334,-5.03222,-39.5804
2023-03-15 12:53:54:497,-0.855932,1.23008,-9.67066,-7.00267,-5.03141,-39.5626
2023-03-15 12:53:54:507,-0.847752,1.23652,-9.67946,-7.00253,-5.02749,-39.5447
2023-03-15 12:53:54:517,-0.849862,1.23868,-9.68002,-7.0008,-5.026,-39.5266
2023-03-15 12:53:54:527,-0.839061,1.24783,-9.66841,-7.00037,-5.02555,-39.5064
2023-03-15 12:53:54:537,-0.840231,1.24061,-9.64767,-7.00251,-5.02648,-39.4866
2023-03-15 12:53:54:547,-0.84718,1.2251,-9.64329,-7.0039,-5.02739,-39.4667
2023-03-15 12:53:54:557,-0.848907,1.23965,-9.64797,-7.00608,-5.02878,-39.4473
2023-03-15 12:53:54:567,-0.840173,1.24034,-9.66179,-7.00716,-5.02758,-39.4309
2023-03-15 12:53:54:577,-0.857449,1.24843,-9.64209,-7.00887,-5.02302,-39.4128
2023-03-15 12:53:54:587,-0.866371,1.22923,-9.63622,-7.00992,-5.02001,-39.3973
2023-03-15 12:53:54:597,-0.864675,1.23471,-9.65217,-7.01052,-5.01615,-39.3805
2023-03-15 12:53:54:607,-0.851577,1.24899,-9.66349,-7.01654,-5.01335,-39.3652
2023-03-15 12:53:54:617,-0.838195,1.26337,-9.67969,-7.02339,-5.00853,-39.352
2023-03-15 12:53:54:627,-0.843013,1.27201,-9.67132,-7.02395,-5.00867,-39.3412
2023-03-15 12:53:54:637,-0.860324,1.27223,-9.67472,-7.02425,-5.00842,-39.3343
2023-03-15 12:53:54:647,-0.840245,1.25584,-9.67006,-7.02189,-5.00756,-39.3238
2023-03-15 12:53:54:657,-0.830662,1.25203,-9.67095,-7.02232,-5.00763,-39.3147
2023-03-15 12:53:54:667,-0.830538,1.25449,-9.66355,-7.02115,-5.00603,-39.3099
2023-03-15 12:53:54:677,-0.822152,1.26113,-9.64412,-7.02012,-5.00682,-39.3025
2023-03-15 12:53:54:687,-0.81741,1.24725,-9.64548,-7.01711,-5.00613,-39.2973
2023-03-15 12:53:54:697,-0.804591,1.2443,-9.66579,-7.01172,-5.00483,-39.2924
2023-03-15 12:53:54:707,-0.807958,1.24213,-9.67695,-7.0082,-5.00357,-39.2878
2023-03-15 12:53:54:717,-0.818468,1.24094,-9.67423,-7.00471,-5.00389,-39.2857
2023-03-15 12:53:54:727,-0.813671,1.24083,-9.67818,-7.00304,-5.00591,-39.2799
2023-03-15 12:53:54:737,-0.805701,1.23424,-9.69081,-6.99985,-5.00546,-39.2751
2023-03-15 12:53:54:747,-0.804179,1.25844,-9.70279,-6.99711,-5.00698,-39.268
2023-03-15 12:53:54:757,-0.814048,1.26313,-9.70669,-6.98759,-5.01,-39.2606
2023-03-15 12:53:54:767,-0.811234,1.24312,-9.7127,-6.97909,-5.00926,-39.2522
2023-03-15 12:53:54:777,-0.814805,1.24703,-9.726,-6.96838,-5.00808,-39.2422
2023-03-15 12:53:54:787,-0.814923,1.26387,-9.7161,-6.95538,-5.00828,-39.2336
2023-03-15 12:53:54:797,-0.831012,1.25991,-9.69774,-6.93678,-5.00994,-39.2291
2023-03-15 12:53:54:807,-0.827007,1.24933,-9.6978,-6.91647,-5.01134,-39.2166
2023-03-15 12:53:54:817,-0.836538,1.25251,-9.69034,-6.88914,-5.0161,-39.2062
2023-03-15 12:53:54:827,-0.878096,1.24615,-9.66025,-6.8632,-5.02163,-39.1996
2023-03-15 12:53:54:837,-0.890944,1.23513,-9.64423,-6.83393,-5.02562,-39.1952
2023-03-15 12:53:54:847,-0.889239,1.22257,-9.63055,-6.80248,-5.03016,-39.1899
2023-03-15 12:53:54:857,-0.87724,1.19734,-9.61724,-6.77332,-5.0346,-39.1847
2023-03-15 12:53:54:867,-0.888278,1.21474,-9.60521,-6.74616,-5.04034,-39.1834
2023-03-15 12:53:54:877,-0.889182,1.22312,-9.59022,-6.72748,-5.04678,-39.1805
2023-03-15 12:53:54:887,-0.899531,1.23267,-9.58862,-6.70912,-5.05623,-39.1865
2023-03-15 12:53:54:897,-0.907181,1.23094,-9.6244,-6.69468,-5.06819,-39.1937
2023-03-15 12:53:54:907,-0.873278,1.25599,-9.66327,-6.68618,-5.0792,-39.2073
2023-03-15 12:53:54:917,-0.85469,1.28296,-9.66052,-6.67867,-5.0935,-39.2149
2023-03-15 12:53:54:927,-0.900268,1.30686,-9.61577,-6.67402,-5.10979,-39.2265
2023-03-15 12:53:54:937,-0.933907,1.29458,-9.57373,-6.67001,-5.12354,-39.2417
2023-03-15 12:53:54:947,-0.936736,1.29616,-9.59691,-6.66468,-5.13396,-39.2601
2023-03-15 12:53:54:957,-0.906173,1.30624,-9.64264,-6.66014,-5.14366,-39.283
2023-03-15 12:53:54:967,-0.851638,1.28682,-9.68061,-6.65578,-5.14815,-39.3032
2023-03-15 12:53:54:977,-0.788798,1.28337,-9.73432,-6.64824,-5.15571,-39.3193
2023-03-15 12:53:54:987,-0.736424,1.26888,-9.77748,-6.6367,-5.16474,-39.3296
2023-03-15 12:53:54:997,-0.745988,1.26659,-9.75611,-6.62149,-5.17964,-39.3349
2023-03-15 12:53:55:7,-0.810897,1.26255,-9.70553,-6.61166,-5.19761,-39.3358
2023-03-15 12:53:55:17,-0.874357,1.25252,-9.69257,-6.59947,-5.21304,-39.3341
2023-03-15 12:53:55:27,-0.898184,1.25902,-9.68967,-6.58482,-5.22768,-39.3332
2023-03-15 12:53:55:37,-0.907663,1.26549,-9.68255,-6.56445,-5.23324,-39.327
2023-03-15 12:53:55:47,-0.911041,1.25485,-9.65869,-6.54387,-5.23521,-39.3196
2023-03-15 12:53:55:57,-0.88943,1.24765,-9.64687,-6.52151,-5.23579,-39.313
2023-03-15 12:53:55:67,-0.873555,1.24488,-9.64491,-6.49966,-5.23645,-39.3034
2023-03-15 12:53:55:77,-0.88943,1.25087,-9.63519,-6.4771,-5.23677,-39.2927
2023-03-15 12:53:55:87,-0.905465,1.24204,-9.63538,-6.45148,-5.23584,-39.2844
2023-03-15 12:53:55:97,-0.892903,1.21319,-9.62547,-6.42558,-5.23387,-39.2787
2023-03-15 12:53:55:107,-0.878752,1.19965,-9.59398,-6.39819,-5.22822,-39.274
2023-03-15 12:53:55:117,-0.864421,1.17282,-9.56981,-6.37151,-5.22456,-39.2644
2023-03-15 12:53:55:127,-0.858129,1.15009,-9.57553,-6.35076,-5.22209,-39.2584
2023-03-15 12:53:55:137,-0.844418,1.14899,-9.58313,-6.33378,-5.21997,-39.2494
2023-03-15 12:53:55:147,-0.834627,1.15309,-9.61458,-6.31766,-5.21994,-39.2415
2023-03-15 12:53:55:157,-0.844388,1.15505,-9.64979,-6.30654,-5.21903,-39.2348
2023-03-15 12:53:55:167,-0.856049,1.15835,-9.66908,-6.29729,-5.21836,-39.2308
2023-03-15 12:53:55:177,-0.845062,1.16558,-9.6788,-6.28655,-5.21395,-39.2257
2023-03-15 12:53:55:187,-0.815506,1.18482,-9.68936,-6.2769,-5.21297,-39.22
2023-03-15 12:53:55:197,-0.797308,1.18777,-9.673,-6.26509,-5.2154,-39.2151
2023-03-15 12:53:55:207,-0.82205,1.19078,-9.64493,-6.25878,-5.21967,-39.2037
2023-03-15 12:53:55:217,-0.86686,1.20559,-9.64446,-6.25492,-5.22214,-39.2001
2023-03-15 12:53:55:227,-0.88137,1.23095,-9.67113,-6.25012,-5.22465,-39.1944
2023-03-15 12:53:55:237,-0.846299,1.22549,-9.68591,-6.24358,-5.22387,-39.1897
2023-03-15 12:53:55:247,-0.811368,1.24762,-9.69637,-6.23969,-5.22442,-39.184
2023-03-15 12:53:55:257,-0.77787,1.26768,-9.70721,-6.23378,-5.2249,-39.176
2023-03-15 12:53:55:267,-0.794241,1.27627,-9.69482,-6.22517,-5.23155,-39.1704
2023-03-15 12:53:55:277,-0.822825,1.28115,-9.67378,-6.21155,-5.23798,-39.1648
2023-03-15 12:53:55:287,-0.846217,1.28285,-9.66964,-6.19749,-5.24294,-39.1574
2023-03-15 12:53:55:297,-0.840804,1.28078,-9.66847,-6.17926,-5.25129,-39.1497
2023-03-15 12:53:55:307,-0.833123,1.28857,-9.65674,-6.16068,-5.25441,-39.1412
2023-03-15 12:53:55:317,-0.833017,1.2802,-9.68154,-6.1414,-5.25818,-39.1306
2023-03-15 12:53:55:327,-0.822637,1.28698,-9.6971,-6.12229,-5.26317,-39.1199
2023-03-15 12:53:55:337,-0.842073,1.28574,-9.71644,-6.10025,-5.27169,-39.1048
2023-03-15 12:53:55:347,-0.854622,1.28072,-9.74317,-6.07608,-5.28238,-39.091
2023-03-15 12:53:55:357,-0.864746,1.28176,-9.76312,-6.04633,-5.29465,-39.0761
2023-03-15 12:53:55:367,-0.879894,1.27503,-9.76146,-6.01372,-5.30788,-39.0631
2023-03-15 12:53:55:377,-0.889096,1.26265,-9.76594,-5.97837,-5.3186,-39.0499
2023-03-15 12:53:55:387,-0.879053,1.25158,-9.77727,-5.93816,-5.33083,-39.0373
2023-03-15 12:53:55:397,-0.882365,1.236,-9.77041,-5.89386,-5.34347,-39.0221
2023-03-15 12:53:55:407,-0.894783,1.1941,-9.7657,-5.84744,-5.35864,-39.0059
2023-03-15 12:53:55:417,-0.922819,1.15516,-9.74184,-5.79547,-5.37513,-38.9911
2023-03-15 12:53:55:427,-0.912678,1.11427,-9.74206,-5.74116,-5.38927,-38.9726
2023-03-15 12:53:55:437,-0.909696,1.07911,-9.72772,-5.68335,-5.40344,-38.9554
2023-03-15 12:53:55:447,-0.897857,1.06705,-9.6915,-5.62594,-5.4178,-38.9349
2023-03-15 12:53:55:457,-0.91134,1.03465,-9.67107,-5.56913,-5.43628,-38.9103
2023-03-15 12:53:55:467,-0.94141,1.00843,-9.64896,-5.51628,-5.45052,-38.8884
2023-03-15 12:53:55:477,-0.990366,1.00013,-9.64102,-5.45979,-5.4647,-38.8652
2023-03-15 12:53:55:487,-1.00677,0.980829,-9.65877,-5.40092,-5.47622,-38.8477
2023-03-15 12:53:55:497,-0.997361,0.949529,-9.68435,-5.34389,-5.48495,-38.8274
2023-03-15 12:53:55:507,-0.999369,0.932741,-9.69869,-5.28456,-5.48823,-38.8087
2023-03-15 12:53:55:517,-1.00303,0.897193,-9.72355,-5.22079,-5.48976,-38.7936
2023-03-15 12:53:55:527,-0.986381,0.851048,-9.74111,-5.15352,-5.48848,-38.7801
2023-03-15 12:53:55:537,-0.962608,0.812787,-9.7552,-5.08546,-5.49049,-38.7631
2023-03-15 12:53:55:547,-0.964988,0.782171,-9.73303,-5.01891,-5.48785,-38.7471
2023-03-15 12:53:55:557,-0.970497,0.762769,-9.72192,-4.95445,-5.48049,-38.7354
2023-03-15 12:53:55:567,-0.97778,0.724903,-9.68448,-4.89214,-5.47449,-38.7264
2023-03-15 12:53:55:577,-0.972774,0.7038,-9.65595,-4.82876,-5.46526,-38.7177
2023-03-15 12:53:55:587,-0.960189,0.729975,-9.6821,-4.76652,-5.45293,-38.7127
2023-03-15 12:53:55:597,-0.929682,0.711689,-9.69523,-4.70383,-5.43948,-38.7097
2023-03-15 12:53:55:607,-0.868709,0.680602,-9.68645,-4.63461,-5.42769,-38.71
2023-03-15 12:53:55:617,-0.843913,0.628759,-9.70504,-4.56544,-5.41525,-38.7083
2023-03-15 12:53:55:627,-0.838166,0.598376,-9.72596,-4.49479,-5.40315,-38.7074
2023-03-15 12:53:55:637,-0.813277,0.570658,-9.74475,-4.42121,-5.39591,-38.7073
2023-03-15 12:53:55:647,-0.815353,0.511137,-9.73915,-4.34289,-5.3883,-38.7048
2023-03-15 12:53:55:657,-0.804633,0.483599,-9.69263,-4.26438,-5.38819,-38.6975
2023-03-15 12:53:55:667,-0.79747,0.457161,-9.64947,-4.18969,-5.38862,-38.6925
2023-03-15 12:53:55:677,-0.787621,0.441469,-9.63587,-4.11917,-5.39228,-38.6843
2023-03-15 12:53:55:687,-0.769404,0.432333,-9.63742,-4.05301,-5.39436,-38.6711
2023-03-15 12:53:55:697,-0.776773,0.413319,-9.63798,-3.98908,-5.39609,-38.6535
2023-03-15 12:53:55:707,-0.753351,0.394063,-9.64129,-3.92368,-5.3954,-38.6309
2023-03-15 12:53:55:717,-0.747026,0.371935,-9.64204,-3.85996,-5.39122,-38.6002
2023-03-15 12:53:55:727,-0.754528,0.351644,-9.66313,-3.79924,-5.38901,-38.5637
2023-03-15 12:53:55:737,-0.76095,0.325186,-9.68362,-3.73984,-5.38502,-38.5186
2023-03-15 12:53:55:747,-0.758079,0.298045,-9.69943,-3.68144,-5.38261,-38.465
2023-03-15 12:53:55:757,-0.75568,0.27899,-9.72775,-3.62347,-5.37377,-38.4053
2023-03-15 12:53:55:767,-0.750983,0.265303,-9.75695,-3.56471,-5.36895,-38.3355
2023-03-15 12:53:55:777,-0.772494,0.265079,-9.76274,-3.51226,-5.35938,-38.2594
2023-03-15 12:53:55:787,-0.810098,0.25445,-9.77803,-3.45595,-5.34875,-38.1776
2023-03-15 12:53:55:797,-0.839335,0.257776,-9.77027,-3.40325,-5.34204,-38.0936
2023-03-15 12:53:55:807,-0.875876,0.246537,-9.75036,-3.34575,-5.33529,-38.0072
2023-03-15 12:53:55:817,-0.8982,0.224303,-9.73159,-3.28601,-5.32426,-37.9211
2023-03-15 12:53:55:827,-0.943621,0.199561,-9.68352,-3.22405,-5.31432,-37.8308
2023-03-15 12:53:55:837,-0.966018,0.167089,-9.65123,-3.16283,-5.29479,-37.7428
2023-03-15 12:53:55:847,-0.968336,0.131138,-9.62514,-3.1012,-5.27384,-37.6555
2023-03-15 12:53:55:857,-0.943051,0.117398,-9.61016,-3.0414,-5.24679,-37.5713
2023-03-15 12:53:55:867,-0.945201,0.11727,-9.57443,-2.98609,-5.2187,-37.4947
2023-03-15 12:53:55:877,-0.933786,0.0874445,-9.52375,-2.93378,-5.18947,-37.4162
2023-03-15 12:53:55:887,-0.917368,0.0789978,-9.50781,-2.88916,-5.16476,-37.3451
2023-03-15 12:53:55:897,-0.895616,0.101852,-9.53859,-2.85245,-5.13639,-37.2803
2023-03-15 12:53:55:907,-0.871994,0.122462,-9.61181,-2.82466,-5.11186,-37.2185
2023-03-15 12:53:55:917,-0.839067,0.136121,-9.68299,-2.80545,-5.08997,-37.1636
2023-03-15 12:53:55:927,-0.793822,0.138419,-9.74069,-2.78281,-5.07142,-37.115
2023-03-15 12:53:55:937,-0.775053,0.144348,-9.72095,-2.75964,-5.06006,-37.0721
2023-03-15 12:53:55:947,-0.764687,0.120984,-9.6535,-2.74182,-5.05861,-37.0289
2023-03-15 12:53:55:957,-0.748101,0.102082,-9.59021,-2.7315,-5.06718,-36.9904
2023-03-15 12:53:55:967,-0.750828,0.118713,-9.57525,-2.73087,-5.08017,-36.9516
2023-03-15 12:53:55:977,-0.772136,0.169443,-9.59735,-2.73989,-5.09127,-36.9118
2023-03-15 12:53:55:987,-0.787841,0.228273,-9.65964,-2.76298,-5.10327,-36.8725
2023-03-15 12:53:55:997,-0.749749,0.27259,-9.73679,-2.78699,-5.1128,-36.8331
2023-03-15 12:53:56:7,-0.712921,0.315335,-9.77805,-2.81281,-5.12154,-36.7885
2023-03-15 12:53:56:17,-0.711601,0.350599,-9.76469,-2.83684,-5.12716,-36.7397
2023-03-15 12:53:56:27,-0.69304,0.354564,-9.71973,-2.86173,-5.1289,-36.6817
2023-03-15 12:53:56:37,-0.696453,0.358006,-9.68871,-2.8867,-5.12653,-36.6178
2023-03-15 12:53:56:47,-0.702937,0.376522,-9.6691,-2.91534,-5.12411,-36.5465
2023-03-15 12:53:56:57,-0.698942,0.39667,-9.64442,-2.9438,-5.12442,-36.4709
2023-03-15 12:53:56:67,-0.714481,0.413111,-9.63265,-2.97914,-5.12803,-36.39
2023-03-15 12:53:56:77,-0.729394,0.435811,-9.65094,-3.01663,-5.13063,-36.3093
2023-03-15 12:53:56:87,-0.738209,0.455274,-9.66305,-3.05632,-5.14313,-36.2295
2023-03-15 12:53:56:97,-0.754243,0.491857,-9.66947,-3.10024,-5.15877,-36.1472
2023-03-15 12:53:56:107,-0.793641,0.527581,-9.69212,-3.14496,-5.18115,-36.0671
2023-03-15 12:53:56:117,-0.83046,0.544275,-9.70822,-3.18902,-5.20998,-35.9919
2023-03-15 12:53:56:127,-0.856727,0.578165,-9.73076,-3.23102,-5.24075,-35.9142
2023-03-15 12:53:56:137,-0.854794,0.590593,-9.74066,-3.26873,-5.27405,-35.839
2023-03-15 12:53:56:147,-0.869832,0.57631,-9.70983,-3.3034,-5.31097,-35.7626
2023-03-15 12:53:56:157,-0.888432,0.577998,-9.66672,-3.34056,-5.34836,-35.6832
2023-03-15 12:53:56:167,-0.924089,0.578533,-9.63697,-3.38043,-5.38361,-35.6059
2023-03-15 12:53:56:177,-0.953248,0.601868,-9.64523,-3.41968,-5.4176,-35.5293
2023-03-15 12:53:56:187,-0.93929,0.611196,-9.64249,-3.46327,-5.44742,-35.4518
2023-03-15 12:53:56:197,-0.917671,0.617322,-9.64008,-3.51145,-5.47809,-35.3715
2023-03-15 12:53:56:207,-0.913895,0.639894,-9.66498,-3.5596,-5.50817,-35.29
2023-03-15 12:53:56:217,-0.926331,0.66218,-9.67503,-3.60506,-5.54133,-35.2034
2023-03-15 12:53:56:227,-0.959718,0.671916,-9.67887,-3.65305,-5.57661,-35.1143
2023-03-15 12:53:56:237,-0.994403,0.698099,-9.67085,-3.7,-5.61034,-35.0274
2023-03-15 12:53:56:247,-1.03752,0.692269,-9.65454,-3.74589,-5.64187,-34.9415
2023-03-15 12:53:56:257,-1.06676,0.698923,-9.62229,-3.7918,-5.67414,-34.8536
2023-03-15 12:53:56:267,-1.09538,0.702001,-9.60651,-3.83885,-5.70364,-34.767
2023-03-15 12:53:56:277,-1.08748,0.700884,-9.61657,-3.88645,-5.72888,-34.6782
2023-03-15 12:53:56:287,-1.06646,0.682633,-9.57246,-3.9345,-5.75218,-34.5905
2023-03-15 12:53:56:297,-1.03866,0.660524,-9.54043,-3.98729,-5.76648,-34.4997
2023-03-15 12:53:56:307,-1.02436,0.671415,-9.52277,-4.04506,-5.78232,-34.4101
2023-03-15 12:53:56:317,-1.0305,0.675332,-9.51283,-4.10985,-5.7933,-34.32
2023-03-15 12:53:56:327,-1.03706,0.716175,-9.52895,-4.18428,-5.80202,-34.2268
2023-03-15 12:53:56:337,-1.0623,0.76369,-9.55117,-4.2653,-5.81423,-34.1324
2023-03-15 12:53:56:347,-1.08319,0.774261,-9.59337,-4.35366,-5.82675,-34.0388
2023-03-15 12:53:56:357,-1.09879,0.804247,-9.62322,-4.44783,-5.84184,-33.9458
2023-03-15 12:53:56:367,-1.11698,0.862923,-9.67493,-4.54412,-5.85371,-33.861
2023-03-15 12:53:56:377,-1.12393,0.915627,-9.711,-4.64181,-5.86549,-33.7781
2023-03-15 12:53:56:387,-1.1141,0.96172,-9.7235,-4.73951,-5.87403,-33.6957
2023-03-15 12:53:56:397,-1.10361,0.995548,-9.74513,-4.84017,-5.8792,-33.6168
2023-03-15 12:53:56:407,-1.09803,1.02357,-9.7605,-4.93525,-5.88369,-33.5438
2023-03-15 12:53:56:417,-1.1043,1.07851,-9.74675,-5.02901,-5.8866,-33.4737
2023-03-15 12:53:56:427,-1.12753,1.11967,-9.73122,-5.12337,-5.88938,-33.4088
2023-03-15 12:53:56:437,-1.12651,1.16319,-9.69079,-5.2076,-5.8925,-33.3496
2023-03-15 12:53:56:447,-1.10123,1.17518,-9.65581,-5.28852,-5.89228,-33.2955
2023-03-15 12:53:56:457,-1.09269,1.18522,-9.63332,-5.36478,-5.88649,-33.2461
2023-03-15 12:53:56:467,-1.09456,1.17455,-9.63429,-5.43532,-5.88101,-33.2026
2023-03-15 12:53:56:477,-1.08216,1.19503,-9.67072,-5.50641,-5.87578,-33.1622
2023-03-15 12:53:56:488,-1.06034,1.21143,-9.71728,-5.57838,-5.86989,-33.1277
2023-03-15 12:53:56:497,-1.02867,1.2119,-9.75276,-5.64544,-5.86117,-33.095
2023-03-15 12:53:56:507,-0.992048,1.22218,-9.79483,-5.71244,-5.85812,-33.067
2023-03-15 12:53:56:517,-0.987353,1.2479,-9.85766,-5.77734,-5.85769,-33.0422
2023-03-15 12:53:56:527,-0.971774,1.26837,-9.88648,-5.83134,-5.86427,-33.0181
2023-03-15 12:53:56:537,-0.970839,1.27173,-9.89884,-5.8827,-5.87253,-32.9929
2023-03-15 12:53:56:547,-0.977155,1.26934,-9.87402,-5.92104,-5.8847,-32.9657
2023-03-15 12:53:56:557,-0.995737,1.25734,-9.81947,-5.95282,-5.89631,-32.9411
2023-03-15 12:53:56:567,-1.02789,1.22559,-9.75519,-5.97937,-5.90604,-32.9166
2023-03-15 12:53:56:577,-1.0362,1.17863,-9.69003,-5.99504,-5.91269,-32.8899
2023-03-15 12:53:56:587,-1.0334,1.13991,-9.63711,-6.00599,-5.91593,-32.8675
2023-03-15 12:53:56:597,-1.02647,1.10931,-9.59516,-6.01791,-5.91665,-32.8377
2023-03-15 12:53:56:607,-1.00503,1.10452,-9.58188,-6.03437,-5.9139,-32.8039
2023-03-15 12:53:56:618,-1.00739,1.1011,-9.58907,-6.05621,-5.90699,-32.7691
2023-03-15 12:53:56:627,-1.0019,1.1054,-9.60408,-6.07949,-5.90149,-32.7311
2023-03-15 12:53:56:637,-1.01364,1.11829,-9.6144,-6.10139,-5.89558,-32.6941
2023-03-15 12:53:56:647,-1.00637,1.12188,-9.62894,-6.12374,-5.88572,-32.6605
2023-03-15 12:53:56:657,-1.00422,1.11385,-9.64013,-6.14722,-5.87578,-32.6267
2023-03-15 12:53:56:667,-1.02131,1.11559,-9.63176,-6.17103,-5.8664,-32.5939
2023-03-15 12:53:56:678,-1.01407,1.12971,-9.64213,-6.1985,-5.86105,-32.5643
2023-03-15 12:53:56:687,-1.01892,1.14492,-9.64418,-6.22547,-5.8548,-32.5365
2023-03-15 12:53:56:697,-1.01666,1.15949,-9.63081,-6.25246,-5.84931,-32.5057
2023-03-15 12:53:56:707,-1.02507,1.16558,-9.63018,-6.28101,-5.84268,-32.4815
2023-03-15 12:53:56:717,-1.01045,1.16347,-9.63503,-6.30131,-5.83689,-32.4611
2023-03-15 12:53:56:727,-0.995783,1.17794,-9.63997,-6.32993,-5.82928,-32.4419
2023-03-15 12:53:56:737,-0.962592,1.17373,-9.6479,-6.35616,-5.821,-32.425
2023-03-15 12:53:56:747,-0.938422,1.17492,-9.64111,-6.38391,-5.81537,-32.4034
2023-03-15 12:53:56:757,-0.928381,1.18943,-9.65143,-6.41387,-5.80948,-32.3867
2023-03-15 12:53:56:767,-0.923595,1.19044,-9.65595,-6.44171,-5.80757,-32.364
2023-03-15 12:53:56:777,-0.91789,1.19616,-9.67381,-6.47334,-5.80542,-32.3418
2023-03-15 12:53:56:787,-0.934285,1.21221,-9.6802,-6.50619,-5.80228,-32.3178
2023-03-15 12:53:56:797,-0.935646,1.20785,-9.70492,-6.53355,-5.80066,-32.2948
2023-03-15 12:53:56:807,-0.905072,1.2073,-9.71579,-6.55918,-5.79858,-32.2685
2023-03-15 12:53:56:817,-0.896678,1.21759,-9.69207,-6.58755,-5.80035,-32.2397
2023-03-15 12:53:56:828,-0.934708,1.20687,-9.66654,-6.61423,-5.80141,-32.2083
2023-03-15 12:53:56:837,-0.991287,1.19802,-9.6358,-6.63796,-5.79869,-32.1768
2023-03-15 12:53:56:847,-0.995894,1.19422,-9.6092,-6.66137,-5.79542,-32.1488
2023-03-15 12:53:56:857,-0.966076,1.20075,-9.60645,-6.68815,-5.79151,-32.1153
2023-03-15 12:53:56:868,-0.932486,1.21136,-9.65539,-6.71694,-5.78559,-32.0888
2023-03-15 12:53:56:877,-0.878416,1.22462,-9.71737,-6.7479,-5.78649,-32.0604
2023-03-15 12:53:56:887,-0.837786,1.23755,-9.73726,-6.77492,-5.79378,-32.0301
2023-03-15 12:53:56:897,-0.879316,1.2454,-9.73508,-6.80391,-5.80897,-31.9943
2023-03-15 12:53:56:907,-0.979908,1.26725,-9.72432,-6.82771,-5.82772,-31.9616
2023-03-15 12:53:56:917,-1.05995,1.2759,-9.72004,-6.84907,-5.84934,-31.9305
2023-03-15 12:53:56:927,-1.08986,1.27575,-9.68654,-6.86722,-5.86942,-31.9078
2023-03-15 12:53:56:937,-1.10663,1.28507,-9.67285,-6.88395,-5.88111,-31.889
2023-03-15 12:53:56:947,-1.08227,1.29145,-9.66819,-6.89352,-5.89223,-31.8689
2023-03-15 12:53:56:957,-1.05949,1.27954,-9.66463,-6.9038,-5.90215,-31.8514
2023-03-15 12:53:56:967,-1.05048,1.27118,-9.61632,-6.9127,-5.91246,-31.8355
2023-03-15 12:53:56:977,-1.06299,1.24879,-9.58775,-6.91855,-5.92233,-31.8231
2023-03-15 12:53:56:987,-1.08122,1.24447,-9.57577,-6.9269,-5.93163,-31.8101
2023-03-15 12:53:56:997,-1.07602,1.24002,-9.54983,-6.93837,-5.93704,-31.8006
2023-03-15 12:53:57:7,-1.05648,1.24211,-9.56068,-6.95143,-5.94056,-31.7927
2023-03-15 12:53:57:17,-1.03211,1.24333,-9.58058,-6.96516,-5.94525,-31.7838
2023-03-15 12:53:57:27,-1.00574,1.24017,-9.59626,-6.98252,-5.94925,-31.7732
2023-03-15 12:53:57:37,-1.01591,1.23799,-9.61359,-7.00081,-5.95145,-31.7651
2023-03-15 12:53:57:47,-1.03648,1.24249,-9.65246,-7.02141,-5.95424,-31.7582
2023-03-15 12:53:57:57,-1.03034,1.26922,-9.67993,-7.0424,-5.95377,-31.751
2023-03-15 12:53:57:67,-0.985334,1.26984,-9.69468,-7.06372,-5.95456,-31.7458
2023-03-15 12:53:57:77,-0.97265,1.27725,-9.69121,-7.0786,-5.9546,-31.7389
2023-03-15 12:53:57:87,-0.971845,1.28937,-9.6701,-7.09472,-5.95832,-31.7312
2023-03-15 12:53:57:97,-0.96071,1.28916,-9.67614,-7.11093,-5.95778,-31.7213
2023-03-15 12:53:57:107,-0.966631,1.28305,-9.68806,-7.12173,-5.95666,-31.7092
2023-03-15 12:53:57:117,-0.982598,1.29268,-9.68518,-7.13645,-5.95171,-31.6971
2023-03-15 12:53:57:128,-0.986715,1.31631,-9.68923,-7.14846,-5.94555,-31.6894
2023-03-15 12:53:57:137,-0.956419,1.30234,-9.70432,-7.15715,-5.93943,-31.6805
2023-03-15 12:53:57:147,-0.907229,1.30112,-9.70896,-7.16023,-5.934,-31.6661
2023-03-15 12:53:57:157,-0.890668,1.29846,-9.68016,-7.16086,-5.92732,-31.651
2023-03-15 12:53:57:168,-0.912035,1.28284,-9.65632,-7.16733,-5.9275,-31.6332
2023-03-15 12:53:57:177,-0.95578,1.27121,-9.65524,-7.168,-5.92954,-31.6168
2023-03-15 12:53:57:187,-0.991946,1.28502,-9.6503,-7.16872,-5.93185,-31.6006
2023-03-15 12:53:57:197,-1.02017,1.28025,-9.63238,-7.16733,-5.93394,-31.5863
2023-03-15 12:53:57:207,-1.00754,1.26672,-9.63139,-7.16507,-5.93154,-31.5772
2023-03-15 12:53:57:218,-0.994987,1.25713,-9.63885,-7.16523,-5.93041,-31.5679
2023-03-15 12:53:57:228,-0.984135,1.25478,-9.64163,-7.16198,-5.92626,-31.5592
2023-03-15 12:53:57:237,-0.964128,1.25913,-9.64072,-7.15901,-5.92196,-31.5494
2023-03-15 12:53:57:247,-0.949172,1.2421,-9.6554,-7.15948,-5.91847,-31.5394
2023-03-15 12:53:57:257,-0.950115,1.22905,-9.66401,-7.15702,-5.91813,-31.5289
2023-03-15 12:53:57:267,-0.949716,1.24849,-9.64829,-7.15447,-5.91822,-31.5191
2023-03-15 12:53:57:277,-0.936077,1.25017,-9.65055,-7.15696,-5.91891,-31.5105
2023-03-15 12:53:57:287,-0.933002,1.24566,-9.66305,-7.15947,-5.92084,-31.5033
2023-03-15 12:53:57:297,-0.928935,1.24167,-9.67087,-7.16001,-5.92063,-31.4953
2023-03-15 12:53:57:307,-0.912098,1.23743,-9.67135,-7.15729,-5.92651,-31.4848
2023-03-15 12:53:57:317,-0.918831,1.23302,-9.67174,-7.15753,-5.93473,-31.4716
2023-03-15 12:53:57:327,-0.930494,1.22931,-9.65237,-7.15735,-5.94345,-31.4596
2023-03-15 12:53:57:337,-0.931689,1.23287,-9.6376,-7.1581,-5.94959,-31.443
2023-03-15 12:53:57:347,-0.949785,1.2469,-9.64747,-7.15949,-5.95767,-31.427
2023-03-15 12:53:57:357,-0.955469,1.2478,-9.65456,-7.15871,-5.96368,-31.4086
2023-03-15 12:53:57:367,-0.9429,1.2576,-9.64289,-7.15621,-5.96674,-31.3893
2023-03-15 12:53:57:377,-0.964119,1.25208,-9.64556,-7.15671,-5.96904,-31.3679
2023-03-15 12:53:57:387,-0.981637,1.24926,-9.65658,-7.15372,-5.97314,-31.3477
2023-03-15 12:53:57:397,-0.972891,1.2361,-9.6485,-7.15054,-5.97634,-31.3235
2023-03-15 12:53:57:408,-0.98651,1.22775,-9.6492,-7.14114,-5.97974,-31.3016
2023-03-15 12:53:57:417,-0.985775,1.21704,-9.63382,-7.13469,-5.98458,-31.2776
2023-03-15 12:53:57:427,-0.987173,1.20135,-9.64127,-7.12834,-5.98907,-31.2548
2023-03-15 12:53:57:437,-0.984506,1.19436,-9.62277,-7.12397,-5.99666,-31.2336
2023-03-15 12:53:57:448,-0.986531,1.16789,-9.61433,-7.12027,-6.00117,-31.2082
2023-03-15 12:53:57:457,-0.982445,1.17468,-9.60783,-7.11964,-6.0088,-31.1863
2023-03-15 12:53:57:467,-0.976433,1.16611,-9.61768,-7.1181,-6.01488,-31.164
2023-03-15 12:53:57:477,-0.980526,1.16935,-9.60247,-7.1224,-6.02288,-31.1451
2023-03-15 12:53:57:487,-0.981372,1.17971,-9.59967,-7.13027,-6.02874,-31.123
2023-03-15 12:53:57:497,-0.961425,1.1973,-9.62789,-7.14076,-6.03696,-31.0998
2023-03-15 12:53:57:507,-0.924947,1.21832,-9.64809,-7.14658,-6.04166,-31.0756
2023-03-15 12:53:57:517,-0.923263,1.21897,-9.64788,-7.15279,-6.04636,-31.0499
2023-03-15 12:53:57:527,-0.939875,1.21352,-9.63663,-7.1579,-6.05169,-31.0263
2023-03-15 12:53:57:537,-0.957135,1.21361,-9.63305,-7.16734,-6.06233,-30.9983
2023-03-15 12:53:57:547,-0.958164,1.22928,-9.63928,-7.17445,-6.07321,-30.9683
2023-03-15 12:53:57:557,-0.968647,1.22279,-9.64896,-7.18231,-6.08566,-30.936
2023-03-15 12:53:57:567,-0.979999,1.22245,-9.6615,-7.19072,-6.09869,-30.9006
2023-03-15 12:53:57:577,-0.996077,1.21641,-9.64337,-7.19633,-6.11208,-30.8676
2023-03-15 12:53:57:587,-1.00008,1.20377,-9.62898,-7.20063,-6.12356,-30.8328
2023-03-15 12:53:57:597,-1.00262,1.19469,-9.632,-7.20826,-6.13469,-30.797
2023-03-15 12:53:57:607,-1.01263,1.20084,-9.64352,-7.2148,-6.14651,-30.7622
2023-03-15 12:53:57:617,-0.99985,1.21061,-9.62552,-7.22073,-6.16352,-30.7261
2023-03-15 12:53:57:627,-0.983265,1.19201,-9.59549,-7.22766,-6.17798,-30.6882
2023-03-15 12:53:57:637,-0.976947,1.18085,-9.59811,-7.23668,-6.19311,-30.6479
2023-03-15 12:53:57:647,-0.975569,1.1811,-9.59634,-7.24747,-6.20514,-30.6014
2023-03-15 12:53:57:657,-0.981715,1.16832,-9.57908,-7.26083,-6.21897,-30.5519
2023-03-15 12:53:57:667,-0.989618,1.17039,-9.59208,-7.28009,-6.23219,-30.5023
2023-03-15 12:53:57:677,-0.991571,1.20926,-9.59404,-7.30085,-6.24698,-30.4482
2023-03-15 12:53:57:688,-1.01657,1.21392,-9.61149,-7.32262,-6.26124,-30.3879
2023-03-15 12:53:57:697,-1.03756,1.23012,-9.63018,-7.34511,-6.27426,-30.3289
2023-03-15 12:53:57:707,-1.05831,1.25528,-9.6408,-7.3679,-6.28679,-30.271
2023-03-15 12:53:57:717,-1.08461,1.26955,-9.62957,-7.38705,-6.29897,-30.2126
2023-03-15 12:53:57:727,-1.11742,1.27567,-9.6239,-7.40735,-6.31384,-30.1534
2023-03-15 12:53:57:737,-1.12547,1.27711,-9.62382,-7.42802,-6.3271,-30.0972
2023-03-15 12:53:57:747,-1.09924,1.28011,-9.64229,-7.44814,-6.33552,-30.0419
2023-03-15 12:53:57:757,-1.08148,1.27905,-9.65473,-7.47029,-6.34835,-29.9844
2023-03-15 12:53:57:767,-1.11666,1.28934,-9.62885,-7.48803,-6.3636,-29.9307
2023-03-15 12:53:57:777,-1.17545,1.29781,-9.58843,-7.50759,-6.37987,-29.8784
2023-03-15 12:53:57:787,-1.22557,1.31479,-9.58758,-7.52877,-6.39508,-29.8363
2023-03-15 12:53:57:797,-1.20537,1.32867,-9.61838,-7.54558,-6.40674,-29.7963
2023-03-15 12:53:57:807,-1.171,1.33683,-9.66333,-7.56449,-6.41127,-29.76
2023-03-15 12:53:57:817,-1.12543,1.33817,-9.69927,-7.58047,-6.40959,-29.7273
2023-03-15 12:53:57:827,-1.06968,1.34377,-9.72423,-7.59166,-6.41765,-29.6968
2023-03-15 12:53:57:837,-1.01999,1.33016,-9.71494,-7.5995,-6.42891,-29.66
2023-03-15 12:53:57:847,-1.07192,1.31849,-9.64504,-7.604,-6.44921,-29.6236
2023-03-15 12:53:57:857,-1.15591,1.32128,-9.60238,-7.61441,-6.47473,-29.587
2023-03-15 12:53:57:867,-1.20178,1.33969,-9.60289,-7.62686,-6.49358,-29.5561
2023-03-15 12:53:57:877,-1.17618,1.35192,-9.60939,-7.63803,-6.50972,-29.5269
2023-03-15 12:53:57:887,-1.17778,1.3353,-9.61237,-7.64778,-6.5224,-29.5006
2023-03-15 12:53:57:897,-1.19982,1.329,-9.60659,-7.65568,-6.53235,-29.4709
2023-03-15 12:53:57:907,-1.19078,1.33954,-9.59262,-7.66581,-6.53789,-29.4413
2023-03-15 12:53:57:917,-1.18254,1.34876,-9.59161,-7.67516,-6.5423,-29.4164
2023-03-15 12:53:57:927,-1.18026,1.36871,-9.58265,-7.68029,-6.54387,-29.3925
2023-03-15 12:53:57:937,-1.18826,1.37386,-9.5709,-7.69237,-6.54874,-29.3725
2023-03-15 12:53:57:947,-1.17947,1.36283,-9.57662,-7.70476,-6.55223,-29.3549
2023-03-15 12:53:57:957,-1.16803,1.36648,-9.5934,-7.72005,-6.55229,-29.3405
2023-03-15 12:53:57:967,-1.14963,1.37356,-9.60084,-7.73439,-6.55597,-29.328
2023-03-15 12:53:57:977,-1.14193,1.37733,-9.62294,-7.74935,-6.55981,-29.3211
2023-03-15 12:53:57:987,-1.15072,1.37964,-9.61271,-7.76021,-6.56539,-29.3118
2023-03-15 12:53:57:997,-1.1579,1.36855,-9.62605,-7.77176,-6.57035,-29.3077
2023-03-15 12:53:58:7,-1.15746,1.36149,-9.62659,-7.77977,-6.57299,-29.3026
2023-03-15 12:53:58:17,-1.11984,1.34681,-9.61895,-7.78613,-6.57948,-29.2975
2023-03-15 12:53:58:27,-1.10129,1.35896,-9.62473,-7.7978,-6.58363,-29.2915
2023-03-15 12:53:58:37,-1.10633,1.35933,-9.61997,-7.80719,-6.58697,-29.2862
2023-03-15 12:53:58:47,-1.09943,1.34479,-9.59132,-7.81561,-6.59362,-29.2821
2023-03-15 12:53:58:57,-1.1272,1.34912,-9.59,-7.82406,-6.59974,-29.2735
2023-03-15 12:53:58:67,-1.13584,1.35891,-9.60882,-7.83773,-6.59985,-29.2627
2023-03-15 12:53:58:77,-1.12427,1.36519,-9.60499,-7.84807,-6.59874,-29.2574
2023-03-15 12:53:58:87,-1.0803,1.37204,-9.62448,-7.86037,-6.59854,-29.2449
2023-03-15 12:53:58:97,-1.06524,1.3707,-9.64336,-7.87266,-6.60072,-29.2341
2023-03-15 12:53:58:107,-1.06619,1.37846,-9.62375,-7.87968,-6.60403,-29.2192
2023-03-15 12:53:58:117,-1.09692,1.36441,-9.60389,-7.88524,-6.60967,-29.206
2023-03-15 12:53:58:127,-1.1345,1.35881,-9.5904,-7.89213,-6.61477,-29.1917
2023-03-15 12:53:58:137,-1.1619,1.36485,-9.58536,-7.89974,-6.61683,-29.1801
2023-03-15 12:53:58:147,-1.1561,1.37236,-9.5887,-7.90598,-6.61814,-29.1669
2023-03-15 12:53:58:157,-1.14385,1.35981,-9.60661,-7.91616,-6.62064,-29.1541
2023-03-15 12:53:58:167,-1.12281,1.37043,-9.5909,-7.92528,-6.61604,-29.1414
2023-03-15 12:53:58:177,-1.10304,1.36663,-9.59628,-7.93269,-6.61376,-29.1295
2023-03-15 12:53:58:187,-1.10406,1.3786,-9.58294,-7.94213,-6.61146,-29.1171
2023-03-15 12:53:58:197,-1.11561,1.37573,-9.58119,-7.94995,-6.61198,-29.1052
2023-03-15 12:53:58:207,-1.10819,1.37131,-9.58246,-7.96121,-6.61281,-29.0929
2023-03-15 12:53:58:217,-1.11239,1.37324,-9.5825,-7.97682,-6.61255,-29.0846
2023-03-15 12:53:58:227,-1.09878,1.38663,-9.61282,-7.99296,-6.61003,-29.072
2023-03-15 12:53:58:237,-1.07982,1.39115,-9.61053,-8.00453,-6.6082,-29.0623
2023-03-15 12:53:58:247,-1.06195,1.38769,-9.61305,-8.01756,-6.60565,-29.0479
2023-03-15 12:53:58:257,-1.06086,1.41042,-9.59767,-8.03122,-6.60254,-29.0307
2023-03-15 12:53:58:267,-1.06204,1.42406,-9.61567,-8.0481,-6.60248,-29.0134
2023-03-15 12:53:58:277,-1.06312,1.42216,-9.64389,-8.06454,-6.60518,-28.9932
2023-03-15 12:53:58:287,-1.06121,1.44159,-9.64059,-8.08437,-6.60586,-28.9704
2023-03-15 12:53:58:297,-1.06429,1.44212,-9.63367,-8.09944,-6.60517,-28.9459
2023-03-15 12:53:58:307,-1.07271,1.44489,-9.62848,-8.11726,-6.60346,-28.9195
2023-03-15 12:53:58:317,-1.08362,1.44451,-9.64492,-8.13489,-6.59866,-28.892
2023-03-15 12:53:58:327,-1.07761,1.44119,-9.64067,-8.14621,-6.59701,-28.8654
2023-03-15 12:53:58:337,-1.07098,1.4439,-9.62233,-8.15416,-6.58994,-28.8353
2023-03-15 12:53:58:347,-1.0627,1.42501,-9.61778,-8.16005,-6.58535,-28.8039
2023-03-15 12:53:58:357,-1.05499,1.40992,-9.61023,-8.16523,-6.57725,-28.7731
2023-03-15 12:53:58:367,-1.02265,1.38947,-9.5819,-8.16832,-6.56757,-28.7426
2023-03-15 12:53:58:377,-1.02146,1.37526,-9.57381,-8.17815,-6.56361,-28.7066
2023-03-15 12:53:58:387,-1.02713,1.38457,-9.57242,-8.19085,-6.56065,-28.668
2023-03-15 12:53:58:397,-1.01349,1.37891,-9.57026,-8.20574,-6.55182,-28.6288
2023-03-15 12:53:58:407,-1.00656,1.37707,-9.57005,-8.21773,-6.54577,-28.5904
2023-03-15 12:53:58:417,-1.01198,1.37687,-9.5747,-8.23469,-6.54508,-28.5457
2023-03-15 12:53:58:427,-1.01621,1.37723,-9.57976,-8.251,-6.54397,-28.4979
2023-03-15 12:53:58:437,-1.01535,1.38107,-9.58069,-8.2669,-6.54345,-28.4493
2023-03-15 12:53:58:447,-0.993966,1.381,-9.57037,-8.2864,-6.54368,-28.3928
2023-03-15 12:53:58:457,-0.991874,1.39076,-9.56208,-8.30522,-6.5435,-28.3359
2023-03-15 12:53:58:467,-0.992727,1.39491,-9.56574,-8.33034,-6.54337,-28.2811
2023-03-15 12:53:58:477,-1.01798,1.41687,-9.57517,-8.35889,-6.54444,-28.2212
2023-03-15 12:53:58:487,-1.05041,1.43956,-9.60294,-8.39038,-6.54699,-28.1654
2023-03-15 12:53:58:497,-1.07264,1.46316,-9.60908,-8.41691,-6.55041,-28.1083
2023-03-15 12:53:58:507,-1.07934,1.45313,-9.59913,-8.44156,-6.55054,-28.0501
2023-03-15 12:53:58:517,-1.08681,1.45444,-9.57521,-8.4692,-6.55087,-27.9922
2023-03-15 12:53:58:527,-1.09657,1.46989,-9.58679,-8.50008,-6.55347,-27.9338
2023-03-15 12:53:58:537,-1.09521,1.47262,-9.60856,-8.52959,-6.55301,-27.8745
2023-03-15 12:53:58:547,-1.0767,1.47448,-9.61615,-8.55698,-6.55154,-27.8123
2023-03-15 12:53:58:557,-1.05782,1.46433,-9.58359,-8.58052,-6.55117,-27.752
2023-03-15 12:53:58:567,-1.02486,1.45546,-9.5817,-8.60484,-6.54994,-27.6912
2023-03-15 12:53:58:577,-0.990336,1.47002,-9.57653,-8.63534,-6.55149,-27.6287
2023-03-15 12:53:58:587,-0.942382,1.45587,-9.56414,-8.66306,-6.54865,-27.5541
2023-03-15 12:53:58:597,-0.888547,1.44447,-9.56992,-8.6952,-6.54699,-27.4682
2023-03-15 12:53:58:607,-0.815138,1.43955,-9.57683,-8.72993,-6.5439,-27.372
2023-03-15 12:53:58:617,-0.741538,1.41549,-9.56246,-8.76574,-6.53905,-27.2578
2023-03-15 12:53:58:627,-0.692338,1.40703,-9.5398,-8.80368,-6.53364,-27.1233
2023-03-15 12:53:58:637,-0.687608,1.38082,-9.498,-8.85284,-6.52544,-26.9687
2023-03-15 12:53:58:647,-0.720275,1.35927,-9.44181,-8.91061,-6.51414,-26.7925
2023-03-15 12:53:58:657,-0.736854,1.36523,-9.42779,-8.97682,-6.49884,-26.5963
2023-03-15 12:53:58:667,-0.735542,1.38057,-9.4441,-9.04973,-6.47359,-26.3841
2023-03-15 12:53:58:677,-0.743402,1.40309,-9.45444,-9.13372,-6.44593,-26.1567
2023-03-15 12:53:58:687,-0.756608,1.44704,-9.45202,-9.2269,-6.41254,-25.911
2023-03-15 12:53:58:697,-0.782749,1.48349,-9.46548,-9.32332,-6.37467,-25.6486
2023-03-15 12:53:58:707,-0.808146,1.50365,-9.50069,-9.42941,-6.33403,-25.3724
2023-03-15 12:53:58:717,-0.855165,1.56051,-9.52524,-9.53859,-6.28889,-25.0868
2023-03-15 12:53:58:727,-0.847235,1.59539,-9.56583,-9.6472,-6.24103,-24.7959
2023-03-15 12:53:58:737,-0.795708,1.62978,-9.59551,-9.75979,-6.19251,-24.494
2023-03-15 12:53:58:747,-0.749508,1.66332,-9.61587,-9.8708,-6.14725,-24.1839
2023-03-15 12:53:58:757,-0.765247,1.69705,-9.60646,-9.97982,-6.11087,-23.8665
2023-03-15 12:53:58:767,-0.850971,1.72922,-9.59907,-10.0892,-6.08222,-23.5406
2023-03-15 12:53:58:777,-0.964021,1.7855,-9.59208,-10.2015,-6.05719,-23.2125
2023-03-15 12:53:58:787,-1.03109,1.8518,-9.59975,-10.3082,-6.03472,-22.8895
2023-03-15 12:53:58:797,-1.08354,1.90014,-9.62736,-10.4121,-6.01603,-22.5727
2023-03-15 12:53:58:807,-1.11244,1.95374,-9.65046,-10.5163,-6.00183,-22.2635
2023-03-15 12:53:58:817,-1.15635,1.97889,-9.65134,-10.6121,-5.99419,-21.9632
2023-03-15 12:53:58:827,-1.1785,1.99603,-9.63132,-10.7021,-5.99198,-21.6748
2023-03-15 12:53:58:837,-1.20966,2.02108,-9.61448,-10.7816,-5.99431,-21.3986
2023-03-15 12:53:58:847,-1.22326,2.02156,-9.60347,-10.8552,-5.99739,-21.1386
2023-03-15 12:53:58:857,-1.21797,2.03469,-9.59629,-10.9223,-6.00895,-20.8903
2023-03-15 12:53:58:867,-1.22573,2.04674,-9.60146,-10.9885,-6.02342,-20.6588
2023-03-15 12:53:58:877,-1.22197,2.05277,-9.62011,-11.0529,-6.03968,-20.4376
2023-03-15 12:53:58:887,-1.24965,2.07952,-9.64357,-11.1079,-6.06021,-20.2319
2023-03-15 12:53:58:897,-1.26166,2.09942,-9.65126,-11.1567,-6.08252,-20.0353
2023-03-15 12:53:58:907,-1.26643,2.09415,-9.64826,-11.1924,-6.10717,-19.8502
2023-03-15 12:53:58:917,-1.24895,2.09579,-9.63327,-11.2244,-6.13281,-19.6788
2023-03-15 12:53:58:927,-1.20407,2.07614,-9.6386,-11.2457,-6.15758,-19.5157
2023-03-15 12:53:58:937,-1.16956,2.05648,-9.63123,-11.262,-6.18817,-19.3624
2023-03-15 12:53:58:947,-1.14653,2.03151,-9.61674,-11.2706,-6.22271,-19.2155
2023-03-15 12:53:58:957,-1.14531,2.0183,-9.6041,-11.2754,-6.26113,-19.0725
2023-03-15 12:53:58:967,-1.16226,1.99308,-9.56785,-11.276,-6.30308,-18.9389
2023-03-15 12:53:58:977,-1.17919,1.98183,-9.54992,-11.2761,-6.35096,-18.8076
2023-03-15 12:53:58:987,-1.20364,1.98384,-9.52704,-11.2737,-6.39517,-18.6851
2023-03-15 12:53:58:997,-1.22912,1.97047,-9.49189,-11.2717,-6.4409,-18.5704
2023-03-15 12:53:59:7,-1.22034,1.93766,-9.47429,-11.2673,-6.485,-18.4579
2023-03-15 12:53:59:17,-1.20706,1.92469,-9.47379,-11.2618,-6.52712,-18.3491
2023-03-15 12:53:59:27,-1.20697,1.89912,-9.48332,-11.2593,-6.5703,-18.238
2023-03-15 12:53:59:37,-1.20662,1.87924,-9.46277,-11.256,-6.61346,-18.1315
2023-03-15 12:53:59:47,-1.22545,1.87599,-9.44479,-11.2571,-6.65209,-18.0261
2023-03-15 12:53:59:57,-1.26235,1.87834,-9.44085,-11.259,-6.69311,-17.9241
2023-03-15 12:53:59:67,-1.28309,1.87511,-9.42057,-11.2642,-6.73243,-17.8221
2023-03-15 12:53:59:77,-1.29145,1.87198,-9.42217,-11.2758,-6.76527,-17.7243
2023-03-15 12:53:59:87,-1.30565,1.88274,-9.41851,-11.2883,-6.79735,-17.633
2023-03-15 12:53:59:97,-1.31491,1.88667,-9.4177,-11.3053,-6.82608,-17.5447
2023-03-15 12:53:59:107,-1.32084,1.89749,-9.42832,-11.3245,-6.85232,-17.4623
2023-03-15 12:53:59:117,-1.33837,1.90766,-9.41829,-11.3484,-6.87484,-17.3782
2023-03-15 12:53:59:127,-1.33815,1.90932,-9.43225,-11.3731,-6.89076,-17.3017
2023-03-15 12:53:59:137,-1.33329,1.91645,-9.4528,-11.4007,-6.91003,-17.2285
2023-03-15 12:53:59:147,-1.32367,1.94086,-9.46941,-11.4297,-6.93072,-17.1591
2023-03-15 12:53:59:157,-1.31015,1.94878,-9.48249,-11.4573,-6.94416,-17.0987
2023-03-15 12:53:59:167,-1.30927,1.96951,-9.48756,-11.4851,-6.96054,-17.0423
2023-03-15 12:53:59:177,-1.32129,1.98738,-9.47714,-11.5138,-6.9743,-16.9905
2023-03-15 12:53:59:187,-1.31679,2.00125,-9.48805,-11.5481,-6.98669,-16.941
2023-03-15 12:53:59:197,-1.29452,2.01616,-9.48843,-11.5762,-7.00303,-16.8951
2023-03-15 12:53:59:207,-1.28032,2.01889,-9.48949,-11.6064,-7.01719,-16.8496
2023-03-15 12:53:59:217,-1.27162,2.01922,-9.4994,-11.6347,-7.0324,-16.8056
2023-03-15 12:53:59:227,-1.28522,2.03389,-9.50874,-11.6614,-7.04394,-16.7639
2023-03-15 12:53:59:237,-1.27406,2.04758,-9.52232,-11.6905,-7.05465,-16.7242
2023-03-15 12:53:59:247,-1.26716,2.04095,-9.51944,-11.7124,-7.07013,-16.6862
2023-03-15 12:53:59:257,-1.27144,2.04649,-9.5281,-11.7372,-7.07799,-16.6467
2023-03-15 12:53:59:267,-1.25901,2.04905,-9.51949,-11.7543,-7.08388,-16.607
2023-03-15 12:53:59:277,-1.24174,2.04307,-9.50591,-11.7712,-7.09035,-16.569
2023-03-15 12:53:59:287,-1.24681,2.04372,-9.48355,-11.7891,-7.09636,-16.5319
2023-03-15 12:53:59:297,-1.25548,2.02938,-9.46156,-11.8065,-7.09971,-16.4918
2023-03-15 12:53:59:307,-1.26045,2.02673,-9.46174,-11.8247,-7.10042,-16.4519
2023-03-15 12:53:59:317,-1.26536,2.03391,-9.45523,-11.8417,-7.10026,-16.4133
2023-03-15 12:53:59:327,-1.27188,2.05287,-9.44965,-11.8585,-7.09928,-16.377
2023-03-15 12:53:59:337,-1.27874,2.06421,-9.4559,-11.8772,-7.09374,-16.3415
2023-03-15 12:53:59:347,-1.26785,2.06433,-9.45122,-11.8957,-7.09161,-16.3132
2023-03-15 12:53:59:357,-1.2696,2.05353,-9.4582,-11.912,-7.0857,-16.2829
2023-03-15 12:53:59:367,-1.2515,2.06306,-9.47134,-11.9304,-7.08372,-16.2565
2023-03-15 12:53:59:377,-1.25628,2.06745,-9.48316,-11.9495,-7.08354,-16.2314
2023-03-15 12:53:59:387,-1.26209,2.07986,-9.48512,-11.9667,-7.08111,-16.2083
2023-03-15 12:53:59:397,-1.2573,2.07491,-9.47272,-11.9826,-7.07992,-16.1884
2023-03-15 12:53:59:407,-1.26415,2.07698,-9.48411,-11.9983,-7.07495,-16.1716
2023-03-15 12:53:59:417,-1.26717,2.09642,-9.48466,-12.016,-7.07486,-16.1592
2023-03-15 12:53:59:427,-1.26559,2.09327,-9.45779,-12.0318,-7.07678,-16.1512
2023-03-15 12:53:59:437,-1.25717,2.09066,-9.45372,-12.0495,-7.07404,-16.1412
2023-03-15 12:53:59:447,-1.26161,2.10621,-9.47461,-12.0648,-7.06784,-16.1366
2023-03-15 12:53:59:457,-1.263,2.11328,-9.49339,-12.0793,-7.06415,-16.136
2023-03-15 12:53:59:467,-1.22505,2.12424,-9.50756,-12.0982,-7.05913,-16.134
2023-03-15 12:53:59:477,-1.23383,2.1427,-9.51616,-12.1134,-7.0535,-16.1367
2023-03-15 12:53:59:487,-1.23355,2.13725,-9.52628,-12.1222,-7.05011,-16.1379
2023-03-15 12:53:59:497,-1.22763,2.13766,-9.5248,-12.1287,-7.0446,-16.1422
2023-03-15 12:53:59:507,-1.22732,2.13151,-9.52121,-12.1332,-7.03892,-16.1494
2023-03-15 12:53:59:517,-1.22075,2.12385,-9.50719,-12.1354,-7.03178,-16.1526
2023-03-15 12:53:59:527,-1.2112,2.12706,-9.48661,-12.1371,-7.02664,-16.1626
2023-03-15 12:53:59:537,-1.18416,2.10741,-9.47901,-12.1336,-7.0199,-16.1766
2023-03-15 12:53:59:547,-1.17084,2.09295,-9.47299,-12.1285,-7.01392,-16.1902
2023-03-15 12:53:59:557,-1.16078,2.0811,-9.47092,-12.1278,-7.01202,-16.198
2023-03-15 12:53:59:567,-1.15054,2.06566,-9.45861,-12.127,-7.00895,-16.2118
2023-03-15 12:53:59:577,-1.15575,2.05324,-9.45712,-12.1248,-7.00653,-16.2232
2023-03-15 12:53:59:587,-1.16425,2.04633,-9.46933,-12.1244,-7.00015,-16.2335
2023-03-15 12:53:59:597,-1.13579,2.04898,-9.46956,-12.124,-6.99308,-16.2398
2023-03-15 12:53:59:607,-1.11138,2.04574,-9.46574,-12.1254,-6.99041,-16.2463
2023-03-15 12:53:59:617,-1.12086,2.05204,-9.44839,-12.1279,-6.98738,-16.2515
2023-03-15 12:53:59:627,-1.13458,2.06611,-9.42105,-12.133,-6.9811,-16.253
2023-03-15 12:53:59:637,-1.14534,2.05821,-9.4364,-12.1411,-6.97192,-16.2592
2023-03-15 12:53:59:647,-1.12648,2.0747,-9.47239,-12.1481,-6.96219,-16.263
2023-03-15 12:53:59:657,-1.10414,2.09976,-9.51884,-12.155,-6.95144,-16.269
2023-03-15 12:53:59:667,-1.06039,2.10387,-9.57052,-12.1579,-6.93866,-16.2744
2023-03-15 12:53:59:677,-1.0097,2.09746,-9.58279,-12.1566,-6.93077,-16.2729
2023-03-15 12:53:59:687,-0.998542,2.07801,-9.54848,-12.1515,-6.93316,-16.2658
2023-03-15 12:53:59:697,-1.0485,2.07985,-9.50488,-12.1474,-6.9388,-16.2537
2023-03-15 12:53:59:707,-1.13382,2.09734,-9.48825,-12.145,-6.94842,-16.2424
2023-03-15 12:53:59:717,-1.19385,2.11989,-9.46185,-12.1455,-6.95818,-16.2334
2023-03-15 12:53:59:727,-1.2066,2.12701,-9.46191,-12.1448,-6.9667,-16.2293
2023-03-15 12:53:59:737,-1.17164,2.11827,-9.4852,-12.1488,-6.96703,-16.2214
2023-03-15 12:53:59:748,-1.14298,2.11,-9.49901,-12.149,-6.96826,-16.212
2023-03-15 12:53:59:757,-1.1516,2.10764,-9.51278,-12.1456,-6.96792,-16.2005
2023-03-15 12:53:59:767,-1.17274,2.12016,-9.50078,-12.1402,-6.96872,-16.1895
2023-03-15 12:53:59:778,-1.19088,2.12228,-9.47317,-12.1311,-6.96421,-16.1801
2023-03-15 12:53:59:787,-1.21599,2.12034,-9.45472,-12.1235,-6.96308,-16.1735
2023-03-15 12:53:59:797,-1.22418,2.10937,-9.44095,-12.1136,-6.95516,-16.1678
2023-03-15 12:53:59:807,-1.22187,2.10048,-9.43987,-12.1074,-6.95032,-16.1636
2023-03-15 12:53:59:817,-1.23237,2.10947,-9.42731,-12.1009,-6.94379,-16.1644
2023-03-15 12:53:59:827,-1.22005,2.10319,-9.45143,-12.0949,-6.93566,-16.1706
2023-03-15 12:53:59:837,-1.18553,2.10505,-9.47314,-12.0873,-6.92746,-16.1777
2023-03-15 12:53:59:847,-1.16205,2.10481,-9.49537,-12.0789,-6.92269,-16.186
2023-03-15 12:53:59:857,-1.16088,2.10476,-9.51203,-12.0741,-6.91793,-16.1965
2023-03-15 12:53:59:867,-1.15685,2.09556,-9.52963,-12.0638,-6.91617,-16.2084
2023-03-15 12:53:59:877,-1.15342,2.08513,-9.53132,-12.0554,-6.91486,-16.2182
2023-03-15 12:53:59:887,-1.14705,2.07588,-9.51486,-12.045,-6.91681,-16.2309
2023-03-15 12:53:59:897,-1.14243,2.06496,-9.49716,-12.0322,-6.91641,-16.2423
2023-03-15 12:53:59:907,-1.16428,2.06257,-9.48443,-12.0236,-6.91899,-16.2538
2023-03-15 12:53:59:917,-1.18696,2.06294,-9.48541,-12.0142,-6.91856,-16.2652
2023-03-15 12:53:59:927,-1.16725,2.06877,-9.48987,-12.0066,-6.91387,-16.2769
2023-03-15 12:53:59:937,-1.11976,2.07528,-9.49047,-11.9979,-6.90708,-16.2927
2023-03-15 12:53:59:947,-1.08108,2.06722,-9.50886,-11.9877,-6.90333,-16.3062
2023-03-15 12:53:59:957,-1.0746,2.05808,-9.48891,-11.9744,-6.89605,-16.318
2023-03-15 12:53:59:967,-1.09951,2.04592,-9.48421,-11.9604,-6.89121,-16.3258
2023-03-15 12:53:59:977,-1.11716,2.01997,-9.48909,-11.9446,-6.88842,-16.3295
2023-03-15 12:53:59:987,-1.12239,2.01715,-9.49219,-11.9284,-6.8795,-16.3332
2023-03-15 12:53:59:997,-1.11337,2.01393,-9.48285,-11.9126,-6.87477,-16.3371
2023-03-15 12:54:00:7,-1.10889,2.01231,-9.47607,-11.8941,-6.86968,-16.3406
2023-03-15 12:54:00:17,-1.09911,2.00566,-9.475,-11.879,-6.86258,-16.3423
2023-03-15 12:54:00:27,-1.08378,1.97845,-9.48071,-11.8634,-6.85667,-16.338
2023-03-15 12:54:00:37,-1.07151,1.97833,-9.48594,-11.8524,-6.8553,-16.3339
2023-03-15 12:54:00:47,-1.07366,1.98538,-9.47549,-11.8408,-6.85215,-16.3282
2023-03-15 12:54:00:57,-1.0746,1.98775,-9.47054,-11.831,-6.8523,-16.3238
2023-03-15 12:54:00:67,-1.08377,1.97233,-9.47354,-11.8216,-6.8498,-16.3109
2023-03-15 12:54:00:77,-1.0843,1.97172,-9.48042,-11.813,-6.84803,-16.2982
2023-03-15 12:54:00:87,-1.09451,1.96719,-9.49393,-11.8054,-6.84875,-16.284
2023-03-15 12:54:00:97,-1.1139,1.97234,-9.48044,-11.7973,-6.84846,-16.2676
2023-03-15 12:54:00:107,-1.13585,1.96048,-9.4782,-11.7939,-6.84934,-16.2547
2023-03-15 12:54:00:117,-1.1456,1.96442,-9.46644,-11.7914,-6.85023,-16.2383
2023-03-15 12:54:00:127,-1.141,1.96379,-9.45496,-11.7889,-6.84781,-16.2243
2023-03-15 12:54:00:137,-1.14831,1.9663,-9.47201,-11.7889,-6.84833,-16.2066
2023-03-15 12:54:00:147,-1.1571,1.95497,-9.47455,-11.7895,-6.85084,-16.1872
2023-03-15 12:54:00:157,-1.15069,1.95761,-9.47552,-11.7896,-6.85249,-16.1644
2023-03-15 12:54:00:167,-1.16048,1.96739,-9.48602,-11.7925,-6.85117,-16.1415
2023-03-15 12:54:00:177,-1.19296,1.96005,-9.46876,-11.7935,-6.84873,-16.1196
2023-03-15 12:54:00:187,-1.18835,1.96121,-9.46451,-11.7971,-6.84675,-16.0995
2023-03-15 12:54:00:197,-1.18587,1.97257,-9.4676,-11.7992,-6.84351,-16.0831
2023-03-15 12:54:00:207,-1.19124,1.97904,-9.48162,-11.8052,-6.83932,-16.067
2023-03-15 12:54:00:217,-1.2027,1.99214,-9.48611,-11.8091,-6.83855,-16.0532
2023-03-15 12:54:00:227,-1.19202,1.99423,-9.48623,-11.8165,-6.83735,-16.0422
2023-03-15 12:54:00:237,-1.18243,1.99014,-9.498,-11.8218,-6.83657,-16.0267
2023-03-15 12:54:00:247,-1.19047,1.97706,-9.48786,-11.8251,-6.83699,-16.0114
2023-03-15 12:54:00:257,-1.19645,1.98011,-9.4569,-11.8313,-6.83414,-16.0027
2023-03-15 12:54:00:267,-1.20612,1.9713,-9.44426,-11.8402,-6.83469,-15.9975
2023-03-15 12:54:00:277,-1.21759,1.97559,-9.44781,-11.8534,-6.83563,-15.9943
2023-03-15 12:54:00:287,-1.21142,1.97856,-9.45908,-11.8664,-6.83575,-15.9919
2023-03-15 12:54:00:297,-1.20174,1.99788,-9.4497,-11.8781,-6.83486,-15.9936
2023-03-15 12:54:00:307,-1.19756,2.0136,-9.44869,-11.8935,-6.83427,-15.9967
2023-03-15 12:54:00:317,-1.19266,2.02337,-9.46154,-11.9105,-6.83475,-16.0008
2023-03-15 12:54:00:327,-1.17904,2.0417,-9.48644,-11.9275,-6.8334,-16.0063
2023-03-15 12:54:00:337,-1.16276,2.04753,-9.51066,-11.9409,-6.8303,-16.0103
2023-03-15 12:54:00:347,-1.15006,2.04423,-9.50266,-11.9538,-6.82782,-16.0144
2023-03-15 12:54:00:357,-1.15511,2.03868,-9.49325,-11.9641,-6.82346,-16.0225
2023-03-15 12:54:00:367,-1.15977,2.03837,-9.48265,-11.9711,-6.82082,-16.0267
2023-03-15 12:54:00:377,-1.15444,2.03815,-9.46923,-11.9824,-6.81432,-16.0324
2023-03-15 12:54:00:387,-1.15431,2.03772,-9.4737,-11.9942,-6.80786,-16.0341
2023-03-15 12:54:00:397,-1.14144,2.05136,-9.47154,-12.0067,-6.80044,-16.0396
2023-03-15 12:54:00:407,-1.13424,2.06163,-9.50251,-12.0189,-6.79127,-16.0411
2023-03-15 12:54:00:417,-1.1291,2.08002,-9.49868,-12.0323,-6.78214,-16.0446
2023-03-15 12:54:00:427,-1.11811,2.08905,-9.50443,-12.0457,-6.77924,-16.0486
2023-03-15 12:54:00:437,-1.11388,2.08275,-9.52661,-12.0576,-6.77057,-16.0552
2023-03-15 12:54:00:447,-1.09824,2.08399,-9.54219,-12.0648,-6.76202,-16.0629
2023-03-15 12:54:00:457,-1.0935,2.08432,-9.53218,-12.0709,-6.75417,-16.0685
2023-03-15 12:54:00:467,-1.10856,2.06648,-9.50621,-12.0756,-6.75021,-16.0726
2023-03-15 12:54:00:477,-1.10474,2.06854,-9.47722,-12.08,-6.74448,-16.0761
2023-03-15 12:54:00:487,-1.10343,2.07076,-9.46085,-12.0863,-6.73969,-16.078
2023-03-15 12:54:00:497,-1.09337,2.06569,-9.46279,-12.0879,-6.73488,-16.0785
2023-03-15 12:54:00:507,-1.10465,2.0772,-9.44569,-12.0912,-6.73406,-16.0784
2023-03-15 12:54:00:517,-1.11211,2.07399,-9.4568,-12.0961,-6.73158,-16.0768
2023-03-15 12:54:00:527,-1.11766,2.07398,-9.47801,-12.1041,-6.72701,-16.0739
2023-03-15 12:54:00:537,-1.10346,2.07999,-9.51121,-12.1087,-6.71881,-16.071
2023-03-15 12:54:00:547,-1.0899,2.08819,-9.49833,-12.1138,-6.71123,-16.067
2023-03-15 12:54:00:557,-1.10496,2.07978,-9.48523,-12.1205,-6.70552,-16.0593
2023-03-15 12:54:00:567,-1.15014,2.07931,-9.46146,-12.1249,-6.69947,-16.0545
2023-03-15 12:54:00:577,-1.17785,2.07853,-9.44607,-12.1319,-6.68994,-16.0488
2023-03-15 12:54:00:587,-1.13876,2.07161,-9.46308,-12.1398,-6.67362,-16.0442
2023-03-15 12:54:00:597,-1.10349,2.08415,-9.50109,-12.1452,-6.65851,-16.0406
2023-03-15 12:54:00:607,-1.06644,2.08857,-9.52349,-12.1506,-6.64208,-16.0396
2023-03-15 12:54:00:617,-1.03109,2.07919,-9.53501,-12.1541,-6.63116,-16.0386
2023-03-15 12:54:00:627,-1.01831,2.0709,-9.4994,-12.1589,-6.62353,-16.0348
2023-03-15 12:54:00:637,-1.04745,2.08014,-9.4627,-12.1617,-6.62956,-16.0241
2023-03-15 12:54:00:647,-1.11068,2.09471,-9.46317,-12.1704,-6.63232,-16.0177
2023-03-15 12:54:00:657,-1.15875,2.08512,-9.43471,-12.1776,-6.63583,-16.0127
2023-03-15 12:54:00:667,-1.18004,2.06836,-9.42433,-12.1871,-6.63454,-16.0099
2023-03-15 12:54:00:677,-1.15625,2.06714,-9.44981,-12.197,-6.63203,-16.0075
2023-03-15 12:54:00:687,-1.11298,2.06392,-9.45236,-12.2093,-6.6256,-16.0061
2023-03-15 12:54:00:697,-1.09378,2.05109,-9.44389,-12.2204,-6.61795,-16.0028
2023-03-15 12:54:00:707,-1.10467,2.05081,-9.42755,-12.2325,-6.61079,-16
2023-03-15 12:54:00:717,-1.12242,2.04205,-9.39875,-12.2502,-6.60678,-15.9973
2023-03-15 12:54:00:727,-1.13273,2.04301,-9.36683,-12.2686,-6.60136,-15.9983
2023-03-15 12:54:00:737,-1.13515,2.04295,-9.33435,-12.2909,-6.59597,-16.004
2023-03-15 12:54:00:747,-1.13662,2.0476,-9.32292,-12.3178,-6.58884,-16.0127
2023-03-15 12:54:00:757,-1.1302,2.02185,-9.33575,-12.3487,-6.58126,-16.0233
2023-03-15 12:54:00:767,-1.10294,2.02605,-9.3333,-12.3889,-6.57282,-16.0355
2023-03-15 12:54:00:777,-1.07921,2.06099,-9.36716,-12.4353,-6.56566,-16.0539
2023-03-15 12:54:00:787,-1.06529,2.11532,-9.45282,-12.4894,-6.56343,-16.0702
2023-03-15 12:54:00:797,-1.02766,2.18321,-9.5399,-12.5418,-6.56402,-16.0897
2023-03-15 12:54:00:807,-1.01916,2.26641,-9.63561,-12.5897,-6.56804,-16.1071
2023-03-15 12:54:00:817,-1.02302,2.36727,-9.73759,-12.6333,-6.57347,-16.1277
2023-03-15 12:54:00:827,-1.02268,2.50832,-9.90028,-12.665,-6.58253,-16.1492
2023-03-15 12:54:00:837,-1.02986,2.6416,-10.0189,-12.6725,-6.59605,-16.1705
2023-03-15 12:54:00:847,-1.07368,2.67208,-10.0136,-12.6518,-6.60707,-16.1926
2023-03-15 12:54:00:857,-1.09387,2.62435,-9.90264,-12.5977,-6.61224,-16.2128
2023-03-15 12:54:00:867,-1.06177,2.52336,-9.74616,-12.5252,-6.61372,-16.2327
2023-03-15 12:54:00:877,-1.00472,2.39712,-9.6317,-12.4411,-6.60931,-16.2447
2023-03-15 12:54:00:887,-0.990206,2.32234,-9.5689,-12.3525,-6.61279,-16.2504
2023-03-15 12:54:00:897,-1.00563,2.26558,-9.52658,-12.2642,-6.61495,-16.249
2023-03-15 12:54:00:907,-1.05294,2.17835,-9.49367,-12.1771,-6.62211,-16.243
2023-03-15 12:54:00:917,-1.0724,2.11414,-9.43942,-12.0931,-6.62683,-16.2308
2023-03-15 12:54:00:927,-1.08535,2.0459,-9.40948,-12.0085,-6.62776,-16.2145
2023-03-15 12:54:00:937,-1.09611,1.99365,-9.40701,-11.9285,-6.63322,-16.1935
2023-03-15 12:54:00:947,-1.10503,1.94993,-9.40027,-11.853,-6.63253,-16.1657
2023-03-15 12:54:00:957,-1.09622,1.92957,-9.39913,-11.7846,-6.62888,-16.1356
2023-03-15 12:54:00:967,-1.0817,1.88082,-9.38078,-11.7225,-6.62402,-16.1002
2023-03-15 12:54:00:977,-1.07352,1.84176,-9.35153,-11.6665,-6.61634,-16.0655
2023-03-15 12:54:00:987,-1.09726,1.87279,-9.37132,-11.6205,-6.61109,-16.0307
2023-03-15 12:54:00:997,-1.12007,1.86933,-9.39128,-11.5774,-6.60205,-15.9951
2023-03-15 12:54:01:7,-1.13289,1.81399,-9.32115,-11.5384,-6.59746,-15.9587
2023-03-15 12:54:01:17,-1.13382,1.83627,-9.35314,-11.5162,-6.59186,-15.9243
2023-03-15 12:54:01:27,-1.1053,1.92091,-9.47162,-11.4995,-6.59076,-15.8948
2023-03-15 12:54:01:37,-1.07016,1.95511,-9.4987,-11.4821,-6.59124,-15.8714
2023-03-15 12:54:01:47,-1.06591,1.941,-9.46792,-11.4611,-6.59459,-15.8469
2023-03-15 12:54:01:57,-1.09634,1.94717,-9.46633,-11.447,-6.60085,-15.8241
2023-03-15 12:54:01:67,-1.12081,1.98404,-9.52729,-11.4385,-6.60715,-15.8055
2023-03-15 12:54:01:77,-1.11516,2.02744,-9.59647,-11.4292,-6.62185,-15.7907
2023-03-15 12:54:01:87,-1.10938,2.00993,-9.60106,-11.4135,-6.63899,-15.7823
2023-03-15 12:54:01:97,-1.0913,1.97518,-9.55571,-11.3946,-6.65653,-15.7724
2023-03-15 12:54:01:107,-1.06707,1.93747,-9.53021,-11.3737,-6.6752,-15.7686
2023-03-15 12:54:01:117,-1.02755,1.90448,-9.52137,-11.3488,-6.69411,-15.7634
2023-03-15 12:54:01:127,-0.994203,1.86388,-9.49506,-11.3248,-6.71079,-15.7518
2023-03-15 12:54:01:137,-0.920826,1.86808,-9.47539,-11.3043,-6.72338,-15.7347
2023-03-15 12:54:01:147,-0.898693,1.8997,-9.53414,-11.2877,-6.73885,-15.712
2023-03-15 12:54:01:157,-0.970936,1.92107,-9.60748,-11.2644,-6.76539,-15.6855
2023-03-15 12:54:01:167,-1.04534,1.93064,-9.58907,-11.2373,-6.79246,-15.656
2023-03-15 12:54:01:177,-1.0514,1.90868,-9.54677,-11.2005,-6.81206,-15.6235
2023-03-15 12:54:01:187,-0.991075,1.88032,-9.52624,-11.1606,-6.8267,-15.5848
2023-03-15 12:54:01:197,-0.984287,1.84648,-9.49685,-11.1169,-6.8384,-15.5351
2023-03-15 12:54:01:207,-0.998598,1.78665,-9.42628,-11.0782,-6.84583,-15.4788
2023-03-15 12:54:01:217,-0.965954,1.77868,-9.41173,-11.0478,-6.85118,-15.4155
2023-03-15 12:54:01:227,-0.926883,1.79924,-9.45135,-11.0246,-6.85611,-15.3401
2023-03-15 12:54:01:237,-0.938396,1.80456,-9.43731,-11.0071,-6.86043,-15.2612
2023-03-15 12:54:01:247,-0.975131,1.80214,-9.42603,-10.995,-6.86888,-15.1779
2023-03-15 12:54:01:257,-0.95359,1.80444,-9.51335,-10.9909,-6.87846,-15.0857
2023-03-15 12:54:01:267,-0.939521,1.86537,-9.6598,-10.9881,-6.89364,-14.987
2023-03-15 12:54:01:277,-0.985967,1.91972,-9.73961,-10.9787,-6.91382,-14.8824
2023-03-15 12:54:01:287,-1.03821,1.98425,-9.75861,-10.9613,-6.93483,-14.7784
2023-03-15 12:54:01:297,-1.06281,2.00724,-9.748,-10.9302,-6.95818,-14.674
2023-03-15 12:54:01:307,-1.11822,2.00499,-9.70473,-10.8883,-6.97684,-14.565
2023-03-15 12:54:01:317,-1.17278,1.99027,-9.64484,-10.8319,-6.99848,-14.459
2023-03-15 12:54:01:327,-1.19691,1.94147,-9.57837,-10.7674,-7.01892,-14.3509
2023-03-15 12:54:01:337,-1.18698,1.8558,-9.52448,-10.7019,-7.03967,-14.2406
2023-03-15 12:54:01:347,-1.20284,1.79038,-9.45111,-10.638,-7.06725,-14.1271
2023-03-15 12:54:01:357,-1.2416,1.7345,-9.35532,-10.5795,-7.09145,-14.0165
2023-03-15 12:54:01:367,-1.28448,1.69877,-9.29869,-10.5298,-7.12379,-13.9078
2023-03-15 12:54:01:377,-1.34111,1.70703,-9.31542,-10.4948,-7.1543,-13.8015
2023-03-15 12:54:01:387,-1.4182,1.70774,-9.36437,-10.467,-7.18468,-13.7013
2023-03-15 12:54:01:397,-1.4456,1.74853,-9.43652,-10.4478,-7.21375,-13.6125
2023-03-15 12:54:01:407,-1.43456,1.7471,-9.45691,-10.4302,-7.24425,-13.5325
2023-03-15 12:54:01:417,-1.44487,1.75401,-9.48525,-10.4178,-7.27669,-13.4587
2023-03-15 12:54:01:427,-1.44463,1.79263,-9.55077,-10.4068,-7.30669,-13.3923
2023-03-15 12:54:01:437,-1.45377,1.82206,-9.58945,-10.3909,-7.33852,-13.3358
2023-03-15 12:54:01:447,-1.48523,1.8164,-9.57368,-10.3639,-7.36607,-13.2899
2023-03-15 12:54:01:457,-1.49397,1.79651,-9.54265,-10.3333,-7.3896,-13.2511
2023-03-15 12:54:01:467,-1.44813,1.78864,-9.51618,-10.301,-7.40925,-13.2206
2023-03-15 12:54:01:477,-1.39744,1.75851,-9.49603,-10.2653,-7.42543,-13.1958
2023-03-15 12:54:01:487,-1.36391,1.72563,-9.43696,-10.2297,-7.44043,-13.1743
2023-03-15 12:54:01:497,-1.33994,1.68259,-9.39682,-10.1972,-7.45088,-13.1534
2023-03-15 12:54:01:507,-1.29471,1.66399,-9.41951,-10.177,-7.46333,-13.1323
2023-03-15 12:54:01:517,-1.20749,1.67949,-9.40038,-10.1602,-7.46828,-13.1089
2023-03-15 12:54:01:527,-1.14392,1.67569,-9.35549,-10.1565,-7.47622,-13.0775
2023-03-15 12:54:01:537,-1.17888,1.70802,-9.40398,-10.1622,-7.48735,-13.0405
2023-03-15 12:54:01:547,-1.27387,1.8131,-9.54562,-10.1784,-7.49828,-12.9984
2023-03-15 12:54:01:557,-1.30579,1.84822,-9.6465,-10.1842,-7.50565,-12.9622
2023-03-15 12:54:01:567,-1.30111,1.8212,-9.68934,-10.1812,-7.50733,-12.925
2023-03-15 12:54:01:577,-1.29634,1.80574,-9.67625,-10.164,-7.50532,-12.8847
2023-03-15 12:54:01:587,-1.29382,1.77345,-9.62328,-10.1364,-7.50142,-12.845
2023-03-15 12:54:01:597,-1.30875,1.73863,-9.59511,-10.109,-7.50056,-12.8058
2023-03-15 12:54:01:607,-1.2795,1.69853,-9.57769,-10.0735,-7.50042,-12.7643
2023-03-15 12:54:01:617,-1.26897,1.65934,-9.53426,-10.036,-7.49854,-12.7275
2023-03-15 12:54:01:627,-1.28201,1.62716,-9.46539,-10.0002,-7.50837,-12.6867
2023-03-15 12:54:01:637,-1.3291,1.57799,-9.41418,-9.97182,-7.52032,-12.65
2023-03-15 12:54:01:647,-1.39225,1.58345,-9.38961,-9.95191,-7.53,-12.6128
2023-03-15 12:54:01:657,-1.42342,1.61315,-9.42384,-9.93796,-7.53265,-12.5811
2023-03-15 12:54:01:667,-1.44429,1.6205,-9.4674,-9.92619,-7.53489,-12.5566
2023-03-15 12:54:01:677,-1.43286,1.61865,-9.47984,-9.914,-7.53325,-12.5367
2023-03-15 12:54:01:687,-1.41255,1.59457,-9.49398,-9.90206,-7.52696,-12.5195
2023-03-15 12:54:01:697,-1.39167,1.61245,-9.52699,-9.89145,-7.52087,-12.5116
2023-03-15 12:54:01:707,-1.34818,1.63027,-9.54677,-9.87937,-7.51703,-12.5052
2023-03-15 12:54:01:717,-1.34044,1.63103,-9.50018,-9.86364,-7.51369,-12.5005
2023-03-15 12:54:01:727,-1.35683,1.59921,-9.44808,-9.84718,-7.51,-12.5
2023-03-15 12:54:01:737,-1.36722,1.60291,-9.43565,-9.83799,-7.50734,-12.4994
2023-03-15 12:54:01:747,-1.35727,1.61973,-9.45792,-9.83788,-7.50496,-12.5034
2023-03-15 12:54:01:757,-1.34821,1.62969,-9.48631,-9.83449,-7.49831,-12.5072
2023-03-15 12:54:01:767,-1.36603,1.63249,-9.45676,-9.83464,-7.49265,-12.5123
2023-03-15 12:54:01:777,-1.37727,1.61379,-9.42757,-9.83776,-7.48296,-12.5195
2023-03-15 12:54:01:787,-1.3545,1.61042,-9.43874,-9.84764,-7.46592,-12.5307
2023-03-15 12:54:01:797,-1.32956,1.64463,-9.46426,-9.86829,-7.44845,-12.5426
2023-03-15 12:54:01:807,-1.31775,1.69268,-9.52224,-9.89699,-7.42975,-12.5566
2023-03-15 12:54:01:817,-1.27436,1.73336,-9.59285,-9.9263,-7.40758,-12.5741
2023-03-15 12:54:01:827,-1.23777,1.76241,-9.63404,-9.94863,-7.38484,-12.5895
2023-03-15 12:54:01:837,-1.23904,1.79136,-9.65202,-9.97215,-7.35911,-12.606
2023-03-15 12:54:01:847,-1.24134,1.81447,-9.66023,-9.9905,-7.33742,-12.6252
2023-03-15 12:54:01:857,-1.24103,1.80624,-9.62562,-10.0042,-7.31396,-12.6479
2023-03-15 12:54:01:867,-1.21269,1.7763,-9.57042,-10.016,-7.28919,-12.6702
2023-03-15 12:54:01:877,-1.17973,1.75985,-9.55299,-10.0251,-7.26532,-12.6925
2023-03-15 12:54:01:887,-1.15815,1.75627,-9.54086,-10.0325,-7.23753,-12.7138
2023-03-15 12:54:01:897,-1.12229,1.7508,-9.51337,-10.0391,-7.21113,-12.7339
2023-03-15 12:54:01:907,-1.106,1.72836,-9.47155,-10.0501,-7.18693,-12.7556
2023-03-15 12:54:01:917,-1.10806,1.73364,-9.47375,-10.0684,-7.16556,-12.7732
2023-03-15 12:54:01:927,-1.11804,1.7499,-9.5169,-10.0907,-7.14792,-12.7949
2023-03-15 12:54:01:937,-1.12397,1.79024,-9.56582,-10.1132,-7.1323,-12.8124
2023-03-15 12:54:01:947,-1.09888,1.80571,-9.6202,-10.1305,-7.11343,-12.8381
2023-03-15 12:54:01:957,-1.05951,1.80145,-9.70604,-10.1391,-7.09617,-12.8582
2023-03-15 12:54:01:967,-1.02326,1.79038,-9.72901,-10.1388,-7.07873,-12.8734
2023-03-15 12:54:01:977,-1.00308,1.7371,-9.65494,-10.1256,-7.06291,-12.8857
2023-03-15 12:54:01:987,-1.02336,1.70284,-9.55287,-10.1165,-7.04749,-12.8899
2023-03-15 12:54:01:997,-1.01984,1.68146,-9.49786,-10.1064,-7.03565,-12.8935
2023-03-15 12:54:02:7,-0.996073,1.69858,-9.57602,-10.0997,-7.02385,-12.8938
2023-03-15 12:54:02:17,-0.971579,1.75442,-9.67645,-10.0875,-7.0176,-12.887
2023-03-15 12:54:02:27,-0.991803,1.73638,-9.67486,-10.0625,-7.01563,-12.875
2023-03-15 12:54:02:37,-1.04038,1.67339,-9.59654,-10.0324,-7.01285,-12.8548
2023-03-15 12:54:02:47,-1.04698,1.62961,-9.54593,-10.0022,-7.0165,-12.8292
2023-03-15 12:54:02:57,-1.07571,1.64215,-9.53903,-9.9759,-7.02194,-12.7994
2023-03-15 12:54:02:67,-1.15688,1.653,-9.51008,-9.94813,-7.03285,-12.7676
2023-03-15 12:54:02:77,-1.22497,1.64826,-9.46699,-9.92649,-7.04462,-12.7378
2023-03-15 12:54:02:87,-1.25274,1.64622,-9.45962,-9.90874,-7.05961,-12.7095
2023-03-15 12:54:02:97,-1.26114,1.649,-9.4731,-9.89672,-7.07586,-12.6796
2023-03-15 12:54:02:107,-1.30751,1.7007,-9.51256,-9.89545,-7.08999,-12.6505
2023-03-15 12:54:02:117,-1.35231,1.75688,-9.5752,-9.8912,-7.10627,-12.6267
2023-03-15 12:54:02:127,-1.37625,1.83626,-9.62404,-9.89058,-7.12498,-12.606
2023-03-15 12:54:02:137,-1.38578,1.90319,-9.66169,-9.88257,-7.1393,-12.5981
2023-03-15 12:54:02:147,-1.39109,1.90738,-9.66898,-9.85933,-7.14529,-12.5932
2023-03-15 12:54:02:157,-1.40193,1.83538,-9.59539,-9.82987,-7.14531,-12.5913
2023-03-15 12:54:02:167,-1.36688,1.74865,-9.45192,-9.8019,-7.14133,-12.5929
2023-03-15 12:54:02:177,-1.29821,1.69319,-9.38087,-9.78385,-7.13409,-12.5935
2023-03-15 12:54:02:187,-1.24196,1.68315,-9.3857,-9.77337,-7.12466,-12.5992
2023-03-15 12:54:02:197,-1.21516,1.71143,-9.40082,-9.77118,-7.11191,-12.6062
2023-03-15 12:54:02:207,-1.20284,1.73613,-9.42266,-9.77649,-7.10343,-12.6187
2023-03-15 12:54:02:217,-1.20987,1.77221,-9.50334,-9.78898,-7.09747,-12.6327
2023-03-15 12:54:02:227,-1.18465,1.80055,-9.5927,-9.7999,-7.08991,-12.6465
2023-03-15 12:54:02:237,-1.13337,1.80462,-9.66004,-9.80308,-7.07989,-12.6639
2023-03-15 12:54:02:247,-1.0618,1.78108,-9.67041,-9.79486,-7.06646,-12.6775
2023-03-15 12:54:02:257,-1.02253,1.71936,-9.64137,-9.77865,-7.05464,-12.6868
2023-03-15 12:54:02:267,-1.04817,1.68509,-9.57106,-9.75651,-7.04888,-12.6925
2023-03-15 12:54:02:277,-1.06608,1.6764,-9.57489,-9.73729,-7.04388,-12.6962
2023-03-15 12:54:02:287,-1.05868,1.71848,-9.6595,-9.71555,-7.0366,-12.6999
2023-03-15 12:54:02:297,-1.05706,1.75758,-9.72326,-9.69134,-7.03515,-12.7042
2023-03-15 12:54:02:307,-1.05996,1.73919,-9.70649,-9.65626,-7.03383,-12.7009
2023-03-15 12:54:02:317,-1.0683,1.72359,-9.66153,-9.61307,-7.03196,-12.7021
2023-03-15 12:54:02:327,-1.08119,1.70365,-9.62697,-9.56828,-7.03113,-12.6983
2023-03-15 12:54:02:337,-1.09799,1.68979,-9.59305,-9.5203,-7.03326,-12.6961
2023-03-15 12:54:02:347,-1.11191,1.67818,-9.53863,-9.46963,-7.0348,-12.6917
2023-03-15 12:54:02:357,-1.11955,1.65141,-9.51789,-9.42463,-7.03574,-12.6837
2023-03-15 12:54:02:367,-1.1248,1.64661,-9.52535,-9.38179,-7.03701,-12.6729
2023-03-15 12:54:02:377,-1.15191,1.65408,-9.56366,-9.33921,-7.03975,-12.665
2023-03-15 12:54:02:387,-1.18787,1.65961,-9.59285,-9.29898,-7.04064,-12.6549
2023-03-15 12:54:02:397,-1.21646,1.63187,-9.62147,-9.25253,-7.04157,-12.6449
2023-03-15 12:54:02:407,-1.21131,1.60358,-9.58941,-9.20213,-7.03771,-12.6337
2023-03-15 12:54:02:417,-1.17056,1.59768,-9.59962,-9.15997,-7.03468,-12.6203
2023-03-15 12:54:02:427,-1.18082,1.62899,-9.64365,-9.11148,-7.03251,-12.6089
2023-03-15 12:54:02:437,-1.22812,1.61564,-9.65737,-9.05463,-7.03136,-12.6
2023-03-15 12:54:02:447,-1.2326,1.58587,-9.54649,-8.99962,-7.02789,-12.5946
2023-03-15 12:54:02:457,-1.19107,1.49964,-9.44098,-8.94802,-7.01984,-12.5872
2023-03-15 12:54:02:467,-1.15177,1.47504,-9.4007,-8.90459,-7.00848,-12.5826
2023-03-15 12:54:02:477,-1.14329,1.4929,-9.42433,-8.87552,-7.00017,-12.5759
2023-03-15 12:54:02:487,-1.13663,1.49644,-9.44483,-8.85576,-6.99785,-12.5733
2023-03-15 12:54:02:497,-1.14303,1.49655,-9.4399,-8.84323,-6.99424,-12.569
2023-03-15 12:54:02:507,-1.09958,1.50361,-9.45321,-8.83941,-6.99335,-12.5664
2023-03-15 12:54:02:517,-1.08126,1.50365,-9.49918,-8.83842,-6.99441,-12.5594
2023-03-15 12:54:02:527,-1.09376,1.55171,-9.63847,-8.84087,-7.00128,-12.5566
2023-03-15 12:54:02:537,-1.067,1.62343,-9.79963,-8.83582,-7.01095,-12.5553
2023-03-15 12:54:02:547,-1.04633,1.63398,-9.85727,-8.81625,-7.02576,-12.5556
2023-03-15 12:54:02:557,-1.04763,1.62534,-9.82289,-8.7816,-7.03843,-12.5482
2023-03-15 12:54:02:567,-1.05371,1.58412,-9.71006,-8.73195,-7.05457,-12.5391
2023-03-15 12:54:02:577,-1.05169,1.48851,-9.60369,-8.6718,-7.06557,-12.5255
2023-03-15 12:54:02:587,-1.05776,1.3992,-9.5097,-8.60652,-7.0787,-12.5062
2023-03-15 12:54:02:597,-1.01711,1.32828,-9.46707,-8.54866,-7.08871,-12.4826
2023-03-15 12:54:02:607,-0.969935,1.2385,-9.43725,-8.49627,-7.10229,-12.4519
2023-03-15 12:54:02:617,-0.951407,1.19403,-9.39421,-8.45626,-7.11779,-12.4111
2023-03-15 12:54:02:627,-1.00038,1.1771,-9.3196,-8.42964,-7.1397,-12.3634
2023-03-15 12:54:02:637,-1.10193,1.15484,-9.25911,-8.41968,-7.1731,-12.3086
2023-03-15 12:54:02:647,-1.20004,1.14408,-9.2659,-8.42943,-7.20594,-12.2554
2023-03-15 12:54:02:657,-1.25603,1.18875,-9.39474,-8.45974,-7.23595,-12.2
2023-03-15 12:54:02:667,-1.27702,1.32629,-9.59558,-8.49538,-7.26561,-12.1508
2023-03-15 12:54:02:677,-1.29714,1.41348,-9.72232,-8.52121,-7.29565,-12.1063
2023-03-15 12:54:02:687,-1.33629,1.41359,-9.68524,-8.53267,-7.31881,-12.0632
2023-03-15 12:54:02:697,-1.31662,1.36183,-9.54852,-8.53365,-7.33162,-12.0211
2023-03-15 12:54:02:707,-1.2705,1.31957,-9.45878,-8.5332,-7.34227,-11.976
2023-03-15 12:54:02:717,-1.25517,1.32705,-9.46743,-8.54247,-7.35192,-11.9327
2023-03-15 12:54:02:727,-1.26112,1.36987,-9.49703,-8.555,-7.36071,-11.8907
2023-03-15 12:54:02:737,-1.25868,1.38073,-9.47188,-8.56799,-7.36757,-11.8484
2023-03-15 12:54:02:747,-1.24031,1.37706,-9.43885,-8.59189,-7.37321,-11.806
2023-03-15 12:54:02:757,-1.21818,1.41772,-9.48928,-8.61969,-7.38282,-11.7623
2023-03-15 12:54:02:767,-1.21886,1.482,-9.62659,-8.65554,-7.39171,-11.7159
2023-03-15 12:54:02:777,-1.25709,1.54886,-9.72765,-8.68493,-7.40081,-11.6672
2023-03-15 12:54:02:787,-1.30112,1.57293,-9.75538,-8.70562,-7.4135,-11.617
2023-03-15 12:54:02:797,-1.33513,1.56366,-9.72877,-8.71503,-7.42761,-11.5682
2023-03-15 12:54:02:807,-1.36177,1.54202,-9.68529,-8.71881,-7.44474,-11.5187
2023-03-15 12:54:02:817,-1.39379,1.54224,-9.6529,-8.7228,-7.46436,-11.4739
2023-03-15 12:54:02:827,-1.41902,1.5359,-9.61117,-8.72718,-7.48255,-11.4301
2023-03-15 12:54:02:837,-1.44385,1.51279,-9.55115,-8.73204,-7.4999,-11.3913
2023-03-15 12:54:02:847,-1.47576,1.50635,-9.5102,-8.73896,-7.51657,-11.3584
2023-03-15 12:54:02:857,-1.51422,1.50826,-9.50006,-8.7517,-7.52954,-11.3301
2023-03-15 12:54:02:867,-1.53227,1.50985,-9.46961,-8.76616,-7.54025,-11.3117
2023-03-15 12:54:02:877,-1.51021,1.49521,-9.45759,-8.78179,-7.54918,-11.2954
2023-03-15 12:54:02:887,-1.45716,1.50462,-9.49699,-8.8001,-7.5528,-11.2833
2023-03-15 12:54:02:897,-1.4123,1.51967,-9.53389,-8.82219,-7.5586,-11.2742
2023-03-15 12:54:02:907,-1.38836,1.54101,-9.57434,-8.83985,-7.56039,-11.2705
2023-03-15 12:54:02:917,-1.37064,1.55912,-9.56601,-8.85981,-7.55712,-11.2686
2023-03-15 12:54:02:927,-1.34784,1.55516,-9.54099,-8.87434,-7.55392,-11.2689
2023-03-15 12:54:02:937,-1.32356,1.56191,-9.56026,-8.8876,-7.5483,-11.2645
2023-03-15 12:54:02:947,-1.32264,1.54244,-9.53859,-8.8982,-7.53622,-11.2633
2023-03-15 12:54:02:957,-1.29605,1.53806,-9.53585,-8.9147,-7.52024,-11.2583
2023-03-15 12:54:02:967,-1.23455,1.53887,-9.54899,-8.92925,-7.50414,-11.2553
2023-03-15 12:54:02:977,-1.21067,1.52121,-9.55402,-8.94467,-7.48359,-11.2461
2023-03-15 12:54:02:987,-1.21761,1.52699,-9.5418,-8.96084,-7.46418,-11.2384
2023-03-15 12:54:02:997,-1.2354,1.5273,-9.52165,-8.9826,-7.44025,-11.2292
2023-03-15 12:54:03:7,-1.23769,1.5354,-9.53117,-9.00829,-7.41946,-11.219
2023-03-15 12:54:03:17,-1.23524,1.56438,-9.57743,-9.03696,-7.40354,-11.2126
2023-03-15 12:54:03:27,-1.24177,1.60364,-9.61188,-9.0639,-7.39099,-11.203
2023-03-15 12:54:03:37,-1.24676,1.62356,-9.60634,-9.08428,-7.37856,-11.198
2023-03-15 12:54:03:47,-1.23115,1.63098,-9.62155,-9.10367,-7.35796,-11.189
2023-03-15 12:54:03:57,-1.22375,1.65194,-9.66913,-9.12127,-7.34612,-11.1854
2023-03-15 12:54:03:67,-1.20645,1.68172,-9.69819,-9.1317,-7.33336,-11.1787
2023-03-15 12:54:03:77,-1.18823,1.60107,-9.59458,-9.13183,-7.32062,-11.1734
2023-03-15 12:54:03:87,-1.18518,1.52293,-9.49837,-9.13184,-7.30733,-11.1599
2023-03-15 12:54:03:97,-1.19899,1.52021,-9.48653,-9.13912,-7.30005,-11.1485
2023-03-15 12:54:03:107,-1.21286,1.5454,-9.52506,-9.14756,-7.29299,-11.138
2023-03-15 12:54:03:117,-1.24161,1.53131,-9.52088,-9.15466,-7.28368,-11.1271
2023-03-15 12:54:03:127,-1.22209,1.49759,-9.5076,-9.16264,-7.26983,-11.117
2023-03-15 12:54:03:137,-1.19663,1.49175,-9.5179,-9.17229,-7.25739,-11.1043
2023-03-15 12:54:03:147,-1.22426,1.49751,-9.51796,-9.18299,-7.24277,-11.0904
2023-03-15 12:54:03:157,-1.24766,1.48589,-9.49567,-9.19767,-7.22996,-11.0782
2023-03-15 12:54:03:167,-1.23953,1.49687,-9.4963,-9.21756,-7.21848,-11.07
2023-03-15 12:54:03:177,-1.21875,1.51109,-9.51314,-9.24139,-7.20272,-11.0627
2023-03-15 12:54:03:187,-1.19245,1.54377,-9.52867,-9.26807,-7.191,-11.055
2023-03-15 12:54:03:197,-1.20992,1.56029,-9.53847,-9.29442,-7.17791,-11.0505
2023-03-15 12:54:03:207,-1.20544,1.57607,-9.52927,-9.3193,-7.16568,-11.0537
2023-03-15 12:54:03:217,-1.19559,1.58903,-9.524,-9.35135,-7.15566,-11.0552
2023-03-15 12:54:03:227,-1.18611,1.59128,-9.52354,-9.38067,-7.14803,-11.0558
2023-03-15 12:54:03:237,-1.1709,1.58839,-9.53489,-9.42034,-7.14118,-11.0541
2023-03-15 12:54:03:247,-1.13888,1.61333,-9.53559,-9.45732,-7.12834,-11.0579
2023-03-15 12:54:03:257,-1.10593,1.63793,-9.55091,-9.49502,-7.12062,-11.0602
2023-03-15 12:54:03:267,-1.08559,1.64487,-9.55627,-9.53129,-7.11438,-11.0607
2023-03-15 12:54:03:277,-1.07975,1.65605,-9.5628,-9.57261,-7.10698,-11.0616
2023-03-15 12:54:03:287,-1.09758,1.67768,-9.56377,-9.612,-7.10322,-11.0611
2023-03-15 12:54:03:297,-1.10257,1.67654,-9.56436,-9.64898,-7.10124,-11.0575
2023-03-15 12:54:03:307,-1.09429,1.68841,-9.55412,-9.68908,-7.09602,-11.0537
2023-03-15 12:54:03:317,-1.08173,1.69634,-9.53417,-9.72855,-7.09159,-11.051
2023-03-15 12:54:03:327,-1.06565,1.71176,-9.53247,-9.77247,-7.08495,-11.048
2023-03-15 12:54:03:337,-1.03716,1.73855,-9.56285,-9.81975,-7.07954,-11.0413
2023-03-15 12:54:03:347,-1.03287,1.77835,-9.59084,-9.86967,-7.07195,-11.0338
2023-03-15 12:54:03:357,-1.012,1.80402,-9.63079,-9.91426,-7.06497,-11.0304
2023-03-15 12:54:03:367,-0.949779,1.83563,-9.68321,-9.9586,-7.05741,-11.0248
2023-03-15 12:54:03:377,-0.915546,1.86778,-9.72626,-9.99211,-7.04926,-11.0126
2023-03-15 12:54:03:387,-0.954018,1.87112,-9.74908,-10.0181,-7.0477,-10.9979
2023-03-15 12:54:03:397,-0.974387,1.86518,-9.77878,-10.0325,-7.04752,-10.9826
2023-03-15 12:54:03:407,-0.992391,1.85825,-9.77224,-10.0332,-7.0527,-10.9675
2023-03-15 12:54:03:417,-1.00267,1.80546,-9.7045,-10.0199,-7.0649,-10.9493
2023-03-15 12:54:03:427,-1.00488,1.75487,-9.62186,-10.0005,-7.08556,-10.9269
2023-03-15 12:54:03:437,-1.03069,1.72454,-9.60277,-9.9742,-7.11491,-10.8992
2023-03-15 12:54:03:447,-1.09011,1.68702,-9.58898,-9.94199,-7.14901,-10.8704
2023-03-15 12:54:03:457,-1.15552,1.65196,-9.58893,-9.90651,-7.18657,-10.8394
2023-03-15 12:54:03:467,-1.19362,1.64196,-9.59473,-9.86591,-7.2312,-10.8061
2023-03-15 12:54:03:477,-1.19451,1.59629,-9.6005,-9.81667,-7.27878,-10.7728
2023-03-15 12:54:03:487,-1.16858,1.53879,-9.65712,-9.75908,-7.32782,-10.7292
2023-03-15 12:54:03:497,-1.1684,1.48619,-9.63178,-9.69427,-7.38853,-10.6751
2023-03-15 12:54:03:507,-1.3163,1.40946,-9.50093,-9.62416,-7.4576,-10.6109
2023-03-15 12:54:03:517,-1.51991,1.35395,-9.33694,-9.55543,-7.53122,-10.5446
2023-03-15 12:54:03:527,-1.66927,1.34683,-9.23358,-9.50572,-7.60326,-10.479
2023-03-15 12:54:03:537,-1.73352,1.36044,-9.24256,-9.471,-7.67051,-10.4226
2023-03-15 12:54:03:547,-1.76738,1.41416,-9.26155,-9.45671,-7.72868,-10.3692
2023-03-15 12:54:03:557,-1.81691,1.47012,-9.27868,-9.46187,-7.77469,-10.3255
2023-03-15 12:54:03:567,-1.91429,1.50254,-9.24918,-9.47848,-7.81371,-10.2919
2023-03-15 12:54:03:577,-1.97508,1.56653,-9.22233,-9.5122,-7.83553,-10.2712
2023-03-15 12:54:03:587,-1.95022,1.63961,-9.30087,-9.56277,-7.8412,-10.2731
2023-03-15 12:54:03:597,-1.83435,1.72017,-9.42234,-9.6208,-7.82682,-10.2899
2023-03-15 12:54:03:607,-1.66048,1.78488,-9.54386,-9.67752,-7.80329,-10.3182
2023-03-15 12:54:03:617,-1.48811,1.81117,-9.60762,-9.73296,-7.77362,-10.3545
2023-03-15 12:54:03:627,-1.36835,1.81364,-9.62577,-9.78078,-7.74566,-10.3931
2023-03-15 12:54:03:637,-1.34583,1.83899,-9.59399,-9.83002,-7.72251,-10.4338
2023-03-15 12:54:03:647,-1.33645,1.87898,-9.57562,-9.87215,-7.70244,-10.4821
2023-03-15 12:54:03:657,-1.29642,1.90788,-9.574,-9.91942,-7.68617,-10.5349
2023-03-15 12:54:03:667,-1.24426,1.93207,-9.56996,-9.96556,-7.67027,-10.5938
2023-03-15 12:54:03:677,-1.20987,1.94615,-9.57396,-10.0106,-7.65855,-10.6489
2023-03-15 12:54:03:687,-1.16798,1.97085,-9.58661,-10.0546,-7.65107,-10.7065
2023-03-15 12:54:03:697,-1.10958,1.99912,-9.60432,-10.0931,-7.6438,-10.7637
2023-03-15 12:54:03:707,-1.08266,2.00386,-9.61534,-10.1271,-7.64092,-10.8164
2023-03-15 12:54:03:717,-1.08902,1.99053,-9.61691,-10.1523,-7.6372,-10.8631
2023-03-15 12:54:03:727,-1.06948,1.96721,-9.63794,-10.1725,-7.63694,-10.9004
2023-03-15 12:54:03:737,-1.06532,1.94542,-9.63567,-10.1858,-7.63786,-10.9338
2023-03-15 12:54:03:747,-1.05447,1.91072,-9.63456,-10.1919,-7.6387,-10.9583
2023-03-15 12:54:03:757,-1.04294,1.86986,-9.63172,-10.1886,-7.63607,-10.9721
2023-03-15 12:54:03:767,-1.04019,1.82301,-9.61552,-10.1808,-7.63427,-10.9736
2023-03-15 12:54:03:777,-1.05318,1.77603,-9.60525,-10.1697,-7.63212,-10.9678
2023-03-15 12:54:03:787,-1.09551,1.72147,-9.56664,-10.1525,-7.63397,-10.9508
2023-03-15 12:54:03:797,-1.13474,1.65025,-9.51587,-10.1348,-7.63397,-10.9223
2023-03-15 12:54:03:807,-1.17778,1.61957,-9.48979,-10.121,-7.6302,-10.885
2023-03-15 12:54:03:817,-1.19922,1.60332,-9.44445,-10.1115,-7.6199,-10.8453
2023-03-15 12:54:03:827,-1.22629,1.58142,-9.40234,-10.1093,-7.61222,-10.7972
2023-03-15 12:54:03:837,-1.29842,1.58873,-9.40625,-10.1151,-7.602,-10.7464
2023-03-15 12:54:03:847,-1.37087,1.61895,-9.43381,-10.1222,-7.58888,-10.6983
2023-03-15 12:54:03:857,-1.41246,1.64111,-9.45945,-10.1329,-7.5711,-10.6569
2023-03-15 12:54:03:867,-1.39374,1.6765,-9.47565,-10.1464,-7.54272,-10.6184
2023-03-15 12:54:03:877,-1.3492,1.67134,-9.47131,-10.1585,-7.51211,-10.5841
2023-03-15 12:54:03:887,-1.35069,1.66172,-9.43042,-10.1706,-7.47911,-10.5548
2023-03-15 12:54:03:897,-1.36873,1.6654,-9.42027,-10.1897,-7.4484,-10.5321
2023-03-15 12:54:03:907,-1.35929,1.69197,-9.42569,-10.2121,-7.41504,-10.5191
2023-03-15 12:54:03:917,-1.3493,1.72919,-9.45488,-10.2401,-7.37802,-10.5089
2023-03-15 12:54:03:927,-1.32634,1.78723,-9.49923,-10.272,-7.34123,-10.5111
2023-03-15 12:54:03:937,-1.29128,1.82062,-9.54773,-10.3048,-7.30273,-10.5235
2023-03-15 12:54:03:947,-1.25348,1.85998,-9.57071,-10.3326,-7.26742,-10.5427
2023-03-15 12:54:03:957,-1.21388,1.88495,-9.60972,-10.3591,-7.23145,-10.5687
2023-03-15 12:54:03:967,-1.17165,1.89255,-9.61401,-10.3805,-7.1974,-10.5986
2023-03-15 12:54:03:977,-1.13908,1.88216,-9.60132,-10.4005,-7.16053,-10.6327
2023-03-15 12:54:03:987,-1.10685,1.88515,-9.58041,-10.4173,-7.12771,-10.6671
2023-03-15 12:54:03:997,-1.08425,1.8867,-9.56694,-10.4336,-7.10137,-10.7018
2023-03-15 12:54:04:7,-1.06632,1.87243,-9.547,-10.4479,-7.07337,-10.7392
2023-03-15 12:54:04:17,-1.04144,1.87981,-9.55867,-10.4651,-7.05055,-10.774
2023-03-15 12:54:04:27,-1.01233,1.89239,-9.57071,-10.4814,-7.03261,-10.8089
2023-03-15 12:54:04:37,-1.02492,1.88661,-9.58127,-10.4989,-7.01744,-10.8431
2023-03-15 12:54:04:47,-1.03928,1.8847,-9.57859,-10.5192,-7.00674,-10.8791
2023-03-15 12:54:04:57,-1.02406,1.8961,-9.5986,-10.5383,-6.99712,-10.9125
2023-03-15 12:54:04:67,-1.00326,1.91528,-9.59754,-10.5564,-6.99077,-10.9385
2023-03-15 12:54:04:77,-1.01739,1.91715,-9.59294,-10.5684,-6.98978,-10.9612
2023-03-15 12:54:04:87,-1.05712,1.90779,-9.57796,-10.5782,-6.98976,-10.9783
2023-03-15 12:54:04:97,-1.09224,1.89966,-9.55978,-10.5886,-6.99286,-10.9938
2023-03-15 12:54:04:107,-1.10323,1.89283,-9.55118,-10.5968,-6.99442,-11.0037
2023-03-15 12:54:04:117,-1.11382,1.88576,-9.53124,-10.6017,-6.99607,-11.0121
2023-03-15 12:54:04:127,-1.11869,1.87096,-9.50644,-10.6063,-6.99558,-11.0201
2023-03-15 12:54:04:137,-1.12303,1.86912,-9.49608,-10.6102,-6.99784,-11.0277
2023-03-15 12:54:04:147,-1.13044,1.87263,-9.51721,-10.618,-7.00123,-11.0342
2023-03-15 12:54:04:157,-1.14462,1.86994,-9.50138,-10.6203,-7.00131,-11.0344
2023-03-15 12:54:04:167,-1.1553,1.8327,-9.46489,-10.6212,-7.00199,-11.0346
2023-03-15 12:54:04:177,-1.17406,1.79856,-9.44204,-10.6273,-7.00725,-11.0274
2023-03-15 12:54:04:187,-1.19598,1.78756,-9.41259,-10.6371,-7.01209,-11.0184
2023-03-15 12:54:04:197,-1.21127,1.76714,-9.38782,-10.6553,-7.01214,-11.0078
2023-03-15 12:54:04:207,-1.21866,1.75465,-9.37502,-10.679,-7.01171,-10.9946
2023-03-15 12:54:04:217,-1.18698,1.74395,-9.32953,-10.7136,-7.00777,-10.9774
2023-03-15 12:54:04:227,-1.19199,1.73522,-9.28699,-10.7577,-7.00109,-10.9592
2023-03-15 12:54:04:237,-1.22115,1.72557,-9.27796,-10.8115,-6.99823,-10.9421
2023-03-15 12:54:04:247,-1.25343,1.77792,-9.36943,-10.8817,-6.99474,-10.9196
2023-03-15 12:54:04:257,-1.28006,1.83087,-9.45746,-10.962,-6.99495,-10.898
2023-03-15 12:54:04:267,-1.29765,1.842,-9.48948,-11.0387,-6.99464,-10.876
2023-03-15 12:54:04:277,-1.32033,1.86296,-9.48309,-11.1162,-6.99355,-10.8611
2023-03-15 12:54:04:287,-1.31478,1.86346,-9.47098,-11.1929,-6.99054,-10.8459
2023-03-15 12:54:04:297,-1.33994,1.86845,-9.48681,-11.2707,-6.98605,-10.8349
2023-03-15 12:54:04:307,-1.38385,1.89046,-9.48987,-11.3504,-6.97542,-10.8268
2023-03-15 12:54:04:317,-1.38389,1.90898,-9.46935,-11.4322,-6.96197,-10.8286
2023-03-15 12:54:04:327,-1.35964,1.89436,-9.45339,-11.5131,-6.9431,-10.8291
2023-03-15 12:54:04:337,-1.34453,1.93001,-9.45745,-11.6033,-6.92326,-10.834
2023-03-15 12:54:04:347,-1.36521,1.98515,-9.46782,-11.6922,-6.90116,-10.8468
2023-03-15 12:54:04:357,-1.40038,2.01047,-9.44843,-11.7781,-6.87944,-10.8683
2023-03-15 12:54:04:367,-1.38626,2.07759,-9.53875,-11.8602,-6.86332,-10.8987
2023-03-15 12:54:04:377,-1.3577,2.24622,-9.73394,-11.9342,-6.8475,-10.9431
2023-03-15 12:54:04:387,-1.37922,2.46896,-9.94623,-11.9912,-6.82761,-11.0057
2023-03-15 12:54:04:397,-1.38909,2.63767,-10.0964,-12.0165,-6.80857,-11.0812
2023-03-15 12:54:04:407,-1.36436,2.70056,-10.1032,-12.0055,-6.78922,-11.1738
2023-03-15 12:54:04:417,-1.27755,2.66501,-10.0298,-11.9596,-6.76055,-11.2746
2023-03-15 12:54:04:427,-1.16733,2.58689,-9.94871,-11.8885,-6.72866,-11.3778
2023-03-15 12:54:04:437,-1.0678,2.53389,-9.94454,-11.7986,-6.69414,-11.4802
2023-03-15 12:54:04:447,-0.989638,2.483,-9.96668,-11.6875,-6.65945,-11.573
2023-03-15 12:54:04:457,-0.964555,2.40259,-9.92653,-11.5536,-6.63283,-11.6619
2023-03-15 12:54:04:467,-0.945628,2.29328,-9.81873,-11.4033,-6.6067,-11.7475
2023-03-15 12:54:04:477,-0.910715,2.15637,-9.71493,-11.2451,-6.58726,-11.8253
2023-03-15 12:54:04:487,-0.883984,2.02214,-9.61675,-11.079,-6.57054,-11.8911
2023-03-15 12:54:04:497,-0.875455,1.88683,-9.52243,-10.9072,-6.55414,-11.953
2023-03-15 12:54:04:507,-0.861774,1.73918,-9.40562,-10.7384,-6.53494,-12.0012
2023-03-15 12:54:04:517,-0.86828,1.59929,-9.31557,-10.5785,-6.51694,-12.041
2023-03-15 12:54:04:527,-0.879972,1.4707,-9.25335,-10.4328,-6.49933,-12.0699
2023-03-15 12:54:04:537,-0.877693,1.37731,-9.23027,-10.2978,-6.48117,-12.0888
2023-03-15 12:54:04:547,-0.842584,1.31173,-9.192,-10.1779,-6.46161,-12.1028
2023-03-15 12:54:04:557,-0.795339,1.23274,-9.16694,-10.0784,-6.44765,-12.1031
2023-03-15 12:54:04:567,-0.787279,1.18823,-9.15828,-10.003,-6.44003,-12.0897
2023-03-15 12:54:04:577,-0.835117,1.17299,-9.13611,-9.94797,-6.4381,-12.0665
2023-03-15 12:54:04:587,-0.90947,1.16527,-9.10413,-9.91315,-6.43731,-12.0372
2023-03-15 12:54:04:597,-0.981184,1.1789,-9.10029,-9.9032,-6.43376,-12.0021
2023-03-15 12:54:04:607,-1.01537,1.23709,-9.14007,-9.91652,-6.42584,-11.9639
2023-03-15 12:54:04:617,-1.02938,1.3228,-9.22175,-9.94563,-6.41096,-11.9284
2023-03-15 12:54:04:627,-1.03637,1.43303,-9.33625,-9.99276,-6.40079,-11.8918
2023-03-15 12:54:04:637,-1.03486,1.5701,-9.47313,-10.0475,-6.38784,-11.8583
2023-03-15 12:54:04:647,-1.08568,1.69798,-9.56146,-10.1027,-6.37614,-11.8265
2023-03-15 12:54:04:657,-1.1322,1.78101,-9.58363,-10.1521,-6.35653,-11.7996
2023-03-15 12:54:04:667,-1.14303,1.84797,-9.62167,-10.1983,-6.33366,-11.7787
2023-03-15 12:54:04:677,-1.13167,1.9047,-9.65746,-10.2367,-6.30865,-11.7632
2023-03-15 12:54:04:687,-1.0938,1.92349,-9.68757,-10.2672,-6.28537,-11.7525
2023-03-15 12:54:04:697,-1.06833,1.91904,-9.6827,-10.286,-6.2643,-11.7432
2023-03-15 12:54:04:707,-1.06319,1.9054,-9.66426,-10.3009,-6.24777,-11.7365
2023-03-15 12:54:04:717,-1.06628,1.87667,-9.63763,-10.3117,-6.22935,-11.7308
2023-03-15 12:54:04:727,-1.10053,1.85627,-9.60877,-10.3145,-6.21907,-11.7292
2023-03-15 12:54:04:737,-1.12218,1.8348,-9.57402,-10.3221,-6.21183,-11.7285
2023-03-15 12:54:04:747,-1.12711,1.81589,-9.55108,-10.3312,-6.20136,-11.7319
2023-03-15 12:54:04:757,-1.10037,1.80603,-9.5543,-10.3394,-6.19306,-11.7384
2023-03-15 12:54:04:767,-1.06615,1.7864,-9.55366,-10.3462,-6.18595,-11.7497
2023-03-15 12:54:04:777,-1.05749,1.74525,-9.5159,-10.3529,-6.18352,-11.7557
2023-03-15 12:54:04:787,-1.07318,1.72912,-9.48587,-10.3613,-6.18067,-11.7614
2023-03-15 12:54:04:797,-1.10283,1.71574,-9.47267,-10.376,-6.17809,-11.7653
2023-03-15 12:54:04:807,-1.1397,1.71892,-9.4736,-10.3953,-6.17834,-11.7723
2023-03-15 12:54:04:817,-1.13748,1.72713,-9.47123,-10.4179,-6.17487,-11.7822
2023-03-15 12:54:04:827,-1.10429,1.73637,-9.51123,-10.4466,-6.17246,-11.7916
2023-03-15 12:54:04:837,-1.10411,1.7563,-9.52431,-10.4801,-6.17021,-11.8034
2023-03-15 12:54:04:847,-1.12071,1.80103,-9.54522,-10.5154,-6.16891,-11.8187
2023-03-15 12:54:04:857,-1.12218,1.82524,-9.57194,-10.5516,-6.17336,-11.8395
2023-03-15 12:54:04:867,-1.12646,1.84878,-9.56522,-10.5797,-6.17238,-11.8619
2023-03-15 12:54:04:877,-1.12081,1.86358,-9.53906,-10.6101,-6.16598,-11.885
2023-03-15 12:54:04:887,-1.11089,1.87474,-9.52591,-10.6411,-6.15586,-11.9138
2023-03-15 12:54:04:897,-1.10045,1.88046,-9.54472,-10.6725,-6.14425,-11.9443
2023-03-15 12:54:04:907,-1.06371,1.88545,-9.57564,-10.7058,-6.13163,-11.9753
2023-03-15 12:54:04:917,-1.02381,1.88781,-9.58369,-10.731,-6.11555,-12.0075
2023-03-15 12:54:04:927,-0.98862,1.89738,-9.60221,-10.7556,-6.10169,-12.04
2023-03-15 12:54:04:937,-0.970849,1.88198,-9.60443,-10.7749,-6.08919,-12.0682
2023-03-15 12:54:04:947,-0.959849,1.86615,-9.5983,-10.7909,-6.08228,-12.0957
2023-03-15 12:54:04:957,-0.957902,1.85682,-9.60298,-10.8089,-6.0709,-12.1196
2023-03-15 12:54:04:967,-0.924724,1.86639,-9.61116,-10.82,-6.05986,-12.1438
2023-03-15 12:54:04:977,-0.898304,1.86797,-9.61599,-10.8258,-6.05064,-12.1619
2023-03-15 12:54:04:987,-0.906919,1.85264,-9.59699,-10.8307,-6.04184,-12.1748
2023-03-15 12:54:04:997,-0.938613,1.84416,-9.56148,-10.8382,-6.03215,-12.1829
2023-03-15 12:54:05:7,-0.94332,1.84299,-9.54641,-10.8416,-6.02588,-12.1868
2023-03-15 12:54:05:17,-0.945894,1.83317,-9.52143,-10.8468,-6.01919,-12.1914
2023-03-15 12:54:05:27,-0.966041,1.82691,-9.51095,-10.8596,-6.01541,-12.1901
2023-03-15 12:54:05:37,-0.989616,1.84657,-9.50627,-10.8689,-6.01068,-12.1872
2023-03-15 12:54:05:47,-1.00167,1.86149,-9.53592,-10.8839,-6.00141,-12.1809
2023-03-15 12:54:05:57,-1.00316,1.86384,-9.56286,-10.8935,-5.99052,-12.1771
2023-03-15 12:54:05:67,-1.01485,1.87729,-9.56581,-10.9021,-5.97755,-12.1669
2023-03-15 12:54:05:77,-1.04059,1.87905,-9.54282,-10.9046,-5.95944,-12.1574
2023-03-15 12:54:05:87,-1.04566,1.86157,-9.51339,-10.9026,-5.93906,-12.1488
2023-03-15 12:54:05:97,-1.01324,1.84078,-9.50786,-10.8998,-5.91516,-12.1448
2023-03-15 12:54:05:107,-0.970017,1.82356,-9.50717,-10.9005,-5.89219,-12.1403
2023-03-15 12:54:05:117,-0.971029,1.82771,-9.49898,-10.8997,-5.86974,-12.1332
2023-03-15 12:54:05:127,-0.980084,1.84396,-9.51309,-10.9034,-5.85049,-12.1311
2023-03-15 12:54:05:137,-0.98463,1.85655,-9.55295,-10.9136,-5.8385,-12.1312
2023-03-15 12:54:05:147,-0.992885,1.87778,-9.59639,-10.919,-5.82525,-12.1351
2023-03-15 12:54:05:157,-1.00294,1.88439,-9.60215,-10.9241,-5.8124,-12.1444
2023-03-15 12:54:05:167,-1.00678,1.88707,-9.57511,-10.9235,-5.80447,-12.1609
2023-03-15 12:54:05:177,-1.01748,1.88425,-9.546,-10.9273,-5.79759,-12.1805
2023-03-15 12:54:05:187,-0.999169,1.85965,-9.51508,-10.9275,-5.79395,-12.2041
2023-03-15 12:54:05:197,-0.968709,1.84707,-9.51695,-10.9295,-5.78992,-12.2283
2023-03-15 12:54:05:207,-0.962322,1.86654,-9.52917,-10.9343,-5.7906,-12.255
2023-03-15 12:54:05:217,-0.99981,1.86773,-9.52879,-10.9404,-5.79251,-12.2822
2023-03-15 12:54:05:227,-1.00897,1.86282,-9.49945,-10.948,-5.79184,-12.3116
2023-03-15 12:54:05:237,-0.997589,1.87336,-9.4847,-10.9542,-5.792,-12.341
2023-03-15 12:54:05:247,-0.954588,1.87875,-9.49484,-10.9653,-5.78558,-12.3726
2023-03-15 12:54:05:257,-0.905887,1.88018,-9.52027,-10.9768,-5.77582,-12.3966
2023-03-15 12:54:05:267,-0.862124,1.88738,-9.54576,-10.989,-5.76284,-12.4229
2023-03-15 12:54:05:277,-0.844912,1.90439,-9.56445,-11.0034,-5.74889,-12.4425
2023-03-15 12:54:05:287,-0.833952,1.91991,-9.59126,-11.0173,-5.73462,-12.4557
2023-03-15 12:54:05:297,-0.832986,1.92659,-9.59649,-11.0246,-5.72296,-12.4668
2023-03-15 12:54:05:307,-0.827244,1.93123,-9.57816,-11.0284,-5.71448,-12.4776
2023-03-15 12:54:05:317,-0.826548,1.93073,-9.57102,-11.0354,-5.70706,-12.4825
2023-03-15 12:54:05:327,-0.835313,1.92824,-9.5615,-11.0391,-5.70009,-12.4847
2023-03-15 12:54:05:337,-0.863247,1.92585,-9.5569,-11.0421,-5.69872,-12.4822
2023-03-15 12:54:05:347,-0.898732,1.91284,-9.53722,-11.0442,-5.69655,-12.4816
2023-03-15 12:54:05:357,-0.920654,1.90932,-9.53504,-11.0465,-5.69567,-12.4752
2023-03-15 12:54:05:367,-0.925715,1.90036,-9.52082,-11.0478,-5.69705,-12.4671
2023-03-15 12:54:05:377,-0.953596,1.88708,-9.50544,-11.0501,-5.69892,-12.4573
2023-03-15 12:54:05:387,-0.976568,1.87524,-9.51212,-11.0512,-5.70113,-12.4459
2023-03-15 12:54:05:397,-0.979902,1.87649,-9.51591,-11.0511,-5.70174,-12.4399
2023-03-15 12:54:05:407,-0.970659,1.88617,-9.51954,-11.0536,-5.70287,-12.4297
2023-03-15 12:54:05:417,-0.972502,1.88988,-9.52611,-11.0589,-5.70052,-12.4207
2023-03-15 12:54:05:427,-1.01956,1.88897,-9.50607,-11.0632,-5.70256,-12.413
2023-03-15 12:54:05:437,-1.05985,1.89542,-9.48896,-11.0665,-5.70015,-12.4095
2023-03-15 12:54:05:447,-1.05931,1.89434,-9.50535,-11.0701,-5.69415,-12.4114
2023-03-15 12:54:05:457,-1.04681,1.90374,-9.51307,-11.0789,-5.68601,-12.4159
2023-03-15 12:54:05:467,-1.00703,1.90927,-9.54679,-11.0856,-5.67984,-12.422
2023-03-15 12:54:05:477,-0.929562,1.90423,-9.58077,-11.095,-5.67743,-12.4324
2023-03-15 12:54:05:487,-0.885454,1.9063,-9.58546,-11.1009,-5.68054,-12.4365
2023-03-15 12:54:05:497,-0.90967,1.89888,-9.54856,-11.1046,-5.68545,-12.4411
2023-03-15 12:54:05:507,-0.982218,1.8849,-9.49555,-11.1104,-5.69575,-12.4417
2023-03-15 12:54:05:517,-1.03695,1.90162,-9.48679,-11.122,-5.70362,-12.4447
2023-03-15 12:54:05:527,-1.05644,1.91634,-9.50029,-11.1297,-5.70905,-12.4513
2023-03-15 12:54:05:537,-1.03663,1.93387,-9.51512,-11.1434,-5.70624,-12.4603
2023-03-15 12:54:05:547,-0.996773,1.95514,-9.53385,-11.1506,-5.70034,-12.4721
2023-03-15 12:54:05:557,-0.956784,1.97129,-9.5845,-11.1594,-5.69343,-12.4778
2023-03-15 12:54:05:567,-0.937469,1.99018,-9.59876,-11.1625,-5.68224,-12.4834
2023-03-15 12:54:05:577,-0.953872,2.00196,-9.588,-11.1606,-5.67314,-12.4904
2023-03-15 12:54:05:587,-0.970997,1.99252,-9.58445,-11.1588,-5.66322,-12.4995
2023-03-15 12:54:05:597,-0.971566,1.99051,-9.55457,-11.153,-5.65577,-12.5089
2023-03-15 12:54:05:607,-0.96833,1.9669,-9.53947,-11.1475,-5.6456,-12.5211
2023-03-15 12:54:05:617,-0.947544,1.9481,-9.51501,-11.1393,-5.63719,-12.5332
2023-03-15 12:54:05:627,-0.929387,1.9305,-9.51137,-11.1323,-5.62972,-12.5473
2023-03-15 12:54:05:637,-0.923985,1.92439,-9.51367,-11.1256,-5.62454,-12.5624
2023-03-15 12:54:05:647,-0.905085,1.91002,-9.52686,-11.1217,-5.62066,-12.5783
2023-03-15 12:54:05:657,-0.888695,1.90792,-9.54138,-11.1187,-5.61726,-12.5922
2023-03-15 12:54:05:667,-0.878222,1.90462,-9.56331,-11.1106,-5.61548,-12.6104
2023-03-15 12:54:05:677,-0.856816,1.89068,-9.5633,-11.1052,-5.61349,-12.6233
2023-03-15 12:54:05:687,-0.839043,1.87173,-9.55787,-11.0967,-5.61084,-12.6293
2023-03-15 12:54:05:697,-0.820799,1.86576,-9.54269,-11.0919,-5.61074,-12.6343
2023-03-15 12:54:05:707,-0.854663,1.85609,-9.51754,-11.0884,-5.61076,-12.6376
2023-03-15 12:54:05:717,-0.885777,1.84181,-9.51714,-11.0876,-5.61285,-12.6371
2023-03-15 12:54:05:727,-0.895096,1.84979,-9.51003,-11.0904,-5.61077,-12.6342
2023-03-15 12:54:05:737,-0.901333,1.84467,-9.49744,-11.0884,-5.60909,-12.6308
2023-03-15 12:54:05:747,-0.887707,1.84551,-9.49312,-11.0865,-5.60843,-12.6267
2023-03-15 12:54:05:757,-0.881537,1.85905,-9.49504,-11.091,-5.60435,-12.6189
2023-03-15 12:54:05:767,-0.901095,1.84983,-9.49398,-11.0983,-5.60779,-12.6119
2023-03-15 12:54:05:777,-0.940064,1.8676,-9.48498,-11.1025,-5.60776,-12.6061
2023-03-15 12:54:05:787,-0.965226,1.88454,-9.4908,-11.1132,-5.61128,-12.5994
2023-03-15 12:54:05:797,-0.962578,1.89662,-9.52555,-11.1244,-5.61391,-12.5962
2023-03-15 12:54:05:807,-0.965013,1.90676,-9.5521,-11.1347,-5.61105,-12.5998
2023-03-15 12:54:05:817,-0.963051,1.90057,-9.543,-11.1418,-5.61306,-12.6035
2023-03-15 12:54:05:827,-0.952384,1.90296,-9.545,-11.1492,-5.61851,-12.6079
2023-03-15 12:54:05:837,-0.925719,1.91166,-9.55279,-11.1554,-5.62154,-12.6146
2023-03-15 12:54:05:847,-0.898922,1.91031,-9.55241,-11.1627,-5.62399,-12.6176
2023-03-15 12:54:05:857,-0.903862,1.91189,-9.54482,-11.1678,-5.62658,-12.6237
2023-03-15 12:54:05:867,-0.909235,1.90779,-9.5458,-11.171,-5.62914,-12.6267
2023-03-15 12:54:05:877,-0.901287,1.90496,-9.55049,-11.1802,-5.63389,-12.6259
2023-03-15 12:54:05:887,-0.896651,1.91275,-9.55813,-11.1838,-5.64237,-12.6262
2023-03-15 12:54:05:897,-0.885151,1.91816,-9.56477,-11.1895,-5.64822,-12.6252
2023-03-15 12:54:05:907,-0.880587,1.90403,-9.55719,-11.1925,-5.65271,-12.6211
2023-03-15 12:54:05:917,-0.902611,1.90661,-9.54318,-11.1995,-5.65758,-12.6111
2023-03-15 12:54:05:927,-0.910334,1.90749,-9.54303,-11.2069,-5.66383,-12.6038
2023-03-15 12:54:05:937,-0.927668,1.90962,-9.54651,-11.2131,-5.67004,-12.5931
2023-03-15 12:54:05:947,-0.969017,1.92194,-9.53762,-11.215,-5.67603,-12.5825
2023-03-15 12:54:05:957,-0.973415,1.93609,-9.53163,-11.2193,-5.68372,-12.5723
2023-03-15 12:54:05:967,-0.974519,1.94096,-9.53522,-11.2244,-5.68872,-12.5604
2023-03-15 12:54:05:977,-0.98971,1.94321,-9.53312,-11.2284,-5.69064,-12.5513
2023-03-15 12:54:05:987,-1.01738,1.94094,-9.53534,-11.229,-5.69287,-12.5408
2023-03-15 12:54:05:997,-1.03201,1.93464,-9.55074,-11.2318,-5.69841,-12.5345
2023-03-15 12:54:06:7,-1.01677,1.93138,-9.5366,-11.2296,-5.70254,-12.5277
2023-03-15 12:54:06:17,-1.01303,1.91442,-9.52332,-11.229,-5.70726,-12.5239
2023-03-15 12:54:06:27,-1.00271,1.91065,-9.51286,-11.2328,-5.71266,-12.5205
2023-03-15 12:54:06:37,-1.0007,1.91502,-9.50779,-11.2321,-5.71523,-12.5217
2023-03-15 12:54:06:47,-1.00361,1.93637,-9.51444,-11.2339,-5.7198,-12.5257
2023-03-15 12:54:06:57,-0.99666,1.9477,-9.51181,-11.2392,-5.72181,-12.5308
2023-03-15 12:54:06:67,-0.969251,1.93332,-9.5483,-11.2395,-5.72589,-12.5351
2023-03-15 12:54:06:77,-0.95095,1.93426,-9.54136,-11.2426,-5.73119,-12.542
2023-03-15 12:54:06:87,-0.95366,1.93744,-9.54572,-11.244,-5.73091,-12.5444
2023-03-15 12:54:06:97,-0.969652,1.94019,-9.53024,-11.2443,-5.73391,-12.5476
2023-03-15 12:54:06:107,-0.95645,1.94271,-9.52713,-11.2438,-5.73657,-12.5447
2023-03-15 12:54:06:117,-0.958822,1.93718,-9.52636,-11.2409,-5.73696,-12.544
2023-03-15 12:54:06:127,-0.970344,1.92828,-9.51531,-11.243,-5.73383,-12.5362
2023-03-15 12:54:06:137,-0.967038,1.93515,-9.53024,-11.2402,-5.73115,-12.5346
2023-03-15 12:54:06:147,-0.954281,1.93593,-9.54433,-11.2427,-5.72198,-12.5305
2023-03-15 12:54:06:157,-0.96131,1.94854,-9.56039,-11.2414,-5.71887,-12.529
2023-03-15 12:54:06:167,-0.984406,1.95288,-9.56894,-11.24,-5.7167,-12.5262
2023-03-15 12:54:06:177,-1.00305,1.96168,-9.54858,-11.2343,-5.71652,-12.5278
2023-03-15 12:54:06:187,-1.01057,1.94624,-9.52261,-11.2276,-5.71712,-12.5283
2023-03-15 12:54:06:197,-1.01166,1.92572,-9.5126,-11.2183,-5.71519,-12.528
2023-03-15 12:54:06:207,-1.01582,1.9266,-9.53284,-11.212,-5.71416,-12.5309
2023-03-15 12:54:06:217,-1.02993,1.92434,-9.52815,-11.206,-5.7153,-12.535
2023-03-15 12:54:06:227,-1.01151,1.91573,-9.51278,-11.1984,-5.71144,-12.5419
2023-03-15 12:54:06:237,-0.999077,1.90893,-9.50167,-11.1928,-5.71158,-12.5495
2023-03-15 12:54:06:247,-1.0013,1.90363,-9.50243,-11.1871,-5.71237,-12.5554
2023-03-15 12:54:06:257,-0.991515,1.89256,-9.51514,-11.1828,-5.71028,-12.5688
2023-03-15 12:54:06:267,-0.974624,1.88951,-9.50596,-11.1834,-5.71082,-12.5783
2023-03-15 12:54:06:277,-0.962968,1.88491,-9.49997,-11.1829,-5.70869,-12.5881
2023-03-15 12:54:06:287,-0.966432,1.90369,-9.51805,-11.1824,-5.7096,-12.5979
2023-03-15 12:54:06:297,-0.955477,1.93057,-9.53712,-11.1843,-5.70953,-12.6104
2023-03-15 12:54:06:307,-0.949785,1.92643,-9.54333,-11.185,-5.70546,-12.6174
2023-03-15 12:54:06:317,-0.943066,1.91358,-9.52621,-11.188,-5.70334,-12.6253
2023-03-15 12:54:06:327,-0.948604,1.91311,-9.52477,-11.1922,-5.70403,-12.6326
2023-03-15 12:54:06:337,-0.955322,1.92161,-9.52377,-11.1927,-5.70197,-12.6396
2023-03-15 12:54:06:347,-0.929251,1.92131,-9.53273,-11.1919,-5.69904,-12.647
2023-03-15 12:54:06:357,-0.906731,1.93308,-9.55558,-11.1955,-5.6991,-12.6553
2023-03-15 12:54:06:367,-0.914059,1.92622,-9.55182,-11.1937,-5.69988,-12.6583
2023-03-15 12:54:06:377,-0.958468,1.91926,-9.5165,-11.1944,-5.69579,-12.661
2023-03-15 12:54:06:387,-0.977205,1.91088,-9.50044,-11.1913,-5.69619,-12.668
2023-03-15 12:54:06:397,-0.963232,1.89537,-9.50521,-11.19,-5.69208,-12.6765
2023-03-15 12:54:06:407,-0.922871,1.8944,-9.52998,-11.1919,-5.68591,-12.6824
2023-03-15 12:54:06:417,-0.87322,1.89129,-9.56213,-11.1963,-5.67847,-12.6936
2023-03-15 12:54:06:427,-0.824539,1.901,-9.58322,-11.1952,-5.67647,-12.7008
2023-03-15 12:54:06:437,-0.790109,1.90183,-9.58107,-11.1967,-5.6806,-12.7012
2023-03-15 12:54:06:447,-0.851928,1.89192,-9.5639,-11.1977,-5.68991,-12.6984
2023-03-15 12:54:06:457,-0.940008,1.90212,-9.52505,-11.1972,-5.70292,-12.6965
2023-03-15 12:54:06:467,-0.999495,1.90028,-9.51087,-11.1992,-5.71363,-12.6921
2023-03-15 12:54:06:477,-0.997222,1.9049,-9.52601,-11.201,-5.72023,-12.6868
2023-03-15 12:54:06:487,-0.990388,1.92247,-9.54435,-11.205,-5.72369,-12.6851
2023-03-15 12:54:06:497,-0.986366,1.94022,-9.55138,-11.2075,-5.72239,-12.6827
2023-03-15 12:54:06:507,-0.982337,1.94427,-9.53569,-11.2057,-5.71829,-12.6786
2023-03-15 12:54:06:517,-0.995277,1.95324,-9.50485,-11.2048,-5.71578,-12.6777
2023-03-15 12:54:06:527,-1.02566,1.94147,-9.5022,-11.2058,-5.71164,-12.68
2023-03-15 12:54:06:537,-1.04521,1.9471,-9.49862,-11.2062,-5.70791,-12.6864
2023-03-15 12:54:06:547,-1.05794,1.95225,-9.47465,-11.2042,-5.70639,-12.7
2023-03-15 12:54:06:557,-1.04908,1.95292,-9.46079,-11.2079,-5.70565,-12.7155
2023-03-15 12:54:06:567,-1.01942,1.9404,-9.47402,-11.2086,-5.70414,-12.7347
2023-03-15 12:54:06:577,-0.985341,1.92876,-9.52025,-11.2125,-5.70047,-12.7557
2023-03-15 12:54:06:587,-0.960998,1.93866,-9.53784,-11.2166,-5.69934,-12.7829
2023-03-15 12:54:06:597,-0.952918,1.93837,-9.55432,-11.2198,-5.70297,-12.8132
2023-03-15 12:54:06:607,-0.925835,1.94223,-9.56452,-11.2224,-5.70671,-12.8403
2023-03-15 12:54:06:617,-0.912212,1.94178,-9.58235,-11.2307,-5.70907,-12.8657
2023-03-15 12:54:06:627,-0.889492,1.94626,-9.58407,-11.2381,-5.71211,-12.8904
2023-03-15 12:54:06:637,-0.853025,1.93936,-9.5974,-11.2422,-5.71524,-12.9112
2023-03-15 12:54:06:647,-0.845648,1.92646,-9.56625,-11.2461,-5.71806,-12.928
2023-03-15 12:54:06:657,-0.86843,1.92724,-9.54662,-11.2499,-5.71829,-12.9405
2023-03-15 12:54:06:667,-0.913812,1.93235,-9.54625,-11.2505,-5.71909,-12.9515
2023-03-15 12:54:06:677,-0.915864,1.9337,-9.52806,-11.2497,-5.71642,-12.9623
2023-03-15 12:54:06:687,-0.8969,1.92418,-9.50646,-11.2457,-5.71365,-12.9725
2023-03-15 12:54:06:697,-0.861039,1.90619,-9.51161,-11.2447,-5.71214,-12.9784
2023-03-15 12:54:06:707,-0.853575,1.89222,-9.51454,-11.2461,-5.7146,-12.9773
2023-03-15 12:54:06:717,-0.907792,1.88841,-9.48628,-11.2464,-5.72281,-12.9786
2023-03-15 12:54:06:727,-0.967915,1.88302,-9.46421,-11.2492,-5.72774,-12.9808
2023-03-15 12:54:06:737,-0.983226,1.88661,-9.47591,-11.2549,-5.732,-12.9808
2023-03-15 12:54:06:747,-0.96414,1.89285,-9.50009,-11.2605,-5.73441,-12.9834
2023-03-15 12:54:06:757,-0.960325,1.91393,-9.52109,-11.2702,-5.73742,-12.9841
2023-03-15 12:54:06:767,-0.968933,1.91957,-9.53848,-11.2809,-5.73777,-12.9887
2023-03-15 12:54:06:777,-0.971432,1.92599,-9.55633,-11.285,-5.73876,-12.9955
2023-03-15 12:54:06:787,-0.967191,1.91993,-9.54231,-11.2883,-5.74074,-13
2023-03-15 12:54:06:797,-0.955778,1.90397,-9.52384,-11.2899,-5.74228,-13.0047
2023-03-15 12:54:06:807,-0.957706,1.90856,-9.5309,-11.295,-5.74354,-13.01
2023-03-15 12:54:06:817,-0.965149,1.9203,-9.51539,-11.2997,-5.74253,-13.015
2023-03-15 12:54:06:827,-0.972503,1.91655,-9.51245,-11.3081,-5.7429,-13.0211
2023-03-15 12:54:06:837,-0.99242,1.9194,-9.5065,-11.3178,-5.75081,-13.0268
2023-03-15 12:54:06:847,-0.989737,1.92378,-9.50963,-11.3268,-5.75666,-13.0366
2023-03-15 12:54:06:857,-0.985688,1.94277,-9.52226,-11.337,-5.75951,-13.0429
2023-03-15 12:54:06:867,-0.975507,1.95274,-9.54051,-11.3463,-5.76156,-13.0485
2023-03-15 12:54:06:877,-0.986356,1.94637,-9.53445,-11.3543,-5.76015,-13.0559
2023-03-15 12:54:06:887,-1.00118,1.93441,-9.52515,-11.3612,-5.76139,-13.0601
2023-03-15 12:54:06:897,-0.99392,1.94887,-9.52156,-11.3664,-5.76448,-13.0676
2023-03-15 12:54:06:907,-0.998481,1.95341,-9.52532,-11.3761,-5.76375,-13.0745
2023-03-15 12:54:06:917,-1.01182,1.95019,-9.50438,-11.3826,-5.76537,-13.0829
2023-03-15 12:54:06:927,-1.01791,1.93546,-9.50206,-11.3912,-5.76164,-13.0908
2023-03-15 12:54:06:937,-1.02268,1.94172,-9.5109,-11.4012,-5.75748,-13.1002
2023-03-15 12:54:06:947,-1.02472,1.94877,-9.53234,-11.4089,-5.75396,-13.1117
2023-03-15 12:54:06:957,-1.02328,1.94142,-9.54026,-11.4128,-5.75112,-13.1272
2023-03-15 12:54:06:967,-1.05004,1.94684,-9.53206,-11.4262,-5.74886,-13.1438
2023-03-15 12:54:06:977,-1.07335,1.95547,-9.50386,-11.436,-5.7466,-13.1654
2023-03-15 12:54:06:987,-1.10106,1.96406,-9.46905,-11.4484,-5.74782,-13.1958
2023-03-15 12:54:06:997,-1.13199,1.96199,-9.46579,-11.4588,-5.75454,-13.2373
2023-03-15 12:54:07:7,-1.17363,1.96472,-9.4829,-11.4685,-5.76391,-13.2855
2023-03-15 12:54:07:17,-1.24034,1.98796,-9.50107,-11.4814,-5.778,-13.3456
2023-03-15 12:54:07:27,-1.33158,2.01151,-9.51955,-11.4918,-5.79524,-13.425
2023-03-15 12:54:07:37,-1.46561,2.03805,-9.49093,-11.4996,-5.82381,-13.5322
2023-03-15 12:54:07:47,-1.65443,2.05485,-9.46349,-11.5117,-5.86434,-13.6721
2023-03-15 12:54:07:57,-1.84441,2.10041,-9.44924,-11.524,-5.91097,-13.8556
2023-03-15 12:54:07:67,-2.01378,2.16932,-9.45609,-11.5331,-5.96764,-14.0932
2023-03-15 12:54:07:77,-2.15258,2.21613,-9.47939,-11.5407,-6.03557,-14.3874
2023-03-15 12:54:07:87,-2.26798,2.27365,-9.55029,-11.5449,-6.11856,-14.7495
2023-03-15 12:54:07:97,-2.38547,2.37855,-9.61151,-11.535,-6.21144,-15.1805
2023-03-15 12:54:07:107,-2.57534,2.46721,-9.64415,-11.5159,-6.32036,-15.6847
2023-03-15 12:54:07:117,-2.69017,2.53167,-9.71882,-11.4778,-6.44107,-16.27
2023-03-15 12:54:07:127,-2.63299,2.58281,-9.76432,-11.423,-6.57252,-16.934
2023-03-15 12:54:07:137,-2.51892,2.57733,-9.74357,-11.3379,-6.70839,-17.6686
2023-03-15 12:54:07:147,-2.44371,2.54659,-9.69136,-11.2358,-6.85035,-18.465
2023-03-15 12:54:07:157,-2.38043,2.53357,-9.62679,-11.1131,-6.99249,-19.32
2023-03-15 12:54:07:167,-2.27076,2.49753,-9.59587,-10.9816,-7.13319,-20.23
2023-03-15 12:54:07:177,-2.08703,2.46306,-9.58665,-10.8322,-7.25839,-21.1794
2023-03-15 12:54:07:187,-1.84144,2.40852,-9.58245,-10.6745,-7.37197,-22.152
2023-03-15 12:54:07:197,-1.53995,2.3348,-9.60543,-10.5073,-7.47073,-23.1346
2023-03-15 12:54:07:207,-1.27653,2.25701,-9.63464,-10.3264,-7.55791,-24.1136
2023-03-15 12:54:07:217,-1.20214,2.23347,-9.65478,-10.1417,-7.64226,-25.0872
2023-03-15 12:54:07:227,-1.4168,2.24284,-9.59286,-9.95067,-7.72865,-26.0647
2023-03-15 12:54:07:237,-1.50254,2.22638,-9.575,-9.75974,-7.80583,-27.0583
2023-03-15 12:54:07:247,-1.20655,2.17794,-9.66724,-9.5614,-7.86102,-28.0503
2023-03-15 12:54:07:257,-0.761908,2.03947,-9.74528,-9.34965,-7.89579,-29.0141
2023-03-15 12:54:07:267,-0.459718,1.85596,-9.71115,-9.12513,-7.93006,-29.9308
2023-03-15 12:54:07:277,-0.352512,1.70762,-9.60619,-8.89844,-7.96363,-30.7988
2023-03-15 12:54:07:287,-0.389363,1.59208,-9.57593,-8.67857,-7.99997,-31.6167
2023-03-15 12:54:07:297,-0.429246,1.5394,-9.57532,-8.46227,-8.03034,-32.3973
2023-03-15 12:54:07:307,-0.468241,1.49897,-9.58583,-8.25229,-8.05818,-33.1295
2023-03-15 12:54:07:317,-0.55658,1.45572,-9.60587,-8.03621,-8.07007,-33.8202
2023-03-15 12:54:07:327,-0.662227,1.40151,-9.56003,-7.81816,-8.06983,-34.472
2023-03-15 12:54:07:337,-0.773057,1.35283,-9.53623,-7.60201,-8.05633,-35.0911
2023-03-15 12:54:07:347,-0.885609,1.34588,-9.55758,-7.38709,-8.03118,-35.6878
2023-03-15 12:54:07:357,-0.908922,1.2877,-9.59494,-7.1695,-7.98485,-36.2599
2023-03-15 12:54:07:367,-0.803032,1.20801,-9.61115,-6.95044,-7.92804,-36.8076
2023-03-15 12:54:07:377,-0.640765,1.08487,-9.58869,-6.7303,-7.85732,-37.3151
2023-03-15 12:54:07:387,-0.548217,1.01463,-9.58605,-6.51718,-7.78361,-37.7867
2023-03-15 12:54:07:397,-0.547122,0.950794,-9.55662,-6.31135,-7.71565,-38.2232
2023-03-15 12:54:07:407,-0.629492,0.950745,-9.54845,-6.10763,-7.64746,-38.6342
2023-03-15 12:54:07:417,-0.740839,0.930501,-9.52609,-5.90838,-7.58002,-39.0246
2023-03-15 12:54:07:427,-0.749708,0.848129,-9.47916,-5.71817,-7.51823,-39.398
2023-03-15 12:54:07:437,-0.734641,0.745666,-9.40868,-5.54597,-7.47217,-39.747
2023-03-15 12:54:07:447,-0.776565,0.748835,-9.44227,-5.39164,-7.42117,-40.0773
2023-03-15 12:54:07:457,-0.735784,0.737773,-9.50578,-5.24898,-7.37288,-40.3901
2023-03-15 12:54:07:467,-0.680798,0.671725,-9.46666,-5.11544,-7.3314,-40.6816
2023-03-15 12:54:07:477,-0.725019,0.667347,-9.49084,-5.00091,-7.28948,-40.9517
2023-03-15 12:54:07:487,-0.743947,0.659088,-9.479,-4.89008,-7.25253,-41.2053
2023-03-15 12:54:07:497,-0.683925,0.56915,-9.38788,-4.79114,-7.22021,-41.4363
2023-03-15 12:54:07:507,-0.67322,0.50539,-9.29832,-4.7081,-7.18236,-41.6469
2023-03-15 12:54:07:517,-0.667984,0.466865,-9.25322,-4.64814,-7.13899,-41.8321
2023-03-15 12:54:07:527,-0.642655,0.447276,-9.22693,-4.61097,-7.09578,-41.9912
2023-03-15 12:54:07:537,-0.626984,0.437988,-9.24677,-4.59886,-7.05295,-42.1292
2023-03-15 12:54:07:547,-0.622158,0.47693,-9.3125,-4.61595,-7.00517,-42.2391
2023-03-15 12:54:07:557,-0.639376,0.527291,-9.40192,-4.65058,-6.95792,-42.332
2023-03-15 12:54:07:567,-0.698802,0.603703,-9.51206,-4.69804,-6.9119,-42.4073
2023-03-15 12:54:07:577,-0.797122,0.67738,-9.61901,-4.75628,-6.8681,-42.4712
2023-03-15 12:54:07:587,-0.845141,0.746929,-9.70371,-4.82002,-6.8294,-42.5254
2023-03-15 12:54:07:597,-0.865645,0.790088,-9.71003,-4.88176,-6.80121,-42.5776
2023-03-15 12:54:07:607,-0.915579,0.763008,-9.62149,-4.93898,-6.77697,-42.6216
2023-03-15 12:54:07:617,-0.970443,0.713876,-9.52335,-5.00692,-6.75437,-42.6646
2023-03-15 12:54:07:627,-0.991683,0.711449,-9.50437,-5.08838,-6.73485,-42.7048
2023-03-15 12:54:07:637,-0.944502,0.773842,-9.59786,-5.17831,-6.71497,-42.7424
2023-03-15 12:54:07:647,-0.913874,0.886145,-9.76746,-5.27124,-6.69501,-42.7826
2023-03-15 12:54:07:657,-0.93406,0.987584,-9.85573,-5.36043,-6.68646,-42.8187
2023-03-15 12:54:07:667,-0.967123,0.998479,-9.8143,-5.43611,-6.68168,-42.8569
2023-03-15 12:54:07:677,-0.96211,0.972726,-9.73356,-5.50427,-6.67785,-42.8928
2023-03-15 12:54:07:687,-0.936377,0.969439,-9.69355,-5.56825,-6.66999,-42.923
2023-03-15 12:54:07:697,-0.930436,0.986147,-9.68015,-5.63494,-6.66475,-42.9516
2023-03-15 12:54:07:707,-0.941422,1.0119,-9.69753,-5.69944,-6.65966,-42.9799
2023-03-15 12:54:07:717,-0.923994,1.05437,-9.74223,-5.75869,-6.65543,-43.0049
2023-03-15 12:54:07:727,-0.870162,1.08063,-9.76013,-5.80988,-6.64756,-43.0245
2023-03-15 12:54:07:737,-0.843368,1.07195,-9.74316,-5.85618,-6.64252,-43.0368
2023-03-15 12:54:07:747,-0.831658,1.04735,-9.69163,-5.89677,-6.63752,-43.0467
2023-03-15 12:54:07:757,-0.802031,1.00842,-9.67786,-5.93891,-6.63705,-43.0441
2023-03-15 12:54:07:767,-0.789047,0.987835,-9.63529,-5.98276,-6.63833,-43.0385
2023-03-15 12:54:07:777,-0.795037,0.974338,-9.60773,-6.03384,-6.64169,-43.0258
2023-03-15 12:54:07:787,-0.787233,0.977066,-9.64905,-6.08884,-6.64305,-43.0036
2023-03-15 12:54:07:797,-0.752944,1.00927,-9.71661,-6.14374,-6.65096,-42.9716
2023-03-15 12:54:07:807,-0.777523,1.01807,-9.73725,-6.20439,-6.66274,-42.9301
2023-03-15 12:54:07:817,-0.844227,1.07537,-9.75843,-6.26061,-6.68539,-42.8807
2023-03-15 12:54:07:827,-0.888879,1.11855,-9.7908,-6.31418,-6.7062,-42.8259
2023-03-15 12:54:07:837,-0.891837,1.14189,-9.76808,-6.36237,-6.72143,-42.7608
2023-03-15 12:54:07:847,-0.889288,1.10245,-9.69577,-6.40093,-6.73039,-42.6852
2023-03-15 12:54:07:857,-0.848647,1.06097,-9.67171,-6.43949,-6.7345,-42.5962
2023-03-15 12:54:07:867,-0.843058,1.06351,-9.65418,-6.47857,-6.73676,-42.4909
2023-03-15 12:54:07:877,-0.942142,1.07018,-9.61503,-6.52016,-6.73724,-42.3783
2023-03-15 12:54:07:887,-1.04789,1.06902,-9.58211,-6.56873,-6.73886,-42.264
2023-03-15 12:54:07:897,-1.10212,1.10996,-9.60383,-6.61879,-6.73688,-42.1501
2023-03-15 12:54:07:907,-1.09011,1.17844,-9.66427,-6.67193,-6.72767,-42.0333
2023-03-15 12:54:07:917,-1.07721,1.1988,-9.69786,-6.72292,-6.71896,-41.9167
2023-03-15 12:54:07:927,-1.07413,1.19859,-9.68174,-6.76863,-6.71042,-41.7966
2023-03-15 12:54:07:937,-1.06935,1.19733,-9.70118,-6.81506,-6.70483,-41.6742
2023-03-15 12:54:07:947,-1.07551,1.20807,-9.73112,-6.85831,-6.69982,-41.5454
2023-03-15 12:54:07:957,-1.08749,1.21689,-9.7002,-6.89159,-6.69781,-41.4159
2023-03-15 12:54:07:967,-1.0468,1.18288,-9.64267,-6.92518,-6.6934,-41.281
2023-03-15 12:54:07:977,-0.988792,1.12139,-9.5942,-6.95961,-6.6866,-41.1392
2023-03-15 12:54:07:987,-0.926929,1.08274,-9.52582,-6.99989,-6.67686,-40.9809
2023-03-15 12:54:07:997,-0.877958,1.05983,-9.4953,-7.0518,-6.66932,-40.8104
2023-03-15 12:54:08:7,-0.830923,1.06235,-9.45141,-7.11722,-6.65691,-40.6212
2023-03-15 12:54:08:17,-0.819007,1.07293,-9.46254,-7.19089,-6.63822,-40.4118
2023-03-15 12:54:08:27,-0.851456,1.14472,-9.57107,-7.27838,-6.61817,-40.1855
2023-03-15 12:54:08:37,-0.929256,1.24859,-9.68432,-7.36493,-6.60208,-39.9496
2023-03-15 12:54:08:47,-1.0178,1.34646,-9.76325,-7.44723,-6.57986,-39.7097
2023-03-15 12:54:08:57,-1.05606,1.41968,-9.83123,-7.51864,-6.55841,-39.4658
2023-03-15 12:54:08:67,-1.07521,1.49612,-9.88708,-7.57626,-6.53619,-39.2194
2023-03-15 12:54:08:77,-1.11273,1.5664,-9.90985,-7.61872,-6.51966,-38.9739
2023-03-15 12:54:08:87,-1.15161,1.57001,-9.82384,-7.64509,-6.50683,-38.7338
2023-03-15 12:54:08:97,-1.15632,1.49629,-9.684,-7.66095,-6.49017,-38.4893
2023-03-15 12:54:08:107,-1.1445,1.42809,-9.56757,-7.68099,-6.47645,-38.2453
2023-03-15 12:54:08:117,-1.17679,1.37296,-9.53255,-7.70086,-6.46986,-37.9994
2023-03-15 12:54:08:127,-1.24227,1.36519,-9.50707,-7.72898,-6.47032,-37.7555
2023-03-15 12:54:08:137,-1.33961,1.38978,-9.57744,-7.76036,-6.47384,-37.5239
2023-03-15 12:54:08:147,-1.41998,1.49007,-9.74769,-7.79974,-6.47667,-37.3119
2023-03-15 12:54:08:157,-1.45284,1.57103,-9.85074,-7.827,-6.48803,-37.1173
2023-03-15 12:54:08:167,-1.47677,1.56824,-9.82637,-7.83825,-6.49965,-36.9367
2023-03-15 12:54:08:177,-1.49649,1.53206,-9.71545,-7.82984,-6.51862,-36.775
2023-03-15 12:54:08:187,-1.46981,1.43956,-9.61042,-7.81448,-6.5352,-36.6235
2023-03-15 12:54:08:197,-1.42669,1.38403,-9.5687,-7.80075,-6.55584,-36.4815
2023-03-15 12:54:08:207,-1.38555,1.35135,-9.5357,-7.78863,-6.57402,-36.3516
2023-03-15 12:54:08:217,-1.36923,1.32118,-9.51859,-7.77985,-6.58733,-36.2274
2023-03-15 12:54:08:227,-1.37907,1.33937,-9.55064,-7.77792,-6.60131,-36.1109
2023-03-15 12:54:08:237,-1.38902,1.37309,-9.59616,-7.77304,-6.62037,-36.0046
2023-03-15 12:54:08:247,-1.41865,1.39523,-9.62468,-7.7708,-6.64147,-35.9055
2023-03-15 12:54:08:257,-1.45375,1.41157,-9.63812,-7.7624,-6.66102,-35.8205
2023-03-15 12:54:08:267,-1.47156,1.39734,-9.61105,-7.75271,-6.6829,-35.7474
2023-03-15 12:54:08:277,-1.46459,1.3608,-9.55827,-7.73804,-6.70381,-35.683
2023-03-15 12:54:08:287,-1.46626,1.3268,-9.4973,-7.72716,-6.72454,-35.6273
2023-03-15 12:54:08:297,-1.44824,1.32883,-9.48476,-7.72318,-6.74272,-35.5788
2023-03-15 12:54:08:307,-1.41757,1.33566,-9.4843,-7.72048,-6.75193,-35.5346
2023-03-15 12:54:08:317,-1.381,1.33782,-9.49735,-7.724,-6.75979,-35.4943
2023-03-15 12:54:08:327,-1.38492,1.35452,-9.51379,-7.73202,-6.76778,-35.4609
2023-03-15 12:54:08:337,-1.39513,1.38885,-9.5744,-7.74117,-6.77514,-35.4379
2023-03-15 12:54:08:347,-1.38166,1.41444,-9.6029,-7.7463,-6.77773,-35.4185
2023-03-15 12:54:08:357,-1.35772,1.40524,-9.57032,-7.75229,-6.77518,-35.4041
2023-03-15 12:54:08:367,-1.32785,1.36151,-9.53665,-7.75403,-6.77244,-35.3944
2023-03-15 12:54:08:377,-1.30112,1.32921,-9.51697,-7.75576,-6.76569,-35.387
2023-03-15 12:54:08:387,-1.2747,1.3245,-9.51486,-7.75934,-6.75781,-35.3831
2023-03-15 12:54:08:397,-1.2377,1.30951,-9.52719,-7.76853,-6.7458,-35.3795
2023-03-15 12:54:08:407,-1.19775,1.30845,-9.5315,-7.7846,-6.73632,-35.3755
2023-03-15 12:54:08:417,-1.15001,1.31335,-9.56496,-7.80246,-6.72599,-35.3699
2023-03-15 12:54:08:427,-1.10817,1.33823,-9.60578,-7.82738,-6.71466,-35.3615
2023-03-15 12:54:08:437,-1.1332,1.39318,-9.68168,-7.85188,-6.70631,-35.3507
2023-03-15 12:54:08:447,-1.19654,1.43714,-9.69576,-7.86847,-6.69896,-35.3455
2023-03-15 12:54:08:457,-1.22491,1.43008,-9.65429,-7.88484,-6.68867,-35.343
2023-03-15 12:54:08:467,-1.20121,1.40595,-9.60174,-7.88964,-6.67369,-35.3422
2023-03-15 12:54:08:477,-1.1398,1.38095,-9.58359,-7.90155,-6.65956,-35.3403
2023-03-15 12:54:08:487,-1.09972,1.36139,-9.57539,-7.9142,-6.64739,-35.3354
2023-03-15 12:54:08:497,-1.10111,1.36461,-9.56362,-7.92883,-6.63739,-35.3291
2023-03-15 12:54:08:507,-1.08604,1.35657,-9.56699,-7.94752,-6.62884,-35.317
2023-03-15 12:54:08:517,-1.06724,1.37318,-9.58748,-7.96853,-6.6206,-35.3058
2023-03-15 12:54:08:527,-1.06302,1.41449,-9.62563,-7.99074,-6.61024,-35.291
2023-03-15 12:54:08:537,-1.09072,1.43945,-9.64129,-8.01319,-6.59805,-35.2764
2023-03-15 12:54:08:547,-1.11218,1.46205,-9.63144,-8.02926,-6.58358,-35.2602
2023-03-15 12:54:08:557,-1.09286,1.47458,-9.61799,-8.04627,-6.56883,-35.2416
2023-03-15 12:54:08:567,-1.08922,1.44631,-9.58452,-8.05996,-6.54833,-35.2199
2023-03-15 12:54:08:577,-1.11354,1.43304,-9.57772,-8.07405,-6.52931,-35.2009
2023-03-15 12:54:08:587,-1.13,1.42475,-9.58132,-8.08969,-6.50634,-35.1788
2023-03-15 12:54:08:597,-1.12794,1.42738,-9.59328,-8.10759,-6.48487,-35.154
2023-03-15 12:54:08:607,-1.13278,1.44298,-9.63786,-8.12628,-6.4669,-35.1303
2023-03-15 12:54:08:617,-1.13839,1.45291,-9.67024,-8.14239,-6.44309,-35.1111
2023-03-15 12:54:08:627,-1.11634,1.4593,-9.67496,-8.15771,-6.41767,-35.0899
2023-03-15 12:54:08:637,-1.08889,1.43829,-9.65656,-8.16798,-6.39761,-35.0707
2023-03-15 12:54:08:647,-1.06653,1.41709,-9.64127,-8.17261,-6.37843,-35.0538
2023-03-15 12:54:08:657,-1.0547,1.40947,-9.61278,-8.17961,-6.3616,-35.0346
2023-03-15 12:54:08:667,-1.07009,1.40741,-9.59654,-8.18693,-6.34739,-35.0146
2023-03-15 12:54:08:677,-1.08727,1.41699,-9.60144,-8.20081,-6.33502,-35
2023-03-15 12:54:08:687,-1.10375,1.43418,-9.61775,-8.21444,-6.31876,-34.9855
2023-03-15 12:54:08:697,-1.10015,1.45286,-9.62697,-8.22662,-6.30251,-34.9712
2023-03-15 12:54:08:707,-1.09787,1.45749,-9.66216,-8.23492,-6.28325,-34.9586
2023-03-15 12:54:08:717,-1.10308,1.48621,-9.67953,-8.2412,-6.26593,-34.9465
2023-03-15 12:54:08:727,-1.08334,1.49844,-9.66422,-8.24502,-6.25252,-34.9363
2023-03-15 12:54:08:737,-1.07584,1.47468,-9.64852,-8.24223,-6.23769,-34.9258
2023-03-15 12:54:08:747,-1.07391,1.45515,-9.64357,-8.23987,-6.21658,-34.9137
2023-03-15 12:54:08:757,-1.06473,1.45615,-9.61957,-8.2369,-6.19567,-34.9022
2023-03-15 12:54:08:767,-1.0405,1.4403,-9.5971,-8.23419,-6.17369,-34.8906
2023-03-15 12:54:08:777,-1.0044,1.42497,-9.61185,-8.22769,-6.1508,-34.8802
2023-03-15 12:54:08:787,-0.99115,1.39891,-9.60276,-8.21827,-6.12944,-34.8647
2023-03-15 12:54:08:797,-0.97602,1.38562,-9.56982,-8.21353,-6.10438,-34.8496
2023-03-15 12:54:08:807,-0.950768,1.37369,-9.5796,-8.21159,-6.08081,-34.8309
2023-03-15 12:54:08:817,-0.941136,1.37012,-9.57498,-8.21201,-6.06231,-34.8069
2023-03-15 12:54:08:827,-0.968159,1.3781,-9.58902,-8.21677,-6.0415,-34.7821
2023-03-15 12:54:08:837,-0.962493,1.39532,-9.60247,-8.22376,-6.01681,-34.7578
2023-03-15 12:54:08:847,-0.940389,1.42247,-9.63676,-8.22958,-5.99496,-34.7305
2023-03-15 12:54:08:857,-0.935211,1.43484,-9.66561,-8.23347,-5.97741,-34.7011
2023-03-15 12:54:08:867,-0.977994,1.45669,-9.66803,-8.23316,-5.95739,-34.6689
2023-03-15 12:54:08:877,-1.0038,1.43765,-9.66142,-8.22856,-5.93561,-34.6376
2023-03-15 12:54:08:887,-0.957382,1.39986,-9.62649,-8.22323,-5.9124,-34.6051
2023-03-15 12:54:08:897,-0.955641,1.38952,-9.58425,-8.21926,-5.89355,-34.5735
2023-03-15 12:54:08:907,-0.985721,1.37177,-9.56665,-8.21879,-5.87674,-34.5408
2023-03-15 12:54:08:917,-1.00923,1.37852,-9.54274,-8.22137,-5.86081,-34.5134
2023-03-15 12:54:08:927,-1.01938,1.38375,-9.5291,-8.22503,-5.84388,-34.4879
2023-03-15 12:54:08:937,-1.01854,1.38068,-9.55986,-8.23803,-5.82918,-34.4673
2023-03-15 12:54:08:947,-1.02915,1.41099,-9.60906,-8.24887,-5.81473,-34.4469
2023-03-15 12:54:08:957,-1.01331,1.44525,-9.67984,-8.25424,-5.80084,-34.434
2023-03-15 12:54:08:967,-0.951098,1.44143,-9.72121,-8.25753,-5.79082,-34.426
2023-03-15 12:54:08:977,-0.903411,1.41144,-9.71379,-8.25838,-5.78533,-34.4149
2023-03-15 12:54:08:987,-0.923774,1.39127,-9.66729,-8.25744,-5.78587,-34.4041
2023-03-15 12:54:08:997,-0.971666,1.39719,-9.62438,-8.25789,-5.78649,-34.3939
2023-03-15 12:54:09:7,-1.01343,1.39369,-9.59739,-8.25863,-5.79152,-34.3892
2023-03-15 12:54:09:17,-1.02746,1.39668,-9.58468,-8.26289,-5.79522,-34.3865
2023-03-15 12:54:09:27,-1.01395,1.41669,-9.5885,-8.26721,-5.79688,-34.3835
2023-03-15 12:54:09:37,-0.999857,1.4347,-9.59368,-8.27454,-5.79859,-34.3825
2023-03-15 12:54:09:47,-0.991652,1.42357,-9.59209,-8.27874,-5.79894,-34.3809
2023-03-15 12:54:09:57,-1.00507,1.43303,-9.59232,-8.28505,-5.79687,-34.3814
2023-03-15 12:54:09:67,-1.02174,1.44477,-9.59651,-8.29268,-5.79403,-34.3817
2023-03-15 12:54:09:77,-1.01803,1.44889,-9.59146,-8.29739,-5.7921,-34.3816
2023-03-15 12:54:09:87,-1.01576,1.45505,-9.58421,-8.30379,-5.79062,-34.385
2023-03-15 12:54:09:97,-0.994883,1.45332,-9.60121,-8.30892,-5.78427,-34.3857
2023-03-15 12:54:09:107,-0.978205,1.45915,-9.62512,-8.31514,-5.78071,-34.3911
2023-03-15 12:54:09:117,-0.979508,1.45898,-9.62688,-8.32002,-5.77673,-34.3974
2023-03-15 12:54:09:127,-0.985122,1.45817,-9.63745,-8.32354,-5.77647,-34.4056
2023-03-15 12:54:09:137,-0.98725,1.45047,-9.64883,-8.32673,-5.77983,-34.4119
2023-03-15 12:54:09:147,-0.984213,1.44359,-9.65695,-8.32961,-5.77916,-34.4212
2023-03-15 12:54:09:157,-0.980943,1.43786,-9.63236,-8.3325,-5.78007,-34.4255
2023-03-15 12:54:09:167,-0.980424,1.43572,-9.61864,-8.33526,-5.78197,-34.4335
2023-03-15 12:54:09:177,-0.989054,1.43608,-9.65386,-8.33367,-5.78292,-34.4409
2023-03-15 12:54:09:187,-1.00845,1.44539,-9.70409,-8.33071,-5.78644,-34.4446
2023-03-15 12:54:09:197,-1.03762,1.4584,-9.68851,-8.32868,-5.78359,-34.4472
2023-03-15 12:54:09:207,-1.03055,1.41751,-9.63693,-8.31726,-5.77975,-34.4519
2023-03-15 12:54:09:217,-0.979711,1.37635,-9.59376,-8.306,-5.77287,-34.4559
2023-03-15 12:54:09:227,-0.955703,1.36448,-9.54307,-8.29679,-5.77165,-34.4572
2023-03-15 12:54:09:237,-0.981049,1.3443,-9.50781,-8.29324,-5.76894,-34.4565
2023-03-15 12:54:09:247,-1.03303,1.34974,-9.4849,-8.29228,-5.7658,-34.4557
2023-03-15 12:54:09:257,-1.05083,1.38126,-9.50401,-8.30153,-5.76536,-34.4575
2023-03-15 12:54:09:267,-1.08014,1.41064,-9.5282,-8.31727,-5.75846,-34.4625
2023-03-15 12:54:09:277,-1.07064,1.44088,-9.55678,-8.33772,-5.74855,-34.4748
2023-03-15 12:54:09:287,-1.0318,1.46718,-9.58978,-8.3568,-5.7341,-34.4888
2023-03-15 12:54:09:297,-0.986744,1.47649,-9.61164,-8.37699,-5.71726,-34.5023
2023-03-15 12:54:09:307,-0.944476,1.49631,-9.63377,-8.39911,-5.70033,-34.5129
2023-03-15 12:54:09:317,-0.929902,1.51318,-9.66005,-8.42354,-5.68315,-34.5253
2023-03-15 12:54:09:327,-0.892448,1.51882,-9.65918,-8.44158,-5.66646,-34.5423
2023-03-15 12:54:09:337,-0.856648,1.52739,-9.67193,-8.45973,-5.6536,-34.5535
2023-03-15 12:54:09:347,-0.838136,1.55726,-9.68874,-8.473,-5.64311,-34.5612
2023-03-15 12:54:09:357,-0.819363,1.55065,-9.72412,-8.4835,-5.63428,-34.5691
2023-03-15 12:54:09:367,-0.803386,1.55072,-9.70579,-8.49359,-5.62605,-34.5713
2023-03-15 12:54:09:377,-0.817656,1.5444,-9.69328,-8.49766,-5.62,-34.5712
2023-03-15 12:54:09:387,-0.826841,1.52501,-9.69129,-8.49677,-5.617,-34.5671
2023-03-15 12:54:09:397,-0.824833,1.50429,-9.6973,-8.49457,-5.61377,-34.5651
2023-03-15 12:54:09:407,-0.830864,1.49098,-9.68654,-8.49195,-5.61002,-34.5538
2023-03-15 12:54:09:417,-0.860531,1.46791,-9.66096,-8.47932,-5.6145,-34.5418
2023-03-15 12:54:09:427,-0.881104,1.44363,-9.65826,-8.46595,-5.6201,-34.5296
2023-03-15 12:54:09:437,-0.896956,1.43684,-9.6536,-8.44743,-5.62628,-34.5143
2023-03-15 12:54:09:447,-0.912847,1.41146,-9.63797,-8.43196,-5.63127,-34.4955
2023-03-15 12:54:09:457,-0.951314,1.39644,-9.59862,-8.41458,-5.63775,-34.4805
2023-03-15 12:54:09:467,-0.989157,1.37574,-9.55747,-8.39823,-5.64584,-34.4639
2023-03-15 12:54:09:477,-1.01432,1.35292,-9.52033,-8.38305,-5.65507,-34.4486
2023-03-15 12:54:09:487,-1.04123,1.35305,-9.4931,-8.37156,-5.66372,-34.4398
2023-03-15 12:54:09:497,-1.06148,1.35401,-9.51253,-8.36347,-5.67171,-34.432
2023-03-15 12:54:09:507,-1.07673,1.35031,-9.5337,-8.36329,-5.67661,-34.4286
2023-03-15 12:54:09:517,-1.0753,1.36998,-9.53998,-8.36511,-5.68298,-34.4289
