Timestamp,Acceleration_x,Acceleration_y,Acceleration_z,roll,pitch,yaw
2023-03-10 21:24:14:1,-1.90713,0.12962,-9.56357,-0.74945,-11.2671,92.7503
2023-03-10 21:24:14:9,-1.90301,0.0905068,-9.54223,-0.714657,-11.3228,92.6593
2023-03-10 21:24:14:19,-1.8923,0.0959344,-9.525,-0.680267,-11.3772,92.5677
2023-03-10 21:24:14:29,-1.89995,0.101645,-9.5114,-0.651241,-11.4274,92.4859
2023-03-10 21:24:14:39,-1.92932,0.101305,-9.51239,-0.623288,-11.4741,92.4104
2023-03-10 21:24:14:49,-1.91492,0.133659,-9.51717,-0.598514,-11.5177,92.3395
2023-03-10 21:24:14:59,-1.88829,0.122867,-9.52558,-0.578056,-11.5565,92.2756
2023-03-10 21:24:14:69,-1.88823,0.107825,-9.55237,-0.556031,-11.5934,92.2192
2023-03-10 21:24:14:79,-1.90784,0.128252,-9.54367,-0.540106,-11.6325,92.1718
2023-03-10 21:24:14:89,-1.93637,0.127948,-9.51935,-0.522969,-11.6701,92.135
2023-03-10 21:24:14:99,-1.9647,0.142027,-9.52067,-0.511157,-11.7101,92.1086
2023-03-10 21:24:14:109,-2.00444,0.16677,-9.52256,-0.504289,-11.7442,92.0887
2023-03-10 21:24:14:119,-2.0346,0.183632,-9.50773,-0.499443,-11.779,92.0755
2023-03-10 21:24:14:129,-2.05702,0.161053,-9.4922,-0.49041,-11.8127,92.0619
2023-03-10 21:24:14:139,-2.10845,0.134778,-9.4865,-0.480005,-11.8485,92.049
2023-03-10 21:24:14:149,-2.16283,0.129478,-9.51512,-0.471814,-11.8898,92.0332
2023-03-10 21:24:14:159,-2.23289,0.138392,-9.55128,-0.467892,-11.9314,92.0186
2023-03-10 21:24:14:169,-2.25068,0.142872,-9.57231,-0.465492,-11.9731,92.0003
2023-03-10 21:24:14:179,-2.22389,0.136922,-9.56574,-0.456657,-12.0146,91.9723
2023-03-10 21:24:14:189,-2.21912,0.128484,-9.55771,-0.448974,-12.0569,91.9377
2023-03-10 21:24:14:199,-2.21936,0.141879,-9.55672,-0.443594,-12.1037,91.9038
2023-03-10 21:24:14:209,-2.19709,0.156487,-9.56669,-0.437437,-12.1462,91.8638
2023-03-10 21:24:14:219,-2.19845,0.137042,-9.56146,-0.429473,-12.1899,91.8227
2023-03-10 21:24:14:229,-2.18147,0.137551,-9.53794,-0.422413,-12.2313,91.7777
2023-03-10 21:24:14:239,-2.19241,0.122802,-9.51657,-0.413651,-12.2749,91.7368
2023-03-10 21:24:14:249,-2.22616,0.110328,-9.47915,-0.404641,-12.3161,91.6982
2023-03-10 21:24:14:259,-2.2651,0.132501,-9.44038,-0.39778,-12.3526,91.6613
2023-03-10 21:24:14:269,-2.31648,0.135309,-9.43637,-0.396971,-12.3883,91.6281
2023-03-10 21:24:14:279,-2.3292,0.118817,-9.45315,-0.394953,-12.4191,91.5929
2023-03-10 21:24:14:289,-2.31283,0.105792,-9.46908,-0.394196,-12.4469,91.5535
2023-03-10 21:24:14:299,-2.29028,0.0842167,-9.46126,-0.394465,-12.4678,91.5139
2023-03-10 21:24:14:309,-2.28254,0.0777134,-9.46316,-0.392204,-12.4895,91.474
2023-03-10 21:24:14:319,-2.26787,0.0724038,-9.49753,-0.390858,-12.4995,91.4334
2023-03-10 21:24:14:329,-2.2553,0.0967766,-9.54949,-0.392624,-12.5089,91.3936
2023-03-10 21:24:14:339,-2.22314,0.0951573,-9.57481,-0.394456,-12.5114,91.3536
2023-03-10 21:24:14:349,-2.18697,0.092353,-9.54474,-0.392133,-12.5064,91.3145
2023-03-10 21:24:14:359,-2.1489,0.0653804,-9.54143,-0.392761,-12.4955,91.2762
2023-03-10 21:24:14:369,-2.12862,0.0749122,-9.57464,-0.396424,-12.481,91.2412
2023-03-10 21:24:14:379,-2.09824,0.093693,-9.58422,-0.405977,-12.4625,91.2105
2023-03-10 21:24:14:389,-2.05312,0.0924905,-9.60741,-0.414962,-12.4386,91.1827
2023-03-10 21:24:14:399,-2.02618,0.0989278,-9.63662,-0.418742,-12.4126,91.1599
2023-03-10 21:24:14:409,-2.00545,0.120371,-9.67484,-0.425964,-12.3835,91.1413
2023-03-10 21:24:14:419,-1.98289,0.134377,-9.66914,-0.433271,-12.3503,91.132
2023-03-10 21:24:14:429,-1.94903,0.146915,-9.63523,-0.430536,-12.3135,91.122
2023-03-10 21:24:14:439,-1.9348,0.11802,-9.64043,-0.423123,-12.2759,91.1221
2023-03-10 21:24:14:449,-1.95181,0.113472,-9.63713,-0.41433,-12.2377,91.1224
2023-03-10 21:24:14:459,-1.97907,0.126198,-9.64828,-0.401868,-12.203,91.1346
2023-03-10 21:24:14:469,-2.00531,0.110761,-9.65296,-0.384694,-12.169,91.1489
2023-03-10 21:24:14:479,-2.00479,0.0815303,-9.6279,-0.367765,-12.1359,91.1598
2023-03-10 21:24:14:489,-1.97997,0.0452258,-9.58659,-0.345583,-12.1068,91.1707
2023-03-10 21:24:14:499,-1.97006,0.0233067,-9.55997,-0.324477,-12.0813,91.1795
2023-03-10 21:24:14:509,-1.96675,-0.00232383,-9.53666,-0.30186,-12.0564,91.1879
2023-03-10 21:24:14:519,-1.97895,-0.000925759,-9.51073,-0.282912,-12.0355,91.1951
2023-03-10 21:24:14:529,-1.96703,-0.0237911,-9.48266,-0.264286,-12.0098,91.2042
2023-03-10 21:24:14:539,-1.94313,-0.0671552,-9.44122,-0.245732,-11.982,91.2125
2023-03-10 21:24:14:549,-1.88632,-0.0791131,-9.42544,-0.231501,-11.9541,91.2164
2023-03-10 21:24:14:559,-1.83626,-0.0637339,-9.43018,-0.221613,-11.9237,91.2245
2023-03-10 21:24:14:569,-1.7742,-0.056563,-9.43947,-0.21932,-11.8945,91.2338
2023-03-10 21:24:14:579,-1.71436,-0.061135,-9.45337,-0.220707,-11.8667,91.2449
2023-03-10 21:24:14:589,-1.68308,-0.0461237,-9.46328,-0.230459,-11.8495,91.2604
2023-03-10 21:24:14:599,-1.68038,-0.0311682,-9.47815,-0.25118,-11.8321,91.2876
2023-03-10 21:24:14:609,-1.70793,-0.0192451,-9.49464,-0.275153,-11.8234,91.324
2023-03-10 21:24:14:619,-1.76981,-0.0019711,-9.51758,-0.305157,-11.8139,91.371
2023-03-10 21:24:14:629,-1.81065,0.0374584,-9.54811,-0.336451,-11.8091,91.4239
2023-03-10 21:24:14:639,-1.8183,0.0680037,-9.5783,-0.372275,-11.8049,91.4826
2023-03-10 21:24:14:649,-1.83929,0.0573474,-9.58711,-0.405817,-11.8043,91.5469
2023-03-10 21:24:14:659,-1.8584,0.0408499,-9.56297,-0.439485,-11.8074,91.6181
2023-03-10 21:24:14:669,-1.88234,0.0565146,-9.55753,-0.477238,-11.8126,91.6922
2023-03-10 21:24:14:679,-1.93152,0.0888663,-9.59044,-0.518924,-11.8191,91.7711
2023-03-10 21:24:14:689,-2.03212,0.159482,-9.63764,-0.559843,-11.8309,91.8494
2023-03-10 21:24:14:699,-2.11005,0.22228,-9.6825,-0.600099,-11.8428,91.9251
2023-03-10 21:24:14:709,-2.1292,0.246542,-9.68461,-0.634854,-11.8548,91.999
2023-03-10 21:24:14:719,-2.13231,0.250534,-9.66634,-0.662766,-11.8683,92.0637
2023-03-10 21:24:14:729,-2.1579,0.251982,-9.63321,-0.684831,-11.8919,92.1234
2023-03-10 21:24:14:739,-2.20936,0.242457,-9.59725,-0.703137,-11.918,92.1842
2023-03-10 21:24:14:749,-2.26672,0.254447,-9.59857,-0.724718,-11.9498,92.2414
2023-03-10 21:24:14:759,-2.2974,0.25882,-9.61199,-0.7427,-11.9843,92.2926
2023-03-10 21:24:14:769,-2.34713,0.260707,-9.6239,-0.757712,-12.0183,92.3347
2023-03-10 21:24:14:779,-2.39021,0.279502,-9.62688,-0.768305,-12.0542,92.3703
2023-03-10 21:24:14:789,-2.43312,0.309053,-9.63964,-0.774654,-12.0836,92.3989
2023-03-10 21:24:14:799,-2.45862,0.287823,-9.62572,-0.773969,-12.1102,92.4168
2023-03-10 21:24:14:809,-2.43035,0.264252,-9.59562,-0.766081,-12.1292,92.4229
2023-03-10 21:24:14:819,-2.35834,0.243909,-9.57719,-0.75289,-12.1357,92.42
2023-03-10 21:24:14:829,-2.28029,0.210249,-9.60073,-0.734908,-12.1339,92.409
2023-03-10 21:24:14:839,-2.20624,0.199032,-9.61459,-0.713691,-12.1236,92.393
2023-03-10 21:24:14:849,-2.13085,0.182651,-9.61245,-0.689292,-12.1091,92.3721
2023-03-10 21:24:14:859,-2.09048,0.130066,-9.61375,-0.659586,-12.0922,92.3487
2023-03-10 21:24:14:869,-2.08435,0.0950698,-9.5983,-0.625087,-12.0736,92.326
2023-03-10 21:24:14:879,-2.05965,0.0695445,-9.54202,-0.589744,-12.0533,92.3041
2023-03-10 21:24:14:889,-2.05798,0.0325281,-9.47668,-0.555575,-12.0324,92.285
2023-03-10 21:24:14:899,-2.06733,0.0152457,-9.46165,-0.520847,-12.0112,92.2597
2023-03-10 21:24:14:909,-2.05543,0.037263,-9.47625,-0.493555,-11.9896,92.2338
2023-03-10 21:24:14:919,-2.03622,0.0564368,-9.52784,-0.473863,-11.9668,92.2075
2023-03-10 21:24:14:929,-2.01785,0.0622729,-9.57229,-0.453702,-11.9416,92.1772
2023-03-10 21:24:14:939,-1.97509,0.0635325,-9.61892,-0.436714,-11.9181,92.1464
2023-03-10 21:24:14:949,-1.93277,0.0764707,-9.63874,-0.418681,-11.891,92.1122
2023-03-10 21:24:14:959,-1.87357,0.0670592,-9.62548,-0.397168,-11.8666,92.0747
2023-03-10 21:24:14:969,-1.87739,0.0501869,-9.57845,-0.372012,-11.8471,92.0332
2023-03-10 21:24:14:979,-1.88104,0.0495113,-9.57207,-0.348855,-11.8359,91.9934
2023-03-10 21:24:14:989,-1.88405,0.0501172,-9.57676,-0.322528,-11.8308,91.9495
2023-03-10 21:24:14:999,-1.91251,0.0356981,-9.54272,-0.299892,-11.8287,91.9047
2023-03-10 21:24:15:9,-1.93585,0.0176084,-9.50619,-0.272073,-11.8303,91.8585
2023-03-10 21:24:15:19,-1.95591,0.0232999,-9.50527,-0.249324,-11.8435,91.8127
2023-03-10 21:24:15:29,-1.96464,0.0541846,-9.55403,-0.229604,-11.856,91.7678
2023-03-10 21:24:15:39,-1.96673,0.0703125,-9.5622,-0.214525,-11.8734,91.7238
2023-03-10 21:24:15:49,-1.99886,0.0616431,-9.53099,-0.195455,-11.8948,91.6796
2023-03-10 21:24:15:59,-2.02042,0.0205778,-9.50126,-0.17456,-11.9177,91.6367
2023-03-10 21:24:15:69,-2.04981,-0.00567477,-9.47331,-0.158904,-11.943,91.5958
2023-03-10 21:24:15:79,-2.08825,-0.0188383,-9.46278,-0.141611,-11.9646,91.5613
2023-03-10 21:24:15:89,-2.09924,-0.0284794,-9.4545,-0.124026,-11.9845,91.5266
2023-03-10 21:24:15:99,-2.09866,-0.029112,-9.45312,-0.114873,-11.9978,91.4942
2023-03-10 21:24:15:109,-2.07844,-0.0177776,-9.47133,-0.112114,-12.0088,91.4614
2023-03-10 21:24:15:119,-2.05464,0.00657612,-9.48517,-0.115383,-12.0176,91.4314
2023-03-10 21:24:15:129,-2.03909,0.00579864,-9.49304,-0.117625,-12.0207,91.4024
2023-03-10 21:24:15:139,-2.04203,-0.00804618,-9.51063,-0.121247,-12.0169,91.3714
2023-03-10 21:24:15:149,-2.01533,0.00565158,-9.55521,-0.128691,-12.01,91.3392
2023-03-10 21:24:15:159,-1.99058,0.0157694,-9.64763,-0.136417,-12.0021,91.307
2023-03-10 21:24:15:169,-1.955,0.0421733,-9.69764,-0.143576,-11.9943,91.276
2023-03-10 21:24:15:179,-1.88373,0.00591844,-9.68351,-0.142801,-11.9875,91.24
2023-03-10 21:24:15:189,-1.87011,-0.0285544,-9.64282,-0.139597,-11.987,91.2125
2023-03-10 21:24:15:199,-1.90001,-0.0258792,-9.61655,-0.140287,-11.9873,91.1855
2023-03-10 21:24:15:209,-1.91916,-0.0218586,-9.60339,-0.142206,-11.996,91.1617
2023-03-10 21:24:15:219,-1.97741,0.0237048,-9.56576,-0.146059,-12.0114,91.1425
2023-03-10 21:24:15:229,-2.04901,0.0790702,-9.56577,-0.154025,-12.0281,91.1284
2023-03-10 21:24:15:239,-2.06498,0.114089,-9.59776,-0.163644,-12.0406,91.113
2023-03-10 21:24:15:249,-1.99989,0.140424,-9.63769,-0.172422,-12.0542,91.0948
2023-03-10 21:24:15:259,-1.95889,0.126163,-9.6085,-0.171915,-12.0731,91.0784
2023-03-10 21:24:15:269,-1.97373,0.059351,-9.52815,-0.162913,-12.0919,91.0642
2023-03-10 21:24:15:279,-2.03162,0.0155019,-9.43124,-0.152318,-12.1226,91.051
2023-03-10 21:24:15:289,-2.12141,-0.0102383,-9.35916,-0.146303,-12.1516,91.0408
2023-03-10 21:24:15:299,-2.21898,0.00559474,-9.369,-0.148883,-12.1857,91.0305
2023-03-10 21:24:15:309,-2.29754,0.0667666,-9.46798,-0.158738,-12.2152,91.0212
2023-03-10 21:24:15:319,-2.31034,0.115927,-9.54837,-0.17969,-12.2356,91.0054
2023-03-10 21:24:15:329,-2.25074,0.140776,-9.59301,-0.1975,-12.2459,90.9838
2023-03-10 21:24:15:339,-2.10207,0.142235,-9.66177,-0.210397,-12.2487,90.9536
2023-03-10 21:24:15:349,-1.95986,0.127195,-9.71706,-0.217698,-12.2472,90.9175
2023-03-10 21:24:15:359,-1.89658,0.0909871,-9.69644,-0.219647,-12.2528,90.8869
2023-03-10 21:24:15:369,-1.9703,0.0587027,-9.58595,-0.215389,-12.2687,90.8666
2023-03-10 21:24:15:379,-2.10444,0.0428313,-9.4538,-0.211233,-12.292,90.8533
2023-03-10 21:24:15:389,-2.23219,0.0248785,-9.35239,-0.213048,-12.3187,90.8448
2023-03-10 21:24:15:399,-2.34642,0.0436822,-9.34043,-0.220634,-12.3424,90.8323
2023-03-10 21:24:15:409,-2.36332,0.132385,-9.39759,-0.24197,-12.3626,90.8123
2023-03-10 21:24:15:419,-2.26621,0.169262,-9.52661,-0.267726,-12.3706,90.7784
2023-03-10 21:24:15:429,-2.04046,0.177975,-9.71851,-0.285902,-12.3681,90.7336
2023-03-10 21:24:15:439,-1.83939,0.181918,-9.79099,-0.294732,-12.3682,90.6853
2023-03-10 21:24:15:449,-1.82677,0.0691819,-9.66947,-0.290465,-12.3755,90.6432
2023-03-10 21:24:15:459,-1.97019,-0.021408,-9.47501,-0.27997,-12.397,90.621
2023-03-10 21:24:15:469,-2.16539,-0.0328715,-9.31855,-0.274781,-12.4269,90.6057
2023-03-10 21:24:15:479,-2.32512,-0.0173561,-9.27306,-0.279434,-12.4576,90.597
2023-03-10 21:24:15:489,-2.34932,0.0396322,-9.36642,-0.302768,-12.4855,90.5828
2023-03-10 21:24:15:499,-2.25961,0.143121,-9.559,-0.336224,-12.5002,90.5588
2023-03-10 21:24:15:509,-2.12725,0.220694,-9.71595,-0.373836,-12.5016,90.5293
2023-03-10 21:24:15:519,-1.96733,0.218583,-9.80112,-0.395049,-12.4944,90.4953
2023-03-10 21:24:15:529,-1.85358,0.170901,-9.78372,-0.400848,-12.4862,90.4624
2023-03-10 21:24:15:539,-1.87971,0.106643,-9.69442,-0.393303,-12.4856,90.445
2023-03-10 21:24:15:549,-1.97538,0.0207803,-9.57532,-0.378547,-12.4934,90.439
2023-03-10 21:24:15:559,-2.08097,-0.0270363,-9.44997,-0.358883,-12.5039,90.4444
2023-03-10 21:24:15:569,-2.18745,-0.0527686,-9.36075,-0.348294,-12.511,90.456
2023-03-10 21:24:15:579,-2.24358,-0.0519779,-9.33794,-0.340357,-12.5133,90.4703
2023-03-10 21:24:15:589,-2.2141,-0.0117718,-9.39656,-0.346428,-12.511,90.4787
2023-03-10 21:24:15:599,-2.1413,0.0278326,-9.525,-0.363508,-12.5071,90.486
2023-03-10 21:24:15:609,-2.06712,0.0894623,-9.66642,-0.381712,-12.4978,90.4844
2023-03-10 21:24:15:619,-1.97614,0.114468,-9.78614,-0.395866,-12.4898,90.481
2023-03-10 21:24:15:629,-1.96781,0.0904994,-9.74439,-0.39867,-12.4937,90.4821
2023-03-10 21:24:15:639,-2.04924,0.00588966,-9.5474,-0.393673,-12.5053,90.4906
2023-03-10 21:24:15:649,-2.15641,-0.0713201,-9.35541,-0.383974,-12.5242,90.5073
2023-03-10 21:24:15:659,-2.22762,-0.0415198,-9.3235,-0.383791,-12.5422,90.5272
2023-03-10 21:24:15:669,-2.28998,0.020118,-9.35236,-0.399529,-12.5594,90.548
2023-03-10 21:24:15:679,-2.31933,0.061953,-9.41443,-0.422359,-12.5695,90.5658
2023-03-10 21:24:15:689,-2.30629,0.116393,-9.4981,-0.448815,-12.572,90.5796
2023-03-10 21:24:15:699,-2.19755,0.157437,-9.62832,-0.478325,-12.5668,90.5882
2023-03-10 21:24:15:709,-2.06039,0.205967,-9.74711,-0.50103,-12.5583,90.5886
2023-03-10 21:24:15:719,-2.01041,0.195925,-9.76187,-0.519061,-12.5513,90.5904
2023-03-10 21:24:15:729,-2.05417,0.151004,-9.69082,-0.525219,-12.5482,90.6006
2023-03-10 21:24:15:739,-2.1233,0.116374,-9.58263,-0.521183,-12.5481,90.6187
2023-03-10 21:24:15:749,-2.17809,0.0914211,-9.52001,-0.514761,-12.549,90.6434
2023-03-10 21:24:15:759,-2.18651,0.117259,-9.51689,-0.515927,-12.5429,90.6677
2023-03-10 21:24:15:769,-2.18321,0.155269,-9.51614,-0.520444,-12.5325,90.6893
2023-03-10 21:24:15:779,-2.19486,0.185028,-9.52323,-0.525775,-12.5233,90.7022
2023-03-10 21:24:15:789,-2.2106,0.207719,-9.52204,-0.535025,-12.5063,90.7142
2023-03-10 21:24:15:799,-2.19037,0.252766,-9.57685,-0.54711,-12.4906,90.7157
2023-03-10 21:24:15:809,-2.08304,0.289109,-9.66126,-0.557943,-12.4725,90.7003
2023-03-10 21:24:15:819,-1.95693,0.279692,-9.76714,-0.562168,-12.4557,90.6738
2023-03-10 21:24:15:829,-1.87279,0.246318,-9.78457,-0.554947,-12.4463,90.6423
2023-03-10 21:24:15:839,-1.86055,0.173705,-9.71121,-0.535465,-12.4389,90.6152
2023-03-10 21:24:15:849,-1.86716,0.0899147,-9.59767,-0.509678,-12.4387,90.5947
2023-03-10 21:24:15:859,-1.88659,0.0520364,-9.55021,-0.484406,-12.4445,90.5797
2023-03-10 21:24:15:869,-1.95285,0.0762894,-9.59249,-0.468015,-12.4505,90.5725
2023-03-10 21:24:15:879,-2.00239,0.136519,-9.62798,-0.453726,-12.453,90.5709
2023-03-10 21:24:15:889,-1.98472,0.125691,-9.64061,-0.441578,-12.4572,90.572
2023-03-10 21:24:15:899,-1.94961,0.120499,-9.65069,-0.432568,-12.4628,90.575
2023-03-10 21:24:15:909,-1.9422,0.148813,-9.70106,-0.418372,-12.4624,90.5787
2023-03-10 21:24:15:919,-1.90689,0.125989,-9.68898,-0.402859,-12.4647,90.588
2023-03-10 21:24:15:929,-1.87526,0.092019,-9.62633,-0.381585,-12.476,90.602
2023-03-10 21:24:15:939,-1.90085,0.0491022,-9.54493,-0.355965,-12.49,90.6227
2023-03-10 21:24:15:949,-1.94703,-0.00597707,-9.4394,-0.32848,-12.508,90.6479
2023-03-10 21:24:15:959,-2.01307,-0.0306739,-9.37407,-0.30576,-12.531,90.6812
2023-03-10 21:24:15:969,-2.08449,-0.0232569,-9.33424,-0.290029,-12.5565,90.7174
2023-03-10 21:24:15:979,-2.16432,-0.01947,-9.34776,-0.281596,-12.5813,90.7605
2023-03-10 21:24:15:989,-2.19218,-0.00711215,-9.38633,-0.280607,-12.6075,90.7954
2023-03-10 21:24:15:999,-2.20787,0.0339069,-9.4508,-0.284862,-12.6349,90.8263
2023-03-10 21:24:16:9,-2.23564,0.0638635,-9.50488,-0.296894,-12.664,90.8544
2023-03-10 21:24:16:19,-2.2627,0.0722762,-9.51431,-0.305897,-12.696,90.8786
2023-03-10 21:24:16:29,-2.28197,0.0579586,-9.48831,-0.314383,-12.7253,90.8985
2023-03-10 21:24:16:39,-2.2988,0.0460878,-9.45707,-0.316583,-12.7527,90.9138
2023-03-10 21:24:16:49,-2.30554,0.0473054,-9.45473,-0.324088,-12.7785,90.9249
2023-03-10 21:24:16:59,-2.30567,0.0545934,-9.44535,-0.329826,-12.7992,90.9325
2023-03-10 21:24:16:69,-2.30128,0.0631269,-9.44098,-0.340037,-12.8202,90.9366
2023-03-10 21:24:16:79,-2.31731,0.0739795,-9.43624,-0.346317,-12.8386,90.9348
2023-03-10 21:24:16:89,-2.33699,0.0892211,-9.47474,-0.356261,-12.8568,90.9344
2023-03-10 21:24:16:99,-2.33768,0.12071,-9.52959,-0.368876,-12.8665,90.9315
2023-03-10 21:24:16:109,-2.31632,0.141766,-9.61668,-0.37998,-12.8698,90.9244
2023-03-10 21:24:16:119,-2.26043,0.149048,-9.64286,-0.387684,-12.8718,90.9132
2023-03-10 21:24:16:129,-2.22727,0.101263,-9.60385,-0.387425,-12.8751,90.8965
2023-03-10 21:24:16:139,-2.23499,0.0769126,-9.55893,-0.387355,-12.878,90.8819
2023-03-10 21:24:16:149,-2.25876,0.0912266,-9.54171,-0.385091,-12.8847,90.8677
2023-03-10 21:24:16:159,-2.2684,0.108733,-9.54795,-0.391093,-12.8896,90.8569
2023-03-10 21:24:16:169,-2.26205,0.125353,-9.54469,-0.395867,-12.8951,90.8461
2023-03-10 21:24:16:179,-2.26263,0.163173,-9.53659,-0.402206,-12.9,90.8342
2023-03-10 21:24:16:189,-2.25102,0.185638,-9.54559,-0.409383,-12.9029,90.8242
2023-03-10 21:24:16:199,-2.24955,0.204435,-9.56169,-0.419031,-12.9044,90.8146
2023-03-10 21:24:16:209,-2.25738,0.20788,-9.57137,-0.42404,-12.9048,90.8057
2023-03-10 21:24:16:219,-2.25941,0.196809,-9.56196,-0.426547,-12.9066,90.7959
2023-03-10 21:24:16:229,-2.23794,0.179561,-9.54497,-0.422452,-12.907,90.7858
2023-03-10 21:24:16:239,-2.2032,0.150049,-9.51694,-0.415618,-12.9028,90.7742
2023-03-10 21:24:16:249,-2.18575,0.125936,-9.51497,-0.409703,-12.8997,90.7661
2023-03-10 21:24:16:259,-2.19818,0.117502,-9.5273,-0.405972,-12.8962,90.7597
2023-03-10 21:24:16:269,-2.22127,0.119967,-9.53884,-0.402476,-12.8928,90.7521
2023-03-10 21:24:16:279,-2.22225,0.120596,-9.55092,-0.400057,-12.8896,90.7453
2023-03-10 21:24:16:289,-2.22179,0.115658,-9.54685,-0.393216,-12.8825,90.7436
2023-03-10 21:24:16:299,-2.21321,0.0930492,-9.54674,-0.382823,-12.875,90.7398
2023-03-10 21:24:16:309,-2.21527,0.0837221,-9.55,-0.374643,-12.8682,90.7395
2023-03-10 21:24:16:319,-2.22671,0.0797482,-9.52446,-0.369198,-12.861,90.7372
2023-03-10 21:24:16:329,-2.23688,0.086506,-9.47926,-0.358785,-12.8575,90.7365
2023-03-10 21:24:16:339,-2.26551,0.0687601,-9.46111,-0.350027,-12.8544,90.7355
2023-03-10 21:24:16:349,-2.30369,0.0592419,-9.46634,-0.343212,-12.8539,90.7289
2023-03-10 21:24:16:359,-2.3244,0.0725606,-9.49467,-0.340312,-12.8519,90.7201
2023-03-10 21:24:16:369,-2.31318,0.105597,-9.51484,-0.34148,-12.851,90.7076
2023-03-10 21:24:16:379,-2.24494,0.0949187,-9.5413,-0.340668,-12.8487,90.6894
2023-03-10 21:24:16:389,-2.1431,0.05854,-9.54551,-0.334169,-12.8383,90.667
2023-03-10 21:24:16:399,-2.1075,0.0437661,-9.53972,-0.328159,-12.8291,90.6466
2023-03-10 21:24:16:409,-2.14441,0.0421458,-9.52967,-0.320959,-12.8252,90.624
2023-03-10 21:24:16:419,-2.15589,0.0315121,-9.51489,-0.310835,-12.8146,90.6103
2023-03-10 21:24:16:429,-2.14286,0.0025675,-9.49548,-0.301022,-12.8038,90.5944
2023-03-10 21:24:16:439,-2.13257,-0.0157508,-9.50069,-0.289742,-12.796,90.5804
2023-03-10 21:24:16:449,-2.13067,-0.0140123,-9.50437,-0.287988,-12.7844,90.5672
2023-03-10 21:24:16:459,-2.11331,-0.00819594,-9.51011,-0.28628,-12.7763,90.5612
2023-03-10 21:24:16:469,-2.10235,-0.00640406,-9.51713,-0.283064,-12.7591,90.5517
2023-03-10 21:24:16:479,-2.10488,0.00493848,-9.50206,-0.284146,-12.7482,90.5501
2023-03-10 21:24:16:489,-2.12666,0.000519855,-9.4915,-0.286536,-12.7334,90.5442
2023-03-10 21:24:16:499,-2.1453,0.0089803,-9.50555,-0.289223,-12.7231,90.5413
2023-03-10 21:24:16:509,-2.15693,0.0324879,-9.52348,-0.292465,-12.7181,90.5328
2023-03-10 21:24:16:519,-2.14364,0.0190388,-9.52185,-0.300127,-12.7145,90.5222
2023-03-10 21:24:16:529,-2.10088,0.00644489,-9.51461,-0.303107,-12.7099,90.5133
2023-03-10 21:24:16:539,-2.08379,0.0129453,-9.5145,-0.307455,-12.7095,90.4988
2023-03-10 21:24:16:549,-2.08157,0.00436061,-9.52584,-0.316475,-12.7088,90.489
2023-03-10 21:24:16:559,-2.06454,0.0168487,-9.52956,-0.327334,-12.7028,90.481
2023-03-10 21:24:16:569,-2.0435,0.0294856,-9.54462,-0.337763,-12.7006,90.4722
2023-03-10 21:24:16:579,-2.03096,0.0473001,-9.57422,-0.353302,-12.6982,90.4708
2023-03-10 21:24:16:589,-2.04128,0.0615422,-9.57735,-0.366302,-12.6959,90.4681
2023-03-10 21:24:16:599,-2.05307,0.0621394,-9.57236,-0.379281,-12.696,90.4682
2023-03-10 21:24:16:609,-2.06066,0.0640395,-9.57464,-0.390397,-12.6953,90.474
2023-03-10 21:24:16:619,-2.0645,0.0772889,-9.58198,-0.403527,-12.6984,90.4831
2023-03-10 21:24:16:629,-2.08534,0.0916303,-9.58199,-0.418462,-12.6985,90.4912
2023-03-10 21:24:16:639,-2.11564,0.0977749,-9.57416,-0.432209,-12.7002,90.5063
2023-03-10 21:24:16:649,-2.12909,0.105973,-9.55929,-0.445827,-12.7007,90.5202
2023-03-10 21:24:16:659,-2.13204,0.0966558,-9.55153,-0.457009,-12.7053,90.5328
2023-03-10 21:24:16:669,-2.14008,0.113027,-9.53823,-0.466595,-12.7119,90.5377
2023-03-10 21:24:16:679,-2.15269,0.124582,-9.52557,-0.477293,-12.7158,90.5429
2023-03-10 21:24:16:689,-2.14659,0.124397,-9.54981,-0.488041,-12.7166,90.5495
2023-03-10 21:24:16:699,-2.141,0.136309,-9.54416,-0.500899,-12.7198,90.5576
2023-03-10 21:24:16:709,-2.12018,0.13961,-9.53271,-0.515051,-12.7229,90.5623
2023-03-10 21:24:16:719,-2.12277,0.15323,-9.55475,-0.529233,-12.7315,90.5662
2023-03-10 21:24:16:729,-2.13776,0.164385,-9.55229,-0.54077,-12.7371,90.572
2023-03-10 21:24:16:739,-2.13812,0.150386,-9.53777,-0.550596,-12.7445,90.5762
2023-03-10 21:24:16:749,-2.14984,0.148138,-9.53747,-0.561568,-12.7525,90.5834
2023-03-10 21:24:16:759,-2.14173,0.15595,-9.55424,-0.573633,-12.7613,90.5895
2023-03-10 21:24:16:769,-2.14812,0.1618,-9.56516,-0.584815,-12.7644,90.5977
2023-03-10 21:24:16:779,-2.15669,0.153446,-9.54555,-0.592746,-12.7703,90.6075
2023-03-10 21:24:16:789,-2.15663,0.144811,-9.53235,-0.602363,-12.776,90.6157
2023-03-10 21:24:16:799,-2.15097,0.145879,-9.53915,-0.611368,-12.7815,90.6255
2023-03-10 21:24:16:809,-2.13789,0.145532,-9.55439,-0.623633,-12.7868,90.6385
2023-03-10 21:24:16:819,-2.13112,0.147394,-9.55211,-0.634827,-12.7931,90.6497
2023-03-10 21:24:16:829,-2.11437,0.159056,-9.53814,-0.642587,-12.7981,90.6623
2023-03-10 21:24:16:839,-2.12667,0.153579,-9.53011,-0.650182,-12.8013,90.6734
2023-03-10 21:24:16:849,-2.16398,0.135892,-9.52387,-0.659661,-12.8119,90.6895
2023-03-10 21:24:16:859,-2.15953,0.136494,-9.51914,-0.672528,-12.8248,90.7062
2023-03-10 21:24:16:869,-2.18717,0.159184,-9.50647,-0.684666,-12.8356,90.7212
2023-03-10 21:24:16:879,-2.20489,0.150527,-9.50608,-0.694851,-12.8447,90.7369
2023-03-10 21:24:16:889,-2.19381,0.132608,-9.49125,-0.701482,-12.8533,90.7518
2023-03-10 21:24:16:899,-2.19513,0.132728,-9.48547,-0.712156,-12.8613,90.7695
2023-03-10 21:24:16:909,-2.20098,0.148313,-9.50228,-0.725199,-12.8707,90.7823
2023-03-10 21:24:16:919,-2.21977,0.159139,-9.5105,-0.736444,-12.8811,90.7955
2023-03-10 21:24:16:929,-2.21709,0.151659,-9.52413,-0.753589,-12.8921,90.8109
2023-03-10 21:24:16:939,-2.21396,0.15019,-9.53812,-0.77037,-12.9055,90.8255
2023-03-10 21:24:16:949,-2.21831,0.151561,-9.53677,-0.785445,-12.9159,90.8398
2023-03-10 21:24:16:959,-2.22532,0.152116,-9.53752,-0.79651,-12.9273,90.8529
2023-03-10 21:24:16:969,-2.24259,0.137293,-9.5143,-0.809981,-12.9417,90.8667
2023-03-10 21:24:16:979,-2.24277,0.12759,-9.50442,-0.819363,-12.952,90.8779
2023-03-10 21:24:16:989,-2.2318,0.130907,-9.48613,-0.834818,-12.9607,90.8939
2023-03-10 21:24:16:999,-2.2227,0.110511,-9.46963,-0.84636,-12.9667,90.9029
2023-03-10 21:24:17:9,-2.20831,0.104792,-9.45319,-0.861719,-12.9692,90.9154
2023-03-10 21:24:17:19,-2.18453,0.119773,-9.4768,-0.881008,-12.9719,90.9313
2023-03-10 21:24:17:29,-2.16558,0.118527,-9.4933,-0.897328,-12.9737,90.9462
2023-03-10 21:24:17:39,-2.18119,0.11555,-9.47406,-0.913135,-12.9739,90.9612
2023-03-10 21:24:17:49,-2.19532,0.111224,-9.44102,-0.932114,-12.9746,90.9789
2023-03-10 21:24:17:59,-2.21198,0.12436,-9.4422,-0.955675,-12.9707,90.9976
2023-03-10 21:24:17:69,-2.20964,0.146282,-9.45768,-0.982503,-12.9663,91.02
2023-03-10 21:24:17:79,-2.20831,0.14302,-9.45435,-1.01453,-12.9624,91.0469
2023-03-10 21:24:17:89,-2.20929,0.137853,-9.43849,-1.04696,-12.9584,91.0732
2023-03-10 21:24:17:99,-2.21739,0.134308,-9.45064,-1.07836,-12.9519,91.0975
2023-03-10 21:24:17:109,-2.20582,0.126068,-9.49129,-1.11683,-12.9433,91.1255
2023-03-10 21:24:17:119,-2.18522,0.139539,-9.51211,-1.15697,-12.934,91.1502
2023-03-10 21:24:17:129,-2.15612,0.147757,-9.53957,-1.19969,-12.9216,91.1766
2023-03-10 21:24:17:139,-2.1369,0.169223,-9.55424,-1.2414,-12.9142,91.2025
2023-03-10 21:24:17:149,-2.14401,0.16232,-9.56444,-1.28479,-12.9054,91.2313
2023-03-10 21:24:17:159,-2.19317,0.176098,-9.5222,-1.32621,-12.8991,91.2585
2023-03-10 21:24:17:169,-2.22637,0.193622,-9.47267,-1.37056,-12.8949,91.2867
2023-03-10 21:24:17:179,-2.22226,0.199124,-9.4661,-1.41323,-12.8928,91.3163
2023-03-10 21:24:17:189,-2.19692,0.203251,-9.45258,-1.45982,-12.8877,91.337
2023-03-10 21:24:17:199,-2.15543,0.228196,-9.44267,-1.50826,-12.8811,91.3555
2023-03-10 21:24:17:209,-2.14436,0.253989,-9.43675,-1.56265,-12.8737,91.3749
2023-03-10 21:24:17:219,-2.14013,0.266628,-9.44026,-1.61948,-12.8682,91.3901
2023-03-10 21:24:17:229,-2.15149,0.265481,-9.42155,-1.67781,-12.864,91.4088
2023-03-10 21:24:17:239,-2.16441,0.262696,-9.39828,-1.73657,-12.8581,91.426
2023-03-10 21:24:17:249,-2.1494,0.266862,-9.40949,-1.80183,-12.8518,91.4413
2023-03-10 21:24:17:259,-2.14719,0.30518,-9.48169,-1.87406,-12.8484,91.4601
2023-03-10 21:24:17:269,-2.1441,0.348277,-9.52885,-1.94939,-12.8471,91.4741
2023-03-10 21:24:17:279,-2.13922,0.349791,-9.49864,-2.02199,-12.8467,91.4893
2023-03-10 21:24:17:289,-2.18078,0.372622,-9.51918,-2.09396,-12.8499,91.5073
2023-03-10 21:24:17:299,-2.18549,0.434415,-9.59377,-2.16855,-12.8474,91.526
2023-03-10 21:24:17:309,-2.17684,0.476074,-9.64001,-2.24109,-12.846,91.544
2023-03-10 21:24:17:319,-2.18739,0.514193,-9.67532,-2.30932,-12.844,91.5588
2023-03-10 21:24:17:329,-2.20408,0.531203,-9.69981,-2.36866,-12.8473,91.5719
2023-03-10 21:24:17:339,-2.2173,0.551824,-9.6967,-2.4249,-12.8493,91.5877
2023-03-10 21:24:17:349,-2.22557,0.580568,-9.67013,-2.47419,-12.8563,91.6017
2023-03-10 21:24:17:359,-2.23282,0.582488,-9.64872,-2.51894,-12.8592,91.612
2023-03-10 21:24:17:369,-2.26385,0.570968,-9.6447,-2.55438,-12.8685,91.6174
2023-03-10 21:24:17:379,-2.29585,0.579023,-9.62672,-2.58917,-12.874,91.622
2023-03-10 21:24:17:389,-2.27053,0.597674,-9.61207,-2.61667,-12.877,91.6214
2023-03-10 21:24:17:399,-2.18065,0.576525,-9.63553,-2.63683,-12.8796,91.6183
2023-03-10 21:24:17:409,-2.11643,0.551488,-9.65256,-2.64939,-12.8765,91.6103
2023-03-10 21:24:17:419,-2.12617,0.52811,-9.6172,-2.65725,-12.8799,91.6013
2023-03-10 21:24:17:429,-2.17472,0.512558,-9.57238,-2.66249,-12.8825,91.5984
2023-03-10 21:24:17:439,-2.1831,0.499239,-9.56313,-2.65886,-12.8874,91.5937
2023-03-10 21:24:17:449,-2.17958,0.513583,-9.55391,-2.6618,-12.8917,91.5878
2023-03-10 21:24:17:459,-2.17736,0.523796,-9.57087,-2.66445,-12.8911,91.5807
2023-03-10 21:24:17:469,-2.1792,0.525487,-9.58043,-2.66624,-12.8906,91.5788
2023-03-10 21:24:17:479,-2.16724,0.523692,-9.58485,-2.66178,-12.8925,91.5697
2023-03-10 21:24:17:489,-2.16223,0.535666,-9.56029,-2.66118,-12.8924,91.5646
2023-03-10 21:24:17:499,-2.15951,0.52565,-9.54964,-2.65827,-12.8948,91.5604
2023-03-10 21:24:17:509,-2.17141,0.523402,-9.56021,-2.65303,-12.8998,91.5523
2023-03-10 21:24:17:519,-2.1918,0.519705,-9.55966,-2.64695,-12.9051,91.5478
2023-03-10 21:24:17:529,-2.20091,0.51768,-9.54161,-2.63509,-12.9132,91.5416
2023-03-10 21:24:17:539,-2.20356,0.510093,-9.52638,-2.62159,-12.9216,91.5316
2023-03-10 21:24:17:549,-2.20732,0.501569,-9.53011,-2.6052,-12.9303,91.5211
2023-03-10 21:24:17:559,-2.20554,0.487546,-9.52981,-2.58819,-12.944,91.5071
2023-03-10 21:24:17:569,-2.20745,0.474576,-9.52672,-2.57243,-12.9598,91.4941
2023-03-10 21:24:17:579,-2.20958,0.468894,-9.52513,-2.55602,-12.976,91.4773
2023-03-10 21:24:17:589,-2.21269,0.471576,-9.50985,-2.53715,-12.989,91.4607
2023-03-10 21:24:17:599,-2.21841,0.468412,-9.52496,-2.52425,-13.003,91.448
2023-03-10 21:24:17:609,-2.22297,0.460856,-9.51651,-2.50533,-13.0161,91.4271
2023-03-10 21:24:17:619,-2.23404,0.443385,-9.49481,-2.48768,-13.0309,91.4103
2023-03-10 21:24:17:629,-2.24153,0.451043,-9.4894,-2.47121,-13.0455,91.3943
2023-03-10 21:24:17:639,-2.22335,0.440967,-9.49709,-2.45545,-13.0609,91.3769
2023-03-10 21:24:17:649,-2.22272,0.438205,-9.50196,-2.43481,-13.0769,91.3563
2023-03-10 21:24:17:659,-2.22152,0.415544,-9.47783,-2.41634,-13.0878,91.3397
2023-03-10 21:24:17:669,-2.22548,0.376363,-9.45942,-2.39744,-13.0998,91.3241
2023-03-10 21:24:17:679,-2.23692,0.376994,-9.43906,-2.3776,-13.1148,91.3057
2023-03-10 21:24:17:689,-2.24128,0.379876,-9.44999,-2.36455,-13.1278,91.293
2023-03-10 21:24:17:699,-2.24556,0.387181,-9.47952,-2.35053,-13.1373,91.2791
2023-03-10 21:24:17:709,-2.2605,0.398237,-9.51033,-2.34679,-13.1453,91.2679
2023-03-10 21:24:17:719,-2.27068,0.399712,-9.50495,-2.34313,-13.1559,91.2515
2023-03-10 21:24:17:729,-2.23723,0.391575,-9.51306,-2.33172,-13.1642,91.2329
2023-03-10 21:24:17:739,-2.21921,0.387951,-9.52589,-2.3224,-13.1756,91.2198
2023-03-10 21:24:17:749,-2.22471,0.389767,-9.53972,-2.31496,-13.1808,91.2047
2023-03-10 21:24:17:759,-2.23246,0.394332,-9.53941,-2.30669,-13.1905,91.1918
2023-03-10 21:24:17:769,-2.19855,0.375207,-9.52644,-2.29562,-13.1946,91.1752
2023-03-10 21:24:17:779,-2.16345,0.35179,-9.49878,-2.28142,-13.2012,91.1605
2023-03-10 21:24:17:789,-2.17566,0.349313,-9.48671,-2.27185,-13.2062,91.1498
2023-03-10 21:24:17:799,-2.20742,0.356395,-9.49112,-2.2666,-13.2132,91.1402
2023-03-10 21:24:17:809,-2.23876,0.359239,-9.49575,-2.26135,-13.2218,91.1359
2023-03-10 21:24:17:819,-2.25466,0.362155,-9.49082,-2.25367,-13.2326,91.1314
2023-03-10 21:24:17:829,-2.28707,0.37166,-9.50383,-2.24779,-13.2423,91.1257
2023-03-10 21:24:17:839,-2.29417,0.360983,-9.49422,-2.23796,-13.2546,91.1178
2023-03-10 21:24:17:849,-2.28748,0.343423,-9.47415,-2.22903,-13.2613,91.1075
2023-03-10 21:24:17:859,-2.27276,0.334645,-9.45965,-2.22051,-13.2679,91.094
2023-03-10 21:24:17:869,-2.25531,0.313284,-9.45543,-2.21239,-13.277,91.0796
2023-03-10 21:24:17:879,-2.28706,0.316659,-9.47264,-2.20549,-13.2917,91.0633
2023-03-10 21:24:17:889,-2.30189,0.348733,-9.49245,-2.20343,-13.3079,91.0526
2023-03-10 21:24:17:899,-2.29759,0.347403,-9.47772,-2.19849,-13.3204,91.0346
2023-03-10 21:24:17:909,-2.33343,0.341928,-9.47902,-2.19643,-13.3359,91.0174
2023-03-10 21:24:17:919,-2.37337,0.356062,-9.48346,-2.19469,-13.3529,90.9971
2023-03-10 21:24:17:929,-2.40666,0.352014,-9.508,-2.19332,-13.3754,90.9723
2023-03-10 21:24:17:939,-2.40203,0.37182,-9.51782,-2.19117,-13.3895,90.9375
2023-03-10 21:24:17:949,-2.41394,0.373669,-9.50642,-2.18683,-13.4082,90.9033
2023-03-10 21:24:17:959,-2.41519,0.375642,-9.49903,-2.18271,-13.4249,90.8639
2023-03-10 21:24:17:969,-2.40506,0.365402,-9.47652,-2.177,-13.4441,90.8158
2023-03-10 21:24:17:979,-2.40353,0.366688,-9.48652,-2.16889,-13.4687,90.7613
2023-03-10 21:24:17:989,-2.40773,0.367722,-9.48746,-2.16056,-13.4901,90.7018
2023-03-10 21:24:17:999,-2.39971,0.358433,-9.47662,-2.15415,-13.5117,90.6377
2023-03-10 21:24:18:9,-2.38056,0.356196,-9.46513,-2.14354,-13.533,90.5687
2023-03-10 21:24:18:19,-2.34885,0.321947,-9.45902,-2.13513,-13.55,90.4969
2023-03-10 21:24:18:29,-2.34323,0.314994,-9.46675,-2.12574,-13.5706,90.4253
2023-03-10 21:24:18:39,-2.3601,0.340828,-9.46362,-2.12408,-13.5892,90.3512
2023-03-10 21:24:18:49,-2.37492,0.363465,-9.46948,-2.12053,-13.6075,90.2806
2023-03-10 21:24:18:59,-2.37054,0.364949,-9.4637,-2.12077,-13.6259,90.2035
2023-03-10 21:24:18:69,-2.35752,0.362366,-9.4777,-2.12014,-13.642,90.1255
2023-03-10 21:24:18:79,-2.33894,0.365919,-9.48578,-2.12295,-13.6588,90.0488
2023-03-10 21:24:18:89,-2.33548,0.388769,-9.49551,-2.12502,-13.6754,89.9761
2023-03-10 21:24:18:99,-2.33103,0.391373,-9.4907,-2.12567,-13.6911,89.9
2023-03-10 21:24:18:109,-2.32283,0.399451,-9.48408,-2.12264,-13.7057,89.8223
2023-03-10 21:24:18:119,-2.27896,0.391096,-9.50885,-2.1215,-13.7127,89.7452
2023-03-10 21:24:18:129,-2.25495,0.406155,-9.52249,-2.12157,-13.7203,89.6742
2023-03-10 21:24:18:139,-2.25096,0.40411,-9.52836,-2.12208,-13.7279,89.6053
2023-03-10 21:24:18:149,-2.25045,0.402841,-9.52601,-2.12159,-13.734,89.5447
2023-03-10 21:24:18:159,-2.25385,0.390327,-9.50643,-2.1183,-13.7398,89.4856
2023-03-10 21:24:18:169,-2.28197,0.387203,-9.4946,-2.11411,-13.7452,89.4325
2023-03-10 21:24:18:179,-2.28965,0.384914,-9.47916,-2.11337,-13.7467,89.381
2023-03-10 21:24:18:189,-2.2886,0.378054,-9.4746,-2.1135,-13.7484,89.3365
2023-03-10 21:24:18:199,-2.3075,0.369901,-9.46965,-2.10892,-13.7489,89.2933
2023-03-10 21:24:18:209,-2.30129,0.339018,-9.49318,-2.10656,-13.7485,89.2545
2023-03-10 21:24:18:221,-2.26654,0.345486,-9.50924,-2.10301,-13.7439,89.2154
2023-03-10 21:24:18:229,-2.23496,0.351993,-9.52964,-2.10268,-13.7358,89.1753
2023-03-10 21:24:18:239,-2.18175,0.352708,-9.53378,-2.10011,-13.7336,89.1426
2023-03-10 21:24:18:249,-2.16832,0.346015,-9.52902,-2.10078,-13.7303,89.1104
2023-03-10 21:24:18:259,-2.21215,0.333679,-9.50471,-2.10269,-13.7332,89.0861
2023-03-10 21:24:18:269,-2.26467,0.345996,-9.49441,-2.10794,-13.7384,89.064
2023-03-10 21:24:18:279,-2.30073,0.372327,-9.48792,-2.11626,-13.7426,89.0492
2023-03-10 21:24:18:289,-2.31154,0.400455,-9.48973,-2.12599,-13.7478,89.0357
2023-03-10 21:24:18:299,-2.31408,0.423057,-9.49964,-2.13687,-13.7512,89.0286
2023-03-10 21:24:18:309,-2.31476,0.44394,-9.48529,-2.14838,-13.7506,89.0219
2023-03-10 21:24:18:319,-2.30178,0.452284,-9.47492,-2.15706,-13.7502,89.0137
2023-03-10 21:24:18:329,-2.29069,0.449456,-9.46707,-2.1685,-13.7468,89.0105
2023-03-10 21:24:18:339,-2.30973,0.442607,-9.47089,-2.1761,-13.7424,89.0067
2023-03-10 21:24:18:349,-2.32376,0.454112,-9.44385,-2.1828,-13.7388,89.004
2023-03-10 21:24:18:359,-2.31958,0.440488,-9.43336,-2.19264,-13.7315,89.0033
2023-03-10 21:24:18:369,-2.31108,0.42246,-9.47378,-2.20158,-13.7221,89.0019
2023-03-10 21:24:18:379,-2.32274,0.430019,-9.51118,-2.21138,-13.717,89.0021
2023-03-10 21:24:18:389,-2.35427,0.44573,-9.54178,-2.22007,-13.7139,89.005
2023-03-10 21:24:18:399,-2.37825,0.463356,-9.56206,-2.23027,-13.7093,89.0057
2023-03-10 21:24:18:409,-2.37659,0.474373,-9.57829,-2.24229,-13.7024,89.0077
2023-03-10 21:24:18:419,-2.37906,0.467786,-9.56987,-2.24796,-13.6939,89.0063
2023-03-10 21:24:18:429,-2.37642,0.462686,-9.57588,-2.25245,-13.6871,89.0042
2023-03-10 21:24:18:439,-2.3644,0.465323,-9.54672,-2.24971,-13.6795,88.999
2023-03-10 21:24:18:449,-2.35449,0.44108,-9.51018,-2.2455,-13.6722,88.9873
2023-03-10 21:24:18:459,-2.31687,0.440189,-9.49271,-2.24047,-13.666,88.9744
2023-03-10 21:24:18:469,-2.30174,0.430201,-9.50946,-2.23497,-13.6614,88.9577
2023-03-10 21:24:18:479,-2.32903,0.435002,-9.52,-2.22857,-13.6581,88.9444
2023-03-10 21:24:18:489,-2.33921,0.436495,-9.51356,-2.22423,-13.6501,88.9267
2023-03-10 21:24:18:499,-2.29888,0.422659,-9.51059,-2.21844,-13.6439,88.9088
2023-03-10 21:24:18:509,-2.19843,0.421975,-9.53313,-2.2117,-13.6322,88.8865
2023-03-10 21:24:18:519,-2.14484,0.409926,-9.53916,-2.20384,-13.624,88.8622
2023-03-10 21:24:18:529,-2.1659,0.375394,-9.53503,-2.19048,-13.6166,88.8404
2023-03-10 21:24:18:539,-2.22335,0.369625,-9.48944,-2.17717,-13.6136,88.8255
2023-03-10 21:24:18:549,-2.2429,0.350018,-9.46276,-2.16602,-13.609,88.8163
2023-03-10 21:24:18:559,-2.22624,0.337865,-9.4705,-2.15819,-13.6052,88.8093
2023-03-10 21:24:18:569,-2.21458,0.362876,-9.48187,-2.15161,-13.6006,88.8014
2023-03-10 21:24:18:579,-2.21221,0.36598,-9.48516,-2.15001,-13.5941,88.7998
2023-03-10 21:24:18:589,-2.21732,0.37641,-9.48345,-2.14529,-13.5864,88.7998
2023-03-10 21:24:18:599,-2.20304,0.396047,-9.51559,-2.14495,-13.5799,88.7982
2023-03-10 21:24:18:609,-2.2117,0.393888,-9.53554,-2.14461,-13.5754,88.7951
2023-03-10 21:24:18:619,-2.20896,0.393018,-9.5242,-2.14099,-13.5741,88.7968
2023-03-10 21:24:18:629,-2.2242,0.382485,-9.49558,-2.13656,-13.5737,88.7987
2023-03-10 21:24:18:639,-2.24882,0.372474,-9.48286,-2.13075,-13.5763,88.8012
2023-03-10 21:24:18:649,-2.25836,0.35604,-9.48251,-2.12802,-13.5783,88.8054
2023-03-10 21:24:18:659,-2.26721,0.347485,-9.48879,-2.12311,-13.5848,88.8059
2023-03-10 21:24:18:669,-2.25461,0.354081,-9.48709,-2.11897,-13.5925,88.8062
2023-03-10 21:24:18:679,-2.26247,0.339656,-9.48579,-2.11492,-13.6004,88.8089
2023-03-10 21:24:18:689,-2.27496,0.321598,-9.48225,-2.11095,-13.6117,88.8102
2023-03-10 21:24:18:699,-2.26804,0.333545,-9.4721,-2.11181,-13.6196,88.8152
2023-03-10 21:24:18:709,-2.28862,0.334027,-9.48147,-2.11164,-13.632,88.8192
2023-03-10 21:24:18:719,-2.30032,0.341095,-9.46831,-2.11215,-13.6441,88.8275
2023-03-10 21:24:18:729,-2.33289,0.350774,-9.4492,-2.11377,-13.6499,88.8354
2023-03-10 21:24:18:739,-2.36909,0.348575,-9.44111,-2.11669,-13.6625,88.8423
2023-03-10 21:24:18:749,-2.38373,0.352197,-9.43845,-2.12248,-13.6758,88.8501
2023-03-10 21:24:18:759,-2.3817,0.360683,-9.43948,-2.12647,-13.6882,88.8528
2023-03-10 21:24:18:769,-2.38482,0.388027,-9.43862,-2.13433,-13.6983,88.8549
2023-03-10 21:24:18:779,-2.38845,0.400845,-9.46113,-2.14373,-13.7084,88.8555
2023-03-10 21:24:18:789,-2.38526,0.406198,-9.48342,-2.15287,-13.715,88.8532
2023-03-10 21:24:18:799,-2.37995,0.410319,-9.50103,-2.16024,-13.7225,88.8461
2023-03-10 21:24:18:809,-2.38104,0.419294,-9.53214,-2.16675,-13.7312,88.8371
2023-03-10 21:24:18:819,-2.36346,0.418141,-9.5268,-2.16962,-13.7379,88.8218
2023-03-10 21:24:18:829,-2.36475,0.412015,-9.5098,-2.17187,-13.7424,88.8107
2023-03-10 21:24:18:839,-2.35263,0.417412,-9.49786,-2.17234,-13.746,88.7971
2023-03-10 21:24:18:849,-2.31814,0.408207,-9.508,-2.17305,-13.7489,88.7826
2023-03-10 21:24:18:859,-2.31829,0.412813,-9.51378,-2.17487,-13.7485,88.7672
2023-03-10 21:24:18:869,-2.31307,0.419012,-9.52035,-2.17571,-13.7525,88.7576
2023-03-10 21:24:18:879,-2.30655,0.410725,-9.51478,-2.17423,-13.7564,88.7442
2023-03-10 21:24:18:889,-2.31448,0.409468,-9.48004,-2.17155,-13.7605,88.7317
2023-03-10 21:24:18:899,-2.33423,0.386283,-9.46057,-2.1707,-13.7622,88.7196
2023-03-10 21:24:18:909,-2.33407,0.382323,-9.44293,-2.16934,-13.7659,88.7097
2023-03-10 21:24:18:919,-2.33227,0.385737,-9.45839,-2.16935,-13.7694,88.701
2023-03-10 21:24:18:929,-2.3363,0.409265,-9.50497,-2.1748,-13.7722,88.6905
2023-03-10 21:24:18:939,-2.3439,0.41985,-9.54503,-2.17927,-13.7737,88.6837
2023-03-10 21:24:18:949,-2.3378,0.424041,-9.54285,-2.18112,-13.7778,88.6739
