Timestamp,Acceleration_x,Acceleration_y,Acceleration_z,roll,pitch,yaw
2023-03-15 15:42:06:256,-0.246823,0.781928,-9.71769,-4.48133,-1.17692,-35.3784
2023-03-15 15:42:06:263,-0.259663,0.792422,-9.73879,-4.492,-1.17765,-35.3885
2023-03-15 15:42:06:273,-0.257953,0.814378,-9.76067,-4.50386,-1.17359,-35.4008
2023-03-15 15:42:06:283,-0.246721,0.813381,-9.77604,-4.51385,-1.16807,-35.4163
2023-03-15 15:42:06:293,-0.237142,0.814925,-9.76405,-4.52134,-1.1603,-35.434
2023-03-15 15:42:06:303,-0.233053,0.833556,-9.74958,-4.52493,-1.15531,-35.4555
2023-03-15 15:42:06:313,-0.24667,0.831914,-9.73271,-4.53124,-1.15217,-35.4781
2023-03-15 15:42:06:323,-0.239813,0.801136,-9.70163,-4.53499,-1.15061,-35.4963
2023-03-15 15:42:06:333,-0.222347,0.797198,-9.71381,-4.53934,-1.14595,-35.5197
2023-03-15 15:42:06:343,-0.198017,0.830637,-9.74515,-4.5476,-1.13814,-35.5423
2023-03-15 15:42:06:353,-0.140677,0.819185,-9.78837,-4.55299,-1.13205,-35.5704
2023-03-15 15:42:06:363,-0.0937679,0.806224,-9.8185,-4.55937,-1.12814,-35.5935
2023-03-15 15:42:06:374,-0.0946882,0.814349,-9.79442,-4.56213,-1.12832,-35.6166
2023-03-15 15:42:06:383,-0.136436,0.794162,-9.76865,-4.56327,-1.12863,-35.6331
2023-03-15 15:42:06:394,-0.179514,0.797491,-9.75117,-4.564,-1.13676,-35.6482
2023-03-15 15:42:06:404,-0.189272,0.798362,-9.7316,-4.5625,-1.13968,-35.6615
2023-03-15 15:42:06:414,-0.190085,0.807466,-9.72547,-4.56017,-1.14128,-35.6737
2023-03-15 15:42:06:424,-0.19163,0.81616,-9.73086,-4.55476,-1.13833,-35.6828
2023-03-15 15:42:06:433,-0.178151,0.809342,-9.7532,-4.55257,-1.13622,-35.6913
2023-03-15 15:42:06:444,-0.186119,0.829738,-9.76847,-4.55291,-1.13446,-35.6958
2023-03-15 15:42:06:454,-0.240239,0.849903,-9.7504,-4.55017,-1.13652,-35.701
2023-03-15 15:42:06:464,-0.292102,0.834495,-9.71837,-4.54503,-1.1392,-35.7056
2023-03-15 15:42:06:474,-0.318039,0.831943,-9.69342,-4.53872,-1.13984,-35.714
2023-03-15 15:42:06:484,-0.321974,0.833974,-9.67959,-4.52974,-1.13902,-35.7284
2023-03-15 15:42:06:494,-0.303536,0.829245,-9.67027,-4.52179,-1.13707,-35.7451
2023-03-15 15:42:06:504,-0.275381,0.828211,-9.67072,-4.51405,-1.1373,-35.7647
2023-03-15 15:42:06:514,-0.276622,0.828575,-9.70731,-4.51279,-1.1353,-35.7885
2023-03-15 15:42:06:524,-0.269901,0.828032,-9.74625,-4.5138,-1.13051,-35.8172
2023-03-15 15:42:06:533,-0.250078,0.83234,-9.78072,-4.51441,-1.12502,-35.8435
2023-03-15 15:42:06:544,-0.223624,0.836303,-9.79936,-4.50791,-1.12113,-35.8699
2023-03-15 15:42:06:554,-0.225957,0.830079,-9.79378,-4.50051,-1.11511,-35.8996
2023-03-15 15:42:06:564,-0.244467,0.830372,-9.79608,-4.49208,-1.1107,-35.9309
2023-03-15 15:42:06:574,-0.2203,0.828496,-9.77044,-4.48258,-1.10908,-35.9672
2023-03-15 15:42:06:584,-0.195524,0.789008,-9.72587,-4.47103,-1.10734,-36.0082
2023-03-15 15:42:06:594,-0.186258,0.77087,-9.72836,-4.45957,-1.10644,-36.0455
2023-03-15 15:42:06:604,-0.185657,0.764625,-9.71722,-4.44595,-1.10214,-36.082
2023-03-15 15:42:06:614,-0.173311,0.75815,-9.70604,-4.43683,-1.09986,-36.1221
2023-03-15 15:42:06:624,-0.134665,0.739968,-9.71585,-4.42457,-1.0976,-36.1613
2023-03-15 15:42:06:633,-0.105524,0.742421,-9.69076,-4.41715,-1.09727,-36.1962
2023-03-15 15:42:06:643,-0.107928,0.735166,-9.69573,-4.41001,-1.09687,-36.2328
2023-03-15 15:42:06:653,-0.109608,0.746716,-9.69512,-4.40189,-1.09787,-36.2657
2023-03-15 15:42:06:663,-0.116566,0.732952,-9.70212,-4.39402,-1.0978,-36.2937
2023-03-15 15:42:06:674,-0.12342,0.740006,-9.75288,-4.38879,-1.09672,-36.3218
2023-03-15 15:42:06:683,-0.104231,0.741029,-9.76746,-4.38214,-1.0855,-36.3411
2023-03-15 15:42:06:693,-0.0841507,0.696182,-9.6892,-4.36941,-1.07343,-36.3596
2023-03-15 15:42:06:703,-0.0930544,0.697818,-9.70544,-4.36304,-1.06476,-36.3732
2023-03-15 15:42:06:714,-0.112106,0.707163,-9.70837,-4.359,-1.05518,-36.3819
2023-03-15 15:42:06:723,-0.107751,0.699843,-9.70156,-4.35786,-1.05059,-36.3889
2023-03-15 15:42:06:733,-0.103499,0.712665,-9.70329,-4.35563,-1.04652,-36.3902
2023-03-15 15:42:06:743,-0.0945916,0.723932,-9.71805,-4.35608,-1.04043,-36.3957
2023-03-15 15:42:06:753,-0.0703279,0.719803,-9.72485,-4.35858,-1.03065,-36.3964
2023-03-15 15:42:06:763,-0.0807014,0.742229,-9.71691,-4.36289,-1.02113,-36.3937
2023-03-15 15:42:06:773,-0.100648,0.770848,-9.74703,-4.36776,-1.01517,-36.3936
2023-03-15 15:42:06:783,-0.119383,0.792787,-9.76033,-4.37382,-1.01428,-36.3901
2023-03-15 15:42:06:793,-0.143974,0.805774,-9.75844,-4.38322,-1.01435,-36.3919
2023-03-15 15:42:06:803,-0.136968,0.800542,-9.76117,-4.38789,-1.01628,-36.3929
2023-03-15 15:42:06:813,-0.156485,0.805548,-9.776,-4.38732,-1.0195,-36.3946
2023-03-15 15:42:06:823,-0.153516,0.817485,-9.78761,-4.38987,-1.02279,-36.3935
2023-03-15 15:42:06:833,-0.148809,0.82173,-9.77835,-4.39503,-1.02424,-36.3916
2023-03-15 15:42:06:843,-0.168287,0.817104,-9.77414,-4.39519,-1.02342,-36.3854
2023-03-15 15:42:06:853,-0.189497,0.793245,-9.77957,-4.38962,-1.02288,-36.3843
2023-03-15 15:42:06:863,-0.182366,0.790477,-9.77468,-4.38389,-1.02486,-36.3815
2023-03-15 15:42:06:873,-0.184911,0.776551,-9.75064,-4.37644,-1.02376,-36.3781
2023-03-15 15:42:06:883,-0.216669,0.764456,-9.73726,-4.36965,-1.02422,-36.3736
2023-03-15 15:42:06:893,-0.24612,0.771243,-9.72231,-4.36493,-1.02493,-36.3722
2023-03-15 15:42:06:903,-0.259422,0.765884,-9.72085,-4.35727,-1.02897,-36.3779
2023-03-15 15:42:06:913,-0.263813,0.756882,-9.72328,-4.35062,-1.0329,-36.3827
2023-03-15 15:42:06:923,-0.271307,0.748067,-9.72185,-4.34776,-1.03406,-36.3917
2023-03-15 15:42:06:933,-0.240275,0.735389,-9.74604,-4.34224,-1.03647,-36.4044
2023-03-15 15:42:06:943,-0.230372,0.739274,-9.75209,-4.33704,-1.03959,-36.4193
2023-03-15 15:42:06:953,-0.231741,0.726129,-9.75209,-4.33001,-1.04334,-36.4339
2023-03-15 15:42:06:963,-0.216841,0.718586,-9.72259,-4.32116,-1.04496,-36.4455
2023-03-15 15:42:06:973,-0.204536,0.704582,-9.6888,-4.31504,-1.04529,-36.4619
2023-03-15 15:42:06:983,-0.194424,0.697403,-9.66412,-4.30897,-1.04262,-36.4766
2023-03-15 15:42:06:993,-0.171242,0.679211,-9.64407,-4.3076,-1.03687,-36.489
2023-03-15 15:42:07:3,-0.15039,0.696505,-9.64794,-4.3092,-1.02912,-36.498
2023-03-15 15:42:07:13,-0.170363,0.730325,-9.7004,-4.3124,-1.01979,-36.5071
2023-03-15 15:42:07:23,-0.189245,0.73855,-9.71324,-4.31854,-1.01339,-36.518
2023-03-15 15:42:07:33,-0.18395,0.738861,-9.71459,-4.32635,-1.00627,-36.5304
2023-03-15 15:42:07:43,-0.18603,0.751145,-9.71268,-4.33383,-0.999875,-36.5469
2023-03-15 15:42:07:53,-0.176767,0.767533,-9.72983,-4.3423,-0.991946,-36.5599
2023-03-15 15:42:07:63,-0.166571,0.776868,-9.74654,-4.35168,-0.989628,-36.575
2023-03-15 15:42:07:73,-0.156166,0.776346,-9.72124,-4.36006,-0.984772,-36.591
2023-03-15 15:42:07:83,-0.147574,0.762216,-9.73505,-4.36613,-0.980101,-36.6089
2023-03-15 15:42:07:93,-0.141013,0.785718,-9.78563,-4.37452,-0.975826,-36.6267
2023-03-15 15:42:07:103,-0.123725,0.78718,-9.77373,-4.3779,-0.97422,-36.645
2023-03-15 15:42:07:113,-0.119897,0.779328,-9.75182,-4.38272,-0.971077,-36.6671
2023-03-15 15:42:07:123,-0.0923806,0.753949,-9.73932,-4.38771,-0.967583,-36.6828
2023-03-15 15:42:07:133,-0.0870035,0.761195,-9.74534,-4.39154,-0.960773,-36.6955
2023-03-15 15:42:07:143,-0.0850638,0.784908,-9.7794,-4.39628,-0.958102,-36.7041
2023-03-15 15:42:07:153,-0.115489,0.802202,-9.80092,-4.40172,-0.955741,-36.7141
2023-03-15 15:42:07:163,-0.137762,0.800687,-9.7575,-4.40424,-0.956476,-36.7236
2023-03-15 15:42:07:173,-0.130631,0.781072,-9.73354,-4.40505,-0.954483,-36.7294
2023-03-15 15:42:07:183,-0.118543,0.765536,-9.72165,-4.39991,-0.951001,-36.7366
2023-03-15 15:42:07:193,-0.0889751,0.758836,-9.70902,-4.40206,-0.949937,-36.7413
2023-03-15 15:42:07:203,-0.0983625,0.74312,-9.70829,-4.39928,-0.951347,-36.7436
2023-03-15 15:42:07:213,-0.139906,0.737104,-9.67593,-4.40034,-0.95246,-36.7439
2023-03-15 15:42:07:223,-0.188359,0.726488,-9.64647,-4.40378,-0.958125,-36.742
2023-03-15 15:42:07:233,-0.187427,0.750204,-9.66365,-4.40467,-0.961835,-36.7446
2023-03-15 15:42:07:243,-0.19408,0.776173,-9.72622,-4.4133,-0.95739,-36.7466
2023-03-15 15:42:07:253,-0.174329,0.802423,-9.78539,-4.42902,-0.95467,-36.7537
2023-03-15 15:42:07:263,-0.124636,0.81272,-9.8659,-4.44147,-0.953619,-36.7593
2023-03-15 15:42:07:273,-0.103509,0.831341,-9.88521,-4.44971,-0.952255,-36.7657
2023-03-15 15:42:07:283,-0.12209,0.81893,-9.83082,-4.45117,-0.958646,-36.7721
2023-03-15 15:42:07:293,-0.155432,0.780742,-9.77039,-4.44612,-0.968029,-36.7767
2023-03-15 15:42:07:303,-0.177446,0.749788,-9.71798,-4.4382,-0.977229,-36.7812
2023-03-15 15:42:07:313,-0.172909,0.73494,-9.67876,-4.4268,-0.986216,-36.7879
2023-03-15 15:42:07:323,-0.157062,0.731897,-9.65895,-4.42064,-0.992093,-36.7948
2023-03-15 15:42:07:333,-0.135241,0.72879,-9.65737,-4.41526,-0.998211,-36.7987
2023-03-15 15:42:07:343,-0.123417,0.749526,-9.67246,-4.4157,-1.00135,-36.7957
2023-03-15 15:42:07:353,-0.136855,0.753772,-9.70325,-4.42141,-1.00111,-36.7869
2023-03-15 15:42:07:363,-0.160209,0.785669,-9.72354,-4.42649,-0.999494,-36.7781
2023-03-15 15:42:07:373,-0.157862,0.791326,-9.71751,-4.42892,-0.994324,-36.7625
2023-03-15 15:42:07:383,-0.148628,0.793763,-9.68361,-4.43276,-0.986562,-36.7509
2023-03-15 15:42:07:393,-0.116519,0.769284,-9.63643,-4.43465,-0.97547,-36.7344
2023-03-15 15:42:07:403,-0.101194,0.755069,-9.62029,-4.44077,-0.959063,-36.7085
2023-03-15 15:42:07:413,-0.119905,0.753768,-9.67316,-4.44939,-0.936348,-36.6751
2023-03-15 15:42:07:423,-0.134987,0.788866,-9.72585,-4.46591,-0.912859,-36.64
2023-03-15 15:42:07:433,-0.165224,0.82378,-9.75046,-4.48365,-0.890348,-36.6042
2023-03-15 15:42:07:443,-0.211981,0.82929,-9.7715,-4.4984,-0.870148,-36.5666
2023-03-15 15:42:07:453,-0.246943,0.816375,-9.79096,-4.51384,-0.85046,-36.5354
2023-03-15 15:42:07:463,-0.279888,0.839859,-9.81013,-4.52562,-0.832094,-36.5086
2023-03-15 15:42:07:473,-0.274652,0.851744,-9.77753,-4.53628,-0.817824,-36.4903
2023-03-15 15:42:07:483,-0.183743,0.804012,-9.69262,-4.54211,-0.80131,-36.479
2023-03-15 15:42:07:493,-0.126465,0.781462,-9.69976,-4.54935,-0.785489,-36.4692
2023-03-15 15:42:07:503,-0.133189,0.826477,-9.75592,-4.56226,-0.766036,-36.4608
2023-03-15 15:42:07:513,-0.144161,0.844423,-9.77813,-4.57864,-0.751046,-36.4546
2023-03-15 15:42:07:523,-0.126932,0.844929,-9.78529,-4.59216,-0.736958,-36.4536
2023-03-15 15:42:07:533,-0.126294,0.853531,-9.8234,-4.60384,-0.730503,-36.4538
2023-03-15 15:42:07:543,-0.157398,0.848226,-9.81397,-4.61091,-0.729055,-36.4585
2023-03-15 15:42:07:553,-0.206767,0.85096,-9.79902,-4.61512,-0.732085,-36.4683
2023-03-15 15:42:07:563,-0.23004,0.847062,-9.77327,-4.61865,-0.732455,-36.4786
2023-03-15 15:42:07:573,-0.245266,0.810545,-9.73162,-4.61528,-0.734165,-36.4946
2023-03-15 15:42:07:583,-0.246353,0.787606,-9.71173,-4.61097,-0.736142,-36.5136
2023-03-15 15:42:07:593,-0.215938,0.786345,-9.71138,-4.60837,-0.737099,-36.5349
2023-03-15 15:42:07:603,-0.170827,0.783209,-9.71493,-4.61137,-0.736693,-36.5643
2023-03-15 15:42:07:613,-0.141323,0.756434,-9.69595,-4.6096,-0.732654,-36.5923
2023-03-15 15:42:07:623,-0.130142,0.749746,-9.67939,-4.60548,-0.72858,-36.623
2023-03-15 15:42:07:633,-0.107797,0.749739,-9.69245,-4.60511,-0.726538,-36.6556
2023-03-15 15:42:07:643,-0.0762363,0.761891,-9.70948,-4.60347,-0.721723,-36.6866
2023-03-15 15:42:07:653,-0.0592339,0.768931,-9.73307,-4.60976,-0.720804,-36.7162
2023-03-15 15:42:07:663,-0.0616456,0.778682,-9.74648,-4.61727,-0.724607,-36.7466
2023-03-15 15:42:07:673,-0.0592796,0.776699,-9.76483,-4.62271,-0.728051,-36.7764
2023-03-15 15:42:07:683,-0.0560622,0.779125,-9.76228,-4.62932,-0.729831,-36.8037
2023-03-15 15:42:07:693,-0.0673127,0.787436,-9.75482,-4.6349,-0.732931,-36.8289
2023-03-15 15:42:07:703,-0.0942398,0.789217,-9.74051,-4.64088,-0.738748,-36.8507
2023-03-15 15:42:07:713,-0.102072,0.796783,-9.72635,-4.64607,-0.743628,-36.8705
2023-03-15 15:42:07:723,-0.125236,0.793616,-9.72998,-4.65355,-0.74629,-36.8907
2023-03-15 15:42:07:733,-0.156279,0.801913,-9.73287,-4.65794,-0.749649,-36.9096
2023-03-15 15:42:07:743,-0.165405,0.805185,-9.7138,-4.66195,-0.751087,-36.9285
2023-03-15 15:42:07:753,-0.195191,0.801691,-9.68774,-4.66769,-0.753275,-36.9458
2023-03-15 15:42:07:763,-0.204009,0.805514,-9.68012,-4.67321,-0.757121,-36.9643
2023-03-15 15:42:07:773,-0.189942,0.806461,-9.703,-4.68075,-0.755163,-36.9847
2023-03-15 15:42:07:783,-0.172833,0.822405,-9.73661,-4.68781,-0.753016,-37.0018
2023-03-15 15:42:07:793,-0.154116,0.836648,-9.7824,-4.69838,-0.746506,-37.024
2023-03-15 15:42:07:803,-0.135769,0.846333,-9.80545,-4.70701,-0.737563,-37.0389
2023-03-15 15:42:07:813,-0.105245,0.839467,-9.79372,-4.70893,-0.729028,-37.0576
2023-03-15 15:42:07:823,-0.101705,0.842071,-9.75855,-4.70997,-0.71721,-37.0691
2023-03-15 15:42:07:833,-0.0996138,0.837067,-9.74119,-4.7125,-0.708275,-37.079
2023-03-15 15:42:07:843,-0.100172,0.822723,-9.72024,-4.71242,-0.699673,-37.094
2023-03-15 15:42:07:853,-0.0944204,0.816253,-9.69714,-4.70992,-0.692915,-37.1097
2023-03-15 15:42:07:863,-0.0992191,0.822242,-9.69996,-4.70884,-0.684726,-37.1227
2023-03-15 15:42:07:874,-0.0767255,0.827945,-9.70973,-4.70991,-0.67488,-37.1333
2023-03-15 15:42:07:883,-0.0616622,0.828622,-9.71654,-4.71819,-0.669339,-37.1406
2023-03-15 15:42:07:893,-0.067662,0.857181,-9.76499,-4.72294,-0.663992,-37.1464
2023-03-15 15:42:07:903,-0.0929252,0.881109,-9.79025,-4.72654,-0.655642,-37.1524
2023-03-15 15:42:07:913,-0.090183,0.88442,-9.80806,-4.73121,-0.650927,-37.1569
2023-03-15 15:42:07:924,-0.100796,0.881361,-9.80948,-4.73132,-0.64472,-37.1655
2023-03-15 15:42:07:933,-0.0957446,0.863937,-9.77162,-4.72726,-0.641986,-37.1697
2023-03-15 15:42:07:943,-0.0920378,0.824014,-9.73965,-4.7184,-0.636774,-37.1729
2023-03-15 15:42:07:953,-0.080619,0.830328,-9.70142,-4.70918,-0.634685,-37.1745
2023-03-15 15:42:07:963,-0.0940315,0.831968,-9.67572,-4.70114,-0.636272,-37.1755
2023-03-15 15:42:07:973,-0.125561,0.808814,-9.64054,-4.69225,-0.639302,-37.1796
2023-03-15 15:42:07:983,-0.136723,0.782298,-9.61733,-4.68592,-0.648015,-37.1878
2023-03-15 15:42:07:994,-0.134805,0.80172,-9.68748,-4.68136,-0.651601,-37.1947
2023-03-15 15:42:08:4,-0.176788,0.83168,-9.76031,-4.68239,-0.654828,-37.2021
2023-03-15 15:42:08:14,-0.186188,0.834576,-9.77889,-4.68603,-0.664942,-37.2126
2023-03-15 15:42:08:24,-0.212017,0.81528,-9.76392,-4.68675,-0.674612,-37.2274
2023-03-15 15:42:08:34,-0.235757,0.808334,-9.71689,-4.68505,-0.682867,-37.2426
2023-03-15 15:42:08:43,-0.231428,0.804687,-9.7222,-4.68872,-0.684457,-37.2594
2023-03-15 15:42:08:54,-0.18058,0.812382,-9.7566,-4.68976,-0.684846,-37.2734
2023-03-15 15:42:08:63,-0.133331,0.822938,-9.75253,-4.69192,-0.680869,-37.2874
2023-03-15 15:42:08:73,-0.11414,0.822847,-9.72408,-4.69332,-0.673203,-37.3009
2023-03-15 15:42:08:83,-0.121988,0.824244,-9.70826,-4.69458,-0.667034,-37.3162
2023-03-15 15:42:08:93,-0.115099,0.816812,-9.69539,-4.69298,-0.658855,-37.3284
2023-03-15 15:42:08:103,-0.127691,0.827887,-9.7143,-4.69309,-0.652916,-37.34
2023-03-15 15:42:08:114,-0.135324,0.817225,-9.74517,-4.69676,-0.642429,-37.3505
2023-03-15 15:42:08:123,-0.0975912,0.81983,-9.76278,-4.70021,-0.633577,-37.3646
2023-03-15 15:42:08:134,-0.0738985,0.808578,-9.78797,-4.69837,-0.630673,-37.3767
2023-03-15 15:42:08:143,-0.0585325,0.808046,-9.75453,-4.69375,-0.632303,-37.3902
2023-03-15 15:42:08:154,-0.0693149,0.782478,-9.73262,-4.68904,-0.635183,-37.4011
2023-03-15 15:42:08:163,-0.0926612,0.776067,-9.73048,-4.68421,-0.63906,-37.4119
2023-03-15 15:42:08:174,-0.111357,0.764826,-9.70101,-4.67901,-0.645995,-37.4242
2023-03-15 15:42:08:183,-0.118635,0.773102,-9.6776,-4.67383,-0.649154,-37.4303
2023-03-15 15:42:08:193,-0.12287,0.770389,-9.66496,-4.67618,-0.649976,-37.44
2023-03-15 15:42:08:203,-0.11285,0.769949,-9.67027,-4.67757,-0.646335,-37.4499
2023-03-15 15:42:08:213,-0.102124,0.78006,-9.69112,-4.68115,-0.639493,-37.4577
2023-03-15 15:42:08:223,-0.0977641,0.794193,-9.68734,-4.68922,-0.63313,-37.46
2023-03-15 15:42:08:233,-0.109996,0.804511,-9.68995,-4.69651,-0.627969,-37.4608
2023-03-15 15:42:08:243,-0.154364,0.810001,-9.68212,-4.7024,-0.619886,-37.4633
2023-03-15 15:42:08:253,-0.173927,0.812861,-9.64964,-4.71077,-0.61861,-37.4694
2023-03-15 15:42:08:263,-0.132989,0.791436,-9.62343,-4.72173,-0.607027,-37.4781
2023-03-15 15:42:08:273,-0.131189,0.790247,-9.64244,-4.73531,-0.602786,-37.4871
2023-03-15 15:42:08:283,-0.153804,0.795773,-9.68338,-4.75312,-0.601436,-37.4985
2023-03-15 15:42:08:293,-0.163857,0.82786,-9.70056,-4.7716,-0.59793,-37.5118
2023-03-15 15:42:08:303,-0.164611,0.8192,-9.70027,-4.79516,-0.597769,-37.5256
2023-03-15 15:42:08:313,-0.180716,0.816034,-9.68475,-4.81687,-0.596502,-37.5389
2023-03-15 15:42:08:323,-0.210999,0.83478,-9.67405,-4.84291,-0.589923,-37.5566
2023-03-15 15:42:08:333,-0.182208,0.86361,-9.71012,-4.87083,-0.580864,-37.5814
2023-03-15 15:42:08:343,-0.132216,0.894321,-9.75439,-4.90495,-0.56525,-37.6073
2023-03-15 15:42:08:353,-0.11703,0.902774,-9.7713,-4.93943,-0.548722,-37.6345
2023-03-15 15:42:08:363,-0.0881132,0.911534,-9.79063,-4.97435,-0.529768,-37.6632
2023-03-15 15:42:08:373,-0.050986,0.937407,-9.81582,-5.00869,-0.512379,-37.6921
2023-03-15 15:42:08:383,-0.0168894,0.939042,-9.79355,-5.03877,-0.498245,-37.7217
2023-03-15 15:42:08:394,-0.00154392,0.953859,-9.82697,-5.07004,-0.484639,-37.7505
2023-03-15 15:42:08:403,0.033898,0.965633,-9.83113,-5.09501,-0.470425,-37.7793
2023-03-15 15:42:08:413,0.0417868,0.947102,-9.79095,-5.11116,-0.458964,-37.8038
2023-03-15 15:42:08:423,0.0199822,0.925558,-9.75596,-5.12562,-0.451406,-37.8283
2023-03-15 15:42:08:433,0.0020265,0.941993,-9.74474,-5.14279,-0.448167,-37.85
2023-03-15 15:42:08:443,-0.0109142,0.944248,-9.76344,-5.1582,-0.439514,-37.8704
2023-03-15 15:42:08:454,0.00691989,0.952782,-9.77001,-5.16907,-0.430898,-37.8903
2023-03-15 15:42:08:463,0.0187544,0.969084,-9.78742,-5.1789,-0.422946,-37.9081
2023-03-15 15:42:08:473,0.0378196,0.974638,-9.84777,-5.1836,-0.408923,-37.9234
2023-03-15 15:42:08:483,0.0619409,0.950858,-9.81423,-5.18315,-0.389833,-37.9381
2023-03-15 15:42:08:493,0.0645821,0.913926,-9.75986,-5.17929,-0.379903,-37.9491
2023-03-15 15:42:08:503,0.0647682,0.89049,-9.73256,-5.17516,-0.366402,-37.956
2023-03-15 15:42:08:514,0.0481936,0.893134,-9.7311,-5.16922,-0.358471,-37.9599
2023-03-15 15:42:08:523,0.0391006,0.893619,-9.72013,-5.16178,-0.350842,-37.9637
2023-03-15 15:42:08:533,0.0308539,0.868821,-9.68146,-5.15575,-0.344427,-37.9701
2023-03-15 15:42:08:543,0.0295461,0.883797,-9.7044,-5.1538,-0.33872,-37.9766
2023-03-15 15:42:08:554,0.0318865,0.906517,-9.77206,-5.15838,-0.33297,-37.9822
2023-03-15 15:42:08:563,0.0358612,0.91258,-9.8386,-5.16237,-0.329066,-37.9891
2023-03-15 15:42:08:573,0.0347068,0.918119,-9.83772,-5.16085,-0.331213,-37.9954
2023-03-15 15:42:08:583,0.0327731,0.905127,-9.81686,-5.1575,-0.331448,-38.0005
2023-03-15 15:42:08:593,0.035311,0.878394,-9.80068,-5.14685,-0.331031,-38.0066
2023-03-15 15:42:08:603,0.0366779,0.864606,-9.79052,-5.13417,-0.331371,-38.0063
2023-03-15 15:42:08:613,0.0362578,0.850963,-9.77137,-5.11705,-0.332351,-37.9989
2023-03-15 15:42:08:623,0.0228119,0.837322,-9.74138,-5.10047,-0.33002,-37.9905
2023-03-15 15:42:08:633,-0.010243,0.842644,-9.72555,-5.0865,-0.331555,-37.9821
2023-03-15 15:42:08:643,-0.0491565,0.843287,-9.71192,-5.07261,-0.332813,-37.9716
2023-03-15 15:42:08:653,-0.0733253,0.856458,-9.7179,-5.0597,-0.330309,-37.9641
2023-03-15 15:42:08:663,-0.0723301,0.834714,-9.70994,-5.04855,-0.329546,-37.9584
2023-03-15 15:42:08:673,-0.0649666,0.806531,-9.70654,-5.03399,-0.328328,-37.9526
2023-03-15 15:42:08:683,-0.0612831,0.793938,-9.68663,-5.02303,-0.327321,-37.9484
2023-03-15 15:42:08:693,-0.0663871,0.792127,-9.6606,-5.013,-0.327402,-37.9443
2023-03-15 15:42:08:703,-0.0568174,0.790522,-9.6512,-5.00378,-0.327651,-37.9442
2023-03-15 15:42:08:713,-0.0685876,0.802021,-9.65665,-4.99573,-0.330207,-37.9467
2023-03-15 15:42:08:723,-0.0626101,0.804222,-9.67247,-4.99198,-0.330643,-37.9501
2023-03-15 15:42:08:733,-0.0550236,0.802145,-9.71417,-4.98989,-0.332113,-37.9527
2023-03-15 15:42:08:743,-0.0606442,0.807142,-9.73094,-4.98956,-0.335615,-37.9556
2023-03-15 15:42:08:753,-0.0523516,0.82022,-9.73027,-4.98984,-0.335766,-37.96
2023-03-15 15:42:08:763,-0.047876,0.818814,-9.75669,-4.99231,-0.337913,-37.9627
2023-03-15 15:42:08:773,-0.038212,0.836167,-9.77294,-4.99196,-0.339626,-37.9637
2023-03-15 15:42:08:783,-0.0509574,0.845978,-9.75857,-4.99389,-0.337849,-37.9612
2023-03-15 15:42:08:793,-0.0369698,0.830816,-9.73982,-4.99339,-0.333367,-37.9575
2023-03-15 15:42:08:803,-0.0664905,0.825093,-9.68008,-4.98904,-0.327741,-37.9499
2023-03-15 15:42:08:813,-0.112656,0.829761,-9.67516,-4.98947,-0.322757,-37.9471
2023-03-15 15:42:08:823,-0.126978,0.85288,-9.70126,-4.98859,-0.31733,-37.9433
2023-03-15 15:42:08:833,-0.137446,0.857058,-9.7204,-4.99428,-0.314366,-37.9398
2023-03-15 15:42:08:843,-0.155391,0.849049,-9.72853,-5.00028,-0.313586,-37.9444
2023-03-15 15:42:08:853,-0.148437,0.848115,-9.72446,-5.00417,-0.307815,-37.9493
2023-03-15 15:42:08:863,-0.151794,0.865155,-9.72946,-5.00973,-0.305172,-37.9585
2023-03-15 15:42:08:873,-0.158895,0.881753,-9.71851,-5.01582,-0.303324,-37.9728
2023-03-15 15:42:08:883,-0.167519,0.888034,-9.70409,-5.02488,-0.304016,-37.9916
2023-03-15 15:42:08:893,-0.15533,0.902754,-9.71947,-5.03296,-0.298952,-38.0112
2023-03-15 15:42:08:903,-0.127478,0.897861,-9.74149,-5.03942,-0.298028,-38.0374
2023-03-15 15:42:08:914,-0.110461,0.904284,-9.76231,-5.04744,-0.292595,-38.0644
2023-03-15 15:42:08:923,-0.0912647,0.899347,-9.75908,-5.05421,-0.285909,-38.0912
2023-03-15 15:42:08:934,-0.033452,0.894432,-9.76509,-5.05879,-0.278901,-38.1248
2023-03-15 15:42:08:943,0.00383253,0.885949,-9.75497,-5.06349,-0.271972,-38.1568
2023-03-15 15:42:08:954,0.00113916,0.884392,-9.71808,-5.06526,-0.267493,-38.1869
2023-03-15 15:42:08:963,-0.0172731,0.879958,-9.70976,-5.06526,-0.262268,-38.216
2023-03-15 15:42:08:973,-0.03706,0.880266,-9.72099,-5.07045,-0.260622,-38.2413
2023-03-15 15:42:08:983,-0.0369894,0.881864,-9.72093,-5.06973,-0.258295,-38.2658
2023-03-15 15:42:08:993,-0.0114432,0.892971,-9.73781,-5.07028,-0.25265,-38.2893
2023-03-15 15:42:09:3,0.00757196,0.914148,-9.74735,-5.07517,-0.251067,-38.3087
2023-03-15 15:42:09:13,0.00233783,0.914162,-9.75615,-5.07995,-0.249276,-38.3264
2023-03-15 15:42:09:23,-0.0310536,0.913736,-9.73649,-5.08295,-0.247336,-38.3421
2023-03-15 15:42:09:33,-0.0591013,0.922714,-9.7037,-5.08261,-0.2447,-38.3561
2023-03-15 15:42:09:43,-0.0560145,0.922193,-9.67906,-5.08611,-0.241273,-38.3701
2023-03-15 15:42:09:54,-0.0690583,0.928792,-9.66442,-5.08759,-0.235379,-38.3881
2023-03-15 15:42:09:63,-0.0714494,0.931718,-9.65897,-5.09346,-0.229261,-38.4012
2023-03-15 15:42:09:74,-0.0534146,0.918913,-9.67817,-5.09857,-0.225189,-38.4173
2023-03-15 15:42:09:83,-0.051062,0.940143,-9.70045,-5.10818,-0.223045,-38.4314
2023-03-15 15:42:09:93,-0.0642059,0.940568,-9.73814,-5.11541,-0.219749,-38.4463
2023-03-15 15:42:09:103,-0.0577489,0.960107,-9.7728,-5.12436,-0.215832,-38.4583
2023-03-15 15:42:09:114,-0.0515277,0.969233,-9.79449,-5.13002,-0.214105,-38.474
2023-03-15 15:42:09:123,-0.035105,0.97136,-9.79014,-5.13571,-0.210845,-38.4895
2023-03-15 15:42:09:134,-0.024137,0.943971,-9.78743,-5.13694,-0.213041,-38.5033
2023-03-15 15:42:09:143,-0.0344738,0.934245,-9.77997,-5.13708,-0.215266,-38.5147
2023-03-15 15:42:09:154,-0.0650107,0.940795,-9.77059,-5.13352,-0.216206,-38.5255
2023-03-15 15:42:09:163,-0.0900237,0.961515,-9.77473,-5.13284,-0.215753,-38.5381
2023-03-15 15:42:09:174,-0.0874187,0.937344,-9.78065,-5.12705,-0.216441,-38.5546
2023-03-15 15:42:09:183,-0.0734475,0.938786,-9.77123,-5.11977,-0.215392,-38.5696
2023-03-15 15:42:09:193,-0.0585381,0.937526,-9.76853,-5.11384,-0.212808,-38.5864
2023-03-15 15:42:09:203,-0.053946,0.917151,-9.71873,-5.10638,-0.218077,-38.6058
2023-03-15 15:42:09:214,-0.0401953,0.896843,-9.69232,-5.09326,-0.220013,-38.6249
2023-03-15 15:42:09:223,-0.0459873,0.891431,-9.68606,-5.08193,-0.220898,-38.6405
2023-03-15 15:42:09:233,-0.0438799,0.88775,-9.66529,-5.07234,-0.221228,-38.6571
2023-03-15 15:42:09:243,-0.038139,0.885117,-9.67443,-5.06804,-0.219774,-38.671
2023-03-15 15:42:09:253,-0.0171083,0.907087,-9.70535,-5.0661,-0.214506,-38.6861
2023-03-15 15:42:09:263,-0.00778896,0.923043,-9.73702,-5.0648,-0.209406,-38.7012
2023-03-15 15:42:09:273,-0.0123247,0.925032,-9.7395,-5.06641,-0.203879,-38.7133
2023-03-15 15:42:09:283,-0.0509455,0.933471,-9.74551,-5.06406,-0.19399,-38.7264
2023-03-15 15:42:09:293,-0.0226194,0.92702,-9.78189,-5.05588,-0.175801,-38.7394
2023-03-15 15:42:09:303,0.0473087,0.877428,-9.73084,-5.04832,-0.161525,-38.7524
2023-03-15 15:42:09:313,0.0394207,0.857513,-9.68278,-5.04045,-0.151649,-38.7659
2023-03-15 15:42:09:323,0.00264401,0.854979,-9.67671,-5.03677,-0.147128,-38.7751
2023-03-15 15:42:09:333,0.00937653,0.846727,-9.66529,-5.0337,-0.147296,-38.7861
2023-03-15 15:42:09:343,0.02832,0.864125,-9.66664,-5.03742,-0.142573,-38.7934
2023-03-15 15:42:09:353,0.0235484,0.871504,-9.68642,-5.04496,-0.140276,-38.7988
2023-03-15 15:42:09:363,-0.00405072,0.882675,-9.73326,-5.04993,-0.140851,-38.8099
2023-03-15 15:42:09:373,-0.00961621,0.911043,-9.75541,-5.05717,-0.143051,-38.8209
2023-03-15 15:42:09:383,-0.0138828,0.915791,-9.76319,-5.06274,-0.148703,-38.8322
2023-03-15 15:42:09:393,-0.0102874,0.905601,-9.7751,-5.07104,-0.155978,-38.844
2023-03-15 15:42:09:403,-0.00655744,0.911593,-9.78767,-5.07228,-0.15987,-38.8594
2023-03-15 15:42:09:413,0.00381973,0.900472,-9.77458,-5.07476,-0.16255,-38.8736
2023-03-15 15:42:09:423,-0.00559423,0.890242,-9.74002,-5.07486,-0.169186,-38.8894
2023-03-15 15:42:09:433,-0.0207828,0.879832,-9.73672,-5.07482,-0.173955,-38.8988
2023-03-15 15:42:09:443,-0.0211657,0.872772,-9.7069,-5.07533,-0.175523,-38.905
2023-03-15 15:42:09:453,-0.0158438,0.876177,-9.70186,-5.07678,-0.17879,-38.9115
2023-03-15 15:42:09:463,-0.0266554,0.886941,-9.70894,-5.07823,-0.179621,-38.9191
2023-03-15 15:42:09:473,-0.0332597,0.891044,-9.71733,-5.07591,-0.180822,-38.9236
2023-03-15 15:42:09:483,-0.00383973,0.899256,-9.73472,-5.08009,-0.17806,-38.93
2023-03-15 15:42:09:493,0.0547715,0.896758,-9.76088,-5.08258,-0.178319,-38.936
2023-03-15 15:42:09:503,0.132371,0.859649,-9.81621,-5.08257,-0.176526,-38.9359
2023-03-15 15:42:09:513,0.298811,0.83876,-9.87237,-5.07732,-0.172592,-38.9198
2023-03-15 15:42:09:523,0.436923,0.831678,-9.84237,-5.06346,-0.16253,-38.8812
2023-03-15 15:42:09:533,0.219879,0.768687,-9.65152,-5.04513,-0.156069,-38.8138
2023-03-15 15:42:09:543,0.0533588,0.78199,-9.59101,-5.02644,-0.146105,-38.7306
2023-03-15 15:42:09:553,0.101325,0.795738,-9.61877,-5.01374,-0.12631,-38.6445
2023-03-15 15:42:09:563,0.0646296,0.831029,-9.63561,-5.01152,-0.0993003,-38.5483
2023-03-15 15:42:09:573,-0.0774284,0.860469,-9.63524,-5.00819,-0.0647638,-38.4469
2023-03-15 15:42:09:583,-0.115024,0.862889,-9.68331,-5.01489,-0.0340911,-38.3544
2023-03-15 15:42:09:593,-0.0922244,0.896787,-9.75847,-5.02567,-0.00855695,-38.2748
2023-03-15 15:42:09:603,-0.136776,0.93014,-9.81757,-5.03486,0.00591024,-38.2045
2023-03-15 15:42:09:613,-0.203227,0.940422,-9.83275,-5.04625,0.00849186,-38.1484
2023-03-15 15:42:09:623,-0.236851,0.953943,-9.84384,-5.05671,0.00227692,-38.1075
2023-03-15 15:42:09:633,-0.258376,0.961469,-9.84494,-5.0641,-0.0155979,-38.0829
2023-03-15 15:42:09:643,-0.269933,0.942294,-9.83588,-5.06441,-0.0366311,-38.0776
2023-03-15 15:42:09:653,-0.284006,0.935453,-9.78668,-5.05904,-0.063743,-38.0872
2023-03-15 15:42:09:663,-0.262165,0.885357,-9.73489,-5.04817,-0.0913141,-38.103
2023-03-15 15:42:09:673,-0.223295,0.855304,-9.71395,-5.0347,-0.11672,-38.1303
2023-03-15 15:42:09:683,-0.167387,0.82945,-9.72309,-5.01945,-0.136562,-38.1596
2023-03-15 15:42:09:693,-0.108465,0.807092,-9.75654,-5.00478,-0.14813,-38.1903
2023-03-15 15:42:09:703,-0.046111,0.795034,-9.77401,-4.99266,-0.157854,-38.2186
2023-03-15 15:42:09:713,0.000742894,0.778572,-9.75997,-4.9766,-0.17053,-38.2443
2023-03-15 15:42:09:723,0.0146321,0.76226,-9.74405,-4.95843,-0.183329,-38.2662
2023-03-15 15:42:09:733,-0.000778804,0.764085,-9.69447,-4.94204,-0.193767,-38.2819
2023-03-15 15:42:09:743,-0.021534,0.756257,-9.66923,-4.9236,-0.203018,-38.2937
2023-03-15 15:42:09:753,-0.0280228,0.749182,-9.66044,-4.90893,-0.207511,-38.306
2023-03-15 15:42:09:763,-0.0214666,0.742767,-9.67151,-4.89875,-0.207919,-38.3132
2023-03-15 15:42:09:773,-0.0136187,0.750407,-9.66928,-4.89037,-0.205539,-38.3178
2023-03-15 15:42:09:783,-0.0215696,0.763312,-9.679,-4.88482,-0.19844,-38.324
2023-03-15 15:42:09:793,-0.0346481,0.791172,-9.68379,-4.88324,-0.192206,-38.3282
2023-03-15 15:42:09:803,-0.0655199,0.80811,-9.6894,-4.88588,-0.189593,-38.3337
2023-03-15 15:42:09:813,-0.093485,0.822794,-9.6964,-4.89406,-0.18559,-38.3441
2023-03-15 15:42:09:823,-0.108221,0.84205,-9.69351,-4.90122,-0.183888,-38.3576
2023-03-15 15:42:09:833,-0.103775,0.836116,-9.66301,-4.9076,-0.182514,-38.377
2023-03-15 15:42:09:843,-0.0818931,0.845893,-9.65371,-4.91466,-0.186704,-38.3972
2023-03-15 15:42:09:853,-0.0573826,0.855395,-9.6911,-4.92531,-0.183975,-38.4207
2023-03-15 15:42:09:863,-0.040727,0.857655,-9.71076,-4.94024,-0.186905,-38.442
2023-03-15 15:42:09:873,-0.0454429,0.873903,-9.71477,-4.95593,-0.187778,-38.4643
2023-03-15 15:42:09:883,-0.0401854,0.893595,-9.74901,-4.97374,-0.186081,-38.4911
2023-03-15 15:42:09:893,-0.0292448,0.909642,-9.80049,-4.99159,-0.184445,-38.517
2023-03-15 15:42:09:903,0.000374872,0.91992,-9.81075,-5.00919,-0.179119,-38.5422
2023-03-15 15:42:09:913,0.0291564,0.907011,-9.81237,-5.02546,-0.175072,-38.5668
2023-03-15 15:42:09:923,0.0218189,0.899654,-9.80966,-5.03515,-0.167737,-38.5889
2023-03-15 15:42:09:933,0.0148979,0.904731,-9.79549,-5.03991,-0.1596,-38.611
2023-03-15 15:42:09:943,0.0107359,0.915487,-9.78325,-5.04321,-0.157669,-38.6307
2023-03-15 15:42:09:953,0.0304037,0.902966,-9.74403,-5.04712,-0.152915,-38.6485
2023-03-15 15:42:09:963,0.0578162,0.899899,-9.74852,-5.04896,-0.141861,-38.6665
2023-03-15 15:42:09:973,0.0831544,0.895801,-9.75144,-5.05187,-0.132204,-38.6824
2023-03-15 15:42:09:983,0.0871674,0.885308,-9.73941,-5.05367,-0.127061,-38.6953
2023-03-15 15:42:09:993,0.0541027,0.881016,-9.72282,-5.05737,-0.12398,-38.7072
2023-03-15 15:42:10:3,0.033339,0.892533,-9.72534,-5.06112,-0.122565,-38.718
2023-03-15 15:42:10:13,0.0254219,0.893284,-9.75172,-5.06453,-0.119322,-38.7309
2023-03-15 15:42:10:23,0.0277648,0.884264,-9.74707,-5.07031,-0.11558,-38.7423
2023-03-15 15:42:10:33,0.025773,0.885897,-9.73261,-5.06918,-0.114492,-38.7512
2023-03-15 15:42:10:43,0.010328,0.888073,-9.73109,-5.06977,-0.111314,-38.7566
2023-03-15 15:42:10:53,0.0154593,0.891762,-9.73059,-5.06764,-0.107961,-38.7654
2023-03-15 15:42:10:63,0.00690892,0.884643,-9.71764,-5.06417,-0.108075,-38.77
2023-03-15 15:42:10:73,0.0266036,0.88077,-9.71174,-5.06391,-0.10522,-38.7718
2023-03-15 15:42:10:83,0.0504828,0.868436,-9.71177,-5.06851,-0.107476,-38.7761
2023-03-15 15:42:10:93,0.067296,0.867312,-9.71217,-5.06506,-0.10346,-38.7799
2023-03-15 15:42:10:103,0.0494145,0.867035,-9.71662,-5.06489,-0.10282,-38.7795
2023-03-15 15:42:10:113,0.0289788,0.880977,-9.70576,-5.07128,-0.103796,-38.7793
2023-03-15 15:42:10:123,0.024765,0.880462,-9.71018,-5.07712,-0.107053,-38.7788
2023-03-15 15:42:10:133,0.0253322,0.88819,-9.74707,-5.08668,-0.110303,-38.7756
2023-03-15 15:42:10:143,0.036429,0.909482,-9.78372,-5.09369,-0.11457,-38.7726
2023-03-15 15:42:10:153,0.0309491,0.925192,-9.79405,-5.1051,-0.121562,-38.7661
2023-03-15 15:42:10:163,0.0122625,0.927327,-9.80726,-5.10526,-0.125224,-38.7548
2023-03-15 15:42:10:173,0.0106211,0.929801,-9.78737,-5.10802,-0.131126,-38.744
2023-03-15 15:42:10:183,0.00221639,0.905488,-9.74797,-5.1074,-0.131901,-38.7288
2023-03-15 15:42:10:193,-0.0103321,0.886616,-9.72023,-5.10593,-0.130929,-38.7137
2023-03-15 15:42:10:203,-0.0349283,0.878163,-9.69299,-5.09746,-0.134304,-38.6946
2023-03-15 15:42:10:213,-0.0746444,0.873409,-9.67259,-5.09282,-0.132379,-38.6727
2023-03-15 15:42:10:223,-0.0941903,0.868158,-9.6666,-5.09301,-0.129452,-38.6521
2023-03-15 15:42:10:233,-0.114113,0.879377,-9.6761,-5.09173,-0.12612,-38.6326
2023-03-15 15:42:10:243,-0.132344,0.88673,-9.69859,-5.09416,-0.126322,-38.6208
2023-03-15 15:42:10:253,-0.136067,0.88935,-9.7337,-5.09942,-0.126203,-38.6108
2023-03-15 15:42:10:263,-0.137002,0.898489,-9.73261,-5.10591,-0.128801,-38.6075
2023-03-15 15:42:10:273,-0.123003,0.917068,-9.72667,-5.10915,-0.130526,-38.6076
2023-03-15 15:42:10:283,-0.109255,0.902223,-9.73972,-5.11684,-0.132305,-38.6124
2023-03-15 15:42:10:293,-0.0956964,0.912102,-9.74722,-5.12024,-0.136111,-38.6185
2023-03-15 15:42:10:303,-0.0821624,0.915518,-9.75204,-5.12634,-0.137415,-38.6287
2023-03-15 15:42:10:313,-0.0625675,0.907516,-9.74076,-5.13209,-0.137092,-38.6379
2023-03-15 15:42:10:323,-0.0449249,0.905529,-9.74962,-5.13642,-0.134231,-38.6474
2023-03-15 15:42:10:333,-0.0143797,0.915287,-9.75427,-5.14087,-0.134315,-38.657
2023-03-15 15:42:10:343,-0.000812459,0.923581,-9.7504,-5.14142,-0.128307,-38.6658
2023-03-15 15:42:10:353,-0.00360438,0.935783,-9.75896,-5.14402,-0.123392,-38.6689
2023-03-15 15:42:10:363,-0.00468668,0.95237,-9.74978,-5.14378,-0.121479,-38.6733
2023-03-15 15:42:10:373,-0.00876429,0.943366,-9.73191,-5.13949,-0.118968,-38.677
2023-03-15 15:42:10:383,-0.0103995,0.935207,-9.7093,-5.13795,-0.119461,-38.6795
2023-03-15 15:42:10:393,-0.0345368,0.933483,-9.723,-5.13387,-0.118558,-38.681
2023-03-15 15:42:10:403,-0.049581,0.919189,-9.71425,-5.13168,-0.115296,-38.6812
2023-03-15 15:42:10:413,-0.0433016,0.905487,-9.714,-5.12857,-0.110095,-38.6861
2023-03-15 15:42:10:423,-0.0363157,0.90612,-9.73696,-5.12423,-0.105758,-38.6883
2023-03-15 15:42:10:433,-0.0199277,0.907145,-9.76075,-5.12683,-0.101731,-38.6923
2023-03-15 15:42:10:443,-0.0152724,0.911974,-9.76829,-5.12614,-0.0959831,-38.6936
2023-03-15 15:42:10:453,-0.0524362,0.917355,-9.7543,-5.11876,-0.0900878,-38.6933
2023-03-15 15:42:10:463,-0.0627794,0.908119,-9.73572,-5.11303,-0.0884845,-38.6978
2023-03-15 15:42:10:473,-0.0417274,0.892146,-9.71889,-5.10547,-0.081676,-38.7054
2023-03-15 15:42:10:483,-0.0324054,0.875771,-9.70122,-5.0953,-0.0734146,-38.7141
2023-03-15 15:42:10:493,0.00361054,0.849797,-9.69197,-5.08838,-0.0632931,-38.7213
2023-03-15 15:42:10:503,0.0656891,0.816087,-9.70049,-5.08121,-0.0530059,-38.7265
2023-03-15 15:42:10:513,0.107972,0.827215,-9.72655,-5.07692,-0.0458623,-38.7295
2023-03-15 15:42:10:523,0.127699,0.836443,-9.7263,-5.07551,-0.0429346,-38.7314
2023-03-15 15:42:10:533,0.0750957,0.860516,-9.76159,-5.07397,-0.0450777,-38.7313
2023-03-15 15:42:10:543,0.0323443,0.883759,-9.78106,-5.07313,-0.0454357,-38.7304
2023-03-15 15:42:10:554,0.0248621,0.887714,-9.75633,-5.07075,-0.045457,-38.7313
2023-03-15 15:42:10:563,0.0605487,0.881014,-9.75375,-5.06949,-0.0434311,-38.733
2023-03-15 15:42:10:574,0.074279,0.859228,-9.73139,-5.06618,-0.0400024,-38.7303
2023-03-15 15:42:10:583,0.073668,0.86273,-9.72433,-5.05936,-0.0326202,-38.7241
2023-03-15 15:42:10:593,0.0865282,0.868945,-9.70876,-5.05399,-0.0277381,-38.7178
2023-03-15 15:42:10:603,0.0606899,0.876351,-9.6729,-5.04942,-0.0238349,-38.708
2023-03-15 15:42:10:613,0.04349,0.877816,-9.64781,-5.04869,-0.0200964,-38.7014
2023-03-15 15:42:10:623,0.033518,0.875314,-9.63909,-5.05045,-0.0165945,-38.6948
2023-03-15 15:42:10:633,0.050495,0.867371,-9.66666,-5.0521,-0.0157928,-38.6878
2023-03-15 15:42:10:643,0.0597634,0.898025,-9.72556,-5.05661,-0.0115429,-38.6835
2023-03-15 15:42:10:654,0.043538,0.912223,-9.75468,-5.0624,-0.016082,-38.6783
2023-03-15 15:42:10:663,0.0281152,0.921354,-9.75514,-5.06831,-0.0216195,-38.6786
2023-03-15 15:42:10:673,0.00654243,0.922606,-9.75719,-5.07186,-0.0289406,-38.677
2023-03-15 15:42:10:683,0.00296014,0.9316,-9.76636,-5.07409,-0.0381444,-38.6758
2023-03-15 15:42:10:693,0.00999757,0.927843,-9.7751,-5.07724,-0.0466988,-38.6753
2023-03-15 15:42:10:703,0.0162519,0.929926,-9.7867,-5.07828,-0.0513296,-38.6781
2023-03-15 15:42:10:713,0.0310231,0.917007,-9.79864,-5.08002,-0.0570642,-38.6787
2023-03-15 15:42:10:723,0.0140831,0.9038,-9.80586,-5.07906,-0.062393,-38.6762
2023-03-15 15:42:10:733,-0.0282816,0.914771,-9.79395,-5.07364,-0.0672002,-38.6755
2023-03-15 15:42:10:743,-0.0387567,0.905243,-9.76085,-5.06573,-0.0716577,-38.6766
2023-03-15 15:42:10:753,-0.0232456,0.870327,-9.72593,-5.05768,-0.0714492,-38.6775
2023-03-15 15:42:10:763,-0.0145505,0.865509,-9.71773,-5.05106,-0.0704422,-38.6752
2023-03-15 15:42:10:773,-0.0340093,0.857759,-9.70198,-5.04354,-0.0693546,-38.6735
2023-03-15 15:42:10:783,-0.0662278,0.855042,-9.68946,-5.03838,-0.0733531,-38.6717
2023-03-15 15:42:10:793,-0.0824842,0.860587,-9.68583,-5.03053,-0.0750221,-38.6702
2023-03-15 15:42:10:803,-0.0708308,0.845005,-9.71136,-5.02696,-0.0742898,-38.6699
2023-03-15 15:42:10:813,-0.0597379,0.850727,-9.71807,-5.02464,-0.0722347,-38.6747
2023-03-15 15:42:10:823,-0.0323741,0.847547,-9.70682,-5.02091,-0.0625583,-38.6752
2023-03-15 15:42:10:833,-0.00313624,0.84259,-9.70563,-5.01748,-0.051574,-38.6793
2023-03-15 15:42:10:843,0.00674484,0.852514,-9.70952,-5.01373,-0.0400335,-38.6805
2023-03-15 15:42:10:853,0.0162983,0.844745,-9.71851,-5.01124,-0.0295197,-38.6764
2023-03-15 15:42:10:863,0.0246218,0.859798,-9.72224,-5.00867,-0.0142902,-38.6714
2023-03-15 15:42:10:873,0.0342311,0.842177,-9.69921,-5.00864,-0.00303464,-38.6706
2023-03-15 15:42:10:883,0.0627089,0.820175,-9.70565,-5.00687,0.0112847,-38.664
2023-03-15 15:42:10:893,0.0644449,0.832479,-9.71099,-5.00726,0.0206633,-38.6567
2023-03-15 15:42:10:903,0.0703781,0.840037,-9.72895,-5.00947,0.0297349,-38.6482
2023-03-15 15:42:10:913,0.0823636,0.844092,-9.71433,-5.01362,0.0370215,-38.6431
2023-03-15 15:42:10:923,0.0806255,0.867269,-9.72279,-5.021,0.0441482,-38.632
2023-03-15 15:42:10:933,0.0667609,0.894321,-9.76992,-5.02832,0.0475111,-38.6226
2023-03-15 15:42:10:943,0.0648535,0.917001,-9.7916,-5.03552,0.0494754,-38.6123
2023-03-15 15:42:10:953,0.0647583,0.913429,-9.7967,-5.04415,0.054946,-38.6033
2023-03-15 15:42:10:963,0.0518612,0.913725,-9.78926,-5.0464,0.0574644,-38.5916
2023-03-15 15:42:10:973,0.0515165,0.908191,-9.77543,-5.04714,0.0579882,-38.5776
2023-03-15 15:42:10:983,0.0616529,0.905372,-9.76626,-5.04578,0.0608285,-38.5632
2023-03-15 15:42:10:993,0.0631869,0.90417,-9.77723,-5.04076,0.0618101,-38.5472
2023-03-15 15:42:11:3,0.0252309,0.901413,-9.7683,-5.03247,0.0617514,-38.5278
2023-03-15 15:42:11:14,0.00459388,0.897419,-9.74552,-5.02103,0.055952,-38.508
2023-03-15 15:42:11:24,-0.00295526,0.887018,-9.74149,-5.00938,0.0581701,-38.4909
2023-03-15 15:42:11:34,-0.0122277,0.887714,-9.73361,-5.00034,0.0572528,-38.4738
2023-03-15 15:42:11:43,-0.0218826,0.90174,-9.74405,-4.99109,0.0534336,-38.4583
2023-03-15 15:42:11:53,-0.0322119,0.899431,-9.77233,-4.98167,0.0495219,-38.4468
2023-03-15 15:42:11:63,-0.0393526,0.893961,-9.77458,-4.97113,0.0436292,-38.434
2023-03-15 15:42:11:73,-0.0332514,0.89243,-9.76644,-4.95907,0.0389818,-38.4232
2023-03-15 15:42:11:83,-0.0281532,0.868341,-9.74974,-4.94467,0.033999,-38.4158
2023-03-15 15:42:11:93,-0.0329002,0.841006,-9.7295,-4.92662,0.0293558,-38.4115
2023-03-15 15:42:11:103,-0.0221674,0.826211,-9.70446,-4.91039,0.025192,-38.4051
2023-03-15 15:42:11:113,0.0182653,0.794679,-9.66829,-4.89531,0.0241179,-38.4044
2023-03-15 15:42:11:123,0.0406426,0.776006,-9.64847,-4.88041,0.0205789,-38.4056
2023-03-15 15:42:11:133,0.0380928,0.77845,-9.6323,-4.87106,0.0152682,-38.401
2023-03-15 15:42:11:143,0.0136321,0.766822,-9.61113,-4.86476,0.0134266,-38.3974
2023-03-15 15:42:11:154,0.0262196,0.777664,-9.65068,-4.86555,0.00740528,-38.3933
2023-03-15 15:42:11:163,0.0386552,0.825695,-9.71272,-4.87402,0.00376845,-38.3883
2023-03-15 15:42:11:173,0.0368569,0.853153,-9.74823,-4.88371,-0.000983436,-38.3877
2023-03-15 15:42:11:183,0.046652,0.861679,-9.77596,-4.88867,-0.00732217,-38.388
2023-03-15 15:42:11:193,0.0325729,0.866025,-9.77333,-4.89284,-0.0115281,-38.3882
2023-03-15 15:42:11:203,0.0233795,0.854875,-9.74225,-4.89197,-0.018385,-38.3906
2023-03-15 15:42:11:213,0.0134821,0.836002,-9.71478,-4.88697,-0.0265574,-38.3914
2023-03-15 15:42:11:223,0.00396343,0.833727,-9.68773,-4.88631,-0.0384042,-38.393
2023-03-15 15:42:11:233,-0.00700388,0.826437,-9.67614,-4.88775,-0.0491924,-38.3962
2023-03-15 15:42:11:243,-0.0263599,0.845881,-9.69973,-4.89361,-0.0608027,-38.3949
2023-03-15 15:42:11:253,-0.0234351,0.861864,-9.74805,-4.89944,-0.0754643,-38.3971
2023-03-15 15:42:11:263,-0.0314509,0.881793,-9.79343,-4.91041,-0.0878783,-38.3956
2023-03-15 15:42:11:274,-0.0756605,0.90559,-9.80307,-4.91793,-0.101445,-38.3991
2023-03-15 15:42:11:283,-0.120214,0.908727,-9.79938,-4.92165,-0.113183,-38.4011
2023-03-15 15:42:11:294,-0.133801,0.888647,-9.77235,-4.91949,-0.123863,-38.405
2023-03-15 15:42:11:303,-0.136868,0.866224,-9.73788,-4.91352,-0.129506,-38.4107
2023-03-15 15:42:11:314,-0.102355,0.852904,-9.73655,-4.90618,-0.128602,-38.419
2023-03-15 15:42:11:323,-0.0604783,0.834023,-9.72402,-4.89466,-0.121957,-38.4264
2023-03-15 15:42:11:334,-0.0180154,0.817109,-9.71602,-4.88449,-0.116896,-38.4317
2023-03-15 15:42:11:343,-0.00358723,0.806415,-9.70986,-4.87882,-0.117305,-38.4402
2023-03-15 15:42:11:354,-0.0218139,0.802258,-9.67663,-4.8741,-0.123106,-38.4476
2023-03-15 15:42:11:363,-0.0608753,0.809052,-9.667,-4.8767,-0.13087,-38.455
2023-03-15 15:42:11:374,-0.0697632,0.834957,-9.69512,-4.88005,-0.13466,-38.4617
2023-03-15 15:42:11:383,-0.0531739,0.863452,-9.73366,-4.88982,-0.139587,-38.4721
2023-03-15 15:42:11:393,-0.0246862,0.875296,-9.76843,-4.90093,-0.143053,-38.4851
2023-03-15 15:42:11:403,0.0133543,0.887259,-9.758,-4.90458,-0.144723,-38.4954
2023-03-15 15:42:11:413,0.022357,0.880735,-9.74208,-4.91134,-0.146123,-38.505
2023-03-15 15:42:11:423,0.0113899,0.870069,-9.71148,-4.91246,-0.149044,-38.5077
2023-03-15 15:42:11:433,-0.0111905,0.876389,-9.67054,-4.90979,-0.154732,-38.5122
2023-03-15 15:42:11:443,-0.0329298,0.883305,-9.63521,-4.91058,-0.162079,-38.5136
2023-03-15 15:42:11:454,-0.0175973,0.864082,-9.63381,-4.91491,-0.167759,-38.5161
2023-03-15 15:42:11:463,0.0128451,0.863393,-9.68322,-4.92036,-0.167458,-38.5175
2023-03-15 15:42:11:474,0.020507,0.879039,-9.73297,-4.92703,-0.167534,-38.5152
2023-03-15 15:42:11:483,0.0199409,0.891043,-9.76718,-4.93667,-0.170261,-38.5129
2023-03-15 15:42:11:493,0.00609303,0.904481,-9.80111,-4.94761,-0.176398,-38.5115
2023-03-15 15:42:11:503,-0.0328258,0.903903,-9.81174,-4.95441,-0.186173,-38.5068
2023-03-15 15:42:11:514,-0.0592309,0.89645,-9.78871,-4.9559,-0.197415,-38.5037
2023-03-15 15:42:11:524,-0.0761263,0.895235,-9.76872,-4.95603,-0.207769,-38.5023
2023-03-15 15:42:11:533,-0.0985087,0.878122,-9.73164,-4.9556,-0.218201,-38.5014
2023-03-15 15:42:11:543,-0.121893,0.861354,-9.69982,-4.95232,-0.223848,-38.503
2023-03-15 15:42:11:553,-0.143934,0.876507,-9.70957,-4.9546,-0.232536,-38.503
2023-03-15 15:42:11:563,-0.145405,0.886874,-9.73687,-4.95881,-0.240627,-38.5048
2023-03-15 15:42:11:574,-0.142258,0.879158,-9.7191,-4.96425,-0.245246,-38.5071
2023-03-15 15:42:11:583,-0.121474,0.880808,-9.73539,-4.97224,-0.248993,-38.5078
2023-03-15 15:42:11:593,-0.0981092,0.885918,-9.7695,-4.97682,-0.249198,-38.5164
2023-03-15 15:42:11:603,-0.0862608,0.884106,-9.75671,-4.97819,-0.24753,-38.5227
2023-03-15 15:42:11:613,-0.104586,0.887495,-9.74144,-4.9737,-0.246652,-38.529
2023-03-15 15:42:11:623,-0.112567,0.902251,-9.74144,-4.97081,-0.242033,-38.5361
2023-03-15 15:42:11:633,-0.111592,0.885162,-9.72204,-4.96419,-0.238658,-38.5445
2023-03-15 15:42:11:643,-0.101778,0.869362,-9.70291,-4.96176,-0.23183,-38.5539
2023-03-15 15:42:11:653,-0.0867439,0.87041,-9.70186,-4.95818,-0.224989,-38.5647
2023-03-15 15:42:11:663,-0.0816961,0.867485,-9.70745,-4.95596,-0.215181,-38.5755
2023-03-15 15:42:11:673,-0.0579634,0.864121,-9.7089,-4.95382,-0.208123,-38.5891
2023-03-15 15:42:11:683,-0.046995,0.869242,-9.69005,-4.95189,-0.198081,-38.5985
2023-03-15 15:42:11:693,-0.0419462,0.868573,-9.70388,-4.95544,-0.187356,-38.6076
2023-03-15 15:42:11:703,-0.0342931,0.870114,-9.72247,-4.95696,-0.176759,-38.6199
2023-03-15 15:42:11:713,-0.0243208,0.882446,-9.74528,-4.96239,-0.166426,-38.6328
2023-03-15 15:42:11:723,-0.0154607,0.888348,-9.76009,-4.96516,-0.157163,-38.6445
2023-03-15 15:42:11:734,-0.00410105,0.885267,-9.76555,-4.96521,-0.146991,-38.6552
2023-03-15 15:42:11:743,0.00640744,0.866692,-9.76272,-4.96771,-0.139,-38.6694
2023-03-15 15:42:11:753,0.0209472,0.866529,-9.74331,-4.9669,-0.129992,-38.685
2023-03-15 15:42:11:763,0.0463303,0.852795,-9.7483,-4.96391,-0.121567,-38.6976
2023-03-15 15:42:11:774,0.0664199,0.848907,-9.75409,-4.96319,-0.11162,-38.7071
2023-03-15 15:42:11:783,0.0663717,0.851447,-9.73666,-4.95885,-0.105046,-38.7159
2023-03-15 15:42:11:794,0.0523982,0.845015,-9.73907,-4.95785,-0.101951,-38.7224
2023-03-15 15:42:11:803,0.0509166,0.843199,-9.74538,-4.95452,-0.10065,-38.7246
2023-03-15 15:42:11:813,0.0394413,0.849507,-9.7478,-4.95063,-0.099218,-38.7254
2023-03-15 15:42:11:823,0.037628,0.843013,-9.73712,-4.94549,-0.0926453,-38.7254
2023-03-15 15:42:11:834,0.0362647,0.836878,-9.75282,-4.93988,-0.0896424,-38.7223
2023-03-15 15:42:11:843,0.0164702,0.838228,-9.75327,-4.93509,-0.0853812,-38.7184
2023-03-15 15:42:11:853,-0.00383002,0.848285,-9.73818,-4.92823,-0.083121,-38.7112
2023-03-15 15:42:11:863,-0.0101963,0.839713,-9.7358,-4.9227,-0.0786209,-38.7076
2023-03-15 15:42:11:874,-0.00041995,0.837997,-9.7311,-4.91466,-0.0763399,-38.7022
2023-03-15 15:42:11:883,-0.00773811,0.829038,-9.73869,-4.90725,-0.072255,-38.697
2023-03-15 15:42:11:893,-0.02069,0.837253,-9.72171,-4.89994,-0.0687133,-38.693
2023-03-15 15:42:11:903,-0.0372135,0.840689,-9.70168,-4.89252,-0.0631406,-38.6892
2023-03-15 15:42:11:913,-0.0349398,0.841119,-9.6875,-4.88994,-0.06215,-38.6871
2023-03-15 15:42:11:923,-0.00296571,0.831585,-9.67821,-4.88614,-0.0561844,-38.6914
2023-03-15 15:42:11:934,0.00617673,0.823086,-9.70017,-4.88156,-0.0516634,-38.6948
2023-03-15 15:42:11:943,0.00629628,0.844255,-9.72049,-4.88318,-0.0495614,-38.6951
2023-03-15 15:42:11:953,0.0185996,0.842396,-9.73311,-4.88745,-0.0485728,-38.6976
2023-03-15 15:42:11:963,0.0255881,0.862391,-9.75016,-4.89044,-0.0504332,-38.702
2023-03-15 15:42:11:974,0.0232533,0.86618,-9.74724,-4.89556,-0.0503927,-38.7065
2023-03-15 15:42:11:983,0.0216504,0.863432,-9.75995,-4.89937,-0.0511658,-38.7099
2023-03-15 15:42:11:993,0.0324649,0.86654,-9.76316,-4.90038,-0.053828,-38.7113
2023-03-15 15:42:12:3,0.0321752,0.85181,-9.76056,-4.90072,-0.0546878,-38.7126
2023-03-15 15:42:12:14,0.0320897,0.840366,-9.73762,-4.89953,-0.0549554,-38.7093
2023-03-15 15:42:12:23,0.0235202,0.835397,-9.73702,-4.89577,-0.0517224,-38.7045
2023-03-15 15:42:12:34,0.020046,0.836023,-9.72765,-4.89397,-0.0464395,-38.7001
2023-03-15 15:42:12:43,0.00616887,0.835892,-9.72313,-4.89083,-0.0471928,-38.6949
2023-03-15 15:42:12:53,-0.00816402,0.84071,-9.72129,-4.88896,-0.0432777,-38.6892
2023-03-15 15:42:12:64,-0.0197731,0.85116,-9.73844,-4.88503,-0.0387161,-38.6858
2023-03-15 15:42:12:73,-0.0201713,0.862022,-9.73337,-4.88353,-0.0339665,-38.6835
2023-03-15 15:42:12:83,-0.00752767,0.845422,-9.73399,-4.88595,-0.0316126,-38.6808
2023-03-15 15:42:12:93,-0.0187111,0.842754,-9.73702,-4.88697,-0.0269831,-38.6763
2023-03-15 15:42:12:103,-0.017642,0.853011,-9.75795,-4.88801,-0.0243005,-38.6756
2023-03-15 15:42:12:114,-0.0122886,0.851602,-9.7752,-4.88819,-0.0211199,-38.6743
2023-03-15 15:42:12:123,0.00533189,0.853313,-9.76143,-4.88697,-0.0207573,-38.6737
2023-03-15 15:42:12:134,-0.00752512,0.842361,-9.73625,-4.88372,-0.0190891,-38.6746
2023-03-15 15:42:12:143,-0.0531894,0.81752,-9.71186,-4.87971,-0.0184719,-38.674
2023-03-15 15:42:12:153,-0.0659137,0.82435,-9.7293,-4.87487,-0.0139218,-38.6765
2023-03-15 15:42:12:163,-0.0278373,0.823428,-9.7365,-4.86494,-0.0145349,-38.6821
2023-03-15 15:42:12:174,-0.015997,0.812953,-9.76498,-4.85249,-0.0114889,-38.6874
2023-03-15 15:42:12:183,-0.00424811,0.803612,-9.76124,-4.84385,-0.00597239,-38.6963
2023-03-15 15:42:12:193,0.0448275,0.799053,-9.74128,-4.83273,-0.00122912,-38.7052
2023-03-15 15:42:12:203,0.0548357,0.798775,-9.73652,-4.82241,0.00189708,-38.7149
2023-03-15 15:42:12:214,0.00990334,0.801207,-9.71958,-4.81215,0.00312825,-38.7278
2023-03-15 15:42:12:224,-0.00283309,0.790377,-9.67849,-4.79998,0.00104522,-38.7417
2023-03-15 15:42:12:234,-0.00417146,0.7913,-9.67321,-4.78878,-0.00544645,-38.7576
2023-03-15 15:42:12:243,0.0170945,0.797075,-9.66396,-4.78417,-0.0108578,-38.7766
2023-03-15 15:42:12:253,0.0202828,0.777364,-9.66301,-4.78052,-0.0155919,-38.7951
2023-03-15 15:42:12:263,0.0414107,0.776471,-9.63393,-4.77908,-0.0217535,-38.8091
2023-03-15 15:42:12:274,0.0398062,0.77704,-9.6331,-4.77937,-0.0272676,-38.8195
2023-03-15 15:42:12:283,0.0106044,0.792117,-9.62078,-4.78543,-0.0294768,-38.8302
2023-03-15 15:42:12:293,0.00280714,0.780417,-9.60863,-4.79628,-0.0334764,-38.8394
2023-03-15 15:42:12:303,0.0166606,0.801087,-9.63233,-4.81393,-0.0362038,-38.8447
2023-03-15 15:42:12:314,0.00429605,0.810953,-9.63152,-4.83404,-0.0360154,-38.8515
2023-03-15 15:42:12:323,0.00537994,0.808572,-9.61748,-4.8553,-0.03354,-38.8537
2023-03-15 15:42:12:334,0.01,0.833734,-9.63502,-4.87958,-0.0294504,-38.8587
2023-03-15 15:42:12:343,0.0174173,0.862038,-9.70736,-4.90757,-0.022751,-38.8629
2023-03-15 15:42:12:353,0.0417155,0.890602,-9.7472,-4.93923,-0.0160559,-38.8652
2023-03-15 15:42:12:364,0.0400972,0.920908,-9.7776,-4.96939,-0.00575648,-38.8716
2023-03-15 15:42:12:374,0.0478811,0.930801,-9.80467,-5.00274,0.0041519,-38.8784
2023-03-15 15:42:12:383,0.0516089,0.943014,-9.81224,-5.03403,0.0124367,-38.8846
2023-03-15 15:42:12:394,0.0552909,0.954044,-9.81615,-5.05799,0.0139549,-38.8955
2023-03-15 15:42:12:403,0.0459747,0.957199,-9.80121,-5.08308,0.0103584,-38.9035
2023-03-15 15:42:12:414,0.0295591,0.93999,-9.78659,-5.10673,0.00479265,-38.9126
2023-03-15 15:42:12:423,0.0166306,0.961711,-9.78705,-5.12413,0.000723691,-38.9221
2023-03-15 15:42:12:434,0.0223469,0.971243,-9.76736,-5.14392,-0.00712069,-38.9328
2023-03-15 15:42:12:444,0.037501,0.963216,-9.76982,-5.16226,-0.00980778,-38.9434
2023-03-15 15:42:12:454,0.041218,0.948389,-9.78002,-5.18145,-0.0162152,-38.954
2023-03-15 15:42:12:463,0.0240683,0.956356,-9.77534,-5.19532,-0.0225597,-38.9605
2023-03-15 15:42:12:473,0.0109398,0.957366,-9.77764,-5.20814,-0.0296728,-38.9675
2023-03-15 15:42:12:483,-0.0197473,0.962651,-9.75705,-5.22347,-0.040034,-38.9709
2023-03-15 15:42:12:494,-0.043148,0.969016,-9.75148,-5.23189,-0.0450719,-38.9795
2023-03-15 15:42:12:503,-0.0421312,0.957547,-9.70997,-5.23939,-0.0511824,-38.9868
2023-03-15 15:42:12:514,-0.0342077,0.94494,-9.69344,-5.2463,-0.0559063,-38.9968
2023-03-15 15:42:12:523,-0.0280746,0.94488,-9.70154,-5.2529,-0.055432,-39.0064
2023-03-15 15:42:12:533,-0.0283176,0.931169,-9.69107,-5.25941,-0.0591811,-39.0168
2023-03-15 15:42:12:543,-0.0110669,0.917748,-9.67569,-5.26292,-0.0629002,-39.0226
2023-03-15 15:42:12:553,0.00227,0.917891,-9.68833,-5.26986,-0.0677046,-39.0289
2023-03-15 15:42:12:563,-0.00800997,0.923701,-9.71389,-5.28119,-0.0715744,-39.0312
2023-03-15 15:42:12:573,-0.0282859,0.937221,-9.73687,-5.29451,-0.0759164,-39.0325
2023-03-15 15:42:12:583,-0.0320252,0.944269,-9.78005,-5.30901,-0.0797534,-39.0368
2023-03-15 15:42:12:593,-0.0348036,0.960193,-9.78359,-5.32341,-0.0820861,-39.0358
2023-03-15 15:42:12:603,-0.0226085,0.967024,-9.78172,-5.33552,-0.0864303,-39.038
2023-03-15 15:42:12:614,-0.00349041,0.966119,-9.78573,-5.34319,-0.0850832,-39.0439
2023-03-15 15:42:12:623,-0.00547736,0.974543,-9.77512,-5.3505,-0.0842757,-39.0449
2023-03-15 15:42:12:634,-0.0158358,0.957384,-9.74351,-5.34929,-0.0839388,-39.0451
2023-03-15 15:42:12:643,-0.0136309,0.931932,-9.71704,-5.35053,-0.082307,-39.0425
2023-03-15 15:42:12:653,-0.0130376,0.928667,-9.70444,-5.34897,-0.0757967,-39.0421
2023-03-15 15:42:12:663,-0.0105819,0.924761,-9.69098,-5.34683,-0.0711137,-39.0432
2023-03-15 15:42:12:673,-0.00217015,0.919169,-9.67839,-5.34752,-0.0670059,-39.0393
2023-03-15 15:42:12:683,-0.0120532,0.924563,-9.71637,-5.34828,-0.060426,-39.037
2023-03-15 15:42:12:694,-0.0172081,0.93746,-9.72847,-5.35219,-0.0582159,-39.0304
2023-03-15 15:42:12:703,-0.00773068,0.950028,-9.74145,-5.35676,-0.050618,-39.0245
2023-03-15 15:42:12:714,-0.00880588,0.950867,-9.77748,-5.36134,-0.0474556,-39.022
2023-03-15 15:42:12:723,-0.0190174,0.955062,-9.76295,-5.35838,-0.0441827,-39.0202
2023-03-15 15:42:12:734,-0.0160691,0.950951,-9.71524,-5.35632,-0.0384767,-39.0136
2023-03-15 15:42:12:743,-0.0326691,0.921717,-9.6788,-5.35522,-0.0348437,-39.0107
2023-03-15 15:42:12:753,-0.0257467,0.911246,-9.65432,-5.35108,-0.0300419,-39.0059
2023-03-15 15:42:12:764,-0.0205438,0.908315,-9.6606,-5.34922,-0.0228374,-39.0017
2023-03-15 15:42:12:774,-0.0145974,0.90555,-9.7074,-5.34983,-0.0177212,-39
2023-03-15 15:42:12:783,-0.00459281,0.925838,-9.7184,-5.35601,-0.00976716,-39.0018
2023-03-15 15:42:12:793,0.00120575,0.938908,-9.72818,-5.35921,-0.00442784,-39.0007
2023-03-15 15:42:12:804,0.0151936,0.951644,-9.76215,-5.36611,0.00382336,-39.0055
2023-03-15 15:42:12:814,0.0392933,0.967826,-9.78497,-5.3733,0.0123255,-39.01
2023-03-15 15:42:12:823,0.0540007,0.963472,-9.78997,-5.37874,0.019808,-39.0092
2023-03-15 15:42:12:834,0.0571972,0.946597,-9.76362,-5.37832,0.0246819,-39.0096
2023-03-15 15:42:12:843,0.0677429,0.922661,-9.73845,-5.37834,0.0283424,-39.0105
2023-03-15 15:42:12:854,0.0622334,0.919719,-9.72499,-5.37584,0.0275952,-39.008
2023-03-15 15:42:12:863,0.0267776,0.916901,-9.71446,-5.37346,0.0280755,-39.0076
2023-03-15 15:42:12:874,0.0193466,0.903727,-9.6864,-5.36862,0.0275048,-39.0102
2023-03-15 15:42:12:883,0.0309213,0.895094,-9.68332,-5.3695,0.0241823,-39.0151
2023-03-15 15:42:12:893,0.018637,0.90817,-9.71319,-5.37257,0.0225683,-39.0162
2023-03-15 15:42:12:903,-0.00113351,0.913564,-9.73972,-5.37543,0.0221824,-39.0199
2023-03-15 15:42:12:914,0.0137231,0.917582,-9.73973,-5.37928,0.0223973,-39.0243
2023-03-15 15:42:12:923,0.00773265,0.917553,-9.72254,-5.38088,0.0227689,-39.0289
2023-03-15 15:42:12:933,-0.00557292,0.919278,-9.7259,-5.38159,0.02414,-39.0344
2023-03-15 15:42:12:943,-0.000624782,0.919481,-9.74243,-5.38489,0.0246159,-39.0379
2023-03-15 15:42:12:953,-0.0040219,0.914939,-9.74879,-5.38301,0.0235689,-39.0424
2023-03-15 15:42:12:963,-0.000393171,0.910998,-9.75083,-5.38274,0.0238713,-39.0486
2023-03-15 15:42:12:973,0.00967985,0.911829,-9.7472,-5.38318,0.0203029,-39.0521
2023-03-15 15:42:12:983,0.000942103,0.910644,-9.73355,-5.38418,0.0166461,-39.0584
2023-03-15 15:42:12:994,-0.0390916,0.915174,-9.71644,-5.38422,0.00909774,-39.0652
2023-03-15 15:42:13:3,-0.0403687,0.905339,-9.72352,-5.38327,0.00665375,-39.0708
2023-03-15 15:42:13:13,-0.0117066,0.900782,-9.72274,-5.38045,0.0060285,-39.0762
2023-03-15 15:42:13:23,-0.00228533,0.902736,-9.73056,-5.37869,0.005646,-39.08
2023-03-15 15:42:13:34,0.0190509,0.890664,-9.72691,-5.37829,0.0146803,-39.0906
2023-03-15 15:42:13:43,0.0617525,0.877686,-9.7492,-5.37729,0.0223857,-39.098
2023-03-15 15:42:13:54,0.0813654,0.892272,-9.7606,-5.37728,0.0239068,-39.1028
2023-03-15 15:42:13:63,0.0671287,0.892285,-9.71695,-5.3753,0.0215729,-39.1043
2023-03-15 15:42:13:73,0.0348621,0.873724,-9.66856,-5.37338,0.0193045,-39.1102
2023-03-15 15:42:13:83,0.0132514,0.879395,-9.64953,-5.37228,0.016453,-39.1184
2023-03-15 15:42:13:93,0.0230672,0.889722,-9.6729,-5.37319,0.0127969,-39.1203
2023-03-15 15:42:13:103,0.0411804,0.915954,-9.70283,-5.37584,0.0155651,-39.1221
2023-03-15 15:42:13:113,0.0516075,0.938927,-9.69828,-5.37922,0.0168077,-39.1203
2023-03-15 15:42:13:123,0.0226104,0.932333,-9.68804,-5.38717,0.017966,-39.1184
2023-03-15 15:42:13:134,0.00102214,0.953755,-9.68533,-5.39651,0.0203643,-39.1104
2023-03-15 15:42:13:143,-0.0238829,0.964253,-9.69437,-5.40285,0.0200787,-39.1027
2023-03-15 15:42:13:154,-0.0553649,0.977753,-9.69873,-5.41434,0.0235265,-39.0916
2023-03-15 15:42:13:163,-0.0740016,0.976564,-9.68611,-5.42605,0.0305719,-39.0876
2023-03-15 15:42:13:173,-0.0657503,0.982836,-9.67373,-5.43553,0.0336416,-39.0814
2023-03-15 15:42:13:183,-0.0629931,0.992935,-9.68371,-5.44809,0.0372421,-39.0792
2023-03-15 15:42:13:194,-0.0414175,0.981746,-9.69102,-5.46057,0.0475245,-39.0814
2023-03-15 15:42:13:203,-0.0432899,0.986404,-9.70077,-5.4758,0.054832,-39.0852
2023-03-15 15:42:13:213,-0.0566224,1.0073,-9.72427,-5.49105,0.0616628,-39.0928
2023-03-15 15:42:13:223,-0.026282,1.0028,-9.74778,-5.50771,0.0676231,-39.1012
2023-03-15 15:42:13:234,-0.00432589,1.01061,-9.80655,-5.52293,0.070158,-39.1126
2023-03-15 15:42:13:243,0.00882157,1.03582,-9.82435,-5.53613,0.0710021,-39.1239
2023-03-15 15:42:13:254,0.0227824,1.03936,-9.7927,-5.55064,0.0700754,-39.1347
2023-03-15 15:42:13:263,0.0255817,1.00725,-9.75637,-5.56036,0.0733127,-39.1469
2023-03-15 15:42:13:273,0.0271431,1.00841,-9.76158,-5.56921,0.0816359,-39.1561
2023-03-15 15:42:13:283,0.0305316,1.02132,-9.78206,-5.57704,0.085463,-39.1636
2023-03-15 15:42:13:293,0.0524171,1.01337,-9.7437,-5.58006,0.0936266,-39.171
2023-03-15 15:42:13:303,0.0701513,0.991724,-9.73493,-5.58158,0.105104,-39.1702
2023-03-15 15:42:13:313,0.0771607,0.998255,-9.7606,-5.58411,0.114233,-39.1692
2023-03-15 15:42:13:323,0.054701,0.989448,-9.73792,-5.58579,0.122791,-39.1686
2023-03-15 15:42:13:334,0.0289975,0.960527,-9.70302,-5.58082,0.128286,-39.1673
2023-03-15 15:42:13:343,-0.00988415,0.968943,-9.69,-5.57862,0.131238,-39.1685
2023-03-15 15:42:13:354,-0.030994,0.97483,-9.68988,-5.57999,0.133605,-39.1695
2023-03-15 15:42:13:363,-0.0353571,0.959323,-9.68436,-5.5818,0.139108,-39.1737
2023-03-15 15:42:13:373,-0.0223821,0.947501,-9.6794,-5.58129,0.140382,-39.1807
2023-03-15 15:42:13:383,-0.00213073,0.95031,-9.67929,-5.58323,0.146063,-39.1938
2023-03-15 15:42:13:394,0.0169083,0.960376,-9.68475,-5.58964,0.148572,-39.2077
2023-03-15 15:42:13:404,0.0259137,0.960621,-9.69612,-5.5975,0.151698,-39.2217
2023-03-15 15:42:13:414,0.0285302,0.975582,-9.69931,-5.60271,0.15303,-39.2369
2023-03-15 15:42:13:423,0.0385468,0.963378,-9.69262,-5.61336,0.153535,-39.2559
2023-03-15 15:42:13:434,0.0623639,0.964279,-9.71235,-5.62094,0.154585,-39.2726
2023-03-15 15:42:13:443,0.0732141,0.972409,-9.7392,-5.62706,0.157268,-39.2888
2023-03-15 15:42:13:454,0.0836909,0.989061,-9.73323,-5.63148,0.159657,-39.3006
2023-03-15 15:42:13:463,0.0726144,0.991499,-9.72826,-5.6393,0.158761,-39.3125
2023-03-15 15:42:13:474,0.0838454,0.983976,-9.71649,-5.64665,0.161983,-39.3236
2023-03-15 15:42:13:483,0.0773072,0.980726,-9.70025,-5.65611,0.162755,-39.3345
2023-03-15 15:42:13:493,0.0796364,0.962103,-9.68379,-5.66089,0.164773,-39.3418
2023-03-15 15:42:13:504,0.0827037,0.952434,-9.67923,-5.66648,0.164549,-39.3517
2023-03-15 15:42:13:514,0.043725,0.957769,-9.67113,-5.67304,0.16541,-39.353
2023-03-15 15:42:13:523,0.0338374,0.961079,-9.6678,-5.68465,0.164331,-39.3561
2023-03-15 15:42:13:534,0.0394489,0.969042,-9.68559,-5.69537,0.165521,-39.3624
2023-03-15 15:42:13:543,0.0337241,1.01892,-9.7658,-5.71436,0.166413,-39.3682
2023-03-15 15:42:13:553,0.0309546,1.08524,-9.8673,-5.73542,0.167137,-39.374
2023-03-15 15:42:13:563,0.041782,1.09746,-9.89442,-5.7465,0.165986,-39.3847
2023-03-15 15:42:13:574,0.056619,1.08244,-9.84711,-5.75208,0.167004,-39.3949
2023-03-15 15:42:13:583,0.0778964,1.03703,-9.78088,-5.7454,0.168503,-39.4073
2023-03-15 15:42:13:594,0.0717982,1.0094,-9.71445,-5.73789,0.165933,-39.4191
2023-03-15 15:42:13:603,0.0577587,0.996779,-9.67651,-5.72518,0.161326,-39.4283
2023-03-15 15:42:13:614,0.0610731,0.98431,-9.64062,-5.7165,0.157455,-39.4357
2023-03-15 15:42:13:624,0.0522277,0.965599,-9.62379,-5.71037,0.153767,-39.4428
2023-03-15 15:42:13:634,0.0548306,0.975288,-9.67702,-5.70986,0.152965,-39.4515
2023-03-15 15:42:13:643,0.0500767,1.00913,-9.73744,-5.70881,0.152456,-39.4576
2023-03-15 15:42:13:653,0.0246581,1.02241,-9.78139,-5.7054,0.156097,-39.4667
2023-03-15 15:42:13:663,-0.0108812,1.05216,-9.80981,-5.70266,0.153624,-39.477
2023-03-15 15:42:13:674,0.035938,1.02914,-9.76239,-5.69384,0.147672,-39.4965
2023-03-15 15:42:13:683,0.042899,0.990397,-9.73419,-5.68054,0.143291,-39.5141
2023-03-15 15:42:13:694,0.040043,0.979811,-9.68282,-5.66982,0.134118,-39.5324
2023-03-15 15:42:13:703,0.043449,0.966943,-9.64634,-5.65692,0.128409,-39.551
2023-03-15 15:42:13:714,0.0471811,0.94537,-9.62745,-5.64845,0.11671,-39.5703
2023-03-15 15:42:13:723,0.0530751,0.936691,-9.60929,-5.64965,0.105482,-39.5874
2023-03-15 15:42:13:734,0.0399587,0.957072,-9.63717,-5.65632,0.0967803,-39.6048
2023-03-15 15:42:13:743,0.0431769,1.00569,-9.70513,-5.66637,0.0876598,-39.6237
2023-03-15 15:42:13:753,0.066714,1.01388,-9.74591,-5.67726,0.0811995,-39.6407
2023-03-15 15:42:13:763,0.0427855,1.05204,-9.80713,-5.6888,0.076751,-39.6555
2023-03-15 15:42:13:774,0.0334686,1.06462,-9.83826,-5.69556,0.0732019,-39.6707
2023-03-15 15:42:13:783,0.0563303,1.05562,-9.82125,-5.70024,0.0703782,-39.6867
2023-03-15 15:42:13:793,0.0669681,1.00559,-9.72924,-5.70185,0.064968,-39.7004
2023-03-15 15:42:13:803,0.0620612,0.967963,-9.62966,-5.6969,0.0598891,-39.7128
2023-03-15 15:42:13:814,0.0593041,0.931072,-9.62061,-5.6926,0.0645055,-39.7173
2023-03-15 15:42:13:823,0.0576758,0.940875,-9.66981,-5.69667,0.0674349,-39.7191
2023-03-15 15:42:13:833,0.0727303,0.988851,-9.78026,-5.70533,0.0761325,-39.723
2023-03-15 15:42:13:843,0.0990508,1.04548,-9.85012,-5.71207,0.0828268,-39.7264
2023-03-15 15:42:13:853,0.120916,1.03337,-9.86173,-5.71,0.0859777,-39.7278
2023-03-15 15:42:13:863,0.161547,1.02995,-9.82927,-5.70163,0.0911761,-39.73
2023-03-15 15:42:13:873,0.172174,0.978213,-9.75114,-5.68408,0.0958631,-39.7247
2023-03-15 15:42:13:883,0.130597,0.940713,-9.69484,-5.66577,0.101136,-39.7091
2023-03-15 15:42:13:894,0.0829095,0.955854,-9.70351,-5.64596,0.11077,-39.686
2023-03-15 15:42:13:903,0.0820317,0.98917,-9.73962,-5.63377,0.116871,-39.6595
2023-03-15 15:42:13:914,0.0730595,0.972992,-9.71607,-5.61648,0.12437,-39.6323
2023-03-15 15:42:13:923,0.0334897,0.95476,-9.66598,-5.59757,0.132531,-39.6007
2023-03-15 15:42:13:934,0.0437855,0.957682,-9.64111,-5.58101,0.138145,-39.5732
2023-03-15 15:42:13:943,0.0222094,0.960799,-9.64138,-5.56869,0.145803,-39.5431
2023-03-15 15:42:13:953,-0.0309504,0.977799,-9.64863,-5.56375,0.148065,-39.5132
2023-03-15 15:42:13:963,-0.0325006,1.00326,-9.66294,-5.56268,0.153873,-39.4904
2023-03-15 15:42:13:973,-0.0208455,1.00518,-9.6952,-5.56287,0.154003,-39.4731
2023-03-15 15:42:13:983,-0.0108806,0.998885,-9.70145,-5.56224,0.154276,-39.457
2023-03-15 15:42:13:993,-0.0166465,0.987126,-9.69703,-5.55918,0.149032,-39.4469
2023-03-15 15:42:14:3,-0.00720189,0.985142,-9.71594,-5.55694,0.140998,-39.4397
2023-03-15 15:42:14:14,-0.000582829,0.990077,-9.73064,-5.56123,0.133157,-39.4428
2023-03-15 15:42:14:23,-0.00874835,0.960447,-9.69592,-5.55884,0.122543,-39.444
2023-03-15 15:42:14:34,0.00842679,0.940719,-9.71743,-5.55904,0.110002,-39.4437
2023-03-15 15:42:14:43,-0.00120165,0.968797,-9.75602,-5.56014,0.0996424,-39.4456
2023-03-15 15:42:14:54,-0.0255777,0.997414,-9.76556,-5.56523,0.0860171,-39.4457
2023-03-15 15:42:14:64,-0.0591817,0.971535,-9.72069,-5.5658,0.0734786,-39.4486
2023-03-15 15:42:14:74,-0.075577,0.948727,-9.683,-5.56431,0.0595211,-39.4486
2023-03-15 15:42:14:83,-0.089155,0.972197,-9.72687,-5.56704,0.0514308,-39.455
2023-03-15 15:42:14:93,-0.0662801,0.989342,-9.7186,-5.56934,0.0482384,-39.4636
2023-03-15 15:42:14:103,-0.0305474,0.964206,-9.72606,-5.57026,0.0538951,-39.4731
2023-03-15 15:42:14:114,-0.00787176,0.971238,-9.751,-5.56894,0.0575034,-39.4793
2023-03-15 15:42:14:123,-0.0152201,0.977492,-9.7607,-5.56453,0.0581945,-39.4854
2023-03-15 15:42:14:134,-0.0549846,0.965995,-9.73142,-5.56393,0.0564651,-39.4911
2023-03-15 15:42:14:143,-0.0777708,0.96855,-9.71082,-5.56287,0.0514307,-39.5037
2023-03-15 15:42:14:153,-0.0651321,0.99244,-9.74321,-5.56034,0.0448101,-39.5189
2023-03-15 15:42:14:163,-0.0470919,1.02165,-9.78121,-5.55973,0.0398296,-39.5369
2023-03-15 15:42:14:174,-0.0338038,1.02264,-9.79977,-5.55402,0.0375364,-39.5622
2023-03-15 15:42:14:183,-0.0110375,1.00345,-9.80446,-5.54719,0.0386354,-39.5867
2023-03-15 15:42:14:193,-0.00280548,1.00205,-9.77937,-5.53825,0.0338746,-39.6108
2023-03-15 15:42:14:203,0.00583632,0.997745,-9.75615,-5.52298,0.0303616,-39.6358
2023-03-15 15:42:14:214,0.0353593,0.965992,-9.71637,-5.5043,0.0308534,-39.6613
2023-03-15 15:42:14:224,0.0730067,0.941185,-9.68159,-5.48552,0.0354856,-39.6802
2023-03-15 15:42:14:234,0.0884065,0.933883,-9.69364,-5.46543,0.0404446,-39.6982
2023-03-15 15:42:14:243,0.0816749,0.953252,-9.72888,-5.44973,0.0397894,-39.7164
2023-03-15 15:42:14:253,0.087357,0.969101,-9.7631,-5.43776,0.037887,-39.7288
2023-03-15 15:42:14:263,0.0704598,0.989881,-9.81206,-5.4199,0.0391735,-39.7466
2023-03-15 15:42:14:274,0.0956556,0.999742,-9.8553,-5.40174,0.0352125,-39.763
2023-03-15 15:42:14:284,0.102549,0.999226,-9.87005,-5.37644,0.0278792,-39.7704
2023-03-15 15:42:14:293,0.0416277,0.98628,-9.80954,-5.34158,0.0190863,-39.7812
2023-03-15 15:42:14:303,0.00758137,0.924165,-9.72343,-5.30259,0.00653224,-39.7927
2023-03-15 15:42:14:314,-0.0156974,0.922819,-9.71871,-5.26372,-0.00242465,-39.8049
2023-03-15 15:42:14:323,0.00534919,0.906756,-9.72453,-5.22582,-0.0192338,-39.8167
2023-03-15 15:42:14:334,0.00856268,0.868497,-9.74685,-5.18774,-0.0414065,-39.8297
2023-03-15 15:42:14:344,-0.00782423,0.888354,-9.75977,-5.15407,-0.05777,-39.8396
2023-03-15 15:42:14:353,-0.00318367,0.864631,-9.72869,-5.1184,-0.0726284,-39.8483
2023-03-15 15:42:14:363,0.0250812,0.836217,-9.69313,-5.08114,-0.0872445,-39.8556
2023-03-15 15:42:14:374,0.0177053,0.849899,-9.7221,-5.04662,-0.0980884,-39.8553
2023-03-15 15:42:14:383,0.0026613,0.875031,-9.77812,-5.01332,-0.104428,-39.85
2023-03-15 15:42:14:393,0.0248266,0.845162,-9.77487,-4.97751,-0.100426,-39.8436
2023-03-15 15:42:14:403,0.0149673,0.779659,-9.65076,-4.93366,-0.0963365,-39.8343
2023-03-15 15:42:14:414,-0.00448229,0.769914,-9.62454,-4.89565,-0.0934487,-39.8196
2023-03-15 15:42:14:423,-0.00849282,0.746752,-9.65392,-4.8637,-0.0895875,-39.8091
2023-03-15 15:42:14:434,-0.022735,0.731012,-9.63534,-4.84013,-0.0868478,-39.7933
2023-03-15 15:42:14:443,-0.0122218,0.71108,-9.62212,-4.81481,-0.0850578,-39.7833
2023-03-15 15:42:14:453,-0.00279244,0.699008,-9.61892,-4.79183,-0.0848685,-39.7746
2023-03-15 15:42:14:463,-0.00673977,0.685385,-9.57629,-4.77088,-0.0864494,-39.7627
2023-03-15 15:42:14:473,-0.0437766,0.659773,-9.527,-4.764,-0.0899584,-39.7564
2023-03-15 15:42:14:483,-0.0839363,0.692626,-9.55758,-4.76356,-0.0926396,-39.7489
2023-03-15 15:42:14:493,-0.0807711,0.740863,-9.63373,-4.77635,-0.0952932,-39.7492
2023-03-15 15:42:14:503,-0.0386351,0.766664,-9.68925,-4.79612,-0.102758,-39.7574
2023-03-15 15:42:14:513,-0.0141767,0.788456,-9.72394,-4.81718,-0.102539,-39.7614
2023-03-15 15:42:14:523,-0.0217681,0.806414,-9.72403,-4.83631,-0.103196,-39.7668
2023-03-15 15:42:14:533,-0.0283638,0.819885,-9.71299,-4.85352,-0.0999756,-39.7744
2023-03-15 15:42:14:543,-0.0221128,0.835507,-9.73537,-4.86999,-0.101137,-39.7819
2023-03-15 15:42:14:553,-0.00376024,0.83367,-9.74561,-4.88612,-0.101698,-39.79
2023-03-15 15:42:14:563,0.0156895,0.827437,-9.76421,-4.90155,-0.101609,-39.7932
2023-03-15 15:42:14:573,0.0246396,0.830768,-9.79077,-4.9164,-0.0977416,-39.7972
2023-03-15 15:42:14:583,0.0457278,0.848363,-9.8285,-4.93138,-0.0945284,-39.801
2023-03-15 15:42:14:593,0.0521393,0.873987,-9.84298,-4.94257,-0.0975014,-39.8083
2023-03-15 15:42:14:603,0.0243777,0.873576,-9.81193,-4.95193,-0.101766,-39.811
2023-03-15 15:42:14:613,-0.00971466,0.859146,-9.76865,-4.95881,-0.108326,-39.8158
2023-03-15 15:42:14:623,-0.0382486,0.862369,-9.77429,-4.96342,-0.115199,-39.8193
2023-03-15 15:42:14:633,-0.0535539,0.874443,-9.76713,-4.96714,-0.124893,-39.8266
2023-03-15 15:42:14:643,-0.0397796,0.868682,-9.72578,-4.96798,-0.129183,-39.8324
2023-03-15 15:42:14:653,-0.0222613,0.856345,-9.70513,-4.97023,-0.132278,-39.8375
2023-03-15 15:42:14:663,-0.0183574,0.875667,-9.7154,-4.97336,-0.132305,-39.8408
2023-03-15 15:42:14:673,-0.0270163,0.898029,-9.73653,-4.97791,-0.133356,-39.8452
2023-03-15 15:42:14:683,-0.0422099,0.901979,-9.7217,-4.98267,-0.131984,-39.8478
2023-03-15 15:42:14:693,-0.0502702,0.905614,-9.68739,-4.98842,-0.133015,-39.852
2023-03-15 15:42:14:703,-0.046939,0.885327,-9.66744,-4.99256,-0.129473,-39.8576
2023-03-15 15:42:14:713,-0.0340063,0.887136,-9.63545,-4.99358,-0.126467,-39.8643
2023-03-15 15:42:14:723,-0.0175036,0.87892,-9.65146,-5.00049,-0.12401,-39.872
2023-03-15 15:42:14:734,-0.0083273,0.889645,-9.69617,-5.00895,-0.124862,-39.8798
2023-03-15 15:42:14:743,-0.00724825,0.931689,-9.75425,-5.02138,-0.126624,-39.889
2023-03-15 15:42:14:753,-0.0182938,0.942208,-9.79281,-5.03436,-0.129042,-39.8987
2023-03-15 15:42:14:763,-0.00770074,0.929761,-9.78482,-5.04158,-0.13481,-39.9129
2023-03-15 15:42:14:774,0.0088712,0.932041,-9.77154,-5.04834,-0.134443,-39.9268
2023-03-15 15:42:14:783,0.012708,0.947103,-9.78367,-5.06058,-0.136097,-39.9374
2023-03-15 15:42:14:794,0.0045568,0.931711,-9.78245,-5.06926,-0.139304,-39.9467
2023-03-15 15:42:14:803,0.00609067,0.925832,-9.77619,-5.06864,-0.143697,-39.9565
2023-03-15 15:42:14:814,0.00949648,0.925706,-9.76105,-5.06761,-0.150296,-39.965
2023-03-15 15:42:14:823,0.00927446,0.901932,-9.74599,-5.06583,-0.153461,-39.9705
2023-03-15 15:42:14:833,0.0356609,0.913402,-9.76815,-5.06465,-0.15617,-39.9737
2023-03-15 15:42:14:843,0.0469078,0.904922,-9.76595,-5.06362,-0.158892,-39.9764
2023-03-15 15:42:14:853,0.0255866,0.887419,-9.71623,-5.05623,-0.161915,-39.9815
2023-03-15 15:42:14:863,-0.00775162,0.871001,-9.68106,-5.04819,-0.165885,-39.981
2023-03-15 15:42:14:874,-0.0197807,0.871269,-9.68702,-5.04122,-0.171097,-39.9781
2023-03-15 15:42:14:883,-0.0351105,0.888059,-9.72355,-5.04019,-0.176419,-39.9746
2023-03-15 15:42:14:894,-0.0610393,0.90841,-9.74367,-5.03676,-0.180138,-39.9706
2023-03-15 15:42:14:903,-0.0705506,0.894681,-9.73628,-5.03107,-0.183485,-39.9689
2023-03-15 15:42:14:914,-0.063763,0.878166,-9.74624,-5.02198,-0.183744,-39.9685
2023-03-15 15:42:14:923,-0.0406738,0.871815,-9.74994,-5.01124,-0.182012,-39.9676
2023-03-15 15:42:14:933,-0.0410842,0.872788,-9.7286,-4.99854,-0.180035,-39.9691
2023-03-15 15:42:14:943,-0.0569281,0.877547,-9.70281,-4.98982,-0.177897,-39.9741
2023-03-15 15:42:14:953,-0.0333458,0.870817,-9.673,-4.9848,-0.18152,-39.9819
2023-03-15 15:42:14:963,-0.0195476,0.864018,-9.65047,-4.97638,-0.190666,-39.9912
2023-03-15 15:42:14:973,-0.0148053,0.887318,-9.6857,-4.97267,-0.197139,-39.9979
2023-03-15 15:42:14:983,0.0263942,0.883629,-9.71921,-4.97186,-0.200835,-40.0059
2023-03-15 15:42:14:993,0.0384164,0.88255,-9.71487,-4.96979,-0.207397,-40.0136
2023-03-15 15:42:15:3,0.0453905,0.876074,-9.71207,-4.97043,-0.210752,-40.0151
2023-03-15 15:42:15:13,0.0375806,0.897668,-9.73888,-4.97648,-0.21813,-40.0118
2023-03-15 15:42:15:23,0.0149458,0.898742,-9.7651,-4.98109,-0.223701,-40.0025
2023-03-15 15:42:15:33,-0.00833628,0.904907,-9.76473,-4.98035,-0.224289,-39.9926
2023-03-15 15:42:15:43,-0.0333726,0.899457,-9.77313,-4.98278,-0.223427,-39.984
2023-03-15 15:42:15:53,-0.0553329,0.904927,-9.79102,-4.98286,-0.22688,-39.9711
2023-03-15 15:42:15:63,-0.0720198,0.908686,-9.7705,-4.97987,-0.227785,-39.9592
2023-03-15 15:42:15:73,-0.0692578,0.909857,-9.73344,-4.97585,-0.225869,-39.95
2023-03-15 15:42:15:83,-0.0865378,0.897448,-9.6983,-4.97111,-0.227638,-39.9395
2023-03-15 15:42:15:94,-0.0868704,0.897525,-9.68833,-4.96812,-0.229236,-39.9334
2023-03-15 15:42:15:103,-0.0761486,0.908919,-9.70869,-4.9676,-0.231628,-39.9294
2023-03-15 15:42:15:113,-0.0767029,0.913526,-9.72511,-4.9693,-0.232881,-39.9279
2023-03-15 15:42:15:123,-0.0764568,0.914487,-9.75628,-4.97106,-0.235306,-39.928
2023-03-15 15:42:15:133,-0.0791946,0.912447,-9.73936,-4.97217,-0.239852,-39.9276
2023-03-15 15:42:15:143,-0.072144,0.89703,-9.7228,-4.9697,-0.243673,-39.928
2023-03-15 15:42:15:153,-0.0650906,0.88554,-9.72566,-4.96933,-0.25058,-39.9279
2023-03-15 15:42:15:163,-0.06269,0.882227,-9.73013,-4.96874,-0.252866,-39.9289
2023-03-15 15:42:15:173,-0.0338802,0.877251,-9.74234,-4.96657,-0.255633,-39.925
2023-03-15 15:42:15:183,-0.0276335,0.866578,-9.74397,-4.9587,-0.255582,-39.9187
2023-03-15 15:42:15:194,-0.0714381,0.856031,-9.71668,-4.95149,-0.257285,-39.9124
2023-03-15 15:42:15:203,-0.109704,0.848137,-9.67728,-4.94392,-0.258223,-39.9089
2023-03-15 15:42:15:214,-0.0985617,0.839815,-9.65577,-4.93668,-0.258344,-39.9051
2023-03-15 15:42:15:223,-0.108337,0.848213,-9.69897,-4.93646,-0.257156,-39.9026
2023-03-15 15:42:15:233,-0.11064,0.871375,-9.75173,-4.94198,-0.256277,-39.9026
2023-03-15 15:42:15:243,-0.0959134,0.87081,-9.77338,-4.94256,-0.255375,-39.9075
2023-03-15 15:42:15:253,-0.045721,0.868322,-9.80757,-4.94465,-0.25157,-39.9139
2023-03-15 15:42:15:263,-0.000682167,0.873102,-9.8032,-4.94546,-0.25837,-39.9206
2023-03-15 15:42:15:273,0.00258079,0.858885,-9.77582,-4.94457,-0.268663,-39.9247
2023-03-15 15:42:15:283,-0.0188662,0.852946,-9.75527,-4.93668,-0.280627,-39.9302
2023-03-15 15:42:15:293,-0.0613349,0.847929,-9.72746,-4.92837,-0.287663,-39.9385
2023-03-15 15:42:15:303,-0.0863005,0.819578,-9.70133,-4.91852,-0.298875,-39.9433
2023-03-15 15:42:15:313,-0.0676171,0.826793,-9.70245,-4.91142,-0.307421,-39.9463
2023-03-15 15:42:15:323,-0.0286331,0.819927,-9.71175,-4.90771,-0.311599,-39.9509
2023-03-15 15:42:15:334,-0.039571,0.833711,-9.72193,-4.90467,-0.313761,-39.9496
2023-03-15 15:42:15:343,-0.0793673,0.839047,-9.71481,-4.89887,-0.314639,-39.9449
2023-03-15 15:42:15:353,-0.109351,0.837362,-9.68194,-4.89555,-0.311916,-39.9376
2023-03-15 15:42:15:363,-0.154237,0.836613,-9.6512,-4.89351,-0.306028,-39.9279
2023-03-15 15:42:15:373,-0.178814,0.838107,-9.61216,-4.89237,-0.299421,-39.9233
2023-03-15 15:42:15:383,-0.160363,0.840563,-9.62722,-4.89338,-0.291767,-39.9232
2023-03-15 15:42:15:393,-0.141031,0.869097,-9.67601,-4.89944,-0.277865,-39.9264
2023-03-15 15:42:15:403,-0.128123,0.880431,-9.70414,-4.90557,-0.263971,-39.9302
2023-03-15 15:42:15:413,-0.110072,0.879336,-9.72282,-4.91435,-0.254403,-39.9426
2023-03-15 15:42:15:423,-0.0922848,0.882885,-9.76181,-4.92194,-0.245518,-39.958
2023-03-15 15:42:15:433,-0.077974,0.880715,-9.7747,-4.93294,-0.237463,-39.975
2023-03-15 15:42:15:443,-0.0483448,0.877697,-9.76217,-4.94202,-0.228679,-39.9933
2023-03-15 15:42:15:453,-0.043527,0.861878,-9.75484,-4.95151,-0.221192,-40.0126
2023-03-15 15:42:15:463,-0.055104,0.863813,-9.74207,-4.96002,-0.213029,-40.0311
2023-03-15 15:42:15:473,-0.0420733,0.867547,-9.75805,-4.9653,-0.201992,-40.0492
2023-03-15 15:42:15:483,-0.00858323,0.868646,-9.74185,-4.97241,-0.18944,-40.0694
2023-03-15 15:42:15:493,0.0335927,0.870146,-9.75796,-4.97904,-0.175386,-40.09
2023-03-15 15:42:15:503,0.0763299,0.885838,-9.77349,-4.9892,-0.158493,-40.105
2023-03-15 15:42:15:513,0.10602,0.867398,-9.75423,-4.99383,-0.143884,-40.1153
2023-03-15 15:42:15:523,0.0805377,0.860638,-9.73649,-4.99585,-0.130098,-40.1243
2023-03-15 15:42:15:533,0.0691767,0.859895,-9.70683,-4.99716,-0.117026,-40.1259
2023-03-15 15:42:15:543,0.0698999,0.862153,-9.71618,-5.00559,-0.105246,-40.1292
2023-03-15 15:42:15:553,0.0572396,0.867514,-9.72678,-5.00898,-0.097404,-40.1347
2023-03-15 15:42:15:563,0.0528489,0.872301,-9.7296,-5.01105,-0.0855923,-40.1366
2023-03-15 15:42:15:573,0.0709006,0.874598,-9.74457,-5.01577,-0.0762712,-40.1356
2023-03-15 15:42:15:583,0.0827943,0.869107,-9.75059,-5.02138,-0.065667,-40.1366
2023-03-15 15:42:15:593,0.0686006,0.881091,-9.7346,-5.02569,-0.0555899,-40.1333
2023-03-15 15:42:15:603,0.040743,0.873461,-9.73435,-5.02615,-0.047271,-40.131
2023-03-15 15:42:15:613,0.0281833,0.87909,-9.73101,-5.02728,-0.0400481,-40.1284
2023-03-15 15:42:15:623,0.0485839,0.876176,-9.72634,-5.03004,-0.038941,-40.1262
2023-03-15 15:42:15:633,0.0565973,0.879372,-9.72781,-5.03363,-0.0350583,-40.1235
2023-03-15 15:42:15:643,0.0459882,0.889381,-9.72913,-5.03993,-0.0326345,-40.1218
2023-03-15 15:42:15:653,0.0462401,0.874461,-9.74025,-5.04638,-0.0325765,-40.1169
2023-03-15 15:42:15:663,0.0313476,0.879034,-9.74938,-5.05195,-0.0336209,-40.1175
2023-03-15 15:42:15:673,0.0394751,0.880412,-9.74776,-5.05549,-0.0408052,-40.1141
2023-03-15 15:42:15:683,0.0565304,0.883736,-9.74415,-5.05966,-0.0450285,-40.1123
2023-03-15 15:42:15:693,0.0553,0.898964,-9.73447,-5.06191,-0.0446322,-40.1076
2023-03-15 15:42:15:703,0.0214998,0.888117,-9.71386,-5.06557,-0.0456698,-40.1047
2023-03-15 15:42:15:713,0.0187866,0.876614,-9.69843,-5.06886,-0.0498578,-40.0984
2023-03-15 15:42:15:723,0.0178132,0.873035,-9.7359,-5.07251,-0.0505792,-40.0903
2023-03-15 15:42:15:733,-0.00763944,0.908688,-9.7436,-5.07736,-0.0526356,-40.0803
2023-03-15 15:42:15:743,-0.00637045,0.919792,-9.75839,-5.08398,-0.0541995,-40.0735
2023-03-15 15:42:15:753,-0.00592541,0.912722,-9.78083,-5.09125,-0.054436,-40.0659
2023-03-15 15:42:15:763,-0.015163,0.912013,-9.77968,-5.09179,-0.0581918,-40.0623
2023-03-15 15:42:15:773,-0.0325093,0.915024,-9.76232,-5.09462,-0.0597303,-40.0582
2023-03-15 15:42:15:783,-0.0396827,0.917104,-9.7517,-5.09298,-0.064492,-40.0555
2023-03-15 15:42:15:793,-0.0352441,0.91608,-9.72886,-5.09205,-0.0674426,-40.0564
2023-03-15 15:42:15:803,-0.0362593,0.907242,-9.7103,-5.09014,-0.0711611,-40.0588
2023-03-15 15:42:15:813,-0.033741,0.895752,-9.69347,-5.09002,-0.0728266,-40.0578
2023-03-15 15:42:15:823,-0.0219113,0.876817,-9.67532,-5.09015,-0.0750332,-40.0566
2023-03-15 15:42:15:833,-0.0275783,0.869357,-9.66532,-5.09043,-0.0740877,-40.054
2023-03-15 15:42:15:843,-0.0266467,0.879805,-9.68234,-5.09106,-0.0731391,-40.0513
2023-03-15 15:42:15:853,0.00527555,0.878825,-9.72812,-5.09372,-0.0669631,-40.0523
2023-03-15 15:42:15:863,0.0106254,0.894662,-9.76397,-5.09868,-0.0601396,-40.0511
2023-03-15 15:42:15:873,-0.0525513,0.91727,-9.76106,-5.10711,-0.0541051,-40.047
2023-03-15 15:42:15:883,-0.0703718,0.91851,-9.74433,-5.11138,-0.0506799,-40.045
2023-03-15 15:42:15:893,-0.0473919,0.918331,-9.74805,-5.11685,-0.0450939,-40.0471
2023-03-15 15:42:15:903,-0.0313,0.907216,-9.75636,-5.11731,-0.0354823,-40.0476
2023-03-15 15:42:15:913,-0.0312756,0.895705,-9.74098,-5.1152,-0.0278372,-40.0529
2023-03-15 15:42:15:923,0.00313646,0.885073,-9.72918,-5.11063,-0.0194543,-40.0602
2023-03-15 15:42:15:934,0.0556487,0.863374,-9.74869,-5.10971,-0.0115925,-40.0655
2023-03-15 15:42:15:943,0.0704573,0.868075,-9.74311,-5.10883,-0.00859308,-40.0682
2023-03-15 15:42:15:954,0.0479003,0.860792,-9.68871,-5.10812,-0.00890103,-40.0703
2023-03-15 15:42:15:963,0.0106235,0.851712,-9.65808,-5.10535,-0.0127692,-40.0745
2023-03-15 15:42:15:973,-0.000302513,0.863975,-9.66793,-5.10894,-0.0132111,-40.0766
2023-03-15 15:42:15:983,0.0072033,0.882066,-9.69318,-5.11377,-0.0159902,-40.0766
2023-03-15 15:42:15:993,0.0048513,0.900911,-9.71256,-5.1222,-0.0160347,-40.0802
2023-03-15 15:42:16:3,0.028028,0.895528,-9.72601,-5.12984,-0.0124966,-40.0806
2023-03-15 15:42:16:13,0.0301834,0.905195,-9.73103,-5.1409,-0.00819652,-40.0764
2023-03-15 15:42:16:23,-0.0109402,0.930891,-9.7128,-5.15017,-0.00288488,-40.068
2023-03-15 15:42:16:34,-0.0343524,0.936123,-9.68725,-5.15744,0.00180115,-40.0615
2023-03-15 15:42:16:43,-0.050632,0.921646,-9.67168,-5.16537,0.00863824,-40.0573
2023-03-15 15:42:16:54,-0.0428786,0.924921,-9.65327,-5.17653,0.0159303,-40.057
2023-03-15 15:42:16:63,-0.0129696,0.924592,-9.67679,-5.18416,0.0217882,-40.0554
2023-03-15 15:42:16:73,0.00519545,0.934424,-9.70267,-5.19859,0.0297527,-40.0563
2023-03-15 15:42:16:83,0.0171524,0.949722,-9.72609,-5.2119,0.0341606,-40.0588
2023-03-15 15:42:16:93,0.0380096,0.945954,-9.737,-5.22447,0.0367072,-40.0629
2023-03-15 15:42:16:103,0.0212388,0.945344,-9.73227,-5.23972,0.0328171,-40.0717
2023-03-15 15:42:16:113,0.0138843,0.97182,-9.79117,-5.25703,0.0295246,-40.0796
2023-03-15 15:42:16:123,0.0129318,0.985778,-9.81087,-5.2698,0.0269206,-40.089
2023-03-15 15:42:16:134,0.0356856,0.96062,-9.7889,-5.28003,0.0262696,-40.0988
2023-03-15 15:42:16:143,0.0555941,0.945986,-9.79577,-5.28644,0.0250626,-40.1027
2023-03-15 15:42:16:153,0.0560642,0.969,-9.78535,-5.29301,0.0270229,-40.1044
2023-03-15 15:42:16:163,0.055121,0.973771,-9.80004,-5.29923,0.0264123,-40.1041
2023-03-15 15:42:16:173,0.0915145,0.990187,-9.83564,-5.30162,0.0295956,-40.103
2023-03-15 15:42:16:183,0.107209,0.957717,-9.80643,-5.29764,0.0329418,-40.1004
2023-03-15 15:42:16:193,0.0858031,0.92852,-9.73449,-5.28725,0.0326803,-40.0923
2023-03-15 15:42:16:203,0.0502039,0.926694,-9.69897,-5.27499,0.0295126,-40.084
2023-03-15 15:42:16:213,0.0449833,0.914677,-9.68659,-5.26464,0.0275036,-40.0745
2023-03-15 15:42:16:223,0.0355998,0.909217,-9.68752,-5.25742,0.0258268,-40.0668
2023-03-15 15:42:16:234,0.0151692,0.929283,-9.72539,-5.2503,0.0269931,-40.0606
2023-03-15 15:42:16:243,0.0068682,0.936897,-9.76552,-5.24906,0.0238079,-40.0557
2023-03-15 15:42:16:254,0.0152201,0.933663,-9.78093,-5.24121,0.0210603,-40.051
2023-03-15 15:42:16:263,0.0368285,0.925975,-9.78014,-5.23123,0.0219002,-40.0461
2023-03-15 15:42:16:274,0.0224217,0.919924,-9.75391,-5.22,0.0150396,-40.0379
2023-03-15 15:42:16:283,0.00587761,0.897444,-9.72595,-5.20635,0.00829571,-40.0366
2023-03-15 15:42:16:294,0.0190537,0.865258,-9.69996,-5.19273,0.00163424,-40.0317
2023-03-15 15:42:16:303,0.0242473,0.844193,-9.66769,-5.17768,-0.00557807,-40.0284
2023-03-15 15:42:16:313,0.0198455,0.834371,-9.65103,-5.16692,-0.0113244,-40.024
2023-03-15 15:42:16:323,0.0294217,0.806066,-9.65253,-5.15938,-0.0194495,-40.0163
2023-03-15 15:42:16:334,0.0194635,0.829624,-9.67438,-5.15655,-0.0267582,-40.0045
2023-03-15 15:42:16:343,0.0132193,0.869569,-9.71306,-5.15824,-0.0339999,-39.9905
2023-03-15 15:42:16:353,0.00398772,0.870138,-9.72157,-5.16399,-0.0381537,-39.9783
2023-03-15 15:42:16:363,0.0138546,0.871648,-9.72363,-5.16809,-0.0427069,-39.9629
2023-03-15 15:42:16:373,0.00259818,0.87801,-9.73985,-5.17405,-0.0498627,-39.9488
2023-03-15 15:42:16:383,-0.0214888,0.889419,-9.73552,-5.17988,-0.0543254,-39.9324
2023-03-15 15:42:16:394,-0.0463475,0.891511,-9.71263,-5.18561,-0.058533,-39.9179
2023-03-15 15:42:16:403,-0.0645862,0.89451,-9.6968,-5.18587,-0.0628165,-39.9024
2023-03-15 15:42:16:413,-0.070594,0.901839,-9.68727,-5.19393,-0.0645793,-39.8866
2023-03-15 15:42:16:423,-0.0521309,0.915123,-9.68114,-5.19917,-0.064205,-39.8765
2023-03-15 15:42:16:433,-0.0388296,0.918467,-9.69526,-5.20729,-0.062352,-39.8652
2023-03-15 15:42:16:443,-0.0362715,0.93216,-9.69722,-5.21636,-0.0652668,-39.8591
2023-03-15 15:42:16:454,-0.0365776,0.951137,-9.70097,-5.22682,-0.0690284,-39.8523
2023-03-15 15:42:16:464,-0.0254826,0.9438,-9.69666,-5.23883,-0.0738621,-39.8523
2023-03-15 15:42:16:473,-0.0534708,0.948719,-9.68105,-5.25101,-0.0914261,-39.8487
2023-03-15 15:42:16:483,-0.0795213,0.980549,-9.74141,-5.26883,-0.108673,-39.8522
2023-03-15 15:42:16:493,-0.0831752,0.979717,-9.74428,-5.28193,-0.118949,-39.8599
2023-03-15 15:42:16:503,-0.0392727,0.973705,-9.69586,-5.28867,-0.126016,-39.8664
2023-03-15 15:42:16:513,-0.01198,0.966577,-9.66551,-5.29501,-0.128333,-39.8758
2023-03-15 15:42:16:523,-0.0149448,0.973191,-9.69083,-5.30891,-0.133984,-39.8807
2023-03-15 15:42:16:533,-0.0126498,0.982811,-9.73213,-5.32138,-0.138554,-39.8848
2023-03-15 15:42:16:543,0.00587324,0.987028,-9.75767,-5.33537,-0.141702,-39.8877
2023-03-15 15:42:16:553,0.00499118,0.989453,-9.75508,-5.34672,-0.141695,-39.8849
2023-03-15 15:42:16:563,-0.0213502,1.00561,-9.75854,-5.35835,-0.136691,-39.8812
2023-03-15 15:42:16:573,-0.0243512,1.01462,-9.77583,-5.36975,-0.137652,-39.8784
2023-03-15 15:42:16:583,-0.00907315,1.01592,-9.76439,-5.38371,-0.138832,-39.8767
2023-03-15 15:42:16:594,-0.0359695,1.01047,-9.76294,-5.39763,-0.132036,-39.8719
2023-03-15 15:42:16:603,-0.0558556,1.00204,-9.75141,-5.40237,-0.123879,-39.8704
2023-03-15 15:42:16:613,-0.0469492,0.984215,-9.73575,-5.40747,-0.120203,-39.8693
2023-03-15 15:42:16:623,-0.0515132,0.970035,-9.72371,-5.41122,-0.116447,-39.8696
2023-03-15 15:42:16:633,-0.0398446,0.962703,-9.72858,-5.41195,-0.113071,-39.8715
2023-03-15 15:42:16:643,-0.0283936,0.960232,-9.73778,-5.41643,-0.109147,-39.8737
2023-03-15 15:42:16:654,-0.000165198,0.949748,-9.7575,-5.41924,-0.105057,-39.8803
2023-03-15 15:42:16:664,0.0206749,0.943329,-9.73958,-5.42011,-0.106112,-39.8847
2023-03-15 15:42:16:673,-0.000442028,0.935453,-9.71936,-5.42156,-0.105325,-39.8863
2023-03-15 15:42:16:683,-0.022304,0.925546,-9.70415,-5.42267,-0.107513,-39.8905
2023-03-15 15:42:16:694,-0.0472231,0.92667,-9.70187,-5.42022,-0.109207,-39.8939
2023-03-15 15:42:16:704,-0.0558154,0.916589,-9.71966,-5.41619,-0.104499,-39.897
2023-03-15 15:42:16:714,-0.0154371,0.920076,-9.72668,-5.41012,-0.102874,-39.8999
2023-03-15 15:42:16:723,0.0284249,0.915126,-9.7375,-5.40778,-0.0963979,-39.9063
2023-03-15 15:42:16:733,0.041698,0.922559,-9.73078,-5.40848,-0.0944843,-39.9047
2023-03-15 15:42:16:743,0.0133107,0.931437,-9.70131,-5.41052,-0.0943715,-39.9052
2023-03-15 15:42:16:753,-0.0146346,0.934656,-9.68131,-5.4117,-0.0984282,-39.9057
2023-03-15 15:42:16:763,-0.0479159,0.947317,-9.69075,-5.41689,-0.103512,-39.9101
2023-03-15 15:42:16:773,-0.0517219,0.967119,-9.72124,-5.42362,-0.106749,-39.9207
2023-03-15 15:42:16:783,-0.0352706,1.00468,-9.74903,-5.43311,-0.10755,-39.9283
2023-03-15 15:42:16:793,-0.000869124,1.00837,-9.78178,-5.4411,-0.116208,-39.9383
2023-03-15 15:42:16:803,-0.00827289,1.00162,-9.70019,-5.4476,-0.124012,-39.9487
2023-03-15 15:42:16:813,-0.0448986,1.00336,-9.67052,-5.45643,-0.13933,-39.9604
2023-03-15 15:42:16:823,-0.0524961,1.07369,-9.77987,-5.4702,-0.1457,-39.9691
2023-03-15 15:42:16:833,-0.0507205,1.08179,-9.82132,-5.48008,-0.146657,-39.9813
2023-03-15 15:42:16:843,-0.0243786,1.03436,-9.74669,-5.47794,-0.145608,-39.9971
2023-03-15 15:42:16:854,0.0204684,1.00418,-9.7436,-5.47118,-0.141197,-40.0104
2023-03-15 15:42:16:863,0.0684795,1.00693,-9.77455,-5.46382,-0.135939,-40.0168
2023-03-15 15:42:16:874,0.077641,0.999167,-9.80357,-5.4567,-0.132952,-40.0187
2023-03-15 15:42:16:883,0.0626924,0.987064,-9.81269,-5.44668,-0.131168,-40.0209
2023-03-15 15:42:16:894,0.0467856,0.982402,-9.80349,-5.4348,-0.128678,-40.0215
2023-03-15 15:42:16:903,0.0402451,0.958269,-9.77254,-5.42323,-0.128577,-40.0248
2023-03-15 15:42:16:914,0.0426406,0.956237,-9.75478,-5.40809,-0.134327,-40.0239
2023-03-15 15:42:16:923,0.0327078,0.940722,-9.72929,-5.39244,-0.136617,-40.0219
2023-03-15 15:42:16:933,0.017217,0.922204,-9.69697,-5.37608,-0.141224,-40.0205
2023-03-15 15:42:16:943,-0.00912743,0.915695,-9.69765,-5.36167,-0.146478,-40.0161
2023-03-15 15:42:16:954,-0.0304748,0.914128,-9.67071,-5.34979,-0.152988,-40.0119
2023-03-15 15:42:16:964,-0.00922818,0.903511,-9.65619,-5.33798,-0.158422,-40.0092
2023-03-15 15:42:16:974,0.0471201,0.904298,-9.68162,-5.32748,-0.163109,-40.002
2023-03-15 15:42:16:983,0.0788953,0.917306,-9.70214,-5.31628,-0.162697,-39.9968
2023-03-15 15:42:16:994,0.042801,0.926576,-9.70286,-5.31202,-0.162203,-39.9874
2023-03-15 15:42:17:3,0.00617247,0.925963,-9.69745,-5.30664,-0.16718,-39.976
2023-03-15 15:42:17:13,-0.0285553,0.916763,-9.70296,-5.29954,-0.171048,-39.9637
2023-03-15 15:42:17:23,-0.0707436,0.931137,-9.71874,-5.29169,-0.176383,-39.9526
2023-03-15 15:42:17:33,-0.0943325,0.924006,-9.70661,-5.28603,-0.179552,-39.9431
2023-03-15 15:42:17:43,-0.109864,0.928118,-9.69276,-5.27713,-0.184469,-39.9387
2023-03-15 15:42:17:53,-0.119668,0.922777,-9.71819,-5.26955,-0.187841,-39.933
2023-03-15 15:42:17:63,-0.120185,0.939279,-9.73093,-5.2638,-0.191445,-39.9315
2023-03-15 15:42:17:74,-0.119917,0.943248,-9.7462,-5.25844,-0.195354,-39.9332
2023-03-15 15:42:17:83,-0.119461,0.932492,-9.74843,-5.25506,-0.198559,-39.938
2023-03-15 15:42:17:93,-0.0994702,0.921331,-9.7399,-5.25049,-0.200084,-39.9473
2023-03-15 15:42:17:103,-0.0655125,0.907648,-9.73868,-5.24683,-0.204707,-39.9537
2023-03-15 15:42:17:113,-0.0553475,0.910908,-9.74294,-5.24128,-0.205919,-39.9602
2023-03-15 15:42:17:123,-0.0736177,0.897749,-9.73295,-5.23657,-0.20965,-39.9715
2023-03-15 15:42:17:133,-0.048688,0.885907,-9.71074,-5.22994,-0.213463,-39.9811
2023-03-15 15:42:17:143,-0.0370591,0.872163,-9.70527,-5.22375,-0.218778,-39.9901
2023-03-15 15:42:17:153,-0.0401149,0.862092,-9.69163,-5.21815,-0.228027,-39.9994
2023-03-15 15:42:17:163,-0.0495314,0.862404,-9.68124,-5.21365,-0.232614,-40.0068
2023-03-15 15:42:17:174,-0.0381855,0.868374,-9.6873,-5.209,-0.239372,-40.0133
2023-03-15 15:42:17:183,-0.0424421,0.883957,-9.68385,-5.20773,-0.240946,-40.0207
2023-03-15 15:42:17:194,-0.0332488,0.877517,-9.69713,-5.21189,-0.239081,-40.0262
2023-03-15 15:42:17:203,-0.0413258,0.889729,-9.73558,-5.21544,-0.235621,-40.0308
2023-03-15 15:42:17:214,-0.0535642,0.908098,-9.75405,-5.22102,-0.233661,-40.0326
2023-03-15 15:42:17:223,-0.0649046,0.90793,-9.7545,-5.22104,-0.230292,-40.0339
2023-03-15 15:42:17:233,-0.0495571,0.880831,-9.72433,-5.2223,-0.225026,-40.035
2023-03-15 15:42:17:243,-0.0478031,0.885655,-9.72267,-5.22175,-0.223661,-40.0365
2023-03-15 15:42:17:254,-0.0387222,0.90009,-9.72259,-5.22225,-0.216921,-40.0415
2023-03-15 15:42:17:263,-0.0227678,0.898438,-9.71976,-5.2229,-0.210329,-40.0469
2023-03-15 15:42:17:273,-0.00517319,0.903748,-9.71802,-5.22292,-0.206061,-40.05
2023-03-15 15:42:17:283,0.00567583,0.911244,-9.73464,-5.22751,-0.2017,-40.0531
2023-03-15 15:42:17:294,-0.00858797,0.90942,-9.75088,-5.22959,-0.203828,-40.0571
2023-03-15 15:42:17:303,-0.00640665,0.916287,-9.75475,-5.22788,-0.205679,-40.0601
2023-03-15 15:42:17:314,-0.00879437,0.915424,-9.76299,-5.22649,-0.210518,-40.0636
2023-03-15 15:42:17:323,-0.00931095,0.918364,-9.77631,-5.22513,-0.213694,-40.0686
2023-03-15 15:42:17:333,0.00699503,0.917785,-9.77924,-5.22018,-0.217798,-40.0711
2023-03-15 15:42:17:343,0.0103479,0.90293,-9.76264,-5.2165,-0.222197,-40.0745
2023-03-15 15:42:17:353,-0.0108001,0.879455,-9.749,-5.21139,-0.22615,-40.0741
2023-03-15 15:42:17:363,-0.00811712,0.893276,-9.75502,-5.20417,-0.227436,-40.0718
2023-03-15 15:42:17:373,-0.0140964,0.891883,-9.74903,-5.19586,-0.232082,-40.0705
2023-03-15 15:42:17:383,-0.0186094,0.878651,-9.71766,-5.18847,-0.237283,-40.0675
2023-03-15 15:42:17:394,-0.0185168,0.874967,-9.68632,-5.1796,-0.242958,-40.0619
2023-03-15 15:42:17:403,-0.00583415,0.888175,-9.67873,-5.1766,-0.24707,-40.0551
2023-03-15 15:42:17:414,-0.00447742,0.898161,-9.70436,-5.17162,-0.252076,-40.0521
2023-03-15 15:42:17:423,-0.00239896,0.900549,-9.75885,-5.17186,-0.256165,-40.0447
2023-03-15 15:42:17:434,-0.0155104,0.929248,-9.77898,-5.17419,-0.262842,-40.0377
2023-03-15 15:42:17:443,-0.0512422,0.932345,-9.79079,-5.17056,-0.272075,-40.0306
2023-03-15 15:42:17:454,-0.0927207,0.955191,-9.77903,-5.16501,-0.28371,-40.0251
2023-03-15 15:42:17:463,-0.10065,0.935222,-9.74761,-5.1544,-0.293258,-40.0219
2023-03-15 15:42:17:473,-0.0671618,0.914157,-9.70614,-5.14488,-0.305029,-40.0285
2023-03-15 15:42:17:483,-0.0294135,0.882174,-9.69648,-5.13312,-0.322965,-40.0325
2023-03-15 15:42:17:494,-0.0194074,0.855045,-9.67112,-5.12209,-0.339586,-40.0346
2023-03-15 15:42:17:503,0.00492202,0.831779,-9.66339,-5.10919,-0.350018,-40.0355
2023-03-15 15:42:17:513,0.0213754,0.83085,-9.70178,-5.10024,-0.359355,-40.0323
2023-03-15 15:42:17:523,0.01834,0.832627,-9.73056,-5.09128,-0.370072,-40.0278
2023-03-15 15:42:17:533,0.0315644,0.826701,-9.73092,-5.08392,-0.380139,-40.0186
2023-03-15 15:42:17:543,0.0647918,0.818494,-9.74689,-5.07292,-0.385836,-40.0075
2023-03-15 15:42:17:553,0.0578061,0.82527,-9.76194,-5.06848,-0.394513,-39.9913
2023-03-15 15:42:17:563,0.000436593,0.814173,-9.74188,-5.06114,-0.407826,-39.9685
2023-03-15 15:42:17:573,-0.0466493,0.816392,-9.71228,-5.05105,-0.423974,-39.9493
2023-03-15 15:42:17:583,-0.0727472,0.823518,-9.72235,-5.04502,-0.437918,-39.932
2023-03-15 15:42:17:593,-0.101788,0.819071,-9.69435,-5.04042,-0.444224,-39.9122
2023-03-15 15:42:17:603,-0.110099,0.812765,-9.64805,-5.03561,-0.450239,-39.8919
2023-03-15 15:42:17:614,-0.126926,0.825004,-9.6511,-5.03583,-0.459331,-39.869
2023-03-15 15:42:17:623,-0.191345,0.855536,-9.68037,-5.04003,-0.465988,-39.85
2023-03-15 15:42:17:634,-0.247387,0.872622,-9.67516,-5.04531,-0.472641,-39.8345
2023-03-15 15:42:17:643,-0.264032,0.886181,-9.65209,-5.05047,-0.481842,-39.8237
2023-03-15 15:42:17:653,-0.28799,0.897411,-9.62966,-5.05901,-0.484433,-39.8185
2023-03-15 15:42:17:663,-0.276825,0.902731,-9.61665,-5.07221,-0.48335,-39.8213
2023-03-15 15:42:17:673,-0.244267,0.916987,-9.66178,-5.08768,-0.478915,-39.8323
2023-03-15 15:42:17:683,-0.231809,0.935843,-9.70112,-5.10342,-0.476258,-39.85
2023-03-15 15:42:17:693,-0.184779,0.94688,-9.73811,-5.12408,-0.470292,-39.8715
2023-03-15 15:42:17:703,-0.127247,0.954891,-9.79385,-5.14958,-0.462726,-39.8974
2023-03-15 15:42:17:713,-0.0880228,0.961512,-9.80135,-5.16705,-0.453853,-39.9228
2023-03-15 15:42:17:723,-0.0617293,0.938526,-9.78901,-5.18307,-0.449886,-39.9521
2023-03-15 15:42:17:733,-0.0525334,0.93268,-9.77894,-5.19543,-0.444652,-39.9829
2023-03-15 15:42:17:743,-0.0465184,0.932424,-9.76025,-5.20764,-0.439626,-40.0098
2023-03-15 15:42:17:753,-0.0439336,0.939133,-9.75293,-5.2206,-0.437471,-40.0347
2023-03-15 15:42:17:763,-0.061217,0.965608,-9.73982,-5.23349,-0.432408,-40.0594
2023-03-15 15:42:17:773,-0.0364313,0.967883,-9.75802,-5.24484,-0.422093,-40.0832
2023-03-15 15:42:17:783,0.0133577,0.966422,-9.8245,-5.25222,-0.409791,-40.1055
2023-03-15 15:42:17:793,0.0870011,0.970432,-9.90175,-5.25972,-0.396602,-40.1236
2023-03-15 15:42:17:803,0.127938,0.936078,-9.90849,-5.25732,-0.388286,-40.1346
2023-03-15 15:42:17:813,0.100605,0.885939,-9.81828,-5.24329,-0.380372,-40.1402
2023-03-15 15:42:17:823,0.0408735,0.820494,-9.69479,-5.22607,-0.381782,-40.1358
2023-03-15 15:42:17:834,-0.0638146,0.790421,-9.59656,-5.20472,-0.38353,-40.1266
2023-03-15 15:42:17:843,-0.120784,0.779589,-9.52174,-5.19149,-0.382183,-40.1191
2023-03-15 15:42:17:854,-0.146118,0.792899,-9.50004,-5.18636,-0.380066,-40.1147
2023-03-15 15:42:17:863,-0.140904,0.831907,-9.56692,-5.19162,-0.375929,-40.1133
2023-03-15 15:42:17:873,-0.103015,0.89062,-9.63764,-5.21189,-0.368251,-40.1188
2023-03-15 15:42:17:883,-0.0518109,0.91825,-9.71581,-5.23591,-0.360122,-40.1283
2023-03-15 15:42:17:894,-0.00508836,0.965176,-9.81936,-5.26059,-0.353575,-40.1381
2023-03-15 15:42:17:903,0.00273854,1.00924,-9.8552,-5.28621,-0.35044,-40.1477
2023-03-15 15:42:17:913,-0.00130924,0.977529,-9.79796,-5.3026,-0.35397,-40.1556
2023-03-15 15:42:17:923,0.0443537,0.956331,-9.76335,-5.31452,-0.357176,-40.1649
2023-03-15 15:42:17:933,0.138539,0.965228,-9.82094,-5.32832,-0.362146,-40.1664
2023-03-15 15:42:17:943,0.147462,0.985519,-9.89198,-5.34293,-0.368592,-40.1614
2023-03-15 15:42:17:953,0.0733988,0.989621,-9.88701,-5.34791,-0.375844,-40.1445
2023-03-15 15:42:17:963,0.0510331,0.946954,-9.82569,-5.34218,-0.3827,-40.1218
2023-03-15 15:42:17:973,0.036571,0.882783,-9.73563,-5.32827,-0.39044,-40.0963
2023-03-15 15:42:17:983,-0.0382563,0.857579,-9.66307,-5.3151,-0.403254,-40.0667
2023-03-15 15:42:17:993,-0.141153,0.860892,-9.6431,-5.3023,-0.421939,-40.0313
2023-03-15 15:42:18:3,-0.24558,0.853643,-9.62088,-5.29482,-0.444122,-39.9982
2023-03-15 15:42:18:13,-0.331138,0.85049,-9.5888,-5.2934,-0.463327,-39.972
2023-03-15 15:42:18:23,-0.37143,0.868142,-9.58417,-5.29408,-0.483308,-39.9592
2023-03-15 15:42:18:33,-0.378136,0.875438,-9.61465,-5.30641,-0.498297,-39.9518
2023-03-15 15:42:18:43,-0.341239,0.888739,-9.64976,-5.32224,-0.51155,-39.9537
2023-03-15 15:42:18:54,-0.278274,0.90808,-9.71202,-5.34306,-0.517337,-39.9647
2023-03-15 15:42:18:63,-0.211063,0.941787,-9.75249,-5.36388,-0.520177,-39.9797
2023-03-15 15:42:18:74,-0.148738,0.931075,-9.7733,-5.38628,-0.518167,-39.9965
2023-03-15 15:42:18:83,-0.121023,0.940667,-9.7579,-5.40569,-0.517236,-40.0106
2023-03-15 15:42:18:93,-0.0934346,0.959156,-9.75348,-5.42389,-0.515023,-40.0269
2023-03-15 15:42:18:103,-0.0725074,0.952981,-9.72349,-5.44611,-0.512537,-40.0394
2023-03-15 15:42:18:113,-0.0724229,0.954967,-9.71027,-5.46293,-0.517327,-40.0533
2023-03-15 15:42:18:123,-0.0807538,1.01119,-9.77803,-5.48385,-0.51957,-40.0674
2023-03-15 15:42:18:133,-0.0703873,1.01715,-9.80649,-5.49601,-0.516257,-40.0802
2023-03-15 15:42:18:143,-0.0427206,0.975314,-9.76559,-5.50582,-0.507333,-40.0867
2023-03-15 15:42:18:153,7.01133e-05,0.953485,-9.73955,-5.51028,-0.497396,-40.0879
2023-03-15 15:42:18:163,0.0094938,0.970356,-9.75621,-5.51578,-0.488842,-40.0867
2023-03-15 15:42:18:174,-0.0153799,0.960161,-9.73552,-5.52039,-0.476886,-40.0838
2023-03-15 15:42:18:183,-0.00799042,0.956457,-9.71805,-5.52724,-0.467638,-40.0842
2023-03-15 15:42:18:194,0.0188433,0.962368,-9.72186,-5.53185,-0.457622,-40.0818
2023-03-15 15:42:18:203,0.0260261,0.984981,-9.73202,-5.53577,-0.446252,-40.0738
2023-03-15 15:42:18:213,0.0312007,0.975721,-9.75848,-5.54069,-0.432532,-40.0689
2023-03-15 15:42:18:223,0.0505141,0.979771,-9.77534,-5.54548,-0.419164,-40.0594
2023-03-15 15:42:18:234,0.0655045,0.987303,-9.78625,-5.55023,-0.404194,-40.0492
2023-03-15 15:42:18:243,0.0668453,0.995971,-9.83767,-5.55301,-0.392986,-40.0348
2023-03-15 15:42:18:253,0.0712689,1.00023,-9.88887,-5.55518,-0.383581,-40.0194
2023-03-15 15:42:18:263,0.155788,0.977985,-9.89792,-5.55016,-0.378302,-40.0021
2023-03-15 15:42:18:274,0.199057,0.902352,-9.86326,-5.53468,-0.376853,-39.9816
2023-03-15 15:42:18:283,0.136953,0.868208,-9.80677,-5.51275,-0.378623,-39.9502
2023-03-15 15:42:18:294,0.0763682,0.832061,-9.70922,-5.48362,-0.382926,-39.9136
2023-03-15 15:42:18:303,-0.0583109,0.803937,-9.57482,-5.45556,-0.394863,-39.8758
2023-03-15 15:42:18:313,-0.193883,0.772897,-9.45542,-5.42746,-0.416836,-39.8389
2023-03-15 15:42:18:323,-0.286919,0.773052,-9.40949,-5.41244,-0.442431,-39.8113
2023-03-15 15:42:18:333,-0.338602,0.794968,-9.46376,-5.41804,-0.466756,-39.7931
2023-03-15 15:42:18:343,-0.369793,0.847361,-9.59208,-5.43583,-0.485895,-39.7827
2023-03-15 15:42:18:353,-0.325771,0.906407,-9.70272,-5.46244,-0.498839,-39.7812
2023-03-15 15:42:18:363,-0.268663,0.932968,-9.73364,-5.4887,-0.509635,-39.7871
2023-03-15 15:42:18:374,-0.279916,0.931862,-9.67931,-5.51918,-0.52684,-39.7955
2023-03-15 15:42:18:383,-0.292521,0.98471,-9.69786,-5.55251,-0.541855,-39.8112
2023-03-15 15:42:18:394,-0.257292,1.01148,-9.75111,-5.58359,-0.552122,-39.8284
2023-03-15 15:42:18:403,-0.187441,1.00081,-9.77638,-5.61047,-0.544221,-39.8514
2023-03-15 15:42:18:413,-0.112507,0.999786,-9.75825,-5.63465,-0.530812,-39.8708
2023-03-15 15:42:18:423,-0.0430312,1.00793,-9.79691,-5.6597,-0.517591,-39.8927
2023-03-15 15:42:18:434,0.0140349,1.03396,-9.85591,-5.68121,-0.505042,-39.9106
2023-03-15 15:42:18:443,0.000833876,1.03646,-9.82251,-5.69669,-0.50078,-39.9265
2023-03-15 15:42:18:453,-0.0322418,1.00371,-9.73265,-5.70935,-0.498953,-39.9381
2023-03-15 15:42:18:463,-0.0499828,1.00762,-9.71374,-5.72096,-0.497732,-39.9483
2023-03-15 15:42:18:474,-0.0858569,1.05454,-9.74046,-5.7363,-0.495803,-39.955
2023-03-15 15:42:18:483,-0.0821556,1.06534,-9.76376,-5.74633,-0.488261,-39.9668
2023-03-15 15:42:18:494,-0.0151,1.0518,-9.75627,-5.75451,-0.479327,-39.9761
2023-03-15 15:42:18:503,0.0323869,1.03816,-9.71905,-5.75827,-0.467897,-39.9785
2023-03-15 15:42:18:514,0.0190836,1.01063,-9.68079,-5.76029,-0.456057,-39.9776
2023-03-15 15:42:18:523,-0.0073127,1.02836,-9.65699,-5.76113,-0.448633,-39.9695
2023-03-15 15:42:18:534,-0.0587458,1.0497,-9.65258,-5.77083,-0.44425,-39.9619
2023-03-15 15:42:18:543,-0.0871577,1.05869,-9.67011,-5.78273,-0.44452,-39.956
2023-03-15 15:42:18:553,-0.0941118,1.06889,-9.67795,-5.79603,-0.450383,-39.9532
2023-03-15 15:42:18:563,-0.0976958,1.07713,-9.70985,-5.81262,-0.456384,-39.9531
2023-03-15 15:42:18:573,-0.0973095,1.08921,-9.74586,-5.82746,-0.463429,-39.9497
2023-03-15 15:42:18:583,-0.121347,1.08307,-9.7606,-5.83796,-0.47259,-39.9523
2023-03-15 15:42:18:594,-0.152321,1.07505,-9.7578,-5.84983,-0.484771,-39.9565
2023-03-15 15:42:18:603,-0.179206,1.09325,-9.76743,-5.86187,-0.495363,-39.9608
2023-03-15 15:42:18:613,-0.201687,1.11069,-9.80177,-5.87283,-0.504396,-39.9683
2023-03-15 15:42:18:623,-0.196348,1.10863,-9.79915,-5.88007,-0.511807,-39.9738
2023-03-15 15:42:18:633,-0.17393,1.09322,-9.77154,-5.88314,-0.515612,-39.9823
2023-03-15 15:42:18:643,-0.15336,1.06748,-9.75288,-5.88549,-0.51407,-39.993
2023-03-15 15:42:18:654,-0.13905,1.05562,-9.76263,-5.88421,-0.507857,-39.9997
2023-03-15 15:42:18:663,-0.0962205,1.06279,-9.74064,-5.88109,-0.493503,-40.0066
2023-03-15 15:42:18:673,-0.0478179,1.05636,-9.69258,-5.87474,-0.477324,-40.0101
2023-03-15 15:42:18:683,-0.00109276,1.03161,-9.69221,-5.86978,-0.457223,-40.0111
2023-03-15 15:42:18:694,0.0252942,1.04616,-9.70076,-5.86536,-0.442404,-40.0097
2023-03-15 15:42:18:703,0.0366045,1.0462,-9.72635,-5.86606,-0.42576,-40.0062
2023-03-15 15:42:18:713,0.0227549,1.03922,-9.75669,-5.86207,-0.409747,-40.0011
2023-03-15 15:42:18:723,0.00486631,1.04717,-9.76539,-5.85554,-0.398806,-39.9894
2023-03-15 15:42:18:733,-0.0135048,1.05156,-9.76644,-5.84908,-0.390307,-39.9786
2023-03-15 15:42:18:743,-0.0212934,1.02407,-9.74406,-5.84232,-0.382828,-39.9682
2023-03-15 15:42:18:753,-0.0821824,1.00994,-9.713,-5.83339,-0.378921,-39.9607
2023-03-15 15:42:18:763,-0.185852,1.01303,-9.71121,-5.82479,-0.377077,-39.9596
2023-03-15 15:42:18:773,-0.229269,0.988834,-9.69667,-5.81306,-0.377621,-39.9608
2023-03-15 15:42:18:783,-0.217201,0.977386,-9.6737,-5.8,-0.378892,-39.9723
2023-03-15 15:42:18:794,-0.180333,0.946975,-9.63936,-5.78762,-0.374169,-39.9908
2023-03-15 15:42:18:803,-0.121105,0.932929,-9.61374,-5.78189,-0.366867,-40.0167
2023-03-15 15:42:18:813,-0.0203751,0.929531,-9.63368,-5.77876,-0.358083,-40.0403
2023-03-15 15:42:18:823,0.0625848,0.936373,-9.66607,-5.77993,-0.346277,-40.061
2023-03-15 15:42:18:833,0.107232,0.953172,-9.6939,-5.78142,-0.331827,-40.0781
2023-03-15 15:42:18:843,0.135168,0.982641,-9.72015,-5.7897,-0.322232,-40.0914
2023-03-15 15:42:18:854,0.130936,1.0017,-9.75411,-5.79808,-0.313024,-40.0991
2023-03-15 15:42:18:863,0.146322,1.01858,-9.78033,-5.80981,-0.305566,-40.1046
2023-03-15 15:42:18:873,0.144288,1.02615,-9.81735,-5.818,-0.302682,-40.1044
2023-03-15 15:42:18:883,0.117557,1.01746,-9.85071,-5.82271,-0.304617,-40.0973
2023-03-15 15:42:18:894,0.107191,1.01957,-9.8257,-5.82411,-0.313923,-40.0888
2023-03-15 15:42:18:903,0.0531111,0.987111,-9.77036,-5.81481,-0.319188,-40.0709
2023-03-15 15:42:18:913,-0.020416,0.937811,-9.683,-5.8025,-0.328204,-40.0507
2023-03-15 15:42:18:923,-0.108856,0.926773,-9.60143,-5.78965,-0.339243,-40.0281
2023-03-15 15:42:18:933,-0.186038,0.921944,-9.57877,-5.78405,-0.352961,-40.0076
2023-03-15 15:42:18:943,-0.238391,0.950876,-9.58729,-5.78259,-0.3627,-39.9905
2023-03-15 15:42:18:953,-0.268415,0.982205,-9.62958,-5.79143,-0.375614,-39.9806
2023-03-15 15:42:18:963,-0.268338,1.00186,-9.67952,-5.80602,-0.379854,-39.9785
2023-03-15 15:42:18:974,-0.270674,1.03637,-9.71675,-5.82292,-0.383331,-39.9804
2023-03-15 15:42:18:983,-0.2726,1.06007,-9.76132,-5.84032,-0.39052,-39.9907
2023-03-15 15:42:18:993,-0.264914,1.07779,-9.76238,-5.85657,-0.394681,-40.0086
2023-03-15 15:42:19:3,-0.241473,1.08364,-9.76225,-5.86687,-0.395218,-40.03
2023-03-15 15:42:19:14,-0.200839,1.0761,-9.75533,-5.87725,-0.395327,-40.0605
2023-03-15 15:42:19:23,-0.153152,1.07442,-9.75849,-5.88401,-0.396015,-40.0911
2023-03-15 15:42:19:33,-0.0914091,1.09031,-9.76928,-5.8895,-0.390582,-40.1211
2023-03-15 15:42:19:43,-0.0347714,1.08221,-9.77373,-5.89622,-0.380246,-40.1495
2023-03-15 15:42:19:53,-0.00168974,1.08257,-9.75922,-5.90042,-0.370748,-40.1731
2023-03-15 15:42:19:63,0.0118737,1.07732,-9.74555,-5.90252,-0.359848,-40.197
2023-03-15 15:42:19:73,0.0540003,1.06861,-9.73336,-5.90354,-0.348574,-40.2145
2023-03-15 15:42:19:83,0.0680713,1.04555,-9.72025,-5.90035,-0.335187,-40.2272
2023-03-15 15:42:19:93,0.055953,1.0392,-9.70029,-5.89887,-0.31854,-40.2321
2023-03-15 15:42:19:103,0.0398077,1.0306,-9.68263,-5.89378,-0.308471,-40.2338
2023-03-15 15:42:19:113,0.050192,1.00279,-9.65062,-5.88619,-0.298329,-40.2328
2023-03-15 15:42:19:123,0.0483975,0.992264,-9.67359,-5.88597,-0.288881,-40.2286
2023-03-15 15:42:19:133,0.0335093,0.98494,-9.70319,-5.8859,-0.280244,-40.2201
2023-03-15 15:42:19:143,0.0083738,1.00971,-9.74309,-5.89009,-0.273744,-40.2083
2023-03-15 15:42:19:154,-0.0138903,1.02294,-9.7624,-5.89295,-0.271773,-40.1991
2023-03-15 15:42:19:163,-0.0244999,1.03931,-9.78088,-5.89244,-0.26297,-40.1901
2023-03-15 15:42:19:173,-0.03614,1.0198,-9.77247,-5.89153,-0.255602,-40.1813
2023-03-15 15:42:19:183,-0.0427713,1.00453,-9.7573,-5.88645,-0.250658,-40.1755
2023-03-15 15:42:19:193,-0.0420345,1.02229,-9.74068,-5.87941,-0.247479,-40.1688
2023-03-15 15:42:19:203,-0.0441801,1.01853,-9.72928,-5.87388,-0.242093,-40.17
2023-03-15 15:42:19:213,-0.0395308,1.00182,-9.70263,-5.86587,-0.240629,-40.1712
2023-03-15 15:42:19:223,-0.0411798,0.990254,-9.68478,-5.85585,-0.242462,-40.1729
2023-03-15 15:42:19:233,-0.0440192,0.990566,-9.65529,-5.84994,-0.245014,-40.1739
2023-03-15 15:42:19:243,-0.0511025,0.976377,-9.62374,-5.84041,-0.243764,-40.1741
2023-03-15 15:42:19:254,-0.0652464,0.953237,-9.58777,-5.8341,-0.241407,-40.1754
2023-03-15 15:42:19:263,-0.075674,0.961482,-9.60954,-5.83808,-0.242571,-40.1769
2023-03-15 15:42:19:273,-0.0768098,1.0051,-9.63993,-5.84651,-0.238077,-40.1831
2023-03-15 15:42:19:283,-0.0468415,1.00893,-9.69552,-5.85425,-0.229095,-40.1894
2023-03-15 15:42:19:293,-0.0201785,1.03229,-9.72449,-5.86358,-0.222049,-40.1954
2023-03-15 15:42:19:303,-0.0275141,1.03291,-9.73723,-5.87396,-0.21556,-40.2032
2023-03-15 15:42:19:313,-0.0552105,1.03804,-9.72537,-5.88473,-0.211317,-40.2105
2023-03-15 15:42:19:323,-0.042701,1.05422,-9.72793,-5.89302,-0.204177,-40.218
2023-03-15 15:42:19:333,-0.0284065,1.0437,-9.76171,-5.89742,-0.197525,-40.2299
2023-03-15 15:42:19:343,-0.00395164,1.02789,-9.77487,-5.9039,-0.18918,-40.2455
2023-03-15 15:42:19:353,0.0495388,1.02398,-9.77695,-5.91048,-0.178882,-40.2584
2023-03-15 15:42:19:363,0.0957446,1.02371,-9.79318,-5.91222,-0.173664,-40.2679
2023-03-15 15:42:19:373,0.121257,1.02287,-9.75862,-5.91459,-0.173812,-40.2786
2023-03-15 15:42:19:383,0.107883,0.998734,-9.71681,-5.91135,-0.179465,-40.2898
2023-03-15 15:42:19:393,0.0711617,0.989327,-9.67629,-5.90819,-0.185701,-40.2895
2023-03-15 15:42:19:403,0.0239288,1.01341,-9.66999,-5.90796,-0.196052,-40.2915
2023-03-15 15:42:19:413,0.00163195,1.02055,-9.69958,-5.9095,-0.202974,-40.2921
2023-03-15 15:42:19:423,-0.00468337,1.03574,-9.72531,-5.91425,-0.208254,-40.2907
2023-03-15 15:42:19:434,0.00756316,1.05197,-9.75214,-5.9179,-0.210544,-40.2873
2023-03-15 15:42:19:443,-0.0250993,1.06001,-9.7576,-5.91879,-0.20936,-40.283
2023-03-15 15:42:19:454,-0.0646772,1.07644,-9.73439,-5.92081,-0.207257,-40.2739
2023-03-15 15:42:19:463,-0.095852,1.07825,-9.7068,-5.92225,-0.20472,-40.2669
2023-03-15 15:42:19:473,-0.12611,1.07323,-9.69113,-5.91912,-0.202267,-40.2626
2023-03-15 15:42:19:483,-0.127699,1.08067,-9.67143,-5.91353,-0.195505,-40.2602
2023-03-15 15:42:19:493,-0.105416,1.05972,-9.66701,-5.90906,-0.185624,-40.2617
2023-03-15 15:42:19:503,-0.0869254,1.02827,-9.65016,-5.90845,-0.174644,-40.2663
2023-03-15 15:42:19:513,-0.0884885,1.03242,-9.66186,-5.90929,-0.17096,-40.2709
2023-03-15 15:42:19:523,-0.0895155,1.05186,-9.69798,-5.91335,-0.173235,-40.2822
2023-03-15 15:42:19:533,-0.0879574,1.07357,-9.74209,-5.91862,-0.175004,-40.2983
2023-03-15 15:42:19:543,-0.0629378,1.08825,-9.78275,-5.92725,-0.176956,-40.3193
2023-03-15 15:42:19:553,-0.0481897,1.11257,-9.79187,-5.93555,-0.17687,-40.3385
2023-03-15 15:42:19:563,-0.0217614,1.11028,-9.80911,-5.94215,-0.178192,-40.3616
2023-03-15 15:42:19:573,0.00116494,1.10432,-9.82441,-5.94786,-0.178295,-40.3871
2023-03-15 15:42:19:583,-0.00231183,1.0951,-9.82375,-5.94763,-0.180754,-40.4075
2023-03-15 15:42:19:593,0.0195255,1.10945,-9.79484,-5.94093,-0.180809,-40.4291
2023-03-15 15:42:19:603,0.0471586,1.08113,-9.74638,-5.9318,-0.178083,-40.4497
2023-03-15 15:42:19:613,0.0868753,1.05137,-9.74079,-5.9176,-0.171648,-40.4655
2023-03-15 15:42:19:623,0.118728,1.04098,-9.73783,-5.90203,-0.167979,-40.4752
2023-03-15 15:42:19:633,0.121322,1.01899,-9.70999,-5.88227,-0.165774,-40.4804
2023-03-15 15:42:19:643,0.115022,0.991468,-9.67165,-5.86289,-0.164172,-40.48
2023-03-15 15:42:19:653,0.0935449,0.95872,-9.65551,-5.84356,-0.161511,-40.4741
2023-03-15 15:42:19:663,0.0716671,0.95047,-9.67382,-5.8258,-0.156832,-40.4646
2023-03-15 15:42:19:673,0.0675829,0.948064,-9.66281,-5.81153,-0.152505,-40.4536
2023-03-15 15:42:19:683,0.0690451,0.945821,-9.67353,-5.79413,-0.152551,-40.4421
2023-03-15 15:42:19:693,0.0710984,0.951984,-9.68454,-5.78318,-0.152252,-40.4278
2023-03-15 15:42:19:703,0.0752824,0.958671,-9.71172,-5.77003,-0.152554,-40.416
2023-03-15 15:42:19:713,0.067807,0.96705,-9.73693,-5.75797,-0.15667,-40.3996
2023-03-15 15:42:19:723,0.0580918,0.957464,-9.73198,-5.74537,-0.161833,-40.3847
2023-03-15 15:42:19:733,0.0306133,0.944827,-9.70616,-5.73296,-0.168998,-40.3682
2023-03-15 15:42:19:743,0.0118211,0.956227,-9.69247,-5.72413,-0.176229,-40.3534
2023-03-15 15:42:19:753,-0.00123859,0.953371,-9.69897,-5.71619,-0.184152,-40.3384
2023-03-15 15:42:19:763,-0.019733,0.953034,-9.69902,-5.70764,-0.195081,-40.3204
2023-03-15 15:42:19:773,-0.0581649,0.97376,-9.71252,-5.70286,-0.207942,-40.3017
2023-03-15 15:42:19:783,-0.0677064,0.986837,-9.75201,-5.69629,-0.221238,-40.286
2023-03-15 15:42:19:793,-0.0649788,1.02934,-9.77189,-5.69307,-0.234124,-40.2691
2023-03-15 15:42:19:803,-0.0830344,1.04421,-9.78719,-5.68718,-0.247092,-40.2593
2023-03-15 15:42:19:813,-0.0870434,1.04216,-9.76498,-5.68046,-0.262744,-40.2518
2023-03-15 15:42:19:823,-0.106619,1.02672,-9.76021,-5.67564,-0.275388,-40.2467
2023-03-15 15:42:19:833,-0.119878,1.02746,-9.74774,-5.66449,-0.291242,-40.2436
2023-03-15 15:42:19:843,-0.117667,1.01426,-9.75298,-5.6536,-0.30667,-40.243
2023-03-15 15:42:19:853,-0.109277,1.01792,-9.7792,-5.64136,-0.319546,-40.2428
2023-03-15 15:42:19:863,-0.0992506,1.02217,-9.76813,-5.62426,-0.332244,-40.243
2023-03-15 15:42:19:873,-0.099625,0.998974,-9.74123,-5.60415,-0.343458,-40.2476
2023-03-15 15:42:19:883,-0.0775029,0.981326,-9.72254,-5.58159,-0.353153,-40.251
2023-03-15 15:42:19:893,-0.0422413,0.960981,-9.71177,-5.55621,-0.363066,-40.2536
2023-03-15 15:42:19:903,-0.0313711,0.942445,-9.71488,-5.53368,-0.373636,-40.255
2023-03-15 15:42:19:913,-0.0145171,0.91531,-9.72092,-5.50693,-0.380197,-40.2536
2023-03-15 15:42:19:923,0.00966705,0.919817,-9.7203,-5.4835,-0.38838,-40.2497
2023-03-15 15:42:19:933,-0.0086488,0.93619,-9.75825,-5.45705,-0.394017,-40.2419
2023-03-15 15:42:19:943,-0.0286982,0.956949,-9.79881,-5.43011,-0.392462,-40.232
2023-03-15 15:42:19:953,-0.00595727,0.922917,-9.7643,-5.39549,-0.392837,-40.2194
2023-03-15 15:42:19:963,-0.00189836,0.895866,-9.71641,-5.36269,-0.396843,-40.2059
2023-03-15 15:42:19:973,-0.0456075,0.901054,-9.7064,-5.33582,-0.403402,-40.19
2023-03-15 15:42:19:983,-0.083902,0.901427,-9.7082,-5.30876,-0.411158,-40.1753
2023-03-15 15:42:19:993,-0.0996992,0.899303,-9.68189,-5.27615,-0.421503,-40.1622
2023-03-15 15:42:20:3,-0.0702045,0.864787,-9.63739,-5.24132,-0.425621,-40.1462
2023-03-15 15:42:20:13,-0.0651238,0.842311,-9.61014,-5.21604,-0.433246,-40.131
2023-03-15 15:42:20:23,-0.0869351,0.853722,-9.62515,-5.19781,-0.443048,-40.116
2023-03-15 15:42:20:33,-0.124566,0.871124,-9.66396,-5.18518,-0.455761,-40.0995
2023-03-15 15:42:20:43,-0.13247,0.890619,-9.68288,-5.1749,-0.463933,-40.0822
2023-03-15 15:42:20:53,-0.137096,0.904134,-9.66611,-5.16696,-0.474011,-40.0678
2023-03-15 15:42:20:63,-0.146753,0.902346,-9.66843,-5.16062,-0.482686,-40.0565
2023-03-15 15:42:20:73,-0.165289,0.881073,-9.68103,-5.15512,-0.484083,-40.0482
2023-03-15 15:42:20:83,-0.16611,0.868248,-9.67147,-5.15118,-0.486304,-40.0405
2023-03-15 15:42:20:93,-0.144232,0.879552,-9.66144,-5.15242,-0.488186,-40.0358
2023-03-15 15:42:20:103,-0.134821,0.887056,-9.66596,-5.15273,-0.489814,-40.0327
2023-03-15 15:42:20:113,-0.130989,0.882925,-9.66225,-5.15127,-0.486241,-40.0296
2023-03-15 15:42:20:123,-0.118913,0.879793,-9.66333,-5.15408,-0.48659,-40.0294
2023-03-15 15:42:20:133,-0.117772,0.896009,-9.68152,-5.15957,-0.486982,-40.0286
2023-03-15 15:42:20:143,-0.0963913,0.918016,-9.7187,-5.16859,-0.48854,-40.0342
2023-03-15 15:42:20:153,-0.0697463,0.932598,-9.7473,-5.17327,-0.490062,-40.0366
2023-03-15 15:42:20:163,-0.0903836,0.948269,-9.76183,-5.18679,-0.492924,-40.04
2023-03-15 15:42:20:173,-0.0966591,0.967452,-9.77874,-5.19629,-0.499383,-40.0434
2023-03-15 15:42:20:183,-0.124509,0.967641,-9.81448,-5.20677,-0.507577,-40.0482
2023-03-15 15:42:20:193,-0.151111,0.973365,-9.82964,-5.21092,-0.515522,-40.0505
2023-03-15 15:42:20:203,-0.140208,0.97576,-9.83163,-5.21331,-0.519953,-40.054
2023-03-15 15:42:20:213,-0.124601,0.959562,-9.812,-5.21244,-0.526874,-40.0602
2023-03-15 15:42:20:223,-0.135814,0.958503,-9.76254,-5.20894,-0.533195,-40.0601
2023-03-15 15:42:20:233,-0.181476,0.940663,-9.72342,-5.20404,-0.536308,-40.0604
2023-03-15 15:42:20:243,-0.184372,0.925187,-9.69329,-5.19548,-0.538916,-40.0628
2023-03-15 15:42:20:253,-0.152767,0.912367,-9.69339,-5.18468,-0.53905,-40.0647
2023-03-15 15:42:20:263,-0.147206,0.919718,-9.70768,-5.17848,-0.532088,-40.0661
2023-03-15 15:42:20:273,-0.100736,0.910603,-9.72752,-5.17297,-0.523028,-40.0685
2023-03-15 15:42:20:283,-0.0504655,0.904406,-9.76518,-5.16747,-0.518478,-40.0703
2023-03-15 15:42:20:293,-0.0124394,0.897784,-9.77317,-5.1588,-0.515654,-40.0712
2023-03-15 15:42:20:303,0.00563238,0.88971,-9.75052,-5.14642,-0.515727,-40.074
2023-03-15 15:42:20:313,-0.0245446,0.874452,-9.71126,-5.13409,-0.51979,-40.0727
2023-03-15 15:42:20:323,-0.0502583,0.849127,-9.7081,-5.12404,-0.519568,-40.0678
2023-03-15 15:42:20:333,-0.0427145,0.841544,-9.6941,-5.11248,-0.52222,-40.0615
2023-03-15 15:42:20:343,-0.0228418,0.844311,-9.68012,-5.1035,-0.519648,-40.0547
2023-03-15 15:42:20:353,-0.0267,0.837374,-9.67428,-5.09763,-0.522538,-40.0452
2023-03-15 15:42:20:363,-0.0320968,0.832281,-9.68005,-5.08967,-0.521916,-40.0296
2023-03-15 15:42:20:373,-0.0681444,0.846684,-9.68161,-5.08287,-0.519591,-40.0086
2023-03-15 15:42:20:383,-0.109513,0.85689,-9.66556,-5.0806,-0.519724,-39.9887
2023-03-15 15:42:20:393,-0.156348,0.860642,-9.63328,-5.08277,-0.51772,-39.9685
2023-03-15 15:42:20:403,-0.181607,0.874423,-9.63317,-5.08786,-0.512597,-39.9526
2023-03-15 15:42:20:413,-0.193378,0.903171,-9.66777,-5.09691,-0.505968,-39.9349
2023-03-15 15:42:20:423,-0.193319,0.918138,-9.71255,-5.10761,-0.499014,-39.9248
2023-03-15 15:42:20:433,-0.179237,0.916613,-9.73428,-5.1207,-0.492179,-39.9206
2023-03-15 15:42:20:443,-0.178289,0.930714,-9.73566,-5.13059,-0.488451,-39.9184
2023-03-15 15:42:20:453,-0.16457,0.933671,-9.72714,-5.14057,-0.486587,-39.9219
2023-03-15 15:42:20:463,-0.142201,0.93289,-9.72606,-5.15189,-0.484465,-39.9331
2023-03-15 15:42:20:473,-0.125772,0.954122,-9.7489,-5.16411,-0.480566,-39.9469
2023-03-15 15:42:20:483,-0.0859255,0.953687,-9.76619,-5.17722,-0.478808,-39.9665
2023-03-15 15:42:20:493,-0.0599007,0.942809,-9.78021,-5.18647,-0.479041,-39.9891
2023-03-15 15:42:20:503,-0.0675096,0.935428,-9.7599,-5.19379,-0.482994,-40.0053
2023-03-15 15:42:20:513,-0.0638334,0.928052,-9.76997,-5.20005,-0.483991,-40.0224
2023-03-15 15:42:20:523,-0.0556798,0.923581,-9.75819,-5.20918,-0.483074,-40.039
2023-03-15 15:42:20:533,-0.033205,0.931694,-9.74662,-5.21449,-0.479518,-40.0518
2023-03-15 15:42:20:543,-0.00684649,0.924666,-9.75554,-5.2172,-0.47644,-40.0623
2023-03-15 15:42:20:553,0.00463854,0.913204,-9.75617,-5.21921,-0.470887,-40.0677
2023-03-15 15:42:20:563,-0.00109387,0.904961,-9.73327,-5.21811,-0.465358,-40.0664
2023-03-15 15:42:20:573,-0.0270604,0.903929,-9.71951,-5.22069,-0.455601,-40.0617
2023-03-15 15:42:20:583,-0.0461243,0.911598,-9.69144,-5.21971,-0.450816,-40.0546
2023-03-15 15:42:20:593,-0.0519685,0.911052,-9.69843,-5.21449,-0.445837,-40.0476
2023-03-15 15:42:20:603,-0.0622638,0.909181,-9.72234,-5.21653,-0.444109,-40.0404
2023-03-15 15:42:20:613,-0.0631293,0.924518,-9.73994,-5.21852,-0.434648,-40.0357
2023-03-15 15:42:20:623,-0.0813174,0.931599,-9.74651,-5.22206,-0.426587,-40.0303
2023-03-15 15:42:20:633,-0.0883216,0.907629,-9.74527,-5.22385,-0.421687,-40.0246
2023-03-15 15:42:20:643,-0.107457,0.90698,-9.73468,-5.2221,-0.415935,-40.0204
2023-03-15 15:42:20:653,-0.093336,0.901719,-9.72205,-5.22129,-0.414023,-40.015
2023-03-15 15:42:20:663,-0.0923325,0.898776,-9.71881,-5.22165,-0.414106,-40.0161
2023-03-15 15:42:20:673,-0.0881061,0.899149,-9.72308,-5.22125,-0.411067,-40.0164
2023-03-15 15:42:20:683,-0.0893771,0.899486,-9.70975,-5.22011,-0.40789,-40.0164
2023-03-15 15:42:20:693,-0.0629983,0.909015,-9.7134,-5.22142,-0.406682,-40.0196
2023-03-15 15:42:20:703,-0.0421205,0.913502,-9.72476,-5.2286,-0.403274,-40.0207
2023-03-15 15:42:20:713,-0.0409501,0.914193,-9.72908,-5.23372,-0.397374,-40.0204
2023-03-15 15:42:20:723,-0.0252239,0.921178,-9.7391,-5.23934,-0.394011,-40.0155
2023-03-15 15:42:20:733,-0.0212446,0.928877,-9.73869,-5.24799,-0.390529,-40.0165
2023-03-15 15:42:20:743,-0.00600878,0.943044,-9.73235,-5.25458,-0.383826,-40.0132
2023-03-15 15:42:20:753,-0.000428502,0.9338,-9.73625,-5.25925,-0.376747,-40.0107
2023-03-15 15:42:20:763,-0.00654468,0.92426,-9.75586,-5.26411,-0.373014,-40.007
2023-03-15 15:42:20:773,-0.00541242,0.924588,-9.76569,-5.26246,-0.368359,-39.9957
2023-03-15 15:42:20:783,-0.014537,0.918353,-9.73198,-5.26476,-0.366834,-39.9897
2023-03-15 15:42:20:793,-0.0405872,0.910843,-9.72614,-5.26279,-0.362403,-39.9813
2023-03-15 15:42:20:803,-0.0284231,0.898849,-9.7336,-5.26044,-0.35852,-39.9722
2023-03-15 15:42:20:813,-0.0280921,0.885464,-9.72233,-5.25647,-0.352801,-39.963
2023-03-15 15:42:20:823,-0.0396899,0.875211,-9.7112,-5.25539,-0.349779,-39.9512
2023-03-15 15:42:20:833,-0.0335155,0.849708,-9.70254,-5.24985,-0.345728,-39.9436
2023-03-15 15:42:20:843,-0.026218,0.845916,-9.66491,-5.24762,-0.341713,-39.9351
2023-03-15 15:42:20:854,-0.0238794,0.838193,-9.64818,-5.24823,-0.341096,-39.9298
2023-03-15 15:42:20:863,-0.0166398,0.831814,-9.65341,-5.25139,-0.340747,-39.9235
2023-03-15 15:42:20:873,-0.00294123,0.848621,-9.66874,-5.25955,-0.345357,-39.9145
2023-03-15 15:42:20:883,-0.0161204,0.865962,-9.6962,-5.27063,-0.35063,-39.9071
2023-03-15 15:42:20:893,-0.0267701,0.871639,-9.7074,-5.28443,-0.35676,-39.9028
2023-03-15 15:42:20:903,-0.0357813,0.899305,-9.71679,-5.29666,-0.363428,-39.8977
2023-03-15 15:42:20:913,-0.0519632,0.915508,-9.74534,-5.31207,-0.372226,-39.8959
2023-03-15 15:42:20:923,-0.0706898,0.936879,-9.75922,-5.32883,-0.377683,-39.8959
2023-03-15 15:42:20:934,-0.0873646,0.948708,-9.75204,-5.34535,-0.385943,-39.8936
2023-03-15 15:42:20:943,-0.0864171,0.957243,-9.74795,-5.36008,-0.392698,-39.8936
2023-03-15 15:42:20:954,-0.0877691,0.967178,-9.75935,-5.37295,-0.397715,-39.8926
2023-03-15 15:42:20:963,-0.0966637,0.979303,-9.7667,-5.38365,-0.402038,-39.8953
2023-03-15 15:42:20:974,-0.0912597,0.990862,-9.74352,-5.39424,-0.404999,-39.8938
2023-03-15 15:42:20:983,-0.0907228,0.991891,-9.72471,-5.40246,-0.407609,-39.8951
2023-03-15 15:42:20:993,-0.0914548,0.97672,-9.72689,-5.40839,-0.408607,-39.8967
2023-03-15 15:42:21:3,-0.0924304,0.967909,-9.73634,-5.41506,-0.41,-39.8989
2023-03-15 15:42:21:13,-0.0885865,0.975569,-9.7313,-5.41726,-0.418171,-39.9026
2023-03-15 15:42:21:23,-0.0816009,0.982737,-9.73782,-5.42488,-0.42391,-39.9051
2023-03-15 15:42:21:33,-0.0942601,0.986964,-9.73958,-5.43193,-0.428584,-39.9105
2023-03-15 15:42:21:43,-0.0905978,0.981677,-9.76004,-5.43745,-0.43627,-39.9164
2023-03-15 15:42:21:54,-0.0843897,0.986393,-9.74228,-5.44262,-0.441567,-39.9215
2023-03-15 15:42:21:63,-0.0594499,0.981891,-9.73432,-5.44328,-0.443422,-39.9263
2023-03-15 15:42:21:73,-0.0407541,0.9654,-9.73207,-5.44711,-0.442542,-39.9285
2023-03-15 15:42:21:83,-0.0385773,0.949518,-9.73405,-5.45183,-0.440669,-39.9304
2023-03-15 15:42:21:93,-0.0146144,0.96073,-9.73606,-5.45055,-0.443529,-39.9271
2023-03-15 15:42:21:103,-0.0274883,0.942903,-9.71903,-5.44772,-0.441286,-39.9225
2023-03-15 15:42:21:113,-0.0551153,0.933811,-9.71107,-5.44979,-0.440792,-39.9111
2023-03-15 15:42:21:123,-0.0593614,0.937144,-9.70504,-5.44892,-0.439432,-39.8957
2023-03-15 15:42:21:133,-0.0537616,0.931457,-9.72512,-5.44808,-0.443578,-39.8815
2023-03-15 15:42:21:143,-0.072625,0.934539,-9.73978,-5.44896,-0.44228,-39.8642
2023-03-15 15:42:21:153,-0.11572,0.94898,-9.71531,-5.45348,-0.444349,-39.8466
2023-03-15 15:42:21:163,-0.143328,0.939613,-9.68113,-5.45645,-0.442328,-39.8319
2023-03-15 15:42:21:173,-0.135029,0.938865,-9.66961,-5.45503,-0.440785,-39.8185
2023-03-15 15:42:21:183,-0.128676,0.93031,-9.67667,-5.45605,-0.439966,-39.8064
2023-03-15 15:42:21:193,-0.103424,0.943057,-9.69899,-5.45774,-0.433678,-39.7988
2023-03-15 15:42:21:203,-0.0383639,0.940405,-9.73455,-5.46331,-0.428664,-39.7881
2023-03-15 15:42:21:213,-0.00209335,0.925648,-9.7691,-5.46618,-0.426669,-39.7776
2023-03-15 15:42:21:223,-0.01853,0.928604,-9.73827,-5.47419,-0.432013,-39.7671
2023-03-15 15:42:21:233,-0.0591118,0.929125,-9.68939,-5.48218,-0.437737,-39.7542
2023-03-15 15:42:21:243,-0.10274,0.925859,-9.65371,-5.48468,-0.443811,-39.7447
2023-03-15 15:42:21:253,-0.117044,0.945923,-9.65942,-5.48889,-0.451195,-39.7346
2023-03-15 15:42:21:263,-0.119727,0.981137,-9.68814,-5.49571,-0.454484,-39.7258
2023-03-15 15:42:21:273,-0.103778,1.00098,-9.74553,-5.50759,-0.455235,-39.7196
2023-03-15 15:42:21:283,-0.094992,1.0214,-9.78054,-5.51943,-0.45263,-39.7137
