Timestamp,Acceleration_x,Acceleration_y,Acceleration_z,roll,pitch,yaw
2023-03-11 17:18:46:353,-0.447406,2.09619,-9.54498,-12.2873,-2.86597,89.1968
2023-03-11 17:18:46:361,-0.481379,2.09739,-9.48175,-12.2762,-2.8518,89.1894
2023-03-11 17:18:46:371,-0.471731,2.0874,-9.4688,-12.2732,-2.84061,89.178
2023-03-11 17:18:46:381,-0.444603,2.08677,-9.48816,-12.2725,-2.82756,89.1688
2023-03-11 17:18:46:391,-0.426793,2.09874,-9.52858,-12.2775,-2.81508,89.1548
2023-03-11 17:18:46:401,-0.412007,2.13236,-9.56704,-12.2798,-2.80361,89.1442
2023-03-11 17:18:46:411,-0.422627,2.12903,-9.59272,-12.2828,-2.79311,89.1327
2023-03-11 17:18:46:421,-0.440584,2.14327,-9.60535,-12.282,-2.78536,89.1216
2023-03-11 17:18:46:431,-0.446599,2.15716,-9.62337,-12.2801,-2.78097,89.1119
2023-03-11 17:18:46:441,-0.448846,2.1624,-9.61825,-12.2782,-2.78217,89.1006
2023-03-11 17:18:46:451,-0.471747,2.16219,-9.58344,-12.2694,-2.78288,89.0881
2023-03-11 17:18:46:461,-0.49091,2.12378,-9.52008,-12.2532,-2.78692,89.0741
2023-03-11 17:18:46:471,-0.488446,2.0899,-9.46483,-12.2368,-2.79704,89.0599
2023-03-11 17:18:46:481,-0.48072,2.05137,-9.43104,-12.2224,-2.80429,89.0451
2023-03-11 17:18:46:491,-0.46601,2.04515,-9.42637,-12.2118,-2.80934,89.0315
2023-03-11 17:18:46:501,-0.466199,2.06003,-9.46126,-12.212,-2.81596,89.0192
2023-03-11 17:18:46:511,-0.466746,2.06511,-9.50973,-12.2131,-2.82272,89.0127
2023-03-11 17:18:46:521,-0.485062,2.0897,-9.55235,-12.2185,-2.82487,89.0078
2023-03-11 17:18:46:531,-0.518194,2.11575,-9.57307,-12.2251,-2.82435,89.0013
2023-03-11 17:18:46:541,-0.537457,2.11343,-9.5813,-12.2295,-2.82131,88.997
2023-03-11 17:18:46:551,-0.532691,2.12411,-9.56867,-12.2288,-2.81729,88.9951
2023-03-11 17:18:46:561,-0.533817,2.1229,-9.54852,-12.2283,-2.80984,88.9933
2023-03-11 17:18:46:571,-0.540409,2.11081,-9.53621,-12.2288,-2.80202,88.9906
2023-03-11 17:18:46:582,-0.5511,2.11291,-9.52329,-12.2242,-2.79069,88.9862
2023-03-11 17:18:46:591,-0.561502,2.11168,-9.51628,-12.2241,-2.77771,88.9873
2023-03-11 17:18:46:601,-0.555558,2.10989,-9.51949,-12.2238,-2.766,88.9807
2023-03-11 17:18:46:611,-0.535898,2.12131,-9.5368,-12.2257,-2.74985,88.9688
2023-03-11 17:18:46:621,-0.513037,2.12875,-9.56183,-12.2267,-2.73573,88.9583
2023-03-11 17:18:46:631,-0.486829,2.11745,-9.5614,-12.2248,-2.72066,88.9458
2023-03-11 17:18:46:641,-0.463745,2.11981,-9.54753,-12.221,-2.70627,88.9308
2023-03-11 17:18:46:651,-0.459457,2.11928,-9.53393,-12.2158,-2.6918,88.9139
2023-03-11 17:18:46:661,-0.421379,2.11604,-9.50941,-12.2152,-2.67571,88.9
2023-03-11 17:18:46:671,-0.396922,2.12009,-9.51625,-12.2149,-2.65638,88.8839
2023-03-11 17:18:46:681,-0.370655,2.12216,-9.54031,-12.2128,-2.63767,88.8668
2023-03-11 17:18:46:691,-0.347986,2.1215,-9.57528,-12.2114,-2.61695,88.8546
2023-03-11 17:18:46:701,-0.343752,2.12356,-9.57826,-12.2091,-2.59835,88.8447
2023-03-11 17:18:46:711,-0.3471,2.13916,-9.57172,-12.2055,-2.58005,88.8359
2023-03-11 17:18:46:721,-0.345947,2.1454,-9.58403,-12.2029,-2.56535,88.8255
2023-03-11 17:18:46:731,-0.337805,2.13695,-9.57855,-12.2009,-2.54719,88.8202
2023-03-11 17:18:46:741,-0.335048,2.12633,-9.56246,-12.1941,-2.53297,88.8125
2023-03-11 17:18:46:751,-0.336537,2.11993,-9.55122,-12.1851,-2.51964,88.8027
2023-03-11 17:18:46:761,-0.344233,2.10341,-9.54017,-12.178,-2.50609,88.796
2023-03-11 17:18:46:771,-0.355696,2.11087,-9.53936,-12.1735,-2.4978,88.7913
2023-03-11 17:18:46:781,-0.383568,2.11669,-9.56304,-12.171,-2.49015,88.7882
2023-03-11 17:18:46:791,-0.394238,2.13147,-9.57891,-12.1684,-2.48341,88.7829
2023-03-11 17:18:46:801,-0.422457,2.14258,-9.60172,-12.1625,-2.48098,88.7745
2023-03-11 17:18:46:811,-0.427339,2.13404,-9.61672,-12.1533,-2.477,88.7668
2023-03-11 17:18:46:821,-0.416761,2.12861,-9.61566,-12.1396,-2.47568,88.7573
2023-03-11 17:18:46:831,-0.408407,2.11346,-9.56382,-12.1281,-2.47789,88.7468
2023-03-11 17:18:46:841,-0.397596,2.07432,-9.49418,-12.1087,-2.4773,88.7335
2023-03-11 17:18:46:851,-0.361486,2.03492,-9.43983,-12.0932,-2.47261,88.7178
2023-03-11 17:18:46:861,-0.31485,2.01738,-9.43398,-12.0801,-2.47298,88.7039
2023-03-11 17:18:46:871,-0.299833,2.01284,-9.45145,-12.0755,-2.46832,88.6885
2023-03-11 17:18:46:881,-0.299616,2.0249,-9.48884,-12.0745,-2.46461,88.6797
2023-03-11 17:18:46:891,-0.303752,2.043,-9.53231,-12.0773,-2.46289,88.6757
2023-03-11 17:18:46:901,-0.322438,2.06876,-9.5587,-12.0836,-2.4602,88.6732
2023-03-11 17:18:46:911,-0.325338,2.0965,-9.57974,-12.0863,-2.45577,88.674
2023-03-11 17:18:46:921,-0.330348,2.11148,-9.58066,-12.09,-2.45197,88.6793
2023-03-11 17:18:46:931,-0.34794,2.10908,-9.55766,-12.0888,-2.4442,88.6885
2023-03-11 17:18:46:941,-0.367793,2.1045,-9.51718,-12.0852,-2.43663,88.7019
2023-03-11 17:18:46:951,-0.373788,2.08541,-9.51808,-12.0895,-2.42985,88.7194
2023-03-11 17:18:46:961,-0.385465,2.09941,-9.57296,-12.0943,-2.42286,88.736
2023-03-11 17:18:46:971,-0.397473,2.12524,-9.64236,-12.1021,-2.42282,88.7512
2023-03-11 17:18:46:981,-0.391164,2.13229,-9.66412,-12.1012,-2.42566,88.7631
2023-03-11 17:18:46:991,-0.379006,2.1199,-9.64,-12.0933,-2.43338,88.7703
2023-03-11 17:18:47:1,-0.388441,2.08109,-9.57803,-12.0847,-2.44195,88.7792
2023-03-11 17:18:47:11,-0.426223,2.07949,-9.54436,-12.0779,-2.45693,88.7846
2023-03-11 17:18:47:21,-0.458786,2.09482,-9.54036,-12.0737,-2.47221,88.7927
2023-03-11 17:18:47:31,-0.470007,2.11042,-9.53286,-12.0686,-2.48525,88.798
2023-03-11 17:18:47:41,-0.475466,2.12358,-9.52077,-12.0653,-2.49463,88.8047
2023-03-11 17:18:47:51,-0.473358,2.12658,-9.53794,-12.0603,-2.50219,88.8102
2023-03-11 17:18:47:61,-0.484316,2.14285,-9.53782,-12.0535,-2.50352,88.8129
2023-03-11 17:18:47:71,-0.495526,2.1333,-9.53862,-12.0421,-2.50227,88.8141
2023-03-11 17:18:47:81,-0.488713,2.11005,-9.52901,-12.0319,-2.49761,88.8132
2023-03-11 17:18:47:91,-0.482858,2.08825,-9.52798,-12.0162,-2.49358,88.8083
2023-03-11 17:18:47:101,-0.450987,2.05136,-9.50078,-11.9996,-2.47909,88.8008
2023-03-11 17:18:47:111,-0.419369,2.0355,-9.47994,-11.9887,-2.47154,88.7909
2023-03-11 17:18:47:121,-0.392529,2.02718,-9.4796,-11.9825,-2.46269,88.7815
2023-03-11 17:18:47:131,-0.383444,2.03394,-9.50732,-11.9757,-2.45514,88.772
2023-03-11 17:18:47:141,-0.37117,2.05609,-9.52526,-11.9763,-2.44785,88.7621
2023-03-11 17:18:47:151,-0.353273,2.04257,-9.5537,-11.9762,-2.43619,88.7493
2023-03-11 17:18:47:161,-0.349283,2.0632,-9.56139,-11.9766,-2.42492,88.7452
2023-03-11 17:18:47:171,-0.335788,2.07819,-9.5513,-11.9837,-2.4133,88.7411
2023-03-11 17:18:47:181,-0.354253,2.08507,-9.5522,-11.9889,-2.39948,88.7352
2023-03-11 17:18:47:191,-0.374365,2.09072,-9.54731,-11.9924,-2.38674,88.7316
2023-03-11 17:18:47:201,-0.379572,2.11311,-9.5584,-11.9949,-2.37225,88.7294
2023-03-11 17:18:47:211,-0.372211,2.1221,-9.5675,-11.9944,-2.35808,88.7286
2023-03-11 17:18:47:221,-0.32565,2.09363,-9.57085,-11.9929,-2.34753,88.7207
2023-03-11 17:18:47:231,-0.290567,2.0681,-9.5676,-11.9919,-2.33964,88.7132
2023-03-11 17:18:47:241,-0.300464,2.06456,-9.5488,-11.9943,-2.33917,88.7017
2023-03-11 17:18:47:251,-0.333335,2.06828,-9.53241,-11.9961,-2.34635,88.692
2023-03-11 17:18:47:261,-0.351252,2.06289,-9.52295,-11.9955,-2.35502,88.6853
2023-03-11 17:18:47:271,-0.332132,2.07391,-9.54998,-11.9987,-2.36033,88.6749
2023-03-11 17:18:47:281,-0.301316,2.07933,-9.5767,-12.003,-2.36163,88.6656
2023-03-11 17:18:47:291,-0.287935,2.07654,-9.59598,-12.0053,-2.36251,88.66
2023-03-11 17:18:47:301,-0.300131,2.08261,-9.59857,-12.0036,-2.36406,88.6554
2023-03-11 17:18:47:311,-0.318159,2.08735,-9.58541,-12.0009,-2.36565,88.6579
2023-03-11 17:18:47:321,-0.335326,2.07877,-9.57529,-11.9977,-2.36971,88.6606
2023-03-11 17:18:47:331,-0.34881,2.08074,-9.54749,-11.992,-2.37395,88.6649
2023-03-11 17:18:47:341,-0.374558,2.08024,-9.53878,-11.9855,-2.37789,88.6706
2023-03-11 17:18:47:351,-0.380159,2.08446,-9.54207,-11.9813,-2.38288,88.6756
2023-03-11 17:18:47:361,-0.357352,2.07934,-9.56192,-11.9743,-2.38652,88.6791
2023-03-11 17:18:47:371,-0.327683,2.07256,-9.58062,-11.9747,-2.39557,88.679
2023-03-11 17:18:47:381,-0.324896,2.06374,-9.58076,-11.9691,-2.41013,88.682
2023-03-11 17:18:47:391,-0.345982,2.04332,-9.55609,-11.963,-2.42803,88.6864
2023-03-11 17:18:47:401,-0.367351,2.03075,-9.54152,-11.9618,-2.44645,88.6911
2023-03-11 17:18:47:411,-0.38794,2.03042,-9.53092,-11.957,-2.46833,88.6971
2023-03-11 17:18:47:421,-0.423573,2.04412,-9.53053,-11.9584,-2.48432,88.7054
2023-03-11 17:18:47:431,-0.438463,2.06514,-9.55873,-11.9613,-2.5004,88.7146
2023-03-11 17:18:47:441,-0.448387,2.09921,-9.59905,-11.9657,-2.51296,88.7259
2023-03-11 17:18:47:451,-0.473181,2.10627,-9.60807,-11.9687,-2.52514,88.7392
2023-03-11 17:18:47:461,-0.50148,2.09386,-9.58346,-11.9648,-2.5373,88.7487
2023-03-11 17:18:47:471,-0.521112,2.08337,-9.55001,-11.9578,-2.55027,88.7575
2023-03-11 17:18:47:481,-0.545554,2.06669,-9.50812,-11.9518,-2.55853,88.7676
2023-03-11 17:18:47:491,-0.532751,2.05745,-9.48069,-11.9463,-2.56413,88.7721
2023-03-11 17:18:47:501,-0.510911,2.02911,-9.45554,-11.9379,-2.56941,88.7726
2023-03-11 17:18:47:511,-0.467401,2.04147,-9.46628,-11.9328,-2.57271,88.7703
2023-03-11 17:18:47:521,-0.430452,2.04126,-9.49548,-11.9325,-2.57717,88.7659
2023-03-11 17:18:47:531,-0.413228,2.03805,-9.50781,-11.9349,-2.58041,88.7618
2023-03-11 17:18:47:541,-0.408753,2.04895,-9.52325,-11.9428,-2.58326,88.7595
2023-03-11 17:18:47:551,-0.39428,2.07814,-9.55412,-11.9534,-2.5855,88.7604
2023-03-11 17:18:47:561,-0.403318,2.09276,-9.59054,-11.9624,-2.58398,88.7588
2023-03-11 17:18:47:571,-0.413641,2.10967,-9.61251,-11.9731,-2.58453,88.76
2023-03-11 17:18:47:581,-0.428816,2.12276,-9.59764,-11.9797,-2.58564,88.7668
2023-03-11 17:18:47:591,-0.444037,2.11475,-9.58511,-11.9809,-2.58586,88.7744
2023-03-11 17:18:47:601,-0.435804,2.106,-9.55586,-11.9796,-2.58515,88.7813
2023-03-11 17:18:47:611,-0.429729,2.10026,-9.54331,-11.9771,-2.58555,88.7854
2023-03-11 17:18:47:621,-0.416579,2.08109,-9.54392,-11.9718,-2.58911,88.787
2023-03-11 17:18:47:631,-0.409224,2.05468,-9.55044,-11.9679,-2.59397,88.7867
2023-03-11 17:18:47:641,-0.415964,2.04928,-9.55261,-11.9667,-2.59988,88.7864
2023-03-11 17:18:47:651,-0.440976,2.04337,-9.57935,-11.9619,-2.61018,88.7841
2023-03-11 17:18:47:661,-0.440985,2.04361,-9.58032,-11.9592,-2.61731,88.7828
2023-03-11 17:18:47:671,-0.422573,2.05772,-9.5805,-11.9543,-2.62496,88.7861
2023-03-11 17:18:47:681,-0.426377,2.04568,-9.57221,-11.9504,-2.63056,88.7916
2023-03-11 17:18:47:691,-0.430277,2.03895,-9.56101,-11.9425,-2.63508,88.795
2023-03-11 17:18:47:701,-0.431568,2.03847,-9.52918,-11.936,-2.64403,88.8006
2023-03-11 17:18:47:711,-0.444115,2.02233,-9.52143,-11.9354,-2.6517,88.8103
2023-03-11 17:18:47:721,-0.471493,2.01383,-9.51054,-11.9342,-2.65981,88.8212
2023-03-11 17:18:47:731,-0.484785,2.02001,-9.49802,-11.9367,-2.66564,88.8341
2023-03-11 17:18:47:741,-0.490459,2.04069,-9.5087,-11.9401,-2.67132,88.8443
2023-03-11 17:18:47:751,-0.491341,2.04295,-9.52809,-11.9384,-2.67363,88.8526
2023-03-11 17:18:47:761,-0.506162,2.05436,-9.5435,-11.9413,-2.67619,88.8635
2023-03-11 17:18:47:771,-0.525656,2.07836,-9.55956,-11.9457,-2.67905,88.87
2023-03-11 17:18:47:781,-0.535993,2.08638,-9.56916,-11.9503,-2.67729,88.8766
2023-03-11 17:18:47:791,-0.546505,2.08414,-9.55735,-11.9523,-2.67422,88.8803
2023-03-11 17:18:47:801,-0.524978,2.06703,-9.54223,-11.9543,-2.66801,88.8824
2023-03-11 17:18:47:811,-0.490007,2.05799,-9.54166,-11.9578,-2.65847,88.8829
2023-03-11 17:18:47:821,-0.446417,2.05663,-9.56458,-11.9581,-2.65083,88.8805
2023-03-11 17:18:47:831,-0.436141,2.04902,-9.58486,-11.9634,-2.63946,88.8804
2023-03-11 17:18:47:841,-0.428955,2.06067,-9.61413,-11.9667,-2.63105,88.8776
2023-03-11 17:18:47:851,-0.419338,2.06765,-9.61289,-11.9661,-2.62005,88.8724
2023-03-11 17:18:47:861,-0.382353,2.06354,-9.62892,-11.9631,-2.6093,88.8679
2023-03-11 17:18:47:871,-0.354606,2.07838,-9.66004,-11.9595,-2.5981,88.8619
2023-03-11 17:18:47:881,-0.33791,2.06492,-9.65413,-11.9534,-2.58673,88.8578
2023-03-11 17:18:47:891,-0.336228,2.05993,-9.61539,-11.9429,-2.57927,88.857
2023-03-11 17:18:47:901,-0.375642,2.05831,-9.57423,-11.9351,-2.57382,88.8559
2023-03-11 17:18:47:911,-0.405848,2.04528,-9.53636,-11.9285,-2.56925,88.8562
2023-03-11 17:18:47:921,-0.406034,2.04978,-9.51414,-11.925,-2.5696,88.8513
2023-03-11 17:18:47:931,-0.359868,2.05337,-9.48883,-11.9274,-2.56735,88.8438
2023-03-11 17:18:47:941,-0.312649,2.0534,-9.45531,-11.9293,-2.5671,88.8355
2023-03-11 17:18:47:951,-0.274303,2.07454,-9.46093,-11.9396,-2.57562,88.8294
2023-03-11 17:18:47:961,-0.234103,2.08286,-9.45612,-11.9531,-2.59295,88.8223
2023-03-11 17:18:47:971,-0.226402,2.09673,-9.43518,-11.9689,-2.62028,88.8261
2023-03-11 17:18:47:981,-0.2353,2.12218,-9.39942,-11.9895,-2.65019,88.8413
2023-03-11 17:18:47:991,-0.291382,2.11916,-9.36149,-12.0174,-2.68382,88.8677
2023-03-11 17:18:48:1,-0.366831,2.14415,-9.31887,-12.0508,-2.72039,88.9066
2023-03-11 17:18:48:11,-0.471643,2.17611,-9.3056,-12.0978,-2.75375,88.9583
2023-03-11 17:18:48:21,-0.594611,2.22645,-9.37234,-12.1517,-2.77975,89.0162
2023-03-11 17:18:48:31,-0.705426,2.32998,-9.56801,-12.2179,-2.80134,89.0752
2023-03-11 17:18:48:41,-0.751078,2.41902,-9.81721,-12.2845,-2.81681,89.1328
2023-03-11 17:18:48:51,-0.729171,2.50902,-10.0101,-12.3361,-2.82661,89.1768
2023-03-11 17:18:48:61,-0.639326,2.50663,-10.0547,-12.3633,-2.83554,89.2078
2023-03-11 17:18:48:71,-0.529156,2.38975,-9.91465,-12.3566,-2.84551,89.2333
2023-03-11 17:18:48:81,-0.47216,2.22043,-9.71118,-12.3303,-2.85569,89.2568
2023-03-11 17:18:48:91,-0.466778,2.11231,-9.55244,-12.2957,-2.86968,89.2817
2023-03-11 17:18:48:101,-0.464838,2.04808,-9.44015,-12.2639,-2.88195,89.3087
2023-03-11 17:18:48:111,-0.438111,2.01127,-9.39196,-12.2328,-2.89565,89.3325
2023-03-11 17:18:48:121,-0.42086,2.01008,-9.46452,-12.2127,-2.9008,89.3621
2023-03-11 17:18:48:131,-0.446614,2.12018,-9.62484,-12.1991,-2.90891,89.3961
2023-03-11 17:18:48:142,-0.519763,2.1841,-9.73022,-12.1761,-2.92126,89.4354
2023-03-11 17:18:48:151,-0.628548,2.16643,-9.70847,-12.1339,-2.93087,89.4762
2023-03-11 17:18:48:161,-0.752067,2.11261,-9.64198,-12.0771,-2.94293,89.5117
2023-03-11 17:18:48:171,-0.844717,2.07164,-9.54497,-12.0085,-2.95597,89.535
2023-03-11 17:18:48:181,-0.893903,2.00142,-9.45784,-11.9387,-2.97027,89.544
2023-03-11 17:18:48:191,-0.894013,1.96019,-9.39871,-11.8721,-2.97884,89.5332
2023-03-11 17:18:48:201,-0.827553,1.93437,-9.37242,-11.8152,-2.98541,89.4997
2023-03-11 17:18:48:211,-0.779271,1.9094,-9.38991,-11.7705,-2.99605,89.4474
2023-03-11 17:18:48:221,-0.757054,1.95401,-9.43768,-11.7355,-3.00698,89.3831
2023-03-11 17:18:48:231,-0.719729,2.01046,-9.54226,-11.7129,-3.01605,89.3026
2023-03-11 17:18:48:241,-0.683495,2.06026,-9.60343,-11.6911,-3.02385,89.2147
2023-03-11 17:18:48:251,-0.62495,2.06585,-9.58866,-11.6645,-3.02816,89.1177
2023-03-11 17:18:48:261,-0.550717,2.02807,-9.55482,-11.6336,-3.02439,89.0099
2023-03-11 17:18:48:271,-0.43414,2.00977,-9.57542,-11.6009,-3.01194,88.8994
2023-03-11 17:18:48:281,-0.315429,1.99471,-9.64272,-11.5668,-2.99921,88.7892
2023-03-11 17:18:48:291,-0.292367,1.98395,-9.67634,-11.5313,-2.99785,88.6846
2023-03-11 17:18:48:301,-0.323246,1.97243,-9.64172,-11.4911,-3.00441,88.5858
2023-03-11 17:18:48:311,-0.373612,1.92644,-9.56248,-11.4467,-3.01108,88.4958
2023-03-11 17:18:48:321,-0.447569,1.88858,-9.43655,-11.3957,-3.01648,88.4109
2023-03-11 17:18:48:331,-0.463305,1.81443,-9.33084,-11.344,-3.01343,88.3296
2023-03-11 17:18:48:341,-0.414223,1.76042,-9.32954,-11.302,-3.00099,88.2458
2023-03-11 17:18:48:351,-0.350058,1.77951,-9.42509,-11.272,-2.98672,88.1653
2023-03-11 17:18:48:361,-0.324251,1.80997,-9.52102,-11.2524,-2.96912,88.0843
2023-03-11 17:18:48:371,-0.320765,1.83047,-9.56548,-11.2371,-2.96008,88.0088
2023-03-11 17:18:48:381,-0.317695,1.86434,-9.62306,-11.2299,-2.95991,87.9382
2023-03-11 17:18:48:391,-0.312846,1.93083,-9.6404,-11.2327,-2.97202,87.8715
2023-03-11 17:18:48:401,-0.333404,1.94176,-9.59414,-11.2364,-2.99073,87.8105
2023-03-11 17:18:48:411,-0.397908,1.92732,-9.52937,-11.2368,-3.01311,87.7531
2023-03-11 17:18:48:421,-0.42825,1.91036,-9.49164,-11.2386,-3.03882,87.7055
2023-03-11 17:18:48:431,-0.429807,1.89818,-9.4406,-11.2405,-3.06227,87.6589
2023-03-11 17:18:48:441,-0.445136,1.88918,-9.38967,-11.246,-3.0821,87.6165
2023-03-11 17:18:48:451,-0.45226,1.88059,-9.36976,-11.2548,-3.09138,87.5791
2023-03-11 17:18:48:461,-0.417547,1.88379,-9.39261,-11.276,-3.09821,87.5442
2023-03-11 17:18:48:471,-0.348869,1.9079,-9.49432,-11.3059,-3.10006,87.5108
2023-03-11 17:18:48:481,-0.316184,1.97958,-9.6596,-11.3443,-3.10369,87.4892
2023-03-11 17:18:48:491,-0.353791,2.06126,-9.79344,-11.3831,-3.11226,87.4792
2023-03-11 17:18:48:501,-0.449959,2.08476,-9.86949,-11.4076,-3.12738,87.4762
2023-03-11 17:18:48:511,-0.584359,2.09719,-9.89258,-11.4189,-3.14537,87.4801
2023-03-11 17:18:48:521,-0.72369,2.03936,-9.80473,-11.4066,-3.16137,87.4813
2023-03-11 17:18:48:531,-0.832811,1.94581,-9.68374,-11.3793,-3.17188,87.4747
2023-03-11 17:18:48:541,-0.849141,1.8796,-9.59828,-11.3502,-3.17412,87.4511
2023-03-11 17:18:48:551,-0.711816,1.83625,-9.5637,-11.3236,-3.16624,87.4083
2023-03-11 17:18:48:561,-0.486379,1.81199,-9.55173,-11.3019,-3.15912,87.3435
2023-03-11 17:18:48:571,-0.292486,1.77553,-9.52927,-11.2888,-3.15243,87.2729
2023-03-11 17:18:48:581,-0.143476,1.78058,-9.53872,-11.2826,-3.16003,87.2056
2023-03-11 17:18:48:591,-0.093754,1.81512,-9.57276,-11.2902,-3.17671,87.151
2023-03-11 17:18:48:601,-0.15485,1.84835,-9.60549,-11.2972,-3.20576,87.1155
2023-03-11 17:18:48:611,-0.308236,1.89094,-9.62668,-11.3041,-3.23971,87.0999
2023-03-11 17:18:48:621,-0.404949,1.91319,-9.64687,-11.3022,-3.27617,87.0976
2023-03-11 17:18:48:631,-0.447972,1.87616,-9.63326,-11.2921,-3.31034,87.1063
2023-03-11 17:18:48:641,-0.51283,1.84038,-9.59117,-11.277,-3.33807,87.1259
2023-03-11 17:18:48:651,-0.587633,1.81501,-9.53792,-11.2583,-3.36113,87.155
2023-03-11 17:18:48:661,-0.633702,1.80399,-9.48959,-11.2402,-3.37966,87.1875
2023-03-11 17:18:48:671,-0.715731,1.82607,-9.45988,-11.232,-3.39162,87.2289
2023-03-11 17:18:48:681,-0.765121,1.84644,-9.4662,-11.2296,-3.40399,87.2694
2023-03-11 17:18:48:691,-0.788734,1.86565,-9.52106,-11.227,-3.40396,87.3083
2023-03-11 17:18:48:701,-0.811899,1.89456,-9.57469,-11.2289,-3.39806,87.3437
2023-03-11 17:18:48:711,-0.812105,1.91388,-9.59662,-11.2285,-3.38527,87.3759
2023-03-11 17:18:48:721,-0.818145,1.93007,-9.62772,-11.2256,-3.36883,87.4021
2023-03-11 17:18:48:731,-0.802016,1.91752,-9.6546,-11.2206,-3.34697,87.4184
2023-03-11 17:18:48:741,-0.780947,1.90116,-9.63583,-11.2074,-3.32325,87.4209
2023-03-11 17:18:48:751,-0.752782,1.85006,-9.5901,-11.1909,-3.29564,87.4122
2023-03-11 17:18:48:761,-0.707102,1.80249,-9.58579,-11.1719,-3.27022,87.3935
2023-03-11 17:18:48:771,-0.643234,1.79527,-9.56938,-11.1604,-3.24401,87.3627
2023-03-11 17:18:48:781,-0.538953,1.80062,-9.56806,-11.1547,-3.21621,87.3249
2023-03-11 17:18:48:791,-0.423389,1.79628,-9.6172,-11.1589,-3.18794,87.2825
2023-03-11 17:18:48:801,-0.311707,1.81396,-9.62828,-11.162,-3.15531,87.2327
2023-03-11 17:18:48:811,-0.254651,1.82201,-9.61649,-11.1642,-3.12141,87.1912
2023-03-11 17:18:48:821,-0.222116,1.81903,-9.56878,-11.1648,-3.0854,87.1573
2023-03-11 17:18:48:831,-0.240895,1.79772,-9.49373,-11.1634,-3.04619,87.1349
2023-03-11 17:18:48:841,-0.243369,1.78719,-9.43531,-11.1641,-3.00231,87.1221
2023-03-11 17:18:48:851,-0.218179,1.79804,-9.41225,-11.17,-2.95218,87.1158
2023-03-11 17:18:48:861,-0.19205,1.8286,-9.45261,-11.1876,-2.9001,87.1135
2023-03-11 17:18:48:871,-0.189052,1.87006,-9.51371,-11.2119,-2.85266,87.1227
2023-03-11 17:18:48:881,-0.197419,1.90302,-9.55217,-11.2372,-2.81134,87.1364
2023-03-11 17:18:48:891,-0.224759,1.9235,-9.58843,-11.2648,-2.78209,87.1559
2023-03-11 17:18:48:901,-0.259868,1.95433,-9.61264,-11.2926,-2.76001,87.1778
2023-03-11 17:18:48:911,-0.315674,1.97006,-9.58655,-11.3181,-2.75188,87.2014
2023-03-11 17:18:48:921,-0.377508,1.97177,-9.52829,-11.3495,-2.75638,87.2292
2023-03-11 17:18:48:931,-0.419068,1.98169,-9.5167,-11.3824,-2.76985,87.2566
2023-03-11 17:18:48:941,-0.482108,1.99846,-9.51233,-11.4171,-2.78771,87.279
2023-03-11 17:18:48:951,-0.543952,2.02402,-9.47878,-11.4546,-2.80559,87.3005
2023-03-11 17:18:48:961,-0.55793,2.05888,-9.48011,-11.4984,-2.81723,87.3183
2023-03-11 17:18:48:971,-0.494593,2.09873,-9.47294,-11.545,-2.82433,87.3324
2023-03-11 17:18:48:981,-0.442571,2.0969,-9.42226,-11.5936,-2.83303,87.3414
2023-03-11 17:18:48:991,-0.429676,2.1127,-9.34936,-11.652,-2.84587,87.3507
2023-03-11 17:18:49:1,-0.469744,2.15108,-9.33007,-11.7226,-2.86788,87.362
2023-03-11 17:18:49:11,-0.490317,2.21156,-9.38631,-11.804,-2.89137,87.3692
2023-03-11 17:18:49:21,-0.464145,2.29383,-9.52082,-11.8859,-2.91402,87.3811
2023-03-11 17:18:49:31,-0.456639,2.35278,-9.65275,-11.9676,-2.94108,87.3926
2023-03-11 17:18:49:41,-0.493015,2.38729,-9.75909,-12.04,-2.97433,87.4088
2023-03-11 17:18:49:51,-0.559108,2.40775,-9.82611,-12.1007,-3.01452,87.4245
2023-03-11 17:18:49:61,-0.61263,2.38984,-9.85784,-12.1414,-3.05603,87.4428
2023-03-11 17:18:49:71,-0.692066,2.34264,-9.82902,-12.1614,-3.10054,87.4579
2023-03-11 17:18:49:81,-0.75158,2.26659,-9.74021,-12.173,-3.14878,87.4677
2023-03-11 17:18:49:91,-0.776989,2.18951,-9.62967,-12.1808,-3.20131,87.4684
2023-03-11 17:18:49:101,-0.813898,2.14539,-9.55684,-12.1873,-3.25524,87.4605
2023-03-11 17:18:49:111,-0.822789,2.14223,-9.52143,-12.1956,-3.30771,87.4452
2023-03-11 17:18:49:121,-0.838405,2.1201,-9.50915,-12.2039,-3.35846,87.4207
2023-03-11 17:18:49:131,-0.817712,2.12665,-9.54405,-12.217,-3.40598,87.3882
2023-03-11 17:18:49:142,-0.740638,2.13628,-9.60942,-12.2251,-3.45168,87.3488
2023-03-11 17:18:49:151,-0.706926,2.13129,-9.65495,-12.2287,-3.49041,87.3052
2023-03-11 17:18:49:162,-0.692003,2.11367,-9.68617,-12.2266,-3.5273,87.2634
2023-03-11 17:18:49:171,-0.662206,2.09112,-9.71105,-12.2214,-3.5632,87.2263
2023-03-11 17:18:49:181,-0.625788,2.06958,-9.72033,-12.2034,-3.59313,87.1888
2023-03-11 17:18:49:191,-0.605221,2.04361,-9.6791,-12.181,-3.61962,87.1587
2023-03-11 17:18:49:201,-0.615962,2.00962,-9.62663,-12.151,-3.64721,87.1359
2023-03-11 17:18:49:211,-0.643728,1.98748,-9.61593,-12.12,-3.66576,87.1182
2023-03-11 17:18:49:221,-0.639989,1.96758,-9.63843,-12.0904,-3.68324,87.1048
2023-03-11 17:18:49:231,-0.658289,1.94703,-9.67222,-12.055,-3.69673,87.0994
2023-03-11 17:18:49:241,-0.715482,1.95169,-9.71368,-12.0127,-3.70609,87.0998
2023-03-11 17:18:49:251,-0.756605,1.94688,-9.72193,-11.9592,-3.71392,87.1041
2023-03-11 17:18:49:261,-0.774554,1.91834,-9.65934,-11.9017,-3.71509,87.11
2023-03-11 17:18:49:271,-0.801973,1.84978,-9.59704,-11.8288,-3.71176,87.1133
2023-03-11 17:18:49:281,-0.807222,1.81113,-9.55531,-11.7568,-3.69957,87.1117
2023-03-11 17:18:49:291,-0.758564,1.75687,-9.53631,-11.6805,-3.68183,87.1047
2023-03-11 17:18:49:301,-0.703193,1.72346,-9.51579,-11.6079,-3.65809,87.0928
2023-03-11 17:18:49:311,-0.658048,1.7236,-9.49004,-11.538,-3.6361,87.0763
2023-03-11 17:18:49:321,-0.643183,1.70828,-9.45011,-11.4714,-3.6102,87.0568
2023-03-11 17:18:49:331,-0.641884,1.68937,-9.39825,-11.4058,-3.58146,87.0314
2023-03-11 17:18:49:341,-0.640361,1.67559,-9.34496,-11.3493,-3.55301,86.9996
2023-03-11 17:18:49:351,-0.622946,1.67767,-9.30491,-11.3005,-3.51706,86.964
2023-03-11 17:18:49:361,-0.584629,1.7095,-9.31698,-11.2633,-3.47545,86.9205
2023-03-11 17:18:49:371,-0.496551,1.73972,-9.32171,-11.2366,-3.42872,86.8663
2023-03-11 17:18:49:382,-0.350432,1.72156,-9.29531,-11.2143,-3.38319,86.807
2023-03-11 17:18:49:391,-0.214511,1.69662,-9.28361,-11.204,-3.33335,86.7445
2023-03-11 17:18:49:401,-0.1044,1.71336,-9.31179,-11.2174,-3.28937,86.6926
2023-03-11 17:18:49:411,-0.0320436,1.74918,-9.32855,-11.2493,-3.25433,86.651
2023-03-11 17:18:49:421,-0.0281606,1.80091,-9.32568,-11.3016,-3.23175,86.6225
2023-03-11 17:18:49:431,-0.0523886,1.85042,-9.31911,-11.3725,-3.22616,86.6154
2023-03-11 17:18:49:441,-0.0730062,1.91556,-9.312,-11.4601,-3.22637,86.6208
2023-03-11 17:18:49:451,-0.106745,2.00272,-9.31987,-11.5578,-3.23668,86.6424
2023-03-11 17:18:49:461,-0.16593,2.07342,-9.36847,-11.6689,-3.25466,86.6804
2023-03-11 17:18:49:471,-0.274095,2.1529,-9.43145,-11.7876,-3.27825,86.7289
2023-03-11 17:18:49:481,-0.388021,2.24206,-9.52646,-11.911,-3.31002,86.79
2023-03-11 17:18:49:491,-0.497724,2.33821,-9.62043,-12.0297,-3.34692,86.8572
2023-03-11 17:18:49:501,-0.609809,2.40399,-9.68078,-12.1413,-3.38603,86.9262
2023-03-11 17:18:49:511,-0.706576,2.46725,-9.70565,-12.2464,-3.42995,86.9939
2023-03-11 17:18:49:521,-0.768284,2.52504,-9.70335,-12.3436,-3.47348,87.0533
2023-03-11 17:18:49:531,-0.809297,2.55592,-9.70998,-12.424,-3.51902,87.106
2023-03-11 17:18:49:541,-0.836688,2.56612,-9.70674,-12.4932,-3.5639,87.1474
2023-03-11 17:18:49:552,-0.859213,2.58231,-9.716,-12.5518,-3.60729,87.1778
2023-03-11 17:18:49:561,-0.871947,2.60024,-9.76002,-12.6034,-3.65279,87.1969
2023-03-11 17:18:49:571,-0.854739,2.59271,-9.83223,-12.6423,-3.69735,87.2089
2023-03-11 17:18:49:581,-0.820777,2.58043,-9.87302,-12.6652,-3.74067,87.2101
2023-03-11 17:18:49:591,-0.801275,2.56611,-9.87978,-12.6746,-3.78262,87.2022
2023-03-11 17:18:49:601,-0.807051,2.52234,-9.82683,-12.669,-3.82477,87.1874
2023-03-11 17:18:49:611,-0.792504,2.46171,-9.73757,-12.6435,-3.86267,87.1719
2023-03-11 17:18:49:621,-0.760245,2.40265,-9.65458,-12.608,-3.89762,87.1574
2023-03-11 17:18:49:631,-0.705765,2.3348,-9.57666,-12.5623,-3.91949,87.1402
2023-03-11 17:18:49:641,-0.639671,2.28078,-9.53682,-12.5107,-3.9341,87.1254
2023-03-11 17:18:49:651,-0.590761,2.23703,-9.5066,-12.4548,-3.94204,87.1157
2023-03-11 17:18:49:661,-0.583277,2.18929,-9.46992,-12.4023,-3.9435,87.1154
2023-03-11 17:18:49:671,-0.603297,2.16527,-9.43542,-12.3466,-3.94147,87.1249
2023-03-11 17:18:49:681,-0.641546,2.14384,-9.40513,-12.2903,-3.93642,87.1393
2023-03-11 17:18:49:691,-0.690526,2.10993,-9.39025,-12.2348,-3.925,87.1642
2023-03-11 17:18:49:701,-0.713889,2.08512,-9.39443,-12.184,-3.90688,87.1877
2023-03-11 17:18:49:711,-0.722772,2.04901,-9.40786,-12.1347,-3.88651,87.2087
2023-03-11 17:18:49:721,-0.715411,2.01614,-9.41906,-12.0867,-3.86613,87.2315
2023-03-11 17:18:49:731,-0.719118,1.99806,-9.42453,-12.0412,-3.84552,87.2511
2023-03-11 17:18:49:741,-0.732461,1.98314,-9.42537,-12.0048,-3.82226,87.2647
2023-03-11 17:18:49:752,-0.725291,1.97387,-9.43222,-11.9714,-3.8015,87.2736
2023-03-11 17:18:49:762,-0.690696,1.98124,-9.41362,-11.9457,-3.78339,87.2743
2023-03-11 17:18:49:771,-0.643444,1.97689,-9.36775,-11.9273,-3.7607,87.2674
2023-03-11 17:18:49:781,-0.612938,1.96371,-9.35357,-11.9179,-3.74176,87.2586
2023-03-11 17:18:49:791,-0.579304,1.97285,-9.36548,-11.9236,-3.7241,87.2461
2023-03-11 17:18:49:802,-0.556758,2.0203,-9.43031,-11.9424,-3.70868,87.2339
2023-03-11 17:18:49:811,-0.515238,2.09088,-9.52142,-11.9691,-3.69748,87.2169
2023-03-11 17:18:49:821,-0.47492,2.1134,-9.57568,-11.9959,-3.69173,87.2067
2023-03-11 17:18:49:831,-0.476736,2.12827,-9.59099,-12.0221,-3.69569,87.2005
2023-03-11 17:18:49:841,-0.529353,2.14743,-9.58859,-12.0471,-3.70474,87.2
2023-03-11 17:18:49:851,-0.597056,2.15654,-9.57876,-12.0643,-3.71542,87.204
2023-03-11 17:18:49:862,-0.654663,2.16311,-9.56455,-12.0817,-3.72824,87.2148
2023-03-11 17:18:49:871,-0.665208,2.16624,-9.57461,-12.0998,-3.73616,87.2253
2023-03-11 17:18:49:881,-0.680826,2.18435,-9.61592,-12.1107,-3.74498,87.2396
2023-03-11 17:18:49:891,-0.705434,2.19555,-9.62814,-12.119,-3.75124,87.2532
2023-03-11 17:18:49:901,-0.745417,2.19738,-9.62822,-12.1213,-3.75925,87.2609
2023-03-11 17:18:49:911,-0.775312,2.19376,-9.61718,-12.1169,-3.76532,87.2691
2023-03-11 17:18:49:921,-0.774802,2.165,-9.59383,-12.106,-3.76538,87.2734
2023-03-11 17:18:49:931,-0.76813,2.13201,-9.56805,-12.0862,-3.758,87.2703
2023-03-11 17:18:49:941,-0.733019,2.08828,-9.57656,-12.0633,-3.75353,87.2608
2023-03-11 17:18:49:951,-0.688129,2.07734,-9.57307,-12.0402,-3.74859,87.2491
2023-03-11 17:18:49:962,-0.642316,2.0558,-9.55163,-12.0225,-3.74095,87.2337
2023-03-11 17:18:49:971,-0.622016,2.01696,-9.53736,-12.0028,-3.73287,87.2184
2023-03-11 17:18:49:981,-0.610458,1.99823,-9.53349,-11.9836,-3.72696,87.2045
2023-03-11 17:18:49:991,-0.603448,1.99445,-9.52414,-11.9649,-3.71957,87.1929
2023-03-11 17:18:50:1,-0.589086,1.98751,-9.50071,-11.9497,-3.70605,87.1797
2023-03-11 17:18:50:11,-0.569441,1.97172,-9.49045,-11.938,-3.69605,87.1674
2023-03-11 17:18:50:21,-0.569158,1.975,-9.50313,-11.9299,-3.68351,87.1603
2023-03-11 17:18:50:31,-0.579393,1.98505,-9.49699,-11.9242,-3.67041,87.1536
2023-03-11 17:18:50:41,-0.553562,1.97872,-9.46801,-11.9238,-3.66021,87.149
2023-03-11 17:18:50:51,-0.534813,1.9811,-9.43219,-11.9249,-3.65443,87.1499
2023-03-11 17:18:50:61,-0.543924,1.98325,-9.43251,-11.9345,-3.64808,87.152
2023-03-11 17:18:50:71,-0.59207,2.00753,-9.45234,-11.954,-3.64691,87.1584
2023-03-11 17:18:50:81,-0.620075,2.04701,-9.49761,-11.9773,-3.6453,87.1674
2023-03-11 17:18:50:91,-0.663963,2.07965,-9.56581,-11.9984,-3.64605,87.1778
2023-03-11 17:18:50:101,-0.690765,2.1168,-9.60199,-12.0203,-3.64616,87.189
2023-03-11 17:18:50:111,-0.724457,2.14574,-9.62086,-12.0365,-3.6448,87.198
2023-03-11 17:18:50:121,-0.741496,2.1426,-9.61181,-12.0465,-3.64594,87.2053
2023-03-11 17:18:50:131,-0.761339,2.1335,-9.60466,-12.0504,-3.64396,87.2103
2023-03-11 17:18:50:142,-0.775352,2.12146,-9.58506,-12.0492,-3.64241,87.21
2023-03-11 17:18:50:151,-0.757593,2.10493,-9.55765,-12.0449,-3.63844,87.205
2023-03-11 17:18:50:161,-0.720572,2.08499,-9.5155,-12.0411,-3.62678,87.1945
2023-03-11 17:18:50:171,-0.658551,2.05761,-9.49295,-12.0358,-3.61559,87.1765
2023-03-11 17:18:50:182,-0.596215,2.05152,-9.47637,-12.0301,-3.60153,87.1537
2023-03-11 17:18:50:191,-0.5556,2.02555,-9.49801,-12.0294,-3.58561,87.1332
2023-03-11 17:18:50:201,-0.502977,2.01204,-9.51659,-12.0309,-3.57029,87.1108
2023-03-11 17:18:50:211,-0.445934,2.01191,-9.54705,-12.0364,-3.55116,87.0855
2023-03-11 17:18:50:222,-0.411738,2.0229,-9.55784,-12.0442,-3.53445,87.0686
2023-03-11 17:18:50:231,-0.405251,2.02612,-9.54706,-12.0519,-3.5239,87.0553
2023-03-11 17:18:50:241,-0.412666,2.04351,-9.54609,-12.0626,-3.51683,87.0496
2023-03-11 17:18:50:251,-0.41686,2.03843,-9.52987,-12.0712,-3.5107,87.0495
2023-03-11 17:18:50:261,-0.434416,2.03915,-9.48903,-12.0831,-3.50762,87.0544
2023-03-11 17:18:50:271,-0.470868,2.04589,-9.48541,-12.1002,-3.50602,87.0646
2023-03-11 17:18:50:281,-0.503123,2.07627,-9.51533,-12.1209,-3.50493,87.0782
2023-03-11 17:18:50:291,-0.523779,2.1041,-9.53352,-12.1398,-3.50389,87.0956
2023-03-11 17:18:50:302,-0.545299,2.11742,-9.55098,-12.1571,-3.50718,87.1174
2023-03-11 17:18:50:311,-0.570894,2.12682,-9.5786,-12.1762,-3.51251,87.1392
2023-03-11 17:18:50:321,-0.614927,2.1273,-9.62707,-12.1908,-3.51972,87.1648
2023-03-11 17:18:50:331,-0.649874,2.13572,-9.63657,-12.2078,-3.52599,87.1861
2023-03-11 17:18:50:342,-0.675635,2.12884,-9.59131,-12.2149,-3.53385,87.2062
2023-03-11 17:18:50:351,-0.679289,2.1105,-9.54622,-12.22,-3.53533,87.2242
2023-03-11 17:18:50:361,-0.675794,2.08347,-9.49743,-12.2218,-3.53951,87.2334
2023-03-11 17:18:50:371,-0.664556,2.06168,-9.4756,-12.2241,-3.54208,87.24
2023-03-11 17:18:50:382,-0.652523,2.06601,-9.46456,-12.2297,-3.54537,87.2419
2023-03-11 17:18:50:391,-0.643248,2.07539,-9.47566,-12.2398,-3.55078,87.2362
2023-03-11 17:18:50:401,-0.627573,2.06626,-9.51668,-12.2518,-3.55101,87.2343
2023-03-11 17:18:50:411,-0.601248,2.08201,-9.57635,-12.267,-3.55075,87.2261
2023-03-11 17:18:50:421,-0.553897,2.10747,-9.63427,-12.281,-3.55177,87.2161
2023-03-11 17:18:50:431,-0.50944,2.09368,-9.62671,-12.2865,-3.55762,87.2044
2023-03-11 17:18:50:441,-0.509337,2.07349,-9.56437,-12.293,-3.56643,87.1967
2023-03-11 17:18:50:451,-0.543142,2.08597,-9.5239,-12.3066,-3.57652,87.1926
2023-03-11 17:18:50:461,-0.576665,2.10832,-9.51377,-12.3234,-3.58441,87.1883
2023-03-11 17:18:50:471,-0.60299,2.13401,-9.51783,-12.3462,-3.59117,87.1885
2023-03-11 17:18:50:481,-0.604956,2.15236,-9.51831,-12.3685,-3.59381,87.1909
2023-03-11 17:18:50:491,-0.631091,2.16517,-9.52922,-12.3876,-3.59253,87.1949
2023-03-11 17:18:50:501,-0.662341,2.16552,-9.52346,-12.4042,-3.58852,87.1969
2023-03-11 17:18:50:511,-0.684582,2.17557,-9.49934,-12.4214,-3.58491,87.1975
2023-03-11 17:18:50:521,-0.700214,2.16424,-9.49035,-12.4323,-3.57548,87.1956
2023-03-11 17:18:50:531,-0.696444,2.13488,-9.47296,-12.443,-3.57062,87.1869
2023-03-11 17:18:50:541,-0.689558,2.12356,-9.4548,-12.4579,-3.56397,87.177
2023-03-11 17:18:50:551,-0.66231,2.10888,-9.44665,-12.4691,-3.55979,87.1597
2023-03-11 17:18:50:561,-0.624023,2.09526,-9.45777,-12.4862,-3.55524,87.1403
2023-03-11 17:18:50:571,-0.602066,2.09454,-9.45882,-12.5057,-3.54696,87.1195
2023-03-11 17:18:50:581,-0.616077,2.09387,-9.46134,-12.5277,-3.54102,87.0984
2023-03-11 17:18:50:591,-0.618211,2.09552,-9.46571,-12.5528,-3.5348,87.0756
2023-03-11 17:18:50:601,-0.621952,2.12511,-9.49049,-12.5876,-3.52722,87.0532
2023-03-11 17:18:50:611,-0.639391,2.14279,-9.49513,-12.6256,-3.52691,87.0324
2023-03-11 17:18:50:621,-0.592869,2.16831,-9.54533,-12.6633,-3.52531,87.0068
2023-03-11 17:18:50:631,-0.5656,2.20824,-9.58801,-12.7019,-3.52385,86.9773
2023-03-11 17:18:50:641,-0.573444,2.23643,-9.62363,-12.7396,-3.52308,86.9487
2023-03-11 17:18:50:651,-0.561669,2.27864,-9.63857,-12.7727,-3.52061,86.9217
2023-03-11 17:18:50:661,-0.504048,2.25443,-9.62104,-12.7958,-3.51567,86.8934
2023-03-11 17:18:50:671,-0.454577,2.22874,-9.5978,-12.8142,-3.5137,86.868
2023-03-11 17:18:50:681,-0.47539,2.22198,-9.56801,-12.8296,-3.51227,86.8491
2023-03-11 17:18:50:691,-0.541175,2.24188,-9.57286,-12.8435,-3.51872,86.8384
2023-03-11 17:18:50:701,-0.580652,2.27009,-9.60238,-12.8593,-3.52161,86.83
2023-03-11 17:18:50:711,-0.557484,2.28471,-9.61162,-12.8702,-3.52255,86.82
2023-03-11 17:18:50:721,-0.532546,2.26367,-9.61664,-12.8691,-3.51956,86.8114
2023-03-11 17:18:50:731,-0.544337,2.25224,-9.61232,-12.8654,-3.52054,86.8077
2023-03-11 17:18:50:741,-0.572189,2.27117,-9.59898,-12.8596,-3.51792,86.808
2023-03-11 17:18:50:751,-0.572752,2.25656,-9.60077,-12.8522,-3.51474,86.8086
2023-03-11 17:18:50:761,-0.561728,2.24038,-9.55836,-12.839,-3.51093,86.813
2023-03-11 17:18:50:771,-0.536647,2.21402,-9.51629,-12.8188,-3.50616,86.818
2023-03-11 17:18:50:781,-0.54552,2.19755,-9.47951,-12.8031,-3.49993,86.8208
2023-03-11 17:18:50:791,-0.549677,2.19281,-9.46947,-12.7839,-3.49748,86.8258
2023-03-11 17:18:50:801,-0.550824,2.18957,-9.47447,-12.7695,-3.49585,86.8289
2023-03-11 17:18:50:811,-0.546422,2.18438,-9.48269,-12.758,-3.49366,86.8324
2023-03-11 17:18:50:821,-0.551966,2.19698,-9.48114,-12.7434,-3.49696,86.8349
2023-03-11 17:18:50:831,-0.567655,2.18639,-9.49107,-12.7361,-3.50288,86.8401
2023-03-11 17:18:50:841,-0.584461,2.19308,-9.49589,-12.7272,-3.51179,86.843
2023-03-11 17:18:50:851,-0.590993,2.19466,-9.50872,-12.7217,-3.52238,86.8443
2023-03-11 17:18:50:861,-0.577243,2.19022,-9.51267,-12.7163,-3.53006,86.8426
2023-03-11 17:18:50:871,-0.565715,2.19736,-9.50251,-12.7097,-3.53986,86.8424
2023-03-11 17:18:50:881,-0.57293,2.18521,-9.48777,-12.704,-3.55077,86.8439
2023-03-11 17:18:50:891,-0.577607,2.17575,-9.4871,-12.7006,-3.56126,86.8493
2023-03-11 17:18:50:901,-0.613228,2.19446,-9.48082,-12.701,-3.56968,86.85
2023-03-11 17:18:50:911,-0.632064,2.21508,-9.50905,-12.704,-3.58474,86.8549
2023-03-11 17:18:50:921,-0.655996,2.23873,-9.52774,-12.7073,-3.59768,86.8584
2023-03-11 17:18:50:931,-0.686925,2.24576,-9.529,-12.71,-3.61235,86.857
2023-03-11 17:18:50:941,-0.709781,2.24917,-9.51726,-12.7117,-3.62779,86.8588
2023-03-11 17:18:50:951,-0.719607,2.24423,-9.51191,-12.7138,-3.64246,86.8566
2023-03-11 17:18:50:961,-0.721962,2.23866,-9.48685,-12.711,-3.66018,86.848
2023-03-11 17:18:50:971,-0.713512,2.22536,-9.4756,-12.7055,-3.67321,86.8381
