Timestamp,Acceleration_x,Acceleration_y,Acceleration_z,roll,pitch,yaw
2023-03-11 22:44:54:934,-0.171934,0.250392,-9.85632,-0.83201,-0.946078,-39.6103
2023-03-11 22:44:54:942,-0.218743,0.243435,-9.84103,-0.840081,-0.966905,-39.5911
2023-03-11 22:44:54:952,-0.240925,0.250883,-9.80967,-0.849093,-0.98347,-39.572
2023-03-11 22:44:54:962,-0.196897,0.249726,-9.80631,-0.853705,-0.997382,-39.554
2023-03-11 22:44:54:973,-0.159717,0.231227,-9.79638,-0.860856,-1.01059,-39.5365
2023-03-11 22:44:54:983,-0.163486,0.214123,-9.79926,-0.868018,-1.02935,-39.5149
2023-03-11 22:44:54:993,-0.203795,0.225132,-9.81415,-0.875818,-1.0462,-39.4956
2023-03-11 22:44:55:3,-0.236164,0.245969,-9.83421,-0.880094,-1.06815,-39.4779
2023-03-11 22:44:55:13,-0.271796,0.257083,-9.83584,-0.88257,-1.08929,-39.462
2023-03-11 22:44:55:22,-0.302831,0.27136,-9.84418,-0.881437,-1.10816,-39.4494
2023-03-11 22:44:55:32,-0.292323,0.273826,-9.85754,-0.876473,-1.12085,-39.4423
2023-03-11 22:44:55:43,-0.291101,0.263913,-9.86383,-0.86976,-1.13625,-39.4306
2023-03-11 22:44:55:53,-0.283631,0.254714,-9.862,-0.859742,-1.14984,-39.4246
2023-03-11 22:44:55:62,-0.276351,0.235096,-9.81774,-0.848405,-1.16134,-39.4184
2023-03-11 22:44:55:72,-0.267536,0.203779,-9.78359,-0.830908,-1.17705,-39.4133
2023-03-11 22:44:55:83,-0.268305,0.1868,-9.77052,-0.816045,-1.19418,-39.4097
2023-03-11 22:44:55:93,-0.277701,0.171482,-9.77051,-0.804032,-1.21349,-39.4048
2023-03-11 22:44:55:102,-0.305957,0.170399,-9.75349,-0.7929,-1.23693,-39.3938
2023-03-11 22:44:55:113,-0.334665,0.181593,-9.76583,-0.785414,-1.25477,-39.3827
2023-03-11 22:44:55:123,-0.360743,0.189624,-9.79359,-0.77618,-1.27235,-39.3745
2023-03-11 22:44:55:133,-0.381986,0.199024,-9.83172,-0.764089,-1.28903,-39.3664
2023-03-11 22:44:55:143,-0.389356,0.212116,-9.84891,-0.748106,-1.30389,-39.3625
2023-03-11 22:44:55:153,-0.377364,0.19357,-9.84237,-0.733901,-1.31408,-39.3639
2023-03-11 22:44:55:163,-0.398125,0.172838,-9.82753,-0.713722,-1.32547,-39.3631
2023-03-11 22:44:55:173,-0.390341,0.14878,-9.80703,-0.692207,-1.34167,-39.3675
2023-03-11 22:44:55:183,-0.361101,0.129167,-9.77432,-0.671142,-1.35602,-39.3757
2023-03-11 22:44:55:193,-0.36028,0.0925853,-9.72554,-0.654473,-1.37646,-39.3857
2023-03-11 22:44:55:203,-0.38741,0.0863382,-9.7021,-0.645073,-1.3997,-39.3962
2023-03-11 22:44:55:213,-0.406506,0.109355,-9.73145,-0.64103,-1.42112,-39.4093
2023-03-11 22:44:55:223,-0.414149,0.155153,-9.77981,-0.640044,-1.43964,-39.4258
2023-03-11 22:44:55:233,-0.450556,0.180621,-9.85309,-0.641257,-1.44961,-39.4436
2023-03-11 22:44:55:243,-0.471591,0.20716,-9.91386,-0.636936,-1.44995,-39.4667
2023-03-11 22:44:55:253,-0.412232,0.194521,-9.93471,-0.621824,-1.44452,-39.4944
2023-03-11 22:44:55:263,-0.32125,0.148765,-9.92692,-0.595774,-1.43766,-39.5278
2023-03-11 22:44:55:273,-0.260481,0.101596,-9.84022,-0.559307,-1.42846,-39.5588
2023-03-11 22:44:55:282,-0.258792,0.0352391,-9.76525,-0.520478,-1.42077,-39.588
2023-03-11 22:44:55:292,-0.247039,-0.0201398,-9.72233,-0.486447,-1.41589,-39.6206
2023-03-11 22:44:55:302,-0.160915,-0.0502252,-9.76098,-0.455504,-1.41103,-39.6511
2023-03-11 22:44:55:312,-0.0140674,-0.0551227,-9.83219,-0.430518,-1.40878,-39.6725
2023-03-11 22:44:55:322,0.00573767,-0.0354954,-9.84589,-0.405971,-1.41306,-39.6834
2023-03-11 22:44:55:332,-0.0874863,-0.0116555,-9.80535,-0.388435,-1.42277,-39.6857
2023-03-11 22:44:55:342,-0.160333,0.00393559,-9.74477,-0.368269,-1.42267,-39.6837
2023-03-11 22:44:55:352,-0.15677,-0.00415561,-9.6719,-0.345682,-1.41362,-39.675
2023-03-11 22:44:55:362,-0.121956,-0.0165449,-9.60687,-0.32204,-1.39869,-39.659
2023-03-11 22:44:55:372,-0.108781,-0.0360647,-9.56057,-0.297272,-1.38221,-39.636
2023-03-11 22:44:55:383,-0.105106,-0.0768906,-9.54263,-0.278446,-1.3595,-39.6027
2023-03-11 22:44:55:393,-0.122127,-0.0752702,-9.57078,-0.27109,-1.33682,-39.5623
2023-03-11 22:44:55:403,-0.184485,-0.0129953,-9.6314,-0.271256,-1.31713,-39.5256
2023-03-11 22:44:55:412,-0.227377,0.0257547,-9.65614,-0.269226,-1.29979,-39.4915
2023-03-11 22:44:55:423,-0.210928,0.0169288,-9.6479,-0.269962,-1.27964,-39.4654
2023-03-11 22:44:55:433,-0.146208,-0.0267026,-9.6439,-0.265902,-1.25424,-39.4384
2023-03-11 22:44:55:443,-0.0878518,-0.0600421,-9.67655,-0.268641,-1.23379,-39.4072
2023-03-11 22:44:55:453,-0.0745536,-0.0266231,-9.69959,-0.284164,-1.22103,-39.3773
2023-03-11 22:44:55:463,-0.0661956,0.0291897,-9.72949,-0.306037,-1.21081,-39.3445
2023-03-11 22:44:55:473,-0.0673861,0.0575014,-9.75852,-0.330554,-1.20335,-39.3124
2023-03-11 22:44:55:483,-0.0669177,0.0385366,-9.76475,-0.358736,-1.20176,-39.2792
2023-03-11 22:44:55:493,-0.100678,0.046287,-9.75559,-0.387583,-1.20471,-39.2376
2023-03-11 22:44:55:503,-0.150435,0.0752447,-9.7609,-0.419438,-1.20834,-39.1965
2023-03-11 22:44:55:512,-0.166688,0.131928,-9.76856,-0.453566,-1.20704,-39.155
2023-03-11 22:44:55:523,-0.16312,0.174882,-9.77115,-0.490459,-1.20484,-39.1109
2023-03-11 22:44:55:533,-0.171563,0.210222,-9.76272,-0.529333,-1.20186,-39.065
2023-03-11 22:44:55:543,-0.19189,0.21336,-9.79059,-0.565221,-1.19545,-39.0154
2023-03-11 22:44:55:553,-0.237021,0.234367,-9.81836,-0.60774,-1.19324,-38.9658
2023-03-11 22:44:55:563,-0.337998,0.290899,-9.85225,-0.648407,-1.18857,-38.9175
2023-03-11 22:44:55:573,-0.441999,0.339142,-9.90083,-0.680693,-1.18724,-38.8797
2023-03-11 22:44:55:583,-0.505411,0.35278,-9.9267,-0.701457,-1.18273,-38.8532
2023-03-11 22:44:55:593,-0.519279,0.326926,-9.92099,-0.711583,-1.17904,-38.8394
2023-03-11 22:44:55:603,-0.507591,0.292359,-9.88206,-0.71678,-1.17028,-38.8387
2023-03-11 22:44:55:613,-0.478321,0.258814,-9.86742,-0.715486,-1.15902,-38.85
2023-03-11 22:44:55:623,-0.477089,0.261021,-9.8724,-0.713957,-1.14318,-38.8754
2023-03-11 22:44:55:633,-0.484628,0.258849,-9.88311,-0.707364,-1.1299,-38.9134
2023-03-11 22:44:55:643,-0.446431,0.270392,-9.91732,-0.702523,-1.11922,-38.9639
2023-03-11 22:44:55:652,-0.363833,0.270417,-9.93936,-0.68916,-1.10448,-39.0253
2023-03-11 22:44:55:663,-0.319562,0.233947,-9.89931,-0.667055,-1.09103,-39.0956
2023-03-11 22:44:55:673,-0.290657,0.190694,-9.84381,-0.643077,-1.07622,-39.1704
2023-03-11 22:44:55:682,-0.209454,0.169747,-9.81038,-0.617702,-1.05411,-39.2481
2023-03-11 22:44:55:692,-0.0917526,0.129016,-9.81765,-0.588343,-1.03211,-39.324
2023-03-11 22:44:55:703,0.0238846,0.105021,-9.7965,-0.562781,-1.01281,-39.3927
2023-03-11 22:44:55:712,0.0544176,0.0793578,-9.77834,-0.534897,-0.994076,-39.45
2023-03-11 22:44:55:722,0.0426869,0.0568725,-9.7411,-0.505465,-0.978023,-39.4988
2023-03-11 22:44:55:732,0.0474273,0.03866,-9.69172,-0.482577,-0.961399,-39.5334
2023-03-11 22:44:55:742,0.0858739,0.0222438,-9.65008,-0.457979,-0.940396,-39.559
2023-03-11 22:44:55:752,0.104963,-0.00223601,-9.62346,-0.439114,-0.9202,-39.5679
2023-03-11 22:44:55:762,0.0651269,0.00699168,-9.64094,-0.428292,-0.900597,-39.5649
2023-03-11 22:44:55:772,0.0251017,0.0402241,-9.6747,-0.424161,-0.88161,-39.5503
2023-03-11 22:44:55:782,-0.00875261,0.0668115,-9.71765,-0.421811,-0.865031,-39.5321
2023-03-11 22:44:55:792,-0.0681631,0.0905184,-9.75927,-0.421739,-0.854426,-39.5102
2023-03-11 22:44:55:802,-0.102606,0.0961097,-9.79108,-0.422865,-0.849034,-39.4878
2023-03-11 22:44:55:812,-0.142887,0.0890853,-9.78413,-0.423178,-0.847159,-39.4627
2023-03-11 22:44:55:822,-0.159495,0.0922714,-9.77635,-0.424473,-0.846247,-39.4412
2023-03-11 22:44:55:832,-0.185187,0.0984378,-9.76475,-0.425195,-0.848566,-39.4276
2023-03-11 22:44:55:842,-0.193819,0.109315,-9.74751,-0.427577,-0.849279,-39.4115
2023-03-11 22:44:55:852,-0.189236,0.100648,-9.72243,-0.431638,-0.852572,-39.4004
2023-03-11 22:44:55:862,-0.170142,0.0835017,-9.72172,-0.437296,-0.85763,-39.3884
2023-03-11 22:44:55:872,-0.148574,0.0908498,-9.75736,-0.445906,-0.860163,-39.3755
2023-03-11 22:44:55:882,-0.133835,0.100379,-9.79059,-0.458861,-0.86212,-39.3616
2023-03-11 22:44:55:893,-0.1226,0.116086,-9.81318,-0.47043,-0.864252,-39.3443
2023-03-11 22:44:55:902,-0.139659,0.127843,-9.82629,-0.483279,-0.867889,-39.3258
2023-03-11 22:44:55:913,-0.156126,0.13567,-9.84945,-0.493077,-0.865725,-39.3038
2023-03-11 22:44:55:922,-0.14936,0.146179,-9.83943,-0.497943,-0.861334,-39.2827
2023-03-11 22:44:55:932,-0.148196,0.126238,-9.79527,-0.497111,-0.85056,-39.2547
2023-03-11 22:44:55:942,-0.152133,0.100838,-9.77278,-0.494065,-0.835366,-39.2257
2023-03-11 22:44:55:953,-0.139579,0.0910036,-9.76955,-0.490625,-0.81985,-39.1943
2023-03-11 22:44:55:962,-0.142856,0.103925,-9.77744,-0.487169,-0.800474,-39.1603
2023-03-11 22:44:55:972,-0.146844,0.100008,-9.77584,-0.486034,-0.780989,-39.127
2023-03-11 22:44:55:982,-0.149337,0.0963844,-9.76809,-0.484408,-0.761279,-39.0925
2023-03-11 22:44:55:992,-0.164144,0.0885369,-9.77609,-0.484668,-0.741175,-39.0624
2023-03-11 22:44:56:2,-0.172828,0.0760267,-9.7757,-0.48266,-0.719858,-39.0391
2023-03-11 22:44:56:12,-0.160122,0.0595839,-9.76755,-0.482215,-0.69664,-39.0192
2023-03-11 22:44:56:23,-0.128861,0.0495556,-9.78016,-0.479725,-0.675211,-39.0006
2023-03-11 22:44:56:32,-0.080592,0.0382142,-9.788,-0.480291,-0.653651,-38.9842
2023-03-11 22:44:56:43,-0.0654723,0.0439448,-9.81496,-0.479454,-0.631338,-38.9693
2023-03-11 22:44:56:53,-0.0495638,0.0457797,-9.82763,-0.475827,-0.611959,-38.9607
2023-03-11 22:44:56:62,-0.0297821,0.0386995,-9.81132,-0.471625,-0.593879,-38.9514
2023-03-11 22:44:56:72,0.025678,0.0219164,-9.7865,-0.468429,-0.576888,-38.941
2023-03-11 22:44:56:82,0.0735642,0.000361596,-9.75687,-0.463686,-0.560987,-38.9286
2023-03-11 22:44:56:92,0.103912,-0.0202259,-9.71537,-0.458077,-0.545242,-38.9118
2023-03-11 22:44:56:102,0.0919388,-0.0349724,-9.6827,-0.45686,-0.533232,-38.8863
2023-03-11 22:44:56:112,0.0499407,-0.0332291,-9.68325,-0.460816,-0.524515,-38.8597
2023-03-11 22:44:56:122,0.00938629,0.00414579,-9.7201,-0.469683,-0.517161,-38.8285
2023-03-11 22:44:56:132,-0.0192942,0.0583565,-9.76853,-0.484439,-0.508604,-38.7988
2023-03-11 22:44:56:143,-0.031508,0.0808605,-9.78076,-0.496516,-0.500826,-38.7729
2023-03-11 22:44:56:152,-0.0453199,0.0757913,-9.78246,-0.510555,-0.494125,-38.7506
2023-03-11 22:44:56:163,-0.0329444,0.0804688,-9.77969,-0.524896,-0.492794,-38.7313
2023-03-11 22:44:56:172,-0.00789363,0.0838296,-9.77177,-0.537861,-0.493208,-38.7109
2023-03-11 22:44:56:183,0.0134537,0.0767719,-9.78357,-0.555858,-0.494643,-38.6899
2023-03-11 22:44:56:193,-0.00199305,0.0577233,-9.7894,-0.576384,-0.503529,-38.6654
2023-03-11 22:44:56:203,-0.0212781,0.0730435,-9.81837,-0.595886,-0.519828,-38.641
2023-03-11 22:44:56:213,-0.0121473,0.107836,-9.87067,-0.61774,-0.545214,-38.6171
2023-03-11 22:44:56:223,-0.0517441,0.129475,-9.9214,-0.644044,-0.575442,-38.5912
2023-03-11 22:44:56:233,-0.161341,0.163719,-9.9443,-0.665508,-0.609885,-38.5666
2023-03-11 22:44:56:243,-0.289576,0.188632,-9.9603,-0.679211,-0.647629,-38.5485
2023-03-11 22:44:56:253,-0.348267,0.234438,-9.97436,-0.690479,-0.680602,-38.5346
2023-03-11 22:44:56:262,-0.326062,0.230605,-9.94284,-0.693388,-0.702561,-38.5302
2023-03-11 22:44:56:272,-0.304794,0.19705,-9.83569,-0.681204,-0.716396,-38.5281
2023-03-11 22:44:56:282,-0.284319,0.151261,-9.70322,-0.66623,-0.727628,-38.5277
2023-03-11 22:44:56:292,-0.253574,0.12069,-9.60561,-0.652855,-0.733492,-38.5314
2023-03-11 22:44:56:303,-0.195642,0.102528,-9.55207,-0.647701,-0.7326,-38.5334
2023-03-11 22:44:56:312,-0.138601,0.0679715,-9.53504,-0.643686,-0.728377,-38.5371
2023-03-11 22:44:56:322,-0.111452,0.0778702,-9.54252,-0.649132,-0.72148,-38.5349
2023-03-11 22:44:56:332,-0.063188,0.0938544,-9.60364,-0.66307,-0.713514,-38.5301
2023-03-11 22:44:56:342,-0.0143221,0.114299,-9.65725,-0.679574,-0.703335,-38.5182
2023-03-11 22:44:56:352,0.000631038,0.119048,-9.68656,-0.703861,-0.698853,-38.5031
2023-03-11 22:44:56:362,0.000374041,0.128137,-9.71388,-0.73524,-0.697811,-38.4764
2023-03-11 22:44:56:372,-0.0458237,0.168235,-9.78282,-0.774807,-0.703341,-38.4469
2023-03-11 22:44:56:382,-0.0858029,0.243917,-9.86223,-0.818104,-0.712268,-38.4164
2023-03-11 22:44:56:392,-0.117005,0.291711,-9.93161,-0.854494,-0.71438,-38.3818
2023-03-11 22:44:56:402,-0.127856,0.323811,-9.94716,-0.887063,-0.718965,-38.3451
2023-03-11 22:44:56:412,-0.167427,0.300089,-9.92301,-0.910131,-0.725576,-38.3041
2023-03-11 22:44:56:422,-0.2206,0.289186,-9.87931,-0.929062,-0.729653,-38.262
2023-03-11 22:44:56:432,-0.209305,0.283987,-9.85749,-0.948256,-0.731528,-38.2226
2023-03-11 22:44:56:442,-0.135971,0.268181,-9.8839,-0.960606,-0.722534,-38.1787
2023-03-11 22:44:56:452,-0.146467,0.269672,-9.88729,-0.969636,-0.713771,-38.1233
2023-03-11 22:44:56:462,-0.190319,0.262873,-9.85166,-0.96988,-0.706743,-38.0665
2023-03-11 22:44:56:472,-0.184999,0.223293,-9.81792,-0.96576,-0.693765,-38.0135
2023-03-11 22:44:56:482,-0.218476,0.1911,-9.75013,-0.958276,-0.681772,-37.9595
2023-03-11 22:44:56:492,-0.230604,0.181692,-9.70143,-0.959514,-0.667443,-37.9066
2023-03-11 22:44:56:502,-0.226954,0.175584,-9.73455,-0.963473,-0.647989,-37.8553
2023-03-11 22:44:56:512,-0.226588,0.203039,-9.77048,-0.967479,-0.626493,-37.8077
2023-03-11 22:44:56:522,-0.214482,0.211619,-9.80246,-0.973436,-0.605508,-37.7684
2023-03-11 22:44:56:532,-0.220916,0.216831,-9.78595,-0.979526,-0.57927,-37.7296
2023-03-11 22:44:56:542,-0.203695,0.21886,-9.79428,-0.983015,-0.548775,-37.6954
2023-03-11 22:44:56:552,-0.152237,0.195468,-9.80549,-0.978247,-0.516019,-37.6647
2023-03-11 22:44:56:562,-0.0917594,0.171718,-9.76039,-0.972308,-0.482489,-37.635
2023-03-11 22:44:56:572,-0.0282775,0.127514,-9.6951,-0.96638,-0.450133,-37.6031
2023-03-11 22:44:56:582,0.0206734,0.0907344,-9.65404,-0.962854,-0.420457,-37.5678
2023-03-11 22:44:56:592,0.0562516,0.0690947,-9.62435,-0.960539,-0.390401,-37.5284
2023-03-11 22:44:56:602,0.104686,0.0578439,-9.6205,-0.968221,-0.362519,-37.4817
2023-03-11 22:44:56:612,0.127128,0.0430929,-9.61101,-0.980592,-0.339217,-37.4286
2023-03-11 22:44:56:622,0.112001,0.0512087,-9.64911,-1.00114,-0.317852,-37.3716
2023-03-11 22:44:56:632,0.108977,0.101853,-9.75548,-1.03276,-0.294873,-37.3083
2023-03-11 22:44:56:642,0.112961,0.171955,-9.87623,-1.06957,-0.27466,-37.2434
2023-03-11 22:44:56:652,0.0925176,0.216013,-9.96161,-1.10327,-0.25812,-37.1765
2023-03-11 22:44:56:662,0.0665383,0.254805,-9.97225,-1.13206,-0.240968,-37.1077
2023-03-11 22:44:56:672,0.0449796,0.231338,-9.90536,-1.1487,-0.226219,-37.0372
2023-03-11 22:44:56:682,0.03709,0.19402,-9.81769,-1.15821,-0.214254,-36.9646
2023-03-11 22:44:56:692,0.0139843,0.190784,-9.75753,-1.16738,-0.202897,-36.8905
2023-03-11 22:44:56:702,-0.0064608,0.192706,-9.73631,-1.18085,-0.194477,-36.8164
2023-03-11 22:44:56:712,-0.0366237,0.210847,-9.72132,-1.20151,-0.19204,-36.748
2023-03-11 22:44:56:722,-0.0694845,0.231747,-9.75379,-1.2246,-0.193708,-36.6828
2023-03-11 22:44:56:732,-0.108696,0.272323,-9.79173,-1.25168,-0.195745,-36.6206
2023-03-11 22:44:56:742,-0.143193,0.294724,-9.82564,-1.275,-0.201322,-36.5678
2023-03-11 22:44:56:752,-0.157957,0.311689,-9.85049,-1.29751,-0.210628,-36.5205
2023-03-11 22:44:56:762,-0.173659,0.345774,-9.84717,-1.31438,-0.218475,-36.4819
2023-03-11 22:44:56:772,-0.196907,0.316654,-9.81749,-1.32562,-0.223666,-36.4552
2023-03-11 22:44:56:782,-0.188163,0.27987,-9.77463,-1.3367,-0.232521,-36.4344
2023-03-11 22:44:56:792,-0.147735,0.27052,-9.74205,-1.34889,-0.238527,-36.4168
2023-03-11 22:44:56:803,-0.110606,0.260019,-9.74392,-1.36273,-0.248256,-36.4073
2023-03-11 22:44:56:813,-0.0962078,0.26972,-9.72457,-1.37925,-0.259159,-36.3994
2023-03-11 22:44:56:823,-0.100708,0.280041,-9.73699,-1.40053,-0.270424,-36.3954
2023-03-11 22:44:56:833,-0.0980229,0.292876,-9.78788,-1.42034,-0.283861,-36.3937
2023-03-11 22:44:56:843,-0.0784718,0.31273,-9.79232,-1.4397,-0.294932,-36.3942
2023-03-11 22:44:56:853,-0.0805589,0.332027,-9.77519,-1.4556,-0.305957,-36.3961
2023-03-11 22:44:56:863,-0.0771008,0.31074,-9.74972,-1.4713,-0.31572,-36.4008
2023-03-11 22:44:56:873,-0.0475791,0.295767,-9.73892,-1.48543,-0.321481,-36.4014
2023-03-11 22:44:56:882,-0.0613807,0.29086,-9.73972,-1.50356,-0.327704,-36.4021
2023-03-11 22:44:56:893,-0.0821691,0.295651,-9.75195,-1.5255,-0.336939,-36.4025
2023-03-11 22:44:56:903,-0.0959701,0.313428,-9.76423,-1.5465,-0.347425,-36.4042
2023-03-11 22:44:56:913,-0.111239,0.322689,-9.79885,-1.56403,-0.351702,-36.4046
2023-03-11 22:44:56:923,-0.102373,0.308832,-9.81867,-1.58339,-0.357779,-36.4103
2023-03-11 22:44:56:933,-0.0642537,0.330785,-9.82251,-1.60037,-0.360852,-36.4163
2023-03-11 22:44:56:943,0.00369226,0.347574,-9.83239,-1.61795,-0.36349,-36.4196
2023-03-11 22:44:56:953,0.0194262,0.342411,-9.79642,-1.63339,-0.371885,-36.4221
2023-03-11 22:44:56:963,-0.0311132,0.329143,-9.75736,-1.64814,-0.381128,-36.4183
2023-03-11 22:44:56:973,-0.0968691,0.355201,-9.74203,-1.67227,-0.389909,-36.4146
2023-03-11 22:44:56:983,-0.126443,0.395468,-9.76936,-1.69739,-0.398066,-36.4107
2023-03-11 22:44:56:993,-0.164266,0.439202,-9.81317,-1.72327,-0.404407,-36.4072
2023-03-11 22:44:57:3,-0.22202,0.484089,-9.8416,-1.74769,-0.404562,-36.4059
2023-03-11 22:44:57:13,-0.267307,0.528096,-9.88128,-1.76457,-0.396132,-36.412
2023-03-11 22:44:57:23,-0.22091,0.528356,-9.87104,-1.7693,-0.380408,-36.4278
2023-03-11 22:44:57:33,-0.0743178,0.478408,-9.80724,-1.76704,-0.353779,-36.4442
2023-03-11 22:44:57:43,0.0488285,0.415032,-9.70619,-1.75639,-0.327638,-36.4559
2023-03-11 22:44:57:53,0.101567,0.356422,-9.62725,-1.74401,-0.301885,-36.4588
2023-03-11 22:44:57:63,0.169518,0.303863,-9.58557,-1.74037,-0.281643,-36.4527
2023-03-11 22:44:57:72,0.24772,0.268193,-9.58977,-1.74873,-0.265623,-36.4364
2023-03-11 22:44:57:82,0.222632,0.300573,-9.67132,-1.77429,-0.259448,-36.4045
2023-03-11 22:44:57:92,0.114193,0.38546,-9.82221,-1.80913,-0.263903,-36.3648
2023-03-11 22:44:57:102,-0.0570449,0.478235,-9.99675,-1.84931,-0.271523,-36.3166
2023-03-11 22:44:57:112,-0.25187,0.587523,-10.1279,-1.88317,-0.283537,-36.2729
2023-03-11 22:44:57:122,-0.396032,0.653463,-10.1976,-1.89643,-0.289894,-36.2421
2023-03-11 22:44:57:132,-0.469366,0.639356,-10.131,-1.88877,-0.294451,-36.2327
2023-03-11 22:44:57:142,-0.432691,0.565857,-9.99644,-1.8559,-0.287744,-36.2355
2023-03-11 22:44:57:152,-0.315012,0.471378,-9.81086,-1.81169,-0.27178,-36.2469
2023-03-11 22:44:57:162,-0.168592,0.327742,-9.59815,-1.75841,-0.250416,-36.2632
2023-03-11 22:44:57:172,-0.054925,0.221471,-9.46587,-1.71704,-0.231224,-36.2738
2023-03-11 22:44:57:183,-0.0515656,0.201525,-9.47457,-1.69242,-0.22087,-36.2804
2023-03-11 22:44:57:193,-0.1055,0.277404,-9.57015,-1.68633,-0.206827,-36.2874
2023-03-11 22:44:57:203,-0.130011,0.342704,-9.69788,-1.68366,-0.197509,-36.3046
2023-03-11 22:44:57:213,-0.0924583,0.379818,-9.77767,-1.67981,-0.174417,-36.328
2023-03-11 22:44:57:223,-0.011055,0.361712,-9.80201,-1.6703,-0.144773,-36.3511
2023-03-11 22:44:57:233,0.103687,0.313425,-9.76937,-1.65668,-0.113357,-36.3736
2023-03-11 22:44:57:243,0.212245,0.268544,-9.73334,-1.64345,-0.0819599,-36.3871
2023-03-11 22:44:57:253,0.290359,0.246664,-9.71587,-1.63457,-0.057733,-36.3926
2023-03-11 22:44:57:263,0.332482,0.246906,-9.71858,-1.63329,-0.0457309,-36.3897
2023-03-11 22:44:57:273,0.336813,0.265108,-9.75962,-1.64064,-0.0423783,-36.3791
2023-03-11 22:44:57:283,0.312744,0.282376,-9.8467,-1.64666,-0.0516615,-36.3587
2023-03-11 22:44:57:293,0.267045,0.311753,-9.92298,-1.65842,-0.0725384,-36.333
2023-03-11 22:44:57:303,0.186184,0.342237,-9.96716,-1.66953,-0.106476,-36.3017
2023-03-11 22:44:57:313,0.0794049,0.349856,-10.012,-1.67558,-0.146903,-36.264
2023-03-11 22:44:57:323,-0.0625732,0.370813,-10.031,-1.67684,-0.195918,-36.226
2023-03-11 22:44:57:333,-0.175743,0.37681,-10.0265,-1.66709,-0.239672,-36.1931
2023-03-11 22:44:57:343,-0.26646,0.378318,-9.98194,-1.64476,-0.279933,-36.1631
2023-03-11 22:44:57:353,-0.280582,0.328302,-9.8874,-1.60797,-0.310263,-36.1437
2023-03-11 22:44:57:363,-0.228533,0.256514,-9.74995,-1.5642,-0.338435,-36.1289
2023-03-11 22:44:57:373,-0.179908,0.170492,-9.61839,-1.51598,-0.360003,-36.1143
2023-03-11 22:44:57:382,-0.175918,0.103137,-9.51592,-1.47375,-0.382221,-36.1011
2023-03-11 22:44:57:392,-0.2295,0.110837,-9.51215,-1.45183,-0.402897,-36.0886
2023-03-11 22:44:57:402,-0.310443,0.154229,-9.57824,-1.44281,-0.421635,-36.0873
2023-03-11 22:44:57:413,-0.382806,0.211456,-9.64764,-1.43421,-0.43033,-36.0949
2023-03-11 22:44:57:422,-0.397938,0.234741,-9.68387,-1.42381,-0.425918,-36.1146
2023-03-11 22:44:57:433,-0.302932,0.183969,-9.69192,-1.40574,-0.402045,-36.1519
2023-03-11 22:44:57:443,-0.144727,0.118147,-9.69146,-1.38496,-0.372418,-36.1934
2023-03-11 22:44:57:453,-0.0184523,0.0758733,-9.66066,-1.36695,-0.342146,-36.2374
2023-03-11 22:44:57:463,0.0244525,0.0190182,-9.56149,-1.3568,-0.322936,-36.2782
2023-03-11 22:44:57:473,-0.0222087,0.0124829,-9.48136,-1.35858,-0.317363,-36.3165
2023-03-11 22:44:57:483,-0.0897818,0.0822162,-9.48969,-1.37809,-0.313203,-36.3596
2023-03-11 22:44:57:493,-0.1143,0.122768,-9.54182,-1.41175,-0.306157,-36.4089
2023-03-11 22:44:57:503,-0.068936,0.148243,-9.63948,-1.45317,-0.301685,-36.4613
2023-03-11 22:44:57:513,-0.0876687,0.20029,-9.79261,-1.50204,-0.296087,-36.5074
2023-03-11 22:44:57:523,-0.170777,0.302766,-9.97144,-1.55924,-0.286309,-36.559
2023-03-11 22:44:57:533,-0.184428,0.411461,-10.107,-1.60544,-0.273346,-36.6195
2023-03-11 22:44:57:542,-0.138061,0.476035,-10.1566,-1.63343,-0.24989,-36.6858
2023-03-11 22:44:57:553,-0.0635608,0.443411,-10.0821,-1.63705,-0.220251,-36.7554
2023-03-11 22:44:57:563,0.00667683,0.357479,-9.89896,-1.62223,-0.191822,-36.8277
2023-03-11 22:44:57:573,0.02894,0.253245,-9.70463,-1.60598,-0.16508,-36.8939
2023-03-11 22:44:57:583,0.0285555,0.183119,-9.62969,-1.60223,-0.149359,-36.9562
2023-03-11 22:44:57:593,0.0354715,0.270301,-9.67661,-1.61975,-0.139541,-37.0188
2023-03-11 22:44:57:603,0.00453161,0.385378,-9.79503,-1.64421,-0.137755,-37.0864
2023-03-11 22:44:57:613,-0.0322228,0.475107,-9.89378,-1.67167,-0.148455,-37.1551
2023-03-11 22:44:57:623,-0.0655442,0.526292,-9.89775,-1.69023,-0.162856,-37.2355
2023-03-11 22:44:57:633,-0.045017,0.489727,-9.82734,-1.69443,-0.178866,-37.3143
2023-03-11 22:44:57:643,-0.0266328,0.440043,-9.74288,-1.69485,-0.20061,-37.3924
2023-03-11 22:44:57:653,0.00324976,0.424891,-9.6618,-1.69412,-0.225569,-37.4728
2023-03-11 22:44:57:662,0.0444515,0.40093,-9.57989,-1.69357,-0.256954,-37.5525
2023-03-11 22:44:57:673,0.0772207,0.350501,-9.5304,-1.69301,-0.294219,-37.6244
2023-03-11 22:44:57:683,0.0781463,0.317884,-9.49746,-1.70483,-0.344234,-37.6857
2023-03-11 22:44:57:692,0.028356,0.342772,-9.52109,-1.73456,-0.405359,-37.7424
2023-03-11 22:44:57:703,-0.0486432,0.405689,-9.56045,-1.78355,-0.480176,-37.7957
2023-03-11 22:44:57:713,-0.15588,0.476181,-9.61357,-1.83946,-0.556515,-37.8447
2023-03-11 22:44:57:723,-0.275896,0.569079,-9.71317,-1.90415,-0.629572,-37.8898
2023-03-11 22:44:57:733,-0.343573,0.613885,-9.83402,-1.96788,-0.690465,-37.9399
2023-03-11 22:44:57:743,-0.378566,0.637381,-9.92434,-2.02749,-0.743519,-37.9901
2023-03-11 22:44:57:753,-0.369137,0.662456,-10.0207,-2.07875,-0.783564,-38.0395
2023-03-11 22:44:57:763,-0.368564,0.657838,-10.0892,-2.11909,-0.817496,-38.09
2023-03-11 22:44:57:773,-0.38953,0.644693,-10.087,-2.1429,-0.847184,-38.1428
2023-03-11 22:44:57:783,-0.399349,0.631816,-9.99989,-2.14605,-0.863997,-38.201
2023-03-11 22:44:57:793,-0.401356,0.550646,-9.84908,-2.14007,-0.869745,-38.2573
2023-03-11 22:44:57:803,-0.421929,0.469418,-9.68534,-2.13185,-0.867538,-38.3156
2023-03-11 22:44:57:813,-0.401431,0.435485,-9.60634,-2.12587,-0.850781,-38.374
2023-03-11 22:44:57:823,-0.3355,0.441044,-9.63716,-2.12892,-0.818993,-38.4327
2023-03-11 22:44:57:833,-0.311114,0.468722,-9.69793,-2.1387,-0.778474,-38.5006
2023-03-11 22:44:57:843,-0.315179,0.499147,-9.74439,-2.14563,-0.726462,-38.5753
2023-03-11 22:44:57:853,-0.249684,0.48863,-9.76084,-2.15231,-0.671594,-38.6605
2023-03-11 22:44:57:863,-0.125677,0.448514,-9.73028,-2.15268,-0.608821,-38.7549
2023-03-11 22:44:57:873,-0.00128446,0.399437,-9.68743,-2.14972,-0.552312,-38.8543
2023-03-11 22:44:57:883,0.079608,0.355254,-9.66159,-2.14999,-0.496207,-38.9622
2023-03-11 22:44:57:893,0.154734,0.3292,-9.67158,-2.15361,-0.448756,-39.0714
2023-03-11 22:44:57:903,0.22506,0.301427,-9.70133,-2.16267,-0.407829,-39.178
2023-03-11 22:44:57:912,0.291121,0.287349,-9.74196,-2.17411,-0.370141,-39.2814
2023-03-11 22:44:57:923,0.358386,0.309577,-9.77386,-2.18896,-0.344808,-39.3779
2023-03-11 22:44:57:933,0.359939,0.312985,-9.78997,-2.20484,-0.328875,-39.4707
2023-03-11 22:44:57:943,0.299109,0.310993,-9.80596,-2.22244,-0.324262,-39.5565
2023-03-11 22:44:57:953,0.329688,0.343109,-9.83135,-2.24424,-0.320699,-39.6408
2023-03-11 22:44:57:963,0.455494,0.34672,-9.86969,-2.26336,-0.326864,-39.7107
2023-03-11 22:44:57:972,0.586119,0.330726,-9.89224,-2.28187,-0.342803,-39.7678
2023-03-11 22:44:57:983,0.614363,0.335262,-9.91958,-2.29983,-0.3753,-39.7983
2023-03-11 22:44:57:993,0.484453,0.368736,-9.93762,-2.3212,-0.426968,-39.8122
2023-03-11 22:44:58:2,0.290728,0.410299,-9.92161,-2.34108,-0.488006,-39.8188
2023-03-11 22:44:58:12,0.120856,0.439906,-9.9199,-2.35523,-0.550276,-39.818
2023-03-11 22:44:58:23,0.04599,0.451563,-9.94142,-2.35773,-0.60716,-39.8155
2023-03-11 22:44:58:33,0.0432934,0.43958,-9.94661,-2.35825,-0.65181,-39.8031
2023-03-11 22:44:58:43,0.043093,0.423252,-9.93321,-2.34951,-0.693725,-39.7821
2023-03-11 22:44:58:53,-0.00548318,0.381539,-9.8916,-2.32996,-0.733809,-39.7536
2023-03-11 22:44:58:63,-0.0662608,0.347292,-9.80712,-2.30794,-0.774711,-39.7141
2023-03-11 22:44:58:73,-0.148501,0.308216,-9.69367,-2.28859,-0.817164,-39.6677
2023-03-11 22:44:58:83,-0.285408,0.308541,-9.67423,-2.27586,-0.852222,-39.6199
2023-03-11 22:44:58:93,-0.380184,0.353049,-9.7288,-2.26741,-0.879699,-39.5731
2023-03-11 22:44:58:103,-0.418641,0.383854,-9.69407,-2.26053,-0.906047,-39.5373
2023-03-11 22:44:58:113,-0.445544,0.417045,-9.68178,-2.25424,-0.916272,-39.5106
2023-03-11 22:44:58:123,-0.401796,0.41352,-9.65301,-2.24457,-0.920471,-39.4901
2023-03-11 22:44:58:133,-0.317219,0.358381,-9.59355,-2.23366,-0.912251,-39.4693
2023-03-11 22:44:58:143,-0.256667,0.303483,-9.54287,-2.22431,-0.901213,-39.4543
2023-03-11 22:44:58:153,-0.19773,0.313805,-9.56966,-2.22371,-0.884585,-39.4374
2023-03-11 22:44:58:163,-0.15154,0.271104,-9.54705,-2.22965,-0.88377,-39.4253
2023-03-11 22:44:58:173,-0.166793,0.281791,-9.51277,-2.25073,-0.886347,-39.405
2023-03-11 22:44:58:183,-0.261203,0.392898,-9.57005,-2.28424,-0.892634,-39.3879
2023-03-11 22:44:58:193,-0.300201,0.421284,-9.58796,-2.32151,-0.892513,-39.3776
2023-03-11 22:44:58:202,-0.295988,0.44195,-9.63218,-2.36081,-0.884787,-39.3765
2023-03-11 22:44:58:213,-0.257802,0.426665,-9.70221,-2.40207,-0.874451,-39.3809
2023-03-11 22:44:58:223,-0.172619,0.432638,-9.8165,-2.44888,-0.86798,-39.3825
2023-03-11 22:44:58:233,-0.0781454,0.491111,-9.97911,-2.49692,-0.861223,-39.383
2023-03-11 22:44:58:243,0.0100777,0.519484,-10.0981,-2.53455,-0.853218,-39.3809
2023-03-11 22:44:58:253,0.0275492,0.515883,-10.0983,-2.56222,-0.853762,-39.3693
2023-03-11 22:44:58:263,-0.12462,0.532039,-10.0741,-2.57836,-0.852578,-39.35
2023-03-11 22:44:58:273,-0.259689,0.496097,-9.95578,-2.5867,-0.849086,-39.3391
2023-03-11 22:44:58:282,-0.297684,0.41446,-9.83283,-2.58977,-0.85081,-39.3284
2023-03-11 22:44:58:293,-0.367643,0.391375,-9.80724,-2.60375,-0.857833,-39.3257
2023-03-11 22:44:58:303,-0.394242,0.492894,-9.93699,-2.62103,-0.869626,-39.3284
2023-03-11 22:44:58:312,-0.484395,0.658561,-10.1347,-2.63254,-0.872422,-39.3457
2023-03-11 22:44:58:322,-0.400863,0.613702,-10.155,-2.61602,-0.874395,-39.3789
2023-03-11 22:44:58:332,-0.235998,0.506116,-10.0402,-2.58036,-0.871156,-39.4089
2023-03-11 22:44:58:342,-0.187268,0.382296,-9.87261,-2.53707,-0.879099,-39.432
2023-03-11 22:44:58:352,-0.194954,0.255041,-9.65757,-2.49717,-0.90392,-39.4557
2023-03-11 22:44:58:363,-0.191546,0.282339,-9.6631,-2.47023,-0.921576,-39.4691
2023-03-11 22:44:58:372,-0.246498,0.384288,-9.78793,-2.44291,-0.918177,-39.4813
2023-03-11 22:44:58:382,-0.208299,0.321595,-9.84117,-2.41285,-0.907488,-39.4981
2023-03-11 22:44:58:392,-0.0726758,0.264241,-9.84262,-2.38,-0.886299,-39.508
2023-03-11 22:44:58:403,0.0749208,0.288652,-9.91854,-2.34766,-0.870869,-39.5052
2023-03-11 22:44:58:413,0.125712,0.328965,-9.93372,-2.3206,-0.866559,-39.498
2023-03-11 22:44:58:422,0.0245916,0.413215,-9.88715,-2.29581,-0.877378,-39.4879
2023-03-11 22:44:58:433,-0.115161,0.459206,-9.7999,-2.27218,-0.897296,-39.4804
2023-03-11 22:44:58:443,-0.248497,0.534926,-9.75629,-2.24161,-0.920022,-39.4791
2023-03-11 22:44:58:452,-0.29879,0.556044,-9.68705,-2.21034,-0.941413,-39.4856
2023-03-11 22:44:58:462,-0.376139,0.537217,-9.53585,-2.18359,-0.966538,-39.4998
2023-03-11 22:44:58:473,-0.441994,0.534802,-9.49206,-2.16266,-0.987491,-39.5215
2023-03-11 22:44:58:483,-0.420953,0.588644,-9.55999,-2.14989,-1.0018,-39.5503
2023-03-11 22:44:58:493,-0.379999,0.624204,-9.65927,-2.13302,-1.00378,-39.5847
2023-03-11 22:44:58:503,-0.330773,0.581235,-9.67264,-2.10939,-0.993049,-39.6213
2023-03-11 22:44:58:513,-0.277977,0.530548,-9.68917,-2.08331,-0.973505,-39.6556
2023-03-11 22:44:58:523,-0.184775,0.470218,-9.70972,-2.05517,-0.939001,-39.685
2023-03-11 22:44:58:533,-0.093973,0.432243,-9.76355,-2.03092,-0.899908,-39.7085
2023-03-11 22:44:58:543,-0.0314546,0.425253,-9.82049,-2.00291,-0.861014,-39.7246
2023-03-11 22:44:58:553,-0.0770133,0.433407,-9.85195,-1.9731,-0.827777,-39.7308
2023-03-11 22:44:58:563,-0.172613,0.432516,-9.83771,-1.93909,-0.788733,-39.736
2023-03-11 22:44:58:573,-0.204785,0.388565,-9.75487,-1.906,-0.748523,-39.7475
2023-03-11 22:44:58:583,-0.182537,0.354609,-9.6995,-1.86976,-0.69824,-39.7664
2023-03-11 22:44:58:593,-0.157233,0.333801,-9.65584,-1.839,-0.649072,-39.7856
2023-03-11 22:44:58:603,-0.155188,0.320215,-9.61846,-1.81083,-0.591924,-39.8089
2023-03-11 22:44:58:613,-0.112286,0.308169,-9.60302,-1.78978,-0.537727,-39.8392
2023-03-11 22:44:58:623,0.0129416,0.289432,-9.61787,-1.77375,-0.483409,-39.8739
2023-03-11 22:44:58:633,0.141017,0.267967,-9.67469,-1.76352,-0.430893,-39.9057
2023-03-11 22:44:58:643,0.19504,0.268263,-9.73295,-1.76205,-0.393072,-39.9311
2023-03-11 22:44:58:653,0.166305,0.273456,-9.76433,-1.76204,-0.370459,-39.9542
2023-03-11 22:44:58:663,0.126366,0.271278,-9.79458,-1.75974,-0.358608,-39.9774
2023-03-11 22:44:58:673,0.113906,0.266917,-9.80854,-1.75972,-0.353719,-39.9963
2023-03-11 22:44:58:683,0.0912928,0.260444,-9.80487,-1.76291,-0.354513,-40.0184
2023-03-11 22:44:58:693,0.0457134,0.259389,-9.81356,-1.76664,-0.358542,-40.0357
2023-03-11 22:44:58:703,0.0300426,0.279221,-9.86122,-1.76917,-0.353863,-40.0535
2023-03-11 22:44:58:713,0.0645044,0.283461,-9.88464,-1.77017,-0.353689,-40.0746
2023-03-11 22:44:58:723,0.0950426,0.262977,-9.85045,-1.76729,-0.358165,-40.0876
2023-03-11 22:44:58:733,0.0289955,0.240678,-9.80607,-1.76311,-0.369218,-40.0947
2023-03-11 22:44:58:743,-0.0311495,0.247295,-9.77666,-1.76146,-0.382915,-40.1039
2023-03-11 22:44:58:753,-0.0496526,0.24285,-9.7698,-1.76126,-0.394374,-40.1128
2023-03-11 22:44:58:763,-0.0626191,0.227903,-9.76293,-1.75985,-0.405446,-40.1243
2023-03-11 22:44:58:773,-0.0598332,0.234159,-9.78385,-1.7585,-0.416772,-40.1349
2023-03-11 22:44:58:783,-0.0368194,0.215527,-9.82051,-1.75889,-0.429032,-40.1409
2023-03-11 22:44:58:793,-0.0411078,0.214677,-9.85723,-1.7585,-0.43976,-40.1403
2023-03-11 22:44:58:803,-0.0911837,0.215402,-9.87481,-1.75486,-0.453812,-40.1402
2023-03-11 22:44:58:813,-0.127815,0.210104,-9.87375,-1.74921,-0.467245,-40.14
2023-03-11 22:44:58:823,-0.143887,0.206814,-9.85247,-1.73918,-0.477491,-40.1397
2023-03-11 22:44:58:832,-0.125403,0.189168,-9.8029,-1.72675,-0.48558,-40.1386
2023-03-11 22:44:58:843,-0.127956,0.136229,-9.69224,-1.71588,-0.491168,-40.1374
2023-03-11 22:44:58:853,-0.14692,0.109817,-9.60305,-1.71293,-0.497892,-40.1328
2023-03-11 22:44:58:863,-0.180835,0.157279,-9.56965,-1.72116,-0.505724,-40.1311
2023-03-11 22:44:58:873,-0.20001,0.19984,-9.55985,-1.74013,-0.504994,-40.1284
2023-03-11 22:44:58:882,-0.21275,0.238912,-9.57509,-1.76838,-0.503555,-40.1304
2023-03-11 22:44:58:892,-0.187888,0.274179,-9.60945,-1.80238,-0.494719,-40.1377
2023-03-11 22:44:58:903,-0.113764,0.313208,-9.64613,-1.84238,-0.483692,-40.1433
2023-03-11 22:44:58:913,-0.0806017,0.357309,-9.68241,-1.88211,-0.463742,-40.1454
2023-03-11 22:44:58:923,-0.055366,0.359722,-9.69377,-1.92062,-0.446688,-40.1496
2023-03-11 22:44:58:933,0.00738523,0.364372,-9.68657,-1.96112,-0.425858,-40.1502
2023-03-11 22:44:58:942,0.0612673,0.376988,-9.67649,-2.00576,-0.398497,-40.141
2023-03-11 22:44:58:953,0.0980575,0.393807,-9.70137,-2.04946,-0.374652,-40.1227
2023-03-11 22:44:58:962,0.0880194,0.439712,-9.70418,-2.09675,-0.353469,-40.0937
2023-03-11 22:44:58:973,0.0628085,0.462718,-9.74428,-2.1491,-0.329186,-40.059
2023-03-11 22:44:58:983,0.0171641,0.501134,-9.76104,-2.19882,-0.305148,-40.0218
2023-03-11 22:44:58:993,-0.00279102,0.556894,-9.85793,-2.24227,-0.265645,-39.9784
2023-03-11 22:44:59:3,0.0148861,0.450851,-9.75265,-2.28415,-0.245875,-39.9381
2023-03-11 22:44:59:13,-0.102246,0.495122,-9.78565,-2.33121,-0.22602,-39.895
2023-03-11 22:44:59:23,-0.193335,0.581136,-9.90484,-2.38512,-0.208865,-39.8615
2023-03-11 22:44:59:33,-0.236879,0.68516,-10.0839,-2.42534,-0.182965,-39.8374
2023-03-11 22:44:59:43,-0.170219,0.628552,-10.0359,-2.45058,-0.16204,-39.8308
2023-03-11 22:44:59:53,-0.099658,0.574029,-9.97995,-2.46236,-0.139563,-39.8257
2023-03-11 22:44:59:63,0.0076311,0.547129,-9.99117,-2.46381,-0.111236,-39.8216
2023-03-11 22:44:59:73,0.110266,0.490417,-9.92857,-2.45339,-0.0877332,-39.8135
2023-03-11 22:44:59:83,0.111252,0.429829,-9.8231,-2.44042,-0.0696549,-39.7971
2023-03-11 22:44:59:93,0.0578298,0.370323,-9.64647,-2.43137,-0.0531508,-39.7773
2023-03-11 22:44:59:103,0.0320279,0.373679,-9.53195,-2.43119,-0.0365327,-39.7534
2023-03-11 22:44:59:113,0.0369043,0.419801,-9.52947,-2.44919,-0.0176483,-39.7311
2023-03-11 22:44:59:123,0.0612026,0.50392,-9.62104,-2.47991,0.00327267,-39.7132
2023-03-11 22:44:59:133,0.0716441,0.587608,-9.70556,-2.51399,0.0253319,-39.6966
2023-03-11 22:44:59:143,0.0642896,0.685547,-9.80263,-2.54926,0.0411653,-39.6874
2023-03-11 22:44:59:153,0.0663919,0.746499,-9.90238,-2.57969,0.0526001,-39.6866
2023-03-11 22:44:59:163,0.0657147,0.770235,-9.97455,-2.59834,0.0695948,-39.6904
2023-03-11 22:44:59:173,0.0882859,0.763754,-9.99504,-2.59848,0.0836097,-39.6986
2023-03-11 22:44:59:183,0.109445,0.683767,-9.93067,-2.58714,0.095128,-39.7158
2023-03-11 22:44:59:193,0.104802,0.619116,-9.87275,-2.56573,0.10354,-39.7378
2023-03-11 22:44:59:203,0.13697,0.571131,-9.87041,-2.53159,0.10998,-39.7575
2023-03-11 22:44:59:213,0.14129,0.496699,-9.77189,-2.49601,0.103178,-39.7742
2023-03-11 22:44:59:223,0.100571,0.481076,-9.77788,-2.46334,0.100092,-39.7957
2023-03-11 22:44:59:233,0.15232,0.391061,-9.69625,-2.43337,0.0899848,-39.8174
2023-03-11 22:44:59:243,0.12216,0.401857,-9.69801,-2.41212,0.0853439,-39.8348
2023-03-11 22:44:59:253,0.129648,0.410004,-9.72257,-2.39078,0.0802745,-39.8517
2023-03-11 22:44:59:263,0.199687,0.386711,-9.72212,-2.38048,0.077783,-39.8649
2023-03-11 22:44:59:273,0.266273,0.358827,-9.7247,-2.37542,0.0692317,-39.8765
2023-03-11 22:44:59:283,0.30203,0.365,-9.75692,-2.37695,0.0558865,-39.878
2023-03-11 22:44:59:293,0.284661,0.424829,-9.81515,-2.38008,0.0418444,-39.8688
2023-03-11 22:44:59:303,0.254779,0.455813,-9.84988,-2.38357,0.0259087,-39.853
2023-03-11 22:44:59:313,0.230778,0.451416,-9.84726,-2.38528,0.00669788,-39.8233
2023-03-11 22:44:59:323,0.220538,0.467681,-9.85843,-2.38389,-0.0140047,-39.7869
2023-03-11 22:44:59:333,0.202167,0.448216,-9.84508,-2.37279,-0.0371535,-39.7421
2023-03-11 22:44:59:343,0.135591,0.429497,-9.81516,-2.36168,-0.0696321,-39.6882
2023-03-11 22:44:59:353,0.0123293,0.444819,-9.78643,-2.34636,-0.101095,-39.6301
2023-03-11 22:44:59:363,-0.107196,0.442908,-9.75702,-2.33432,-0.140025,-39.5721
2023-03-11 22:44:59:373,-0.184218,0.42517,-9.70297,-2.31793,-0.176071,-39.5248
2023-03-11 22:44:59:383,-0.217347,0.412522,-9.64689,-2.30441,-0.212841,-39.4806
2023-03-11 22:44:59:393,-0.243134,0.399951,-9.65386,-2.29489,-0.249636,-39.4424
2023-03-11 22:44:59:403,-0.254555,0.410919,-9.66606,-2.29049,-0.2895,-39.4104
2023-03-11 22:44:59:413,-0.271882,0.43547,-9.68304,-2.29016,-0.327276,-39.3867
2023-03-11 22:44:59:423,-0.266243,0.454584,-9.72028,-2.29928,-0.369274,-39.3702
2023-03-11 22:44:59:433,-0.269364,0.462332,-9.74471,-2.304,-0.40639,-39.3604
2023-03-11 22:44:59:443,-0.274352,0.46273,-9.75497,-2.31231,-0.440292,-39.3569
2023-03-11 22:44:59:453,-0.256834,0.470625,-9.76161,-2.32003,-0.474391,-39.3603
2023-03-11 22:44:59:463,-0.238467,0.482431,-9.78003,-2.33206,-0.508366,-39.3654
2023-03-11 22:44:59:473,-0.230851,0.514582,-9.81176,-2.34009,-0.539341,-39.374
2023-03-11 22:44:59:482,-0.209496,0.511959,-9.84118,-2.34462,-0.571584,-39.3824
2023-03-11 22:44:59:493,-0.184364,0.511855,-9.83545,-2.34508,-0.596472,-39.395
2023-03-11 22:44:59:503,-0.144194,0.50344,-9.83737,-2.34608,-0.621994,-39.4059
2023-03-11 22:44:59:513,-0.139389,0.497362,-9.83511,-2.33911,-0.642498,-39.4154
2023-03-11 22:44:59:523,-0.145276,0.479281,-9.83066,-2.33402,-0.665852,-39.4218
2023-03-11 22:44:59:533,-0.157731,0.477039,-9.80884,-2.32773,-0.688869,-39.4264
2023-03-11 22:44:59:543,-0.176035,0.479165,-9.79171,-2.3209,-0.714488,-39.4277
2023-03-11 22:44:59:553,-0.157419,0.475499,-9.78936,-2.30984,-0.735696,-39.4287
2023-03-11 22:44:59:563,-0.142545,0.471146,-9.7942,-2.30098,-0.75345,-39.4278
2023-03-11 22:44:59:573,-0.144561,0.45558,-9.78542,-2.28705,-0.773789,-39.4247
2023-03-11 22:44:59:583,-0.166883,0.432285,-9.77882,-2.27217,-0.79905,-39.4207
2023-03-11 22:44:59:593,-0.159522,0.416053,-9.76429,-2.25438,-0.824186,-39.418
2023-03-11 22:44:59:603,-0.174849,0.412528,-9.76249,-2.23866,-0.850099,-39.417
2023-03-11 22:44:59:613,-0.20113,0.399869,-9.74933,-2.22764,-0.87702,-39.4139
2023-03-11 22:44:59:623,-0.228217,0.388434,-9.73471,-2.22047,-0.906976,-39.4158
2023-03-11 22:44:59:633,-0.230439,0.390631,-9.75052,-2.21184,-0.935982,-39.4165
2023-03-11 22:44:59:643,-0.235606,0.395042,-9.7496,-2.20639,-0.962852,-39.413
2023-03-11 22:44:59:653,-0.234026,0.390096,-9.74651,-2.20096,-0.988044,-39.4085
2023-03-11 22:44:59:663,-0.240289,0.386074,-9.73782,-2.198,-1.01019,-39.4028
2023-03-11 22:44:59:673,-0.231406,0.39208,-9.7295,-2.19264,-1.03201,-39.3976
2023-03-11 22:44:59:683,-0.226807,0.385065,-9.73421,-2.188,-1.04664,-39.3912
2023-03-11 22:44:59:693,-0.216524,0.369408,-9.74877,-2.18523,-1.05813,-39.3807
2023-03-11 22:44:59:703,-0.223893,0.384019,-9.77604,-2.17677,-1.06845,-39.364
2023-03-11 22:44:59:713,-0.257173,0.38321,-9.79606,-2.17018,-1.07436,-39.3475
2023-03-11 22:44:59:723,-0.274421,0.373572,-9.78763,-2.16519,-1.08066,-39.3275
2023-03-11 22:44:59:733,-0.281282,0.361274,-9.77995,-2.15715,-1.0858,-39.3129
2023-03-11 22:44:59:743,-0.314846,0.35753,-9.786,-2.14771,-1.08942,-39.2999
2023-03-11 22:44:59:753,-0.336868,0.371167,-9.78412,-2.1388,-1.08985,-39.2931
2023-03-11 22:44:59:763,-0.327582,0.341693,-9.77036,-2.12942,-1.09006,-39.2886
2023-03-11 22:44:59:773,-0.316986,0.321829,-9.76891,-2.12404,-1.08564,-39.2826
2023-03-11 22:44:59:783,-0.309774,0.32841,-9.79904,-2.11954,-1.08279,-39.2835
2023-03-11 22:44:59:793,-0.30048,0.363773,-9.83949,-2.11713,-1.07721,-39.2879
2023-03-11 22:44:59:803,-0.249875,0.379687,-9.86802,-2.11464,-1.07133,-39.3019
2023-03-11 22:44:59:813,-0.20608,0.387102,-9.85569,-2.10606,-1.07032,-39.3136
2023-03-11 22:44:59:823,-0.193385,0.360565,-9.82558,-2.09674,-1.07368,-39.3238
2023-03-11 22:44:59:833,-0.202755,0.34788,-9.76463,-2.0892,-1.07443,-39.3379
2023-03-11 22:44:59:843,-0.217454,0.352102,-9.7258,-2.08118,-1.08018,-39.3493
2023-03-11 22:44:59:853,-0.182188,0.353552,-9.68624,-2.07547,-1.08507,-39.3637
2023-03-11 22:44:59:863,-0.148314,0.345109,-9.68046,-2.07374,-1.08175,-39.3704
2023-03-11 22:44:59:873,-0.131594,0.357931,-9.69264,-2.07493,-1.07931,-39.3735
2023-03-11 22:44:59:883,-0.128507,0.374253,-9.7179,-2.07376,-1.07817,-39.3747
2023-03-11 22:44:59:893,-0.135823,0.388116,-9.73859,-2.07569,-1.07448,-39.3744
2023-03-11 22:44:59:903,-0.16415,0.392281,-9.74863,-2.07822,-1.07566,-39.3688
2023-03-11 22:44:59:913,-0.187156,0.363791,-9.74069,-2.08077,-1.07195,-39.3616
2023-03-11 22:44:59:923,-0.182173,0.340729,-9.70663,-2.08088,-1.06905,-39.3537
2023-03-11 22:44:59:933,-0.166152,0.322436,-9.71985,-2.0821,-1.06165,-39.3458
2023-03-11 22:44:59:943,-0.159658,0.313213,-9.74048,-2.0842,-1.05984,-39.336
2023-03-11 22:44:59:953,-0.160148,0.333048,-9.73652,-2.0922,-1.05791,-39.3228
2023-03-11 22:44:59:963,-0.166575,0.336839,-9.75375,-2.10438,-1.05601,-39.3171
2023-03-11 22:44:59:972,-0.169421,0.332859,-9.75062,-2.11544,-1.05603,-39.3044
2023-03-11 22:44:59:983,-0.157448,0.32778,-9.73393,-2.12618,-1.05427,-39.2951
2023-03-11 22:44:59:993,-0.160034,0.330909,-9.7228,-2.14174,-1.05304,-39.2833
2023-03-11 22:45:00:3,-0.19809,0.358129,-9.76749,-2.16029,-1.04783,-39.2719
2023-03-11 22:45:00:13,-0.205695,0.397995,-9.80544,-2.1815,-1.04641,-39.2592
2023-03-11 22:45:00:23,-0.196833,0.432521,-9.83995,-2.20208,-1.0407,-39.2477
2023-03-11 22:45:00:33,-0.138464,0.442679,-9.86723,-2.21991,-1.03561,-39.2422
2023-03-11 22:45:00:43,-0.105737,0.448575,-9.87457,-2.23202,-1.0313,-39.2334
2023-03-11 22:45:00:53,-0.13723,0.450139,-9.86735,-2.24088,-1.02897,-39.224
2023-03-11 22:45:00:63,-0.204274,0.453282,-9.83973,-2.24851,-1.0282,-39.2147
2023-03-11 22:45:00:73,-0.231377,0.434019,-9.79009,-2.25495,-1.02596,-39.2081
2023-03-11 22:45:00:83,-0.239135,0.41899,-9.75292,-2.2609,-1.02534,-39.2069
2023-03-11 22:45:00:93,-0.233072,0.392886,-9.74904,-2.26899,-1.02339,-39.206
2023-03-11 22:45:00:103,-0.244804,0.412413,-9.75267,-2.27708,-1.02351,-39.2109
2023-03-11 22:45:00:113,-0.24096,0.433936,-9.75907,-2.28733,-1.02476,-39.2214
2023-03-11 22:45:00:123,-0.206151,0.454013,-9.76594,-2.29387,-1.02598,-39.2327
2023-03-11 22:45:00:133,-0.210214,0.465829,-9.78309,-2.30224,-1.02581,-39.2466
2023-03-11 22:45:00:143,-0.20779,0.477696,-9.78301,-2.31065,-1.0278,-39.2686
2023-03-11 22:45:00:153,-0.184383,0.475145,-9.75111,-2.31656,-1.02517,-39.2931
2023-03-11 22:45:00:163,-0.159698,0.452257,-9.71635,-2.31852,-1.02296,-39.3125
2023-03-11 22:45:00:173,-0.136726,0.437809,-9.66774,-2.32494,-1.02248,-39.3328
2023-03-11 22:45:00:183,-0.128023,0.435823,-9.66636,-2.3393,-1.02011,-39.3515
2023-03-11 22:45:00:193,-0.111082,0.443706,-9.67445,-2.35749,-1.01757,-39.3696
2023-03-11 22:45:00:203,-0.104017,0.459895,-9.70626,-2.37589,-1.01712,-39.3824
2023-03-11 22:45:00:213,-0.0905772,0.478919,-9.75558,-2.39959,-1.01371,-39.3962
2023-03-11 22:45:00:223,-0.0859679,0.501932,-9.7758,-2.42136,-1.01278,-39.405
2023-03-11 22:45:00:233,-0.09132,0.503252,-9.80277,-2.44511,-1.00812,-39.4107
2023-03-11 22:45:00:243,-0.114526,0.522799,-9.80311,-2.46595,-1.00849,-39.413
2023-03-11 22:45:00:253,-0.159517,0.541223,-9.79211,-2.48901,-1.00755,-39.4162
2023-03-11 22:45:00:263,-0.18523,0.550511,-9.79221,-2.50789,-1.00723,-39.4236
2023-03-11 22:45:00:273,-0.201624,0.54189,-9.78599,-2.5244,-1.00744,-39.4321
2023-03-11 22:45:00:283,-0.23148,0.554372,-9.77755,-2.54291,-1.00715,-39.443
2023-03-11 22:45:00:293,-0.267139,0.563101,-9.78622,-2.56174,-1.00813,-39.4579
2023-03-11 22:45:00:303,-0.27289,0.55273,-9.8004,-2.58234,-1.00602,-39.4773
2023-03-11 22:45:00:313,-0.269171,0.553962,-9.80758,-2.59554,-1.00532,-39.4992
2023-03-11 22:45:00:323,-0.27223,0.574118,-9.81301,-2.61196,-1.00248,-39.5279
2023-03-11 22:45:00:333,-0.267438,0.581433,-9.81139,-2.6222,-0.99575,-39.5607
2023-03-11 22:45:00:343,-0.239004,0.555516,-9.80531,-2.62958,-0.993472,-39.5992
2023-03-11 22:45:00:353,-0.207637,0.534082,-9.80025,-2.63448,-0.991501,-39.6358
2023-03-11 22:45:00:363,-0.146087,0.520021,-9.77672,-2.64064,-0.988684,-39.6755
2023-03-11 22:45:00:373,-0.115036,0.50785,-9.7864,-2.64709,-0.990295,-39.7145
2023-03-11 22:45:00:383,-0.102719,0.506091,-9.79707,-2.65125,-0.987477,-39.7491
2023-03-11 22:45:00:393,-0.101207,0.505352,-9.81006,-2.65901,-0.989242,-39.7819
2023-03-11 22:45:00:403,-0.098985,0.499263,-9.80908,-2.66149,-0.995189,-39.813
2023-03-11 22:45:00:413,-0.105211,0.482684,-9.82784,-2.66567,-1.00138,-39.8398
2023-03-11 22:45:00:423,-0.128652,0.483762,-9.84246,-2.66721,-1.00433,-39.8601
2023-03-11 22:45:00:433,-0.13299,0.481035,-9.82203,-2.66186,-1.00745,-39.8824
2023-03-11 22:45:00:443,-0.0985395,0.465019,-9.82117,-2.65764,-1.01049,-39.9002
2023-03-11 22:45:00:453,-0.0966922,0.450101,-9.80172,-2.6528,-1.01342,-39.9152
2023-03-11 22:45:00:463,-0.12058,0.440184,-9.76587,-2.64203,-1.01559,-39.9244
2023-03-11 22:45:00:473,-0.128931,0.430375,-9.728,-2.63123,-1.02002,-39.9312
2023-03-11 22:45:00:483,-0.140625,0.407105,-9.70894,-2.62614,-1.0282,-39.9312
2023-03-11 22:45:00:492,-0.170592,0.410029,-9.70206,-2.62035,-1.03179,-39.9319
2023-03-11 22:45:00:503,-0.199149,0.418164,-9.70659,-2.62489,-1.03476,-39.9345
2023-03-11 22:45:00:513,-0.17638,0.420183,-9.73719,-2.6281,-1.04086,-39.9362
2023-03-11 22:45:00:523,-0.115816,0.415132,-9.74023,-2.63275,-1.04926,-39.937
2023-03-11 22:45:00:533,-0.127595,0.401465,-9.7028,-2.63781,-1.05749,-39.9362
2023-03-11 22:45:00:543,-0.168714,0.392813,-9.6688,-2.64553,-1.07054,-39.9319
2023-03-11 22:45:00:553,-0.201443,0.394505,-9.64501,-2.66654,-1.08199,-39.9254
2023-03-11 22:45:00:563,-0.204207,0.431496,-9.66141,-2.69645,-1.09295,-39.9204
2023-03-11 22:45:00:573,-0.222556,0.496392,-9.71786,-2.72987,-1.10486,-39.9155
2023-03-11 22:45:00:583,-0.234521,0.557532,-9.77323,-2.76221,-1.11708,-39.9095
2023-03-11 22:45:00:593,-0.252829,0.59466,-9.78085,-2.79024,-1.12183,-39.9048
2023-03-11 22:45:00:602,-0.266716,0.602345,-9.78123,-2.81681,-1.1268,-39.9032
2023-03-11 22:45:00:612,-0.271929,0.60647,-9.78688,-2.84182,-1.13168,-39.903
2023-03-11 22:45:00:623,-0.278237,0.625628,-9.78635,-2.86158,-1.1329,-39.909
2023-03-11 22:45:00:633,-0.274937,0.617563,-9.79307,-2.87842,-1.13325,-39.9132
2023-03-11 22:45:00:643,-0.262594,0.597829,-9.80528,-2.89413,-1.13168,-39.92
2023-03-11 22:45:00:653,-0.254087,0.579194,-9.79074,-2.91025,-1.12892,-39.9274
2023-03-11 22:45:00:663,-0.266917,0.561233,-9.78971,-2.92474,-1.12621,-39.9356
2023-03-11 22:45:00:673,-0.267494,0.561864,-9.79067,-2.93445,-1.12527,-39.9474
2023-03-11 22:45:00:683,-0.259632,0.563054,-9.80359,-2.94559,-1.12248,-39.9614
2023-03-11 22:45:00:693,-0.222449,0.575525,-9.80047,-2.95994,-1.11913,-39.9764
2023-03-11 22:45:00:703,-0.207125,0.581624,-9.8108,-2.97244,-1.11519,-39.9917
2023-03-11 22:45:00:713,-0.234342,0.594488,-9.81497,-2.9855,-1.11397,-40.0028
2023-03-11 22:45:00:723,-0.277048,0.608733,-9.81467,-2.99521,-1.10795,-40.0163
2023-03-11 22:45:00:733,-0.271224,0.619409,-9.83394,-3.00657,-1.09689,-40.0329
2023-03-11 22:45:00:743,-0.196538,0.608772,-9.83613,-3.00977,-1.08259,-40.0502
2023-03-11 22:45:00:753,-0.142349,0.584665,-9.81482,-3.01038,-1.07062,-40.0629
2023-03-11 22:45:00:763,-0.154266,0.571198,-9.76252,-3.00861,-1.05992,-40.0727
2023-03-11 22:45:00:773,-0.195702,0.564474,-9.73796,-3.00689,-1.05107,-40.0826
2023-03-11 22:45:00:783,-0.203815,0.550609,-9.72644,-3.01006,-1.04485,-40.0933
2023-03-11 22:45:00:793,-0.212711,0.5362,-9.72312,-3.01246,-1.04051,-40.1064
2023-03-11 22:45:00:803,-0.198933,0.539697,-9.73821,-3.01856,-1.03193,-40.1193
2023-03-11 22:45:00:813,-0.173396,0.554018,-9.75372,-3.01965,-1.02285,-40.1347
2023-03-11 22:45:00:823,-0.158815,0.547842,-9.75506,-3.02916,-1.01477,-40.1466
2023-03-11 22:45:00:833,-0.149979,0.55292,-9.75258,-3.03766,-1.00493,-40.1584
2023-03-11 22:45:00:843,-0.140763,0.55676,-9.75335,-3.04226,-0.996482,-40.1684
2023-03-11 22:45:00:853,-0.129152,0.552681,-9.75304,-3.05239,-0.992158,-40.1792
2023-03-11 22:45:00:863,-0.124513,0.554352,-9.74499,-3.05962,-0.98886,-40.1872
2023-03-11 22:45:00:873,-0.133141,0.546423,-9.74331,-3.0691,-0.984711,-40.1943
2023-03-11 22:45:00:883,-0.122192,0.545707,-9.74293,-3.08045,-0.983269,-40.2
2023-03-11 22:45:00:893,-0.135017,0.544614,-9.74872,-3.09227,-0.984521,-40.2013
2023-03-11 22:45:00:903,-0.137457,0.558221,-9.74081,-3.1051,-0.985369,-40.2056
2023-03-11 22:45:00:913,-0.124989,0.558159,-9.7398,-3.1206,-0.986193,-40.208
2023-03-11 22:45:00:923,-0.13179,0.551485,-9.74108,-3.13727,-0.991258,-40.207
2023-03-11 22:45:00:933,-0.156759,0.572001,-9.75099,-3.15877,-0.996988,-40.2048
2023-03-11 22:45:00:943,-0.180279,0.615755,-9.77359,-3.17786,-1.00033,-40.2026
2023-03-11 22:45:00:953,-0.176855,0.617489,-9.79864,-3.19735,-1.00471,-40.2048
2023-03-11 22:45:00:963,-0.174543,0.608602,-9.78652,-3.21147,-1.00731,-40.2034
2023-03-11 22:45:00:973,-0.171039,0.619455,-9.7828,-3.22612,-1.0116,-40.2038
2023-03-11 22:45:00:983,-0.16458,0.62545,-9.79523,-3.24174,-1.01444,-40.2019
2023-03-11 22:45:00:993,-0.1925,0.632204,-9.79133,-3.25665,-1.01906,-40.2019
2023-03-11 22:45:01:3,-0.214135,0.643893,-9.7923,-3.26981,-1.02347,-40.2047
2023-03-11 22:45:01:13,-0.222155,0.653102,-9.8037,-3.27906,-1.02456,-40.2069
2023-03-11 22:45:01:23,-0.21191,0.640233,-9.79912,-3.28308,-1.02356,-40.2139
2023-03-11 22:45:01:33,-0.19121,0.632691,-9.80133,-3.28896,-1.02469,-40.2193
2023-03-11 22:45:01:43,-0.192033,0.637348,-9.80036,-3.29123,-1.02812,-40.2237
2023-03-11 22:45:01:53,-0.211623,0.643427,-9.7907,-3.29219,-1.03436,-40.2306
2023-03-11 22:45:01:63,-0.20344,0.633974,-9.77921,-3.29122,-1.03755,-40.239
2023-03-11 22:45:01:73,-0.193659,0.617572,-9.76511,-3.2864,-1.03967,-40.2483
2023-03-11 22:45:01:82,-0.193155,0.610504,-9.76792,-3.28538,-1.0439,-40.2561
2023-03-11 22:45:01:92,-0.188161,0.626729,-9.76334,-3.28519,-1.04533,-40.2628
2023-03-11 22:45:01:103,-0.1742,0.622665,-9.7612,-3.28304,-1.04523,-40.2717
2023-03-11 22:45:01:113,-0.190966,0.606083,-9.76881,-3.28042,-1.0454,-40.2772
2023-03-11 22:45:01:123,-0.190286,0.601514,-9.77894,-3.27874,-1.04575,-40.2867
2023-03-11 22:45:01:133,-0.176012,0.599777,-9.79774,-3.27737,-1.04828,-40.2927
2023-03-11 22:45:01:143,-0.170705,0.605738,-9.81439,-3.27415,-1.04747,-40.2969
2023-03-11 22:45:01:153,-0.177354,0.601807,-9.81454,-3.26596,-1.04638,-40.3017
2023-03-11 22:45:01:163,-0.193756,0.590766,-9.78956,-3.25838,-1.04232,-40.3076
2023-03-11 22:45:01:173,-0.202478,0.574614,-9.76399,-3.25123,-1.04403,-40.3113
2023-03-11 22:45:01:183,-0.191252,0.552482,-9.7545,-3.24039,-1.04675,-40.316
2023-03-11 22:45:01:193,-0.193993,0.530924,-9.76362,-3.23075,-1.04547,-40.3251
2023-03-11 22:45:01:203,-0.200205,0.52202,-9.7739,-3.21879,-1.04391,-40.3322
2023-03-11 22:45:01:213,-0.163548,0.527596,-9.78145,-3.2087,-1.04472,-40.3412
2023-03-11 22:45:01:223,-0.114081,0.516724,-9.77971,-3.20076,-1.04516,-40.3516
2023-03-11 22:45:01:233,-0.0848456,0.497026,-9.75801,-3.1934,-1.04916,-40.354
2023-03-11 22:45:01:243,-0.12942,0.492008,-9.72035,-3.18336,-1.05933,-40.352
2023-03-11 22:45:01:253,-0.183784,0.513862,-9.69044,-3.18717,-1.06768,-40.3507
2023-03-11 22:45:01:263,-0.215071,0.54934,-9.69313,-3.19479,-1.07759,-40.3505
2023-03-11 22:45:01:273,-0.202633,0.575206,-9.6972,-3.20053,-1.07936,-40.3517
2023-03-11 22:45:01:283,-0.203543,0.584543,-9.69253,-3.2098,-1.08225,-40.3518
2023-03-11 22:45:01:293,-0.198191,0.59022,-9.70463,-3.22219,-1.08425,-40.3514
2023-03-11 22:45:01:303,-0.198627,0.604874,-9.71817,-3.23218,-1.08366,-40.3523
2023-03-11 22:45:01:313,-0.212939,0.614693,-9.74265,-3.24306,-1.084,-40.3504
2023-03-11 22:45:01:323,-0.205776,0.611307,-9.75578,-3.25278,-1.08354,-40.3481
2023-03-11 22:45:01:333,-0.188484,0.610432,-9.75563,-3.26347,-1.08133,-40.3447
2023-03-11 22:45:01:343,-0.165955,0.610129,-9.76577,-3.26778,-1.08051,-40.3406
2023-03-11 22:45:01:353,-0.151939,0.576844,-9.75796,-3.27171,-1.07434,-40.3358
2023-03-11 22:45:01:363,-0.147741,0.569446,-9.74051,-3.27887,-1.06727,-40.3235
2023-03-11 22:45:01:373,-0.17211,0.578626,-9.74379,-3.28823,-1.05884,-40.3104
2023-03-11 22:45:01:383,-0.201633,0.595129,-9.7753,-3.29939,-1.05028,-40.2965
2023-03-11 22:45:01:393,-0.206608,0.622323,-9.78285,-3.31301,-1.03789,-40.2836
2023-03-11 22:45:01:403,-0.18495,0.628883,-9.80689,-3.32383,-1.02493,-40.2707
2023-03-11 22:45:01:413,-0.191397,0.656758,-9.82952,-3.33727,-1.01605,-40.2635
2023-03-11 22:45:01:423,-0.251723,0.667619,-9.82115,-3.34916,-1.01145,-40.2599
2023-03-11 22:45:01:433,-0.303759,0.683577,-9.80771,-3.35795,-1.0078,-40.2646
2023-03-11 22:45:01:443,-0.283531,0.679997,-9.80531,-3.36406,-0.999236,-40.2759
2023-03-11 22:45:01:453,-0.184987,0.655375,-9.82285,-3.36587,-0.993512,-40.2895
2023-03-11 22:45:01:463,-0.153153,0.636027,-9.79728,-3.36737,-0.990239,-40.3008
2023-03-11 22:45:01:473,-0.181734,0.621548,-9.77037,-3.36535,-0.993815,-40.3167
2023-03-11 22:45:01:483,-0.185419,0.62359,-9.74429,-3.36593,-0.997516,-40.3357
2023-03-11 22:45:01:493,-0.159162,0.618885,-9.74316,-3.36776,-0.998027,-40.3504
2023-03-11 22:45:01:503,-0.148482,0.612105,-9.73975,-3.36859,-1.00152,-40.3693
2023-03-11 22:45:01:513,-0.129638,0.607219,-9.71898,-3.37438,-1.00326,-40.3808
2023-03-11 22:45:01:522,-0.113413,0.602114,-9.72651,-3.38361,-1.00448,-40.3922
2023-03-11 22:45:01:532,-0.116313,0.610332,-9.74235,-3.39141,-1.00448,-40.3997
2023-03-11 22:45:01:542,-0.134519,0.620459,-9.7487,-3.39612,-1.00467,-40.4048
2023-03-11 22:45:01:553,-0.139988,0.623528,-9.74517,-3.40288,-1.0031,-40.4079
2023-03-11 22:45:01:563,-0.150564,0.620252,-9.74301,-3.40915,-1.0018,-40.4134
2023-03-11 22:45:01:573,-0.162626,0.620646,-9.76424,-3.41767,-0.999025,-40.4181
2023-03-11 22:45:01:583,-0.164985,0.652388,-9.78514,-3.42483,-0.995738,-40.4179
2023-03-11 22:45:01:593,-0.168158,0.664285,-9.80156,-3.43048,-0.995865,-40.4224
2023-03-11 22:45:01:603,-0.163206,0.647227,-9.79893,-3.43446,-0.998815,-40.4243
2023-03-11 22:45:01:613,-0.161578,0.647653,-9.79627,-3.43539,-1.0024,-40.4273
2023-03-11 22:45:01:623,-0.155146,0.649523,-9.77232,-3.4389,-1.0104,-40.4304
2023-03-11 22:45:01:633,-0.148664,0.636713,-9.76543,-3.44356,-1.01537,-40.4358
2023-03-11 22:45:01:643,-0.166243,0.636573,-9.76189,-3.44846,-1.02377,-40.4391
2023-03-11 22:45:01:653,-0.178969,0.635419,-9.7646,-3.45129,-1.03133,-40.4444
2023-03-11 22:45:01:663,-0.182024,0.639048,-9.76165,-3.45261,-1.03893,-40.4465
2023-03-11 22:45:01:673,-0.167356,0.650771,-9.78085,-3.45456,-1.04684,-40.4517
2023-03-11 22:45:01:682,-0.168873,0.651821,-9.80048,-3.45277,-1.05482,-40.4538
2023-03-11 22:45:01:693,-0.16596,0.654832,-9.79517,-3.45491,-1.06384,-40.4546
2023-03-11 22:45:01:703,-0.16753,0.655031,-9.80092,-3.45292,-1.06972,-40.456
2023-03-11 22:45:01:713,-0.167578,0.650087,-9.79757,-3.45181,-1.07585,-40.4565
2023-03-11 22:45:01:723,-0.185392,0.644478,-9.78575,-3.44668,-1.08066,-40.457
2023-03-11 22:45:01:733,-0.204814,0.656367,-9.78163,-3.4393,-1.08616,-40.4529
2023-03-11 22:45:01:743,-0.193426,0.640286,-9.77696,-3.43416,-1.09192,-40.4537
2023-03-11 22:45:01:753,-0.189141,0.615948,-9.78403,-3.43009,-1.09757,-40.4554
2023-03-11 22:45:01:763,-0.187219,0.623291,-9.7676,-3.42048,-1.09975,-40.4589
2023-03-11 22:45:01:773,-0.177477,0.614913,-9.75208,-3.41139,-1.10741,-40.4611
2023-03-11 22:45:01:783,-0.179318,0.612177,-9.75343,-3.40797,-1.11386,-40.4599
2023-03-11 22:45:01:793,-0.181338,0.607089,-9.74803,-3.40299,-1.11943,-40.4633
2023-03-11 22:45:01:803,-0.192726,0.603405,-9.74627,-3.3962,-1.12512,-40.4614
2023-03-11 22:45:01:813,-0.201208,0.5999,-9.73253,-3.39345,-1.12694,-40.4652
2023-03-11 22:45:01:823,-0.202219,0.592286,-9.71235,-3.38706,-1.12955,-40.4644
2023-03-11 22:45:01:833,-0.199496,0.575339,-9.70629,-3.38376,-1.13051,-40.4649
2023-03-11 22:45:01:843,-0.187714,0.5707,-9.71523,-3.38207,-1.13459,-40.4644
2023-03-11 22:45:01:853,-0.195992,0.577473,-9.73052,-3.38697,-1.13656,-40.4627
2023-03-11 22:45:01:863,-0.20805,0.589872,-9.76413,-3.39179,-1.13613,-40.461
2023-03-11 22:45:01:873,-0.209497,0.584226,-9.77984,-3.39839,-1.14,-40.4585
2023-03-11 22:45:01:883,-0.22513,0.597427,-9.76181,-3.40229,-1.13827,-40.4573
2023-03-11 22:45:01:893,-0.248846,0.585101,-9.72643,-3.4053,-1.14028,-40.4573
2023-03-11 22:45:01:903,-0.239857,0.545069,-9.71976,-3.40855,-1.13905,-40.4611
2023-03-11 22:45:01:913,-0.217316,0.546868,-9.72641,-3.41923,-1.13756,-40.4645
2023-03-11 22:45:01:923,-0.227345,0.560109,-9.76663,-3.43041,-1.13662,-40.4699
2023-03-11 22:45:01:933,-0.229811,0.586342,-9.77347,-3.43538,-1.13989,-40.4776
2023-03-11 22:45:01:943,-0.195805,0.596756,-9.77729,-3.44646,-1.139,-40.4879
2023-03-11 22:45:01:953,-0.128009,0.592585,-9.79209,-3.45769,-1.14101,-40.4962
2023-03-11 22:45:01:963,-0.0976985,0.585657,-9.77736,-3.46558,-1.14655,-40.4999
2023-03-11 22:45:01:973,-0.13114,0.578657,-9.7476,-3.47494,-1.16013,-40.5004
2023-03-11 22:45:01:983,-0.187465,0.5766,-9.72006,-3.48685,-1.17137,-40.4995
2023-03-11 22:45:01:993,-0.227999,0.586269,-9.69087,-3.50347,-1.1845,-40.4976
2023-03-11 22:45:02:3,-0.235968,0.598049,-9.66991,-3.52199,-1.19669,-40.4948
2023-03-11 22:45:02:13,-0.231484,0.624721,-9.68356,-3.5433,-1.203,-40.489
2023-03-11 22:45:02:23,-0.247995,0.661132,-9.72188,-3.56423,-1.20352,-40.4849
2023-03-11 22:45:02:32,-0.28583,0.694239,-9.7417,-3.58825,-1.20279,-40.484
2023-03-11 22:45:02:42,-0.290952,0.703937,-9.75199,-3.6092,-1.19829,-40.4808
2023-03-11 22:45:02:52,-0.300482,0.696462,-9.7534,-3.62686,-1.19496,-40.4797
2023-03-11 22:45:02:62,-0.30016,0.686553,-9.7398,-3.64398,-1.19391,-40.4846
2023-03-11 22:45:02:72,-0.30639,0.679819,-9.73905,-3.66111,-1.19265,-40.4902
2023-03-11 22:45:02:83,-0.302333,0.688641,-9.74904,-3.68022,-1.18659,-40.5058
2023-03-11 22:45:02:93,-0.270669,0.698874,-9.76517,-3.7008,-1.1802,-40.5215
2023-03-11 22:45:02:103,-0.248367,0.69954,-9.78358,-3.72422,-1.17548,-40.5391
2023-03-11 22:45:02:113,-0.236499,0.716605,-9.7958,-3.74588,-1.17336,-40.5612
2023-03-11 22:45:02:123,-0.198549,0.723077,-9.79088,-3.76682,-1.17148,-40.5843
2023-03-11 22:45:02:133,-0.150035,0.704483,-9.78293,-3.78297,-1.16629,-40.6073
2023-03-11 22:45:02:143,-0.123242,0.719914,-9.77906,-3.80199,-1.16753,-40.6249
2023-03-11 22:45:02:153,-0.148441,0.736331,-9.79049,-3.82045,-1.16622,-40.6383
2023-03-11 22:45:02:163,-0.182805,0.72758,-9.79025,-3.83842,-1.16492,-40.6534
2023-03-11 22:45:02:173,-0.169865,0.711611,-9.76149,-3.85587,-1.15923,-40.6683
2023-03-11 22:45:02:183,-0.118862,0.707214,-9.76331,-3.86862,-1.1549,-40.6797
2023-03-11 22:45:02:193,-0.110023,0.721558,-9.78473,-3.88487,-1.15682,-40.6873
2023-03-11 22:45:02:203,-0.129047,0.749342,-9.77834,-3.89847,-1.16068,-40.6959
2023-03-11 22:45:02:213,-0.173324,0.759435,-9.78637,-3.91397,-1.16773,-40.7051
2023-03-11 22:45:02:223,-0.215794,0.7728,-9.80863,-3.92639,-1.17404,-40.7144
2023-03-11 22:45:02:233,-0.219684,0.777207,-9.80838,-3.93429,-1.177,-40.7237
2023-03-11 22:45:02:243,-0.195821,0.746129,-9.79508,-3.93721,-1.17933,-40.732
2023-03-11 22:45:02:253,-0.180115,0.718281,-9.74885,-3.94133,-1.17867,-40.7393
2023-03-11 22:45:02:263,-0.177575,0.709226,-9.71725,-3.94441,-1.18264,-40.7467
2023-03-11 22:45:02:273,-0.182597,0.719919,-9.71319,-3.95127,-1.18485,-40.752
2023-03-11 22:45:02:283,-0.200117,0.717502,-9.71373,-3.95933,-1.18872,-40.7601
2023-03-11 22:45:02:293,-0.19403,0.720305,-9.70391,-3.97014,-1.19292,-40.7642
2023-03-11 22:45:02:303,-0.203276,0.722802,-9.71211,-3.98475,-1.19634,-40.7683
2023-03-11 22:45:02:313,-0.211334,0.721611,-9.71567,-3.99683,-1.19999,-40.7751
2023-03-11 22:45:02:323,-0.208517,0.728227,-9.72038,-4.00917,-1.21002,-40.7835
2023-03-11 22:45:02:333,-0.194142,0.732158,-9.74255,-4.02659,-1.22199,-40.7922
2023-03-11 22:45:02:343,-0.214246,0.75521,-9.77694,-4.04085,-1.23153,-40.8006
2023-03-11 22:45:02:352,-0.232953,0.764988,-9.79676,-4.05186,-1.24341,-40.8134
2023-03-11 22:45:02:363,-0.217294,0.754728,-9.7869,-4.05919,-1.25137,-40.8246
2023-03-11 22:45:02:373,-0.216275,0.733576,-9.75467,-4.06665,-1.26054,-40.8335
2023-03-11 22:45:02:383,-0.21959,0.713154,-9.74081,-4.07514,-1.26918,-40.8395
2023-03-11 22:45:02:393,-0.25051,0.725028,-9.73795,-4.08567,-1.27866,-40.849
2023-03-11 22:45:02:403,-0.287248,0.725192,-9.73529,-4.09563,-1.28878,-40.8602
2023-03-11 22:45:02:413,-0.320402,0.724527,-9.7162,-4.10639,-1.30232,-40.8803
2023-03-11 22:45:02:423,-0.312669,0.722125,-9.71627,-4.1231,-1.31782,-40.9006
2023-03-11 22:45:02:433,-0.283828,0.738299,-9.75122,-4.14053,-1.33007,-40.9268
2023-03-11 22:45:02:443,-0.286632,0.764513,-9.78225,-4.15883,-1.33718,-40.9535
2023-03-11 22:45:02:453,-0.304308,0.770894,-9.77487,-4.17076,-1.3489,-40.983
2023-03-11 22:45:02:463,-0.298053,0.753458,-9.78118,-4.18186,-1.35888,-41.0178
2023-03-11 22:45:02:473,-0.234478,0.765045,-9.79902,-4.19262,-1.36658,-41.0516
2023-03-11 22:45:02:483,-0.234844,0.758783,-9.8106,-4.20209,-1.37736,-41.0807
2023-03-11 22:45:02:493,-0.279724,0.770572,-9.76693,-4.21076,-1.38487,-41.1116
2023-03-11 22:45:02:503,-0.254211,0.75874,-9.76414,-4.21748,-1.39425,-41.1451
2023-03-11 22:45:02:513,-0.218179,0.739548,-9.7804,-4.22454,-1.40018,-41.1783
2023-03-11 22:45:02:523,-0.231149,0.757849,-9.74578,-4.22796,-1.40708,-41.2092
2023-03-11 22:45:02:533,-0.254441,0.754566,-9.74382,-4.2322,-1.4148,-41.2432
2023-03-11 22:45:02:542,-0.238264,0.773449,-9.75935,-4.24252,-1.42142,-41.2755
2023-03-11 22:45:02:552,-0.231852,0.768177,-9.78909,-4.24523,-1.42841,-41.3051
2023-03-11 22:45:02:562,-0.245095,0.765135,-9.7662,-4.25024,-1.43728,-41.3322
2023-03-11 22:45:02:573,-0.259595,0.755761,-9.73363,-4.25546,-1.44637,-41.3629
2023-03-11 22:45:02:583,-0.239116,0.749052,-9.72155,-4.26035,-1.45347,-41.393
2023-03-11 22:45:02:593,-0.268228,0.755727,-9.73743,-4.2641,-1.46013,-41.4178
2023-03-11 22:45:02:603,-0.317067,0.747364,-9.76885,-4.27129,-1.46473,-41.4441
2023-03-11 22:45:02:613,-0.296027,0.757106,-9.76523,-4.27657,-1.4711,-41.4769
2023-03-11 22:45:02:623,-0.238507,0.753278,-9.77628,-4.28007,-1.46785,-41.5046
2023-03-11 22:45:02:633,-0.220996,0.736876,-9.79415,-4.28238,-1.46686,-41.5295
2023-03-11 22:45:02:643,-0.221998,0.736039,-9.77718,-4.28664,-1.46539,-41.5511
2023-03-11 22:45:02:653,-0.206769,0.73204,-9.76668,-4.28668,-1.46259,-41.5743
2023-03-11 22:45:02:663,-0.195186,0.728509,-9.76841,-4.28732,-1.46169,-41.595
2023-03-11 22:45:02:673,-0.211024,0.725112,-9.77058,-4.28711,-1.46192,-41.6106
2023-03-11 22:45:02:683,-0.219201,0.736501,-9.77964,-4.28811,-1.45902,-41.6266
2023-03-11 22:45:02:693,-0.187377,0.755131,-9.78875,-4.28905,-1.45706,-41.6393
2023-03-11 22:45:02:703,-0.125547,0.753192,-9.81454,-4.28868,-1.45495,-41.6509
2023-03-11 22:45:02:713,-0.0790919,0.726636,-9.79858,-4.28755,-1.45465,-41.6543
2023-03-11 22:45:02:723,-0.0939355,0.720561,-9.75482,-4.286,-1.45571,-41.6503
2023-03-11 22:45:02:733,-0.121748,0.73065,-9.72301,-4.28799,-1.45939,-41.6436
2023-03-11 22:45:02:743,-0.169308,0.758198,-9.71405,-4.28721,-1.46351,-41.6305
2023-03-11 22:45:02:753,-0.206178,0.781303,-9.69942,-4.2901,-1.46069,-41.6152
2023-03-11 22:45:02:763,-0.242968,0.786675,-9.68778,-4.29434,-1.46021,-41.5986
2023-03-11 22:45:02:773,-0.285499,0.798926,-9.69746,-4.30449,-1.45888,-41.5823
2023-03-11 22:45:02:783,-0.301075,0.794182,-9.70871,-4.3119,-1.45498,-41.5708
2023-03-11 22:45:02:793,-0.328642,0.813856,-9.72281,-4.32064,-1.45251,-41.5608
2023-03-11 22:45:02:803,-0.355731,0.812891,-9.73292,-4.32363,-1.44846,-41.5587
2023-03-11 22:45:02:813,-0.336603,0.803513,-9.76456,-4.32748,-1.44694,-41.5623
2023-03-11 22:45:02:823,-0.306027,0.818367,-9.79417,-4.33029,-1.45023,-41.5715
2023-03-11 22:45:02:833,-0.287781,0.819821,-9.79428,-4.33022,-1.45318,-41.5873
2023-03-11 22:45:02:843,-0.275216,0.800088,-9.77483,-4.32597,-1.45855,-41.6033
2023-03-11 22:45:02:853,-0.265567,0.79904,-9.77606,-4.32319,-1.46793,-41.6233
2023-03-11 22:45:02:863,-0.262075,0.789222,-9.80178,-4.32447,-1.47755,-41.6424
2023-03-11 22:45:02:873,-0.240433,0.81109,-9.82647,-4.32473,-1.48723,-41.6643
2023-03-11 22:45:02:883,-0.215903,0.844883,-9.87403,-4.32341,-1.49133,-41.6837
2023-03-11 22:45:02:893,-0.210263,0.857714,-9.88446,-4.32019,-1.49574,-41.7005
2023-03-11 22:45:02:903,-0.214835,0.822158,-9.85819,-4.30361,-1.49784,-41.7152
2023-03-11 22:45:02:913,-0.246526,0.833927,-9.85914,-4.28806,-1.49816,-41.7303
2023-03-11 22:45:02:923,-0.236881,0.857143,-9.88386,-4.2697,-1.504,-41.7437
2023-03-11 22:45:02:933,-0.210359,0.855768,-9.87724,-4.2451,-1.51331,-41.7544
2023-03-11 22:45:02:943,-0.243494,0.814306,-9.84657,-4.2163,-1.52267,-41.7639
2023-03-11 22:45:02:953,-0.271944,0.806421,-9.80655,-4.18335,-1.53454,-41.7716
2023-03-11 22:45:02:963,-0.267466,0.77277,-9.78355,-4.14637,-1.54318,-41.7817
2023-03-11 22:45:02:973,-0.23345,0.750941,-9.73639,-4.10921,-1.55345,-41.7893
2023-03-11 22:45:02:983,-0.235029,0.728017,-9.65381,-4.07241,-1.55931,-41.7939
2023-03-11 22:45:02:993,-0.239279,0.685929,-9.61103,-4.03969,-1.56634,-41.8003
2023-03-11 22:45:03:3,-0.239985,0.677461,-9.64895,-4.01412,-1.57803,-41.8048
2023-03-11 22:45:03:13,-0.253626,0.727055,-9.73444,-3.99597,-1.59397,-41.8087
2023-03-11 22:45:03:23,-0.280662,0.758306,-9.8076,-3.97569,-1.60667,-41.8155
2023-03-11 22:45:03:33,-0.295281,0.766442,-9.8638,-3.95079,-1.62259,-41.8226
2023-03-11 22:45:03:43,-0.301175,0.77294,-9.90509,-3.9214,-1.64074,-41.8323
2023-03-11 22:45:03:53,-0.308661,0.801978,-9.88194,-3.88457,-1.66501,-41.8413
2023-03-11 22:45:03:63,-0.330261,0.770806,-9.80535,-3.8403,-1.69106,-41.858
2023-03-11 22:45:03:73,-0.317185,0.707967,-9.74269,-3.79387,-1.7156,-41.8709
2023-03-11 22:45:03:83,-0.278367,0.685211,-9.73292,-3.74612,-1.73623,-41.8829
2023-03-11 22:45:03:93,-0.2531,0.678049,-9.74808,-3.69586,-1.75623,-41.8904
2023-03-11 22:45:03:103,-0.263505,0.672137,-9.74542,-3.64958,-1.78246,-41.8959
2023-03-11 22:45:03:113,-0.284332,0.649145,-9.71068,-3.60468,-1.80582,-41.9023
2023-03-11 22:45:03:123,-0.316379,0.622224,-9.72758,-3.56493,-1.82953,-41.905
2023-03-11 22:45:03:133,-0.335995,0.64979,-9.76866,-3.52953,-1.85256,-41.9086
2023-03-11 22:45:03:143,-0.335967,0.667315,-9.79366,-3.49003,-1.8757,-41.9119
2023-03-11 22:45:03:153,-0.338479,0.663095,-9.81081,-3.4516,-1.89351,-41.9168
2023-03-11 22:45:03:163,-0.359767,0.693593,-9.83591,-3.41298,-1.90797,-41.9193
2023-03-11 22:45:03:173,-0.381034,0.692031,-9.80962,-3.36728,-1.92062,-41.9244
2023-03-11 22:45:03:183,-0.38939,0.656156,-9.76245,-3.31818,-1.93266,-41.926
2023-03-11 22:45:03:193,-0.396641,0.637524,-9.72471,-3.26599,-1.94477,-41.9259
2023-03-11 22:45:03:203,-0.427209,0.605575,-9.67643,-3.21778,-1.95307,-41.931
2023-03-11 22:45:03:213,-0.409415,0.574892,-9.6229,-3.17595,-1.96261,-41.9413
2023-03-11 22:45:03:223,-0.423523,0.552031,-9.59212,-3.13719,-1.9683,-41.9472
2023-03-11 22:45:03:233,-0.400096,0.528917,-9.58649,-3.10488,-1.97382,-41.9593
2023-03-11 22:45:03:243,-0.371748,0.514115,-9.60449,-3.08073,-1.97504,-41.9716
2023-03-11 22:45:03:253,-0.345956,0.503354,-9.65014,-3.06173,-1.97523,-41.9829
2023-03-11 22:45:03:263,-0.323593,0.505521,-9.70273,-3.0503,-1.97412,-41.9926
2023-03-11 22:45:03:273,-0.314002,0.506748,-9.73173,-3.03577,-1.97554,-41.9999
2023-03-11 22:45:03:283,-0.296662,0.507377,-9.71341,-3.02254,-1.97742,-42.0091
2023-03-11 22:45:03:293,-0.291531,0.485035,-9.66888,-3.00938,-1.97645,-42.0159
2023-03-11 22:45:03:303,-0.284233,0.47059,-9.63966,-2.99942,-1.97764,-42.0227
2023-03-11 22:45:03:313,-0.262018,0.468681,-9.63989,-2.99722,-1.98197,-42.0244
2023-03-11 22:45:03:323,-0.277821,0.466845,-9.65774,-3.00077,-1.98751,-42.0234
2023-03-11 22:45:03:333,-0.29137,0.474898,-9.68895,-3.00857,-1.9926,-42.0244
2023-03-11 22:45:03:343,-0.297541,0.487079,-9.74126,-3.01818,-1.99818,-42.0212
2023-03-11 22:45:03:353,-0.313085,0.505746,-9.79379,-3.02589,-2.00277,-42.014
2023-03-11 22:45:03:363,-0.318909,0.524897,-9.81476,-3.03698,-2.00515,-42.0073
2023-03-11 22:45:03:373,-0.328213,0.523304,-9.81246,-3.0417,-2.01183,-42.0007
2023-03-11 22:45:03:382,-0.342895,0.527604,-9.82653,-3.0434,-2.01402,-41.9935
2023-03-11 22:45:03:393,-0.364195,0.537842,-9.84868,-3.04468,-2.01573,-41.9805
2023-03-11 22:45:03:403,-0.395876,0.542052,-9.80065,-3.04311,-2.01681,-41.9725
2023-03-11 22:45:03:413,-0.387754,0.521021,-9.75201,-3.04087,-2.01954,-41.9666
2023-03-11 22:45:03:423,-0.374901,0.516741,-9.75716,-3.03837,-2.01995,-41.9606
2023-03-11 22:45:03:433,-0.376475,0.515559,-9.75438,-3.03552,-2.0206,-41.958
2023-03-11 22:45:03:443,-0.373366,0.500294,-9.74825,-3.03651,-2.01936,-41.953
2023-03-11 22:45:03:453,-0.379923,0.495557,-9.7699,-3.04133,-2.02209,-41.9509
2023-03-11 22:45:03:463,-0.39268,0.497582,-9.80743,-3.04131,-2.02504,-41.9466
2023-03-11 22:45:03:473,-0.387069,0.513772,-9.82916,-3.04162,-2.02616,-41.9429
2023-03-11 22:45:03:483,-0.342067,0.521415,-9.83844,-3.04018,-2.02662,-41.9442
2023-03-11 22:45:03:493,-0.292643,0.518257,-9.82441,-3.03389,-2.0291,-41.9432
2023-03-11 22:45:03:503,-0.300727,0.500896,-9.76808,-3.02956,-2.03573,-41.9408
2023-03-11 22:45:03:513,-0.353156,0.487432,-9.70222,-3.02659,-2.04584,-41.9342
2023-03-11 22:45:03:523,-0.392939,0.484002,-9.65634,-3.02501,-2.0541,-41.9256
2023-03-11 22:45:03:533,-0.414067,0.504182,-9.64786,-3.03159,-2.05937,-41.9214
2023-03-11 22:45:03:543,-0.425784,0.523645,-9.65976,-3.04505,-2.06189,-41.9188
2023-03-11 22:45:03:553,-0.409735,0.547314,-9.67847,-3.06028,-2.06133,-41.9146
2023-03-11 22:45:03:563,-0.41635,0.578671,-9.69787,-3.07446,-2.06161,-41.9114
2023-03-11 22:45:03:573,-0.421196,0.600167,-9.73762,-3.08938,-2.06105,-41.9097
2023-03-11 22:45:03:583,-0.429006,0.62474,-9.77288,-3.10273,-2.05999,-41.9088
2023-03-11 22:45:03:592,-0.421292,0.630163,-9.75733,-3.1132,-2.05558,-41.9113
2023-03-11 22:45:03:603,-0.406656,0.581123,-9.7337,-3.1215,-2.04801,-41.9165
2023-03-11 22:45:03:613,-0.399614,0.573744,-9.73454,-3.12878,-2.04115,-41.9171
2023-03-11 22:45:03:623,-0.39439,0.585916,-9.75723,-3.14031,-2.03576,-41.9186
2023-03-11 22:45:03:633,-0.389653,0.587029,-9.80053,-3.15176,-2.03081,-41.9239
2023-03-11 22:45:03:643,-0.376113,0.595932,-9.81143,-3.16099,-2.02539,-41.925
2023-03-11 22:45:03:653,-0.373176,0.602751,-9.79973,-3.1708,-2.01706,-41.9296
2023-03-11 22:45:03:663,-0.357532,0.605468,-9.80275,-3.17947,-2.01206,-41.9319
2023-03-11 22:45:03:673,-0.324495,0.618275,-9.8275,-3.19173,-2.00307,-41.9331
2023-03-11 22:45:03:682,-0.33076,0.635686,-9.85601,-3.20335,-1.99591,-41.9343
2023-03-11 22:45:03:693,-0.378594,0.642879,-9.84638,-3.2077,-1.98902,-41.934
2023-03-11 22:45:03:703,-0.415291,0.648895,-9.81243,-3.2135,-1.98526,-41.9387
2023-03-11 22:45:03:713,-0.392835,0.629236,-9.81548,-3.21096,-1.97844,-41.942
2023-03-11 22:45:03:723,-0.325094,0.625815,-9.84741,-3.20834,-1.9709,-41.9478
2023-03-11 22:45:03:733,-0.322906,0.629067,-9.83163,-3.20203,-1.96481,-41.9522
2023-03-11 22:45:03:743,-0.350943,0.613208,-9.79733,-3.19549,-1.96548,-41.9533
2023-03-11 22:45:03:753,-0.336212,0.5947,-9.76542,-3.18279,-1.96094,-41.9566
2023-03-11 22:45:03:763,-0.32659,0.577987,-9.75018,-3.16705,-1.95756,-41.959
2023-03-11 22:45:03:773,-0.330057,0.569109,-9.72681,-3.15397,-1.95756,-41.962
2023-03-11 22:45:03:783,-0.337892,0.557536,-9.71896,-3.14329,-1.9555,-41.965
2023-03-11 22:45:03:793,-0.335336,0.566871,-9.73526,-3.13848,-1.95021,-41.963
2023-03-11 22:45:03:803,-0.33905,0.57572,-9.75215,-3.13623,-1.94512,-41.9664
2023-03-11 22:45:03:813,-0.343156,0.587415,-9.75338,-3.13286,-1.9402,-41.9696
2023-03-11 22:45:03:823,-0.347403,0.592506,-9.74728,-3.12927,-1.93219,-41.9738
2023-03-11 22:45:03:833,-0.336912,0.596098,-9.76071,-3.12285,-1.92802,-41.9755
2023-03-11 22:45:03:843,-0.353951,0.584478,-9.76924,-3.11656,-1.92424,-41.9768
2023-03-11 22:45:03:853,-0.362636,0.574876,-9.76642,-3.10922,-1.92292,-41.9793
2023-03-11 22:45:03:863,-0.353132,0.571906,-9.76716,-3.10188,-1.92044,-41.9853
2023-03-11 22:45:03:873,-0.334902,0.568018,-9.77398,-3.09496,-1.91328,-41.9867
2023-03-11 22:45:03:883,-0.333923,0.547785,-9.75669,-3.0867,-1.91168,-41.9904
2023-03-11 22:45:03:893,-0.31155,0.535732,-9.73113,-3.07886,-1.91129,-41.9951
2023-03-11 22:45:03:903,-0.304684,0.516235,-9.73306,-3.07097,-1.91059,-41.9983
2023-03-11 22:45:03:913,-0.2916,0.538064,-9.7514,-3.06906,-1.91,-41.9997
2023-03-11 22:45:03:923,-0.30018,0.536952,-9.77078,-3.0705,-1.90986,-42.0012
2023-03-11 22:45:03:933,-0.319949,0.541891,-9.75307,-3.06562,-1.90732,-42.0014
2023-03-11 22:45:03:943,-0.343831,0.547777,-9.73646,-3.06506,-1.90507,-42.0003
2023-03-11 22:45:03:953,-0.351144,0.546483,-9.74782,-3.06218,-1.9023,-42.0011
2023-03-11 22:45:03:963,-0.365429,0.561183,-9.76438,-3.06357,-1.897,-41.9969
2023-03-11 22:45:03:973,-0.368579,0.556965,-9.78113,-3.06246,-1.89075,-41.9946
2023-03-11 22:45:03:983,-0.362186,0.560875,-9.80434,-3.0628,-1.88275,-41.994
2023-03-11 22:45:03:993,-0.35611,0.574878,-9.79806,-3.05883,-1.87695,-41.9977
2023-03-11 22:45:04:3,-0.342443,0.558194,-9.76834,-3.05473,-1.86587,-42.0014
2023-03-11 22:45:04:13,-0.343115,0.528015,-9.7431,-3.04842,-1.8558,-42.0099
2023-03-11 22:45:04:23,-0.339676,0.533873,-9.7524,-3.04632,-1.8488,-42.0157
2023-03-11 22:45:04:33,-0.329254,0.538115,-9.76446,-3.04628,-1.84155,-42.0227
2023-03-11 22:45:04:43,-0.320733,0.530214,-9.77108,-3.04624,-1.83807,-42.0273
2023-03-11 22:45:04:53,-0.299648,0.549419,-9.78658,-3.04033,-1.83351,-42.0353
2023-03-11 22:45:04:63,-0.289208,0.556191,-9.78259,-3.03806,-1.82636,-42.043
2023-03-11 22:45:04:73,-0.281123,0.53809,-9.75961,-3.03311,-1.82005,-42.0531
2023-03-11 22:45:04:83,-0.27489,0.528477,-9.72871,-3.02912,-1.81379,-42.0573
2023-03-11 22:45:04:93,-0.280052,0.518923,-9.71977,-3.02464,-1.8098,-42.0583
2023-03-11 22:45:04:103,-0.25658,0.511981,-9.73807,-3.02155,-1.80558,-42.0565
2023-03-11 22:45:04:113,-0.250162,0.518418,-9.74547,-3.02197,-1.80059,-42.0583
2023-03-11 22:45:04:123,-0.270922,0.530323,-9.76958,-3.02463,-1.79425,-42.0498
2023-03-11 22:45:04:133,-0.30876,0.545749,-9.78444,-3.02718,-1.79004,-42.0427
2023-03-11 22:45:04:143,-0.30852,0.536471,-9.78139,-3.0278,-1.78507,-42.0411
2023-03-11 22:45:04:153,-0.309699,0.558436,-9.79236,-3.02652,-1.7798,-42.0347
2023-03-11 22:45:04:163,-0.324239,0.552314,-9.7947,-3.02239,-1.7719,-42.0326
2023-03-11 22:45:04:173,-0.338262,0.531559,-9.77229,-3.01671,-1.76675,-42.0275
2023-03-11 22:45:04:183,-0.341404,0.515184,-9.74296,-3.01036,-1.76198,-42.0253
2023-03-11 22:45:04:193,-0.325668,0.504432,-9.73471,-3.00472,-1.76048,-42.0241
2023-03-11 22:45:04:203,-0.327143,0.513132,-9.71884,-3.00478,-1.7585,-42.0276
2023-03-11 22:45:04:213,-0.331394,0.49699,-9.74297,-3.00991,-1.75683,-42.0349
2023-03-11 22:45:04:223,-0.309234,0.495918,-9.75895,-3.01387,-1.75483,-42.0395
2023-03-11 22:45:04:233,-0.249176,0.516868,-9.80001,-3.0162,-1.75692,-42.045
2023-03-11 22:45:04:243,-0.208839,0.524274,-9.80932,-3.01742,-1.76076,-42.0491
2023-03-11 22:45:04:253,-0.21756,0.509564,-9.77215,-3.02017,-1.76693,-42.0504
2023-03-11 22:45:04:263,-0.267911,0.506489,-9.74166,-3.02306,-1.77767,-42.0505
2023-03-11 22:45:04:273,-0.311238,0.541017,-9.75355,-3.03176,-1.78815,-42.0514
2023-03-11 22:45:04:283,-0.326502,0.589738,-9.77587,-3.0435,-1.79756,-42.0501
2023-03-11 22:45:04:293,-0.336956,0.609366,-9.73626,-3.04867,-1.8052,-42.0492
2023-03-11 22:45:04:303,-0.335542,0.586678,-9.67318,-3.05637,-1.80729,-42.0504
2023-03-11 22:45:04:313,-0.340733,0.569217,-9.67109,-3.06353,-1.80079,-42.0483
2023-03-11 22:45:04:323,-0.340516,0.587647,-9.703,-3.07514,-1.79844,-42.0453
2023-03-11 22:45:04:333,-0.339998,0.609603,-9.75635,-3.0891,-1.79035,-42.0461
2023-03-11 22:45:04:343,-0.347698,0.615413,-9.80272,-3.10178,-1.7825,-42.0432
2023-03-11 22:45:04:353,-0.344912,0.648258,-9.80097,-3.1078,-1.77522,-42.043
2023-03-11 22:45:04:363,-0.339039,0.611337,-9.77692,-3.11285,-1.76988,-42.0481
2023-03-11 22:45:04:373,-0.34725,0.573498,-9.75538,-3.11621,-1.75977,-42.0504
2023-03-11 22:45:04:383,-0.334208,0.567374,-9.75964,-3.12046,-1.75279,-42.0558
2023-03-11 22:45:04:393,-0.309787,0.594369,-9.77382,-3.12513,-1.74671,-42.061
2023-03-11 22:45:04:403,-0.293776,0.607289,-9.79394,-3.13291,-1.74155,-42.0684
2023-03-11 22:45:04:413,-0.274211,0.60151,-9.79646,-3.14026,-1.73674,-42.0784
2023-03-11 22:45:04:423,-0.263507,0.61193,-9.79696,-3.14485,-1.73368,-42.084
2023-03-11 22:45:04:433,-0.277732,0.627029,-9.79347,-3.15149,-1.73633,-42.0886
2023-03-11 22:45:04:443,-0.321779,0.61494,-9.77859,-3.1545,-1.73817,-42.0951
2023-03-11 22:45:04:453,-0.351564,0.62402,-9.77378,-3.15639,-1.73664,-42.1031
2023-03-11 22:45:04:463,-0.276643,0.618918,-9.80481,-3.1565,-1.72879,-42.1102
2023-03-11 22:45:04:473,-0.209353,0.606729,-9.8298,-3.15323,-1.72426,-42.1157
2023-03-11 22:45:04:483,-0.232244,0.59893,-9.83228,-3.15262,-1.72506,-42.1123
2023-03-11 22:45:04:493,-0.261215,0.590104,-9.82033,-3.14475,-1.72906,-42.11
2023-03-11 22:45:04:503,-0.280505,0.598104,-9.80158,-3.13266,-1.73091,-42.1075
2023-03-11 22:45:04:513,-0.293788,0.573079,-9.78095,-3.11828,-1.73112,-42.103
2023-03-11 22:45:04:523,-0.300331,0.546844,-9.75209,-3.10357,-1.73241,-42.0969
2023-03-11 22:45:04:533,-0.308148,0.536438,-9.7294,-3.0894,-1.73305,-42.0926
2023-03-11 22:45:04:543,-0.308956,0.538766,-9.72835,-3.08016,-1.732,-42.0865
2023-03-11 22:45:04:553,-0.303477,0.532242,-9.74371,-3.07297,-1.73207,-42.0799
2023-03-11 22:45:04:563,-0.321605,0.5464,-9.74635,-3.06528,-1.73291,-42.0747
2023-03-11 22:45:04:573,-0.337577,0.553278,-9.74776,-3.06117,-1.73516,-42.0732
2023-03-11 22:45:04:583,-0.330661,0.550617,-9.76056,-3.0551,-1.73563,-42.0728
2023-03-11 22:45:04:593,-0.333737,0.555424,-9.78134,-3.05045,-1.73776,-42.0747
2023-03-11 22:45:04:603,-0.341052,0.55897,-9.7889,-3.04417,-1.73926,-42.0792
2023-03-11 22:45:04:612,-0.326395,0.559882,-9.7751,-3.03436,-1.74396,-42.0846
2023-03-11 22:45:04:622,-0.321297,0.524748,-9.76775,-3.02315,-1.74741,-42.0894
2023-03-11 22:45:04:632,-0.313841,0.515941,-9.74563,-3.0114,-1.74854,-42.0925
2023-03-11 22:45:04:643,-0.299003,0.501801,-9.74052,-3.00186,-1.75422,-42.0934
2023-03-11 22:45:04:653,-0.283519,0.487818,-9.714,-2.99264,-1.761,-42.0917
2023-03-11 22:45:04:663,-0.314178,0.481826,-9.69977,-2.98916,-1.76576,-42.0885
2023-03-11 22:45:04:673,-0.32402,0.486144,-9.71056,-2.98807,-1.76903,-42.0842
2023-03-11 22:45:04:683,-0.34463,0.50394,-9.73105,-2.98549,-1.76907,-42.0786
2023-03-11 22:45:04:693,-0.342726,0.531445,-9.75515,-2.98697,-1.76981,-42.0743
2023-03-11 22:45:04:703,-0.360381,0.546072,-9.77005,-2.9909,-1.77129,-42.0724
2023-03-11 22:45:04:713,-0.355943,0.55842,-9.79053,-2.99308,-1.76598,-42.0701
2023-03-11 22:45:04:723,-0.348644,0.563075,-9.80013,-2.99075,-1.76535,-42.069
2023-03-11 22:45:04:733,-0.34286,0.546613,-9.80431,-2.98687,-1.76033,-42.0722
2023-03-11 22:45:04:743,-0.348242,0.543868,-9.80667,-2.9803,-1.75542,-42.0802
2023-03-11 22:45:04:753,-0.338041,0.534839,-9.78303,-2.97265,-1.74914,-42.0841
2023-03-11 22:45:04:763,-0.320924,0.51886,-9.76561,-2.96738,-1.74289,-42.0925
2023-03-11 22:45:04:773,-0.304042,0.506779,-9.76409,-2.95698,-1.73705,-42.0991
2023-03-11 22:45:04:783,-0.297691,0.506303,-9.75313,-2.95269,-1.7318,-42.1051
2023-03-11 22:45:04:793,-0.292656,0.501184,-9.77254,-2.94833,-1.72955,-42.1154
2023-03-11 22:45:04:803,-0.277027,0.514842,-9.77984,-2.94683,-1.72468,-42.1213
2023-03-11 22:45:04:813,-0.256258,0.510773,-9.75813,-2.94083,-1.72318,-42.1289
2023-03-11 22:45:04:823,-0.255015,0.500485,-9.7619,-2.93679,-1.72232,-42.131
2023-03-11 22:45:04:833,-0.277221,0.533451,-9.77888,-2.93496,-1.72145,-42.1318
2023-03-11 22:45:04:843,-0.292293,0.55253,-9.77832,-2.93091,-1.71921,-42.135
2023-03-11 22:45:04:853,-0.269955,0.529942,-9.74607,-2.92595,-1.71735,-42.1386
2023-03-11 22:45:04:863,-0.265193,0.496743,-9.70586,-2.91934,-1.71522,-42.1363
2023-03-11 22:45:04:873,-0.277109,0.485344,-9.70689,-2.91644,-1.71546,-42.1343
2023-03-11 22:45:04:883,-0.297097,0.509403,-9.7568,-2.91466,-1.71537,-42.132
2023-03-11 22:45:04:893,-0.314309,0.527532,-9.78536,-2.91591,-1.71721,-42.1298
2023-03-11 22:45:04:903,-0.304569,0.5102,-9.78805,-2.9116,-1.71783,-42.1275
2023-03-11 22:45:04:913,-0.318778,0.517959,-9.78988,-2.90801,-1.71586,-42.1251
2023-03-11 22:45:04:923,-0.321206,0.529399,-9.79251,-2.90627,-1.71583,-42.1247
2023-03-11 22:45:04:933,-0.31303,0.510029,-9.76849,-2.90284,-1.71612,-42.1247
2023-03-11 22:45:04:943,-0.314362,0.494001,-9.76718,-2.9022,-1.71695,-42.1238
2023-03-11 22:45:04:953,-0.325487,0.491712,-9.77216,-2.90123,-1.71693,-42.1272
2023-03-11 22:45:04:963,-0.316392,0.497939,-9.76562,-2.90268,-1.71675,-42.1305
2023-03-11 22:45:04:972,-0.271267,0.508767,-9.77849,-2.9011,-1.71392,-42.1345
2023-03-11 22:45:04:982,-0.207522,0.495686,-9.80441,-2.89806,-1.71335,-42.1354
2023-03-11 22:45:04:993,-0.182153,0.471373,-9.79846,-2.89527,-1.71796,-42.1366
2023-03-11 22:45:05:3,-0.249293,0.481632,-9.73281,-2.88956,-1.73014,-42.1317
2023-03-11 22:45:05:13,-0.320391,0.47741,-9.70373,-2.89457,-1.74255,-42.1259
2023-03-11 22:45:05:23,-0.341516,0.495107,-9.69564,-2.89992,-1.74933,-42.1197
2023-03-11 22:45:05:33,-0.330226,0.530501,-9.69521,-2.91095,-1.75337,-42.1128
2023-03-11 22:45:05:43,-0.342806,0.548612,-9.71673,-2.92113,-1.75314,-42.1108
2023-03-11 22:45:05:53,-0.357734,0.562103,-9.72314,-2.93366,-1.7522,-42.1024
2023-03-11 22:45:05:63,-0.3859,0.585865,-9.73822,-2.94627,-1.75099,-42.0939
2023-03-11 22:45:05:73,-0.407436,0.603531,-9.76437,-2.95933,-1.74736,-42.0901
2023-03-11 22:45:05:83,-0.408469,0.607252,-9.78126,-2.96586,-1.74065,-42.0921
2023-03-11 22:45:05:93,-0.398106,0.595548,-9.78156,-2.97129,-1.73696,-42.095
2023-03-11 22:45:05:103,-0.378324,0.575394,-9.75504,-2.9751,-1.73217,-42.1043
2023-03-11 22:45:05:113,-0.357431,0.556253,-9.74339,-2.97389,-1.72626,-42.1152
2023-03-11 22:45:05:123,-0.341507,0.539323,-9.7468,-2.98044,-1.71824,-42.1296
2023-03-11 22:45:05:133,-0.317279,0.529977,-9.77452,-2.98284,-1.71249,-42.147
2023-03-11 22:45:05:143,-0.285234,0.531465,-9.8014,-2.9855,-1.70654,-42.1589
2023-03-11 22:45:05:153,-0.248047,0.546351,-9.81752,-2.9917,-1.69902,-42.1714
2023-03-11 22:45:05:163,-0.227335,0.550359,-9.80827,-2.99257,-1.69135,-42.1803
2023-03-11 22:45:05:173,-0.203536,0.545769,-9.80176,-2.99714,-1.6866,-42.1846
2023-03-11 22:45:05:183,-0.225205,0.540323,-9.80013,-2.99964,-1.68418,-42.1839
2023-03-11 22:45:05:193,-0.264965,0.562707,-9.79593,-3.00389,-1.68185,-42.1856
2023-03-11 22:45:05:203,-0.272778,0.561157,-9.78821,-3.00594,-1.67688,-42.1836
2023-03-11 22:45:05:213,-0.215988,0.570782,-9.81157,-3.00761,-1.66962,-42.1808
2023-03-11 22:45:05:223,-0.176957,0.572917,-9.83893,-3.00631,-1.66278,-42.1741
2023-03-11 22:45:05:233,-0.214078,0.563094,-9.83144,-3.00219,-1.66559,-42.1628
2023-03-11 22:45:05:243,-0.279521,0.558091,-9.80046,-2.99086,-1.66836,-42.1518
2023-03-11 22:45:05:253,-0.310002,0.542132,-9.76922,-2.98401,-1.67271,-42.1416
2023-03-11 22:45:05:263,-0.319857,0.512797,-9.74609,-2.97321,-1.67493,-42.1333
2023-03-11 22:45:05:273,-0.330331,0.511579,-9.7269,-2.96471,-1.67764,-42.1253
2023-03-11 22:45:05:283,-0.320708,0.495258,-9.72277,-2.95877,-1.67612,-42.1202
2023-03-11 22:45:05:293,-0.303581,0.507207,-9.72399,-2.95804,-1.67664,-42.1113
2023-03-11 22:45:05:303,-0.309404,0.52975,-9.73159,-2.95849,-1.67085,-42.1046
2023-03-11 22:45:05:313,-0.312215,0.536692,-9.7363,-2.95868,-1.67339,-42.0981
2023-03-11 22:45:05:323,-0.322873,0.544541,-9.74605,-2.95905,-1.67611,-42.0943
2023-03-11 22:45:05:333,-0.318286,0.557379,-9.74584,-2.96345,-1.6799,-42.0941
2023-03-11 22:45:05:343,-0.32078,0.550033,-9.75162,-2.96375,-1.68477,-42.0935
2023-03-11 22:45:05:353,-0.312148,0.55635,-9.7541,-2.96527,-1.68806,-42.0973
2023-03-11 22:45:05:363,-0.308351,0.540165,-9.75389,-2.96456,-1.69167,-42.0988
2023-03-11 22:45:05:372,-0.296889,0.539933,-9.74881,-2.96762,-1.69519,-42.1021
2023-03-11 22:45:05:382,-0.284648,0.534783,-9.75088,-2.9685,-1.69613,-42.1032
2023-03-11 22:45:05:392,-0.280933,0.536816,-9.75791,-2.97174,-1.70233,-42.1016
2023-03-11 22:45:05:402,-0.291501,0.529199,-9.75825,-2.97513,-1.70575,-42.1024
2023-03-11 22:45:05:413,-0.289667,0.546364,-9.75706,-2.98114,-1.70984,-42.1001
2023-03-11 22:45:05:422,-0.294882,0.550236,-9.7735,-2.98897,-1.71317,-42.0961
2023-03-11 22:45:05:433,-0.310894,0.547969,-9.77665,-2.99406,-1.71375,-42.0889
2023-03-11 22:45:05:443,-0.327129,0.557736,-9.76647,-3.00007,-1.71395,-42.083
2023-03-11 22:45:05:453,-0.33937,0.566202,-9.77052,-3.00441,-1.71358,-42.0811
2023-03-11 22:45:05:463,-0.345347,0.567223,-9.7621,-3.01148,-1.70887,-42.0827
2023-03-11 22:45:05:473,-0.353462,0.566088,-9.77345,-3.01513,-1.70371,-42.0825
2023-03-11 22:45:05:483,-0.341212,0.57015,-9.7883,-3.02017,-1.70043,-42.0856
2023-03-11 22:45:05:493,-0.336254,0.580038,-9.79522,-3.02228,-1.69491,-42.092
2023-03-11 22:45:05:503,-0.315644,0.573862,-9.79694,-3.02298,-1.69242,-42.1022
2023-03-11 22:45:05:513,-0.297291,0.553228,-9.79102,-3.0251,-1.69055,-42.1118
2023-03-11 22:45:05:523,-0.275038,0.53596,-9.78622,-3.02554,-1.69155,-42.1215
2023-03-11 22:45:05:533,-0.261096,0.550757,-9.781,-3.02393,-1.68814,-42.1268
2023-03-11 22:45:05:543,-0.253526,0.546346,-9.76149,-3.02062,-1.68613,-42.1349
2023-03-11 22:45:05:553,-0.251329,0.536382,-9.7441,-3.01927,-1.68588,-42.142
2023-03-11 22:45:05:563,-0.249845,0.528903,-9.73572,-3.01811,-1.68565,-42.1463
2023-03-11 22:45:05:573,-0.253678,0.514339,-9.7322,-3.01851,-1.68301,-42.1466
2023-03-11 22:45:05:583,-0.258757,0.518114,-9.74174,-3.02196,-1.68036,-42.144
2023-03-11 22:45:05:593,-0.292563,0.535977,-9.74189,-3.02706,-1.67966,-42.1427
2023-03-11 22:45:05:603,-0.299911,0.545457,-9.74867,-3.0304,-1.67851,-42.1433
2023-03-11 22:45:05:612,-0.295472,0.558221,-9.74692,-3.0333,-1.67713,-42.14
2023-03-11 22:45:05:623,-0.297079,0.56329,-9.77533,-3.03706,-1.67482,-42.14
2023-03-11 22:45:05:633,-0.321118,0.564418,-9.7944,-3.04171,-1.67146,-42.1412
2023-03-11 22:45:05:642,-0.318092,0.555429,-9.79561,-3.04093,-1.6661,-42.1443
2023-03-11 22:45:05:653,-0.314774,0.550619,-9.77516,-3.0378,-1.66331,-42.1444
2023-03-11 22:45:05:663,-0.30348,0.539446,-9.76881,-3.03836,-1.65843,-42.145
2023-03-11 22:45:05:673,-0.316596,0.536625,-9.75016,-3.03471,-1.66093,-42.1489
2023-03-11 22:45:05:683,-0.314397,0.515035,-9.73222,-3.0332,-1.66024,-42.1524
2023-03-11 22:45:05:693,-0.30704,0.504124,-9.71366,-3.03201,-1.65765,-42.1554
2023-03-11 22:45:05:703,-0.290722,0.511207,-9.73164,-3.0345,-1.65696,-42.1591
2023-03-11 22:45:05:713,-0.300239,0.532019,-9.77149,-3.04274,-1.65812,-42.1661
2023-03-11 22:45:05:723,-0.285134,0.559664,-9.7947,-3.05277,-1.65929,-42.1722
2023-03-11 22:45:05:733,-0.241545,0.556774,-9.80763,-3.05846,-1.65847,-42.1782
2023-03-11 22:45:05:743,-0.185727,0.54721,-9.78301,-3.06065,-1.66086,-42.1808
2023-03-11 22:45:05:753,-0.192707,0.535778,-9.76779,-3.06486,-1.66832,-42.1795
2023-03-11 22:45:05:763,-0.266266,0.531995,-9.74501,-3.0712,-1.67362,-42.1699
2023-03-11 22:45:05:773,-0.301614,0.559288,-9.73918,-3.07531,-1.67912,-42.1639
2023-03-11 22:45:05:783,-0.29902,0.584724,-9.7365,-3.07984,-1.68521,-42.1578
2023-03-11 22:45:05:793,-0.301007,0.602737,-9.72869,-3.08519,-1.68673,-42.1481
2023-03-11 22:45:05:803,-0.325699,0.608529,-9.73512,-3.09542,-1.68159,-42.1414
2023-03-11 22:45:05:813,-0.352739,0.616564,-9.73082,-3.1054,-1.67502,-42.132
2023-03-11 22:45:05:823,-0.384166,0.624467,-9.75423,-3.11739,-1.67275,-42.1283
2023-03-11 22:45:05:833,-0.404828,0.64746,-9.76598,-3.12381,-1.67091,-42.1272
2023-03-11 22:45:05:843,-0.409666,0.638645,-9.76483,-3.12656,-1.66831,-42.1307
2023-03-11 22:45:05:853,-0.400668,0.618157,-9.75045,-3.12768,-1.66151,-42.1368
2023-03-11 22:45:05:863,-0.371958,0.600108,-9.74377,-3.13072,-1.65223,-42.147
2023-03-11 22:45:05:873,-0.339001,0.59332,-9.75235,-3.13264,-1.64561,-42.1576
2023-03-11 22:45:05:883,-0.317891,0.610778,-9.77636,-3.1368,-1.63849,-42.1736
2023-03-11 22:45:05:893,-0.306935,0.611928,-9.78378,-3.13862,-1.63168,-42.1922
2023-03-11 22:45:05:903,-0.278665,0.602065,-9.78638,-3.13907,-1.62902,-42.2125
2023-03-11 22:45:05:913,-0.233352,0.60026,-9.78303,-3.13896,-1.62294,-42.2304
2023-03-11 22:45:05:923,-0.209165,0.594603,-9.80159,-3.14235,-1.61642,-42.2431
2023-03-11 22:45:05:933,-0.206122,0.599269,-9.78883,-3.14054,-1.61105,-42.2549
2023-03-11 22:45:05:943,-0.244332,0.592871,-9.78418,-3.14022,-1.60585,-42.2616
2023-03-11 22:45:05:953,-0.267321,0.601102,-9.78641,-3.14235,-1.59654,-42.2661
2023-03-11 22:45:05:963,-0.222533,0.602635,-9.80815,-3.13943,-1.5872,-42.2718
2023-03-11 22:45:05:973,-0.189307,0.610796,-9.82266,-3.13434,-1.57943,-42.2727
2023-03-11 22:45:05:983,-0.230979,0.592463,-9.81702,-3.1275,-1.57432,-42.2726
2023-03-11 22:45:05:993,-0.301519,0.579775,-9.78457,-3.11909,-1.56976,-42.2701
2023-03-11 22:45:06:3,-0.329488,0.575195,-9.75325,-3.10888,-1.57072,-42.2709
2023-03-11 22:45:06:13,-0.322662,0.557198,-9.75924,-3.10061,-1.57285,-42.2727
2023-03-11 22:45:06:23,-0.310552,0.55451,-9.75522,-3.09344,-1.56668,-42.2765
2023-03-11 22:45:06:33,-0.29342,0.56016,-9.75079,-3.08671,-1.56159,-42.2822
2023-03-11 22:45:06:43,-0.28223,0.569381,-9.74122,-3.08083,-1.55892,-42.2895
2023-03-11 22:45:06:53,-0.280042,0.558503,-9.73746,-3.0776,-1.5558,-42.2922
2023-03-11 22:45:06:63,-0.288794,0.566033,-9.7279,-3.07496,-1.5505,-42.2983
2023-03-11 22:45:06:73,-0.284708,0.565457,-9.72008,-3.07106,-1.54674,-42.3031
2023-03-11 22:45:06:83,-0.274485,0.565785,-9.72919,-3.07207,-1.54381,-42.3096
2023-03-11 22:45:06:92,-0.277085,0.564214,-9.75602,-3.0746,-1.54144,-42.3164
2023-03-11 22:45:06:103,-0.264634,0.558469,-9.76342,-3.07283,-1.53863,-42.3231
2023-03-11 22:45:06:112,-0.251944,0.552169,-9.77082,-3.06813,-1.534,-42.3299
2023-03-11 22:45:06:123,-0.243378,0.554548,-9.76387,-3.06524,-1.53228,-42.3333
2023-03-11 22:45:06:133,-0.224993,0.550494,-9.77151,-3.06119,-1.52782,-42.3359
2023-03-11 22:45:06:143,-0.227259,0.545239,-9.75604,-3.05664,-1.52282,-42.3361
2023-03-11 22:45:06:152,-0.232675,0.540294,-9.74168,-3.0547,-1.5222,-42.3374
2023-03-11 22:45:06:162,-0.235944,0.51903,-9.72367,-3.05225,-1.52082,-42.3378
2023-03-11 22:45:06:172,-0.242763,0.523086,-9.70667,-3.05461,-1.52344,-42.3355
2023-03-11 22:45:06:183,-0.250604,0.523686,-9.71121,-3.05887,-1.52424,-42.3327
2023-03-11 22:45:06:193,-0.262876,0.521775,-9.71943,-3.0676,-1.52717,-42.327
2023-03-11 22:45:06:203,-0.264908,0.541349,-9.73818,-3.07705,-1.52589,-42.3211
2023-03-11 22:45:06:213,-0.259266,0.555463,-9.77937,-3.0873,-1.52281,-42.3147
2023-03-11 22:45:06:223,-0.269833,0.563081,-9.78863,-3.09575,-1.52066,-42.3107
2023-03-11 22:45:06:233,-0.274967,0.558013,-9.79131,-3.10298,-1.52103,-42.3098
2023-03-11 22:45:06:243,-0.264625,0.552732,-9.80048,-3.11417,-1.51993,-42.3051
2023-03-11 22:45:06:253,-0.279166,0.56533,-9.79861,-3.12125,-1.52025,-42.2978
2023-03-11 22:45:06:263,-0.27871,0.580237,-9.78919,-3.12668,-1.51979,-42.2959
2023-03-11 22:45:06:273,-0.283923,0.57387,-9.79228,-3.12864,-1.51862,-42.2961
2023-03-11 22:45:06:283,-0.282312,0.570981,-9.78326,-3.12808,-1.51485,-42.2943
2023-03-11 22:45:06:293,-0.283452,0.558946,-9.78441,-3.12922,-1.51244,-42.2944
2023-03-11 22:45:06:303,-0.278871,0.556522,-9.77617,-3.13288,-1.51014,-42.2914
2023-03-11 22:45:06:313,-0.261268,0.56371,-9.76008,-3.1355,-1.50899,-42.2919
2023-03-11 22:45:06:323,-0.243447,0.562556,-9.75482,-3.13916,-1.50346,-42.2899
2023-03-11 22:45:06:333,-0.246667,0.559972,-9.74625,-3.1424,-1.50435,-42.2885
2023-03-11 22:45:06:343,-0.24716,0.553433,-9.73169,-3.14315,-1.50398,-42.2868
2023-03-11 22:45:06:353,-0.236024,0.560335,-9.73152,-3.14935,-1.50289,-42.2856
2023-03-11 22:45:06:363,-0.230659,0.572169,-9.72498,-3.15575,-1.50219,-42.2831
2023-03-11 22:45:06:373,-0.221349,0.568038,-9.7313,-3.1641,-1.50431,-42.2804
2023-03-11 22:45:06:383,-0.224591,0.56777,-9.7354,-3.17059,-1.50441,-42.2756
2023-03-11 22:45:06:393,-0.243445,0.561636,-9.73355,-3.17873,-1.50766,-42.2683
2023-03-11 22:45:06:403,-0.258751,0.567005,-9.74305,-3.1861,-1.51057,-42.2589
2023-03-11 22:45:06:413,-0.271207,0.580877,-9.75257,-3.19597,-1.51227,-42.2513
2023-03-11 22:45:06:423,-0.277123,0.585022,-9.76535,-3.20864,-1.51232,-42.2438
2023-03-11 22:45:06:433,-0.269188,0.596838,-9.79275,-3.2189,-1.50948,-42.2363
2023-03-11 22:45:06:443,-0.270453,0.59234,-9.80456,-3.22324,-1.50489,-42.2241
2023-03-11 22:45:06:453,-0.251276,0.604005,-9.80011,-3.23296,-1.50406,-42.2158
2023-03-11 22:45:06:463,-0.245922,0.597352,-9.80062,-3.2372,-1.50092,-42.2066
2023-03-11 22:45:06:473,-0.261777,0.589767,-9.78549,-3.24003,-1.50259,-42.1964
2023-03-11 22:45:06:483,-0.291805,0.584087,-9.77232,-3.24354,-1.506,-42.1868
2023-03-11 22:45:06:493,-0.306081,0.579925,-9.77037,-3.24843,-1.50757,-42.178
2023-03-11 22:45:06:503,-0.290775,0.582926,-9.79741,-3.25315,-1.51512,-42.1726
2023-03-11 22:45:06:513,-0.238764,0.586881,-9.80762,-3.25104,-1.51839,-42.1686
2023-03-11 22:45:06:523,-0.231616,0.576476,-9.77478,-3.24939,-1.526,-42.1611
2023-03-11 22:45:06:533,-0.28097,0.56593,-9.72528,-3.24828,-1.54258,-42.1516
2023-03-11 22:45:06:543,-0.333768,0.57661,-9.69946,-3.25254,-1.55602,-42.1415
2023-03-11 22:45:06:553,-0.337843,0.592202,-9.70461,-3.26035,-1.56804,-42.1361
2023-03-11 22:45:06:563,-0.336871,0.622944,-9.71045,-3.27019,-1.57629,-42.1288
2023-03-11 22:45:06:573,-0.335298,0.647015,-9.74922,-3.27843,-1.58153,-42.1223
2023-03-11 22:45:06:582,-0.344734,0.666905,-9.75823,-3.28764,-1.58194,-42.1179
2023-03-11 22:45:06:593,-0.355677,0.672374,-9.77559,-3.29424,-1.5808,-42.1124
2023-03-11 22:45:06:603,-0.37245,0.667398,-9.77547,-3.29641,-1.57896,-42.1125
2023-03-11 22:45:06:613,-0.372775,0.646678,-9.76027,-3.29548,-1.57521,-42.1123
2023-03-11 22:45:06:623,-0.353745,0.623912,-9.73974,-3.28973,-1.56934,-42.1153
2023-03-11 22:45:06:633,-0.337143,0.622182,-9.72636,-3.28529,-1.56687,-42.1238
2023-03-11 22:45:06:643,-0.321319,0.600223,-9.73615,-3.28354,-1.56275,-42.1326
2023-03-11 22:45:06:653,-0.315615,0.57779,-9.74469,-3.282,-1.55926,-42.139
2023-03-11 22:45:06:663,-0.308575,0.581214,-9.76881,-3.28344,-1.55672,-42.1507
2023-03-11 22:45:06:673,-0.281542,0.595254,-9.80016,-3.28591,-1.55425,-42.1587
2023-03-11 22:45:06:683,-0.252131,0.603876,-9.79604,-3.28917,-1.54825,-42.1704
2023-03-11 22:45:06:693,-0.230621,0.610625,-9.80661,-3.29557,-1.5422,-42.1818
2023-03-11 22:45:06:703,-0.208469,0.603068,-9.82035,-3.29668,-1.5418,-42.188
2023-03-11 22:45:06:713,-0.228932,0.610607,-9.82959,-3.29731,-1.53935,-42.1856
2023-03-11 22:45:06:723,-0.261445,0.622279,-9.81154,-3.29544,-1.53719,-42.185
2023-03-11 22:45:06:733,-0.258258,0.619594,-9.79566,-3.28975,-1.53305,-42.1851
2023-03-11 22:45:06:743,-0.205007,0.609552,-9.79129,-3.27883,-1.53138,-42.1826
2023-03-11 22:45:06:753,-0.195675,0.578732,-9.78523,-3.27069,-1.52649,-42.177
2023-03-11 22:45:06:763,-0.242768,0.565046,-9.7591,-3.26232,-1.5272,-42.168
2023-03-11 22:45:06:773,-0.300798,0.55548,-9.73906,-3.24767,-1.53281,-42.1609
2023-03-11 22:45:06:783,-0.309517,0.553582,-9.72403,-3.23785,-1.53526,-42.152
2023-03-11 22:45:06:793,-0.296421,0.552778,-9.70484,-3.23212,-1.53971,-42.1519
2023-03-11 22:45:06:803,-0.27583,0.545286,-9.71021,-3.227,-1.54169,-42.1485
2023-03-11 22:45:06:813,-0.2736,0.547287,-9.71162,-3.22471,-1.54392,-42.146
2023-03-11 22:45:06:823,-0.28996,0.551998,-9.71261,-3.224,-1.54547,-42.1415
2023-03-11 22:45:06:833,-0.292699,0.554166,-9.71146,-3.22141,-1.54878,-42.1364
2023-03-11 22:45:06:843,-0.283116,0.558864,-9.71678,-3.22448,-1.5527,-42.1346
2023-03-11 22:45:06:853,-0.2692,0.569037,-9.71908,-3.22656,-1.55746,-42.1365
2023-03-11 22:45:06:863,-0.258358,0.561431,-9.74943,-3.23064,-1.56078,-42.1363
2023-03-11 22:45:06:873,-0.277978,0.575455,-9.76934,-3.23611,-1.56414,-42.1362
2023-03-11 22:45:06:883,-0.288626,0.58678,-9.78633,-3.24208,-1.56531,-42.1349
2023-03-11 22:45:06:893,-0.277895,0.573428,-9.79319,-3.24707,-1.56822,-42.1347
2023-03-11 22:45:06:903,-0.267346,0.578364,-9.78732,-3.24962,-1.5667,-42.1342
2023-03-11 22:45:06:913,-0.271438,0.578144,-9.78516,-3.24869,-1.57157,-42.1306
2023-03-11 22:45:06:923,-0.283792,0.574458,-9.7739,-3.24664,-1.57086,-42.1288
2023-03-11 22:45:06:933,-0.281536,0.576488,-9.74975,-3.2472,-1.57445,-42.1268
2023-03-11 22:45:06:943,-0.288372,0.592068,-9.73563,-3.24925,-1.57771,-42.1258
2023-03-11 22:45:06:953,-0.300506,0.590129,-9.73655,-3.24881,-1.579,-42.1217
2023-03-11 22:45:06:963,-0.306934,0.586253,-9.75018,-3.24867,-1.5759,-42.119
2023-03-11 22:45:06:973,-0.306502,0.593867,-9.76069,-3.2506,-1.5769,-42.1157
2023-03-11 22:45:06:983,-0.327863,0.608732,-9.76525,-3.25259,-1.5747,-42.1127
2023-03-11 22:45:06:993,-0.33342,0.613394,-9.76343,-3.25693,-1.5736,-42.1118
2023-03-11 22:45:07:3,-0.334688,0.614392,-9.75937,-3.25922,-1.57282,-42.1135
2023-03-11 22:45:07:12,-0.341044,0.600351,-9.74998,-3.26142,-1.56999,-42.1148
2023-03-11 22:45:07:23,-0.330671,0.602295,-9.73728,-3.26226,-1.56656,-42.1184
2023-03-11 22:45:07:32,-0.320551,0.600514,-9.73007,-3.26504,-1.56103,-42.1234
2023-03-11 22:45:07:43,-0.298585,0.584151,-9.7419,-3.26793,-1.56057,-42.1321
2023-03-11 22:45:07:53,-0.285704,0.579321,-9.74517,-3.26671,-1.55666,-42.1419
2023-03-11 22:45:07:63,-0.294014,0.57494,-9.75237,-3.26644,-1.55386,-42.1496
2023-03-11 22:45:07:73,-0.273625,0.583751,-9.74954,-3.26723,-1.54865,-42.1576
2023-03-11 22:45:07:83,-0.256846,0.574609,-9.7506,-3.26994,-1.54446,-42.1648
2023-03-11 22:45:07:93,-0.231741,0.591735,-9.73512,-3.27155,-1.54332,-42.1676
2023-03-11 22:45:07:103,-0.234789,0.584245,-9.72921,-3.27528,-1.54119,-42.1672
2023-03-11 22:45:07:113,-0.252931,0.589758,-9.73076,-3.27923,-1.53848,-42.1653
2023-03-11 22:45:07:123,-0.264497,0.605338,-9.73696,-3.28369,-1.53466,-42.163
2023-03-11 22:45:07:133,-0.25839,0.608796,-9.74573,-3.28571,-1.53009,-42.1617
2023-03-11 22:45:07:143,-0.248766,0.6095,-9.74884,-3.29231,-1.52634,-42.1587
2023-03-11 22:45:07:153,-0.254308,0.605851,-9.76475,-3.29792,-1.52514,-42.1529
2023-03-11 22:45:07:163,-0.271591,0.606805,-9.79581,-3.30335,-1.52565,-42.146
2023-03-11 22:45:07:173,-0.294226,0.610698,-9.80866,-3.30749,-1.52484,-42.1424
2023-03-11 22:45:07:183,-0.296212,0.616054,-9.7999,-3.30983,-1.52108,-42.1402
2023-03-11 22:45:07:192,-0.285751,0.599201,-9.80277,-3.3116,-1.52055,-42.1369
2023-03-11 22:45:07:203,-0.311022,0.614435,-9.78124,-3.30787,-1.52565,-42.1358
2023-03-11 22:45:07:213,-0.312429,0.600447,-9.76524,-3.30608,-1.52904,-42.1394
2023-03-11 22:45:07:223,-0.291993,0.584809,-9.75621,-3.30871,-1.53118,-42.1414
2023-03-11 22:45:07:233,-0.28055,0.57063,-9.76559,-3.30642,-1.53139,-42.143
2023-03-11 22:45:07:243,-0.281392,0.557361,-9.77087,-3.30376,-1.53346,-42.1507
2023-03-11 22:45:07:253,-0.246595,0.555975,-9.77586,-3.30328,-1.53514,-42.155
2023-03-11 22:45:07:263,-0.206169,0.572743,-9.78691,-3.30208,-1.53856,-42.1567
2023-03-11 22:45:07:273,-0.177407,0.571044,-9.78111,-3.30321,-1.54045,-42.1575
2023-03-11 22:45:07:283,-0.202396,0.552599,-9.72784,-3.3013,-1.55038,-42.1538
2023-03-11 22:45:07:293,-0.266933,0.550782,-9.67985,-3.30532,-1.55836,-42.148
2023-03-11 22:45:07:303,-0.302081,0.578269,-9.68904,-3.31335,-1.56521,-42.1403
2023-03-11 22:45:07:313,-0.290749,0.618512,-9.71094,-3.32487,-1.56842,-42.1359
2023-03-11 22:45:07:323,-0.288871,0.641928,-9.74209,-3.33398,-1.5705,-42.1277
2023-03-11 22:45:07:333,-0.305696,0.650694,-9.73741,-3.34638,-1.56539,-42.1205
2023-03-11 22:45:07:343,-0.323231,0.668513,-9.73318,-3.36139,-1.55779,-42.1129
2023-03-11 22:45:07:353,-0.365941,0.684135,-9.75277,-3.37157,-1.55274,-42.1071
2023-03-11 22:45:07:363,-0.38286,0.685226,-9.74562,-3.38109,-1.54681,-42.1067
2023-03-11 22:45:07:373,-0.357135,0.679582,-9.74075,-3.38741,-1.54035,-42.1111
2023-03-11 22:45:07:383,-0.334264,0.649781,-9.73962,-3.39109,-1.53212,-42.1205
2023-03-11 22:45:07:393,-0.305381,0.634308,-9.73027,-3.39277,-1.52474,-42.1334
2023-03-11 22:45:07:403,-0.291378,0.628019,-9.76674,-3.39933,-1.51597,-42.1454
2023-03-11 22:45:07:413,-0.269131,0.639002,-9.79535,-3.40769,-1.50895,-42.1553
2023-03-11 22:45:07:423,-0.233594,0.649959,-9.8419,-3.41511,-1.50044,-42.1654
2023-03-11 22:45:07:433,-0.218962,0.681329,-9.85966,-3.42206,-1.49651,-42.1762
2023-03-11 22:45:07:443,-0.195502,0.675273,-9.85687,-3.42567,-1.49189,-42.1808
2023-03-11 22:45:07:453,-0.17567,0.681775,-9.84584,-3.4246,-1.48857,-42.1823
2023-03-11 22:45:07:463,-0.22703,0.683012,-9.82867,-3.42314,-1.49161,-42.1822
2023-03-11 22:45:07:473,-0.310996,0.678465,-9.81056,-3.41622,-1.48884,-42.1812
2023-03-11 22:45:07:483,-0.30924,0.675862,-9.80464,-3.40682,-1.48506,-42.1846
2023-03-11 22:45:07:493,-0.229362,0.667195,-9.82078,-3.39434,-1.47795,-42.1855
2023-03-11 22:45:07:503,-0.197159,0.659667,-9.81207,-3.37874,-1.47402,-42.1831
2023-03-11 22:45:07:513,-0.235656,0.63919,-9.8032,-3.36051,-1.47704,-42.1792
2023-03-11 22:45:07:523,-0.280392,0.645037,-9.80155,-3.34104,-1.48133,-42.1771
2023-03-11 22:45:07:533,-0.289887,0.621484,-9.78875,-3.32187,-1.48347,-42.1752
2023-03-11 22:45:07:543,-0.275957,0.608199,-9.76537,-3.30105,-1.48624,-42.1728
2023-03-11 22:45:07:553,-0.276132,0.596183,-9.73382,-3.27684,-1.49089,-42.1696
2023-03-11 22:45:07:563,-0.27518,0.567462,-9.694,-3.25521,-1.49223,-42.1631
2023-03-11 22:45:07:573,-0.265708,0.564396,-9.68768,-3.2345,-1.49223,-42.1592
2023-03-11 22:45:07:583,-0.26962,0.557638,-9.6794,-3.22162,-1.4878,-42.1553
2023-03-11 22:45:07:593,-0.276709,0.554313,-9.70553,-3.21302,-1.48308,-42.15
2023-03-11 22:45:07:603,-0.276842,0.556995,-9.73167,-3.20626,-1.48322,-42.1457
2023-03-11 22:45:07:613,-0.285903,0.57393,-9.76924,-3.19471,-1.48255,-42.1444
2023-03-11 22:45:07:623,-0.287344,0.588221,-9.77741,-3.18326,-1.47895,-42.144
2023-03-11 22:45:07:633,-0.280195,0.568368,-9.77438,-3.17036,-1.47544,-42.1415
2023-03-11 22:45:07:643,-0.264689,0.553193,-9.77796,-3.15647,-1.47601,-42.1385
2023-03-11 22:45:07:653,-0.237224,0.541709,-9.76066,-3.14144,-1.473,-42.1343
2023-03-11 22:45:07:663,-0.230543,0.519307,-9.73489,-3.12562,-1.47153,-42.1284
2023-03-11 22:45:07:673,-0.237929,0.500701,-9.69382,-3.1123,-1.46952,-42.1194
2023-03-11 22:45:07:683,-0.233222,0.482036,-9.67186,-3.10142,-1.46681,-42.1107
2023-03-11 22:45:07:693,-0.238855,0.487834,-9.6883,-3.09471,-1.46307,-42.101
2023-03-11 22:45:07:702,-0.251067,0.511154,-9.71053,-3.09126,-1.4614,-42.0919
2023-03-11 22:45:07:713,-0.254924,0.5209,-9.72441,-3.0931,-1.45957,-42.083
2023-03-11 22:45:07:723,-0.267012,0.535546,-9.7371,-3.09486,-1.45825,-42.0711
2023-03-11 22:45:07:733,-0.276249,0.537726,-9.75585,-3.09914,-1.45823,-42.061
2023-03-11 22:45:07:743,-0.276307,0.547751,-9.76555,-3.10301,-1.45523,-42.0513
2023-03-11 22:45:07:753,-0.274254,0.551455,-9.77931,-3.10206,-1.4537,-42.046
2023-03-11 22:45:07:763,-0.282337,0.551732,-9.77343,-3.10156,-1.45055,-42.041
2023-03-11 22:45:07:773,-0.271087,0.542219,-9.7602,-3.10364,-1.45228,-42.0381
2023-03-11 22:45:07:783,-0.267098,0.541053,-9.75569,-3.10409,-1.45547,-42.0358
2023-03-11 22:45:07:793,-0.245382,0.532183,-9.76309,-3.10378,-1.45815,-42.0365
2023-03-11 22:45:07:803,-0.241653,0.533512,-9.76881,-3.10305,-1.45721,-42.0386
2023-03-11 22:45:07:813,-0.227696,0.541142,-9.77793,-3.10288,-1.45752,-42.04
2023-03-11 22:45:07:823,-0.226305,0.540049,-9.76398,-3.1037,-1.461,-42.0394
2023-03-11 22:45:07:833,-0.222983,0.525654,-9.7486,-3.10375,-1.46469,-42.0391
2023-03-11 22:45:07:843,-0.218579,0.529445,-9.73608,-3.10373,-1.46927,-42.0358
2023-03-11 22:45:07:853,-0.218329,0.534931,-9.7422,-3.11227,-1.47253,-42.0294
2023-03-11 22:45:07:863,-0.226078,0.533856,-9.74601,-3.11654,-1.47816,-42.0227
2023-03-11 22:45:07:873,-0.252367,0.555466,-9.73822,-3.11815,-1.48405,-42.013
2023-03-11 22:45:07:883,-0.245389,0.55949,-9.73693,-3.12111,-1.48731,-42.0044
2023-03-11 22:45:07:893,-0.243581,0.556787,-9.73425,-3.12798,-1.4887,-41.9964
2023-03-11 22:45:07:903,-0.266788,0.550429,-9.75687,-3.13409,-1.49173,-41.9872
2023-03-11 22:45:07:913,-0.29491,0.559467,-9.77837,-3.1402,-1.49668,-41.9784
2023-03-11 22:45:07:923,-0.294714,0.584178,-9.79619,-3.14665,-1.50066,-41.9722
2023-03-11 22:45:07:933,-0.287644,0.594665,-9.79875,-3.14973,-1.50534,-41.9677
2023-03-11 22:45:07:943,-0.270942,0.582548,-9.79091,-3.14807,-1.50643,-41.9636
2023-03-11 22:45:07:953,-0.287797,0.559753,-9.77219,-3.14938,-1.51157,-41.9593
2023-03-11 22:45:07:963,-0.288793,0.548916,-9.76426,-3.14972,-1.51609,-41.9576
2023-03-11 22:45:07:973,-0.278142,0.558797,-9.77246,-3.14844,-1.52024,-41.9582
2023-03-11 22:45:07:983,-0.278986,0.56294,-9.79665,-3.1495,-1.52756,-41.957
2023-03-11 22:45:07:993,-0.288968,0.576784,-9.81967,-3.15051,-1.53197,-41.9559
2023-03-11 22:45:08:3,-0.233755,0.590077,-9.83508,-3.14977,-1.53725,-41.9553
2023-03-11 22:45:08:13,-0.176913,0.5863,-9.81893,-3.14361,-1.54558,-41.9546
2023-03-11 22:45:08:23,-0.186541,0.555518,-9.77648,-3.1363,-1.55847,-41.9489
2023-03-11 22:45:08:33,-0.240553,0.535553,-9.72249,-3.13068,-1.57267,-41.9355
2023-03-11 22:45:08:43,-0.292629,0.553243,-9.6809,-3.12867,-1.58616,-41.9262
2023-03-11 22:45:08:53,-0.322868,0.570659,-9.67693,-3.1261,-1.59635,-41.9181
2023-03-11 22:45:08:63,-0.330546,0.580776,-9.69484,-3.1309,-1.60246,-41.9077
2023-03-11 22:45:08:73,-0.326489,0.597193,-9.69821,-3.13946,-1.60789,-41.8978
2023-03-11 22:45:08:83,-0.348819,0.61027,-9.70551,-3.14691,-1.61016,-41.8879
2023-03-11 22:45:08:93,-0.369681,0.615031,-9.71611,-3.15382,-1.60685,-41.8809
2023-03-11 22:45:08:103,-0.400466,0.631243,-9.72209,-3.16034,-1.60685,-41.8776
2023-03-11 22:45:08:113,-0.408774,0.628311,-9.72783,-3.16505,-1.60289,-41.8791
2023-03-11 22:45:08:123,-0.382173,0.622646,-9.74626,-3.16864,-1.59811,-41.8861
2023-03-11 22:45:08:133,-0.352868,0.590823,-9.74713,-3.17074,-1.59557,-41.8941
2023-03-11 22:45:08:143,-0.335594,0.590094,-9.73911,-3.17058,-1.59301,-41.9045
2023-03-11 22:45:08:153,-0.313135,0.579796,-9.74537,-3.17465,-1.59001,-41.9186
2023-03-11 22:45:08:163,-0.288323,0.569587,-9.75971,-3.18331,-1.58552,-41.9334
2023-03-11 22:45:08:173,-0.279309,0.573162,-9.7754,-3.1918,-1.57871,-41.946
2023-03-11 22:45:08:183,-0.258001,0.584537,-9.78777,-3.20206,-1.57572,-41.9634
2023-03-11 22:45:08:193,-0.214163,0.577542,-9.79339,-3.21295,-1.57188,-41.9748
2023-03-11 22:45:08:203,-0.209393,0.584734,-9.80638,-3.22323,-1.56723,-41.9816
2023-03-11 22:45:08:213,-0.239484,0.602129,-9.82588,-3.22815,-1.56518,-41.9846
2023-03-11 22:45:08:222,-0.258785,0.613251,-9.83823,-3.23133,-1.56403,-41.9882
2023-03-11 22:45:08:232,-0.225341,0.612448,-9.84076,-3.2312,-1.56201,-41.9909
2023-03-11 22:45:08:242,-0.17134,0.606772,-9.85136,-3.22559,-1.5542,-41.99
2023-03-11 22:45:08:253,-0.173588,0.583725,-9.81494,-3.22042,-1.55335,-41.9884
2023-03-11 22:45:08:263,-0.234342,0.562935,-9.79432,-3.21641,-1.55628,-41.9805
2023-03-11 22:45:08:273,-0.27921,0.566737,-9.75581,-3.20784,-1.55798,-41.9786
2023-03-11 22:45:08:283,-0.297945,0.54932,-9.72672,-3.20036,-1.56031,-41.9737
2023-03-11 22:45:08:293,-0.317859,0.540079,-9.69717,-3.19516,-1.56313,-41.971
2023-03-11 22:45:08:303,-0.319704,0.5333,-9.70264,-3.19444,-1.56287,-41.9676
2023-03-11 22:45:08:313,-0.300315,0.53847,-9.73005,-3.19308,-1.56402,-41.9649
2023-03-11 22:45:08:323,-0.310379,0.554988,-9.73895,-3.19715,-1.56389,-41.9627
2023-03-11 22:45:08:333,-0.323468,0.560556,-9.75442,-3.1978,-1.56436,-41.9614
2023-03-11 22:45:08:343,-0.320486,0.560173,-9.753,-3.19876,-1.56835,-41.9654
2023-03-11 22:45:08:353,-0.306864,0.565859,-9.74392,-3.20347,-1.56714,-41.9674
2023-03-11 22:45:08:363,-0.30158,0.563496,-9.73868,-3.20498,-1.56889,-41.9697
2023-03-11 22:45:08:373,-0.298811,0.55869,-9.72749,-3.20684,-1.56478,-41.9753
2023-03-11 22:45:08:383,-0.280874,0.559994,-9.72631,-3.20899,-1.56468,-41.9798
2023-03-11 22:45:08:393,-0.260944,0.561687,-9.73691,-3.21703,-1.56026,-41.9881
2023-03-11 22:45:08:403,-0.256499,0.564363,-9.7325,-3.22651,-1.56046,-41.9917
2023-03-11 22:45:08:413,-0.251092,0.567929,-9.74913,-3.23109,-1.55883,-41.9965
2023-03-11 22:45:08:423,-0.249544,0.584327,-9.76449,-3.24046,-1.55685,-41.9967
2023-03-11 22:45:08:433,-0.250028,0.5802,-9.76836,-3.24731,-1.55725,-42.0002
2023-03-11 22:45:08:443,-0.267025,0.582669,-9.75918,-3.25467,-1.55833,-41.9996
2023-03-11 22:45:08:453,-0.288108,0.593706,-9.75091,-3.26201,-1.55768,-41.9961
2023-03-11 22:45:08:463,-0.303457,0.601293,-9.75419,-3.26964,-1.55654,-41.9959
2023-03-11 22:45:08:473,-0.308256,0.613727,-9.78374,-3.27928,-1.55189,-41.9923
2023-03-11 22:45:08:483,-0.30186,0.629418,-9.80816,-3.28799,-1.54725,-41.9902
2023-03-11 22:45:08:493,-0.315663,0.652748,-9.80699,-3.29502,-1.54126,-41.9904
2023-03-11 22:45:08:503,-0.299511,0.635971,-9.8113,-3.29779,-1.53564,-41.9962
2023-03-11 22:45:08:513,-0.299557,0.62895,-9.8068,-3.29779,-1.53117,-42.0036
2023-03-11 22:45:08:523,-0.306572,0.635464,-9.79264,-3.29615,-1.5268,-42.0113
2023-03-11 22:45:08:533,-0.292419,0.615072,-9.77709,-3.29381,-1.52108,-42.021
2023-03-11 22:45:08:543,-0.264074,0.603753,-9.76038,-3.29095,-1.51684,-42.0318
2023-03-11 22:45:08:553,-0.251351,0.582465,-9.76576,-3.28766,-1.51285,-42.042
2023-03-11 22:45:08:563,-0.234954,0.571831,-9.75329,-3.2856,-1.51256,-42.0548
2023-03-11 22:45:08:573,-0.206741,0.581342,-9.74837,-3.2833,-1.50847,-42.061
2023-03-11 22:45:08:583,-0.19014,0.584292,-9.7518,-3.28111,-1.50711,-42.0703
2023-03-11 22:45:08:593,-0.197381,0.585018,-9.74004,-3.27996,-1.50799,-42.075
2023-03-11 22:45:08:603,-0.195566,0.58054,-9.72762,-3.28039,-1.50645,-42.0779
2023-03-11 22:45:08:613,-0.207845,0.573062,-9.71966,-3.27789,-1.50281,-42.0769
2023-03-11 22:45:08:623,-0.211687,0.573656,-9.72636,-3.27804,-1.49903,-42.075
2023-03-11 22:45:08:632,-0.213892,0.595064,-9.73513,-3.27926,-1.49734,-42.0663
2023-03-11 22:45:08:643,-0.216815,0.593017,-9.74085,-3.28473,-1.49341,-42.0573
2023-03-11 22:45:08:653,-0.233877,0.592182,-9.76518,-3.28303,-1.49072,-42.0497
2023-03-11 22:45:08:663,-0.26902,0.596998,-9.79284,-3.2843,-1.49226,-42.04
2023-03-11 22:45:08:673,-0.27734,0.599688,-9.81856,-3.28678,-1.49198,-42.0291
2023-03-11 22:45:08:683,-0.274178,0.604,-9.81034,-3.288,-1.48801,-42.0221
2023-03-11 22:45:08:693,-0.277439,0.590727,-9.78443,-3.28576,-1.48292,-42.0185
2023-03-11 22:45:08:703,-0.278949,0.580431,-9.77933,-3.28254,-1.48405,-42.0167
2023-03-11 22:45:08:713,-0.278238,0.579452,-9.76027,-3.28193,-1.48536,-42.0144
2023-03-11 22:45:08:723,-0.277003,0.564721,-9.74698,-3.2793,-1.4863,-42.0166
2023-03-11 22:45:08:733,-0.270979,0.55061,-9.74851,-3.28336,-1.48992,-42.0204
2023-03-11 22:45:08:743,-0.249583,0.558035,-9.76386,-3.28406,-1.49405,-42.024
2023-03-11 22:45:08:753,-0.206064,0.578212,-9.78982,-3.28514,-1.4978,-42.0235
2023-03-11 22:45:08:763,-0.157647,0.580978,-9.78726,-3.285,-1.50246,-42.023
2023-03-11 22:45:08:773,-0.148344,0.567131,-9.7592,-3.28568,-1.51235,-42.0192
2023-03-11 22:45:08:783,-0.201568,0.557139,-9.72155,-3.2841,-1.52609,-42.0105
2023-03-11 22:45:08:793,-0.256319,0.570141,-9.69669,-3.28879,-1.53405,-42.002
2023-03-11 22:45:08:803,-0.287321,0.585821,-9.6889,-3.29311,-1.54217,-41.9914
2023-03-11 22:45:08:813,-0.307137,0.590383,-9.68824,-3.30294,-1.54681,-41.9803
2023-03-11 22:45:08:823,-0.301061,0.599539,-9.69638,-3.31401,-1.54984,-41.9659
2023-03-11 22:45:08:833,-0.31287,0.619944,-9.72128,-3.32519,-1.5454,-41.954
2023-03-11 22:45:08:843,-0.341515,0.647896,-9.75455,-3.34056,-1.5394,-41.9435
2023-03-11 22:45:08:853,-0.342557,0.667581,-9.77964,-3.34936,-1.53886,-41.9374
2023-03-11 22:45:08:863,-0.357942,0.671173,-9.80141,-3.36072,-1.53434,-41.9359
2023-03-11 22:45:08:873,-0.362711,0.654941,-9.796,-3.36505,-1.53086,-41.9407
2023-03-11 22:45:08:883,-0.337298,0.634561,-9.75883,-3.36569,-1.52691,-41.9475
2023-03-11 22:45:08:893,-0.327053,0.604348,-9.74726,-3.3652,-1.52432,-41.9602
2023-03-11 22:45:08:903,-0.296509,0.586919,-9.74302,-3.36715,-1.52136,-41.9695
2023-03-11 22:45:08:913,-0.266274,0.600073,-9.7434,-3.37191,-1.51743,-41.9814
2023-03-11 22:45:08:923,-0.243729,0.59163,-9.7686,-3.37833,-1.51864,-41.9908
2023-03-11 22:45:08:933,-0.222163,0.578431,-9.75642,-3.3824,-1.51699,-42.0016
2023-03-11 22:45:08:943,-0.199629,0.583207,-9.75124,-3.3908,-1.51327,-42.0093
2023-03-11 22:45:08:953,-0.19829,0.576563,-9.77086,-3.39936,-1.51251,-42.0117
2023-03-11 22:45:08:963,-0.225983,0.597002,-9.7796,-3.4094,-1.51055,-42.0094
2023-03-11 22:45:08:973,-0.261754,0.631451,-9.80213,-3.41795,-1.50989,-42.0069
2023-03-11 22:45:08:983,-0.235362,0.637106,-9.82912,-3.42144,-1.50349,-42.0072
2023-03-11 22:45:08:993,-0.180485,0.613433,-9.83445,-3.42157,-1.49748,-42.0015
2023-03-11 22:45:09:3,-0.205516,0.604708,-9.81085,-3.41978,-1.49302,-41.9955
2023-03-11 22:45:09:13,-0.260281,0.613415,-9.78119,-3.41536,-1.49406,-41.9876
2023-03-11 22:45:09:23,-0.297033,0.593398,-9.76529,-3.41527,-1.4957,-41.9814
2023-03-11 22:45:09:33,-0.314565,0.600672,-9.73617,-3.41337,-1.49617,-41.9732
2023-03-11 22:45:09:43,-0.321803,0.595676,-9.71854,-3.40937,-1.49874,-41.9718
2023-03-11 22:45:09:53,-0.312169,0.579929,-9.70217,-3.40877,-1.49626,-41.969
2023-03-11 22:45:09:63,-0.284413,0.571157,-9.70834,-3.41019,-1.49741,-41.9695
2023-03-11 22:45:09:73,-0.283663,0.580776,-9.72909,-3.41385,-1.49739,-41.9696
2023-03-11 22:45:09:83,-0.301946,0.610511,-9.72929,-3.42028,-1.49625,-41.9654
2023-03-11 22:45:09:93,-0.299256,0.616916,-9.75159,-3.42645,-1.49264,-41.9725
2023-03-11 22:45:09:103,-0.288414,0.637227,-9.7583,-3.43468,-1.49242,-41.973
2023-03-11 22:45:09:113,-0.283676,0.658841,-9.77363,-3.44426,-1.49333,-41.9762
2023-03-11 22:45:09:123,-0.269865,0.660996,-9.77525,-3.45303,-1.49036,-41.9796
2023-03-11 22:45:09:133,-0.264988,0.635726,-9.76787,-3.45945,-1.48974,-41.9826
2023-03-11 22:45:09:143,-0.266372,0.627158,-9.75571,-3.46101,-1.48557,-41.9856
2023-03-11 22:45:09:153,-0.259378,0.623129,-9.74863,-3.46428,-1.48296,-41.9879
2023-03-11 22:45:09:163,-0.261337,0.631894,-9.74492,-3.46968,-1.48589,-41.9888
2023-03-11 22:45:09:173,-0.252107,0.630425,-9.74825,-3.47559,-1.48389,-41.9916
2023-03-11 22:45:09:183,-0.267202,0.632136,-9.74373,-3.48013,-1.47719,-41.9898
2023-03-11 22:45:09:193,-0.25859,0.638516,-9.74896,-3.48804,-1.47275,-41.9887
2023-03-11 22:45:09:203,-0.27714,0.653379,-9.76482,-3.49397,-1.46874,-41.9895
2023-03-11 22:45:09:213,-0.288658,0.668754,-9.78653,-3.499,-1.46647,-41.9902
2023-03-11 22:45:09:223,-0.292566,0.674899,-9.81046,-3.50226,-1.46296,-41.984
2023-03-11 22:45:09:233,-0.300529,0.6724,-9.8124,-3.5006,-1.45992,-41.9828
2023-03-11 22:45:09:243,-0.303388,0.681391,-9.80015,-3.49974,-1.45143,-41.984
2023-03-11 22:45:09:253,-0.296678,0.677736,-9.77634,-3.49897,-1.44865,-41.9858
2023-03-11 22:45:09:263,-0.296138,0.672376,-9.78428,-3.49816,-1.44453,-41.9908
2023-03-11 22:45:09:273,-0.295324,0.674489,-9.78073,-3.49531,-1.43784,-41.9992
2023-03-11 22:45:09:283,-0.274347,0.668995,-9.77687,-3.49208,-1.43341,-42.0099
2023-03-11 22:45:09:293,-0.262848,0.654073,-9.7791,-3.48547,-1.42862,-42.0196
2023-03-11 22:45:09:303,-0.243103,0.660028,-9.75742,-3.48017,-1.42537,-42.031
2023-03-11 22:45:09:313,-0.220596,0.64074,-9.7647,-3.4748,-1.41818,-42.0392
2023-03-11 22:45:09:323,-0.193403,0.620758,-9.76861,-3.46828,-1.4136,-42.0488
2023-03-11 22:45:09:333,-0.166839,0.615551,-9.75953,-3.45976,-1.41001,-42.0546
2023-03-11 22:45:09:343,-0.174732,0.611826,-9.76333,-3.45427,-1.40976,-42.0581
2023-03-11 22:45:09:353,-0.173528,0.616018,-9.74981,-3.45047,-1.4098,-42.059
2023-03-11 22:45:09:363,-0.173403,0.617352,-9.75347,-3.44851,-1.4081,-42.0625
2023-03-11 22:45:09:373,-0.163337,0.601805,-9.75382,-3.44599,-1.40662,-42.0599
2023-03-11 22:45:09:383,-0.168211,0.606267,-9.74633,-3.44161,-1.40556,-42.053
2023-03-11 22:45:09:393,-0.182352,0.597009,-9.73031,-3.43757,-1.41033,-42.0464
2023-03-11 22:45:09:403,-0.207068,0.583421,-9.72317,-3.43131,-1.41259,-42.0407
2023-03-11 22:45:09:413,-0.214165,0.593003,-9.72776,-3.42863,-1.4215,-42.0316
2023-03-11 22:45:09:423,-0.231615,0.589509,-9.75329,-3.42412,-1.42881,-42.023
2023-03-11 22:45:09:433,-0.250296,0.589711,-9.76738,-3.42165,-1.43435,-42.01
2023-03-11 22:45:09:443,-0.245239,0.59632,-9.78411,-3.41876,-1.4375,-42.0048
2023-03-11 22:45:09:453,-0.243909,0.592531,-9.79238,-3.41611,-1.43863,-41.9965
2023-03-11 22:45:09:463,-0.257917,0.587027,-9.77676,-3.40901,-1.4451,-41.9902
2023-03-11 22:45:09:473,-0.257899,0.568336,-9.75807,-3.40152,-1.44701,-41.9841
2023-03-11 22:45:09:483,-0.250158,0.557713,-9.76419,-3.39319,-1.45457,-41.979
2023-03-11 22:45:09:493,-0.263666,0.551335,-9.75833,-3.38628,-1.45943,-41.9751
2023-03-11 22:45:09:503,-0.260083,0.540007,-9.75101,-3.38152,-1.46645,-41.9722
2023-03-11 22:45:09:513,-0.236595,0.540828,-9.76042,-3.37918,-1.47159,-41.9703
2023-03-11 22:45:09:523,-0.183186,0.554648,-9.7695,-3.37881,-1.47835,-41.9664
2023-03-11 22:45:09:533,-0.167559,0.547251,-9.75265,-3.37515,-1.4896,-41.9568
2023-03-11 22:45:09:543,-0.223329,0.539533,-9.72096,-3.37663,-1.5005,-41.9467
2023-03-11 22:45:09:553,-0.266311,0.554909,-9.70078,-3.38295,-1.51298,-41.9381
2023-03-11 22:45:09:563,-0.27364,0.584897,-9.69923,-3.39156,-1.52089,-41.9288
2023-03-11 22:45:09:573,-0.276998,0.615818,-9.71324,-3.40655,-1.52849,-41.9165
2023-03-11 22:45:09:583,-0.299713,0.64262,-9.72912,-3.41853,-1.53504,-41.9044
2023-03-11 22:45:09:593,-0.334622,0.657359,-9.73824,-3.42894,-1.53596,-41.8962
2023-03-11 22:45:09:603,-0.341292,0.667687,-9.75089,-3.43848,-1.53734,-41.8867
2023-03-11 22:45:09:613,-0.354069,0.679714,-9.73904,-3.44557,-1.53608,-41.8839
2023-03-11 22:45:09:622,-0.369806,0.668926,-9.73363,-3.44776,-1.53878,-41.8853
2023-03-11 22:45:09:633,-0.343887,0.653878,-9.73228,-3.45157,-1.5362,-41.889
2023-03-11 22:45:09:643,-0.314804,0.630226,-9.73466,-3.45298,-1.53423,-41.8951
2023-03-11 22:45:09:653,-0.298674,0.617765,-9.73963,-3.45701,-1.53568,-41.9026
2023-03-11 22:45:09:663,-0.275462,0.612168,-9.76005,-3.46198,-1.53761,-41.9058
2023-03-11 22:45:09:673,-0.252887,0.612467,-9.7736,-3.47068,-1.53718,-41.9112
2023-03-11 22:45:09:683,-0.238009,0.617222,-9.80227,-3.47792,-1.53545,-41.9163
2023-03-11 22:45:09:693,-0.224068,0.621852,-9.80577,-3.4889,-1.53626,-41.9187
2023-03-11 22:45:09:703,-0.198723,0.628249,-9.79883,-3.50158,-1.53734,-41.9163
2023-03-11 22:45:09:713,-0.2124,0.637277,-9.80296,-3.50797,-1.54285,-41.9139
2023-03-11 22:45:09:723,-0.257698,0.653535,-9.80216,-3.51745,-1.55199,-41.9103
2023-03-11 22:45:09:733,-0.297053,0.684458,-9.8127,-3.52139,-1.55674,-41.9087
2023-03-11 22:45:09:743,-0.285245,0.680664,-9.80712,-3.51675,-1.55677,-41.9046
2023-03-11 22:45:09:753,-0.197063,0.641616,-9.80273,-3.51494,-1.55588,-41.9028
2023-03-11 22:45:09:762,-0.197543,0.625648,-9.78285,-3.51007,-1.56114,-41.8919
2023-03-11 22:45:09:773,-0.289088,0.633588,-9.75694,-3.50589,-1.56821,-41.8812
2023-03-11 22:45:09:783,-0.329053,0.635279,-9.73275,-3.50231,-1.57757,-41.8734
2023-03-11 22:45:09:793,-0.332833,0.611573,-9.7196,-3.49599,-1.58659,-41.868
2023-03-11 22:45:09:803,-0.3251,0.595542,-9.70947,-3.49206,-1.59407,-41.8603
2023-03-11 22:45:09:813,-0.328307,0.595709,-9.70838,-3.48886,-1.60085,-41.8546
2023-03-11 22:45:09:823,-0.334192,0.608431,-9.7212,-3.49113,-1.60448,-41.8518
2023-03-11 22:45:09:833,-0.339142,0.634753,-9.7492,-3.49687,-1.60506,-41.851
2023-03-11 22:45:09:843,-0.350834,0.649801,-9.75126,-3.50155,-1.60376,-41.8508
2023-03-11 22:45:09:853,-0.34148,0.653461,-9.74505,-3.5068,-1.6025,-41.853
2023-03-11 22:45:09:863,-0.340529,0.651427,-9.76997,-3.50896,-1.59682,-41.8559
2023-03-11 22:45:09:873,-0.337896,0.646333,-9.77516,-3.51139,-1.59484,-41.8627
2023-03-11 22:45:09:883,-0.344811,0.644068,-9.7664,-3.51057,-1.59357,-41.8691
2023-03-11 22:45:09:893,-0.334985,0.638206,-9.76939,-3.5103,-1.59157,-41.8751
2023-03-11 22:45:09:903,-0.308474,0.629477,-9.7589,-3.50813,-1.59125,-41.8817
2023-03-11 22:45:09:913,-0.295346,0.630622,-9.76708,-3.50855,-1.58918,-41.8932
2023-03-11 22:45:09:923,-0.275268,0.631654,-9.76965,-3.50893,-1.58662,-41.9009
2023-03-11 22:45:09:933,-0.272719,0.608714,-9.77062,-3.50541,-1.58339,-41.9058
2023-03-11 22:45:09:943,-0.273136,0.616778,-9.76538,-3.50321,-1.58078,-41.9072
2023-03-11 22:45:09:953,-0.271955,0.632327,-9.75565,-3.50554,-1.57732,-41.9074
2023-03-11 22:45:09:962,-0.285831,0.629215,-9.74186,-3.50496,-1.5707,-41.9093
2023-03-11 22:45:09:973,-0.304709,0.630201,-9.7385,-3.50478,-1.56551,-41.9115
2023-03-11 22:45:09:983,-0.32584,0.647631,-9.74291,-3.50804,-1.55748,-41.9153
2023-03-11 22:45:09:993,-0.315706,0.634805,-9.7535,-3.50768,-1.54995,-41.9198
2023-03-11 22:45:10:3,-0.308393,0.627544,-9.73925,-3.50587,-1.5392,-41.9233
2023-03-11 22:45:10:13,-0.306269,0.627578,-9.75551,-3.50495,-1.53139,-41.9321
2023-03-11 22:45:10:23,-0.299593,0.627901,-9.76638,-3.50548,-1.5229,-41.9403
2023-03-11 22:45:10:33,-0.284976,0.630941,-9.78837,-3.50756,-1.5118,-41.9523
2023-03-11 22:45:10:43,-0.266258,0.631805,-9.80164,-3.50742,-1.5023,-41.9597
2023-03-11 22:45:10:53,-0.238801,0.63565,-9.79432,-3.50707,-1.4955,-41.9697
2023-03-11 22:45:10:63,-0.222868,0.616792,-9.77621,-3.50414,-1.49184,-41.9804
2023-03-11 22:45:10:73,-0.213119,0.607954,-9.74851,-3.50338,-1.48552,-41.9871
2023-03-11 22:45:10:83,-0.200291,0.604298,-9.73491,-3.50132,-1.48074,-41.9961
2023-03-11 22:45:10:93,-0.205568,0.596095,-9.72751,-3.49794,-1.47135,-42.0018
2023-03-11 22:45:10:103,-0.20386,0.599423,-9.73209,-3.49979,-1.46467,-42.0055
2023-03-11 22:45:10:113,-0.198467,0.603863,-9.74994,-3.50084,-1.46087,-42.0075
2023-03-11 22:45:10:123,-0.179568,0.606853,-9.74708,-3.49905,-1.45407,-42.0075
2023-03-11 22:45:10:133,-0.187992,0.612199,-9.75139,-3.50056,-1.45171,-42.0029
2023-03-11 22:45:10:142,-0.210078,0.6294,-9.75391,-3.50363,-1.44923,-41.9992
2023-03-11 22:45:10:152,-0.228374,0.622648,-9.77664,-3.50375,-1.44787,-41.9961
2023-03-11 22:45:10:163,-0.24448,0.629389,-9.78487,-3.50688,-1.44578,-41.9911
