Timestamp,Acceleration_x,Acceleration_y,Acceleration_z,roll,pitch,yaw
2023-03-10 17:35:48:200,0.113447,8.34683,-5.08962,-58.4543,0.452636,137.812
2023-03-10 17:35:48:208,0.112676,8.34033,-5.09038,-58.4536,0.453915,137.812
2023-03-10 17:35:48:218,0.116165,8.34012,-5.08653,-58.4558,0.454597,137.814
2023-03-10 17:35:48:228,0.106968,8.34896,-5.08324,-58.458,0.451688,137.811
2023-03-10 17:35:48:238,0.111538,8.3433,-5.0895,-58.4569,0.453067,137.813
2023-03-10 17:35:48:248,0.117653,8.34089,-5.09117,-58.4602,0.451996,137.812
2023-03-10 17:35:48:258,0.11995,8.35401,-5.08478,-58.462,0.452977,137.808
2023-03-10 17:35:48:268,0.118167,8.35738,-5.08412,-58.4612,0.453828,137.81
2023-03-10 17:35:48:278,0.118798,8.36003,-5.08317,-58.4599,0.455427,137.808
2023-03-10 17:35:48:288,0.109171,8.349,-5.07839,-58.4597,0.45412,137.808
2023-03-10 17:35:48:298,0.111977,8.34911,-5.06901,-58.4597,0.455562,137.809
2023-03-10 17:35:48:308,0.111881,8.34167,-5.07746,-58.4593,0.455243,137.807
2023-03-10 17:35:48:318,0.114791,8.34822,-5.08068,-58.4606,0.455374,137.805
2023-03-10 17:35:48:328,0.1208,8.34456,-5.0869,-58.4586,0.45448,137.805
2023-03-10 17:35:48:338,0.121311,8.35508,-5.08468,-58.4597,0.454949,137.805
2023-03-10 17:35:48:348,0.122631,8.35786,-5.08933,-58.4587,0.453906,137.804
2023-03-10 17:35:48:358,0.113343,8.35233,-5.0991,-58.4602,0.45265,137.806
2023-03-10 17:35:48:368,0.104678,8.34597,-5.09095,-58.4616,0.452708,137.806
2023-03-10 17:35:48:378,0.0934772,8.35652,-5.08439,-58.462,0.45153,137.808
2023-03-10 17:35:48:388,0.111528,8.35431,-5.08149,-58.4618,0.450114,137.807
2023-03-10 17:35:48:398,0.116961,8.35806,-5.07256,-58.4613,0.450582,137.805
2023-03-10 17:35:48:408,0.109784,8.35255,-5.07984,-58.4608,0.449129,137.803
2023-03-10 17:35:48:418,0.11365,8.35538,-5.08752,-58.4642,0.449132,137.804
2023-03-10 17:35:48:428,0.120031,8.35993,-5.07973,-58.4678,0.447449,137.808
2023-03-10 17:35:48:438,0.120457,8.356,-5.08013,-58.4682,0.449364,137.807
2023-03-10 17:35:48:448,0.123217,8.34643,-5.07378,-58.4655,0.448031,137.811
2023-03-10 17:35:48:458,0.120511,8.35404,-5.07452,-58.4636,0.44608,137.811
2023-03-10 17:35:48:468,0.113815,8.35184,-5.07882,-58.4646,0.446453,137.81
2023-03-10 17:35:48:478,0.117627,8.34244,-5.09334,-58.4636,0.442688,137.809
2023-03-10 17:35:48:488,0.116629,8.34046,-5.10006,-58.4633,0.441548,137.807
2023-03-10 17:35:48:498,0.117518,8.34733,-5.08217,-58.4668,0.44099,137.81
2023-03-10 17:35:48:508,0.116621,8.3491,-5.07129,-58.4679,0.437742,137.808
2023-03-10 17:35:48:518,0.119766,8.34103,-5.0772,-58.4695,0.436413,137.805
2023-03-10 17:35:48:528,0.119161,8.33445,-5.08894,-58.4716,0.439984,137.807
2023-03-10 17:35:48:538,0.11202,8.34696,-5.08689,-58.4693,0.440563,137.804
2023-03-10 17:35:48:548,0.108649,8.35787,-5.07645,-58.4685,0.443512,137.804
2023-03-10 17:35:48:558,0.106469,8.35794,-5.07748,-58.4724,0.443916,137.804
2023-03-10 17:35:48:568,0.114604,8.34931,-5.09432,-58.4744,0.442367,137.802
2023-03-10 17:35:48:578,0.117982,8.35223,-5.09193,-58.474,0.441779,137.8
2023-03-10 17:35:48:588,0.121059,8.35241,-5.07768,-58.4735,0.441241,137.801
2023-03-10 17:35:48:598,0.109687,8.35479,-5.08026,-58.4755,0.440878,137.802
2023-03-10 17:35:48:608,0.119576,8.35472,-5.0806,-58.4761,0.44085,137.8
2023-03-10 17:35:48:618,0.123353,8.356,-5.07983,-58.4754,0.440035,137.799
2023-03-10 17:35:48:628,0.124958,8.35326,-5.08243,-58.4761,0.436672,137.797
2023-03-10 17:35:48:638,0.125064,8.33905,-5.08001,-58.476,0.436661,137.797
2023-03-10 17:35:48:648,0.130938,8.33785,-5.08082,-58.477,0.436112,137.797
2023-03-10 17:35:48:658,0.111489,8.33639,-5.09108,-58.4732,0.434854,137.796
2023-03-10 17:35:48:668,0.11558,8.34994,-5.08138,-58.4709,0.43388,137.797
2023-03-10 17:35:48:678,0.126859,8.35562,-5.08461,-58.4715,0.434684,137.796
2023-03-10 17:35:48:688,0.12124,8.35135,-5.07568,-58.4737,0.437111,137.794
2023-03-10 17:35:48:698,0.119837,8.34978,-5.08199,-58.4736,0.436679,137.792
2023-03-10 17:35:48:708,0.112909,8.34767,-5.08523,-58.4713,0.4357,137.791
2023-03-10 17:35:48:718,0.119238,8.34442,-5.08091,-58.4726,0.436434,137.789
2023-03-10 17:35:48:728,0.111321,8.34946,-5.08101,-58.4758,0.437736,137.788
2023-03-10 17:35:48:738,0.0997782,8.34481,-5.09109,-58.4717,0.435161,137.789
2023-03-10 17:35:48:748,0.114408,8.35731,-5.09236,-58.4706,0.431275,137.791
2023-03-10 17:35:48:758,0.112929,8.35317,-5.08932,-58.4714,0.431278,137.788
2023-03-10 17:35:48:768,0.118531,8.35153,-5.08312,-58.4707,0.429312,137.789
2023-03-10 17:35:48:778,0.107797,8.34108,-5.0862,-58.4725,0.429519,137.791
2023-03-10 17:35:48:788,0.118219,8.34315,-5.08916,-58.4725,0.432404,137.795
2023-03-10 17:35:48:798,0.116702,8.35236,-5.07994,-58.4696,0.433356,137.796
2023-03-10 17:35:48:808,0.111081,8.33817,-5.07965,-58.4721,0.434459,137.794
2023-03-10 17:35:48:818,0.110029,8.3505,-5.08092,-58.4712,0.434637,137.793
2023-03-10 17:35:48:828,0.114187,8.35823,-5.07799,-58.471,0.435013,137.794
2023-03-10 17:35:48:838,0.120766,8.34788,-5.08873,-58.4686,0.433031,137.793
2023-03-10 17:35:48:848,0.104662,8.35173,-5.07721,-58.4648,0.431575,137.794
2023-03-10 17:35:48:858,0.102682,8.35975,-5.07699,-58.4655,0.431012,137.797
2023-03-10 17:35:48:868,0.115924,8.3586,-5.0708,-58.4639,0.432147,137.799
2023-03-10 17:35:48:878,0.113884,8.35276,-5.07959,-58.4641,0.43312,137.798
2023-03-10 17:35:48:888,0.114298,8.35802,-5.0849,-58.4649,0.431633,137.796
2023-03-10 17:35:48:898,0.118575,8.35722,-5.08331,-58.465,0.431019,137.793
2023-03-10 17:35:48:908,0.117566,8.34968,-5.08464,-58.4648,0.428269,137.791
2023-03-10 17:35:48:918,0.104003,8.34736,-5.08279,-58.4665,0.429254,137.791
2023-03-10 17:35:48:928,0.103987,8.34831,-5.08417,-58.4667,0.42524,137.793
2023-03-10 17:35:48:938,0.123352,8.34887,-5.08608,-58.4692,0.423091,137.789
2023-03-10 17:35:48:948,0.101285,8.35036,-5.07823,-58.4683,0.419822,137.789
2023-03-10 17:35:48:958,0.104377,8.35532,-5.07959,-58.4686,0.420427,137.789
2023-03-10 17:35:48:968,0.114175,8.35176,-5.0851,-58.4689,0.421525,137.791
2023-03-10 17:35:48:978,0.114709,8.34519,-5.08346,-58.4672,0.421514,137.79
2023-03-10 17:35:48:988,0.12157,8.34748,-5.08922,-58.4702,0.424907,137.79
2023-03-10 17:35:48:998,0.114954,8.3494,-5.07926,-58.4697,0.425987,137.788
2023-03-10 17:35:49:8,0.119143,8.34916,-5.07882,-58.4701,0.425336,137.787
2023-03-10 17:35:49:18,0.111079,8.34308,-5.08665,-58.4683,0.424312,137.783
2023-03-10 17:35:49:28,0.112508,8.34388,-5.07751,-58.4705,0.424186,137.783
2023-03-10 17:35:49:38,0.113847,8.35191,-5.07439,-58.4733,0.425946,137.78
2023-03-10 17:35:49:48,0.118239,8.35656,-5.07495,-58.4722,0.429333,137.783
2023-03-10 17:35:49:58,0.111889,8.34785,-5.08206,-58.4709,0.428865,137.785
2023-03-10 17:35:49:68,0.116601,8.35129,-5.08367,-58.4728,0.42919,137.786
2023-03-10 17:35:49:78,0.115748,8.34333,-5.08597,-58.4724,0.425159,137.785
2023-03-10 17:35:49:88,0.104751,8.3477,-5.09034,-58.4707,0.426386,137.784
2023-03-10 17:35:49:98,0.10866,8.3467,-5.08453,-58.4705,0.426093,137.784
2023-03-10 17:35:49:108,0.107764,8.35654,-5.07752,-58.4715,0.424728,137.783
2023-03-10 17:35:49:118,0.12088,8.35559,-5.07749,-58.4712,0.423949,137.783
2023-03-10 17:35:49:128,0.123686,8.36477,-5.08162,-58.469,0.424469,137.783
2023-03-10 17:35:49:138,0.109685,8.35145,-5.08335,-58.4702,0.422778,137.783
2023-03-10 17:35:49:148,0.10567,8.35243,-5.07025,-58.4703,0.422885,137.783
2023-03-10 17:35:49:158,0.11481,8.35111,-5.07562,-58.4686,0.42596,137.782
2023-03-10 17:35:49:168,0.116325,8.35908,-5.08135,-58.4679,0.424905,137.782
2023-03-10 17:35:49:178,0.119853,8.35892,-5.07206,-58.4693,0.423521,137.781
2023-03-10 17:35:49:188,0.123163,8.35377,-5.07482,-58.4689,0.424495,137.784
2023-03-10 17:35:49:198,0.125273,8.35208,-5.08482,-58.4695,0.423926,137.785
2023-03-10 17:35:49:208,0.116533,8.35413,-5.07898,-58.4703,0.426535,137.786
2023-03-10 17:35:49:218,0.117806,8.35274,-5.08264,-58.4719,0.426825,137.784
2023-03-10 17:35:49:228,0.12116,8.35845,-5.08059,-58.473,0.429154,137.784
2023-03-10 17:35:49:238,0.119568,8.35588,-5.08072,-58.4742,0.429995,137.782
2023-03-10 17:35:49:248,0.118764,8.3429,-5.08065,-58.4718,0.429466,137.784
2023-03-10 17:35:49:258,0.110705,8.35666,-5.08242,-58.4694,0.430472,137.786
2023-03-10 17:35:49:268,0.10146,8.36159,-5.07748,-58.4692,0.429452,137.788
2023-03-10 17:35:49:278,0.103065,8.36191,-5.07757,-58.4685,0.428256,137.79
2023-03-10 17:35:49:288,0.107781,8.34842,-5.08202,-58.4695,0.427069,137.789
2023-03-10 17:35:49:298,0.120956,8.33468,-5.09581,-58.4692,0.428081,137.787
2023-03-10 17:35:49:308,0.121823,8.34741,-5.08752,-58.4709,0.427753,137.787
2023-03-10 17:35:49:318,0.104135,8.34992,-5.08443,-58.4686,0.423201,137.787
2023-03-10 17:35:49:328,0.108494,8.34066,-5.07956,-58.4718,0.424973,137.786
2023-03-10 17:35:49:338,0.117271,8.34567,-5.08454,-58.4714,0.4242,137.789
2023-03-10 17:35:49:348,0.117274,8.3543,-5.08774,-58.4734,0.423672,137.789
2023-03-10 17:35:49:358,0.111266,8.35683,-5.08234,-58.4729,0.424579,137.788
2023-03-10 17:35:49:368,0.110623,8.36021,-5.07975,-58.4728,0.422871,137.788
2023-03-10 17:35:49:378,0.109417,8.35457,-5.08451,-58.4735,0.423188,137.789
2023-03-10 17:35:49:388,0.117254,8.35146,-5.08197,-58.4748,0.423534,137.787
2023-03-10 17:35:49:398,0.124298,8.36185,-5.0765,-58.4723,0.42387,137.785
2023-03-10 17:35:49:408,0.119268,8.35358,-5.07859,-58.4756,0.424774,137.785
2023-03-10 17:35:49:418,0.113585,8.35021,-5.08858,-58.4762,0.423514,137.783
2023-03-10 17:35:49:428,0.109968,8.34996,-5.08838,-58.4735,0.423246,137.783
2023-03-10 17:35:49:438,0.122031,8.35352,-5.08552,-58.4727,0.423847,137.782
2023-03-10 17:35:49:448,0.121392,8.34917,-5.08833,-58.4732,0.42392,137.783
2023-03-10 17:35:49:458,0.117339,8.36067,-5.08307,-58.4752,0.420771,137.782
2023-03-10 17:35:49:468,0.111424,8.36547,-5.07403,-58.4732,0.421659,137.782
2023-03-10 17:35:49:478,0.115448,8.3491,-5.07642,-58.4731,0.422774,137.784
2023-03-10 17:35:49:488,0.10887,8.34322,-5.0794,-58.4739,0.423991,137.783
2023-03-10 17:35:49:498,0.111792,8.3359,-5.09271,-58.4752,0.423803,137.784
2023-03-10 17:35:49:508,0.112423,8.33904,-5.092,-58.4743,0.422267,137.783
2023-03-10 17:35:49:518,0.108339,8.33719,-5.10234,-58.4741,0.42048,137.783
2023-03-10 17:35:49:528,0.111135,8.34468,-5.09835,-58.4719,0.421975,137.784
2023-03-10 17:35:49:538,0.118369,8.36065,-5.08528,-58.4707,0.421213,137.782
2023-03-10 17:35:49:548,0.122013,8.34914,-5.09167,-58.4708,0.41848,137.783
2023-03-10 17:35:49:558,0.12583,8.35282,-5.08345,-58.4712,0.418475,137.785
2023-03-10 17:35:49:568,0.12376,8.35389,-5.07954,-58.4706,0.418354,137.784
2023-03-10 17:35:49:578,0.122469,8.35921,-5.08653,-58.4699,0.417466,137.782
2023-03-10 17:35:49:588,0.117666,8.36027,-5.08251,-58.4705,0.416906,137.782
2023-03-10 17:35:49:598,0.111159,8.35431,-5.08679,-58.4682,0.415863,137.782
2023-03-10 17:35:49:608,0.109774,8.34775,-5.08407,-58.4672,0.412509,137.779
2023-03-10 17:35:49:618,0.114832,8.34363,-5.08865,-58.4669,0.414589,137.778
2023-03-10 17:35:49:628,0.120163,8.34665,-5.08263,-58.4685,0.414317,137.777
2023-03-10 17:35:49:638,0.116305,8.35158,-5.06735,-58.4656,0.412762,137.777
2023-03-10 17:35:49:648,0.119563,8.3529,-5.08265,-58.4642,0.41534,137.777
2023-03-10 17:35:49:658,0.117794,8.34035,-5.09296,-58.4646,0.41593,137.778
2023-03-10 17:35:49:668,0.118354,8.32792,-5.10431,-58.4652,0.416388,137.78
2023-03-10 17:35:49:678,0.116132,8.35022,-5.08111,-58.4683,0.419642,137.776
2023-03-10 17:35:49:688,0.115309,8.36199,-5.07345,-58.47,0.419849,137.773
2023-03-10 17:35:49:698,0.119822,8.34214,-5.08931,-58.4707,0.41989,137.775
2023-03-10 17:35:49:708,0.117837,8.34708,-5.09223,-58.4734,0.417246,137.773
2023-03-10 17:35:49:718,0.109282,8.35625,-5.08862,-58.4759,0.419666,137.769
2023-03-10 17:35:49:728,0.108182,8.3449,-5.09464,-58.4751,0.416894,137.77
2023-03-10 17:35:49:738,0.119032,8.34507,-5.08469,-58.4775,0.418523,137.772
2023-03-10 17:35:49:748,0.127683,8.35593,-5.08061,-58.4764,0.419583,137.774
2023-03-10 17:35:49:758,0.114374,8.34482,-5.09535,-58.4755,0.419997,137.777
2023-03-10 17:35:49:768,0.113168,8.35168,-5.08953,-58.4761,0.425546,137.777
2023-03-10 17:35:49:778,0.11941,8.35165,-5.08278,-58.4768,0.423796,137.777
2023-03-10 17:35:49:788,0.118915,8.33954,-5.08344,-58.4728,0.42505,137.779
2023-03-10 17:35:49:798,0.125037,8.349,-5.07398,-58.4766,0.425519,137.779
2023-03-10 17:35:49:808,0.119207,8.34935,-5.07967,-58.4744,0.424855,137.78
2023-03-10 17:35:49:818,0.115244,8.34303,-5.08756,-58.4764,0.424201,137.782
2023-03-10 17:35:49:828,0.122013,8.34789,-5.08181,-58.4738,0.425277,137.781
2023-03-10 17:35:49:838,0.113629,8.34787,-5.08456,-58.4697,0.424526,137.779
2023-03-10 17:35:49:848,0.106211,8.35963,-5.08811,-58.47,0.422018,137.778
2023-03-10 17:35:49:858,0.121302,8.34177,-5.09598,-58.4711,0.422729,137.778
2023-03-10 17:35:49:868,0.113117,8.3555,-5.08232,-58.4736,0.420872,137.782
2023-03-10 17:35:49:878,0.10977,8.35933,-5.07475,-58.4742,0.423119,137.781
2023-03-10 17:35:49:888,0.118898,8.34752,-5.07894,-58.4752,0.423389,137.782
2023-03-10 17:35:49:898,0.121622,8.34596,-5.09307,-58.478,0.423922,137.785
2023-03-10 17:35:49:908,0.124277,8.34646,-5.0815,-58.4802,0.424973,137.784
2023-03-10 17:35:49:918,0.110903,8.3549,-5.07751,-58.4796,0.424771,137.784
2023-03-10 17:35:49:928,0.112121,8.36669,-5.07685,-58.4784,0.424794,137.783
2023-03-10 17:35:49:938,0.102789,8.34957,-5.0916,-58.479,0.426972,137.785
2023-03-10 17:35:49:948,0.109195,8.34616,-5.08719,-58.4778,0.426893,137.784
2023-03-10 17:35:49:958,0.110518,8.35313,-5.08724,-58.4762,0.427405,137.786
2023-03-10 17:35:49:968,0.118225,8.34772,-5.0941,-58.4774,0.426305,137.787
2023-03-10 17:35:49:978,0.113557,8.35304,-5.07907,-58.4745,0.426302,137.785
2023-03-10 17:35:49:988,0.112672,8.35611,-5.07632,-58.4744,0.427585,137.785
2023-03-10 17:35:49:998,0.122682,8.34598,-5.07969,-58.473,0.427585,137.786
2023-03-10 17:35:50:8,0.120026,8.34695,-5.07927,-58.4738,0.428342,137.786
2023-03-10 17:35:50:18,0.111823,8.35114,-5.08642,-58.4708,0.427359,137.787
2023-03-10 17:35:50:28,0.110427,8.34368,-5.09677,-58.472,0.426115,137.788
2023-03-10 17:35:50:38,0.114951,8.34266,-5.09502,-58.4725,0.426365,137.787
2023-03-10 17:35:50:48,0.110574,8.34931,-5.09379,-58.4735,0.427654,137.789
2023-03-10 17:35:50:58,0.113891,8.35047,-5.07938,-58.471,0.431309,137.791
2023-03-10 17:35:50:68,0.120074,8.35256,-5.08977,-58.4755,0.429027,137.789
2023-03-10 17:35:50:78,0.116625,8.35594,-5.08748,-58.4721,0.430861,137.79
2023-03-10 17:35:50:88,0.113019,8.36911,-5.07444,-58.4703,0.430326,137.793
2023-03-10 17:35:50:98,0.117401,8.35988,-5.07655,-58.4689,0.42773,137.793
2023-03-10 17:35:50:108,0.106439,8.35517,-5.08395,-58.4687,0.426299,137.795
2023-03-10 17:35:50:118,0.103256,8.351,-5.08261,-58.4688,0.425314,137.794
2023-03-10 17:35:50:128,0.115152,8.35027,-5.08427,-58.4699,0.428302,137.794
2023-03-10 17:35:50:138,0.110854,8.35347,-5.08667,-58.4686,0.42613,137.795
2023-03-10 17:35:50:148,0.110533,8.35765,-5.08328,-58.4658,0.424972,137.796
2023-03-10 17:35:50:158,0.124039,8.35153,-5.07812,-58.4649,0.425353,137.795
2023-03-10 17:35:50:168,0.114203,8.34489,-5.07555,-58.4635,0.42406,137.795
2023-03-10 17:35:50:178,0.116034,8.35213,-5.07235,-58.4637,0.426282,137.794
2023-03-10 17:35:50:188,0.116821,8.34476,-5.08117,-58.4622,0.426012,137.795
2023-03-10 17:35:50:198,0.120924,8.34009,-5.09564,-58.4651,0.428186,137.795
2023-03-10 17:35:50:208,0.117126,8.3483,-5.10213,-58.4626,0.429893,137.795
2023-03-10 17:35:50:218,0.10961,8.35601,-5.0788,-58.4641,0.430336,137.796
2023-03-10 17:35:50:228,0.122746,8.35289,-5.07786,-58.4667,0.431056,137.797
2023-03-10 17:35:50:238,0.12025,8.36007,-5.0722,-58.468,0.433135,137.8
2023-03-10 17:35:50:248,0.113948,8.36585,-5.07069,-58.4694,0.434393,137.802
2023-03-10 17:35:50:258,0.116627,8.35756,-5.0749,-58.4731,0.430931,137.802
2023-03-10 17:35:50:268,0.117118,8.35572,-5.07498,-58.4731,0.433224,137.802
2023-03-10 17:35:50:278,0.116306,8.35636,-5.08626,-58.4752,0.430416,137.8
2023-03-10 17:35:50:288,0.120943,8.35407,-5.0811,-58.4744,0.433935,137.799
2023-03-10 17:35:50:298,0.115866,8.35237,-5.07308,-58.4765,0.435292,137.799
2023-03-10 17:35:50:308,0.114199,8.35012,-5.08328,-58.4769,0.434184,137.797
2023-03-10 17:35:50:318,0.112912,8.3515,-5.08157,-58.4794,0.434647,137.793
2023-03-10 17:35:50:328,0.120329,8.34942,-5.0814,-58.4785,0.434976,137.793
2023-03-10 17:35:50:338,0.1237,8.34769,-5.08329,-58.4768,0.43656,137.792
2023-03-10 17:35:50:348,0.119105,8.35509,-5.07901,-58.4762,0.434889,137.793
2023-03-10 17:35:50:358,0.116884,8.34439,-5.0838,-58.4762,0.437136,137.796
2023-03-10 17:35:50:368,0.117915,8.34679,-5.09478,-58.4726,0.437748,137.795
2023-03-10 17:35:50:378,0.105817,8.34409,-5.09074,-58.4713,0.436101,137.793
2023-03-10 17:35:50:388,0.111672,8.34505,-5.09162,-58.4708,0.435055,137.795
2023-03-10 17:35:50:398,0.113763,8.35425,-5.08389,-58.4712,0.436002,137.797
2023-03-10 17:35:50:408,0.118895,8.3544,-5.08565,-58.4717,0.436305,137.798
2023-03-10 17:35:50:418,0.115052,8.34586,-5.09077,-58.4688,0.438868,137.796
2023-03-10 17:35:50:428,0.122806,8.34283,-5.08921,-58.4684,0.439104,137.795
2023-03-10 17:35:50:438,0.118617,8.35582,-5.07868,-58.4688,0.441739,137.797
2023-03-10 17:35:50:448,0.120359,8.357,-5.07083,-58.4716,0.442759,137.797
2023-03-10 17:35:50:458,0.11766,8.35873,-5.07504,-58.4718,0.438401,137.796
2023-03-10 17:35:50:468,0.122506,8.34956,-5.07999,-58.4705,0.438344,137.798
2023-03-10 17:35:50:478,0.113191,8.34262,-5.08449,-58.4729,0.438445,137.8
2023-03-10 17:35:50:488,0.112817,8.34338,-5.07953,-58.4726,0.436271,137.795
2023-03-10 17:35:50:498,0.12141,8.35425,-5.08349,-58.4714,0.436131,137.796
2023-03-10 17:35:50:508,0.126568,8.36153,-5.08658,-58.4708,0.434921,137.795
2023-03-10 17:35:50:518,0.106337,8.35487,-5.08715,-58.4719,0.432349,137.794
2023-03-10 17:35:50:528,0.103949,8.36255,-5.07726,-58.472,0.433307,137.794
2023-03-10 17:35:50:538,0.112216,8.35068,-5.07875,-58.4693,0.434307,137.794
2023-03-10 17:35:50:548,0.108663,8.34042,-5.08946,-58.4705,0.437748,137.789
2023-03-10 17:35:50:558,0.120598,8.34577,-5.09147,-58.4701,0.440246,137.789
2023-03-10 17:35:50:568,0.125107,8.34312,-5.0933,-58.4746,0.443337,137.789
2023-03-10 17:35:50:578,0.117677,8.35794,-5.08428,-58.474,0.443268,137.79
2023-03-10 17:35:50:588,0.106812,8.35752,-5.08563,-58.4752,0.446639,137.792
2023-03-10 17:35:50:598,0.114605,8.35599,-5.0775,-58.4737,0.447275,137.793
2023-03-10 17:35:50:608,0.108184,8.35447,-5.07719,-58.4734,0.445904,137.794
2023-03-10 17:35:50:618,0.107814,8.34966,-5.07659,-58.4709,0.448398,137.793
2023-03-10 17:35:50:628,0.110126,8.36069,-5.06994,-58.4742,0.447605,137.794
2023-03-10 17:35:50:638,0.119656,8.34435,-5.07848,-58.4749,0.448307,137.794
2023-03-10 17:35:50:648,0.112861,8.3385,-5.0886,-58.4714,0.449891,137.795
2023-03-10 17:35:50:658,0.114034,8.34266,-5.10056,-58.4702,0.452049,137.794
2023-03-10 17:35:50:668,0.11951,8.35195,-5.09198,-58.4715,0.452243,137.791
2023-03-10 17:35:50:678,0.113634,8.3479,-5.08508,-58.4702,0.451443,137.79
2023-03-10 17:35:50:688,0.112497,8.34742,-5.07606,-58.471,0.452016,137.789
2023-03-10 17:35:50:698,0.116032,8.34451,-5.079,-58.4695,0.451385,137.79
2023-03-10 17:35:50:708,0.126141,8.35151,-5.07622,-58.4677,0.451084,137.788
2023-03-10 17:35:50:718,0.121983,8.34386,-5.09067,-58.4682,0.450068,137.786
2023-03-10 17:35:50:728,0.116219,8.353,-5.09009,-58.4687,0.45066,137.784
2023-03-10 17:35:50:738,0.1175,8.34663,-5.08527,-58.4673,0.448662,137.783
2023-03-10 17:35:50:748,0.10774,8.35393,-5.08294,-58.466,0.446996,137.785
2023-03-10 17:35:50:758,0.115865,8.35547,-5.08093,-58.4646,0.447325,137.785
2023-03-10 17:35:50:768,0.119175,8.35484,-5.07998,-58.4638,0.447429,137.782
2023-03-10 17:35:50:778,0.11869,8.34807,-5.07475,-58.4623,0.445892,137.786
2023-03-10 17:35:50:788,0.125056,8.34745,-5.07343,-58.4614,0.443838,137.784
2023-03-10 17:35:50:798,0.117126,8.34908,-5.07896,-58.4585,0.447316,137.789
2023-03-10 17:35:50:808,0.112098,8.35614,-5.07862,-58.4598,0.445757,137.792
2023-03-10 17:35:50:818,0.108516,8.34407,-5.08387,-58.4597,0.446904,137.792
2023-03-10 17:35:50:828,0.110157,8.34596,-5.07757,-58.4578,0.445189,137.792
2023-03-10 17:35:50:838,0.118537,8.36454,-5.07061,-58.4622,0.445948,137.792
2023-03-10 17:35:50:848,0.122631,8.35888,-5.07631,-58.4623,0.445147,137.795
2023-03-10 17:35:50:858,0.107156,8.35811,-5.08198,-58.4589,0.445207,137.796
2023-03-10 17:35:50:868,0.1132,8.35175,-5.07479,-58.457,0.440496,137.796
2023-03-10 17:35:50:878,0.121097,8.35364,-5.07082,-58.4584,0.440446,137.796
2023-03-10 17:35:50:888,0.127468,8.34268,-5.08852,-58.4594,0.443026,137.794
2023-03-10 17:35:50:898,0.115401,8.34662,-5.08558,-58.4577,0.443146,137.796
2023-03-10 17:35:50:908,0.108604,8.36247,-5.07812,-58.4588,0.445437,137.794
2023-03-10 17:35:50:918,0.109324,8.35747,-5.07153,-58.4581,0.447623,137.794
2023-03-10 17:35:50:928,0.113786,8.35662,-5.06727,-58.4554,0.446501,137.795
2023-03-10 17:35:50:938,0.113045,8.34321,-5.08075,-58.455,0.444753,137.794
2023-03-10 17:35:50:948,0.111605,8.34991,-5.08507,-58.4547,0.442603,137.798
2023-03-10 17:35:50:958,0.112148,8.36465,-5.07549,-58.4549,0.44176,137.799
2023-03-10 17:35:50:968,0.114605,8.36164,-5.08305,-58.4537,0.441524,137.8
2023-03-10 17:35:50:978,0.12711,8.33296,-5.09099,-58.4547,0.441404,137.797
2023-03-10 17:35:50:988,0.108204,8.34086,-5.07395,-58.452,0.440837,137.801
2023-03-10 17:35:50:998,0.102856,8.35388,-5.07948,-58.4539,0.439234,137.802
2023-03-10 17:35:51:8,0.112716,8.3553,-5.09347,-58.4536,0.436339,137.801
2023-03-10 17:35:51:18,0.112519,8.35938,-5.08399,-58.4532,0.437687,137.8
2023-03-10 17:35:51:28,0.110023,8.35478,-5.07745,-58.4504,0.4387,137.797
2023-03-10 17:35:51:38,0.116706,8.35027,-5.08058,-58.4493,0.438414,137.797
2023-03-10 17:35:51:48,0.118547,8.3651,-5.07979,-58.4461,0.439364,137.796
2023-03-10 17:35:51:58,0.119046,8.36189,-5.08058,-58.4478,0.441503,137.795
2023-03-10 17:35:51:68,0.132253,8.35466,-5.08385,-58.4479,0.441317,137.796
2023-03-10 17:35:51:78,0.117234,8.35855,-5.07803,-58.4497,0.44221,137.795
2023-03-10 17:35:51:88,0.104469,8.34994,-5.08191,-58.4526,0.443245,137.793
2023-03-10 17:35:51:98,0.101364,8.34181,-5.08558,-58.4588,0.446188,137.794
2023-03-10 17:35:51:108,0.11888,8.35447,-5.07681,-58.4623,0.447836,137.795
2023-03-10 17:35:51:118,0.125626,8.36487,-5.06946,-58.4616,0.452445,137.795
2023-03-10 17:35:51:128,0.123587,8.34466,-5.07949,-58.4621,0.455857,137.794
2023-03-10 17:35:51:138,0.118533,8.34597,-5.07676,-58.4612,0.458019,137.795
2023-03-10 17:35:51:148,0.114402,8.34723,-5.07989,-58.4624,0.456293,137.796
2023-03-10 17:35:51:158,0.116285,8.35468,-5.07962,-58.4623,0.452733,137.796
2023-03-10 17:35:51:168,0.114631,8.36279,-5.06821,-58.459,0.453567,137.794
2023-03-10 17:35:51:178,0.120576,8.3535,-5.08794,-58.4588,0.45465,137.792
2023-03-10 17:35:51:188,0.123623,8.35027,-5.08073,-58.4582,0.454548,137.792
2023-03-10 17:35:51:198,0.112737,8.34379,-5.07921,-58.4591,0.452275,137.789
2023-03-10 17:35:51:208,0.11403,8.34492,-5.07736,-58.4597,0.448547,137.79
2023-03-10 17:35:51:218,0.113618,8.35105,-5.07365,-58.4601,0.445371,137.79
2023-03-10 17:35:51:228,0.112327,8.3529,-5.07268,-58.4589,0.446379,137.79
2023-03-10 17:35:51:238,0.120232,8.36058,-5.07426,-58.4579,0.447467,137.789
2023-03-10 17:35:51:248,0.107604,8.35452,-5.07921,-58.4596,0.449476,137.789
2023-03-10 17:35:51:258,0.10664,8.345,-5.08703,-58.4602,0.450025,137.791
2023-03-10 17:35:51:268,0.117425,8.33235,-5.08577,-58.4633,0.449835,137.79
2023-03-10 17:35:51:278,0.109176,8.3352,-5.08951,-58.4639,0.451543,137.792
2023-03-10 17:35:51:292,0.114253,8.33739,-5.08666,-58.4659,0.450133,137.791
2023-03-10 17:35:51:298,0.113415,8.35253,-5.06732,-58.4635,0.449722,137.792
2023-03-10 17:35:51:308,0.116651,8.3532,-5.07524,-58.4648,0.450167,137.792
2023-03-10 17:35:51:318,0.124583,8.35647,-5.08711,-58.465,0.449936,137.79
2023-03-10 17:35:51:328,0.118313,8.34703,-5.08399,-58.4633,0.44906,137.792
2023-03-10 17:35:51:338,0.111868,8.35508,-5.08973,-58.4634,0.448474,137.792
2023-03-10 17:35:51:348,0.111257,8.35343,-5.08638,-58.4612,0.447384,137.792
2023-03-10 17:35:51:358,0.123283,8.34819,-5.0851,-58.462,0.450089,137.791
2023-03-10 17:35:51:368,0.119224,8.35912,-5.07023,-58.4608,0.452362,137.788
2023-03-10 17:35:51:378,0.112958,8.35227,-5.07459,-58.4602,0.451996,137.791
2023-03-10 17:35:51:388,0.118264,8.35058,-5.07668,-58.4611,0.450448,137.792
2023-03-10 17:35:51:398,0.122013,8.34659,-5.08416,-58.4619,0.451802,137.792
2023-03-10 17:35:51:408,0.125917,8.33413,-5.08876,-58.4624,0.451615,137.791
2023-03-10 17:35:51:418,0.117903,8.34965,-5.08307,-58.4652,0.451761,137.791
2023-03-10 17:35:51:428,0.106623,8.35519,-5.08071,-58.4652,0.451128,137.792
2023-03-10 17:35:51:438,0.113319,8.34408,-5.08754,-58.4651,0.448056,137.79
2023-03-10 17:35:51:448,0.125806,8.33878,-5.08894,-58.4649,0.446688,137.791
2023-03-10 17:35:51:458,0.11326,8.35265,-5.08832,-58.4652,0.44738,137.789
2023-03-10 17:35:51:468,0.106099,8.36072,-5.08187,-58.4668,0.447215,137.792
2023-03-10 17:35:51:478,0.122513,8.34814,-5.09123,-58.4648,0.447387,137.794
2023-03-10 17:35:51:488,0.120549,8.34343,-5.08932,-58.4642,0.448391,137.794
2023-03-10 17:35:51:498,0.116463,8.35248,-5.0791,-58.4637,0.444661,137.797
2023-03-10 17:35:51:508,0.122649,8.36038,-5.07385,-58.4667,0.445593,137.801
2023-03-10 17:35:51:518,0.11985,8.35451,-5.07622,-58.4696,0.44778,137.8
2023-03-10 17:35:51:528,0.108329,8.34972,-5.07243,-58.469,0.448671,137.798
2023-03-10 17:35:51:538,0.114877,8.34564,-5.08197,-58.4691,0.448436,137.798
2023-03-10 17:35:51:548,0.120547,8.36279,-5.07311,-58.4683,0.448612,137.794
2023-03-10 17:35:51:558,0.119486,8.35721,-5.07989,-58.4695,0.451192,137.793
2023-03-10 17:35:51:568,0.130176,8.35962,-5.07879,-58.4719,0.452334,137.79
2023-03-10 17:35:51:578,0.124758,8.35855,-5.07247,-58.4726,0.45522,137.793
2023-03-10 17:35:51:588,0.117873,8.36092,-5.07745,-58.4728,0.457294,137.791
2023-03-10 17:35:51:598,0.122417,8.34765,-5.08279,-58.4721,0.458572,137.788
2023-03-10 17:35:51:608,0.123403,8.3575,-5.09356,-58.4731,0.457724,137.79
2023-03-10 17:35:51:618,0.111422,8.3554,-5.09505,-58.4731,0.455419,137.792
2023-03-10 17:35:51:628,0.107513,8.35116,-5.08354,-58.4728,0.456671,137.792
2023-03-10 17:35:51:638,0.10945,8.35084,-5.0722,-58.4739,0.456468,137.794
2023-03-10 17:35:51:648,0.118633,8.35369,-5.06735,-58.474,0.458715,137.793
2023-03-10 17:35:51:658,0.119161,8.34994,-5.08665,-58.4726,0.457548,137.787
2023-03-10 17:35:51:668,0.11594,8.35098,-5.08614,-58.4705,0.456247,137.785
2023-03-10 17:35:51:678,0.114078,8.34735,-5.07961,-58.4699,0.451898,137.785
2023-03-10 17:35:51:688,0.118923,8.34131,-5.09302,-58.4677,0.452541,137.786
2023-03-10 17:35:51:698,0.119784,8.34609,-5.08145,-58.4665,0.451314,137.783
2023-03-10 17:35:51:708,0.108949,8.34958,-5.07546,-58.4691,0.454015,137.784
2023-03-10 17:35:51:718,0.111231,8.35639,-5.0765,-58.4688,0.455203,137.788
2023-03-10 17:35:51:728,0.115827,8.34987,-5.08056,-58.4677,0.453156,137.79
2023-03-10 17:35:51:738,0.112854,8.34389,-5.09593,-58.4659,0.452948,137.791
2023-03-10 17:35:51:748,0.122091,8.34041,-5.10072,-58.465,0.453842,137.79
2023-03-10 17:35:51:758,0.126696,8.33205,-5.09423,-58.4659,0.452044,137.793
2023-03-10 17:35:51:768,0.11777,8.34205,-5.0967,-58.4627,0.452285,137.794
2023-03-10 17:35:51:778,0.105397,8.35102,-5.076,-58.4635,0.453666,137.796
2023-03-10 17:35:51:788,0.10392,8.35543,-5.07633,-58.4637,0.452386,137.794
2023-03-10 17:35:51:798,0.124879,8.35533,-5.06957,-58.4662,0.453204,137.793
2023-03-10 17:35:51:808,0.112239,8.35958,-5.07896,-58.4692,0.45328,137.793
2023-03-10 17:35:51:818,0.115746,8.361,-5.08217,-58.4689,0.452673,137.791
2023-03-10 17:35:51:828,0.114095,8.34829,-5.07649,-58.4694,0.455668,137.79
2023-03-10 17:35:51:838,0.119044,8.34616,-5.08399,-58.4693,0.453078,137.789
2023-03-10 17:35:51:848,0.126065,8.35362,-5.07388,-58.465,0.452623,137.787
2023-03-10 17:35:51:858,0.118092,8.33907,-5.07722,-58.4616,0.452013,137.786
2023-03-10 17:35:51:868,0.120142,8.33992,-5.08162,-58.4584,0.453033,137.784
2023-03-10 17:35:51:878,0.114372,8.35413,-5.07806,-58.4568,0.452087,137.784
2023-03-10 17:35:51:888,0.117062,8.35038,-5.08716,-58.4586,0.449814,137.781
2023-03-10 17:35:51:898,0.111098,8.35061,-5.07776,-58.4608,0.448661,137.779
2023-03-10 17:35:51:908,0.11473,8.35087,-5.07578,-58.46,0.448133,137.781
2023-03-10 17:35:51:918,0.124312,8.35128,-5.07393,-58.4634,0.451414,137.779
2023-03-10 17:35:51:928,0.130958,8.34408,-5.0837,-58.4666,0.452253,137.775
2023-03-10 17:35:51:938,0.12274,8.34986,-5.08129,-58.4675,0.450692,137.78
2023-03-10 17:35:51:948,0.116319,8.34447,-5.08363,-58.4691,0.450221,137.783
2023-03-10 17:35:51:958,0.110556,8.3491,-5.0758,-58.4691,0.448766,137.782
2023-03-10 17:35:51:968,0.109141,8.35261,-5.0685,-58.4685,0.447966,137.78
2023-03-10 17:35:51:978,0.0965782,8.34798,-5.07492,-58.466,0.449624,137.778
2023-03-10 17:35:51:988,0.107895,8.34724,-5.07844,-58.4638,0.45316,137.779
2023-03-10 17:35:51:998,0.13014,8.35496,-5.07677,-58.4669,0.452031,137.781
2023-03-10 17:35:52:8,0.120611,8.34757,-5.07728,-58.4694,0.449804,137.78
2023-03-10 17:35:52:18,0.109569,8.34859,-5.07969,-58.4708,0.448907,137.78
2023-03-10 17:35:52:28,0.110437,8.34463,-5.074,-58.4715,0.449243,137.781
2023-03-10 17:35:52:38,0.119937,8.34621,-5.08238,-58.475,0.450571,137.781
2023-03-10 17:35:52:48,0.11023,8.35382,-5.0726,-58.4718,0.449523,137.78
2023-03-10 17:35:52:58,0.109591,8.34817,-5.07712,-58.4714,0.450991,137.777
2023-03-10 17:35:52:68,0.114096,8.34317,-5.09158,-58.4734,0.450546,137.776
2023-03-10 17:35:52:78,0.115883,8.34424,-5.07773,-58.4727,0.449346,137.774
2023-03-10 17:35:52:88,0.116371,8.33021,-5.0887,-58.4744,0.447637,137.778
2023-03-10 17:35:52:98,0.111018,8.33653,-5.08966,-58.4753,0.45005,137.776
2023-03-10 17:35:52:108,0.10633,8.35111,-5.08034,-58.4762,0.445551,137.775
2023-03-10 17:35:52:118,0.0984615,8.34774,-5.08114,-58.4753,0.444467,137.773
2023-03-10 17:35:52:128,0.108602,8.35927,-5.09258,-58.4768,0.44521,137.771
2023-03-10 17:35:52:138,0.101244,8.36666,-5.08086,-58.4771,0.444751,137.773
2023-03-10 17:35:52:148,0.0990866,8.35708,-5.076,-58.4753,0.445237,137.772
2023-03-10 17:35:52:158,0.110425,8.35377,-5.0679,-58.475,0.444866,137.773
2023-03-10 17:35:52:168,0.115634,8.35012,-5.08482,-58.4772,0.444076,137.772
2023-03-10 17:35:52:178,0.114514,8.3427,-5.07933,-58.4783,0.444949,137.775
2023-03-10 17:35:52:188,0.112789,8.34485,-5.07113,-58.4766,0.442756,137.776
2023-03-10 17:35:52:198,0.119255,8.34956,-5.08502,-58.4801,0.441209,137.777
2023-03-10 17:35:52:208,0.114896,8.34874,-5.08765,-58.4773,0.441424,137.777
2023-03-10 17:35:52:218,0.0991587,8.35303,-5.08052,-58.4783,0.440464,137.776
2023-03-10 17:35:52:228,0.110749,8.34724,-5.08443,-58.4799,0.440576,137.777
2023-03-10 17:35:52:238,0.104829,8.34895,-5.08957,-58.4801,0.435208,137.781
2023-03-10 17:35:52:248,0.120166,8.35096,-5.07984,-58.4844,0.433922,137.779
2023-03-10 17:35:52:258,0.125218,8.34674,-5.08588,-58.4863,0.432734,137.78
2023-03-10 17:35:52:268,0.111771,8.34253,-5.09181,-58.4879,0.431707,137.778
2023-03-10 17:35:52:278,0.123882,8.36034,-5.08114,-58.491,0.432491,137.779
2023-03-10 17:35:52:288,0.120037,8.35382,-5.07312,-58.4919,0.432356,137.779
2023-03-10 17:35:52:298,0.116603,8.35472,-5.08047,-58.4926,0.430006,137.781
2023-03-10 17:35:52:308,0.126899,8.37063,-5.07734,-58.4927,0.428484,137.779
2023-03-10 17:35:52:318,0.115416,8.35321,-5.07923,-58.4955,0.428871,137.779
2023-03-10 17:35:52:328,0.121228,8.34517,-5.07162,-58.4956,0.428314,137.775
2023-03-10 17:35:52:338,0.12154,8.34685,-5.07204,-58.4936,0.428136,137.772
2023-03-10 17:35:52:348,0.111029,8.36357,-5.07615,-58.4933,0.429381,137.769
2023-03-10 17:35:52:358,0.113445,8.34809,-5.07789,-58.4913,0.42932,137.77
2023-03-10 17:35:52:368,0.11303,8.33928,-5.08733,-58.4909,0.431098,137.77
2023-03-10 17:35:52:378,0.112391,8.34706,-5.0799,-58.4915,0.431644,137.771
2023-03-10 17:35:52:388,0.115226,8.35226,-5.07246,-58.4907,0.43004,137.769
2023-03-10 17:35:52:398,0.110315,8.36112,-5.07659,-58.4901,0.430693,137.771
2023-03-10 17:35:52:408,0.112371,8.34599,-5.0944,-58.4882,0.428579,137.774
2023-03-10 17:35:52:418,0.110345,8.34695,-5.08455,-58.4921,0.430335,137.772
2023-03-10 17:35:52:428,0.115844,8.34246,-5.09547,-58.4916,0.430956,137.77
2023-03-10 17:35:52:438,0.109179,8.34481,-5.09176,-58.4913,0.434561,137.77
2023-03-10 17:35:52:448,0.108082,8.34855,-5.08462,-58.4914,0.433406,137.772
2023-03-10 17:35:52:458,0.12164,8.35022,-5.07674,-58.4894,0.43141,137.771
2023-03-10 17:35:52:468,0.11519,8.35392,-5.07539,-58.4885,0.432028,137.774
2023-03-10 17:35:52:478,0.113358,8.34763,-5.07866,-58.4917,0.432688,137.774
2023-03-10 17:35:52:488,0.113419,8.35335,-5.07634,-58.4948,0.434018,137.772
2023-03-10 17:35:52:498,0.107413,8.35748,-5.08028,-58.4966,0.432529,137.77
2023-03-10 17:35:52:508,0.0944131,8.35356,-5.07948,-58.4956,0.430571,137.77
2023-03-10 17:35:52:518,0.107973,8.35063,-5.07529,-58.4975,0.430046,137.772
2023-03-10 17:35:52:528,0.119902,8.34445,-5.07701,-58.4992,0.429961,137.772
2023-03-10 17:35:52:538,0.10963,8.34285,-5.07568,-58.4996,0.429627,137.77
2023-03-10 17:35:52:548,0.105598,8.34203,-5.07734,-58.5001,0.428776,137.769
2023-03-10 17:35:52:558,0.111191,8.34393,-5.08098,-58.4967,0.431311,137.77
2023-03-10 17:35:52:568,0.104948,8.34831,-5.0733,-58.4966,0.42847,137.769
2023-03-10 17:35:52:578,0.111244,8.36093,-5.07019,-58.4945,0.429109,137.768
2023-03-10 17:35:52:588,0.118677,8.34475,-5.06832,-58.4933,0.432241,137.769
2023-03-10 17:35:52:598,0.123187,8.33975,-5.08286,-58.4898,0.428222,137.768
2023-03-10 17:35:52:608,0.121693,8.34987,-5.08079,-58.4869,0.430499,137.77
2023-03-10 17:35:52:618,0.111712,8.35115,-5.06941,-58.4879,0.426096,137.768
2023-03-10 17:35:52:628,0.110236,8.34959,-5.07467,-58.4862,0.426805,137.767
2023-03-10 17:35:52:638,0.111039,8.34442,-5.09039,-58.4883,0.427759,137.769
2023-03-10 17:35:52:648,0.118708,8.34461,-5.08617,-58.4871,0.427017,137.77
2023-03-10 17:35:52:658,0.122161,8.34533,-5.08637,-58.4871,0.426941,137.769
2023-03-10 17:35:52:668,0.130007,8.34725,-5.079,-58.4879,0.424777,137.767
2023-03-10 17:35:52:678,0.118658,8.35892,-5.08073,-58.4888,0.429833,137.766
2023-03-10 17:35:52:688,0.113741,8.35189,-5.08827,-58.4887,0.427137,137.765
2023-03-10 17:35:52:698,0.115826,8.34996,-5.08008,-58.4909,0.424846,137.767
2023-03-10 17:35:52:708,0.116029,8.35169,-5.07271,-58.493,0.426466,137.768
2023-03-10 17:35:52:718,0.120859,8.35593,-5.06848,-58.4928,0.425699,137.768
2023-03-10 17:35:52:728,0.123872,8.35137,-5.07796,-58.4911,0.423527,137.766
2023-03-10 17:35:52:738,0.124091,8.35392,-5.07935,-58.4908,0.421589,137.767
2023-03-10 17:35:52:748,0.117908,8.34425,-5.08629,-58.4929,0.420768,137.767
2023-03-10 17:35:52:758,0.120777,8.34301,-5.09061,-58.4938,0.420939,137.769
2023-03-10 17:35:52:768,0.114814,8.34308,-5.0921,-58.4925,0.422034,137.771
2023-03-10 17:35:52:778,0.104938,8.35786,-5.08833,-58.4911,0.42014,137.773
2023-03-10 17:35:52:788,0.1063,8.35995,-5.08723,-58.4951,0.418866,137.774
2023-03-10 17:35:52:798,0.098388,8.34782,-5.08018,-58.4964,0.419893,137.775
2023-03-10 17:35:52:808,0.110272,8.35546,-5.07637,-58.4954,0.420919,137.775
2023-03-10 17:35:52:818,0.121285,8.35773,-5.06408,-58.4934,0.421546,137.773
2023-03-10 17:35:52:828,0.12081,8.36524,-5.06784,-58.4937,0.420343,137.774
2023-03-10 17:35:52:838,0.116931,8.34657,-5.0755,-58.4916,0.420457,137.772
2023-03-10 17:35:52:848,0.111367,8.34285,-5.08045,-58.4925,0.419393,137.774
2023-03-10 17:35:52:858,0.115518,8.34967,-5.07915,-58.4962,0.418297,137.776
2023-03-10 17:35:52:868,0.115991,8.33877,-5.07854,-58.4959,0.417879,137.777
2023-03-10 17:35:52:878,0.124609,8.34267,-5.07345,-58.4965,0.417883,137.777
2023-03-10 17:35:52:888,0.125648,8.35477,-5.07514,-58.4926,0.416295,137.779
2023-03-10 17:35:52:898,0.105232,8.35565,-5.07266,-58.4917,0.419975,137.777
2023-03-10 17:35:52:908,0.109954,8.36064,-5.07161,-58.4913,0.424695,137.776
2023-03-10 17:35:52:918,0.118214,8.34931,-5.07366,-58.4908,0.424776,137.777
2023-03-10 17:35:52:928,0.120691,8.34535,-5.07918,-58.4918,0.421936,137.774
2023-03-10 17:35:52:938,0.114632,8.3462,-5.08221,-58.4925,0.425533,137.777
2023-03-10 17:35:52:948,0.109776,8.34891,-5.08404,-58.493,0.424426,137.777
2023-03-10 17:35:52:958,0.107386,8.34336,-5.08569,-58.4917,0.427783,137.777
2023-03-10 17:35:52:968,0.109604,8.34003,-5.09316,-58.4926,0.425704,137.775
2023-03-10 17:35:52:978,0.113906,8.35484,-5.08573,-58.4966,0.424264,137.774
2023-03-10 17:35:52:988,0.117537,8.36566,-5.07495,-58.4961,0.422125,137.774
2023-03-10 17:35:52:998,0.107321,8.35839,-5.08171,-58.4965,0.41976,137.775
2023-03-10 17:35:53:8,0.115538,8.35421,-5.08356,-58.4956,0.421296,137.777
2023-03-10 17:35:53:18,0.115217,8.35575,-5.0817,-58.4949,0.419641,137.781
2023-03-10 17:35:53:28,0.108768,8.33152,-5.0936,-58.4943,0.417911,137.778
2023-03-10 17:35:53:38,0.104493,8.33667,-5.09066,-58.491,0.423164,137.779
2023-03-10 17:35:53:48,0.102803,8.34482,-5.08402,-58.4909,0.425444,137.777
2023-03-10 17:35:53:58,0.108708,8.35693,-5.0693,-58.4905,0.427869,137.775
2023-03-10 17:35:53:68,0.116942,8.35752,-5.07563,-58.4935,0.426766,137.774
2023-03-10 17:35:53:78,0.107011,8.33965,-5.08526,-58.4936,0.427463,137.772
2023-03-10 17:35:53:88,0.111417,8.33916,-5.0767,-58.492,0.425434,137.774
2023-03-10 17:35:53:98,0.111779,8.34621,-5.08762,-58.4901,0.42467,137.772
2023-03-10 17:35:53:108,0.113044,8.34441,-5.09209,-58.4963,0.422589,137.771
2023-03-10 17:35:53:118,0.117078,8.35968,-5.07711,-58.4977,0.425035,137.769
2023-03-10 17:35:53:128,0.107356,8.34791,-5.07493,-58.4977,0.427758,137.77
2023-03-10 17:35:53:138,0.107848,8.35048,-5.07316,-58.5005,0.431239,137.772
2023-03-10 17:35:53:148,0.115258,8.35365,-5.07982,-58.4997,0.431975,137.775
2023-03-10 17:35:53:158,0.108703,8.35175,-5.08721,-58.5029,0.433582,137.775
2023-03-10 17:35:53:168,0.107045,8.35775,-5.0891,-58.5039,0.432069,137.774
2023-03-10 17:35:53:178,0.119614,8.34494,-5.08567,-58.5032,0.430754,137.774
2023-03-10 17:35:53:188,0.121118,8.34993,-5.07354,-58.5032,0.428029,137.775
2023-03-10 17:35:53:198,0.122058,8.34175,-5.08413,-58.5042,0.428487,137.774
2023-03-10 17:35:53:208,0.117934,8.34874,-5.08153,-58.5058,0.426601,137.771
2023-03-10 17:35:53:218,0.112875,8.3415,-5.07511,-58.5087,0.42636,137.773
2023-03-10 17:35:53:228,0.108567,8.3387,-5.08406,-58.5092,0.430904,137.774
2023-03-10 17:35:53:238,0.118414,8.3531,-5.07783,-58.5082,0.428577,137.775
2023-03-10 17:35:53:248,0.112584,8.35548,-5.08102,-58.5089,0.428252,137.773
2023-03-10 17:35:53:258,0.111592,8.35312,-5.07573,-58.5113,0.432454,137.77
2023-03-10 17:35:53:268,0.105141,8.34624,-5.07319,-58.5117,0.430436,137.77
2023-03-10 17:35:53:278,0.111651,8.34971,-5.0706,-58.5132,0.430025,137.77
2023-03-10 17:35:53:288,0.121088,8.3566,-5.06115,-58.514,0.431922,137.769
2023-03-10 17:35:53:298,0.129398,8.35017,-5.07403,-58.5123,0.43496,137.768
2023-03-10 17:35:53:308,0.115571,8.34589,-5.08807,-58.5153,0.436767,137.768
2023-03-10 17:35:53:318,0.115921,8.34559,-5.09522,-58.5133,0.439026,137.77
2023-03-10 17:35:53:328,0.119579,8.35419,-5.08255,-58.5146,0.438043,137.771
2023-03-10 17:35:53:338,0.122408,8.34477,-5.0775,-58.5168,0.437346,137.771
2023-03-10 17:35:53:348,0.114691,8.34807,-5.07443,-58.5147,0.435548,137.769
2023-03-10 17:35:53:358,0.112552,8.34867,-5.08034,-58.5147,0.438417,137.766
2023-03-10 17:35:53:368,0.120714,8.35976,-5.07667,-58.5137,0.440322,137.766
2023-03-10 17:35:53:378,0.124692,8.35239,-5.06677,-58.5135,0.440834,137.767
2023-03-10 17:35:53:388,0.118484,8.35761,-5.07542,-58.514,0.444689,137.764
2023-03-10 17:35:53:398,0.112066,8.35564,-5.07509,-58.5197,0.445094,137.762
2023-03-10 17:35:53:408,0.115998,8.3516,-5.07956,-58.5202,0.443438,137.762
2023-03-10 17:35:53:418,0.120657,8.34111,-5.08937,-58.5209,0.443887,137.762
2023-03-10 17:35:53:428,0.115542,8.34751,-5.09066,-58.5199,0.443225,137.761
2023-03-10 17:35:53:438,0.115258,8.34569,-5.08658,-58.5208,0.444128,137.76
2023-03-10 17:35:53:448,0.113665,8.35193,-5.07937,-58.5219,0.445168,137.76
2023-03-10 17:35:53:458,0.115335,8.35319,-5.08118,-58.5203,0.443782,137.761
2023-03-10 17:35:53:468,0.117501,8.35013,-5.07315,-58.5228,0.444378,137.76
2023-03-10 17:35:53:478,0.12225,8.33902,-5.07956,-58.5216,0.444573,137.76
2023-03-10 17:35:53:488,0.114988,8.3419,-5.08039,-58.5201,0.446255,137.759
2023-03-10 17:35:53:498,0.105143,8.35242,-5.09779,-58.5173,0.443881,137.759
2023-03-10 17:35:53:508,0.114856,8.35176,-5.09001,-58.5175,0.446709,137.761
2023-03-10 17:35:53:518,0.114253,8.35414,-5.08271,-58.5162,0.447507,137.759
2023-03-10 17:35:53:528,0.10956,8.3621,-5.07978,-58.5171,0.447113,137.757
2023-03-10 17:35:53:538,0.120543,8.36021,-5.07518,-58.5166,0.446668,137.757
2023-03-10 17:35:53:548,0.120599,8.35745,-5.08077,-58.5158,0.446531,137.756
2023-03-10 17:35:53:558,0.110704,8.35551,-5.08293,-58.5178,0.448257,137.755
2023-03-10 17:35:53:568,0.122433,8.35114,-5.07711,-58.5204,0.448302,137.754
2023-03-10 17:35:53:578,0.119601,8.34305,-5.08653,-58.5196,0.447641,137.755
2023-03-10 17:35:53:588,0.109644,8.34791,-5.08045,-58.5203,0.4478,137.756
2023-03-10 17:35:53:598,0.10907,8.34813,-5.08134,-58.5207,0.446713,137.754
2023-03-10 17:35:53:608,0.118043,8.34956,-5.07429,-58.5224,0.445504,137.751
2023-03-10 17:35:53:618,0.108233,8.34496,-5.07734,-58.524,0.446727,137.751
2023-03-10 17:35:53:628,0.110257,8.3524,-5.08039,-58.524,0.445833,137.753
2023-03-10 17:35:53:638,0.115907,8.34806,-5.08148,-58.5221,0.44763,137.753
2023-03-10 17:35:53:648,0.116334,8.34002,-5.0847,-58.5186,0.450154,137.753
2023-03-10 17:35:53:658,0.123302,8.34104,-5.07698,-58.5173,0.450027,137.755
2023-03-10 17:35:53:668,0.112366,8.35669,-5.07443,-58.5177,0.44999,137.753
2023-03-10 17:35:53:678,0.116482,8.34251,-5.09526,-58.5173,0.448691,137.751
2023-03-10 17:35:53:688,0.114226,8.33564,-5.09066,-58.5172,0.450871,137.752
2023-03-10 17:35:53:698,0.123499,8.35391,-5.08289,-58.5205,0.4531,137.754
2023-03-10 17:35:53:708,0.122614,8.34713,-5.08853,-58.5215,0.45033,137.754
2023-03-10 17:35:53:718,0.120938,8.34585,-5.08818,-58.5243,0.45106,137.756
2023-03-10 17:35:53:728,0.122063,8.34076,-5.08176,-58.525,0.451439,137.756
2023-03-10 17:35:53:738,0.110457,8.33561,-5.08924,-58.5243,0.450741,137.758
2023-03-10 17:35:53:748,0.119005,8.33346,-5.08782,-58.5251,0.449317,137.76
2023-03-10 17:35:53:758,0.114524,8.34155,-5.07841,-58.5257,0.448369,137.76
2023-03-10 17:35:53:768,0.122151,8.34864,-5.07389,-58.5269,0.448432,137.758
2023-03-10 17:35:53:778,0.123559,8.34957,-5.07837,-58.5235,0.445614,137.759
2023-03-10 17:35:53:788,0.10787,8.36045,-5.06999,-58.524,0.445885,137.76
2023-03-10 17:35:53:798,0.111874,8.35494,-5.07747,-58.5235,0.444741,137.76
2023-03-10 17:35:53:808,0.115284,8.34377,-5.08208,-58.5224,0.443112,137.756
2023-03-10 17:35:53:818,0.1168,8.34504,-5.08315,-58.5188,0.441908,137.751
2023-03-10 17:35:53:828,0.118993,8.36089,-5.06613,-58.517,0.441827,137.751
2023-03-10 17:35:53:838,0.107673,8.35678,-5.07817,-58.5174,0.444069,137.752
2023-03-10 17:35:53:848,0.115318,8.35493,-5.07888,-58.5177,0.446144,137.753
2023-03-10 17:35:53:858,0.118303,8.3534,-5.09019,-58.514,0.446598,137.75
2023-03-10 17:35:53:868,0.11356,8.35663,-5.08707,-58.5138,0.447958,137.748
2023-03-10 17:35:53:878,0.123589,8.35331,-5.08213,-58.5142,0.447543,137.751
2023-03-10 17:35:53:888,0.118881,8.35375,-5.07664,-58.5129,0.447216,137.751
2023-03-10 17:35:53:898,0.116076,8.3498,-5.08982,-58.5111,0.44963,137.753
2023-03-10 17:35:53:908,0.121234,8.36063,-5.07897,-58.5095,0.450101,137.756
2023-03-10 17:35:53:918,0.121433,8.35946,-5.07467,-58.5072,0.45086,137.757
2023-03-10 17:35:53:928,0.115637,8.35009,-5.07294,-58.5083,0.452561,137.756
2023-03-10 17:35:53:938,0.102477,8.34454,-5.08438,-58.5097,0.454004,137.754
2023-03-10 17:35:53:948,0.113207,8.34797,-5.08799,-58.5114,0.45406,137.755
2023-03-10 17:35:53:958,0.116911,8.35338,-5.08279,-58.5113,0.453803,137.757
2023-03-10 17:35:53:968,0.120421,8.35537,-5.08495,-58.5108,0.454455,137.763
2023-03-10 17:35:53:978,0.116163,8.35304,-5.07515,-58.5098,0.454391,137.763
2023-03-10 17:35:53:988,0.105948,8.34746,-5.08029,-58.5097,0.454088,137.765
2023-03-10 17:35:53:998,0.10865,8.35704,-5.07648,-58.5076,0.454826,137.766
2023-03-10 17:35:54:8,0.12671,8.36741,-5.07249,-58.5077,0.458066,137.765
2023-03-10 17:35:54:18,0.128539,8.35666,-5.08415,-58.507,0.456929,137.764
2023-03-10 17:35:54:28,0.121874,8.35207,-5.07602,-58.5043,0.453359,137.767
2023-03-10 17:35:54:38,0.12314,8.34648,-5.0726,-58.5047,0.454288,137.768
2023-03-10 17:35:54:48,0.115031,8.34739,-5.06975,-58.5022,0.454581,137.766
2023-03-10 17:35:54:58,0.112005,8.35258,-5.07259,-58.4978,0.453978,137.768
2023-03-10 17:35:54:68,0.106708,8.34798,-5.07454,-58.4988,0.451036,137.767
2023-03-10 17:35:54:78,0.0965225,8.34535,-5.0732,-58.5016,0.449543,137.767
2023-03-10 17:35:54:88,0.10945,8.34461,-5.07626,-58.4984,0.446241,137.767
2023-03-10 17:35:54:98,0.110172,8.34686,-5.08577,-58.4956,0.450581,137.765
2023-03-10 17:35:54:108,0.107044,8.35058,-5.08186,-58.4983,0.450562,137.766
2023-03-10 17:35:54:118,0.112183,8.34912,-5.08401,-58.4994,0.452101,137.764
2023-03-10 17:35:54:128,0.120565,8.33962,-5.07879,-58.4988,0.454108,137.765
2023-03-10 17:35:54:138,0.112622,8.34126,-5.07456,-58.5003,0.452642,137.767
2023-03-10 17:35:54:148,0.11404,8.34123,-5.07848,-58.4994,0.455463,137.77
2023-03-10 17:35:54:158,0.120948,8.35696,-5.06638,-58.5008,0.457671,137.771
2023-03-10 17:35:54:168,0.119545,8.3549,-5.08404,-58.5033,0.460957,137.772
2023-03-10 17:35:54:178,0.114974,8.3537,-5.08317,-58.5027,0.462795,137.773
2023-03-10 17:35:54:188,0.114657,8.36056,-5.07679,-58.5024,0.466781,137.776
2023-03-10 17:35:54:198,0.123626,8.34528,-5.08388,-58.5008,0.46568,137.776
2023-03-10 17:35:54:208,0.125024,8.34466,-5.08007,-58.5021,0.468235,137.775
2023-03-10 17:35:54:218,0.109536,8.34372,-5.0877,-58.5032,0.471284,137.775
2023-03-10 17:35:54:228,0.097229,8.35307,-5.09046,-58.5034,0.471616,137.772
2023-03-10 17:35:54:238,0.108481,8.34597,-5.08705,-58.5026,0.471222,137.772
2023-03-10 17:35:54:248,0.114487,8.34933,-5.08769,-58.5016,0.470661,137.771
2023-03-10 17:35:54:258,0.12301,8.34845,-5.08867,-58.5018,0.470388,137.77
2023-03-10 17:35:54:268,0.109391,8.36044,-5.08234,-58.5035,0.467548,137.77
2023-03-10 17:35:54:278,0.123572,8.35683,-5.09229,-58.504,0.46675,137.769
2023-03-10 17:35:54:288,0.126777,8.36668,-5.07492,-58.5045,0.468083,137.768
2023-03-10 17:35:54:298,0.120617,8.35509,-5.06945,-58.5046,0.469353,137.77
2023-03-10 17:35:54:308,0.116074,8.34149,-5.07526,-58.5041,0.466318,137.769
2023-03-10 17:35:54:318,0.119019,8.34872,-5.08392,-58.504,0.468685,137.767
2023-03-10 17:35:54:328,0.12132,8.34869,-5.08825,-58.5068,0.467951,137.766
2023-03-10 17:35:54:338,0.112222,8.35077,-5.08824,-58.5071,0.467878,137.765
2023-03-10 17:35:54:348,0.11307,8.34856,-5.08427,-58.5085,0.469723,137.765
2023-03-10 17:35:54:358,0.12756,8.34358,-5.08667,-58.5096,0.472078,137.767
2023-03-10 17:35:54:368,0.118366,8.34742,-5.08667,-58.5086,0.468838,137.77
2023-03-10 17:35:54:378,0.109326,8.34432,-5.08242,-58.5086,0.467399,137.769
2023-03-10 17:35:54:388,0.115922,8.35521,-5.07345,-58.509,0.469873,137.771
2023-03-10 17:35:54:398,0.114713,8.34932,-5.07877,-58.5105,0.469027,137.767
2023-03-10 17:35:54:408,0.105058,8.34883,-5.09068,-58.5117,0.470867,137.768
2023-03-10 17:35:54:418,0.114307,8.33656,-5.09031,-58.5124,0.469346,137.766
2023-03-10 17:35:54:428,0.116307,8.35124,-5.07888,-58.5085,0.471113,137.763
2023-03-10 17:35:54:438,0.115551,8.35234,-5.08277,-58.5086,0.47367,137.762
2023-03-10 17:35:54:448,0.115446,8.34529,-5.09206,-58.5102,0.473113,137.76
2023-03-10 17:35:54:458,0.113587,8.359,-5.08141,-58.509,0.471331,137.758
2023-03-10 17:35:54:468,0.113296,8.35653,-5.07952,-58.5039,0.471905,137.761
2023-03-10 17:35:54:478,0.113843,8.36095,-5.08848,-58.5023,0.471449,137.76
2023-03-10 17:35:54:488,0.112487,8.35144,-5.08419,-58.5014,0.468948,137.76
2023-03-10 17:35:54:498,0.10963,8.35091,-5.07978,-58.5047,0.467752,137.76
2023-03-10 17:35:54:508,0.124452,8.35022,-5.0878,-58.5031,0.466014,137.76
2023-03-10 17:35:54:518,0.125718,8.35206,-5.07817,-58.5031,0.464814,137.761
2023-03-10 17:35:54:528,0.122553,8.35122,-5.08252,-58.5015,0.464233,137.761
2023-03-10 17:35:54:538,0.119634,8.35014,-5.08694,-58.504,0.464855,137.763
2023-03-10 17:35:54:548,0.117057,8.36265,-5.07683,-58.5028,0.462969,137.761
2023-03-10 17:35:54:558,0.115638,8.34646,-5.08679,-58.5032,0.462842,137.761
2023-03-10 17:35:54:568,0.122017,8.34334,-5.08587,-58.5007,0.460742,137.761
2023-03-10 17:35:54:578,0.119366,8.34866,-5.08093,-58.5015,0.465655,137.762
2023-03-10 17:35:54:588,0.115971,8.35195,-5.08034,-58.5022,0.466382,137.76
2023-03-10 17:35:54:599,0.110304,8.34465,-5.08048,-58.5003,0.466449,137.759
2023-03-10 17:35:54:608,0.112977,8.3546,-5.08032,-58.4994,0.466697,137.758
2023-03-10 17:35:54:618,0.116465,8.35858,-5.08387,-58.5002,0.465651,137.763
2023-03-10 17:35:54:628,0.109649,8.35384,-5.07468,-58.5003,0.46679,137.765
2023-03-10 17:35:54:638,0.116064,8.34988,-5.06954,-58.4992,0.466451,137.765
2023-03-10 17:35:54:648,0.122676,8.34126,-5.08514,-58.5013,0.467412,137.765
2023-03-10 17:35:54:658,0.104546,8.34896,-5.08321,-58.5033,0.464755,137.763
2023-03-10 17:35:54:668,0.119751,8.34542,-5.08586,-58.5042,0.467217,137.76
2023-03-10 17:35:54:678,0.124372,8.34998,-5.07709,-58.5059,0.466551,137.76
2023-03-10 17:35:54:688,0.116487,8.33997,-5.0858,-58.5074,0.468632,137.762
2023-03-10 17:35:54:698,0.111887,8.35471,-5.0868,-58.5076,0.467052,137.767
2023-03-10 17:35:54:708,0.117145,8.33933,-5.08459,-58.5092,0.468976,137.767
2023-03-10 17:35:54:718,0.119263,8.34275,-5.08909,-58.5115,0.469945,137.766
2023-03-10 17:35:54:728,0.114839,8.3438,-5.09903,-58.5098,0.46962,137.767
2023-03-10 17:35:54:738,0.113784,8.3429,-5.09009,-58.5076,0.468071,137.767
2023-03-10 17:35:54:748,0.121968,8.35297,-5.0843,-58.5072,0.467073,137.771
2023-03-10 17:35:54:758,0.133187,8.35859,-5.07398,-58.5053,0.46731,137.774
2023-03-10 17:35:54:768,0.117881,8.35273,-5.0828,-58.5048,0.465796,137.775
2023-03-10 17:35:54:778,0.114426,8.34193,-5.09139,-58.5041,0.463388,137.775
2023-03-10 17:35:54:788,0.11843,8.3487,-5.06598,-58.5043,0.465247,137.777
2023-03-10 17:35:54:798,0.113146,8.35251,-5.07065,-58.5057,0.467114,137.775
2023-03-10 17:35:54:808,0.112595,8.3526,-5.07949,-58.5065,0.464393,137.774
2023-03-10 17:35:54:818,0.120551,8.34768,-5.08475,-58.5035,0.462906,137.775
2023-03-10 17:35:54:828,0.125721,8.33761,-5.1009,-58.5047,0.460657,137.776
2023-03-10 17:35:54:838,0.126526,8.33656,-5.10261,-58.5065,0.462017,137.777
2023-03-10 17:35:54:848,0.121753,8.35105,-5.08315,-58.5095,0.461849,137.776
2023-03-10 17:35:54:858,0.117486,8.35217,-5.09334,-58.5112,0.462311,137.777
2023-03-10 17:35:54:868,0.11483,8.34668,-5.09847,-58.5098,0.462151,137.778
2023-03-10 17:35:54:878,0.114802,8.35594,-5.08343,-58.5104,0.461573,137.775
2023-03-10 17:35:54:888,0.126708,8.3549,-5.08403,-58.5088,0.460157,137.775
