Timestamp,Acceleration_x,Acceleration_y,Acceleration_z,roll,pitch,yaw
2023-03-14 22:43:07:465,-0.914764,0.270943,-9.75266,-1.5531,-5.38153,-0.59198
2023-03-14 22:43:07:473,-0.941673,0.260089,-9.72474,-1.54216,-5.40493,-0.585626
2023-03-14 22:43:07:483,-0.95989,0.254392,-9.72427,-1.53251,-5.42338,-0.57613
2023-03-14 22:43:07:493,-0.971301,0.249155,-9.71682,-1.52365,-5.44183,-0.564197
2023-03-14 22:43:07:503,-0.975836,0.241637,-9.69377,-1.51247,-5.45988,-0.555101
2023-03-14 22:43:07:513,-0.978092,0.235097,-9.67805,-1.50741,-5.4742,-0.54268
2023-03-14 22:43:07:523,-0.991299,0.234908,-9.68108,-1.50085,-5.48554,-0.528401
2023-03-14 22:43:07:533,-0.984387,0.2208,-9.66046,-1.49202,-5.49865,-0.515312
2023-03-14 22:43:07:543,-0.987472,0.200281,-9.66033,-1.48866,-5.5095,-0.505175
2023-03-14 22:43:07:553,-0.993202,0.205327,-9.68042,-1.48594,-5.51745,-0.498143
2023-03-14 22:43:07:563,-0.997876,0.24209,-9.70555,-1.48642,-5.52295,-0.49035
2023-03-14 22:43:07:573,-0.997808,0.257478,-9.73728,-1.48729,-5.52372,-0.480909
2023-03-14 22:43:07:583,-0.973158,0.262034,-9.75079,-1.48688,-5.52385,-0.47452
2023-03-14 22:43:07:593,-0.947056,0.260001,-9.74554,-1.48599,-5.52744,-0.470906
2023-03-14 22:43:07:603,-0.938416,0.255691,-9.74446,-1.48492,-5.53094,-0.468783
2023-03-14 22:43:07:613,-0.941817,0.249127,-9.73181,-1.48321,-5.53436,-0.463875
2023-03-14 22:43:07:623,-0.949425,0.248442,-9.70577,-1.48171,-5.53741,-0.458248
2023-03-14 22:43:07:633,-0.962742,0.23387,-9.70264,-1.48016,-5.54612,-0.453267
2023-03-14 22:43:07:643,-0.955393,0.235102,-9.71992,-1.4826,-5.54774,-0.449433
2023-03-14 22:43:07:653,-0.958595,0.240513,-9.73558,-1.48121,-5.55234,-0.446601
2023-03-14 22:43:07:663,-0.9699,0.249907,-9.74354,-1.48315,-5.55737,-0.441631
2023-03-14 22:43:07:673,-0.975912,0.261463,-9.75287,-1.48355,-5.56248,-0.44025
2023-03-14 22:43:07:684,-0.976115,0.278837,-9.76577,-1.48816,-5.56676,-0.439084
2023-03-14 22:43:07:693,-0.966734,0.269688,-9.75641,-1.48622,-5.57229,-0.440934
2023-03-14 22:43:07:703,-0.956975,0.243607,-9.73041,-1.48264,-5.58037,-0.447855
2023-03-14 22:43:07:713,-0.949961,0.223143,-9.69103,-1.47727,-5.58723,-0.451087
2023-03-14 22:43:07:723,-0.936143,0.212335,-9.66928,-1.47212,-5.59115,-0.455121
2023-03-14 22:43:07:733,-0.941913,0.20371,-9.70651,-1.46872,-5.59393,-0.459394
2023-03-14 22:43:07:744,-0.936595,0.229444,-9.73819,-1.46988,-5.59852,-0.464793
2023-03-14 22:43:07:753,-0.935846,0.248667,-9.74057,-1.46798,-5.60255,-0.467823
2023-03-14 22:43:07:763,-0.935506,0.267143,-9.75559,-1.47167,-5.60566,-0.474781
2023-03-14 22:43:07:773,-0.947225,0.276593,-9.78789,-1.47104,-5.60944,-0.480581
2023-03-14 22:43:07:784,-0.922047,0.271359,-9.79187,-1.46899,-5.61467,-0.486915
2023-03-14 22:43:07:793,-0.914377,0.241705,-9.79163,-1.46169,-5.6197,-0.487804
2023-03-14 22:43:07:803,-0.92388,0.228562,-9.75941,-1.45807,-5.62381,-0.489762
2023-03-14 22:43:07:813,-0.936331,0.222458,-9.73896,-1.44836,-5.63055,-0.491355
2023-03-14 22:43:07:823,-0.942777,0.19172,-9.72251,-1.43479,-5.63537,-0.490786
2023-03-14 22:43:07:833,-0.924695,0.177528,-9.69276,-1.42332,-5.64446,-0.48766
2023-03-14 22:43:07:843,-0.927378,0.168634,-9.67167,-1.41483,-5.65051,-0.486716
2023-03-14 22:43:07:853,-0.929433,0.16818,-9.66702,-1.40883,-5.65584,-0.487615
2023-03-14 22:43:07:863,-0.931143,0.174203,-9.69714,-1.40411,-5.65993,-0.484268
2023-03-14 22:43:07:873,-0.934234,0.188523,-9.72218,-1.40287,-5.66143,-0.483928
2023-03-14 22:43:07:883,-0.93223,0.19165,-9.72124,-1.39961,-5.66104,-0.484013
2023-03-14 22:43:07:893,-0.918682,0.185,-9.73279,-1.39903,-5.65764,-0.483087
2023-03-14 22:43:07:903,-0.872042,0.17484,-9.74199,-1.39763,-5.65484,-0.48175
2023-03-14 22:43:07:913,-0.848202,0.161976,-9.74851,-1.39521,-5.65476,-0.476652
2023-03-14 22:43:07:923,-0.888673,0.167026,-9.74681,-1.39318,-5.65613,-0.467042
2023-03-14 22:43:07:933,-0.955238,0.209228,-9.72839,-1.39417,-5.66225,-0.455698
2023-03-14 22:43:07:943,-0.978138,0.237244,-9.7016,-1.39634,-5.6664,-0.447342
2023-03-14 22:43:07:953,-0.994138,0.240551,-9.69828,-1.40055,-5.66938,-0.442374
2023-03-14 22:43:07:963,-0.986602,0.255856,-9.6999,-1.40687,-5.67351,-0.440723
2023-03-14 22:43:07:973,-0.98202,0.276991,-9.69331,-1.40755,-5.67367,-0.439583
2023-03-14 22:43:07:983,-0.993146,0.277439,-9.68582,-1.40848,-5.67327,-0.437457
2023-03-14 22:43:07:993,-1.0084,0.270206,-9.68716,-1.41038,-5.67122,-0.436575
2023-03-14 22:43:08:3,-1.0072,0.259226,-9.68696,-1.41259,-5.66775,-0.438717
2023-03-14 22:43:08:13,-0.993427,0.246754,-9.68346,-1.41234,-5.66509,-0.44266
2023-03-14 22:43:08:23,-0.957329,0.235138,-9.67397,-1.41453,-5.66198,-0.449969
2023-03-14 22:43:08:33,-0.955195,0.217039,-9.6722,-1.41485,-5.65229,-0.453972
2023-03-14 22:43:08:43,-0.962594,0.226378,-9.70803,-1.42128,-5.64797,-0.457228
2023-03-14 22:43:08:53,-0.973383,0.267255,-9.72939,-1.42738,-5.6454,-0.459926
2023-03-14 22:43:08:63,-0.987656,0.281877,-9.73418,-1.44049,-5.63603,-0.461937
2023-03-14 22:43:08:73,-1.00213,0.294105,-9.7448,-1.45153,-5.63045,-0.467427
2023-03-14 22:43:08:83,-1.01211,0.300855,-9.76184,-1.46157,-5.62645,-0.471623
2023-03-14 22:43:08:93,-0.991723,0.308872,-9.79407,-1.47568,-5.61938,-0.478694
2023-03-14 22:43:08:103,-0.989222,0.334614,-9.80389,-1.48623,-5.61533,-0.484118
2023-03-14 22:43:08:113,-0.97907,0.329893,-9.78327,-1.49615,-5.60841,-0.494091
2023-03-14 22:43:08:123,-0.97291,0.314215,-9.76766,-1.50202,-5.60199,-0.50636
2023-03-14 22:43:08:133,-0.988313,0.301682,-9.74009,-1.50683,-5.59711,-0.516953
2023-03-14 22:43:08:143,-0.997878,0.277478,-9.73865,-1.51142,-5.59299,-0.531283
2023-03-14 22:43:08:153,-0.936491,0.291804,-9.75568,-1.51678,-5.58605,-0.550717
2023-03-14 22:43:08:163,-0.853179,0.304967,-9.77861,-1.51902,-5.57837,-0.570727
2023-03-14 22:43:08:173,-0.829077,0.277931,-9.76144,-1.52021,-5.57264,-0.583517
2023-03-14 22:43:08:183,-0.872789,0.267876,-9.73253,-1.51135,-5.56524,-0.596299
2023-03-14 22:43:08:193,-0.90357,0.283308,-9.71548,-1.50935,-5.56307,-0.605502
2023-03-14 22:43:08:203,-0.90058,0.278957,-9.72913,-1.50726,-5.56033,-0.611335
2023-03-14 22:43:08:213,-0.889051,0.278423,-9.73574,-1.50578,-5.5603,-0.615785
2023-03-14 22:43:08:223,-0.914677,0.281999,-9.72867,-1.50514,-5.5592,-0.617065
2023-03-14 22:43:08:233,-0.933225,0.271121,-9.7238,-1.50468,-5.55621,-0.616323
2023-03-14 22:43:08:243,-0.916767,0.280222,-9.72986,-1.50701,-5.55633,-0.613827
2023-03-14 22:43:08:253,-0.898311,0.304373,-9.75923,-1.51004,-5.55614,-0.612586
2023-03-14 22:43:08:263,-0.92407,0.31942,-9.78248,-1.51429,-5.55403,-0.610808
2023-03-14 22:43:08:273,-0.948651,0.314351,-9.78301,-1.51673,-5.55519,-0.611335
2023-03-14 22:43:08:283,-0.965949,0.318056,-9.78034,-1.51571,-5.55916,-0.611191
2023-03-14 22:43:08:293,-0.970012,0.324704,-9.76961,-1.50895,-5.56254,-0.612102
2023-03-14 22:43:08:303,-0.961673,0.300565,-9.76089,-1.50191,-5.56325,-0.615368
2023-03-14 22:43:08:313,-0.93828,0.256936,-9.74396,-1.49178,-5.56788,-0.623483
2023-03-14 22:43:08:323,-0.932446,0.230607,-9.72782,-1.47605,-5.5726,-0.627649
2023-03-14 22:43:08:333,-0.921427,0.224409,-9.71111,-1.46347,-5.57718,-0.629035
2023-03-14 22:43:08:343,-0.896458,0.207917,-9.70942,-1.4529,-5.58269,-0.6289
2023-03-14 22:43:08:353,-0.894094,0.199151,-9.71329,-1.44171,-5.58726,-0.633411
2023-03-14 22:43:08:363,-0.89965,0.196085,-9.70494,-1.43281,-5.59193,-0.630029
2023-03-14 22:43:08:373,-0.910255,0.20207,-9.68725,-1.42715,-5.59543,-0.623945
2023-03-14 22:43:08:383,-0.943758,0.211617,-9.66325,-1.42159,-5.60089,-0.617643
2023-03-14 22:43:08:393,-0.982022,0.213058,-9.68242,-1.42256,-5.60706,-0.609043
2023-03-14 22:43:08:403,-0.993979,0.231395,-9.68441,-1.42589,-5.60972,-0.598158
2023-03-14 22:43:08:413,-1.00561,0.237177,-9.6978,-1.42599,-5.60978,-0.587273
2023-03-14 22:43:08:423,-1.02591,0.243262,-9.70786,-1.42481,-5.60837,-0.582764
2023-03-14 22:43:08:433,-1.03403,0.241241,-9.72091,-1.42613,-5.60135,-0.578845
2023-03-14 22:43:08:443,-1.00187,0.248678,-9.71479,-1.42979,-5.59934,-0.57395
2023-03-14 22:43:08:453,-0.9754,0.232729,-9.70485,-1.43082,-5.59847,-0.576155
2023-03-14 22:43:08:463,-0.960039,0.227411,-9.70953,-1.43323,-5.59597,-0.579733
2023-03-14 22:43:08:473,-0.960865,0.235617,-9.71622,-1.43804,-5.59259,-0.583849
2023-03-14 22:43:08:483,-0.952643,0.238689,-9.73368,-1.44402,-5.59106,-0.588872
2023-03-14 22:43:08:493,-0.946359,0.237166,-9.73414,-1.44868,-5.5917,-0.598595
2023-03-14 22:43:08:503,-0.938076,0.230563,-9.72835,-1.44983,-5.58731,-0.609731
2023-03-14 22:43:08:513,-0.923166,0.236165,-9.73,-1.454,-5.58208,-0.617265
2023-03-14 22:43:08:523,-0.904966,0.250309,-9.74747,-1.46073,-5.5776,-0.625961
2023-03-14 22:43:08:533,-0.899741,0.269328,-9.76555,-1.47134,-5.57378,-0.63472
2023-03-14 22:43:08:543,-0.911367,0.278078,-9.77416,-1.47745,-5.5698,-0.643459
2023-03-14 22:43:08:553,-0.907274,0.285495,-9.76888,-1.48164,-5.56755,-0.65293
2023-03-14 22:43:08:563,-0.886171,0.268422,-9.76918,-1.482,-5.56354,-0.658158
2023-03-14 22:43:08:573,-0.86609,0.249469,-9.75501,-1.48046,-5.55602,-0.661928
2023-03-14 22:43:08:583,-0.852972,0.230035,-9.73825,-1.47898,-5.55054,-0.665982
2023-03-14 22:43:08:593,-0.834497,0.228096,-9.74224,-1.48331,-5.54653,-0.670821
2023-03-14 22:43:08:603,-0.83505,0.225267,-9.75448,-1.48298,-5.54164,-0.67411
2023-03-14 22:43:08:613,-0.846269,0.244994,-9.74326,-1.48469,-5.53931,-0.671679
2023-03-14 22:43:08:623,-0.88061,0.245389,-9.74242,-1.4843,-5.54427,-0.66823
2023-03-14 22:43:08:633,-0.910478,0.261319,-9.73277,-1.48416,-5.54848,-0.667739
2023-03-14 22:43:08:643,-0.912899,0.262278,-9.72285,-1.48669,-5.54794,-0.665481
2023-03-14 22:43:08:653,-0.899946,0.245992,-9.71447,-1.48261,-5.55053,-0.662201
2023-03-14 22:43:08:663,-0.881396,0.244213,-9.69769,-1.48153,-5.55269,-0.659198
2023-03-14 22:43:08:673,-0.89098,0.226278,-9.71414,-1.48105,-5.55589,-0.651163
2023-03-14 22:43:08:683,-0.917915,0.246039,-9.72921,-1.48034,-5.55419,-0.644093
2023-03-14 22:43:08:693,-0.933372,0.256821,-9.72261,-1.47838,-5.559,-0.63759
2023-03-14 22:43:08:703,-0.932496,0.232686,-9.72266,-1.47869,-5.56254,-0.633536
2023-03-14 22:43:08:713,-0.909205,0.231221,-9.72753,-1.47653,-5.56403,-0.629773
2023-03-14 22:43:08:723,-0.897264,0.23303,-9.73244,-1.47378,-5.56465,-0.626439
2023-03-14 22:43:08:733,-0.908037,0.247873,-9.74036,-1.4733,-5.56432,-0.621182
2023-03-14 22:43:08:743,-0.918944,0.23894,-9.74442,-1.47143,-5.56826,-0.615222
2023-03-14 22:43:08:753,-0.917737,0.225158,-9.72261,-1.4672,-5.57197,-0.607726
2023-03-14 22:43:08:764,-0.925926,0.210733,-9.71166,-1.46432,-5.57135,-0.601114
2023-03-14 22:43:08:773,-0.892584,0.213925,-9.74668,-1.46511,-5.56997,-0.59366
2023-03-14 22:43:08:783,-0.835999,0.212858,-9.77364,-1.4682,-5.57019,-0.58639
2023-03-14 22:43:08:793,-0.843038,0.196592,-9.78217,-1.46727,-5.5711,-0.57687
2023-03-14 22:43:08:804,-0.896874,0.201966,-9.73781,-1.46606,-5.57659,-0.563035
2023-03-14 22:43:08:813,-0.95045,0.210246,-9.70045,-1.46996,-5.58285,-0.544817
2023-03-14 22:43:08:823,-0.963749,0.235701,-9.71488,-1.47363,-5.5913,-0.525699
2023-03-14 22:43:08:833,-0.971194,0.27438,-9.72044,-1.47639,-5.59997,-0.509257
2023-03-14 22:43:08:843,-0.958166,0.276957,-9.72935,-1.47746,-5.60389,-0.495092
2023-03-14 22:43:08:853,-0.950318,0.255955,-9.71942,-1.48044,-5.61096,-0.479756
2023-03-14 22:43:08:863,-0.957907,0.241086,-9.7028,-1.48187,-5.61939,-0.465852
2023-03-14 22:43:08:873,-0.976697,0.249349,-9.69145,-1.48298,-5.62523,-0.453023
2023-03-14 22:43:08:883,-0.986881,0.258974,-9.69034,-1.48286,-5.6313,-0.445977
2023-03-14 22:43:08:893,-0.986976,0.254106,-9.70743,-1.48609,-5.63487,-0.439081
2023-03-14 22:43:08:903,-0.986619,0.256968,-9.71159,-1.48867,-5.63916,-0.433989
2023-03-14 22:43:08:913,-0.970792,0.253723,-9.7166,-1.48947,-5.64483,-0.431125
2023-03-14 22:43:08:923,-0.959852,0.230911,-9.70281,-1.49308,-5.64831,-0.42569
2023-03-14 22:43:08:933,-0.977896,0.232731,-9.7045,-1.49696,-5.65458,-0.41974
2023-03-14 22:43:08:943,-0.986479,0.248156,-9.71025,-1.50496,-5.65828,-0.414704
2023-03-14 22:43:08:953,-0.99406,0.252394,-9.73153,-1.51744,-5.66206,-0.406137
2023-03-14 22:43:08:963,-0.980033,0.260646,-9.75372,-1.52836,-5.66259,-0.400901
2023-03-14 22:43:08:973,-1.00017,0.259497,-9.73596,-1.53787,-5.65963,-0.397619
2023-03-14 22:43:08:983,-1.02038,0.270998,-9.71885,-1.54884,-5.65807,-0.396339
2023-03-14 22:43:08:993,-1.02867,0.296153,-9.73114,-1.55934,-5.65499,-0.396515
2023-03-14 22:43:09:3,-1.02723,0.320174,-9.75563,-1.57258,-5.65568,-0.399158
2023-03-14 22:43:09:13,-1.03138,0.312868,-9.75742,-1.5818,-5.65117,-0.403057
2023-03-14 22:43:09:23,-1.03674,0.311696,-9.7326,-1.5871,-5.65129,-0.410337
2023-03-14 22:43:09:33,-1.01385,0.314426,-9.71265,-1.59641,-5.65113,-0.41957
2023-03-14 22:43:09:43,-0.938943,0.299469,-9.73267,-1.602,-5.64435,-0.428729
2023-03-14 22:43:09:53,-0.88912,0.278795,-9.74469,-1.60445,-5.63431,-0.440562
2023-03-14 22:43:09:63,-0.891952,0.268536,-9.73357,-1.60672,-5.62754,-0.449254
2023-03-14 22:43:09:73,-0.92755,0.271785,-9.72688,-1.60897,-5.62954,-0.451002
2023-03-14 22:43:09:83,-0.95618,0.280316,-9.741,-1.61375,-5.62913,-0.454836
2023-03-14 22:43:09:93,-0.961093,0.301442,-9.75688,-1.62292,-5.62529,-0.457857
2023-03-14 22:43:09:103,-0.934225,0.306625,-9.7515,-1.62863,-5.6203,-0.45865
2023-03-14 22:43:09:113,-0.922916,0.297975,-9.74095,-1.63394,-5.61452,-0.46043
2023-03-14 22:43:09:123,-0.926603,0.307263,-9.74234,-1.63847,-5.60635,-0.458566
2023-03-14 22:43:09:133,-0.937884,0.308756,-9.75512,-1.64381,-5.60313,-0.456985
2023-03-14 22:43:09:143,-0.930632,0.311833,-9.76219,-1.64562,-5.59803,-0.455237
2023-03-14 22:43:09:153,-0.92019,0.318678,-9.7694,-1.65178,-5.59416,-0.457881
2023-03-14 22:43:09:163,-0.938131,0.312616,-9.76375,-1.65448,-5.59041,-0.463245
2023-03-14 22:43:09:173,-0.946355,0.315591,-9.77341,-1.65668,-5.59173,-0.467971
2023-03-14 22:43:09:183,-0.956419,0.318161,-9.77218,-1.65738,-5.59598,-0.474676
2023-03-14 22:43:09:193,-0.953927,0.295175,-9.74888,-1.65525,-5.59534,-0.477494
2023-03-14 22:43:09:203,-0.941287,0.273577,-9.73244,-1.64875,-5.59882,-0.480575
2023-03-14 22:43:09:213,-0.92093,0.262479,-9.70727,-1.64401,-5.60003,-0.481021
2023-03-14 22:43:09:223,-0.927886,0.241554,-9.68656,-1.63567,-5.60141,-0.479871
2023-03-14 22:43:09:233,-0.922513,0.231456,-9.67577,-1.63149,-5.60483,-0.480088
2023-03-14 22:43:09:243,-0.915818,0.221728,-9.66946,-1.62709,-5.60908,-0.478539
2023-03-14 22:43:09:253,-0.929839,0.226528,-9.66999,-1.62769,-5.61061,-0.473318
2023-03-14 22:43:09:263,-0.953337,0.257232,-9.68913,-1.63207,-5.61179,-0.468101
2023-03-14 22:43:09:273,-1.00454,0.290549,-9.7222,-1.63753,-5.61037,-0.463866
2023-03-14 22:43:09:283,-1.02817,0.300061,-9.74448,-1.64596,-5.61059,-0.457178
2023-03-14 22:43:09:293,-1.03404,0.311661,-9.74699,-1.65327,-5.61108,-0.456447
2023-03-14 22:43:09:303,-1.01237,0.310188,-9.74194,-1.66036,-5.60864,-0.458366
2023-03-14 22:43:09:313,-1.00221,0.293442,-9.73092,-1.66662,-5.60679,-0.458388
2023-03-14 22:43:09:323,-0.993573,0.277913,-9.71795,-1.6731,-5.60259,-0.462156
2023-03-14 22:43:09:333,-0.967,0.275383,-9.70531,-1.67943,-5.59765,-0.466854
2023-03-14 22:43:09:343,-0.967449,0.27089,-9.71518,-1.68427,-5.594,-0.470561
2023-03-14 22:43:09:353,-0.964104,0.268193,-9.72276,-1.68902,-5.59273,-0.478029
2023-03-14 22:43:09:363,-0.967823,0.280036,-9.71465,-1.6922,-5.59027,-0.486262
2023-03-14 22:43:09:373,-0.962981,0.280929,-9.74514,-1.69761,-5.58639,-0.493081
2023-03-14 22:43:09:383,-0.944974,0.297289,-9.76514,-1.70255,-5.57976,-0.499258
2023-03-14 22:43:09:393,-0.934994,0.322638,-9.76431,-1.7077,-5.57835,-0.512273
2023-03-14 22:43:09:403,-0.927092,0.301042,-9.74741,-1.71317,-5.57336,-0.520745
2023-03-14 22:43:09:413,-0.921445,0.282771,-9.72676,-1.71627,-5.56978,-0.527171
2023-03-14 22:43:09:423,-0.908039,0.274689,-9.70487,-1.72009,-5.56463,-0.535654
2023-03-14 22:43:09:433,-0.901059,0.265598,-9.70425,-1.72391,-5.56162,-0.542551
2023-03-14 22:43:09:443,-0.902812,0.267557,-9.69988,-1.72753,-5.55601,-0.548149
2023-03-14 22:43:09:453,-0.913763,0.287458,-9.70733,-1.73723,-5.55297,-0.552374
2023-03-14 22:43:09:463,-0.923629,0.289963,-9.74482,-1.74594,-5.54998,-0.555228
2023-03-14 22:43:09:473,-0.916803,0.30746,-9.76422,-1.75481,-5.54956,-0.559273
2023-03-14 22:43:09:483,-0.931956,0.323308,-9.76592,-1.76404,-5.54632,-0.565958
2023-03-14 22:43:09:493,-0.922964,0.293199,-9.7722,-1.76859,-5.54226,-0.56998
2023-03-14 22:43:09:503,-0.92029,0.279274,-9.74838,-1.77014,-5.53982,-0.575565
2023-03-14 22:43:09:513,-0.912428,0.276511,-9.72345,-1.7751,-5.53757,-0.579842
2023-03-14 22:43:09:523,-0.911274,0.271376,-9.71329,-1.78196,-5.53582,-0.582158
2023-03-14 22:43:09:533,-0.893181,0.275978,-9.70969,-1.78951,-5.53528,-0.587249
2023-03-14 22:43:09:543,-0.890293,0.276059,-9.71037,-1.7932,-5.53795,-0.593688
2023-03-14 22:43:09:553,-0.902998,0.292252,-9.74043,-1.79973,-5.54092,-0.597314
2023-03-14 22:43:09:563,-0.93208,0.307523,-9.75521,-1.80468,-5.54153,-0.601948
2023-03-14 22:43:09:573,-0.944991,0.325612,-9.77822,-1.81423,-5.54283,-0.602741
2023-03-14 22:43:09:583,-0.955317,0.330584,-9.75671,-1.82021,-5.54271,-0.607113
2023-03-14 22:43:09:593,-0.952842,0.3271,-9.74089,-1.82253,-5.54646,-0.612751
2023-03-14 22:43:09:603,-0.952985,0.3101,-9.74154,-1.82514,-5.54758,-0.61706
2023-03-14 22:43:09:613,-0.952423,0.289702,-9.72594,-1.82894,-5.55089,-0.622007
2023-03-14 22:43:09:623,-0.953187,0.288214,-9.71058,-1.83208,-5.55292,-0.626943
2023-03-14 22:43:09:633,-0.949793,0.282828,-9.69177,-1.83537,-5.55361,-0.634816
2023-03-14 22:43:09:643,-0.937382,0.26294,-9.6935,-1.83847,-5.55064,-0.639171
2023-03-14 22:43:09:653,-0.913413,0.264078,-9.69238,-1.84395,-5.54934,-0.645154
2023-03-14 22:43:09:663,-0.919686,0.279072,-9.71259,-1.85068,-5.54831,-0.652134
2023-03-14 22:43:09:673,-0.923006,0.295098,-9.72359,-1.85369,-5.5473,-0.65607
2023-03-14 22:43:09:683,-0.9248,0.284981,-9.73659,-1.85788,-5.54612,-0.659601
2023-03-14 22:43:09:693,-0.924444,0.281629,-9.74486,-1.86136,-5.54295,-0.668286
2023-03-14 22:43:09:703,-0.905475,0.297176,-9.7668,-1.86475,-5.53844,-0.673901
2023-03-14 22:43:09:713,-0.871416,0.29763,-9.79378,-1.86698,-5.53272,-0.681816
2023-03-14 22:43:09:723,-0.826641,0.291428,-9.76865,-1.86895,-5.53089,-0.690796
2023-03-14 22:43:09:733,-0.857738,0.258071,-9.71662,-1.86794,-5.53646,-0.692359
2023-03-14 22:43:09:743,-0.93264,0.255359,-9.67923,-1.87395,-5.54236,-0.688291
2023-03-14 22:43:09:753,-0.970497,0.280696,-9.68691,-1.88073,-5.54527,-0.68523
2023-03-14 22:43:09:763,-0.973062,0.322078,-9.71615,-1.89098,-5.54518,-0.682333
2023-03-14 22:43:09:773,-0.94569,0.331712,-9.71535,-1.90414,-5.54449,-0.683211
2023-03-14 22:43:09:783,-0.947281,0.3344,-9.71026,-1.91421,-5.54178,-0.685279
2023-03-14 22:43:09:793,-0.951554,0.355667,-9.72736,-1.92721,-5.53665,-0.688778
2023-03-14 22:43:09:804,-0.944244,0.37816,-9.74216,-1.93969,-5.53298,-0.69524
2023-03-14 22:43:09:813,-0.948245,0.386893,-9.75344,-1.94971,-5.52451,-0.700044
2023-03-14 22:43:09:824,-0.941427,0.37906,-9.74024,-1.95778,-5.51829,-0.705451
2023-03-14 22:43:09:833,-0.928054,0.370625,-9.73344,-1.96328,-5.51396,-0.712049
2023-03-14 22:43:09:843,-0.908543,0.347283,-9.73644,-1.96546,-5.50367,-0.717407
2023-03-14 22:43:09:853,-0.906743,0.336967,-9.74267,-1.96896,-5.49762,-0.720662
2023-03-14 22:43:09:863,-0.908012,0.360368,-9.76468,-1.97545,-5.49672,-0.721634
2023-03-14 22:43:09:873,-0.935784,0.397508,-9.79185,-1.9812,-5.49501,-0.723634
2023-03-14 22:43:09:883,-0.944538,0.406223,-9.81493,-1.98954,-5.49138,-0.726688
2023-03-14 22:43:09:893,-0.929021,0.39574,-9.81309,-1.99075,-5.48652,-0.732197
2023-03-14 22:43:09:903,-0.921641,0.381377,-9.7842,-1.99362,-5.48148,-0.736581
2023-03-14 22:43:09:913,-0.927529,0.37,-9.75236,-1.99239,-5.47971,-0.745573
2023-03-14 22:43:09:923,-0.9205,0.351552,-9.7426,-1.99351,-5.47953,-0.75166
2023-03-14 22:43:09:933,-0.919198,0.372393,-9.71195,-1.99148,-5.47842,-0.763358
2023-03-14 22:43:09:943,-0.920884,0.363211,-9.7183,-1.99085,-5.47849,-0.775778
2023-03-14 22:43:09:953,-0.924658,0.378767,-9.73774,-1.993,-5.48244,-0.786907
2023-03-14 22:43:09:963,-0.952383,0.390462,-9.7582,-1.99657,-5.48279,-0.80393
2023-03-14 22:43:09:973,-0.923456,0.393832,-9.78084,-1.99709,-5.48231,-0.820675
2023-03-14 22:43:09:983,-0.845185,0.380889,-9.7897,-1.99428,-5.47973,-0.837182
2023-03-14 22:43:09:993,-0.810163,0.364654,-9.76516,-1.98716,-5.48206,-0.854683
2023-03-14 22:43:10:3,-0.824629,0.330226,-9.72742,-1.97341,-5.4836,-0.864913
2023-03-14 22:43:10:13,-0.868958,0.302138,-9.69776,-1.96261,-5.49161,-0.871399
2023-03-14 22:43:10:23,-0.884146,0.296577,-9.70042,-1.95373,-5.49903,-0.874849
2023-03-14 22:43:10:33,-0.891028,0.315077,-9.71326,-1.9483,-5.5027,-0.877013
2023-03-14 22:43:10:43,-0.896808,0.32589,-9.72502,-1.9399,-5.50342,-0.880374
2023-03-14 22:43:10:53,-0.912276,0.325686,-9.73955,-1.9327,-5.50594,-0.881254
2023-03-14 22:43:10:63,-0.934158,0.336073,-9.75341,-1.93164,-5.50933,-0.880065
2023-03-14 22:43:10:73,-0.959443,0.356999,-9.76234,-1.9281,-5.51178,-0.878361
2023-03-14 22:43:10:83,-0.958326,0.369905,-9.75195,-1.92272,-5.51027,-0.878564
2023-03-14 22:43:10:93,-0.944317,0.358311,-9.73824,-1.91554,-5.51342,-0.881732
2023-03-14 22:43:10:103,-0.925911,0.333153,-9.71728,-1.90841,-5.5172,-0.885824
2023-03-14 22:43:10:113,-0.933515,0.318178,-9.71429,-1.9042,-5.51832,-0.891144
2023-03-14 22:43:10:123,-0.939448,0.315523,-9.73531,-1.89644,-5.52332,-0.897495
2023-03-14 22:43:10:133,-0.914062,0.3155,-9.7398,-1.88737,-5.52816,-0.905217
2023-03-14 22:43:10:143,-0.902317,0.306249,-9.7243,-1.87872,-5.53623,-0.914074
2023-03-14 22:43:10:153,-0.899707,0.284027,-9.71634,-1.8679,-5.5434,-0.920536
2023-03-14 22:43:10:163,-0.9065,0.282454,-9.70189,-1.85851,-5.55014,-0.923294
2023-03-14 22:43:10:173,-0.933942,0.287504,-9.69969,-1.85126,-5.55553,-0.921184
2023-03-14 22:43:10:183,-0.946405,0.295974,-9.70317,-1.8469,-5.55957,-0.920487
2023-03-14 22:43:10:193,-0.946798,0.298483,-9.69945,-1.84517,-5.56261,-0.916476
2023-03-14 22:43:10:203,-0.965696,0.295338,-9.69072,-1.83824,-5.56734,-0.914639
2023-03-14 22:43:10:213,-0.960861,0.315277,-9.69427,-1.83953,-5.57501,-0.909343
2023-03-14 22:43:10:223,-0.987868,0.338975,-9.72746,-1.84404,-5.57644,-0.905979
2023-03-14 22:43:10:233,-0.996578,0.35958,-9.76789,-1.8481,-5.57958,-0.900636
2023-03-14 22:43:10:243,-0.986399,0.361172,-9.77036,-1.84988,-5.57415,-0.901737
2023-03-14 22:43:10:253,-0.962026,0.362322,-9.75787,-1.84801,-5.57196,-0.905205
2023-03-14 22:43:10:263,-0.956284,0.353481,-9.75099,-1.84439,-5.57298,-0.907603
2023-03-14 22:43:10:273,-0.952037,0.33185,-9.7493,-1.83979,-5.57536,-0.907537
2023-03-14 22:43:10:283,-0.94048,0.308691,-9.71726,-1.83523,-5.57949,-0.908771
2023-03-14 22:43:10:293,-0.916339,0.29427,-9.71744,-1.83028,-5.57946,-0.906226
2023-03-14 22:43:10:303,-0.916003,0.31365,-9.73109,-1.82783,-5.58331,-0.905586
2023-03-14 22:43:10:313,-0.909533,0.309725,-9.72992,-1.8281,-5.5817,-0.906896
2023-03-14 22:43:10:323,-0.905773,0.301242,-9.7179,-1.82791,-5.58035,-0.905505
2023-03-14 22:43:10:333,-0.897594,0.303886,-9.70818,-1.82827,-5.58,-0.902385
2023-03-14 22:43:10:343,-0.915145,0.307317,-9.72992,-1.82909,-5.57708,-0.894635
2023-03-14 22:43:10:353,-0.924741,0.314304,-9.7383,-1.83101,-5.57754,-0.886396
2023-03-14 22:43:10:363,-0.930978,0.310556,-9.72572,-1.83049,-5.57996,-0.878037
2023-03-14 22:43:10:373,-0.924537,0.30234,-9.72072,-1.83315,-5.57862,-0.87086
2023-03-14 22:43:10:383,-0.929949,0.285212,-9.7265,-1.83196,-5.58092,-0.861781
2023-03-14 22:43:10:393,-0.934596,0.280321,-9.70638,-1.83037,-5.58468,-0.850531
2023-03-14 22:43:10:403,-0.932562,0.278724,-9.70534,-1.83251,-5.58861,-0.843353
2023-03-14 22:43:10:413,-0.952221,0.291094,-9.72159,-1.83317,-5.59274,-0.83753
2023-03-14 22:43:10:423,-0.973574,0.312345,-9.73,-1.83983,-5.59615,-0.829314
2023-03-14 22:43:10:433,-0.985556,0.318053,-9.73712,-1.84386,-5.59959,-0.82316
2023-03-14 22:43:10:443,-0.994527,0.317131,-9.74287,-1.84777,-5.59803,-0.817896
2023-03-14 22:43:10:453,-0.990653,0.319361,-9.74989,-1.85065,-5.59943,-0.810955
2023-03-14 22:43:10:463,-0.991466,0.308288,-9.75066,-1.84994,-5.60225,-0.807871
2023-03-14 22:43:10:473,-0.983612,0.304889,-9.73507,-1.85138,-5.60419,-0.806802
2023-03-14 22:43:10:483,-0.958093,0.298557,-9.72556,-1.85035,-5.60751,-0.808021
2023-03-14 22:43:10:493,-0.949318,0.277113,-9.72068,-1.8527,-5.61107,-0.809765
2023-03-14 22:43:10:503,-0.955774,0.294912,-9.71965,-1.85108,-5.61267,-0.812163
2023-03-14 22:43:10:513,-0.954019,0.302148,-9.73764,-1.8534,-5.61479,-0.817097
2023-03-14 22:43:10:523,-0.945734,0.301595,-9.73805,-1.85644,-5.61641,-0.819829
2023-03-14 22:43:10:533,-0.930588,0.307448,-9.72792,-1.85723,-5.62022,-0.823092
2023-03-14 22:43:10:543,-0.921712,0.300067,-9.72928,-1.85821,-5.6221,-0.829442
2023-03-14 22:43:10:553,-0.924649,0.299692,-9.72535,-1.86111,-5.62754,-0.828195
2023-03-14 22:43:10:563,-0.941677,0.309789,-9.73553,-1.86144,-5.63089,-0.826827
2023-03-14 22:43:10:573,-0.988329,0.31743,-9.75075,-1.86452,-5.63233,-0.821798
2023-03-14 22:43:10:583,-0.988152,0.318322,-9.75928,-1.86732,-5.63373,-0.82203
2023-03-14 22:43:10:593,-0.989016,0.305592,-9.75685,-1.86835,-5.63311,-0.818471
2023-03-14 22:43:10:603,-0.972315,0.309532,-9.75729,-1.87146,-5.63559,-0.821567
2023-03-14 22:43:10:613,-0.998946,0.328798,-9.7416,-1.87031,-5.63878,-0.824666
2023-03-14 22:43:10:624,-1.0283,0.33064,-9.75072,-1.86805,-5.64303,-0.825755
2023-03-14 22:43:10:633,-1.01761,0.312472,-9.76811,-1.86719,-5.6492,-0.830311
2023-03-14 22:43:10:643,-1.01018,0.312032,-9.76356,-1.86112,-5.65121,-0.838812
2023-03-14 22:43:10:653,-1.0091,0.295123,-9.76211,-1.85643,-5.65385,-0.849804
2023-03-14 22:43:10:663,-0.961759,0.280184,-9.77835,-1.8477,-5.65824,-0.862415
2023-03-14 22:43:10:673,-0.889927,0.290798,-9.77907,-1.83874,-5.65988,-0.878587
2023-03-14 22:43:10:683,-0.87401,0.265235,-9.74713,-1.82708,-5.65969,-0.886562
2023-03-14 22:43:10:693,-0.927032,0.23812,-9.68485,-1.81806,-5.66828,-0.891842
2023-03-14 22:43:10:703,-0.961851,0.259649,-9.67737,-1.81288,-5.67457,-0.89389
2023-03-14 22:43:10:713,-0.950712,0.292117,-9.69875,-1.81148,-5.67322,-0.899516
2023-03-14 22:43:10:723,-0.92817,0.307072,-9.69411,-1.81483,-5.6722,-0.903187
2023-03-14 22:43:10:733,-0.92854,0.325655,-9.69655,-1.81419,-5.66874,-0.901429
2023-03-14 22:43:10:743,-0.934674,0.34015,-9.70849,-1.81545,-5.6618,-0.900862
2023-03-14 22:43:10:753,-0.939631,0.324045,-9.69635,-1.8139,-5.6554,-0.900006
2023-03-14 22:43:10:764,-0.955072,0.317998,-9.66848,-1.80933,-5.64937,-0.898387
2023-03-14 22:43:10:773,-0.97358,0.296518,-9.67743,-1.80644,-5.64457,-0.894979
2023-03-14 22:43:10:783,-0.97239,0.283432,-9.66886,-1.80371,-5.63799,-0.894443
2023-03-14 22:43:10:793,-0.959407,0.274967,-9.67155,-1.80467,-5.62948,-0.893646
2023-03-14 22:43:10:803,-0.945715,0.291521,-9.69777,-1.80697,-5.61949,-0.898584
2023-03-14 22:43:10:813,-0.965735,0.298367,-9.71391,-1.81488,-5.61295,-0.900243
2023-03-14 22:43:10:823,-0.972779,0.315177,-9.71684,-1.82341,-5.6094,-0.903669
2023-03-14 22:43:10:833,-0.961406,0.32409,-9.72634,-1.83196,-5.59916,-0.905891
2023-03-14 22:43:10:843,-0.967989,0.347968,-9.73743,-1.84395,-5.59452,-0.908902
2023-03-14 22:43:10:853,-0.968614,0.385004,-9.77965,-1.85825,-5.58773,-0.911151
2023-03-14 22:43:10:863,-0.957024,0.396294,-9.80247,-1.87247,-5.58155,-0.916104
2023-03-14 22:43:10:873,-0.94524,0.406106,-9.79899,-1.88535,-5.57458,-0.926924
2023-03-14 22:43:10:883,-0.943083,0.407954,-9.78855,-1.8956,-5.56882,-0.936308
2023-03-14 22:43:10:893,-0.937247,0.42672,-9.7775,-1.90132,-5.56464,-0.940472
2023-03-14 22:43:10:903,-0.948444,0.412906,-9.76994,-1.90424,-5.56303,-0.949112
2023-03-14 22:43:10:913,-0.96571,0.394303,-9.74848,-1.90447,-5.56129,-0.958275
2023-03-14 22:43:10:923,-0.963423,0.376354,-9.73714,-1.90703,-5.55819,-0.965758
2023-03-14 22:43:10:933,-0.898825,0.360821,-9.73756,-1.90635,-5.55152,-0.97969
2023-03-14 22:43:10:943,-0.85534,0.333151,-9.73188,-1.89987,-5.54645,-0.994403
2023-03-14 22:43:10:953,-0.877606,0.317916,-9.68888,-1.89505,-5.54791,-1.00097
2023-03-14 22:43:10:963,-0.903529,0.283683,-9.6774,-1.89398,-5.54656,-1.0059
2023-03-14 22:43:10:973,-0.893466,0.263381,-9.67067,-1.89378,-5.5451,-1.00985
2023-03-14 22:43:10:983,-0.885275,0.253284,-9.65991,-1.89867,-5.54692,-1.01148
2023-03-14 22:43:10:993,-0.879214,0.251716,-9.6456,-1.9028,-5.54707,-1.01105
2023-03-14 22:43:11:3,-0.891449,0.255662,-9.62188,-1.91175,-5.54327,-1.01191
2023-03-14 22:43:11:13,-0.914498,0.228109,-9.57532,-1.92358,-5.53741,-1.00944
2023-03-14 22:43:11:23,-0.929895,0.207762,-9.50989,-1.94085,-5.52816,-1.00187
2023-03-14 22:43:11:33,-0.918865,0.16005,-9.46018,-1.96272,-5.51208,-0.995883
2023-03-14 22:43:11:43,-0.918699,0.121679,-9.40464,-1.99151,-5.49665,-0.987916
2023-03-14 22:43:11:53,-0.927487,0.131559,-9.27848,-2.03027,-5.48138,-0.981762
2023-03-14 22:43:11:63,-0.954139,0.0103736,-9.20001,-2.08159,-5.45762,-0.972637
2023-03-14 22:43:11:73,-0.924669,-0.0488581,-9.15822,-2.14913,-5.42067,-0.958775
2023-03-14 22:43:11:83,-0.782991,-0.0693121,-9.15741,-2.23838,-5.36952,-0.936512
2023-03-14 22:43:11:93,-0.679525,-0.12343,-9.13281,-2.35012,-5.31276,-0.908915
2023-03-14 22:43:11:103,-0.644095,-0.155187,-9.19819,-2.48784,-5.25452,-0.868002
2023-03-14 22:43:11:113,-0.604248,-0.0135891,-9.47785,-2.65778,-5.2011,-0.813741
2023-03-14 22:43:11:124,-0.689186,0.344867,-9.83227,-2.86806,-5.17367,-0.752403
2023-03-14 22:43:11:133,-0.837522,0.620652,-10.0624,-3.08235,-5.16375,-0.695543
2023-03-14 22:43:11:144,-0.942099,0.748343,-10.1104,-3.28257,-5.16341,-0.646441
2023-03-14 22:43:11:153,-0.935084,0.766632,-10.0263,-3.45693,-5.16686,-0.605688
2023-03-14 22:43:11:164,-0.940527,0.714609,-9.88096,-3.61,-5.16947,-0.564427
2023-03-14 22:43:11:173,-0.994977,0.704928,-9.82385,-3.74999,-5.17251,-0.520597
2023-03-14 22:43:11:183,-1.01847,0.799896,-9.92983,-3.89246,-5.17623,-0.477966
2023-03-14 22:43:11:193,-1.04457,0.978128,-10.1029,-4.03925,-5.17664,-0.439989
2023-03-14 22:43:11:203,-1.08637,1.12217,-10.196,-4.17228,-5.17927,-0.411322
2023-03-14 22:43:11:213,-1.1146,1.17465,-10.1987,-4.28582,-5.18207,-0.392425
2023-03-14 22:43:11:224,-1.11407,1.15538,-10.1201,-4.37405,-5.17986,-0.382281
2023-03-14 22:43:11:233,-1.08395,1.10142,-10.0079,-4.43857,-5.17576,-0.383382
2023-03-14 22:43:11:243,-1.03914,1.04011,-9.90526,-4.48791,-5.16939,-0.3914
2023-03-14 22:43:11:253,-1.00853,1.02446,-9.85624,-4.52839,-5.16706,-0.405112
2023-03-14 22:43:11:263,-0.993066,1.0228,-9.8546,-4.56649,-5.16071,-0.425417
2023-03-14 22:43:11:273,-0.975034,1.00636,-9.86713,-4.59512,-5.1552,-0.449651
2023-03-14 22:43:11:283,-0.934652,1.00654,-9.8867,-4.61937,-5.14553,-0.474405
2023-03-14 22:43:11:293,-0.882734,1.0154,-9.89524,-4.63506,-5.13692,-0.503078
2023-03-14 22:43:11:303,-0.866169,1.03596,-9.91166,-4.63972,-5.12928,-0.534564
2023-03-14 22:43:11:313,-0.851967,1.01368,-9.91292,-4.63706,-5.1161,-0.567039
2023-03-14 22:43:11:323,-0.824069,0.947616,-9.87263,-4.62729,-5.09981,-0.597219
2023-03-14 22:43:11:333,-0.793513,0.880944,-9.8085,-4.6063,-5.08339,-0.621548
2023-03-14 22:43:11:343,-0.768618,0.820279,-9.75554,-4.57717,-5.06779,-0.645774
2023-03-14 22:43:11:353,-0.769634,0.790232,-9.70116,-4.54718,-5.04973,-0.664917
2023-03-14 22:43:11:363,-0.765855,0.747662,-9.66033,-4.51955,-5.03391,-0.683929
2023-03-14 22:43:11:373,-0.753303,0.724113,-9.6472,-4.49381,-5.01502,-0.69846
2023-03-14 22:43:11:383,-0.736966,0.718242,-9.67226,-4.4727,-5.0029,-0.709551
2023-03-14 22:43:11:393,-0.754608,0.721889,-9.72809,-4.45335,-4.99321,-0.717467
2023-03-14 22:43:11:403,-0.772148,0.74236,-9.74407,-4.43818,-4.98924,-0.727658
2023-03-14 22:43:11:413,-0.787724,0.754718,-9.75242,-4.42271,-4.98222,-0.740001
2023-03-14 22:43:11:423,-0.812845,0.753553,-9.72431,-4.40336,-4.98023,-0.748351
2023-03-14 22:43:11:433,-0.810581,0.729802,-9.67609,-4.38359,-4.97673,-0.757683
2023-03-14 22:43:11:444,-0.806232,0.707225,-9.65095,-4.36532,-4.97278,-0.765665
2023-03-14 22:43:11:453,-0.815228,0.706517,-9.64971,-4.34989,-4.96741,-0.770993
2023-03-14 22:43:11:463,-0.831176,0.709779,-9.67269,-4.33612,-4.96212,-0.774089
2023-03-14 22:43:11:473,-0.843847,0.713833,-9.69685,-4.32842,-4.96189,-0.77499
2023-03-14 22:43:11:483,-0.85696,0.715839,-9.6955,-4.32394,-4.95994,-0.782
2023-03-14 22:43:11:493,-0.862575,0.716422,-9.68181,-4.31665,-4.95818,-0.786503
2023-03-14 22:43:11:503,-0.859851,0.724867,-9.69901,-4.31152,-4.95786,-0.793944
2023-03-14 22:43:11:513,-0.848556,0.747003,-9.72975,-4.30748,-4.95519,-0.807034
2023-03-14 22:43:11:523,-0.86003,0.767342,-9.76317,-4.3096,-4.95303,-0.8198
2023-03-14 22:43:11:533,-0.878181,0.804361,-9.81632,-4.30528,-4.94885,-0.832379
2023-03-14 22:43:11:543,-0.869912,0.827103,-9.8209,-4.29805,-4.94063,-0.848823
2023-03-14 22:43:11:553,-0.856634,0.797123,-9.79013,-4.28137,-4.93573,-0.865357
2023-03-14 22:43:11:563,-0.821833,0.744854,-9.75039,-4.26317,-4.92911,-0.885278
2023-03-14 22:43:11:573,-0.784711,0.708309,-9.73054,-4.2407,-4.92066,-0.902782
2023-03-14 22:43:11:583,-0.783245,0.701459,-9.73434,-4.21817,-4.91162,-0.919179
2023-03-14 22:43:11:593,-0.789724,0.691642,-9.77025,-4.19713,-4.90386,-0.928997
2023-03-14 22:43:11:603,-0.808891,0.718843,-9.81734,-4.17777,-4.90217,-0.943614
2023-03-14 22:43:11:613,-0.828617,0.78638,-9.90513,-4.15831,-4.8983,-0.959456
2023-03-14 22:43:11:623,-0.8056,0.805671,-9.94125,-4.13385,-4.89273,-0.977783
2023-03-14 22:43:11:633,-0.791137,0.761163,-9.88194,-4.09706,-4.89055,-0.993301
2023-03-14 22:43:11:643,-0.787102,0.68604,-9.79022,-4.04825,-4.8918,-1.00908
2023-03-14 22:43:11:653,-0.796515,0.618548,-9.68403,-4.00135,-4.90077,-1.02094
2023-03-14 22:43:11:663,-0.794218,0.622715,-9.68473,-3.95855,-4.91147,-1.03165
2023-03-14 22:43:11:673,-0.816003,0.69416,-9.75425,-3.92278,-4.92692,-1.04188
2023-03-14 22:43:11:683,-0.883128,0.772871,-9.81457,-3.88801,-4.94646,-1.053
2023-03-14 22:43:11:693,-0.929688,0.804545,-9.84176,-3.84722,-4.96106,-1.06492
2023-03-14 22:43:11:703,-0.935358,0.76491,-9.79394,-3.79473,-4.97003,-1.08466
2023-03-14 22:43:11:713,-0.915058,0.668103,-9.70674,-3.73453,-4.97623,-1.10447
2023-03-14 22:43:11:723,-0.874773,0.596755,-9.64757,-3.66979,-4.9838,-1.12678
2023-03-14 22:43:11:733,-0.85632,0.549375,-9.61733,-3.60569,-4.99386,-1.14836
2023-03-14 22:43:11:743,-0.88518,0.541792,-9.61099,-3.54888,-5.00333,-1.17151
2023-03-14 22:43:11:753,-0.875533,0.532433,-9.60925,-3.49387,-5.01272,-1.19394
2023-03-14 22:43:11:763,-0.835424,0.498471,-9.60788,-3.44514,-5.01977,-1.21524
2023-03-14 22:43:11:773,-0.8266,0.486105,-9.60011,-3.40184,-5.02489,-1.23123
2023-03-14 22:43:11:783,-0.826277,0.492946,-9.63756,-3.36417,-5.03179,-1.24834
2023-03-14 22:43:11:793,-0.835975,0.508694,-9.67431,-3.33673,-5.03782,-1.26382
2023-03-14 22:43:11:803,-0.847273,0.51389,-9.67601,-3.31103,-5.04521,-1.28036
2023-03-14 22:43:11:813,-0.823355,0.509659,-9.66455,-3.29039,-5.04923,-1.295
2023-03-14 22:43:11:823,-0.790476,0.48159,-9.64656,-3.2656,-5.05273,-1.3059
2023-03-14 22:43:11:833,-0.766856,0.467551,-9.62889,-3.24909,-5.05255,-1.31166
2023-03-14 22:43:11:843,-0.761963,0.471172,-9.61654,-3.23811,-5.05805,-1.31115
2023-03-14 22:43:11:853,-0.798943,0.501498,-9.6327,-3.23271,-5.06416,-1.3056
2023-03-14 22:43:11:863,-0.869487,0.509195,-9.64897,-3.22937,-5.06896,-1.30115
2023-03-14 22:43:11:873,-0.9078,0.525858,-9.63874,-3.22872,-5.07459,-1.2998
2023-03-14 22:43:11:883,-0.916327,0.534959,-9.64228,-3.22748,-5.07799,-1.30383
2023-03-14 22:43:11:893,-0.870364,0.542431,-9.67485,-3.22847,-5.07915,-1.30922
2023-03-14 22:43:11:903,-0.821566,0.554741,-9.73312,-3.23204,-5.07787,-1.31681
2023-03-14 22:43:11:913,-0.814498,0.547475,-9.75094,-3.23144,-5.07889,-1.32635
2023-03-14 22:43:11:923,-0.836392,0.540764,-9.72576,-3.23036,-5.08268,-1.33224
2023-03-14 22:43:11:933,-0.858537,0.541286,-9.72991,-3.22852,-5.08945,-1.33696
2023-03-14 22:43:11:943,-0.867958,0.555456,-9.75203,-3.22922,-5.09318,-1.34234
2023-03-14 22:43:11:953,-0.859317,0.57227,-9.76626,-3.23019,-5.0942,-1.34469
2023-03-14 22:43:11:963,-0.866847,0.585524,-9.78312,-3.22948,-5.09212,-1.34696
2023-03-14 22:43:11:973,-0.873989,0.604339,-9.77592,-3.22851,-5.08873,-1.34838
2023-03-14 22:43:11:983,-0.88072,0.611698,-9.77759,-3.22534,-5.08241,-1.34956
2023-03-14 22:43:11:993,-0.868797,0.626959,-9.80562,-3.22449,-5.07779,-1.34949
2023-03-14 22:43:12:3,-0.860574,0.629645,-9.80012,-3.22111,-5.07335,-1.35292
2023-03-14 22:43:12:13,-0.86597,0.630109,-9.80178,-3.21574,-5.0724,-1.35294
2023-03-14 22:43:12:23,-0.851459,0.619343,-9.80625,-3.20315,-5.07285,-1.3555
2023-03-14 22:43:12:33,-0.838097,0.598722,-9.7778,-3.18684,-5.0742,-1.36141
2023-03-14 22:43:12:43,-0.826201,0.564205,-9.753,-3.16679,-5.07991,-1.368
2023-03-14 22:43:12:53,-0.808271,0.524926,-9.73319,-3.14672,-5.08835,-1.37201
2023-03-14 22:43:12:63,-0.812809,0.494404,-9.73023,-3.12653,-5.09527,-1.37543
2023-03-14 22:43:12:73,-0.803492,0.488441,-9.70376,-3.10654,-5.11066,-1.37639
2023-03-14 22:43:12:83,-0.801421,0.472286,-9.69851,-3.09061,-5.13002,-1.36981
2023-03-14 22:43:12:93,-0.795028,0.474506,-9.6912,-3.07653,-5.1488,-1.36397
2023-03-14 22:43:12:103,-0.807752,0.482155,-9.67569,-3.06723,-5.16906,-1.35632
2023-03-14 22:43:12:113,-0.839769,0.49068,-9.69162,-3.06049,-5.18559,-1.34301
2023-03-14 22:43:12:123,-0.796462,0.398646,-9.61184,-3.05186,-5.21165,-1.32546
2023-03-14 22:43:12:133,-0.833852,0.36544,-9.51812,-3.05579,-5.25743,-1.3111
2023-03-14 22:43:12:143,-0.962341,0.466312,-9.58123,-3.07645,-5.30177,-1.28959
2023-03-14 22:43:12:153,-1.08999,0.605414,-9.71686,-3.10423,-5.33193,-1.27287
2023-03-14 22:43:12:163,-1.07967,0.648178,-9.77586,-3.1228,-5.34853,-1.26029
2023-03-14 22:43:12:173,-1.02208,0.599806,-9.78246,-3.12717,-5.34803,-1.25909
2023-03-14 22:43:12:183,-0.938363,0.5099,-9.74077,-3.12043,-5.33837,-1.25927
2023-03-14 22:43:12:193,-0.899898,0.476958,-9.71065,-3.11422,-5.32838,-1.25964
2023-03-14 22:43:12:203,-0.899018,0.499706,-9.69219,-3.10924,-5.32299,-1.25816
2023-03-14 22:43:12:213,-0.925349,0.525556,-9.70706,-3.10912,-5.32069,-1.26001
2023-03-14 22:43:12:223,-0.90802,0.549163,-9.69267,-3.10895,-5.31676,-1.263
2023-03-14 22:43:12:233,-0.865045,0.50139,-9.65263,-3.10775,-5.31206,-1.27002
2023-03-14 22:43:12:243,-0.810249,0.449182,-9.62786,-3.10934,-5.31192,-1.27985
2023-03-14 22:43:12:253,-0.817391,0.467662,-9.63234,-3.12169,-5.31114,-1.28163
2023-03-14 22:43:12:263,-0.826337,0.511247,-9.71768,-3.14284,-5.31229,-1.28631
2023-03-14 22:43:12:273,-0.819698,0.512661,-9.7223,-3.16414,-5.31905,-1.2903
2023-03-14 22:43:12:283,-0.789833,0.524702,-9.7523,-3.18964,-5.33006,-1.29494
2023-03-14 22:43:12:293,-0.778957,0.52256,-9.72983,-3.21479,-5.35482,-1.29549
2023-03-14 22:43:12:303,-0.806055,0.540475,-9.72364,-3.24509,-5.38396,-1.29844
2023-03-14 22:43:12:313,-0.848712,0.564797,-9.68622,-3.27893,-5.42323,-1.30184
2023-03-14 22:43:12:323,-1.035,0.753355,-9.76865,-3.31382,-5.4567,-1.3042
2023-03-14 22:43:12:333,-0.994018,0.887767,-10.0441,-3.32753,-5.43137,-1.30474
2023-03-14 22:43:12:343,-0.682921,0.498895,-9.73769,-3.3113,-5.41165,-1.31927
2023-03-14 22:43:12:353,-0.677103,0.354536,-9.51685,-3.29596,-5.41144,-1.31775
2023-03-14 22:43:12:363,-0.952745,0.557939,-9.67537,-3.30438,-5.41936,-1.29562
2023-03-14 22:43:12:373,-1.11255,0.737037,-9.87318,-3.31529,-5.42478,-1.28021
2023-03-14 22:43:12:383,-1.10032,0.74477,-9.92107,-3.32078,-5.42449,-1.28068
2023-03-14 22:43:12:393,-1.04188,0.644615,-9.82444,-3.30706,-5.41565,-1.28738
2023-03-14 22:43:12:403,-1.01929,0.547454,-9.71033,-3.28258,-5.40943,-1.29611
2023-03-14 22:43:12:413,-0.988239,0.508853,-9.66566,-3.26322,-5.40231,-1.30203
2023-03-14 22:43:12:423,-0.951578,0.548851,-9.7,-3.24847,-5.39414,-1.31395
2023-03-14 22:43:12:433,-0.967146,0.610571,-9.76289,-3.23736,-5.38387,-1.32136
2023-03-14 22:43:12:444,-1.00528,0.654327,-9.81472,-3.22557,-5.37185,-1.33181
2023-03-14 22:43:12:453,-0.998489,0.64725,-9.82759,-3.20248,-5.35305,-1.34351
2023-03-14 22:43:12:463,-0.971748,0.622551,-9.80972,-3.17504,-5.33046,-1.35581
2023-03-14 22:43:12:473,-0.934209,0.575355,-9.80882,-3.14004,-5.30096,-1.36806
2023-03-14 22:43:12:483,-0.851149,0.507776,-9.79198,-3.09983,-5.26854,-1.37685
2023-03-14 22:43:12:493,-0.799194,0.396092,-9.64604,-3.06453,-5.26127,-1.38604
2023-03-14 22:43:12:504,-0.916148,0.454503,-9.64258,-3.04102,-5.27044,-1.38702
2023-03-14 22:43:12:513,-1.06027,0.584594,-9.7727,-3.02687,-5.2774,-1.38648
2023-03-14 22:43:12:524,-1.05045,0.614843,-9.81111,-3.00493,-5.2749,-1.39031
2023-03-14 22:43:12:533,-1.01652,0.556214,-9.77489,-2.97343,-5.26167,-1.39433
2023-03-14 22:43:12:543,-1.00104,0.497382,-9.72248,-2.93098,-5.24041,-1.39478
2023-03-14 22:43:12:553,-0.97136,0.458863,-9.68778,-2.8848,-5.21113,-1.39324
2023-03-14 22:43:12:563,-0.92765,0.404495,-9.64058,-2.83977,-5.18493,-1.38997
2023-03-14 22:43:12:573,-0.946654,0.38311,-9.59491,-2.80689,-5.16927,-1.38575
2023-03-14 22:43:12:583,-1.01572,0.415046,-9.59791,-2.78044,-5.15824,-1.3781
2023-03-14 22:43:12:593,-1.04313,0.432475,-9.61314,-2.76396,-5.14923,-1.37533
2023-03-14 22:43:12:604,-1.01917,0.405204,-9.62632,-2.74515,-5.1356,-1.37862
2023-03-14 22:43:12:613,-0.964168,0.404488,-9.62851,-2.72883,-5.11896,-1.389
2023-03-14 22:43:12:624,-0.899502,0.417242,-9.67275,-2.7212,-5.09503,-1.40207
2023-03-14 22:43:12:633,-0.800787,0.428275,-9.72399,-2.71382,-5.06853,-1.41559
2023-03-14 22:43:12:643,-0.73487,0.425038,-9.71029,-2.707,-5.04632,-1.43428
2023-03-14 22:43:12:654,-0.753969,0.443791,-9.71035,-2.7065,-5.03287,-1.44916
2023-03-14 22:43:12:663,-0.772504,0.460685,-9.72234,-2.71006,-5.0215,-1.46115
2023-03-14 22:43:12:673,-0.79267,0.484243,-9.73271,-2.71489,-5.014,-1.4722
2023-03-14 22:43:12:684,-0.790665,0.539088,-9.76352,-2.72345,-5.00366,-1.48079
2023-03-14 22:43:12:693,-0.751904,0.540939,-9.79591,-2.73119,-4.9934,-1.49321
2023-03-14 22:43:12:703,-0.71422,0.530999,-9.78724,-2.73374,-4.97959,-1.50127
2023-03-14 22:43:12:713,-0.716604,0.527742,-9.75271,-2.73351,-4.96734,-1.50704
2023-03-14 22:43:12:723,-0.718431,0.508324,-9.73304,-2.73229,-4.95987,-1.51465
2023-03-14 22:43:12:733,-0.716362,0.482407,-9.73633,-2.72923,-4.95722,-1.52067
2023-03-14 22:43:12:744,-0.709271,0.486873,-9.71931,-2.72776,-4.95756,-1.52433
2023-03-14 22:43:12:753,-0.708169,0.499191,-9.72295,-2.72637,-4.95927,-1.5255
2023-03-14 22:43:12:763,-0.696955,0.488173,-9.739,-2.72774,-4.96276,-1.52572
2023-03-14 22:43:12:773,-0.697653,0.488117,-9.73527,-2.72737,-4.96662,-1.52674
2023-03-14 22:43:12:784,-0.717722,0.482499,-9.73535,-2.7272,-4.97512,-1.52412
2023-03-14 22:43:12:793,-0.738987,0.470829,-9.73921,-2.72578,-4.98388,-1.52007
2023-03-14 22:43:12:804,-0.758956,0.479517,-9.74561,-2.72928,-4.99529,-1.51432
2023-03-14 22:43:12:813,-0.752139,0.484566,-9.77696,-2.72964,-5.00676,-1.50982
2023-03-14 22:43:12:824,-0.744192,0.497296,-9.80056,-2.73113,-5.02135,-1.50548
2023-03-14 22:43:12:833,-0.751471,0.494067,-9.78699,-2.73178,-5.03389,-1.5017
2023-03-14 22:43:12:843,-0.76678,0.484443,-9.766,-2.73146,-5.04788,-1.49611
2023-03-14 22:43:12:853,-0.780604,0.49323,-9.76849,-2.73121,-5.0639,-1.484
2023-03-14 22:43:12:863,-0.807629,0.496846,-9.76587,-2.73454,-5.0769,-1.47098
2023-03-14 22:43:12:873,-0.831737,0.488879,-9.75843,-2.73226,-5.09217,-1.45977
2023-03-14 22:43:12:883,-0.871183,0.485921,-9.75476,-2.73089,-5.10467,-1.44454
2023-03-14 22:43:12:893,-0.893819,0.489585,-9.7461,-2.7309,-5.11917,-1.43499
2023-03-14 22:43:12:904,-0.86177,0.479232,-9.74922,-2.72625,-5.1315,-1.42084
2023-03-14 22:43:12:913,-0.870107,0.487499,-9.73781,-2.72398,-5.15023,-1.40869
2023-03-14 22:43:12:924,-0.934379,0.496092,-9.73215,-2.72189,-5.17041,-1.39691
2023-03-14 22:43:12:933,-0.977738,0.50527,-9.70432,-2.7182,-5.19581,-1.3843
2023-03-14 22:43:12:944,-0.988008,0.496574,-9.69719,-2.716,-5.21442,-1.3761
2023-03-14 22:43:12:953,-0.981862,0.50338,-9.72983,-2.71737,-5.22698,-1.36487
2023-03-14 22:43:12:963,-0.978296,0.519454,-9.75682,-2.71977,-5.23666,-1.35679
2023-03-14 22:43:12:973,-0.952829,0.539598,-9.7653,-2.72316,-5.23952,-1.34782
2023-03-14 22:43:12:984,-0.963067,0.554896,-9.76673,-2.73018,-5.24076,-1.33848
2023-03-14 22:43:12:993,-0.989783,0.590437,-9.78221,-2.73284,-5.24295,-1.32638
2023-03-14 22:43:13:3,-1.01285,0.631742,-9.81058,-2.73374,-5.23571,-1.31722
2023-03-14 22:43:13:13,-1.00579,0.633078,-9.82405,-2.72982,-5.2262,-1.31191
2023-03-14 22:43:13:24,-0.993549,0.615614,-9.80274,-2.71718,-5.21352,-1.30639
2023-03-14 22:43:13:33,-0.964942,0.573416,-9.78693,-2.69648,-5.19605,-1.30707
2023-03-14 22:43:13:44,-0.937053,0.535902,-9.7777,-2.67143,-5.17778,-1.31299
2023-03-14 22:43:13:53,-0.88936,0.499378,-9.77623,-2.63975,-5.16006,-1.32518
2023-03-14 22:43:13:64,-0.848221,0.440145,-9.7663,-2.60697,-5.14514,-1.34037
2023-03-14 22:43:13:73,-0.811053,0.412666,-9.76581,-2.57306,-5.13174,-1.35602
2023-03-14 22:43:13:83,-0.796476,0.386865,-9.79602,-2.5404,-5.12487,-1.37452
2023-03-14 22:43:13:93,-0.788497,0.386639,-9.81599,-2.50932,-5.12773,-1.39123
2023-03-14 22:43:13:104,-0.803768,0.372042,-9.81592,-2.4755,-5.13236,-1.40918
2023-03-14 22:43:13:113,-0.80848,0.346504,-9.80033,-2.43835,-5.14053,-1.42764
2023-03-14 22:43:13:123,-0.791975,0.323789,-9.77303,-2.39929,-5.14735,-1.44637
2023-03-14 22:43:13:133,-0.78268,0.296353,-9.72421,-2.35919,-5.15772,-1.46199
2023-03-14 22:43:13:143,-0.75321,0.276422,-9.6707,-2.31981,-5.1673,-1.47315
2023-03-14 22:43:13:154,-0.738549,0.252513,-9.61197,-2.28437,-5.17847,-1.47861
2023-03-14 22:43:13:164,-0.719937,0.235637,-9.56615,-2.25375,-5.1896,-1.47636
2023-03-14 22:43:13:174,-0.713727,0.238405,-9.55113,-2.23191,-5.19896,-1.46013
2023-03-14 22:43:13:183,-0.691189,0.233265,-9.55256,-2.21698,-5.20054,-1.42869
2023-03-14 22:43:13:193,-0.710006,0.226982,-9.53545,-2.21171,-5.21657,-1.3836
2023-03-14 22:43:13:204,-0.822869,0.283599,-9.57831,-2.22243,-5.23976,-1.31754
2023-03-14 22:43:13:213,-0.987659,0.38562,-9.66686,-2.24619,-5.26603,-1.23919
2023-03-14 22:43:13:224,-1.15123,0.466047,-9.73794,-2.27194,-5.28886,-1.15318
2023-03-14 22:43:13:233,-1.27674,0.492859,-9.78789,-2.2986,-5.30602,-1.06755
2023-03-14 22:43:13:243,-1.35596,0.510074,-9.80711,-2.31205,-5.31156,-0.98442
2023-03-14 22:43:13:253,-1.3954,0.497527,-9.81038,-2.31323,-5.31061,-0.908511
2023-03-14 22:43:13:264,-1.41367,0.485957,-9.81232,-2.30908,-5.30032,-0.841471
2023-03-14 22:43:13:273,-1.3905,0.468877,-9.81369,-2.29736,-5.28253,-0.791317
2023-03-14 22:43:13:283,-1.32533,0.426599,-9.77017,-2.27371,-5.25767,-0.754764
2023-03-14 22:43:13:293,-1.26259,0.385113,-9.71657,-2.24786,-5.22784,-0.731293
2023-03-14 22:43:13:304,-1.21781,0.326168,-9.66959,-2.21625,-5.19303,-0.723317
2023-03-14 22:43:13:313,-1.17467,0.303323,-9.63041,-2.18598,-5.15738,-0.725457
2023-03-14 22:43:13:324,-1.07476,0.287964,-9.642,-2.15665,-5.12375,-0.742586
2023-03-14 22:43:13:333,-0.961303,0.25789,-9.68126,-2.13443,-5.09233,-0.777493
2023-03-14 22:43:13:344,-0.868753,0.263952,-9.70084,-2.11628,-5.06307,-0.821998
2023-03-14 22:43:13:353,-0.800425,0.268123,-9.73509,-2.1032,-5.04036,-0.872152
2023-03-14 22:43:13:363,-0.734992,0.261091,-9.76739,-2.09189,-5.02147,-0.926958
2023-03-14 22:43:13:374,-0.69092,0.260781,-9.78935,-2.08185,-5.00245,-0.983952
2023-03-14 22:43:13:383,-0.640354,0.259815,-9.78233,-2.07221,-4.98753,-1.03855
2023-03-14 22:43:13:394,-0.611627,0.25291,-9.75354,-2.06319,-4.97443,-1.08487
2023-03-14 22:43:13:403,-0.602288,0.239314,-9.69854,-2.052,-4.96518,-1.12806
2023-03-14 22:43:13:413,-0.59861,0.205508,-9.66393,-2.0421,-4.95934,-1.15615
2023-03-14 22:43:13:423,-0.613608,0.211857,-9.6306,-2.03831,-4.952,-1.17311
2023-03-14 22:43:13:433,-0.665417,0.239481,-9.64181,-2.04337,-4.94206,-1.1771
2023-03-14 22:43:13:444,-0.721921,0.274816,-9.67239,-2.05437,-4.93445,-1.17358
2023-03-14 22:43:13:453,-0.777978,0.302769,-9.69314,-2.06725,-4.92653,-1.1664
2023-03-14 22:43:13:463,-0.825413,0.326487,-9.69219,-2.07935,-4.92067,-1.15368
2023-03-14 22:43:13:473,-0.854069,0.33428,-9.68869,-2.09557,-4.90868,-1.14062
2023-03-14 22:43:13:483,-0.88347,0.338813,-9.70219,-2.11398,-4.89379,-1.12809
2023-03-14 22:43:13:493,-0.909779,0.364993,-9.72543,-2.12859,-4.87333,-1.11779
2023-03-14 22:43:13:504,-0.91682,0.385192,-9.7468,-2.14331,-4.85528,-1.11177
2023-03-14 22:43:13:513,-0.908938,0.395794,-9.76065,-2.15632,-4.83636,-1.11025
2023-03-14 22:43:13:523,-0.910718,0.409006,-9.77233,-2.16862,-4.81514,-1.11106
2023-03-14 22:43:13:533,-0.900681,0.415856,-9.76905,-2.17923,-4.79478,-1.12034
2023-03-14 22:43:13:543,-0.883778,0.404818,-9.78695,-2.18379,-4.77226,-1.13825
2023-03-14 22:43:13:553,-0.841982,0.404406,-9.81222,-2.18915,-4.74787,-1.15774
2023-03-14 22:43:13:564,-0.743534,0.378862,-9.85532,-2.19152,-4.72021,-1.18558
2023-03-14 22:43:13:573,-0.643139,0.351652,-9.85404,-2.19576,-4.69351,-1.21691
2023-03-14 22:43:13:583,-0.607915,0.352485,-9.83103,-2.19908,-4.67552,-1.24354
2023-03-14 22:43:13:593,-0.649005,0.372566,-9.81359,-2.20176,-4.65925,-1.26414
2023-03-14 22:43:13:603,-0.673963,0.377712,-9.77975,-2.20054,-4.64468,-1.28135
2023-03-14 22:43:13:613,-0.656102,0.373542,-9.76003,-2.1995,-4.63204,-1.29712
2023-03-14 22:43:13:623,-0.627962,0.391051,-9.75709,-2.19993,-4.61634,-1.30982
2023-03-14 22:43:13:633,-0.604745,0.39982,-9.75437,-2.19739,-4.60245,-1.32523
2023-03-14 22:43:13:644,-0.606919,0.401199,-9.74242,-2.19699,-4.58923,-1.33372
2023-03-14 22:43:13:654,-0.621073,0.395971,-9.71312,-2.19501,-4.58255,-1.33792
2023-03-14 22:43:13:664,-0.614952,0.369762,-9.69122,-2.18955,-4.57595,-1.34132
2023-03-14 22:43:13:674,-0.608677,0.351558,-9.66198,-2.18345,-4.57125,-1.33747
2023-03-14 22:43:13:684,-0.606385,0.347502,-9.62668,-2.18249,-4.57152,-1.33158
2023-03-14 22:43:13:694,-0.60896,0.343134,-9.62038,-2.18135,-4.57499,-1.32077
2023-03-14 22:43:13:704,-0.62849,0.352397,-9.66535,-2.18857,-4.58014,-1.30833
2023-03-14 22:43:13:713,-0.63497,0.374767,-9.68551,-2.20277,-4.59194,-1.29131
2023-03-14 22:43:13:723,-0.679239,0.374145,-9.70145,-2.22355,-4.6139,-1.27119
2023-03-14 22:43:13:733,-0.73606,0.408907,-9.75386,-2.24803,-4.64144,-1.24977
2023-03-14 22:43:13:744,-0.807514,0.462936,-9.8227,-2.27254,-4.67069,-1.22824
2023-03-14 22:43:13:754,-0.850138,0.507285,-9.8499,-2.29785,-4.69982,-1.20699
2023-03-14 22:43:13:764,-0.866021,0.514986,-9.8385,-2.31172,-4.72298,-1.19006
2023-03-14 22:43:13:773,-0.870336,0.483813,-9.80559,-2.32442,-4.74342,-1.17325
2023-03-14 22:43:13:784,-0.887986,0.467639,-9.7701,-2.33312,-4.76017,-1.15433
2023-03-14 22:43:13:794,-0.891842,0.48524,-9.74377,-2.34485,-4.77605,-1.13454
2023-03-14 22:43:13:804,-0.931444,0.489057,-9.75571,-2.36077,-4.79117,-1.11753
2023-03-14 22:43:13:813,-0.987265,0.495973,-9.73902,-2.37025,-4.80746,-1.10108
2023-03-14 22:43:13:823,-1.0302,0.492332,-9.75178,-2.38059,-4.81867,-1.08523
2023-03-14 22:43:13:833,-1.03209,0.505669,-9.77886,-2.38621,-4.82914,-1.07347
2023-03-14 22:43:13:844,-0.950425,0.515402,-9.81027,-2.39283,-4.8289,-1.06288
2023-03-14 22:43:13:853,-0.894071,0.491171,-9.80099,-2.39429,-4.83153,-1.06228
2023-03-14 22:43:13:864,-0.918865,0.470743,-9.75627,-2.39192,-4.82785,-1.05973
2023-03-14 22:43:13:873,-0.952407,0.451698,-9.74008,-2.38218,-4.82952,-1.05771
2023-03-14 22:43:13:883,-0.955657,0.452395,-9.72138,-2.37574,-4.83127,-1.0581
2023-03-14 22:43:13:893,-0.937498,0.453511,-9.73368,-2.36964,-4.82897,-1.0649
2023-03-14 22:43:13:904,-0.923924,0.461963,-9.75058,-2.36521,-4.82286,-1.07002
2023-03-14 22:43:13:914,-0.916559,0.476191,-9.78806,-2.36167,-4.81362,-1.07432
2023-03-14 22:43:13:924,-0.895704,0.485487,-9.8203,-2.35615,-4.80162,-1.08242
2023-03-14 22:43:13:933,-0.856419,0.471341,-9.82697,-2.34764,-4.78905,-1.09339
2023-03-14 22:43:13:943,-0.834144,0.446108,-9.81587,-2.33658,-4.77766,-1.10529
2023-03-14 22:43:13:953,-0.804318,0.430872,-9.78698,-2.32191,-4.76014,-1.12198
2023-03-14 22:43:13:964,-0.811093,0.418268,-9.76785,-2.30027,-4.74562,-1.13764
2023-03-14 22:43:13:974,-0.818905,0.410109,-9.78615,-2.27766,-4.73085,-1.1537
2023-03-14 22:43:13:984,-0.774927,0.38075,-9.75959,-2.25354,-4.71372,-1.17168
2023-03-14 22:43:13:994,-0.741525,0.340067,-9.73515,-2.22574,-4.69971,-1.19197
2023-03-14 22:43:14:4,-0.730629,0.317037,-9.72768,-2.19782,-4.6888,-1.20918
2023-03-14 22:43:14:14,-0.732243,0.327693,-9.71888,-2.17506,-4.6816,-1.22501
2023-03-14 22:43:14:24,-0.721652,0.273456,-9.7037,-2.15413,-4.67448,-1.24089
2023-03-14 22:43:14:33,-0.704193,0.285011,-9.70361,-2.13466,-4.66365,-1.25746
2023-03-14 22:43:14:43,-0.693129,0.304097,-9.71446,-2.11844,-4.65751,-1.27031
2023-03-14 22:43:14:53,-0.704642,0.292468,-9.69293,-2.10787,-4.65169,-1.27961
2023-03-14 22:43:14:63,-0.739757,0.290722,-9.67868,-2.09695,-4.64674,-1.28663
2023-03-14 22:43:14:73,-0.739751,0.300809,-9.69115,-2.08798,-4.64344,-1.28841
2023-03-14 22:43:14:83,-0.747398,0.322815,-9.70619,-2.08474,-4.64054,-1.28867
2023-03-14 22:43:14:93,-0.758089,0.34096,-9.70146,-2.08243,-4.6336,-1.29031
2023-03-14 22:43:14:103,-0.776662,0.34427,-9.70851,-2.08002,-4.62937,-1.28673
2023-03-14 22:43:14:113,-0.783713,0.362595,-9.73288,-2.08123,-4.62402,-1.28443
2023-03-14 22:43:14:123,-0.78046,0.378521,-9.74744,-2.08174,-4.62233,-1.28356
2023-03-14 22:43:14:133,-0.780829,0.367002,-9.75354,-2.08171,-4.62143,-1.28706
2023-03-14 22:43:14:143,-0.796575,0.371212,-9.7586,-2.08091,-4.61976,-1.28817
2023-03-14 22:43:14:153,-0.804609,0.380733,-9.76002,-2.08115,-4.62025,-1.28678
2023-03-14 22:43:14:163,-0.814896,0.3754,-9.78577,-2.07841,-4.61938,-1.28682
2023-03-14 22:43:14:173,-0.782294,0.357454,-9.78537,-2.07278,-4.61563,-1.29319
2023-03-14 22:43:14:183,-0.77011,0.343643,-9.7692,-2.07024,-4.61214,-1.29893
2023-03-14 22:43:14:193,-0.76875,0.343159,-9.73837,-2.06416,-4.61082,-1.30578
2023-03-14 22:43:14:204,-0.7598,0.349889,-9.71902,-2.06244,-4.60938,-1.30857
2023-03-14 22:43:14:214,-0.779324,0.349654,-9.72758,-2.05638,-4.60857,-1.31141
2023-03-14 22:43:14:224,-0.799151,0.348634,-9.73322,-2.0533,-4.60837,-1.31331
2023-03-14 22:43:14:233,-0.806911,0.347784,-9.73945,-2.05217,-4.60806,-1.31449
2023-03-14 22:43:14:243,-0.800045,0.355552,-9.76189,-2.04751,-4.60692,-1.31614
2023-03-14 22:43:14:253,-0.803956,0.382921,-9.77838,-2.04384,-4.59889,-1.31815
2023-03-14 22:43:14:264,-0.795965,0.383365,-9.7628,-2.0402,-4.59764,-1.32024
2023-03-14 22:43:14:273,-0.787103,0.353133,-9.71226,-2.03112,-4.595,-1.32401
2023-03-14 22:43:14:284,-0.787246,0.323319,-9.68005,-2.02005,-4.59394,-1.32695
2023-03-14 22:43:14:294,-0.803003,0.328628,-9.6972,-2.0161,-4.59115,-1.33207
2023-03-14 22:43:14:303,-0.826318,0.3383,-9.72071,-2.01353,-4.58583,-1.33535
2023-03-14 22:43:14:313,-0.822998,0.33743,-9.72894,-2.01064,-4.58475,-1.33987
2023-03-14 22:43:14:323,-0.795258,0.340906,-9.72688,-2.00863,-4.57897,-1.34476
2023-03-14 22:43:14:333,-0.78049,0.337657,-9.73359,-2.01014,-4.57687,-1.35021
2023-03-14 22:43:14:344,-0.80028,0.336099,-9.75773,-2.00991,-4.57347,-1.35462
2023-03-14 22:43:14:354,-0.802591,0.357976,-9.76893,-2.00844,-4.57275,-1.35712
2023-03-14 22:43:14:364,-0.815655,0.366001,-9.77776,-2.00696,-4.56747,-1.36184
2023-03-14 22:43:14:373,-0.801158,0.366511,-9.77459,-2.00292,-4.55813,-1.3727
2023-03-14 22:43:14:384,-0.757448,0.352297,-9.76004,-1.99862,-4.548,-1.38143
2023-03-14 22:43:14:393,-0.742219,0.339518,-9.74415,-1.9969,-4.53669,-1.38606
2023-03-14 22:43:14:404,-0.764864,0.355017,-9.76014,-1.99326,-4.52721,-1.39161
2023-03-14 22:43:14:413,-0.787625,0.354601,-9.76047,-1.98787,-4.51998,-1.3953
2023-03-14 22:43:14:423,-0.774608,0.33976,-9.75225,-1.98332,-4.51383,-1.40242
2023-03-14 22:43:14:433,-0.763855,0.326508,-9.75595,-1.97829,-4.50287,-1.41301
2023-03-14 22:43:14:444,-0.707496,0.307468,-9.78542,-1.97029,-4.49299,-1.41918
2023-03-14 22:43:14:453,-0.638756,0.308759,-9.78768,-1.96212,-4.48497,-1.4262
2023-03-14 22:43:14:463,-0.61539,0.288899,-9.76583,-1.95043,-4.47951,-1.43117
2023-03-14 22:43:14:473,-0.666208,0.290993,-9.73034,-1.94331,-4.48007,-1.43008
2023-03-14 22:43:14:484,-0.719053,0.310579,-9.70334,-1.93937,-4.48526,-1.42914
2023-03-14 22:43:14:494,-0.740517,0.331473,-9.71677,-1.93667,-4.48828,-1.4242
2023-03-14 22:43:14:503,-0.737708,0.355248,-9.74159,-1.93588,-4.48902,-1.41656
2023-03-14 22:43:14:514,-0.726633,0.36,-9.74003,-1.93498,-4.48844,-1.41
2023-03-14 22:43:14:524,-0.718957,0.355182,-9.7512,-1.93195,-4.48671,-1.40334
2023-03-14 22:43:14:533,-0.72898,0.351435,-9.73826,-1.93378,-4.48587,-1.39556
2023-03-14 22:43:14:544,-0.74988,0.344334,-9.73208,-1.92776,-4.48782,-1.38787
2023-03-14 22:43:14:554,-0.777603,0.347184,-9.70462,-1.92053,-4.49166,-1.37869
2023-03-14 22:43:14:563,-0.781417,0.341509,-9.6923,-1.91663,-4.48895,-1.36806
2023-03-14 22:43:14:573,-0.772965,0.31706,-9.70176,-1.91192,-4.48887,-1.36507
2023-03-14 22:43:14:583,-0.764505,0.309187,-9.69491,-1.90375,-4.48711,-1.35947
2023-03-14 22:43:14:593,-0.759034,0.323536,-9.71549,-1.90288,-4.48866,-1.35343
2023-03-14 22:43:14:604,-0.758618,0.327983,-9.73199,-1.90354,-4.48977,-1.34818
2023-03-14 22:43:14:613,-0.754721,0.328999,-9.73447,-1.90553,-4.49289,-1.34425
2023-03-14 22:43:14:623,-0.747314,0.324738,-9.73688,-1.90919,-4.49336,-1.34138
2023-03-14 22:43:14:633,-0.729684,0.334104,-9.77062,-1.91284,-4.49666,-1.33877
2023-03-14 22:43:14:643,-0.725429,0.36104,-9.78176,-1.91774,-4.49934,-1.33226
2023-03-14 22:43:14:653,-0.710209,0.361061,-9.78963,-1.92329,-4.50314,-1.32319
2023-03-14 22:43:14:663,-0.695685,0.372343,-9.77361,-1.92518,-4.50847,-1.31319
2023-03-14 22:43:14:673,-0.702593,0.394531,-9.76505,-1.92796,-4.51058,-1.30148
2023-03-14 22:43:14:683,-0.725923,0.390882,-9.75821,-1.93251,-4.51561,-1.28656
2023-03-14 22:43:14:693,-0.754297,0.384996,-9.77168,-1.93446,-4.51985,-1.27074
2023-03-14 22:43:14:703,-0.749947,0.401284,-9.79048,-1.9335,-4.52549,-1.25452
2023-03-14 22:43:14:713,-0.694408,0.421273,-9.81112,-1.93291,-4.53199,-1.24067
2023-03-14 22:43:14:723,-0.660453,0.405337,-9.81098,-1.92711,-4.53701,-1.22499
2023-03-14 22:43:14:733,-0.688044,0.380159,-9.77892,-1.91558,-4.5487,-1.20405
2023-03-14 22:43:14:743,-0.753935,0.362051,-9.76362,-1.90216,-4.56722,-1.18285
2023-03-14 22:43:14:753,-0.80374,0.355801,-9.75016,-1.88753,-4.5875,-1.1636
2023-03-14 22:43:14:763,-0.830882,0.364371,-9.75925,-1.87405,-4.60901,-1.14568
2023-03-14 22:43:14:773,-0.853178,0.375716,-9.7633,-1.86268,-4.62604,-1.12839
2023-03-14 22:43:14:783,-0.863297,0.36911,-9.77744,-1.84732,-4.64526,-1.11017
2023-03-14 22:43:14:793,-0.875519,0.376933,-9.78076,-1.8369,-4.66223,-1.09609
2023-03-14 22:43:14:803,-0.863071,0.37877,-9.78204,-1.8205,-4.67872,-1.08402
2023-03-14 22:43:14:813,-0.858233,0.389684,-9.76088,-1.80691,-4.69261,-1.07761
2023-03-14 22:43:14:823,-0.875086,0.372041,-9.77084,-1.79118,-4.70952,-1.06894
2023-03-14 22:43:14:833,-0.87301,0.348561,-9.76993,-1.77138,-4.72719,-1.06299
2023-03-14 22:43:14:844,-0.856778,0.335481,-9.76152,-1.74869,-4.74417,-1.06087
2023-03-14 22:43:14:854,-0.847666,0.303486,-9.75301,-1.72579,-4.76245,-1.06024
2023-03-14 22:43:14:863,-0.855145,0.281386,-9.74925,-1.70186,-4.77871,-1.05851
2023-03-14 22:43:14:874,-0.869146,0.272513,-9.71384,-1.67477,-4.79423,-1.0602
2023-03-14 22:43:14:884,-0.870142,0.255548,-9.68924,-1.6511,-4.812,-1.06588
2023-03-14 22:43:14:893,-0.888041,0.255409,-9.70617,-1.62804,-4.82606,-1.06804
2023-03-14 22:43:14:904,-0.892731,0.250628,-9.70212,-1.60195,-4.83928,-1.06686
2023-03-14 22:43:14:913,-0.904274,0.246222,-9.70028,-1.57743,-4.85062,-1.07033
2023-03-14 22:43:14:924,-0.8869,0.233429,-9.66696,-1.55934,-4.86279,-1.0785
2023-03-14 22:43:14:933,-0.886057,0.221278,-9.66139,-1.54536,-4.88053,-1.08737
2023-03-14 22:43:14:943,-0.922173,0.235529,-9.68251,-1.53807,-4.89339,-1.0936
2023-03-14 22:43:14:953,-0.929686,0.263713,-9.70757,-1.53311,-4.906,-1.1019
2023-03-14 22:43:14:963,-0.898124,0.271585,-9.718,-1.52435,-4.91197,-1.11057
2023-03-14 22:43:14:973,-0.869583,0.251167,-9.74789,-1.51594,-4.9161,-1.11948
2023-03-14 22:43:14:984,-0.872256,0.259699,-9.74271,-1.50404,-4.91488,-1.13019
2023-03-14 22:43:14:993,-0.863433,0.275402,-9.75481,-1.4975,-4.9138,-1.13557
2023-03-14 22:43:15:4,-0.858556,0.27352,-9.74942,-1.49096,-4.90983,-1.14147
2023-03-14 22:43:15:14,-0.860698,0.262104,-9.73376,-1.48077,-4.90676,-1.14792
2023-03-14 22:43:15:24,-0.859616,0.253347,-9.73632,-1.47428,-4.89995,-1.15655
2023-03-14 22:43:15:34,-0.854636,0.24302,-9.73438,-1.46187,-4.8937,-1.1646
2023-03-14 22:43:15:44,-0.847742,0.236463,-9.74326,-1.44949,-4.88424,-1.16973
2023-03-14 22:43:15:53,-0.848791,0.236219,-9.73221,-1.44155,-4.87369,-1.17815
2023-03-14 22:43:15:63,-0.845786,0.225117,-9.73803,-1.43224,-4.86328,-1.18652
2023-03-14 22:43:15:73,-0.835327,0.226641,-9.75901,-1.4238,-4.85519,-1.1947
2023-03-14 22:43:15:84,-0.833761,0.234997,-9.74648,-1.41337,-4.84902,-1.20456
2023-03-14 22:43:15:93,-0.817537,0.23112,-9.73007,-1.40396,-4.83982,-1.21722
2023-03-14 22:43:15:103,-0.796951,0.213701,-9.72404,-1.3923,-4.83153,-1.22919
2023-03-14 22:43:15:113,-0.797399,0.1972,-9.722,-1.38015,-4.82286,-1.24189
2023-03-14 22:43:15:123,-0.77622,0.185135,-9.72832,-1.37244,-4.81046,-1.25651
2023-03-14 22:43:15:133,-0.753781,0.206266,-9.74401,-1.3639,-4.80024,-1.26734
2023-03-14 22:43:15:143,-0.739908,0.208411,-9.7371,-1.36096,-4.79186,-1.27676
2023-03-14 22:43:15:154,-0.743725,0.20532,-9.73331,-1.35553,-4.78464,-1.28728
2023-03-14 22:43:15:164,-0.756186,0.196934,-9.71748,-1.34782,-4.77942,-1.29676
2023-03-14 22:43:15:173,-0.755744,0.188745,-9.71947,-1.34617,-4.77486,-1.30405
2023-03-14 22:43:15:184,-0.751593,0.195167,-9.72879,-1.34278,-4.77395,-1.31064
2023-03-14 22:43:15:194,-0.746294,0.212421,-9.73697,-1.34515,-4.76883,-1.31198
2023-03-14 22:43:15:204,-0.739689,0.187503,-9.7353,-1.34452,-4.76777,-1.31583
2023-03-14 22:43:15:213,-0.748039,0.194371,-9.7281,-1.34143,-4.76192,-1.31806
2023-03-14 22:43:15:223,-0.786541,0.228012,-9.76136,-1.34305,-4.76033,-1.31805
2023-03-14 22:43:15:233,-0.818109,0.256017,-9.77659,-1.34652,-4.75974,-1.31524
2023-03-14 22:43:15:244,-0.802841,0.23995,-9.78137,-1.34405,-4.75368,-1.31805
2023-03-14 22:43:15:254,-0.787118,0.236217,-9.75718,-1.33968,-4.74645,-1.31532
2023-03-14 22:43:15:263,-0.774106,0.221867,-9.73784,-1.33594,-4.74228,-1.31348
2023-03-14 22:43:15:274,-0.772798,0.21302,-9.70965,-1.33179,-4.73732,-1.31071
2023-03-14 22:43:15:283,-0.775062,0.190262,-9.70871,-1.3276,-4.7353,-1.30866
2023-03-14 22:43:15:293,-0.79599,0.192469,-9.7537,-1.32856,-4.7376,-1.30641
2023-03-14 22:43:15:303,-0.825346,0.221649,-9.78373,-1.32623,-4.73814,-1.30208
2023-03-14 22:43:15:314,-0.815396,0.246142,-9.8096,-1.32514,-4.73989,-1.30272
2023-03-14 22:43:15:324,-0.769801,0.237761,-9.81718,-1.32036,-4.7388,-1.307
2023-03-14 22:43:15:334,-0.729451,0.203081,-9.7848,-1.31415,-4.7408,-1.31156
2023-03-14 22:43:15:343,-0.747541,0.170023,-9.73494,-1.30397,-4.74565,-1.31317
2023-03-14 22:43:15:354,-0.788115,0.164891,-9.71226,-1.29831,-4.75168,-1.30939
2023-03-14 22:43:15:363,-0.807856,0.196315,-9.70166,-1.29866,-4.76156,-1.30637
2023-03-14 22:43:15:373,-0.822119,0.226936,-9.72227,-1.30169,-4.77067,-1.30511
2023-03-14 22:43:15:383,-0.815502,0.237911,-9.75397,-1.3061,-4.78024,-1.30022
2023-03-14 22:43:15:394,-0.813156,0.261791,-9.77619,-1.30611,-4.78316,-1.29668
2023-03-14 22:43:15:404,-0.814557,0.267651,-9.78618,-1.30849,-4.78786,-1.29088
2023-03-14 22:43:15:413,-0.837525,0.271956,-9.75667,-1.30578,-4.78972,-1.28561
2023-03-14 22:43:15:423,-0.861463,0.265045,-9.73659,-1.29879,-4.79181,-1.2803
2023-03-14 22:43:15:433,-0.860954,0.23896,-9.6997,-1.28926,-4.793,-1.27566
2023-03-14 22:43:15:443,-0.846747,0.200212,-9.67181,-1.28062,-4.7895,-1.26972
2023-03-14 22:43:15:453,-0.868935,0.195705,-9.66296,-1.26977,-4.78533,-1.26432
2023-03-14 22:43:15:463,-0.889467,0.204305,-9.6588,-1.26743,-4.78768,-1.25803
2023-03-14 22:43:15:473,-0.898397,0.209455,-9.68723,-1.26913,-4.78881,-1.25212
2023-03-14 22:43:15:483,-0.90079,0.210822,-9.71675,-1.27188,-4.78808,-1.24909
2023-03-14 22:43:15:493,-0.873998,0.226237,-9.74656,-1.27909,-4.78414,-1.25222
2023-03-14 22:43:15:504,-0.837178,0.244946,-9.77602,-1.28819,-4.77838,-1.25701
2023-03-14 22:43:15:513,-0.82091,0.270782,-9.79514,-1.29762,-4.7688,-1.26286
2023-03-14 22:43:15:523,-0.802309,0.289603,-9.80923,-1.30562,-4.76066,-1.26999
2023-03-14 22:43:15:533,-0.784469,0.292984,-9.80789,-1.31301,-4.75326,-1.27955
2023-03-14 22:43:15:543,-0.772381,0.291976,-9.7835,-1.31728,-4.74633,-1.28573
2023-03-14 22:43:15:553,-0.795338,0.281738,-9.77526,-1.32068,-4.73949,-1.29293
2023-03-14 22:43:15:563,-0.830898,0.287926,-9.7712,-1.32038,-4.73491,-1.29622
2023-03-14 22:43:15:573,-0.81802,0.293415,-9.77639,-1.31594,-4.72821,-1.30276
2023-03-14 22:43:15:583,-0.731539,0.277745,-9.78615,-1.30914,-4.71276,-1.31175
2023-03-14 22:43:15:593,-0.66262,0.237842,-9.77718,-1.30062,-4.69827,-1.3208
2023-03-14 22:43:15:603,-0.672937,0.201854,-9.72389,-1.2856,-4.69357,-1.32558
2023-03-14 22:43:15:613,-0.723108,0.180165,-9.69624,-1.27372,-4.69358,-1.32322
2023-03-14 22:43:15:623,-0.748706,0.197554,-9.70587,-1.26776,-4.69454,-1.31732
2023-03-14 22:43:15:633,-0.773679,0.221687,-9.73504,-1.26426,-4.69975,-1.31499
2023-03-14 22:43:15:643,-0.779055,0.228542,-9.76058,-1.26434,-4.70412,-1.31243
2023-03-14 22:43:15:653,-0.78221,0.226831,-9.76427,-1.2632,-4.70584,-1.31192
2023-03-14 22:43:15:663,-0.783142,0.230975,-9.75674,-1.26112,-4.70998,-1.31103
2023-03-14 22:43:15:673,-0.794503,0.232961,-9.75808,-1.25347,-4.70805,-1.31036
2023-03-14 22:43:15:683,-0.78777,0.230124,-9.75237,-1.24937,-4.70867,-1.30828
2023-03-14 22:43:15:693,-0.776268,0.221664,-9.7488,-1.2453,-4.71187,-1.3091
2023-03-14 22:43:15:703,-0.759219,0.208766,-9.74835,-1.24185,-4.71195,-1.30826
2023-03-14 22:43:15:713,-0.755661,0.21354,-9.74233,-1.23967,-4.71384,-1.30868
2023-03-14 22:43:15:724,-0.759295,0.214417,-9.7539,-1.23827,-4.71921,-1.30804
2023-03-14 22:43:15:733,-0.767754,0.222947,-9.74857,-1.23498,-4.72913,-1.30501
2023-03-14 22:43:15:743,-0.760728,0.224834,-9.75401,-1.2297,-4.74282,-1.30479
2023-03-14 22:43:15:753,-0.764203,0.193517,-9.74944,-1.22461,-4.7532,-1.30301
2023-03-14 22:43:15:764,-0.782727,0.17928,-9.74406,-1.21974,-4.76484,-1.29827
2023-03-14 22:43:15:773,-0.779425,0.185417,-9.74875,-1.21468,-4.77432,-1.29104
2023-03-14 22:43:15:783,-0.775628,0.188667,-9.73331,-1.20702,-4.78348,-1.27644
2023-03-14 22:43:15:793,-0.79694,0.170276,-9.71579,-1.2013,-4.79181,-1.2645
2023-03-14 22:43:15:803,-0.822979,0.17852,-9.71612,-1.1982,-4.80003,-1.24741
2023-03-14 22:43:15:813,-0.859173,0.195841,-9.71324,-1.20011,-4.80971,-1.23103
2023-03-14 22:43:15:823,-0.860174,0.21032,-9.73846,-1.20101,-4.81432,-1.21523
2023-03-14 22:43:15:833,-0.875404,0.217854,-9.74742,-1.20221,-4.82091,-1.2002
2023-03-14 22:43:15:843,-0.897664,0.21448,-9.7475,-1.20064,-4.82815,-1.18137
2023-03-14 22:43:15:853,-0.90798,0.210662,-9.76434,-1.19901,-4.83326,-1.1682
2023-03-14 22:43:15:863,-0.902277,0.222832,-9.76665,-1.19971,-4.83882,-1.15732
2023-03-14 22:43:15:873,-0.895844,0.232917,-9.76887,-1.19547,-4.84234,-1.14775
2023-03-14 22:43:15:883,-0.890206,0.223568,-9.77538,-1.18558,-4.8484,-1.14354
2023-03-14 22:43:15:893,-0.88197,0.210129,-9.7715,-1.17777,-4.85262,-1.14086
2023-03-14 22:43:15:903,-0.891845,0.228617,-9.75415,-1.16926,-4.85248,-1.13812
2023-03-14 22:43:15:913,-0.856162,0.215869,-9.73556,-1.1559,-4.85323,-1.13904
2023-03-14 22:43:15:923,-0.82228,0.175422,-9.71218,-1.14155,-4.84775,-1.14199
2023-03-14 22:43:15:933,-0.799267,0.126239,-9.69787,-1.13084,-4.84383,-1.14142
2023-03-14 22:43:15:943,-0.808856,0.160494,-9.71417,-1.12487,-4.84441,-1.13977
2023-03-14 22:43:15:953,-0.803905,0.195861,-9.74411,-1.12561,-4.85007,-1.13903
2023-03-14 22:43:15:963,-0.814132,0.200452,-9.74159,-1.12326,-4.85055,-1.13719
2023-03-14 22:43:15:973,-0.817123,0.203305,-9.75513,-1.12245,-4.84845,-1.13751
2023-03-14 22:43:15:983,-0.791221,0.217594,-9.77486,-1.11662,-4.84539,-1.13775
2023-03-14 22:43:15:993,-0.768802,0.21316,-9.74822,-1.10929,-4.83822,-1.13956
2023-03-14 22:43:16:3,-0.782879,0.179202,-9.72257,-1.0981,-4.83319,-1.14032
2023-03-14 22:43:16:13,-0.76312,0.157571,-9.71204,-1.09055,-4.83103,-1.13639
2023-03-14 22:43:16:23,-0.742573,0.150609,-9.70119,-1.08304,-4.83066,-1.13136
2023-03-14 22:43:16:33,-0.750162,0.151377,-9.7046,-1.07927,-4.82772,-1.12856
2023-03-14 22:43:16:43,-0.764419,0.173199,-9.73321,-1.077,-4.82823,-1.11847
2023-03-14 22:43:16:53,-0.803815,0.197946,-9.76482,-1.07549,-4.83374,-1.11417
2023-03-14 22:43:16:63,-0.830283,0.185012,-9.77753,-1.07628,-4.83869,-1.1103
2023-03-14 22:43:16:73,-0.825305,0.1825,-9.78066,-1.07328,-4.84327,-1.1042
2023-03-14 22:43:16:83,-0.828957,0.175531,-9.76931,-1.07014,-4.84708,-1.09805
2023-03-14 22:43:16:93,-0.831895,0.15977,-9.75532,-1.06545,-4.84455,-1.09285
2023-03-14 22:43:16:103,-0.83554,0.158786,-9.71592,-1.05661,-4.84461,-1.08809
2023-03-14 22:43:16:113,-0.8369,0.137335,-9.71141,-1.05207,-4.84008,-1.08172
2023-03-14 22:43:16:123,-0.840048,0.127809,-9.699,-1.04907,-4.84122,-1.07799
2023-03-14 22:43:16:133,-0.835915,0.129463,-9.69304,-1.04619,-4.83721,-1.074
2023-03-14 22:43:16:143,-0.847356,0.135236,-9.71243,-1.04438,-4.83764,-1.06944
2023-03-14 22:43:16:153,-0.85439,0.154463,-9.7454,-1.04374,-4.8361,-1.06441
2023-03-14 22:43:16:163,-0.822931,0.169078,-9.77559,-1.04984,-4.83304,-1.06532
2023-03-14 22:43:16:173,-0.779499,0.157798,-9.78491,-1.04968,-4.82754,-1.06529
2023-03-14 22:43:16:183,-0.756993,0.135871,-9.74973,-1.04274,-4.82703,-1.06548
2023-03-14 22:43:16:193,-0.790256,0.112104,-9.71113,-1.04036,-4.82698,-1.0586
2023-03-14 22:43:16:203,-0.83643,0.121043,-9.6934,-1.04191,-4.82766,-1.04967
2023-03-14 22:43:16:213,-0.853421,0.135936,-9.69451,-1.04316,-4.82571,-1.0452
2023-03-14 22:43:16:224,-0.847711,0.161826,-9.70607,-1.05083,-4.82015,-1.0434
2023-03-14 22:43:16:233,-0.835949,0.179914,-9.73192,-1.05776,-4.81325,-1.0398
2023-03-14 22:43:16:243,-0.822979,0.188963,-9.74331,-1.06674,-4.80403,-1.03796
2023-03-14 22:43:16:253,-0.816396,0.185249,-9.73686,-1.07143,-4.79537,-1.03968
2023-03-14 22:43:16:264,-0.815423,0.183824,-9.71463,-1.07929,-4.78391,-1.03938
2023-03-14 22:43:16:273,-0.817073,0.17136,-9.6984,-1.08327,-4.77494,-1.04064
2023-03-14 22:43:16:283,-0.811974,0.178098,-9.68753,-1.08854,-4.76689,-1.04133
2023-03-14 22:43:16:293,-0.808,0.170627,-9.69046,-1.09566,-4.76198,-1.04391
2023-03-14 22:43:16:303,-0.805249,0.162576,-9.70514,-1.10502,-4.75373,-1.04681
2023-03-14 22:43:16:313,-0.79668,0.163355,-9.72868,-1.11457,-4.74506,-1.04741
2023-03-14 22:43:16:323,-0.802903,0.193474,-9.76245,-1.12651,-4.73944,-1.04963
2023-03-14 22:43:16:333,-0.807391,0.22624,-9.77595,-1.13924,-4.73409,-1.05136
2023-03-14 22:43:16:343,-0.808995,0.22671,-9.79769,-1.1555,-4.72819,-1.05452
2023-03-14 22:43:16:353,-0.786503,0.224123,-9.78128,-1.16762,-4.72142,-1.0567
2023-03-14 22:43:16:363,-0.797796,0.21643,-9.75977,-1.1794,-4.71596,-1.05954
2023-03-14 22:43:16:373,-0.823665,0.233886,-9.75099,-1.18974,-4.71385,-1.05994
2023-03-14 22:43:16:383,-0.820915,0.273823,-9.75982,-1.20269,-4.70618,-1.06054
2023-03-14 22:43:16:393,-0.816014,0.274057,-9.77107,-1.21372,-4.69785,-1.06209
2023-03-14 22:43:16:403,-0.845107,0.286237,-9.77976,-1.22355,-4.69224,-1.06839
2023-03-14 22:43:16:413,-0.890207,0.304559,-9.77208,-1.23146,-4.68777,-1.07229
2023-03-14 22:43:16:423,-0.875592,0.288318,-9.77864,-1.23477,-4.67981,-1.07938
2023-03-14 22:43:16:433,-0.792473,0.261301,-9.77328,-1.23763,-4.66605,-1.09026
2023-03-14 22:43:16:443,-0.743944,0.229818,-9.76283,-1.23687,-4.65645,-1.10419
2023-03-14 22:43:16:453,-0.749841,0.202126,-9.74625,-1.23227,-4.64411,-1.11282
2023-03-14 22:43:16:463,-0.78302,0.223757,-9.76678,-1.22815,-4.63701,-1.11973
2023-03-14 22:43:16:474,-0.808449,0.233235,-9.79343,-1.22691,-4.63281,-1.1255
2023-03-14 22:43:16:483,-0.792659,0.23859,-9.80774,-1.2226,-4.62827,-1.13384
2023-03-14 22:43:16:493,-0.798082,0.244762,-9.79652,-1.21868,-4.61938,-1.14043
2023-03-14 22:43:16:504,-0.793965,0.246328,-9.78139,-1.21079,-4.60818,-1.14801
2023-03-14 22:43:16:514,-0.775107,0.24621,-9.76617,-1.20513,-4.59594,-1.15403
2023-03-14 22:43:16:524,-0.741599,0.243771,-9.78339,-1.1981,-4.58431,-1.16214
2023-03-14 22:43:16:534,-0.729983,0.239461,-9.78137,-1.18834,-4.57356,-1.16934
2023-03-14 22:43:16:544,-0.720033,0.208541,-9.7784,-1.1787,-4.56579,-1.17536
2023-03-14 22:43:16:554,-0.718144,0.210766,-9.76057,-1.16532,-4.56282,-1.18232
2023-03-14 22:43:16:563,-0.725229,0.204306,-9.74514,-1.15727,-4.55916,-1.18743
2023-03-14 22:43:16:573,-0.73247,0.193415,-9.74322,-1.1442,-4.55873,-1.19338
2023-03-14 22:43:16:583,-0.720917,0.192102,-9.72664,-1.13236,-4.5587,-1.19862
2023-03-14 22:43:16:593,-0.721305,0.190418,-9.74749,-1.12186,-4.55892,-1.19958
2023-03-14 22:43:16:604,-0.720136,0.196185,-9.76961,-1.10987,-4.56227,-1.20182
2023-03-14 22:43:16:613,-0.702558,0.175995,-9.75848,-1.09436,-4.56298,-1.20111
2023-03-14 22:43:16:623,-0.72391,0.146431,-9.73401,-1.07541,-4.56367,-1.19789
2023-03-14 22:43:16:633,-0.739,0.141942,-9.71224,-1.05988,-4.56832,-1.18792
2023-03-14 22:43:16:643,-0.761233,0.139401,-9.70793,-1.04653,-4.57328,-1.17463
2023-03-14 22:43:16:653,-0.768938,0.161339,-9.74253,-1.03899,-4.57893,-1.1603
2023-03-14 22:43:16:663,-0.803842,0.190353,-9.76204,-1.03235,-4.58753,-1.14427
2023-03-14 22:43:16:673,-0.848825,0.200311,-9.75715,-1.02517,-4.59387,-1.12328
2023-03-14 22:43:16:683,-0.867968,0.197076,-9.76002,-1.01533,-4.60016,-1.11007
2023-03-14 22:43:16:693,-0.862615,0.185008,-9.77552,-1.005,-4.60197,-1.09599
2023-03-14 22:43:16:703,-0.860438,0.176229,-9.77135,-0.992777,-4.60048,-1.08368
2023-03-14 22:43:16:713,-0.864681,0.168198,-9.73086,-0.98115,-4.60246,-1.07424
2023-03-14 22:43:16:723,-0.858996,0.160597,-9.71911,-0.971067,-4.60163,-1.06812
2023-03-14 22:43:16:733,-0.846565,0.14484,-9.70431,-0.953907,-4.6034,-1.06262
2023-03-14 22:43:16:743,-0.814964,0.130246,-9.70659,-0.938296,-4.60002,-1.06242
2023-03-14 22:43:16:754,-0.800455,0.1068,-9.71182,-0.924224,-4.59657,-1.06368
2023-03-14 22:43:16:763,-0.812439,0.127458,-9.6834,-0.913273,-4.59812,-1.06567
2023-03-14 22:43:16:774,-0.822825,0.107849,-9.67946,-0.907315,-4.60048,-1.07284
2023-03-14 22:43:16:784,-0.808004,0.0851317,-9.67366,-0.901039,-4.60183,-1.07884
2023-03-14 22:43:16:793,-0.786844,0.0973138,-9.71711,-0.900759,-4.6046,-1.08754
2023-03-14 22:43:16:804,-0.751532,0.124651,-9.77029,-0.903443,-4.60658,-1.09862
2023-03-14 22:43:16:813,-0.740273,0.154826,-9.77721,-0.905308,-4.60621,-1.11301
2023-03-14 22:43:16:824,-0.716662,0.152235,-9.74068,-0.907111,-4.60723,-1.12238
2023-03-14 22:43:16:833,-0.701696,0.15316,-9.69499,-0.906098,-4.60566,-1.12691
2023-03-14 22:43:16:844,-0.694959,0.118135,-9.69416,-0.90644,-4.60441,-1.12868
2023-03-14 22:43:16:854,-0.741013,0.137485,-9.72842,-0.910303,-4.60266,-1.12449
2023-03-14 22:43:16:864,-0.793818,0.201283,-9.77908,-0.915346,-4.60355,-1.12547
2023-03-14 22:43:16:874,-0.828706,0.200331,-9.76661,-0.922198,-4.60769,-1.12705
2023-03-14 22:43:16:883,-0.808929,0.161214,-9.74544,-0.924135,-4.60981,-1.13348
2023-03-14 22:43:16:893,-0.758802,0.156571,-9.74741,-0.922739,-4.60967,-1.13871
2023-03-14 22:43:16:903,-0.770288,0.173106,-9.78559,-0.924078,-4.60914,-1.14377
2023-03-14 22:43:16:913,-0.808424,0.212034,-9.78758,-0.926501,-4.60936,-1.14399
2023-03-14 22:43:16:923,-0.819001,0.182879,-9.77402,-0.923305,-4.61061,-1.15164
2023-03-14 22:43:16:933,-0.796553,0.157896,-9.7609,-0.918593,-4.60607,-1.15874
2023-03-14 22:43:16:943,-0.796031,0.147206,-9.76441,-0.912721,-4.60197,-1.164
2023-03-14 22:43:16:953,-0.79887,0.156616,-9.77084,-0.906007,-4.59721,-1.17091
2023-03-14 22:43:16:963,-0.748977,0.138758,-9.77095,-0.898196,-4.59457,-1.17716
2023-03-14 22:43:16:973,-0.733558,0.129864,-9.7606,-0.890063,-4.58621,-1.18433
2023-03-14 22:43:16:984,-0.748557,0.143144,-9.74339,-0.881609,-4.58214,-1.18723
2023-03-14 22:43:16:993,-0.761362,0.125853,-9.7383,-0.874382,-4.57807,-1.19331
2023-03-14 22:43:17:4,-0.751875,0.115213,-9.72608,-0.862678,-4.56874,-1.20019
2023-03-14 22:43:17:13,-0.706638,0.10857,-9.73732,-0.853564,-4.56313,-1.20556
2023-03-14 22:43:17:23,-0.642551,0.0958376,-9.74977,-0.848892,-4.55876,-1.21253
2023-03-14 22:43:17:33,-0.593363,0.109537,-9.75361,-0.84595,-4.55766,-1.21721
2023-03-14 22:43:17:44,-0.61028,0.109012,-9.76941,-0.843843,-4.56243,-1.21801
2023-03-14 22:43:17:53,-0.680953,0.126342,-9.77322,-0.840051,-4.56818,-1.21411
2023-03-14 22:43:17:63,-0.718181,0.152957,-9.7711,-0.839497,-4.57526,-1.20556
2023-03-14 22:43:17:73,-0.732814,0.16192,-9.74112,-0.838328,-4.58729,-1.20105
2023-03-14 22:43:17:83,-0.731149,0.160129,-9.74568,-0.839513,-4.59362,-1.19319
2023-03-14 22:43:17:93,-0.729843,0.171925,-9.74381,-0.838225,-4.60238,-1.18397
2023-03-14 22:43:17:104,-0.734287,0.162711,-9.74331,-0.839672,-4.60944,-1.16959
2023-03-14 22:43:17:114,-0.753391,0.154354,-9.72343,-0.835698,-4.61683,-1.1525
2023-03-14 22:43:17:124,-0.77993,0.174766,-9.69558,-0.835983,-4.62317,-1.13538
2023-03-14 22:43:17:133,-0.797123,0.156057,-9.69758,-0.836439,-4.63335,-1.11985
2023-03-14 22:43:17:143,-0.80692,0.146454,-9.71528,-0.835163,-4.64109,-1.10419
2023-03-14 22:43:17:153,-0.804628,0.149556,-9.7395,-0.832776,-4.65098,-1.08812
2023-03-14 22:43:17:164,-0.824403,0.152459,-9.75774,-0.836077,-4.65863,-1.07592
2023-03-14 22:43:17:173,-0.844369,0.165411,-9.77163,-0.83991,-4.66664,-1.0612
2023-03-14 22:43:17:184,-0.832131,0.157596,-9.78673,-0.835617,-4.6769,-1.05087
2023-03-14 22:43:17:194,-0.823349,0.153906,-9.77723,-0.834793,-4.68723,-1.03971
2023-03-14 22:43:17:203,-0.830206,0.168409,-9.77845,-0.839847,-4.69985,-1.03054
2023-03-14 22:43:17:213,-0.835389,0.183612,-9.79243,-0.842345,-4.70307,-1.02351
2023-03-14 22:43:17:224,-0.811003,0.173876,-9.77714,-0.837513,-4.70566,-1.02324
2023-03-14 22:43:17:234,-0.783802,0.171663,-9.76483,-0.834631,-4.71408,-1.01769
2023-03-14 22:43:17:244,-0.788514,0.163072,-9.7348,-0.832769,-4.71526,-1.01308
2023-03-14 22:43:17:254,-0.817848,0.15864,-9.74672,-0.829964,-4.72065,-1.00859
2023-03-14 22:43:17:264,-0.861034,0.17701,-9.76329,-0.826179,-4.72776,-1.00664
2023-03-14 22:43:17:274,-0.864757,0.176501,-9.75603,-0.825284,-4.73375,-1.00828
2023-03-14 22:43:17:283,-0.837047,0.147043,-9.72062,-0.818044,-4.74093,-1.00982
2023-03-14 22:43:17:293,-0.76858,0.145088,-9.72953,-0.81534,-4.74361,-1.01397
2023-03-14 22:43:17:304,-0.688766,0.131657,-9.76998,-0.813304,-4.74382,-1.01922
2023-03-14 22:43:17:313,-0.715178,0.12137,-9.76121,-0.805672,-4.75082,-1.02137
2023-03-14 22:43:17:324,-0.777187,0.117396,-9.74302,-0.79612,-4.76088,-1.01533
2023-03-14 22:43:17:333,-0.821925,0.132764,-9.75407,-0.790692,-4.77218,-1.0131
2023-03-14 22:43:17:344,-0.822758,0.142656,-9.7602,-0.782956,-4.78327,-1.0067
2023-03-14 22:43:17:353,-0.813416,0.140251,-9.76069,-0.775713,-4.78887,-1.0006
2023-03-14 22:43:17:364,-0.819409,0.149733,-9.75759,-0.766505,-4.79182,-0.991595
2023-03-14 22:43:17:373,-0.828831,0.126406,-9.74617,-0.757131,-4.79495,-0.98241
2023-03-14 22:43:17:383,-0.845841,0.111602,-9.73148,-0.748959,-4.79893,-0.968705
2023-03-14 22:43:17:393,-0.872631,0.131346,-9.72684,-0.746731,-4.80481,-0.954773
2023-03-14 22:43:17:403,-0.883746,0.152048,-9.75595,-0.745623,-4.80987,-0.945353
2023-03-14 22:43:17:414,-0.874803,0.163669,-9.77705,-0.744613,-4.81669,-0.940103
2023-03-14 22:43:17:423,-0.869944,0.174507,-9.7851,-0.740601,-4.82181,-0.937935
2023-03-14 22:43:17:433,-0.876779,0.183789,-9.79807,-0.734206,-4.83024,-0.935718
2023-03-14 22:43:17:443,-0.869724,0.17658,-9.80744,-0.722662,-4.84205,-0.938034
2023-03-14 22:43:17:453,-0.849026,0.16137,-9.80611,-0.709606,-4.85268,-0.944988
2023-03-14 22:43:17:464,-0.821125,0.175751,-9.77288,-0.692992,-4.86071,-0.951478
2023-03-14 22:43:17:474,-0.794846,0.128488,-9.72787,-0.673048,-4.8681,-0.95729
2023-03-14 22:43:17:483,-0.788801,0.0796349,-9.69061,-0.651681,-4.87585,-0.958523
2023-03-14 22:43:17:494,-0.780128,0.0842218,-9.69932,-0.633017,-4.87818,-0.95423
2023-03-14 22:43:17:503,-0.770951,0.101152,-9.7495,-0.617246,-4.88058,-0.944903
2023-03-14 22:43:17:513,-0.796954,0.124262,-9.77734,-0.602128,-4.88724,-0.936082
2023-03-14 22:43:17:524,-0.829275,0.130227,-9.75974,-0.592626,-4.8917,-0.921733
2023-03-14 22:43:17:534,-0.85338,0.130487,-9.75641,-0.578119,-4.89813,-0.908979
2023-03-14 22:43:17:544,-0.852732,0.136532,-9.78371,-0.565998,-4.90351,-0.897004
2023-03-14 22:43:17:554,-0.869287,0.1638,-9.79204,-0.551716,-4.90623,-0.884099
2023-03-14 22:43:17:564,-0.904095,0.144273,-9.78452,-0.531553,-4.90686,-0.873496
2023-03-14 22:43:17:574,-0.917381,0.11482,-9.768,-0.508218,-4.90788,-0.858656
2023-03-14 22:43:17:583,-0.890163,0.102922,-9.76278,-0.481426,-4.91202,-0.850849
2023-03-14 22:43:17:593,-0.851362,0.0941875,-9.75373,-0.455279,-4.91182,-0.845358
2023-03-14 22:43:17:603,-0.85105,0.0624019,-9.72801,-0.429377,-4.91019,-0.839591
2023-03-14 22:43:17:613,-0.875129,0.0535776,-9.71725,-0.40062,-4.91096,-0.834407
2023-03-14 22:43:17:624,-0.890811,0.0575951,-9.7253,-0.377597,-4.91476,-0.826045
2023-03-14 22:43:17:634,-0.891196,0.0618868,-9.74065,-0.352713,-4.91803,-0.826453
2023-03-14 22:43:17:644,-0.855703,0.0443362,-9.75189,-0.328957,-4.92224,-0.829093
2023-03-14 22:43:17:653,-0.822834,0.0439929,-9.76716,-0.306695,-4.91679,-0.829788
2023-03-14 22:43:17:663,-0.820511,0.0501119,-9.7742,-0.28165,-4.91011,-0.82773
2023-03-14 22:43:17:673,-0.825369,0.0353877,-9.76029,-0.252887,-4.90561,-0.822746
2023-03-14 22:43:17:683,-0.830878,0.0179247,-9.74756,-0.222674,-4.90221,-0.815869
2023-03-14 22:43:17:693,-0.833778,0.0222766,-9.74471,-0.196238,-4.89759,-0.812644
2023-03-14 22:43:17:703,-0.834466,0.0177951,-9.74346,-0.169846,-4.89159,-0.809418
2023-03-14 22:43:17:714,-0.834847,0.0218492,-9.74827,-0.145399,-4.88383,-0.8043
2023-03-14 22:43:17:723,-0.83279,0.0250378,-9.75033,-0.117004,-4.87769,-0.797801
2023-03-14 22:43:17:733,-0.840252,0.0297388,-9.73307,-0.0863067,-4.87302,-0.791668
2023-03-14 22:43:17:744,-0.823363,-0.00486801,-9.74079,-0.0592175,-4.86663,-0.784765
2023-03-14 22:43:17:753,-0.804872,-0.0205982,-9.74406,-0.0309944,-4.85888,-0.77678
2023-03-14 22:43:17:763,-0.812095,-0.0222969,-9.77677,-0.00511913,-4.85145,-0.763017
2023-03-14 22:43:17:773,-0.81925,-0.000195149,-9.80058,0.0221262,-4.84264,-0.749105
2023-03-14 22:43:17:784,-0.788557,0.0108303,-9.81743,0.049744,-4.82436,-0.73583
2023-03-14 22:43:17:793,-0.766066,0.00686059,-9.82422,0.0846314,-4.80594,-0.721729
2023-03-14 22:43:17:804,-0.773562,-0.0216275,-9.79624,0.122946,-4.7863,-0.702391
2023-03-14 22:43:17:813,-0.776232,-0.0434071,-9.7509,0.166712,-4.76377,-0.680026
2023-03-14 22:43:17:823,-0.790147,-0.0797841,-9.71674,0.213772,-4.74241,-0.659047
2023-03-14 22:43:17:833,-0.798126,-0.101504,-9.71549,0.257069,-4.72218,-0.633679
2023-03-14 22:43:17:844,-0.792068,-0.0956714,-9.7185,0.300538,-4.70328,-0.604868
2023-03-14 22:43:17:853,-0.764025,-0.0853624,-9.74522,0.337568,-4.68587,-0.577385
2023-03-14 22:43:17:863,-0.726482,-0.076908,-9.77357,0.370706,-4.67013,-0.555187
2023-03-14 22:43:17:873,-0.740987,-0.0959012,-9.78201,0.403263,-4.65878,-0.531197
2023-03-14 22:43:17:884,-0.791508,-0.0854447,-9.76457,0.440729,-4.658,-0.509562
2023-03-14 22:43:17:894,-0.809927,-0.0786699,-9.74761,0.476843,-4.65294,-0.487727
2023-03-14 22:43:17:904,-0.82748,-0.0799731,-9.71837,0.507851,-4.65116,-0.469567
2023-03-14 22:43:17:914,-0.815073,-0.0922093,-9.71536,0.54196,-4.64977,-0.45635
2023-03-14 22:43:17:923,-0.804723,-0.10667,-9.70947,0.574357,-4.64988,-0.442634
2023-03-14 22:43:17:933,-0.801253,-0.109243,-9.71014,0.606579,-4.65077,-0.432211
2023-03-14 22:43:17:943,-0.810833,-0.114969,-9.69378,0.635863,-4.64767,-0.423555
2023-03-14 22:43:17:953,-0.82439,-0.120669,-9.69394,0.665446,-4.65041,-0.412629
2023-03-14 22:43:17:964,-0.838822,-0.136105,-9.66765,0.694701,-4.65532,-0.402896
2023-03-14 22:43:17:973,-0.841388,-0.154904,-9.67232,0.721841,-4.65668,-0.394274
2023-03-14 22:43:17:983,-0.830082,-0.163648,-9.67386,0.748591,-4.6568,-0.386562
2023-03-14 22:43:17:993,-0.822805,-0.15192,-9.71262,0.76894,-4.65654,-0.380669
2023-03-14 22:43:18:4,-0.829645,-0.136856,-9.74443,0.783899,-4.6547,-0.374507
2023-03-14 22:43:18:13,-0.839619,-0.149767,-9.73397,0.80278,-4.65297,-0.372862
2023-03-14 22:43:18:24,-0.826248,-0.163367,-9.70993,0.820359,-4.64852,-0.369888
2023-03-14 22:43:18:34,-0.819067,-0.177616,-9.69784,0.838838,-4.63989,-0.363581
2023-03-14 22:43:18:44,-0.802775,-0.177717,-9.69062,0.856621,-4.62944,-0.36147
2023-03-14 22:43:18:53,-0.771632,-0.188009,-9.67597,0.869732,-4.61924,-0.355853
2023-03-14 22:43:18:64,-0.767196,-0.182027,-9.69049,0.875838,-4.60908,-0.352799
2023-03-14 22:43:18:73,-0.762033,-0.155385,-9.68743,0.87664,-4.60356,-0.345485
2023-03-14 22:43:18:83,-0.763034,-0.145035,-9.7175,0.87294,-4.60112,-0.341918
2023-03-14 22:43:18:93,-0.798768,-0.126605,-9.73702,0.868846,-4.59916,-0.336973
2023-03-14 22:43:18:104,-0.819572,-0.109489,-9.73056,0.86374,-4.59075,-0.339307
2023-03-14 22:43:18:113,-0.810437,-0.115896,-9.75107,0.863275,-4.58287,-0.337914
2023-03-14 22:43:18:123,-0.742514,-0.121721,-9.77188,0.864997,-4.57507,-0.340024
2023-03-14 22:43:18:133,-0.707675,-0.153226,-9.74287,0.86641,-4.56341,-0.340286
2023-03-14 22:43:18:144,-0.715017,-0.187833,-9.69766,0.873367,-4.55535,-0.343746
2023-03-14 22:43:18:153,-0.734785,-0.199113,-9.68336,0.880347,-4.54925,-0.341745
2023-03-14 22:43:18:163,-0.754567,-0.190827,-9.71988,0.878913,-4.54624,-0.338664
2023-03-14 22:43:18:173,-0.764402,-0.171115,-9.76166,0.872298,-4.54203,-0.336852
2023-03-14 22:43:18:183,-0.760294,-0.14915,-9.75216,0.866977,-4.53987,-0.334916
2023-03-14 22:43:18:193,-0.755116,-0.155814,-9.74318,0.859283,-4.53969,-0.332881
2023-03-14 22:43:18:204,-0.754295,-0.151121,-9.74808,0.852144,-4.53541,-0.328662
2023-03-14 22:43:18:213,-0.742894,-0.125577,-9.773,0.843915,-4.53124,-0.325817
2023-03-14 22:43:18:223,-0.748578,-0.117,-9.79407,0.835217,-4.52798,-0.320967
2023-03-14 22:43:18:233,-0.746512,-0.108961,-9.78058,0.829371,-4.524,-0.315384
2023-03-14 22:43:18:243,-0.746891,-0.10288,-9.77176,0.825555,-4.52452,-0.311488
2023-03-14 22:43:18:253,-0.744048,-0.104862,-9.75856,0.8232,-4.51976,-0.306869
2023-03-14 22:43:18:264,-0.758625,-0.115051,-9.7487,0.819865,-4.52256,-0.302745
2023-03-14 22:43:18:273,-0.767879,-0.12639,-9.74798,0.821071,-4.52321,-0.298274
2023-03-14 22:43:18:283,-0.763183,-0.139098,-9.73273,0.822683,-4.52385,-0.293646
2023-03-14 22:43:18:293,-0.756607,-0.169769,-9.72835,0.825195,-4.52266,-0.290355
2023-03-14 22:43:18:303,-0.744113,-0.176829,-9.71935,0.827076,-4.52082,-0.282334
2023-03-14 22:43:18:313,-0.735856,-0.174026,-9.72068,0.825847,-4.52075,-0.271765
2023-03-14 22:43:18:323,-0.738048,-0.167599,-9.73919,0.822428,-4.52172,-0.261861
2023-03-14 22:43:18:333,-0.74418,-0.145929,-9.74597,0.818473,-4.5196,-0.249722
2023-03-14 22:43:18:344,-0.74899,-0.135752,-9.75693,0.81287,-4.5193,-0.23442
2023-03-14 22:43:18:353,-0.757349,-0.143877,-9.75997,0.808077,-4.5176,-0.217645
2023-03-14 22:43:18:364,-0.774198,-0.140702,-9.76321,0.801655,-4.51917,-0.201093
2023-03-14 22:43:18:373,-0.782245,-0.124493,-9.76061,0.797661,-4.52093,-0.183985
2023-03-14 22:43:18:383,-0.81145,-0.126457,-9.76452,0.789301,-4.5232,-0.166463
2023-03-14 22:43:18:393,-0.813657,-0.122134,-9.76484,0.784409,-4.52487,-0.152175
2023-03-14 22:43:18:403,-0.814127,-0.117111,-9.73735,0.779877,-4.52984,-0.138675
2023-03-14 22:43:18:413,-0.806543,-0.140393,-9.73187,0.779638,-4.52933,-0.130669
2023-03-14 22:43:18:423,-0.80416,-0.144693,-9.72798,0.776011,-4.52992,-0.121265
2023-03-14 22:43:18:433,-0.804506,-0.141892,-9.72905,0.772515,-4.52738,-0.113076
2023-03-14 22:43:18:443,-0.796779,-0.147692,-9.72261,0.769254,-4.53175,-0.107287
2023-03-14 22:43:18:453,-0.794009,-0.155493,-9.7359,0.766807,-4.53282,-0.100428
2023-03-14 22:43:18:464,-0.781521,-0.139649,-9.74033,0.75962,-4.53208,-0.0918797
2023-03-14 22:43:18:473,-0.791802,-0.139727,-9.76076,0.753004,-4.52847,-0.0850763
2023-03-14 22:43:18:483,-0.784054,-0.140672,-9.76919,0.748779,-4.52378,-0.0813848
2023-03-14 22:43:18:493,-0.761642,-0.128277,-9.78451,0.740624,-4.5212,-0.0740551
2023-03-14 22:43:18:503,-0.748543,-0.121099,-9.77981,0.737227,-4.51853,-0.067812
2023-03-14 22:43:18:513,-0.752315,-0.11689,-9.7535,0.731455,-4.51734,-0.0629838
2023-03-14 22:43:18:523,-0.757723,-0.125695,-9.74138,0.725606,-4.51685,-0.0600084
2023-03-14 22:43:18:533,-0.75007,-0.124783,-9.73806,0.719238,-4.51186,-0.054074
2023-03-14 22:43:18:543,-0.750312,-0.122208,-9.747,0.71196,-4.50625,-0.0471303
2023-03-14 22:43:18:553,-0.748648,-0.121433,-9.75075,0.706413,-4.50413,-0.0390574
2023-03-14 22:43:18:563,-0.749948,-0.125075,-9.75511,0.701192,-4.49992,-0.0304066
2023-03-14 22:43:18:573,-0.748956,-0.131175,-9.74583,0.695565,-4.49632,-0.0231028
2023-03-14 22:43:18:584,-0.749328,-0.147845,-9.74509,0.69124,-4.49335,-0.014983
2023-03-14 22:43:18:593,-0.763697,-0.152976,-9.71294,0.685099,-4.49253,-0.00451067
2023-03-14 22:43:18:603,-0.798098,-0.145709,-9.71449,0.678422,-4.49321,0.00470636
2023-03-14 22:43:18:613,-0.800362,-0.125375,-9.76432,0.668105,-4.49293,0.013555
2023-03-14 22:43:18:623,-0.795496,-0.109764,-9.76741,0.660704,-4.48765,0.0204217
2023-03-14 22:43:18:633,-0.776031,-0.12886,-9.73952,0.655787,-4.48393,0.0270036
2023-03-14 22:43:18:643,-0.765434,-0.139516,-9.71856,0.650414,-4.47855,0.0319236
2023-03-14 22:43:18:653,-0.77596,-0.140322,-9.72932,0.644401,-4.47884,0.0391129
2023-03-14 22:43:18:663,-0.789127,-0.129031,-9.7815,0.634633,-4.47908,0.0411856
2023-03-14 22:43:18:673,-0.797634,-0.0873339,-9.83162,0.622315,-4.47954,0.0472381
2023-03-14 22:43:18:683,-0.750727,-0.0532729,-9.8774,0.61308,-4.47791,0.0508741
2023-03-14 22:43:18:693,-0.7,-0.0645845,-9.89183,0.61263,-4.47463,0.0443572
2023-03-14 22:43:18:703,-0.708175,-0.102768,-9.8323,0.61918,-4.47187,0.0388048
2023-03-14 22:43:18:713,-0.746829,-0.122494,-9.76842,0.624951,-4.47458,0.0386879
2023-03-14 22:43:18:723,-0.777969,-0.119525,-9.73508,0.63419,-4.48144,0.0403002
2023-03-14 22:43:18:733,-0.768514,-0.118178,-9.71693,0.641542,-4.4866,0.0388317
2023-03-14 22:43:18:743,-0.741055,-0.113369,-9.7187,0.645104,-4.49441,0.0368535
2023-03-14 22:43:18:753,-0.717599,-0.102175,-9.7134,0.64648,-4.49981,0.0362004
2023-03-14 22:43:18:763,-0.728182,-0.0968299,-9.72679,0.649259,-4.50403,0.0358636
2023-03-14 22:43:18:773,-0.724615,-0.069613,-9.73248,0.649321,-4.50847,0.0353911
2023-03-14 22:43:18:783,-0.730003,-0.0587377,-9.75634,0.648611,-4.51402,0.0345702
2023-03-14 22:43:18:793,-0.756794,-0.0667457,-9.77404,0.648325,-4.52111,0.0376321
2023-03-14 22:43:18:803,-0.75738,-0.0957311,-9.76942,0.649883,-4.52549,0.041852
2023-03-14 22:43:18:813,-0.765878,-0.100383,-9.75876,0.653167,-4.52863,0.0471162
2023-03-14 22:43:18:823,-0.768278,-0.118036,-9.75021,0.658147,-4.53341,0.0519597
2023-03-14 22:43:18:833,-0.785344,-0.13071,-9.72983,0.663094,-4.53791,0.0659856
2023-03-14 22:43:18:843,-0.796135,-0.141699,-9.72999,0.666047,-4.53652,0.078937
2023-03-14 22:43:18:853,-0.796403,-0.130196,-9.735,0.668346,-4.54034,0.0886378
2023-03-14 22:43:18:863,-0.78332,-0.121916,-9.74321,0.670453,-4.54207,0.0977731
2023-03-14 22:43:18:873,-0.758187,-0.124449,-9.76124,0.67206,-4.54332,0.101663
2023-03-14 22:43:18:884,-0.751857,-0.114464,-9.74544,0.673951,-4.54311,0.112795
2023-03-14 22:43:18:893,-0.773431,-0.121908,-9.73252,0.67333,-4.54298,0.119199
2023-03-14 22:43:18:903,-0.768619,-0.131355,-9.72068,0.669905,-4.54328,0.12733
2023-03-14 22:43:18:913,-0.759754,-0.118903,-9.72862,0.667009,-4.54499,0.133874
2023-03-14 22:43:18:923,-0.782445,-0.116914,-9.7288,0.666563,-4.54843,0.142945
2023-03-14 22:43:18:933,-0.795199,-0.116314,-9.72348,0.665956,-4.54799,0.149334
2023-03-14 22:43:18:944,-0.740896,-0.10451,-9.7448,0.659893,-4.54622,0.151049
2023-03-14 22:43:18:953,-0.669208,-0.112967,-9.76969,0.656243,-4.53953,0.154901
2023-03-14 22:43:18:964,-0.647688,-0.123477,-9.76156,0.653614,-4.53733,0.15782
2023-03-14 22:43:18:973,-0.68757,-0.131051,-9.7224,0.650428,-4.54038,0.166506
2023-03-14 22:43:18:984,-0.715555,-0.143412,-9.73324,0.647003,-4.5475,0.176502
2023-03-14 22:43:18:993,-0.729402,-0.14674,-9.73762,0.640893,-4.55327,0.188454
2023-03-14 22:43:19:3,-0.743804,-0.131352,-9.74777,0.632787,-4.5658,0.202155
2023-03-14 22:43:19:13,-0.785154,-0.0942774,-9.77179,0.625658,-4.57986,0.215477
2023-03-14 22:43:19:23,-0.811835,-0.0590262,-9.80463,0.614637,-4.58856,0.228482
2023-03-14 22:43:19:33,-0.803418,-0.055591,-9.81708,0.606615,-4.59586,0.241665
2023-03-14 22:43:19:43,-0.776032,-0.0533569,-9.80918,0.602476,-4.59494,0.247994
2023-03-14 22:43:19:53,-0.772419,-0.0677183,-9.79016,0.601512,-4.59376,0.254061
2023-03-14 22:43:19:63,-0.769069,-0.066602,-9.78086,0.601822,-4.59513,0.263374
2023-03-14 22:43:19:73,-0.781179,-0.0833434,-9.75769,0.605882,-4.59981,0.271925
2023-03-14 22:43:19:84,-0.794636,-0.0789381,-9.74734,0.608143,-4.6058,0.279408
2023-03-14 22:43:19:93,-0.766249,-0.0926392,-9.74757,0.611773,-4.61414,0.280933
2023-03-14 22:43:19:104,-0.762109,-0.113495,-9.73923,0.620389,-4.62159,0.283326
2023-03-14 22:43:19:113,-0.756212,-0.134672,-9.73058,0.627151,-4.63076,0.285245
2023-03-14 22:43:19:123,-0.759813,-0.147564,-9.72886,0.635068,-4.63795,0.294385
2023-03-14 22:43:19:133,-0.759957,-0.149316,-9.71659,0.640815,-4.64689,0.300541
2023-03-14 22:43:19:143,-0.745341,-0.164008,-9.71001,0.641594,-4.65745,0.307028
2023-03-14 22:43:19:153,-0.775371,-0.135011,-9.71139,0.638443,-4.67299,0.318717
2023-03-14 22:43:19:163,-0.802155,-0.117044,-9.71899,0.633832,-4.6867,0.331679
2023-03-14 22:43:19:173,-0.815267,-0.101324,-9.7277,0.632785,-4.6992,0.347761
2023-03-14 22:43:19:184,-0.809002,-0.104398,-9.73197,0.628885,-4.70398,0.360332
2023-03-14 22:43:19:193,-0.805342,-0.110732,-9.73174,0.626577,-4.70958,0.374479
2023-03-14 22:43:19:203,-0.802337,-0.108362,-9.74671,0.622028,-4.71149,0.390258
2023-03-14 22:43:19:213,-0.811277,-0.0931265,-9.73574,0.620356,-4.71485,0.402628
2023-03-14 22:43:19:223,-0.835183,-0.0800868,-9.73807,0.615001,-4.72123,0.416539
2023-03-14 22:43:19:233,-0.848038,-0.0735665,-9.76458,0.611532,-4.73152,0.430594
2023-03-14 22:43:19:243,-0.866055,-0.0687332,-9.78179,0.607823,-4.73903,0.439005
2023-03-14 22:43:19:253,-0.861825,-0.0863492,-9.76876,0.60806,-4.74401,0.449804
2023-03-14 22:43:19:263,-0.845361,-0.0975748,-9.74891,0.609234,-4.74738,0.456106
2023-03-14 22:43:19:273,-0.857508,-0.0988698,-9.74983,0.610551,-4.75559,0.459993
2023-03-14 22:43:19:283,-0.872273,-0.101655,-9.72597,0.612814,-4.76012,0.465733
2023-03-14 22:43:19:294,-0.864215,-0.105467,-9.72668,0.611152,-4.76587,0.474071
2023-03-14 22:43:19:304,-0.848362,-0.104485,-9.72447,0.608498,-4.77154,0.479451
2023-03-14 22:43:19:314,-0.857661,-0.104545,-9.73175,0.606241,-4.77559,0.48347
2023-03-14 22:43:19:323,-0.866071,-0.0691095,-9.75214,0.602867,-4.77906,0.486695
2023-03-14 22:43:19:333,-0.862644,-0.0559171,-9.76725,0.599114,-4.78129,0.488756
2023-03-14 22:43:19:343,-0.835869,-0.070272,-9.76932,0.592827,-4.78365,0.488479
2023-03-14 22:43:19:353,-0.825924,-0.0791619,-9.76898,0.589248,-4.787,0.487226
2023-03-14 22:43:19:363,-0.807022,-0.0915891,-9.78007,0.587094,-4.78799,0.484509
2023-03-14 22:43:19:373,-0.817646,-0.0784308,-9.76785,0.585456,-4.78727,0.482729
2023-03-14 22:43:19:383,-0.832981,-0.0634753,-9.76168,0.587825,-4.7866,0.477383
2023-03-14 22:43:19:393,-0.839089,-0.0881668,-9.77123,0.590427,-4.78729,0.473791
2023-03-14 22:43:19:403,-0.835178,-0.0890748,-9.74375,0.59391,-4.78826,0.476041
2023-03-14 22:43:19:414,-0.836629,-0.0890646,-9.72174,0.598358,-4.7891,0.475256
2023-03-14 22:43:19:423,-0.834853,-0.0939023,-9.72538,0.601131,-4.78754,0.472293
2023-03-14 22:43:19:433,-0.837498,-0.0975309,-9.73824,0.602717,-4.78646,0.471691
2023-03-14 22:43:19:443,-0.844055,-0.0966924,-9.74362,0.605236,-4.78406,0.47291
2023-03-14 22:43:19:453,-0.836568,-0.102647,-9.74691,0.60555,-4.78351,0.473222
2023-03-14 22:43:19:464,-0.820374,-0.0934158,-9.75679,0.606857,-4.7808,0.470554
2023-03-14 22:43:19:474,-0.804005,-0.0836056,-9.75384,0.604956,-4.77495,0.466684
2023-03-14 22:43:19:484,-0.797284,-0.0905025,-9.76467,0.602609,-4.77284,0.460125
2023-03-14 22:43:19:493,-0.79619,-0.0964336,-9.7748,0.605073,-4.76909,0.452356
2023-03-14 22:43:19:504,-0.775087,-0.103492,-9.79754,0.605839,-4.76925,0.450958
2023-03-14 22:43:19:514,-0.773082,-0.0858321,-9.79441,0.61039,-4.76723,0.44917
2023-03-14 22:43:19:523,-0.768647,-0.091938,-9.77576,0.613332,-4.76267,0.448594
2023-03-14 22:43:19:533,-0.762413,-0.122702,-9.75245,0.624408,-4.75645,0.447783
2023-03-14 22:43:19:543,-0.75631,-0.143917,-9.72872,0.633816,-4.75277,0.450051
2023-03-14 22:43:19:553,-0.759674,-0.138814,-9.72173,0.643675,-4.75291,0.452968
2023-03-14 22:43:19:564,-0.789283,-0.129329,-9.73746,0.650225,-4.75352,0.458157
2023-03-14 22:43:19:573,-0.774907,-0.167585,-9.74009,0.65703,-4.75038,0.464553
2023-03-14 22:43:19:584,-0.752822,-0.200358,-9.72903,0.669766,-4.74379,0.471952
2023-03-14 22:43:19:593,-0.720084,-0.192034,-9.75336,0.675355,-4.73685,0.482265
2023-03-14 22:43:19:603,-0.676287,-0.167874,-9.79338,0.680262,-4.73373,0.493363
2023-03-14 22:43:19:613,-0.677102,-0.16998,-9.78557,0.684675,-4.73554,0.504841
2023-03-14 22:43:19:623,-0.73548,-0.171418,-9.73018,0.688794,-4.74153,0.519367
2023-03-14 22:43:19:633,-0.801287,-0.149547,-9.70282,0.693754,-4.75197,0.537974
2023-03-14 22:43:19:643,-0.823776,-0.124045,-9.721,0.68992,-4.76129,0.552735
2023-03-14 22:43:19:653,-0.808155,-0.10902,-9.73861,0.686969,-4.76995,0.567468
2023-03-14 22:43:19:663,-0.798035,-0.0951494,-9.7284,0.684022,-4.77607,0.584828
2023-03-14 22:43:19:673,-0.802596,-0.104806,-9.72246,0.685152,-4.78173,0.595477
2023-03-14 22:43:19:683,-0.815581,-0.119365,-9.7074,0.686191,-4.78952,0.609525
2023-03-14 22:43:19:693,-0.823259,-0.111082,-9.68318,0.691024,-4.7962,0.621751
2023-03-14 22:43:19:703,-0.848142,-0.117503,-9.69262,0.694898,-4.80228,0.636131
2023-03-14 22:43:19:713,-0.863975,-0.124296,-9.69964,0.694963,-4.80737,0.651382
2023-03-14 22:43:19:723,-0.856292,-0.139576,-9.70598,0.693523,-4.81057,0.66683
2023-03-14 22:43:19:733,-0.856707,-0.131043,-9.7117,0.692776,-4.8115,0.679672
2023-03-14 22:43:19:743,-0.870014,-0.131097,-9.73859,0.687642,-4.81488,0.693129
2023-03-14 22:43:19:753,-0.876911,-0.12503,-9.75234,0.681073,-4.81474,0.704563
2023-03-14 22:43:19:763,-0.866175,-0.115636,-9.75063,0.673359,-4.81839,0.712063
2023-03-14 22:43:19:773,-0.852648,-0.119419,-9.77413,0.663229,-4.81943,0.716925
2023-03-14 22:43:19:784,-0.830936,-0.0992455,-9.77924,0.652763,-4.81845,0.721722
2023-03-14 22:43:19:793,-0.822551,-0.111794,-9.76474,0.64114,-4.81677,0.728173
2023-03-14 22:43:19:803,-0.82606,-0.100954,-9.76233,0.629295,-4.81791,0.732429
2023-03-14 22:43:19:813,-0.838047,-0.0556442,-9.79043,0.617016,-4.81831,0.739346
2023-03-14 22:43:19:824,-0.815133,-0.0385283,-9.7871,0.608291,-4.81757,0.741868
2023-03-14 22:43:19:833,-0.792617,-0.0820029,-9.75984,0.599942,-4.8189,0.739761
2023-03-14 22:43:19:844,-0.82941,-0.0951935,-9.7426,0.596751,-4.81816,0.74246
2023-03-14 22:43:19:853,-0.861501,-0.0793086,-9.72887,0.591472,-4.81944,0.743666
2023-03-14 22:43:19:863,-0.798713,-0.0614053,-9.73959,0.586036,-4.81596,0.742693
2023-03-14 22:43:19:873,-0.725198,-0.0769383,-9.75149,0.584003,-4.8076,0.734512
2023-03-14 22:43:19:883,-0.695372,-0.124292,-9.73962,0.584263,-4.80688,0.736156
2023-03-14 22:43:19:893,-0.725504,-0.13289,-9.70965,0.586632,-4.81155,0.743525
2023-03-14 22:43:19:903,-0.794721,-0.0998331,-9.74318,0.579335,-4.82018,0.751106
2023-03-14 22:43:19:913,-0.831981,-0.0597991,-9.78925,0.570738,-4.82887,0.760868
2023-03-14 22:43:19:924,-0.857756,-0.0396003,-9.79874,0.561467,-4.83313,0.768432
2023-03-14 22:43:19:933,-0.849415,-0.0451873,-9.79579,0.556979,-4.83359,0.775981
2023-03-14 22:43:19:943,-0.856964,-0.0547045,-9.79235,0.555113,-4.83135,0.782867
2023-03-14 22:43:19:953,-0.841938,-0.0405097,-9.80304,0.551348,-4.82572,0.790018
2023-03-14 22:43:19:963,-0.82767,-0.0474165,-9.80526,0.553265,-4.82055,0.797441
2023-03-14 22:43:19:973,-0.821597,-0.0518763,-9.7816,0.555028,-4.81947,0.801686
2023-03-14 22:43:19:983,-0.832314,-0.0655249,-9.76251,0.55782,-4.81757,0.807299
2023-03-14 22:43:19:993,-0.841698,-0.0853462,-9.75444,0.562816,-4.81439,0.813925
2023-03-14 22:43:20:3,-0.84061,-0.0818349,-9.74571,0.567558,-4.8141,0.817074
2023-03-14 22:43:20:13,-0.823162,-0.075446,-9.74,0.573753,-4.81574,0.821136
2023-03-14 22:43:20:23,-0.79845,-0.0867968,-9.7368,0.581581,-4.81927,0.820275
2023-03-14 22:43:20:33,-0.783416,-0.116722,-9.73006,0.590322,-4.8244,0.822834
2023-03-14 22:43:20:43,-0.790309,-0.129763,-9.7262,0.596615,-4.83081,0.825467
2023-03-14 22:43:20:53,-0.804929,-0.133217,-9.72676,0.603932,-4.83395,0.829366
2023-03-14 22:43:20:63,-0.813972,-0.1264,-9.7254,0.609563,-4.8383,0.835418
2023-03-14 22:43:20:73,-0.823061,-0.131742,-9.74199,0.611958,-4.84595,0.846807
2023-03-14 22:43:20:83,-0.83025,-0.135726,-9.73866,0.611061,-4.85236,0.859635
2023-03-14 22:43:20:93,-0.861824,-0.128924,-9.72773,0.613218,-4.85817,0.874311
2023-03-14 22:43:20:103,-0.871929,-0.117935,-9.7366,0.610571,-4.86438,0.887336
2023-03-14 22:43:20:113,-0.864208,-0.104457,-9.74673,0.608447,-4.8668,0.899338
2023-03-14 22:43:20:123,-0.868855,-0.0977538,-9.76036,0.604907,-4.86886,0.91321
2023-03-14 22:43:20:133,-0.89231,-0.0887791,-9.75991,0.601145,-4.86746,0.924892
2023-03-14 22:43:20:143,-0.886912,-0.0714296,-9.76605,0.5995,-4.86614,0.934359
2023-03-14 22:43:20:153,-0.881711,-0.0839565,-9.76921,0.600542,-4.86476,0.942914
2023-03-14 22:43:20:163,-0.881076,-0.0913863,-9.77632,0.603258,-4.86524,0.951051
2023-03-14 22:43:20:173,-0.880923,-0.0976022,-9.76072,0.606041,-4.86664,0.956113
2023-03-14 22:43:20:183,-0.870238,-0.114629,-9.75505,0.608125,-4.86293,0.95952
2023-03-14 22:43:20:193,-0.871019,-0.106456,-9.75574,0.611105,-4.86465,0.961181
2023-03-14 22:43:20:203,-0.886367,-0.0919306,-9.7529,0.619278,-4.86404,0.957962
2023-03-14 22:43:20:213,-0.874441,-0.109969,-9.74327,0.624444,-4.86067,0.952399
2023-03-14 22:43:20:223,-0.83075,-0.136063,-9.73004,0.631164,-4.856,0.950595
2023-03-14 22:43:20:233,-0.792188,-0.14988,-9.72575,0.638987,-4.85025,0.947045
2023-03-14 22:43:20:243,-0.805563,-0.141523,-9.73287,0.6424,-4.84768,0.945231
2023-03-14 22:43:20:253,-0.808012,-0.138258,-9.73505,0.642651,-4.84614,0.943318
2023-03-14 22:43:20:263,-0.806171,-0.136325,-9.73427,0.644552,-4.8465,0.942647
2023-03-14 22:43:20:273,-0.808079,-0.141222,-9.73512,0.645752,-4.84341,0.939823
2023-03-14 22:43:20:283,-0.794204,-0.135363,-9.72475,0.645015,-4.8421,0.941257
2023-03-14 22:43:20:294,-0.774598,-0.141993,-9.73279,0.643599,-4.83469,0.942401
2023-03-14 22:43:20:304,-0.775168,-0.147734,-9.73957,0.641293,-4.83074,0.94617
2023-03-14 22:43:20:313,-0.782505,-0.134772,-9.75222,0.639311,-4.82707,0.952682
2023-03-14 22:43:20:324,-0.797397,-0.115124,-9.78187,0.635007,-4.82734,0.95848
2023-03-14 22:43:20:333,-0.804862,-0.10365,-9.7799,0.631016,-4.82831,0.964631
2023-03-14 22:43:20:344,-0.815554,-0.104141,-9.78084,0.631388,-4.82841,0.969745
2023-03-14 22:43:20:353,-0.832634,-0.104733,-9.77384,0.634222,-4.8286,0.977112
2023-03-14 22:43:20:363,-0.838455,-0.108631,-9.75874,0.638344,-4.82776,0.984825
2023-03-14 22:43:20:373,-0.821546,-0.134095,-9.74565,0.646332,-4.8252,0.993595
2023-03-14 22:43:20:383,-0.820063,-0.151876,-9.73324,0.651134,-4.82106,0.999976
2023-03-14 22:43:20:393,-0.829113,-0.162798,-9.71451,0.65621,-4.81565,1.00678
2023-03-14 22:43:20:403,-0.842668,-0.166628,-9.70128,0.658735,-4.81361,1.011
2023-03-14 22:43:20:414,-0.831645,-0.160972,-9.70613,0.65982,-4.8111,1.01588
2023-03-14 22:43:20:423,-0.813749,-0.158198,-9.74253,0.657292,-4.80896,1.02068
2023-03-14 22:43:20:433,-0.816959,-0.132316,-9.79586,0.655183,-4.80736,1.02373
2023-03-14 22:43:20:444,-0.830221,-0.114812,-9.80165,0.654099,-4.80767,1.02654
2023-03-14 22:43:20:453,-0.837312,-0.130949,-9.7735,0.656513,-4.80757,1.02477
2023-03-14 22:43:20:463,-0.837776,-0.162391,-9.74396,0.659177,-4.80422,1.023
2023-03-14 22:43:20:473,-0.809124,-0.151387,-9.76411,0.661751,-4.7995,1.02365
2023-03-14 22:43:20:483,-0.763461,-0.131878,-9.7939,0.662664,-4.79476,1.02011
2023-03-14 22:43:20:493,-0.702693,-0.146483,-9.78902,0.672232,-4.78946,1.0146
2023-03-14 22:43:20:503,-0.717713,-0.175736,-9.735,0.681179,-4.79154,1.01377
2023-03-14 22:43:20:513,-0.7849,-0.187797,-9.70486,0.684947,-4.79739,1.02319
2023-03-14 22:43:20:523,-0.833754,-0.150267,-9.70056,0.682222,-4.80275,1.03319
2023-03-14 22:43:20:533,-0.833939,-0.117372,-9.70803,0.677674,-4.80358,1.04083
2023-03-14 22:43:20:543,-0.826476,-0.119651,-9.72303,0.67458,-4.8048,1.04997
2023-03-14 22:43:20:553,-0.815897,-0.103402,-9.73702,0.673791,-4.79897,1.05875
2023-03-14 22:43:20:563,-0.814134,-0.0886476,-9.75772,0.667645,-4.79407,1.06878
2023-03-14 22:43:20:573,-0.825653,-0.0841496,-9.74521,0.662296,-4.78969,1.07731
2023-03-14 22:43:20:583,-0.857852,-0.068772,-9.72482,0.657134,-4.78887,1.08801
2023-03-14 22:43:20:593,-0.880705,-0.0801669,-9.71487,0.654445,-4.78625,1.09411
2023-03-14 22:43:20:603,-0.885022,-0.123704,-9.70438,0.652389,-4.78052,1.09985
2023-03-14 22:43:20:613,-0.871277,-0.13815,-9.70721,0.645733,-4.77433,1.10441
2023-03-14 22:43:20:623,-0.860998,-0.121382,-9.71657,0.640102,-4.76844,1.10451
2023-03-14 22:43:20:633,-0.827305,-0.128874,-9.71291,0.63124,-4.76525,1.10068
2023-03-14 22:43:20:644,-0.808218,-0.125945,-9.73974,0.625558,-4.76023,1.09582
2023-03-14 22:43:20:653,-0.791998,-0.104551,-9.74724,0.614957,-4.75411,1.08968
2023-03-14 22:43:20:664,-0.774685,-0.107503,-9.74604,0.607287,-4.7461,1.08154
2023-03-14 22:43:20:673,-0.749729,-0.106353,-9.76457,0.596114,-4.7384,1.07163
2023-03-14 22:43:20:683,-0.732147,-0.079768,-9.79013,0.585571,-4.73048,1.06248
2023-03-14 22:43:20:693,-0.714409,-0.0540623,-9.79524,0.573866,-4.72301,1.05699
2023-03-14 22:43:20:704,-0.714005,-0.0505024,-9.78082,0.56497,-4.71617,1.05286
2023-03-14 22:43:20:713,-0.707363,-0.0595636,-9.77085,0.558321,-4.71053,1.04898
2023-03-14 22:43:20:723,-0.732538,-0.0679594,-9.76657,0.549386,-4.70814,1.04629
2023-03-14 22:43:20:733,-0.750336,-0.0771936,-9.76724,0.540699,-4.70918,1.04734
2023-03-14 22:43:20:743,-0.747726,-0.079007,-9.76376,0.53414,-4.7092,1.04995
2023-03-14 22:43:20:753,-0.745208,-0.054873,-9.78412,0.525149,-4.71053,1.05099
2023-03-14 22:43:20:763,-0.741141,-0.0432929,-9.79031,0.519347,-4.71231,1.0529
2023-03-14 22:43:20:773,-0.768021,-0.0671848,-9.75793,0.516376,-4.71324,1.05593
2023-03-14 22:43:20:783,-0.802301,-0.106406,-9.72718,0.516308,-4.71768,1.06016
2023-03-14 22:43:20:793,-0.805377,-0.127398,-9.7044,0.52043,-4.72075,1.06585
2023-03-14 22:43:20:803,-0.799889,-0.143744,-9.69358,0.520047,-4.72366,1.07215
2023-03-14 22:43:20:813,-0.803741,-0.119631,-9.71631,0.513788,-4.73154,1.077
2023-03-14 22:43:20:823,-0.816893,-0.0912105,-9.74155,0.500957,-4.73803,1.08093
2023-03-14 22:43:20:833,-0.842644,-0.0706748,-9.76939,0.489451,-4.74633,1.08359
2023-03-14 22:43:20:843,-0.851086,-0.0450329,-9.79093,0.478491,-4.7518,1.0839
2023-03-14 22:43:20:853,-0.832905,-0.0415629,-9.80973,0.466971,-4.75975,1.08718
2023-03-14 22:43:20:863,-0.815549,-0.0329365,-9.79413,0.46114,-4.76154,1.09063
2023-03-14 22:43:20:873,-0.819116,-0.0428779,-9.78381,0.454011,-4.76603,1.0939
2023-03-14 22:43:20:883,-0.817808,-0.0443019,-9.76093,0.451794,-4.76696,1.09598
2023-03-14 22:43:20:893,-0.81337,-0.0578284,-9.75848,0.45057,-4.76749,1.09932
2023-03-14 22:43:20:903,-0.822374,-0.0631544,-9.75178,0.449679,-4.76699,1.0996
2023-03-14 22:43:20:913,-0.83248,-0.0686169,-9.75295,0.451698,-4.76833,1.10148
2023-03-14 22:43:20:924,-0.838081,-0.0668186,-9.75817,0.452247,-4.77294,1.1033
2023-03-14 22:43:20:933,-0.835418,-0.0702019,-9.77061,0.453687,-4.77311,1.10622
2023-03-14 22:43:20:943,-0.820827,-0.0848417,-9.76752,0.458225,-4.77209,1.11003
2023-03-14 22:43:20:953,-0.813802,-0.0896479,-9.7571,0.46117,-4.76955,1.1133
2023-03-14 22:43:20:963,-0.81497,-0.0837157,-9.7365,0.460308,-4.76644,1.11677
2023-03-14 22:43:20:973,-0.828209,-0.0814274,-9.73021,0.456991,-4.76643,1.12135
2023-03-14 22:43:20:983,-0.828043,-0.0760967,-9.72488,0.456251,-4.76642,1.12347
2023-03-14 22:43:20:993,-0.831013,-0.0567401,-9.74069,0.454314,-4.7656,1.12514
2023-03-14 22:43:21:3,-0.836921,-0.0371817,-9.7509,0.450962,-4.76552,1.1256
2023-03-14 22:43:21:13,-0.843902,-0.0303912,-9.75379,0.449651,-4.76251,1.12704
2023-03-14 22:43:21:23,-0.834101,-0.0407995,-9.75237,0.448488,-4.75995,1.12606
2023-03-14 22:43:21:33,-0.821079,-0.052336,-9.75244,0.448226,-4.75688,1.12652
2023-03-14 22:43:21:44,-0.828452,-0.0519903,-9.74863,0.448234,-4.75471,1.12645
2023-03-14 22:43:21:54,-0.815186,-0.054013,-9.76248,0.447525,-4.74917,1.12602
2023-03-14 22:43:21:64,-0.806333,-0.0623895,-9.76796,0.448487,-4.74618,1.12545
2023-03-14 22:43:21:74,-0.815204,-0.0703463,-9.78009,0.45468,-4.74631,1.12362
2023-03-14 22:43:21:84,-0.814647,-0.0820498,-9.76948,0.461082,-4.74193,1.12226
2023-03-14 22:43:21:94,-0.799894,-0.064093,-9.76023,0.464442,-4.7364,1.12034
2023-03-14 22:43:21:104,-0.79849,-0.0647056,-9.77753,0.469041,-4.73004,1.11794
2023-03-14 22:43:21:114,-0.782814,-0.0735063,-9.7757,0.47228,-4.72276,1.11376
2023-03-14 22:43:21:124,-0.768321,-0.0948459,-9.75822,0.481035,-4.71956,1.11557
2023-03-14 22:43:21:133,-0.761613,-0.111989,-9.73588,0.487837,-4.71465,1.11506
2023-03-14 22:43:21:144,-0.74979,-0.105128,-9.74107,0.493037,-4.71423,1.11597
2023-03-14 22:43:21:153,-0.744951,-0.085913,-9.75493,0.495947,-4.71856,1.11668
2023-03-14 22:43:21:164,-0.749428,-0.0688771,-9.77006,0.499932,-4.71773,1.11556
2023-03-14 22:43:21:173,-0.756178,-0.0712928,-9.77104,0.505143,-4.71797,1.11461
2023-03-14 22:43:21:184,-0.763541,-0.0856236,-9.77835,0.509183,-4.7207,1.11418
2023-03-14 22:43:21:193,-0.779526,-0.0824621,-9.77317,0.514802,-4.71972,1.12079
2023-03-14 22:43:21:204,-0.776409,-0.0847346,-9.75623,0.521529,-4.71809,1.12576
2023-03-14 22:43:21:213,-0.772112,-0.107914,-9.73742,0.532454,-4.72156,1.1287
2023-03-14 22:43:21:224,-0.754697,-0.119,-9.73048,0.546087,-4.72159,1.13669
2023-03-14 22:43:21:233,-0.75464,-0.127253,-9.71948,0.555097,-4.72232,1.14635
2023-03-14 22:43:21:243,-0.75587,-0.119859,-9.73825,0.559411,-4.72258,1.15572
2023-03-14 22:43:21:253,-0.763836,-0.103735,-9.74661,0.564338,-4.72453,1.16672
2023-03-14 22:43:21:263,-0.767078,-0.0901388,-9.76069,0.569743,-4.72725,1.17704
2023-03-14 22:43:21:273,-0.778025,-0.0932137,-9.76405,0.571051,-4.73148,1.18988
2023-03-14 22:43:21:283,-0.808861,-0.0847909,-9.77196,0.573536,-4.73622,1.19912
2023-03-14 22:43:21:293,-0.824116,-0.0805839,-9.78709,0.576497,-4.73988,1.21046
2023-03-14 22:43:21:303,-0.828258,-0.0682843,-9.7824,0.579562,-4.74909,1.22088
2023-03-14 22:43:21:313,-0.823603,-0.0639381,-9.78011,0.586742,-4.75286,1.22988
2023-03-14 22:43:21:324,-0.809899,-0.0870423,-9.77267,0.593833,-4.7543,1.23898
2023-03-14 22:43:21:333,-0.814061,-0.102795,-9.77271,0.605939,-4.75199,1.25406
2023-03-14 22:43:21:343,-0.842599,-0.0891594,-9.77,0.616962,-4.74929,1.26533
2023-03-14 22:43:21:353,-0.848837,-0.100338,-9.76395,0.629193,-4.74843,1.27367
2023-03-14 22:43:21:363,-0.826373,-0.117151,-9.7417,0.639886,-4.74464,1.27911
2023-03-14 22:43:21:373,-0.819732,-0.138649,-9.7437,0.652322,-4.74451,1.28529
2023-03-14 22:43:21:384,-0.816519,-0.127187,-9.74436,0.664439,-4.74197,1.29034
2023-03-14 22:43:21:393,-0.811731,-0.124965,-9.74766,0.679845,-4.74253,1.2945
2023-03-14 22:43:21:403,-0.834154,-0.137071,-9.76709,0.691562,-4.73938,1.29513
2023-03-14 22:43:21:413,-0.825257,-0.150719,-9.76963,0.701071,-4.73645,1.29558
2023-03-14 22:43:21:424,-0.793363,-0.143642,-9.76878,0.713539,-4.73299,1.29509
2023-03-14 22:43:21:433,-0.722121,-0.139523,-9.78991,0.726552,-4.72699,1.29288
2023-03-14 22:43:21:444,-0.663486,-0.1582,-9.78232,0.738942,-4.72293,1.29381
2023-03-14 22:43:21:453,-0.683751,-0.193368,-9.74695,0.751676,-4.72404,1.29609
2023-03-14 22:43:21:464,-0.750332,-0.208133,-9.70325,0.762527,-4.73109,1.30413
2023-03-14 22:43:21:473,-0.78903,-0.167584,-9.70338,0.767372,-4.74472,1.3181
2023-03-14 22:43:21:483,-0.79703,-0.124955,-9.72599,0.77109,-4.75364,1.32477
2023-03-14 22:43:21:493,-0.782404,-0.111257,-9.73903,0.773716,-4.76014,1.33306
2023-03-14 22:43:21:503,-0.767022,-0.116871,-9.72959,0.777478,-4.76769,1.34262
2023-03-14 22:43:21:513,-0.779233,-0.120162,-9.71897,0.783004,-4.77063,1.35434
2023-03-14 22:43:21:523,-0.792617,-0.135685,-9.70398,0.78489,-4.77325,1.36669
2023-03-14 22:43:21:533,-0.815668,-0.152194,-9.69197,0.786471,-4.7781,1.3817
2023-03-14 22:43:21:544,-0.830226,-0.157133,-9.69691,0.791579,-4.78167,1.39279
2023-03-14 22:43:21:553,-0.831182,-0.169866,-9.69546,0.7961,-4.78685,1.40516
2023-03-14 22:43:21:564,-0.822615,-0.173937,-9.70421,0.797563,-4.79418,1.41549
2023-03-14 22:43:21:573,-0.82539,-0.184636,-9.72921,0.797151,-4.79974,1.4285
2023-03-14 22:43:21:583,-0.852517,-0.170891,-9.75374,0.793323,-4.80196,1.43993
2023-03-14 22:43:21:593,-0.861233,-0.13874,-9.76339,0.787669,-4.80773,1.45407
2023-03-14 22:43:21:604,-0.837701,-0.1274,-9.79129,0.782592,-4.81094,1.46521
2023-03-14 22:43:21:613,-0.827469,-0.120518,-9.7937,0.77591,-4.81613,1.47276
2023-03-14 22:43:21:623,-0.835427,-0.114302,-9.77725,0.769437,-4.82051,1.48084
2023-03-14 22:43:21:633,-0.847362,-0.107645,-9.78617,0.763099,-4.8253,1.48992
2023-03-14 22:43:21:644,-0.85837,-0.0970655,-9.7758,0.757899,-4.82891,1.49843
2023-03-14 22:43:21:653,-0.846411,-0.0864285,-9.75926,0.754167,-4.83057,1.50485
2023-03-14 22:43:21:664,-0.845332,-0.0888941,-9.74652,0.75223,-4.83,1.50753
2023-03-14 22:43:21:673,-0.837463,-0.0989027,-9.74493,0.751897,-4.83101,1.5141
2023-03-14 22:43:21:684,-0.858468,-0.103449,-9.75086,0.752211,-4.83449,1.52045
2023-03-14 22:43:21:693,-0.873564,-0.11157,-9.74327,0.753763,-4.83535,1.52504
2023-03-14 22:43:21:703,-0.821611,-0.125026,-9.74407,0.755348,-4.83546,1.52867
2023-03-14 22:43:21:713,-0.742697,-0.145641,-9.76054,0.759723,-4.82979,1.52772
2023-03-14 22:43:21:723,-0.730273,-0.169218,-9.74179,0.76661,-4.82694,1.53076
2023-03-14 22:43:21:733,-0.799283,-0.154969,-9.71948,0.771445,-4.82757,1.53699
2023-03-14 22:43:21:743,-0.838252,-0.131394,-9.73745,0.772039,-4.83207,1.54332
2023-03-14 22:43:21:753,-0.839755,-0.111704,-9.78306,0.773636,-4.83663,1.54814
2023-03-14 22:43:21:763,-0.81848,-0.112308,-9.79984,0.775233,-4.83597,1.55347
2023-03-14 22:43:21:773,-0.814993,-0.113729,-9.79727,0.775833,-4.84101,1.55611
2023-03-14 22:43:21:783,-0.859326,-0.0779724,-9.83603,0.772682,-4.85092,1.56242
2023-03-14 22:43:21:793,-0.876971,-0.0521223,-9.8617,0.7739,-4.85598,1.56629
2023-03-14 22:43:21:803,-0.847559,-0.0893898,-9.83098,0.784054,-4.8578,1.56357
2023-03-14 22:43:21:813,-0.802002,-0.120924,-9.75412,0.803991,-4.86132,1.5662
2023-03-14 22:43:21:823,-0.791483,-0.152467,-9.71779,0.821194,-4.86322,1.56857
2023-03-14 22:43:21:833,-0.796713,-0.165208,-9.71702,0.837039,-4.86556,1.57179
2023-03-14 22:43:21:843,-0.806434,-0.157054,-9.70933,0.855198,-4.86919,1.57723
2023-03-14 22:43:21:854,-0.799914,-0.179391,-9.69517,0.867182,-4.87669,1.58109
2023-03-14 22:43:21:864,-0.782285,-0.200335,-9.67772,0.877054,-4.88358,1.58929
2023-03-14 22:43:21:874,-0.766421,-0.215545,-9.67618,0.888325,-4.88336,1.59982
2023-03-14 22:43:21:883,-0.77444,-0.220781,-9.69977,0.895713,-4.88673,1.61454
2023-03-14 22:43:21:894,-0.797894,-0.209881,-9.71938,0.898717,-4.89201,1.63034
2023-03-14 22:43:21:904,-0.823104,-0.192983,-9.70995,0.902992,-4.89428,1.65104
2023-03-14 22:43:21:914,-0.829572,-0.186886,-9.69863,0.903384,-4.90143,1.67176
2023-03-14 22:43:21:924,-0.840887,-0.17694,-9.69727,0.902623,-4.90691,1.69276
2023-03-14 22:43:21:933,-0.864089,-0.166194,-9.71615,0.897774,-4.91349,1.71599
2023-03-14 22:43:21:944,-0.870438,-0.138119,-9.72394,0.892182,-4.91637,1.73849
2023-03-14 22:43:21:953,-0.874473,-0.144265,-9.73051,0.882216,-4.92167,1.76033
2023-03-14 22:43:21:963,-0.872216,-0.134409,-9.72151,0.87512,-4.92429,1.77797
2023-03-14 22:43:21:974,-0.88224,-0.14101,-9.72404,0.866818,-4.92731,1.79651
2023-03-14 22:43:21:984,-0.900115,-0.134182,-9.74207,0.858451,-4.93346,1.8125
2023-03-14 22:43:21:993,-0.91929,-0.110677,-9.77023,0.848449,-4.93864,1.82902
2023-03-14 22:43:22:4,-0.915803,-0.0945261,-9.78609,0.837364,-4.94194,1.84075
2023-03-14 22:43:22:14,-0.903089,-0.11101,-9.76683,0.831874,-4.93946,1.84927
2023-03-14 22:43:22:24,-0.895383,-0.127148,-9.76039,0.827146,-4.93782,1.85261
2023-03-14 22:43:22:33,-0.887122,-0.124498,-9.74985,0.821544,-4.93909,1.85779
2023-03-14 22:43:22:44,-0.877379,-0.126506,-9.75059,0.81934,-4.93748,1.85747
2023-03-14 22:43:22:54,-0.873296,-0.112316,-9.75103,0.816839,-4.93855,1.85396
2023-03-14 22:43:22:64,-0.855127,-0.106188,-9.74743,0.819104,-4.94038,1.84783
2023-03-14 22:43:22:74,-0.845172,-0.101761,-9.74593,0.819939,-4.94296,1.84075
2023-03-14 22:43:22:83,-0.832451,-0.119263,-9.77025,0.817857,-4.945,1.83265
2023-03-14 22:43:22:93,-0.835605,-0.113489,-9.78031,0.817958,-4.94473,1.82497
2023-03-14 22:43:22:103,-0.82813,-0.10478,-9.78433,0.814025,-4.943,1.819
2023-03-14 22:43:22:113,-0.806206,-0.109074,-9.77114,0.813168,-4.94185,1.81375
2023-03-14 22:43:22:123,-0.784818,-0.124718,-9.76349,0.814922,-4.94063,1.81262
2023-03-14 22:43:22:133,-0.787756,-0.138309,-9.75796,0.817507,-4.93835,1.81085
2023-03-14 22:43:22:143,-0.790396,-0.151527,-9.75656,0.820093,-4.93451,1.80859
2023-03-14 22:43:22:153,-0.776648,-0.171687,-9.74192,0.819268,-4.93167,1.81176
2023-03-14 22:43:22:163,-0.783804,-0.170391,-9.73982,0.819763,-4.93031,1.81631
2023-03-14 22:43:22:173,-0.790768,-0.153515,-9.76516,0.817179,-4.93253,1.8239
2023-03-14 22:43:22:183,-0.787065,-0.155122,-9.75512,0.820964,-4.93204,1.83089
2023-03-14 22:43:22:193,-0.803911,-0.174433,-9.72198,0.823171,-4.93053,1.84175
2023-03-14 22:43:22:203,-0.823108,-0.174018,-9.71878,0.822005,-4.92658,1.85479
2023-03-14 22:43:22:213,-0.823896,-0.151495,-9.74023,0.818238,-4.92608,1.87207
2023-03-14 22:43:22:224,-0.824998,-0.136311,-9.74654,0.815502,-4.92257,1.88691
2023-03-14 22:43:22:233,-0.834955,-0.145411,-9.74071,0.813129,-4.92336,1.89954
2023-03-14 22:43:22:244,-0.845187,-0.14076,-9.75037,0.808052,-4.92275,1.90946
2023-03-14 22:43:22:253,-0.866338,-0.139641,-9.75989,0.804043,-4.92148,1.92064
2023-03-14 22:43:22:264,-0.861021,-0.150106,-9.74552,0.801693,-4.92224,1.92855
2023-03-14 22:43:22:273,-0.857673,-0.144737,-9.74576,0.799465,-4.91965,1.93608
2023-03-14 22:43:22:283,-0.854075,-0.15283,-9.75557,0.802445,-4.91394,1.94056
2023-03-14 22:43:22:293,-0.845392,-0.152336,-9.75477,0.799588,-4.91409,1.94667
2023-03-14 22:43:22:304,-0.840563,-0.139984,-9.74385,0.79519,-4.91376,1.95429
2023-03-14 22:43:22:314,-0.824706,-0.149718,-9.72838,0.792519,-4.91266,1.95859
2023-03-14 22:43:22:324,-0.827322,-0.175095,-9.73391,0.790163,-4.90966,1.96459
2023-03-14 22:43:22:333,-0.803461,-0.166172,-9.76285,0.786458,-4.91035,1.97081
2023-03-14 22:43:22:344,-0.764659,-0.146289,-9.79614,0.782728,-4.91256,1.97704
2023-03-14 22:43:22:354,-0.735198,-0.147297,-9.78305,0.781552,-4.91433,1.98568
2023-03-14 22:43:22:364,-0.744875,-0.171997,-9.75223,0.783996,-4.91352,1.99254
2023-03-14 22:43:22:374,-0.79745,-0.175625,-9.7416,0.787115,-4.92082,2.00356
2023-03-14 22:43:22:384,-0.813849,-0.156334,-9.73414,0.78341,-4.93052,2.01723
2023-03-14 22:43:22:393,-0.831916,-0.128162,-9.73961,0.779172,-4.94115,2.03331
2023-03-14 22:43:22:404,-0.871663,-0.10489,-9.75482,0.770315,-4.95251,2.05194
2023-03-14 22:43:22:413,-0.908112,-0.0691951,-9.77109,0.763069,-4.96365,2.06687
2023-03-14 22:43:22:423,-0.899507,-0.0645901,-9.77745,0.759125,-4.96691,2.0817
2023-03-14 22:43:22:434,-0.880916,-0.105534,-9.74466,0.759912,-4.96596,2.09151
2023-03-14 22:43:22:443,-0.904779,-0.118498,-9.71959,0.758765,-4.96417,2.10651
2023-03-14 22:43:22:453,-0.93542,-0.122873,-9.71307,0.762176,-4.96397,2.1194
2023-03-14 22:43:22:464,-0.929331,-0.146991,-9.68088,0.764431,-4.96233,2.12832
2023-03-14 22:43:22:474,-0.919123,-0.15571,-9.68939,0.764736,-4.96116,2.13444
2023-03-14 22:43:22:483,-0.954036,-0.135586,-9.71777,0.758184,-4.96299,2.13972
2023-03-14 22:43:22:494,-0.972441,-0.116057,-9.73164,0.753526,-4.96601,2.14284
2023-03-14 22:43:22:503,-0.961555,-0.120392,-9.75339,0.747711,-4.96365,2.14714
2023-03-14 22:43:22:513,-0.94186,-0.124912,-9.74863,0.742622,-4.95814,2.14611
2023-03-14 22:43:22:524,-0.902684,-0.122945,-9.7346,0.738774,-4.94603,2.1384
2023-03-14 22:43:22:534,-0.875977,-0.12454,-9.7352,0.734858,-4.93447,2.13329
2023-03-14 22:43:22:544,-0.880082,-0.125515,-9.74691,0.728483,-4.9223,2.12621
2023-03-14 22:43:22:554,-0.857294,-0.11201,-9.75371,0.718303,-4.90953,2.11911
2023-03-14 22:43:22:564,-0.830097,-0.0883439,-9.74307,0.710335,-4.89516,2.112
2023-03-14 22:43:22:573,-0.806275,-0.0881561,-9.74081,0.700503,-4.88371,2.10589
2023-03-14 22:43:22:584,-0.826984,-0.0832052,-9.74208,0.692307,-4.87296,2.09837
2023-03-14 22:43:22:594,-0.857375,-0.0785332,-9.74787,0.68207,-4.86071,2.087
2023-03-14 22:43:22:603,-0.839114,-0.0784392,-9.7574,0.671438,-4.85095,2.07589
2023-03-14 22:43:22:613,-0.762042,-0.0732212,-9.77162,0.667132,-4.83616,2.0621
2023-03-14 22:43:22:623,-0.703663,-0.0930609,-9.77951,0.662306,-4.82033,2.05171
2023-03-14 22:43:22:634,-0.703849,-0.102351,-9.75747,0.664789,-4.80987,2.0467
2023-03-14 22:43:22:644,-0.743437,-0.108434,-9.74372,0.664015,-4.80328,2.04105
