Timestamp,Acceleration_x,Acceleration_y,Acceleration_z,roll,pitch,yaw
2023-03-14 18:14:04:534,-0.986371,2.43697,-9.47846,-13.7819,-5.42367,62.1136
2023-03-14 18:14:04:542,-0.956968,2.44225,-9.53349,-13.7999,-5.40514,62.0986
2023-03-14 18:14:04:552,-0.877755,2.44406,-9.53246,-13.8096,-5.38687,62.082
2023-03-14 18:14:04:562,-0.819403,2.42501,-9.53167,-13.8142,-5.37234,62.0659
2023-03-14 18:14:04:572,-0.820337,2.41262,-9.50507,-13.8199,-5.36004,62.0495
2023-03-14 18:14:04:582,-0.835431,2.42862,-9.5088,-13.8229,-5.34836,62.0347
2023-03-14 18:14:04:592,-0.847397,2.41921,-9.49183,-13.8244,-5.34116,62.0229
2023-03-14 18:14:04:602,-0.853049,2.39821,-9.49126,-13.8268,-5.3366,62.0109
2023-03-14 18:14:04:612,-0.829581,2.40191,-9.49063,-13.8273,-5.33196,61.9979
2023-03-14 18:14:04:622,-0.831778,2.39656,-9.48758,-13.8287,-5.33244,61.9903
2023-03-14 18:14:04:632,-0.83166,2.38611,-9.50229,-13.8299,-5.33341,61.9845
2023-03-14 18:14:04:642,-0.858337,2.39015,-9.49555,-13.8293,-5.33503,61.981
2023-03-14 18:14:04:652,-0.853581,2.38066,-9.47973,-13.8266,-5.33743,61.9786
2023-03-14 18:14:04:662,-0.843881,2.37208,-9.47005,-13.8237,-5.33872,61.9746
2023-03-14 18:14:04:672,-0.855728,2.3527,-9.46731,-13.8191,-5.34066,61.9733
2023-03-14 18:14:04:682,-0.878945,2.36554,-9.45293,-13.8158,-5.34429,61.9718
2023-03-14 18:14:04:692,-0.901802,2.376,-9.4572,-13.8141,-5.35003,61.9715
2023-03-14 18:14:04:702,-0.922033,2.37481,-9.45366,-13.8124,-5.35901,61.9691
2023-03-14 18:14:04:712,-0.968831,2.36545,-9.44931,-13.8091,-5.36696,61.9677
2023-03-14 18:14:04:722,-1.01294,2.38604,-9.45861,-13.8076,-5.37343,61.9638
2023-03-14 18:14:04:732,-1.01122,2.38074,-9.49131,-13.8011,-5.37936,61.9602
2023-03-14 18:14:04:742,-0.979877,2.36362,-9.49836,-13.7953,-5.38807,61.9512
2023-03-14 18:14:04:752,-0.952188,2.35834,-9.48889,-13.7882,-5.39184,61.9423
2023-03-14 18:14:04:762,-0.929415,2.35176,-9.45948,-13.783,-5.39867,61.9277
2023-03-14 18:14:04:772,-0.940073,2.3372,-9.44468,-13.7801,-5.40713,61.9121
2023-03-14 18:14:04:782,-0.936562,2.32064,-9.42987,-13.7765,-5.41692,61.8995
2023-03-14 18:14:04:792,-0.905192,2.30639,-9.42988,-13.7762,-5.42435,61.8834
2023-03-14 18:14:04:802,-0.916834,2.32826,-9.42053,-13.7767,-5.43222,61.8685
2023-03-14 18:14:04:812,-0.91525,2.32122,-9.41873,-13.7803,-5.43868,61.8557
2023-03-14 18:14:04:822,-0.890489,2.31976,-9.421,-13.7836,-5.44625,61.8436
2023-03-14 18:14:04:832,-0.879177,2.30595,-9.41448,-13.7865,-5.45316,61.8306
2023-03-14 18:14:04:842,-0.887081,2.31222,-9.42279,-13.7926,-5.45765,61.8251
2023-03-14 18:14:04:852,-0.923015,2.33978,-9.46325,-13.8037,-5.46224,61.8222
2023-03-14 18:14:04:862,-0.954102,2.35552,-9.50041,-13.8099,-5.46283,61.8197
2023-03-14 18:14:04:872,-0.955193,2.35741,-9.49335,-13.8159,-5.46268,61.818
2023-03-14 18:14:04:882,-0.949758,2.35287,-9.47966,-13.8226,-5.45847,61.817
2023-03-14 18:14:04:892,-0.941163,2.35214,-9.47138,-13.8272,-5.45495,61.8161
2023-03-14 18:14:04:902,-0.946945,2.33908,-9.47029,-13.8343,-5.45302,61.8143
2023-03-14 18:14:04:912,-0.939748,2.32687,-9.45285,-13.8402,-5.44877,61.8124
2023-03-14 18:14:04:922,-0.922428,2.30926,-9.43996,-13.8438,-5.44138,61.8091
2023-03-14 18:14:04:932,-0.930028,2.29541,-9.44703,-13.8512,-5.43198,61.8073
2023-03-14 18:14:04:942,-0.951719,2.31359,-9.43854,-13.861,-5.42107,61.8039
2023-03-14 18:14:04:952,-0.959523,2.32849,-9.44908,-13.8712,-5.41216,61.7968
2023-03-14 18:14:04:962,-0.937782,2.33216,-9.44235,-13.8819,-5.40665,61.7875
2023-03-14 18:14:04:972,-0.916248,2.3482,-9.46367,-13.8957,-5.3973,61.7788
2023-03-14 18:14:04:982,-0.916261,2.36132,-9.48776,-13.9104,-5.39153,61.7663
2023-03-14 18:14:04:992,-0.907155,2.37862,-9.48048,-13.9205,-5.38806,61.7544
2023-03-14 18:14:05:2,-0.888542,2.38697,-9.48006,-13.9319,-5.38555,61.7416
2023-03-14 18:14:05:12,-0.875941,2.3755,-9.48208,-13.9374,-5.38266,61.7312
2023-03-14 18:14:05:22,-0.877429,2.36569,-9.46327,-13.9482,-5.38152,61.7211
2023-03-14 18:14:05:32,-0.883752,2.35846,-9.46544,-13.9534,-5.38181,61.7122
2023-03-14 18:14:05:42,-0.89661,2.36823,-9.45619,-13.9602,-5.38121,61.7053
2023-03-14 18:14:05:52,-0.89584,2.34553,-9.44626,-13.9693,-5.38104,61.7005
2023-03-14 18:14:05:62,-0.888822,2.3333,-9.43272,-13.9792,-5.37994,61.6956
2023-03-14 18:14:05:71,-0.882781,2.343,-9.43356,-13.9924,-5.3782,61.6946
2023-03-14 18:14:05:81,-0.875309,2.34742,-9.45314,-14.0059,-5.38099,61.6927
2023-03-14 18:14:05:91,-0.87893,2.36725,-9.47,-14.0224,-5.37985,61.6936
2023-03-14 18:14:05:101,-0.905286,2.41889,-9.47664,-14.0397,-5.38019,61.697
2023-03-14 18:14:05:111,-0.930902,2.42279,-9.45788,-14.0524,-5.3773,61.6981
2023-03-14 18:14:05:121,-0.957199,2.41216,-9.42209,-14.0704,-5.37796,61.7044
2023-03-14 18:14:05:131,-0.954907,2.406,-9.37826,-14.0885,-5.37688,61.7117
2023-03-14 18:14:05:141,-0.954248,2.3845,-9.35041,-14.1088,-5.3725,61.721
2023-03-14 18:14:05:151,-0.959968,2.37828,-9.32467,-14.1323,-5.36883,61.7282
2023-03-14 18:14:05:161,-0.927216,2.41001,-9.34903,-14.165,-5.35937,61.738
2023-03-14 18:14:05:171,-0.891906,2.49332,-9.44217,-14.1957,-5.35094,61.7505
2023-03-14 18:14:05:181,-0.882957,2.55073,-9.48906,-14.2232,-5.34491,61.7632
2023-03-14 18:14:05:191,-0.904832,2.55547,-9.49662,-14.2492,-5.33615,61.7794
2023-03-14 18:14:05:201,-0.912932,2.54959,-9.48798,-14.2695,-5.32326,61.7963
2023-03-14 18:14:05:211,-0.952918,2.54932,-9.50055,-14.2914,-5.31299,61.8176
2023-03-14 18:14:05:221,-0.970029,2.53611,-9.50849,-14.3086,-5.30547,61.8364
2023-03-14 18:14:05:231,-0.961873,2.51113,-9.50358,-14.3244,-5.30225,61.8495
2023-03-14 18:14:05:241,-0.929301,2.49815,-9.50443,-14.3429,-5.30005,61.8627
2023-03-14 18:14:05:251,-0.914203,2.50276,-9.45948,-14.3659,-5.30465,61.8708
2023-03-14 18:14:05:261,-0.952121,2.53666,-9.47971,-14.3914,-5.30868,61.878
2023-03-14 18:14:05:271,-0.977892,2.57717,-9.52672,-14.4081,-5.31531,61.8809
2023-03-14 18:14:05:281,-0.942372,2.5379,-9.4756,-14.4213,-5.32024,61.8846
2023-03-14 18:14:05:291,-0.892039,2.48751,-9.41119,-14.4324,-5.3263,61.8856
2023-03-14 18:14:05:301,-0.879066,2.4536,-9.37009,-14.4514,-5.335,61.8843
2023-03-14 18:14:05:312,-0.878137,2.43107,-9.33972,-14.4795,-5.34236,61.8907
2023-03-14 18:14:05:322,-0.871037,2.4173,-9.3484,-14.5144,-5.3495,61.8987
2023-03-14 18:14:05:332,-0.862027,2.41697,-9.35897,-14.5571,-5.35455,61.9087
2023-03-14 18:14:05:342,-0.85324,2.46271,-9.43793,-14.6108,-5.35613,61.92
2023-03-14 18:14:05:352,-0.846815,2.54911,-9.58596,-14.656,-5.34481,61.9307
2023-03-14 18:14:05:362,-0.815011,2.57494,-9.67903,-14.6818,-5.32161,61.9424
2023-03-14 18:14:05:372,-0.746982,2.46719,-9.63058,-14.6865,-5.2943,61.9538
2023-03-14 18:14:05:382,-0.697437,2.35266,-9.46342,-14.6807,-5.26814,61.9642
2023-03-14 18:14:05:392,-0.689255,2.25938,-9.30488,-14.6773,-5.24249,61.9783
2023-03-14 18:14:05:402,-0.683415,2.19139,-9.2025,-14.6869,-5.22341,61.9915
2023-03-14 18:14:05:412,-0.690572,2.19028,-9.14861,-14.7152,-5.20767,62.0099
2023-03-14 18:14:05:422,-0.694892,2.21981,-9.18572,-14.7577,-5.18933,62.0298
2023-03-14 18:14:05:432,-0.66187,2.31469,-9.30722,-14.8179,-5.1644,62.0463
2023-03-14 18:14:05:442,-0.527434,2.41018,-9.42791,-14.8751,-5.13517,62.0644
2023-03-14 18:14:05:452,-0.381715,2.32656,-9.4463,-14.9183,-5.10252,62.0889
2023-03-14 18:14:05:462,-0.336789,2.22334,-9.33012,-14.9603,-5.07285,62.1276
2023-03-14 18:14:05:472,-0.326756,2.15887,-9.15679,-15.0099,-5.04624,62.1853
2023-03-14 18:14:05:482,-0.333429,2.11464,-8.99777,-15.0753,-5.02599,62.2588
2023-03-14 18:14:05:492,-0.345186,2.11491,-8.90042,-15.1672,-5.01079,62.3512
2023-03-14 18:14:05:502,-0.382652,2.10745,-8.79514,-15.2926,-5.00467,62.4608
2023-03-14 18:14:05:512,-0.45262,2.1444,-8.72992,-15.4536,-5.00788,62.5893
2023-03-14 18:14:05:522,-0.529438,2.23692,-8.75214,-15.6492,-5.01481,62.7349
2023-03-14 18:14:05:532,-0.565469,2.3156,-8.83813,-15.8697,-5.02486,62.8903
2023-03-14 18:14:05:542,-0.529529,2.36468,-8.96308,-16.1152,-5.04063,63.0587
2023-03-14 18:14:05:552,-0.528056,2.43598,-9.04096,-16.3739,-5.07581,63.2424
2023-03-14 18:14:05:562,-0.651206,2.57552,-9.11171,-16.6451,-5.11972,63.4442
2023-03-14 18:14:05:572,-0.86568,2.76288,-9.23385,-16.9302,-5.17651,63.6605
2023-03-14 18:14:05:582,-1.16639,3.0352,-9.3427,-17.2313,-5.25146,63.8819
2023-03-14 18:14:05:592,-1.5503,3.37013,-9.46893,-17.5304,-5.33899,64.0944
2023-03-14 18:14:05:602,-1.86609,3.64974,-9.5766,-17.8047,-5.41889,64.2865
2023-03-14 18:14:05:612,-1.99738,3.78436,-9.62971,-18.0417,-5.47762,64.4411
2023-03-14 18:14:05:622,-1.89106,3.70651,-9.55374,-18.2407,-5.53468,64.5535
2023-03-14 18:14:05:632,-1.69995,3.61208,-9.51273,-18.412,-5.5665,64.6362
2023-03-14 18:14:05:642,-1.57073,3.53961,-9.48766,-18.5577,-5.58914,64.6939
2023-03-14 18:14:05:652,-1.54252,3.50105,-9.46934,-18.691,-5.6103,64.7335
2023-03-14 18:14:05:662,-1.504,3.65411,-9.60328,-18.8116,-5.62164,64.7595
2023-03-14 18:14:05:672,-1.40042,3.63542,-9.62042,-18.9065,-5.62776,64.7686
2023-03-14 18:14:05:682,-1.30349,3.51282,-9.53593,-18.9806,-5.63196,64.7649
2023-03-14 18:14:05:692,-1.15685,3.42829,-9.5268,-19.0413,-5.6327,64.7509
2023-03-14 18:14:05:702,-1.02038,3.36305,-9.59567,-19.0898,-5.62747,64.736
2023-03-14 18:14:05:712,-0.890667,3.24113,-9.55858,-19.1206,-5.6225,64.719
2023-03-14 18:14:05:722,-0.807522,3.10271,-9.39377,-19.1411,-5.61405,64.7062
2023-03-14 18:14:05:732,-0.795159,2.98621,-9.20025,-19.1665,-5.60638,64.7038
2023-03-14 18:14:05:742,-0.807892,2.95273,-9.12204,-19.2074,-5.59986,64.7101
2023-03-14 18:14:05:752,-0.849951,3.00216,-9.1565,-19.2627,-5.59301,64.7269
2023-03-14 18:14:05:762,-0.895056,3.08014,-9.20804,-19.3234,-5.58628,64.7465
2023-03-14 18:14:05:772,-0.890784,3.10223,-9.23254,-19.3891,-5.57857,64.7642
2023-03-14 18:14:05:782,-0.850514,3.1011,-9.22622,-19.4554,-5.56915,64.7853
2023-03-14 18:14:05:792,-0.834022,3.11881,-9.16642,-19.5222,-5.55848,64.8107
2023-03-14 18:14:05:802,-0.868725,3.13024,-9.09633,-19.5974,-5.54785,64.8379
2023-03-14 18:14:05:812,-0.877895,3.14462,-9.04031,-19.6797,-5.5381,64.8661
2023-03-14 18:14:05:822,-0.872943,3.15292,-9.00437,-19.7675,-5.53203,64.8983
2023-03-14 18:14:05:832,-0.909164,3.22168,-9.00523,-19.8685,-5.52238,64.9339
2023-03-14 18:14:05:842,-1.01301,3.3088,-9.07591,-19.9721,-5.51146,64.9681
2023-03-14 18:14:05:852,-1.09355,3.40159,-9.22097,-20.0685,-5.50197,64.9937
2023-03-14 18:14:05:862,-1.0866,3.5054,-9.35758,-20.1574,-5.49235,65.0077
2023-03-14 18:14:05:872,-1.0282,3.54978,-9.39586,-20.2288,-5.48639,65.0146
2023-03-14 18:14:05:882,-0.997359,3.54139,-9.35361,-20.2841,-5.48202,65.0131
2023-03-14 18:14:05:892,-0.988749,3.54886,-9.25919,-20.3321,-5.48889,65.0058
2023-03-14 18:14:05:902,-0.995715,3.60101,-9.21101,-20.3797,-5.50299,64.9967
2023-03-14 18:14:05:912,-1.0457,3.66882,-9.18006,-20.4218,-5.5208,64.9808
2023-03-14 18:14:05:922,-1.06016,3.6786,-9.14702,-20.4585,-5.53871,64.9587
2023-03-14 18:14:05:932,-0.995654,3.63606,-9.09578,-20.487,-5.55023,64.9265
2023-03-14 18:14:05:942,-0.913388,3.58808,-9.06385,-20.5157,-5.56092,64.8913
2023-03-14 18:14:05:952,-0.826114,3.54587,-9.05376,-20.5425,-5.56466,64.8614
2023-03-14 18:14:05:962,-0.809629,3.51279,-9.04971,-20.5733,-5.56899,64.8343
2023-03-14 18:14:05:972,-0.793166,3.52946,-9.08339,-20.608,-5.57353,64.8149
2023-03-14 18:14:05:982,-0.784821,3.52952,-9.08527,-20.6466,-5.57995,64.7998
2023-03-14 18:14:05:992,-0.826467,3.5217,-9.07879,-20.689,-5.58306,64.7886
2023-03-14 18:14:06:2,-0.847641,3.52796,-9.08713,-20.7311,-5.58641,64.7832
2023-03-14 18:14:06:12,-0.837364,3.55784,-9.16399,-20.7767,-5.58901,64.7859
2023-03-14 18:14:06:22,-0.843284,3.63842,-9.2446,-20.8202,-5.58719,64.7921
2023-03-14 18:14:06:32,-0.860419,3.66083,-9.26936,-20.8466,-5.58321,64.797
2023-03-14 18:14:06:42,-0.857144,3.60267,-9.21286,-20.8617,-5.57253,64.8035
2023-03-14 18:14:06:52,-0.833287,3.50629,-9.11191,-20.8736,-5.56215,64.8168
2023-03-14 18:14:06:62,-0.829185,3.45188,-9.01519,-20.8897,-5.54638,64.8295
2023-03-14 18:14:06:72,-0.878954,3.44302,-8.9773,-20.9124,-5.53183,64.8484
2023-03-14 18:14:06:82,-0.915476,3.50257,-9.0591,-20.9402,-5.51875,64.869
2023-03-14 18:14:06:92,-0.93583,3.58978,-9.20549,-20.9738,-5.50403,64.888
2023-03-14 18:14:06:102,-0.968137,3.66234,-9.33755,-20.9971,-5.50107,64.9025
2023-03-14 18:14:06:112,-0.986064,3.70362,-9.3784,-21.0044,-5.50106,64.9164
2023-03-14 18:14:06:122,-0.985655,3.6855,-9.33806,-20.9983,-5.50989,64.9242
2023-03-14 18:14:06:132,-0.991283,3.64317,-9.27522,-20.9814,-5.52033,64.925
2023-03-14 18:14:06:142,-1.01474,3.65023,-9.22087,-20.9583,-5.5357,64.9219
2023-03-14 18:14:06:152,-1.04706,3.68935,-9.21919,-20.9376,-5.56009,64.9126
2023-03-14 18:14:06:162,-1.09764,3.7329,-9.23593,-20.9115,-5.59035,64.9014
2023-03-14 18:14:06:172,-1.11524,3.75862,-9.26752,-20.875,-5.61644,64.878
2023-03-14 18:14:06:182,-1.05964,3.76528,-9.28031,-20.8332,-5.64373,64.8462
2023-03-14 18:14:06:192,-0.9905,3.73205,-9.28955,-20.7775,-5.67149,64.812
2023-03-14 18:14:06:202,-0.951851,3.71718,-9.29612,-20.7102,-5.69211,64.7766
2023-03-14 18:14:06:212,-0.959009,3.71071,-9.3241,-20.6308,-5.71365,64.7447
2023-03-14 18:14:06:222,-0.952122,3.70906,-9.3515,-20.54,-5.73516,64.7145
2023-03-14 18:14:06:232,-0.94144,3.68622,-9.35118,-20.4348,-5.75203,64.6838
2023-03-14 18:14:06:242,-0.965893,3.6108,-9.3055,-20.3178,-5.76339,64.661
2023-03-14 18:14:06:252,-1.00445,3.55028,-9.198,-20.1921,-5.77673,64.641
2023-03-14 18:14:06:262,-1.06687,3.47551,-9.11947,-20.068,-5.78738,64.6248
2023-03-14 18:14:06:272,-1.06666,3.40957,-9.10348,-19.9411,-5.79297,64.6058
2023-03-14 18:14:06:282,-1.03562,3.3898,-9.14339,-19.819,-5.79887,64.5814
2023-03-14 18:14:06:292,-1.01912,3.36761,-9.18297,-19.698,-5.80267,64.5609
2023-03-14 18:14:06:302,-1.02646,3.32386,-9.20053,-19.5716,-5.80296,64.5351
2023-03-14 18:14:06:312,-1.01514,3.26552,-9.18737,-19.4463,-5.79808,64.5114
2023-03-14 18:14:06:322,-0.972392,3.2093,-9.14135,-19.3149,-5.79505,64.483
2023-03-14 18:14:06:332,-0.916986,3.14139,-9.12374,-19.1877,-5.79167,64.4558
2023-03-14 18:14:06:342,-0.920914,3.12252,-9.13813,-19.0709,-5.78602,64.4316
2023-03-14 18:14:06:352,-0.946404,3.1463,-9.1392,-18.9595,-5.78047,64.4123
2023-03-14 18:14:06:362,-0.960088,3.13524,-9.13949,-18.8503,-5.77546,64.3949
2023-03-14 18:14:06:372,-0.974553,3.09613,-9.12608,-18.7451,-5.77032,64.3827
2023-03-14 18:14:06:382,-0.986373,3.07111,-9.13605,-18.6413,-5.76343,64.3697
2023-03-14 18:14:06:392,-0.997248,3.08398,-9.15053,-18.5419,-5.75512,64.3554
2023-03-14 18:14:06:402,-0.973981,3.07409,-9.16582,-18.4437,-5.74383,64.3418
2023-03-14 18:14:06:412,-0.925216,3.04535,-9.16456,-18.3428,-5.73441,64.3247
2023-03-14 18:14:06:422,-0.898623,3.02692,-9.18463,-18.2488,-5.7215,64.313
2023-03-14 18:14:06:432,-0.921595,3.01161,-9.18276,-18.1555,-5.71078,64.3045
2023-03-14 18:14:06:442,-0.967288,2.99853,-9.16186,-18.0672,-5.70026,64.296
2023-03-14 18:14:06:452,-0.970933,2.98519,-9.16638,-17.9798,-5.6934,64.2893
2023-03-14 18:14:06:462,-0.957969,2.94744,-9.17476,-17.8982,-5.6844,64.2859
2023-03-14 18:14:06:472,-0.939509,2.93353,-9.21278,-17.8257,-5.67442,64.2807
2023-03-14 18:14:06:482,-0.929759,2.95579,-9.26899,-17.7528,-5.66054,64.281
2023-03-14 18:14:06:492,-0.92098,2.95063,-9.30363,-17.6819,-5.64861,64.2833
2023-03-14 18:14:06:502,-0.914237,2.96039,-9.29734,-17.6104,-5.63572,64.2905
2023-03-14 18:14:06:512,-0.908956,2.94125,-9.26305,-17.5347,-5.62005,64.2984
2023-03-14 18:14:06:522,-0.891515,2.89076,-9.23076,-17.4671,-5.60248,64.3092
2023-03-14 18:14:06:532,-0.909305,2.85832,-9.20517,-17.4028,-5.58916,64.3228
2023-03-14 18:14:06:542,-0.92474,2.85367,-9.21903,-17.3446,-5.57356,64.3426
2023-03-14 18:14:06:552,-0.903617,2.87663,-9.26986,-17.2917,-5.55763,64.363
2023-03-14 18:14:06:562,-0.88749,2.90134,-9.31949,-17.2341,-5.54486,64.3864
2023-03-14 18:14:06:572,-0.861988,2.9052,-9.37042,-17.1733,-5.53268,64.4109
2023-03-14 18:14:06:582,-0.858666,2.90522,-9.38905,-17.1112,-5.52294,64.4401
2023-03-14 18:14:06:592,-0.862654,2.87946,-9.37256,-17.0465,-5.51475,64.4742
2023-03-14 18:14:06:602,-0.876093,2.84066,-9.31931,-16.981,-5.51007,64.5079
2023-03-14 18:14:06:612,-0.898421,2.82238,-9.27574,-16.9216,-5.50737,64.552
2023-03-14 18:14:06:622,-0.932499,2.81242,-9.24531,-16.8632,-5.50344,64.5895
2023-03-14 18:14:06:632,-0.989597,2.82433,-9.2778,-16.8081,-5.49229,64.6292
2023-03-14 18:14:06:642,-0.983758,2.83308,-9.31848,-16.7535,-5.48432,64.6654
2023-03-14 18:14:06:652,-0.943423,2.81409,-9.33001,-16.7021,-5.47214,64.7036
2023-03-14 18:14:06:662,-0.915472,2.80179,-9.35637,-16.6476,-5.45734,64.7431
2023-03-14 18:14:06:672,-0.932004,2.80787,-9.3783,-16.5915,-5.44595,64.7814
2023-03-14 18:14:06:682,-0.935054,2.791,-9.39206,-16.5339,-5.43558,64.8177
2023-03-14 18:14:06:692,-0.920148,2.78676,-9.37061,-16.4769,-5.42922,64.8546
2023-03-14 18:14:06:702,-0.912484,2.77841,-9.36326,-16.4188,-5.42552,64.8899
2023-03-14 18:14:06:712,-0.93116,2.76516,-9.34449,-16.3577,-5.4218,64.925
2023-03-14 18:14:06:722,-0.958057,2.74036,-9.32551,-16.2965,-5.41889,64.9576
2023-03-14 18:14:06:732,-0.942406,2.71113,-9.3226,-16.2345,-5.4121,64.9842
2023-03-14 18:14:06:742,-0.9133,2.66991,-9.3253,-16.1681,-5.40802,65.0108
2023-03-14 18:14:06:752,-0.917241,2.63418,-9.30057,-16.0992,-5.40599,65.034
2023-03-14 18:14:06:762,-0.935,2.58823,-9.24999,-16.038,-5.40848,65.0614
2023-03-14 18:14:06:772,-0.976084,2.54574,-9.19627,-15.9841,-5.41665,65.0891
2023-03-14 18:14:06:782,-0.972018,2.50706,-9.20172,-15.9418,-5.42599,65.1111
2023-03-14 18:14:06:792,-0.982903,2.51024,-9.22451,-15.9068,-5.43564,65.1339
2023-03-14 18:14:06:802,-0.98994,2.49948,-9.20621,-15.8773,-5.44772,65.154
2023-03-14 18:14:06:812,-0.979712,2.48322,-9.1633,-15.856,-5.46192,65.1753
2023-03-14 18:14:06:822,-0.985496,2.47234,-9.13875,-15.8479,-5.47582,65.1908
2023-03-14 18:14:06:832,-1.01275,2.47653,-9.1553,-15.8459,-5.48279,65.205
2023-03-14 18:14:06:842,-1.01543,2.45778,-9.17489,-15.8564,-5.49603,65.2171
2023-03-14 18:14:06:852,-1.03722,2.44064,-9.22278,-15.8729,-5.5103,65.2246
2023-03-14 18:14:06:862,-1.02388,2.44425,-9.27553,-15.8997,-5.52895,65.2223
2023-03-14 18:14:06:872,-0.981435,2.41222,-9.29415,-15.9344,-5.55497,65.2205
2023-03-14 18:14:06:882,-1.00391,2.37412,-9.29949,-15.9809,-5.5851,65.212
2023-03-14 18:14:06:892,-1.07695,2.44821,-9.34676,-16.0351,-5.61363,65.1988
2023-03-14 18:14:06:902,-1.15571,2.56934,-9.47754,-16.0875,-5.63465,65.1744
2023-03-14 18:14:06:912,-1.17513,2.65781,-9.59359,-16.1263,-5.64555,65.1366
2023-03-14 18:14:06:922,-1.14148,2.69703,-9.66653,-16.1435,-5.63806,65.0749
2023-03-14 18:14:06:932,-1.04458,2.64804,-9.62104,-16.1358,-5.61174,64.9898
2023-03-14 18:14:06:942,-0.922153,2.53347,-9.44295,-16.1142,-5.57041,64.8857
2023-03-14 18:14:06:952,-0.758768,2.44575,-9.23695,-16.0916,-5.52866,64.7697
2023-03-14 18:14:06:962,-0.601122,2.39989,-9.14293,-16.0856,-5.4836,64.6505
2023-03-14 18:14:06:972,-0.466529,2.51173,-9.12923,-16.0969,-5.44357,64.5288
2023-03-14 18:14:06:982,-0.376925,2.61675,-9.09376,-16.1248,-5.41171,64.4132
2023-03-14 18:14:06:992,-0.321774,2.68252,-9.04095,-16.1682,-5.38957,64.3106
2023-03-14 18:14:07:2,-0.271786,2.78882,-9.05482,-16.2324,-5.38511,64.2218
2023-03-14 18:14:07:12,-0.235877,2.90922,-9.12211,-16.3174,-5.40111,64.1563
2023-03-14 18:14:07:22,-0.263922,3.01772,-9.14751,-16.428,-5.44321,64.1161
2023-03-14 18:14:07:32,-0.359466,3.22098,-9.30296,-16.5478,-5.50327,64.1072
2023-03-14 18:14:07:42,-0.578675,3.42364,-9.49865,-16.6627,-5.57279,64.1224
2023-03-14 18:14:07:52,-0.755623,3.48618,-9.61187,-16.7596,-5.66167,64.1571
2023-03-14 18:14:07:62,-0.842255,3.48939,-9.7091,-16.8363,-5.75579,64.2137
2023-03-14 18:14:07:72,-0.989681,3.47904,-9.78501,-16.8828,-5.84757,64.2829
2023-03-14 18:14:07:82,-1.15953,3.40188,-9.73879,-16.9001,-5.93746,64.3628
2023-03-14 18:14:07:92,-1.26501,3.30092,-9.63249,-16.8938,-6.02416,64.4433
2023-03-14 18:14:07:102,-1.29259,3.18945,-9.56339,-16.8704,-6.10391,64.5238
2023-03-14 18:14:07:112,-1.3452,3.1007,-9.49787,-16.8374,-6.18614,64.6011
2023-03-14 18:14:07:122,-1.4457,3.03481,-9.4504,-16.8049,-6.27409,64.6857
2023-03-14 18:14:07:132,-1.51597,3.00358,-9.45105,-16.77,-6.36053,64.765
2023-03-14 18:14:07:142,-1.59808,2.95564,-9.43672,-16.7283,-6.44964,64.833
2023-03-14 18:14:07:152,-1.70738,2.92261,-9.37788,-16.6825,-6.52903,64.8896
2023-03-14 18:14:07:162,-1.727,2.87465,-9.30731,-16.6347,-6.59736,64.9297
2023-03-14 18:14:07:172,-1.63456,2.83703,-9.3042,-16.5807,-6.64364,64.9479
2023-03-14 18:14:07:182,-1.44011,2.76807,-9.28689,-16.5249,-6.67856,64.9494
2023-03-14 18:14:07:192,-1.26326,2.69795,-9.27231,-16.4694,-6.70498,64.9396
2023-03-14 18:14:07:202,-1.17924,2.68881,-9.36972,-16.4149,-6.72863,64.9279
2023-03-14 18:14:07:212,-1.19569,2.67898,-9.39579,-16.3589,-6.75921,64.915
2023-03-14 18:14:07:222,-1.28391,2.63803,-9.3523,-16.3017,-6.79318,64.9029
2023-03-14 18:14:07:232,-1.35258,2.65767,-9.41098,-16.2464,-6.81913,64.8787
2023-03-14 18:14:07:242,-1.33264,2.64183,-9.46954,-16.1812,-6.83325,64.8438
2023-03-14 18:14:07:252,-1.21467,2.50776,-9.35493,-16.1108,-6.84782,64.7907
2023-03-14 18:14:07:262,-1.08844,2.39223,-9.21828,-16.0461,-6.85708,64.7342
2023-03-14 18:14:07:272,-0.956845,2.37956,-9.21512,-15.9979,-6.85589,64.6766
2023-03-14 18:14:07:282,-0.862323,2.41325,-9.28168,-15.9608,-6.84466,64.6297
2023-03-14 18:14:07:292,-0.815284,2.43649,-9.28514,-15.9251,-6.83666,64.5911
2023-03-14 18:14:07:302,-0.765688,2.42795,-9.23042,-15.8978,-6.83574,64.5613
2023-03-14 18:14:07:312,-0.776895,2.43461,-9.25062,-15.8749,-6.83814,64.5465
2023-03-14 18:14:07:322,-0.886674,2.49091,-9.33481,-15.857,-6.84347,64.5427
2023-03-14 18:14:07:332,-1.00163,2.53929,-9.39465,-15.827,-6.8502,64.5429
2023-03-14 18:14:07:342,-0.99644,2.52191,-9.38341,-15.7893,-6.85375,64.5338
2023-03-14 18:14:07:352,-0.82939,2.47288,-9.34758,-15.7508,-6.85975,64.5144
2023-03-14 18:14:07:362,-0.644232,2.45112,-9.33073,-15.7175,-6.87627,64.4963
2023-03-14 18:14:07:372,-0.526251,2.47892,-9.35085,-15.6926,-6.90443,64.4846
2023-03-14 18:14:07:382,-0.433197,2.52508,-9.41032,-15.6722,-6.94882,64.4837
2023-03-14 18:14:07:392,-0.406735,2.51897,-9.3928,-15.653,-7.01428,64.5093
2023-03-14 18:14:07:402,-0.561589,2.51134,-9.27233,-15.6462,-7.10491,64.5624
2023-03-14 18:14:07:412,-0.848309,2.64284,-9.31528,-15.6468,-7.18556,64.6423
2023-03-14 18:14:07:422,-1.06027,2.78835,-9.45907,-15.6422,-7.26025,64.7369
2023-03-14 18:14:07:432,-1.19715,2.73005,-9.43195,-15.6391,-7.34148,64.8414
2023-03-14 18:14:07:442,-1.35349,2.70631,-9.36171,-15.6417,-7.43004,64.9574
2023-03-14 18:14:07:452,-1.55556,2.8123,-9.44275,-15.6502,-7.50417,65.0801
2023-03-14 18:14:07:462,-1.68694,2.93541,-9.57411,-15.6499,-7.56615,65.2036
2023-03-14 18:14:07:472,-1.74124,2.95773,-9.53527,-15.6352,-7.61778,65.3181
2023-03-14 18:14:07:482,-1.76951,2.86069,-9.38249,-15.6069,-7.65897,65.4317
2023-03-14 18:14:07:492,-1.85109,2.81241,-9.3396,-15.5768,-7.68226,65.5417
2023-03-14 18:14:07:502,-1.88208,2.86172,-9.36663,-15.5424,-7.69513,65.6399
2023-03-14 18:14:07:512,-1.8712,2.81442,-9.32699,-15.5017,-7.70375,65.7291
2023-03-14 18:14:07:522,-1.91723,2.72965,-9.20442,-15.4604,-7.70684,65.8167
2023-03-14 18:14:07:532,-1.98951,2.64949,-9.08406,-15.431,-7.70934,65.8935
2023-03-14 18:14:07:542,-2.04619,2.64613,-9.02874,-15.4243,-7.71233,65.9553
2023-03-14 18:14:07:552,-2.04976,2.69964,-9.08635,-15.4326,-7.71706,65.996
2023-03-14 18:14:07:562,-2.07343,2.78394,-9.18294,-15.4462,-7.71245,66.013
2023-03-14 18:14:07:572,-2.08572,2.90996,-9.37976,-15.4522,-7.67783,66.0053
2023-03-14 18:14:07:582,-1.92667,2.95218,-9.55773,-15.4356,-7.61994,65.9686
2023-03-14 18:14:07:592,-1.7144,2.79776,-9.49864,-15.3967,-7.55673,65.9113
2023-03-14 18:14:07:602,-1.58166,2.65047,-9.33356,-15.3577,-7.49455,65.8448
2023-03-14 18:14:07:612,-1.52667,2.66648,-9.25736,-15.3255,-7.4159,65.7668
2023-03-14 18:14:07:622,-1.38174,2.683,-9.26496,-15.2846,-7.32401,65.6752
2023-03-14 18:14:07:632,-1.1079,2.5997,-9.21765,-15.2504,-7.23717,65.5761
2023-03-14 18:14:07:642,-1.01115,2.61068,-9.15201,-15.2257,-7.15301,65.4822
2023-03-14 18:14:07:652,-1.20564,2.70305,-9.08706,-15.209,-7.06415,65.4024
2023-03-14 18:14:07:662,-1.40777,2.79421,-9.01302,-15.1924,-6.9665,65.3213
2023-03-14 18:14:07:672,-1.28966,2.71218,-9.02155,-15.1686,-6.86525,65.2214
2023-03-14 18:14:07:682,-0.969438,2.62622,-9.2086,-15.1483,-6.76562,65.1061
2023-03-14 18:14:07:692,-0.780538,2.62384,-9.41166,-15.1291,-6.67622,64.9951
2023-03-14 18:14:07:702,-0.722119,2.60368,-9.52343,-15.1011,-6.60096,64.8938
2023-03-14 18:14:07:712,-0.71492,2.52894,-9.52686,-15.0651,-6.54163,64.7988
2023-03-14 18:14:07:722,-0.755834,2.44331,-9.44299,-15.0289,-6.49498,64.7137
2023-03-14 18:14:07:732,-0.852527,2.41142,-9.35222,-15.0024,-6.46471,64.6416
2023-03-14 18:14:07:742,-0.960526,2.43795,-9.31657,-14.9839,-6.44065,64.5716
2023-03-14 18:14:07:752,-1.02823,2.43405,-9.33922,-14.9725,-6.42596,64.5011
2023-03-14 18:14:07:762,-1.0651,2.49172,-9.41687,-14.9645,-6.41511,64.4265
2023-03-14 18:14:07:772,-1.04676,2.52154,-9.50096,-14.9543,-6.39992,64.3458
2023-03-14 18:14:07:782,-0.965066,2.51348,-9.54252,-14.94,-6.38635,64.2589
2023-03-14 18:14:07:792,-0.877226,2.4799,-9.51446,-14.9121,-6.36933,64.1698
2023-03-14 18:14:07:802,-0.816023,2.42721,-9.42726,-14.8858,-6.35558,64.0844
2023-03-14 18:14:07:812,-0.773774,2.39317,-9.33193,-14.8697,-6.34765,64.0095
2023-03-14 18:14:07:822,-0.729871,2.40264,-9.271,-14.8657,-6.3477,63.9419
2023-03-14 18:14:07:832,-0.639391,2.44454,-9.31241,-14.8785,-6.35502,63.8872
2023-03-14 18:14:07:842,-0.559027,2.48909,-9.39178,-14.8981,-6.36984,63.8502
2023-03-14 18:14:07:852,-0.55494,2.52568,-9.42926,-14.9128,-6.38547,63.8333
2023-03-14 18:14:07:862,-0.598443,2.55359,-9.4257,-14.9286,-6.40146,63.8305
2023-03-14 18:14:07:872,-0.590798,2.54723,-9.40903,-14.9385,-6.41568,63.8471
2023-03-14 18:14:07:882,-0.52347,2.49677,-9.40624,-14.9397,-6.4271,63.8784
2023-03-14 18:14:07:892,-0.557757,2.46448,-9.34996,-14.9378,-6.44341,63.9323
2023-03-14 18:14:07:902,-0.740933,2.43704,-9.2696,-14.9361,-6.46677,64.0047
2023-03-14 18:14:07:912,-0.88962,2.43152,-9.24976,-14.9366,-6.48885,64.0878
2023-03-14 18:14:07:922,-0.949305,2.43502,-9.28105,-14.9431,-6.51527,64.1699
2023-03-14 18:14:07:932,-1.07161,2.43767,-9.25243,-14.9559,-6.54845,64.2511
2023-03-14 18:14:07:942,-1.24758,2.49779,-9.213,-14.9802,-6.57839,64.3262
2023-03-14 18:14:07:952,-1.29294,2.55412,-9.28569,-15.0106,-6.6009,64.3904
2023-03-14 18:14:07:962,-1.19923,2.57655,-9.40673,-15.0363,-6.62644,64.4319
2023-03-14 18:14:07:972,-1.19634,2.56797,-9.46011,-15.0544,-6.65159,64.465
2023-03-14 18:14:07:982,-1.24249,2.5782,-9.48127,-15.0727,-6.68476,64.4846
2023-03-14 18:14:07:992,-1.13405,2.56332,-9.54587,-15.0918,-6.72759,64.4864
2023-03-14 18:14:08:2,-0.975778,2.55004,-9.63413,-15.1115,-6.7858,64.4866
2023-03-14 18:14:08:12,-0.908886,2.55585,-9.64297,-15.1357,-6.86957,64.4893
2023-03-14 18:14:08:22,-0.959741,2.56253,-9.57528,-15.1593,-6.97482,64.5094
2023-03-14 18:14:08:32,-1.10569,2.59196,-9.51386,-15.1877,-7.09762,64.5468
2023-03-14 18:14:08:42,-1.27702,2.67352,-9.45858,-15.214,-7.22696,64.598
2023-03-14 18:14:08:52,-1.34153,2.69197,-9.46514,-15.2327,-7.35234,64.6586
2023-03-14 18:14:08:62,-1.4145,2.6567,-9.53214,-15.2444,-7.47513,64.7351
2023-03-14 18:14:08:72,-1.58674,2.63985,-9.57505,-15.2393,-7.58357,64.8264
2023-03-14 18:14:08:82,-1.77936,2.60455,-9.5275,-15.2186,-7.6709,64.924
2023-03-14 18:14:08:92,-1.88989,2.5135,-9.43402,-15.1865,-7.7357,65.0166
2023-03-14 18:14:08:102,-1.90958,2.46793,-9.41631,-15.1497,-7.76709,65.1032
2023-03-14 18:14:08:112,-1.91508,2.47041,-9.38558,-15.1113,-7.77746,65.1802
2023-03-14 18:14:08:122,-1.89752,2.45097,-9.31012,-15.0688,-7.77264,65.2393
2023-03-14 18:14:08:132,-1.76263,2.38974,-9.27275,-15.029,-7.7559,65.2792
2023-03-14 18:14:08:142,-1.57931,2.3629,-9.3026,-14.9972,-7.7399,65.306
2023-03-14 18:14:08:152,-1.48505,2.39761,-9.35903,-14.9767,-7.73073,65.3274
2023-03-14 18:14:08:162,-1.4685,2.43969,-9.40396,-14.9605,-7.73388,65.3412
2023-03-14 18:14:08:172,-1.45567,2.46895,-9.4049,-14.9437,-7.74056,65.3508
2023-03-14 18:14:08:182,-1.43404,2.47952,-9.40849,-14.9274,-7.74804,65.3559
2023-03-14 18:14:08:192,-1.49897,2.48681,-9.39487,-14.906,-7.74968,65.3624
2023-03-14 18:14:08:202,-1.55865,2.48728,-9.34053,-14.8836,-7.74367,65.3608
2023-03-14 18:14:08:212,-1.5167,2.49865,-9.33372,-14.8607,-7.72359,65.3474
2023-03-14 18:14:08:222,-1.37367,2.49213,-9.33575,-14.8337,-7.69595,65.3235
2023-03-14 18:14:08:232,-1.25673,2.48025,-9.32359,-14.8076,-7.66441,65.2973
2023-03-14 18:14:08:242,-1.22332,2.47769,-9.29983,-14.78,-7.63408,65.2712
2023-03-14 18:14:08:252,-1.21675,2.48566,-9.29607,-14.7564,-7.60428,65.2515
2023-03-14 18:14:08:262,-1.21814,2.49103,-9.30558,-14.7375,-7.58223,65.2376
2023-03-14 18:14:08:272,-1.26599,2.47706,-9.30493,-14.7212,-7.56308,65.2255
2023-03-14 18:14:08:282,-1.36899,2.48872,-9.34718,-14.7112,-7.54485,65.2167
2023-03-14 18:14:08:292,-1.52348,2.55972,-9.38374,-14.7016,-7.52479,65.2116
2023-03-14 18:14:08:302,-1.6152,2.61058,-9.45672,-14.6902,-7.49026,65.2029
2023-03-14 18:14:08:312,-1.59775,2.62482,-9.55445,-14.668,-7.44817,65.1834
2023-03-14 18:14:08:322,-1.57162,2.60023,-9.56369,-14.6408,-7.39984,65.1575
2023-03-14 18:14:08:332,-1.55715,2.58646,-9.52116,-14.6059,-7.33895,65.1259
2023-03-14 18:14:08:342,-1.54983,2.54953,-9.45499,-14.5677,-7.2713,65.0883
2023-03-14 18:14:08:352,-1.53371,2.51178,-9.39345,-14.5217,-7.19795,65.0484
2023-03-14 18:14:08:362,-1.50542,2.48395,-9.33339,-14.4792,-7.12393,65.0003
2023-03-14 18:14:08:372,-1.4682,2.46131,-9.29902,-14.4421,-7.04858,64.945
2023-03-14 18:14:08:382,-1.41702,2.42725,-9.25839,-14.4091,-6.97416,64.8843
2023-03-14 18:14:08:392,-1.37334,2.4159,-9.26764,-14.3797,-6.90131,64.8171
2023-03-14 18:14:08:402,-1.30214,2.4498,-9.34475,-14.3566,-6.82212,64.741
2023-03-14 18:14:08:412,-1.20879,2.45522,-9.36555,-14.3338,-6.74222,64.6635
2023-03-14 18:14:08:422,-1.10499,2.4374,-9.37353,-14.3053,-6.66214,64.5851
2023-03-14 18:14:08:432,-1.02925,2.40231,-9.38493,-14.2708,-6.57903,64.5097
2023-03-14 18:14:08:442,-0.999084,2.37524,-9.37392,-14.236,-6.49605,64.4357
2023-03-14 18:14:08:452,-0.995657,2.3306,-9.3609,-14.2018,-6.41569,64.3685
2023-03-14 18:14:08:462,-1.01661,2.32329,-9.34101,-14.1731,-6.33999,64.3029
2023-03-14 18:14:08:472,-1.04688,2.31841,-9.33767,-14.1483,-6.26422,64.2422
2023-03-14 18:14:08:482,-1.05089,2.31577,-9.32731,-14.1267,-6.19038,64.1777
2023-03-14 18:14:08:492,-1.03962,2.33765,-9.29694,-14.1083,-6.1213,64.1108
2023-03-14 18:14:08:502,-1.02538,2.34841,-9.28578,-14.102,-6.05393,64.0404
2023-03-14 18:14:08:512,-0.959334,2.35304,-9.29184,-14.1011,-5.9885,63.9617
2023-03-14 18:14:08:522,-0.826778,2.36633,-9.33266,-14.104,-5.92925,63.8814
2023-03-14 18:14:08:532,-0.769629,2.38355,-9.38917,-14.1164,-5.87817,63.8086
2023-03-14 18:14:08:542,-0.795771,2.40352,-9.46058,-14.1338,-5.83644,63.7445
2023-03-14 18:14:08:552,-0.829521,2.45383,-9.56679,-14.1551,-5.79741,63.6825
2023-03-14 18:14:08:562,-0.866276,2.53421,-9.64082,-14.1724,-5.76054,63.6182
2023-03-14 18:14:08:572,-0.894462,2.58529,-9.65718,-14.1783,-5.72272,63.5574
2023-03-14 18:14:08:582,-0.892548,2.59557,-9.65084,-14.1768,-5.68292,63.4931
2023-03-14 18:14:08:592,-0.826005,2.56441,-9.64097,-14.1602,-5.64276,63.4239
2023-03-14 18:14:08:602,-0.740639,2.46086,-9.5588,-14.139,-5.61693,63.3566
2023-03-14 18:14:08:612,-0.716665,2.38139,-9.42896,-14.1197,-5.61136,63.2898
2023-03-14 18:14:08:622,-0.759393,2.37386,-9.38327,-14.1093,-5.6153,63.2311
2023-03-14 18:14:08:632,-0.812879,2.40192,-9.37093,-14.0978,-5.6272,63.1723
2023-03-14 18:14:08:642,-0.834306,2.36929,-9.34774,-14.0862,-5.64569,63.1133
2023-03-14 18:14:08:652,-0.818299,2.30778,-9.26847,-14.0769,-5.66985,63.0507
2023-03-14 18:14:08:662,-0.793009,2.25315,-9.24395,-14.0747,-5.6956,62.9969
2023-03-14 18:14:08:672,-0.808891,2.29334,-9.29081,-14.0872,-5.7231,62.9527
2023-03-14 18:14:08:682,-0.842101,2.37395,-9.39791,-14.098,-5.74293,62.9127
2023-03-14 18:14:08:692,-0.851305,2.38552,-9.43626,-14.1026,-5.76538,62.8783
2023-03-14 18:14:08:702,-0.873312,2.33674,-9.40827,-14.1105,-5.79014,62.8479
2023-03-14 18:14:08:712,-0.948305,2.34827,-9.45746,-14.1183,-5.80718,62.8353
2023-03-14 18:14:08:722,-1.02713,2.34402,-9.4731,-14.121,-5.82618,62.8217
2023-03-14 18:14:08:732,-1.12667,2.32839,-9.40559,-14.1254,-5.8475,62.8118
2023-03-14 18:14:08:742,-1.20979,2.30696,-9.35275,-14.1249,-5.86522,62.7996
2023-03-14 18:14:08:752,-1.21364,2.32179,-9.36164,-14.1256,-5.87467,62.7801
2023-03-14 18:14:08:762,-1.20739,2.28768,-9.32704,-14.1259,-5.8794,62.7563
2023-03-14 18:14:08:772,-1.21141,2.23832,-9.271,-14.1327,-5.88046,62.7262
2023-03-14 18:14:08:782,-1.22866,2.2707,-9.2929,-14.1517,-5.87507,62.6885
2023-03-14 18:14:08:792,-1.20889,2.31229,-9.36805,-14.1744,-5.85564,62.64
2023-03-14 18:14:08:802,-1.15892,2.33015,-9.40486,-14.203,-5.82698,62.5862
2023-03-14 18:14:08:812,-1.11226,2.3676,-9.45828,-14.236,-5.78143,62.5214
2023-03-14 18:14:08:822,-1.06141,2.43255,-9.50953,-14.2734,-5.73075,62.4492
2023-03-14 18:14:08:832,-0.998016,2.47235,-9.56193,-14.3116,-5.67308,62.3678
2023-03-14 18:14:08:842,-0.93618,2.5022,-9.58172,-14.3451,-5.61388,62.2781
2023-03-14 18:14:08:852,-0.928019,2.56145,-9.58153,-14.3805,-5.55899,62.1824
2023-03-14 18:14:08:862,-0.912945,2.6428,-9.59548,-14.4102,-5.50426,62.0724
2023-03-14 18:14:08:872,-0.804642,2.64154,-9.57843,-14.4316,-5.45469,61.9525
2023-03-14 18:14:08:882,-0.666983,2.60174,-9.52894,-14.4483,-5.40252,61.8302
2023-03-14 18:14:08:892,-0.580917,2.60544,-9.50162,-14.4643,-5.34978,61.7141
2023-03-14 18:14:08:902,-0.563894,2.59592,-9.46978,-14.4793,-5.3021,61.5955
2023-03-14 18:14:08:912,-0.535497,2.57368,-9.43336,-14.4915,-5.25082,61.4843
2023-03-14 18:14:08:922,-0.532038,2.55812,-9.42479,-14.5057,-5.19665,61.3808
2023-03-14 18:14:08:932,-0.560846,2.57083,-9.44817,-14.5168,-5.13773,61.2846
2023-03-14 18:14:08:942,-0.607586,2.57836,-9.46639,-14.5258,-5.07058,61.192
2023-03-14 18:14:08:952,-0.647515,2.56808,-9.43597,-14.5291,-4.99589,61.0992
2023-03-14 18:14:08:962,-0.630352,2.54224,-9.409,-14.5309,-4.91301,61.0016
2023-03-14 18:14:08:972,-0.52078,2.48639,-9.45303,-14.5309,-4.83205,60.9017
2023-03-14 18:14:08:982,-0.332942,2.43523,-9.58921,-14.5386,-4.7616,60.8035
2023-03-14 18:14:08:992,-0.172662,2.43451,-9.71197,-14.5507,-4.71247,60.7182
2023-03-14 18:14:09:2,-0.101696,2.45778,-9.75445,-14.5701,-4.69773,60.6519
2023-03-14 18:14:09:12,-0.19909,2.48358,-9.68832,-14.5909,-4.7139,60.6132
2023-03-14 18:14:09:22,-0.434537,2.53026,-9.60016,-14.6122,-4.75152,60.5986
2023-03-14 18:14:09:32,-0.682097,2.60884,-9.51219,-14.6355,-4.7972,60.6005
2023-03-14 18:14:09:42,-0.908184,2.69134,-9.48727,-14.6435,-4.82755,60.6086
2023-03-14 18:14:09:52,-1.06433,2.69908,-9.44227,-14.6379,-4.84084,60.614
2023-03-14 18:14:09:62,-1.12674,2.66134,-9.36336,-14.6265,-4.83842,60.6143
2023-03-14 18:14:09:72,-1.08619,2.61259,-9.31558,-14.6049,-4.82028,60.6064
2023-03-14 18:14:09:82,-0.961596,2.56118,-9.32432,-14.5873,-4.79878,60.5894
2023-03-14 18:14:09:92,-0.886628,2.53982,-9.37434,-14.5697,-4.78126,60.5668
2023-03-14 18:14:09:102,-0.882141,2.54439,-9.4063,-14.5476,-4.76185,60.5414
2023-03-14 18:14:09:112,-0.901988,2.5061,-9.37044,-14.5231,-4.75069,60.5101
2023-03-14 18:14:09:122,-0.892062,2.46863,-9.343,-14.4968,-4.74273,60.4754
2023-03-14 18:14:09:132,-0.871978,2.48427,-9.36456,-14.475,-4.73542,60.4403
2023-03-14 18:14:09:142,-0.866328,2.46881,-9.35391,-14.4619,-4.74097,60.4012
2023-03-14 18:14:09:152,-0.867477,2.45523,-9.35756,-14.4544,-4.75344,60.3545
2023-03-14 18:14:09:162,-0.855352,2.49127,-9.37264,-14.4549,-4.7724,60.3113
2023-03-14 18:14:09:172,-0.848113,2.52385,-9.40006,-14.4622,-4.80004,60.268
2023-03-14 18:14:09:182,-0.839234,2.54929,-9.42844,-14.4702,-4.83016,60.2244
2023-03-14 18:14:09:192,-0.829381,2.53891,-9.45471,-14.4736,-4.86136,60.1857
2023-03-14 18:14:09:202,-0.837043,2.55478,-9.47589,-14.4784,-4.89288,60.1504
2023-03-14 18:14:09:212,-0.828818,2.55463,-9.48417,-14.4772,-4.92724,60.1147
2023-03-14 18:14:09:222,-0.82327,2.54053,-9.45291,-14.4727,-4.95997,60.0807
2023-03-14 18:14:09:232,-0.840169,2.54083,-9.45395,-14.4659,-4.98879,60.048
2023-03-14 18:14:09:242,-0.841613,2.54937,-9.49058,-14.4528,-5.01075,60.0179
2023-03-14 18:14:09:252,-0.828053,2.49346,-9.44338,-14.4396,-5.037,59.9875
2023-03-14 18:14:09:262,-0.818731,2.49137,-9.43486,-14.424,-5.06495,59.9569
2023-03-14 18:14:09:272,-0.813875,2.50558,-9.47386,-14.4053,-5.08361,59.9282
2023-03-14 18:14:09:282,-0.77693,2.45311,-9.44914,-14.3844,-5.10686,59.9027
2023-03-14 18:14:09:292,-0.726746,2.38079,-9.40069,-14.365,-5.13585,59.8831
2023-03-14 18:14:09:302,-0.738178,2.34845,-9.36381,-14.3512,-5.16397,59.8701
2023-03-14 18:14:09:312,-0.762372,2.34152,-9.35687,-14.3467,-5.19905,59.8614
2023-03-14 18:14:09:322,-0.779625,2.39638,-9.41507,-14.3471,-5.23278,59.8561
2023-03-14 18:14:09:332,-0.810211,2.45392,-9.45643,-14.3455,-5.26614,59.8579
2023-03-14 18:14:09:342,-0.816407,2.42771,-9.43546,-14.3433,-5.29616,59.8662
2023-03-14 18:14:09:352,-0.808736,2.41008,-9.41337,-14.3437,-5.32534,59.8774
2023-03-14 18:14:09:362,-0.847437,2.43635,-9.42601,-14.3477,-5.35458,59.8962
2023-03-14 18:14:09:372,-0.909004,2.4695,-9.4472,-14.3511,-5.38464,59.9175
2023-03-14 18:14:09:382,-0.904532,2.50156,-9.47963,-14.3497,-5.40208,59.9373
2023-03-14 18:14:09:392,-0.887316,2.42345,-9.38081,-14.3459,-5.4273,59.9581
2023-03-14 18:14:09:402,-0.913106,2.43218,-9.36987,-14.3487,-5.44783,59.9859
2023-03-14 18:14:09:412,-0.929244,2.47719,-9.43737,-14.3536,-5.46915,60.0078
2023-03-14 18:14:09:422,-0.938774,2.48456,-9.44794,-14.3547,-5.49493,60.0335
2023-03-14 18:14:09:432,-0.935555,2.48343,-9.44829,-14.3541,-5.52065,60.0566
2023-03-14 18:14:09:442,-0.950117,2.46946,-9.47185,-14.3554,-5.54515,60.0793
2023-03-14 18:14:09:452,-0.962522,2.47855,-9.47712,-14.3544,-5.5703,60.1018
2023-03-14 18:14:09:462,-0.976678,2.48654,-9.46005,-14.3509,-5.59394,60.1216
2023-03-14 18:14:09:472,-0.97214,2.48858,-9.46416,-14.344,-5.61177,60.1373
2023-03-14 18:14:09:482,-0.965288,2.45168,-9.42737,-14.3358,-5.63455,60.1544
2023-03-14 18:14:09:492,-0.974662,2.44591,-9.40606,-14.333,-5.65002,60.1727
2023-03-14 18:14:09:502,-0.973208,2.45865,-9.427,-14.3299,-5.66543,60.1853
2023-03-14 18:14:09:512,-0.965868,2.44859,-9.43319,-14.3275,-5.68153,60.1991
2023-03-14 18:14:09:522,-0.965391,2.46133,-9.43326,-14.3239,-5.6963,60.2118
2023-03-14 18:14:09:532,-0.979946,2.4813,-9.47192,-14.3271,-5.7109,60.2279
2023-03-14 18:14:09:542,-0.98595,2.50512,-9.50176,-14.3283,-5.72248,60.2386
2023-03-14 18:14:09:552,-0.982605,2.50444,-9.51794,-14.321,-5.73875,60.2488
2023-03-14 18:14:09:562,-0.985026,2.49427,-9.50585,-14.3071,-5.75606,60.2583
2023-03-14 18:14:09:572,-1.00353,2.45757,-9.46108,-14.2923,-5.7691,60.2663
2023-03-14 18:14:09:582,-0.979161,2.41686,-9.42997,-14.2737,-5.78162,60.268
2023-03-14 18:14:09:592,-0.975028,2.41479,-9.41694,-14.2587,-5.801,60.2737
2023-03-14 18:14:09:602,-0.975706,2.40169,-9.42158,-14.2413,-5.81776,60.2747
2023-03-14 18:14:09:612,-0.954718,2.38798,-9.41149,-14.2266,-5.83383,60.2771
2023-03-14 18:14:09:622,-0.959306,2.36982,-9.40616,-14.2139,-5.85177,60.2821
2023-03-14 18:14:09:632,-0.96343,2.37012,-9.41951,-14.2016,-5.87247,60.2871
2023-03-14 18:14:09:642,-0.950438,2.3667,-9.41655,-14.1894,-5.89246,60.2916
2023-03-14 18:14:09:652,-0.939124,2.34668,-9.42541,-14.1822,-5.91494,60.3038
2023-03-14 18:14:09:662,-0.955795,2.33736,-9.43695,-14.1722,-5.9334,60.3185
2023-03-14 18:14:09:672,-0.956274,2.33754,-9.42502,-14.1662,-5.95043,60.3382
2023-03-14 18:14:09:682,-0.945631,2.33071,-9.43817,-14.1644,-5.96671,60.3619
2023-03-14 18:14:09:692,-0.916879,2.3172,-9.44368,-14.163,-5.98281,60.3859
2023-03-14 18:14:09:702,-0.935932,2.32954,-9.4648,-14.1626,-6.00155,60.4176
2023-03-14 18:14:09:712,-0.9943,2.36172,-9.46809,-14.1667,-6.02521,60.4585
2023-03-14 18:14:09:722,-1.04991,2.40174,-9.47209,-14.1711,-6.05035,60.5005
2023-03-14 18:14:09:732,-1.09592,2.42294,-9.46547,-14.1759,-6.07375,60.5429
2023-03-14 18:14:09:742,-1.1253,2.40919,-9.46891,-14.1789,-6.09691,60.5824
2023-03-14 18:14:09:752,-1.13257,2.40837,-9.44067,-14.1797,-6.11441,60.6227
2023-03-14 18:14:09:762,-1.11852,2.41108,-9.44269,-14.1805,-6.12929,60.6609
2023-03-14 18:14:09:772,-1.11723,2.39697,-9.45327,-14.1745,-6.13787,60.6992
2023-03-14 18:14:09:782,-1.15894,2.4123,-9.45923,-14.1592,-6.13672,60.7358
2023-03-14 18:14:09:792,-1.15244,2.42881,-9.51198,-14.1344,-6.12379,60.7707
2023-03-14 18:14:09:802,-1.10837,2.34343,-9.40983,-14.1071,-6.11535,60.8057
2023-03-14 18:14:09:812,-1.08336,2.27063,-9.33011,-14.0858,-6.11326,60.8374
2023-03-14 18:14:09:822,-1.07672,2.23626,-9.28635,-14.0741,-6.11602,60.872
2023-03-14 18:14:09:832,-1.1056,2.29713,-9.32393,-14.0779,-6.11787,60.9112
2023-03-14 18:14:09:842,-1.13362,2.41835,-9.46676,-14.0828,-6.11792,60.9462
2023-03-14 18:14:09:852,-1.10117,2.43694,-9.50029,-14.0844,-6.11555,60.9744
2023-03-14 18:14:09:862,-1.07632,2.40025,-9.4774,-14.081,-6.11183,61.005
2023-03-14 18:14:09:872,-1.09109,2.40287,-9.45892,-14.0821,-6.11074,61.0355
2023-03-14 18:14:09:882,-1.11451,2.4434,-9.48282,-14.0851,-6.11291,61.0654
2023-03-14 18:14:09:892,-1.12586,2.47604,-9.5008,-14.0835,-6.11675,61.0927
2023-03-14 18:14:09:902,-1.13369,2.42742,-9.42411,-14.0775,-6.12538,61.1202
2023-03-14 18:14:09:912,-1.19292,2.4189,-9.39196,-14.0754,-6.12385,61.1463
2023-03-14 18:14:09:922,-1.2218,2.4304,-9.40568,-14.0759,-6.12424,61.1684
2023-03-14 18:14:09:932,-1.191,2.44073,-9.44151,-14.0742,-6.12238,61.1835
2023-03-14 18:14:09:942,-1.14142,2.4511,-9.47155,-14.0732,-6.12144,61.1942
2023-03-14 18:14:09:952,-1.11546,2.44842,-9.48747,-14.0661,-6.11751,61.2004
2023-03-14 18:14:09:962,-1.09424,2.40688,-9.47977,-14.0508,-6.11803,61.2033
2023-03-14 18:14:09:972,-1.08185,2.37141,-9.43289,-14.0386,-6.11614,61.2067
2023-03-14 18:14:09:982,-1.09043,2.3424,-9.3894,-14.0287,-6.11511,61.2076
2023-03-14 18:14:09:992,-1.09028,2.33255,-9.39868,-14.0201,-6.11475,61.2074
2023-03-14 18:14:10:2,-1.08173,2.35202,-9.42135,-14.0152,-6.11479,61.2097
2023-03-14 18:14:10:12,-1.07219,2.37466,-9.41743,-14.011,-6.10817,61.2101
2023-03-14 18:14:10:22,-1.07502,2.37223,-9.43069,-14.0107,-6.10205,61.2125
2023-03-14 18:14:10:32,-1.06139,2.38437,-9.45857,-14.0106,-6.08695,61.2143
2023-03-14 18:14:10:42,-1.04457,2.41737,-9.48415,-14.0073,-6.06958,61.2163
2023-03-14 18:14:10:52,-1.03324,2.43155,-9.50593,-14.0008,-6.05745,61.2203
2023-03-14 18:14:10:62,-1.03221,2.4042,-9.47748,-13.9911,-6.04164,61.224
2023-03-14 18:14:10:72,-1.04379,2.36575,-9.41086,-13.9787,-6.02799,61.2305
2023-03-14 18:14:10:82,-1.07568,2.34764,-9.37684,-13.9673,-6.01423,61.2344
2023-03-14 18:14:10:92,-1.07687,2.36579,-9.40297,-13.961,-6.00085,61.2393
2023-03-14 18:14:10:102,-1.06324,2.37227,-9.43699,-13.9568,-5.99102,61.2393
2023-03-14 18:14:10:112,-1.07456,2.36689,-9.43774,-13.9516,-5.9832,61.2386
2023-03-14 18:14:10:122,-1.06553,2.34537,-9.4309,-13.9481,-5.97568,61.2355
2023-03-14 18:14:10:132,-1.04792,2.34174,-9.43553,-13.9474,-5.96599,61.2336
2023-03-14 18:14:10:142,-1.03917,2.34631,-9.46665,-13.9461,-5.95394,61.2256
2023-03-14 18:14:10:152,-1.04622,2.37304,-9.47215,-13.9455,-5.94426,61.2194
2023-03-14 18:14:10:162,-1.04136,2.37494,-9.45573,-13.9423,-5.93527,61.208
2023-03-14 18:14:10:172,-1.0136,2.37264,-9.44383,-13.9408,-5.92155,61.1973
2023-03-14 18:14:10:182,-0.996271,2.35921,-9.42926,-13.9396,-5.90828,61.1866
2023-03-14 18:14:10:192,-0.98019,2.35421,-9.42291,-13.9437,-5.89635,61.1775
2023-03-14 18:14:10:202,-0.967577,2.34945,-9.41766,-13.9425,-5.8876,61.1672
2023-03-14 18:14:10:212,-0.962277,2.34396,-9.42313,-13.9467,-5.87239,61.1605
2023-03-14 18:14:10:222,-0.973884,2.35722,-9.43824,-13.9511,-5.85973,61.1507
2023-03-14 18:14:10:232,-0.962026,2.36315,-9.46129,-13.9526,-5.84681,61.1415
2023-03-14 18:14:10:242,-0.958901,2.35864,-9.44377,-13.9542,-5.83719,61.1308
2023-03-14 18:14:10:252,-0.960681,2.34975,-9.44224,-13.9541,-5.82923,61.1217
2023-03-14 18:14:10:262,-0.950298,2.35008,-9.45128,-13.957,-5.82018,61.1083
2023-03-14 18:14:10:272,-0.954011,2.38047,-9.47168,-13.9578,-5.81095,61.0949
2023-03-14 18:14:10:282,-0.960851,2.38634,-9.48949,-13.9607,-5.80154,61.0846
2023-03-14 18:14:10:292,-0.970449,2.39238,-9.46553,-13.9607,-5.79504,61.0728
2023-03-14 18:14:10:302,-0.953189,2.42244,-9.49873,-13.9583,-5.77992,61.0613
2023-03-14 18:14:10:312,-0.909891,2.38972,-9.50088,-13.9562,-5.7722,61.0492
2023-03-14 18:14:10:322,-0.901673,2.34767,-9.40298,-13.9585,-5.76682,61.036
2023-03-14 18:14:10:332,-0.924296,2.40474,-9.45643,-13.964,-5.76247,61.0275
2023-03-14 18:14:10:342,-0.940901,2.43193,-9.505,-13.9658,-5.75668,61.0198
2023-03-14 18:14:10:352,-0.947757,2.42474,-9.49118,-13.9666,-5.75231,61.011
2023-03-14 18:14:10:362,-0.948673,2.43262,-9.48862,-13.9618,-5.74759,61.0043
2023-03-14 18:14:10:372,-0.942328,2.41414,-9.4937,-13.9544,-5.74369,60.9992
2023-03-14 18:14:10:382,-0.94695,2.41765,-9.48482,-13.95,-5.73879,60.9937
2023-03-14 18:14:10:392,-0.946054,2.40225,-9.48622,-13.9456,-5.73201,60.9907
2023-03-14 18:14:10:402,-0.951971,2.37865,-9.46883,-13.937,-5.72546,60.9823
2023-03-14 18:14:10:412,-0.937245,2.36481,-9.44652,-13.9274,-5.72203,60.9772
2023-03-14 18:14:10:422,-0.914868,2.34959,-9.43474,-13.9201,-5.71523,60.9708
2023-03-14 18:14:10:432,-0.904819,2.35708,-9.45128,-13.9175,-5.70672,60.9669
2023-03-14 18:14:10:442,-0.897394,2.39927,-9.51081,-13.9104,-5.69395,60.9641
2023-03-14 18:14:10:452,-0.887128,2.32775,-9.42097,-13.9049,-5.69373,60.9586
2023-03-14 18:14:10:462,-0.906041,2.35199,-9.43583,-13.9031,-5.69373,60.9543
2023-03-14 18:14:10:472,-0.913493,2.40587,-9.51685,-13.9016,-5.69193,60.9505
2023-03-14 18:14:10:482,-0.905143,2.39989,-9.513,-13.8937,-5.68953,60.9478
2023-03-14 18:14:10:492,-0.875074,2.36128,-9.46062,-13.8828,-5.69081,60.9435
2023-03-14 18:14:10:502,-0.840054,2.35108,-9.46451,-13.8773,-5.69381,60.9424
2023-03-14 18:14:10:512,-0.86471,2.36103,-9.46129,-13.8722,-5.70031,60.9483
2023-03-14 18:14:10:522,-0.887222,2.35981,-9.47323,-13.8686,-5.71039,60.9569
2023-03-14 18:14:10:532,-0.917368,2.3753,-9.46853,-13.8629,-5.72328,60.9677
2023-03-14 18:14:10:542,-0.94392,2.3869,-9.46019,-13.8565,-5.73696,60.9827
2023-03-14 18:14:10:552,-0.941909,2.38586,-9.45031,-13.8502,-5.74772,60.9947
2023-03-14 18:14:10:562,-0.951682,2.36928,-9.4373,-13.8471,-5.7585,61.011
2023-03-14 18:14:10:572,-0.975791,2.37317,-9.41995,-13.848,-5.76913,61.0305
2023-03-14 18:14:10:582,-0.988884,2.3735,-9.42882,-13.8452,-5.7804,61.0467
2023-03-14 18:14:10:592,-1.00609,2.38349,-9.44224,-13.8436,-5.79137,61.065
2023-03-14 18:14:10:602,-1.01263,2.39097,-9.4487,-13.8394,-5.80002,61.0828
2023-03-14 18:14:10:612,-1.00558,2.38037,-9.43996,-13.8342,-5.80749,61.0967
2023-03-14 18:14:10:622,-1.00031,2.36663,-9.42444,-13.828,-5.81705,61.1106
2023-03-14 18:14:10:632,-0.9857,2.36024,-9.42238,-13.8256,-5.82592,61.1273
2023-03-14 18:14:10:642,-0.983625,2.35546,-9.42879,-13.8258,-5.8338,61.1429
2023-03-14 18:14:10:652,-0.982618,2.36316,-9.44944,-13.8229,-5.84213,61.1561
2023-03-14 18:14:10:662,-0.994414,2.39173,-9.46577,-13.8233,-5.84918,61.1744
2023-03-14 18:14:10:672,-0.999248,2.39518,-9.47419,-13.8214,-5.85978,61.1909
2023-03-14 18:14:10:682,-1.00021,2.40446,-9.48769,-13.8243,-5.86813,61.2048
2023-03-14 18:14:10:692,-1.00174,2.40613,-9.50952,-13.8248,-5.87446,61.2206
2023-03-14 18:14:10:702,-0.98758,2.40709,-9.51032,-13.8213,-5.8823,61.2391
2023-03-14 18:14:10:712,-1.01255,2.40181,-9.48674,-13.8194,-5.88743,61.2597
2023-03-14 18:14:10:722,-1.0616,2.40206,-9.4842,-13.8144,-5.89216,61.2848
2023-03-14 18:14:10:732,-1.05941,2.39884,-9.48543,-13.8089,-5.89288,61.308
2023-03-14 18:14:10:742,-1.03225,2.40778,-9.45971,-13.8005,-5.89517,61.3274
2023-03-14 18:14:10:752,-1.00349,2.38929,-9.47955,-13.7907,-5.88976,61.3472
2023-03-14 18:14:10:762,-1.01324,2.4632,-9.58321,-13.7718,-5.8668,61.3674
2023-03-14 18:14:10:772,-0.993881,2.53597,-9.72287,-13.7333,-5.83265,61.3854
2023-03-14 18:14:10:782,-0.919421,2.36197,-9.55421,-13.6847,-5.812,61.3986
2023-03-14 18:14:10:792,-0.883376,2.24452,-9.41069,-13.6431,-5.79991,61.4201
2023-03-14 18:14:10:802,-0.927855,2.25603,-9.41279,-13.6164,-5.79601,61.4523
2023-03-14 18:14:10:812,-0.959868,2.29077,-9.44964,-13.6,-5.79912,61.4836
2023-03-14 18:14:10:822,-0.984409,2.34042,-9.5075,-13.5841,-5.79843,61.5187
2023-03-14 18:14:10:832,-1.00894,2.35901,-9.54727,-13.5602,-5.80191,61.5546
2023-03-14 18:14:10:842,-0.986508,2.3159,-9.49583,-13.5336,-5.80531,61.5863
2023-03-14 18:14:10:852,-0.950143,2.27787,-9.43897,-13.51,-5.80754,61.6198
2023-03-14 18:14:10:862,-0.988745,2.29593,-9.41301,-13.4876,-5.81287,61.656
2023-03-14 18:14:10:872,-1.02819,2.40948,-9.57378,-13.4563,-5.78776,61.6919
2023-03-14 18:14:10:882,-0.963991,2.41441,-9.66512,-13.4071,-5.75662,61.724
2023-03-14 18:14:10:892,-0.902844,2.28407,-9.52048,-13.3539,-5.73747,61.7576
2023-03-14 18:14:10:902,-0.900954,2.20905,-9.42558,-13.3045,-5.72431,61.7965
2023-03-14 18:14:10:912,-0.905874,2.17421,-9.36904,-13.269,-5.72163,61.8379
2023-03-14 18:14:10:922,-0.948918,2.14394,-9.34221,-13.2441,-5.72591,61.8835
2023-03-14 18:14:10:932,-1.02258,2.1955,-9.43942,-13.2278,-5.72853,61.9336
2023-03-14 18:14:10:942,-1.09881,2.25587,-9.5179,-13.2113,-5.74094,61.9771
2023-03-14 18:14:10:952,-1.18588,2.27643,-9.50768,-13.1914,-5.76051,62.0151
2023-03-14 18:14:10:962,-1.19178,2.23601,-9.43672,-13.1654,-5.78265,62.0352
2023-03-14 18:14:10:972,-1.14933,2.16811,-9.37604,-13.1416,-5.80368,62.0455
2023-03-14 18:14:10:982,-1.15177,2.18658,-9.35176,-13.1234,-5.81842,62.0455
2023-03-14 18:14:10:992,-1.14842,2.28579,-9.51315,-13.0996,-5.81233,62.0394
2023-03-14 18:14:11:2,-1.07556,2.25596,-9.52779,-13.0729,-5.81487,62.0208
2023-03-14 18:14:11:12,-1.0024,2.14686,-9.41666,-13.0461,-5.83258,62.0009
2023-03-14 18:14:11:22,-0.967564,2.11681,-9.37475,-13.0277,-5.85161,61.9802
2023-03-14 18:14:11:32,-0.97445,2.18118,-9.46858,-13.0193,-5.86678,61.9645
2023-03-14 18:14:11:42,-0.984469,2.22442,-9.52688,-13.0096,-5.87916,61.9528
2023-03-14 18:14:11:52,-0.995317,2.2041,-9.53137,-12.9947,-5.88753,61.9399
2023-03-14 18:14:11:62,-0.984898,2.14706,-9.46489,-12.9811,-5.89167,61.9278
2023-03-14 18:14:11:72,-0.948327,2.10247,-9.40613,-12.9688,-5.89664,61.9218
2023-03-14 18:14:11:82,-0.939032,2.09446,-9.38566,-12.9637,-5.8982,61.9196
2023-03-14 18:14:11:92,-0.953818,2.12405,-9.43475,-12.9648,-5.90266,61.9224
2023-03-14 18:14:11:102,-0.988111,2.16795,-9.47916,-12.9686,-5.90255,61.9267
2023-03-14 18:14:11:112,-1.00095,2.19329,-9.50862,-12.9682,-5.90442,61.9316
2023-03-14 18:14:11:122,-1.00451,2.20134,-9.5143,-12.9687,-5.90203,61.9358
2023-03-14 18:14:11:132,-1.00597,2.1943,-9.50207,-12.9669,-5.89941,61.9403
2023-03-14 18:14:11:142,-1.01856,2.18862,-9.48926,-12.9655,-5.89636,61.9484
2023-03-14 18:14:11:152,-1.02994,2.15446,-9.46941,-12.9619,-5.89207,61.9566
2023-03-14 18:14:11:162,-1.03266,2.15439,-9.45753,-12.9612,-5.88792,61.9623
2023-03-14 18:14:11:172,-1.01491,2.17236,-9.46689,-12.9587,-5.88303,61.9667
2023-03-14 18:14:11:182,-1.01722,2.18295,-9.4662,-12.9611,-5.88131,61.9684
2023-03-14 18:14:11:192,-1.02199,2.17171,-9.47818,-12.961,-5.87826,61.973
2023-03-14 18:14:11:202,-1.01954,2.16457,-9.47849,-12.9596,-5.86946,61.9754
2023-03-14 18:14:11:212,-1.01472,2.16158,-9.47147,-12.9569,-5.86067,61.9771
2023-03-14 18:14:11:222,-0.998613,2.16523,-9.49844,-12.9586,-5.85211,61.979
2023-03-14 18:14:11:232,-1.00638,2.1843,-9.52028,-12.961,-5.8462,61.9808
2023-03-14 18:14:11:242,-0.996639,2.18471,-9.49807,-12.9637,-5.83955,61.9844
2023-03-14 18:14:11:252,-1.00208,2.17765,-9.48856,-12.9642,-5.83102,61.9851
2023-03-14 18:14:11:262,-1.00244,2.18366,-9.48908,-12.965,-5.822,61.9877
2023-03-14 18:14:11:272,-1.00588,2.18247,-9.47638,-12.9674,-5.81542,61.9897
2023-03-14 18:14:11:282,-1.00397,2.1956,-9.47954,-12.9719,-5.80864,61.9908
2023-03-14 18:14:11:292,-1.01803,2.21891,-9.51197,-12.9722,-5.79708,61.984
2023-03-14 18:14:11:302,-0.998305,2.21901,-9.5418,-12.9717,-5.78897,61.9816
2023-03-14 18:14:11:312,-0.965622,2.18945,-9.51976,-12.9698,-5.7819,61.9781
2023-03-14 18:14:11:322,-0.96145,2.21757,-9.56312,-12.965,-5.77412,61.9724
2023-03-14 18:14:11:332,-0.931338,2.22884,-9.54848,-12.962,-5.76254,61.9654
2023-03-14 18:14:11:342,-0.88622,2.23765,-9.55248,-12.9555,-5.74774,61.9598
2023-03-14 18:14:11:352,-0.858729,2.18918,-9.51933,-12.9519,-5.7411,61.9583
2023-03-14 18:14:11:362,-0.871073,2.20697,-9.5309,-12.9493,-5.73521,61.9628
2023-03-14 18:14:11:372,-0.887709,2.23785,-9.54719,-12.9454,-5.72606,61.9688
2023-03-14 18:14:11:382,-0.881701,2.24495,-9.5533,-12.9427,-5.71728,61.9786
2023-03-14 18:14:11:392,-0.906131,2.21473,-9.4878,-12.9386,-5.71214,61.9949
2023-03-14 18:14:11:402,-0.91677,2.23544,-9.48536,-12.9362,-5.70747,62.0078
2023-03-14 18:14:11:412,-0.893909,2.22095,-9.49446,-12.934,-5.69859,62.0251
2023-03-14 18:14:11:422,-0.893215,2.22076,-9.4874,-12.9262,-5.69634,62.0465
2023-03-14 18:14:11:432,-0.925379,2.22318,-9.47328,-12.9203,-5.68758,62.0717
2023-03-14 18:14:11:442,-0.942438,2.22848,-9.45974,-12.9135,-5.67586,62.096
2023-03-14 18:14:11:452,-0.950627,2.24155,-9.50111,-12.9044,-5.6574,62.1213
2023-03-14 18:14:11:462,-0.910092,2.19503,-9.48571,-12.8934,-5.65145,62.1476
2023-03-14 18:14:11:472,-0.93171,2.20617,-9.48481,-12.8875,-5.64233,62.1774
2023-03-14 18:14:11:482,-0.953365,2.26016,-9.55149,-12.8839,-5.63122,62.209
2023-03-14 18:14:11:492,-0.949616,2.26593,-9.57266,-12.8724,-5.61899,62.2412
2023-03-14 18:14:11:502,-0.928645,2.2352,-9.53563,-12.861,-5.60743,62.2716
2023-03-14 18:14:11:512,-0.926362,2.21603,-9.51567,-12.8502,-5.59733,62.3069
2023-03-14 18:14:11:522,-0.939284,2.22896,-9.53298,-12.8384,-5.57918,62.3436
2023-03-14 18:14:11:532,-0.918254,2.22231,-9.54477,-12.8216,-5.55619,62.3788
2023-03-14 18:14:11:542,-0.878759,2.21638,-9.50546,-12.8075,-5.52682,62.4149
2023-03-14 18:14:11:552,-0.796933,2.19594,-9.52943,-12.7843,-5.49335,62.4542
2023-03-14 18:14:11:562,-0.683009,2.11563,-9.49304,-12.7631,-5.46194,62.5053
2023-03-14 18:14:11:572,-0.666975,2.09638,-9.49489,-12.7493,-5.43421,62.5706
2023-03-14 18:14:11:582,-0.743985,2.15711,-9.53693,-12.7391,-5.40187,62.6515
2023-03-14 18:14:11:592,-0.853786,2.19026,-9.58724,-12.7217,-5.36516,62.7438
2023-03-14 18:14:11:602,-0.948712,2.19915,-9.58329,-12.6975,-5.32249,62.8385
2023-03-14 18:14:11:612,-1.03096,2.1651,-9.56441,-12.6643,-5.28027,62.9312
2023-03-14 18:14:11:622,-1.15831,2.13256,-9.43209,-12.632,-5.23213,63.0201
2023-03-14 18:14:11:632,-1.19372,2.10553,-9.32763,-12.5974,-5.17465,63.0915
2023-03-14 18:14:11:642,-1.01965,2.03194,-9.36348,-12.5729,-5.11449,63.1465
2023-03-14 18:14:11:652,-0.910668,2.02383,-9.40267,-12.5632,-5.07299,63.1923
2023-03-14 18:14:11:662,-0.91158,2.01701,-9.42357,-12.563,-5.04713,63.2397
2023-03-14 18:14:11:672,-0.929845,2.04822,-9.43034,-12.5751,-5.03081,63.283
2023-03-14 18:14:11:682,-0.963487,2.121,-9.48215,-12.5879,-5.02091,63.323
2023-03-14 18:14:11:692,-0.967366,2.12815,-9.48968,-12.6008,-5.01729,63.3483
2023-03-14 18:14:11:702,-0.94756,2.11238,-9.47805,-12.6131,-5.01385,63.3695
2023-03-14 18:14:11:712,-0.944221,2.12823,-9.48092,-12.6275,-5.00738,63.3837
2023-03-14 18:14:11:722,-0.938332,2.14656,-9.51694,-12.6413,-5.00467,63.3958
2023-03-14 18:14:11:732,-0.934928,2.17996,-9.563,-12.6455,-4.99205,63.3985
2023-03-14 18:14:11:742,-0.898556,2.12734,-9.50598,-12.6477,-4.99166,63.3943
2023-03-14 18:14:11:752,-0.888344,2.09211,-9.45949,-12.6564,-4.9938,63.3903
2023-03-14 18:14:11:762,-0.870246,2.13388,-9.5111,-12.6656,-4.99491,63.3845
2023-03-14 18:14:11:772,-0.863161,2.14776,-9.53169,-12.6707,-4.99585,63.3764
2023-03-14 18:14:11:782,-0.863908,2.14057,-9.5073,-12.6768,-4.99954,63.3635
2023-03-14 18:14:11:792,-0.845487,2.15139,-9.50909,-12.6838,-4.99574,63.3518
2023-03-14 18:14:11:802,-0.836855,2.17271,-9.52064,-12.6964,-4.99117,63.3368
2023-03-14 18:14:11:812,-0.830672,2.19059,-9.55042,-12.7086,-4.98825,63.3252
2023-03-14 18:14:11:822,-0.850745,2.21998,-9.56497,-12.7219,-4.98461,63.3112
2023-03-14 18:14:11:832,-0.86368,2.24476,-9.56366,-12.7338,-4.97966,63.3032
2023-03-14 18:14:11:842,-0.859478,2.26761,-9.56382,-12.7423,-4.97492,63.294
2023-03-14 18:14:11:852,-0.861581,2.26864,-9.57459,-12.7478,-4.97,63.286
2023-03-14 18:14:11:862,-0.863633,2.26763,-9.57002,-12.751,-4.96485,63.2775
2023-03-14 18:14:11:872,-0.867557,2.25806,-9.55419,-12.7494,-4.96018,63.2683
2023-03-14 18:14:11:882,-0.858335,2.23876,-9.552,-12.7466,-4.95615,63.2546
2023-03-14 18:14:11:892,-0.845258,2.22235,-9.53833,-12.7435,-4.9537,63.2423
2023-03-14 18:14:11:902,-0.84051,2.20672,-9.52874,-12.7369,-4.94845,63.2237
2023-03-14 18:14:11:912,-0.854915,2.22355,-9.538,-12.7305,-4.94239,63.2027
2023-03-14 18:14:11:922,-0.850214,2.21439,-9.55123,-12.7234,-4.9364,63.1848
2023-03-14 18:14:11:932,-0.822644,2.17148,-9.52453,-12.7129,-4.93373,63.162
2023-03-14 18:14:11:942,-0.799075,2.18238,-9.52596,-12.7036,-4.92648,63.1391
2023-03-14 18:14:11:952,-0.798346,2.18408,-9.54586,-12.6908,-4.92177,63.1184
2023-03-14 18:14:11:962,-0.799111,2.16912,-9.52029,-12.6795,-4.91502,63.0958
2023-03-14 18:14:11:972,-0.785079,2.15733,-9.48037,-12.6665,-4.91331,63.0751
2023-03-14 18:14:11:982,-0.76849,2.14154,-9.48079,-12.6565,-4.91085,63.0607
2023-03-14 18:14:11:992,-0.781971,2.14164,-9.49786,-12.6462,-4.91185,63.0455
2023-03-14 18:14:12:2,-0.788574,2.14816,-9.50464,-12.6386,-4.91008,63.0316
2023-03-14 18:14:12:12,-0.788807,2.11214,-9.44626,-12.6303,-4.91062,63.0192
2023-03-14 18:14:12:22,-0.807063,2.12995,-9.45289,-12.6278,-4.91171,63.009
2023-03-14 18:14:12:32,-0.806017,2.15673,-9.4739,-12.6257,-4.9079,62.9996
2023-03-14 18:14:12:42,-0.81327,2.16864,-9.49921,-12.6279,-4.90639,62.9912
2023-03-14 18:14:12:52,-0.814967,2.17483,-9.52746,-12.6281,-4.90589,62.9792
2023-03-14 18:14:12:62,-0.803001,2.15479,-9.51669,-12.6292,-4.90689,62.9687
2023-03-14 18:14:12:72,-0.797203,2.17319,-9.533,-12.632,-4.90916,62.9576
2023-03-14 18:14:12:82,-0.791175,2.16561,-9.52831,-12.6346,-4.91192,62.9509
2023-03-14 18:14:12:92,-0.812503,2.16059,-9.5236,-12.6365,-4.91439,62.9459
2023-03-14 18:14:12:102,-0.813657,2.16952,-9.52039,-12.642,-4.91693,62.9368
2023-03-14 18:14:12:112,-0.831187,2.15322,-9.50081,-12.6431,-4.92279,62.9353
2023-03-14 18:14:12:122,-0.853812,2.17609,-9.52827,-12.646,-4.92394,62.9319
2023-03-14 18:14:12:132,-0.85874,2.1905,-9.53008,-12.651,-4.92551,62.9299
2023-03-14 18:14:12:142,-0.856555,2.20277,-9.54039,-12.6555,-4.92841,62.9234
2023-03-14 18:14:12:152,-0.865517,2.20604,-9.56321,-12.655,-4.93126,62.9167
2023-03-14 18:14:12:162,-0.859902,2.21006,-9.56255,-12.6552,-4.92882,62.9114
2023-03-14 18:14:12:172,-0.842634,2.19069,-9.52742,-12.6486,-4.92515,62.9052
2023-03-14 18:14:12:182,-0.852824,2.17314,-9.50531,-12.642,-4.92929,62.8986
2023-03-14 18:14:12:192,-0.853036,2.14759,-9.50201,-12.6368,-4.93013,62.8923
2023-03-14 18:14:12:202,-0.838563,2.13937,-9.49799,-12.633,-4.93575,62.8816
2023-03-14 18:14:12:212,-0.842765,2.10361,-9.5088,-12.631,-4.94149,62.8731
2023-03-14 18:14:12:222,-0.832756,2.10743,-9.52369,-12.6306,-4.94363,62.8637
2023-03-14 18:14:12:232,-0.809564,2.1065,-9.53123,-12.6316,-4.9499,62.8533
2023-03-14 18:14:12:242,-0.789599,2.10918,-9.53754,-12.6326,-4.95288,62.8439
2023-03-14 18:14:12:252,-0.79898,2.13324,-9.55614,-12.634,-4.95612,62.8348
2023-03-14 18:14:12:262,-0.792907,2.11467,-9.5226,-12.6335,-4.96532,62.831
2023-03-14 18:14:12:272,-0.808237,2.1173,-9.47213,-12.6428,-4.96916,62.8239
2023-03-14 18:14:12:282,-0.841378,2.17969,-9.53005,-12.6539,-4.96984,62.823
2023-03-14 18:14:12:292,-0.854333,2.20799,-9.54004,-12.66,-4.97095,62.8186
2023-03-14 18:14:12:302,-0.841777,2.18737,-9.52262,-12.665,-4.97146,62.8179
2023-03-14 18:14:12:312,-0.844169,2.17608,-9.51921,-12.668,-4.96852,62.818
2023-03-14 18:14:12:322,-0.829574,2.16642,-9.49967,-12.6677,-4.96744,62.8208
2023-03-14 18:14:12:332,-0.83612,2.13081,-9.49085,-12.6658,-4.96365,62.8218
2023-03-14 18:14:12:342,-0.846507,2.12396,-9.46464,-12.6596,-4.96045,62.8237
2023-03-14 18:14:12:352,-0.847764,2.1105,-9.47269,-12.6579,-4.95734,62.8235
2023-03-14 18:14:12:362,-0.844775,2.10673,-9.48463,-12.6597,-4.95243,62.8252
2023-03-14 18:14:12:372,-0.853645,2.11541,-9.49156,-12.6608,-4.94504,62.8265
2023-03-14 18:14:12:382,-0.874216,2.14323,-9.50991,-12.6647,-4.94146,62.8255
2023-03-14 18:14:12:392,-0.878062,2.18607,-9.54807,-12.6718,-4.93499,62.8244
2023-03-14 18:14:12:402,-0.867516,2.20898,-9.5814,-12.6739,-4.92594,62.8197
2023-03-14 18:14:12:412,-0.852953,2.1994,-9.57777,-12.6752,-4.91877,62.8171
2023-03-14 18:14:12:422,-0.842794,2.19,-9.56022,-12.6768,-4.91371,62.8137
2023-03-14 18:14:12:432,-0.824331,2.18393,-9.54862,-12.6811,-4.90616,62.8075
2023-03-14 18:14:12:442,-0.811413,2.16656,-9.53438,-12.6824,-4.8999,62.7998
2023-03-14 18:14:12:452,-0.829246,2.14432,-9.50714,-12.6808,-4.89539,62.795
2023-03-14 18:14:12:462,-0.840461,2.13033,-9.49072,-12.6864,-4.8906,62.7915
2023-03-14 18:14:12:472,-0.850624,2.14829,-9.48989,-12.6915,-4.88435,62.7869
2023-03-14 18:14:12:482,-0.832361,2.16741,-9.51648,-12.6905,-4.87947,62.7833
2023-03-14 18:14:12:492,-0.795211,2.16344,-9.56529,-12.6895,-4.87229,62.7736
2023-03-14 18:14:12:502,-0.782426,2.14814,-9.52363,-12.6855,-4.86958,62.7662
2023-03-14 18:14:12:512,-0.779864,2.10491,-9.48473,-12.6809,-4.86908,62.7615
2023-03-14 18:14:12:522,-0.799382,2.09533,-9.46841,-12.6847,-4.86781,62.7595
2023-03-14 18:14:12:532,-0.80367,2.12683,-9.49937,-12.6914,-4.87294,62.7577
2023-03-14 18:14:12:542,-0.810275,2.14778,-9.52748,-12.7005,-4.87932,62.7565
2023-03-14 18:14:12:552,-0.823076,2.16591,-9.54578,-12.7125,-4.8835,62.7565
2023-03-14 18:14:12:562,-0.82172,2.18306,-9.55578,-12.7225,-4.88613,62.7566
2023-03-14 18:14:12:572,-0.828053,2.19156,-9.54464,-12.7313,-4.88848,62.7606
2023-03-14 18:14:12:582,-0.831937,2.17573,-9.5287,-12.7385,-4.88681,62.7636
2023-03-14 18:14:12:592,-0.815042,2.16769,-9.51284,-12.7441,-4.88761,62.7684
2023-03-14 18:14:12:602,-0.814581,2.16379,-9.51883,-12.752,-4.88721,62.7731
2023-03-14 18:14:12:612,-0.82971,2.1691,-9.50563,-12.7599,-4.88763,62.7798
2023-03-14 18:14:12:622,-0.834725,2.17126,-9.49626,-12.7675,-4.8877,62.7862
2023-03-14 18:14:12:632,-0.84898,2.15905,-9.49824,-12.7724,-4.887,62.7926
2023-03-14 18:14:12:642,-0.836085,2.16965,-9.49664,-12.779,-4.88245,62.8008
2023-03-14 18:14:12:652,-0.831988,2.15577,-9.48704,-12.7883,-4.87879,62.8043
2023-03-14 18:14:12:662,-0.824444,2.16657,-9.49148,-12.802,-4.87382,62.8082
2023-03-14 18:14:12:672,-0.822454,2.17267,-9.50016,-12.8135,-4.87023,62.8143
2023-03-14 18:14:12:682,-0.817011,2.18556,-9.50272,-12.8283,-4.86682,62.8163
2023-03-14 18:14:12:692,-0.817498,2.20184,-9.51155,-12.839,-4.86109,62.8219
2023-03-14 18:14:12:702,-0.839916,2.22137,-9.52529,-12.8526,-4.85928,62.8291
2023-03-14 18:14:12:712,-0.850576,2.2456,-9.54332,-12.8659,-4.85254,62.8343
2023-03-14 18:14:12:722,-0.863569,2.2662,-9.55351,-12.8748,-4.84326,62.8363
2023-03-14 18:14:12:732,-0.874229,2.28761,-9.54182,-12.8863,-4.83897,62.835
2023-03-14 18:14:12:742,-0.870889,2.28241,-9.54053,-12.8922,-4.83193,62.8328
2023-03-14 18:14:12:752,-0.855109,2.26532,-9.54183,-12.8928,-4.82784,62.8259
2023-03-14 18:14:12:762,-0.848617,2.26758,-9.52089,-12.8921,-4.82264,62.8169
2023-03-14 18:14:12:772,-0.82485,2.25336,-9.49485,-12.8914,-4.81903,62.8079
2023-03-14 18:14:12:782,-0.79586,2.23575,-9.49328,-12.8886,-4.81702,62.7943
2023-03-14 18:14:12:792,-0.787325,2.2181,-9.49595,-12.8908,-4.81198,62.7786
2023-03-14 18:14:12:802,-0.795239,2.20813,-9.50914,-12.8942,-4.80789,62.7654
2023-03-14 18:14:12:812,-0.795241,2.2428,-9.5352,-12.899,-4.80971,62.7523
2023-03-14 18:14:12:822,-0.795814,2.26611,-9.54861,-12.9042,-4.81017,62.7386
2023-03-14 18:14:12:832,-0.784192,2.25041,-9.54638,-12.9005,-4.81235,62.7229
2023-03-14 18:14:12:842,-0.780558,2.24261,-9.55101,-12.8996,-4.81138,62.7059
2023-03-14 18:14:12:852,-0.772087,2.23576,-9.57509,-12.8931,-4.80639,62.69
2023-03-14 18:14:12:862,-0.770574,2.21833,-9.55837,-12.8818,-4.80914,62.679
2023-03-14 18:14:12:872,-0.759285,2.20256,-9.5464,-12.8687,-4.81164,62.6692
2023-03-14 18:14:12:882,-0.743485,2.18036,-9.51578,-12.859,-4.8126,62.6591
2023-03-14 18:14:12:892,-0.735197,2.17561,-9.50919,-12.8474,-4.81491,62.652
2023-03-14 18:14:12:902,-0.735376,2.18075,-9.51766,-12.8379,-4.81918,62.6495
2023-03-14 18:14:12:912,-0.754207,2.17186,-9.50459,-12.8271,-4.81961,62.6469
2023-03-14 18:14:12:922,-0.755532,2.16788,-9.48053,-12.8206,-4.82471,62.6467
2023-03-14 18:14:12:932,-0.751749,2.13626,-9.47473,-12.8171,-4.82884,62.65
2023-03-14 18:14:12:942,-0.769897,2.1508,-9.47973,-12.8128,-4.83126,62.6555
2023-03-14 18:14:12:952,-0.779861,2.15952,-9.49323,-12.8095,-4.83179,62.6648
2023-03-14 18:14:12:962,-0.799779,2.17171,-9.50119,-12.8113,-4.8315,62.6745
2023-03-14 18:14:12:972,-0.817089,2.17773,-9.50972,-12.8118,-4.83447,62.6869
2023-03-14 18:14:12:982,-0.833581,2.17062,-9.51553,-12.8121,-4.83381,62.6942
2023-03-14 18:14:12:992,-0.843434,2.1671,-9.53585,-12.8106,-4.83359,62.7035
2023-03-14 18:14:13:2,-0.85212,2.1733,-9.52996,-12.8082,-4.83746,62.7119
2023-03-14 18:14:13:12,-0.864198,2.17836,-9.51739,-12.8055,-4.8411,62.7175
2023-03-14 18:14:13:22,-0.872004,2.17409,-9.49943,-12.8029,-4.84807,62.7243
2023-03-14 18:14:13:32,-0.860068,2.15228,-9.48021,-12.8031,-4.85185,62.7248
2023-03-14 18:14:13:42,-0.833663,2.14013,-9.47685,-12.8017,-4.85501,62.7238
2023-03-14 18:14:13:52,-0.840124,2.13936,-9.49228,-12.8045,-4.85855,62.7186
2023-03-14 18:14:13:62,-0.843237,2.15746,-9.50555,-12.8042,-4.86092,62.7177
2023-03-14 18:14:13:72,-0.844333,2.16466,-9.51784,-12.8046,-4.86387,62.716
2023-03-14 18:14:13:82,-0.844275,2.15285,-9.53158,-12.8042,-4.86561,62.7116
2023-03-14 18:14:13:92,-0.830969,2.1524,-9.54892,-12.8021,-4.86718,62.7087
2023-03-14 18:14:13:102,-0.805404,2.15217,-9.53945,-12.7966,-4.86692,62.7046
2023-03-14 18:14:13:112,-0.806584,2.14663,-9.51871,-12.7923,-4.86672,62.7036
2023-03-14 18:14:13:122,-0.795467,2.14213,-9.52067,-12.7947,-4.87323,62.7077
2023-03-14 18:14:13:132,-0.818072,2.15407,-9.52123,-12.7989,-4.87725,62.7106
2023-03-14 18:14:13:142,-0.835506,2.16383,-9.51143,-12.8018,-4.87727,62.712
2023-03-14 18:14:13:152,-0.849987,2.17786,-9.51029,-12.8043,-4.88162,62.7124
2023-03-14 18:14:13:162,-0.852589,2.17768,-9.48235,-12.8045,-4.88413,62.7118
2023-03-14 18:14:13:172,-0.862832,2.16603,-9.4843,-12.8074,-4.88308,62.7146
2023-03-14 18:14:13:182,-0.875205,2.18339,-9.47947,-12.8106,-4.88434,62.7137
2023-03-14 18:14:13:192,-0.862312,2.20406,-9.49155,-12.8171,-4.88346,62.7131
2023-03-14 18:14:13:202,-0.873386,2.2165,-9.49897,-12.8198,-4.88047,62.7063
2023-03-14 18:14:13:212,-0.872183,2.22488,-9.50381,-12.8216,-4.87607,62.6988
2023-03-14 18:14:13:222,-0.85493,2.22735,-9.50619,-12.825,-4.87109,62.6916
2023-03-14 18:14:13:232,-0.839291,2.21901,-9.51922,-12.8246,-4.86779,62.6822
2023-03-14 18:14:13:242,-0.819846,2.20827,-9.53073,-12.8239,-4.85975,62.6743
2023-03-14 18:14:13:252,-0.816962,2.21446,-9.52811,-12.8251,-4.85754,62.6664
2023-03-14 18:14:13:262,-0.811158,2.20334,-9.53517,-12.8275,-4.85195,62.6612
2023-03-14 18:14:13:272,-0.807825,2.20427,-9.5181,-12.8329,-4.84764,62.6553
2023-03-14 18:14:13:282,-0.805359,2.20908,-9.51838,-12.8344,-4.84334,62.6466
2023-03-14 18:14:13:292,-0.798352,2.21305,-9.52465,-12.8388,-4.84127,62.6406
2023-03-14 18:14:13:302,-0.783319,2.2454,-9.52026,-12.8408,-4.83753,62.634
2023-03-14 18:14:13:312,-0.800421,2.24107,-9.5298,-12.8435,-4.83935,62.6267
2023-03-14 18:14:13:322,-0.836498,2.25504,-9.52536,-12.8474,-4.83661,62.6247
2023-03-14 18:14:13:332,-0.843925,2.2584,-9.52513,-12.8461,-4.83495,62.6166
2023-03-14 18:14:13:342,-0.827401,2.24796,-9.51835,-12.8457,-4.83321,62.6085
2023-03-14 18:14:13:352,-0.781667,2.24101,-9.53909,-12.8369,-4.8287,62.5994
2023-03-14 18:14:13:362,-0.736113,2.2033,-9.53466,-12.8308,-4.82937,62.5923
2023-03-14 18:14:13:372,-0.734761,2.17015,-9.50959,-12.8268,-4.83214,62.5884
2023-03-14 18:14:13:382,-0.749317,2.1624,-9.49358,-12.8198,-4.83513,62.5862
2023-03-14 18:14:13:392,-0.764816,2.16444,-9.48864,-12.8167,-4.83971,62.5817
2023-03-14 18:14:13:402,-0.796378,2.18357,-9.51064,-12.8169,-4.84587,62.5814
2023-03-14 18:14:13:412,-0.804601,2.18774,-9.54239,-12.8166,-4.84952,62.5811
2023-03-14 18:14:13:422,-0.80242,2.2096,-9.5452,-12.8188,-4.85315,62.5794
2023-03-14 18:14:13:432,-0.800223,2.22317,-9.56306,-12.8177,-4.85966,62.5808
2023-03-14 18:14:13:442,-0.806014,2.23398,-9.55437,-12.816,-4.86092,62.5814
2023-03-14 18:14:13:452,-0.808557,2.2295,-9.53234,-12.8133,-4.86458,62.5864
2023-03-14 18:14:13:462,-0.820873,2.21611,-9.5112,-12.8087,-4.86645,62.5928
2023-03-14 18:14:13:472,-0.825108,2.19541,-9.50359,-12.8034,-4.87214,62.6001
2023-03-14 18:14:13:482,-0.836759,2.17912,-9.49454,-12.7966,-4.87149,62.6057
2023-03-14 18:14:13:492,-0.851502,2.1586,-9.47123,-12.7904,-4.87571,62.61
2023-03-14 18:14:13:502,-0.864268,2.13974,-9.47377,-12.7806,-4.87947,62.6174
2023-03-14 18:14:13:512,-0.862558,2.12831,-9.4906,-12.7766,-4.87988,62.6192
2023-03-14 18:14:13:522,-0.854374,2.14861,-9.49866,-12.7713,-4.88022,62.624
2023-03-14 18:14:13:532,-0.85775,2.13893,-9.51741,-12.767,-4.88187,62.6235
2023-03-14 18:14:13:542,-0.8371,2.14433,-9.50385,-12.7633,-4.88513,62.6189
2023-03-14 18:14:13:552,-0.833442,2.14477,-9.50965,-12.76,-4.88699,62.6163
2023-03-14 18:14:13:562,-0.833523,2.14589,-9.51981,-12.7587,-4.88925,62.6143
2023-03-14 18:14:13:572,-0.834969,2.15566,-9.51067,-12.7602,-4.89009,62.6096
2023-03-14 18:14:13:582,-0.823523,2.14932,-9.51302,-12.7574,-4.88886,62.6103
2023-03-14 18:14:13:592,-0.835127,2.14735,-9.51744,-12.7597,-4.88436,62.6078
2023-03-14 18:14:13:602,-0.834179,2.14806,-9.50845,-12.7617,-4.88241,62.6091
2023-03-14 18:14:13:612,-0.833722,2.15691,-9.49389,-12.7634,-4.8762,62.606
2023-03-14 18:14:13:622,-0.822999,2.17445,-9.49733,-12.7634,-4.87187,62.6042
2023-03-14 18:14:13:632,-0.822324,2.18229,-9.51929,-12.7695,-4.86984,62.6021
2023-03-14 18:14:13:642,-0.823801,2.18589,-9.53139,-12.7739,-4.86674,62.6006
2023-03-14 18:14:13:652,-0.83449,2.19888,-9.54099,-12.7745,-4.86691,62.5962
2023-03-14 18:14:13:662,-0.835329,2.21206,-9.5568,-12.772,-4.86364,62.5908
2023-03-14 18:14:13:672,-0.82433,2.20672,-9.56387,-12.768,-4.86341,62.5845
2023-03-14 18:14:13:682,-0.799061,2.1933,-9.52893,-12.7622,-4.86104,62.5799
2023-03-14 18:14:13:692,-0.792373,2.15928,-9.5121,-12.7577,-4.85624,62.5755
2023-03-14 18:14:13:702,-0.784792,2.16245,-9.50644,-12.758,-4.8569,62.5727
2023-03-14 18:14:13:712,-0.781238,2.16165,-9.50566,-12.7583,-4.85269,62.5678
2023-03-14 18:14:13:722,-0.766385,2.1551,-9.50367,-12.7578,-4.84908,62.5644
2023-03-14 18:14:13:732,-0.764237,2.15073,-9.49977,-12.7596,-4.846,62.5627
2023-03-14 18:14:13:742,-0.768295,2.15909,-9.49726,-12.7583,-4.84496,62.5605
2023-03-14 18:14:13:752,-0.777342,2.16806,-9.51653,-12.7594,-4.84626,62.5603
2023-03-14 18:14:13:762,-0.795376,2.17051,-9.53039,-12.7586,-4.84789,62.5614
2023-03-14 18:14:13:772,-0.802772,2.17318,-9.51629,-12.7574,-4.84968,62.565
2023-03-14 18:14:13:782,-0.795744,2.17112,-9.51456,-12.7581,-4.85139,62.5694
2023-03-14 18:14:13:792,-0.802576,2.17234,-9.51206,-12.7573,-4.8529,62.57
2023-03-14 18:14:13:802,-0.800192,2.17812,-9.51106,-12.7575,-4.85453,62.5702
2023-03-14 18:14:13:812,-0.781436,2.17072,-9.51609,-12.7587,-4.85675,62.5733
2023-03-14 18:14:13:822,-0.788572,2.16791,-9.51478,-12.7609,-4.86417,62.5719
2023-03-14 18:14:13:832,-0.801272,2.17026,-9.50054,-12.7644,-4.86709,62.5742
2023-03-14 18:14:13:842,-0.812392,2.17895,-9.50704,-12.7671,-4.87182,62.5791
2023-03-14 18:14:13:852,-0.806918,2.19814,-9.5128,-12.7731,-4.87721,62.5859
2023-03-14 18:14:13:862,-0.813932,2.20635,-9.51894,-12.7797,-4.87915,62.5917
2023-03-14 18:14:13:872,-0.833892,2.22399,-9.52815,-12.7872,-4.88198,62.5995
2023-03-14 18:14:13:882,-0.829921,2.23112,-9.54997,-12.7939,-4.88357,62.6055
2023-03-14 18:14:13:892,-0.838811,2.24275,-9.56868,-12.7994,-4.88412,62.6098
2023-03-14 18:14:13:902,-0.864836,2.24295,-9.57393,-12.8004,-4.88595,62.6173
2023-03-14 18:14:13:912,-0.876203,2.23291,-9.55437,-12.7965,-4.891,62.6216
2023-03-14 18:14:13:922,-0.859504,2.21789,-9.54935,-12.7941,-4.89404,62.6247
2023-03-14 18:14:13:932,-0.834055,2.21318,-9.52614,-12.7892,-4.89679,62.6243
2023-03-14 18:14:13:942,-0.823092,2.19065,-9.4975,-12.783,-4.90393,62.6252
2023-03-14 18:14:13:952,-0.818465,2.18182,-9.47811,-12.7772,-4.91028,62.6244
2023-03-14 18:14:13:962,-0.809613,2.17635,-9.48125,-12.7731,-4.91269,62.6226
2023-03-14 18:14:13:972,-0.797501,2.16147,-9.49892,-12.773,-4.91709,62.6224
2023-03-14 18:14:13:982,-0.818348,2.16425,-9.52079,-12.7723,-4.9221,62.6236
2023-03-14 18:14:13:992,-0.827657,2.17563,-9.55183,-12.7712,-4.92605,62.626
2023-03-14 18:14:14:2,-0.795382,2.18058,-9.55617,-12.7685,-4.92608,62.6249
2023-03-14 18:14:14:12,-0.77747,2.17138,-9.54405,-12.7644,-4.92906,62.6278
2023-03-14 18:14:14:22,-0.786849,2.16858,-9.54272,-12.7585,-4.93791,62.6356
2023-03-14 18:14:14:32,-0.841296,2.15743,-9.53017,-12.7586,-4.94335,62.6448
2023-03-14 18:14:14:42,-0.866085,2.16346,-9.5163,-12.7536,-4.94927,62.6519
2023-03-14 18:14:14:52,-0.874634,2.1799,-9.49472,-12.7548,-4.95426,62.6603
2023-03-14 18:14:14:62,-0.882215,2.16649,-9.47565,-12.7556,-4.9616,62.669
2023-03-14 18:14:14:72,-0.889478,2.17509,-9.48334,-12.7558,-4.96672,62.6772
2023-03-14 18:14:14:82,-0.893433,2.18185,-9.47968,-12.7576,-4.96995,62.6834
2023-03-14 18:14:14:92,-0.883092,2.1852,-9.49197,-12.7609,-4.97369,62.6866
2023-03-14 18:14:14:102,-0.883617,2.17879,-9.48163,-12.7624,-4.9754,62.6872
2023-03-14 18:14:14:112,-0.873552,2.17365,-9.48358,-12.7646,-4.97428,62.6904
2023-03-14 18:14:14:122,-0.88879,2.18716,-9.47821,-12.7662,-4.97726,62.6876
2023-03-14 18:14:14:132,-0.886247,2.19696,-9.50612,-12.7705,-4.98001,62.6895
2023-03-14 18:14:14:142,-0.883394,2.21224,-9.52173,-12.7778,-4.98234,62.6888
2023-03-14 18:14:14:152,-0.87432,2.20706,-9.53795,-12.7796,-4.97933,62.6885
2023-03-14 18:14:14:162,-0.86905,2.20911,-9.54256,-12.7816,-4.97949,62.687
2023-03-14 18:14:14:172,-0.868585,2.20451,-9.52663,-12.7851,-4.9752,62.6837
2023-03-14 18:14:14:182,-0.853539,2.19098,-9.51455,-12.7866,-4.97182,62.6819
2023-03-14 18:14:14:192,-0.851266,2.20342,-9.52308,-12.7903,-4.9698,62.677
2023-03-14 18:14:14:202,-0.838937,2.21271,-9.53421,-12.7945,-4.96316,62.6711
2023-03-14 18:14:14:212,-0.82797,2.20872,-9.53422,-12.7979,-4.96043,62.6639
2023-03-14 18:14:14:222,-0.83645,2.20885,-9.51587,-12.8,-4.95852,62.6583
2023-03-14 18:14:14:232,-0.842624,2.20435,-9.51716,-12.7994,-4.95613,62.6523
2023-03-14 18:14:14:242,-0.842471,2.21344,-9.53352,-12.7984,-4.95372,62.6469
2023-03-14 18:14:14:252,-0.825873,2.23414,-9.52228,-12.7953,-4.95025,62.6394
2023-03-14 18:14:14:262,-0.806077,2.2365,-9.54035,-12.7924,-4.94378,62.6325
2023-03-14 18:14:14:272,-0.767518,2.20396,-9.53053,-12.7853,-4.94086,62.6268
2023-03-14 18:14:14:282,-0.777792,2.16599,-9.50506,-12.7766,-4.94158,62.6206
2023-03-14 18:14:14:292,-0.784178,2.15919,-9.50392,-12.7728,-4.9442,62.6183
2023-03-14 18:14:14:302,-0.790584,2.15687,-9.51324,-12.7685,-4.94844,62.6163
2023-03-14 18:14:14:312,-0.818848,2.15204,-9.53378,-12.766,-4.95163,62.6152
2023-03-14 18:14:14:322,-0.844097,2.15994,-9.54768,-12.765,-4.95355,62.612
2023-03-14 18:14:14:332,-0.842024,2.16638,-9.54481,-12.7611,-4.95898,62.6071
2023-03-14 18:14:14:342,-0.833457,2.15933,-9.53416,-12.7576,-4.96159,62.6055
2023-03-14 18:14:14:352,-0.816787,2.16969,-9.52302,-12.7522,-4.95999,62.6062
2023-03-14 18:14:14:362,-0.81575,2.17948,-9.52632,-12.7494,-4.96037,62.604
2023-03-14 18:14:14:372,-0.815872,2.16718,-9.51992,-12.7445,-4.95945,62.6009
2023-03-14 18:14:14:382,-0.796797,2.14462,-9.5161,-12.7378,-4.9622,62.5958
2023-03-14 18:14:14:392,-0.79524,2.14336,-9.50151,-12.7318,-4.96519,62.5972
2023-03-14 18:14:14:402,-0.804813,2.13635,-9.49682,-12.7257,-4.9681,62.5994
2023-03-14 18:14:14:412,-0.800564,2.1269,-9.47433,-12.7211,-4.97063,62.6011
2023-03-14 18:14:14:422,-0.795495,2.11722,-9.46087,-12.7171,-4.97154,62.6064
2023-03-14 18:14:14:432,-0.801928,2.12973,-9.48172,-12.7152,-4.96903,62.6123
2023-03-14 18:14:14:442,-0.805121,2.13806,-9.49236,-12.7147,-4.96862,62.6206
2023-03-14 18:14:14:452,-0.805657,2.1485,-9.50134,-12.715,-4.97168,62.6284
2023-03-14 18:14:14:462,-0.815931,2.15043,-9.51909,-12.7208,-4.97045,62.6371
2023-03-14 18:14:14:472,-0.835958,2.17131,-9.53465,-12.7279,-4.97233,62.6445
2023-03-14 18:14:14:482,-0.843449,2.19566,-9.53672,-12.7354,-4.97384,62.6542
2023-03-14 18:14:14:492,-0.843872,2.19096,-9.54319,-12.7383,-4.97586,62.6639
2023-03-14 18:14:14:502,-0.871015,2.19598,-9.54528,-12.7407,-4.97498,62.6742
2023-03-14 18:14:14:512,-0.889732,2.20617,-9.53264,-12.7389,-4.97964,62.6852
2023-03-14 18:14:14:522,-0.900363,2.20027,-9.5183,-12.7382,-4.97952,62.6907
2023-03-14 18:14:14:532,-0.893195,2.19198,-9.51314,-12.7374,-4.97719,62.6951
2023-03-14 18:14:14:542,-0.896091,2.20149,-9.5156,-12.7386,-4.97386,62.6982
2023-03-14 18:14:14:552,-0.88595,2.18352,-9.49751,-12.7377,-4.96994,62.699
2023-03-14 18:14:14:562,-0.873903,2.18335,-9.49999,-12.738,-4.96774,62.6957
2023-03-14 18:14:14:572,-0.869001,2.19238,-9.51404,-12.7409,-4.96324,62.6921
2023-03-14 18:14:14:582,-0.856702,2.18971,-9.51765,-12.7403,-4.95964,62.6888
2023-03-14 18:14:14:592,-0.845281,2.20334,-9.52815,-12.741,-4.95478,62.6859
2023-03-14 18:14:14:602,-0.842221,2.21915,-9.54724,-12.7383,-4.95217,62.6773
2023-03-14 18:14:14:612,-0.821135,2.2116,-9.55084,-12.7355,-4.94743,62.6728
2023-03-14 18:14:14:622,-0.816281,2.19485,-9.55088,-12.7315,-4.94667,62.6681
2023-03-14 18:14:14:632,-0.82582,2.19423,-9.53617,-12.7298,-4.94723,62.6646
2023-03-14 18:14:14:642,-0.818582,2.19561,-9.52335,-12.7283,-4.94414,62.6599
2023-03-14 18:14:14:652,-0.788173,2.18144,-9.52327,-12.7201,-4.93791,62.6531
2023-03-14 18:14:14:662,-0.770109,2.16577,-9.50893,-12.7097,-4.93748,62.6474
2023-03-14 18:14:14:672,-0.768931,2.15913,-9.50688,-12.7051,-4.93503,62.641
2023-03-14 18:14:14:682,-0.776034,2.15151,-9.51676,-12.7024,-4.93422,62.6385
2023-03-14 18:14:14:692,-0.768175,2.13923,-9.50939,-12.7014,-4.93461,62.6379
2023-03-14 18:14:14:702,-0.774562,2.14138,-9.50065,-12.6995,-4.93683,62.6389
2023-03-14 18:14:14:712,-0.773154,2.14005,-9.49616,-12.6977,-4.93677,62.6399
2023-03-14 18:14:14:722,-0.777903,2.14883,-9.51166,-12.6959,-4.939,62.6442
2023-03-14 18:14:14:732,-0.782355,2.15855,-9.5283,-12.6967,-4.9402,62.6493
2023-03-14 18:14:14:742,-0.795133,2.16146,-9.53582,-12.6953,-4.94402,62.6499
2023-03-14 18:14:14:752,-0.803902,2.17493,-9.52484,-12.6896,-4.94774,62.6521
2023-03-14 18:14:14:762,-0.820243,2.17702,-9.5138,-12.6865,-4.95241,62.6588
2023-03-14 18:14:14:772,-0.825258,2.16376,-9.51758,-12.6865,-4.95964,62.6661
2023-03-14 18:14:14:782,-0.837217,2.15094,-9.51406,-12.684,-4.96766,62.6728
2023-03-14 18:14:14:792,-0.834532,2.14421,-9.50457,-12.6814,-4.97454,62.6792
2023-03-14 18:14:14:802,-0.855145,2.13515,-9.49302,-12.6823,-4.98363,62.6901
2023-03-14 18:14:14:812,-0.861282,2.13907,-9.5041,-12.6801,-4.98945,62.698
2023-03-14 18:14:14:822,-0.877496,2.14989,-9.52354,-12.6798,-4.99364,62.7034
2023-03-14 18:14:14:832,-0.872218,2.15809,-9.53199,-12.6809,-4.99941,62.7101
2023-03-14 18:14:14:842,-0.878077,2.16003,-9.5183,-12.6817,-5.00413,62.7131
2023-03-14 18:14:14:852,-0.871452,2.16508,-9.50899,-12.6814,-5.00943,62.7168
2023-03-14 18:14:14:862,-0.8692,2.17234,-9.51448,-12.6783,-5.01169,62.7218
2023-03-14 18:14:14:872,-0.87281,2.16653,-9.51815,-12.6767,-5.01583,62.7229
2023-03-14 18:14:14:882,-0.878502,2.16566,-9.51623,-12.6748,-5.01869,62.724
2023-03-14 18:14:14:892,-0.877535,2.15268,-9.51625,-12.6723,-5.02053,62.7254
2023-03-14 18:14:14:902,-0.859399,2.14837,-9.51439,-12.6697,-5.02538,62.7275
2023-03-14 18:14:14:912,-0.838593,2.14311,-9.53227,-12.6708,-5.02862,62.7268
2023-03-14 18:14:14:922,-0.838383,2.13686,-9.54246,-12.6709,-5.03041,62.727
2023-03-14 18:14:14:932,-0.824292,2.13679,-9.55129,-12.6677,-5.03001,62.7279
2023-03-14 18:14:14:942,-0.795501,2.11867,-9.52343,-12.6611,-5.03096,62.7262
2023-03-14 18:14:14:952,-0.781129,2.1047,-9.50581,-12.6612,-5.03573,62.7333
2023-03-14 18:14:14:962,-0.789848,2.11258,-9.49148,-12.6638,-5.04083,62.7395
2023-03-14 18:14:14:972,-0.834325,2.12812,-9.50156,-12.6706,-5.04455,62.7521
2023-03-14 18:14:14:982,-0.865173,2.1613,-9.52218,-12.6737,-5.05311,62.7629
2023-03-14 18:14:14:992,-0.886659,2.1724,-9.52656,-12.6792,-5.05713,62.7719
2023-03-14 18:14:15:2,-0.891849,2.17873,-9.5155,-12.6824,-5.06095,62.7785
2023-03-14 18:14:15:12,-0.884346,2.1811,-9.49936,-12.6875,-5.06258,62.7846
2023-03-14 18:14:15:22,-0.879701,2.16238,-9.48462,-12.6881,-5.06114,62.7904
2023-03-14 18:14:15:32,-0.89257,2.15697,-9.4679,-12.692,-5.06147,62.7956
2023-03-14 18:14:15:42,-0.895977,2.15506,-9.45082,-12.696,-5.06369,62.7996
2023-03-14 18:14:15:52,-0.891365,2.14935,-9.45267,-12.6969,-5.06444,62.8006
2023-03-14 18:14:15:62,-0.8891,2.15388,-9.46895,-12.7012,-5.06511,62.7982
2023-03-14 18:14:15:72,-0.88446,2.17103,-9.50163,-12.7126,-5.06144,62.7961
2023-03-14 18:14:15:82,-0.88505,2.18034,-9.54062,-12.7218,-5.06073,62.7937
2023-03-14 18:14:15:92,-0.886883,2.20027,-9.55522,-12.7277,-5.06405,62.794
2023-03-14 18:14:15:102,-0.883184,2.2239,-9.57819,-12.7366,-5.06216,62.7921
2023-03-14 18:14:15:112,-0.869171,2.2423,-9.59361,-12.7423,-5.05996,62.7891
2023-03-14 18:14:15:122,-0.862228,2.24903,-9.57416,-12.7435,-5.05693,62.7863
2023-03-14 18:14:15:132,-0.854528,2.23192,-9.56961,-12.745,-5.05695,62.7832
2023-03-14 18:14:15:142,-0.835959,2.2241,-9.56561,-12.7484,-5.05346,62.7822
2023-03-14 18:14:15:152,-0.841189,2.24299,-9.52897,-12.748,-5.0528,62.7816
2023-03-14 18:14:15:162,-0.865061,2.22017,-9.50183,-12.7461,-5.04739,62.7801
2023-03-14 18:14:15:172,-0.894455,2.20731,-9.46372,-12.7426,-5.04435,62.7821
2023-03-14 18:14:15:182,-0.887104,2.20952,-9.46828,-12.7444,-5.03975,62.7802
2023-03-14 18:14:15:192,-0.839401,2.20308,-9.51565,-12.7424,-5.03168,62.7756
2023-03-14 18:14:15:202,-0.78755,2.19338,-9.54909,-12.7411,-5.02849,62.7742
2023-03-14 18:14:15:212,-0.783319,2.16835,-9.54219,-12.735,-5.0279,62.7698
2023-03-14 18:14:15:222,-0.81059,2.16382,-9.52484,-12.7314,-5.03031,62.7699
2023-03-14 18:14:15:232,-0.820636,2.16899,-9.519,-12.7287,-5.03469,62.7682
2023-03-14 18:14:15:242,-0.821658,2.16715,-9.5288,-12.7235,-5.04044,62.7657
2023-03-14 18:14:15:252,-0.833193,2.18341,-9.53022,-12.7232,-5.04421,62.7682
2023-03-14 18:14:15:262,-0.837248,2.1945,-9.53657,-12.7229,-5.04761,62.7681
2023-03-14 18:14:15:272,-0.834468,2.18778,-9.53591,-12.7187,-5.04836,62.7699
2023-03-14 18:14:15:282,-0.83648,2.19035,-9.53428,-12.7159,-5.05178,62.7759
2023-03-14 18:14:15:292,-0.84256,2.19346,-9.52661,-12.7142,-5.05704,62.7793
2023-03-14 18:14:15:302,-0.855147,2.1763,-9.51486,-12.7078,-5.0603,62.7831
2023-03-14 18:14:15:312,-0.861859,2.17781,-9.4959,-12.7036,-5.06451,62.7868
2023-03-14 18:14:15:322,-0.856654,2.18466,-9.47171,-12.699,-5.07036,62.7916
2023-03-14 18:14:15:332,-0.858141,2.17033,-9.47845,-12.693,-5.07535,62.7937
2023-03-14 18:14:15:342,-0.881581,2.1493,-9.48995,-12.684,-5.07839,62.7967
2023-03-14 18:14:15:352,-0.895785,2.14942,-9.49628,-12.6756,-5.08089,62.8013
2023-03-14 18:14:15:362,-0.88948,2.14202,-9.49875,-12.6725,-5.08585,62.804
2023-03-14 18:14:15:372,-0.864353,2.13343,-9.51252,-12.6652,-5.09004,62.8055
2023-03-14 18:14:15:382,-0.85616,2.14069,-9.50729,-12.6594,-5.0965,62.8058
2023-03-14 18:14:15:392,-0.870262,2.14348,-9.5091,-12.659,-5.10223,62.8065
2023-03-14 18:14:15:402,-0.895348,2.15476,-9.51961,-12.6609,-5.1078,62.8093
2023-03-14 18:14:15:412,-0.912647,2.1795,-9.54414,-12.6631,-5.10707,62.8097
2023-03-14 18:14:15:422,-0.909818,2.19274,-9.55325,-12.6647,-5.10961,62.8103
2023-03-14 18:14:15:432,-0.899681,2.18591,-9.52492,-12.6601,-5.11115,62.8091
2023-03-14 18:14:15:442,-0.900194,2.18233,-9.51053,-12.6547,-5.11333,62.8101
2023-03-14 18:14:15:452,-0.888678,2.1775,-9.52385,-12.6536,-5.11399,62.8102
2023-03-14 18:14:15:462,-0.877235,2.17586,-9.52883,-12.6485,-5.11145,62.8101
2023-03-14 18:14:15:472,-0.891869,2.1753,-9.51853,-12.6411,-5.1101,62.8064
2023-03-14 18:14:15:482,-0.873791,2.15118,-9.50813,-12.6342,-5.10718,62.8016
2023-03-14 18:14:15:492,-0.857933,2.14256,-9.50306,-12.6246,-5.10344,62.7985
2023-03-14 18:14:15:502,-0.875089,2.13995,-9.50823,-12.6207,-5.10193,62.7986
2023-03-14 18:14:15:512,-0.899436,2.13891,-9.51722,-12.6198,-5.10089,62.7956
2023-03-14 18:14:15:522,-0.918906,2.16631,-9.53866,-12.614,-5.10366,62.7883
2023-03-14 18:14:15:532,-0.915278,2.19617,-9.55573,-12.6082,-5.10474,62.7738
2023-03-14 18:14:15:542,-0.907131,2.20899,-9.59694,-12.5971,-5.09887,62.7629
2023-03-14 18:14:15:552,-0.856038,2.14011,-9.49869,-12.5818,-5.09516,62.7447
2023-03-14 18:14:15:562,-0.844385,2.19461,-9.54176,-12.5662,-5.07158,62.7295
2023-03-14 18:14:15:572,-0.811821,2.19816,-9.58367,-12.5396,-5.04953,62.7139
2023-03-14 18:14:15:582,-0.752234,2.05084,-9.45793,-12.5169,-5.04208,62.7009
2023-03-14 18:14:15:592,-0.731407,2.02215,-9.39519,-12.5067,-5.03991,62.6926
2023-03-14 18:14:15:602,-0.75596,2.10372,-9.49314,-12.5036,-5.03487,62.6925
2023-03-14 18:14:15:612,-0.775696,2.13731,-9.53399,-12.5,-5.03319,62.6909
2023-03-14 18:14:15:622,-0.767624,2.11024,-9.52039,-12.4919,-5.03294,62.6928
2023-03-14 18:14:15:632,-0.800975,2.09033,-9.49057,-12.4872,-5.03112,62.6972
2023-03-14 18:14:15:642,-0.813724,2.08206,-9.48049,-12.4872,-5.02812,62.7006
2023-03-14 18:14:15:652,-0.830797,2.09921,-9.49096,-12.4872,-5.03102,62.7066
2023-03-14 18:14:15:662,-0.861748,2.12833,-9.49816,-12.4895,-5.02865,62.713
2023-03-14 18:14:15:672,-0.871118,2.12271,-9.50842,-12.4901,-5.03418,62.7177
2023-03-14 18:14:15:682,-0.849766,2.11864,-9.51764,-12.4892,-5.03722,62.721
2023-03-14 18:14:15:692,-0.814194,2.1119,-9.5411,-12.4908,-5.03822,62.7223
2023-03-14 18:14:15:702,-0.779453,2.11941,-9.55773,-12.4886,-5.03668,62.7261
2023-03-14 18:14:15:712,-0.771046,2.13364,-9.57266,-12.4886,-5.03298,62.7367
2023-03-14 18:14:15:722,-0.802574,2.13452,-9.58232,-12.4861,-5.03192,62.7481
2023-03-14 18:14:15:732,-0.840064,2.13327,-9.5857,-12.4771,-5.03228,62.7655
2023-03-14 18:14:15:742,-0.860345,2.11212,-9.58295,-12.4697,-5.03044,62.784
2023-03-14 18:14:15:752,-0.862718,2.11511,-9.6417,-12.4629,-5.03338,62.8018
2023-03-14 18:14:15:762,-0.86663,2.20111,-9.69599,-12.4502,-5.05173,62.815
2023-03-14 18:14:15:772,-0.935605,2.17875,-9.5791,-12.4267,-5.08538,62.821
2023-03-14 18:14:15:782,-1.08541,2.06818,-9.39544,-12.4041,-5.12014,62.8197
2023-03-14 18:14:15:792,-1.1254,2.06065,-9.36041,-12.3892,-5.15009,62.8092
2023-03-14 18:14:15:802,-1.05036,2.08309,-9.40773,-12.3764,-5.17615,62.787
2023-03-14 18:14:15:812,-0.997007,2.08634,-9.46738,-12.3655,-5.19484,62.7549
2023-03-14 18:14:15:822,-0.935414,2.06901,-9.48327,-12.357,-5.21478,62.7175
2023-03-14 18:14:15:832,-0.856145,2.05981,-9.48527,-12.3474,-5.22772,62.6776
2023-03-14 18:14:15:842,-0.792425,2.0526,-9.49929,-12.3439,-5.23756,62.6428
2023-03-14 18:14:15:852,-0.762118,2.05179,-9.5121,-12.3401,-5.24533,62.6127
2023-03-14 18:14:15:862,-0.742765,2.05572,-9.52369,-12.3424,-5.25032,62.5884
2023-03-14 18:14:15:872,-0.750052,2.06953,-9.53009,-12.3434,-5.24997,62.5706
2023-03-14 18:14:15:882,-0.782891,2.08402,-9.53225,-12.3439,-5.25032,62.5654
2023-03-14 18:14:15:892,-0.787756,2.08777,-9.52297,-12.3473,-5.24882,62.562
2023-03-14 18:14:15:902,-0.803448,2.10147,-9.51249,-12.3508,-5.24796,62.5651
2023-03-14 18:14:15:912,-0.83692,2.10741,-9.50925,-12.3548,-5.24679,62.5703
2023-03-14 18:14:15:922,-0.866978,2.11339,-9.51212,-12.3588,-5.24706,62.5793
2023-03-14 18:14:15:932,-0.895835,2.12782,-9.50987,-12.3644,-5.24207,62.5891
2023-03-14 18:14:15:942,-0.909229,2.1294,-9.50227,-12.3665,-5.23888,62.597
2023-03-14 18:14:15:952,-0.934856,2.12467,-9.48064,-12.3689,-5.23379,62.6034
2023-03-14 18:14:15:962,-0.939641,2.12326,-9.47628,-12.3736,-5.23347,62.6058
2023-03-14 18:14:15:972,-0.913609,2.11306,-9.50044,-12.3811,-5.23322,62.6064
2023-03-14 18:14:15:982,-0.892825,2.11898,-9.52341,-12.3858,-5.23169,62.6021
2023-03-14 18:14:15:992,-0.881183,2.13066,-9.53746,-12.3935,-5.23147,62.5994
2023-03-14 18:14:16:2,-0.86805,2.15093,-9.58274,-12.3989,-5.23343,62.5937
2023-03-14 18:14:16:12,-0.854369,2.16432,-9.60398,-12.4013,-5.23549,62.587
2023-03-14 18:14:16:22,-0.862651,2.17666,-9.59316,-12.4032,-5.24363,62.5755
2023-03-14 18:14:16:32,-0.85962,2.16185,-9.6423,-12.4013,-5.25381,62.5645
2023-03-14 18:14:16:42,-0.785515,2.22401,-9.70554,-12.3992,-5.2689,62.5567
2023-03-14 18:14:16:52,-0.842201,2.22532,-9.64718,-12.3866,-5.29998,62.5519
2023-03-14 18:14:16:62,-0.986401,2.17223,-9.52765,-12.3721,-5.33742,62.5447
2023-03-14 18:14:16:72,-1.01456,2.13479,-9.47296,-12.3561,-5.37013,62.5278
2023-03-14 18:14:16:82,-0.982137,2.10465,-9.4535,-12.3402,-5.40053,62.5075
2023-03-14 18:14:16:92,-0.960841,2.10749,-9.44133,-12.3287,-5.42571,62.484
2023-03-14 18:14:16:102,-0.897465,2.10105,-9.45802,-12.3205,-5.44601,62.4585
2023-03-14 18:14:16:112,-0.810676,2.07511,-9.48972,-12.3106,-5.46475,62.4317
2023-03-14 18:14:16:122,-0.793996,2.08321,-9.50113,-12.3011,-5.48204,62.4124
2023-03-14 18:14:16:132,-0.802681,2.079,-9.51571,-12.2923,-5.49645,62.3997
2023-03-14 18:14:16:142,-0.82904,2.07932,-9.52412,-12.2874,-5.5073,62.3932
2023-03-14 18:14:16:152,-0.850598,2.08632,-9.53026,-12.2826,-5.51257,62.3977
2023-03-14 18:14:16:162,-0.872134,2.07964,-9.53333,-12.2786,-5.52021,62.4024
2023-03-14 18:14:16:172,-0.906331,2.08203,-9.53298,-12.2796,-5.52315,62.4145
2023-03-14 18:14:16:182,-0.93104,2.09361,-9.53692,-12.2802,-5.52356,62.4286
2023-03-14 18:14:16:192,-0.954178,2.10839,-9.53197,-12.2805,-5.52477,62.4449
2023-03-14 18:14:16:202,-0.960487,2.10996,-9.52477,-12.2797,-5.52356,62.4609
2023-03-14 18:14:16:212,-0.977552,2.10768,-9.53903,-12.2813,-5.52036,62.4794
2023-03-14 18:14:16:222,-1.00338,2.10136,-9.53629,-12.2769,-5.5185,62.4905
2023-03-14 18:14:16:232,-1.01119,2.08596,-9.50554,-12.2699,-5.51847,62.4996
2023-03-14 18:14:16:242,-1.00304,2.07235,-9.50312,-12.2646,-5.51745,62.508
2023-03-14 18:14:16:252,-0.989497,2.07604,-9.48421,-12.259,-5.51877,62.5102
2023-03-14 18:14:16:262,-0.98991,2.05513,-9.47095,-12.2529,-5.51833,62.5132
2023-03-14 18:14:16:272,-0.985078,2.03215,-9.47802,-12.2516,-5.5201,62.5136
2023-03-14 18:14:16:282,-0.977601,2.04529,-9.48961,-12.2488,-5.52255,62.5144
2023-03-14 18:14:16:292,-0.958988,2.05412,-9.51054,-12.2484,-5.52266,62.5176
2023-03-14 18:14:16:302,-0.961013,2.07249,-9.52944,-12.2473,-5.52099,62.517
2023-03-14 18:14:16:312,-0.96939,2.08432,-9.54354,-12.2482,-5.52073,62.5167
2023-03-14 18:14:16:322,-0.957798,2.09652,-9.55248,-12.2469,-5.51593,62.5147
2023-03-14 18:14:16:332,-0.959333,2.09732,-9.55296,-12.2474,-5.51248,62.5142
2023-03-14 18:14:16:342,-0.956408,2.11204,-9.5374,-12.2463,-5.50828,62.5136
2023-03-14 18:14:16:352,-0.955691,2.10074,-9.51471,-12.2455,-5.50487,62.5153
2023-03-14 18:14:16:362,-0.950512,2.0807,-9.51572,-12.2476,-5.49745,62.5138
2023-03-14 18:14:16:372,-0.950685,2.07432,-9.50108,-12.2482,-5.49125,62.5092
2023-03-14 18:14:16:382,-0.944187,2.08116,-9.49728,-12.2461,-5.48755,62.5079
2023-03-14 18:14:16:392,-0.935722,2.08982,-9.49863,-12.2446,-5.48118,62.5008
2023-03-14 18:14:16:402,-0.920648,2.07481,-9.49547,-12.2471,-5.47462,62.4913
2023-03-14 18:14:16:412,-0.908002,2.08628,-9.51569,-12.2516,-5.46839,62.4857
2023-03-14 18:14:16:422,-0.904694,2.09137,-9.53197,-12.2566,-5.46206,62.4778
2023-03-14 18:14:16:432,-0.904309,2.09667,-9.54174,-12.2573,-5.46091,62.4709
2023-03-14 18:14:16:442,-0.894882,2.09073,-9.53231,-12.2602,-5.45525,62.4644
2023-03-14 18:14:16:452,-0.900087,2.08832,-9.554,-12.2594,-5.45223,62.457
2023-03-14 18:14:16:462,-0.888066,2.10659,-9.56623,-12.2625,-5.44929,62.452
2023-03-14 18:14:16:472,-0.873734,2.10871,-9.56225,-12.2625,-5.44296,62.4483
2023-03-14 18:14:16:482,-0.864928,2.09078,-9.53717,-12.2608,-5.43892,62.4462
2023-03-14 18:14:16:492,-0.86385,2.09824,-9.5265,-12.2602,-5.43416,62.4455
2023-03-14 18:14:16:502,-0.872625,2.09509,-9.53054,-12.2602,-5.42965,62.446
2023-03-14 18:14:16:512,-0.88949,2.09001,-9.52116,-12.2601,-5.42741,62.4523
2023-03-14 18:14:16:522,-0.903863,2.08294,-9.51303,-12.2602,-5.42469,62.4561
2023-03-14 18:14:16:532,-0.896644,2.08236,-9.51618,-12.2607,-5.42336,62.4603
2023-03-14 18:14:16:542,-0.881385,2.09711,-9.52803,-12.2586,-5.42188,62.4642
2023-03-14 18:14:16:552,-0.887468,2.0789,-9.52868,-12.2599,-5.42118,62.4665
2023-03-14 18:14:16:562,-0.898631,2.08012,-9.52565,-12.2587,-5.41606,62.47
2023-03-14 18:14:16:572,-0.906624,2.09743,-9.52638,-12.2553,-5.42176,62.4736
2023-03-14 18:14:16:582,-0.907716,2.09173,-9.53746,-12.2577,-5.42416,62.4771
2023-03-14 18:14:16:592,-0.899324,2.08887,-9.53559,-12.2545,-5.42477,62.4794
2023-03-14 18:14:16:602,-0.89108,2.06407,-9.51851,-12.2523,-5.42772,62.4819
2023-03-14 18:14:16:612,-0.902693,2.0555,-9.49634,-12.2499,-5.42924,62.4829
2023-03-14 18:14:16:622,-0.907661,2.05502,-9.50595,-12.2524,-5.43174,62.4861
2023-03-14 18:14:16:632,-0.917178,2.07756,-9.53404,-12.2555,-5.43566,62.4922
2023-03-14 18:14:16:642,-0.916821,2.10308,-9.55098,-12.2572,-5.4362,62.4971
2023-03-14 18:14:16:652,-0.927451,2.095,-9.53841,-12.2584,-5.44152,62.5011
2023-03-14 18:14:16:662,-0.943262,2.09399,-9.52338,-12.2588,-5.44525,62.5047
2023-03-14 18:14:16:672,-0.947709,2.09903,-9.54446,-12.2604,-5.44454,62.511
2023-03-14 18:14:16:682,-0.950559,2.10004,-9.53778,-12.2583,-5.44577,62.5132
2023-03-14 18:14:16:692,-0.953,2.08995,-9.51669,-12.2543,-5.44571,62.5161
2023-03-14 18:14:16:702,-0.944564,2.08324,-9.52364,-12.2545,-5.44406,62.5172
2023-03-14 18:14:16:712,-0.931493,2.08401,-9.52832,-12.251,-5.44554,62.5122
2023-03-14 18:14:16:722,-0.936371,2.07467,-9.53309,-12.2485,-5.44804,62.5082
2023-03-14 18:14:16:732,-0.937624,2.07586,-9.50501,-12.2484,-5.45028,62.5059
2023-03-14 18:14:16:742,-0.923413,2.08379,-9.50114,-12.2488,-5.45171,62.5033
2023-03-14 18:14:16:752,-0.911125,2.07698,-9.53161,-12.2488,-5.45362,62.5023
2023-03-14 18:14:16:762,-0.905614,2.07823,-9.54636,-12.2486,-5.4513,62.4995
2023-03-14 18:14:16:772,-0.890613,2.06916,-9.54947,-12.247,-5.44811,62.4952
2023-03-14 18:14:16:782,-0.858613,2.0499,-9.53332,-12.2436,-5.44913,62.4951
2023-03-14 18:14:16:792,-0.834063,2.03347,-9.52311,-12.241,-5.44985,62.498
2023-03-14 18:14:16:802,-0.861527,2.02826,-9.51087,-12.2401,-5.45311,62.5057
2023-03-14 18:14:16:812,-0.893572,2.05548,-9.52495,-12.2439,-5.45404,62.5161
2023-03-14 18:14:16:822,-0.920267,2.07298,-9.52987,-12.2509,-5.46094,62.525
2023-03-14 18:14:16:832,-0.93904,2.0944,-9.51648,-12.2566,-5.46436,62.5349
2023-03-14 18:14:16:842,-0.960518,2.11601,-9.51977,-12.2611,-5.46645,62.5454
2023-03-14 18:14:16:852,-0.969591,2.12603,-9.51989,-12.2632,-5.46722,62.5535
2023-03-14 18:14:16:862,-0.970628,2.11096,-9.50958,-12.2618,-5.47065,62.5615
2023-03-14 18:14:16:872,-0.968213,2.09717,-9.49915,-12.2618,-5.46911,62.5678
2023-03-14 18:14:16:882,-0.974274,2.07923,-9.48616,-12.262,-5.47314,62.5671
2023-03-14 18:14:16:892,-0.970663,2.06366,-9.46722,-12.2603,-5.47461,62.5692
2023-03-14 18:14:16:902,-0.969099,2.04056,-9.43799,-12.2609,-5.47869,62.5675
2023-03-14 18:14:16:912,-0.949519,2.02779,-9.43285,-12.2653,-5.48046,62.5634
2023-03-14 18:14:16:922,-0.933212,2.03066,-9.45591,-12.2727,-5.48336,62.5609
2023-03-14 18:14:16:932,-0.9237,2.06287,-9.47955,-12.2869,-5.48123,62.5589
2023-03-14 18:14:16:942,-0.932097,2.1067,-9.52326,-12.3031,-5.48328,62.5566
2023-03-14 18:14:16:952,-0.936808,2.1443,-9.57453,-12.3173,-5.47893,62.5516
2023-03-14 18:14:16:962,-0.906592,2.15437,-9.56995,-12.3329,-5.47278,62.5472
2023-03-14 18:14:16:972,-0.879798,2.13053,-9.53375,-12.3465,-5.46539,62.5433
2023-03-14 18:14:16:982,-0.880455,2.11721,-9.5357,-12.362,-5.45985,62.5388
2023-03-14 18:14:16:992,-0.888961,2.14859,-9.55086,-12.3766,-5.45707,62.54
2023-03-14 18:14:17:2,-0.904404,2.16472,-9.55834,-12.3892,-5.45414,62.542
2023-03-14 18:14:17:12,-0.935244,2.14863,-9.53375,-12.4,-5.44919,62.5451
2023-03-14 18:14:17:22,-0.936108,2.16383,-9.52814,-12.4098,-5.44413,62.5443
2023-03-14 18:14:17:32,-0.928133,2.16681,-9.55745,-12.4172,-5.43853,62.5421
2023-03-14 18:14:17:42,-0.893615,2.16804,-9.58671,-12.4191,-5.43067,62.5361
2023-03-14 18:14:17:52,-0.854838,2.15622,-9.56295,-12.4174,-5.42549,62.5297
2023-03-14 18:14:17:62,-0.853232,2.13606,-9.53592,-12.4163,-5.42812,62.5231
2023-03-14 18:14:17:72,-0.879609,2.12379,-9.53558,-12.418,-5.43144,62.5263
2023-03-14 18:14:17:82,-0.889257,2.11825,-9.53984,-12.421,-5.4314,62.5247
2023-03-14 18:14:17:92,-0.894961,2.1405,-9.57525,-12.4216,-5.43206,62.5195
2023-03-14 18:14:17:102,-0.894041,2.13628,-9.57289,-12.4195,-5.43033,62.5201
2023-03-14 18:14:17:112,-0.88563,2.12593,-9.56448,-12.4188,-5.42888,62.5224
2023-03-14 18:14:17:122,-0.883449,2.12158,-9.55604,-12.4153,-5.43043,62.5239
2023-03-14 18:14:17:132,-0.899522,2.11255,-9.55128,-12.4088,-5.43121,62.5267
2023-03-14 18:14:17:142,-0.902009,2.08142,-9.52245,-12.4036,-5.43631,62.53
2023-03-14 18:14:17:152,-0.903351,2.07953,-9.47698,-12.3955,-5.44591,62.5326
2023-03-14 18:14:17:162,-0.905184,2.06011,-9.44911,-12.393,-5.45407,62.5362
2023-03-14 18:14:17:172,-0.915491,2.01685,-9.43264,-12.3864,-5.45722,62.5395
2023-03-14 18:14:17:182,-0.910727,1.99599,-9.42544,-12.3903,-5.46446,62.5483
2023-03-14 18:14:17:192,-0.934585,2.01843,-9.43504,-12.3923,-5.4698,62.5545
2023-03-14 18:14:17:202,-0.955846,2.03323,-9.45957,-12.402,-5.47164,62.5616
2023-03-14 18:14:17:212,-0.959743,2.05511,-9.49048,-12.412,-5.47271,62.5683
2023-03-14 18:14:17:222,-0.93875,2.06786,-9.5125,-12.4245,-5.47105,62.5726
2023-03-14 18:14:17:232,-0.92891,2.08435,-9.52673,-12.4372,-5.46854,62.5762
2023-03-14 18:14:17:242,-0.930556,2.09495,-9.53391,-12.4511,-5.46548,62.5841
2023-03-14 18:14:17:252,-0.943427,2.09761,-9.53241,-12.467,-5.46147,62.5913
2023-03-14 18:14:17:262,-0.949105,2.11643,-9.54527,-12.481,-5.45846,62.5997
2023-03-14 18:14:17:272,-0.954906,2.13802,-9.56098,-12.4968,-5.45262,62.6093
2023-03-14 18:14:17:282,-0.982954,2.17265,-9.55071,-12.51,-5.44719,62.6198
2023-03-14 18:14:17:292,-0.975516,2.18406,-9.5575,-12.5211,-5.43953,62.6266
2023-03-14 18:14:17:302,-0.974819,2.19226,-9.56477,-12.5334,-5.43597,62.6312
2023-03-14 18:14:17:312,-0.986562,2.2163,-9.56607,-12.5426,-5.42773,62.6325
2023-03-14 18:14:17:322,-0.983238,2.20954,-9.56835,-12.548,-5.42219,62.6326
2023-03-14 18:14:17:332,-0.975658,2.19641,-9.57663,-12.5515,-5.41943,62.6294
2023-03-14 18:14:17:342,-0.972407,2.19396,-9.55313,-12.5522,-5.41629,62.6233
2023-03-14 18:14:17:352,-0.949678,2.17911,-9.54696,-12.5459,-5.41108,62.6163
2023-03-14 18:14:17:362,-0.924546,2.15673,-9.52804,-12.5425,-5.40591,62.6068
2023-03-14 18:14:17:372,-0.917367,2.1428,-9.52609,-12.539,-5.3991,62.5934
2023-03-14 18:14:17:382,-0.908185,2.14015,-9.52682,-12.5375,-5.39614,62.5791
2023-03-14 18:14:17:392,-0.896234,2.14077,-9.51989,-12.5341,-5.38827,62.5675
2023-03-14 18:14:17:402,-0.870726,2.14733,-9.51239,-12.5328,-5.38276,62.5525
2023-03-14 18:14:17:412,-0.857559,2.12723,-9.52177,-12.528,-5.37471,62.5421
2023-03-14 18:14:17:422,-0.848611,2.12568,-9.51999,-12.523,-5.36778,62.5323
2023-03-14 18:14:17:432,-0.854234,2.13666,-9.52049,-12.5223,-5.36096,62.5199
2023-03-14 18:14:17:442,-0.862895,2.1312,-9.51087,-12.5201,-5.3558,62.5124
2023-03-14 18:14:17:452,-0.869286,2.1222,-9.51353,-12.5173,-5.35552,62.5095
2023-03-14 18:14:17:462,-0.867532,2.1421,-9.53109,-12.5185,-5.35385,62.5047
2023-03-14 18:14:17:472,-0.856025,2.13702,-9.54588,-12.5163,-5.34588,62.5005
2023-03-14 18:14:17:482,-0.861097,2.148,-9.52641,-12.5175,-5.34443,62.496
2023-03-14 18:14:17:492,-0.865038,2.13599,-9.51365,-12.5153,-5.34306,62.4934
2023-03-14 18:14:17:502,-0.858932,2.1309,-9.50792,-12.5112,-5.34472,62.4926
2023-03-14 18:14:17:512,-0.861622,2.13812,-9.51774,-12.5113,-5.34286,62.4908
2023-03-14 18:14:17:522,-0.874947,2.14459,-9.51975,-12.512,-5.34136,62.4896
2023-03-14 18:14:17:532,-0.851856,2.15195,-9.53399,-12.5129,-5.3416,62.4894
2023-03-14 18:14:17:542,-0.836393,2.14213,-9.54026,-12.508,-5.34383,62.488
2023-03-14 18:14:17:552,-0.836317,2.14124,-9.53061,-12.5044,-5.34737,62.4894
2023-03-14 18:14:17:562,-0.844344,2.14546,-9.52413,-12.5025,-5.35216,62.491
2023-03-14 18:14:17:572,-0.854779,2.13224,-9.53296,-12.5007,-5.3548,62.4951
2023-03-14 18:14:17:582,-0.869161,2.12378,-9.51695,-12.4962,-5.36099,62.5014
2023-03-14 18:14:17:592,-0.86639,2.11326,-9.49899,-12.4953,-5.36106,62.5115
2023-03-14 18:14:17:602,-0.857765,2.11086,-9.50856,-12.491,-5.36276,62.5238
2023-03-14 18:14:17:612,-0.893692,2.12286,-9.55085,-12.4891,-5.36604,62.5363
2023-03-14 18:14:17:622,-0.922461,2.15167,-9.55524,-12.4828,-5.37055,62.5471
2023-03-14 18:14:17:632,-0.938228,2.13867,-9.54559,-12.4767,-5.37222,62.5559
2023-03-14 18:14:17:642,-0.949393,2.11062,-9.53422,-12.4717,-5.37534,62.5651
2023-03-14 18:14:17:652,-0.949957,2.11038,-9.51246,-12.4639,-5.37669,62.5729
2023-03-14 18:14:17:662,-0.940118,2.09897,-9.49644,-12.4533,-5.37546,62.5754
2023-03-14 18:14:17:672,-0.914911,2.0874,-9.49031,-12.4477,-5.37706,62.5756
2023-03-14 18:14:17:682,-0.903011,2.07845,-9.49835,-12.4413,-5.38326,62.5812
2023-03-14 18:14:17:692,-0.888258,2.07492,-9.50871,-12.44,-5.38457,62.5814
2023-03-14 18:14:17:702,-0.877673,2.08579,-9.52503,-12.4351,-5.38633,62.5793
2023-03-14 18:14:17:712,-0.870764,2.0902,-9.56626,-12.4317,-5.39058,62.5801
2023-03-14 18:14:17:722,-0.878781,2.10805,-9.58014,-12.4262,-5.39385,62.5835
2023-03-14 18:14:17:732,-0.859428,2.09941,-9.55864,-12.4197,-5.39942,62.5873
2023-03-14 18:14:17:742,-0.85295,2.07145,-9.555,-12.416,-5.40244,62.5908
2023-03-14 18:14:17:752,-0.86012,2.0625,-9.54181,-12.4134,-5.40811,62.5969
2023-03-14 18:14:17:762,-0.889278,2.08559,-9.53975,-12.4097,-5.4169,62.6032
2023-03-14 18:14:17:772,-0.908498,2.10334,-9.52365,-12.4109,-5.42558,62.6105
2023-03-14 18:14:17:782,-0.923604,2.09908,-9.51423,-12.4113,-5.43344,62.6209
2023-03-14 18:14:17:792,-0.931994,2.11373,-9.50586,-12.4107,-5.44283,62.631
2023-03-14 18:14:17:802,-0.94303,2.13155,-9.50347,-12.4088,-5.45122,62.6408
2023-03-14 18:14:17:812,-0.949169,2.13208,-9.49571,-12.4074,-5.46024,62.6487
2023-03-14 18:14:17:822,-0.939321,2.11082,-9.49854,-12.407,-5.46568,62.6577
2023-03-14 18:14:17:832,-0.956894,2.11126,-9.49235,-12.4042,-5.47401,62.6657
2023-03-14 18:14:17:842,-0.968707,2.11474,-9.47707,-12.4048,-5.48073,62.675
2023-03-14 18:14:17:852,-0.975547,2.11328,-9.48957,-12.4073,-5.48433,62.6811
2023-03-14 18:14:17:862,-0.967286,2.10598,-9.51048,-12.4053,-5.4865,62.6841
2023-03-14 18:14:17:872,-0.949673,2.10429,-9.5225,-12.4043,-5.48712,62.6835
2023-03-14 18:14:17:882,-0.943607,2.11103,-9.53396,-12.4034,-5.48905,62.6839
2023-03-14 18:14:17:892,-0.94385,2.13207,-9.53893,-12.4043,-5.49081,62.6861
2023-03-14 18:14:17:902,-0.934206,2.13473,-9.54797,-12.4061,-5.49429,62.6823
2023-03-14 18:14:17:912,-0.933391,2.14538,-9.56021,-12.4079,-5.49466,62.681
2023-03-14 18:14:17:922,-0.93258,2.14562,-9.57012,-12.4066,-5.4937,62.6837
2023-03-14 18:14:17:932,-0.930994,2.16263,-9.55789,-12.4035,-5.49448,62.6811
2023-03-14 18:14:17:942,-0.925363,2.17272,-9.55005,-12.4009,-5.49418,62.6808
2023-03-14 18:14:17:952,-0.92344,2.15417,-9.53358,-12.3961,-5.49465,62.6804
2023-03-14 18:14:17:962,-0.945358,2.11323,-9.51902,-12.3917,-5.49686,62.6784
2023-03-14 18:14:17:972,-0.954138,2.11935,-9.50427,-12.3832,-5.49686,62.6792
2023-03-14 18:14:17:982,-0.928355,2.11971,-9.50965,-12.3756,-5.4976,62.6738
2023-03-14 18:14:17:992,-0.899656,2.11561,-9.5247,-12.3707,-5.49386,62.672
2023-03-14 18:14:18:2,-0.867903,2.08656,-9.53008,-12.3607,-5.49348,62.674
2023-03-14 18:14:18:12,-0.882175,2.0849,-9.51507,-12.3497,-5.49612,62.6731
2023-03-14 18:14:18:22,-0.918802,2.06743,-9.52248,-12.3434,-5.49801,62.6728
2023-03-14 18:14:18:32,-0.916267,2.06174,-9.53254,-12.3389,-5.5027,62.6752
2023-03-14 18:14:18:42,-0.920518,2.08143,-9.52601,-12.3359,-5.50705,62.6747
2023-03-14 18:14:18:52,-0.93542,2.09673,-9.52732,-12.3347,-5.5114,62.6772
2023-03-14 18:14:18:62,-0.933559,2.09602,-9.53635,-12.3378,-5.5132,62.6806
2023-03-14 18:14:18:72,-0.926053,2.10411,-9.53801,-12.3365,-5.51454,62.6833
2023-03-14 18:14:18:82,-0.927006,2.08984,-9.53735,-12.3308,-5.51565,62.685
2023-03-14 18:14:18:92,-0.92332,2.09927,-9.52032,-12.3233,-5.51602,62.6853
2023-03-14 18:14:18:102,-0.903118,2.08499,-9.49708,-12.3168,-5.51538,62.6866
2023-03-14 18:14:18:112,-0.906402,2.08404,-9.48437,-12.3073,-5.51679,62.6884
2023-03-14 18:14:18:122,-0.931319,2.06951,-9.48484,-12.3026,-5.51788,62.696
2023-03-14 18:14:18:132,-0.935351,2.06088,-9.47137,-12.2962,-5.51974,62.6975
2023-03-14 18:14:18:142,-0.931562,2.06058,-9.48049,-12.2926,-5.52018,62.6995
2023-03-14 18:14:18:152,-0.937063,2.07101,-9.49826,-12.2912,-5.52082,62.7046
2023-03-14 18:14:18:162,-0.940557,2.05491,-9.50642,-12.2873,-5.51994,62.7097
2023-03-14 18:14:18:172,-0.938395,2.06346,-9.52174,-12.2895,-5.52302,62.7143
2023-03-14 18:14:18:182,-0.951352,2.10383,-9.56685,-12.292,-5.52299,62.7174
2023-03-14 18:14:18:192,-0.951425,2.1086,-9.55097,-12.294,-5.52514,62.7151
2023-03-14 18:14:18:202,-0.939232,2.09592,-9.52221,-12.296,-5.52713,62.7117
2023-03-14 18:14:18:212,-0.933255,2.0953,-9.53023,-12.2937,-5.52788,62.7126
2023-03-14 18:14:18:222,-0.950456,2.10806,-9.5388,-12.2976,-5.52998,62.7163
2023-03-14 18:14:18:232,-0.953891,2.11655,-9.52963,-12.2971,-5.52997,62.719
2023-03-14 18:14:18:242,-0.949943,2.09881,-9.53202,-12.299,-5.52958,62.7223
2023-03-14 18:14:18:252,-0.942945,2.09292,-9.52606,-12.2955,-5.52855,62.7241
2023-03-14 18:14:18:262,-0.945615,2.10404,-9.50791,-12.2923,-5.52875,62.7241
2023-03-14 18:14:18:272,-0.952143,2.11169,-9.51388,-12.2923,-5.52996,62.7255
2023-03-14 18:14:18:282,-0.966414,2.10874,-9.52176,-12.2926,-5.53004,62.7231
2023-03-14 18:14:18:292,-0.959789,2.10482,-9.52124,-12.2901,-5.52973,62.7223
2023-03-14 18:14:18:302,-0.956097,2.09214,-9.53241,-12.2914,-5.52732,62.7186
2023-03-14 18:14:18:312,-0.942671,2.10683,-9.53206,-12.2924,-5.523,62.7156
2023-03-14 18:14:18:322,-0.954055,2.11774,-9.5509,-12.2907,-5.51692,62.7097
2023-03-14 18:14:18:332,-0.932203,2.10474,-9.54327,-12.2874,-5.51331,62.7001
2023-03-14 18:14:18:342,-0.927826,2.09905,-9.53217,-12.279,-5.51077,62.6885
2023-03-14 18:14:18:352,-0.899359,2.09511,-9.54665,-12.273,-5.50447,62.6734
2023-03-14 18:14:18:362,-0.898413,2.10759,-9.54964,-12.2712,-5.50119,62.6627
2023-03-14 18:14:18:372,-0.891442,2.11427,-9.54699,-12.2632,-5.49905,62.6542
2023-03-14 18:14:18:382,-0.873905,2.11154,-9.56006,-12.2552,-5.49316,62.648
2023-03-14 18:14:18:392,-0.885567,2.09532,-9.54087,-12.2496,-5.49095,62.6475
2023-03-14 18:14:18:402,-0.901271,2.08868,-9.52744,-12.2438,-5.48959,62.6436
2023-03-14 18:14:18:412,-0.893031,2.09736,-9.52612,-12.2377,-5.48953,62.6421
2023-03-14 18:14:18:422,-0.89945,2.10342,-9.51991,-12.2316,-5.48525,62.6426
2023-03-14 18:14:18:432,-0.90189,2.08887,-9.51275,-12.229,-5.48447,62.6413
2023-03-14 18:14:18:442,-0.898493,2.07095,-9.51456,-12.2214,-5.48405,62.64
2023-03-14 18:14:18:452,-0.898896,2.06409,-9.50984,-12.2151,-5.48348,62.6391
2023-03-14 18:14:18:462,-0.90035,2.06609,-9.52014,-12.2112,-5.48137,62.6387
2023-03-14 18:14:18:472,-0.900275,2.07133,-9.517,-12.2093,-5.48396,62.6379
2023-03-14 18:14:18:482,-0.898081,2.0808,-9.51684,-12.2048,-5.48695,62.6369
2023-03-14 18:14:18:492,-0.898258,2.07215,-9.52523,-12.2027,-5.48565,62.6373
2023-03-14 18:14:18:502,-0.899626,2.07021,-9.52715,-12.1983,-5.48636,62.6385
2023-03-14 18:14:18:512,-0.910546,2.08554,-9.5341,-12.1953,-5.48486,62.638
2023-03-14 18:14:18:522,-0.911596,2.08749,-9.53166,-12.1914,-5.48729,62.6389
2023-03-14 18:14:18:532,-0.916573,2.08943,-9.52878,-12.1876,-5.48745,62.6389
2023-03-14 18:14:18:542,-0.919721,2.07538,-9.52153,-12.1855,-5.48971,62.6424
2023-03-14 18:14:18:552,-0.90807,2.07626,-9.53204,-12.1827,-5.49035,62.6446
2023-03-14 18:14:18:562,-0.907491,2.06805,-9.5153,-12.1778,-5.49347,62.645
2023-03-14 18:14:18:572,-0.906457,2.06055,-9.51178,-12.1723,-5.494,62.6469
2023-03-14 18:14:18:582,-0.914143,2.06242,-9.53914,-12.1703,-5.49454,62.6508
2023-03-14 18:14:18:592,-0.929738,2.06451,-9.54726,-12.17,-5.49533,62.6523
2023-03-14 18:14:18:602,-0.936537,2.05679,-9.55941,-12.1662,-5.49337,62.6555
2023-03-14 18:14:18:612,-0.935353,2.06387,-9.54623,-12.163,-5.49483,62.6581
2023-03-14 18:14:18:622,-0.938134,2.05012,-9.54126,-12.1586,-5.49401,62.66
2023-03-14 18:14:18:632,-0.91199,2.03843,-9.55129,-12.1554,-5.49598,62.6599
2023-03-14 18:14:18:642,-0.896233,2.05126,-9.55217,-12.151,-5.49347,62.6635
2023-03-14 18:14:18:652,-0.917273,2.04362,-9.53211,-12.1466,-5.49874,62.6665
2023-03-14 18:14:18:662,-0.933226,2.02609,-9.50678,-12.142,-5.50137,62.6698
2023-03-14 18:14:18:672,-0.939842,2.02777,-9.49754,-12.1405,-5.50514,62.6737
2023-03-14 18:14:18:682,-0.94515,2.04399,-9.49425,-12.1409,-5.50793,62.6812
2023-03-14 18:14:18:692,-0.943504,2.05636,-9.49059,-12.1382,-5.5053,62.6847
2023-03-14 18:14:18:702,-0.939834,2.05311,-9.4967,-12.1407,-5.50315,62.6895
2023-03-14 18:14:18:712,-0.948091,2.06531,-9.51608,-12.1422,-5.50215,62.6915
2023-03-14 18:14:18:722,-0.945299,2.08642,-9.5119,-12.1421,-5.50092,62.696
2023-03-14 18:14:18:732,-0.950269,2.08168,-9.50225,-12.1431,-5.49794,62.6965
2023-03-14 18:14:18:742,-0.952438,2.0691,-9.50152,-12.1411,-5.49525,62.6954
2023-03-14 18:14:18:752,-0.95308,2.0528,-9.50524,-12.1406,-5.49329,62.6909
2023-03-14 18:14:18:762,-0.942289,2.06306,-9.51588,-12.1391,-5.49039,62.6876
2023-03-14 18:14:18:772,-0.943316,2.08324,-9.53983,-12.143,-5.49069,62.6826
2023-03-14 18:14:18:782,-0.953609,2.08702,-9.54826,-12.1468,-5.4909,62.678
2023-03-14 18:14:18:792,-0.945512,2.09635,-9.56592,-12.1516,-5.4875,62.6722
2023-03-14 18:14:18:802,-0.936525,2.11262,-9.56561,-12.1508,-5.48523,62.6665
2023-03-14 18:14:18:812,-0.927923,2.10908,-9.56901,-12.1528,-5.48307,62.662
2023-03-14 18:14:18:822,-0.908724,2.09858,-9.55853,-12.1516,-5.48103,62.6523
2023-03-14 18:14:18:832,-0.887687,2.09962,-9.55113,-12.1501,-5.47947,62.6445
2023-03-14 18:14:18:842,-0.903355,2.09728,-9.5408,-12.1455,-5.47746,62.6409
2023-03-14 18:14:18:852,-0.934487,2.09025,-9.5251,-12.1419,-5.47521,62.6344
2023-03-14 18:14:18:862,-0.936655,2.1017,-9.527,-12.1417,-5.47633,62.6345
2023-03-14 18:14:18:872,-0.922161,2.09477,-9.54222,-12.1357,-5.47442,62.6334
2023-03-14 18:14:18:882,-0.88241,2.08852,-9.54414,-12.1297,-5.46639,62.6243
2023-03-14 18:14:18:892,-0.83702,2.06139,-9.54156,-12.1177,-5.4623,62.6236
2023-03-14 18:14:18:902,-0.845973,2.04328,-9.53886,-12.1095,-5.4626,62.6261
2023-03-14 18:14:18:912,-0.869064,2.06182,-9.54618,-12.104,-5.46659,62.6287
2023-03-14 18:14:18:922,-0.899052,2.05133,-9.55352,-12.0965,-5.47154,62.632
2023-03-14 18:14:18:932,-0.921028,2.03994,-9.53206,-12.0898,-5.47905,62.6373
2023-03-14 18:14:18:942,-0.924947,2.03875,-9.53022,-12.0869,-5.48205,62.641
2023-03-14 18:14:18:952,-0.918122,2.04447,-9.52773,-12.0823,-5.48516,62.648
2023-03-14 18:14:18:962,-0.922384,2.05285,-9.54144,-12.0786,-5.48471,62.6545
2023-03-14 18:14:18:972,-0.91777,2.04127,-9.52609,-12.0737,-5.48771,62.6584
2023-03-14 18:14:18:982,-0.913346,2.01281,-9.5061,-12.0695,-5.49421,62.6636
2023-03-14 18:14:18:992,-0.93037,2.02339,-9.51556,-12.0696,-5.494,62.6715
2023-03-14 18:14:19:2,-0.938944,2.0422,-9.52871,-12.0626,-5.49465,62.6824
2023-03-14 18:14:19:12,-0.948959,2.03764,-9.52696,-12.0582,-5.49861,62.6895
2023-03-14 18:14:19:22,-0.942685,2.02435,-9.50521,-12.0505,-5.49832,62.6926
2023-03-14 18:14:19:32,-0.935287,2.01297,-9.49306,-12.0447,-5.49857,62.6987
2023-03-14 18:14:19:42,-0.943564,2.01185,-9.49305,-12.0384,-5.49936,62.7002
2023-03-14 18:14:19:52,-0.941689,2.01655,-9.50713,-12.0325,-5.49854,62.703
2023-03-14 18:14:19:62,-0.932614,2.02524,-9.52431,-12.0308,-5.50147,62.7022
2023-03-14 18:14:19:72,-0.944906,2.03791,-9.53309,-12.0304,-5.50569,62.7018
2023-03-14 18:14:19:82,-0.95166,2.03976,-9.54252,-12.0306,-5.50691,62.7007
2023-03-14 18:14:19:92,-0.962974,2.03493,-9.56518,-12.0306,-5.50631,62.7062
2023-03-14 18:14:19:102,-0.985881,2.06349,-9.56088,-12.028,-5.50848,62.708
2023-03-14 18:14:19:112,-0.983276,2.07475,-9.55715,-12.0306,-5.50467,62.7116
2023-03-14 18:14:19:122,-0.969321,2.06063,-9.54269,-12.0318,-5.50185,62.7097
2023-03-14 18:14:19:132,-0.956638,2.05215,-9.531,-12.0264,-5.49479,62.7079
2023-03-14 18:14:19:142,-0.950889,2.05486,-9.53383,-12.0226,-5.49161,62.7066
2023-03-14 18:14:19:152,-0.941165,2.0463,-9.5312,-12.0198,-5.4855,62.7041
2023-03-14 18:14:19:162,-0.940129,2.03388,-9.52125,-12.0163,-5.47934,62.6997
2023-03-14 18:14:19:172,-0.941042,2.02401,-9.52314,-12.0137,-5.47042,62.6948
2023-03-14 18:14:19:182,-0.931493,2.03899,-9.52421,-12.0119,-5.46224,62.6921
2023-03-14 18:14:19:192,-0.928264,2.03974,-9.53178,-12.0104,-5.45572,62.6881
2023-03-14 18:14:19:202,-0.908465,2.04055,-9.54052,-12.0073,-5.45106,62.6863
2023-03-14 18:14:19:212,-0.900133,2.02657,-9.54597,-12.0029,-5.44469,62.6809
2023-03-14 18:14:19:222,-0.909059,2.03512,-9.549,-12.0008,-5.43858,62.6759
2023-03-14 18:14:19:232,-0.904883,2.04624,-9.54074,-11.9978,-5.43466,62.6717
2023-03-14 18:14:19:242,-0.883138,2.04039,-9.54167,-11.994,-5.42972,62.6667
2023-03-14 18:14:19:252,-0.866682,2.03546,-9.52778,-11.9924,-5.42332,62.6634
2023-03-14 18:14:19:262,-0.873452,2.02366,-9.51897,-11.9911,-5.41836,62.6596
2023-03-14 18:14:19:272,-0.876363,2.01454,-9.52782,-11.9914,-5.41355,62.6589
2023-03-14 18:14:19:282,-0.878223,2.04524,-9.53688,-11.9929,-5.41349,62.6595
2023-03-14 18:14:19:292,-0.872924,2.05395,-9.55232,-11.9934,-5.41217,62.6583
2023-03-14 18:14:19:302,-0.872683,2.05088,-9.55547,-11.9923,-5.41178,62.6587
2023-03-14 18:14:19:312,-0.872174,2.03768,-9.54097,-11.9927,-5.41264,62.6601
2023-03-14 18:14:19:322,-0.889042,2.04715,-9.51844,-11.9956,-5.40937,62.6626
2023-03-14 18:14:19:332,-0.889029,2.0482,-9.53768,-11.9925,-5.40873,62.6664
2023-03-14 18:14:19:342,-0.895492,2.05454,-9.54738,-11.9938,-5.4119,62.6668
2023-03-14 18:14:19:352,-0.900303,2.04729,-9.54121,-11.994,-5.4168,62.6684
2023-03-14 18:14:19:362,-0.905523,2.04981,-9.52607,-11.9948,-5.41841,62.6711
2023-03-14 18:14:19:372,-0.923172,2.05557,-9.52697,-11.9952,-5.42339,62.6755
2023-03-14 18:14:19:382,-0.925318,2.0614,-9.52941,-11.9989,-5.42653,62.677
2023-03-14 18:14:19:392,-0.909845,2.07014,-9.55064,-11.9997,-5.42861,62.6825
2023-03-14 18:14:19:402,-0.921778,2.06938,-9.55529,-11.9971,-5.43032,62.6891
2023-03-14 18:14:19:412,-0.947925,2.04887,-9.54088,-11.9947,-5.43061,62.6905
2023-03-14 18:14:19:422,-0.935272,2.04535,-9.54067,-11.9926,-5.42714,62.6919
2023-03-14 18:14:19:432,-0.944559,2.03451,-9.53241,-11.993,-5.42913,62.6956
2023-03-14 18:14:19:442,-0.935701,2.04735,-9.54214,-11.9935,-5.43,62.6953
2023-03-14 18:14:19:452,-0.93313,2.06413,-9.5282,-11.9929,-5.43019,62.6926
2023-03-14 18:14:19:462,-0.937814,2.03451,-9.51227,-11.9918,-5.43251,62.6926
2023-03-14 18:14:19:472,-0.926321,2.01814,-9.50508,-11.9933,-5.43434,62.6901
2023-03-14 18:14:19:482,-0.915758,2.02777,-9.50491,-11.9916,-5.43362,62.6857
2023-03-14 18:14:19:492,-0.908077,2.0453,-9.52732,-11.9904,-5.43302,62.6809
2023-03-14 18:14:19:502,-0.912522,2.0376,-9.54882,-11.9896,-5.4337,62.6796
2023-03-14 18:14:19:512,-0.899059,2.03353,-9.55803,-11.9892,-5.43527,62.6769
2023-03-14 18:14:19:522,-0.873667,2.03884,-9.56758,-11.9924,-5.43852,62.6725
2023-03-14 18:14:19:532,-0.864822,2.02585,-9.56776,-11.9899,-5.44192,62.6718
2023-03-14 18:14:19:542,-0.854375,2.00753,-9.55317,-11.9923,-5.44553,62.6747
2023-03-14 18:14:19:552,-0.873768,2.0055,-9.54541,-11.9931,-5.44716,62.6809
2023-03-14 18:14:19:562,-0.926293,2.02508,-9.54034,-11.9975,-5.44711,62.6885
2023-03-14 18:14:19:572,-0.940151,2.05691,-9.53817,-12.0003,-5.45011,62.6938
2023-03-14 18:14:19:582,-0.94054,2.06081,-9.53258,-11.9993,-5.45091,62.6987
2023-03-14 18:14:19:592,-0.948079,2.05074,-9.51654,-12.0003,-5.45323,62.7088
2023-03-14 18:14:19:602,-0.955194,2.04868,-9.51313,-12.0013,-5.45466,62.7162
2023-03-14 18:14:19:612,-0.96094,2.05261,-9.50286,-12.0033,-5.45548,62.7203
2023-03-14 18:14:19:622,-0.966102,2.05194,-9.49534,-12.0037,-5.45505,62.722
2023-03-14 18:14:19:632,-0.962219,2.02947,-9.47847,-12.0058,-5.45657,62.7245
2023-03-14 18:14:19:642,-0.943219,2.0307,-9.50708,-12.0072,-5.45532,62.7256
2023-03-14 18:14:19:652,-0.941547,2.05262,-9.52392,-12.0121,-5.45288,62.7249
2023-03-14 18:14:19:662,-0.944175,2.05441,-9.52991,-12.0112,-5.45128,62.7192
2023-03-14 18:14:19:672,-0.948165,2.0488,-9.53001,-12.0153,-5.44989,62.7142
2023-03-14 18:14:19:682,-0.932602,2.05649,-9.55139,-12.0188,-5.45072,62.7086
2023-03-14 18:14:19:692,-0.919904,2.07503,-9.56995,-12.0245,-5.4518,62.7057
2023-03-14 18:14:19:702,-0.916341,2.09645,-9.56969,-12.0247,-5.44932,62.7024
2023-03-14 18:14:19:712,-0.923814,2.0816,-9.57067,-12.0261,-5.448,62.6945
2023-03-14 18:14:19:722,-0.91634,2.06409,-9.56498,-12.0259,-5.44375,62.6921
2023-03-14 18:14:19:732,-0.904979,2.09181,-9.54861,-12.0292,-5.44137,62.6856
2023-03-14 18:14:19:742,-0.89334,2.09268,-9.52998,-12.0272,-5.43594,62.682
2023-03-14 18:14:19:752,-0.908747,2.08344,-9.51046,-12.0268,-5.43472,62.6807
2023-03-14 18:14:19:762,-0.921587,2.06742,-9.50903,-12.0289,-5.43067,62.6863
2023-03-14 18:14:19:772,-0.918466,2.0824,-9.52058,-12.0285,-5.42453,62.6839
2023-03-14 18:14:19:782,-0.890126,2.08564,-9.56927,-12.0247,-5.41795,62.6791
2023-03-14 18:14:19:792,-0.847549,2.08158,-9.56822,-12.0194,-5.41576,62.6746
2023-03-14 18:14:19:802,-0.859555,2.04918,-9.53271,-12.0123,-5.41444,62.6716
2023-03-14 18:14:19:812,-0.879927,2.04173,-9.52039,-12.0047,-5.41755,62.6698
2023-03-14 18:14:19:822,-0.889055,2.03474,-9.54242,-12.0005,-5.4205,62.671
2023-03-14 18:14:19:832,-0.894405,2.02517,-9.55652,-11.9966,-5.42453,62.6702
2023-03-14 18:14:19:842,-0.904472,2.04015,-9.55682,-11.9941,-5.42903,62.6698
2023-03-14 18:14:19:852,-0.911664,2.0427,-9.55854,-11.993,-5.43357,62.6748
2023-03-14 18:14:19:862,-0.905388,2.05683,-9.54674,-11.9887,-5.43964,62.6779
2023-03-14 18:14:19:872,-0.903917,2.05379,-9.53498,-11.9859,-5.44237,62.6837
2023-03-14 18:14:19:882,-0.906681,2.04941,-9.53144,-11.9814,-5.44692,62.6881
2023-03-14 18:14:19:892,-0.916379,2.04516,-9.52977,-11.9774,-5.45057,62.6951
2023-03-14 18:14:19:902,-0.930638,2.04159,-9.52498,-11.9732,-5.45475,62.6992
2023-03-14 18:14:19:912,-0.946773,2.04654,-9.51688,-11.9707,-5.4572,62.7037
2023-03-14 18:14:19:922,-0.948056,2.02717,-9.52189,-11.9636,-5.46339,62.7114
2023-03-14 18:14:19:932,-0.947714,2.00906,-9.49072,-11.9594,-5.46707,62.7165
2023-03-14 18:14:19:942,-0.954585,1.99579,-9.4853,-11.955,-5.47257,62.7194
2023-03-14 18:14:19:952,-0.959873,2.00434,-9.51921,-11.9542,-5.47834,62.7221
2023-03-14 18:14:19:962,-0.9998,2.05195,-9.5601,-11.9501,-5.4766,62.7242
2023-03-14 18:14:19:972,-0.977971,2.10948,-9.64859,-11.9371,-5.46382,62.7244
2023-03-14 18:14:19:982,-0.920842,2.06179,-9.57671,-11.9188,-5.44698,62.7208
2023-03-14 18:14:19:992,-0.870599,1.98197,-9.50469,-11.9013,-5.44247,62.7186
2023-03-14 18:14:20:2,-0.888554,1.92865,-9.43193,-11.8998,-5.4457,62.7233
2023-03-14 18:14:20:12,-0.94968,2.02693,-9.50198,-11.9019,-5.45007,62.7307
2023-03-14 18:14:20:22,-0.934734,2.08319,-9.57773,-11.9027,-5.44899,62.7339
2023-03-14 18:14:20:32,-0.91917,2.03058,-9.53973,-11.9011,-5.4476,62.7394
2023-03-14 18:14:20:42,-0.931542,2.00133,-9.48589,-11.9036,-5.44879,62.7428
2023-03-14 18:14:20:52,-0.936133,2.02277,-9.51274,-11.9067,-5.44545,62.7461
2023-03-14 18:14:20:62,-0.948134,2.0521,-9.53321,-11.9095,-5.44326,62.7508
2023-03-14 18:14:20:72,-0.963671,2.07232,-9.55141,-11.9118,-5.44311,62.7517
2023-03-14 18:14:20:82,-0.973439,2.06325,-9.56344,-11.9096,-5.43909,62.7488
2023-03-14 18:14:20:92,-0.945886,2.04192,-9.56434,-11.9074,-5.43698,62.7468
2023-03-14 18:14:20:102,-0.931415,2.02991,-9.54318,-11.904,-5.43704,62.7441
2023-03-14 18:14:20:112,-0.944443,2.02362,-9.52581,-11.9,-5.43511,62.7396
2023-03-14 18:14:20:122,-0.932636,2.02336,-9.53923,-11.8943,-5.43545,62.7344
2023-03-14 18:14:20:132,-0.896731,2.00978,-9.54611,-11.8856,-5.43348,62.7291
2023-03-14 18:14:20:142,-0.892308,2.00163,-9.54246,-11.881,-5.4355,62.7239
2023-03-14 18:14:20:152,-0.901639,2.01647,-9.54009,-11.8788,-5.43107,62.7144
2023-03-14 18:14:20:162,-0.893566,2.02199,-9.54248,-11.8772,-5.42751,62.7073
2023-03-14 18:14:20:172,-0.865632,2.00929,-9.5496,-11.8732,-5.42348,62.7035
2023-03-14 18:14:20:182,-0.869334,2.00985,-9.53861,-11.8701,-5.42053,62.7019
2023-03-14 18:14:20:192,-0.888483,1.99813,-9.52764,-11.8689,-5.41649,62.7005
2023-03-14 18:14:20:202,-0.884518,2.00252,-9.532,-11.8683,-5.41494,62.7037
2023-03-14 18:14:20:212,-0.898466,2.02925,-9.55804,-11.8688,-5.41059,62.7036
2023-03-14 18:14:20:222,-0.911099,2.04238,-9.55887,-11.8717,-5.41137,62.7028
2023-03-14 18:14:20:232,-0.896858,2.02594,-9.54968,-11.8702,-5.40957,62.7021
2023-03-14 18:14:20:242,-0.87809,2.00848,-9.53851,-11.8689,-5.40624,62.7039
2023-03-14 18:14:20:252,-0.894002,2.01237,-9.5227,-11.868,-5.40509,62.7023
2023-03-14 18:14:20:262,-0.899962,2.02558,-9.54535,-11.8658,-5.40609,62.7027
2023-03-14 18:14:20:272,-0.90381,2.02276,-9.55714,-11.8663,-5.40768,62.7003
2023-03-14 18:14:20:282,-0.903335,2.02614,-9.54467,-11.867,-5.40791,62.7009
