Timestamp,Acceleration_x,Acceleration_y,Acceleration_z,roll,pitch,yaw
2023-03-15 15:52:12:145,-1.4844,2.20782,-9.33833,-13.1863,-8.52071,-18.8789
2023-03-15 15:52:12:152,-1.47451,2.19799,-9.33627,-13.1792,-8.51388,-18.8848
2023-03-15 15:52:12:163,-1.44426,2.19664,-9.34656,-13.1791,-8.51096,-18.8906
2023-03-15 15:52:12:173,-1.42128,2.18668,-9.37061,-13.1785,-8.50988,-18.8968
2023-03-15 15:52:12:183,-1.40676,2.20068,-9.39624,-13.1782,-8.50604,-18.9018
2023-03-15 15:52:12:193,-1.40221,2.21539,-9.43247,-13.1846,-8.5017,-18.911
2023-03-15 15:52:12:203,-1.36391,2.21969,-9.4591,-13.1887,-8.49768,-18.9203
2023-03-15 15:52:12:213,-1.35724,2.2484,-9.47936,-13.1942,-8.48988,-18.9261
2023-03-15 15:52:12:223,-1.36381,2.26521,-9.4724,-13.2008,-8.48689,-18.9263
2023-03-15 15:52:12:233,-1.37156,2.25104,-9.4789,-13.2103,-8.48599,-18.9264
2023-03-15 15:52:12:243,-1.40128,2.26374,-9.47265,-13.2142,-8.48485,-18.9229
2023-03-15 15:52:12:253,-1.42711,2.27575,-9.45329,-13.2157,-8.48115,-18.9155
2023-03-15 15:52:12:263,-1.43725,2.28493,-9.4568,-13.2192,-8.48243,-18.9087
2023-03-15 15:52:12:273,-1.40277,2.29055,-9.48941,-13.2188,-8.47685,-18.9088
2023-03-15 15:52:12:283,-1.35885,2.26139,-9.47933,-13.2154,-8.47639,-18.9079
2023-03-15 15:52:12:293,-1.38288,2.21455,-9.41765,-13.2045,-8.47818,-18.907
2023-03-15 15:52:12:303,-1.42587,2.20918,-9.38447,-13.1928,-8.48432,-18.9037
2023-03-15 15:52:12:313,-1.43304,2.2148,-9.40366,-13.1845,-8.49136,-18.901
2023-03-15 15:52:12:323,-1.43126,2.21609,-9.41244,-13.1737,-8.49895,-18.9005
2023-03-15 15:52:12:333,-1.42479,2.22444,-9.41078,-13.1703,-8.50289,-18.902
2023-03-15 15:52:12:343,-1.41723,2.2117,-9.41168,-13.169,-8.51028,-18.9006
2023-03-15 15:52:12:353,-1.42193,2.20836,-9.41868,-13.1631,-8.51334,-18.8989
2023-03-15 15:52:12:363,-1.40366,2.22119,-9.43873,-13.1602,-8.5163,-18.895
2023-03-15 15:52:12:373,-1.38672,2.21811,-9.4238,-13.1565,-8.52095,-18.8911
2023-03-15 15:52:12:383,-1.39813,2.20717,-9.38678,-13.1526,-8.52705,-18.8875
2023-03-15 15:52:12:393,-1.40548,2.20472,-9.38215,-13.1469,-8.53258,-18.8808
2023-03-15 15:52:12:403,-1.41238,2.19408,-9.36815,-13.1448,-8.5387,-18.8733
2023-03-15 15:52:12:413,-1.41594,2.18551,-9.3455,-13.1399,-8.54614,-18.8626
2023-03-15 15:52:12:423,-1.42506,2.18677,-9.37009,-13.1378,-8.54864,-18.855
2023-03-15 15:52:12:433,-1.44104,2.1999,-9.42152,-13.1392,-8.55424,-18.8461
2023-03-15 15:52:12:443,-1.44949,2.21651,-9.4295,-13.1399,-8.55954,-18.8355
2023-03-15 15:52:12:453,-1.44359,2.20672,-9.39063,-13.138,-8.56776,-18.8267
2023-03-15 15:52:12:463,-1.46056,2.18598,-9.37567,-13.1368,-8.57479,-18.8171
2023-03-15 15:52:12:473,-1.47902,2.20553,-9.39699,-13.1397,-8.58149,-18.8091
2023-03-15 15:52:12:483,-1.48327,2.23215,-9.41704,-13.1458,-8.58532,-18.8002
2023-03-15 15:52:12:493,-1.51385,2.22002,-9.41836,-13.152,-8.58946,-18.7892
2023-03-15 15:52:12:503,-1.50878,2.19963,-9.39089,-13.1567,-8.5947,-18.7833
2023-03-15 15:52:12:513,-1.48909,2.19753,-9.38402,-13.1578,-8.5969,-18.7758
2023-03-15 15:52:12:523,-1.49652,2.20611,-9.41328,-13.1646,-8.59836,-18.7695
2023-03-15 15:52:12:533,-1.5057,2.22367,-9.45466,-13.1686,-8.59915,-18.7652
2023-03-15 15:52:12:543,-1.49484,2.23448,-9.4563,-13.1731,-8.59931,-18.7643
2023-03-15 15:52:12:553,-1.47754,2.23146,-9.41336,-13.1742,-8.59838,-18.7687
2023-03-15 15:52:12:563,-1.4573,2.1995,-9.39012,-13.172,-8.59819,-18.7729
2023-03-15 15:52:12:573,-1.44594,2.19179,-9.39296,-13.1666,-8.59399,-18.7803
2023-03-15 15:52:12:583,-1.4335,2.20304,-9.41003,-13.1672,-8.59201,-18.7834
2023-03-15 15:52:12:593,-1.41671,2.20876,-9.419,-13.167,-8.59128,-18.7885
2023-03-15 15:52:12:603,-1.42236,2.203,-9.4478,-13.1656,-8.58967,-18.792
2023-03-15 15:52:12:613,-1.41719,2.21609,-9.45546,-13.1667,-8.58997,-18.7912
2023-03-15 15:52:12:623,-1.42027,2.2272,-9.4279,-13.1598,-8.58982,-18.8005
2023-03-15 15:52:12:633,-1.428,2.20728,-9.40118,-13.157,-8.58681,-18.8028
2023-03-15 15:52:12:643,-1.4211,2.19428,-9.38277,-13.1482,-8.58525,-18.8013
2023-03-15 15:52:12:653,-1.41465,2.16969,-9.39107,-13.1419,-8.58096,-18.8006
2023-03-15 15:52:12:663,-1.40873,2.18296,-9.42699,-13.1431,-8.57505,-18.7988
2023-03-15 15:52:12:673,-1.41829,2.20498,-9.42943,-13.1446,-8.56978,-18.7964
2023-03-15 15:52:12:683,-1.41771,2.20759,-9.40348,-13.1409,-8.57159,-18.7926
2023-03-15 15:52:12:693,-1.40007,2.20104,-9.38204,-13.1396,-8.57198,-18.7894
2023-03-15 15:52:12:703,-1.40337,2.2036,-9.39152,-13.1443,-8.57135,-18.7872
2023-03-15 15:52:12:713,-1.40961,2.20919,-9.39367,-13.1456,-8.57009,-18.7865
2023-03-15 15:52:12:723,-1.43256,2.21925,-9.39892,-13.1549,-8.57007,-18.7782
2023-03-15 15:52:12:733,-1.44463,2.2164,-9.41371,-13.1586,-8.57349,-18.7734
2023-03-15 15:52:12:743,-1.45229,2.22517,-9.39826,-13.1618,-8.57535,-18.7681
2023-03-15 15:52:12:753,-1.46952,2.21829,-9.40689,-13.1641,-8.57583,-18.7655
2023-03-15 15:52:12:763,-1.45638,2.22163,-9.42157,-13.1687,-8.58171,-18.7618
2023-03-15 15:52:12:773,-1.45844,2.22234,-9.41636,-13.1693,-8.58202,-18.7598
2023-03-15 15:52:12:783,-1.47115,2.21807,-9.40919,-13.1688,-8.58419,-18.7569
2023-03-15 15:52:12:793,-1.47303,2.22061,-9.40083,-13.1737,-8.58499,-18.7519
2023-03-15 15:52:12:803,-1.47227,2.21807,-9.40854,-13.177,-8.58313,-18.7511
2023-03-15 15:52:12:813,-1.47223,2.21238,-9.39771,-13.1792,-8.57918,-18.752
2023-03-15 15:52:12:823,-1.481,2.22827,-9.39518,-13.1791,-8.57657,-18.756
2023-03-15 15:52:12:833,-1.45413,2.2365,-9.40971,-13.1853,-8.57429,-18.7607
2023-03-15 15:52:12:843,-1.42363,2.23903,-9.42699,-13.1884,-8.5703,-18.7658
2023-03-15 15:52:12:853,-1.42169,2.23664,-9.42489,-13.1869,-8.56832,-18.7699
2023-03-15 15:52:12:863,-1.42427,2.23123,-9.43003,-13.1861,-8.56897,-18.7757
2023-03-15 15:52:12:873,-1.4293,2.22989,-9.43752,-13.1842,-8.56717,-18.7806
2023-03-15 15:52:12:883,-1.4215,2.23512,-9.45589,-13.1813,-8.56552,-18.7872
2023-03-15 15:52:12:893,-1.37237,2.21231,-9.45385,-13.1764,-8.56407,-18.7902
2023-03-15 15:52:12:903,-1.34069,2.20007,-9.42061,-13.1696,-8.56169,-18.7957
2023-03-15 15:52:12:913,-1.33525,2.18183,-9.38551,-13.1637,-8.56014,-18.797
2023-03-15 15:52:12:923,-1.37895,2.19162,-9.38137,-13.1635,-8.56175,-18.7938
2023-03-15 15:52:12:933,-1.41368,2.22483,-9.40715,-13.1674,-8.56705,-18.7861
2023-03-15 15:52:12:943,-1.42871,2.25735,-9.43199,-13.1724,-8.56658,-18.7813
2023-03-15 15:52:12:953,-1.42893,2.2781,-9.43379,-13.1783,-8.56564,-18.7782
2023-03-15 15:52:12:963,-1.45165,2.28418,-9.42295,-13.1846,-8.56465,-18.7759
2023-03-15 15:52:12:973,-1.46201,2.26864,-9.40094,-13.1903,-8.56895,-18.7729
2023-03-15 15:52:12:983,-1.46732,2.26564,-9.39357,-13.191,-8.57305,-18.7719
2023-03-15 15:52:12:993,-1.45092,2.27049,-9.38978,-13.194,-8.575,-18.7721
2023-03-15 15:52:13:3,-1.46229,2.26352,-9.37851,-13.1935,-8.57656,-18.7757
2023-03-15 15:52:13:13,-1.46761,2.23511,-9.37141,-13.1919,-8.57695,-18.7795
2023-03-15 15:52:13:23,-1.44408,2.21736,-9.34698,-13.1882,-8.57794,-18.7861
2023-03-15 15:52:13:33,-1.41661,2.2033,-9.34168,-13.1884,-8.57673,-18.792
2023-03-15 15:52:13:43,-1.39084,2.19591,-9.36561,-13.1913,-8.57691,-18.7976
2023-03-15 15:52:13:53,-1.39966,2.20624,-9.40801,-13.1939,-8.57597,-18.8005
2023-03-15 15:52:13:63,-1.39681,2.23523,-9.4327,-13.199,-8.57409,-18.8041
2023-03-15 15:52:13:73,-1.37499,2.25889,-9.46437,-13.2028,-8.57363,-18.8044
2023-03-15 15:52:13:83,-1.38716,2.26335,-9.49753,-13.2117,-8.56993,-18.8051
2023-03-15 15:52:13:93,-1.39,2.26882,-9.49583,-13.2154,-8.57119,-18.8051
2023-03-15 15:52:13:103,-1.41761,2.26492,-9.4685,-13.2185,-8.57221,-18.7973
2023-03-15 15:52:13:113,-1.45022,2.26662,-9.44033,-13.2178,-8.57165,-18.7919
2023-03-15 15:52:13:123,-1.46375,2.28086,-9.4527,-13.2144,-8.56902,-18.7885
2023-03-15 15:52:13:133,-1.42694,2.28383,-9.47583,-13.2134,-8.56666,-18.7869
2023-03-15 15:52:13:143,-1.37531,2.24627,-9.45232,-13.2055,-8.56354,-18.7867
2023-03-15 15:52:13:153,-1.38704,2.22823,-9.40066,-13.1973,-8.56504,-18.7844
2023-03-15 15:52:13:163,-1.42665,2.21703,-9.40514,-13.1869,-8.57086,-18.7786
2023-03-15 15:52:13:173,-1.43689,2.20894,-9.40386,-13.1786,-8.57685,-18.7723
2023-03-15 15:52:13:183,-1.43932,2.19981,-9.39202,-13.17,-8.58187,-18.7697
2023-03-15 15:52:13:193,-1.43827,2.20594,-9.38857,-13.1606,-8.58767,-18.7691
2023-03-15 15:52:13:203,-1.43141,2.19047,-9.38807,-13.1532,-8.59147,-18.7685
2023-03-15 15:52:13:213,-1.41412,2.18119,-9.39617,-13.1477,-8.59506,-18.7608
2023-03-15 15:52:13:223,-1.41373,2.18957,-9.40116,-13.1469,-8.59998,-18.7543
2023-03-15 15:52:13:233,-1.42299,2.19141,-9.40213,-13.1445,-8.60285,-18.7445
2023-03-15 15:52:13:243,-1.42867,2.1858,-9.39092,-13.143,-8.60593,-18.7363
2023-03-15 15:52:13:253,-1.44711,2.18286,-9.38625,-13.1388,-8.61124,-18.7259
2023-03-15 15:52:13:263,-1.45532,2.19649,-9.3748,-13.1331,-8.61611,-18.7178
2023-03-15 15:52:13:273,-1.45456,2.19016,-9.38629,-13.1323,-8.61943,-18.7075
2023-03-15 15:52:13:283,-1.46231,2.19424,-9.38623,-13.1321,-8.6256,-18.6964
2023-03-15 15:52:13:293,-1.46702,2.19491,-9.39275,-13.1272,-8.62813,-18.6897
2023-03-15 15:52:13:303,-1.46678,2.18159,-9.38214,-13.1237,-8.63015,-18.6888
2023-03-15 15:52:13:313,-1.45693,2.17358,-9.38319,-13.1244,-8.63206,-18.6838
2023-03-15 15:52:13:323,-1.45895,2.17502,-9.39363,-13.1275,-8.63708,-18.6767
2023-03-15 15:52:13:333,-1.45784,2.19977,-9.40765,-13.1301,-8.64275,-18.6734
2023-03-15 15:52:13:343,-1.46974,2.19952,-9.40728,-13.1353,-8.64873,-18.6695
2023-03-15 15:52:13:353,-1.4592,2.20622,-9.40239,-13.1409,-8.6521,-18.6606
2023-03-15 15:52:13:363,-1.45997,2.21675,-9.40974,-13.1458,-8.6547,-18.6552
2023-03-15 15:52:13:373,-1.47356,2.20898,-9.41694,-13.147,-8.65635,-18.6519
2023-03-15 15:52:13:383,-1.47226,2.22521,-9.4125,-13.1526,-8.66468,-18.6468
2023-03-15 15:52:13:393,-1.47613,2.24207,-9.40994,-13.1591,-8.66606,-18.6426
2023-03-15 15:52:13:403,-1.49335,2.22172,-9.40747,-13.1639,-8.67229,-18.6367
2023-03-15 15:52:13:413,-1.48111,2.23336,-9.40547,-13.1668,-8.67383,-18.6343
2023-03-15 15:52:13:423,-1.47549,2.24392,-9.40834,-13.1705,-8.67348,-18.6319
2023-03-15 15:52:13:433,-1.46833,2.22513,-9.40313,-13.1742,-8.67258,-18.6314
2023-03-15 15:52:13:443,-1.45534,2.21179,-9.39711,-13.1747,-8.67276,-18.6362
2023-03-15 15:52:13:453,-1.44226,2.20601,-9.39462,-13.1752,-8.67081,-18.6392
2023-03-15 15:52:13:463,-1.43485,2.2253,-9.39842,-13.1771,-8.67026,-18.6432
2023-03-15 15:52:13:473,-1.43464,2.23477,-9.4284,-13.1799,-8.67201,-18.6457
2023-03-15 15:52:13:483,-1.44176,2.22988,-9.42774,-13.182,-8.67153,-18.6445
2023-03-15 15:52:13:493,-1.43047,2.21862,-9.41181,-13.179,-8.66967,-18.6435
2023-03-15 15:52:13:503,-1.41915,2.21249,-9.39664,-13.1768,-8.66931,-18.6436
2023-03-15 15:52:13:513,-1.41557,2.21601,-9.38785,-13.1763,-8.66596,-18.6466
2023-03-15 15:52:13:523,-1.41698,2.21322,-9.39602,-13.1763,-8.66361,-18.644
2023-03-15 15:52:13:533,-1.41415,2.21324,-9.40326,-13.1765,-8.65918,-18.6425
2023-03-15 15:52:13:543,-1.4263,2.21323,-9.40379,-13.1795,-8.65471,-18.6362
2023-03-15 15:52:13:553,-1.43044,2.21948,-9.42553,-13.1846,-8.65294,-18.6318
2023-03-15 15:52:13:563,-1.43176,2.23235,-9.43069,-13.1885,-8.65217,-18.6257
2023-03-15 15:52:13:573,-1.44074,2.23117,-9.41664,-13.1907,-8.65301,-18.6187
2023-03-15 15:52:13:583,-1.43663,2.22425,-9.39887,-13.1898,-8.65835,-18.6137
2023-03-15 15:52:13:593,-1.43025,2.20848,-9.38701,-13.1889,-8.65879,-18.6071
2023-03-15 15:52:13:603,-1.44282,2.19489,-9.37983,-13.1896,-8.66007,-18.604
2023-03-15 15:52:13:613,-1.44648,2.2104,-9.38499,-13.1913,-8.66378,-18.5997
2023-03-15 15:52:13:623,-1.44673,2.22016,-9.39882,-13.1913,-8.66795,-18.5914
2023-03-15 15:52:13:633,-1.44852,2.22732,-9.40598,-13.1988,-8.67212,-18.5888
2023-03-15 15:52:13:643,-1.45351,2.23691,-9.40882,-13.2042,-8.67573,-18.5853
2023-03-15 15:52:13:653,-1.46289,2.24394,-9.42142,-13.2096,-8.67976,-18.582
2023-03-15 15:52:13:663,-1.47831,2.24783,-9.42679,-13.2139,-8.6816,-18.5766
2023-03-15 15:52:13:673,-1.47671,2.24428,-9.419,-13.2161,-8.68184,-18.5752
2023-03-15 15:52:13:683,-1.48612,2.24032,-9.43285,-13.2196,-8.6816,-18.5742
2023-03-15 15:52:13:693,-1.48995,2.23221,-9.40371,-13.2167,-8.67787,-18.5727
2023-03-15 15:52:13:703,-1.48708,2.21486,-9.3776,-13.2136,-8.67715,-18.5739
2023-03-15 15:52:13:713,-1.45031,2.21497,-9.38594,-13.2152,-8.67683,-18.572
2023-03-15 15:52:13:723,-1.43998,2.21444,-9.39303,-13.2156,-8.67831,-18.5727
2023-03-15 15:52:13:733,-1.456,2.22464,-9.40914,-13.2172,-8.67721,-18.5722
2023-03-15 15:52:13:743,-1.45302,2.23521,-9.43227,-13.219,-8.67818,-18.5756
2023-03-15 15:52:13:753,-1.42633,2.25134,-9.45259,-13.2223,-8.6773,-18.5787
2023-03-15 15:52:13:763,-1.39051,2.22597,-9.45966,-13.2233,-8.67837,-18.5819
2023-03-15 15:52:13:773,-1.37237,2.20321,-9.41745,-13.2192,-8.6794,-18.5808
2023-03-15 15:52:13:783,-1.40073,2.17478,-9.36053,-13.2179,-8.68628,-18.5728
2023-03-15 15:52:13:793,-1.44629,2.19191,-9.35073,-13.2167,-8.69447,-18.5662
2023-03-15 15:52:13:803,-1.48105,2.23251,-9.375,-13.2241,-8.70074,-18.5547
2023-03-15 15:52:13:813,-1.49825,2.26099,-9.39257,-13.2317,-8.70427,-18.5453
2023-03-15 15:52:13:823,-1.51388,2.26983,-9.40024,-13.2394,-8.70669,-18.539
2023-03-15 15:52:13:833,-1.51562,2.28228,-9.40613,-13.2457,-8.70345,-18.5348
2023-03-15 15:52:13:843,-1.53109,2.31087,-9.40912,-13.2539,-8.70215,-18.5325
2023-03-15 15:52:13:853,-1.54491,2.31396,-9.4033,-13.2612,-8.70064,-18.5336
2023-03-15 15:52:13:863,-1.53836,2.30077,-9.39917,-13.2659,-8.69836,-18.5356
2023-03-15 15:52:13:873,-1.53172,2.29427,-9.37932,-13.2675,-8.69738,-18.5404
2023-03-15 15:52:13:883,-1.51537,2.26793,-9.35526,-13.2653,-8.69462,-18.5535
2023-03-15 15:52:13:893,-1.49277,2.24608,-9.34094,-13.2657,-8.6921,-18.5635
2023-03-15 15:52:13:903,-1.46516,2.23152,-9.34926,-13.2644,-8.68624,-18.5764
2023-03-15 15:52:13:913,-1.4272,2.23442,-9.3694,-13.2629,-8.6807,-18.5889
2023-03-15 15:52:13:923,-1.41883,2.24798,-9.39066,-13.2618,-8.67258,-18.602
2023-03-15 15:52:13:933,-1.41677,2.25954,-9.42806,-13.265,-8.66635,-18.6139
2023-03-15 15:52:13:943,-1.3985,2.26238,-9.44628,-13.2654,-8.65912,-18.6241
2023-03-15 15:52:13:953,-1.39288,2.27746,-9.44537,-13.269,-8.65331,-18.6325
2023-03-15 15:52:13:963,-1.3957,2.27512,-9.43607,-13.2713,-8.64942,-18.6371
2023-03-15 15:52:13:973,-1.41931,2.27006,-9.44749,-13.271,-8.64472,-18.6379
2023-03-15 15:52:13:983,-1.44549,2.27558,-9.45869,-13.2677,-8.63843,-18.6398
2023-03-15 15:52:13:993,-1.4646,2.29004,-9.45369,-13.2637,-8.63632,-18.642
2023-03-15 15:52:14:3,-1.43676,2.28166,-9.45921,-13.2593,-8.63074,-18.6478
2023-03-15 15:52:14:13,-1.40642,2.25235,-9.4481,-13.252,-8.62832,-18.65
2023-03-15 15:52:14:23,-1.40511,2.21907,-9.40745,-13.2427,-8.62897,-18.6523
2023-03-15 15:52:14:32,-1.43666,2.20306,-9.37101,-13.2309,-8.63309,-18.6542
2023-03-15 15:52:14:43,-1.4691,2.17746,-9.36243,-13.2208,-8.63747,-18.6586
2023-03-15 15:52:14:52,-1.47848,2.17925,-9.37873,-13.2124,-8.64271,-18.6639
2023-03-15 15:52:14:62,-1.45974,2.20053,-9.427,-13.2081,-8.64608,-18.6694
2023-03-15 15:52:14:72,-1.43201,2.21159,-9.43042,-13.2032,-8.64719,-18.6788
2023-03-15 15:52:14:82,-1.42039,2.18332,-9.40516,-13.199,-8.64879,-18.6879
2023-03-15 15:52:14:92,-1.41782,2.17704,-9.38852,-13.1931,-8.6505,-18.693
2023-03-15 15:52:14:102,-1.42698,2.1939,-9.38486,-13.1884,-8.64917,-18.6999
2023-03-15 15:52:14:113,-1.42097,2.19508,-9.39848,-13.1847,-8.64782,-18.707
2023-03-15 15:52:14:123,-1.41746,2.20546,-9.40385,-13.1826,-8.64714,-18.7146
2023-03-15 15:52:14:133,-1.41402,2.20916,-9.40292,-13.1828,-8.64804,-18.7213
2023-03-15 15:52:14:143,-1.41625,2.20038,-9.39653,-13.1831,-8.65158,-18.7258
2023-03-15 15:52:14:153,-1.43735,2.19616,-9.38201,-13.1783,-8.65276,-18.7266
2023-03-15 15:52:14:163,-1.4374,2.20143,-9.3847,-13.1747,-8.65562,-18.7283
2023-03-15 15:52:14:173,-1.43719,2.21599,-9.41043,-13.1768,-8.66077,-18.7299
2023-03-15 15:52:14:183,-1.44128,2.22915,-9.41833,-13.1782,-8.66243,-18.7318
2023-03-15 15:52:14:193,-1.44225,2.22422,-9.423,-13.1754,-8.66343,-18.7338
2023-03-15 15:52:14:203,-1.45941,2.23258,-9.4201,-13.17,-8.66607,-18.7374
2023-03-15 15:52:14:213,-1.48142,2.24284,-9.41871,-13.1699,-8.66998,-18.7383
2023-03-15 15:52:14:223,-1.47962,2.23327,-9.42265,-13.1725,-8.67539,-18.741
2023-03-15 15:52:14:233,-1.4989,2.22973,-9.42283,-13.1682,-8.67975,-18.7449
2023-03-15 15:52:14:243,-1.5176,2.21992,-9.41472,-13.1641,-8.6835,-18.7469
2023-03-15 15:52:14:252,-1.51547,2.20351,-9.40265,-13.1588,-8.68427,-18.7519
2023-03-15 15:52:14:263,-1.50522,2.21179,-9.38909,-13.1574,-8.68552,-18.7542
2023-03-15 15:52:14:273,-1.50065,2.21678,-9.39792,-13.1572,-8.688,-18.758
2023-03-15 15:52:14:283,-1.50132,2.2286,-9.41364,-13.1569,-8.68738,-18.7655
2023-03-15 15:52:14:293,-1.49603,2.23374,-9.42338,-13.1564,-8.68375,-18.7725
2023-03-15 15:52:14:303,-1.49448,2.22981,-9.42354,-13.1541,-8.68352,-18.7798
2023-03-15 15:52:14:313,-1.47723,2.23253,-9.40458,-13.1448,-8.67901,-18.7843
2023-03-15 15:52:14:323,-1.45267,2.21458,-9.38307,-13.1377,-8.67274,-18.7951
2023-03-15 15:52:14:333,-1.44787,2.2027,-9.3967,-13.1308,-8.66646,-18.8063
2023-03-15 15:52:14:343,-1.43925,2.20149,-9.41837,-13.1228,-8.65918,-18.813
2023-03-15 15:52:14:353,-1.42668,2.18807,-9.3923,-13.116,-8.65233,-18.817
2023-03-15 15:52:14:363,-1.41589,2.1914,-9.39868,-13.1138,-8.64771,-18.8256
2023-03-15 15:52:14:373,-1.40649,2.21469,-9.41318,-13.1117,-8.64156,-18.8317
2023-03-15 15:52:14:383,-1.40274,2.22379,-9.40945,-13.1087,-8.63831,-18.8379
2023-03-15 15:52:14:393,-1.39268,2.21549,-9.41527,-13.106,-8.63542,-18.844
2023-03-15 15:52:14:403,-1.39372,2.19386,-9.43309,-13.1007,-8.63695,-18.8455
2023-03-15 15:52:14:413,-1.38555,2.20932,-9.42457,-13.0949,-8.63969,-18.8467
2023-03-15 15:52:14:423,-1.3897,2.22703,-9.40554,-13.0925,-8.64099,-18.8473
2023-03-15 15:52:14:433,-1.4097,2.21423,-9.40113,-13.0914,-8.6403,-18.8418
2023-03-15 15:52:14:443,-1.42089,2.20396,-9.41167,-13.0895,-8.64036,-18.8408
2023-03-15 15:52:14:453,-1.42625,2.20608,-9.39556,-13.0895,-8.64947,-18.8348
2023-03-15 15:52:14:463,-1.42441,2.19832,-9.39334,-13.0866,-8.65212,-18.8312
2023-03-15 15:52:14:473,-1.42162,2.19213,-9.40073,-13.0883,-8.65248,-18.8217
2023-03-15 15:52:14:483,-1.44592,2.19993,-9.41791,-13.0892,-8.65462,-18.8125
2023-03-15 15:52:14:493,-1.46256,2.20468,-9.42417,-13.0921,-8.65803,-18.8016
2023-03-15 15:52:14:503,-1.49018,2.24206,-9.45085,-13.09,-8.66024,-18.7913
2023-03-15 15:52:14:513,-1.4931,2.36321,-9.62503,-13.0867,-8.65413,-18.7844
2023-03-15 15:52:14:523,-1.46026,2.26784,-9.56143,-13.0602,-8.6284,-18.7754
2023-03-15 15:52:14:533,-1.43623,2.08081,-9.25154,-13.0224,-8.62263,-18.7729
2023-03-15 15:52:14:543,-1.4263,2.08627,-9.22992,-13.004,-8.62221,-18.7645
2023-03-15 15:52:14:553,-1.44924,2.14985,-9.32089,-12.9999,-8.62399,-18.7583
2023-03-15 15:52:14:563,-1.44118,2.1813,-9.40099,-13.0098,-8.63421,-18.7524
2023-03-15 15:52:14:573,-1.44347,2.18659,-9.41204,-13.012,-8.64057,-18.7505
2023-03-15 15:52:14:583,-1.46585,2.17784,-9.41208,-13.0128,-8.64807,-18.7462
2023-03-15 15:52:14:593,-1.43066,2.17232,-9.43344,-13.0135,-8.65426,-18.7433
2023-03-15 15:52:14:603,-1.38823,2.16868,-9.43987,-13.0118,-8.65977,-18.7405
2023-03-15 15:52:14:613,-1.39415,2.22013,-9.51367,-13.0083,-8.66805,-18.7358
2023-03-15 15:52:14:623,-1.40057,2.26038,-9.57516,-13.0012,-8.65967,-18.7268
2023-03-15 15:52:14:633,-1.41642,2.11558,-9.35945,-12.9776,-8.65723,-18.7192
2023-03-15 15:52:14:643,-1.4296,2.07788,-9.2266,-12.9667,-8.67085,-18.7098
2023-03-15 15:52:14:653,-1.46019,2.19885,-9.40104,-12.9759,-8.68322,-18.6964
2023-03-15 15:52:14:663,-1.48979,2.25157,-9.47663,-12.9917,-8.69082,-18.6853
2023-03-15 15:52:14:673,-1.49446,2.24616,-9.46073,-13.0017,-8.69969,-18.6785
2023-03-15 15:52:14:683,-1.51168,2.23269,-9.41829,-13.0058,-8.70293,-18.6698
2023-03-15 15:52:14:693,-1.50894,2.20964,-9.39312,-13.0009,-8.70396,-18.6637
2023-03-15 15:52:14:703,-1.49967,2.18225,-9.36882,-12.9928,-8.70719,-18.6598
2023-03-15 15:52:14:713,-1.49856,2.17481,-9.3563,-12.9829,-8.70716,-18.6594
2023-03-15 15:52:14:723,-1.49715,2.18428,-9.37543,-12.9737,-8.70818,-18.6586
2023-03-15 15:52:14:733,-1.47792,2.15856,-9.38435,-12.9667,-8.70297,-18.6571
2023-03-15 15:52:14:743,-1.44849,2.13212,-9.36407,-12.956,-8.70024,-18.658
2023-03-15 15:52:14:753,-1.42985,2.11839,-9.34707,-12.9479,-8.69709,-18.6553
2023-03-15 15:52:14:763,-1.43583,2.14345,-9.38317,-12.9435,-8.69564,-18.6599
2023-03-15 15:52:14:773,-1.44716,2.18102,-9.42698,-12.9442,-8.69291,-18.6574
2023-03-15 15:52:14:783,-1.44515,2.19142,-9.44077,-12.9495,-8.69007,-18.6541
2023-03-15 15:52:14:793,-1.42666,2.19538,-9.43782,-12.9578,-8.69004,-18.6512
2023-03-15 15:52:14:803,-1.42028,2.20919,-9.44542,-12.9668,-8.68797,-18.6456
2023-03-15 15:52:14:813,-1.45289,2.23165,-9.4624,-12.9734,-8.69135,-18.6406
2023-03-15 15:52:14:823,-1.50381,2.23523,-9.46257,-12.9765,-8.69382,-18.6376
2023-03-15 15:52:14:833,-1.49998,2.23618,-9.45417,-12.9811,-8.69692,-18.6341
2023-03-15 15:52:14:843,-1.46302,2.23598,-9.47102,-12.9839,-8.69568,-18.6326
2023-03-15 15:52:14:853,-1.40835,2.21421,-9.46913,-12.9823,-8.69837,-18.6332
2023-03-15 15:52:14:863,-1.42453,2.1759,-9.41626,-12.973,-8.70696,-18.6274
2023-03-15 15:52:14:873,-1.46202,2.15685,-9.39005,-12.9675,-8.71554,-18.6196
2023-03-15 15:52:14:882,-1.48278,2.16377,-9.40642,-12.9658,-8.72722,-18.6142
2023-03-15 15:52:14:892,-1.47438,2.17071,-9.43064,-12.9647,-8.73525,-18.6088
2023-03-15 15:52:14:903,-1.47297,2.176,-9.43085,-12.9619,-8.74464,-18.605
2023-03-15 15:52:14:913,-1.47376,2.17901,-9.42558,-12.9611,-8.75316,-18.5991
2023-03-15 15:52:14:923,-1.47788,2.19035,-9.43095,-12.9586,-8.7618,-18.5969
2023-03-15 15:52:14:932,-1.46843,2.18975,-9.43705,-12.9576,-8.76684,-18.5944
2023-03-15 15:52:14:943,-1.47215,2.1802,-9.43737,-12.9583,-8.77296,-18.5876
2023-03-15 15:52:14:953,-1.47746,2.16286,-9.41865,-12.9525,-8.77991,-18.5807
2023-03-15 15:52:14:963,-1.48068,2.15956,-9.39977,-12.9446,-8.78705,-18.5724
2023-03-15 15:52:14:973,-1.48428,2.14789,-9.39577,-12.9409,-8.79136,-18.5662
2023-03-15 15:52:14:983,-1.4855,2.14941,-9.3853,-12.9318,-8.7941,-18.5588
2023-03-15 15:52:14:993,-1.48724,2.13767,-9.38043,-12.9261,-8.79508,-18.5501
2023-03-15 15:52:15:3,-1.49349,2.12899,-9.36198,-12.9188,-8.79653,-18.5415
2023-03-15 15:52:15:13,-1.50435,2.13841,-9.36671,-12.9121,-8.79993,-18.5319
2023-03-15 15:52:15:23,-1.51099,2.1532,-9.37093,-12.9122,-8.79843,-18.5249
2023-03-15 15:52:15:33,-1.5167,2.16239,-9.38455,-12.9119,-8.80095,-18.5181
2023-03-15 15:52:15:43,-1.52916,2.16318,-9.39522,-12.9154,-8.80242,-18.5132
2023-03-15 15:52:15:53,-1.5274,2.17931,-9.39297,-12.9204,-8.80457,-18.5075
2023-03-15 15:52:15:63,-1.53783,2.18586,-9.41626,-12.9238,-8.80655,-18.5041
2023-03-15 15:52:15:73,-1.5412,2.19426,-9.4192,-12.934,-8.80687,-18.5015
2023-03-15 15:52:15:83,-1.53726,2.20974,-9.42913,-12.9386,-8.80391,-18.5033
2023-03-15 15:52:15:93,-1.53271,2.21908,-9.41299,-12.9451,-8.7996,-18.5037
2023-03-15 15:52:15:103,-1.5247,2.20445,-9.39839,-12.9474,-8.7965,-18.5103
2023-03-15 15:52:15:113,-1.49579,2.20225,-9.39495,-12.9462,-8.7927,-18.5152
2023-03-15 15:52:15:123,-1.49675,2.19975,-9.41781,-12.9516,-8.78984,-18.5177
2023-03-15 15:52:15:133,-1.50746,2.20189,-9.42891,-12.9533,-8.78717,-18.521
2023-03-15 15:52:15:143,-1.48724,2.19629,-9.43957,-12.9501,-8.78008,-18.5269
2023-03-15 15:52:15:153,-1.48247,2.19233,-9.4288,-12.9475,-8.77626,-18.5303
2023-03-15 15:52:15:163,-1.47491,2.20773,-9.42682,-12.947,-8.77288,-18.5369
2023-03-15 15:52:15:173,-1.46722,2.20173,-9.42598,-12.9446,-8.76678,-18.5449
2023-03-15 15:52:15:183,-1.45403,2.18786,-9.42694,-12.9424,-8.76331,-18.5515
2023-03-15 15:52:15:193,-1.43942,2.1805,-9.42575,-12.9372,-8.75829,-18.5603
2023-03-15 15:52:15:203,-1.44244,2.18595,-9.4259,-12.934,-8.75542,-18.5636
2023-03-15 15:52:15:213,-1.45276,2.19809,-9.43154,-12.9322,-8.75278,-18.5661
2023-03-15 15:52:15:223,-1.44597,2.18426,-9.42724,-12.9278,-8.74652,-18.5665
2023-03-15 15:52:15:233,-1.44068,2.17426,-9.41418,-12.919,-8.74306,-18.5686
2023-03-15 15:52:15:243,-1.4565,2.173,-9.39989,-12.9105,-8.74114,-18.566
2023-03-15 15:52:15:253,-1.45883,2.18736,-9.39806,-12.9054,-8.73895,-18.5627
2023-03-15 15:52:15:263,-1.46551,2.17694,-9.39771,-12.9017,-8.73485,-18.5641
2023-03-15 15:52:15:273,-1.45931,2.16331,-9.4085,-12.897,-8.73233,-18.5625
2023-03-15 15:52:15:283,-1.46125,2.15653,-9.39375,-12.8916,-8.72987,-18.5597
2023-03-15 15:52:15:293,-1.47394,2.14533,-9.38926,-12.8899,-8.7286,-18.558
2023-03-15 15:52:15:303,-1.48058,2.15972,-9.39478,-12.8878,-8.72776,-18.5565
2023-03-15 15:52:15:313,-1.46913,2.16025,-9.39993,-12.8881,-8.7246,-18.5538
2023-03-15 15:52:15:323,-1.4757,2.15567,-9.39051,-12.8882,-8.72455,-18.558
2023-03-15 15:52:15:333,-1.49248,2.14432,-9.38468,-12.89,-8.72602,-18.5603
2023-03-15 15:52:15:343,-1.493,2.15226,-9.3839,-12.8933,-8.7237,-18.5598
2023-03-15 15:52:15:353,-1.46987,2.15797,-9.40381,-12.8994,-8.72155,-18.5608
2023-03-15 15:52:15:363,-1.45489,2.1713,-9.41247,-12.9042,-8.72192,-18.565
2023-03-15 15:52:15:373,-1.4573,2.15766,-9.42431,-12.9053,-8.71902,-18.5666
2023-03-15 15:52:15:383,-1.45865,2.1559,-9.43362,-12.9071,-8.71418,-18.5717
2023-03-15 15:52:15:393,-1.45236,2.19785,-9.46157,-12.9104,-8.71432,-18.5737
2023-03-15 15:52:15:403,-1.44222,2.18795,-9.46868,-12.915,-8.71252,-18.5788
2023-03-15 15:52:15:413,-1.39951,2.16555,-9.4549,-12.9132,-8.70839,-18.5795
2023-03-15 15:52:15:423,-1.38924,2.13795,-9.41599,-12.9118,-8.70789,-18.5784
2023-03-15 15:52:15:433,-1.44146,2.14212,-9.39243,-12.9118,-8.71063,-18.5736
2023-03-15 15:52:15:443,-1.4858,2.18522,-9.41442,-12.9203,-8.71505,-18.5685
2023-03-15 15:52:15:453,-1.4995,2.22469,-9.46162,-12.9262,-8.71922,-18.5654
2023-03-15 15:52:15:463,-1.50251,2.25176,-9.47593,-12.9328,-8.71755,-18.5682
2023-03-15 15:52:15:473,-1.52653,2.2563,-9.45769,-12.9375,-8.71786,-18.5679
2023-03-15 15:52:15:483,-1.5137,2.2545,-9.43248,-12.9393,-8.71381,-18.5739
2023-03-15 15:52:15:493,-1.50613,2.22976,-9.39681,-12.9376,-8.70895,-18.5798
2023-03-15 15:52:15:503,-1.51142,2.20075,-9.37479,-12.9313,-8.70678,-18.5863
2023-03-15 15:52:15:513,-1.51275,2.1916,-9.36604,-12.9263,-8.70641,-18.5942
2023-03-15 15:52:15:523,-1.50255,2.19288,-9.35658,-12.9225,-8.6962,-18.6034
2023-03-15 15:52:15:533,-1.47676,2.17544,-9.36349,-12.9181,-8.69036,-18.6148
2023-03-15 15:52:15:543,-1.44431,2.17,-9.35317,-12.9141,-8.68506,-18.624
2023-03-15 15:52:15:553,-1.41577,2.16927,-9.36556,-12.9097,-8.67843,-18.6345
2023-03-15 15:52:15:563,-1.409,2.17041,-9.37449,-12.9098,-8.67288,-18.6483
2023-03-15 15:52:15:573,-1.39506,2.18285,-9.39449,-12.9091,-8.66317,-18.6557
2023-03-15 15:52:15:583,-1.3872,2.17555,-9.42603,-12.9148,-8.65338,-18.6643
2023-03-15 15:52:15:593,-1.3953,2.20324,-9.43167,-12.9214,-8.64754,-18.6677
2023-03-15 15:52:15:603,-1.40048,2.21701,-9.44557,-12.9309,-8.64133,-18.6733
2023-03-15 15:52:15:613,-1.45661,2.23682,-9.46172,-12.9395,-8.64068,-18.6739
2023-03-15 15:52:15:623,-1.49222,2.24069,-9.46737,-12.9468,-8.63852,-18.6735
2023-03-15 15:52:15:633,-1.50107,2.25971,-9.48426,-12.9512,-8.63465,-18.6751
2023-03-15 15:52:15:643,-1.45068,2.27172,-9.50075,-12.9522,-8.63211,-18.6816
2023-03-15 15:52:15:653,-1.39181,2.2486,-9.48689,-12.9522,-8.62998,-18.692
2023-03-15 15:52:15:663,-1.39654,2.19643,-9.44202,-12.9434,-8.62996,-18.7002
2023-03-15 15:52:15:673,-1.4374,2.18746,-9.42759,-12.933,-8.63279,-18.7043
2023-03-15 15:52:15:683,-1.45377,2.17845,-9.43127,-12.9232,-8.63904,-18.7084
2023-03-15 15:52:15:693,-1.45125,2.1796,-9.43804,-12.9155,-8.64218,-18.7119
2023-03-15 15:52:15:703,-1.44489,2.17106,-9.4435,-12.9061,-8.64494,-18.715
2023-03-15 15:52:15:713,-1.43453,2.15483,-9.43857,-12.8981,-8.64693,-18.7158
2023-03-15 15:52:15:723,-1.42366,2.15679,-9.43529,-12.8862,-8.64888,-18.7191
2023-03-15 15:52:15:733,-1.43512,2.17135,-9.42712,-12.8779,-8.65154,-18.7197
2023-03-15 15:52:15:743,-1.46147,2.16419,-9.42974,-12.8691,-8.65402,-18.7161
2023-03-15 15:52:15:753,-1.4627,2.16095,-9.41315,-12.8576,-8.65435,-18.7146
2023-03-15 15:52:15:763,-1.46476,2.14525,-9.40015,-12.8436,-8.65027,-18.7116
2023-03-15 15:52:15:773,-1.4624,2.13535,-9.39509,-12.8339,-8.65025,-18.7074
2023-03-15 15:52:15:783,-1.47518,2.1411,-9.37616,-12.8224,-8.64873,-18.7033
2023-03-15 15:52:15:793,-1.46687,2.1329,-9.38059,-12.8157,-8.64507,-18.7001
2023-03-15 15:52:15:803,-1.46373,2.12305,-9.37878,-12.8047,-8.64533,-18.697
2023-03-15 15:52:15:813,-1.46198,2.12667,-9.37744,-12.7983,-8.64834,-18.6944
2023-03-15 15:52:15:823,-1.46208,2.12851,-9.38881,-12.7955,-8.65077,-18.6928
2023-03-15 15:52:15:833,-1.45698,2.12297,-9.38916,-12.7918,-8.65328,-18.6913
2023-03-15 15:52:15:843,-1.45658,2.11846,-9.38225,-12.7888,-8.65746,-18.688
2023-03-15 15:52:15:853,-1.43745,2.12322,-9.38044,-12.791,-8.66039,-18.6829
2023-03-15 15:52:15:863,-1.4524,2.13385,-9.41426,-12.7924,-8.65935,-18.6769
2023-03-15 15:52:15:873,-1.46415,2.13521,-9.41382,-12.7958,-8.65869,-18.6712
2023-03-15 15:52:15:883,-1.44749,2.12732,-9.40819,-12.7995,-8.65577,-18.6668
2023-03-15 15:52:15:893,-1.45041,2.13697,-9.40375,-12.8046,-8.65419,-18.661
2023-03-15 15:52:15:903,-1.46742,2.15751,-9.40197,-12.8107,-8.65676,-18.6545
2023-03-15 15:52:15:913,-1.47387,2.1774,-9.41069,-12.8161,-8.65324,-18.6497
2023-03-15 15:52:15:923,-1.46937,2.17772,-9.43224,-12.8238,-8.65198,-18.6445
2023-03-15 15:52:15:933,-1.47408,2.18331,-9.43384,-12.8333,-8.64772,-18.6382
2023-03-15 15:52:15:943,-1.47201,2.1824,-9.43791,-12.836,-8.64558,-18.6343
2023-03-15 15:52:15:953,-1.466,2.18078,-9.4206,-12.8393,-8.64167,-18.6349
2023-03-15 15:52:15:963,-1.47046,2.17493,-9.41939,-12.8433,-8.63957,-18.6351
2023-03-15 15:52:15:973,-1.47323,2.18466,-9.40448,-12.8496,-8.63712,-18.638
2023-03-15 15:52:15:983,-1.45596,2.17867,-9.43392,-12.8553,-8.62959,-18.6382
2023-03-15 15:52:15:993,-1.42623,2.18244,-9.44635,-12.8567,-8.62777,-18.6421
2023-03-15 15:52:16:3,-1.42764,2.18272,-9.45128,-12.8555,-8.62623,-18.6429
2023-03-15 15:52:16:13,-1.41694,2.17506,-9.45631,-12.8556,-8.62368,-18.6461
2023-03-15 15:52:16:23,-1.40034,2.17236,-9.45452,-12.854,-8.62518,-18.6511
2023-03-15 15:52:16:33,-1.40815,2.17453,-9.44333,-12.8533,-8.62563,-18.6473
2023-03-15 15:52:16:43,-1.40475,2.17883,-9.4261,-12.8471,-8.62409,-18.6479
2023-03-15 15:52:16:53,-1.40182,2.1558,-9.41896,-12.8403,-8.62196,-18.6496
2023-03-15 15:52:16:63,-1.42037,2.13589,-9.41014,-12.8398,-8.62425,-18.6459
2023-03-15 15:52:16:73,-1.43299,2.15156,-9.39516,-12.8386,-8.62656,-18.6378
2023-03-15 15:52:16:83,-1.43496,2.16312,-9.40306,-12.8403,-8.62786,-18.6287
2023-03-15 15:52:16:94,-1.44198,2.17101,-9.39889,-12.8416,-8.62878,-18.6222
2023-03-15 15:52:16:103,-1.44534,2.18038,-9.38893,-12.8415,-8.63239,-18.6182
2023-03-15 15:52:16:113,-1.45718,2.1777,-9.40363,-12.8449,-8.63476,-18.6113
2023-03-15 15:52:16:123,-1.4851,2.19138,-9.41632,-12.8508,-8.63928,-18.6043
2023-03-15 15:52:16:133,-1.48241,2.18996,-9.4234,-12.8557,-8.64173,-18.5956
2023-03-15 15:52:16:143,-1.47727,2.17618,-9.41348,-12.861,-8.64091,-18.5901
2023-03-15 15:52:16:153,-1.48513,2.18556,-9.40257,-12.8602,-8.6398,-18.5837
2023-03-15 15:52:16:163,-1.49145,2.18647,-9.39772,-12.8641,-8.63951,-18.582
2023-03-15 15:52:16:173,-1.46758,2.1723,-9.40164,-12.8696,-8.64108,-18.5822
2023-03-15 15:52:16:183,-1.44682,2.17774,-9.41571,-12.8745,-8.64744,-18.5796
2023-03-15 15:52:16:193,-1.44878,2.18003,-9.41919,-12.881,-8.64858,-18.5745
2023-03-15 15:52:16:203,-1.45652,2.18927,-9.45843,-12.8862,-8.65145,-18.5733
2023-03-15 15:52:16:213,-1.43756,2.21853,-9.4897,-12.8896,-8.65455,-18.5747
2023-03-15 15:52:16:223,-1.38697,2.20749,-9.49975,-12.8909,-8.65661,-18.5789
2023-03-15 15:52:16:233,-1.36656,2.16321,-9.46233,-12.8859,-8.66234,-18.5785
2023-03-15 15:52:16:243,-1.40083,2.15514,-9.41567,-12.8818,-8.67166,-18.572
2023-03-15 15:52:16:253,-1.4442,2.1701,-9.41773,-12.8842,-8.68299,-18.564
2023-03-15 15:52:16:263,-1.47542,2.20887,-9.44048,-12.891,-8.69406,-18.5527
2023-03-15 15:52:16:273,-1.50665,2.2415,-9.45014,-12.8973,-8.70268,-18.5433
2023-03-15 15:52:16:283,-1.5229,2.26496,-9.46364,-12.9039,-8.70885,-18.5363
2023-03-15 15:52:16:293,-1.5371,2.26265,-9.44977,-12.9065,-8.71082,-18.531
2023-03-15 15:52:16:303,-1.53534,2.24289,-9.42339,-12.9049,-8.71678,-18.5278
2023-03-15 15:52:16:313,-1.54657,2.23382,-9.39369,-12.9012,-8.7194,-18.5276
2023-03-15 15:52:16:323,-1.54881,2.21819,-9.38336,-12.8954,-8.72053,-18.5279
2023-03-15 15:52:16:333,-1.53758,2.20985,-9.37354,-12.8889,-8.71717,-18.5288
2023-03-15 15:52:16:343,-1.52274,2.18659,-9.36505,-12.8784,-8.71593,-18.5339
2023-03-15 15:52:16:353,-1.49417,2.16324,-9.33885,-12.8642,-8.71489,-18.5401
2023-03-15 15:52:16:363,-1.46094,2.13673,-9.33697,-12.8533,-8.71146,-18.545
2023-03-15 15:52:16:373,-1.44066,2.12424,-9.35667,-12.8472,-8.70592,-18.5478
2023-03-15 15:52:16:383,-1.42891,2.14304,-9.38326,-12.8418,-8.70102,-18.5545
2023-03-15 15:52:16:393,-1.42732,2.17222,-9.40542,-12.8421,-8.6982,-18.559
2023-03-15 15:52:16:403,-1.42525,2.17105,-9.43173,-12.8415,-8.69484,-18.5672
2023-03-15 15:52:16:413,-1.41469,2.18633,-9.44749,-12.8445,-8.69404,-18.5715
2023-03-15 15:52:16:423,-1.43478,2.2123,-9.45692,-12.8465,-8.69621,-18.571
2023-03-15 15:52:16:433,-1.47219,2.21791,-9.45403,-12.854,-8.69753,-18.572
2023-03-15 15:52:16:443,-1.49213,2.22686,-9.45647,-12.8562,-8.69779,-18.5693
2023-03-15 15:52:16:453,-1.50049,2.23766,-9.46877,-12.8602,-8.70011,-18.5714
2023-03-15 15:52:16:463,-1.47259,2.2467,-9.49492,-12.8608,-8.69772,-18.5725
2023-03-15 15:52:16:473,-1.43439,2.22292,-9.49203,-12.8535,-8.69738,-18.5766
2023-03-15 15:52:16:483,-1.43663,2.176,-9.43309,-12.8408,-8.69935,-18.5764
2023-03-15 15:52:16:493,-1.46808,2.14963,-9.39019,-12.8289,-8.70594,-18.5751
2023-03-15 15:52:16:503,-1.49754,2.12789,-9.40081,-12.8213,-8.71515,-18.5735
2023-03-15 15:52:16:513,-1.50851,2.13937,-9.41755,-12.8147,-8.7208,-18.5758
2023-03-15 15:52:16:523,-1.49871,2.14905,-9.42071,-12.8087,-8.72348,-18.5783
2023-03-15 15:52:16:533,-1.46438,2.1434,-9.42785,-12.8008,-8.72607,-18.579
2023-03-15 15:52:16:543,-1.456,2.14882,-9.43203,-12.7921,-8.72811,-18.5803
2023-03-15 15:52:16:553,-1.45453,2.14287,-9.43469,-12.7863,-8.72788,-18.5807
2023-03-15 15:52:16:563,-1.45828,2.14032,-9.42133,-12.7767,-8.72559,-18.5822
2023-03-15 15:52:16:573,-1.44832,2.13032,-9.39963,-12.7706,-8.725,-18.5822
2023-03-15 15:52:16:583,-1.44644,2.13012,-9.39462,-12.7572,-8.719,-18.5796
2023-03-15 15:52:16:593,-1.45051,2.11636,-9.39053,-12.7453,-8.71949,-18.5782
2023-03-15 15:52:16:603,-1.45359,2.1223,-9.39961,-12.7391,-8.71983,-18.5754
2023-03-15 15:52:16:613,-1.46191,2.13323,-9.41646,-12.7309,-8.72075,-18.5708
2023-03-15 15:52:16:623,-1.47557,2.15268,-9.39816,-12.7233,-8.7251,-18.5647
2023-03-15 15:52:16:633,-1.48758,2.12854,-9.37876,-12.7156,-8.72912,-18.5596
2023-03-15 15:52:16:643,-1.49581,2.11955,-9.38983,-12.7116,-8.73403,-18.5585
2023-03-15 15:52:16:653,-1.49385,2.12884,-9.39031,-12.7085,-8.73592,-18.5556
2023-03-15 15:52:16:663,-1.48643,2.13243,-9.38342,-12.7046,-8.7344,-18.5533
2023-03-15 15:52:16:673,-1.47677,2.13438,-9.39084,-12.7035,-8.73715,-18.5474
2023-03-15 15:52:16:683,-1.49941,2.13586,-9.39507,-12.7047,-8.73952,-18.5417
2023-03-15 15:52:16:693,-1.51394,2.14136,-9.39843,-12.7098,-8.74516,-18.5394
2023-03-15 15:52:16:703,-1.51138,2.15255,-9.41272,-12.7143,-8.7455,-18.5365
2023-03-15 15:52:16:713,-1.50805,2.1625,-9.42246,-12.7246,-8.74359,-18.5339
2023-03-15 15:52:16:723,-1.50619,2.17689,-9.41826,-12.7318,-8.73796,-18.5308
2023-03-15 15:52:16:733,-1.52461,2.20615,-9.44897,-12.7341,-8.73496,-18.5327
2023-03-15 15:52:16:743,-1.51792,2.32554,-9.64294,-12.7331,-8.71865,-18.537
2023-03-15 15:52:16:753,-1.4711,2.221,-9.55291,-12.7092,-8.68389,-18.5351
2023-03-15 15:52:16:763,-1.44062,2.03011,-9.24469,-12.6724,-8.66865,-18.5388
2023-03-15 15:52:16:773,-1.43234,2.05906,-9.27471,-12.6563,-8.658,-18.5393
2023-03-15 15:52:16:783,-1.45428,2.13904,-9.37056,-12.656,-8.64969,-18.5395
2023-03-15 15:52:16:793,-1.4441,2.15956,-9.43366,-12.6631,-8.65014,-18.5454
2023-03-15 15:52:16:803,-1.44519,2.16014,-9.46141,-12.6697,-8.64881,-18.5518
2023-03-15 15:52:16:813,-1.46231,2.14307,-9.42909,-12.6717,-8.6495,-18.5566
2023-03-15 15:52:16:823,-1.43357,2.15182,-9.42902,-12.6721,-8.646,-18.5616
2023-03-15 15:52:16:833,-1.43773,2.17821,-9.45858,-12.6711,-8.64171,-18.5673
2023-03-15 15:52:16:843,-1.41763,2.22003,-9.56734,-12.6662,-8.62787,-18.5698
2023-03-15 15:52:16:853,-1.40914,2.12127,-9.42572,-12.6491,-8.61362,-18.5729
2023-03-15 15:52:16:863,-1.39175,2.04103,-9.27221,-12.6339,-8.61486,-18.5767
2023-03-15 15:52:16:873,-1.38818,2.10441,-9.38895,-12.6289,-8.61436,-18.5758
2023-03-15 15:52:16:883,-1.40359,2.12587,-9.43239,-12.6285,-8.61279,-18.5733
2023-03-15 15:52:16:893,-1.4106,2.09077,-9.39921,-12.6271,-8.61023,-18.5736
2023-03-15 15:52:16:903,-1.41978,2.09876,-9.39323,-12.6257,-8.61048,-18.571
2023-03-15 15:52:16:913,-1.42933,2.11667,-9.40879,-12.6291,-8.60926,-18.5667
2023-03-15 15:52:16:923,-1.42435,2.11466,-9.41005,-12.6292,-8.60712,-18.5638
2023-03-15 15:52:16:933,-1.42718,2.11221,-9.4053,-12.6311,-8.60757,-18.5605
2023-03-15 15:52:16:943,-1.44793,2.13849,-9.43768,-12.6336,-8.60935,-18.5545
2023-03-15 15:52:16:953,-1.46247,2.16203,-9.47067,-12.6353,-8.60813,-18.5489
2023-03-15 15:52:16:963,-1.45467,2.15212,-9.44628,-12.6354,-8.60413,-18.5468
2023-03-15 15:52:16:973,-1.44037,2.118,-9.42248,-12.6309,-8.6021,-18.5408
2023-03-15 15:52:16:983,-1.4662,2.12338,-9.41965,-12.6282,-8.60531,-18.5389
2023-03-15 15:52:16:993,-1.47374,2.15106,-9.44835,-12.6291,-8.60561,-18.5373
2023-03-15 15:52:17:3,-1.44163,2.1402,-9.44351,-12.6309,-8.60637,-18.5395
2023-03-15 15:52:17:13,-1.41746,2.11946,-9.41226,-12.6299,-8.60702,-18.5415
2023-03-15 15:52:17:23,-1.39662,2.10616,-9.41184,-12.6328,-8.61345,-18.5429
2023-03-15 15:52:17:33,-1.41527,2.09913,-9.44772,-12.6396,-8.61565,-18.5391
2023-03-15 15:52:17:43,-1.41541,2.1206,-9.48191,-12.645,-8.6179,-18.5369
2023-03-15 15:52:17:53,-1.3799,2.13187,-9.48842,-12.6499,-8.62217,-18.5345
2023-03-15 15:52:17:63,-1.34252,2.09348,-9.45731,-12.6489,-8.6241,-18.53
2023-03-15 15:52:17:73,-1.36158,2.05937,-9.40962,-12.6451,-8.63631,-18.5212
2023-03-15 15:52:17:83,-1.42608,2.07895,-9.38283,-12.647,-8.64875,-18.5054
2023-03-15 15:52:17:93,-1.47211,2.11625,-9.39869,-12.6515,-8.66098,-18.4895
2023-03-15 15:52:17:103,-1.49052,2.13504,-9.41433,-12.6633,-8.67447,-18.4767
2023-03-15 15:52:17:113,-1.51267,2.15445,-9.41241,-12.6722,-8.68154,-18.4634
2023-03-15 15:52:17:123,-1.51936,2.17305,-9.42121,-12.6829,-8.68441,-18.4517
2023-03-15 15:52:17:133,-1.52683,2.19622,-9.42092,-12.6932,-8.68601,-18.4422
2023-03-15 15:52:17:143,-1.53788,2.1898,-9.42126,-12.7028,-8.6858,-18.4342
2023-03-15 15:52:17:153,-1.53119,2.17805,-9.40763,-12.7094,-8.68458,-18.4299
2023-03-15 15:52:17:163,-1.5357,2.16216,-9.37716,-12.7061,-8.6817,-18.431
2023-03-15 15:52:17:173,-1.52985,2.16095,-9.34775,-12.7042,-8.67899,-18.4317
2023-03-15 15:52:17:183,-1.5048,2.14576,-9.33414,-12.7028,-8.67629,-18.438
2023-03-15 15:52:17:193,-1.47213,2.12869,-9.33472,-12.7029,-8.67353,-18.4463
2023-03-15 15:52:17:203,-1.4533,2.13069,-9.38829,-12.7079,-8.67089,-18.4564
2023-03-15 15:52:17:213,-1.41739,2.15728,-9.43498,-12.7128,-8.66502,-18.4653
2023-03-15 15:52:17:223,-1.39607,2.16396,-9.47353,-12.7254,-8.66025,-18.4738
2023-03-15 15:52:17:233,-1.38617,2.19503,-9.47876,-12.7358,-8.65561,-18.4838
2023-03-15 15:52:17:243,-1.38174,2.21425,-9.47265,-12.745,-8.65338,-18.4913
2023-03-15 15:52:17:253,-1.3929,2.21943,-9.47629,-12.7555,-8.64969,-18.4934
2023-03-15 15:52:17:263,-1.43886,2.2296,-9.47343,-12.7644,-8.64761,-18.4912
2023-03-15 15:52:17:273,-1.45499,2.22655,-9.47308,-12.7704,-8.64735,-18.4903
2023-03-15 15:52:17:283,-1.45782,2.22831,-9.48426,-12.7767,-8.64985,-18.4889
2023-03-15 15:52:17:293,-1.44097,2.23796,-9.49188,-12.7813,-8.65057,-18.491
2023-03-15 15:52:17:303,-1.41359,2.20962,-9.46743,-12.7788,-8.65095,-18.493
2023-03-15 15:52:17:313,-1.43534,2.15506,-9.42067,-12.7712,-8.65722,-18.4896
2023-03-15 15:52:17:323,-1.47076,2.14866,-9.396,-12.7656,-8.66218,-18.4865
2023-03-15 15:52:17:333,-1.49023,2.14064,-9.41564,-12.762,-8.67024,-18.4842
2023-03-15 15:52:17:343,-1.48239,2.14196,-9.43212,-12.7572,-8.67325,-18.4811
2023-03-15 15:52:17:353,-1.46173,2.14075,-9.43396,-12.7505,-8.67653,-18.4798
2023-03-15 15:52:17:363,-1.46366,2.14818,-9.4274,-12.7478,-8.6803,-18.4793
2023-03-15 15:52:17:373,-1.45855,2.14339,-9.41461,-12.7402,-8.68384,-18.4804
2023-03-15 15:52:17:383,-1.45278,2.14127,-9.40857,-12.7345,-8.68476,-18.4797
2023-03-15 15:52:17:393,-1.43642,2.13253,-9.39976,-12.7315,-8.68442,-18.4769
2023-03-15 15:52:17:403,-1.43929,2.12691,-9.3907,-12.7265,-8.68358,-18.4765
2023-03-15 15:52:17:413,-1.43947,2.14148,-9.40287,-12.7226,-8.68067,-18.4747
2023-03-15 15:52:17:423,-1.44831,2.14989,-9.39373,-12.7196,-8.67881,-18.4702
2023-03-15 15:52:17:433,-1.45013,2.14233,-9.39716,-12.7177,-8.6822,-18.4658
2023-03-15 15:52:17:443,-1.45235,2.13727,-9.40864,-12.7143,-8.68407,-18.4617
2023-03-15 15:52:17:453,-1.46198,2.1264,-9.40304,-12.7099,-8.691,-18.4592
2023-03-15 15:52:17:463,-1.47464,2.1191,-9.41326,-12.7097,-8.69368,-18.4523
2023-03-15 15:52:17:473,-1.47768,2.12758,-9.41603,-12.7102,-8.69607,-18.4453
2023-03-15 15:52:17:483,-1.47895,2.13155,-9.41003,-12.7124,-8.70332,-18.4398
2023-03-15 15:52:17:493,-1.48359,2.14037,-9.40962,-12.7138,-8.70736,-18.4352
2023-03-15 15:52:17:503,-1.50262,2.14855,-9.39802,-12.7126,-8.71307,-18.4298
2023-03-15 15:52:17:513,-1.51879,2.14062,-9.39619,-12.7179,-8.71628,-18.4255
2023-03-15 15:52:17:523,-1.53051,2.16194,-9.40616,-12.7216,-8.71922,-18.4199
2023-03-15 15:52:17:533,-1.53418,2.15994,-9.42681,-12.7257,-8.722,-18.4167
2023-03-15 15:52:17:543,-1.53582,2.16135,-9.42955,-12.7287,-8.7238,-18.4154
2023-03-15 15:52:17:553,-1.52745,2.15903,-9.42005,-12.7353,-8.72682,-18.4153
2023-03-15 15:52:17:563,-1.5187,2.16475,-9.41733,-12.7394,-8.72813,-18.4181
2023-03-15 15:52:17:573,-1.51317,2.15811,-9.42547,-12.7421,-8.72748,-18.4226
2023-03-15 15:52:17:583,-1.49452,2.14045,-9.42988,-12.7438,-8.72499,-18.4307
2023-03-15 15:52:17:593,-1.47988,2.15457,-9.42994,-12.741,-8.71829,-18.4372
2023-03-15 15:52:17:603,-1.45285,2.15208,-9.44206,-12.7419,-8.71152,-18.4499
2023-03-15 15:52:17:613,-1.44544,2.1526,-9.42664,-12.7396,-8.70516,-18.4587
2023-03-15 15:52:17:623,-1.44549,2.1528,-9.42209,-12.7345,-8.69676,-18.4644
2023-03-15 15:52:17:633,-1.43777,2.14166,-9.43186,-12.7317,-8.69174,-18.4705
2023-03-15 15:52:17:642,-1.42486,2.14324,-9.42494,-12.7294,-8.68542,-18.477
2023-03-15 15:52:17:653,-1.41973,2.13742,-9.42107,-12.7221,-8.67716,-18.4822
2023-03-15 15:52:17:663,-1.41293,2.14418,-9.41898,-12.7219,-8.67076,-18.4841
2023-03-15 15:52:17:673,-1.41452,2.13595,-9.42509,-12.7158,-8.6639,-18.4886
2023-03-15 15:52:17:683,-1.41658,2.13817,-9.41835,-12.7115,-8.66013,-18.4887
2023-03-15 15:52:17:693,-1.41224,2.12848,-9.42759,-12.7087,-8.6574,-18.487
2023-03-15 15:52:17:703,-1.41348,2.13434,-9.42639,-12.707,-8.65931,-18.4864
2023-03-15 15:52:17:713,-1.42082,2.13334,-9.42023,-12.7032,-8.65778,-18.4831
2023-03-15 15:52:17:723,-1.42255,2.13024,-9.41686,-12.7002,-8.66003,-18.4809
2023-03-15 15:52:17:733,-1.42285,2.13357,-9.41087,-12.7019,-8.65968,-18.475
2023-03-15 15:52:17:743,-1.44582,2.149,-9.40527,-12.7023,-8.66009,-18.4695
2023-03-15 15:52:17:753,-1.44046,2.15485,-9.4047,-12.7044,-8.66056,-18.4652
2023-03-15 15:52:17:763,-1.44142,2.14229,-9.40309,-12.7117,-8.66148,-18.4599
2023-03-15 15:52:17:773,-1.46781,2.14524,-9.40243,-12.7148,-8.6654,-18.452
2023-03-15 15:52:17:783,-1.49219,2.15273,-9.4083,-12.723,-8.66914,-18.4454
2023-03-15 15:52:17:793,-1.49324,2.13562,-9.41145,-12.7286,-8.67333,-18.4401
2023-03-15 15:52:17:803,-1.48073,2.11575,-9.41139,-12.7366,-8.67663,-18.4346
2023-03-15 15:52:17:813,-1.50441,2.14337,-9.40414,-12.7388,-8.68002,-18.4293
2023-03-15 15:52:17:823,-1.51331,2.14364,-9.41031,-12.7406,-8.68325,-18.4257
2023-03-15 15:52:17:833,-1.49592,2.13938,-9.4129,-12.7425,-8.68862,-18.4225
2023-03-15 15:52:17:843,-1.45952,2.12792,-9.40381,-12.7429,-8.68836,-18.4227
2023-03-15 15:52:17:853,-1.46122,2.12951,-9.40493,-12.745,-8.68695,-18.4208
2023-03-15 15:52:17:863,-1.46834,2.12542,-9.43559,-12.7459,-8.68323,-18.4179
2023-03-15 15:52:17:873,-1.46673,2.13876,-9.46806,-12.7473,-8.67982,-18.4154
2023-03-15 15:52:17:883,-1.46067,2.16824,-9.48254,-12.7484,-8.67821,-18.4162
2023-03-15 15:52:17:893,-1.44232,2.16834,-9.47047,-12.7514,-8.67665,-18.4176
2023-03-15 15:52:17:903,-1.41565,2.13583,-9.43658,-12.7477,-8.67767,-18.4183
2023-03-15 15:52:17:913,-1.43493,2.10746,-9.40206,-12.74,-8.68258,-18.4119
2023-03-15 15:52:17:923,-1.48024,2.11185,-9.40267,-12.7408,-8.68684,-18.4049
2023-03-15 15:52:17:933,-1.49858,2.16038,-9.41749,-12.7475,-8.6929,-18.3971
2023-03-15 15:52:17:943,-1.49002,2.19487,-9.42733,-12.7573,-8.69671,-18.3943
2023-03-15 15:52:17:953,-1.49921,2.19946,-9.43465,-12.764,-8.6991,-18.3916
2023-03-15 15:52:17:963,-1.49374,2.19882,-9.41433,-12.7692,-8.70109,-18.3888
2023-03-15 15:52:17:973,-1.47754,2.19879,-9.39762,-12.7724,-8.70281,-18.3887
2023-03-15 15:52:17:983,-1.48508,2.18244,-9.38659,-12.7712,-8.70109,-18.388
2023-03-15 15:52:17:993,-1.49377,2.17163,-9.37459,-12.7705,-8.69972,-18.3908
2023-03-15 15:52:18:3,-1.47773,2.16151,-9.35701,-12.7682,-8.70013,-18.3951
2023-03-15 15:52:18:13,-1.46964,2.14679,-9.36336,-12.7683,-8.69691,-18.3962
2023-03-15 15:52:18:23,-1.45378,2.13366,-9.37198,-12.7669,-8.69693,-18.3991
2023-03-15 15:52:18:33,-1.43127,2.13841,-9.38084,-12.7661,-8.69307,-18.4041
2023-03-15 15:52:18:43,-1.42287,2.13989,-9.40731,-12.7704,-8.69165,-18.4112
2023-03-15 15:52:18:53,-1.42271,2.15764,-9.43547,-12.7789,-8.68685,-18.4118
2023-03-15 15:52:18:63,-1.4253,2.18214,-9.44929,-12.7873,-8.68051,-18.4124
2023-03-15 15:52:18:73,-1.42731,2.19503,-9.47181,-12.7948,-8.67477,-18.4119
2023-03-15 15:52:18:83,-1.43089,2.20412,-9.4689,-12.8035,-8.67371,-18.4086
2023-03-15 15:52:18:93,-1.45635,2.22018,-9.4623,-12.8081,-8.6746,-18.4052
2023-03-15 15:52:18:103,-1.50119,2.22819,-9.46245,-12.8147,-8.67352,-18.4001
2023-03-15 15:52:18:113,-1.50145,2.22219,-9.46939,-12.8187,-8.67713,-18.398
2023-03-15 15:52:18:123,-1.47605,2.2379,-9.50243,-12.8229,-8.67981,-18.3965
2023-03-15 15:52:18:133,-1.43473,2.23187,-9.4974,-12.8221,-8.67837,-18.399
2023-03-15 15:52:18:143,-1.41293,2.19221,-9.45401,-12.8127,-8.68297,-18.4009
2023-03-15 15:52:18:153,-1.44161,2.14827,-9.42289,-12.8018,-8.68544,-18.4018
2023-03-15 15:52:18:163,-1.45805,2.14904,-9.40471,-12.7918,-8.69205,-18.3999
2023-03-15 15:52:18:173,-1.45455,2.13522,-9.39908,-12.7845,-8.69845,-18.4007
2023-03-15 15:52:18:183,-1.44724,2.12593,-9.40772,-12.7766,-8.70607,-18.3962
2023-03-15 15:52:18:193,-1.44552,2.13233,-9.42091,-12.768,-8.71195,-18.392
2023-03-15 15:52:18:203,-1.44223,2.14353,-9.43398,-12.7629,-8.71814,-18.3883
2023-03-15 15:52:18:213,-1.44433,2.15042,-9.42905,-12.758,-8.71846,-18.3862
2023-03-15 15:52:18:223,-1.45202,2.14715,-9.4157,-12.7551,-8.72162,-18.3828
2023-03-15 15:52:18:233,-1.4649,2.1393,-9.41389,-12.7534,-8.7238,-18.3755
2023-03-15 15:52:18:243,-1.47639,2.14391,-9.40836,-12.7492,-8.72588,-18.3693
2023-03-15 15:52:18:253,-1.48754,2.13781,-9.40935,-12.7464,-8.72784,-18.3624
2023-03-15 15:52:18:263,-1.49143,2.14148,-9.40032,-12.7417,-8.72757,-18.3589
2023-03-15 15:52:18:273,-1.4842,2.13212,-9.39783,-12.735,-8.72952,-18.3551
2023-03-15 15:52:18:283,-1.48205,2.1262,-9.40586,-12.733,-8.73705,-18.3549
2023-03-15 15:52:18:293,-1.49999,2.12587,-9.40721,-12.7318,-8.74116,-18.3543
2023-03-15 15:52:18:303,-1.49019,2.1274,-9.41706,-12.7296,-8.74787,-18.3521
2023-03-15 15:52:18:313,-1.48263,2.12692,-9.41778,-12.7257,-8.75434,-18.351
2023-03-15 15:52:18:323,-1.48856,2.1175,-9.40096,-12.7215,-8.75661,-18.3508
2023-03-15 15:52:18:333,-1.48639,2.12501,-9.39444,-12.7178,-8.75863,-18.3502
2023-03-15 15:52:18:343,-1.47896,2.14294,-9.3977,-12.7187,-8.76088,-18.3471
2023-03-15 15:52:18:353,-1.49569,2.15221,-9.42232,-12.7233,-8.76304,-18.3466
2023-03-15 15:52:18:363,-1.50011,2.16228,-9.44683,-12.7271,-8.76306,-18.3421
2023-03-15 15:52:18:373,-1.51684,2.18156,-9.44181,-12.7308,-8.76204,-18.3403
2023-03-15 15:52:18:383,-1.52468,2.19104,-9.43901,-12.7364,-8.76169,-18.3402
2023-03-15 15:52:18:393,-1.52318,2.17423,-9.42393,-12.7361,-8.75644,-18.3437
2023-03-15 15:52:18:403,-1.51961,2.17516,-9.41821,-12.7338,-8.75497,-18.3434
2023-03-15 15:52:18:413,-1.51446,2.1775,-9.41657,-12.7301,-8.75225,-18.3483
2023-03-15 15:52:18:423,-1.51475,2.16188,-9.4147,-12.7267,-8.74928,-18.3534
2023-03-15 15:52:18:433,-1.49549,2.15402,-9.40618,-12.7263,-8.7403,-18.3596
2023-03-15 15:52:18:443,-1.47711,2.15335,-9.42081,-12.7217,-8.73573,-18.3713
2023-03-15 15:52:18:453,-1.45588,2.14866,-9.44836,-12.7149,-8.73311,-18.3794
2023-03-15 15:52:18:463,-1.43928,2.14403,-9.44697,-12.7078,-8.72751,-18.3921
2023-03-15 15:52:18:473,-1.42443,2.14029,-9.43356,-12.7044,-8.72153,-18.3998
2023-03-15 15:52:18:483,-1.40853,2.14069,-9.4252,-12.6982,-8.71728,-18.4077
2023-03-15 15:52:18:493,-1.40195,2.13398,-9.42231,-12.6904,-8.7114,-18.4175
2023-03-15 15:52:18:503,-1.42092,2.12454,-9.42743,-12.6859,-8.70945,-18.4224
2023-03-15 15:52:18:513,-1.42202,2.124,-9.43553,-12.6829,-8.70719,-18.4217
2023-03-15 15:52:18:523,-1.41813,2.11508,-9.41791,-12.6755,-8.70688,-18.4207
2023-03-15 15:52:18:533,-1.42587,2.11813,-9.4172,-12.6735,-8.7072,-18.4163
2023-03-15 15:52:18:543,-1.42476,2.13111,-9.41849,-12.6703,-8.70693,-18.4135
2023-03-15 15:52:18:553,-1.43323,2.13035,-9.41272,-12.6672,-8.70751,-18.4075
2023-03-15 15:52:18:563,-1.45162,2.11729,-9.39896,-12.6686,-8.70785,-18.4005
2023-03-15 15:52:18:573,-1.46944,2.12863,-9.39525,-12.6661,-8.70913,-18.3939
2023-03-15 15:52:18:583,-1.48792,2.12767,-9.40406,-12.6677,-8.70865,-18.385
2023-03-15 15:52:18:593,-1.49677,2.12966,-9.42542,-12.6716,-8.70856,-18.3773
2023-03-15 15:52:18:603,-1.49768,2.13471,-9.4359,-12.6731,-8.70782,-18.376
2023-03-15 15:52:18:613,-1.4968,2.13561,-9.42366,-12.6744,-8.7071,-18.3731
2023-03-15 15:52:18:623,-1.52087,2.12887,-9.41169,-12.6769,-8.70655,-18.376
2023-03-15 15:52:18:633,-1.52101,2.12729,-9.41006,-12.6786,-8.71343,-18.3774
2023-03-15 15:52:18:643,-1.46747,2.11123,-9.41557,-12.6768,-8.71112,-18.3832
2023-03-15 15:52:18:653,-1.44169,2.11492,-9.40685,-12.6726,-8.70616,-18.3879
2023-03-15 15:52:18:663,-1.45412,2.11334,-9.41337,-12.6751,-8.70591,-18.3934
2023-03-15 15:52:18:673,-1.45841,2.11024,-9.43043,-12.6747,-8.70633,-18.3977
2023-03-15 15:52:18:683,-1.45782,2.13138,-9.46389,-12.6784,-8.70922,-18.3998
2023-03-15 15:52:18:693,-1.42628,2.14987,-9.49142,-12.6791,-8.70807,-18.4012
2023-03-15 15:52:18:703,-1.38457,2.13067,-9.47772,-12.6749,-8.70562,-18.4024
2023-03-15 15:52:18:713,-1.37358,2.09161,-9.42846,-12.6718,-8.70384,-18.3979
2023-03-15 15:52:18:723,-1.42841,2.10211,-9.39402,-12.6702,-8.70625,-18.391
2023-03-15 15:52:18:733,-1.46271,2.13619,-9.40228,-12.6741,-8.70836,-18.3829
2023-03-15 15:52:18:743,-1.50007,2.15862,-9.43332,-12.6834,-8.70805,-18.3739
2023-03-15 15:52:18:753,-1.51604,2.17679,-9.44598,-12.6904,-8.70792,-18.3685
2023-03-15 15:52:18:763,-1.5187,2.1917,-9.43516,-12.6974,-8.70697,-18.366
2023-03-15 15:52:18:773,-1.50913,2.18655,-9.41738,-12.7035,-8.70607,-18.3696
2023-03-15 15:52:18:783,-1.51543,2.18517,-9.39954,-12.7056,-8.70228,-18.3691
2023-03-15 15:52:18:793,-1.5012,2.18349,-9.37979,-12.7056,-8.70083,-18.375
2023-03-15 15:52:18:803,-1.49067,2.1588,-9.36898,-12.7032,-8.70025,-18.3809
2023-03-15 15:52:18:813,-1.47917,2.14082,-9.37307,-12.7003,-8.69241,-18.3881
2023-03-15 15:52:18:823,-1.45832,2.14101,-9.35909,-12.6985,-8.68907,-18.3972
2023-03-15 15:52:18:833,-1.43817,2.12637,-9.3671,-12.6986,-8.68471,-18.4045
2023-03-15 15:52:18:843,-1.41932,2.12115,-9.38893,-12.7002,-8.68053,-18.4124
2023-03-15 15:52:18:853,-1.40217,2.13409,-9.41848,-12.7044,-8.673,-18.4203
2023-03-15 15:52:18:863,-1.4025,2.15923,-9.44205,-12.712,-8.6671,-18.4248
2023-03-15 15:52:18:873,-1.39777,2.18607,-9.46569,-12.7225,-8.66218,-18.4307
2023-03-15 15:52:18:883,-1.40026,2.20277,-9.4832,-12.7313,-8.65433,-18.4344
2023-03-15 15:52:18:893,-1.42254,2.21007,-9.47699,-12.7433,-8.64839,-18.4341
2023-03-15 15:52:18:903,-1.46317,2.20455,-9.47336,-12.7491,-8.64866,-18.4314
2023-03-15 15:52:18:913,-1.48412,2.21612,-9.45761,-12.754,-8.64746,-18.4311
2023-03-15 15:52:18:923,-1.49289,2.2357,-9.47499,-12.7573,-8.64719,-18.4321
2023-03-15 15:52:18:933,-1.45999,2.23967,-9.4928,-12.7608,-8.64605,-18.4378
2023-03-15 15:52:18:943,-1.40984,2.20159,-9.47471,-12.7567,-8.64168,-18.4419
2023-03-15 15:52:18:953,-1.42069,2.14595,-9.4335,-12.7451,-8.64018,-18.4512
2023-03-15 15:52:18:963,-1.45062,2.12907,-9.4167,-12.736,-8.64809,-18.4513
2023-03-15 15:52:18:973,-1.46387,2.12601,-9.41646,-12.7282,-8.65645,-18.4517
2023-03-15 15:52:18:983,-1.46946,2.12395,-9.42379,-12.7205,-8.66118,-18.4505
2023-03-15 15:52:18:993,-1.4618,2.11832,-9.41629,-12.7117,-8.66711,-18.4516
2023-03-15 15:52:19:3,-1.44478,2.1225,-9.42679,-12.7066,-8.67111,-18.45
2023-03-15 15:52:19:13,-1.44733,2.12953,-9.45147,-12.7039,-8.67554,-18.4525
2023-03-15 15:52:19:23,-1.44884,2.14842,-9.43256,-12.6953,-8.68035,-18.4535
2023-03-15 15:52:19:33,-1.46157,2.14379,-9.42916,-12.6955,-8.67942,-18.4508
2023-03-15 15:52:19:43,-1.47019,2.13491,-9.42684,-12.6924,-8.67931,-18.448
2023-03-15 15:52:19:53,-1.47658,2.11883,-9.40129,-12.6866,-8.67866,-18.4433
2023-03-15 15:52:19:63,-1.47799,2.11242,-9.39093,-12.6797,-8.67721,-18.4408
2023-03-15 15:52:19:73,-1.47287,2.11095,-9.38457,-12.6722,-8.68024,-18.4408
2023-03-15 15:52:19:83,-1.49395,2.11835,-9.39039,-12.6673,-8.68149,-18.4388
2023-03-15 15:52:19:93,-1.48381,2.12425,-9.39596,-12.6659,-8.68128,-18.445
2023-03-15 15:52:19:103,-1.46664,2.10961,-9.41319,-12.6669,-8.68409,-18.4501
2023-03-15 15:52:19:113,-1.46182,2.11161,-9.41292,-12.668,-8.687,-18.4546
2023-03-15 15:52:19:123,-1.47992,2.12571,-9.41354,-12.6663,-8.68912,-18.457
2023-03-15 15:52:19:133,-1.47343,2.13272,-9.40959,-12.6669,-8.69524,-18.4568
2023-03-15 15:52:19:143,-1.46303,2.12751,-9.42135,-12.6698,-8.69873,-18.4621
2023-03-15 15:52:19:153,-1.46915,2.13054,-9.43153,-12.6685,-8.69898,-18.4673
2023-03-15 15:52:19:163,-1.48435,2.12965,-9.42196,-12.6706,-8.6989,-18.4705
2023-03-15 15:52:19:173,-1.48932,2.13129,-9.41777,-12.6721,-8.69886,-18.4753
2023-03-15 15:52:19:183,-1.48268,2.13512,-9.41932,-12.6731,-8.70056,-18.4779
2023-03-15 15:52:19:193,-1.47469,2.13864,-9.42218,-12.677,-8.69992,-18.4783
2023-03-15 15:52:19:203,-1.49743,2.14138,-9.43908,-12.6782,-8.69849,-18.4815
2023-03-15 15:52:19:213,-1.50233,2.14799,-9.44449,-12.68,-8.69663,-18.4875
2023-03-15 15:52:19:223,-1.49325,2.15186,-9.44217,-12.6793,-8.6941,-18.4914
2023-03-15 15:52:19:233,-1.47721,2.14469,-9.43265,-12.6801,-8.69001,-18.4984
2023-03-15 15:52:19:243,-1.48324,2.12718,-9.42492,-12.6771,-8.68624,-18.5059
2023-03-15 15:52:19:253,-1.46533,2.11701,-9.41492,-12.6718,-8.6772,-18.5152
2023-03-15 15:52:19:263,-1.45712,2.10048,-9.41759,-12.6679,-8.6683,-18.5232
2023-03-15 15:52:19:273,-1.45637,2.11326,-9.41361,-12.6665,-8.66315,-18.5303
2023-03-15 15:52:19:283,-1.4513,2.1139,-9.42307,-12.6672,-8.65854,-18.5382
2023-03-15 15:52:19:293,-1.45385,2.1127,-9.44373,-12.6665,-8.64994,-18.545
2023-03-15 15:52:19:303,-1.44952,2.11891,-9.43984,-12.667,-8.64036,-18.5518
2023-03-15 15:52:19:313,-1.43728,2.11456,-9.44319,-12.6662,-8.63198,-18.558
2023-03-15 15:52:19:323,-1.43646,2.12966,-9.43922,-12.6665,-8.62207,-18.5632
2023-03-15 15:52:19:333,-1.42996,2.12135,-9.43681,-12.6654,-8.61186,-18.5662
2023-03-15 15:52:19:343,-1.43032,2.11033,-9.41938,-12.6658,-8.60685,-18.569
2023-03-15 15:52:19:353,-1.42455,2.11,-9.41092,-12.6625,-8.59885,-18.5714
2023-03-15 15:52:19:363,-1.43714,2.11497,-9.38947,-12.6622,-8.59394,-18.5757
2023-03-15 15:52:19:373,-1.44758,2.13256,-9.39545,-12.6666,-8.58846,-18.5761
2023-03-15 15:52:19:383,-1.44589,2.12828,-9.41996,-12.6708,-8.58326,-18.5815
2023-03-15 15:52:19:393,-1.46231,2.13101,-9.41891,-12.677,-8.5816,-18.5841
2023-03-15 15:52:19:403,-1.45914,2.13022,-9.4273,-12.6812,-8.5752,-18.5879
2023-03-15 15:52:19:413,-1.44969,2.13164,-9.43138,-12.6841,-8.57112,-18.5928
2023-03-15 15:52:19:423,-1.47001,2.1352,-9.42518,-12.6899,-8.56715,-18.5969
2023-03-15 15:52:19:433,-1.47966,2.13811,-9.43281,-12.6989,-8.56274,-18.6012
2023-03-15 15:52:19:443,-1.45477,2.13855,-9.43907,-12.7022,-8.55486,-18.6072
2023-03-15 15:52:19:453,-1.46371,2.14048,-9.42714,-12.709,-8.54973,-18.6105
2023-03-15 15:52:19:463,-1.46863,2.12991,-9.41575,-12.7119,-8.54551,-18.6138
2023-03-15 15:52:19:473,-1.44034,2.11264,-9.40095,-12.7171,-8.53995,-18.6207
2023-03-15 15:52:19:483,-1.41485,2.12134,-9.41627,-12.7214,-8.53308,-18.6298
2023-03-15 15:52:19:493,-1.40976,2.14921,-9.43261,-12.7273,-8.52325,-18.6357
2023-03-15 15:52:19:503,-1.42216,2.15297,-9.45312,-12.7319,-8.51621,-18.6454
2023-03-15 15:52:19:513,-1.41776,2.16817,-9.48887,-12.7412,-8.51135,-18.6496
2023-03-15 15:52:19:523,-1.39038,2.18039,-9.50642,-12.7436,-8.50521,-18.6543
2023-03-15 15:52:19:533,-1.33903,2.16174,-9.49428,-12.7461,-8.5018,-18.6597
2023-03-15 15:52:19:543,-1.31681,2.11687,-9.43091,-12.7417,-8.49776,-18.6632
2023-03-15 15:52:19:553,-1.3651,2.0986,-9.38511,-12.74,-8.49616,-18.659
2023-03-15 15:52:19:563,-1.42363,2.11401,-9.38059,-12.7454,-8.49847,-18.6537
2023-03-15 15:52:19:573,-1.46231,2.15695,-9.40849,-12.7495,-8.49979,-18.6468
2023-03-15 15:52:19:583,-1.46994,2.17509,-9.43588,-12.7591,-8.49762,-18.6393
2023-03-15 15:52:19:593,-1.47492,2.18244,-9.44966,-12.7652,-8.49385,-18.6357
2023-03-15 15:52:19:603,-1.46755,2.20862,-9.43355,-12.773,-8.48649,-18.6318
2023-03-15 15:52:19:613,-1.48077,2.20882,-9.43668,-12.779,-8.48087,-18.6315
2023-03-15 15:52:19:623,-1.49507,2.20336,-9.42822,-12.785,-8.47475,-18.6313
2023-03-15 15:52:19:633,-1.50277,2.20217,-9.39397,-12.7879,-8.46994,-18.6362
2023-03-15 15:52:19:643,-1.48847,2.17684,-9.38425,-12.7896,-8.46724,-18.6427
2023-03-15 15:52:19:653,-1.47726,2.16905,-9.38611,-12.7868,-8.46129,-18.6506
2023-03-15 15:52:19:663,-1.45121,2.17945,-9.40113,-12.7884,-8.45356,-18.6607
2023-03-15 15:52:19:673,-1.40781,2.18792,-9.40812,-12.7936,-8.44678,-18.6747
2023-03-15 15:52:19:683,-1.39807,2.1926,-9.43542,-12.7935,-8.43812,-18.6914
2023-03-15 15:52:19:693,-1.38095,2.19324,-9.45841,-12.7961,-8.43467,-18.7071
2023-03-15 15:52:19:702,-1.35728,2.18504,-9.472,-12.799,-8.42809,-18.7226
2023-03-15 15:52:19:713,-1.33873,2.19114,-9.47142,-12.8003,-8.42163,-18.7347
2023-03-15 15:52:19:722,-1.33622,2.19584,-9.46562,-12.8006,-8.41578,-18.7447
2023-03-15 15:52:19:733,-1.34269,2.19419,-9.47147,-12.7995,-8.41108,-18.7525
2023-03-15 15:52:19:743,-1.3832,2.20082,-9.45201,-12.7979,-8.40598,-18.7565
2023-03-15 15:52:19:753,-1.40698,2.21335,-9.4369,-12.7953,-8.40155,-18.7589
2023-03-15 15:52:19:763,-1.42478,2.2079,-9.46719,-12.7942,-8.39922,-18.7652
2023-03-15 15:52:19:773,-1.38846,2.2127,-9.50062,-12.7925,-8.39232,-18.7697
2023-03-15 15:52:19:783,-1.348,2.18844,-9.48875,-12.7862,-8.38951,-18.7752
2023-03-15 15:52:19:793,-1.36009,2.1885,-9.47013,-12.7777,-8.38729,-18.7797
2023-03-15 15:52:19:803,-1.40028,2.15199,-9.41012,-12.7667,-8.39421,-18.7817
2023-03-15 15:52:19:813,-1.41135,2.12314,-9.39728,-12.7518,-8.40192,-18.7842
2023-03-15 15:52:19:823,-1.41408,2.13378,-9.42084,-12.7426,-8.40537,-18.7878
2023-03-15 15:52:19:833,-1.41635,2.14352,-9.43677,-12.7322,-8.40943,-18.7908
2023-03-15 15:52:19:843,-1.39229,2.12297,-9.41988,-12.7258,-8.41219,-18.7954
2023-03-15 15:52:19:853,-1.36709,2.10423,-9.40941,-12.7204,-8.41236,-18.8001
2023-03-15 15:52:19:863,-1.35283,2.11911,-9.40485,-12.7145,-8.41705,-18.7998
2023-03-15 15:52:19:873,-1.36519,2.12162,-9.41041,-12.7083,-8.41921,-18.7977
2023-03-15 15:52:19:883,-1.38004,2.11381,-9.4232,-12.7076,-8.42196,-18.7938
2023-03-15 15:52:19:893,-1.37378,2.11291,-9.4369,-12.7043,-8.42151,-18.7905
2023-03-15 15:52:19:903,-1.38619,2.11596,-9.42591,-12.6995,-8.42271,-18.7814
2023-03-15 15:52:19:913,-1.38106,2.10828,-9.40304,-12.6951,-8.42804,-18.7752
2023-03-15 15:52:19:923,-1.39934,2.11123,-9.40417,-12.6893,-8.43509,-18.7667
2023-03-15 15:52:19:933,-1.40363,2.11257,-9.41776,-12.689,-8.44135,-18.7617
2023-03-15 15:52:19:943,-1.3995,2.11922,-9.41824,-12.6873,-8.4488,-18.7538
2023-03-15 15:52:19:953,-1.41553,2.1199,-9.42213,-12.6911,-8.45492,-18.7469
2023-03-15 15:52:19:963,-1.42234,2.12389,-9.41389,-12.6929,-8.46367,-18.7374
2023-03-15 15:52:19:973,-1.4273,2.1302,-9.41695,-12.6966,-8.47238,-18.7226
2023-03-15 15:52:19:983,-1.44714,2.13407,-9.4433,-12.698,-8.47928,-18.7095
2023-03-15 15:52:19:993,-1.46056,2.14521,-9.45442,-12.7023,-8.48857,-18.6958
2023-03-15 15:52:20:3,-1.46831,2.1501,-9.4546,-12.7058,-8.49707,-18.6872
2023-03-15 15:52:20:13,-1.46902,2.15383,-9.43757,-12.7073,-8.50322,-18.6779
2023-03-15 15:52:20:23,-1.47346,2.14405,-9.42701,-12.7117,-8.50789,-18.6704
2023-03-15 15:52:20:33,-1.4867,2.14674,-9.43102,-12.7167,-8.51139,-18.664
2023-03-15 15:52:20:43,-1.49507,2.16149,-9.44164,-12.7235,-8.51416,-18.6555
2023-03-15 15:52:20:53,-1.48107,2.17853,-9.43668,-12.7298,-8.51529,-18.6495
2023-03-15 15:52:20:63,-1.46354,2.16916,-9.44582,-12.7307,-8.51683,-18.6501
2023-03-15 15:52:20:73,-1.4767,2.16072,-9.4484,-12.7315,-8.51722,-18.6541
2023-03-15 15:52:20:83,-1.46686,2.15278,-9.42874,-12.7305,-8.51783,-18.6577
2023-03-15 15:52:20:93,-1.45621,2.1575,-9.42044,-12.7294,-8.52155,-18.6622
2023-03-15 15:52:20:103,-1.43908,2.15428,-9.42255,-12.7249,-8.52178,-18.6676
2023-03-15 15:52:20:113,-1.41982,2.14464,-9.42692,-12.722,-8.52126,-18.6747
2023-03-15 15:52:20:123,-1.40454,2.14715,-9.43448,-12.7186,-8.52111,-18.6782
2023-03-15 15:52:20:133,-1.39514,2.15617,-9.43933,-12.7111,-8.52091,-18.6812
2023-03-15 15:52:20:143,-1.41063,2.15007,-9.43005,-12.7067,-8.51769,-18.6818
2023-03-15 15:52:20:153,-1.39005,2.14595,-9.43446,-12.7048,-8.51764,-18.6796
2023-03-15 15:52:20:163,-1.39649,2.13964,-9.44118,-12.7019,-8.51594,-18.6783
2023-03-15 15:52:20:173,-1.38737,2.14033,-9.43552,-12.697,-8.51499,-18.6799
2023-03-15 15:52:20:183,-1.39402,2.1473,-9.43622,-12.6939,-8.5168,-18.6763
2023-03-15 15:52:20:193,-1.40107,2.14635,-9.42372,-12.6887,-8.51743,-18.6695
2023-03-15 15:52:20:202,-1.42003,2.13911,-9.41586,-12.6851,-8.52344,-18.6624
2023-03-15 15:52:20:213,-1.43219,2.13983,-9.40567,-12.6813,-8.52512,-18.6583
2023-03-15 15:52:20:223,-1.4331,2.13714,-9.40126,-12.6811,-8.53055,-18.6487
2023-03-15 15:52:20:233,-1.43315,2.13724,-9.40824,-12.6783,-8.53942,-18.6451
2023-03-15 15:52:20:243,-1.44685,2.1456,-9.41552,-12.6778,-8.549,-18.6383
2023-03-15 15:52:20:253,-1.46129,2.15578,-9.42419,-12.6779,-8.5568,-18.6341
2023-03-15 15:52:20:263,-1.46578,2.15207,-9.44725,-12.6783,-8.56329,-18.6322
2023-03-15 15:52:20:273,-1.48742,2.16585,-9.45781,-12.6757,-8.56958,-18.6275
2023-03-15 15:52:20:283,-1.47636,2.15301,-9.43002,-12.6726,-8.5757,-18.6229
2023-03-15 15:52:20:293,-1.48154,2.1303,-9.42085,-12.6647,-8.58225,-18.6225
2023-03-15 15:52:20:303,-1.48554,2.1534,-9.40907,-12.6565,-8.58555,-18.6192
2023-03-15 15:52:20:313,-1.46364,2.14924,-9.42032,-12.655,-8.58897,-18.6216
2023-03-15 15:52:20:323,-1.44567,2.12443,-9.41503,-12.6475,-8.59151,-18.6237
2023-03-15 15:52:20:333,-1.45723,2.11116,-9.39942,-12.6404,-8.59473,-18.6226
2023-03-15 15:52:20:343,-1.46757,2.12562,-9.42544,-12.6345,-8.59318,-18.6213
2023-03-15 15:52:20:353,-1.4622,2.11526,-9.45953,-12.6298,-8.59619,-18.6206
2023-03-15 15:52:20:363,-1.44347,2.12162,-9.48808,-12.6234,-8.59476,-18.6229
2023-03-15 15:52:20:373,-1.39932,2.12125,-9.47701,-12.6142,-8.59582,-18.6222
2023-03-15 15:52:20:383,-1.37575,2.09473,-9.45496,-12.6049,-8.59828,-18.6199
2023-03-15 15:52:20:393,-1.42321,2.08938,-9.42855,-12.599,-8.60352,-18.6112
2023-03-15 15:52:20:403,-1.47311,2.107,-9.42918,-12.5938,-8.6103,-18.603
2023-03-15 15:52:20:413,-1.50007,2.1314,-9.43299,-12.5927,-8.61964,-18.5941
2023-03-15 15:52:20:423,-1.51085,2.14165,-9.43456,-12.5951,-8.62488,-18.5874
2023-03-15 15:52:20:433,-1.5095,2.14365,-9.42476,-12.5932,-8.62677,-18.5843
2023-03-15 15:52:20:443,-1.51054,2.15415,-9.40371,-12.5953,-8.62983,-18.5817
2023-03-15 15:52:20:453,-1.51561,2.15592,-9.40301,-12.5937,-8.63283,-18.582
2023-03-15 15:52:20:463,-1.52852,2.16282,-9.39163,-12.5891,-8.63686,-18.5871
2023-03-15 15:52:20:473,-1.54865,2.23566,-9.47732,-12.5825,-8.63532,-18.5949
2023-03-15 15:52:20:483,-1.50916,2.23227,-9.54516,-12.5649,-8.61407,-18.6005
2023-03-15 15:52:20:493,-1.46222,2.05626,-9.31437,-12.5328,-8.59248,-18.6104
2023-03-15 15:52:20:503,-1.40809,1.9776,-9.20506,-12.507,-8.58931,-18.6219
2023-03-15 15:52:20:513,-1.41749,2.04292,-9.30146,-12.5017,-8.59252,-18.6312
2023-03-15 15:52:20:523,-1.40552,2.12279,-9.44351,-12.5087,-8.59488,-18.6413
2023-03-15 15:52:20:533,-1.39974,2.12301,-9.456,-12.5164,-8.59476,-18.6543
2023-03-15 15:52:20:543,-1.40522,2.09443,-9.46018,-12.5194,-8.5949,-18.6598
2023-03-15 15:52:20:553,-1.40114,2.11168,-9.47077,-12.5249,-8.59698,-18.6624
2023-03-15 15:52:20:563,-1.39335,2.12636,-9.45932,-12.5334,-8.59797,-18.6666
2023-03-15 15:52:20:573,-1.39905,2.14339,-9.45448,-12.5405,-8.5992,-18.6666
2023-03-15 15:52:20:583,-1.46285,2.17487,-9.48465,-12.5456,-8.5994,-18.6665
2023-03-15 15:52:20:593,-1.52455,2.18771,-9.52092,-12.5511,-8.60186,-18.6641
2023-03-15 15:52:20:603,-1.47916,2.16358,-9.49262,-12.5493,-8.60277,-18.6687
2023-03-15 15:52:20:613,-1.39706,2.12013,-9.45592,-12.5378,-8.60665,-18.6762
2023-03-15 15:52:20:623,-1.38486,2.07375,-9.42092,-12.5267,-8.61013,-18.6861
2023-03-15 15:52:20:633,-1.41425,2.05991,-9.3945,-12.5195,-8.61573,-18.6876
2023-03-15 15:52:20:643,-1.4272,2.07135,-9.4074,-12.5127,-8.62017,-18.6896
2023-03-15 15:52:20:653,-1.43298,2.08959,-9.43292,-12.5095,-8.62542,-18.6911
2023-03-15 15:52:20:663,-1.43443,2.0957,-9.47254,-12.507,-8.62826,-18.6949
2023-03-15 15:52:20:673,-1.41671,2.10587,-9.49485,-12.5046,-8.63299,-18.6966
2023-03-15 15:52:20:683,-1.41647,2.10982,-9.48132,-12.5007,-8.63234,-18.6983
2023-03-15 15:52:20:693,-1.42535,2.09795,-9.43994,-12.4972,-8.63357,-18.697
2023-03-15 15:52:20:703,-1.43137,2.08634,-9.41669,-12.4894,-8.63432,-18.6923
2023-03-15 15:52:20:712,-1.43407,2.08879,-9.43241,-12.4865,-8.63836,-18.688
2023-03-15 15:52:20:723,-1.43914,2.07604,-9.42118,-12.4834,-8.63902,-18.6845
2023-03-15 15:52:20:733,-1.43388,2.07157,-9.41992,-12.4786,-8.64327,-18.6797
2023-03-15 15:52:20:743,-1.43822,2.07633,-9.40472,-12.4755,-8.6502,-18.6765
2023-03-15 15:52:20:753,-1.44117,2.06411,-9.39984,-12.4716,-8.66011,-18.6739
2023-03-15 15:52:20:763,-1.44628,2.06752,-9.39306,-12.4709,-8.66992,-18.6681
2023-03-15 15:52:20:773,-1.47132,2.05668,-9.40501,-12.4709,-8.68409,-18.6613
2023-03-15 15:52:20:783,-1.49086,2.0619,-9.42244,-12.471,-8.69662,-18.6546
2023-03-15 15:52:20:793,-1.48768,2.06864,-9.42242,-12.472,-8.70933,-18.6452
2023-03-15 15:52:20:803,-1.50488,2.08237,-9.4086,-12.4743,-8.71742,-18.6321
2023-03-15 15:52:20:813,-1.52048,2.08993,-9.41367,-12.4786,-8.72624,-18.6238
2023-03-15 15:52:20:823,-1.52835,2.09697,-9.41605,-12.4849,-8.72928,-18.6169
2023-03-15 15:52:20:833,-1.53614,2.10166,-9.42128,-12.4904,-8.73531,-18.612
2023-03-15 15:52:20:843,-1.54044,2.11331,-9.42737,-12.4973,-8.73629,-18.6051
2023-03-15 15:52:20:853,-1.54608,2.11991,-9.43489,-12.5038,-8.73627,-18.599
2023-03-15 15:52:20:863,-1.54594,2.13482,-9.44552,-12.5065,-8.73903,-18.5965
2023-03-15 15:52:20:873,-1.53003,2.12391,-9.44612,-12.5098,-8.73855,-18.5957
2023-03-15 15:52:20:883,-1.51041,2.1144,-9.42315,-12.5105,-8.73629,-18.598
2023-03-15 15:52:20:893,-1.50457,2.1118,-9.40745,-12.5061,-8.73306,-18.6009
2023-03-15 15:52:20:903,-1.50399,2.11359,-9.40325,-12.5056,-8.72778,-18.6066
2023-03-15 15:52:20:913,-1.48145,2.10943,-9.41426,-12.5058,-8.72504,-18.6142
2023-03-15 15:52:20:923,-1.47157,2.09932,-9.42575,-12.5047,-8.72227,-18.6175
2023-03-15 15:52:20:933,-1.46846,2.09366,-9.42169,-12.4986,-8.72024,-18.6239
2023-03-15 15:52:20:943,-1.48017,2.08617,-9.43569,-12.4977,-8.71343,-18.6294
2023-03-15 15:52:20:953,-1.4698,2.09352,-9.41936,-12.4941,-8.7115,-18.633
2023-03-15 15:52:20:963,-1.45438,2.08777,-9.438,-12.4968,-8.70974,-18.6352
2023-03-15 15:52:20:973,-1.44979,2.09165,-9.43383,-12.4971,-8.70711,-18.6359
2023-03-15 15:52:20:983,-1.43381,2.10421,-9.44867,-12.4972,-8.70531,-18.6384
2023-03-15 15:52:20:993,-1.43849,2.10548,-9.44984,-12.496,-8.70272,-18.6365
2023-03-15 15:52:21:3,-1.44274,2.11776,-9.4376,-12.4994,-8.70035,-18.636
2023-03-15 15:52:21:13,-1.44299,2.10427,-9.44013,-12.5009,-8.70177,-18.6329
2023-03-15 15:52:21:23,-1.45662,2.10512,-9.42311,-12.5039,-8.70151,-18.6299
2023-03-15 15:52:21:33,-1.46814,2.10834,-9.39907,-12.5043,-8.70553,-18.6235
2023-03-15 15:52:21:43,-1.479,2.09808,-9.39842,-12.5049,-8.70978,-18.6193
2023-03-15 15:52:21:53,-1.49157,2.10451,-9.40627,-12.5096,-8.71435,-18.6129
2023-03-15 15:52:21:63,-1.49778,2.12973,-9.40966,-12.5141,-8.71548,-18.6082
2023-03-15 15:52:21:73,-1.5035,2.13681,-9.42716,-12.5205,-8.7192,-18.6052
2023-03-15 15:52:21:83,-1.50798,2.13706,-9.4462,-12.5243,-8.72002,-18.6067
2023-03-15 15:52:21:93,-1.51692,2.13351,-9.4503,-12.5244,-8.71695,-18.6067
2023-03-15 15:52:21:103,-1.51022,2.12344,-9.44464,-12.5262,-8.71378,-18.6074
2023-03-15 15:52:21:113,-1.50778,2.12025,-9.43328,-12.5274,-8.71092,-18.607
2023-03-15 15:52:21:123,-1.50274,2.12273,-9.43351,-12.5259,-8.70492,-18.613
2023-03-15 15:52:21:133,-1.47635,2.13349,-9.4345,-12.5245,-8.70424,-18.617
2023-03-15 15:52:21:143,-1.45501,2.12143,-9.4293,-12.5234,-8.70064,-18.6198
2023-03-15 15:52:21:153,-1.44239,2.10408,-9.43462,-12.5223,-8.69619,-18.6219
2023-03-15 15:52:21:163,-1.44909,2.08863,-9.44104,-12.5208,-8.6899,-18.6246
2023-03-15 15:52:21:173,-1.46919,2.1225,-9.45561,-12.5221,-8.68693,-18.6228
2023-03-15 15:52:21:183,-1.47308,2.144,-9.49504,-12.5233,-8.68443,-18.6259
2023-03-15 15:52:21:193,-1.43553,2.1236,-9.49216,-12.5188,-8.68224,-18.6318
2023-03-15 15:52:21:203,-1.38613,2.09285,-9.43735,-12.5138,-8.67773,-18.6355
2023-03-15 15:52:21:213,-1.40769,2.06245,-9.37732,-12.5079,-8.68124,-18.6363
2023-03-15 15:52:21:223,-1.4552,2.05462,-9.35957,-12.5049,-8.6854,-18.6341
2023-03-15 15:52:21:233,-1.49342,2.08604,-9.40032,-12.5064,-8.68841,-18.631
2023-03-15 15:52:21:243,-1.49093,2.13287,-9.45008,-12.5196,-8.68972,-18.628
2023-03-15 15:52:21:253,-1.48823,2.1526,-9.48121,-12.5251,-8.69057,-18.6275
2023-03-15 15:52:21:263,-1.49878,2.15985,-9.46588,-12.5359,-8.69095,-18.6261
2023-03-15 15:52:21:273,-1.48586,2.14338,-9.42852,-12.5405,-8.68794,-18.6284
2023-03-15 15:52:21:283,-1.47867,2.12173,-9.38816,-12.5415,-8.68466,-18.6318
2023-03-15 15:52:21:293,-1.49288,2.12579,-9.37115,-12.544,-8.68385,-18.6347
2023-03-15 15:52:21:303,-1.4994,2.12563,-9.36036,-12.5471,-8.6814,-18.6391
2023-03-15 15:52:21:313,-1.50083,2.10896,-9.34923,-12.55,-8.67733,-18.6457
2023-03-15 15:52:21:323,-1.4646,2.08907,-9.36152,-12.5517,-8.67129,-18.6525
2023-03-15 15:52:21:333,-1.4377,2.08928,-9.39922,-12.553,-8.66474,-18.6606
2023-03-15 15:52:21:343,-1.43557,2.1026,-9.43817,-12.5543,-8.65929,-18.6656
2023-03-15 15:52:21:353,-1.43708,2.11464,-9.45786,-12.558,-8.65263,-18.67
2023-03-15 15:52:21:363,-1.42604,2.12878,-9.45455,-12.5601,-8.64736,-18.6755
2023-03-15 15:52:21:373,-1.42159,2.12905,-9.46093,-12.5666,-8.64153,-18.6788
2023-03-15 15:52:21:383,-1.41246,2.13734,-9.44833,-12.5748,-8.64031,-18.6813
2023-03-15 15:52:21:393,-1.43655,2.14219,-9.47123,-12.5809,-8.63744,-18.6771
2023-03-15 15:52:21:403,-1.48515,2.18489,-9.50413,-12.5945,-8.63552,-18.6759
2023-03-15 15:52:21:413,-1.48724,2.1861,-9.49276,-12.6018,-8.63346,-18.675
2023-03-15 15:52:21:423,-1.48507,2.17958,-9.47529,-12.6027,-8.62925,-18.6753
2023-03-15 15:52:21:433,-1.43197,2.17848,-9.48485,-12.6035,-8.62518,-18.6822
2023-03-15 15:52:21:443,-1.40131,2.1482,-9.45288,-12.5984,-8.62418,-18.686
2023-03-15 15:52:21:453,-1.42437,2.13201,-9.42034,-12.5931,-8.62379,-18.6862
2023-03-15 15:52:21:463,-1.43893,2.13853,-9.41657,-12.5909,-8.625,-18.6869
2023-03-15 15:52:21:473,-1.44127,2.11772,-9.40224,-12.5844,-8.62729,-18.6897
2023-03-15 15:52:21:483,-1.4521,2.08807,-9.40028,-12.5793,-8.62984,-18.6909
2023-03-15 15:52:21:493,-1.4375,2.08658,-9.38532,-12.5784,-8.63144,-18.6893
2023-03-15 15:52:21:503,-1.44112,2.1045,-9.35989,-12.5821,-8.62994,-18.686
2023-03-15 15:52:21:513,-1.42136,2.1307,-9.35228,-12.5904,-8.62828,-18.6827
2023-03-15 15:52:21:523,-1.41587,2.16331,-9.38577,-12.6039,-8.62294,-18.6775
2023-03-15 15:52:21:533,-1.42667,2.20592,-9.46313,-12.6213,-8.61972,-18.672
2023-03-15 15:52:21:543,-1.42543,2.24586,-9.52396,-12.6412,-8.61765,-18.6693
2023-03-15 15:52:21:553,-1.43664,2.27082,-9.53858,-12.6562,-8.62061,-18.666
2023-03-15 15:52:21:563,-1.44169,2.26134,-9.51137,-12.6635,-8.62395,-18.6665
2023-03-15 15:52:21:573,-1.44412,2.22962,-9.47524,-12.6656,-8.62993,-18.6684
2023-03-15 15:52:21:583,-1.44354,2.21044,-9.46777,-12.6576,-8.64019,-18.6697
2023-03-15 15:52:21:593,-1.44966,2.18972,-9.43108,-12.6521,-8.65518,-18.6688
2023-03-15 15:52:21:603,-1.44701,2.16843,-9.41606,-12.6461,-8.67042,-18.6704
2023-03-15 15:52:21:613,-1.44372,2.14012,-9.3977,-12.6381,-8.69033,-18.6724
2023-03-15 15:52:21:623,-1.44459,2.13779,-9.38823,-12.6308,-8.70729,-18.6749
2023-03-15 15:52:21:633,-1.45008,2.1347,-9.40366,-12.6247,-8.71992,-18.6767
2023-03-15 15:52:21:643,-1.43917,2.13597,-9.39607,-12.6176,-8.73361,-18.6729
2023-03-15 15:52:21:653,-1.44954,2.13735,-9.38308,-12.6126,-8.74584,-18.6702
2023-03-15 15:52:21:663,-1.45648,2.13102,-9.39198,-12.6109,-8.75865,-18.6664
2023-03-15 15:52:21:673,-1.46388,2.12206,-9.39933,-12.6043,-8.76964,-18.663
2023-03-15 15:52:21:683,-1.47284,2.12097,-9.40417,-12.6034,-8.781,-18.6573
2023-03-15 15:52:21:693,-1.4828,2.11332,-9.39794,-12.6008,-8.79065,-18.6544
2023-03-15 15:52:21:703,-1.48957,2.10194,-9.39781,-12.5984,-8.79892,-18.6486
2023-03-15 15:52:21:713,-1.50399,2.09488,-9.40753,-12.5966,-8.80525,-18.6418
2023-03-15 15:52:21:723,-1.50731,2.09831,-9.42002,-12.5923,-8.81004,-18.6351
2023-03-15 15:52:21:733,-1.52777,2.09166,-9.42869,-12.5908,-8.81836,-18.6252
2023-03-15 15:52:21:742,-1.53637,2.09311,-9.42682,-12.5935,-8.82422,-18.621
2023-03-15 15:52:21:753,-1.51178,2.07745,-9.41094,-12.5903,-8.82937,-18.6192
2023-03-15 15:52:21:763,-1.50515,2.06387,-9.39527,-12.5899,-8.83265,-18.6161
2023-03-15 15:52:21:773,-1.5056,2.04872,-9.41483,-12.5902,-8.83632,-18.6158
2023-03-15 15:52:21:783,-1.50812,2.06379,-9.41626,-12.5918,-8.83948,-18.613
2023-03-15 15:52:21:793,-1.49849,2.07571,-9.41017,-12.5968,-8.84389,-18.6123
2023-03-15 15:52:21:803,-1.49749,2.07541,-9.42681,-12.6034,-8.84978,-18.6128
2023-03-15 15:52:21:813,-1.49056,2.0955,-9.45199,-12.6103,-8.85251,-18.6094
2023-03-15 15:52:21:823,-1.50264,2.09807,-9.44059,-12.6151,-8.85321,-18.6049
2023-03-15 15:52:21:833,-1.48191,2.07339,-9.41009,-12.6186,-8.85851,-18.6004
2023-03-15 15:52:21:843,-1.4733,2.06768,-9.40236,-12.6194,-8.86308,-18.5976
2023-03-15 15:52:21:853,-1.48156,2.06972,-9.40862,-12.6262,-8.8623,-18.5937
2023-03-15 15:52:21:863,-1.50263,2.08776,-9.4157,-12.6339,-8.86251,-18.5868
2023-03-15 15:52:21:873,-1.50728,2.10013,-9.40274,-12.6387,-8.86359,-18.579
2023-03-15 15:52:21:883,-1.51679,2.09785,-9.40669,-12.6463,-8.86379,-18.5731
2023-03-15 15:52:21:893,-1.52013,2.10876,-9.41563,-12.6552,-8.86771,-18.5647
2023-03-15 15:52:21:903,-1.52805,2.13898,-9.40547,-12.6625,-8.86529,-18.5589
2023-03-15 15:52:21:913,-1.53804,2.14,-9.41844,-12.6695,-8.86419,-18.5539
2023-03-15 15:52:21:923,-1.55139,2.12122,-9.40011,-12.6715,-8.86122,-18.5495
2023-03-15 15:52:21:933,-1.54165,2.10866,-9.35568,-12.6747,-8.8558,-18.5488
2023-03-15 15:52:21:943,-1.55435,2.10433,-9.32404,-12.6808,-8.85496,-18.545
2023-03-15 15:52:21:953,-1.53591,2.096,-9.3185,-12.6868,-8.84913,-18.5464
2023-03-15 15:52:21:963,-1.50914,2.09592,-9.33016,-12.7009,-8.83867,-18.5493
2023-03-15 15:52:21:973,-1.47342,2.12963,-9.38865,-12.7185,-8.82443,-18.5527
2023-03-15 15:52:21:983,-1.46598,2.15451,-9.42707,-12.7409,-8.8148,-18.5551
2023-03-15 15:52:21:993,-1.465,2.16735,-9.436,-12.7644,-8.80655,-18.5544
2023-03-15 15:52:22:3,-1.45816,2.16912,-9.46692,-12.7858,-8.79497,-18.5541
2023-03-15 15:52:22:13,-1.4138,2.22595,-9.51182,-12.8107,-8.78122,-18.5499
2023-03-15 15:52:22:23,-1.3831,2.22392,-9.52763,-12.8317,-8.7743,-18.5495
2023-03-15 15:52:22:33,-1.36994,2.21755,-9.5012,-12.8485,-8.76931,-18.5459
2023-03-15 15:52:22:43,-1.39942,2.20323,-9.46438,-12.8599,-8.76813,-18.5371
2023-03-15 15:52:22:53,-1.4684,2.21034,-9.43391,-12.8731,-8.77783,-18.5248
2023-03-15 15:52:22:63,-1.5273,2.22474,-9.40334,-12.8882,-8.78734,-18.5142
2023-03-15 15:52:22:73,-1.53701,2.22637,-9.37826,-12.9027,-8.79851,-18.506
2023-03-15 15:52:22:83,-1.52486,2.2322,-9.372,-12.9172,-8.8035,-18.5048
2023-03-15 15:52:22:93,-1.52714,2.24781,-9.38439,-12.9338,-8.80267,-18.4993
2023-03-15 15:52:22:103,-1.54701,2.26925,-9.41083,-12.9491,-8.80206,-18.4945
2023-03-15 15:52:22:113,-1.52912,2.27913,-9.43005,-12.9591,-8.79942,-18.4952
2023-03-15 15:52:22:123,-1.50896,2.27258,-9.41652,-12.9663,-8.79793,-18.4969
2023-03-15 15:52:22:133,-1.49548,2.2732,-9.42128,-12.9733,-8.79301,-18.4999
2023-03-15 15:52:22:143,-1.47128,2.25818,-9.44621,-12.9758,-8.78605,-18.5072
2023-03-15 15:52:22:153,-1.46002,2.22723,-9.43839,-12.9737,-8.77822,-18.5136
2023-03-15 15:52:22:163,-1.44864,2.21744,-9.41922,-12.9728,-8.77806,-18.5159
2023-03-15 15:52:22:173,-1.44648,2.20821,-9.4304,-12.9682,-8.77587,-18.5212
2023-03-15 15:52:22:183,-1.45452,2.20838,-9.42933,-12.9655,-8.77411,-18.528
2023-03-15 15:52:22:193,-1.4487,2.19211,-9.43881,-12.9625,-8.77157,-18.5286
2023-03-15 15:52:22:203,-1.44942,2.18404,-9.44542,-12.9597,-8.76985,-18.5337
2023-03-15 15:52:22:213,-1.45217,2.18629,-9.42422,-12.958,-8.76771,-18.5359
2023-03-15 15:52:22:223,-1.46818,2.19603,-9.43831,-12.9567,-8.76727,-18.5361
2023-03-15 15:52:22:233,-1.48895,2.22107,-9.47514,-12.9617,-8.76449,-18.5391
2023-03-15 15:52:22:243,-1.50091,2.22013,-9.4824,-12.9588,-8.76224,-18.5441
2023-03-15 15:52:22:253,-1.49033,2.2109,-9.47329,-12.9501,-8.76124,-18.5491
2023-03-15 15:52:22:263,-1.44982,2.18283,-9.46749,-12.9413,-8.75852,-18.5544
2023-03-15 15:52:22:273,-1.43448,2.1316,-9.41585,-12.9276,-8.76084,-18.5573
2023-03-15 15:52:22:283,-1.46109,2.10209,-9.3742,-12.9134,-8.7664,-18.5584
2023-03-15 15:52:22:293,-1.4961,2.08277,-9.37187,-12.9005,-8.77153,-18.5594
2023-03-15 15:52:22:303,-1.50058,2.08561,-9.38824,-12.8855,-8.77596,-18.5633
2023-03-15 15:52:22:313,-1.48954,2.1241,-9.40802,-12.8817,-8.77688,-18.5637
2023-03-15 15:52:22:323,-1.48309,2.14058,-9.42383,-12.8782,-8.77671,-18.5678
2023-03-15 15:52:22:333,-1.46422,2.13321,-9.44485,-12.8734,-8.77722,-18.5713
2023-03-15 15:52:22:343,-1.4685,2.1403,-9.44037,-12.8666,-8.78038,-18.573
2023-03-15 15:52:22:353,-1.47951,2.14184,-9.40634,-12.8614,-8.78082,-18.5717
2023-03-15 15:52:22:363,-1.47885,2.13421,-9.37718,-12.8555,-8.77932,-18.5707
2023-03-15 15:52:22:373,-1.44981,2.13438,-9.37756,-12.8497,-8.77611,-18.5702
2023-03-15 15:52:22:383,-1.4308,2.13619,-9.38321,-12.8463,-8.77863,-18.5709
2023-03-15 15:52:22:393,-1.43036,2.14395,-9.39485,-12.8483,-8.7826,-18.5667
2023-03-15 15:52:22:403,-1.43995,2.1379,-9.37906,-12.8478,-8.78831,-18.5659
2023-03-15 15:52:22:413,-1.44324,2.14396,-9.37306,-12.8502,-8.79352,-18.5616
2023-03-15 15:52:22:423,-1.47836,2.1505,-9.38595,-12.8573,-8.80084,-18.5567
2023-03-15 15:52:22:433,-1.48528,2.16079,-9.41149,-12.8628,-8.80817,-18.5514
2023-03-15 15:52:22:443,-1.51161,2.15109,-9.39055,-12.8664,-8.81398,-18.549
2023-03-15 15:52:22:453,-1.52544,2.15537,-9.36454,-12.8713,-8.82049,-18.545
2023-03-15 15:52:22:463,-1.5013,2.16249,-9.3779,-12.8804,-8.83059,-18.5323
2023-03-15 15:52:22:473,-1.50272,2.18743,-9.41924,-12.8911,-8.83729,-18.5258
2023-03-15 15:52:22:483,-1.53232,2.21409,-9.45201,-12.9069,-8.84206,-18.5211
2023-03-15 15:52:22:493,-1.54468,2.21227,-9.4496,-12.9184,-8.847,-18.5178
2023-03-15 15:52:22:503,-1.56437,2.22229,-9.4173,-12.9263,-8.85326,-18.5173
2023-03-15 15:52:22:513,-1.56301,2.21688,-9.41242,-12.9309,-8.85985,-18.5174
2023-03-15 15:52:22:523,-1.57038,2.22473,-9.41214,-12.9363,-8.86357,-18.523
2023-03-15 15:52:22:533,-1.57141,2.22829,-9.42855,-12.9403,-8.8638,-18.5295
2023-03-15 15:52:22:543,-1.56435,2.2252,-9.44565,-12.941,-8.86782,-18.5366
2023-03-15 15:52:22:553,-1.56073,2.21924,-9.41766,-12.9412,-8.87003,-18.5456
2023-03-15 15:52:22:563,-1.53777,2.20703,-9.41134,-12.9402,-8.86716,-18.5556
2023-03-15 15:52:22:573,-1.51847,2.20509,-9.43563,-12.939,-8.86319,-18.5715
2023-03-15 15:52:22:583,-1.47503,2.20576,-9.46546,-12.9378,-8.85528,-18.5872
2023-03-15 15:52:22:593,-1.46468,2.24161,-9.51566,-12.9319,-8.84997,-18.6017
2023-03-15 15:52:22:603,-1.47322,2.25353,-9.50785,-12.9241,-8.85071,-18.6176
2023-03-15 15:52:22:613,-1.48108,2.20688,-9.44545,-12.9092,-8.8516,-18.6333
2023-03-15 15:52:22:623,-1.45618,2.16493,-9.39745,-12.8896,-8.8524,-18.6487
2023-03-15 15:52:22:633,-1.45077,2.1672,-9.40499,-12.8705,-8.85007,-18.6593
2023-03-15 15:52:22:643,-1.46633,2.19313,-9.41935,-12.8599,-8.85017,-18.6661
2023-03-15 15:52:22:653,-1.44732,2.17816,-9.42865,-12.8443,-8.84958,-18.676
2023-03-15 15:52:22:663,-1.43963,2.15241,-9.4109,-12.8279,-8.84794,-18.685
2023-03-15 15:52:22:673,-1.45946,2.14615,-9.37966,-12.8129,-8.84604,-18.6871
2023-03-15 15:52:22:683,-1.48936,2.13753,-9.36185,-12.7978,-8.84719,-18.6902
2023-03-15 15:52:22:693,-1.50982,2.14337,-9.36142,-12.7876,-8.84764,-18.6915
2023-03-15 15:52:22:703,-1.5053,2.15894,-9.40107,-12.7762,-8.84933,-18.6948
2023-03-15 15:52:22:713,-1.49755,2.21316,-9.4713,-12.7665,-8.84582,-18.6983
2023-03-15 15:52:22:723,-1.49588,2.25464,-9.58157,-12.7501,-8.82338,-18.7014
2023-03-15 15:52:22:733,-1.49131,2.0953,-9.41056,-12.7192,-8.80481,-18.7028
2023-03-15 15:52:22:743,-1.50406,2.02626,-9.27763,-12.69,-8.80308,-18.7052
2023-03-15 15:52:22:753,-1.53834,2.0862,-9.3408,-12.6786,-8.80575,-18.7074
2023-03-15 15:52:22:762,-1.51178,2.09863,-9.39348,-12.6757,-8.80958,-18.7175
2023-03-15 15:52:22:773,-1.48986,2.10312,-9.41556,-12.6737,-8.81552,-18.7289
2023-03-15 15:52:22:783,-1.52097,2.13941,-9.43774,-12.6714,-8.8218,-18.7404
2023-03-15 15:52:22:793,-1.5178,2.22498,-9.56951,-12.663,-8.81563,-18.7478
2023-03-15 15:52:22:803,-1.48371,2.11525,-9.46552,-12.6396,-8.79943,-18.7584
2023-03-15 15:52:22:813,-1.45347,1.99246,-9.28545,-12.6139,-8.80166,-18.7678
2023-03-15 15:52:22:823,-1.45619,2.06812,-9.35041,-12.6021,-8.80475,-18.7763
2023-03-15 15:52:22:833,-1.44563,2.11675,-9.44904,-12.6029,-8.81313,-18.7831
2023-03-15 15:52:22:843,-1.42505,2.114,-9.4636,-12.606,-8.82302,-18.7916
2023-03-15 15:52:22:853,-1.4667,2.10869,-9.42289,-12.6049,-8.83267,-18.7916
2023-03-15 15:52:22:863,-1.50624,2.08574,-9.3817,-12.6036,-8.8409,-18.7916
2023-03-15 15:52:22:873,-1.50365,2.08728,-9.39067,-12.6054,-8.84589,-18.7941
2023-03-15 15:52:22:883,-1.51548,2.1213,-9.41628,-12.6081,-8.84403,-18.7943
2023-03-15 15:52:22:893,-1.56141,2.16423,-9.45959,-12.611,-8.8405,-18.7943
2023-03-15 15:52:22:903,-1.57431,2.20922,-9.45807,-12.6125,-8.83255,-18.7973
2023-03-15 15:52:22:913,-1.5419,2.18602,-9.43337,-12.6034,-8.82214,-18.8044
2023-03-15 15:52:22:923,-1.51359,2.14498,-9.40172,-12.5889,-8.80914,-18.8167
2023-03-15 15:52:22:933,-1.51007,2.13538,-9.36893,-12.578,-8.79636,-18.8275
2023-03-15 15:52:22:943,-1.5045,2.142,-9.39426,-12.5696,-8.78497,-18.8406
2023-03-15 15:52:22:953,-1.49516,2.13136,-9.41224,-12.5598,-8.77431,-18.8518
2023-03-15 15:52:22:963,-1.47952,2.11424,-9.38887,-12.5461,-8.75945,-18.8694
2023-03-15 15:52:22:973,-1.45293,2.09423,-9.35512,-12.537,-8.74533,-18.8829
2023-03-15 15:52:22:983,-1.41286,2.082,-9.36318,-12.5275,-8.73369,-18.8991
2023-03-15 15:52:22:993,-1.4033,2.08206,-9.38682,-12.5262,-8.72279,-18.9133
2023-03-15 15:52:23:3,-1.41844,2.11775,-9.42482,-12.5287,-8.7129,-18.9258
2023-03-15 15:52:23:13,-1.41795,2.15446,-9.45771,-12.5362,-8.70243,-18.938
2023-03-15 15:52:23:23,-1.43533,2.17758,-9.47298,-12.5488,-8.69604,-18.9462
2023-03-15 15:52:23:33,-1.44614,2.18352,-9.46065,-12.5586,-8.69227,-18.9541
2023-03-15 15:52:23:43,-1.46916,2.1701,-9.44282,-12.564,-8.68723,-18.9656
2023-03-15 15:52:23:53,-1.44697,2.17736,-9.45874,-12.5708,-8.68188,-18.9748
2023-03-15 15:52:23:63,-1.42798,2.18544,-9.47342,-12.5801,-8.67582,-18.9895
2023-03-15 15:52:23:73,-1.41094,2.1669,-9.446,-12.5832,-8.67924,-19.003
2023-03-15 15:52:23:83,-1.44064,2.15791,-9.43493,-12.5842,-8.68173,-19.0135
2023-03-15 15:52:23:93,-1.45899,2.22238,-9.53553,-12.5843,-8.67828,-19.0235
2023-03-15 15:52:23:103,-1.45309,2.16813,-9.5126,-12.5677,-8.65904,-19.0356
2023-03-15 15:52:23:113,-1.43931,2.04087,-9.33089,-12.545,-8.65621,-19.0458
2023-03-15 15:52:23:123,-1.40813,2.04546,-9.3409,-12.5302,-8.65957,-19.0564
2023-03-15 15:52:23:133,-1.42751,2.13591,-9.45071,-12.5309,-8.667,-19.0679
2023-03-15 15:52:23:143,-1.42984,2.17581,-9.51491,-12.5324,-8.66927,-19.0801
2023-03-15 15:52:23:153,-1.42142,2.13395,-9.45433,-12.5242,-8.67177,-19.0888
2023-03-15 15:52:23:163,-1.42045,2.09325,-9.38004,-12.5135,-8.67101,-19.0963
2023-03-15 15:52:23:173,-1.41669,2.0704,-9.36877,-12.5042,-8.67046,-19.1016
2023-03-15 15:52:23:183,-1.4302,2.06951,-9.3799,-12.4995,-8.66754,-19.1072
2023-03-15 15:52:23:193,-1.44218,2.087,-9.3982,-12.4957,-8.66357,-19.1093
2023-03-15 15:52:23:203,-1.46642,2.09711,-9.41586,-12.4924,-8.65951,-19.1125
2023-03-15 15:52:23:213,-1.45708,2.09923,-9.41175,-12.4863,-8.6585,-19.1145
2023-03-15 15:52:23:223,-1.44638,2.06594,-9.39562,-12.4781,-8.65768,-19.1235
2023-03-15 15:52:23:233,-1.45469,2.06783,-9.40918,-12.4743,-8.66185,-19.1282
2023-03-15 15:52:23:243,-1.4588,2.08983,-9.4361,-12.4748,-8.66471,-19.1357
2023-03-15 15:52:23:253,-1.46266,2.10547,-9.4445,-12.4748,-8.66694,-19.1408
2023-03-15 15:52:23:263,-1.46069,2.0964,-9.44578,-12.4732,-8.67092,-19.1484
2023-03-15 15:52:23:272,-1.45988,2.08408,-9.41212,-12.4715,-8.6704,-19.1525
2023-03-15 15:52:23:283,-1.46118,2.06463,-9.39798,-12.4722,-8.67156,-19.151
2023-03-15 15:52:23:293,-1.46245,2.06352,-9.39674,-12.472,-8.67428,-19.1506
2023-03-15 15:52:23:303,-1.46551,2.06996,-9.42392,-12.4727,-8.67256,-19.1513
2023-03-15 15:52:23:313,-1.46149,2.085,-9.44425,-12.4779,-8.67224,-19.1506
2023-03-15 15:52:23:323,-1.48454,2.09799,-9.46285,-12.4869,-8.67028,-19.1513
2023-03-15 15:52:23:333,-1.48227,2.10769,-9.46268,-12.4933,-8.67033,-19.1532
2023-03-15 15:52:23:343,-1.46938,2.10684,-9.4495,-12.4998,-8.67182,-19.1562
2023-03-15 15:52:23:353,-1.46794,2.09223,-9.44149,-12.5021,-8.67114,-19.1573
2023-03-15 15:52:23:363,-1.47294,2.08674,-9.4359,-12.5034,-8.67046,-19.1614
2023-03-15 15:52:23:373,-1.44818,2.0865,-9.43737,-12.504,-8.66939,-19.1641
2023-03-15 15:52:23:383,-1.46657,2.12562,-9.47738,-12.5019,-8.66275,-19.1677
2023-03-15 15:52:23:393,-1.46355,2.19595,-9.59902,-12.4982,-8.64388,-19.1681
2023-03-15 15:52:23:403,-1.40715,2.09459,-9.46235,-12.4818,-8.62073,-19.1737
2023-03-15 15:52:23:413,-1.39723,1.97032,-9.24628,-12.4636,-8.61767,-19.176
2023-03-15 15:52:23:423,-1.4252,2.07354,-9.35274,-12.4638,-8.62191,-19.1717
2023-03-15 15:52:23:433,-1.45335,2.18089,-9.52551,-12.4758,-8.62359,-19.172
2023-03-15 15:52:23:443,-1.43171,2.16076,-9.49748,-12.4812,-8.6214,-19.1782
2023-03-15 15:52:23:453,-1.44592,2.10385,-9.41216,-12.4776,-8.62059,-19.1801
2023-03-15 15:52:23:463,-1.46105,2.08224,-9.38698,-12.4774,-8.62271,-19.1808
2023-03-15 15:52:23:473,-1.43761,2.09582,-9.40385,-12.4759,-8.62488,-19.1777
2023-03-15 15:52:23:483,-1.4421,2.09994,-9.43117,-12.4793,-8.62829,-19.1727
2023-03-15 15:52:23:493,-1.46869,2.12262,-9.45098,-12.4822,-8.63107,-19.1659
2023-03-15 15:52:23:503,-1.46467,2.12196,-9.46407,-12.48,-8.62971,-19.1652
2023-03-15 15:52:23:513,-1.45748,2.0891,-9.45263,-12.4765,-8.63006,-19.1609
2023-03-15 15:52:23:523,-1.46933,2.0923,-9.4216,-12.4697,-8.62921,-19.1593
2023-03-15 15:52:23:533,-1.48044,2.07623,-9.41482,-12.4662,-8.63041,-19.1558
2023-03-15 15:52:23:543,-1.45979,2.06147,-9.4088,-12.4615,-8.62941,-19.1584
2023-03-15 15:52:23:553,-1.42651,2.0588,-9.40191,-12.4572,-8.62847,-19.1587
2023-03-15 15:52:23:563,-1.41138,2.05383,-9.39361,-12.4537,-8.62503,-19.1593
2023-03-15 15:52:23:573,-1.4242,2.0487,-9.41235,-12.4518,-8.62459,-19.1576
2023-03-15 15:52:23:583,-1.40283,2.05181,-9.44684,-12.4477,-8.62303,-19.1568
2023-03-15 15:52:23:593,-1.3928,2.07654,-9.47393,-12.4505,-8.62143,-19.1545
2023-03-15 15:52:23:603,-1.40136,2.0732,-9.48047,-12.453,-8.62273,-19.1455
2023-03-15 15:52:23:613,-1.37207,2.05533,-9.4501,-12.4526,-8.63202,-19.1382
2023-03-15 15:52:23:623,-1.38114,2.04826,-9.4201,-12.4516,-8.64166,-19.127
2023-03-15 15:52:23:633,-1.42168,2.05502,-9.39342,-12.4489,-8.64934,-19.1144
2023-03-15 15:52:23:643,-1.44573,2.06075,-9.37713,-12.4524,-8.66027,-19.0996
2023-03-15 15:52:23:653,-1.47725,2.07577,-9.3755,-12.4604,-8.67556,-19.0815
2023-03-15 15:52:23:663,-1.49568,2.10714,-9.38209,-12.4735,-8.68991,-19.0642
2023-03-15 15:52:23:673,-1.51667,2.12494,-9.41199,-12.4904,-8.69769,-19.0459
2023-03-15 15:52:23:683,-1.55459,2.13457,-9.43087,-12.5069,-8.7058,-19.027
2023-03-15 15:52:23:693,-1.57202,2.14443,-9.41856,-12.5168,-8.70961,-19.0174
2023-03-15 15:52:23:703,-1.56322,2.14631,-9.42369,-12.5289,-8.71332,-19.009
2023-03-15 15:52:23:713,-1.54783,2.16176,-9.41817,-12.5397,-8.71115,-19.0041
2023-03-15 15:52:23:723,-1.53656,2.17033,-9.40908,-12.5472,-8.70828,-19.0046
2023-03-15 15:52:23:733,-1.52842,2.15244,-9.40128,-12.5547,-8.70897,-19.0063
2023-03-15 15:52:23:743,-1.52508,2.13054,-9.40316,-12.5598,-8.70608,-19.0127
2023-03-15 15:52:23:753,-1.4975,2.13078,-9.41456,-12.5654,-8.70264,-19.0189
2023-03-15 15:52:23:763,-1.47216,2.13564,-9.40941,-12.5682,-8.69728,-19.0236
2023-03-15 15:52:23:773,-1.45861,2.14261,-9.43216,-12.5744,-8.69083,-19.0303
2023-03-15 15:52:23:782,-1.45141,2.15533,-9.43708,-12.5851,-8.68018,-19.0374
2023-03-15 15:52:23:793,-1.45827,2.177,-9.45408,-12.5953,-8.67203,-19.0415
2023-03-15 15:52:23:803,-1.48076,2.17797,-9.46156,-12.6025,-8.6639,-19.046
2023-03-15 15:52:23:813,-1.48111,2.1681,-9.46264,-12.6079,-8.65561,-19.0483
2023-03-15 15:52:23:823,-1.47572,2.17859,-9.48563,-12.6153,-8.64754,-19.0502
2023-03-15 15:52:23:833,-1.4329,2.20565,-9.51324,-12.6213,-8.63842,-19.0556
2023-03-15 15:52:23:843,-1.39454,2.18463,-9.49755,-12.6206,-8.63171,-19.0584
2023-03-15 15:52:23:853,-1.41836,2.14315,-9.44735,-12.618,-8.62653,-19.0582
2023-03-15 15:52:23:863,-1.44865,2.14745,-9.41816,-12.6109,-8.6265,-19.0572
2023-03-15 15:52:23:873,-1.46365,2.14676,-9.43528,-12.6045,-8.62764,-19.0597
2023-03-15 15:52:23:883,-1.46006,2.15044,-9.43502,-12.5979,-8.62953,-19.0605
2023-03-15 15:52:23:893,-1.44339,2.13175,-9.43785,-12.5948,-8.62945,-19.0621
2023-03-15 15:52:23:903,-1.43389,2.13178,-9.41385,-12.5879,-8.63043,-19.0657
2023-03-15 15:52:23:913,-1.42325,2.12422,-9.41831,-12.5849,-8.62801,-19.0672
2023-03-15 15:52:23:923,-1.42352,2.11539,-9.4297,-12.58,-8.63125,-19.0661
2023-03-15 15:52:23:933,-1.4305,2.13162,-9.41397,-12.5785,-8.63505,-19.0622
2023-03-15 15:52:23:943,-1.43865,2.12031,-9.41512,-12.5778,-8.63745,-19.0585
2023-03-15 15:52:23:953,-1.43968,2.10692,-9.41351,-12.5746,-8.6404,-19.0552
2023-03-15 15:52:23:963,-1.43702,2.10096,-9.41796,-12.5708,-8.64326,-19.0547
2023-03-15 15:52:23:973,-1.43725,2.10162,-9.41569,-12.5677,-8.64912,-19.0506
2023-03-15 15:52:23:983,-1.43592,2.09642,-9.41422,-12.5649,-8.65263,-19.0434
2023-03-15 15:52:23:993,-1.43789,2.09763,-9.4181,-12.5619,-8.65587,-19.0414
2023-03-15 15:52:24:3,-1.43543,2.10583,-9.39478,-12.5627,-8.66167,-19.0338
2023-03-15 15:52:24:13,-1.44478,2.10032,-9.39124,-12.562,-8.66431,-19.0261
2023-03-15 15:52:24:23,-1.4563,2.11336,-9.40418,-12.5648,-8.67008,-19.0146
2023-03-15 15:52:24:33,-1.4659,2.12219,-9.41198,-12.5669,-8.67653,-19.0041
2023-03-15 15:52:24:43,-1.4921,2.12493,-9.43014,-12.5735,-8.68128,-18.9931
2023-03-15 15:52:24:53,-1.51395,2.12785,-9.44503,-12.5813,-8.68676,-18.9845
2023-03-15 15:52:24:63,-1.52005,2.1436,-9.45137,-12.5866,-8.69326,-18.9741
2023-03-15 15:52:24:73,-1.52906,2.15142,-9.43476,-12.5922,-8.69798,-18.9662
2023-03-15 15:52:24:83,-1.52969,2.14941,-9.42371,-12.5978,-8.70492,-18.9595
2023-03-15 15:52:24:93,-1.53859,2.15347,-9.43816,-12.6038,-8.70951,-18.9552
2023-03-15 15:52:24:103,-1.54544,2.14271,-9.43877,-12.6093,-8.71278,-18.9547
2023-03-15 15:52:24:113,-1.54846,2.13655,-9.42743,-12.6104,-8.71363,-18.9572
2023-03-15 15:52:24:123,-1.51922,2.14274,-9.42687,-12.6127,-8.71566,-18.9609
2023-03-15 15:52:24:133,-1.49023,2.1423,-9.4335,-12.6147,-8.71252,-18.9619
2023-03-15 15:52:24:143,-1.49702,2.15646,-9.43796,-12.6145,-8.71005,-18.966
2023-03-15 15:52:24:153,-1.48957,2.15087,-9.43452,-12.6137,-8.70789,-18.9738
2023-03-15 15:52:24:163,-1.47094,2.13568,-9.41946,-12.6126,-8.70839,-18.9804
2023-03-15 15:52:24:173,-1.46045,2.12298,-9.43631,-12.6154,-8.70433,-18.9875
2023-03-15 15:52:24:183,-1.45199,2.12033,-9.43655,-12.6159,-8.7021,-18.9949
2023-03-15 15:52:24:193,-1.44464,2.12457,-9.42788,-12.6112,-8.69993,-18.9999
2023-03-15 15:52:24:203,-1.43607,2.13091,-9.42703,-12.6081,-8.69438,-19.0063
2023-03-15 15:52:24:213,-1.43233,2.13449,-9.44055,-12.6083,-8.69023,-19.0084
2023-03-15 15:52:24:223,-1.43752,2.13114,-9.44941,-12.6075,-8.68478,-19.0141
2023-03-15 15:52:24:233,-1.44117,2.13015,-9.44287,-12.6022,-8.67989,-19.0151
2023-03-15 15:52:24:243,-1.45662,2.13312,-9.43039,-12.596,-8.67864,-19.0186
2023-03-15 15:52:24:253,-1.45211,2.13394,-9.40708,-12.5928,-8.68043,-19.0198
2023-03-15 15:52:24:263,-1.45046,2.12793,-9.41818,-12.5915,-8.67943,-19.0221
2023-03-15 15:52:24:273,-1.45709,2.13642,-9.43876,-12.5919,-8.67922,-19.0213
2023-03-15 15:52:24:283,-1.47067,2.14716,-9.44882,-12.5929,-8.67936,-19.0207
2023-03-15 15:52:24:293,-1.47654,2.15595,-9.45262,-12.5918,-8.68261,-19.0168
2023-03-15 15:52:24:303,-1.46927,2.13979,-9.43898,-12.5903,-8.68582,-19.0183
2023-03-15 15:52:24:313,-1.48047,2.1179,-9.41701,-12.5841,-8.68933,-19.0178
2023-03-15 15:52:24:323,-1.49984,2.13066,-9.40388,-12.5794,-8.69165,-19.0157
2023-03-15 15:52:24:333,-1.50819,2.124,-9.40888,-12.5732,-8.69381,-19.0144
2023-03-15 15:52:24:343,-1.47242,2.10812,-9.402,-12.5669,-8.69569,-19.0136
2023-03-15 15:52:24:353,-1.46025,2.09112,-9.40301,-12.5654,-8.69995,-19.0136
2023-03-15 15:52:24:363,-1.45139,2.08525,-9.41582,-12.5623,-8.7004,-19.0117
2023-03-15 15:52:24:373,-1.42991,2.08597,-9.44818,-12.5612,-8.70192,-19.0085
2023-03-15 15:52:24:383,-1.4175,2.1101,-9.49071,-12.5589,-8.70438,-19.0056
2023-03-15 15:52:24:393,-1.38621,2.12206,-9.50099,-12.5546,-8.70456,-18.9987
2023-03-15 15:52:24:403,-1.36166,2.10605,-9.46887,-12.5502,-8.70001,-18.9912
2023-03-15 15:52:24:413,-1.36679,2.07236,-9.41866,-12.542,-8.69771,-18.9813
2023-03-15 15:52:24:423,-1.41883,2.07187,-9.38541,-12.5344,-8.69783,-18.9633
2023-03-15 15:52:24:433,-1.46019,2.09765,-9.38836,-12.534,-8.6957,-18.9409
2023-03-15 15:52:24:443,-1.49257,2.14387,-9.42241,-12.5394,-8.692,-18.9146
2023-03-15 15:52:24:453,-1.54903,2.15924,-9.43237,-12.547,-8.69142,-18.897
2023-03-15 15:52:24:463,-1.58233,2.17101,-9.43241,-12.5514,-8.693,-18.8804
2023-03-15 15:52:24:473,-1.5857,2.18021,-9.4243,-12.5561,-8.69428,-18.8694
2023-03-15 15:52:24:483,-1.59336,2.17778,-9.40603,-12.5571,-8.69713,-18.8646
2023-03-15 15:52:24:493,-1.58729,2.16773,-9.39972,-12.5542,-8.69753,-18.8627
2023-03-15 15:52:24:503,-1.57578,2.14759,-9.38204,-12.5482,-8.70182,-18.8693
2023-03-15 15:52:24:513,-1.56125,2.13143,-9.37773,-12.5374,-8.70273,-18.8799
2023-03-15 15:52:24:523,-1.52422,2.11325,-9.3777,-12.5334,-8.70571,-18.8961
2023-03-15 15:52:24:533,-1.48345,2.1018,-9.399,-12.5273,-8.70724,-18.9151
2023-03-15 15:52:24:543,-1.45828,2.09286,-9.40612,-12.5245,-8.70837,-18.935
2023-03-15 15:52:24:553,-1.43689,2.09704,-9.41545,-12.5214,-8.70581,-18.9547
2023-03-15 15:52:24:563,-1.42494,2.10145,-9.45853,-12.5233,-8.69955,-18.9721
2023-03-15 15:52:24:573,-1.40644,2.12096,-9.48626,-12.5269,-8.6969,-18.9887
2023-03-15 15:52:24:583,-1.38772,2.13652,-9.48637,-12.5345,-8.6943,-18.9977
2023-03-15 15:52:24:593,-1.4128,2.15081,-9.48309,-12.5386,-8.69064,-19.004
2023-03-15 15:52:24:603,-1.45718,2.16509,-9.46923,-12.5415,-8.68805,-19.0111
2023-03-15 15:52:24:613,-1.46698,2.14897,-9.44827,-12.5444,-8.68448,-19.0161
2023-03-15 15:52:24:623,-1.43002,2.15103,-9.4847,-12.5417,-8.67946,-19.021
2023-03-15 15:52:24:633,-1.38469,2.15361,-9.49687,-12.5381,-8.67085,-19.025
2023-03-15 15:52:24:643,-1.37618,2.11368,-9.45626,-12.5303,-8.66729,-19.0285
2023-03-15 15:52:24:653,-1.4341,2.1067,-9.44272,-12.5206,-8.66967,-19.0266
2023-03-15 15:52:24:663,-1.46177,2.11362,-9.44798,-12.5104,-8.67462,-19.0238
2023-03-15 15:52:24:673,-1.4589,2.08927,-9.4401,-12.5031,-8.68077,-19.02
2023-03-15 15:52:24:683,-1.47332,2.09368,-9.41715,-12.494,-8.68671,-19.0185
2023-03-15 15:52:24:693,-1.46756,2.07011,-9.40792,-12.4813,-8.6879,-19.0177
2023-03-15 15:52:24:703,-1.44285,2.07457,-9.41315,-12.4735,-8.68542,-19.0181
2023-03-15 15:52:24:713,-1.45868,2.09192,-9.4293,-12.4683,-8.68607,-19.0161
2023-03-15 15:52:24:723,-1.47748,2.09135,-9.44931,-12.463,-8.6872,-19.0149
2023-03-15 15:52:24:733,-1.48776,2.09637,-9.44322,-12.458,-8.69017,-19.0142
2023-03-15 15:52:24:743,-1.48124,2.0975,-9.43088,-12.4516,-8.6935,-19.0127
2023-03-15 15:52:24:753,-1.47821,2.09652,-9.42376,-12.4465,-8.69209,-19.0118
2023-03-15 15:52:24:763,-1.48586,2.10247,-9.42087,-12.4406,-8.6943,-19.0135
2023-03-15 15:52:24:773,-1.48521,2.10072,-9.40934,-12.4333,-8.69927,-19.0153
2023-03-15 15:52:24:783,-1.48049,2.08044,-9.4183,-12.4264,-8.7029,-19.0173
2023-03-15 15:52:24:793,-1.47761,2.06293,-9.41426,-12.4205,-8.70369,-19.0178
2023-03-15 15:52:24:803,-1.46681,2.07457,-9.41176,-12.4146,-8.70654,-19.017
2023-03-15 15:52:24:813,-1.47665,2.07906,-9.41192,-12.4105,-8.71457,-19.0163
2023-03-15 15:52:24:823,-1.46975,2.06903,-9.43378,-12.4076,-8.72337,-19.0174
2023-03-15 15:52:24:833,-1.47506,2.0708,-9.43292,-12.405,-8.72645,-19.0138
2023-03-15 15:52:24:843,-1.48469,2.07953,-9.41192,-12.4054,-8.72923,-19.0121
2023-03-15 15:52:24:853,-1.49335,2.08376,-9.42541,-12.4043,-8.73502,-19.0077
2023-03-15 15:52:24:863,-1.50256,2.07958,-9.436,-12.405,-8.74058,-19.0037
2023-03-15 15:52:24:873,-1.51091,2.08968,-9.43612,-12.4025,-8.73797,-19.0015
2023-03-15 15:52:24:883,-1.51913,2.10393,-9.45916,-12.4029,-8.73621,-18.9998
2023-03-15 15:52:24:893,-1.5204,2.11613,-9.4463,-12.4033,-8.73499,-18.999
2023-03-15 15:52:24:903,-1.53877,2.16528,-9.49586,-12.4056,-8.73079,-19.0004
2023-03-15 15:52:24:913,-1.52163,2.23476,-9.64523,-12.3947,-8.70657,-19.0014
2023-03-15 15:52:24:923,-1.47745,2.06075,-9.41539,-12.3629,-8.68057,-19.0063
2023-03-15 15:52:24:933,-1.43932,1.95702,-9.22902,-12.3373,-8.67521,-19.0133
2023-03-15 15:52:24:943,-1.46934,2.03881,-9.35978,-12.3319,-8.67512,-19.0126
2023-03-15 15:52:24:953,-1.48696,2.13635,-9.50835,-12.3407,-8.67942,-19.0172
2023-03-15 15:52:24:963,-1.45613,2.13316,-9.49673,-12.3407,-8.681,-19.0251
2023-03-15 15:52:24:973,-1.44578,2.07316,-9.41928,-12.3315,-8.68018,-19.0344
2023-03-15 15:52:24:983,-1.43748,2.03754,-9.40279,-12.3248,-8.68165,-19.0415
2023-03-15 15:52:24:993,-1.43918,2.05897,-9.41911,-12.3189,-8.68091,-19.0468
2023-03-15 15:52:25:3,-1.4423,2.16873,-9.54217,-12.3143,-8.67733,-19.0518
2023-03-15 15:52:25:13,-1.43994,2.15144,-9.57578,-12.2969,-8.65561,-19.0521
2023-03-15 15:52:25:23,-1.41368,1.95581,-9.30981,-12.2665,-8.64882,-19.0576
2023-03-15 15:52:25:33,-1.39807,1.95552,-9.27531,-12.2529,-8.65448,-19.0582
2023-03-15 15:52:25:43,-1.43588,2.09538,-9.47526,-12.2548,-8.65617,-19.0501
2023-03-15 15:52:25:53,-1.47237,2.10578,-9.51811,-12.2579,-8.65866,-19.0486
2023-03-15 15:52:25:63,-1.44978,2.06352,-9.46798,-12.2543,-8.66265,-19.0483
2023-03-15 15:52:25:73,-1.45363,2.0275,-9.41956,-12.2427,-8.66536,-19.0454
2023-03-15 15:52:25:83,-1.47563,2.0368,-9.40809,-12.2312,-8.66881,-19.0453
2023-03-15 15:52:25:93,-1.48653,2.04788,-9.42662,-12.227,-8.67223,-19.0437
2023-03-15 15:52:25:103,-1.47562,2.05792,-9.45527,-12.2246,-8.67172,-19.0461
2023-03-15 15:52:25:113,-1.45304,2.05412,-9.45013,-12.2165,-8.66607,-19.0458
2023-03-15 15:52:25:123,-1.43106,2.01521,-9.41381,-12.2064,-8.66282,-19.0484
2023-03-15 15:52:25:133,-1.43736,2.00043,-9.39703,-12.1958,-8.66268,-19.0486
2023-03-15 15:52:25:143,-1.4667,2.03306,-9.46716,-12.1932,-8.6661,-19.0493
2023-03-15 15:52:25:153,-1.45865,2.07533,-9.51624,-12.1906,-8.67202,-19.0514
2023-03-15 15:52:25:163,-1.42874,2.06461,-9.50488,-12.1886,-8.67555,-19.0548
2023-03-15 15:52:25:173,-1.3958,2.01896,-9.43878,-12.1804,-8.68129,-19.0526
2023-03-15 15:52:25:183,-1.40896,2.00198,-9.39457,-12.171,-8.68929,-19.0509
2023-03-15 15:52:25:193,-1.46454,2.02792,-9.41693,-12.1703,-8.69744,-19.0436
2023-03-15 15:52:25:203,-1.4916,2.0665,-9.43275,-12.1748,-8.70599,-19.0393
2023-03-15 15:52:25:213,-1.50407,2.08294,-9.43115,-12.1823,-8.70961,-19.0348
2023-03-15 15:52:25:223,-1.49551,2.07767,-9.41938,-12.1865,-8.71303,-19.0321
2023-03-15 15:52:25:233,-1.50557,2.09048,-9.42095,-12.1934,-8.71611,-19.0286
2023-03-15 15:52:25:243,-1.51608,2.10139,-9.41976,-12.1994,-8.71586,-19.0264
2023-03-15 15:52:25:253,-1.5128,2.10356,-9.41843,-12.2037,-8.71871,-19.0301
2023-03-15 15:52:25:263,-1.51632,2.0805,-9.41495,-12.2055,-8.72208,-19.0314
2023-03-15 15:52:25:273,-1.52024,2.06084,-9.40677,-12.2052,-8.72204,-19.0322
2023-03-15 15:52:25:283,-1.4922,2.05011,-9.38673,-12.2008,-8.72121,-19.0394
2023-03-15 15:52:25:293,-1.48321,2.06162,-9.39102,-12.1983,-8.71892,-19.0476
2023-03-15 15:52:25:303,-1.46115,2.05085,-9.40718,-12.1993,-8.71374,-19.0567
2023-03-15 15:52:25:313,-1.44158,2.03869,-9.41405,-12.1987,-8.70715,-19.0665
2023-03-15 15:52:25:322,-1.41942,2.0464,-9.42415,-12.1963,-8.70045,-19.0738
2023-03-15 15:52:25:332,-1.41609,2.05385,-9.44581,-12.1988,-8.69318,-19.0786
2023-03-15 15:52:25:343,-1.38775,2.08245,-9.47149,-12.2063,-8.68608,-19.0831
2023-03-15 15:52:25:353,-1.39558,2.09604,-9.48608,-12.214,-8.68151,-19.0816
2023-03-15 15:52:25:363,-1.42703,2.10481,-9.5,-12.2171,-8.67805,-19.0834
2023-03-15 15:52:25:373,-1.46073,2.11384,-9.48159,-12.2212,-8.67472,-19.0828
2023-03-15 15:52:25:383,-1.47725,2.11993,-9.49192,-12.2296,-8.66969,-19.0854
2023-03-15 15:52:25:393,-1.43773,2.12939,-9.52427,-12.2317,-8.66641,-19.0902
2023-03-15 15:52:25:403,-1.39027,2.10272,-9.50264,-12.2279,-8.66411,-19.0905
2023-03-15 15:52:25:413,-1.41592,2.06879,-9.45262,-12.2211,-8.6663,-19.0897
2023-03-15 15:52:25:423,-1.4545,2.05969,-9.43513,-12.2166,-8.67085,-19.0855
2023-03-15 15:52:25:433,-1.45172,2.05473,-9.4228,-12.2111,-8.67516,-19.0839
2023-03-15 15:52:25:443,-1.45789,2.05773,-9.41804,-12.2041,-8.68161,-19.0858
2023-03-15 15:52:25:453,-1.46049,2.05569,-9.42336,-12.1975,-8.68516,-19.0868
2023-03-15 15:52:25:463,-1.44529,2.05498,-9.42319,-12.1926,-8.6904,-19.0883
2023-03-15 15:52:25:473,-1.4447,2.05669,-9.43935,-12.1918,-8.69599,-19.0844
2023-03-15 15:52:25:483,-1.44559,2.06087,-9.44772,-12.1892,-8.69578,-19.0819
2023-03-15 15:52:25:493,-1.45613,2.06006,-9.44964,-12.1844,-8.69817,-19.0785
2023-03-15 15:52:25:503,-1.45939,2.05995,-9.4221,-12.1801,-8.70095,-19.0747
2023-03-15 15:52:25:513,-1.45907,2.04785,-9.40013,-12.1737,-8.70399,-19.0715
2023-03-15 15:52:25:523,-1.47838,2.02784,-9.39544,-12.1703,-8.70556,-19.0657
2023-03-15 15:52:25:533,-1.46806,2.03721,-9.40761,-12.1683,-8.70878,-19.0614
2023-03-15 15:52:25:543,-1.46553,2.0479,-9.41369,-12.1672,-8.71197,-19.0556
2023-03-15 15:52:25:553,-1.48087,2.04363,-9.42657,-12.1674,-8.71593,-19.054
2023-03-15 15:52:25:563,-1.48677,2.04255,-9.42001,-12.1654,-8.72101,-19.0506
2023-03-15 15:52:25:573,-1.50243,2.04716,-9.42409,-12.166,-8.72395,-19.049
2023-03-15 15:52:25:583,-1.48875,2.05808,-9.42429,-12.1699,-8.72701,-19.0492
2023-03-15 15:52:25:593,-1.47953,2.05183,-9.44473,-12.1706,-8.73166,-19.0505
2023-03-15 15:52:25:603,-1.47658,2.05801,-9.44341,-12.1661,-8.73545,-19.0505
2023-03-15 15:52:25:613,-1.47126,2.05512,-9.43396,-12.164,-8.74139,-19.0498
2023-03-15 15:52:25:623,-1.47638,2.0692,-9.42789,-12.1672,-8.74476,-19.0472
2023-03-15 15:52:25:633,-1.49039,2.05876,-9.43905,-12.1722,-8.74809,-19.0436
2023-03-15 15:52:25:643,-1.48984,2.04462,-9.45375,-12.1759,-8.7501,-19.0412
2023-03-15 15:52:25:653,-1.4848,2.05936,-9.4443,-12.1805,-8.75574,-19.0355
2023-03-15 15:52:25:663,-1.49302,2.06749,-9.45091,-12.1844,-8.75213,-19.0362
2023-03-15 15:52:25:673,-1.49183,2.08127,-9.44142,-12.1861,-8.74894,-19.0345
2023-03-15 15:52:25:683,-1.49525,2.07131,-9.43338,-12.185,-8.74859,-19.0331
2023-03-15 15:52:25:693,-1.48481,2.04989,-9.43095,-12.1837,-8.74727,-19.0345
2023-03-15 15:52:25:703,-1.48192,2.0443,-9.4378,-12.1853,-8.74472,-19.0322
2023-03-15 15:52:25:713,-1.47549,2.06915,-9.44943,-12.1879,-8.74018,-19.0357
2023-03-15 15:52:25:723,-1.48639,2.06337,-9.47031,-12.1852,-8.73715,-19.0403
2023-03-15 15:52:25:733,-1.46739,2.05686,-9.46317,-12.1822,-8.73698,-19.0444
2023-03-15 15:52:25:743,-1.44301,2.04576,-9.44901,-12.1779,-8.73692,-19.0481
2023-03-15 15:52:25:753,-1.43183,2.04044,-9.44269,-12.1726,-8.7378,-19.0502
2023-03-15 15:52:25:763,-1.43846,2.03573,-9.41874,-12.1709,-8.7364,-19.05
2023-03-15 15:52:25:773,-1.43807,2.0234,-9.39668,-12.1687,-8.73236,-19.0512
2023-03-15 15:52:25:783,-1.44705,2.02311,-9.39254,-12.1661,-8.73207,-19.0489
2023-03-15 15:52:25:793,-1.45967,2.03698,-9.39149,-12.1658,-8.73352,-19.0435
2023-03-15 15:52:25:803,-1.47421,2.05046,-9.41024,-12.1691,-8.73389,-19.0376
2023-03-15 15:52:25:813,-1.48659,2.07304,-9.41266,-12.1707,-8.73456,-19.0339
2023-03-15 15:52:25:823,-1.49586,2.08801,-9.45646,-12.1752,-8.73309,-19.0313
2023-03-15 15:52:25:833,-1.49178,2.09539,-9.48689,-12.1782,-8.73147,-19.0261
2023-03-15 15:52:25:842,-1.49551,2.08698,-9.46482,-12.1774,-8.73092,-19.0251
2023-03-15 15:52:25:853,-1.50439,2.06493,-9.444,-12.1789,-8.72748,-19.0274
2023-03-15 15:52:25:863,-1.49674,2.06229,-9.42265,-12.1781,-8.723,-19.0265
2023-03-15 15:52:25:873,-1.47719,2.06336,-9.39997,-12.1833,-8.72216,-19.0297
2023-03-15 15:52:25:883,-1.44717,2.05194,-9.40695,-12.1851,-8.71922,-19.0318
2023-03-15 15:52:25:893,-1.45025,2.057,-9.41572,-12.189,-8.71284,-19.0336
2023-03-15 15:52:25:903,-1.46353,2.06858,-9.44031,-12.1917,-8.71413,-19.0303
2023-03-15 15:52:25:913,-1.45543,2.0629,-9.48126,-12.1921,-8.71722,-19.0326
2023-03-15 15:52:25:923,-1.43799,2.08846,-9.50478,-12.1965,-8.71714,-19.0317
2023-03-15 15:52:25:933,-1.40765,2.0738,-9.51469,-12.1967,-8.71768,-19.0327
2023-03-15 15:52:25:943,-1.38733,2.0446,-9.46703,-12.1897,-8.71791,-19.0321
2023-03-15 15:52:25:953,-1.40999,2.02116,-9.42854,-12.1829,-8.72036,-19.0264
2023-03-15 15:52:25:963,-1.45431,2.03211,-9.4093,-12.1776,-8.72832,-19.0189
2023-03-15 15:52:25:973,-1.49136,2.06963,-9.41746,-12.175,-8.73433,-19.0093
2023-03-15 15:52:25:983,-1.49929,2.09731,-9.44552,-12.1781,-8.73679,-18.9998
2023-03-15 15:52:25:993,-1.5145,2.11488,-9.45332,-12.1814,-8.74036,-18.9921
2023-03-15 15:52:26:3,-1.51961,2.11871,-9.445,-12.1862,-8.74305,-18.9871
2023-03-15 15:52:26:13,-1.51887,2.10841,-9.43035,-12.1884,-8.73852,-18.9769
2023-03-15 15:52:26:23,-1.51639,2.09154,-9.42388,-12.1898,-8.73414,-18.9681
2023-03-15 15:52:26:33,-1.52504,2.0934,-9.40554,-12.1877,-8.729,-18.9653
2023-03-15 15:52:26:43,-1.53677,2.08793,-9.38724,-12.1822,-8.72369,-18.9653
2023-03-15 15:52:26:53,-1.51667,2.06404,-9.38765,-12.1838,-8.72078,-18.9694
2023-03-15 15:52:26:63,-1.49185,2.06621,-9.38857,-12.1763,-8.71527,-18.974
2023-03-15 15:52:26:73,-1.46004,2.05861,-9.38928,-12.1749,-8.71496,-18.9819
2023-03-15 15:52:26:83,-1.45003,2.04879,-9.40442,-12.1714,-8.7077,-18.9926
2023-03-15 15:52:26:93,-1.44757,2.06367,-9.42976,-12.1718,-8.70167,-19.0041
2023-03-15 15:52:26:103,-1.43724,2.08048,-9.45405,-12.1719,-8.69935,-19.0111
2023-03-15 15:52:26:113,-1.42315,2.08187,-9.46078,-12.1756,-8.69703,-19.0223
2023-03-15 15:52:26:123,-1.38249,2.08258,-9.46502,-12.1832,-8.69227,-19.0297
2023-03-15 15:52:26:133,-1.39489,2.08894,-9.47199,-12.1857,-8.68859,-19.0314
2023-03-15 15:52:26:143,-1.43102,2.10518,-9.48378,-12.1906,-8.68601,-19.0313
2023-03-15 15:52:26:153,-1.43797,2.10579,-9.4881,-12.1944,-8.68199,-19.0302
2023-03-15 15:52:26:163,-1.42885,2.11196,-9.4991,-12.1987,-8.67798,-19.0305
2023-03-15 15:52:26:173,-1.41477,2.11817,-9.49441,-12.2019,-8.6731,-19.0288
2023-03-15 15:52:26:183,-1.40567,2.09521,-9.46899,-12.1967,-8.66986,-19.0287
2023-03-15 15:52:26:193,-1.43184,2.07299,-9.44766,-12.19,-8.67125,-19.0264
2023-03-15 15:52:26:203,-1.45033,2.06017,-9.44676,-12.1839,-8.6788,-19.0224
2023-03-15 15:52:26:213,-1.46099,2.06553,-9.44748,-12.1751,-8.68431,-19.0214
2023-03-15 15:52:26:223,-1.47339,2.06663,-9.44931,-12.1687,-8.69046,-19.0175
2023-03-15 15:52:26:233,-1.4838,2.06514,-9.46469,-12.1589,-8.69884,-19.0177
2023-03-15 15:52:26:243,-1.46098,2.06392,-9.44772,-12.1503,-8.70293,-19.0201
2023-03-15 15:52:26:253,-1.45281,2.07123,-9.43583,-12.1421,-8.7092,-19.0253
2023-03-15 15:52:26:263,-1.4408,2.06118,-9.42982,-12.1316,-8.71505,-19.029
2023-03-15 15:52:26:273,-1.44621,2.06028,-9.41166,-12.1206,-8.71831,-19.0302
2023-03-15 15:52:26:283,-1.44682,2.05903,-9.39656,-12.1109,-8.72601,-19.0311
2023-03-15 15:52:26:293,-1.45353,2.05658,-9.39144,-12.1034,-8.7286,-19.0312
2023-03-15 15:52:26:303,-1.45623,2.05959,-9.40628,-12.0998,-8.73822,-19.0304
2023-03-15 15:52:26:313,-1.44744,2.06155,-9.42399,-12.0969,-8.74415,-19.0301
2023-03-15 15:52:26:323,-1.45498,2.05897,-9.44492,-12.091,-8.74802,-19.0323
2023-03-15 15:52:26:333,-1.46536,2.05669,-9.4491,-12.0855,-8.75676,-19.0298
2023-03-15 15:52:26:342,-1.47152,2.06931,-9.45518,-12.0805,-8.7649,-19.0255
2023-03-15 15:52:26:353,-1.47481,2.0565,-9.44283,-12.0725,-8.76934,-19.0237
2023-03-15 15:52:26:363,-1.50074,2.13289,-9.53562,-12.0627,-8.77319,-19.0196
2023-03-15 15:52:26:373,-1.48915,2.18196,-9.63492,-12.0422,-8.75304,-19.0118
2023-03-15 15:52:26:383,-1.45191,1.97525,-9.36154,-12.0029,-8.73766,-19.0027
2023-03-15 15:52:26:393,-1.44181,1.88678,-9.23217,-11.9678,-8.73908,-18.9937
2023-03-15 15:52:26:403,-1.49032,1.97923,-9.3532,-11.9575,-8.7431,-18.9771
2023-03-15 15:52:26:413,-1.50907,2.01621,-9.41089,-11.9626,-8.74786,-18.9636
2023-03-15 15:52:26:423,-1.49536,2.01108,-9.42067,-11.969,-8.76148,-18.9575
2023-03-15 15:52:26:433,-1.52856,2.05398,-9.46956,-11.9766,-8.76788,-18.9508
2023-03-15 15:52:26:443,-1.54833,2.1234,-9.57301,-11.9791,-8.77347,-18.9452
2023-03-15 15:52:26:453,-1.50705,2.11221,-9.60235,-11.9659,-8.75987,-18.9427
2023-03-15 15:52:26:463,-1.47843,1.95443,-9.38786,-11.9369,-8.75215,-18.9432
2023-03-15 15:52:26:473,-1.47999,1.94134,-9.34793,-11.9147,-8.75406,-18.9423
2023-03-15 15:52:26:483,-1.49374,1.98713,-9.41952,-11.9051,-8.76025,-18.9422
2023-03-15 15:52:26:493,-1.47983,1.99696,-9.44389,-11.902,-8.77079,-18.9496
2023-03-15 15:52:26:503,-1.46305,2.01476,-9.46559,-11.8982,-8.77533,-18.9547
2023-03-15 15:52:26:513,-1.46875,1.9855,-9.44492,-11.8912,-8.7868,-18.9542
2023-03-15 15:52:26:523,-1.45271,1.96714,-9.43477,-11.8792,-8.79289,-18.9571
2023-03-15 15:52:26:533,-1.45809,1.96513,-9.43512,-11.8692,-8.7939,-18.9584
2023-03-15 15:52:26:543,-1.46152,1.98573,-9.45661,-11.8616,-8.79573,-18.9546
2023-03-15 15:52:26:553,-1.47947,1.9986,-9.48148,-11.8541,-8.7929,-18.9525
2023-03-15 15:52:26:563,-1.45946,1.97883,-9.46739,-11.8404,-8.78914,-18.9532
2023-03-15 15:52:26:573,-1.44457,1.95991,-9.4276,-11.8241,-8.78661,-18.948
2023-03-15 15:52:26:583,-1.43303,1.94197,-9.4153,-11.8046,-8.78429,-18.9468
2023-03-15 15:52:26:593,-1.44206,1.95825,-9.42526,-11.7948,-8.78277,-18.9383
2023-03-15 15:52:26:603,-1.45405,1.97508,-9.44559,-11.7909,-8.78219,-18.9282
2023-03-15 15:52:26:613,-1.46404,1.99603,-9.44113,-11.785,-8.78079,-18.9218
2023-03-15 15:52:26:623,-1.46788,1.98646,-9.42417,-11.7794,-8.78063,-18.9166
2023-03-15 15:52:26:633,-1.48196,1.96401,-9.44395,-11.7764,-8.78176,-18.908
2023-03-15 15:52:26:643,-1.49335,1.96371,-9.45227,-11.7741,-8.78229,-18.8981
2023-03-15 15:52:26:653,-1.49115,1.96721,-9.45555,-11.7737,-8.7822,-18.8881
2023-03-15 15:52:26:663,-1.49927,1.96277,-9.4483,-11.7722,-8.7842,-18.8789
2023-03-15 15:52:26:673,-1.51402,1.96443,-9.42934,-11.7749,-8.78745,-18.866
2023-03-15 15:52:26:683,-1.51306,1.97758,-9.4299,-11.7774,-8.79074,-18.8601
2023-03-15 15:52:26:693,-1.50043,1.97371,-9.43236,-11.7801,-8.79027,-18.8571
2023-03-15 15:52:26:703,-1.48832,1.9557,-9.41958,-11.7818,-8.79147,-18.853
2023-03-15 15:52:26:713,-1.48956,1.95574,-9.42418,-11.7838,-8.79364,-18.8513
2023-03-15 15:52:26:723,-1.48914,1.94825,-9.45005,-11.7888,-8.79864,-18.8445
2023-03-15 15:52:26:733,-1.47732,1.96599,-9.47882,-11.793,-8.80212,-18.8426
2023-03-15 15:52:26:743,-1.44091,1.98001,-9.50394,-11.7986,-8.80558,-18.8421
2023-03-15 15:52:26:753,-1.40059,1.97198,-9.50668,-11.7969,-8.81016,-18.8403
2023-03-15 15:52:26:763,-1.41187,1.96213,-9.47356,-11.7993,-8.81183,-18.8396
2023-03-15 15:52:26:773,-1.45814,1.95597,-9.44943,-11.8016,-8.81942,-18.8323
2023-03-15 15:52:26:783,-1.48099,1.98782,-9.44505,-11.807,-8.82618,-18.8243
2023-03-15 15:52:26:793,-1.49818,2.02703,-9.4738,-11.8147,-8.83239,-18.8115
2023-03-15 15:52:26:803,-1.51956,2.04575,-9.47829,-11.8183,-8.83448,-18.7991
2023-03-15 15:52:26:813,-1.53178,2.06286,-9.46259,-11.8232,-8.83111,-18.7867
2023-03-15 15:52:26:823,-1.53954,2.05781,-9.44017,-11.8293,-8.83099,-18.7769
2023-03-15 15:52:26:833,-1.54384,2.04005,-9.41585,-11.829,-8.83275,-18.7707
2023-03-15 15:52:26:843,-1.54509,2.03935,-9.40139,-11.8262,-8.83109,-18.7659
2023-03-15 15:52:26:853,-1.54778,2.03748,-9.37506,-11.8269,-8.82755,-18.7665
2023-03-15 15:52:26:863,-1.55364,2.00077,-9.37189,-11.8233,-8.82613,-18.7682
2023-03-15 15:52:26:873,-1.53647,1.97114,-9.37979,-11.8206,-8.82273,-18.7707
2023-03-15 15:52:26:883,-1.52368,1.97736,-9.37492,-11.8178,-8.81815,-18.7742
2023-03-15 15:52:26:893,-1.5055,1.9743,-9.38727,-11.8157,-8.81138,-18.7796
2023-03-15 15:52:26:903,-1.48661,1.98268,-9.41437,-11.8182,-8.80494,-18.7882
2023-03-15 15:52:26:913,-1.46925,1.99606,-9.43759,-11.824,-8.79865,-18.7937
2023-03-15 15:52:26:923,-1.44909,2.02442,-9.46204,-11.8371,-8.79458,-18.8034
2023-03-15 15:52:26:933,-1.43721,2.05423,-9.48358,-11.8485,-8.78995,-18.8138
2023-03-15 15:52:26:943,-1.43883,2.05374,-9.49581,-11.8674,-8.78409,-18.8212
2023-03-15 15:52:26:953,-1.43963,2.07229,-9.51229,-11.8835,-8.77979,-18.8254
2023-03-15 15:52:26:963,-1.46355,2.08532,-9.49523,-11.8959,-8.77738,-18.8308
2023-03-15 15:52:26:973,-1.48801,2.07385,-9.4851,-11.9024,-8.77513,-18.8358
2023-03-15 15:52:26:983,-1.44853,2.07844,-9.51475,-11.9107,-8.77138,-18.8415
2023-03-15 15:52:26:993,-1.40544,2.07676,-9.48589,-11.9129,-8.76492,-18.8462
2023-03-15 15:52:27:3,-1.41985,2.04263,-9.46154,-11.9111,-8.76258,-18.8497
2023-03-15 15:52:27:13,-1.44487,2.02626,-9.43231,-11.9101,-8.7632,-18.8486
2023-03-15 15:52:27:23,-1.46111,2.02649,-9.4427,-11.906,-8.76514,-18.8493
2023-03-15 15:52:27:33,-1.46817,2.03851,-9.4637,-11.9071,-8.7672,-18.8481
2023-03-15 15:52:27:43,-1.45575,2.03902,-9.48031,-11.9061,-8.77024,-18.8484
2023-03-15 15:52:27:53,-1.44433,2.04496,-9.48509,-11.9027,-8.77307,-18.8472
2023-03-15 15:52:27:63,-1.45304,2.02855,-9.48139,-11.8987,-8.77052,-18.8467
2023-03-15 15:52:27:73,-1.47185,2.02202,-9.48482,-11.8966,-8.77277,-18.8441
2023-03-15 15:52:27:83,-1.46663,2.02267,-9.46369,-11.8957,-8.77672,-18.8403
2023-03-15 15:52:27:93,-1.46541,2.01511,-9.43526,-11.8898,-8.77914,-18.8383
2023-03-15 15:52:27:103,-1.46687,1.99543,-9.4099,-11.886,-8.78493,-18.8357
2023-03-15 15:52:27:113,-1.47339,1.97373,-9.3965,-11.8777,-8.78734,-18.8338
2023-03-15 15:52:27:123,-1.48046,1.97834,-9.39044,-11.8704,-8.79048,-18.8285
2023-03-15 15:52:27:133,-1.48941,1.97128,-9.39023,-11.8636,-8.79597,-18.8214
2023-03-15 15:52:27:143,-1.49495,1.98395,-9.39982,-11.8608,-8.80292,-18.8155
2023-03-15 15:52:27:153,-1.49796,1.98609,-9.39208,-11.8597,-8.80798,-18.8079
2023-03-15 15:52:27:163,-1.51704,1.98985,-9.40229,-11.8636,-8.81139,-18.7987
2023-03-15 15:52:27:173,-1.51579,2.00577,-9.42673,-11.8658,-8.81361,-18.7928
2023-03-15 15:52:27:183,-1.52534,2.02096,-9.43296,-11.8741,-8.81535,-18.7893
2023-03-15 15:52:27:193,-1.51432,2.02355,-9.42976,-11.8809,-8.81135,-18.7843
2023-03-15 15:52:27:203,-1.50988,2.02179,-9.44034,-11.8866,-8.81038,-18.778
2023-03-15 15:52:27:213,-1.50762,2.02994,-9.45412,-11.8967,-8.80957,-18.7767
2023-03-15 15:52:27:223,-1.51302,2.0396,-9.46921,-11.9065,-8.80811,-18.7756
2023-03-15 15:52:27:233,-1.52782,2.03886,-9.47068,-11.9114,-8.80854,-18.7746
2023-03-15 15:52:27:243,-1.54022,2.04046,-9.46073,-11.9157,-8.81095,-18.7733
2023-03-15 15:52:27:253,-1.52309,2.05659,-9.4795,-11.9188,-8.81009,-18.7763
2023-03-15 15:52:27:263,-1.51843,2.05659,-9.4905,-11.923,-8.80995,-18.7798
2023-03-15 15:52:27:273,-1.51677,2.05059,-9.48927,-11.9229,-8.80527,-18.7838
2023-03-15 15:52:27:283,-1.50849,2.05278,-9.4763,-11.9206,-8.80646,-18.7895
2023-03-15 15:52:27:293,-1.49217,2.03737,-9.45765,-11.9127,-8.80193,-18.7981
2023-03-15 15:52:27:303,-1.4794,2.02502,-9.44928,-11.9103,-8.80079,-18.8062
2023-03-15 15:52:27:313,-1.4649,2.01391,-9.45579,-11.9053,-8.79401,-18.8112
2023-03-15 15:52:27:323,-1.4722,2.01626,-9.46237,-11.9027,-8.78942,-18.814
2023-03-15 15:52:27:333,-1.46487,2.01387,-9.46163,-11.8968,-8.78172,-18.8206
2023-03-15 15:52:27:343,-1.45682,1.99985,-9.44014,-11.891,-8.77726,-18.8289
2023-03-15 15:52:27:353,-1.44345,1.9843,-9.43988,-11.8846,-8.77397,-18.8325
2023-03-15 15:52:27:363,-1.4369,1.97733,-9.44088,-11.8749,-8.76604,-18.8388
2023-03-15 15:52:27:373,-1.42721,1.9898,-9.42513,-11.8723,-8.76245,-18.8402
2023-03-15 15:52:27:383,-1.42899,1.99649,-9.41022,-11.8668,-8.75489,-18.8395
2023-03-15 15:52:27:393,-1.43724,1.98514,-9.41462,-11.8635,-8.75312,-18.838
2023-03-15 15:52:27:403,-1.43644,1.9911,-9.42116,-11.8676,-8.75021,-18.8328
2023-03-15 15:52:27:413,-1.4387,2.02005,-9.42964,-11.8691,-8.74839,-18.8279
2023-03-15 15:52:27:423,-1.46007,2.02659,-9.43334,-11.876,-8.74577,-18.8233
2023-03-15 15:52:27:433,-1.48087,2.04024,-9.45121,-11.8817,-8.74157,-18.8198
2023-03-15 15:52:27:443,-1.48329,2.03724,-9.45441,-11.8906,-8.73955,-18.8137
2023-03-15 15:52:27:453,-1.49582,2.02339,-9.4521,-11.8953,-8.73816,-18.8123
2023-03-15 15:52:27:463,-1.52064,2.03615,-9.44931,-11.9017,-8.73557,-18.8067
2023-03-15 15:52:27:473,-1.51509,2.06398,-9.45746,-11.9078,-8.73546,-18.804
2023-03-15 15:52:27:483,-1.48851,2.05507,-9.4818,-11.9091,-8.73494,-18.8093
2023-03-15 15:52:27:493,-1.47709,2.04797,-9.48765,-11.9093,-8.73188,-18.8143
2023-03-15 15:52:27:503,-1.46533,2.03962,-9.47028,-11.912,-8.72701,-18.8172
2023-03-15 15:52:27:513,-1.47301,2.02053,-9.48098,-11.9141,-8.72913,-18.8223
2023-03-15 15:52:27:523,-1.4785,2.03767,-9.50275,-11.917,-8.72806,-18.8294
2023-03-15 15:52:27:533,-1.45704,2.04671,-9.50716,-11.9139,-8.7266,-18.8371
2023-03-15 15:52:27:543,-1.41393,2.02674,-9.47927,-11.9064,-8.72139,-18.8461
2023-03-15 15:52:27:553,-1.40668,1.99327,-9.45297,-11.8989,-8.72424,-18.8496
2023-03-15 15:52:27:563,-1.43259,1.98423,-9.44957,-11.8937,-8.7282,-18.848
2023-03-15 15:52:27:573,-1.47655,2.02256,-9.44614,-11.8883,-8.7323,-18.8463
2023-03-15 15:52:27:583,-1.49872,2.04499,-9.45705,-11.8899,-8.73128,-18.844
2023-03-15 15:52:27:593,-1.49996,2.059,-9.4597,-11.8906,-8.72771,-18.8424
2023-03-15 15:52:27:603,-1.51002,2.06231,-9.44696,-11.8927,-8.72501,-18.8402
2023-03-15 15:52:27:613,-1.51607,2.06737,-9.42395,-11.8924,-8.71884,-18.8404
2023-03-15 15:52:27:623,-1.50538,2.0464,-9.39848,-11.8879,-8.71505,-18.8442
2023-03-15 15:52:27:633,-1.50457,2.03754,-9.39414,-11.8837,-8.71184,-18.8502
2023-03-15 15:52:27:643,-1.50822,2.03775,-9.38713,-11.8793,-8.70543,-18.8587
2023-03-15 15:52:27:653,-1.51182,2.01905,-9.39008,-11.8719,-8.6989,-18.8673
2023-03-15 15:52:27:663,-1.48784,2.00327,-9.39009,-11.8666,-8.69249,-18.8817
2023-03-15 15:52:27:673,-1.47121,2.01075,-9.38656,-11.8622,-8.68697,-18.894
2023-03-15 15:52:27:683,-1.44493,1.99444,-9.41386,-11.8598,-8.68026,-18.9077
2023-03-15 15:52:27:693,-1.42205,1.99375,-9.44225,-11.8592,-8.67137,-18.922
2023-03-15 15:52:27:703,-1.40309,1.99576,-9.45399,-11.8581,-8.66236,-18.9343
2023-03-15 15:52:27:713,-1.37196,2.00681,-9.47758,-11.8628,-8.65626,-18.9444
2023-03-15 15:52:27:723,-1.36223,2.02763,-9.49207,-11.8681,-8.64606,-18.9544
2023-03-15 15:52:27:733,-1.36484,2.03311,-9.50359,-11.8765,-8.63915,-18.9587
2023-03-15 15:52:27:743,-1.39691,2.05095,-9.50776,-11.8824,-8.63561,-18.958
2023-03-15 15:52:27:753,-1.44877,2.04762,-9.50906,-11.8865,-8.63141,-18.9572
2023-03-15 15:52:27:763,-1.44618,2.03756,-9.49378,-11.8941,-8.62719,-18.9579
2023-03-15 15:52:27:773,-1.39505,2.05587,-9.52363,-11.8969,-8.62013,-18.9619
2023-03-15 15:52:27:783,-1.36761,2.05582,-9.5218,-11.8971,-8.61862,-18.9649
2023-03-15 15:52:27:793,-1.38822,2.01707,-9.4822,-11.8887,-8.62147,-18.9651
2023-03-15 15:52:27:803,-1.42385,2.00529,-9.46935,-11.8761,-8.62261,-18.9642
2023-03-15 15:52:27:813,-1.45559,1.99466,-9.46394,-11.8644,-8.62636,-18.9597
2023-03-15 15:52:27:823,-1.45383,1.98948,-9.45865,-11.8499,-8.63105,-18.9615
2023-03-15 15:52:27:833,-1.45907,1.99101,-9.43653,-11.8396,-8.63382,-18.9618
2023-03-15 15:52:27:843,-1.469,1.98889,-9.43179,-11.831,-8.63391,-18.964
2023-03-15 15:52:27:853,-1.45421,1.98774,-9.4463,-11.8229,-8.63687,-18.9629
