Timestamp,Acceleration_x,Acceleration_y,Acceleration_z,roll,pitch,yaw
2023-03-14 18:25:26:455,-0.44008,2.59947,-9.42306,-15.2049,-2.96602,60.1223
2023-03-14 18:25:26:463,-0.439774,2.61018,-9.43781,-15.2277,-2.97337,60.125
2023-03-14 18:25:26:473,-0.470679,2.65902,-9.48634,-15.2517,-2.97892,60.1296
2023-03-14 18:25:26:483,-0.487155,2.70692,-9.53186,-15.2715,-2.98196,60.1328
2023-03-14 18:25:26:493,-0.490165,2.71381,-9.55345,-15.2813,-2.98194,60.1366
2023-03-14 18:25:26:503,-0.44595,2.67204,-9.5141,-15.2795,-2.98651,60.1394
2023-03-14 18:25:26:513,-0.449767,2.62265,-9.45197,-15.2757,-2.99169,60.1367
2023-03-14 18:25:26:523,-0.474735,2.58593,-9.39983,-15.2711,-2.99894,60.1394
2023-03-14 18:25:26:533,-0.465319,2.56699,-9.38246,-15.2685,-3.00742,60.1413
2023-03-14 18:25:26:543,-0.468025,2.57281,-9.40714,-15.2688,-3.01417,60.143
2023-03-14 18:25:26:553,-0.486652,2.56927,-9.43769,-15.2671,-3.01727,60.1475
2023-03-14 18:25:26:563,-0.467821,2.56218,-9.4643,-15.2662,-3.01999,60.1502
2023-03-14 18:25:26:573,-0.448405,2.57061,-9.46341,-15.2629,-3.02304,60.1525
2023-03-14 18:25:26:583,-0.450729,2.57054,-9.45137,-15.2632,-3.02799,60.157
2023-03-14 18:25:26:593,-0.458493,2.59067,-9.46227,-15.2645,-3.03421,60.1629
2023-03-14 18:25:26:603,-0.471225,2.58393,-9.47168,-15.2666,-3.04541,60.1718
2023-03-14 18:25:26:613,-0.507624,2.58089,-9.45878,-15.2705,-3.0568,60.181
2023-03-14 18:25:26:623,-0.541611,2.59567,-9.45274,-15.2768,-3.06988,60.1882
2023-03-14 18:25:26:633,-0.572272,2.61177,-9.44188,-15.281,-3.0869,60.1956
2023-03-14 18:25:26:643,-0.603066,2.63065,-9.44547,-15.2835,-3.10102,60.2017
2023-03-14 18:25:26:653,-0.598262,2.64564,-9.43561,-15.2849,-3.11574,60.2046
2023-03-14 18:25:26:663,-0.584316,2.63922,-9.43767,-15.2853,-3.12907,60.2058
2023-03-14 18:25:26:673,-0.574169,2.63456,-9.43945,-15.2838,-3.13987,60.2068
2023-03-14 18:25:26:683,-0.567542,2.64379,-9.43794,-15.28,-3.1479,60.2074
2023-03-14 18:25:26:693,-0.56449,2.6396,-9.41985,-15.2724,-3.15628,60.2059
2023-03-14 18:25:26:703,-0.564174,2.60072,-9.40985,-15.2621,-3.16601,60.2061
2023-03-14 18:25:26:713,-0.573814,2.58396,-9.37891,-15.2518,-3.17376,60.2069
2023-03-14 18:25:26:723,-0.585607,2.56899,-9.35469,-15.2494,-3.18149,60.2071
2023-03-14 18:25:26:733,-0.588661,2.574,-9.36068,-15.25,-3.18423,60.2046
2023-03-14 18:25:26:743,-0.591452,2.57657,-9.39987,-15.2534,-3.18628,60.2016
2023-03-14 18:25:26:753,-0.584998,2.59118,-9.43912,-15.2555,-3.18793,60.194
2023-03-14 18:25:26:763,-0.548555,2.60484,-9.4588,-15.2604,-3.19285,60.1851
2023-03-14 18:25:26:773,-0.530062,2.60814,-9.47898,-15.264,-3.19703,60.1763
2023-03-14 18:25:26:783,-0.520476,2.61986,-9.47784,-15.2695,-3.20136,60.1661
2023-03-14 18:25:26:793,-0.522616,2.63344,-9.47277,-15.2721,-3.20377,60.1581
2023-03-14 18:25:26:803,-0.530548,2.61743,-9.43836,-15.2701,-3.21713,60.1494
2023-03-14 18:25:26:813,-0.56749,2.60812,-9.41748,-15.2675,-3.22462,60.1455
2023-03-14 18:25:26:823,-0.594963,2.60845,-9.42353,-15.2665,-3.23255,60.1391
2023-03-14 18:25:26:833,-0.594212,2.60389,-9.424,-15.2604,-3.23475,60.1339
2023-03-14 18:25:26:843,-0.540883,2.60447,-9.44493,-15.2549,-3.23283,60.1216
2023-03-14 18:25:26:853,-0.478882,2.60254,-9.46918,-15.2472,-3.22729,60.1103
2023-03-14 18:25:26:863,-0.461695,2.5889,-9.46215,-15.2425,-3.2285,60.1022
2023-03-14 18:25:26:873,-0.477698,2.58754,-9.42984,-15.2327,-3.23349,60.0994
2023-03-14 18:25:26:883,-0.508254,2.58696,-9.42903,-15.2263,-3.2353,60.0994
2023-03-14 18:25:26:893,-0.510914,2.5724,-9.43144,-15.221,-3.23599,60.0959
2023-03-14 18:25:26:903,-0.50686,2.55823,-9.42782,-15.2174,-3.23773,60.0957
2023-03-14 18:25:26:913,-0.504796,2.56989,-9.43341,-15.22,-3.23562,60.1009
2023-03-14 18:25:26:923,-0.520716,2.58965,-9.45915,-15.221,-3.23729,60.106
2023-03-14 18:25:26:933,-0.55396,2.60621,-9.49289,-15.2203,-3.2443,60.111
2023-03-14 18:25:26:943,-0.573536,2.62787,-9.49003,-15.2177,-3.25292,60.1169
2023-03-14 18:25:26:953,-0.592393,2.62629,-9.48585,-15.214,-3.256,60.1179
2023-03-14 18:25:26:963,-0.600778,2.61709,-9.47403,-15.2042,-3.25996,60.1196
2023-03-14 18:25:26:973,-0.588012,2.5857,-9.43838,-15.1906,-3.26505,60.1195
2023-03-14 18:25:26:983,-0.558776,2.55832,-9.4129,-15.1771,-3.27089,60.1145
2023-03-14 18:25:26:993,-0.536261,2.51824,-9.40336,-15.1586,-3.27177,60.1107
2023-03-14 18:25:27:3,-0.506693,2.4825,-9.38336,-15.1427,-3.27591,60.1066
2023-03-14 18:25:27:13,-0.481695,2.45105,-9.36732,-15.1312,-3.28148,60.1028
2023-03-14 18:25:27:23,-0.443662,2.43451,-9.37201,-15.1248,-3.28705,60.1005
2023-03-14 18:25:27:33,-0.393918,2.41304,-9.36341,-15.1222,-3.2891,60.1037
2023-03-14 18:25:27:43,-0.362287,2.38881,-9.32604,-15.1251,-3.29467,60.1147
2023-03-14 18:25:27:53,-0.374286,2.39356,-9.30159,-15.1383,-3.29995,60.1344
2023-03-14 18:25:27:63,-0.419052,2.41382,-9.30189,-15.1623,-3.30676,60.1658
2023-03-14 18:25:27:73,-0.484206,2.46177,-9.3176,-15.1912,-3.31232,60.2002
2023-03-14 18:25:27:83,-0.514202,2.49788,-9.36356,-15.2263,-3.31499,60.2411
2023-03-14 18:25:27:93,-0.525512,2.49353,-9.39556,-15.2597,-3.31581,60.2823
2023-03-14 18:25:27:103,-0.53201,2.48428,-9.37953,-15.2967,-3.31688,60.3274
2023-03-14 18:25:27:113,-0.553974,2.48105,-9.36103,-15.3324,-3.31856,60.3761
2023-03-14 18:25:27:123,-0.544687,2.45632,-9.36612,-15.3733,-3.31575,60.4261
2023-03-14 18:25:27:133,-0.525963,2.45018,-9.36279,-15.4163,-3.31403,60.4781
2023-03-14 18:25:27:143,-0.514299,2.44383,-9.3559,-15.4642,-3.31383,60.5297
2023-03-14 18:25:27:153,-0.517693,2.45678,-9.38109,-15.5203,-3.3169,60.5875
2023-03-14 18:25:27:163,-0.544698,2.46088,-9.41905,-15.5904,-3.32907,60.6513
2023-03-14 18:25:27:173,-0.581678,2.50628,-9.47627,-15.6703,-3.34819,60.7152
2023-03-14 18:25:27:183,-0.675048,2.59977,-9.59304,-15.7499,-3.36956,60.7786
2023-03-14 18:25:27:193,-0.788261,2.68458,-9.68171,-15.8185,-3.3857,60.8378
2023-03-14 18:25:27:203,-0.879145,2.73099,-9.68701,-15.867,-3.38567,60.8879
2023-03-14 18:25:27:213,-0.922125,2.7601,-9.61123,-15.8919,-3.36688,60.9215
2023-03-14 18:25:27:223,-0.864458,2.70058,-9.44256,-15.891,-3.33411,60.931
2023-03-14 18:25:27:233,-0.729764,2.57995,-9.2197,-15.8829,-3.29461,60.9235
2023-03-14 18:25:27:243,-0.58065,2.50966,-9.08132,-15.8849,-3.24669,60.908
2023-03-14 18:25:27:253,-0.458473,2.54117,-9.10824,-15.906,-3.20112,60.8868
2023-03-14 18:25:27:263,-0.436841,2.70301,-9.2995,-15.9499,-3.16268,60.8649
2023-03-14 18:25:27:273,-0.452447,2.9244,-9.57231,-16.001,-3.1325,60.8466
2023-03-14 18:25:27:283,-0.50829,3.06764,-9.72819,-16.0408,-3.10864,60.8266
2023-03-14 18:25:27:293,-0.55056,3.10387,-9.71527,-16.0584,-3.08976,60.8013
2023-03-14 18:25:27:303,-0.560371,3.0922,-9.648,-16.0552,-3.07192,60.7667
2023-03-14 18:25:27:313,-0.542002,3.0505,-9.55749,-16.0328,-3.05177,60.7305
2023-03-14 18:25:27:323,-0.514947,2.94397,-9.3916,-16.002,-3.03266,60.6894
2023-03-14 18:25:27:333,-0.482078,2.82811,-9.20811,-15.9746,-3.02099,60.6452
2023-03-14 18:25:27:343,-0.456997,2.78006,-9.15238,-15.9589,-3.01411,60.6009
2023-03-14 18:25:27:353,-0.437656,2.81679,-9.19302,-15.9607,-3.01478,60.5541
2023-03-14 18:25:27:363,-0.42789,2.84577,-9.2504,-15.9738,-3.0223,60.5125
2023-03-14 18:25:27:373,-0.392464,2.82967,-9.29264,-15.993,-3.03361,60.4742
2023-03-14 18:25:27:383,-0.348626,2.8209,-9.32033,-16.0162,-3.04611,60.4408
2023-03-14 18:25:27:393,-0.317319,2.80527,-9.34176,-16.0379,-3.06761,60.4156
2023-03-14 18:25:27:403,-0.333956,2.76704,-9.30771,-16.0587,-3.09442,60.3973
2023-03-14 18:25:27:413,-0.361952,2.70018,-9.24427,-16.0818,-3.12416,60.3944
2023-03-14 18:25:27:423,-0.395975,2.63242,-9.18214,-16.1088,-3.14838,60.4043
2023-03-14 18:25:27:433,-0.415483,2.58665,-9.12839,-16.1475,-3.16895,60.4229
2023-03-14 18:25:27:443,-0.399679,2.52412,-9.0776,-16.1969,-3.18461,60.4467
2023-03-14 18:25:27:453,-0.390745,2.44205,-8.98176,-16.2606,-3.19712,60.4801
2023-03-14 18:25:27:463,-0.380467,2.36545,-8.86251,-16.3457,-3.20635,60.5189
2023-03-14 18:25:27:473,-0.380639,2.32046,-8.77123,-16.4588,-3.21637,60.5739
2023-03-14 18:25:27:483,-0.393158,2.3059,-8.72484,-16.6053,-3.22015,60.6405
2023-03-14 18:25:27:493,-0.405019,2.28426,-8.68209,-16.7823,-3.21618,60.7185
2023-03-14 18:25:27:503,-0.393997,2.27009,-8.64991,-16.9938,-3.20575,60.8109
2023-03-14 18:25:27:513,-0.357678,2.27176,-8.66458,-17.2318,-3.19102,60.9153
2023-03-14 18:25:27:523,-0.343307,2.33964,-8.73048,-17.5086,-3.17541,61.0284
2023-03-14 18:25:27:533,-0.362777,2.49171,-8.87591,-17.8162,-3.15717,61.1541
2023-03-14 18:25:27:543,-0.450379,2.66276,-9.02956,-18.1421,-3.14262,61.2881
2023-03-14 18:25:27:553,-0.530316,2.78693,-9.11984,-18.4693,-3.12294,61.4242
2023-03-14 18:25:27:563,-0.565553,2.87093,-9.19326,-18.7957,-3.09603,61.5562
2023-03-14 18:25:27:573,-0.574011,2.96631,-9.27838,-19.1223,-3.06044,61.6786
2023-03-14 18:25:27:583,-0.576479,3.09368,-9.35248,-19.45,-3.02141,61.7939
2023-03-14 18:25:27:593,-0.558237,3.2095,-9.41014,-19.7734,-2.98047,61.9001
2023-03-14 18:25:27:603,-0.525215,3.34282,-9.45384,-20.0908,-2.94248,61.9958
2023-03-14 18:25:27:613,-0.500477,3.4847,-9.43762,-20.3969,-2.914,62.0859
2023-03-14 18:25:27:623,-0.479991,3.57644,-9.37305,-20.6983,-2.89177,62.1635
2023-03-14 18:25:27:633,-0.473769,3.6208,-9.26564,-20.9848,-2.87833,62.2409
2023-03-14 18:25:27:643,-0.480823,3.67773,-9.20231,-21.2706,-2.87508,62.319
2023-03-14 18:25:27:653,-0.527627,3.79251,-9.23323,-21.5549,-2.87934,62.39
2023-03-14 18:25:27:663,-0.614791,3.95767,-9.31009,-21.8323,-2.89583,62.4596
2023-03-14 18:25:27:673,-0.708862,4.08671,-9.37136,-22.0949,-2.91933,62.5221
2023-03-14 18:25:27:683,-0.732733,4.13786,-9.36999,-22.3361,-2.94765,62.5708
2023-03-14 18:25:27:693,-0.701822,4.1551,-9.34029,-22.5537,-2.97453,62.606
2023-03-14 18:25:27:703,-0.646708,4.13273,-9.30187,-22.7491,-3.0102,62.6312
2023-03-14 18:25:27:713,-0.592274,4.07606,-9.22084,-22.9231,-3.04925,62.649
2023-03-14 18:25:27:723,-0.567484,4.02073,-9.09032,-23.095,-3.0886,62.6616
2023-03-14 18:25:27:733,-0.570939,3.98303,-8.97908,-23.2622,-3.13486,62.6767
2023-03-14 18:25:27:743,-0.603584,4.02125,-9.0105,-23.4384,-3.18656,62.696
2023-03-14 18:25:27:753,-0.691793,4.1833,-9.1671,-23.6211,-3.23691,62.7169
2023-03-14 18:25:27:763,-0.804634,4.33565,-9.31196,-23.7876,-3.28999,62.7413
2023-03-14 18:25:27:773,-0.897801,4.40396,-9.37869,-23.9289,-3.33484,62.7513
2023-03-14 18:25:27:783,-0.909436,4.40924,-9.35944,-24.0416,-3.36704,62.7455
2023-03-14 18:25:27:793,-0.845895,4.34518,-9.26004,-24.1271,-3.39024,62.7248
2023-03-14 18:25:27:803,-0.758511,4.24771,-9.12875,-24.1924,-3.4032,62.6963
2023-03-14 18:25:27:813,-0.675305,4.1358,-8.9872,-24.2504,-3.41157,62.6565
2023-03-14 18:25:27:823,-0.576144,4.05271,-8.88288,-24.309,-3.41462,62.6133
2023-03-14 18:25:27:833,-0.507319,4.0507,-8.8982,-24.3736,-3.42804,62.573
2023-03-14 18:25:27:843,-0.490724,4.12813,-9.00491,-24.4457,-3.44513,62.5328
2023-03-14 18:25:27:853,-0.546367,4.2311,-9.11245,-24.5112,-3.46823,62.5002
2023-03-14 18:25:27:863,-0.589959,4.30582,-9.19175,-24.563,-3.48465,62.4706
2023-03-14 18:25:27:873,-0.572052,4.29911,-9.17948,-24.5919,-3.49709,62.4335
2023-03-14 18:25:27:883,-0.523117,4.24362,-9.09036,-24.6037,-3.50805,62.4006
2023-03-14 18:25:27:893,-0.479712,4.18684,-9.04314,-24.6094,-3.51304,62.3644
2023-03-14 18:25:27:903,-0.495,4.23449,-9.06959,-24.6153,-3.52236,62.3395
2023-03-14 18:25:27:913,-0.52545,4.30927,-9.11104,-24.6126,-3.53471,62.3209
2023-03-14 18:25:27:923,-0.571629,4.37909,-9.13091,-24.6031,-3.54771,62.3051
2023-03-14 18:25:27:933,-0.620032,4.40063,-9.1211,-24.5779,-3.55974,62.2915
2023-03-14 18:25:27:943,-0.65265,4.3517,-9.07116,-24.5412,-3.57135,62.2777
2023-03-14 18:25:27:953,-0.663751,4.31122,-9.018,-24.4912,-3.58304,62.2651
2023-03-14 18:25:27:963,-0.684851,4.31456,-9.029,-24.439,-3.58992,62.2553
2023-03-14 18:25:27:973,-0.724004,4.32833,-9.09204,-24.3803,-3.59382,62.2424
2023-03-14 18:25:27:983,-0.797751,4.38222,-9.19997,-24.309,-3.60077,62.226
2023-03-14 18:25:27:993,-0.861986,4.44509,-9.26664,-24.2203,-3.60509,62.2018
2023-03-14 18:25:28:3,-0.885424,4.40981,-9.22451,-24.1098,-3.61209,62.1627
2023-03-14 18:25:28:13,-0.870318,4.29014,-9.09771,-23.9798,-3.61868,62.1141
2023-03-14 18:25:28:23,-0.81111,4.16809,-9.00236,-23.8405,-3.62146,62.0607
2023-03-14 18:25:28:33,-0.765494,4.12425,-8.97153,-23.7028,-3.62421,61.9976
2023-03-14 18:25:28:43,-0.739856,4.09793,-8.98595,-23.5648,-3.62925,61.9296
2023-03-14 18:25:28:53,-0.725229,4.08911,-9.03857,-23.4249,-3.63672,61.8541
2023-03-14 18:25:28:63,-0.690652,4.14361,-9.14681,-23.2813,-3.64483,61.7761
2023-03-14 18:25:28:73,-0.664084,4.22499,-9.2603,-23.1276,-3.64855,61.6943
2023-03-14 18:25:28:83,-0.667094,4.25648,-9.31488,-22.958,-3.65008,61.6138
2023-03-14 18:25:28:93,-0.668266,4.19152,-9.26651,-22.7631,-3.64286,61.5261
2023-03-14 18:25:28:103,-0.633357,4.03929,-9.14299,-22.5465,-3.63315,61.4375
2023-03-14 18:25:28:113,-0.580745,3.86482,-8.98254,-22.3219,-3.62006,61.3476
2023-03-14 18:25:28:123,-0.542823,3.69052,-8.85125,-22.1008,-3.60297,61.2586
2023-03-14 18:25:28:133,-0.51701,3.57889,-8.82563,-21.8881,-3.58648,61.1729
2023-03-14 18:25:28:143,-0.514176,3.56339,-8.90219,-21.6951,-3.57397,61.0952
2023-03-14 18:25:28:153,-0.544445,3.61016,-9.04177,-21.5162,-3.56821,61.0239
2023-03-14 18:25:28:163,-0.600036,3.70365,-9.14003,-21.3369,-3.57037,60.953
2023-03-14 18:25:28:173,-0.616373,3.69789,-9.15703,-21.1476,-3.5689,60.878
2023-03-14 18:25:28:183,-0.587057,3.59997,-9.06993,-20.9473,-3.56135,60.799
2023-03-14 18:25:28:193,-0.525612,3.42888,-8.93101,-20.743,-3.54394,60.7186
2023-03-14 18:25:28:203,-0.466096,3.24349,-8.81393,-20.5409,-3.5267,60.6408
2023-03-14 18:25:28:213,-0.422881,3.1424,-8.76477,-20.3625,-3.51027,60.5692
2023-03-14 18:25:28:223,-0.427792,3.13421,-8.81678,-20.2068,-3.49628,60.5097
2023-03-14 18:25:28:233,-0.467065,3.17416,-8.90608,-20.0701,-3.48503,60.4558
2023-03-14 18:25:28:243,-0.480981,3.18944,-8.97086,-19.9444,-3.47458,60.4074
2023-03-14 18:25:28:253,-0.476163,3.17993,-9.01338,-19.8302,-3.46684,60.3614
2023-03-14 18:25:28:263,-0.465576,3.14264,-9.01515,-19.7176,-3.45827,60.3185
2023-03-14 18:25:28:273,-0.447378,3.10871,-9.00826,-19.6117,-3.44823,60.2763
2023-03-14 18:25:28:283,-0.428781,3.07624,-8.98947,-19.5156,-3.43297,60.2448
2023-03-14 18:25:28:293,-0.422237,3.02899,-9.0035,-19.433,-3.41743,60.2197
2023-03-14 18:25:28:303,-0.398057,3.03063,-9.06187,-19.3672,-3.40825,60.2015
2023-03-14 18:25:28:313,-0.428926,3.06845,-9.1045,-19.3102,-3.40333,60.1922
2023-03-14 18:25:28:323,-0.487501,3.11703,-9.14277,-19.2611,-3.40014,60.1891
2023-03-14 18:25:28:333,-0.524441,3.13424,-9.19675,-19.2132,-3.39552,60.1872
2023-03-14 18:25:28:343,-0.553965,3.14412,-9.22239,-19.1664,-3.39563,60.1863
2023-03-14 18:25:28:353,-0.619973,3.14839,-9.21555,-19.1219,-3.39801,60.1851
2023-03-14 18:25:28:363,-0.712095,3.14525,-9.21223,-19.0757,-3.40044,60.1851
2023-03-14 18:25:28:373,-0.838864,3.18285,-9.21539,-19.0315,-3.40552,60.1767
2023-03-14 18:25:28:383,-0.959025,3.20844,-9.21711,-18.9864,-3.41175,60.1596
2023-03-14 18:25:28:393,-1.01565,3.18981,-9.17698,-18.9317,-3.42094,60.1204
2023-03-14 18:25:28:403,-0.969256,3.1194,-9.13029,-18.8784,-3.42954,60.0624
2023-03-14 18:25:28:413,-0.889107,3.05561,-9.10109,-18.8301,-3.4375,59.9829
2023-03-14 18:25:28:423,-0.804497,3.03113,-9.07784,-18.7902,-3.44966,59.8929
2023-03-14 18:25:28:433,-0.840587,3.03509,-9.0722,-18.7636,-3.46859,59.7927
2023-03-14 18:25:28:443,-1.09974,3.1139,-9.14943,-18.7467,-3.49021,59.6881
2023-03-14 18:25:28:453,-1.5174,3.26208,-9.27745,-18.7386,-3.51752,59.5722
2023-03-14 18:25:28:463,-1.99256,3.42954,-9.37713,-18.7234,-3.54922,59.4195
2023-03-14 18:25:28:473,-2.43226,3.59164,-9.40419,-18.6964,-3.59144,59.2063
2023-03-14 18:25:28:483,-2.57955,3.64059,-9.3887,-18.6467,-3.63953,58.8999
2023-03-14 18:25:28:493,-2.39555,3.56743,-9.34375,-18.5714,-3.69835,58.503
2023-03-14 18:25:28:503,-2.15474,3.41722,-9.25048,-18.479,-3.77239,58.028
2023-03-14 18:25:28:513,-2.23818,3.35402,-9.14517,-18.3893,-3.86066,57.4938
2023-03-14 18:25:28:523,-2.76,3.42867,-9.09344,-18.3084,-3.97397,56.8995
2023-03-14 18:25:28:533,-3.31465,3.65061,-9.16091,-18.2278,-4.10648,56.2131
2023-03-14 18:25:28:543,-3.46624,3.86057,-9.29875,-18.1319,-4.25604,55.3921
2023-03-14 18:25:28:553,-2.97728,3.86297,-9.37812,-18.0013,-4.41554,54.4268
2023-03-14 18:25:28:563,-2.11859,3.61282,-9.28593,-17.8403,-4.58406,53.3496
2023-03-14 18:25:28:573,-1.46899,3.33026,-9.12118,-17.662,-4.75878,52.2159
2023-03-14 18:25:28:583,-1.23033,3.12758,-8.93884,-17.4912,-4.94063,51.0616
2023-03-14 18:25:28:593,-1.35558,3.07508,-8.79955,-17.3457,-5.12567,49.8975
2023-03-14 18:25:28:603,-1.34887,3.12038,-8.81094,-17.216,-5.30676,48.7015
2023-03-14 18:25:28:613,-0.959499,3.1419,-8.94245,-17.1042,-5.47417,47.4696
2023-03-14 18:25:28:623,-0.305539,3.07044,-9.04565,-16.9869,-5.62045,46.224
2023-03-14 18:25:28:633,0.377175,2.90358,-9.03739,-16.8702,-5.7563,44.9932
2023-03-14 18:25:28:643,0.807771,2.70073,-8.96985,-16.7671,-5.89045,43.8188
2023-03-14 18:25:28:653,0.848692,2.65195,-8.93636,-16.6965,-6.03608,42.7205
2023-03-14 18:25:28:663,0.73778,2.741,-9.01477,-16.6568,-6.20038,41.6896
2023-03-14 18:25:28:673,0.764726,2.79783,-9.19454,-16.6392,-6.37915,40.715
2023-03-14 18:25:28:683,0.944928,2.82514,-9.37306,-16.6347,-6.56421,39.8063
2023-03-14 18:25:28:693,1.0668,2.84114,-9.53063,-16.6362,-6.74358,38.9775
2023-03-14 18:25:28:703,1.02727,2.87271,-9.66428,-16.6377,-6.91805,38.2435
2023-03-14 18:25:28:713,0.9184,2.90999,-9.77078,-16.6331,-7.07614,37.5957
2023-03-14 18:25:28:723,0.807692,2.90289,-9.77147,-16.6115,-7.21704,37.0369
2023-03-14 18:25:28:733,0.592132,2.8452,-9.69158,-16.5802,-7.33522,36.5656
2023-03-14 18:25:28:743,0.343671,2.81494,-9.58885,-16.5413,-7.43479,36.1752
2023-03-14 18:25:28:753,0.135269,2.80333,-9.51342,-16.5003,-7.50436,35.8617
2023-03-14 18:25:28:763,-0.00460634,2.77891,-9.47054,-16.4582,-7.55139,35.6146
2023-03-14 18:25:28:773,-0.164982,2.74691,-9.42204,-16.4185,-7.57602,35.4303
2023-03-14 18:25:28:783,-0.32443,2.69859,-9.32632,-16.3843,-7.58382,35.3018
2023-03-14 18:25:28:793,-0.477561,2.66757,-9.27489,-16.3583,-7.58301,35.2217
2023-03-14 18:25:28:803,-0.634817,2.69112,-9.26907,-16.3464,-7.5699,35.185
2023-03-14 18:25:28:813,-0.723062,2.69687,-9.28839,-16.3367,-7.54499,35.1794
2023-03-14 18:25:28:823,-0.802338,2.6962,-9.29714,-16.3324,-7.51202,35.2024
2023-03-14 18:25:28:833,-0.993638,2.72559,-9.30056,-16.334,-7.47617,35.2531
2023-03-14 18:25:28:843,-1.1876,2.77046,-9.31345,-16.3357,-7.43219,35.3148
2023-03-14 18:25:28:853,-1.22852,2.79564,-9.30089,-16.333,-7.38085,35.3759
2023-03-14 18:25:28:863,-1.11102,2.73996,-9.2607,-16.3279,-7.31841,35.4355
2023-03-14 18:25:28:873,-1.03575,2.65933,-9.19941,-16.3256,-7.253,35.5086
2023-03-14 18:25:28:883,-1.13727,2.63332,-9.14709,-16.3348,-7.18771,35.5956
2023-03-14 18:25:28:893,-1.24178,2.66098,-9.18298,-16.3526,-7.12407,35.6859
2023-03-14 18:25:28:903,-1.21129,2.695,-9.26243,-16.3708,-7.06528,35.7739
2023-03-14 18:25:28:913,-1.16581,2.71756,-9.2924,-16.3999,-7.01027,35.8597
2023-03-14 18:25:28:923,-1.08787,2.72711,-9.32774,-16.4306,-6.95838,35.9464
2023-03-14 18:25:28:933,-0.969894,2.73499,-9.37706,-16.4631,-6.91061,36.0387
2023-03-14 18:25:28:943,-0.892969,2.74193,-9.34443,-16.4886,-6.86191,36.1381
2023-03-14 18:25:28:953,-0.933801,2.72228,-9.28053,-16.5153,-6.81405,36.2536
2023-03-14 18:25:28:963,-0.999702,2.71684,-9.22366,-16.5472,-6.7626,36.3814
2023-03-14 18:25:28:973,-0.931425,2.68381,-9.17696,-16.5775,-6.70412,36.5099
2023-03-14 18:25:28:983,-0.822482,2.64213,-9.13909,-16.6163,-6.64468,36.6517
2023-03-14 18:25:28:993,-0.862457,2.64292,-9.12862,-16.6684,-6.58537,36.8112
2023-03-14 18:25:29:3,-1.00653,2.72356,-9.17394,-16.7328,-6.52897,36.9799
2023-03-14 18:25:29:13,-1.0764,2.79133,-9.23856,-16.8045,-6.47822,37.1572
2023-03-14 18:25:29:23,-1.12734,2.84683,-9.30575,-16.8803,-6.42103,37.3397
2023-03-14 18:25:29:33,-1.15071,2.89016,-9.35133,-16.9515,-6.3661,37.5197
2023-03-14 18:25:29:43,-1.15872,2.90617,-9.33315,-17.0208,-6.3108,37.6966
2023-03-14 18:25:29:53,-1.22659,2.92083,-9.30922,-17.0881,-6.2612,37.8711
2023-03-14 18:25:29:63,-1.25496,2.93771,-9.30228,-17.155,-6.21682,38.0357
2023-03-14 18:25:29:73,-1.19806,2.92229,-9.27788,-17.2224,-6.18005,38.1968
2023-03-14 18:25:29:83,-1.26627,2.94735,-9.26886,-17.2914,-6.14359,38.3508
2023-03-14 18:25:29:93,-1.38568,3.01507,-9.29513,-17.3611,-6.11045,38.4949
2023-03-14 18:25:29:103,-1.40202,3.04522,-9.30372,-17.4277,-6.0761,38.6227
2023-03-14 18:25:29:113,-1.3666,3.02348,-9.31818,-17.4863,-6.04465,38.732
2023-03-14 18:25:29:123,-1.34605,3.00409,-9.30718,-17.5431,-6.01931,38.8287
2023-03-14 18:25:29:133,-1.36291,2.99235,-9.28032,-17.5956,-6.00305,38.9096
2023-03-14 18:25:29:143,-1.44187,3.01291,-9.26118,-17.6491,-5.99301,38.9754
2023-03-14 18:25:29:153,-1.65065,3.06138,-9.28327,-17.7084,-5.99895,39.0197
2023-03-14 18:25:29:163,-1.90903,3.15501,-9.33225,-17.77,-6.01597,39.0392
2023-03-14 18:25:29:173,-2.1709,3.25885,-9.3974,-17.8192,-6.04058,39.0214
2023-03-14 18:25:29:183,-2.30409,3.31201,-9.42972,-17.8518,-6.07331,38.9521
2023-03-14 18:25:29:193,-2.2173,3.29593,-9.42023,-17.865,-6.10728,38.8179
2023-03-14 18:25:29:203,-1.99923,3.21429,-9.36456,-17.8623,-6.14386,38.6336
2023-03-14 18:25:29:213,-1.757,3.12672,-9.28711,-17.8452,-6.18051,38.4122
2023-03-14 18:25:29:223,-1.55032,3.02738,-9.19772,-17.823,-6.22008,38.1636
2023-03-14 18:25:29:233,-1.34589,2.95311,-9.12076,-17.8039,-6.26403,37.8994
2023-03-14 18:25:29:243,-1.15746,2.90883,-9.10432,-17.791,-6.31038,37.6265
2023-03-14 18:25:29:253,-1.06846,2.93413,-9.16429,-17.7855,-6.35875,37.3544
2023-03-14 18:25:29:263,-1.11364,3.01752,-9.24385,-17.7931,-6.401,37.0883
2023-03-14 18:25:29:273,-1.12891,3.09142,-9.34364,-17.7944,-6.43233,36.8169
2023-03-14 18:25:29:283,-0.978895,3.08368,-9.348,-17.7877,-6.45801,36.5475
2023-03-14 18:25:29:293,-0.779693,3.02117,-9.32591,-17.7711,-6.46712,36.2841
2023-03-14 18:25:29:303,-0.669158,2.98303,-9.27745,-17.7556,-6.46519,36.044
2023-03-14 18:25:29:313,-0.594607,2.96095,-9.2757,-17.7495,-6.46419,35.8262
2023-03-14 18:25:29:323,-0.458582,2.96682,-9.33306,-17.745,-6.4614,35.6298
2023-03-14 18:25:29:333,-0.34048,3.01713,-9.41659,-17.7485,-6.45785,35.467
2023-03-14 18:25:29:343,-0.371104,3.09059,-9.49455,-17.7542,-6.44507,35.342
2023-03-14 18:25:29:353,-0.489894,3.15023,-9.52964,-17.7498,-6.4289,35.2446
2023-03-14 18:25:29:363,-0.52792,3.11476,-9.45903,-17.7327,-6.40226,35.1773
2023-03-14 18:25:29:373,-0.481702,3.00083,-9.3183,-17.7058,-6.36458,35.1328
2023-03-14 18:25:29:383,-0.448957,2.92313,-9.2401,-17.6854,-6.31727,35.1184
2023-03-14 18:25:29:393,-0.412251,2.92098,-9.28105,-17.6766,-6.2688,35.1313
2023-03-14 18:25:29:403,-0.41648,2.97299,-9.39715,-17.6714,-6.21926,35.1734
2023-03-14 18:25:29:413,-0.435613,3.052,-9.5048,-17.6648,-6.17246,35.2413
2023-03-14 18:25:29:423,-0.455497,3.09965,-9.52049,-17.6454,-6.12354,35.3396
2023-03-14 18:25:29:433,-0.47191,3.08152,-9.44907,-17.6178,-6.0686,35.4576
2023-03-14 18:25:29:443,-0.425339,3.00808,-9.35821,-17.5855,-6.01219,35.5995
2023-03-14 18:25:29:453,-0.317087,2.97281,-9.32174,-17.5556,-5.94881,35.7673
2023-03-14 18:25:29:463,-0.165259,2.97447,-9.3446,-17.525,-5.87703,35.9657
2023-03-14 18:25:29:473,0.0332641,2.99201,-9.35917,-17.4928,-5.79762,36.1987
2023-03-14 18:25:29:483,0.250256,2.9624,-9.3944,-17.4641,-5.70667,36.478
2023-03-14 18:25:29:493,0.3409,2.95105,-9.45883,-17.4418,-5.60676,36.8175
2023-03-14 18:25:29:503,0.225588,3.04611,-9.49584,-17.4195,-5.48621,37.2245
2023-03-14 18:25:29:513,0.0687108,3.12344,-9.49103,-17.3921,-5.35079,37.6895
2023-03-14 18:25:29:523,0.0356464,3.1093,-9.47178,-17.3491,-5.19396,38.1987
2023-03-14 18:25:29:533,0.091691,3.04724,-9.39423,-17.2967,-5.0142,38.7555
2023-03-14 18:25:29:543,0.120054,2.97119,-9.29846,-17.2409,-4.81905,39.3566
2023-03-14 18:25:29:553,0.201171,2.92999,-9.25041,-17.1932,-4.62225,40.0029
2023-03-14 18:25:29:563,0.292205,2.94137,-9.29694,-17.157,-4.42445,40.7009
2023-03-14 18:25:29:573,0.225798,3.04595,-9.41283,-17.1305,-4.23138,41.4554
2023-03-14 18:25:29:583,0.0186409,3.19791,-9.49964,-17.1069,-4.04015,42.2542
2023-03-14 18:25:29:593,-0.198227,3.28182,-9.53294,-17.0733,-3.84679,43.0865
2023-03-14 18:25:29:603,-0.339938,3.29427,-9.51043,-17.0253,-3.64747,43.9413
2023-03-14 18:25:29:613,-0.377163,3.2696,-9.45383,-16.9591,-3.44781,44.8129
2023-03-14 18:25:29:623,-0.31211,3.19746,-9.38506,-16.8806,-3.24639,45.6922
2023-03-14 18:25:29:633,-0.236297,3.10478,-9.34716,-16.801,-3.05415,46.5891
2023-03-14 18:25:29:643,-0.291295,3.10446,-9.32345,-16.7255,-2.87978,47.5051
2023-03-14 18:25:29:653,-0.532732,3.19429,-9.34574,-16.6557,-2.72022,48.4311
2023-03-14 18:25:29:663,-0.852513,3.29965,-9.37718,-16.5868,-2.5772,49.3546
2023-03-14 18:25:29:673,-1.13648,3.32593,-9.38433,-16.5069,-2.44085,50.2591
2023-03-14 18:25:29:683,-1.28006,3.29875,-9.33506,-16.4131,-2.31524,51.1268
2023-03-14 18:25:29:693,-1.26431,3.21065,-9.30345,-16.3096,-2.19321,51.9512
2023-03-14 18:25:29:703,-1.14418,3.10316,-9.25556,-16.2028,-2.07876,52.7387
2023-03-14 18:25:29:713,-1.06171,3.01524,-9.21638,-16.0928,-1.98414,53.4882
2023-03-14 18:25:29:723,-1.03484,2.96144,-9.21817,-15.9937,-1.90757,54.2075
2023-03-14 18:25:29:733,-1.02087,2.96802,-9.29106,-15.9043,-1.85551,54.8947
2023-03-14 18:25:29:743,-1.0743,3.00456,-9.36381,-15.8179,-1.81354,55.5498
2023-03-14 18:25:29:753,-1.20355,3.01982,-9.38266,-15.7274,-1.78712,56.1678
2023-03-14 18:25:29:763,-1.29025,2.99454,-9.35055,-15.6329,-1.76836,56.7493
2023-03-14 18:25:29:773,-1.32663,2.92893,-9.30034,-15.5346,-1.75583,57.2848
2023-03-14 18:25:29:783,-1.29133,2.86464,-9.30103,-15.4378,-1.74844,57.7718
2023-03-14 18:25:29:793,-1.23345,2.80165,-9.28103,-15.3405,-1.74747,58.2139
2023-03-14 18:25:29:803,-1.16813,2.74079,-9.26509,-15.2499,-1.76194,58.6156
2023-03-14 18:25:29:813,-1.09741,2.7176,-9.30361,-15.1632,-1.78742,58.9786
2023-03-14 18:25:29:823,-1.04139,2.71385,-9.3347,-15.0841,-1.82003,59.3052
2023-03-14 18:25:29:833,-1.00027,2.68695,-9.34286,-15.0063,-1.8645,59.5986
2023-03-14 18:25:29:843,-0.972341,2.65084,-9.32747,-14.9327,-1.91679,59.8624
2023-03-14 18:25:29:853,-0.947962,2.61651,-9.32252,-14.8592,-1.97263,60.1019
2023-03-14 18:25:29:863,-0.947868,2.58086,-9.32835,-14.7884,-2.02671,60.3106
2023-03-14 18:25:29:873,-0.981195,2.55475,-9.34426,-14.7191,-2.07983,60.5003
2023-03-14 18:25:29:883,-1.00271,2.54461,-9.35802,-14.6526,-2.12488,60.666
2023-03-14 18:25:29:893,-0.971874,2.52464,-9.37115,-14.5864,-2.16709,60.8014
2023-03-14 18:25:29:903,-0.908218,2.49752,-9.3776,-14.5221,-2.20583,60.9138
2023-03-14 18:25:29:913,-0.84965,2.49441,-9.3993,-14.4617,-2.24225,61.0023
2023-03-14 18:25:29:923,-0.800017,2.48726,-9.42575,-14.4042,-2.28098,61.0747
2023-03-14 18:25:29:933,-0.737561,2.47143,-9.45514,-14.3447,-2.31985,61.1306
2023-03-14 18:25:29:943,-0.682335,2.44809,-9.47945,-14.285,-2.35649,61.1749
2023-03-14 18:25:29:953,-0.641375,2.42268,-9.4972,-14.2249,-2.39046,61.2088
2023-03-14 18:25:29:963,-0.602721,2.40208,-9.50807,-14.1612,-2.42339,61.2383
2023-03-14 18:25:29:973,-0.536432,2.38027,-9.50298,-14.098,-2.45056,61.2621
2023-03-14 18:25:29:983,-0.498366,2.34846,-9.49291,-14.0359,-2.48044,61.2817
2023-03-14 18:25:29:993,-0.494221,2.32979,-9.50268,-13.9719,-2.50623,61.3009
2023-03-14 18:25:30:3,-0.490154,2.32297,-9.49238,-13.9102,-2.52818,61.3231
2023-03-14 18:25:30:13,-0.479018,2.30029,-9.45059,-13.8482,-2.54773,61.3469
2023-03-14 18:25:30:23,-0.479725,2.27677,-9.41403,-13.7908,-2.56501,61.3681
2023-03-14 18:25:30:33,-0.483001,2.26794,-9.39399,-13.7372,-2.57885,61.3936
2023-03-14 18:25:30:43,-0.465176,2.2692,-9.40797,-13.6891,-2.58766,61.4204
2023-03-14 18:25:30:53,-0.465989,2.28539,-9.44993,-13.6445,-2.59644,61.4507
2023-03-14 18:25:30:63,-0.485541,2.30108,-9.49248,-13.5989,-2.60415,61.4862
2023-03-14 18:25:30:73,-0.530912,2.31364,-9.49443,-13.5535,-2.60905,61.5225
2023-03-14 18:25:30:83,-0.560249,2.30558,-9.48808,-13.5088,-2.60404,61.5593
2023-03-14 18:25:30:93,-0.562593,2.26459,-9.48014,-13.46,-2.59833,61.5981
2023-03-14 18:25:30:103,-0.557871,2.23868,-9.45076,-13.4134,-2.58867,61.6316
2023-03-14 18:25:30:113,-0.570371,2.21034,-9.43539,-13.3695,-2.57991,61.6645
2023-03-14 18:25:30:123,-0.57795,2.20015,-9.44679,-13.3274,-2.56259,61.6903
2023-03-14 18:25:30:133,-0.559601,2.18685,-9.45705,-13.2912,-2.55125,61.7136
2023-03-14 18:25:30:143,-0.533981,2.18173,-9.48797,-13.2617,-2.53988,61.7331
2023-03-14 18:25:30:153,-0.506203,2.20103,-9.52261,-13.2372,-2.53013,61.7493
2023-03-14 18:25:30:163,-0.47182,2.23941,-9.51682,-13.2112,-2.5285,61.7614
2023-03-14 18:25:30:173,-0.451116,2.2052,-9.46396,-13.1882,-2.5295,61.7723
2023-03-14 18:25:30:183,-0.474248,2.16756,-9.41549,-13.1651,-2.52981,61.7842
2023-03-14 18:25:30:193,-0.494737,2.15387,-9.3808,-13.1508,-2.53063,61.7991
2023-03-14 18:25:30:203,-0.504035,2.16698,-9.37549,-13.1419,-2.53502,61.8128
2023-03-14 18:25:30:213,-0.502764,2.18074,-9.39991,-13.1402,-2.53692,61.8258
2023-03-14 18:25:30:223,-0.498734,2.19156,-9.43231,-13.141,-2.53963,61.8386
2023-03-14 18:25:30:233,-0.496975,2.22042,-9.45333,-13.1449,-2.54639,61.8493
2023-03-14 18:25:30:243,-0.508746,2.24498,-9.46956,-13.1521,-2.55772,61.8592
2023-03-14 18:25:30:253,-0.537076,2.27599,-9.48931,-13.1673,-2.56986,61.8686
2023-03-14 18:25:30:263,-0.545826,2.30319,-9.48594,-13.1882,-2.58608,61.8762
2023-03-14 18:25:30:273,-0.562193,2.31615,-9.45882,-13.2115,-2.60075,61.882
2023-03-14 18:25:30:283,-0.569886,2.33124,-9.48624,-13.2411,-2.61578,61.8899
2023-03-14 18:25:30:293,-0.57367,2.36042,-9.52757,-13.2739,-2.62868,61.8984
2023-03-14 18:25:30:303,-0.597647,2.3841,-9.56396,-13.3043,-2.63483,61.9048
2023-03-14 18:25:30:313,-0.640231,2.40122,-9.5869,-13.3347,-2.63796,61.9106
2023-03-14 18:25:30:323,-0.65745,2.40765,-9.5943,-13.3589,-2.63289,61.9076
2023-03-14 18:25:30:333,-0.627752,2.38671,-9.59798,-13.3779,-2.62258,61.8976
2023-03-14 18:25:30:343,-0.549606,2.34534,-9.58244,-13.3985,-2.60343,61.8826
2023-03-14 18:25:30:353,-0.480638,2.3146,-9.5809,-13.414,-2.58145,61.8579
2023-03-14 18:25:30:363,-0.443831,2.28838,-9.57336,-13.4244,-2.5612,61.8335
2023-03-14 18:25:30:373,-0.424987,2.26694,-9.61938,-13.4347,-2.54602,61.8068
2023-03-14 18:25:30:383,-0.406502,2.27996,-9.7094,-13.4315,-2.52357,61.7727
2023-03-14 18:25:30:393,-0.384205,2.25079,-9.73067,-13.4122,-2.50476,61.7425
2023-03-14 18:25:30:403,-0.341023,2.15554,-9.69258,-13.3788,-2.48261,61.7102
2023-03-14 18:25:30:413,-0.305192,2.08641,-9.61421,-13.3412,-2.46404,61.6779
2023-03-14 18:25:30:423,-0.278617,2.03093,-9.49223,-13.298,-2.44884,61.6507
2023-03-14 18:25:30:433,-0.284058,2.01116,-9.37318,-13.2542,-2.43673,61.6238
2023-03-14 18:25:30:443,-0.317661,1.98361,-9.28521,-13.2174,-2.42797,61.6011
2023-03-14 18:25:30:453,-0.414576,1.94776,-9.26146,-13.1913,-2.42001,61.5862
2023-03-14 18:25:30:463,-0.521958,1.95637,-9.35355,-13.1745,-2.40493,61.5766
2023-03-14 18:25:30:473,-0.534711,2.05,-9.48868,-13.164,-2.38514,61.5623
2023-03-14 18:25:30:483,-0.486036,2.14228,-9.59475,-13.148,-2.3525,61.5365
2023-03-14 18:25:30:493,-0.390261,2.12479,-9.62261,-13.1169,-2.31311,61.5083
2023-03-14 18:25:30:503,-0.299705,2.06896,-9.54918,-13.0855,-2.27438,61.4868
2023-03-14 18:25:30:513,-0.253944,2.04917,-9.4576,-13.0555,-2.24363,61.467
2023-03-14 18:25:30:523,-0.300453,2.02974,-9.32336,-13.0399,-2.2284,61.4553
2023-03-14 18:25:30:533,-0.439495,2.022,-9.20728,-13.0384,-2.22592,61.4411
2023-03-14 18:25:30:543,-0.470485,2.04168,-9.14943,-13.0577,-2.22871,61.4263
2023-03-14 18:25:30:553,-0.435655,2.09183,-9.24881,-13.0917,-2.22195,61.4087
2023-03-14 18:25:30:563,-0.397174,2.19523,-9.41943,-13.1374,-2.20732,61.3926
2023-03-14 18:25:30:573,-0.364278,2.34843,-9.61775,-13.1843,-2.18455,61.3723
2023-03-14 18:25:30:583,-0.289775,2.38792,-9.6576,-13.2157,-2.16468,61.3504
2023-03-14 18:25:30:593,-0.213447,2.28276,-9.49442,-13.2401,-2.16157,61.331
2023-03-14 18:25:30:603,-0.308329,2.22439,-9.37587,-13.2728,-2.1671,61.3258
2023-03-14 18:25:30:613,-0.423434,2.2932,-9.40699,-13.3213,-2.17831,61.3281
2023-03-14 18:25:30:623,-0.460271,2.38284,-9.50744,-13.3711,-2.18955,61.3266
2023-03-14 18:25:30:633,-0.463962,2.4492,-9.6022,-13.4215,-2.19984,61.3237
2023-03-14 18:25:30:643,-0.476253,2.46161,-9.6458,-13.4576,-2.2052,61.3179
2023-03-14 18:25:30:653,-0.486057,2.43676,-9.65426,-13.4846,-2.20488,61.3067
2023-03-14 18:25:30:663,-0.412324,2.42618,-9.73125,-13.4988,-2.1897,61.2901
2023-03-14 18:25:30:673,-0.310446,2.3823,-9.75003,-13.4939,-2.17053,61.271
2023-03-14 18:25:30:683,-0.280012,2.30421,-9.68016,-13.4742,-2.15266,61.2502
2023-03-14 18:25:30:693,-0.284468,2.21178,-9.56572,-13.4499,-2.13902,61.2376
2023-03-14 18:25:30:703,-0.282858,2.15559,-9.48129,-13.4291,-2.12596,61.2212
2023-03-14 18:25:30:713,-0.271937,2.13548,-9.47051,-13.4179,-2.11796,61.2039
2023-03-14 18:25:30:723,-0.283359,2.11218,-9.44641,-13.4147,-2.12436,61.1907
2023-03-14 18:25:30:733,-0.287575,2.09457,-9.40019,-13.4276,-2.14018,61.1765
2023-03-14 18:25:30:743,-0.227019,2.13378,-9.45539,-13.4529,-2.15512,61.1645
2023-03-14 18:25:30:753,-0.301769,2.22984,-9.51003,-13.4888,-2.17975,61.1515
2023-03-14 18:25:30:763,-0.318036,2.2124,-9.50556,-13.5239,-2.21572,61.1319
2023-03-14 18:25:30:773,-0.190205,2.19852,-9.52369,-13.5619,-2.24693,61.1126
2023-03-14 18:25:30:783,-0.145353,2.25755,-9.57526,-13.596,-2.27461,61.0982
2023-03-14 18:25:30:793,-0.171801,2.24214,-9.57573,-13.6279,-2.31168,61.0849
2023-03-14 18:25:30:803,-0.115509,2.20097,-9.50193,-13.656,-2.36497,61.0763
2023-03-14 18:25:30:813,-0.0504244,2.17127,-9.45896,-13.6897,-2.42651,61.0713
2023-03-14 18:25:30:823,-0.0886426,2.18785,-9.46863,-13.7344,-2.49741,61.0796
2023-03-14 18:25:30:833,-0.149552,2.26456,-9.52883,-13.7799,-2.57337,61.105
2023-03-14 18:25:30:843,-0.246269,2.32949,-9.55559,-13.827,-2.6588,61.1382
2023-03-14 18:25:30:853,-0.352113,2.37403,-9.57313,-13.8688,-2.74626,61.1787
2023-03-14 18:25:30:863,-0.451587,2.45176,-9.59358,-13.905,-2.82652,61.2238
2023-03-14 18:25:30:873,-0.500014,2.49375,-9.61342,-13.9274,-2.89081,61.2712
2023-03-14 18:25:30:883,-0.515839,2.45032,-9.53861,-13.9381,-2.94254,61.3206
2023-03-14 18:25:30:893,-0.557341,2.40534,-9.42303,-13.9548,-2.9885,61.3689
2023-03-14 18:25:30:903,-0.584005,2.39708,-9.33766,-13.9773,-3.0299,61.4205
2023-03-14 18:25:30:913,-0.570166,2.39858,-9.29099,-14.0137,-3.0664,61.4656
2023-03-14 18:25:30:923,-0.509819,2.42829,-9.32885,-14.063,-3.09415,61.5091
2023-03-14 18:25:30:933,-0.476294,2.50441,-9.42982,-14.12,-3.11475,61.5475
2023-03-14 18:25:30:943,-0.468635,2.57604,-9.49794,-14.1754,-3.12715,61.5886
2023-03-14 18:25:30:953,-0.460193,2.624,-9.57837,-14.2252,-3.13495,61.6255
2023-03-14 18:25:30:963,-0.444499,2.65038,-9.6418,-14.2642,-3.13472,61.662
2023-03-14 18:25:30:973,-0.40688,2.62505,-9.60116,-14.2983,-3.13142,61.6983
2023-03-14 18:25:30:983,-0.387249,2.57759,-9.51949,-14.3233,-3.12763,61.7338
2023-03-14 18:25:30:993,-0.37479,2.55985,-9.50257,-14.3456,-3.12075,61.7727
2023-03-14 18:25:31:3,-0.387376,2.55292,-9.55784,-14.3676,-3.11336,61.8115
2023-03-14 18:25:31:13,-0.404905,2.57047,-9.64043,-14.3811,-3.10336,61.8517
2023-03-14 18:25:31:23,-0.394475,2.5518,-9.66066,-14.3806,-3.09484,61.8901
2023-03-14 18:25:31:33,-0.371485,2.51139,-9.64195,-14.3715,-3.09455,61.924
2023-03-14 18:25:31:43,-0.332486,2.46356,-9.65064,-14.3507,-3.09744,61.9561
2023-03-14 18:25:31:53,-0.330881,2.44389,-9.62337,-14.3215,-3.10703,61.9907
2023-03-14 18:25:31:63,-0.355735,2.3905,-9.53771,-14.2873,-3.12468,62.0285
2023-03-14 18:25:31:73,-0.396746,2.33877,-9.38291,-14.2524,-3.15343,62.0664
2023-03-14 18:25:31:83,-0.430789,2.27837,-9.24015,-14.227,-3.18941,62.1053
2023-03-14 18:25:31:93,-0.448753,2.25345,-9.1444,-14.222,-3.22677,62.146
2023-03-14 18:25:31:103,-0.504807,2.28585,-9.16102,-14.237,-3.27048,62.1872
2023-03-14 18:25:31:113,-0.568213,2.38585,-9.27707,-14.2699,-3.31849,62.23
2023-03-14 18:25:31:123,-0.61004,2.47977,-9.3848,-14.308,-3.37174,62.2755
2023-03-14 18:25:31:133,-0.643138,2.56388,-9.48389,-14.3453,-3.42481,62.3168
2023-03-14 18:25:31:143,-0.653236,2.59486,-9.56217,-14.3821,-3.47038,62.35
2023-03-14 18:25:31:153,-0.635233,2.60598,-9.57564,-14.4075,-3.51147,62.3767
2023-03-14 18:25:31:163,-0.567967,2.60329,-9.59588,-14.4174,-3.54353,62.3995
2023-03-14 18:25:31:173,-0.529869,2.55684,-9.53997,-14.4228,-3.56851,62.4219
2023-03-14 18:25:31:183,-0.510368,2.48473,-9.44316,-14.4202,-3.59357,62.4476
2023-03-14 18:25:31:193,-0.490951,2.43558,-9.40367,-14.4167,-3.60904,62.4744
2023-03-14 18:25:31:203,-0.477993,2.43116,-9.41669,-14.4203,-3.62477,62.5054
2023-03-14 18:25:31:213,-0.457532,2.43536,-9.47487,-14.4226,-3.63259,62.5421
2023-03-14 18:25:31:223,-0.459337,2.4875,-9.53395,-14.4343,-3.63906,62.5824
2023-03-14 18:25:31:233,-0.483726,2.55318,-9.61267,-14.4377,-3.63708,62.6266
2023-03-14 18:25:31:243,-0.478573,2.55367,-9.62157,-14.4362,-3.63074,62.6767
2023-03-14 18:25:31:253,-0.467191,2.49711,-9.54422,-14.4248,-3.62573,62.7269
2023-03-14 18:25:31:263,-0.494633,2.48711,-9.47774,-14.4148,-3.62466,62.7791
2023-03-14 18:25:31:273,-0.53581,2.49042,-9.46321,-14.4067,-3.62435,62.8415
2023-03-14 18:25:31:283,-0.576843,2.50176,-9.45578,-14.3985,-3.62258,62.8999
2023-03-14 18:25:31:293,-0.616696,2.53353,-9.52313,-14.3868,-3.61872,62.9574
2023-03-14 18:25:31:303,-0.648467,2.55898,-9.56698,-14.3709,-3.61226,63.0135
2023-03-14 18:25:31:313,-0.631771,2.55481,-9.55318,-14.35,-3.6087,63.0608
2023-03-14 18:25:31:323,-0.586111,2.50386,-9.46856,-14.3197,-3.60805,63.1
2023-03-14 18:25:31:333,-0.57714,2.42781,-9.35085,-14.2908,-3.61744,63.1383
2023-03-14 18:25:31:343,-0.582037,2.40234,-9.29491,-14.2697,-3.62928,63.1807
2023-03-14 18:25:31:353,-0.58469,2.37695,-9.26188,-14.2506,-3.63868,63.2244
2023-03-14 18:25:31:363,-0.543865,2.31144,-9.23325,-14.2445,-3.64594,63.2707
2023-03-14 18:25:31:373,-0.545391,2.30329,-9.22987,-14.2471,-3.65888,63.3245
2023-03-14 18:25:31:383,-0.628611,2.34796,-9.2763,-14.265,-3.67134,63.388
2023-03-14 18:25:31:393,-0.738995,2.38361,-9.32425,-14.2883,-3.6847,63.454
2023-03-14 18:25:31:403,-0.80182,2.4588,-9.38339,-14.3203,-3.69562,63.5181
2023-03-14 18:25:31:413,-0.84512,2.5182,-9.40247,-14.3519,-3.6922,63.5819
2023-03-14 18:25:31:423,-0.902458,2.53916,-9.38412,-14.382,-3.68379,63.6443
2023-03-14 18:25:31:433,-0.914421,2.55088,-9.37067,-14.4106,-3.66612,63.7001
2023-03-14 18:25:31:443,-0.891344,2.57582,-9.37193,-14.4425,-3.64711,63.7496
2023-03-14 18:25:31:453,-0.896589,2.59096,-9.38412,-14.4714,-3.61983,63.7924
2023-03-14 18:25:31:463,-0.893361,2.6427,-9.52464,-14.4914,-3.57393,63.8329
2023-03-14 18:25:31:473,-0.879491,2.60071,-9.512,-14.5066,-3.54631,63.8599
2023-03-14 18:25:31:483,-0.931195,2.55063,-9.46569,-14.5224,-3.53487,63.8762
2023-03-14 18:25:31:493,-0.92496,2.57437,-9.52706,-14.5444,-3.5302,63.8817
2023-03-14 18:25:31:503,-0.861912,2.56615,-9.54634,-14.5699,-3.53282,63.8752
2023-03-14 18:25:31:513,-0.870741,2.57114,-9.57257,-14.5901,-3.53581,63.8688
2023-03-14 18:25:31:523,-0.928752,2.57672,-9.63602,-14.6014,-3.53233,63.849
2023-03-14 18:25:31:533,-0.946884,2.52593,-9.63022,-14.601,-3.52928,63.8134
2023-03-14 18:25:31:543,-0.89503,2.4674,-9.57228,-14.5965,-3.52094,63.7643
2023-03-14 18:25:31:553,-0.838117,2.39459,-9.47415,-14.5904,-3.50821,63.7038
2023-03-14 18:25:31:563,-0.767264,2.34841,-9.43683,-14.5856,-3.49005,63.6334
2023-03-14 18:25:31:573,-0.666884,2.34965,-9.48918,-14.584,-3.46194,63.5513
2023-03-14 18:25:31:583,-0.597569,2.33619,-9.50274,-14.5857,-3.43682,63.4642
2023-03-14 18:25:31:593,-0.522169,2.37045,-9.53389,-14.5851,-3.40761,63.3752
2023-03-14 18:25:31:603,-0.461484,2.37067,-9.56114,-14.5755,-3.37285,63.2824
2023-03-14 18:25:31:613,-0.356868,2.24862,-9.44784,-14.5619,-3.34416,63.1898
2023-03-14 18:25:31:623,-0.300363,2.17265,-9.35269,-14.5606,-3.32571,63.1066
2023-03-14 18:25:31:633,-0.351421,2.23824,-9.33845,-14.5697,-3.30728,63.0312
2023-03-14 18:25:31:643,-0.470751,2.33621,-9.38371,-14.5892,-3.2816,62.9569
2023-03-14 18:25:31:653,-0.536721,2.40633,-9.4147,-14.6052,-3.25113,62.8793
2023-03-14 18:25:31:663,-0.480619,2.40333,-9.41145,-14.6162,-3.21514,62.7978
2023-03-14 18:25:31:673,-0.385633,2.37815,-9.36598,-14.6259,-3.17329,62.7151
2023-03-14 18:25:31:683,-0.34133,2.35638,-9.35416,-14.6425,-3.13368,62.6349
2023-03-14 18:25:31:693,-0.318724,2.3743,-9.37031,-14.6657,-3.09829,62.5635
2023-03-14 18:25:31:703,-0.294809,2.40064,-9.36663,-14.6962,-3.07135,62.4972
2023-03-14 18:25:31:713,-0.314578,2.4338,-9.36871,-14.7336,-3.05368,62.4431
2023-03-14 18:25:31:723,-0.422317,2.51985,-9.41143,-14.7792,-3.04246,62.3946
2023-03-14 18:25:31:733,-0.517645,2.62372,-9.48043,-14.8233,-3.04006,62.3532
2023-03-14 18:25:31:743,-0.522311,2.66816,-9.49805,-14.8618,-3.03629,62.31
2023-03-14 18:25:31:753,-0.520067,2.64986,-9.47112,-14.8915,-3.03227,62.2661
2023-03-14 18:25:31:763,-0.531776,2.62167,-9.41323,-14.9203,-3.02749,62.2275
2023-03-14 18:25:31:773,-0.503437,2.61995,-9.39948,-14.9519,-3.02813,62.1864
2023-03-14 18:25:31:783,-0.488904,2.64066,-9.40761,-14.9955,-3.03194,62.1525
2023-03-14 18:25:31:793,-0.482507,2.65394,-9.37991,-15.0358,-3.04474,62.1216
2023-03-14 18:25:31:803,-0.471712,2.64545,-9.32885,-15.0809,-3.066,62.0968
2023-03-14 18:25:31:813,-0.518917,2.62324,-9.33693,-15.1302,-3.09785,62.078
2023-03-14 18:25:31:823,-0.686893,2.67415,-9.39825,-15.1817,-3.13464,62.0715
2023-03-14 18:25:31:833,-0.827775,2.75411,-9.48036,-15.2325,-3.16724,62.0623
2023-03-14 18:25:31:843,-0.802215,2.79021,-9.56156,-15.2716,-3.18505,62.04
2023-03-14 18:25:31:853,-0.653963,2.79343,-9.59891,-15.3008,-3.19069,62.0042
2023-03-14 18:25:31:863,-0.514614,2.74599,-9.5223,-15.3155,-3.19576,61.9583
2023-03-14 18:25:31:873,-0.419334,2.67684,-9.39813,-15.3287,-3.19987,61.9138
2023-03-14 18:25:31:883,-0.304982,2.61551,-9.35406,-15.3412,-3.21008,61.8627
2023-03-14 18:25:31:893,-0.188531,2.56763,-9.34132,-15.3665,-3.23426,61.8192
2023-03-14 18:25:31:903,-0.135953,2.52262,-9.34927,-15.3987,-3.27179,61.7785
2023-03-14 18:25:31:913,-0.112775,2.51673,-9.39647,-15.4386,-3.32254,61.745
2023-03-14 18:25:31:923,-0.0976496,2.53455,-9.45734,-15.4848,-3.38283,61.7222
2023-03-14 18:25:31:933,-0.0626808,2.56267,-9.52309,-15.53,-3.44736,61.7089
2023-03-14 18:25:31:943,-0.0611999,2.54076,-9.54799,-15.57,-3.52397,61.7039
2023-03-14 18:25:31:953,-0.0834145,2.49514,-9.54567,-15.602,-3.60307,61.7108
2023-03-14 18:25:31:963,-0.115219,2.44074,-9.48711,-15.6296,-3.68842,61.7332
2023-03-14 18:25:31:973,-0.141026,2.37601,-9.39717,-15.6545,-3.77977,61.7705
2023-03-14 18:25:31:983,-0.143645,2.33716,-9.38258,-15.6915,-3.87559,61.8279
2023-03-14 18:25:31:993,-0.166155,2.36575,-9.40099,-15.732,-3.97114,61.9051
2023-03-14 18:25:32:3,-0.239728,2.43962,-9.43353,-15.775,-4.06789,62.0066
2023-03-14 18:25:32:13,-0.34705,2.46568,-9.42678,-15.8097,-4.16202,62.1251
2023-03-14 18:25:32:23,-0.45823,2.45046,-9.37855,-15.8435,-4.25311,62.2568
2023-03-14 18:25:32:33,-0.580251,2.44159,-9.3778,-15.8811,-4.34374,62.402
2023-03-14 18:25:32:43,-0.673716,2.54481,-9.52099,-15.9351,-4.43881,62.5503
2023-03-14 18:25:32:53,-0.624591,2.68883,-9.67463,-15.9762,-4.53249,62.6995
2023-03-14 18:25:32:63,-0.640048,2.67979,-9.61932,-15.9863,-4.62072,62.8505
2023-03-14 18:25:32:73,-0.938547,2.68704,-9.41279,-15.9944,-4.71814,63.0106
2023-03-14 18:25:32:83,-1.64008,3.10829,-9.69861,-16.0096,-4.76904,63.175
2023-03-14 18:25:32:93,-1.70252,2.99963,-9.57551,-16.0075,-4.89838,63.2863
2023-03-14 18:25:32:103,-1.39088,2.79807,-9.38655,-16.0034,-4.95187,63.3699
2023-03-14 18:25:32:113,-1.21067,2.84888,-9.55481,-15.9802,-4.97794,63.4459
2023-03-14 18:25:32:123,-1.20488,2.67236,-9.38705,-15.9472,-4.99752,63.5198
2023-03-14 18:25:32:133,-1.32135,2.65803,-9.34681,-15.9072,-4.99818,63.5839
2023-03-14 18:25:32:143,-1.31665,2.69664,-9.3305,-15.8683,-4.99019,63.6209
2023-03-14 18:25:32:153,-1.20059,2.69705,-9.28463,-15.8395,-4.97655,63.6451
2023-03-14 18:25:32:163,-1.14077,2.81663,-9.40589,-15.8176,-4.9475,63.6576
2023-03-14 18:25:32:173,-1.19302,2.90001,-9.53861,-15.7892,-4.89899,63.6554
2023-03-14 18:25:32:183,-1.11588,2.76647,-9.46579,-15.7436,-4.8558,63.6309
2023-03-14 18:25:32:193,-0.814669,2.53091,-9.30065,-15.6897,-4.81368,63.5871
2023-03-14 18:25:32:203,-0.649882,2.39953,-9.16156,-15.6493,-4.77571,63.5327
2023-03-14 18:25:32:213,-0.614469,2.31847,-9.04117,-15.6235,-4.75516,63.4723
2023-03-14 18:25:32:223,-0.542254,2.31765,-8.95427,-15.6218,-4.73599,63.4159
2023-03-14 18:25:32:233,-0.521208,2.46296,-9.05438,-15.6501,-4.71908,63.3624
2023-03-14 18:25:32:243,-0.452119,2.46129,-9.0874,-15.6943,-4.71135,63.3085
2023-03-14 18:25:32:253,-0.507113,2.38887,-9.01513,-15.7572,-4.71168,63.262
2023-03-14 18:25:32:263,-0.656411,2.35665,-9.03581,-15.841,-4.71546,63.2211
2023-03-14 18:25:32:273,-0.631243,2.29667,-9.1532,-15.9395,-4.72647,63.1827
2023-03-14 18:25:32:283,-0.619764,2.33496,-9.17859,-16.0489,-4.73829,63.1507
2023-03-14 18:25:32:293,-0.756548,2.32503,-9.10723,-16.1638,-4.76039,63.1124
2023-03-14 18:25:32:303,-0.844778,2.32054,-8.97913,-16.2919,-4.78952,63.067
2023-03-14 18:25:32:313,-0.867196,2.3708,-8.95634,-16.4403,-4.82307,63.0128
2023-03-14 18:25:32:323,-0.915751,2.47883,-8.97082,-16.6064,-4.85563,62.9523
2023-03-14 18:25:32:333,-0.890094,2.4116,-8.80795,-16.7786,-4.9026,62.882
2023-03-14 18:25:32:343,-0.8431,2.37836,-8.73445,-16.9861,-4.95905,62.8016
2023-03-14 18:25:32:353,-0.880733,2.552,-8.98131,-17.236,-5.04276,62.7186
2023-03-14 18:25:32:363,-0.966813,2.83706,-9.27895,-17.5002,-5.1425,62.642
2023-03-14 18:25:32:373,-1.23207,3.28836,-9.66533,-17.7673,-5.23266,62.5639
2023-03-14 18:25:32:383,-1.37654,3.57084,-9.88866,-18.0016,-5.31375,62.465
2023-03-14 18:25:32:393,-1.24942,3.56597,-9.84264,-18.1886,-5.37813,62.3436
2023-03-14 18:25:32:403,-1.04785,3.4804,-9.65969,-18.3411,-5.42114,62.2106
2023-03-14 18:25:32:413,-0.923047,3.33473,-9.51166,-18.4734,-5.45316,62.0804
2023-03-14 18:25:32:423,-0.845981,3.27811,-9.42632,-18.5979,-5.48906,61.963
2023-03-14 18:25:32:433,-0.881085,3.30518,-9.38601,-18.724,-5.52916,61.8546
2023-03-14 18:25:32:443,-1.02956,3.51286,-9.50723,-18.8505,-5.57655,61.7477
2023-03-14 18:25:32:453,-1.11132,3.63997,-9.58078,-18.9624,-5.6192,61.6333
2023-03-14 18:25:32:463,-1.08051,3.68118,-9.64364,-19.0529,-5.65369,61.5159
2023-03-14 18:25:32:473,-1.0163,3.58278,-9.5694,-19.1031,-5.67396,61.4
2023-03-14 18:25:32:483,-0.871177,3.29878,-9.31271,-19.1325,-5.68701,61.2859
2023-03-14 18:25:32:493,-0.858208,3.3032,-9.21905,-19.1738,-5.69221,61.1863
2023-03-14 18:25:32:503,-0.96076,3.54057,-9.36914,-19.2168,-5.69809,61.0978
2023-03-14 18:25:32:513,-0.974067,3.5533,-9.3414,-19.248,-5.70372,61.007
2023-03-14 18:25:32:523,-0.894008,3.43184,-9.22062,-19.269,-5.71278,60.917
2023-03-14 18:25:32:533,-0.73148,3.2823,-9.13003,-19.2895,-5.71523,60.8273
2023-03-14 18:25:32:543,-0.568106,3.19577,-9.11222,-19.3152,-5.70853,60.7539
2023-03-14 18:25:32:553,-0.714441,3.43458,-9.36453,-19.3484,-5.70576,60.6986
2023-03-14 18:25:32:563,-0.873778,3.62262,-9.57839,-19.3705,-5.70442,60.6511
2023-03-14 18:25:32:573,-0.881126,3.64973,-9.66934,-19.3681,-5.70178,60.6028
2023-03-14 18:25:32:583,-0.840058,3.58752,-9.64974,-19.3445,-5.70456,60.5552
2023-03-14 18:25:32:593,-0.881149,3.53278,-9.55214,-19.2995,-5.70622,60.5136
2023-03-14 18:25:32:603,-0.945328,3.46747,-9.41033,-19.2432,-5.71232,60.4761
2023-03-14 18:25:32:613,-1.03713,3.48626,-9.4106,-19.1753,-5.71179,60.4383
2023-03-14 18:25:32:623,-1.12958,3.49747,-9.44938,-19.0959,-5.71903,60.3946
2023-03-14 18:25:32:633,-1.14776,3.39754,-9.34993,-19.0086,-5.74043,60.3354
2023-03-14 18:25:32:643,-1.07764,3.41111,-9.36136,-18.9117,-5.75967,60.2658
2023-03-14 18:25:32:653,-1.014,3.3336,-9.29175,-18.801,-5.78266,60.191
2023-03-14 18:25:32:663,-1.00416,3.24467,-9.22162,-18.6937,-5.81737,60.1141
2023-03-14 18:25:32:673,-1.04065,3.25073,-9.23393,-18.5902,-5.86172,60.034
2023-03-14 18:25:32:683,-1.09344,3.22838,-9.28012,-18.485,-5.91089,59.9487
2023-03-14 18:25:32:693,-1.16259,3.22237,-9.33764,-18.3811,-5.96413,59.8647
2023-03-14 18:25:32:703,-1.32326,3.38055,-9.47375,-18.2719,-6.02045,59.7804
2023-03-14 18:25:32:713,-1.54465,3.44371,-9.48238,-18.1434,-6.08109,59.6809
2023-03-14 18:25:32:723,-1.60231,3.38426,-9.40276,-17.9971,-6.12634,59.5601
2023-03-14 18:25:32:733,-1.4179,3.26564,-9.28431,-17.838,-6.16751,59.4108
2023-03-14 18:25:32:743,-1.21081,3.19695,-9.20139,-17.671,-6.19653,59.2505
2023-03-14 18:25:32:753,-0.92763,3.02035,-9.15339,-17.5019,-6.22177,59.077
2023-03-14 18:25:32:763,-0.650956,3.02529,-9.23591,-17.3504,-6.24186,58.9177
2023-03-14 18:25:32:773,-0.521594,3.02984,-9.34847,-17.191,-6.25038,58.7775
2023-03-14 18:25:32:783,-0.371274,2.74603,-9.18354,-17.0316,-6.2588,58.6598
2023-03-14 18:25:32:793,-0.235733,2.74068,-9.23938,-16.8873,-6.24774,58.5748
2023-03-14 18:25:32:803,-0.303464,2.75167,-9.29724,-16.7419,-6.23028,58.5285
2023-03-14 18:25:32:813,-0.464086,2.74966,-9.24654,-16.6116,-6.21193,58.5115
2023-03-14 18:25:32:823,-0.557036,2.78475,-9.22464,-16.4889,-6.18462,58.5159
2023-03-14 18:25:32:833,-0.625868,2.68507,-9.1206,-16.3617,-6.14962,58.5383
2023-03-14 18:25:32:843,-0.713678,2.60651,-9.03156,-16.249,-6.11095,58.5778
2023-03-14 18:25:32:853,-0.675059,2.40498,-8.94914,-16.1441,-6.0739,58.6246
2023-03-14 18:25:32:863,-0.724866,2.41023,-9.01358,-16.0688,-6.04483,58.6953
2023-03-14 18:25:32:873,-1.09445,2.73729,-9.26587,-16.014,-6.02489,58.7792
2023-03-14 18:25:32:883,-1.20283,2.71332,-9.28036,-15.9442,-5.99969,58.8488
2023-03-14 18:25:32:893,-1.10522,2.53179,-9.16491,-15.8707,-5.96358,58.92
2023-03-14 18:25:32:903,-1.16417,2.44098,-9.03342,-15.8173,-5.93874,58.9884
2023-03-14 18:25:32:913,-1.20644,2.42965,-8.99413,-15.7863,-5.92065,59.0513
2023-03-14 18:25:32:923,-1.26563,2.49775,-9.08977,-15.7681,-5.9089,59.1119
2023-03-14 18:25:32:933,-1.39659,2.66285,-9.31493,-15.7616,-5.90199,59.1628
2023-03-14 18:25:32:943,-1.41851,2.69267,-9.43837,-15.7502,-5.89657,59.1926
2023-03-14 18:25:32:953,-1.40059,2.65663,-9.39464,-15.7299,-5.89098,59.2073
2023-03-14 18:25:32:963,-1.40743,2.73528,-9.39334,-15.7141,-5.88536,59.2062
2023-03-14 18:25:32:973,-1.26358,2.68739,-9.4049,-15.6864,-5.87314,59.1875
2023-03-14 18:25:32:983,-1.11095,2.63275,-9.37789,-15.6612,-5.85759,59.1654
2023-03-14 18:25:32:993,-1.06243,2.6499,-9.38197,-15.6296,-5.83269,59.1467
2023-03-14 18:25:33:3,-1.02479,2.63241,-9.36418,-15.5944,-5.8073,59.1282
2023-03-14 18:25:33:13,-0.966446,2.65068,-9.42088,-15.5682,-5.78662,59.1066
2023-03-14 18:25:33:23,-0.939357,2.67565,-9.48933,-15.5386,-5.77322,59.0875
2023-03-14 18:25:33:34,-1.02127,2.68187,-9.48867,-15.5077,-5.76869,59.0706
2023-03-14 18:25:33:43,-1.11228,2.77323,-9.57119,-15.4787,-5.77251,59.0521
2023-03-14 18:25:33:53,-1.16709,2.84685,-9.67844,-15.4379,-5.77717,59.0306
2023-03-14 18:25:33:63,-1.18814,2.81711,-9.64585,-15.3764,-5.77504,59.002
2023-03-14 18:25:33:73,-1.01809,2.69447,-9.53883,-15.2982,-5.75676,58.9655
2023-03-14 18:25:33:83,-0.837962,2.60944,-9.4941,-15.2151,-5.73282,58.926
2023-03-14 18:25:33:93,-0.775423,2.59204,-9.44663,-15.134,-5.71117,58.8905
2023-03-14 18:25:33:103,-0.803646,2.61442,-9.36001,-15.0603,-5.69514,58.8621
2023-03-14 18:25:33:113,-0.730396,2.56638,-9.30454,-14.9809,-5.67588,58.8324
2023-03-14 18:25:33:123,-0.579689,2.33172,-9.19926,-14.9032,-5.66441,58.8091
2023-03-14 18:25:33:133,-0.570166,2.23603,-9.13356,-14.8395,-5.6609,58.7958
2023-03-14 18:25:33:143,-0.639909,2.20555,-9.16189,-14.7923,-5.66552,58.788
2023-03-14 18:25:33:153,-0.66516,2.25688,-9.3035,-14.7569,-5.67757,58.7842
2023-03-14 18:25:33:163,-0.620044,2.26862,-9.43647,-14.7212,-5.69631,58.7838
2023-03-14 18:25:33:173,-0.662628,2.28233,-9.49567,-14.6923,-5.72538,58.787
2023-03-14 18:25:33:183,-0.727124,2.37681,-9.58003,-14.6649,-5.75935,58.7967
2023-03-14 18:25:33:193,-0.809616,2.38674,-9.55675,-14.6293,-5.79616,58.809
2023-03-14 18:25:33:203,-0.957943,2.38166,-9.51962,-14.5908,-5.84084,58.8283
2023-03-14 18:25:33:213,-1.06932,2.47138,-9.57394,-14.5471,-5.87294,58.8502
2023-03-14 18:25:33:223,-1.08103,2.36158,-9.49714,-14.4929,-5.91157,58.8681
2023-03-14 18:25:33:233,-1.13564,2.39687,-9.52288,-14.4525,-5.95719,58.8883
2023-03-14 18:25:33:243,-1.26947,2.58746,-9.63613,-14.4144,-6.00413,58.909
2023-03-14 18:25:33:253,-1.31894,2.52769,-9.56634,-14.3554,-6.05017,58.922
2023-03-14 18:25:33:263,-1.28735,2.46947,-9.50875,-14.2934,-6.08821,58.9272
2023-03-14 18:25:33:273,-1.24464,2.53506,-9.55092,-14.2277,-6.12802,58.9238
2023-03-14 18:25:33:283,-1.12974,2.52758,-9.56142,-14.151,-6.162,58.9131
2023-03-14 18:25:33:293,-1.03657,2.52532,-9.56903,-14.0731,-6.19078,58.9049
2023-03-14 18:25:33:303,-1.08529,2.46484,-9.47595,-13.9853,-6.21331,58.9023
2023-03-14 18:25:33:313,-1.1382,2.35729,-9.32439,-13.9008,-6.23147,58.9019
2023-03-14 18:25:33:323,-1.17503,2.30641,-9.23569,-13.8163,-6.24467,58.9084
2023-03-14 18:25:33:333,-1.15675,2.20192,-9.16728,-13.7386,-6.24402,58.9144
2023-03-14 18:25:33:343,-1.13709,2.21768,-9.19312,-13.6774,-6.23548,58.9214
2023-03-14 18:25:33:353,-1.15663,2.24989,-9.23123,-13.6259,-6.22439,58.927
2023-03-14 18:25:33:363,-1.11127,2.18393,-9.23155,-13.5837,-6.21038,58.9302
2023-03-14 18:25:33:373,-1.05292,2.1392,-9.25498,-13.5554,-6.19417,58.9324
2023-03-14 18:25:33:383,-1.04674,2.22691,-9.36829,-13.544,-6.17837,58.9336
2023-03-14 18:25:33:393,-0.980006,2.28587,-9.44029,-13.5282,-6.1553,58.9297
2023-03-14 18:25:33:403,-0.921497,2.21779,-9.38392,-13.5098,-6.12529,58.9332
2023-03-14 18:25:33:413,-0.945974,2.19972,-9.30429,-13.4983,-6.0985,58.9416
2023-03-14 18:25:33:423,-0.936001,2.19094,-9.2679,-13.489,-6.07205,58.9499
2023-03-14 18:25:33:433,-0.763616,2.18151,-9.32565,-13.4942,-6.04596,58.955
2023-03-14 18:25:33:443,-0.685727,2.34243,-9.51377,-13.5122,-6.03565,58.9657
2023-03-14 18:25:33:453,-0.700303,2.39547,-9.56956,-13.5229,-6.03593,58.9842
2023-03-14 18:25:33:463,-0.761165,2.38001,-9.50246,-13.5297,-6.04028,59.0134
2023-03-14 18:25:33:473,-0.799857,2.36409,-9.48428,-13.533,-6.04062,59.0489
2023-03-14 18:25:33:483,-0.840107,2.30105,-9.45506,-13.5353,-6.04386,59.0932
2023-03-14 18:25:33:493,-0.862033,2.28897,-9.45039,-13.5437,-6.04604,59.1487
2023-03-14 18:25:33:503,-0.877988,2.30173,-9.52033,-13.5576,-6.04849,59.2014
2023-03-14 18:25:33:513,-0.907854,2.41102,-9.65073,-13.5704,-6.05848,59.2642
2023-03-14 18:25:33:523,-1.04392,2.49515,-9.73105,-13.5754,-6.07308,59.3288
2023-03-14 18:25:33:533,-1.17996,2.48647,-9.62296,-13.5634,-6.09118,59.3913
2023-03-14 18:25:33:543,-1.24232,2.43774,-9.51478,-13.5447,-6.11547,59.446
2023-03-14 18:25:33:553,-1.28796,2.4036,-9.4173,-13.5248,-6.13799,59.4951
2023-03-14 18:25:33:563,-1.32517,2.39708,-9.41899,-13.507,-6.16865,59.5394
2023-03-14 18:25:33:573,-1.3396,2.4191,-9.48234,-13.4891,-6.19955,59.5746
2023-03-14 18:25:33:583,-1.43072,2.5205,-9.62506,-13.4732,-6.23445,59.602
2023-03-14 18:25:33:593,-1.57165,2.57782,-9.68928,-13.4411,-6.26623,59.6188
2023-03-14 18:25:33:603,-1.65449,2.49225,-9.55441,-13.3897,-6.296,59.6195
2023-03-14 18:25:33:613,-1.62616,2.36584,-9.44978,-13.3272,-6.31957,59.6036
2023-03-14 18:25:33:623,-1.46851,2.22582,-9.40211,-13.2627,-6.33821,59.5636
2023-03-14 18:25:33:633,-1.23787,2.08715,-9.35959,-13.1972,-6.35607,59.51
2023-03-14 18:25:33:643,-1.1826,2.03638,-9.34547,-13.1402,-6.36766,59.4599
2023-03-14 18:25:33:653,-1.29328,2.08123,-9.39665,-13.0922,-6.37805,59.4143
2023-03-14 18:25:33:663,-1.3228,2.12612,-9.47909,-13.0498,-6.3863,59.3598
2023-03-14 18:25:33:673,-1.23792,2.14575,-9.53648,-13.0089,-6.38973,59.2943
2023-03-14 18:25:33:683,-1.23561,2.26969,-9.62023,-12.9683,-6.38348,59.2309
2023-03-14 18:25:33:693,-1.21505,2.28809,-9.57573,-12.9169,-6.36907,59.1624
2023-03-14 18:25:33:703,-1.14787,2.24898,-9.47364,-12.8602,-6.34316,59.0901
2023-03-14 18:25:33:713,-1.01069,2.19998,-9.44204,-12.8008,-6.3093,59.021
2023-03-14 18:25:33:723,-0.865156,2.08459,-9.38171,-12.7381,-6.2701,58.9596
2023-03-14 18:25:33:733,-0.827637,2.03795,-9.37157,-12.6916,-6.23395,58.9091
2023-03-14 18:25:33:743,-0.807363,2.08721,-9.47095,-12.656,-6.20318,58.8687
2023-03-14 18:25:33:753,-0.743529,2.08165,-9.48994,-12.6223,-6.17148,58.8347
2023-03-14 18:25:33:763,-0.786322,2.16629,-9.55086,-12.5986,-6.14208,58.8128
2023-03-14 18:25:33:773,-0.826272,2.15089,-9.54955,-12.5621,-6.11297,58.7974
2023-03-14 18:25:33:783,-0.818341,2.08926,-9.48562,-12.5204,-6.0739,58.792
2023-03-14 18:25:33:793,-0.828685,2.02815,-9.43545,-12.4792,-6.03493,58.7893
2023-03-14 18:25:33:803,-0.780816,1.98118,-9.41754,-12.4382,-5.99083,58.7952
2023-03-14 18:25:33:813,-0.732786,1.94877,-9.42202,-12.4031,-5.94897,58.8035
2023-03-14 18:25:33:823,-0.692325,1.94547,-9.45692,-12.3846,-5.91891,58.8203
2023-03-14 18:25:33:833,-0.750336,2.02339,-9.54751,-12.3748,-5.90112,58.8417
2023-03-14 18:25:33:843,-0.817759,2.1244,-9.59617,-12.3645,-5.89183,58.8631
2023-03-14 18:25:33:853,-0.808122,2.04528,-9.51245,-12.3465,-5.88572,58.8874
2023-03-14 18:25:33:863,-0.787755,2.00437,-9.43414,-12.336,-5.88249,58.9193
2023-03-14 18:25:33:873,-0.891541,2.01697,-9.38467,-12.3341,-5.88701,58.9535
2023-03-14 18:25:33:883,-0.917802,2.05604,-9.40066,-12.3391,-5.89512,58.9868
2023-03-14 18:25:33:893,-0.788851,2.089,-9.47951,-12.3435,-5.89993,59.0194
2023-03-14 18:25:33:903,-0.804041,2.11681,-9.54149,-12.3484,-5.91163,59.0595
2023-03-14 18:25:33:914,-0.893558,2.12217,-9.55861,-12.3504,-5.9278,59.1029
2023-03-14 18:25:33:923,-0.913518,2.12165,-9.573,-12.3522,-5.94799,59.147
2023-03-14 18:25:33:933,-1.02473,2.1485,-9.54658,-12.3488,-5.96807,59.1961
2023-03-14 18:25:33:943,-1.09878,2.10147,-9.50678,-12.3395,-5.99559,59.2421
2023-03-14 18:25:33:953,-1.132,2.11314,-9.52053,-12.3331,-6.02667,59.2894
2023-03-14 18:25:33:963,-1.20865,2.08157,-9.48289,-12.3237,-6.05797,59.3294
2023-03-14 18:25:33:973,-1.29249,2.1041,-9.4779,-12.323,-6.09355,59.3659
2023-03-14 18:25:33:983,-1.40714,2.21142,-9.55694,-12.3211,-6.12929,59.3957
2023-03-14 18:25:33:993,-1.49713,2.25971,-9.57046,-12.3175,-6.16542,59.4147
2023-03-14 18:25:34:3,-1.45551,2.28959,-9.6263,-12.312,-6.19885,59.415
2023-03-14 18:25:34:13,-1.41732,2.2608,-9.63094,-12.2956,-6.22825,59.401
2023-03-14 18:25:34:23,-1.41955,2.18781,-9.59241,-12.2718,-6.26039,59.3782
2023-03-14 18:25:34:33,-1.38192,2.13916,-9.53607,-12.2435,-6.28218,59.3483
2023-03-14 18:25:34:43,-1.33585,2.07199,-9.50693,-12.2103,-6.30112,59.3132
2023-03-14 18:25:34:53,-1.34301,2.129,-9.54675,-12.1777,-6.31334,59.2661
2023-03-14 18:25:34:63,-1.29681,2.03568,-9.46707,-12.1389,-6.32417,59.2136
2023-03-14 18:25:34:73,-1.21925,1.91991,-9.41999,-12.1032,-6.32905,59.1591
2023-03-14 18:25:34:83,-1.20796,1.95441,-9.40746,-12.0753,-6.3298,59.1048
2023-03-14 18:25:34:93,-1.12623,1.94598,-9.41289,-12.0555,-6.32579,59.0478
2023-03-14 18:25:34:103,-1.06401,1.97662,-9.44583,-12.0384,-6.3145,58.991
2023-03-14 18:25:34:113,-1.05371,1.98244,-9.47072,-12.0213,-6.30105,58.9346
2023-03-14 18:25:34:123,-1.03275,2.03428,-9.50805,-12.0083,-6.28484,58.8803
2023-03-14 18:25:34:133,-1.01873,2.09332,-9.57519,-11.9979,-6.26868,58.8241
2023-03-14 18:25:34:143,-0.939357,2.04281,-9.49802,-11.976,-6.24112,58.7623
2023-03-14 18:25:34:153,-0.812023,1.98321,-9.44801,-11.9599,-6.20624,58.7117
2023-03-14 18:25:34:163,-0.731204,1.94115,-9.38615,-11.9472,-6.17779,58.6651
2023-03-14 18:25:34:173,-0.653496,1.93242,-9.37961,-11.9447,-6.15205,58.6252
2023-03-14 18:25:34:183,-0.632877,1.96503,-9.42544,-11.9529,-6.12776,58.5936
2023-03-14 18:25:34:193,-0.699248,2.04383,-9.53583,-11.9633,-6.11151,58.575
2023-03-14 18:25:34:203,-0.694341,2.03098,-9.56918,-11.9744,-6.09665,58.5631
2023-03-14 18:25:34:213,-0.724737,2.00307,-9.55947,-11.9911,-6.08256,58.5591
2023-03-14 18:25:34:223,-0.783858,1.99982,-9.52995,-12.0059,-6.07709,58.5637
2023-03-14 18:25:34:233,-0.834866,2.05794,-9.5383,-12.0302,-6.07902,58.5731
2023-03-14 18:25:34:243,-0.866374,2.07577,-9.54245,-12.0466,-6.08099,58.5937
2023-03-14 18:25:34:253,-0.930339,2.0471,-9.50358,-12.061,-6.08938,58.6123
2023-03-14 18:25:34:263,-0.97387,2.01287,-9.48096,-12.0794,-6.10068,58.6307
2023-03-14 18:25:34:273,-1.08589,2.06599,-9.4992,-12.0996,-6.11941,58.6414
2023-03-14 18:25:34:283,-1.17626,2.16025,-9.56894,-12.1211,-6.1402,58.6487
2023-03-14 18:25:34:293,-1.13569,2.21674,-9.65819,-12.1397,-6.16355,58.6495
2023-03-14 18:25:34:303,-1.01643,2.19507,-9.66825,-12.1486,-6.18257,58.6489
2023-03-14 18:25:34:313,-1.01554,2.16338,-9.64984,-12.1481,-6.20433,58.6563
2023-03-14 18:25:34:323,-1.04984,2.08301,-9.57117,-12.1437,-6.22469,58.6682
2023-03-14 18:25:34:333,-1.13016,2.09495,-9.53549,-12.147,-6.25066,58.6813
2023-03-14 18:25:34:343,-1.22995,2.13856,-9.55107,-12.1459,-6.27846,58.6898
2023-03-14 18:25:34:353,-1.23527,2.15743,-9.5468,-12.1466,-6.3015,58.6958
2023-03-14 18:25:34:363,-1.19057,2.10517,-9.51739,-12.1342,-6.31509,58.6996
2023-03-14 18:25:34:373,-1.13057,1.99592,-9.43395,-12.1237,-6.32494,58.705
2023-03-14 18:25:34:383,-1.16213,2.06838,-9.48633,-12.1213,-6.3299,58.7066
2023-03-14 18:25:34:393,-1.10867,2.11716,-9.54743,-12.1127,-6.33445,58.7056
2023-03-14 18:25:34:403,-0.951292,1.99615,-9.49832,-12.0981,-6.33086,58.7016
2023-03-14 18:25:34:413,-0.945341,2.06713,-9.53631,-12.096,-6.33565,58.7026
2023-03-14 18:25:34:423,-0.990544,2.16944,-9.60371,-12.0873,-6.3389,58.7067
2023-03-14 18:25:34:433,-1.00741,2.14172,-9.59016,-12.0731,-6.34312,58.7129
2023-03-14 18:25:34:443,-1.0373,2.11085,-9.55813,-12.0549,-6.34898,58.7213
2023-03-14 18:25:34:453,-1.02355,2.05384,-9.48795,-12.0331,-6.35655,58.7318
2023-03-14 18:25:34:463,-1.00758,2.0613,-9.50901,-12.0206,-6.36583,58.741
2023-03-14 18:25:34:473,-1.01537,2.05525,-9.50184,-12.0061,-6.3781,58.7519
2023-03-14 18:25:34:483,-1.02401,2.0274,-9.47523,-11.9911,-6.39466,58.7664
2023-03-14 18:25:34:493,-1.07607,2.04122,-9.4888,-11.9779,-6.41433,58.7824
2023-03-14 18:25:34:503,-1.09038,2.04637,-9.5062,-11.9697,-6.43333,58.8013
2023-03-14 18:25:34:513,-1.09171,2.06924,-9.51361,-11.9678,-6.45583,58.8244
2023-03-14 18:25:34:523,-1.17727,2.11156,-9.53135,-11.9608,-6.47758,58.8504
2023-03-14 18:25:34:533,-1.23952,2.09862,-9.53104,-11.9554,-6.49679,58.8739
2023-03-14 18:25:34:543,-1.24852,2.082,-9.54442,-11.9471,-6.5123,58.8996
2023-03-14 18:25:34:553,-1.22277,2.04558,-9.49646,-11.9355,-6.52388,58.9221
2023-03-14 18:25:34:563,-1.18909,1.9984,-9.44114,-11.9291,-6.53229,58.9462
2023-03-14 18:25:34:573,-1.1967,2.00537,-9.47332,-11.9243,-6.53951,58.9671
2023-03-14 18:25:34:583,-1.23689,2.09947,-9.56589,-11.9199,-6.54249,58.9934
2023-03-14 18:25:34:593,-1.33121,2.11832,-9.58074,-11.9104,-6.54871,59.0226
2023-03-14 18:25:34:603,-1.41288,2.09657,-9.54863,-11.8942,-6.55127,59.0501
2023-03-14 18:25:34:613,-1.44941,2.14475,-9.56625,-11.8868,-6.54776,59.0701
2023-03-14 18:25:34:623,-1.44082,2.11192,-9.56318,-11.8829,-6.54399,59.0807
2023-03-14 18:25:34:633,-1.36142,2.01042,-9.53663,-11.8795,-6.53651,59.0969
2023-03-14 18:25:34:643,-1.39391,1.98316,-9.5041,-11.8685,-6.5217,59.1124
2023-03-14 18:25:34:653,-1.48451,2.07181,-9.51115,-11.8715,-6.50318,59.1292
2023-03-14 18:25:34:663,-1.55582,2.18231,-9.53474,-11.8789,-6.48048,59.1352
2023-03-14 18:25:34:673,-1.53104,2.22389,-9.50867,-11.8888,-6.44079,59.1255
2023-03-14 18:25:34:683,-1.39894,2.19769,-9.50424,-11.907,-6.38089,59.0932
2023-03-14 18:25:34:693,-1.20534,2.16237,-9.49975,-11.9299,-6.30522,59.0562
2023-03-14 18:25:34:703,-0.968366,2.11429,-9.50133,-11.9464,-6.2263,59.0168
2023-03-14 18:25:34:713,-0.816191,2.08355,-9.48263,-11.9628,-6.14588,58.9816
2023-03-14 18:25:34:723,-0.746404,2.0867,-9.47283,-11.9835,-6.06626,58.9629
2023-03-14 18:25:34:733,-0.742503,2.12653,-9.46609,-12.003,-5.9898,58.9537
2023-03-14 18:25:34:743,-0.737634,2.15642,-9.45655,-12.0171,-5.9172,58.9602
2023-03-14 18:25:34:753,-0.665916,2.13546,-9.4662,-12.027,-5.84135,58.9724
2023-03-14 18:25:34:763,-0.576473,2.13114,-9.48018,-12.0331,-5.76642,58.993
2023-03-14 18:25:34:773,-0.534086,2.15133,-9.48446,-12.0345,-5.69102,59.019
2023-03-14 18:25:34:783,-0.550976,2.17831,-9.53863,-12.0394,-5.61399,59.0547
2023-03-14 18:25:34:793,-0.558352,2.233,-9.64206,-12.0418,-5.53913,59.0964
2023-03-14 18:25:34:803,-0.547663,2.26465,-9.72551,-12.0349,-5.46985,59.1469
2023-03-14 18:25:34:813,-0.513006,2.24303,-9.76682,-12.0112,-5.40684,59.2042
2023-03-14 18:25:34:823,-0.496763,2.17171,-9.77297,-11.9719,-5.35399,59.2695
2023-03-14 18:25:34:833,-0.508939,2.11055,-9.74137,-11.9181,-5.30753,59.3389
2023-03-14 18:25:34:843,-0.563641,2.0276,-9.69364,-11.8548,-5.26918,59.4184
2023-03-14 18:25:34:853,-0.640178,1.94138,-9.63154,-11.789,-5.24097,59.5048
2023-03-14 18:25:34:863,-0.728468,1.87556,-9.57526,-11.7208,-5.21722,59.5958
2023-03-14 18:25:34:873,-0.831589,1.84307,-9.5711,-11.6527,-5.20304,59.6865
2023-03-14 18:25:34:883,-0.926694,1.81983,-9.57519,-11.59,-5.18942,59.7771
2023-03-14 18:25:34:893,-0.991292,1.85543,-9.61292,-11.5298,-5.1716,59.8611
2023-03-14 18:25:34:903,-0.996351,1.93568,-9.66399,-11.4692,-5.14565,59.9336
2023-03-14 18:25:34:913,-0.984392,1.97026,-9.6707,-11.4011,-5.11767,59.9918
2023-03-14 18:25:34:923,-0.935574,1.94191,-9.60777,-11.3201,-5.08816,60.0343
2023-03-14 18:25:34:933,-0.876216,1.84227,-9.51659,-11.2364,-5.05959,60.0696
2023-03-14 18:25:34:943,-0.822435,1.7656,-9.40923,-11.1563,-5.03195,60.0927
2023-03-14 18:25:34:953,-0.779658,1.71022,-9.33717,-11.0909,-5.01018,60.1103
2023-03-14 18:25:34:963,-0.798713,1.70797,-9.30531,-11.0389,-4.99305,60.1213
2023-03-14 18:25:34:973,-0.811506,1.73249,-9.29645,-11.0057,-4.98438,60.1249
2023-03-14 18:25:34:983,-0.768482,1.74483,-9.31961,-10.9861,-4.98574,60.1256
2023-03-14 18:25:34:993,-0.720154,1.76702,-9.36664,-10.9777,-4.99223,60.114
2023-03-14 18:25:35:3,-0.582025,1.74386,-9.41503,-10.9782,-5.0103,60.1022
2023-03-14 18:25:35:13,-0.802583,1.92477,-9.57166,-10.9817,-5.04112,60.091
2023-03-14 18:25:35:23,-0.748595,1.83358,-9.55894,-10.9749,-5.08306,60.0493
2023-03-14 18:25:35:33,-0.413193,1.73609,-9.52803,-10.9657,-5.10012,60.0223
2023-03-14 18:25:35:43,-0.285167,1.75208,-9.56101,-10.9598,-5.10851,60.0305
2023-03-14 18:25:35:53,-0.576309,1.74748,-9.46535,-10.9643,-5.13645,60.0601
2023-03-14 18:25:35:63,-0.630232,1.66799,-9.37398,-10.9813,-5.17539,60.0959
2023-03-14 18:25:35:73,-0.617971,1.79045,-9.47309,-11.0188,-5.20826,60.1564
2023-03-14 18:25:35:83,-0.808477,1.96624,-9.70384,-11.0547,-5.23911,60.2301
2023-03-14 18:25:35:93,-0.965793,1.96898,-9.71373,-11.0782,-5.2813,60.3104
2023-03-14 18:25:35:103,-1.02732,1.92001,-9.67787,-11.0913,-5.3203,60.3899
2023-03-14 18:25:35:113,-1.05554,1.82332,-9.57256,-11.1047,-5.36538,60.4817
2023-03-14 18:25:35:123,-1.26862,1.83465,-9.56747,-11.121,-5.40516,60.575
2023-03-14 18:25:35:133,-1.35204,1.81524,-9.55328,-11.14,-5.44486,60.6741
2023-03-14 18:25:35:143,-1.54769,1.86987,-9.55736,-11.1612,-5.48555,60.7733
2023-03-14 18:25:35:153,-1.78901,1.86343,-9.53679,-11.1769,-5.52529,60.8447
2023-03-14 18:25:35:163,-1.79578,1.78522,-9.41865,-11.1904,-5.56706,60.8877
2023-03-14 18:25:35:173,-1.68073,1.73541,-9.35646,-11.2062,-5.58675,60.9047
2023-03-14 18:25:35:183,-1.60442,1.69655,-9.33621,-11.2234,-5.59163,60.9023
2023-03-14 18:25:35:193,-1.54248,1.652,-9.2739,-11.2512,-5.59433,60.8762
2023-03-14 18:25:35:203,-1.42597,1.61222,-9.1699,-11.2902,-5.59224,60.8351
2023-03-14 18:25:35:213,-1.31457,1.59094,-9.11926,-11.3492,-5.58302,60.783
2023-03-14 18:25:35:223,-1.28154,1.64335,-9.13374,-11.4354,-5.56899,60.7284
2023-03-14 18:25:35:233,-1.29634,1.73544,-9.20847,-11.5412,-5.55116,60.6671
2023-03-14 18:25:35:243,-1.23703,1.83637,-9.3155,-11.6655,-5.52162,60.5938
2023-03-14 18:25:35:253,-1.10674,1.9397,-9.46947,-11.7956,-5.48498,60.5091
2023-03-14 18:25:35:263,-0.998365,2.08154,-9.61788,-11.9279,-5.44289,60.4216
2023-03-14 18:25:35:273,-0.876604,2.18451,-9.67298,-12.05,-5.39109,60.3208
2023-03-14 18:25:35:283,-0.702078,2.15354,-9.655,-12.1525,-5.33752,60.2176
2023-03-14 18:25:35:293,-0.552457,2.0622,-9.54249,-12.2423,-5.28007,60.1203
2023-03-14 18:25:35:303,-0.405834,1.9727,-9.43117,-12.3332,-5.21911,60.0357
2023-03-14 18:25:35:313,-0.322915,1.9166,-9.39166,-12.4297,-5.15796,59.9709
2023-03-14 18:25:35:323,-0.319733,1.9043,-9.41801,-12.5343,-5.0971,59.9238
2023-03-14 18:25:35:333,-0.353391,1.89189,-9.42238,-12.6472,-5.04361,59.8949
2023-03-14 18:25:35:343,-0.382247,1.88885,-9.38985,-12.7703,-4.99958,59.8854
2023-03-14 18:25:35:353,-0.437415,1.88391,-9.39323,-12.9077,-4.96578,59.8931
2023-03-14 18:25:35:363,-0.520745,1.91716,-9.41054,-13.0615,-4.94262,59.9135
2023-03-14 18:25:35:373,-0.592256,2.08824,-9.58432,-13.2372,-4.936,59.9482
2023-03-14 18:25:35:383,-0.687297,2.40639,-9.92538,-13.4192,-4.93922,59.9938
2023-03-14 18:25:35:393,-0.898289,2.69492,-10.1562,-13.5793,-4.9485,60.0442
2023-03-14 18:25:35:403,-1.17676,2.79132,-10.1669,-13.696,-4.95822,60.0967
2023-03-14 18:25:35:413,-1.21112,2.83611,-10.065,-13.7732,-4.95699,60.1282
2023-03-14 18:25:35:423,-1.07642,2.76977,-10.0145,-13.8101,-4.94807,60.1458
2023-03-14 18:25:35:433,-1.36381,2.75093,-9.78142,-13.826,-4.94887,60.1598
2023-03-14 18:25:35:443,-1.46168,2.64877,-9.58202,-13.8258,-4.93598,60.1565
2023-03-14 18:25:35:453,-1.2527,2.59864,-9.59775,-13.8216,-4.91237,60.1294
2023-03-14 18:25:35:463,-1.07294,2.61288,-9.6949,-13.8146,-4.88544,60.0988
2023-03-14 18:25:35:473,-1.04853,2.64319,-9.71664,-13.7942,-4.85343,60.0624
2023-03-14 18:25:35:483,-0.918463,2.58069,-9.66785,-13.7615,-4.80841,60.0195
2023-03-14 18:25:35:493,-0.693102,2.44893,-9.5922,-13.7112,-4.76106,59.9722
2023-03-14 18:25:35:503,-0.553358,2.24373,-9.42099,-13.6558,-4.70653,59.9326
2023-03-14 18:25:35:513,-0.544255,2.09496,-9.28294,-13.6112,-4.66055,59.9089
2023-03-14 18:25:35:523,-0.60837,2.06071,-9.28072,-13.5857,-4.61998,59.8995
2023-03-14 18:25:35:533,-0.743248,2.11973,-9.40637,-13.5765,-4.57871,59.9035
2023-03-14 18:25:35:543,-0.953072,2.23134,-9.48566,-13.5665,-4.54323,59.9105
2023-03-14 18:25:35:553,-0.883485,2.29396,-9.5401,-13.5522,-4.50815,59.9012
2023-03-14 18:25:35:563,-0.729201,2.24575,-9.52223,-13.534,-4.47238,59.8872
2023-03-14 18:25:35:573,-0.787298,2.18256,-9.43748,-13.5118,-4.44289,59.8837
2023-03-14 18:25:35:583,-0.897204,2.1661,-9.42464,-13.4949,-4.42142,59.8818
2023-03-14 18:25:35:593,-0.877175,2.18859,-9.49273,-13.4855,-4.40136,59.8721
2023-03-14 18:25:35:603,-0.84053,2.21961,-9.54732,-13.475,-4.38067,59.8611
2023-03-14 18:25:35:613,-0.852237,2.22473,-9.52766,-13.4583,-4.35559,59.8491
2023-03-14 18:25:35:623,-0.785172,2.19565,-9.48731,-13.4372,-4.33247,59.8311
2023-03-14 18:25:35:633,-0.626973,2.16087,-9.47304,-13.4173,-4.30386,59.8099
2023-03-14 18:25:35:643,-0.500912,2.17885,-9.48694,-13.408,-4.27722,59.7922
2023-03-14 18:25:35:653,-0.407257,2.25168,-9.56133,-13.4042,-4.24988,59.7826
2023-03-14 18:25:35:663,-0.33673,2.31525,-9.61781,-13.3989,-4.22109,59.7855
2023-03-14 18:25:35:673,-0.36605,2.3348,-9.59715,-13.3903,-4.19308,59.8102
2023-03-14 18:25:35:683,-0.490633,2.33556,-9.56364,-13.3718,-4.16317,59.8538
2023-03-14 18:25:35:693,-0.576734,2.33937,-9.52235,-13.3506,-4.12747,59.9019
2023-03-14 18:25:35:703,-0.572571,2.30847,-9.49635,-13.3264,-4.08724,59.9542
2023-03-14 18:25:35:713,-0.523778,2.29136,-9.50326,-13.2992,-4.03529,60.0098
2023-03-14 18:25:35:723,-0.456094,2.28893,-9.49965,-13.2691,-3.97515,60.0665
2023-03-14 18:25:35:733,-0.369294,2.29926,-9.53258,-13.239,-3.915,60.1288
2023-03-14 18:25:35:743,-0.267887,2.3238,-9.59984,-13.2123,-3.86021,60.1981
2023-03-14 18:25:35:753,-0.174603,2.38349,-9.67172,-13.1873,-3.80661,60.2745
2023-03-14 18:25:35:763,-0.122789,2.40522,-9.70532,-13.1612,-3.76721,60.3648
2023-03-14 18:25:35:773,-0.167129,2.41526,-9.68974,-13.1303,-3.74341,60.4692
2023-03-14 18:25:35:783,-0.282281,2.45147,-9.65601,-13.0963,-3.72436,60.5865
2023-03-14 18:25:35:793,-0.340397,2.44178,-9.67094,-13.0485,-3.70482,60.7145
2023-03-14 18:25:35:803,-0.296139,2.43142,-9.69805,-12.9894,-3.6859,60.845
2023-03-14 18:25:35:813,-0.291508,2.41669,-9.68431,-12.9229,-3.67078,60.9897
2023-03-14 18:25:35:823,-0.312225,2.38745,-9.63866,-12.8444,-3.65686,61.1421
2023-03-14 18:25:35:833,-0.374885,2.34065,-9.59281,-12.7572,-3.64158,61.3011
2023-03-14 18:25:35:843,-0.463507,2.29771,-9.57268,-12.6676,-3.6242,61.4687
2023-03-14 18:25:35:853,-0.516946,2.28039,-9.54866,-12.5761,-3.59974,61.6377
2023-03-14 18:25:35:863,-0.485525,2.2295,-9.50743,-12.4806,-3.56622,61.8071
2023-03-14 18:25:35:873,-0.422774,2.16285,-9.46262,-12.3869,-3.531,61.9717
2023-03-14 18:25:35:883,-0.35555,2.10916,-9.42272,-12.2968,-3.4975,62.1374
2023-03-14 18:25:35:893,-0.30525,2.11187,-9.427,-12.2195,-3.46928,62.3089
2023-03-14 18:25:35:903,-0.350207,2.15151,-9.49221,-12.1464,-3.45246,62.484
2023-03-14 18:25:35:913,-0.481643,2.20426,-9.53672,-12.0816,-3.43938,62.6626
2023-03-14 18:25:35:923,-0.561803,2.22932,-9.55671,-12.0151,-3.43274,62.8383
2023-03-14 18:25:35:933,-0.592662,2.20319,-9.56372,-11.9454,-3.42415,63.0064
2023-03-14 18:25:35:943,-0.630202,2.15415,-9.55927,-11.8731,-3.42644,63.1697
2023-03-14 18:25:35:953,-0.645423,2.09049,-9.52844,-11.8002,-3.43329,63.3241
2023-03-14 18:25:35:963,-0.671393,2.04807,-9.4765,-11.7303,-3.44652,63.4651
2023-03-14 18:25:35:973,-0.710669,2.00756,-9.40455,-11.6607,-3.4739,63.6016
2023-03-14 18:25:35:983,-0.755324,1.98667,-9.3156,-11.6035,-3.50926,63.726
2023-03-14 18:25:35:993,-0.780163,1.98337,-9.29447,-11.5608,-3.54928,63.8408
2023-03-14 18:25:36:3,-0.792279,2.00122,-9.31854,-11.5295,-3.59309,63.9438
2023-03-14 18:25:36:13,-0.795532,2.01188,-9.37009,-11.5091,-3.63723,64.0378
2023-03-14 18:25:36:23,-0.806397,2.03459,-9.43916,-11.4981,-3.68257,64.1246
2023-03-14 18:25:36:33,-0.840714,2.05521,-9.52841,-11.4903,-3.72709,64.2023
2023-03-14 18:25:36:43,-0.850971,2.08112,-9.57745,-11.4831,-3.77614,64.2681
2023-03-14 18:25:36:53,-0.85442,2.04869,-9.5818,-11.4711,-3.82591,64.3266
2023-03-14 18:25:36:63,-0.889135,1.98887,-9.54056,-11.4583,-3.87416,64.3803
2023-03-14 18:25:36:73,-0.958378,1.97561,-9.5194,-11.4501,-3.92557,64.4247
2023-03-14 18:25:36:83,-0.998977,1.96255,-9.51713,-11.4391,-3.97914,64.4606
2023-03-14 18:25:36:93,-1.02556,1.96966,-9.56071,-11.431,-4.02491,64.4844
2023-03-14 18:25:36:103,-1.03931,2.00691,-9.60498,-11.4228,-4.06981,64.4966
2023-03-14 18:25:36:113,-1.02017,1.99771,-9.62364,-11.4114,-4.10559,64.4944
2023-03-14 18:25:36:123,-0.957647,1.96381,-9.60456,-11.3985,-4.13166,64.4825
2023-03-14 18:25:36:133,-0.909686,1.92758,-9.5548,-11.382,-4.15732,64.4654
2023-03-14 18:25:36:143,-0.882329,1.88398,-9.51398,-11.3638,-4.17701,64.4418
2023-03-14 18:25:36:153,-0.842943,1.86837,-9.45149,-11.3507,-4.19179,64.4146
2023-03-14 18:25:36:163,-0.82026,1.83652,-9.44556,-11.3422,-4.20203,64.3864
2023-03-14 18:25:36:173,-0.823198,1.84622,-9.47545,-11.3369,-4.20943,64.3575
2023-03-14 18:25:36:183,-0.859693,1.87371,-9.50498,-11.3368,-4.21497,64.3298
2023-03-14 18:25:36:193,-0.920195,1.91262,-9.54051,-11.3377,-4.21927,64.3017
2023-03-14 18:25:36:203,-0.946642,1.93656,-9.5845,-11.3388,-4.21923,64.2668
2023-03-14 18:25:36:213,-0.952313,1.93579,-9.58986,-11.3371,-4.2129,64.2276
2023-03-14 18:25:36:223,-0.963354,1.90949,-9.53825,-11.3325,-4.20812,64.1796
2023-03-14 18:25:36:233,-1.00155,1.88602,-9.49188,-11.3325,-4.2023,64.1254
2023-03-14 18:25:36:243,-0.985992,1.89041,-9.50554,-11.331,-4.19092,64.0604
2023-03-14 18:25:36:253,-0.88712,1.90982,-9.55146,-11.3349,-4.17516,63.9893
2023-03-14 18:25:36:263,-0.830878,1.94002,-9.61014,-11.3361,-4.15758,63.9083
2023-03-14 18:25:36:273,-0.774372,1.98154,-9.65541,-11.3351,-4.13727,63.8279
2023-03-14 18:25:36:283,-0.708731,1.97866,-9.6892,-11.3275,-4.11516,63.7441
2023-03-14 18:25:36:293,-0.634877,1.96621,-9.68568,-11.3205,-4.09365,63.6605
2023-03-14 18:25:36:303,-0.582274,1.95585,-9.66078,-11.3097,-4.07339,63.582
2023-03-14 18:25:36:313,-0.513038,1.94338,-9.6289,-11.2996,-4.04935,63.5057
2023-03-14 18:25:36:323,-0.475659,1.9667,-9.60141,-11.2863,-4.02445,63.4366
2023-03-14 18:25:36:333,-0.479511,1.98664,-9.5828,-11.2757,-3.9967,63.3799
2023-03-14 18:25:36:343,-0.47168,2.00298,-9.56511,-11.266,-3.9683,63.3349
2023-03-14 18:25:36:353,-0.462588,2.0117,-9.54658,-11.2598,-3.93729,63.3048
2023-03-14 18:25:36:363,-0.477769,2.01278,-9.53118,-11.2535,-3.9049,63.2874
2023-03-14 18:25:36:373,-0.515297,1.99915,-9.53867,-11.2427,-3.87688,63.2812
2023-03-14 18:25:36:383,-0.55604,1.99932,-9.55626,-11.2309,-3.84463,63.2832
2023-03-14 18:25:36:393,-0.588092,2.00604,-9.56707,-11.2184,-3.80712,63.2833
2023-03-14 18:25:36:403,-0.570869,1.98435,-9.58363,-11.205,-3.77218,63.2865
2023-03-14 18:25:36:413,-0.536403,1.99198,-9.61584,-11.1881,-3.73837,63.2838
2023-03-14 18:25:36:423,-0.52103,2.0053,-9.61338,-11.1708,-3.70736,63.2727
2023-03-14 18:25:36:433,-0.506579,1.99561,-9.59311,-11.1515,-3.68044,63.2628
2023-03-14 18:25:36:443,-0.469444,1.9665,-9.55481,-11.1363,-3.65629,63.2543
2023-03-14 18:25:36:453,-0.410803,1.95026,-9.52238,-11.1235,-3.6477,63.2459
2023-03-14 18:25:36:463,-0.399284,1.9469,-9.51226,-11.1171,-3.64974,63.2422
2023-03-14 18:25:36:473,-0.45272,1.95877,-9.54017,-11.1206,-3.65764,63.2463
2023-03-14 18:25:36:483,-0.518838,1.98945,-9.57997,-11.1304,-3.67232,63.2545
2023-03-14 18:25:36:493,-0.558627,2.00984,-9.63671,-11.14,-3.68746,63.2627
2023-03-14 18:25:36:503,-0.559314,2.03116,-9.65824,-11.1477,-3.70904,63.2723
2023-03-14 18:25:36:513,-0.547344,2.0213,-9.67941,-11.151,-3.73298,63.2837
2023-03-14 18:25:36:523,-0.545224,2.01511,-9.71316,-11.1489,-3.75726,63.2989
2023-03-14 18:25:36:533,-0.564609,2.01879,-9.74309,-11.1459,-3.7889,63.3226
2023-03-14 18:25:36:543,-0.569493,2.03551,-9.75862,-11.137,-3.81406,63.3527
2023-03-14 18:25:36:553,-0.59352,2.02389,-9.76635,-11.1161,-3.83654,63.3885
2023-03-14 18:25:36:563,-0.655254,1.98034,-9.76499,-11.0825,-3.85863,63.4337
2023-03-14 18:25:36:573,-0.692733,1.92837,-9.76613,-11.0375,-3.87364,63.4812
2023-03-14 18:25:36:583,-0.728866,1.88678,-9.77163,-10.982,-3.88802,63.5273
2023-03-14 18:25:36:593,-0.737787,1.84975,-9.79099,-10.9205,-3.90178,63.5664
2023-03-14 18:25:36:603,-0.684791,1.8182,-9.84105,-10.8458,-3.91522,63.6014
2023-03-14 18:25:36:613,-0.669791,1.77886,-9.86869,-10.7615,-3.93028,63.6322
2023-03-14 18:25:36:623,-0.676656,1.73141,-9.83623,-10.6657,-3.94612,63.6612
2023-03-14 18:25:36:633,-0.657543,1.66181,-9.74519,-10.5603,-3.96165,63.684
2023-03-14 18:25:36:643,-0.606298,1.58527,-9.6327,-10.4543,-3.97598,63.7006
2023-03-14 18:25:36:653,-0.538748,1.54805,-9.57812,-10.3503,-3.9916,63.7202
2023-03-14 18:25:36:663,-0.475592,1.55389,-9.59252,-10.2578,-4.01374,63.7361
2023-03-14 18:25:36:673,-0.458406,1.57632,-9.56514,-10.1669,-4.04725,63.7558
2023-03-14 18:25:36:683,-0.507848,1.55842,-9.53385,-10.0809,-4.08778,63.7802
2023-03-14 18:25:36:693,-0.568711,1.52995,-9.51132,-9.99862,-4.13378,63.8105
2023-03-14 18:25:36:703,-0.613807,1.54803,-9.47126,-9.92568,-4.18403,63.8442
2023-03-14 18:25:36:713,-0.678037,1.54073,-9.3963,-9.85518,-4.23935,63.8804
2023-03-14 18:25:36:723,-0.760158,1.48448,-9.32488,-9.79302,-4.29871,63.9234
2023-03-14 18:25:36:733,-0.805671,1.46473,-9.29655,-9.74471,-4.35322,63.9694
2023-03-14 18:25:36:743,-0.82799,1.4988,-9.28447,-9.71044,-4.40587,64.0177
2023-03-14 18:25:36:753,-0.872826,1.519,-9.25068,-9.68915,-4.45391,64.0602
2023-03-14 18:25:36:763,-0.899917,1.54056,-9.21869,-9.6815,-4.49241,64.106
2023-03-14 18:25:36:773,-0.969753,1.59948,-9.21574,-9.68847,-4.52325,64.1503
2023-03-14 18:25:36:783,-1.02521,1.67594,-9.2881,-9.71347,-4.54455,64.1963
2023-03-14 18:25:36:793,-0.989558,1.76626,-9.41755,-9.75027,-4.55335,64.2303
2023-03-14 18:25:36:803,-0.807544,1.8243,-9.56363,-9.79331,-4.56018,64.2536
2023-03-14 18:25:36:813,-0.634808,1.86818,-9.70443,-9.8428,-4.57099,64.2792
2023-03-14 18:25:36:823,-0.603496,1.91272,-9.7729,-9.8968,-4.58383,64.312
2023-03-14 18:25:36:833,-0.682367,1.96198,-9.80463,-9.94713,-4.60853,64.3542
2023-03-14 18:25:36:843,-0.792612,1.99082,-9.82132,-9.9926,-4.63592,64.3995
2023-03-14 18:25:36:853,-0.901055,2.01236,-9.86087,-10.0359,-4.66053,64.4397
2023-03-14 18:25:36:863,-1.0087,2.04015,-9.91978,-10.069,-4.68135,64.473
2023-03-14 18:25:36:873,-1.03479,2.03809,-9.92566,-10.0859,-4.6919,64.4879
2023-03-14 18:25:36:883,-0.973987,1.97127,-9.85098,-10.0836,-4.69712,64.4793
2023-03-14 18:25:36:893,-0.807945,1.87938,-9.76947,-10.0684,-4.69982,64.453
2023-03-14 18:25:36:903,-0.604114,1.83984,-9.70063,-10.0442,-4.70474,64.4167
2023-03-14 18:25:36:913,-0.421917,1.76146,-9.55354,-10.0143,-4.72102,64.3747
2023-03-14 18:25:36:923,-0.388718,1.67772,-9.35286,-9.98614,-4.76356,64.3452
2023-03-14 18:25:36:933,-0.594034,1.6015,-9.31786,-9.97497,-4.81726,64.3363
2023-03-14 18:25:36:943,-0.812139,1.73517,-9.49886,-9.98278,-4.88477,64.3379
2023-03-14 18:25:36:953,-0.823868,1.8523,-9.70433,-9.98339,-4.95479,64.3337
2023-03-14 18:25:36:963,-0.762946,1.8009,-9.70974,-9.96288,-5.01858,64.3345
2023-03-14 18:25:36:973,-0.835525,1.69337,-9.54239,-9.93862,-5.08285,64.3407
2023-03-14 18:25:36:983,-0.970091,1.59954,-9.42642,-9.91525,-5.15059,64.3618
2023-03-14 18:25:36:993,-1.12646,1.61653,-9.44808,-9.9042,-5.2099,64.3871
2023-03-14 18:25:37:3,-1.22651,1.68307,-9.55628,-9.89644,-5.25938,64.4095
2023-03-14 18:25:37:13,-1.24843,1.65363,-9.61978,-9.88251,-5.29554,64.4258
2023-03-14 18:25:37:23,-1.22546,1.60504,-9.61125,-9.86468,-5.31571,64.4347
2023-03-14 18:25:37:33,-1.1882,1.59758,-9.58221,-9.84749,-5.33057,64.4348
2023-03-14 18:25:37:43,-1.11962,1.60068,-9.58108,-9.83163,-5.33846,64.4298
2023-03-14 18:25:37:53,-1.02417,1.58737,-9.60668,-9.82096,-5.34417,64.4129
2023-03-14 18:25:37:63,-0.957014,1.58232,-9.63195,-9.81439,-5.34817,64.3968
2023-03-14 18:25:37:73,-0.906035,1.60709,-9.61345,-9.8093,-5.35847,64.3799
2023-03-14 18:25:37:83,-0.88417,1.61027,-9.53514,-9.80956,-5.37337,64.365
2023-03-14 18:25:37:93,-0.904194,1.59159,-9.42966,-9.81015,-5.39129,64.3602
2023-03-14 18:25:37:103,-0.974598,1.60209,-9.42577,-9.82278,-5.41019,64.3603
2023-03-14 18:25:37:113,-1.04858,1.71236,-9.59321,-9.84842,-5.41852,64.3698
2023-03-14 18:25:37:123,-1.08858,1.80955,-9.72288,-9.86522,-5.41952,64.378
2023-03-14 18:25:37:133,-1.09852,1.8194,-9.76462,-9.8675,-5.41383,64.3861
2023-03-14 18:25:37:143,-1.10296,1.78486,-9.76359,-9.86102,-5.40227,64.3941
2023-03-14 18:25:37:153,-1.07029,1.76157,-9.7699,-9.84932,-5.38557,64.393
2023-03-14 18:25:37:163,-1.00258,1.73224,-9.75252,-9.83021,-5.372,64.3894
2023-03-14 18:25:37:173,-0.920052,1.65292,-9.67767,-9.80496,-5.35573,64.3864
2023-03-14 18:25:37:183,-0.869162,1.58417,-9.53121,-9.7816,-5.3461,64.3834
2023-03-14 18:25:37:193,-0.919195,1.53661,-9.39629,-9.76998,-5.33679,64.3879
2023-03-14 18:25:37:203,-1.07175,1.54916,-9.32912,-9.77195,-5.32429,64.3998
2023-03-14 18:25:37:213,-1.12817,1.5998,-9.41319,-9.78024,-5.30227,64.4016
2023-03-14 18:25:37:223,-0.981087,1.63203,-9.61825,-9.79326,-5.27042,64.3933
2023-03-14 18:25:37:233,-0.737498,1.64075,-9.79954,-9.80044,-5.23881,64.3765
2023-03-14 18:25:37:243,-0.58979,1.61125,-9.82982,-9.80318,-5.22332,64.3606
2023-03-14 18:25:37:253,-0.571865,1.55643,-9.72366,-9.80735,-5.2233,64.3606
2023-03-14 18:25:37:263,-0.661147,1.52489,-9.59874,-9.81842,-5.24208,64.3786
2023-03-14 18:25:37:273,-0.821556,1.58541,-9.50817,-9.84045,-5.2684,64.4176
2023-03-14 18:25:37:283,-1.05961,1.64888,-9.5086,-9.8709,-5.29833,64.4695
2023-03-14 18:25:37:293,-1.27759,1.72003,-9.59353,-9.90532,-5.32325,64.5243
2023-03-14 18:25:37:303,-1.3793,1.78887,-9.69531,-9.93257,-5.33995,64.5723
2023-03-14 18:25:37:313,-1.42525,1.81702,-9.77386,-9.94408,-5.33948,64.6068
2023-03-14 18:25:37:323,-1.39609,1.7857,-9.76118,-9.93612,-5.32587,64.6229
2023-03-14 18:25:37:333,-1.33145,1.71258,-9.6624,-9.91374,-5.30019,64.6224
2023-03-14 18:25:37:343,-1.2406,1.62939,-9.55053,-9.88517,-5.2682,64.6056
2023-03-14 18:25:37:353,-1.14666,1.5642,-9.46329,-9.85902,-5.23251,64.5749
2023-03-14 18:25:37:363,-1.08246,1.57024,-9.44362,-9.83812,-5.19137,64.5317
2023-03-14 18:25:37:373,-1.02844,1.60951,-9.46905,-9.82585,-5.15288,64.4799
2023-03-14 18:25:37:383,-0.968883,1.63231,-9.48837,-9.81826,-5.10996,64.414
2023-03-14 18:25:37:393,-0.865782,1.64783,-9.50958,-9.81332,-5.07016,64.3381
2023-03-14 18:25:37:403,-0.733908,1.65803,-9.52536,-9.81577,-5.02842,64.2546
2023-03-14 18:25:37:413,-0.604652,1.65019,-9.53049,-9.82636,-4.98473,64.1736
2023-03-14 18:25:37:423,-0.5197,1.65,-9.53892,-9.83846,-4.94201,64.0963
2023-03-14 18:25:37:433,-0.480754,1.65414,-9.54413,-9.85955,-4.90936,64.0305
2023-03-14 18:25:37:443,-0.447324,1.66938,-9.56715,-9.88613,-4.88014,63.9733
2023-03-14 18:25:37:453,-0.444372,1.71605,-9.59664,-9.92462,-4.86285,63.9274
2023-03-14 18:25:37:463,-0.495311,1.74985,-9.63815,-9.96503,-4.8501,63.8943
2023-03-14 18:25:37:473,-0.609481,1.80879,-9.67108,-10.0089,-4.85176,63.8749
2023-03-14 18:25:37:483,-0.753542,1.85725,-9.71998,-10.0507,-4.85215,63.8689
2023-03-14 18:25:37:493,-0.878215,1.91179,-9.76221,-10.0892,-4.85022,63.8651
2023-03-14 18:25:37:503,-0.950511,1.9507,-9.80579,-10.1143,-4.84206,63.8608
2023-03-14 18:25:37:513,-0.96093,1.94952,-9.79327,-10.1275,-4.82819,63.8563
2023-03-14 18:25:37:523,-0.914017,1.90168,-9.71001,-10.1315,-4.81465,63.8434
2023-03-14 18:25:37:533,-0.870839,1.85252,-9.63198,-10.1351,-4.80068,63.8289
2023-03-14 18:25:37:543,-0.864651,1.83631,-9.59236,-10.1359,-4.78393,63.8113
2023-03-14 18:25:37:553,-0.852731,1.82947,-9.59586,-10.1372,-4.77066,63.7906
2023-03-14 18:25:37:563,-0.855006,1.81057,-9.59314,-10.138,-4.75776,63.768
2023-03-14 18:25:37:573,-0.847029,1.77317,-9.56796,-10.1362,-4.74053,63.7472
2023-03-14 18:25:37:583,-0.835641,1.75459,-9.56669,-10.1363,-4.7261,63.7251
2023-03-14 18:25:37:593,-0.817281,1.76462,-9.57617,-10.1402,-4.71287,63.6981
2023-03-14 18:25:37:603,-0.805276,1.7619,-9.58643,-10.1429,-4.69513,63.6711
2023-03-14 18:25:37:613,-0.785237,1.74021,-9.59311,-10.1441,-4.67948,63.6404
2023-03-14 18:25:37:623,-0.751973,1.7339,-9.59172,-10.1422,-4.66568,63.6104
2023-03-14 18:25:37:633,-0.716266,1.74102,-9.59651,-10.1451,-4.65461,63.5785
2023-03-14 18:25:37:643,-0.719212,1.73444,-9.59758,-10.1442,-4.64403,63.5459
2023-03-14 18:25:37:653,-0.727999,1.72706,-9.59656,-10.1486,-4.63304,63.5158
2023-03-14 18:25:37:663,-0.735289,1.73378,-9.6082,-10.1512,-4.62654,63.4874
2023-03-14 18:25:37:673,-0.723513,1.75366,-9.63058,-10.1547,-4.61717,63.4578
2023-03-14 18:25:37:683,-0.686087,1.74177,-9.60478,-10.1562,-4.60917,63.4294
2023-03-14 18:25:37:693,-0.679175,1.71081,-9.5651,-10.1554,-4.60127,63.4068
2023-03-14 18:25:37:703,-0.683843,1.69992,-9.54251,-10.1586,-4.59659,63.3819
2023-03-14 18:25:37:713,-0.674043,1.707,-9.55994,-10.1712,-4.59226,63.363
2023-03-14 18:25:37:723,-0.62738,1.73888,-9.61893,-10.1832,-4.58841,63.3451
2023-03-14 18:25:37:733,-0.575131,1.77484,-9.66843,-10.1921,-4.58623,63.3249
2023-03-14 18:25:37:743,-0.580976,1.76445,-9.6852,-10.1987,-4.58886,63.3115
2023-03-14 18:25:37:753,-0.625943,1.77152,-9.66902,-10.2061,-4.59264,63.3047
2023-03-14 18:25:37:763,-0.692221,1.77472,-9.65617,-10.2097,-4.59945,63.2987
2023-03-14 18:25:37:773,-0.741286,1.77334,-9.63528,-10.2117,-4.61126,63.2918
2023-03-14 18:25:37:783,-0.754164,1.77704,-9.61212,-10.215,-4.62231,63.2853
2023-03-14 18:25:37:793,-0.782785,1.78075,-9.59699,-10.2243,-4.63794,63.2801
2023-03-14 18:25:37:803,-0.833689,1.77904,-9.58687,-10.2292,-4.64969,63.2786
2023-03-14 18:25:37:813,-0.882967,1.79631,-9.59083,-10.239,-4.65445,63.2745
2023-03-14 18:25:37:823,-0.886879,1.81496,-9.61482,-10.2474,-4.66185,63.2664
2023-03-14 18:25:37:833,-0.885543,1.825,-9.64264,-10.2554,-4.66736,63.2513
2023-03-14 18:25:37:843,-0.892152,1.82167,-9.65862,-10.2576,-4.66658,63.2398
2023-03-14 18:25:37:853,-0.874465,1.82014,-9.66042,-10.2579,-4.66302,63.2182
2023-03-14 18:25:37:863,-0.842082,1.8189,-9.67706,-10.2549,-4.65934,63.1948
2023-03-14 18:25:37:873,-0.810132,1.7991,-9.67989,-10.2478,-4.65243,63.1726
2023-03-14 18:25:37:883,-0.802129,1.77607,-9.67223,-10.2379,-4.64415,63.1482
2023-03-14 18:25:37:893,-0.782154,1.76353,-9.6568,-10.2248,-4.63839,63.1202
2023-03-14 18:25:37:903,-0.765948,1.74454,-9.63496,-10.2123,-4.63078,63.0912
2023-03-14 18:25:37:913,-0.763016,1.73089,-9.6079,-10.1988,-4.62289,63.0656
2023-03-14 18:25:37:923,-0.764512,1.71261,-9.5871,-10.187,-4.61776,63.0481
2023-03-14 18:25:37:933,-0.775721,1.715,-9.58805,-10.1785,-4.60982,63.0296
2023-03-14 18:25:37:943,-0.779246,1.71397,-9.57608,-10.1708,-4.60439,63.0108
2023-03-14 18:25:37:953,-0.788162,1.71059,-9.56736,-10.1645,-4.59821,62.9937
2023-03-14 18:25:37:963,-0.782273,1.71536,-9.58287,-10.1601,-4.58791,62.9747
2023-03-14 18:25:37:973,-0.764354,1.71599,-9.60643,-10.1577,-4.57457,62.9577
2023-03-14 18:25:37:983,-0.754712,1.72606,-9.63125,-10.1539,-4.56098,62.9394
2023-03-14 18:25:37:993,-0.758695,1.73473,-9.6298,-10.1484,-4.54702,62.9238
2023-03-14 18:25:38:3,-0.750337,1.74643,-9.60981,-10.1398,-4.53285,62.9075
2023-03-14 18:25:38:13,-0.748374,1.73018,-9.59758,-10.1337,-4.51655,62.8908
2023-03-14 18:25:38:23,-0.738774,1.74087,-9.57363,-10.1299,-4.5021,62.8781
2023-03-14 18:25:38:33,-0.744014,1.75029,-9.55658,-10.1287,-4.48503,62.8646
2023-03-14 18:25:38:43,-0.729481,1.73302,-9.55194,-10.1295,-4.47179,62.8501
2023-03-14 18:25:38:53,-0.71152,1.73684,-9.56716,-10.1286,-4.45103,62.834
2023-03-14 18:25:38:63,-0.701669,1.77036,-9.57692,-10.1346,-4.43494,62.8164
2023-03-14 18:25:38:73,-0.69123,1.78106,-9.60306,-10.1356,-4.41844,62.7988
2023-03-14 18:25:38:83,-0.645264,1.77427,-9.60367,-10.1398,-4.40575,62.7794
2023-03-14 18:25:38:93,-0.627263,1.76441,-9.60316,-10.1408,-4.40146,62.7587
2023-03-14 18:25:38:103,-0.628895,1.74883,-9.60752,-10.1428,-4.39467,62.7352
2023-03-14 18:25:38:113,-0.633729,1.76992,-9.5907,-10.1497,-4.39251,62.7117
2023-03-14 18:25:38:123,-0.630197,1.76306,-9.57636,-10.1557,-4.39316,62.6906
2023-03-14 18:25:38:133,-0.59996,1.74937,-9.56597,-10.168,-4.39442,62.6718
2023-03-14 18:25:38:143,-0.590209,1.74277,-9.56945,-10.1845,-4.40719,62.6563
2023-03-14 18:25:38:153,-0.617592,1.75883,-9.60512,-10.2006,-4.42542,62.6466
2023-03-14 18:25:38:163,-0.630993,1.7937,-9.64728,-10.2214,-4.44659,62.6378
2023-03-14 18:25:38:173,-0.66989,1.80595,-9.68832,-10.2397,-4.47064,62.6328
2023-03-14 18:25:38:183,-0.719339,1.83087,-9.69751,-10.2527,-4.49969,62.6312
2023-03-14 18:25:38:193,-0.768057,1.83725,-9.69857,-10.2572,-4.52869,62.6346
2023-03-14 18:25:38:203,-0.771142,1.82069,-9.69504,-10.2613,-4.55747,62.6379
2023-03-14 18:25:38:213,-0.793045,1.7988,-9.68391,-10.256,-4.58432,62.64
2023-03-14 18:25:38:223,-0.82103,1.79211,-9.64504,-10.249,-4.61577,62.6441
2023-03-14 18:25:38:233,-0.840346,1.76459,-9.61629,-10.2428,-4.64557,62.651
2023-03-14 18:25:38:243,-0.876419,1.7592,-9.60469,-10.2384,-4.67577,62.6549
2023-03-14 18:25:38:253,-0.904843,1.80142,-9.64949,-10.2358,-4.70823,62.6557
2023-03-14 18:25:38:263,-0.914093,1.83276,-9.71082,-10.2269,-4.73957,62.6542
2023-03-14 18:25:38:273,-0.898047,1.7957,-9.71462,-10.2116,-4.7693,62.648
2023-03-14 18:25:38:283,-0.864695,1.76696,-9.72156,-10.1966,-4.79925,62.6383
2023-03-14 18:25:38:293,-0.846165,1.77467,-9.7213,-10.1774,-4.82951,62.6235
2023-03-14 18:25:38:303,-0.844346,1.76385,-9.69067,-10.155,-4.86011,62.6128
2023-03-14 18:25:38:313,-0.861367,1.73291,-9.62565,-10.1291,-4.89085,62.6048
2023-03-14 18:25:38:323,-0.87528,1.7114,-9.57736,-10.11,-4.91799,62.5992
2023-03-14 18:25:38:333,-0.870283,1.70972,-9.54518,-10.0877,-4.93967,62.5944
2023-03-14 18:25:38:343,-0.867585,1.72018,-9.54104,-10.0691,-4.96117,62.5916
2023-03-14 18:25:38:353,-0.886089,1.7213,-9.54045,-10.0534,-4.97751,62.5939
2023-03-14 18:25:38:363,-0.891496,1.72177,-9.53204,-10.0379,-4.98597,62.5949
2023-03-14 18:25:38:373,-0.8808,1.70901,-9.54296,-10.023,-4.99547,62.6035
2023-03-14 18:25:38:383,-0.868619,1.69865,-9.54612,-10.0068,-4.99905,62.6144
2023-03-14 18:25:38:393,-0.860419,1.67695,-9.53238,-9.99052,-4.99962,62.6235
2023-03-14 18:25:38:403,-0.851387,1.65416,-9.50509,-9.97886,-4.99651,62.6333
2023-03-14 18:25:38:413,-0.826615,1.64337,-9.5139,-9.97094,-4.99483,62.6463
2023-03-14 18:25:38:423,-0.832412,1.68005,-9.53804,-9.9667,-4.99336,62.6607
2023-03-14 18:25:38:433,-0.85632,1.70194,-9.56655,-9.96771,-4.99052,62.6772
2023-03-14 18:25:38:443,-0.855162,1.72521,-9.58543,-9.97271,-4.98446,62.6925
2023-03-14 18:25:38:453,-0.843423,1.74259,-9.61502,-9.98038,-4.98302,62.7073
2023-03-14 18:25:38:463,-0.851889,1.77546,-9.63501,-9.98587,-4.98036,62.7234
2023-03-14 18:25:38:473,-0.880606,1.80786,-9.66255,-9.99502,-4.98192,62.7415
2023-03-14 18:25:38:483,-0.921113,1.84006,-9.67486,-10.0045,-4.98169,62.7591
2023-03-14 18:25:38:493,-0.991898,1.83906,-9.66585,-10.007,-4.98561,62.7755
2023-03-14 18:25:38:503,-1.03876,1.83245,-9.63546,-10.006,-4.98888,62.7891
2023-03-14 18:25:38:513,-1.06876,1.79937,-9.60926,-10.0023,-4.98144,62.7945
2023-03-14 18:25:38:523,-1.0325,1.81252,-9.63242,-9.99763,-4.97087,62.7899
2023-03-14 18:25:38:533,-0.947796,1.81207,-9.67437,-9.98967,-4.95965,62.7792
2023-03-14 18:25:38:543,-0.891423,1.79345,-9.66934,-9.97675,-4.9421,62.7607
2023-03-14 18:25:38:553,-0.853917,1.75745,-9.65178,-9.95895,-4.92384,62.7396
2023-03-14 18:25:38:563,-0.797608,1.73368,-9.64949,-9.94188,-4.90744,62.7127
2023-03-14 18:25:38:573,-0.729728,1.73089,-9.66203,-9.9222,-4.89061,62.6897
2023-03-14 18:25:38:583,-0.707065,1.74346,-9.67629,-9.9014,-4.87796,62.6676
2023-03-14 18:25:38:593,-0.684885,1.75039,-9.67249,-9.88177,-4.86362,62.647
2023-03-14 18:25:38:603,-0.653996,1.71403,-9.65924,-9.85896,-4.84724,62.6291
2023-03-14 18:25:38:613,-0.655319,1.7049,-9.63793,-9.83594,-4.83357,62.6154
2023-03-14 18:25:38:623,-0.670617,1.71261,-9.63423,-9.81516,-4.81999,62.6103
2023-03-14 18:25:38:633,-0.712265,1.69785,-9.60167,-9.78929,-4.80976,62.6111
2023-03-14 18:25:38:643,-0.756836,1.67719,-9.57683,-9.7689,-4.80021,62.6177
2023-03-14 18:25:38:653,-0.789851,1.65156,-9.58188,-9.74768,-4.79099,62.6231
2023-03-14 18:25:38:663,-0.832627,1.64217,-9.61117,-9.72465,-4.7802,62.6306
2023-03-14 18:25:38:673,-0.882919,1.65664,-9.61307,-9.70598,-4.77238,62.6402
2023-03-14 18:25:38:683,-0.907212,1.6694,-9.56938,-9.68824,-4.75941,62.6444
2023-03-14 18:25:38:693,-0.854506,1.64307,-9.55568,-9.67254,-4.74442,62.6408
2023-03-14 18:25:38:703,-0.766704,1.60881,-9.54368,-9.65639,-4.7305,62.6355
2023-03-14 18:25:38:713,-0.689585,1.60002,-9.57512,-9.64518,-4.71726,62.6283
2023-03-14 18:25:38:723,-0.686903,1.61189,-9.62731,-9.63496,-4.71208,62.6242
2023-03-14 18:25:38:733,-0.710272,1.62845,-9.64078,-9.62455,-4.70901,62.6243
2023-03-14 18:25:38:743,-0.731324,1.61435,-9.606,-9.61657,-4.70734,62.6271
2023-03-14 18:25:38:753,-0.78577,1.57724,-9.58211,-9.61003,-4.71004,62.6312
2023-03-14 18:25:38:763,-0.823984,1.58842,-9.57463,-9.60689,-4.70598,62.6389
2023-03-14 18:25:38:773,-0.801076,1.61415,-9.56615,-9.60698,-4.70338,62.6449
2023-03-14 18:25:38:783,-0.778527,1.60202,-9.55002,-9.60691,-4.69789,62.6507
2023-03-14 18:25:38:794,-0.762591,1.59234,-9.53406,-9.60798,-4.68883,62.6526
2023-03-14 18:25:38:803,-0.743267,1.57494,-9.51383,-9.61276,-4.68344,62.6573
2023-03-14 18:25:38:813,-0.731362,1.58156,-9.52982,-9.62429,-4.68247,62.6635
2023-03-14 18:25:38:823,-0.725963,1.60438,-9.57487,-9.6398,-4.6797,62.6708
2023-03-14 18:25:38:833,-0.740956,1.62999,-9.59019,-9.65738,-4.68051,62.6811
2023-03-14 18:25:38:843,-0.781066,1.65951,-9.60574,-9.67349,-4.68503,62.6885
2023-03-14 18:25:38:853,-0.825475,1.69311,-9.63353,-9.69166,-4.68731,62.6996
2023-03-14 18:25:38:863,-0.879685,1.72428,-9.68514,-9.70945,-4.68955,62.707
2023-03-14 18:25:38:873,-0.900023,1.73484,-9.7069,-9.72053,-4.68886,62.7103
2023-03-14 18:25:38:883,-0.885092,1.72756,-9.70636,-9.72508,-4.68927,62.7077
2023-03-14 18:25:38:893,-0.875856,1.70763,-9.67065,-9.7277,-4.69147,62.7023
2023-03-14 18:25:38:903,-0.877408,1.69512,-9.63982,-9.73214,-4.69321,62.6951
2023-03-14 18:25:38:913,-0.869915,1.70417,-9.63076,-9.73547,-4.69359,62.682
2023-03-14 18:25:38:923,-0.854156,1.70846,-9.61683,-9.74051,-4.69835,62.664
2023-03-14 18:25:38:933,-0.840418,1.7082,-9.64067,-9.74552,-4.70148,62.6459
2023-03-14 18:25:38:943,-0.822155,1.70539,-9.64215,-9.74912,-4.70025,62.6269
2023-03-14 18:25:38:953,-0.810853,1.68624,-9.63121,-9.7516,-4.69622,62.6041
2023-03-14 18:25:38:963,-0.795744,1.68462,-9.64524,-9.75225,-4.69346,62.5824
2023-03-14 18:25:38:973,-0.795074,1.70795,-9.66525,-9.75201,-4.68989,62.5602
2023-03-14 18:25:38:983,-0.78583,1.70134,-9.66077,-9.74869,-4.68231,62.5371
2023-03-14 18:25:38:993,-0.790802,1.68442,-9.63993,-9.74173,-4.67822,62.5143
2023-03-14 18:25:39:3,-0.79554,1.69201,-9.64333,-9.73478,-4.67077,62.4935
2023-03-14 18:25:39:13,-0.779279,1.68677,-9.65767,-9.72531,-4.66106,62.4687
2023-03-14 18:25:39:23,-0.763017,1.6989,-9.66602,-9.71633,-4.65227,62.4447
2023-03-14 18:25:39:33,-0.734042,1.67925,-9.64772,-9.70367,-4.64443,62.4229
2023-03-14 18:25:39:43,-0.728814,1.64998,-9.62807,-9.68828,-4.6364,62.3993
2023-03-14 18:25:39:53,-0.726211,1.63445,-9.62688,-9.67674,-4.62648,62.3784
2023-03-14 18:25:39:63,-0.727902,1.63323,-9.6284,-9.66613,-4.61919,62.3586
2023-03-14 18:25:39:73,-0.692724,1.62367,-9.63221,-9.65356,-4.60816,62.3395
2023-03-14 18:25:39:83,-0.645438,1.61127,-9.64262,-9.64245,-4.59992,62.3211
2023-03-14 18:25:39:93,-0.649974,1.62011,-9.63929,-9.63262,-4.5959,62.3052
2023-03-14 18:25:39:103,-0.670239,1.61316,-9.63385,-9.62455,-4.5924,62.2938
2023-03-14 18:25:39:113,-0.666217,1.6239,-9.62502,-9.61672,-4.59062,62.2877
2023-03-14 18:25:39:123,-0.652312,1.6118,-9.62584,-9.61251,-4.5884,62.2814
2023-03-14 18:25:39:133,-0.654955,1.62952,-9.59847,-9.60839,-4.59179,62.2784
2023-03-14 18:25:39:143,-0.671417,1.63723,-9.54393,-9.60795,-4.59894,62.2788
2023-03-14 18:25:39:153,-0.689199,1.61972,-9.51598,-9.61386,-4.6054,62.2847
2023-03-14 18:25:39:163,-0.724974,1.62522,-9.49811,-9.62065,-4.61628,62.2964
2023-03-14 18:25:39:173,-0.755285,1.62045,-9.50093,-9.63202,-4.62148,62.3144
2023-03-14 18:25:39:183,-0.758503,1.63608,-9.52159,-9.64682,-4.62846,62.3337
2023-03-14 18:25:39:193,-0.761021,1.6492,-9.52487,-9.66027,-4.63347,62.3539
2023-03-14 18:25:39:203,-0.770078,1.64278,-9.53667,-9.67756,-4.64268,62.377
2023-03-14 18:25:39:213,-0.836395,1.68268,-9.60727,-9.70009,-4.65396,62.4045
2023-03-14 18:25:39:223,-0.911395,1.75113,-9.69765,-9.7262,-4.67081,62.4277
2023-03-14 18:25:39:233,-0.968204,1.78142,-9.69688,-9.74443,-4.68333,62.4493
2023-03-14 18:25:39:243,-1.02157,1.75974,-9.66733,-9.75972,-4.69088,62.4602
2023-03-14 18:25:39:253,-1.02242,1.74809,-9.66036,-9.77325,-4.69711,62.4617
2023-03-14 18:25:39:263,-0.95798,1.75192,-9.67736,-9.788,-4.6979,62.4562
2023-03-14 18:25:39:273,-0.858296,1.76481,-9.68359,-9.80065,-4.69691,62.4364
2023-03-14 18:25:39:283,-0.766102,1.77853,-9.67844,-9.81219,-4.6959,62.4099
2023-03-14 18:25:39:293,-0.686622,1.74624,-9.6495,-9.81772,-4.6946,62.3818
2023-03-14 18:25:39:303,-0.616265,1.70087,-9.61226,-9.8248,-4.69415,62.3585
2023-03-14 18:25:39:313,-0.560454,1.66306,-9.56899,-9.83154,-4.69363,62.3398
2023-03-14 18:25:39:323,-0.530536,1.6667,-9.58742,-9.84005,-4.69594,62.3317
2023-03-14 18:25:39:333,-0.518238,1.70475,-9.63367,-9.8531,-4.7072,62.3391
2023-03-14 18:25:39:343,-0.553599,1.71896,-9.6393,-9.86486,-4.71566,62.3583
2023-03-14 18:25:39:353,-0.628536,1.71549,-9.59589,-9.87286,-4.72469,62.3849
2023-03-14 18:25:39:363,-0.698179,1.69709,-9.57713,-9.88509,-4.73274,62.4248
2023-03-14 18:25:39:373,-0.773443,1.69714,-9.58691,-9.9009,-4.7431,62.4666
2023-03-14 18:25:39:383,-0.826415,1.71949,-9.59669,-9.92282,-4.74959,62.5124
2023-03-14 18:25:39:393,-0.851841,1.73979,-9.62395,-9.94336,-4.76097,62.5542
2023-03-14 18:25:39:403,-0.892755,1.77357,-9.66988,-9.96332,-4.77223,62.5999
2023-03-14 18:25:39:413,-0.936649,1.81487,-9.68642,-9.98427,-4.7833,62.6409
2023-03-14 18:25:39:423,-0.964129,1.83965,-9.68415,-9.99939,-4.79195,62.6778
2023-03-14 18:25:39:433,-0.982169,1.84559,-9.6715,-10.0063,-4.80026,62.706
2023-03-14 18:25:39:443,-0.966304,1.8453,-9.64691,-10.013,-4.80817,62.7302
2023-03-14 18:25:39:453,-0.948872,1.81321,-9.61049,-10.0172,-4.81148,62.7503
2023-03-14 18:25:39:463,-0.922956,1.79057,-9.60569,-10.018,-4.81352,62.7614
2023-03-14 18:25:39:473,-0.901341,1.78608,-9.62327,-10.0235,-4.81709,62.7707
2023-03-14 18:25:39:483,-0.885564,1.78586,-9.61056,-10.0223,-4.81706,62.7725
2023-03-14 18:25:39:493,-0.861995,1.7557,-9.62501,-10.0181,-4.81918,62.7718
2023-03-14 18:25:39:503,-0.813736,1.75167,-9.64993,-10.0194,-4.81977,62.7718
2023-03-14 18:25:39:513,-0.787727,1.75194,-9.67844,-10.0161,-4.8224,62.7697
2023-03-14 18:25:39:523,-0.782856,1.76071,-9.67505,-10.0117,-4.82456,62.7652
2023-03-14 18:25:39:533,-0.813314,1.75579,-9.68777,-9.99932,-4.83322,62.7625
2023-03-14 18:25:39:543,-0.826437,1.75634,-9.6775,-9.98326,-4.84105,62.7586
2023-03-14 18:25:39:553,-0.830939,1.73416,-9.66387,-9.96453,-4.85132,62.7536
2023-03-14 18:25:39:563,-0.841621,1.70563,-9.63074,-9.94402,-4.85829,62.7455
2023-03-14 18:25:39:573,-0.853199,1.68177,-9.58473,-9.9205,-4.86632,62.7391
2023-03-14 18:25:39:583,-0.831427,1.65401,-9.56843,-9.90467,-4.87342,62.7309
2023-03-14 18:25:39:593,-0.829698,1.63954,-9.56358,-9.89103,-4.87814,62.7225
2023-03-14 18:25:39:603,-0.826652,1.66372,-9.57745,-9.87767,-4.88576,62.7144
2023-03-14 18:25:39:613,-0.828088,1.68276,-9.58224,-9.86584,-4.89525,62.7044
2023-03-14 18:25:39:623,-0.83225,1.66391,-9.58364,-9.85736,-4.90023,62.6966
2023-03-14 18:25:39:633,-0.810125,1.6712,-9.55494,-9.84935,-4.90774,62.6845
2023-03-14 18:25:39:643,-0.825362,1.66504,-9.52115,-9.84002,-4.91379,62.6699
2023-03-14 18:25:39:653,-0.817416,1.64527,-9.49679,-9.83488,-4.92108,62.656
2023-03-14 18:25:39:663,-0.78532,1.63086,-9.5072,-9.83795,-4.92317,62.6433
2023-03-14 18:25:39:673,-0.776733,1.6555,-9.53371,-9.84475,-4.92759,62.6307
2023-03-14 18:25:39:683,-0.767353,1.68232,-9.56973,-9.85367,-4.93434,62.6221
2023-03-14 18:25:39:693,-0.750836,1.71268,-9.61655,-9.86146,-4.94266,62.6152
2023-03-14 18:25:39:703,-0.763217,1.72251,-9.63984,-9.86869,-4.95046,62.6103
2023-03-14 18:25:39:713,-0.773297,1.73402,-9.63452,-9.87828,-4.96077,62.6136
2023-03-14 18:25:39:723,-0.766409,1.73246,-9.62842,-9.88756,-4.96563,62.6181
2023-03-14 18:25:39:733,-0.747074,1.72774,-9.63825,-9.89317,-4.97048,62.6268
2023-03-14 18:25:39:743,-0.732835,1.73049,-9.63614,-9.90147,-4.97393,62.6416
2023-03-14 18:25:39:753,-0.738491,1.72804,-9.64102,-9.90793,-4.97848,62.6605
2023-03-14 18:25:39:763,-0.751841,1.72087,-9.62583,-9.91308,-4.97975,62.6777
2023-03-14 18:25:39:773,-0.747692,1.70842,-9.5962,-9.91446,-4.97889,62.7023
2023-03-14 18:25:39:783,-0.763214,1.6839,-9.58487,-9.91889,-4.97904,62.7293
2023-03-14 18:25:39:793,-0.78719,1.68516,-9.59648,-9.92544,-4.97979,62.757
2023-03-14 18:25:39:803,-0.835486,1.70462,-9.60735,-9.9344,-4.97977,62.7943
2023-03-14 18:25:39:813,-0.860835,1.70732,-9.62885,-9.9393,-4.97965,62.8277
2023-03-14 18:25:39:823,-0.865908,1.70005,-9.63533,-9.94272,-4.98011,62.8615
2023-03-14 18:25:39:833,-0.874895,1.7079,-9.61523,-9.94433,-4.98241,62.8944
2023-03-14 18:25:39:843,-0.870985,1.69901,-9.61522,-9.9458,-4.98902,62.9209
2023-03-14 18:25:39:853,-0.87805,1.69417,-9.61756,-9.9498,-4.99591,62.9497
2023-03-14 18:25:39:863,-0.888157,1.71678,-9.61685,-9.95502,-5.00655,62.9684
2023-03-14 18:25:39:873,-0.886177,1.71634,-9.63244,-9.95887,-5.01694,62.986
2023-03-14 18:25:39:883,-0.893053,1.71065,-9.63161,-9.96481,-5.03116,63.0008
2023-03-14 18:25:39:893,-0.929863,1.73623,-9.6286,-9.97201,-5.04854,63.0113
2023-03-14 18:25:39:903,-0.938031,1.77313,-9.64688,-9.97848,-5.06816,63.0206
2023-03-14 18:25:39:913,-0.915877,1.77551,-9.64031,-9.98233,-5.08112,63.0218
2023-03-14 18:25:39:923,-0.904753,1.77377,-9.62734,-9.98155,-5.09982,63.0185
2023-03-14 18:25:39:933,-0.878757,1.78663,-9.62508,-9.98194,-5.11544,63.0151
2023-03-14 18:25:39:943,-0.859798,1.77565,-9.61565,-9.97969,-5.12919,63.0149
2023-03-14 18:25:39:953,-0.854844,1.73731,-9.59733,-9.97494,-5.14448,63.0168
2023-03-14 18:25:39:963,-0.845416,1.70539,-9.58931,-9.97098,-5.15715,63.0202
2023-03-14 18:25:39:973,-0.844547,1.68948,-9.58332,-9.96589,-5.1704,63.0261
2023-03-14 18:25:39:983,-0.845612,1.6722,-9.57876,-9.96275,-5.17684,63.0365
2023-03-14 18:25:39:993,-0.851138,1.68465,-9.58664,-9.95973,-5.18324,63.052
2023-03-14 18:25:40:3,-0.861258,1.69684,-9.58497,-9.96089,-5.18774,63.0717
2023-03-14 18:25:40:13,-0.882015,1.6885,-9.59372,-9.95832,-5.19166,63.0946
2023-03-14 18:25:40:23,-0.904185,1.70288,-9.5882,-9.95986,-5.19247,63.1175
2023-03-14 18:25:40:33,-0.906666,1.70241,-9.59799,-9.96089,-5.19083,63.1424
2023-03-14 18:25:40:43,-0.910285,1.69483,-9.60433,-9.96222,-5.19165,63.1667
2023-03-14 18:25:40:53,-0.944019,1.69259,-9.58985,-9.96413,-5.18732,63.1924
2023-03-14 18:25:40:63,-0.954635,1.6972,-9.57483,-9.96818,-5.18386,63.2174
2023-03-14 18:25:40:73,-0.924662,1.71639,-9.57239,-9.97332,-5.18386,63.2379
2023-03-14 18:25:40:83,-0.913053,1.72763,-9.58118,-9.98624,-5.18707,63.2545
2023-03-14 18:25:40:93,-0.951676,1.73864,-9.59625,-9.9973,-5.18866,63.2718
2023-03-14 18:25:40:103,-0.984863,1.76212,-9.61639,-10.0054,-5.19064,63.2882
2023-03-14 18:25:40:113,-0.957623,1.77211,-9.62175,-10.0079,-5.19266,63.2969
2023-03-14 18:25:40:123,-0.894242,1.77212,-9.65414,-10.0141,-5.19243,63.3023
2023-03-14 18:25:40:133,-0.845001,1.76895,-9.65351,-10.0136,-5.19293,63.3044
2023-03-14 18:25:40:143,-0.862632,1.73562,-9.61843,-10.0092,-5.1969,63.3095
2023-03-14 18:25:40:153,-0.921875,1.72868,-9.6099,-10.0091,-5.20508,63.318
2023-03-14 18:25:40:163,-0.956152,1.7405,-9.63436,-10.0087,-5.20986,63.3255
2023-03-14 18:25:40:173,-0.966,1.75692,-9.63701,-10.0069,-5.21149,63.3279
2023-03-14 18:25:40:183,-0.944333,1.75454,-9.62367,-10.0036,-5.21477,63.3274
2023-03-14 18:25:40:193,-0.921387,1.75056,-9.6122,-9.99735,-5.21622,63.3239
2023-03-14 18:25:40:203,-0.879504,1.7541,-9.62345,-9.99371,-5.21244,63.3251
2023-03-14 18:25:40:213,-0.841029,1.76092,-9.62381,-9.98968,-5.20907,63.3269
2023-03-14 18:25:40:223,-0.850588,1.75319,-9.59591,-9.98556,-5.20614,63.3287
2023-03-14 18:25:40:233,-0.861731,1.73704,-9.58046,-9.97599,-5.20595,63.3306
2023-03-14 18:25:40:243,-0.884569,1.73929,-9.57877,-9.96901,-5.20719,63.3353
2023-03-14 18:25:40:253,-0.909728,1.75211,-9.59797,-9.96215,-5.20512,63.3437
2023-03-14 18:25:40:263,-0.934025,1.76418,-9.6222,-9.95342,-5.20302,63.3492
2023-03-14 18:25:40:273,-0.953856,1.76057,-9.64211,-9.94125,-5.20256,63.3553
2023-03-14 18:25:40:283,-0.959823,1.7487,-9.63314,-9.93037,-5.20245,63.3586
2023-03-14 18:25:40:293,-0.943101,1.73765,-9.61005,-9.91419,-5.19859,63.36
2023-03-14 18:25:40:303,-0.92272,1.71624,-9.61226,-9.89858,-5.19219,63.3551
2023-03-14 18:25:40:313,-0.897823,1.69596,-9.61331,-9.88771,-5.18533,63.3482
2023-03-14 18:25:40:323,-0.883181,1.69678,-9.61193,-9.87955,-5.1787,63.3423
2023-03-14 18:25:40:333,-0.854506,1.69716,-9.6059,-9.86918,-5.17522,63.3383
2023-03-14 18:25:40:343,-0.832089,1.70053,-9.61653,-9.86118,-5.1704,63.3331
2023-03-14 18:25:40:353,-0.836476,1.72082,-9.6269,-9.8538,-5.16895,63.3312
2023-03-14 18:25:40:363,-0.846254,1.7115,-9.6084,-9.84655,-5.16478,63.3312
2023-03-14 18:25:40:373,-0.843221,1.68518,-9.57966,-9.83769,-5.15823,63.3325
2023-03-14 18:25:40:383,-0.842651,1.67157,-9.56751,-9.82544,-5.15242,63.3399
2023-03-14 18:25:40:393,-0.855956,1.65783,-9.52989,-9.81503,-5.14671,63.344
2023-03-14 18:25:40:403,-0.837528,1.64003,-9.51003,-9.8087,-5.13782,63.3502
2023-03-14 18:25:40:413,-0.842124,1.65161,-9.55759,-9.80675,-5.12986,63.3588
2023-03-14 18:25:40:423,-0.876579,1.69768,-9.59901,-9.80757,-5.12135,63.3664
2023-03-14 18:25:40:433,-0.892701,1.72684,-9.62244,-9.81159,-5.10956,63.3743
2023-03-14 18:25:40:443,-0.838437,1.71271,-9.64932,-9.81144,-5.09547,63.3809
2023-03-14 18:25:40:453,-0.778784,1.68819,-9.64024,-9.81147,-5.07869,63.3921
2023-03-14 18:25:40:463,-0.793919,1.71107,-9.65538,-9.81278,-5.06646,63.4053
2023-03-14 18:25:40:473,-0.814641,1.74326,-9.69045,-9.80959,-5.0561,63.42
2023-03-14 18:25:40:483,-0.835815,1.74751,-9.66834,-9.80077,-5.05006,63.4365
2023-03-14 18:25:40:493,-0.869978,1.66774,-9.56874,-9.78847,-5.04223,63.4542
2023-03-14 18:25:40:503,-0.893573,1.61571,-9.48507,-9.78282,-5.04025,63.4674
2023-03-14 18:25:40:513,-0.904618,1.63914,-9.51251,-9.78542,-5.0377,63.4815
2023-03-14 18:25:40:523,-0.906766,1.68051,-9.58386,-9.78966,-5.03157,63.4949
2023-03-14 18:25:40:533,-0.911885,1.69762,-9.63121,-9.78995,-5.02876,63.5007
2023-03-14 18:25:40:543,-0.888452,1.66603,-9.63333,-9.79126,-5.02556,63.5058
2023-03-14 18:25:40:553,-0.853431,1.64639,-9.6452,-9.78763,-5.02247,63.5043
2023-03-14 18:25:40:563,-0.84599,1.65974,-9.67172,-9.78466,-5.01752,63.5047
2023-03-14 18:25:40:573,-0.845823,1.6649,-9.6896,-9.78292,-5.01703,63.5035
2023-03-14 18:25:40:583,-0.823708,1.65579,-9.6544,-9.77429,-5.01508,63.5014
2023-03-14 18:25:40:593,-0.82685,1.61943,-9.60866,-9.76298,-5.01358,63.4991
2023-03-14 18:25:40:603,-0.834203,1.58721,-9.57588,-9.75078,-5.01286,63.4987
2023-03-14 18:25:40:613,-0.84327,1.57627,-9.54919,-9.74314,-5.01322,63.4994
2023-03-14 18:25:40:623,-0.872373,1.58739,-9.56014,-9.74472,-5.00959,63.4986
2023-03-14 18:25:40:633,-0.895577,1.60121,-9.58691,-9.74272,-5.00395,63.4993
2023-03-14 18:25:40:643,-0.868955,1.60389,-9.5838,-9.74154,-4.99898,63.4983
2023-03-14 18:25:40:653,-0.853716,1.59127,-9.58966,-9.74469,-4.9925,63.4958
2023-03-14 18:25:40:663,-0.840921,1.58982,-9.60162,-9.74929,-4.99063,63.4917
2023-03-14 18:25:40:673,-0.839207,1.59217,-9.61789,-9.75478,-4.9888,63.4855
2023-03-14 18:25:40:683,-0.845054,1.62881,-9.63863,-9.76391,-4.98519,63.4811
2023-03-14 18:25:40:693,-0.834833,1.6523,-9.65021,-9.76864,-4.97738,63.4744
2023-03-14 18:25:40:703,-0.836026,1.66861,-9.63438,-9.77332,-4.97376,63.4674
2023-03-14 18:25:40:713,-0.830763,1.66513,-9.58799,-9.77613,-4.96792,63.4576
2023-03-14 18:25:40:723,-0.80989,1.65607,-9.56787,-9.77591,-4.95969,63.4509
2023-03-14 18:25:40:733,-0.813446,1.65058,-9.54217,-9.7785,-4.95159,63.4459
2023-03-14 18:25:40:743,-0.81296,1.65888,-9.54594,-9.78484,-4.93942,63.4441
2023-03-14 18:25:40:753,-0.823522,1.68111,-9.57403,-9.79087,-4.93047,63.4427
2023-03-14 18:25:40:763,-0.839523,1.69319,-9.59689,-9.7992,-4.92098,63.4449
2023-03-14 18:25:40:773,-0.833113,1.70372,-9.63539,-9.80901,-4.90791,63.4462
2023-03-14 18:25:40:783,-0.832331,1.72095,-9.65675,-9.81749,-4.89924,63.4476
2023-03-14 18:25:40:793,-0.852319,1.70937,-9.64958,-9.82428,-4.89026,63.4512
2023-03-14 18:25:40:803,-0.856257,1.69905,-9.64779,-9.8328,-4.8809,63.4573
2023-03-14 18:25:40:813,-0.837646,1.71619,-9.65042,-9.84169,-4.8726,63.4593
2023-03-14 18:25:40:823,-0.816485,1.73669,-9.66478,-9.84832,-4.85677,63.4585
2023-03-14 18:25:40:833,-0.811359,1.74788,-9.69013,-9.85361,-4.84836,63.4597
2023-03-14 18:25:40:843,-0.829712,1.75368,-9.64445,-9.85391,-4.84393,63.4562
2023-03-14 18:25:40:853,-0.835948,1.70817,-9.57858,-9.85321,-4.8399,63.4511
2023-03-14 18:25:40:863,-0.856005,1.69302,-9.60694,-9.85354,-4.834,63.4503
2023-03-14 18:25:40:873,-0.887732,1.76218,-9.63073,-9.85922,-4.82491,63.4478
2023-03-14 18:25:40:883,-0.882158,1.75535,-9.63222,-9.8561,-4.81104,63.4442
2023-03-14 18:25:40:893,-0.818582,1.73154,-9.61458,-9.8524,-4.79689,63.4361
2023-03-14 18:25:40:903,-0.751966,1.71295,-9.62776,-9.84605,-4.78616,63.4242
2023-03-14 18:25:40:913,-0.754037,1.69312,-9.63146,-9.83861,-4.78157,63.419
2023-03-14 18:25:40:923,-0.786396,1.70405,-9.62647,-9.83346,-4.779,63.4121
2023-03-14 18:25:40:933,-0.808092,1.69317,-9.62156,-9.82806,-4.77437,63.402
2023-03-14 18:25:40:943,-0.78625,1.69702,-9.61256,-9.82522,-4.77334,63.3929
2023-03-14 18:25:40:953,-0.775576,1.71515,-9.63232,-9.82291,-4.76842,63.3881
2023-03-14 18:25:40:963,-0.763853,1.72869,-9.63397,-9.82129,-4.76886,63.3794
2023-03-14 18:25:40:973,-0.759097,1.69395,-9.59716,-9.8162,-4.76628,63.3701
2023-03-14 18:25:40:983,-0.750172,1.70856,-9.59505,-9.81723,-4.76229,63.3661
2023-03-14 18:25:40:993,-0.735888,1.74481,-9.63548,-9.82096,-4.75927,63.3648
2023-03-14 18:25:41:3,-0.748037,1.75173,-9.65154,-9.82229,-4.75797,63.3637
2023-03-14 18:25:41:13,-0.772559,1.73377,-9.59965,-9.81711,-4.76224,63.3685
2023-03-14 18:25:41:23,-0.799998,1.69367,-9.54804,-9.81649,-4.7652,63.3691
2023-03-14 18:25:41:33,-0.793684,1.68128,-9.55364,-9.81462,-4.76906,63.373
2023-03-14 18:25:41:43,-0.789571,1.69501,-9.56195,-9.81789,-4.77176,63.3735
2023-03-14 18:25:41:53,-0.786097,1.68429,-9.56908,-9.82022,-4.7766,63.3761
2023-03-14 18:25:41:63,-0.761855,1.66303,-9.58188,-9.82335,-4.7801,63.3765
2023-03-14 18:25:41:73,-0.755744,1.69406,-9.65514,-9.83736,-4.78505,63.3821
2023-03-14 18:25:41:83,-0.785628,1.77901,-9.70988,-9.84339,-4.79537,63.3933
2023-03-14 18:25:41:93,-0.85253,1.74416,-9.65,-9.8417,-4.80033,63.4022
2023-03-14 18:25:41:103,-0.846941,1.65834,-9.53147,-9.83546,-4.80477,63.4137
2023-03-14 18:25:41:113,-0.821289,1.61747,-9.4998,-9.83651,-4.80778,63.4245
2023-03-14 18:25:41:123,-0.840905,1.65826,-9.53096,-9.8461,-4.80783,63.4424
2023-03-14 18:25:41:133,-0.886024,1.70002,-9.57161,-9.8576,-4.80506,63.4616
2023-03-14 18:25:41:143,-0.852809,1.66978,-9.57529,-9.86904,-4.80271,63.4811
2023-03-14 18:25:41:153,-0.826197,1.663,-9.59314,-9.88281,-4.79791,63.5025
2023-03-14 18:25:41:163,-0.854351,1.71137,-9.62937,-9.89701,-4.791,63.5227
2023-03-14 18:25:41:173,-0.893939,1.75937,-9.6352,-9.91064,-4.78375,63.5406
2023-03-14 18:25:41:183,-0.893672,1.74632,-9.64331,-9.91989,-4.77526,63.5538
2023-03-14 18:25:41:193,-0.871978,1.7221,-9.64496,-9.92589,-4.76769,63.565
2023-03-14 18:25:41:203,-0.865332,1.72685,-9.63297,-9.93095,-4.75872,63.571
2023-03-14 18:25:41:213,-0.868891,1.74192,-9.61197,-9.93748,-4.74729,63.5738
2023-03-14 18:25:41:223,-0.849075,1.74187,-9.61908,-9.93991,-4.7376,63.5753
2023-03-14 18:25:41:233,-0.823861,1.74281,-9.62446,-9.94331,-4.72985,63.5713
2023-03-14 18:25:41:243,-0.799072,1.74728,-9.62815,-9.94066,-4.72526,63.5681
2023-03-14 18:25:41:253,-0.784551,1.74533,-9.61222,-9.94088,-4.72258,63.5612
2023-03-14 18:25:41:263,-0.786702,1.728,-9.61301,-9.93989,-4.71953,63.5512
2023-03-14 18:25:41:273,-0.781928,1.71634,-9.60813,-9.94232,-4.71609,63.5453
2023-03-14 18:25:41:283,-0.764584,1.73252,-9.60945,-9.94236,-4.71413,63.5371
2023-03-14 18:25:41:293,-0.774316,1.73325,-9.61998,-9.94301,-4.71395,63.5329
2023-03-14 18:25:41:303,-0.78733,1.71978,-9.61824,-9.94198,-4.71433,63.5352
2023-03-14 18:25:41:313,-0.791846,1.71485,-9.62393,-9.9425,-4.71347,63.5345
2023-03-14 18:25:41:323,-0.780682,1.70555,-9.63374,-9.9424,-4.71127,63.5363
2023-03-14 18:25:41:333,-0.797738,1.7257,-9.65094,-9.93922,-4.70654,63.5409
2023-03-14 18:25:41:343,-0.811776,1.74323,-9.66354,-9.93735,-4.70182,63.5462
2023-03-14 18:25:41:353,-0.803286,1.73458,-9.64289,-9.93129,-4.6956,63.5478
2023-03-14 18:25:41:363,-0.791692,1.71743,-9.62256,-9.92295,-4.68802,63.5502
2023-03-14 18:25:41:373,-0.79815,1.70496,-9.61553,-9.91512,-4.68171,63.5522
2023-03-14 18:25:41:383,-0.80002,1.68253,-9.6042,-9.90585,-4.67379,63.551
2023-03-14 18:25:41:393,-0.780557,1.67617,-9.58773,-9.89715,-4.67218,63.5499
2023-03-14 18:25:41:403,-0.752558,1.65779,-9.61269,-9.8917,-4.66383,63.5442
2023-03-14 18:25:41:413,-0.728169,1.66951,-9.63272,-9.88653,-4.65706,63.5415
2023-03-14 18:25:41:423,-0.692103,1.6719,-9.6478,-9.88151,-4.65489,63.5381
2023-03-14 18:25:41:433,-0.691362,1.66893,-9.65858,-9.87546,-4.65827,63.5372
2023-03-14 18:25:41:443,-0.71766,1.68827,-9.66433,-9.87225,-4.66332,63.5383
2023-03-14 18:25:41:453,-0.748766,1.70288,-9.66002,-9.8694,-4.66961,63.5427
2023-03-14 18:25:41:463,-0.766186,1.68637,-9.64742,-9.85901,-4.67648,63.5468
2023-03-14 18:25:41:473,-0.789999,1.68476,-9.60594,-9.85103,-4.68689,63.5553
2023-03-14 18:25:41:483,-0.799183,1.67692,-9.58227,-9.8464,-4.69489,63.5639
2023-03-14 18:25:41:493,-0.802323,1.67394,-9.57476,-9.84391,-4.7028,63.571
2023-03-14 18:25:41:503,-0.816934,1.68647,-9.56055,-9.8398,-4.70892,63.5837
2023-03-14 18:25:41:513,-0.837343,1.68301,-9.54992,-9.83749,-4.71572,63.5982
2023-03-14 18:25:41:523,-0.84079,1.67794,-9.56277,-9.83715,-4.72148,63.6116
2023-03-14 18:25:41:533,-0.838341,1.68064,-9.57741,-9.83767,-4.72516,63.6187
2023-03-14 18:25:41:543,-0.821085,1.67672,-9.58609,-9.839,-4.73049,63.6276
2023-03-14 18:25:41:553,-0.824078,1.66848,-9.59511,-9.83964,-4.73322,63.6357
2023-03-14 18:25:41:563,-0.843384,1.67233,-9.60386,-9.84205,-4.73689,63.6438
2023-03-14 18:25:41:573,-0.825769,1.68492,-9.62529,-9.84745,-4.7389,63.6522
2023-03-14 18:25:41:583,-0.820411,1.68908,-9.63664,-9.84952,-4.74204,63.6604
2023-03-14 18:25:41:593,-0.799525,1.67131,-9.63369,-9.84892,-4.74476,63.6687
2023-03-14 18:25:41:603,-0.75457,1.6451,-9.65626,-9.85036,-4.74608,63.6768
2023-03-14 18:25:41:613,-0.751556,1.64933,-9.67993,-9.85186,-4.74977,63.6826
2023-03-14 18:25:41:623,-0.777523,1.64021,-9.67621,-9.85147,-4.75627,63.6931
2023-03-14 18:25:41:633,-0.810054,1.63403,-9.67584,-9.84786,-4.76428,63.7109
2023-03-14 18:25:41:643,-0.863911,1.65404,-9.67594,-9.84753,-4.76773,63.732
2023-03-14 18:25:41:653,-0.893127,1.66845,-9.64544,-9.8434,-4.76448,63.753
2023-03-14 18:25:41:663,-0.873355,1.65461,-9.5714,-9.83587,-4.75225,63.7722
2023-03-14 18:25:41:673,-0.823929,1.57461,-9.49011,-9.83374,-4.73477,63.7913
2023-03-14 18:25:41:683,-0.812164,1.53925,-9.44007,-9.8335,-4.71509,63.8142
2023-03-14 18:25:41:693,-0.807512,1.55761,-9.45969,-9.84267,-4.68947,63.8352
2023-03-14 18:25:41:703,-0.80181,1.58769,-9.47921,-9.85773,-4.66308,63.8603
2023-03-14 18:25:41:713,-0.785879,1.58463,-9.49162,-9.88033,-4.63292,63.883
2023-03-14 18:25:41:723,-0.759687,1.61259,-9.55915,-9.91124,-4.60124,63.9057
2023-03-14 18:25:41:733,-0.76618,1.7263,-9.65761,-9.94479,-4.56554,63.931
2023-03-14 18:25:41:743,-0.765079,1.77768,-9.61681,-9.97528,-4.53205,63.9491
2023-03-14 18:25:41:753,-0.722717,1.67958,-9.43968,-9.99708,-4.49522,63.9641
2023-03-14 18:25:41:763,-0.628617,1.62997,-9.35065,-10.0321,-4.45856,63.9835
2023-03-14 18:25:41:773,-0.558252,1.67269,-9.48031,-10.0877,-4.42464,64.0097
2023-03-14 18:25:41:783,-0.584653,1.85297,-9.64723,-10.1498,-4.39445,64.0365
2023-03-14 18:25:41:793,-0.635179,1.9531,-9.68535,-10.2018,-4.37414,64.0655
2023-03-14 18:25:41:803,-0.626463,1.89849,-9.58559,-10.2451,-4.3582,64.096
2023-03-14 18:25:41:813,-0.598561,1.85738,-9.52229,-10.2923,-4.34667,64.1304
2023-03-14 18:25:41:823,-0.627433,1.9297,-9.60254,-10.3484,-4.33771,64.1701
2023-03-14 18:25:41:833,-0.692789,2.0229,-9.71659,-10.4045,-4.33349,64.2141
2023-03-14 18:25:41:843,-0.710739,2.04392,-9.75595,-10.4522,-4.33456,64.2562
2023-03-14 18:25:41:853,-0.7349,2.03845,-9.72134,-10.4904,-4.34356,64.2984
2023-03-14 18:25:41:863,-0.797484,2.00737,-9.66195,-10.5223,-4.35571,64.3444
2023-03-14 18:25:41:873,-0.862519,2.00262,-9.65103,-10.5578,-4.37189,64.392
2023-03-14 18:25:41:883,-0.914015,2.02903,-9.65403,-10.5885,-4.39012,64.4348
2023-03-14 18:25:41:893,-0.952976,2.03955,-9.66026,-10.6144,-4.40698,64.4752
2023-03-14 18:25:41:903,-1.01431,2.05196,-9.68874,-10.6373,-4.42673,64.514
2023-03-14 18:25:41:913,-1.05621,2.07042,-9.69488,-10.6528,-4.44189,64.5426
2023-03-14 18:25:41:923,-1.06225,2.03509,-9.65975,-10.6599,-4.45504,64.5667
2023-03-14 18:25:41:933,-1.05717,1.97946,-9.63809,-10.6609,-4.46552,64.5831
2023-03-14 18:25:41:943,-1.05245,1.94516,-9.62653,-10.6609,-4.46865,64.5898
2023-03-14 18:25:41:953,-1.03727,1.91208,-9.61394,-10.6519,-4.46488,64.5917
2023-03-14 18:25:41:963,-1.01409,1.89183,-9.6618,-10.6412,-4.46333,64.5888
2023-03-14 18:25:41:973,-0.993553,1.88999,-9.71451,-10.6273,-4.45949,64.5718
2023-03-14 18:25:41:983,-0.974579,1.88128,-9.73325,-10.6067,-4.45602,64.5479
2023-03-14 18:25:41:993,-0.951555,1.83016,-9.7088,-10.5779,-4.44811,64.5191
2023-03-14 18:25:42:3,-0.921623,1.76432,-9.64159,-10.5386,-4.43751,64.4815
2023-03-14 18:25:42:13,-0.857163,1.72157,-9.58507,-10.5014,-4.42621,64.4392
2023-03-14 18:25:42:23,-0.79889,1.6756,-9.55242,-10.4668,-4.41137,64.3936
2023-03-14 18:25:42:33,-0.753702,1.6623,-9.53222,-10.437,-4.39574,64.3461
2023-03-14 18:25:42:43,-0.697321,1.64733,-9.5229,-10.4042,-4.37723,64.294
2023-03-14 18:25:42:53,-0.639789,1.62141,-9.51908,-10.3773,-4.35439,64.2445
2023-03-14 18:25:42:63,-0.582324,1.58994,-9.50702,-10.3573,-4.33544,64.2026
2023-03-14 18:25:42:73,-0.54655,1.5592,-9.50285,-10.3398,-4.30998,64.166
2023-03-14 18:25:42:83,-0.529191,1.57361,-9.55894,-10.3271,-4.29068,64.1353
2023-03-14 18:25:42:93,-0.544533,1.61,-9.57909,-10.3207,-4.27065,64.1107
2023-03-14 18:25:42:103,-0.553877,1.60426,-9.56396,-10.3135,-4.2516,64.0926
2023-03-14 18:25:42:113,-0.570362,1.57314,-9.50309,-10.309,-4.23472,64.085
2023-03-14 18:25:42:123,-0.582592,1.58396,-9.4613,-10.3138,-4.21657,64.0823
2023-03-14 18:25:42:133,-0.623785,1.61248,-9.48284,-10.3282,-4.19882,64.0836
2023-03-14 18:25:42:143,-0.676601,1.66996,-9.55197,-10.3523,-4.17754,64.093
2023-03-14 18:25:42:153,-0.724477,1.74442,-9.63356,-10.3783,-4.15404,64.0986
2023-03-14 18:25:42:163,-0.732699,1.79609,-9.70191,-10.402,-4.13177,64.1019
2023-03-14 18:25:42:173,-0.720628,1.79408,-9.70268,-10.4183,-4.10685,64.0983
2023-03-14 18:25:42:183,-0.683762,1.74284,-9.64396,-10.4281,-4.07827,64.0831
2023-03-14 18:25:42:193,-0.656521,1.74128,-9.60382,-10.4447,-4.05463,64.0681
2023-03-14 18:25:42:203,-0.656496,1.75929,-9.60698,-10.4638,-4.03155,64.0532
