Timestamp,Acceleration_x,Acceleration_y,Acceleration_z,roll,pitch,yaw
2023-03-15 13:51:54:696,-1.17292,-0.151539,-9.56887,0.269911,-6.76777,61.9306
2023-03-15 13:51:54:699,-1.20085,-0.142723,-9.59889,0.199442,-6.74185,62.0081
2023-03-15 13:51:54:709,-1.2425,-0.12016,-9.65399,0.122086,-6.72365,62.086
2023-03-15 13:51:54:719,-1.3035,-0.0828396,-9.74882,0.0376401,-6.7125,62.1694
2023-03-15 13:51:54:729,-1.41076,-0.0291482,-9.79731,-0.0465427,-6.70893,62.258
2023-03-15 13:51:54:739,-1.52255,0.0478991,-9.8316,-0.137945,-6.71367,62.3455
2023-03-15 13:51:54:749,-1.62195,0.145526,-9.8902,-0.22415,-6.72181,62.4332
2023-03-15 13:51:54:759,-1.72964,0.207365,-9.89118,-0.299041,-6.73071,62.5167
2023-03-15 13:51:54:769,-1.82754,0.213795,-9.77957,-0.355989,-6.73684,62.5901
2023-03-15 13:51:54:779,-1.86889,0.140171,-9.65656,-0.396322,-6.73582,62.6554
2023-03-15 13:51:54:789,-1.86147,0.0740853,-9.55722,-0.427295,-6.71597,62.708
2023-03-15 13:51:54:799,-1.74721,0.034443,-9.50683,-0.456073,-6.68144,62.7492
2023-03-15 13:51:54:809,-1.59145,0.0161875,-9.48135,-0.481946,-6.63189,62.776
2023-03-15 13:51:54:819,-1.48569,0.000104276,-9.47336,-0.508593,-6.56626,62.8004
2023-03-15 13:51:54:829,-1.42686,-0.00425685,-9.46,-0.536894,-6.49014,62.8225
2023-03-15 13:51:54:839,-1.3559,-0.0101624,-9.42962,-0.564967,-6.40602,62.8441
2023-03-15 13:51:54:849,-1.26827,-0.0327279,-9.39812,-0.589559,-6.30658,62.8622
2023-03-15 13:51:54:859,-1.19534,-0.0475342,-9.33681,-0.61529,-6.19783,62.8824
2023-03-15 13:51:54:869,-1.09937,-0.0711702,-9.31967,-0.650037,-6.07439,62.9062
2023-03-15 13:51:54:879,-1.0423,-0.0586061,-9.32618,-0.697948,-5.9464,62.929
2023-03-15 13:51:54:889,-1.03612,-0.0135987,-9.34278,-0.759715,-5.81053,62.9549
2023-03-15 13:51:54:899,-0.992992,0.0792641,-9.40424,-0.833933,-5.67609,62.9796
2023-03-15 13:51:54:909,-0.910032,0.176595,-9.49088,-0.925442,-5.53901,63.0035
2023-03-15 13:51:54:919,-0.816367,0.254592,-9.53875,-1.02101,-5.39823,63.0214
2023-03-15 13:51:54:929,-0.750881,0.314804,-9.58372,-1.11963,-5.25696,63.0371
2023-03-15 13:51:54:939,-0.684469,0.368515,-9.6505,-1.2228,-5.12003,63.0542
2023-03-15 13:51:54:949,-0.600056,0.404055,-9.73426,-1.32418,-4.97922,63.0637
2023-03-15 13:51:54:959,-0.538535,0.437282,-9.7952,-1.43106,-4.84397,63.0724
2023-03-15 13:51:54:969,-0.507101,0.454688,-9.84707,-1.53371,-4.71337,63.0825
2023-03-15 13:51:54:979,-0.476806,0.485889,-9.87911,-1.63313,-4.58423,63.0884
2023-03-15 13:51:54:989,-0.421197,0.510222,-9.87616,-1.72721,-4.46128,63.0923
2023-03-15 13:51:54:999,-0.316518,0.524923,-9.86783,-1.81746,-4.33909,63.0905
2023-03-15 13:51:55:9,-0.145519,0.503067,-9.89506,-1.9056,-4.21739,63.0832
2023-03-15 13:51:55:19,0.00441312,0.496512,-9.94221,-1.99632,-4.10373,63.0741
2023-03-15 13:51:55:29,0.0841227,0.490885,-9.99024,-2.08048,-3.99968,63.0694
2023-03-15 13:51:55:39,0.0669566,0.511881,-10.032,-2.16846,-3.90624,63.0731
2023-03-15 13:51:55:49,0.017865,0.564579,-10.0459,-2.25467,-3.81987,63.0873
2023-03-15 13:51:55:59,0.0106267,0.582151,-10.0753,-2.33464,-3.73389,63.1021
2023-03-15 13:51:55:69,0.0514146,0.570227,-10.1058,-2.40675,-3.65278,63.1187
2023-03-15 13:51:55:79,0.126654,0.559884,-10.1306,-2.46737,-3.56806,63.1391
2023-03-15 13:51:55:89,0.242036,0.563289,-10.1428,-2.51847,-3.48769,63.1664
2023-03-15 13:51:55:99,0.298748,0.511148,-10.1084,-2.55755,-3.41272,63.2018
2023-03-15 13:51:55:109,0.233467,0.43519,-10.016,-2.57866,-3.3469,63.2557
2023-03-15 13:51:55:119,0.0792878,0.395711,-9.91887,-2.59839,-3.2825,63.3285
2023-03-15 13:51:55:129,-0.0656342,0.388195,-9.8257,-2.6158,-3.22383,63.4132
2023-03-15 13:51:55:139,-0.119682,0.388686,-9.75924,-2.63332,-3.15716,63.4992
2023-03-15 13:51:55:149,-0.127164,0.392146,-9.7573,-2.6538,-3.08897,63.5911
2023-03-15 13:51:55:159,-0.120182,0.409713,-9.75553,-2.67578,-3.02123,63.677
2023-03-15 13:51:55:169,-0.0778822,0.406356,-9.73639,-2.70128,-2.95942,63.7577
2023-03-15 13:51:55:179,-0.105867,0.385948,-9.69874,-2.72862,-2.90809,63.8363
2023-03-15 13:51:55:189,-0.211965,0.385746,-9.6569,-2.75504,-2.86891,63.9098
2023-03-15 13:51:55:199,-0.242525,0.380976,-9.64998,-2.79091,-2.84313,63.9797
2023-03-15 13:51:55:209,-0.233855,0.387816,-9.64677,-2.83836,-2.8272,64.0363
2023-03-15 13:51:55:219,-0.321575,0.461366,-9.67975,-2.89824,-2.82573,64.0942
2023-03-15 13:51:55:229,-0.41934,0.588531,-9.76442,-2.9753,-2.83652,64.1449
2023-03-15 13:51:55:239,-0.449792,0.693251,-9.89009,-3.05869,-2.86027,64.184
2023-03-15 13:51:55:249,-0.42902,0.751246,-9.98094,-3.13754,-2.89793,64.2113
2023-03-15 13:51:55:259,-0.463417,0.809643,-10.0156,-3.21897,-2.95768,64.2292
2023-03-15 13:51:55:269,-0.567879,0.865668,-10.0214,-3.29225,-3.03717,64.2409
2023-03-15 13:51:55:279,-0.724779,0.87725,-9.97744,-3.35701,-3.13463,64.245
2023-03-15 13:51:55:289,-0.837215,0.896596,-9.90535,-3.41731,-3.24561,64.2415
2023-03-15 13:51:55:299,-0.86953,0.913633,-9.87751,-3.47116,-3.36222,64.2241
2023-03-15 13:51:55:308,-0.839594,0.909957,-9.86742,-3.51366,-3.47761,64.1935
2023-03-15 13:51:55:318,-0.757197,0.888168,-9.86995,-3.55059,-3.58705,64.1583
2023-03-15 13:51:55:328,-0.672087,0.863281,-9.91,-3.57975,-3.69557,64.1165
2023-03-15 13:51:55:338,-0.584084,0.852435,-9.94957,-3.60055,-3.7994,64.0817
2023-03-15 13:51:55:348,-0.591034,0.819084,-9.92839,-3.61078,-3.90544,64.0525
2023-03-15 13:51:55:358,-0.676104,0.77683,-9.85141,-3.61027,-4.01428,64.0338
2023-03-15 13:51:55:368,-0.79341,0.744348,-9.7433,-3.60632,-4.1201,64.0245
2023-03-15 13:51:55:378,-0.890037,0.750334,-9.72066,-3.60025,-4.22038,64.0278
2023-03-15 13:51:55:388,-0.958013,0.794483,-9.75045,-3.59719,-4.31313,64.0339
2023-03-15 13:51:55:398,-0.925406,0.797659,-9.79828,-3.58409,-4.39445,64.039
2023-03-15 13:51:55:409,-0.869051,0.755148,-9.77228,-3.56416,-4.47322,64.0459
2023-03-15 13:51:55:418,-0.864438,0.724951,-9.72794,-3.53513,-4.54651,64.0564
2023-03-15 13:51:55:429,-0.858863,0.706991,-9.71809,-3.50726,-4.61898,64.068
2023-03-15 13:51:55:439,-0.874759,0.679195,-9.69376,-3.47859,-4.6914,64.0812
2023-03-15 13:51:55:449,-0.919007,0.673511,-9.7009,-3.45409,-4.76528,64.0984
2023-03-15 13:51:55:459,-0.954807,0.647416,-9.72369,-3.4268,-4.84506,64.1177
2023-03-15 13:51:55:469,-1.01804,0.658886,-9.75059,-3.39973,-4.92406,64.1422
2023-03-15 13:51:55:479,-1.08904,0.65444,-9.75162,-3.372,-5.00085,64.1694
2023-03-15 13:51:55:489,-1.13209,0.636341,-9.71578,-3.34535,-5.08021,64.1917
2023-03-15 13:51:55:499,-1.1551,0.63246,-9.69758,-3.32121,-5.15456,64.2075
2023-03-15 13:51:55:509,-1.16073,0.638496,-9.71492,-3.29078,-5.22432,64.218
2023-03-15 13:51:55:519,-1.17216,0.630106,-9.69009,-3.26096,-5.2912,64.2211
2023-03-15 13:51:55:529,-1.20823,0.620142,-9.67051,-3.23207,-5.35621,64.2179
2023-03-15 13:51:55:539,-1.22284,0.633957,-9.66661,-3.20273,-5.42168,64.2093
2023-03-15 13:51:55:549,-1.23302,0.638991,-9.65777,-3.17249,-5.48806,64.1925
2023-03-15 13:51:55:559,-1.18539,0.616607,-9.66238,-3.14462,-5.55312,64.1663
2023-03-15 13:51:55:569,-1.15427,0.601997,-9.69704,-3.10981,-5.61412,64.1343
2023-03-15 13:51:55:579,-1.18566,0.600291,-9.70197,-3.07905,-5.67235,64.1007
2023-03-15 13:51:55:589,-1.21333,0.574627,-9.68187,-3.04188,-5.72405,64.0649
2023-03-15 13:51:55:599,-1.24612,0.533761,-9.63612,-3.00439,-5.77892,64.0244
2023-03-15 13:51:55:609,-1.2602,0.513678,-9.60934,-2.97063,-5.83561,63.979
2023-03-15 13:51:55:619,-1.28262,0.511812,-9.63066,-2.94043,-5.88536,63.9293
2023-03-15 13:51:55:629,-1.33447,0.522052,-9.652,-2.9075,-5.93232,63.8704
2023-03-15 13:51:55:639,-1.42344,0.561029,-9.67635,-2.87983,-5.97454,63.8038
2023-03-15 13:51:55:649,-1.48374,0.591094,-9.72367,-2.84996,-6.01698,63.7266
2023-03-15 13:51:55:659,-1.40647,0.623179,-9.77763,-2.81395,-6.04838,63.6329
2023-03-15 13:51:55:669,-1.24444,0.611841,-9.80247,-2.772,-6.07503,63.5219
2023-03-15 13:51:55:679,-1.15085,0.546116,-9.7748,-2.72206,-6.09882,63.4017
2023-03-15 13:51:55:689,-1.18568,0.492955,-9.72134,-2.66986,-6.12659,63.285
2023-03-15 13:51:55:699,-1.29948,0.477283,-9.67852,-2.61775,-6.15631,63.163
2023-03-15 13:51:55:709,-1.50128,0.503229,-9.67094,-2.56708,-6.18758,63.0353
2023-03-15 13:51:55:719,-1.84489,0.560076,-9.70246,-2.51972,-6.22106,62.9005
2023-03-15 13:51:55:729,-2.1784,0.691158,-9.76522,-2.4763,-6.2524,62.7406
2023-03-15 13:51:55:739,-2.27882,0.795995,-9.84576,-2.43155,-6.27622,62.5365
2023-03-15 13:51:55:749,-2.27611,0.811349,-9.91347,-2.37673,-6.30264,62.2723
2023-03-15 13:51:55:759,-2.55844,0.841659,-9.93697,-2.3129,-6.34713,61.955
2023-03-15 13:51:55:769,-3.38748,0.967853,-9.9305,-2.24673,-6.42252,61.5873
2023-03-15 13:51:55:779,-4.56574,1.19255,-9.9182,-2.18158,-6.53129,61.134
2023-03-15 13:51:55:789,-5.71954,1.558,-9.93933,-2.1183,-6.66663,60.5442
2023-03-15 13:51:55:799,-6.47306,1.93053,-9.93017,-2.04116,-6.81869,59.747
2023-03-15 13:51:55:809,-6.52565,2.11542,-9.91441,-1.92793,-6.98308,58.6827
2023-03-15 13:51:55:819,-5.89057,2.09438,-9.89334,-1.76921,-7.16267,57.3346
2023-03-15 13:51:55:829,-5.23146,1.97833,-9.78123,-1.57323,-7.36656,55.7313
2023-03-15 13:51:55:839,-5.41414,1.92938,-9.48773,-1.35145,-7.6275,53.9218
2023-03-15 13:51:55:849,-6.35289,2.22433,-9.18531,-1.13202,-7.9564,51.9147
2023-03-15 13:51:55:859,-7.31205,2.78509,-9.07036,-0.926922,-8.33164,49.6715
2023-03-15 13:51:55:869,-7.88153,3.40643,-9.04579,-0.72262,-8.72909,47.1309
2023-03-15 13:51:55:879,-7.62547,4.01752,-9.12002,-0.500738,-9.12253,44.2414
2023-03-15 13:51:55:889,-6.3695,4.44013,-9.28043,-0.24078,-9.48656,40.9931
2023-03-15 13:51:55:899,-4.67714,4.5009,-9.3763,0.0702853,-9.8218,37.451
2023-03-15 13:51:55:909,-3.15764,4.229,-9.41772,0.434934,-10.1314,33.7051
2023-03-15 13:51:55:919,-2.1376,3.91297,-9.42223,0.824037,-10.4274,29.8575
2023-03-15 13:51:55:929,-1.9631,3.78764,-9.2802,1.22245,-10.7258,25.9727
2023-03-15 13:51:55:939,-2.73389,3.8547,-8.99284,1.6046,-11.039,22.0763
2023-03-15 13:51:55:949,-3.49859,4.06989,-8.84409,1.96728,-11.3324,18.1319
2023-03-15 13:51:55:959,-3.34225,4.25844,-8.9583,2.31821,-11.551,14.098
2023-03-15 13:51:55:969,-2.3087,4.23326,-9.2547,2.66989,-11.6502,9.99521
2023-03-15 13:51:55:979,-1.04135,4.00751,-9.54506,3.02688,-11.6291,5.88864
2023-03-15 13:51:55:989,0.14503,3.67328,-9.72667,3.38745,-11.5253,1.84057
2023-03-15 13:51:55:999,1.00374,3.23561,-9.74739,3.74162,-11.3807,-2.09671
2023-03-15 13:51:56:9,1.39475,2.72783,-9.64415,4.07548,-11.2286,-5.88065
2023-03-15 13:51:56:19,1.45633,2.36415,-9.47424,4.37097,-11.0853,-9.49114
2023-03-15 13:51:56:29,1.449,2.04007,-9.31339,4.62342,-10.9416,-12.9249
2023-03-15 13:51:56:39,1.52321,1.66901,-9.26913,4.82824,-10.789,-16.1826
2023-03-15 13:51:56:49,1.75092,1.32172,-9.37502,4.98732,-10.6202,-19.2581
2023-03-15 13:51:56:59,2.0458,1.04361,-9.65075,5.10104,-10.4429,-22.1389
2023-03-15 13:51:56:69,2.25073,0.834663,-9.89335,5.17539,-10.2669,-24.8243
2023-03-15 13:51:56:79,2.33656,0.584573,-10.0277,5.22496,-10.1023,-27.3022
2023-03-15 13:51:56:89,2.30031,0.350458,-10.0587,5.25853,-9.94847,-29.5813
2023-03-15 13:51:56:99,2.06035,0.162857,-9.98342,5.27326,-9.80741,-31.6591
2023-03-15 13:51:56:109,1.79039,0.00119774,-9.92015,5.26747,-9.67784,-33.5552
2023-03-15 13:51:56:119,1.72467,-0.0481644,-9.99656,5.23839,-9.53864,-35.2786
2023-03-15 13:51:56:129,1.77415,-0.101245,-10.0933,5.19819,-9.38715,-36.8379
2023-03-15 13:51:56:139,1.7327,-0.204407,-10.1201,5.15014,-9.23057,-38.2332
2023-03-15 13:51:56:149,1.60636,-0.274306,-10.1015,5.09387,-9.08263,-39.4738
2023-03-15 13:51:56:159,1.37995,-0.313051,-10.0703,5.02232,-8.94372,-40.5712
2023-03-15 13:51:56:169,1.11053,-0.300017,-10.0592,4.93955,-8.81212,-41.5424
2023-03-15 13:51:56:179,0.982437,-0.256282,-10.15,4.84788,-8.67702,-42.4069
2023-03-15 13:51:56:189,1.07017,-0.242748,-10.2605,4.75079,-8.52888,-43.1646
2023-03-15 13:51:56:199,1.21155,-0.334897,-10.2417,4.66885,-8.37844,-43.8128
2023-03-15 13:51:56:209,1.29843,-0.430804,-10.167,4.58355,-8.23231,-44.3462
2023-03-15 13:51:56:219,1.21666,-0.460089,-10.1553,4.49538,-8.10632,-44.7657
2023-03-15 13:51:56:229,1.04024,-0.410464,-10.2069,4.38979,-8.00748,-45.0865
2023-03-15 13:51:56:239,0.830575,-0.343121,-10.2154,4.28076,-7.92339,-45.3138
2023-03-15 13:51:56:249,0.583164,-0.311591,-10.1363,4.18246,-7.85475,-45.4631
2023-03-15 13:51:56:259,0.308598,-0.326845,-10.0716,4.09052,-7.79559,-45.5391
2023-03-15 13:51:56:269,0.195664,-0.370295,-10.0341,4.0076,-7.73296,-45.5538
2023-03-15 13:51:56:279,0.394392,-0.482998,-10.0535,3.93633,-7.66984,-45.5132
2023-03-15 13:51:56:289,0.726002,-0.568536,-10.1134,3.87424,-7.60756,-45.4025
2023-03-15 13:51:56:299,0.796059,-0.553318,-10.0885,3.81807,-7.56355,-45.2093
2023-03-15 13:51:56:309,0.677032,-0.519599,-9.9719,3.76583,-7.54789,-44.941
2023-03-15 13:51:56:319,0.925476,-0.473612,-10.0523,3.71088,-7.54659,-44.606
2023-03-15 13:51:56:329,1.47129,-0.372016,-10.2778,3.65497,-7.54958,-44.178
2023-03-15 13:51:56:339,1.87984,-0.259775,-10.4145,3.60331,-7.56467,-43.6216
2023-03-15 13:51:56:349,2.03535,-0.224047,-10.3339,3.56063,-7.5845,-42.9185
2023-03-15 13:51:56:359,2.10697,-0.277748,-10.0875,3.52672,-7.60079,-42.0563
2023-03-15 13:51:56:369,2.47376,-0.421743,-9.83077,3.48954,-7.60702,-41.0339
2023-03-15 13:51:56:379,2.81018,-0.440055,-9.61621,3.42999,-7.63738,-39.8464
2023-03-15 13:51:56:389,3.44089,-0.0213018,-10.1358,3.32951,-7.59058,-38.4394
2023-03-15 13:51:56:399,4.19174,0.0913192,-10.1608,3.2077,-7.53781,-36.8106
2023-03-15 13:51:56:409,4.19782,0.294591,-9.76179,3.05542,-7.51825,-34.887
2023-03-15 13:51:56:419,3.14925,0.835248,-9.68264,2.84859,-7.47543,-32.7021
2023-03-15 13:51:56:429,2.27378,1.27401,-9.63384,2.59672,-7.43171,-30.3188
2023-03-15 13:51:56:439,1.778,1.67108,-9.78355,2.31142,-7.35862,-27.767
2023-03-15 13:51:56:449,1.22081,2.14747,-10.0478,2.00986,-7.24453,-25.0719
2023-03-15 13:51:56:459,0.642762,2.54535,-10.3159,1.72578,-7.09587,-22.2686
2023-03-15 13:51:56:469,0.145152,2.86463,-10.3542,1.47154,-6.92377,-19.3836
2023-03-15 13:51:56:479,-0.411208,3.09321,-10.3103,1.25579,-6.72437,-16.4442
2023-03-15 13:51:56:489,-0.888359,3.19047,-10.3018,1.08657,-6.49443,-13.4789
2023-03-15 13:51:56:499,-1.23876,3.1844,-10.196,0.960904,-6.25418,-10.5063
2023-03-15 13:51:56:509,-1.74844,3.25083,-10.088,0.862244,-6.02374,-7.54913
2023-03-15 13:51:56:519,-2.57735,3.39046,-10.0847,0.785274,-5.8271,-4.63564
2023-03-15 13:51:56:529,-3.57814,3.44893,-10.0858,0.730448,-5.66626,-1.80463
2023-03-15 13:51:56:539,-4.46929,3.35989,-9.97967,0.718228,-5.52894,0.894152
2023-03-15 13:51:56:549,-4.968,3.0441,-9.78631,0.754422,-5.39821,3.42123
2023-03-15 13:51:56:559,-4.96545,2.57931,-9.64709,0.829347,-5.25742,5.77388
2023-03-15 13:51:56:569,-4.60337,2.15611,-9.62383,0.933358,-5.0926,7.94684
2023-03-15 13:51:56:579,-4.08574,1.73663,-9.59515,1.04903,-4.91998,9.95542
2023-03-15 13:51:56:589,-3.68314,1.36321,-9.59577,1.1684,-4.75901,11.8151
2023-03-15 13:51:56:599,-3.51205,1.14647,-9.58007,1.27316,-4.62752,13.5461
2023-03-15 13:51:56:609,-3.44892,1.02752,-9.54967,1.36478,-4.52819,15.1454
2023-03-15 13:51:56:619,-3.22119,0.874886,-9.53074,1.44622,-4.45413,16.6037
2023-03-15 13:51:56:629,-2.6825,0.719809,-9.59612,1.51864,-4.38887,17.936
2023-03-15 13:51:56:639,-1.81055,0.609055,-9.67243,1.58415,-4.33351,19.1584
2023-03-15 13:51:56:649,-0.332525,0.479733,-9.98519,1.64209,-4.27869,20.2971
2023-03-15 13:51:56:659,1.50029,0.20037,-10.0254,1.68724,-4.27702,21.4012
2023-03-15 13:51:56:669,2.36821,0.213851,-10.0729,1.69942,-4.34637,22.5548
2023-03-15 13:51:56:679,1.70706,0.941059,-10.8543,1.71335,-4.37914,23.9002
2023-03-15 13:51:56:689,0.442543,1.05172,-10.7578,1.79966,-4.40127,25.3782
2023-03-15 13:51:56:699,-0.322622,0.577454,-9.80092,1.93831,-4.4628,26.9008
2023-03-15 13:51:56:709,-0.103918,0.282167,-9.40172,2.07661,-4.50974,28.4467
2023-03-15 13:51:56:719,0.561541,0.258222,-9.54017,2.1956,-4.50324,30.0422
2023-03-15 13:51:56:729,0.964109,0.386593,-9.80965,2.28803,-4.46912,31.7125
2023-03-15 13:51:56:739,0.720195,0.609376,-10.0344,2.38179,-4.41866,33.4907
2023-03-15 13:51:56:749,0.00907572,0.610045,-9.83571,2.49203,-4.36562,35.3579
2023-03-15 13:51:56:759,-0.702915,0.393777,-9.29378,2.60093,-4.33191,37.2892
2023-03-15 13:51:56:769,-1.26173,0.292109,-8.92167,2.68602,-4.30733,39.2527
2023-03-15 13:51:56:779,-1.50099,0.426601,-9.02633,2.72333,-4.2497,41.213
2023-03-15 13:51:56:789,-1.36903,0.586384,-9.37414,2.73514,-4.15434,43.1572
2023-03-15 13:51:56:798,-1.32709,0.761746,-9.71419,2.73791,-4.0378,45.0704
2023-03-15 13:51:56:808,-1.66043,0.79211,-9.72897,2.75104,-3.93013,46.9511
2023-03-15 13:51:56:818,-2.16753,0.691852,-9.50901,2.78554,-3.83754,48.7983
2023-03-15 13:51:56:828,-2.42728,0.569126,-9.35831,2.83164,-3.73856,50.5799
2023-03-15 13:51:56:838,-2.37666,0.397594,-9.35749,2.87637,-3.63302,52.2777
2023-03-15 13:51:56:848,-2.31413,0.268255,-9.37428,2.91653,-3.53021,53.8849
2023-03-15 13:51:56:858,-2.42596,0.158065,-9.33101,2.94089,-3.44087,55.4056
2023-03-15 13:51:56:868,-2.56359,0.0925567,-9.32406,2.95138,-3.3663,56.8368
2023-03-15 13:51:56:878,-2.47876,-0.0245553,-9.32703,2.94654,-3.30305,58.1641
2023-03-15 13:51:56:888,-2.35348,-0.0455365,-9.41393,2.9203,-3.2617,59.3766
2023-03-15 13:51:56:898,-2.24426,0.0127653,-9.59399,2.87894,-3.22115,60.4981
2023-03-15 13:51:56:908,-2.19983,-0.153857,-9.43447,2.83311,-3.1985,61.5227
2023-03-15 13:51:56:918,-2.24571,-0.204984,-9.42943,2.77029,-3.18536,62.4618
2023-03-15 13:51:56:929,-2.14428,-0.219458,-9.45111,2.68911,-3.19071,63.303
2023-03-15 13:51:56:938,-1.9804,-0.217073,-9.48497,2.58781,-3.20655,64.0574
2023-03-15 13:51:56:948,-1.83427,-0.184217,-9.56763,2.46828,-3.22769,64.7331
2023-03-15 13:51:56:958,-1.69416,-0.119424,-9.71866,2.33659,-3.25838,65.3316
2023-03-15 13:51:56:968,-1.58268,-0.0673754,-9.81585,2.2006,-3.30914,65.8646
2023-03-15 13:51:56:978,-1.55947,-0.0190985,-9.86676,2.0626,-3.36535,66.3413
2023-03-15 13:51:56:988,-1.59664,0.0480553,-9.89933,1.92419,-3.42693,66.7675
2023-03-15 13:51:56:998,-1.59623,0.0674219,-9.90373,1.79748,-3.49234,67.1438
2023-03-15 13:51:57:8,-1.52099,0.0346824,-9.86053,1.68085,-3.55632,67.4671
2023-03-15 13:51:57:18,-1.37364,-0.00158035,-9.82026,1.5685,-3.62262,67.7439
2023-03-15 13:51:57:28,-1.25437,0.00622217,-9.81375,1.45606,-3.69822,67.9855
2023-03-15 13:51:57:38,-1.23288,0.0643992,-9.82847,1.34934,-3.78138,68.1919
2023-03-15 13:51:57:48,-1.22212,0.181906,-9.89466,1.24724,-3.86972,68.3738
2023-03-15 13:51:57:58,-1.04873,0.199926,-9.96879,1.15929,-3.95282,68.5312
2023-03-15 13:51:57:68,-0.923082,0.171589,-9.99074,1.08348,-4.03061,68.6688
2023-03-15 13:51:57:78,-0.962324,0.118115,-9.94704,1.0224,-4.11257,68.7976
2023-03-15 13:51:57:88,-1.06971,0.0710554,-9.86875,0.972611,-4.19579,68.923
2023-03-15 13:51:57:98,-1.13457,0.0458541,-9.79645,0.931589,-4.27393,69.0427
2023-03-15 13:51:57:108,-1.11509,0.010882,-9.75809,0.894466,-4.34259,69.1568
2023-03-15 13:51:57:118,-1.09087,-0.00892773,-9.72984,0.861664,-4.3954,69.2624
2023-03-15 13:51:57:128,-1.06104,-0.0156289,-9.73734,0.832695,-4.43605,69.3643
2023-03-15 13:51:57:138,-0.98991,-0.0039396,-9.73327,0.802561,-4.46382,69.4643
2023-03-15 13:51:57:148,-0.872401,-0.0319566,-9.73411,0.775394,-4.47708,69.5609
2023-03-15 13:51:57:158,-0.782848,-0.0684871,-9.71539,0.74988,-4.48259,69.6585
2023-03-15 13:51:57:169,-0.797376,-0.0889368,-9.67415,0.720997,-4.48297,69.762
2023-03-15 13:51:57:178,-0.894337,-0.107885,-9.63085,0.689663,-4.48961,69.8732
2023-03-15 13:51:57:188,-0.970379,-0.10763,-9.61423,0.651903,-4.49595,69.9825
2023-03-15 13:51:57:198,-0.942376,-0.0700383,-9.66819,0.605379,-4.4967,70.091
2023-03-15 13:51:57:208,-0.83842,-0.0247188,-9.74408,0.553811,-4.49303,70.1925
2023-03-15 13:51:57:218,-0.748764,0.020697,-9.79581,0.504664,-4.48868,70.2917
2023-03-15 13:51:57:228,-0.676612,0.0281489,-9.83124,0.458867,-4.48496,70.391
2023-03-15 13:51:57:238,-0.664675,-0.0332676,-9.79155,0.420206,-4.48764,70.495
2023-03-15 13:51:57:248,-0.732939,-0.0613778,-9.67009,0.378233,-4.49915,70.6038
2023-03-15 13:51:57:258,-0.861221,-0.0496373,-9.61647,0.331488,-4.51448,70.7181
2023-03-15 13:51:57:269,-0.946017,-0.0501171,-9.6323,0.278481,-4.53313,70.8327
2023-03-15 13:51:57:278,-0.937422,-0.0134869,-9.68986,0.221005,-4.54867,70.9386
2023-03-15 13:51:57:288,-0.887235,0.0363029,-9.71318,0.162761,-4.55952,71.037
2023-03-15 13:51:57:298,-0.849932,0.0709024,-9.74044,0.106427,-4.56955,71.1284
2023-03-15 13:51:57:308,-0.768356,0.0809353,-9.81616,0.0572216,-4.57416,71.2156
2023-03-15 13:51:57:318,-0.746557,0.096988,-9.83602,0.0162462,-4.57738,71.3079
2023-03-15 13:51:57:329,-0.819112,0.0642214,-9.76661,-0.0185544,-4.57831,71.4033
2023-03-15 13:51:57:338,-0.899854,0.0349368,-9.71295,-0.0547381,-4.58047,71.4986
2023-03-15 13:51:57:349,-0.940194,0.0497854,-9.72884,-0.0893258,-4.57653,71.5909
2023-03-15 13:51:57:358,-0.966945,0.0862429,-9.74059,-0.127987,-4.56793,71.68
2023-03-15 13:51:57:369,-0.946963,0.108142,-9.75024,-0.164384,-4.5529,71.7622
2023-03-15 13:51:57:378,-0.901111,0.120107,-9.76068,-0.198901,-4.53607,71.8376
2023-03-15 13:51:57:388,-0.852615,0.114639,-9.76594,-0.233587,-4.52415,71.909
2023-03-15 13:51:57:398,-0.873168,0.10846,-9.76562,-0.266729,-4.51705,71.9815
2023-03-15 13:51:57:408,-0.93859,0.123551,-9.76883,-0.296718,-4.50962,72.05
2023-03-15 13:51:57:418,-0.950644,0.157782,-9.73835,-0.326629,-4.50324,72.1104
2023-03-15 13:51:57:428,-0.897625,0.120313,-9.70277,-0.353069,-4.48707,72.1642
2023-03-15 13:51:57:438,-0.840316,0.0703712,-9.70587,-0.380043,-4.47174,72.2097
2023-03-15 13:51:57:448,-0.827235,0.0912414,-9.7243,-0.410078,-4.45795,72.2489
2023-03-15 13:51:57:458,-0.865885,0.101096,-9.74399,-0.440705,-4.45084,72.2924
2023-03-15 13:51:57:468,-0.905197,0.109085,-9.72438,-0.473927,-4.44433,72.325
2023-03-15 13:51:57:478,-0.8883,0.0955378,-9.73496,-0.506827,-4.4398,72.3508
2023-03-15 13:51:57:488,-0.823095,0.120773,-9.78235,-0.538846,-4.43163,72.371
2023-03-15 13:51:57:498,-0.786551,0.151218,-9.83945,-0.576535,-4.42133,72.3908
2023-03-15 13:51:57:508,-0.771595,0.195557,-9.89071,-0.612541,-4.40702,72.4111
2023-03-15 13:51:57:518,-0.775336,0.230512,-9.92128,-0.643389,-4.391,72.4376
2023-03-15 13:51:57:528,-0.786927,0.253745,-9.90253,-0.66612,-4.36557,72.4636
2023-03-15 13:51:57:538,-0.808388,0.246837,-9.83013,-0.683666,-4.33506,72.4846
2023-03-15 13:51:57:548,-0.806042,0.201544,-9.76841,-0.693474,-4.30298,72.508
2023-03-15 13:51:57:558,-0.745338,0.200916,-9.7705,-0.704838,-4.27014,72.5233
2023-03-15 13:51:57:569,-0.688846,0.208541,-9.79239,-0.716014,-4.23056,72.5366
2023-03-15 13:51:57:579,-0.685553,0.196686,-9.78141,-0.720144,-4.19503,72.5425
2023-03-15 13:51:57:588,-0.703482,0.186936,-9.74506,-0.723204,-4.16658,72.5461
2023-03-15 13:51:57:599,-0.684385,0.172058,-9.74202,-0.724913,-4.13779,72.5449
2023-03-15 13:51:57:608,-0.652022,0.158312,-9.74886,-0.721844,-4.11255,72.5412
2023-03-15 13:51:57:618,-0.649417,0.131731,-9.72335,-0.716497,-4.09021,72.5378
2023-03-15 13:51:57:629,-0.660917,0.0922164,-9.68013,-0.708384,-4.07544,72.5312
2023-03-15 13:51:57:638,-0.667432,0.0786639,-9.68041,-0.70748,-4.06382,72.5203
2023-03-15 13:51:57:649,-0.614669,0.110688,-9.72989,-0.708239,-4.04942,72.5056
2023-03-15 13:51:57:659,-0.591161,0.105402,-9.74178,-0.713897,-4.03308,72.4882
2023-03-15 13:51:57:669,-0.625471,0.0779169,-9.71678,-0.7128,-4.01731,72.4691
2023-03-15 13:51:57:679,-0.644474,0.0722493,-9.70268,-0.71872,-4.00524,72.4495
2023-03-15 13:51:57:689,-0.58946,0.101133,-9.74357,-0.733055,-3.98931,72.4254
2023-03-15 13:51:57:699,-0.519364,0.115152,-9.75946,-0.746567,-3.9717,72.3976
2023-03-15 13:51:57:709,-0.489748,0.106891,-9.75186,-0.759918,-3.95854,72.3719
2023-03-15 13:51:57:719,-0.444668,0.0777531,-9.73798,-0.769013,-3.94578,72.3446
2023-03-15 13:51:57:729,-0.420479,0.0863582,-9.77764,-0.785662,-3.93874,72.3214
2023-03-15 13:51:57:739,-0.474436,0.127313,-9.79667,-0.800441,-3.93131,72.3062
2023-03-15 13:51:57:749,-0.54072,0.136632,-9.77964,-0.816087,-3.92744,72.293
2023-03-15 13:51:57:759,-0.555453,0.120404,-9.77307,-0.836547,-3.92528,72.2828
2023-03-15 13:51:57:769,-0.539307,0.12975,-9.7573,-0.851394,-3.92391,72.2662
2023-03-15 13:51:57:779,-0.489306,0.135627,-9.77774,-0.869619,-3.92277,72.2486
2023-03-15 13:51:57:789,-0.428129,0.176592,-9.81233,-0.886905,-3.92408,72.2319
2023-03-15 13:51:57:799,-0.408547,0.192375,-9.83656,-0.905212,-3.93104,72.2141
2023-03-15 13:51:57:809,-0.442535,0.198999,-9.82731,-0.920703,-3.94236,72.2059
2023-03-15 13:51:57:819,-0.46885,0.180772,-9.77858,-0.932931,-3.95746,72.2043
2023-03-15 13:51:57:829,-0.507602,0.168758,-9.74338,-0.945441,-3.97056,72.2033
2023-03-15 13:51:57:839,-0.57836,0.16326,-9.73466,-0.957943,-3.98711,72.2081
2023-03-15 13:51:57:849,-0.670012,0.163661,-9.72981,-0.973262,-4.00497,72.2178
2023-03-15 13:51:57:859,-0.72224,0.172965,-9.72647,-0.992214,-4.02683,72.2245
2023-03-15 13:51:57:869,-0.729739,0.209056,-9.77503,-1.01105,-4.04461,72.2284
2023-03-15 13:51:57:879,-0.720818,0.247764,-9.80948,-1.03047,-4.06687,72.2276
2023-03-15 13:51:57:889,-0.699005,0.267538,-9.84487,-1.04413,-4.09119,72.2188
2023-03-15 13:51:57:899,-0.670874,0.291313,-9.87124,-1.05553,-4.11603,72.2074
2023-03-15 13:51:57:909,-0.6904,0.316166,-9.88066,-1.06017,-4.14069,72.1959
2023-03-15 13:51:57:919,-0.707941,0.32019,-9.86711,-1.06127,-4.16642,72.1844
2023-03-15 13:51:57:929,-0.702288,0.288615,-9.82481,-1.0529,-4.18858,72.1731
2023-03-15 13:51:57:939,-0.718832,0.246801,-9.75804,-1.04274,-4.21024,72.1633
2023-03-15 13:51:57:949,-0.739182,0.211951,-9.72228,-1.03153,-4.23106,72.1545
2023-03-15 13:51:57:959,-0.725767,0.199919,-9.72438,-1.02051,-4.24571,72.1413
2023-03-15 13:51:57:969,-0.715835,0.201404,-9.75043,-1.00966,-4.25794,72.1271
2023-03-15 13:51:57:979,-0.724415,0.194159,-9.76345,-1.00199,-4.26988,72.1143
2023-03-15 13:51:57:989,-0.764911,0.205219,-9.77168,-0.994016,-4.28857,72.1003
2023-03-15 13:51:57:999,-0.784735,0.215263,-9.779,-0.984324,-4.30842,72.088
2023-03-15 13:51:58:9,-0.773606,0.22167,-9.76998,-0.969816,-4.32397,72.0661
2023-03-15 13:51:58:19,-0.740698,0.226784,-9.77384,-0.955743,-4.33928,72.0397
2023-03-15 13:51:58:29,-0.734639,0.210441,-9.75191,-0.942207,-4.35502,72.0135
2023-03-15 13:51:58:39,-0.737631,0.185596,-9.74023,-0.926117,-4.36904,71.9893
2023-03-15 13:51:58:49,-0.741991,0.190822,-9.72748,-0.908943,-4.38445,71.9628
2023-03-15 13:51:58:59,-0.752095,0.188753,-9.73571,-0.895403,-4.39609,71.9378
2023-03-15 13:51:58:69,-0.727202,0.189685,-9.7514,-0.877469,-4.40853,71.9026
2023-03-15 13:51:58:79,-0.692446,0.186493,-9.75182,-0.860922,-4.41979,71.8692
2023-03-15 13:51:58:89,-0.698282,0.187894,-9.73562,-0.842737,-4.43342,71.8338
2023-03-15 13:51:58:99,-0.711651,0.172302,-9.74043,-0.824143,-4.44623,71.8011
2023-03-15 13:51:58:109,-0.699526,0.162278,-9.75082,-0.805258,-4.45988,71.7696
2023-03-15 13:51:58:119,-0.696674,0.169894,-9.75137,-0.785451,-4.47342,71.7403
2023-03-15 13:51:58:129,-0.695244,0.164804,-9.75729,-0.761604,-4.48517,71.7074
2023-03-15 13:51:58:139,-0.674892,0.151335,-9.758,-0.739738,-4.49519,71.6798
2023-03-15 13:51:58:149,-0.684694,0.132062,-9.76162,-0.719275,-4.50853,71.6517
2023-03-15 13:51:58:159,-0.725262,0.136768,-9.76186,-0.695209,-4.52254,71.6307
2023-03-15 13:51:58:169,-0.768241,0.144135,-9.77128,-0.672443,-4.53035,71.6045
2023-03-15 13:51:58:179,-0.791036,0.140367,-9.79066,-0.651976,-4.54224,71.5807
2023-03-15 13:51:58:189,-0.727958,0.154368,-9.8292,-0.624974,-4.54973,71.5532
2023-03-15 13:51:58:199,-0.660337,0.144936,-9.81834,-0.594819,-4.5596,71.5199
2023-03-15 13:51:58:209,-0.753303,0.12838,-9.77695,-0.564992,-4.5746,71.4883
2023-03-15 13:51:58:219,-0.900496,0.132191,-9.76415,-0.533711,-4.59694,71.4579
2023-03-15 13:51:58:229,-1.04564,0.163195,-9.78966,-0.504727,-4.62422,71.4225
2023-03-15 13:51:58:239,-1.23867,0.225107,-9.85872,-0.482109,-4.65736,71.3719
2023-03-15 13:51:58:249,-1.44258,0.321111,-9.92378,-0.45807,-4.69551,71.2998
2023-03-15 13:51:58:259,-1.65521,0.386999,-9.96475,-0.429676,-4.74286,71.197
2023-03-15 13:51:58:269,-1.86333,0.457199,-9.95636,-0.394365,-4.79395,71.0553
2023-03-15 13:51:58:279,-2.14076,0.517623,-9.93372,-0.354355,-4.8497,70.8637
2023-03-15 13:51:58:289,-2.61298,0.597752,-9.89089,-0.311247,-4.91942,70.6135
2023-03-15 13:51:58:299,-3.16294,0.728028,-9.88045,-0.265192,-5.00496,70.2861
2023-03-15 13:51:58:309,-3.63788,0.84371,-9.86383,-0.213627,-5.09996,69.8453
2023-03-15 13:51:58:319,-3.94288,0.91828,-9.81452,-0.156364,-5.20662,69.266
2023-03-15 13:51:58:329,-3.98543,0.890465,-9.71825,-0.0796619,-5.32154,68.5274
2023-03-15 13:51:58:339,-3.8879,0.831908,-9.54182,0.00259516,-5.45193,67.6216
2023-03-15 13:51:58:349,-3.83927,0.767123,-9.35876,0.0843376,-5.60501,66.5547
2023-03-15 13:51:58:359,-3.81349,0.776005,-9.2797,0.157572,-5.78775,65.3307
2023-03-15 13:51:58:369,-3.7065,0.839802,-9.2985,0.217171,-5.99455,63.9551
2023-03-15 13:51:58:379,-3.46457,0.92354,-9.38009,0.265961,-6.22526,62.4303
2023-03-15 13:51:58:389,-3.18054,1.05257,-9.49399,0.306039,-6.47444,60.7703
2023-03-15 13:51:58:399,-2.9224,1.17847,-9.5977,0.350311,-6.74445,58.9903
2023-03-15 13:51:58:409,-2.66435,1.24975,-9.69553,0.404442,-7.03228,57.1119
2023-03-15 13:51:58:419,-2.3341,1.33666,-9.82732,0.473016,-7.32455,55.1438
2023-03-15 13:51:58:429,-1.94374,1.37711,-9.90649,0.562991,-7.6241,53.1055
2023-03-15 13:51:58:439,-1.66637,1.31584,-9.86185,0.676983,-7.91725,51.0295
2023-03-15 13:51:58:449,-1.56074,1.19835,-9.74939,0.815918,-8.20786,48.94
2023-03-15 13:51:58:459,-1.40774,1.09181,-9.73772,0.971423,-8.48509,46.8454
2023-03-15 13:51:58:468,-1.03199,1.01262,-9.85964,1.13592,-8.73922,44.7537
2023-03-15 13:51:58:478,-0.52378,0.940821,-9.98712,1.31205,-8.96465,42.689
2023-03-15 13:51:58:488,-0.0768134,0.800675,-10.0457,1.50959,-9.15935,40.683
2023-03-15 13:51:58:498,0.345854,0.592987,-10.0862,1.72276,-9.32788,38.7608
2023-03-15 13:51:58:508,0.754031,0.380228,-10.0565,1.95421,-9.47386,36.9501
2023-03-15 13:51:58:518,0.797125,0.126833,-9.90064,2.19027,-9.60527,35.2799
2023-03-15 13:51:58:528,0.248809,-0.0699425,-9.62589,2.419,-9.72982,33.7704
2023-03-15 13:51:58:538,-0.51184,-0.154212,-9.36603,2.62674,-9.83202,32.4036
2023-03-15 13:51:58:549,-0.971084,-0.208917,-9.25035,2.80602,-9.89057,31.1446
2023-03-15 13:51:58:559,-1.05113,-0.247475,-9.29688,2.96082,-9.88385,29.9594
2023-03-15 13:51:58:569,-0.829196,-0.263364,-9.41541,3.0947,-9.81368,28.8469
2023-03-15 13:51:58:579,-0.4929,-0.301394,-9.56245,3.21674,-9.69849,27.7985
2023-03-15 13:51:58:589,-0.111391,-0.341014,-9.7106,3.3248,-9.55593,26.823
2023-03-15 13:51:58:599,0.0828157,-0.41874,-9.76872,3.42966,-9.41306,25.9272
2023-03-15 13:51:58:609,0.0454485,-0.494773,-9.70838,3.53296,-9.28218,25.1189
2023-03-15 13:51:58:619,-0.107821,-0.579352,-9.66821,3.62583,-9.16398,24.3982
2023-03-15 13:51:58:629,-0.274177,-0.614942,-9.65826,3.70832,-9.05374,23.7454
2023-03-15 13:51:58:639,-0.363622,-0.653216,-9.71428,3.78134,-8.9413,23.1516
2023-03-15 13:51:58:649,-0.379385,-0.67344,-9.80927,3.84984,-8.82031,22.61
2023-03-15 13:51:58:659,-0.399543,-0.704148,-9.78764,3.92172,-8.69207,22.118
2023-03-15 13:51:58:669,-0.534359,-0.716198,-9.68002,3.99357,-8.5624,21.6645
2023-03-15 13:51:58:679,-0.681887,-0.685037,-9.60211,4.05945,-8.41604,21.244
2023-03-15 13:51:58:689,-0.704647,-0.631055,-9.55605,4.12111,-8.24305,20.8412
2023-03-15 13:51:58:699,-0.481503,-0.626459,-9.50321,4.18438,-8.03322,20.444
2023-03-15 13:51:58:709,-0.0808005,-0.663894,-9.43294,4.24871,-7.79771,20.0578
2023-03-15 13:51:58:719,0.29098,-0.724248,-9.41071,4.3025,-7.53785,19.6876
2023-03-15 13:51:58:729,0.62746,-0.768764,-9.48427,4.33312,-7.27404,19.3432
2023-03-15 13:51:58:739,0.92027,-0.792904,-9.59563,4.34612,-7.01821,19.0301
2023-03-15 13:51:58:749,1.13439,-0.780576,-9.72404,4.33295,-6.78917,18.7528
2023-03-15 13:51:58:759,1.28224,-0.766511,-9.88341,4.30429,-6.59418,18.5218
2023-03-15 13:51:58:769,1.29833,-0.790651,-9.95764,4.2627,-6.44962,18.3397
2023-03-15 13:51:58:779,1.15899,-0.816087,-9.93195,4.21249,-6.36399,18.2089
2023-03-15 13:51:58:789,0.947742,-0.830468,-9.84065,4.14375,-6.3435,18.1281
2023-03-15 13:51:58:799,0.618604,-0.779569,-9.80209,4.05767,-6.37609,18.0992
2023-03-15 13:51:58:809,0.179825,-0.679228,-9.81238,3.95945,-6.458,18.1062
2023-03-15 13:51:58:819,-0.270883,-0.533351,-9.84266,3.84878,-6.58187,18.1419
2023-03-15 13:51:58:829,-0.700022,-0.432706,-9.87603,3.74624,-6.72556,18.1941
2023-03-15 13:51:58:839,-1.03777,-0.398931,-9.86399,3.65577,-6.87909,18.2593
2023-03-15 13:51:58:849,-1.26763,-0.435883,-9.8291,3.57535,-7.03373,18.3268
2023-03-15 13:51:58:859,-1.46234,-0.450298,-9.75412,3.50672,-7.1848,18.3942
2023-03-15 13:51:58:869,-1.63607,-0.448981,-9.67725,3.45009,-7.33259,18.4538
2023-03-15 13:51:58:879,-1.78592,-0.437351,-9.64759,3.39906,-7.48033,18.5012
2023-03-15 13:51:58:889,-1.89757,-0.376766,-9.68584,3.35099,-7.61882,18.5313
2023-03-15 13:51:58:899,-1.99287,-0.31971,-9.70388,3.31268,-7.74118,18.5467
2023-03-15 13:51:58:909,-1.96784,-0.364825,-9.64061,3.29066,-7.85915,18.5377
2023-03-15 13:51:58:919,-1.89676,-0.429881,-9.5774,3.28051,-7.96263,18.5109
2023-03-15 13:51:58:929,-1.89835,-0.493811,-9.50914,3.27694,-8.06113,18.4741
2023-03-15 13:51:58:939,-1.98431,-0.533507,-9.47486,3.27475,-8.15174,18.431
2023-03-15 13:51:58:949,-2.06184,-0.542013,-9.48171,3.2688,-8.23201,18.3795
2023-03-15 13:51:58:959,-2.04531,-0.562947,-9.49443,3.25696,-8.29728,18.3113
2023-03-15 13:51:58:969,-1.97316,-0.579711,-9.54088,3.24503,-8.34959,18.2284
2023-03-15 13:51:58:979,-1.86226,-0.567087,-9.66091,3.23319,-8.37952,18.1378
2023-03-15 13:51:58:989,-1.82589,-0.542235,-9.71486,3.21852,-8.39592,18.0419
2023-03-15 13:51:58:999,-1.84331,-0.549058,-9.6942,3.2112,-8.4089,17.9377
2023-03-15 13:51:59:9,-1.91443,-0.523229,-9.70916,3.20193,-8.41425,17.8294
2023-03-15 13:51:59:19,-2.01244,-0.434613,-9.79291,3.19147,-8.41208,17.7178
2023-03-15 13:51:59:29,-2.0587,-0.384666,-9.84193,3.19154,-8.39097,17.5903
2023-03-15 13:51:59:39,-2.03427,-0.38417,-9.79999,3.20433,-8.35441,17.4484
2023-03-15 13:51:59:49,-1.97,-0.420012,-9.76299,3.23152,-8.29579,17.2912
2023-03-15 13:51:59:59,-1.89259,-0.450897,-9.71827,3.26698,-8.22035,17.1205
2023-03-15 13:51:59:69,-1.76905,-0.488956,-9.65023,3.30887,-8.12813,16.9337
2023-03-15 13:51:59:79,-1.62865,-0.51593,-9.61114,3.35532,-8.02563,16.7343
2023-03-15 13:51:59:89,-1.47429,-0.533594,-9.6547,3.40936,-7.91132,16.5282
2023-03-15 13:51:59:99,-1.27366,-0.545992,-9.71427,3.46339,-7.79305,16.3133
2023-03-15 13:51:59:109,-1.10437,-0.571436,-9.75884,3.52034,-7.67773,16.0924
2023-03-15 13:51:59:119,-1.00253,-0.56099,-9.83396,3.58044,-7.56909,15.8734
2023-03-15 13:51:59:129,-0.911857,-0.561198,-9.89691,3.63735,-7.46846,15.6589
2023-03-15 13:51:59:139,-0.872152,-0.617506,-9.88211,3.70235,-7.37562,15.4555
2023-03-15 13:51:59:149,-0.916357,-0.665308,-9.8203,3.76789,-7.29958,15.26
2023-03-15 13:51:59:159,-0.980175,-0.680845,-9.7733,3.83064,-7.23471,15.069
2023-03-15 13:51:59:169,-1.04151,-0.71046,-9.79435,3.89083,-7.17886,14.8799
2023-03-15 13:51:59:179,-1.10331,-0.7594,-9.80619,3.95061,-7.13085,14.6868
2023-03-15 13:51:59:189,-1.13503,-0.817751,-9.76118,4.0134,-7.08486,14.4909
2023-03-15 13:51:59:199,-1.10449,-0.877435,-9.69538,4.07298,-7.04161,14.289
2023-03-15 13:51:59:209,-1.04896,-0.928762,-9.69035,4.12557,-7.0027,14.0842
2023-03-15 13:51:59:219,-0.973586,-0.939839,-9.67598,4.16541,-6.97733,13.871
2023-03-15 13:51:59:229,-0.91964,-0.985478,-9.65091,4.19584,-6.96425,13.6636
2023-03-15 13:51:59:239,-1.01852,-1.02452,-9.62371,4.20694,-6.96924,13.463
2023-03-15 13:51:59:249,-1.20863,-1.01279,-9.58925,4.19975,-6.98655,13.267
2023-03-15 13:51:59:259,-1.30609,-1.012,-9.5643,4.18334,-7.00969,13.0677
2023-03-15 13:51:59:269,-1.18551,-1.0504,-9.55067,4.15488,-7.0308,12.8607
2023-03-15 13:51:59:279,-1.03863,-1.13718,-9.53277,4.11736,-7.05776,12.6527
2023-03-15 13:51:59:289,-0.931428,-1.21039,-9.52054,4.063,-7.09062,12.4559
2023-03-15 13:51:59:299,-0.781722,-1.27613,-9.5492,3.99626,-7.12414,12.2762
2023-03-15 13:51:59:309,-0.475136,-1.35181,-9.53596,3.91578,-7.15974,12.1163
2023-03-15 13:51:59:319,-0.11972,-1.4703,-9.41644,3.81521,-7.21145,11.9943
2023-03-15 13:51:59:329,0.0421923,-1.50396,-9.29946,3.68438,-7.28437,11.9363
2023-03-15 13:51:59:339,0.0780434,-1.40118,-9.28095,3.52198,-7.35993,11.9525
2023-03-15 13:51:59:349,0.0790575,-1.28683,-9.30823,3.33631,-7.43229,12.0421
2023-03-15 13:51:59:359,0.171815,-1.18698,-9.34054,3.12996,-7.49177,12.2083
2023-03-15 13:51:59:369,0.644286,-1.03014,-9.51797,2.90861,-7.52475,12.4512
2023-03-15 13:51:59:379,1.43903,-0.880359,-9.78874,2.68381,-7.52339,12.7874
2023-03-15 13:51:59:389,1.98821,-0.809875,-9.93189,2.47018,-7.51147,13.2574
2023-03-15 13:51:59:399,1.97561,-0.781564,-9.9095,2.26719,-7.50701,13.8903
2023-03-15 13:51:59:409,1.54646,-0.651964,-9.7652,2.07236,-7.51914,14.6886
2023-03-15 13:51:59:419,1.22228,-0.590492,-9.65565,1.89052,-7.53114,15.6223
2023-03-15 13:51:59:429,1.28605,-0.53818,-9.60213,1.71566,-7.52988,16.6771
2023-03-15 13:51:59:439,1.442,-0.447156,-9.55577,1.54839,-7.51925,17.8563
2023-03-15 13:51:59:449,1.37556,-0.314579,-9.38937,1.38263,-7.50756,19.1669
2023-03-15 13:51:59:459,1.02347,-0.191018,-9.10812,1.20897,-7.49895,20.6125
2023-03-15 13:51:59:469,0.507097,-0.0288444,-8.81075,1.0113,-7.49067,22.1721
2023-03-15 13:51:59:479,-0.05937,0.157022,-8.55744,0.786217,-7.46994,23.8266
2023-03-15 13:51:59:489,-0.538029,0.310572,-8.43303,0.527807,-7.4266,25.5519
2023-03-15 13:51:59:499,-0.658219,0.478319,-8.53642,0.232294,-7.34867,27.318
2023-03-15 13:51:59:508,-0.580225,0.681843,-8.76134,-0.0941076,-7.23785,29.1157
2023-03-15 13:51:59:518,-0.590502,0.905398,-8.9521,-0.443606,-7.10211,30.9428
2023-03-15 13:51:59:528,-0.635216,1.16329,-9.11621,-0.81606,-6.94912,32.8014
2023-03-15 13:51:59:538,-0.870414,1.34949,-9.17118,-1.18651,-6.78171,34.6857
2023-03-15 13:51:59:549,-1.38222,1.4388,-9.01574,-1.54762,-6.60261,36.586
2023-03-15 13:51:59:559,-1.93627,1.45349,-8.81609,-1.90682,-6.40999,38.4872
2023-03-15 13:51:59:569,-2.28542,1.47366,-8.76986,-2.28229,-6.19077,40.3551
2023-03-15 13:51:59:579,-2.27965,1.62958,-8.96944,-2.68073,-5.93416,42.1632
2023-03-15 13:51:59:589,-2.07124,1.83405,-9.31747,-3.09399,-5.64939,43.9003
2023-03-15 13:51:59:599,-1.99335,2.04097,-9.67323,-3.50289,-5.35094,45.5701
2023-03-15 13:51:59:609,-2.05053,2.18402,-9.93549,-3.89757,-5.04829,47.172
2023-03-15 13:51:59:619,-2.09471,2.20811,-10.0945,-4.25769,-4.75896,48.7032
2023-03-15 13:51:59:629,-2.07339,2.16862,-10.2143,-4.57849,-4.48217,50.1544
2023-03-15 13:51:59:639,-1.95717,2.08975,-10.2813,-4.86303,-4.21951,51.529
2023-03-15 13:51:59:649,-1.85139,1.98375,-10.2474,-5.1167,-3.97281,52.8295
2023-03-15 13:51:59:659,-1.87823,1.94198,-10.1269,-5.34535,-3.74126,54.0683
2023-03-15 13:51:59:669,-2.04973,1.89949,-10.0251,-5.554,-3.51734,55.2407
2023-03-15 13:51:59:679,-2.26985,1.91328,-10.002,-5.7498,-3.28876,56.3477
2023-03-15 13:51:59:689,-2.43072,1.98382,-10.0973,-5.94415,-3.05261,57.3742
2023-03-15 13:51:59:699,-2.51057,2.13302,-10.3203,-6.12729,-2.8027,58.3112
2023-03-15 13:51:59:709,-2.42502,2.31695,-10.5611,-6.29143,-2.54231,59.143
2023-03-15 13:51:59:719,-2.22017,2.40151,-10.7196,-6.42028,-2.28586,59.863
2023-03-15 13:51:59:729,-1.95065,2.37412,-10.7619,-6.5005,-2.04161,60.4726
2023-03-15 13:51:59:739,-1.63602,2.26013,-10.7479,-6.53086,-1.8223,60.9841
2023-03-15 13:51:59:749,-1.46348,2.08253,-10.6877,-6.5184,-1.63504,61.4075
2023-03-15 13:51:59:759,-1.61498,1.89895,-10.5333,-6.4686,-1.49548,61.7578
2023-03-15 13:51:59:769,-1.96976,1.80817,-10.3607,-6.39304,-1.39416,62.0328
2023-03-15 13:51:59:779,-2.22826,1.79026,-10.2792,-6.30307,-1.3162,62.2187
2023-03-15 13:51:59:789,-2.19232,1.72516,-10.2602,-6.19604,-1.2448,62.2962
2023-03-15 13:51:59:799,-1.99757,1.58875,-10.1731,-6.06322,-1.17785,62.2561
2023-03-15 13:51:59:809,-1.90555,1.38133,-9.97429,-5.91425,-1.1252,62.1092
2023-03-15 13:51:59:818,-2.03998,1.24845,-9.78476,-5.76343,-1.08997,61.8655
2023-03-15 13:51:59:829,-2.34253,1.29592,-9.76569,-5.63307,-1.07851,61.5243
2023-03-15 13:51:59:839,-2.62832,1.4451,-9.9071,-5.51986,-1.0908,61.0661
2023-03-15 13:51:59:849,-2.81695,1.66838,-10.072,-5.41904,-1.12149,60.4717
2023-03-15 13:51:59:859,-2.82466,1.83318,-10.0958,-5.31462,-1.16736,59.7244
2023-03-15 13:51:59:869,-2.58423,1.79203,-9.91621,-5.19586,-1.22509,58.8196
2023-03-15 13:51:59:879,-2.3312,1.67544,-9.68478,-5.0781,-1.30133,57.7683
2023-03-15 13:51:59:889,-2.33127,1.71625,-9.56114,-4.97616,-1.40187,56.5889
2023-03-15 13:51:59:899,-2.5019,1.8164,-9.54769,-4.90028,-1.53196,55.2872
2023-03-15 13:51:59:909,-2.59076,1.95502,-9.61539,-4.84754,-1.68429,53.8562
2023-03-15 13:51:59:919,-2.57042,2.116,-9.68782,-4.8038,-1.84199,52.2909
2023-03-15 13:51:59:929,-2.48328,2.30902,-9.75958,-4.76769,-1.99131,50.5899
2023-03-15 13:51:59:939,-2.294,2.53837,-9.83477,-4.73379,-2.13727,48.7612
2023-03-15 13:51:59:949,-1.93579,2.72971,-9.84774,-4.6861,-2.27382,46.8065
2023-03-15 13:51:59:959,-1.26156,2.80831,-9.80989,-4.61538,-2.39643,44.7305
2023-03-15 13:51:59:969,-0.214036,2.78092,-9.81451,-4.52346,-2.51486,42.5593
2023-03-15 13:51:59:979,1.07447,2.60089,-9.97734,-4.4068,-2.63722,40.3352
2023-03-15 13:51:59:989,2.14522,2.32123,-10.1869,-4.27009,-2.79177,38.1237
2023-03-15 13:51:59:999,2.46732,2.09019,-10.241,-4.11742,-3.01611,35.9933
2023-03-15 13:52:00:9,1.96462,1.9497,-10.0925,-3.94824,-3.29443,33.9758
2023-03-15 13:52:00:19,1.24611,1.85906,-9.86081,-3.76608,-3.5987,32.0578
2023-03-15 13:52:00:29,0.899305,1.72683,-9.67831,-3.56882,-3.87294,30.1986
2023-03-15 13:52:00:39,0.983005,1.53852,-9.57844,-3.35088,-4.07756,28.3935
2023-03-15 13:52:00:49,1.32153,1.33724,-9.59492,-3.11644,-4.21361,26.6492
2023-03-15 13:52:00:59,1.72905,1.18095,-9.72677,-2.87588,-4.28894,24.9829
2023-03-15 13:52:00:69,2.10527,0.964259,-9.73625,-2.62139,-4.33276,23.4052
2023-03-15 13:52:00:79,2.35242,0.675166,-9.63659,-2.36398,-4.35982,21.9312
2023-03-15 13:52:00:89,2.39173,0.440618,-9.53138,-2.11946,-4.38458,20.5838
2023-03-15 13:52:00:99,2.19617,0.367359,-9.42525,-1.89793,-4.4094,19.3647
2023-03-15 13:52:00:109,1.91814,0.331043,-9.36755,-1.7016,-4.43272,18.2621
2023-03-15 13:52:00:119,1.66956,0.258811,-9.40582,-1.52534,-4.44581,17.2666
2023-03-15 13:52:00:129,1.51483,0.162941,-9.52968,-1.37256,-4.44505,16.3661
2023-03-15 13:52:00:139,1.49364,0.0650607,-9.66173,-1.23348,-4.4331,15.5587
2023-03-15 13:52:00:148,1.42844,-0.0351111,-9.7766,-1.11051,-4.42085,14.8402
2023-03-15 13:52:00:159,1.26349,-0.0291645,-9.85874,-1.00726,-4.41345,14.2101
2023-03-15 13:52:00:169,1.041,0.0838479,-9.95259,-0.914878,-4.41819,13.6546
2023-03-15 13:52:00:179,0.812303,0.18419,-10.0063,-0.827544,-4.43985,13.167
2023-03-15 13:52:00:189,0.625184,0.154306,-9.97231,-0.734231,-4.4675,12.7363
2023-03-15 13:52:00:199,0.45991,0.061241,-9.91963,-0.637077,-4.5058,12.3592
2023-03-15 13:52:00:209,0.279645,0.0149694,-9.94163,-0.537893,-4.54846,12.0324
2023-03-15 13:52:00:219,0.0650242,-0.0110528,-9.91515,-0.436162,-4.59824,11.7536
2023-03-15 13:52:00:229,-0.104241,-0.0269171,-9.74856,-0.332722,-4.65499,11.5127
2023-03-15 13:52:00:239,-0.237387,-0.0656717,-9.60034,-0.227412,-4.71061,11.3046
2023-03-15 13:52:00:249,-0.404025,-0.0425727,-9.55846,-0.128627,-4.76719,11.1249
2023-03-15 13:52:00:259,-0.573206,-0.00583882,-9.58821,-0.0339666,-4.81784,10.9644
2023-03-15 13:52:00:269,-0.650691,-0.0040675,-9.62433,0.0548192,-4.8632,10.8127
2023-03-15 13:52:00:279,-0.676922,-0.0504786,-9.62163,0.148115,-4.9023,10.6745
2023-03-15 13:52:00:289,-0.685606,-0.121367,-9.57184,0.239543,-4.94112,10.5449
2023-03-15 13:52:00:299,-0.735842,-0.124103,-9.56019,0.323136,-4.97656,10.4312
2023-03-15 13:52:00:309,-0.711469,-0.168436,-9.50926,0.410164,-5.01189,10.3186
2023-03-15 13:52:00:319,-0.724731,-0.219855,-9.41942,0.494694,-5.04795,10.219
2023-03-15 13:52:00:329,-0.876265,-0.209281,-9.40159,0.570003,-5.08182,10.1308
2023-03-15 13:52:00:339,-0.95889,-0.216418,-9.4226,0.639036,-5.10679,10.0453
2023-03-15 13:52:00:349,-0.909532,-0.259206,-9.49502,0.699615,-5.12444,9.95804
2023-03-15 13:52:00:359,-0.832294,-0.279513,-9.5854,0.75345,-5.14288,9.8648
2023-03-15 13:52:00:369,-0.755498,-0.304917,-9.6299,0.799887,-5.16072,9.77789
2023-03-15 13:52:00:379,-0.699244,-0.364157,-9.63189,0.842323,-5.18782,9.69596
2023-03-15 13:52:00:389,-0.653188,-0.405782,-9.61641,0.875605,-5.22094,9.62251
2023-03-15 13:52:00:399,-0.643875,-0.407583,-9.64214,0.90053,-5.26354,9.56454
2023-03-15 13:52:00:409,-0.688353,-0.383404,-9.64367,0.911012,-5.31333,9.52102
2023-03-15 13:52:00:419,-0.76532,-0.430324,-9.50792,0.91458,-5.37586,9.48862
2023-03-15 13:52:00:429,-0.998837,-0.310701,-9.54455,0.895861,-5.45349,9.47143
2023-03-15 13:52:00:439,-1.17506,-0.132453,-9.80995,0.87375,-5.5114,9.46497
2023-03-15 13:52:00:449,-1.22664,-0.193431,-9.66879,0.861728,-5.57047,9.45527
2023-03-15 13:52:00:459,-1.45395,-0.141919,-9.62918,0.844137,-5.61381,9.43744
2023-03-15 13:52:00:469,-1.36198,-0.192207,-9.54428,0.822762,-5.66394,9.4076
2023-03-15 13:52:00:479,-1.18825,-0.190864,-9.60891,0.788775,-5.70806,9.37543
2023-03-15 13:52:00:489,-1.18148,-0.112562,-9.71544,0.744608,-5.7538,9.3477
2023-03-15 13:52:00:499,-1.24907,-0.0353151,-9.84042,0.694454,-5.79815,9.3176
2023-03-15 13:52:00:509,-1.26702,0.00214801,-9.909,0.656412,-5.84667,9.28459
2023-03-15 13:52:00:519,-1.37323,0.0273174,-9.88286,0.627253,-5.89524,9.25031
2023-03-15 13:52:00:529,-1.52935,0.0433937,-9.82703,0.608976,-5.94313,9.21278
2023-03-15 13:52:00:539,-1.62886,0.0664076,-9.81028,0.603489,-5.98232,9.17136
2023-03-15 13:52:00:549,-1.60927,0.0212183,-9.7562,0.614394,-6.01095,9.11559
2023-03-15 13:52:00:559,-1.53006,-0.0534321,-9.72111,0.632256,-6.0311,9.04933
2023-03-15 13:52:00:569,-1.44725,-0.10125,-9.6995,0.652915,-6.03497,8.97175
2023-03-15 13:52:00:579,-1.36591,-0.155871,-9.67613,0.679219,-6.03097,8.88896
2023-03-15 13:52:00:589,-1.28711,-0.161178,-9.67262,0.708035,-6.02433,8.80176
2023-03-15 13:52:00:599,-1.22313,-0.151107,-9.67991,0.730581,-6.01065,8.71145
2023-03-15 13:52:00:609,-1.13787,-0.188725,-9.64613,0.754546,-5.98946,8.62347
2023-03-15 13:52:00:619,-1.06698,-0.229212,-9.58774,0.779368,-5.96629,8.53891
2023-03-15 13:52:00:629,-1.05363,-0.208311,-9.60211,0.795984,-5.94229,8.46067
2023-03-15 13:52:00:639,-1.03211,-0.205449,-9.64812,0.809752,-5.90452,8.3844
2023-03-15 13:52:00:649,-0.994474,-0.209641,-9.65287,0.82032,-5.87133,8.31071
2023-03-15 13:52:00:659,-0.970035,-0.209649,-9.67601,0.826809,-5.83264,8.24548
2023-03-15 13:52:00:669,-0.966573,-0.19682,-9.68642,0.83065,-5.79839,8.18308
2023-03-15 13:52:00:679,-0.971737,-0.195594,-9.67639,0.832025,-5.7687,8.1189
2023-03-15 13:52:00:689,-0.979779,-0.14681,-9.72253,0.828734,-5.74039,8.05381
2023-03-15 13:52:00:699,-0.946393,-0.109551,-9.78945,0.826284,-5.71668,7.98798
2023-03-15 13:52:00:709,-0.884502,-0.115135,-9.80986,0.82612,-5.6949,7.91935
2023-03-15 13:52:00:719,-0.852288,-0.128599,-9.75971,0.826042,-5.6761,7.85803
2023-03-15 13:52:00:729,-0.883421,-0.137406,-9.7251,0.831176,-5.6637,7.79943
2023-03-15 13:52:00:739,-0.948237,-0.122172,-9.71103,0.83231,-5.65707,7.74274
2023-03-15 13:52:00:749,-0.98467,-0.116619,-9.69558,0.830573,-5.65323,7.6896
2023-03-15 13:52:00:759,-0.949655,-0.113683,-9.6915,0.830843,-5.65314,7.63072
2023-03-15 13:52:00:769,-0.891075,-0.130421,-9.70282,0.833037,-5.64701,7.57342
2023-03-15 13:52:00:779,-0.843726,-0.145027,-9.71792,0.829754,-5.6446,7.52225
2023-03-15 13:52:00:789,-0.816669,-0.15653,-9.74476,0.830768,-5.64487,7.4766
2023-03-15 13:52:00:799,-0.832445,-0.158248,-9.74858,0.832367,-5.64714,7.43434
2023-03-15 13:52:00:809,-0.877966,-0.175762,-9.72983,0.827893,-5.65703,7.40278
2023-03-15 13:52:00:819,-0.937786,-0.160677,-9.7146,0.829554,-5.66924,7.37555
2023-03-15 13:52:00:829,-0.968942,-0.147753,-9.75207,0.828905,-5.67565,7.3575
2023-03-15 13:52:00:838,-0.973177,-0.156187,-9.71214,0.831363,-5.68245,7.33773
2023-03-15 13:52:00:849,-0.982362,-0.153279,-9.66791,0.832687,-5.68356,7.31978
2023-03-15 13:52:00:859,-0.981174,-0.154905,-9.64989,0.834199,-5.6777,7.3046
2023-03-15 13:52:00:869,-0.942991,-0.155955,-9.65305,0.831996,-5.66883,7.29294
2023-03-15 13:52:00:879,-0.930727,-0.158092,-9.66095,0.829654,-5.65728,7.28697
2023-03-15 13:52:00:889,-0.945032,-0.144459,-9.66964,0.824249,-5.6456,7.28173
2023-03-15 13:52:00:899,-0.965441,-0.145823,-9.67908,0.81525,-5.6246,7.28362
2023-03-15 13:52:00:909,-0.960383,-0.136471,-9.68307,0.80514,-5.60478,7.28345
2023-03-15 13:52:00:919,-0.96228,-0.128619,-9.68318,0.791168,-5.58719,7.2844
2023-03-15 13:52:00:929,-0.963275,-0.102033,-9.70765,0.778471,-5.56756,7.28283
2023-03-15 13:52:00:939,-0.971715,-0.0722797,-9.72661,0.760422,-5.5479,7.2788
2023-03-15 13:52:00:949,-0.967021,-0.0831326,-9.72044,0.744113,-5.52605,7.27091
2023-03-15 13:52:00:959,-0.94159,-0.0787585,-9.73696,0.730194,-5.50733,7.26218
2023-03-15 13:52:00:969,-0.929327,-0.0506469,-9.75135,0.717441,-5.48735,7.24794
2023-03-15 13:52:00:979,-0.932019,-0.0410156,-9.78132,0.703434,-5.46815,7.22927
2023-03-15 13:52:00:989,-0.929809,-0.0355647,-9.76059,0.695455,-5.45047,7.20762
2023-03-15 13:52:00:999,-0.934177,-0.0404844,-9.71263,0.687597,-5.43533,7.17987
2023-03-15 13:52:01:9,-0.951897,-0.0454313,-9.68743,0.68113,-5.42204,7.15049
2023-03-15 13:52:01:19,-0.955855,-0.0405215,-9.67556,0.671495,-5.40579,7.11459
2023-03-15 13:52:01:29,-0.959574,-0.0492728,-9.72869,0.658632,-5.39181,7.0735
2023-03-15 13:52:01:39,-0.95513,-0.0296752,-9.78596,0.645315,-5.37937,7.02864
2023-03-15 13:52:01:49,-0.916101,-0.024317,-9.81083,0.632057,-5.3707,6.97982
2023-03-15 13:52:01:59,-0.898945,-0.0401741,-9.7995,0.623977,-5.36326,6.92728
2023-03-15 13:52:01:69,-0.887596,-0.0570619,-9.7135,0.621627,-5.35529,6.87195
2023-03-15 13:52:01:79,-0.889821,-0.0938681,-9.63173,0.618238,-5.3435,6.81582
2023-03-15 13:52:01:89,-0.899273,-0.123815,-9.57484,0.61258,-5.32967,6.76173
2023-03-15 13:52:01:99,-0.896409,-0.142068,-9.54037,0.597181,-5.31077,6.70992
2023-03-15 13:52:01:109,-0.88459,-0.135321,-9.60147,0.571373,-5.29251,6.65571
2023-03-15 13:52:01:119,-0.858869,-0.0965744,-9.73422,0.534595,-5.27313,6.60068
2023-03-15 13:52:01:129,-0.825881,-0.0525455,-9.83801,0.494085,-5.25709,6.54339
2023-03-15 13:52:01:139,-0.839782,-0.0589909,-9.83062,0.459469,-5.2416,6.48708
2023-03-15 13:52:01:149,-0.874604,-0.0985799,-9.7648,0.428219,-5.22864,6.43144
2023-03-15 13:52:01:159,-0.910053,-0.118537,-9.65875,0.399115,-5.21294,6.37863
2023-03-15 13:52:01:169,-0.965488,-0.111613,-9.56894,0.36454,-5.19892,6.3208
2023-03-15 13:52:01:179,-1.00594,-0.0761969,-9.53786,0.319504,-5.18867,6.25734
2023-03-15 13:52:01:189,-0.993686,-0.0229386,-9.57696,0.266005,-5.17598,6.18625
2023-03-15 13:52:01:199,-0.935787,0.0155274,-9.65445,0.203719,-5.15995,6.10807
2023-03-15 13:52:01:209,-0.885435,0.0644849,-9.74335,0.14026,-5.14828,6.02139
2023-03-15 13:52:01:219,-0.858721,0.0782946,-9.76318,0.0787521,-5.13456,5.93511
2023-03-15 13:52:01:229,-0.844618,0.0589192,-9.69831,0.0263839,-5.12768,5.84478
2023-03-15 13:52:01:239,-0.824,0.00558956,-9.61937,-0.0243868,-5.11787,5.7544
2023-03-15 13:52:01:249,-0.823137,-0.0201535,-9.58922,-0.0724979,-5.10807,5.66734
2023-03-15 13:52:01:259,-0.810456,-0.00195406,-9.61038,-0.123903,-5.09182,5.58259
2023-03-15 13:52:01:269,-0.770869,0.0427224,-9.72374,-0.181639,-5.07727,5.49874
2023-03-15 13:52:01:279,-0.745451,0.06577,-9.81347,-0.238571,-5.06416,5.41119
2023-03-15 13:52:01:289,-0.712432,0.0843649,-9.85749,-0.28986,-5.05655,5.32273
2023-03-15 13:52:01:299,-0.684783,0.0867838,-9.85731,-0.33549,-5.05438,5.23675
2023-03-15 13:52:01:309,-0.68132,0.0640655,-9.79888,-0.373076,-5.05898,5.15155
2023-03-15 13:52:01:319,-0.67167,0.047868,-9.75889,-0.410553,-5.06624,5.07486
2023-03-15 13:52:01:329,-0.650925,0.0475621,-9.72681,-0.448482,-5.07608,5.00389
2023-03-15 13:52:01:339,-0.637351,0.0627947,-9.73807,-0.48359,-5.08754,4.93594
2023-03-15 13:52:01:349,-0.620081,0.0997013,-9.79742,-0.522667,-5.10398,4.87473
2023-03-15 13:52:01:359,-0.629745,0.130163,-9.83886,-0.563143,-5.12264,4.82097
2023-03-15 13:52:01:369,-0.679729,0.180026,-9.85726,-0.602432,-5.14736,4.77889
2023-03-15 13:52:01:379,-0.706755,0.196535,-9.87613,-0.637562,-5.17199,4.74085
2023-03-15 13:52:01:389,-0.709367,0.204569,-9.8746,-0.661245,-5.19518,4.70927
2023-03-15 13:52:01:399,-0.738641,0.211582,-9.84682,-0.680243,-5.21635,4.68552
2023-03-15 13:52:01:409,-0.758471,0.190737,-9.80415,-0.697083,-5.23881,4.67025
2023-03-15 13:52:01:419,-0.756269,0.173435,-9.78209,-0.711898,-5.26054,4.65761
2023-03-15 13:52:01:429,-0.7574,0.178347,-9.78941,-0.727456,-5.27605,4.65939
2023-03-15 13:52:01:439,-0.796627,0.213912,-9.81198,-0.737535,-5.29533,4.66717
2023-03-15 13:52:01:449,-0.837597,0.231284,-9.82292,-0.747554,-5.31373,4.67742
2023-03-15 13:52:01:459,-0.873636,0.22384,-9.82,-0.752527,-5.33314,4.69002
2023-03-15 13:52:01:469,-0.882479,0.222487,-9.78678,-0.750389,-5.34527,4.70119
2023-03-15 13:52:01:479,-0.885258,0.206062,-9.77491,-0.743156,-5.35617,4.71991
2023-03-15 13:52:01:489,-0.895308,0.212273,-9.78027,-0.733995,-5.36798,4.73958
2023-03-15 13:52:01:499,-0.890731,0.196855,-9.79396,-0.72455,-5.37898,4.76049
2023-03-15 13:52:01:509,-0.885434,0.175068,-9.79187,-0.707103,-5.3912,4.78232
2023-03-15 13:52:01:519,-0.8842,0.160743,-9.77834,-0.689775,-5.4063,4.80835
2023-03-15 13:52:01:529,-0.886573,0.141907,-9.76718,-0.668007,-5.4234,4.83626
2023-03-15 13:52:01:539,-0.886647,0.12926,-9.74432,-0.646547,-5.44062,4.86475
2023-03-15 13:52:01:549,-0.881108,0.136588,-9.73971,-0.628121,-5.45911,4.90121
2023-03-15 13:52:01:559,-0.874544,0.129151,-9.72748,-0.610318,-5.4744,4.93781
2023-03-15 13:52:01:569,-0.86799,0.110482,-9.71593,-0.590609,-5.49136,4.98032
2023-03-15 13:52:01:579,-0.870767,0.101961,-9.72908,-0.571853,-5.50751,5.02177
2023-03-15 13:52:01:589,-0.896541,0.108527,-9.71798,-0.554555,-5.5259,5.06834
2023-03-15 13:52:01:599,-0.91722,0.103921,-9.70134,-0.538944,-5.54205,5.11838
2023-03-15 13:52:01:609,-0.961824,0.112821,-9.67788,-0.519819,-5.55668,5.17161
2023-03-15 13:52:01:619,-1.00559,0.116888,-9.69846,-0.502498,-5.57097,5.22707
2023-03-15 13:52:01:629,-1.0167,0.115572,-9.71246,-0.487027,-5.58386,5.27701
2023-03-15 13:52:01:639,-1.01302,0.114426,-9.71631,-0.471783,-5.59145,5.32827
2023-03-15 13:52:01:649,-1.01331,0.0988905,-9.70372,-0.455904,-5.59794,5.37892
2023-03-15 13:52:01:659,-0.980716,0.0828752,-9.69246,-0.435795,-5.60057,5.42768
2023-03-15 13:52:01:669,-0.968156,0.0687877,-9.68043,-0.418704,-5.6042,5.47598
2023-03-15 13:52:01:679,-0.971318,0.0560179,-9.67263,-0.403986,-5.61253,5.52221
2023-03-15 13:52:01:689,-0.984852,0.0600965,-9.69352,-0.394106,-5.62217,5.57099
2023-03-15 13:52:01:698,-1.03098,0.0776932,-9.69573,-0.386823,-5.63242,5.6184
2023-03-15 13:52:01:708,-1.07105,0.0945223,-9.69429,-0.376114,-5.64262,5.66416
2023-03-15 13:52:01:719,-1.07969,0.0951262,-9.6886,-0.369386,-5.65328,5.70774
2023-03-15 13:52:01:729,-1.04596,0.0967846,-9.68263,-0.362323,-5.66446,5.7418
2023-03-15 13:52:01:739,-1.01463,0.092246,-9.6809,-0.353224,-5.67182,5.77291
2023-03-15 13:52:01:749,-1.0264,0.0960841,-9.70262,-0.348345,-5.68204,5.79943
2023-03-15 13:52:01:759,-1.0379,0.104378,-9.71797,-0.346481,-5.6955,5.82111
2023-03-15 13:52:01:769,-1.03404,0.10261,-9.7184,-0.342204,-5.70844,5.84093
2023-03-15 13:52:01:779,-1.0407,0.114501,-9.71474,-0.33662,-5.72016,5.85562
2023-03-15 13:52:01:789,-1.03784,0.107454,-9.70289,-0.32909,-5.73449,5.87159
2023-03-15 13:52:01:799,-1.02834,0.0904443,-9.71621,-0.318635,-5.74729,5.8835
2023-03-15 13:52:01:809,-1.0225,0.0927311,-9.74152,-0.310833,-5.75902,5.89175
2023-03-15 13:52:01:819,-1.00549,0.0860714,-9.77445,-0.302905,-5.77161,5.9054
2023-03-15 13:52:01:829,-0.987359,0.0719921,-9.8029,-0.291792,-5.78442,5.91953
2023-03-15 13:52:01:839,-0.966571,0.0456578,-9.79867,-0.276635,-5.79564,5.93096
2023-03-15 13:52:01:849,-0.96971,0.0099418,-9.75196,-0.259828,-5.80727,5.94362
2023-03-15 13:52:01:859,-1.00704,0.00653139,-9.72437,-0.245543,-5.81948,5.96405
2023-03-15 13:52:01:869,-1.03268,0.0368594,-9.74033,-0.236412,-5.83021,5.98496
2023-03-15 13:52:01:879,-1.02833,0.07374,-9.74047,-0.231332,-5.84135,6.00571
2023-03-15 13:52:01:889,-1.04308,0.0842017,-9.69289,-0.228059,-5.85219,6.02324
2023-03-15 13:52:01:899,-1.06852,0.101695,-9.65872,-0.223684,-5.85845,6.0444
2023-03-15 13:52:01:909,-1.12262,0.13049,-9.66414,-0.223929,-5.86604,6.06739
2023-03-15 13:52:01:919,-1.15882,0.160549,-9.69296,-0.221949,-5.86817,6.07904
2023-03-15 13:52:01:929,-1.1564,0.163215,-9.71159,-0.217451,-5.86361,6.0897
2023-03-15 13:52:01:939,-1.13943,0.143537,-9.70712,-0.206293,-5.856,6.09533
2023-03-15 13:52:01:949,-1.12147,0.120258,-9.69104,-0.185632,-5.84846,6.09575
2023-03-15 13:52:01:959,-1.09011,0.0823634,-9.66919,-0.162358,-5.8342,6.09496
2023-03-15 13:52:01:969,-1.05166,0.0278507,-9.6603,-0.141255,-5.81921,6.0952
2023-03-15 13:52:01:979,-1.0182,-0.0102895,-9.67028,-0.122029,-5.80478,6.09549
2023-03-15 13:52:01:989,-1.0217,-0.0142148,-9.67956,-0.108327,-5.79623,6.09395
2023-03-15 13:52:01:999,-1.08407,0.0294296,-9.71353,-0.10476,-5.79621,6.09033
2023-03-15 13:52:02:9,-1.12474,0.0804136,-9.74242,-0.100209,-5.79681,6.08182
2023-03-15 13:52:02:19,-1.12796,0.0749089,-9.75972,-0.0912338,-5.79033,6.06726
2023-03-15 13:52:02:29,-1.09532,0.0679767,-9.75598,-0.0764347,-5.7827,6.04843
2023-03-15 13:52:02:39,-1.05127,0.0481123,-9.73167,-0.059615,-5.7673,6.02874
2023-03-15 13:52:02:49,-1.01145,0.0276576,-9.7148,-0.0465419,-5.75591,6.00192
2023-03-15 13:52:02:59,-0.971613,0.00978727,-9.71602,-0.0355508,-5.74638,5.97738
2023-03-15 13:52:02:69,-0.95683,0.00832729,-9.71918,-0.0276759,-5.74204,5.95465
2023-03-15 13:52:02:79,-0.994428,0.0139132,-9.71997,-0.0227467,-5.74291,5.93066
2023-03-15 13:52:02:89,-1.04586,0.0347397,-9.75063,-0.0176391,-5.74367,5.9069
2023-03-15 13:52:02:99,-1.0755,0.0533988,-9.75187,-0.00897467,-5.74546,5.8791
2023-03-15 13:52:02:109,-1.05846,0.0600117,-9.74753,0.00330711,-5.74636,5.85031
2023-03-15 13:52:02:119,-1.01746,0.0393903,-9.73163,0.0179325,-5.73673,5.8204
2023-03-15 13:52:02:129,-0.993164,0.0357118,-9.72156,0.0327546,-5.72621,5.79208
2023-03-15 13:52:02:139,-0.939581,-0.000292561,-9.68379,0.0491951,-5.71492,5.76695
2023-03-15 13:52:02:149,-0.934505,-0.0514847,-9.62759,0.0666069,-5.70644,5.74561
2023-03-15 13:52:02:159,-0.946809,-0.0401834,-9.60698,0.0800801,-5.69681,5.72581
2023-03-15 13:52:02:169,-0.963328,0.0034736,-9.66197,0.0889207,-5.6892,5.7057
2023-03-15 13:52:02:179,-0.964448,0.0254009,-9.71896,0.100226,-5.6787,5.68437
2023-03-15 13:52:02:189,-0.948769,0.0181299,-9.73735,0.110504,-5.67134,5.66273
2023-03-15 13:52:02:198,-0.950658,-0.0101497,-9.75553,0.123017,-5.66526,5.63846
2023-03-15 13:52:02:209,-0.957864,-0.0189983,-9.75858,0.13249,-5.65903,5.62074
2023-03-15 13:52:02:219,-0.961579,-0.0492552,-9.74207,0.147186,-5.65343,5.6045
2023-03-15 13:52:02:229,-0.954598,-0.0738633,-9.721,0.157479,-5.65295,5.58804
2023-03-15 13:52:02:239,-0.950624,-0.0584199,-9.71479,0.164852,-5.65424,5.57629
2023-03-15 13:52:02:249,-0.96661,-0.0548571,-9.70937,0.17212,-5.65417,5.56407
2023-03-15 13:52:02:259,-0.990205,-0.0374682,-9.70937,0.175479,-5.65381,5.54968
2023-03-15 13:52:02:269,-1.02741,-0.0109204,-9.71601,0.177111,-5.65368,5.54041
2023-03-15 13:52:02:279,-1.06157,0.0132147,-9.7032,0.179416,-5.65833,5.52987
2023-03-15 13:52:02:289,-1.07332,0.0242543,-9.69519,0.18492,-5.65858,5.51515
2023-03-15 13:52:02:299,-1.08146,0.0270506,-9.70607,0.18695,-5.65432,5.49849
2023-03-15 13:52:02:309,-1.07534,0.0306802,-9.73512,0.188124,-5.65164,5.47789
2023-03-15 13:52:02:318,-1.07842,0.036463,-9.74339,0.194703,-5.64365,5.45648
2023-03-15 13:52:02:329,-1.09322,0.0482218,-9.75636,0.204267,-5.63216,5.42548
2023-03-15 13:52:02:339,-1.08835,0.0363437,-9.73761,0.218652,-5.62041,5.39195
2023-03-15 13:52:02:349,-1.07571,0.00854041,-9.71578,0.236307,-5.61245,5.35137
2023-03-15 13:52:02:359,-1.07142,-0.0137818,-9.70994,0.250478,-5.60778,5.30339
2023-03-15 13:52:02:369,-1.04288,-0.0355523,-9.70704,0.265368,-5.6054,5.25214
2023-03-15 13:52:02:379,-1.00028,-0.00797804,-9.7319,0.274612,-5.60421,5.18892
2023-03-15 13:52:02:389,-0.999339,-0.00639577,-9.74478,0.289022,-5.60342,5.12287
2023-03-15 13:52:02:399,-1.03893,-0.0183717,-9.74642,0.309018,-5.59807,5.05367
2023-03-15 13:52:02:409,-1.03468,-0.0303908,-9.72522,0.326421,-5.59663,4.98408
2023-03-15 13:52:02:419,-0.994316,-0.0329667,-9.71866,0.345739,-5.5901,4.90649
2023-03-15 13:52:02:429,-0.96415,-0.0813335,-9.6818,0.366147,-5.58593,4.82596
2023-03-15 13:52:02:439,-0.975997,-0.103606,-9.63775,0.382562,-5.58588,4.74819
2023-03-15 13:52:02:449,-0.971583,-0.0844272,-9.66719,0.393486,-5.58879,4.66751
2023-03-15 13:52:02:459,-0.958255,-0.0506246,-9.70255,0.398392,-5.59012,4.58408
2023-03-15 13:52:02:469,-0.95092,-0.0615772,-9.68878,0.407888,-5.58596,4.49965
2023-03-15 13:52:02:479,-0.94417,-0.0755966,-9.64642,0.415495,-5.58033,4.41426
2023-03-15 13:52:02:489,-0.910074,-0.0803364,-9.63928,0.424558,-5.56678,4.33056
2023-03-15 13:52:02:499,-0.834204,-0.106834,-9.67987,0.433212,-5.55082,4.24939
2023-03-15 13:52:02:509,-0.796221,-0.126973,-9.69437,0.43766,-5.53541,4.17227
2023-03-15 13:52:02:519,-0.796659,-0.0958851,-9.72763,0.442108,-5.51912,4.1065
2023-03-15 13:52:02:529,-0.801243,-0.0766175,-9.76574,0.441622,-5.5017,4.03938
2023-03-15 13:52:02:539,-0.76477,-0.108342,-9.75428,0.449274,-5.48496,3.98164
2023-03-15 13:52:02:549,-0.735519,-0.146021,-9.7354,0.460446,-5.47045,3.92976
2023-03-15 13:52:02:559,-0.760554,-0.162179,-9.71866,0.47051,-5.45826,3.88691
2023-03-15 13:52:02:569,-0.82148,-0.126919,-9.72771,0.469221,-5.451,3.84923
2023-03-15 13:52:02:579,-0.886647,-0.0736581,-9.74085,0.464614,-5.44221,3.81434
2023-03-15 13:52:02:589,-0.894978,-0.0373244,-9.74841,0.45455,-5.4339,3.78281
2023-03-15 13:52:02:599,-0.861978,-0.0380037,-9.72399,0.446316,-5.42455,3.74846
2023-03-15 13:52:02:609,-0.883775,-0.0371122,-9.69074,0.437498,-5.41142,3.71993
2023-03-15 13:52:02:619,-0.902524,-0.0182675,-9.72018,0.426918,-5.39769,3.69416
2023-03-15 13:52:02:629,-0.92338,-0.00515944,-9.73447,0.417753,-5.38517,3.67001
2023-03-15 13:52:02:639,-0.929976,-0.0082909,-9.70355,0.411065,-5.37255,3.64571
2023-03-15 13:52:02:649,-0.940555,-0.0200154,-9.64349,0.410423,-5.35801,3.6197
2023-03-15 13:52:02:659,-0.935092,-0.0532485,-9.63876,0.408595,-5.34016,3.59311
2023-03-15 13:52:02:669,-0.90632,-0.0672264,-9.66504,0.403716,-5.32501,3.56259
2023-03-15 13:52:02:679,-0.885204,-0.0747764,-9.70944,0.397553,-5.30975,3.53256
2023-03-15 13:52:02:689,-0.869378,-0.0679455,-9.74965,0.38618,-5.29904,3.5006
2023-03-15 13:52:02:699,-0.882695,-0.0352564,-9.772,0.379147,-5.29109,3.46684
2023-03-15 13:52:02:709,-0.885782,-0.0330128,-9.74113,0.374953,-5.28462,3.43038
2023-03-15 13:52:02:719,-0.880189,-0.0634089,-9.70615,0.369702,-5.28184,3.39837
2023-03-15 13:52:02:729,-0.879493,-0.0733551,-9.6967,0.363829,-5.27718,3.36331
2023-03-15 13:52:02:739,-0.869024,-0.0475297,-9.70595,0.355424,-5.26927,3.32877
2023-03-15 13:52:02:749,-0.845495,-0.0222428,-9.74422,0.347509,-5.25845,3.30093
2023-03-15 13:52:02:759,-0.778258,-0.00946924,-9.76551,0.335158,-5.24445,3.2738
2023-03-15 13:52:02:769,-0.732483,-0.0328327,-9.76245,0.324892,-5.23252,3.25013
2023-03-15 13:52:02:779,-0.764418,-0.0282547,-9.74875,0.314521,-5.22224,3.23197
2023-03-15 13:52:02:789,-0.806147,-0.000350981,-9.76688,0.303356,-5.21747,3.22199
2023-03-15 13:52:02:799,-0.838372,0.0181942,-9.81298,0.289253,-5.21538,3.21249
2023-03-15 13:52:02:809,-0.847405,0.0550209,-9.83992,0.274419,-5.20939,3.20321
2023-03-15 13:52:02:819,-0.832542,0.0606572,-9.83784,0.267634,-5.20379,3.1957
2023-03-15 13:52:02:829,-0.822347,0.0371006,-9.80553,0.262861,-5.19804,3.19133
2023-03-15 13:52:02:839,-0.798451,0.0182496,-9.78751,0.261945,-5.19292,3.18694
2023-03-15 13:52:02:849,-0.778307,0.0188589,-9.80338,0.260783,-5.18903,3.18838
2023-03-15 13:52:02:859,-0.792906,0.0264685,-9.81349,0.264876,-5.19236,3.18478
2023-03-15 13:52:02:869,-0.810143,0.0295001,-9.81471,0.271798,-5.19629,3.18579
2023-03-15 13:52:02:879,-0.799102,0.0159823,-9.8012,0.282267,-5.20316,3.19555
2023-03-15 13:52:02:889,-0.777655,-0.00257775,-9.76611,0.294049,-5.20428,3.20769
2023-03-15 13:52:02:899,-0.769825,-0.0206842,-9.74443,0.309745,-5.21021,3.22018
2023-03-15 13:52:02:909,-0.781788,-0.0135603,-9.73493,0.323628,-5.21282,3.23952
2023-03-15 13:52:02:919,-0.762436,-0.0280295,-9.73011,0.337686,-5.21844,3.26283
2023-03-15 13:52:02:929,-0.711816,-0.0369341,-9.75461,0.349359,-5.22219,3.2936
2023-03-15 13:52:02:939,-0.64736,-0.0422905,-9.78756,0.362915,-5.22826,3.33299
2023-03-15 13:52:02:949,-0.613805,-0.0426643,-9.79651,0.377609,-5.2349,3.38479
2023-03-15 13:52:02:959,-0.610817,-0.0445816,-9.78525,0.3934,-5.24541,3.44817
2023-03-15 13:52:02:969,-0.608371,-0.07503,-9.76289,0.410431,-5.25046,3.52301
2023-03-15 13:52:02:979,-0.569342,-0.0970177,-9.7571,0.430074,-5.25725,3.61146
2023-03-15 13:52:02:989,-0.519158,-0.115308,-9.76159,0.452524,-5.26438,3.71494
2023-03-15 13:52:02:999,-0.612071,-0.122436,-9.68316,0.473412,-5.2787,3.83848
2023-03-15 13:52:03:9,-0.667297,-0.122984,-9.65734,0.487086,-5.29533,3.97378
2023-03-15 13:52:03:19,-0.663333,-0.100085,-9.72323,0.500671,-5.30338,4.11793
2023-03-15 13:52:03:29,-0.725326,-0.0768625,-9.73382,0.511034,-5.31464,4.27248
2023-03-15 13:52:03:39,-0.78069,-0.0606301,-9.73576,0.5198,-5.3241,4.43298
2023-03-15 13:52:03:49,-0.79379,-0.0447424,-9.7749,0.528433,-5.33577,4.59577
2023-03-15 13:52:03:59,-0.816401,-0.0329984,-9.79964,0.537191,-5.34602,4.76418
2023-03-15 13:52:03:69,-0.857041,-0.0240908,-9.79594,0.549273,-5.35333,4.93478
2023-03-15 13:52:03:79,-0.869551,-0.0201866,-9.79818,0.570157,-5.36611,5.10374
2023-03-15 13:52:03:89,-0.883104,-0.0507087,-9.75349,0.594475,-5.38361,5.27374
2023-03-15 13:52:03:99,-0.965553,-0.0524345,-9.70231,0.616829,-5.41094,5.44192
2023-03-15 13:52:03:109,-1.04991,-0.0596329,-9.685,0.635462,-5.43717,5.60688
2023-03-15 13:52:03:119,-1.13698,-0.0541422,-9.65401,0.654538,-5.46689,5.7662
2023-03-15 13:52:03:129,-1.19374,-0.0487413,-9.66789,0.670643,-5.49759,5.91647
2023-03-15 13:52:03:139,-1.23749,-0.040849,-9.70229,0.685905,-5.52336,6.05472
2023-03-15 13:52:03:149,-1.26321,-0.0413352,-9.71143,0.702701,-5.54094,6.18084
2023-03-15 13:52:03:159,-1.2189,-0.0631924,-9.73093,0.722736,-5.54897,6.29801
2023-03-15 13:52:03:169,-1.14055,-0.124113,-9.6929,0.746228,-5.55689,6.40338
2023-03-15 13:52:03:179,-1.13159,-0.144465,-9.65069,0.771145,-5.56929,6.5042
2023-03-15 13:52:03:189,-1.11456,-0.132863,-9.66505,0.78921,-5.5843,6.59439
2023-03-15 13:52:03:199,-1.13888,-0.115333,-9.6984,0.804284,-5.60173,6.6744
2023-03-15 13:52:03:209,-1.12163,-0.0996472,-9.71318,0.815604,-5.62382,6.74561
2023-03-15 13:52:03:219,-1.12975,-0.0940848,-9.7296,0.828339,-5.64455,6.81273
2023-03-15 13:52:03:229,-1.11471,-0.0798253,-9.78347,0.846256,-5.65984,6.86973
2023-03-15 13:52:03:239,-1.05577,-0.104253,-9.78396,0.867631,-5.67043,6.91758
2023-03-15 13:52:03:249,-0.989433,-0.165052,-9.7501,0.896252,-5.67684,6.96106
2023-03-15 13:52:03:259,-0.988287,-0.219385,-9.69522,0.923821,-5.68733,7.00967
2023-03-15 13:52:03:269,-1.0205,-0.218542,-9.6677,0.941958,-5.70625,7.05982
2023-03-15 13:52:03:279,-1.08749,-0.176448,-9.66324,0.953389,-5.73185,7.10648
2023-03-15 13:52:03:289,-1.11805,-0.130651,-9.67947,0.963318,-5.75176,7.15013
2023-03-15 13:52:03:299,-1.11447,-0.13237,-9.67365,0.974272,-5.76699,7.18924
2023-03-15 13:52:03:309,-1.09401,-0.161365,-9.64053,0.982594,-5.78239,7.22505
2023-03-15 13:52:03:318,-1.10365,-0.143764,-9.6449,0.987505,-5.79454,7.25804
2023-03-15 13:52:03:329,-1.12433,-0.102496,-9.66664,0.990665,-5.8031,7.28568
2023-03-15 13:52:03:339,-1.11446,-0.102447,-9.6712,0.994452,-5.80741,7.30826
2023-03-15 13:52:03:349,-1.09166,-0.135608,-9.63816,1.00147,-5.81261,7.32785
2023-03-15 13:52:03:359,-1.07444,-0.171636,-9.60132,1.01142,-5.81156,7.34626
2023-03-15 13:52:03:369,-1.04721,-0.201583,-9.57751,1.0192,-5.81,7.36245
2023-03-15 13:52:03:379,-1.03341,-0.217256,-9.58342,1.02585,-5.80831,7.37812
2023-03-15 13:52:03:389,-1.05139,-0.224922,-9.63027,1.0239,-5.80871,7.39097
2023-03-15 13:52:03:399,-1.08619,-0.212216,-9.68044,1.01941,-5.80918,7.4018
2023-03-15 13:52:03:409,-1.08208,-0.189227,-9.70445,1.01266,-5.81071,7.40766
2023-03-15 13:52:03:419,-1.06756,-0.18555,-9.71687,0.999973,-5.81032,7.41212
2023-03-15 13:52:03:429,-1.06608,-0.196983,-9.723,0.986569,-5.80965,7.41965
2023-03-15 13:52:03:439,-1.0757,-0.20122,-9.72119,0.974163,-5.80506,7.42519
2023-03-15 13:52:03:449,-1.07381,-0.198521,-9.73494,0.961144,-5.79965,7.43252
2023-03-15 13:52:03:459,-1.03499,-0.19645,-9.75961,0.943559,-5.79124,7.44292
2023-03-15 13:52:03:469,-1.01128,-0.216157,-9.79019,0.930262,-5.78268,7.45407
2023-03-15 13:52:03:479,-1.04562,-0.241981,-9.79944,0.914207,-5.77585,7.46698
2023-03-15 13:52:03:489,-1.08802,-0.249591,-9.79637,0.896242,-5.76761,7.48968
2023-03-15 13:52:03:499,-1.10301,-0.252144,-9.81462,0.879887,-5.75806,7.52161
2023-03-15 13:52:03:509,-1.12432,-0.255716,-9.83978,0.86427,-5.74092,7.56052
2023-03-15 13:52:03:519,-1.17795,-0.261842,-9.83067,0.850487,-5.72389,7.59928
2023-03-15 13:52:03:529,-1.20124,-0.275209,-9.81641,0.835146,-5.70616,7.64228
2023-03-15 13:52:03:539,-1.22564,-0.300641,-9.77618,0.822633,-5.68278,7.68501
2023-03-15 13:52:03:549,-1.30541,-0.279119,-9.74567,0.814228,-5.66063,7.73037
2023-03-15 13:52:03:559,-1.36017,-0.2484,-9.76165,0.803391,-5.63304,7.77542
2023-03-15 13:52:03:569,-1.32374,-0.211217,-9.80709,0.795697,-5.5946,7.8101
2023-03-15 13:52:03:579,-1.26295,-0.237402,-9.755,0.796188,-5.55703,7.83667
2023-03-15 13:52:03:589,-1.25799,-0.29675,-9.65461,0.800045,-5.51962,7.85855
2023-03-15 13:52:03:599,-1.20573,-0.309805,-9.62498,0.799516,-5.48318,7.87483
2023-03-15 13:52:03:609,-1.1042,-0.309421,-9.67458,0.792573,-5.44948,7.8831
2023-03-15 13:52:03:619,-1.04896,-0.277003,-9.73586,0.775317,-5.41876,7.88862
2023-03-15 13:52:03:629,-1.05946,-0.221987,-9.80509,0.751406,-5.39679,7.89288
2023-03-15 13:52:03:639,-1.07031,-0.192016,-9.89959,0.729707,-5.37752,7.88823
2023-03-15 13:52:03:649,-1.10723,-0.184873,-9.92731,0.713661,-5.358,7.87533
2023-03-15 13:52:03:659,-1.24342,-0.203973,-9.85949,0.708706,-5.3335,7.84985
2023-03-15 13:52:03:669,-1.40936,-0.223385,-9.75874,0.717405,-5.29865,7.80814
2023-03-15 13:52:03:679,-1.46224,-0.27932,-9.69056,0.739073,-5.24183,7.7365
2023-03-15 13:52:03:689,-1.34482,-0.340641,-9.66518,0.764507,-5.14952,7.63243
2023-03-15 13:52:03:699,-1.05945,-0.398177,-9.65747,0.79418,-5.02504,7.49118
2023-03-15 13:52:03:709,-0.647534,-0.456436,-9.66732,0.829457,-4.86914,7.32366
2023-03-15 13:52:03:719,-0.149947,-0.532227,-9.69964,0.861195,-4.69539,7.13762
2023-03-15 13:52:03:729,0.307288,-0.618582,-9.73757,0.888856,-4.52478,6.95035
2023-03-15 13:52:03:739,0.632043,-0.693544,-9.73621,0.904478,-4.37476,6.77836
2023-03-15 13:52:03:749,0.764632,-0.758071,-9.7629,0.908536,-4.26117,6.63116
2023-03-15 13:52:03:759,0.701003,-0.787324,-9.78928,0.892377,-4.19225,6.51985
2023-03-15 13:52:03:769,0.519113,-0.768919,-9.83519,0.86287,-4.165,6.44543
2023-03-15 13:52:03:779,0.330304,-0.759328,-9.91062,0.828925,-4.17042,6.39762
2023-03-15 13:52:03:789,0.157409,-0.756232,-9.90485,0.792662,-4.20098,6.37481
2023-03-15 13:52:03:799,-0.016504,-0.771471,-9.81304,0.758698,-4.24745,6.37886
2023-03-15 13:52:03:809,-0.186209,-0.808784,-9.72466,0.728094,-4.30429,6.40847
2023-03-15 13:52:03:818,-0.299971,-0.846783,-9.66623,0.696856,-4.36581,6.45265
2023-03-15 13:52:03:829,-0.337245,-0.890309,-9.64273,0.669857,-4.42997,6.51796
2023-03-15 13:52:03:839,-0.362206,-0.978253,-9.58944,0.642851,-4.49178,6.60614
2023-03-15 13:52:03:849,-0.420533,-1.03637,-9.54334,0.621191,-4.55639,6.71868
2023-03-15 13:52:03:859,-0.442118,-1.04034,-9.48531,0.597016,-4.61509,6.85874
2023-03-15 13:52:03:869,-0.46111,-1.04985,-9.42915,0.573478,-4.67212,7.01812
2023-03-15 13:52:03:879,-0.602758,-1.05459,-9.38074,0.548034,-4.72708,7.20725
2023-03-15 13:52:03:889,-0.825527,-1.08676,-9.34028,0.519196,-4.78129,7.41789
2023-03-15 13:52:03:899,-1.00543,-1.10378,-9.33215,0.48556,-4.82825,7.64396
2023-03-15 13:52:03:909,-1.09181,-1.11668,-9.41031,0.447417,-4.86132,7.87429
2023-03-15 13:52:03:919,-1.06795,-1.11407,-9.49814,0.411328,-4.88048,8.1065
2023-03-15 13:52:03:929,-1.04599,-1.11168,-9.58367,0.377976,-4.888,8.33085
2023-03-15 13:52:03:939,-1.09109,-1.11762,-9.7066,0.342828,-4.89115,8.55904
2023-03-15 13:52:03:949,-1.13401,-1.05918,-9.8285,0.312549,-4.89547,8.78617
2023-03-15 13:52:03:959,-1.1944,-0.988898,-9.94258,0.278699,-4.90864,9.00435
2023-03-15 13:52:03:969,-1.31703,-0.904966,-9.97767,0.248625,-4.9299,9.21217
2023-03-15 13:52:03:979,-1.53268,-0.84813,-9.9348,0.228196,-4.95233,9.40958
2023-03-15 13:52:03:989,-1.72945,-0.812497,-9.87782,0.224795,-4.9704,9.57962
2023-03-15 13:52:03:999,-1.77944,-0.843,-9.74544,0.24375,-4.98176,9.71591
2023-03-15 13:52:04:9,-1.77705,-0.968105,-9.47118,0.280782,-4.97825,9.81856
2023-03-15 13:52:04:19,-1.72834,-1.079,-9.2073,0.32235,-4.96184,9.89189
2023-03-15 13:52:04:29,-1.47999,-1.16491,-9.07231,0.348542,-4.9386,9.92619
2023-03-15 13:52:04:39,-1.09777,-1.27937,-9.13229,0.351707,-4.90354,9.94081
2023-03-15 13:52:04:49,-1.00665,-1.25704,-9.26749,0.302296,-4.88192,9.94953
2023-03-15 13:52:04:59,-1.18432,-1.08281,-9.31667,0.205307,-4.88123,9.95397
2023-03-15 13:52:04:69,-1.2509,-0.901399,-9.31445,0.0515941,-4.88892,9.94215
2023-03-15 13:52:04:79,-1.22646,-0.71677,-9.27944,-0.148261,-4.89024,9.91561
2023-03-15 13:52:04:89,-1.23125,-0.446464,-9.21008,-0.393314,-4.8907,9.8748
2023-03-15 13:52:04:99,-1.21253,-0.10294,-9.13985,-0.677384,-4.88708,9.80976
2023-03-15 13:52:04:109,-1.00357,0.303483,-9.20851,-0.990066,-4.87441,9.72223
2023-03-15 13:52:04:119,-0.731599,0.684565,-9.27192,-1.31821,-4.85707,9.61773
2023-03-15 13:52:04:129,-0.582878,1.03048,-9.25062,-1.65691,-4.84798,9.50834
2023-03-15 13:52:04:139,-0.545131,1.30249,-9.2338,-2.00798,-4.85656,9.40296
2023-03-15 13:52:04:149,-0.595727,1.65795,-9.29446,-2.37353,-4.87764,9.30547
2023-03-15 13:52:04:159,-0.622036,2.06677,-9.47543,-2.75012,-4.90525,9.20774
2023-03-15 13:52:04:169,-0.537009,2.3718,-9.74103,-3.12417,-4.9437,9.11148
2023-03-15 13:52:04:179,-0.475712,2.62681,-10.0039,-3.48847,-4.99265,9.01922
2023-03-15 13:52:04:189,-0.475214,2.79599,-10.188,-3.8251,-5.06062,8.94247
2023-03-15 13:52:04:199,-0.566561,2.88792,-10.2385,-4.12337,-5.1387,8.88421
2023-03-15 13:52:04:209,-0.754518,2.93882,-10.2282,-4.3784,-5.21559,8.84903
2023-03-15 13:52:04:219,-0.860553,2.9435,-10.2287,-4.58961,-5.27839,8.82901
2023-03-15 13:52:04:229,-0.927609,2.84463,-10.1134,-4.75908,-5.32414,8.82099
2023-03-15 13:52:04:239,-1.01892,2.74155,-9.95138,-4.89068,-5.36263,8.82499
2023-03-15 13:52:04:249,-1.05631,2.72447,-9.85595,-5.00082,-5.37794,8.83338
2023-03-15 13:52:04:259,-0.830652,2.66481,-9.77742,-5.09188,-5.3786,8.83305
2023-03-15 13:52:04:269,-0.637542,2.60039,-9.71078,-5.16113,-5.36939,8.84008
2023-03-15 13:52:04:279,-0.6419,2.51942,-9.62853,-5.22654,-5.35167,8.86751
2023-03-15 13:52:04:289,-0.748113,2.39993,-9.43001,-5.29554,-5.3463,8.91094
2023-03-15 13:52:04:299,-0.899798,2.43504,-9.42212,-5.37966,-5.34312,8.96325
2023-03-15 13:52:04:309,-0.958687,2.55277,-9.63082,-5.48335,-5.32598,9.01359
2023-03-15 13:52:04:319,-0.914565,2.66043,-9.87285,-5.59617,-5.30373,9.05652
2023-03-15 13:52:04:329,-0.917284,2.80471,-10.1543,-5.71218,-5.27264,9.09714
2023-03-15 13:52:04:339,-0.916104,2.87961,-10.3898,-5.8179,-5.23899,9.1278
2023-03-15 13:52:04:349,-0.918772,2.86796,-10.6107,-5.90719,-5.21544,9.15668
2023-03-15 13:52:04:359,-0.986122,2.86747,-10.8567,-5.97313,-5.1863,9.17822
2023-03-15 13:52:04:369,-1.05381,2.81837,-10.9816,-6.00473,-5.16334,9.19466
2023-03-15 13:52:04:379,-1.07035,2.67955,-10.986,-5.99369,-5.14271,9.20226
2023-03-15 13:52:04:389,-1.09717,2.52836,-10.8897,-5.93584,-5.12676,9.20297
2023-03-15 13:52:04:399,-1.06763,2.34412,-10.7585,-5.8349,-5.10469,9.18961
2023-03-15 13:52:04:409,-0.996478,2.11871,-10.6141,-5.70021,-5.09054,9.17303
2023-03-15 13:52:04:419,-0.98333,1.98212,-10.4397,-5.53439,-5.08622,9.14996
2023-03-15 13:52:04:429,-1.00484,1.84426,-10.3212,-5.34539,-5.08648,9.12125
2023-03-15 13:52:04:439,-1.02591,1.71394,-10.2222,-5.13726,-5.09736,9.08903
2023-03-15 13:52:04:449,-1.0706,1.58894,-10.1171,-4.90216,-5.11403,9.04637
2023-03-15 13:52:04:459,-1.05781,1.4095,-10.0494,-4.64539,-5.13165,8.99624
2023-03-15 13:52:04:469,-1.05312,1.22635,-9.96084,-4.36925,-5.15659,8.94401
2023-03-15 13:52:04:479,-1.01702,1.02988,-9.88768,-4.07284,-5.18926,8.88332
2023-03-15 13:52:04:489,-0.975927,0.775441,-9.73158,-3.76686,-5.23966,8.8225
2023-03-15 13:52:04:499,-1.04343,0.685196,-9.76613,-3.45966,-5.29668,8.75797
2023-03-15 13:52:04:509,-1.03163,0.643894,-9.91383,-3.13989,-5.34952,8.70018
2023-03-15 13:52:04:518,-0.937693,0.343555,-9.62115,-2.79266,-5.42726,8.63467
2023-03-15 13:52:04:529,-1.03647,0.0562762,-9.33001,-2.44214,-5.53575,8.56998
2023-03-15 13:52:04:539,-1.12494,0.00787664,-9.41487,-2.09679,-5.6323,8.51483
2023-03-15 13:52:04:549,-1.13081,-0.122278,-9.29534,-1.74463,-5.73337,8.45008
2023-03-15 13:52:04:559,-1.12105,-0.366196,-9.11486,-1.38938,-5.83197,8.38123
2023-03-15 13:52:04:569,-1.12079,-0.529057,-8.94387,-1.04628,-5.93276,8.31341
2023-03-15 13:52:04:579,-1.17705,-0.612912,-8.85708,-0.726043,-6.01981,8.25181
2023-03-15 13:52:04:589,-1.20251,-0.740788,-8.78428,-0.42696,-6.10552,8.18619
2023-03-15 13:52:04:599,-1.15427,-0.838811,-8.80425,-0.154277,-6.17682,8.11736
2023-03-15 13:52:04:609,-1.07266,-0.794795,-8.91187,0.0848645,-6.2364,8.04834
2023-03-15 13:52:04:619,-0.938527,-0.835164,-9.07035,0.298982,-6.28407,7.97697
2023-03-15 13:52:04:629,-0.832074,-0.794762,-9.14932,0.488208,-6.33129,7.91384
2023-03-15 13:52:04:639,-0.816682,-0.801529,-9.21656,0.653384,-6.37924,7.85881
2023-03-15 13:52:04:649,-0.819372,-0.773283,-9.28558,0.799378,-6.42436,7.81795
2023-03-15 13:52:04:659,-0.824885,-0.738401,-9.29447,0.932292,-6.46895,7.78598
2023-03-15 13:52:04:669,-0.857869,-0.722921,-9.24997,1.04648,-6.50775,7.76829
2023-03-15 13:52:04:679,-0.920196,-0.700172,-9.18702,1.1421,-6.54557,7.76587
2023-03-15 13:52:04:689,-0.988697,-0.640715,-9.16608,1.21269,-6.57557,7.77278
2023-03-15 13:52:04:699,-1.04136,-0.549105,-9.23878,1.25968,-6.59319,7.78666
2023-03-15 13:52:04:709,-1.07259,-0.401173,-9.36929,1.29436,-6.5972,7.80121
2023-03-15 13:52:04:719,-1.04961,-0.334665,-9.44671,1.32458,-6.58771,7.81972
2023-03-15 13:52:04:729,-1.02212,-0.326696,-9.46506,1.34966,-6.57603,7.84316
2023-03-15 13:52:04:739,-1.02314,-0.290951,-9.51815,1.36764,-6.56621,7.86717
2023-03-15 13:52:04:749,-1.00481,-0.22638,-9.62894,1.37716,-6.55846,7.89077
2023-03-15 13:52:04:759,-1.00781,-0.152714,-9.72204,1.38514,-6.55612,7.91497
2023-03-15 13:52:04:769,-1.05445,-0.116615,-9.7789,1.39648,-6.55361,7.9426
2023-03-15 13:52:04:779,-1.09889,-0.0983613,-9.75889,1.41836,-6.54946,7.96829
2023-03-15 13:52:04:789,-1.10396,-0.0943363,-9.75626,1.44304,-6.54451,7.98767
2023-03-15 13:52:04:799,-1.08498,-0.127475,-9.76132,1.47287,-6.53673,8.01062
2023-03-15 13:52:04:809,-1.0926,-0.139817,-9.77018,1.50654,-6.52909,8.03138
2023-03-15 13:52:04:818,-1.14622,-0.125703,-9.79769,1.54096,-6.5258,8.04781
2023-03-15 13:52:04:829,-1.1733,-0.155095,-9.86462,1.58737,-6.51398,8.05867
2023-03-15 13:52:04:839,-1.17181,-0.18031,-9.8598,1.63939,-6.50154,8.06351
2023-03-15 13:52:04:849,-1.08692,-0.250059,-9.77203,1.7007,-6.48907,8.0601
2023-03-15 13:52:04:859,-0.956378,-0.390798,-9.68107,1.76537,-6.47849,8.04785
2023-03-15 13:52:04:869,-0.903286,-0.443434,-9.64849,1.82455,-6.4763,8.039
2023-03-15 13:52:04:879,-0.934567,-0.456754,-9.64818,1.87562,-6.48595,8.0311
2023-03-15 13:52:04:889,-0.963194,-0.45467,-9.67776,1.91733,-6.50116,8.0202
2023-03-15 13:52:04:899,-0.964809,-0.465892,-9.67752,1.95785,-6.52992,8.00721
2023-03-15 13:52:04:909,-0.985822,-0.470195,-9.66251,1.99178,-6.56468,7.99019
2023-03-15 13:52:04:919,-1.04931,-0.47228,-9.65867,2.02679,-6.60081,7.97273
2023-03-15 13:52:04:929,-1.081,-0.47801,-9.63072,2.05878,-6.64092,7.94937
2023-03-15 13:52:04:939,-1.0424,-0.505488,-9.58895,2.0912,-6.67755,7.92542
2023-03-15 13:52:04:949,-0.985395,-0.543459,-9.5573,2.1188,-6.71701,7.90042
2023-03-15 13:52:04:959,-0.971845,-0.5538,-9.50617,2.14066,-6.75698,7.87925
2023-03-15 13:52:04:969,-1.00811,-0.554921,-9.49362,2.15035,-6.80194,7.86444
2023-03-15 13:52:04:979,-1.0482,-0.472325,-9.55059,2.15333,-6.84585,7.8464
2023-03-15 13:52:04:989,-1.04295,-0.395768,-9.62455,2.14506,-6.88238,7.82977
2023-03-15 13:52:04:999,-1.02014,-0.399339,-9.64182,2.13905,-6.91752,7.81832
2023-03-15 13:52:05:9,-0.974434,-0.40415,-9.65485,2.13331,-6.94638,7.81419
2023-03-15 13:52:05:19,-0.965051,-0.408521,-9.63982,2.12629,-6.97187,7.82202
2023-03-15 13:52:05:29,-1.00054,-0.387921,-9.66911,2.12039,-6.9972,7.83705
2023-03-15 13:52:05:39,-1.02359,-0.40354,-9.65563,2.11428,-7.01967,7.85792
2023-03-15 13:52:05:49,-1.07276,-0.425671,-9.59179,2.10502,-7.04161,7.89233
2023-03-15 13:52:05:59,-1.09619,-0.441679,-9.59699,2.09491,-7.0573,7.93164
2023-03-15 13:52:05:69,-1.04997,-0.443542,-9.6024,2.07879,-7.07377,7.97431
2023-03-15 13:52:05:79,-1,-0.461473,-9.58109,2.05987,-7.08944,8.02688
2023-03-15 13:52:05:89,-0.995432,-0.440682,-9.58814,2.03243,-7.10428,8.09167
2023-03-15 13:52:05:99,-0.995531,-0.380593,-9.65978,1.99394,-7.11046,8.16659
2023-03-15 13:52:05:109,-0.99016,-0.347711,-9.68976,1.95682,-7.11185,8.25311
2023-03-15 13:52:05:119,-0.996575,-0.375011,-9.62253,1.91738,-7.11499,8.34828
2023-03-15 13:52:05:129,-1.03108,-0.395331,-9.584,1.87075,-7.12154,8.45602
2023-03-15 13:52:05:139,-1.08742,-0.379842,-9.57821,1.8199,-7.1333,8.56788
2023-03-15 13:52:05:149,-1.13942,-0.374652,-9.57827,1.75832,-7.14315,8.68201
2023-03-15 13:52:05:159,-1.19314,-0.388291,-9.53487,1.69624,-7.15634,8.8004
2023-03-15 13:52:05:169,-1.2352,-0.416125,-9.48292,1.62744,-7.17525,8.91821
2023-03-15 13:52:05:179,-1.28047,-0.361881,-9.49464,1.54117,-7.19787,9.03411
2023-03-15 13:52:05:189,-1.31761,-0.269225,-9.5672,1.44734,-7.2223,9.14241
2023-03-15 13:52:05:199,-1.32942,-0.209205,-9.60162,1.34883,-7.24577,9.2485
2023-03-15 13:52:05:209,-1.3668,-0.179594,-9.56462,1.24931,-7.27381,9.34799
2023-03-15 13:52:05:219,-1.40589,-0.187652,-9.52627,1.14571,-7.3029,9.44284
2023-03-15 13:52:05:229,-1.42365,-0.175777,-9.49312,1.03943,-7.32748,9.53564
2023-03-15 13:52:05:239,-1.45743,-0.149083,-9.48113,0.925122,-7.35049,9.62023
2023-03-15 13:52:05:249,-1.48191,-0.112515,-9.49875,0.802524,-7.36519,9.69771
2023-03-15 13:52:05:259,-1.46452,-0.110079,-9.53757,0.67734,-7.37425,9.77318
2023-03-15 13:52:05:268,-1.42077,-0.130878,-9.53379,0.545569,-7.37696,9.84566
2023-03-15 13:52:05:279,-1.37113,-0.141479,-9.51834,0.411871,-7.3747,9.90951
2023-03-15 13:52:05:289,-1.31216,-0.15031,-9.51324,0.268532,-7.36761,9.97357
2023-03-15 13:52:05:299,-1.26151,-0.173363,-9.50123,0.117179,-7.35842,10.0425
2023-03-15 13:52:05:309,-1.30653,-0.141198,-9.54823,-0.0450175,-7.354,10.1141
2023-03-15 13:52:05:319,-1.40782,0.0105675,-9.68671,-0.224475,-7.34772,10.1907
2023-03-15 13:52:05:329,-1.46482,0.198143,-9.83119,-0.411223,-7.33646,10.2594
2023-03-15 13:52:05:339,-1.46317,0.290354,-9.89076,-0.59541,-7.3137,10.3173
2023-03-15 13:52:05:349,-1.43003,0.344916,-9.86653,-0.764135,-7.27795,10.3677
2023-03-15 13:52:05:359,-1.3297,0.386076,-9.85756,-0.926844,-7.23161,10.4117
2023-03-15 13:52:05:369,-1.27098,0.444835,-9.87268,-1.08951,-7.18116,10.4495
2023-03-15 13:52:05:379,-1.26357,0.589757,-9.9901,-1.25215,-7.13373,10.4788
2023-03-15 13:52:05:389,-1.2307,0.750635,-10.1291,-1.40447,-7.08531,10.4926
2023-03-15 13:52:05:399,-1.18868,0.845219,-10.1757,-1.53313,-7.04412,10.4935
2023-03-15 13:52:05:409,-1.19577,0.880068,-10.136,-1.63693,-6.9984,10.4858
2023-03-15 13:52:05:419,-1.17976,0.849935,-10.0949,-1.7138,-6.95675,10.4708
2023-03-15 13:52:05:429,-1.15312,0.803432,-10.0344,-1.76938,-6.91522,10.4437
2023-03-15 13:52:05:439,-1.12066,0.751779,-9.9726,-1.80262,-6.87851,10.4083
2023-03-15 13:52:05:449,-1.08941,0.695151,-9.90587,-1.82561,-6.85061,10.3668
2023-03-15 13:52:05:459,-1.09084,0.695197,-9.85863,-1.84002,-6.83157,10.3176
2023-03-15 13:52:05:469,-1.10788,0.667558,-9.78235,-1.84971,-6.82545,10.2587
2023-03-15 13:52:05:479,-1.11616,0.664684,-9.70776,-1.85582,-6.83055,10.1868
2023-03-15 13:52:05:489,-1.12538,0.677227,-9.68168,-1.86691,-6.83695,10.1103
2023-03-15 13:52:05:499,-1.18509,0.728725,-9.66443,-1.87545,-6.84785,10.0286
2023-03-15 13:52:05:509,-1.22974,0.760475,-9.66128,-1.88438,-6.86754,9.93898
2023-03-15 13:52:05:519,-1.21028,0.745184,-9.64972,-1.89549,-6.88596,9.84283
2023-03-15 13:52:05:529,-1.2335,0.765604,-9.65137,-1.90171,-6.9062,9.73804
2023-03-15 13:52:05:539,-1.20452,0.811846,-9.68583,-1.91125,-6.93169,9.62685
2023-03-15 13:52:05:549,-1.15436,0.857735,-9.71603,-1.91669,-6.95321,9.51067
2023-03-15 13:52:05:559,-1.14847,0.926234,-9.75272,-1.92113,-6.97485,9.39187
2023-03-15 13:52:05:569,-1.26944,0.969741,-9.71799,-1.92386,-7.0015,9.27554
2023-03-15 13:52:05:579,-1.40264,1.01024,-9.71884,-1.92363,-7.03501,9.15169
2023-03-15 13:52:05:589,-1.42252,1.03286,-9.7999,-1.91852,-7.06033,9.01961
2023-03-15 13:52:05:599,-1.44507,1.05119,-9.8543,-1.90833,-7.08103,8.87525
2023-03-15 13:52:05:609,-1.44844,1.06151,-9.86649,-1.88927,-7.09489,8.72109
2023-03-15 13:52:05:619,-1.45236,1.02428,-9.8079,-1.8597,-7.11062,8.55366
2023-03-15 13:52:05:629,-1.44939,1.00309,-9.74907,-1.82407,-7.12864,8.374
2023-03-15 13:52:05:639,-1.4107,0.936775,-9.62976,-1.78956,-7.14775,8.17911
2023-03-15 13:52:05:649,-1.37918,0.906945,-9.5905,-1.75734,-7.17244,7.97503
2023-03-15 13:52:05:659,-1.40932,0.912591,-9.61546,-1.72972,-7.19914,7.75905
2023-03-15 13:52:05:669,-1.41868,0.871433,-9.58812,-1.7021,-7.22822,7.53318
2023-03-15 13:52:05:679,-1.43319,0.837258,-9.59041,-1.68076,-7.25717,7.29636
2023-03-15 13:52:05:689,-1.48013,0.824414,-9.65217,-1.6588,-7.28593,7.0486
2023-03-15 13:52:05:699,-1.50077,0.86119,-9.71593,-1.6395,-7.30811,6.78975
2023-03-15 13:52:05:709,-1.42411,0.826766,-9.77613,-1.61987,-7.32231,6.51786
2023-03-15 13:52:05:719,-1.34034,0.788765,-9.79044,-1.59284,-7.3318,6.23755
2023-03-15 13:52:05:729,-1.28189,0.755593,-9.84339,-1.56737,-7.33836,5.95039
2023-03-15 13:52:05:739,-1.20844,0.737305,-9.91126,-1.53619,-7.35059,5.6545
2023-03-15 13:52:05:749,-1.18454,0.668928,-9.91157,-1.49398,-7.36896,5.36231
2023-03-15 13:52:05:759,-1.24342,0.631383,-9.89032,-1.44766,-7.39757,5.07418
2023-03-15 13:52:05:769,-1.28452,0.584028,-9.83276,-1.39045,-7.43053,4.78881
2023-03-15 13:52:05:779,-1.2907,0.519716,-9.7638,-1.33201,-7.46147,4.50165
2023-03-15 13:52:05:789,-1.26607,0.467735,-9.69592,-1.27082,-7.49268,4.21214
2023-03-15 13:52:05:799,-1.25123,0.422081,-9.60885,-1.20659,-7.52431,3.92264
2023-03-15 13:52:05:809,-1.21817,0.394216,-9.55485,-1.14192,-7.55031,3.63286
2023-03-15 13:52:05:819,-1.14701,0.361247,-9.51924,-1.07648,-7.57268,3.34516
2023-03-15 13:52:05:829,-1.03655,0.315169,-9.55416,-1.01833,-7.59361,3.06272
2023-03-15 13:52:05:839,-0.97511,0.306045,-9.63915,-0.964204,-7.61293,2.78666
2023-03-15 13:52:05:849,-0.952861,0.271233,-9.68336,-0.909378,-7.63532,2.52021
2023-03-15 13:52:05:859,-1.00292,0.24005,-9.70126,-0.855479,-7.65929,2.26499
2023-03-15 13:52:05:869,-1.06336,0.220476,-9.67887,-0.797987,-7.68323,2.01717
2023-03-15 13:52:05:879,-1.09413,0.148174,-9.58242,-0.730502,-7.69649,1.77484
2023-03-15 13:52:05:889,-1.11116,0.120086,-9.46094,-0.66351,-7.7023,1.53856
2023-03-15 13:52:05:899,-1.06574,0.0897841,-9.40096,-0.604342,-7.68895,1.30376
2023-03-15 13:52:05:909,-0.936631,0.063541,-9.44332,-0.557244,-7.66118,1.07421
2023-03-15 13:52:05:919,-0.775772,0.0791358,-9.56056,-0.52294,-7.62929,0.849078
2023-03-15 13:52:05:929,-0.728045,0.10996,-9.67191,-0.505195,-7.60431,0.636796
2023-03-15 13:52:05:939,-0.740519,0.1599,-9.80626,-0.494901,-7.5867,0.438553
2023-03-15 13:52:05:949,-0.71948,0.208461,-9.96643,-0.481257,-7.57772,0.246715
2023-03-15 13:52:05:959,-0.606171,0.230568,-10.0371,-0.464022,-7.57821,0.0679733
2023-03-15 13:52:05:969,-0.526621,0.217865,-10.0358,-0.437058,-7.58734,-0.0928272
2023-03-15 13:52:05:979,-0.597531,0.198053,-9.96107,-0.398602,-7.60575,-0.225316
2023-03-15 13:52:05:989,-0.743655,0.161111,-9.82676,-0.349875,-7.63571,-0.327322
2023-03-15 13:52:05:999,-0.823606,0.14375,-9.7554,-0.294311,-7.65963,-0.412091
2023-03-15 13:52:06:9,-0.840433,0.128825,-9.70426,-0.23055,-7.67106,-0.478945
2023-03-15 13:52:06:19,-0.781162,0.0882269,-9.61825,-0.1573,-7.66299,-0.522913
2023-03-15 13:52:06:29,-0.641811,0.00924049,-9.53572,-0.0733045,-7.64393,-0.541505
2023-03-15 13:52:06:39,-0.476487,-0.0659737,-9.51589,0.0148233,-7.61549,-0.529603
2023-03-15 13:52:06:49,-0.346966,-0.092654,-9.50071,0.101142,-7.58023,-0.486468
2023-03-15 13:52:06:59,-0.354971,-0.138908,-9.44789,0.193837,-7.54232,-0.404539
2023-03-15 13:52:06:69,-0.450031,-0.222737,-9.38699,0.289348,-7.51123,-0.279904
2023-03-15 13:52:06:79,-0.546361,-0.264033,-9.32036,0.382835,-7.48141,-0.121757
2023-03-15 13:52:06:89,-0.600939,-0.350663,-9.31287,0.478356,-7.44763,0.0627801
2023-03-15 13:52:06:99,-0.652547,-0.392163,-9.38898,0.572876,-7.40994,0.27473
2023-03-15 13:52:06:109,-0.655648,-0.394986,-9.47365,0.662518,-7.37038,0.506488
2023-03-15 13:52:06:119,-0.60364,-0.444116,-9.44319,0.756382,-7.33405,0.751881
2023-03-15 13:52:06:129,-0.512782,-0.553937,-9.36409,0.853739,-7.29944,1.01655
2023-03-15 13:52:06:139,-0.490551,-0.559611,-9.34222,0.939295,-7.27853,1.31094
2023-03-15 13:52:06:149,-0.538161,-0.53745,-9.36643,0.99962,-7.26372,1.63404
2023-03-15 13:52:06:159,-0.678352,-0.51172,-9.40055,1.03732,-7.25838,1.98141
2023-03-15 13:52:06:169,-0.865105,-0.403359,-9.51778,1.0432,-7.26543,2.34789
2023-03-15 13:52:06:179,-1.06611,-0.260123,-9.70614,1.02315,-7.27689,2.72612
2023-03-15 13:52:06:189,-1.27027,-0.127318,-9.90627,0.97813,-7.28685,3.1065
2023-03-15 13:52:06:199,-1.42377,-0.0112222,-10.1548,0.921692,-7.29395,3.48286
2023-03-15 13:52:06:209,-1.54442,0.16557,-10.4555,0.863271,-7.29555,3.84656
2023-03-15 13:52:06:219,-1.59905,0.315097,-10.6273,0.821164,-7.28553,4.19422
2023-03-15 13:52:06:229,-1.55138,0.309216,-10.613,0.816136,-7.26873,4.52009
2023-03-15 13:52:06:239,-1.44169,0.213327,-10.4441,0.843929,-7.24827,4.83026
2023-03-15 13:52:06:249,-1.38761,0.0465991,-10.175,0.897195,-7.22536,5.12217
2023-03-15 13:52:06:259,-1.46727,-0.0621267,-9.95502,0.968616,-7.20241,5.40725
2023-03-15 13:52:06:269,-1.52032,-0.125043,-9.78446,1.04897,-7.17589,5.67701
2023-03-15 13:52:06:279,-1.49233,-0.253146,-9.61912,1.13905,-7.14281,5.92486
2023-03-15 13:52:06:289,-1.42774,-0.369281,-9.45358,1.23191,-7.10536,6.1516
2023-03-15 13:52:06:299,-1.31047,-0.473741,-9.37702,1.32337,-7.07115,6.34901
2023-03-15 13:52:06:309,-1.17807,-0.484878,-9.39417,1.39635,-7.04382,6.53321
2023-03-15 13:52:06:319,-1.14801,-0.450281,-9.40083,1.4567,-7.03201,6.70275
2023-03-15 13:52:06:329,-1.23207,-0.436653,-9.29281,1.50967,-7.03273,6.85854
2023-03-15 13:52:06:339,-1.27062,-0.452651,-9.2649,1.55733,-7.0353,6.99818
2023-03-15 13:52:06:349,-1.16401,-0.447333,-9.29882,1.59761,-7.02815,7.12041
2023-03-15 13:52:06:359,-1.06616,-0.46323,-9.32824,1.63232,-7.01938,7.23529
2023-03-15 13:52:06:369,-1.07472,-0.505293,-9.32429,1.65735,-7.02011,7.34365
2023-03-15 13:52:06:379,-1.1224,-0.495397,-9.35817,1.67653,-7.03001,7.44876
2023-03-15 13:52:06:389,-1.09913,-0.512386,-9.36904,1.68589,-7.044,7.54816
2023-03-15 13:52:06:399,-1.07811,-0.592835,-9.32358,1.69783,-7.06556,7.64763
2023-03-15 13:52:06:409,-1.08406,-0.682056,-9.33256,1.70256,-7.09781,7.74812
2023-03-15 13:52:06:419,-1.14183,-0.707707,-9.40114,1.69674,-7.14433,7.84924
2023-03-15 13:52:06:429,-1.26503,-0.703731,-9.41869,1.67626,-7.20198,7.95423
2023-03-15 13:52:06:439,-1.39388,-0.669738,-9.36981,1.65013,-7.26155,8.0561
2023-03-15 13:52:06:449,-1.47655,-0.692574,-9.33255,1.61587,-7.31803,8.15656
2023-03-15 13:52:06:459,-1.58357,-0.655797,-9.30995,1.56746,-7.36739,8.25298
2023-03-15 13:52:06:469,-1.6851,-0.583823,-9.30668,1.49572,-7.40992,8.3434
2023-03-15 13:52:06:479,-1.71765,-0.516245,-9.35691,1.4073,-7.43955,8.42371
2023-03-15 13:52:06:489,-1.70265,-0.413054,-9.45992,1.3033,-7.4585,8.48958
2023-03-15 13:52:06:499,-1.69767,-0.309292,-9.5919,1.19048,-7.47062,8.53938
2023-03-15 13:52:06:509,-1.75041,-0.201028,-9.76021,1.06775,-7.48065,8.57503
2023-03-15 13:52:06:519,-1.83608,-0.0954939,-9.95827,0.948618,-7.4894,8.59627
2023-03-15 13:52:06:529,-1.88658,0.0330875,-10.1224,0.830732,-7.49823,8.59708
2023-03-15 13:52:06:539,-1.90412,0.0980987,-10.1531,0.734353,-7.50835,8.57428
2023-03-15 13:52:06:549,-1.9133,0.0999201,-10.0424,0.657711,-7.51815,8.53216
2023-03-15 13:52:06:559,-1.88788,0.00586491,-9.86962,0.604468,-7.52425,8.47128
2023-03-15 13:52:06:569,-1.86486,-0.0626308,-9.75054,0.561863,-7.52772,8.38642
2023-03-15 13:52:06:579,-1.83252,-0.0969801,-9.78836,0.516211,-7.53302,8.28733
2023-03-15 13:52:06:589,-1.81936,-0.0394595,-9.90792,0.469201,-7.53854,8.17337
2023-03-15 13:52:06:599,-1.82645,0.0289784,-9.99413,0.430625,-7.53657,8.04004
2023-03-15 13:52:06:609,-1.81001,0.0482056,-10.0174,0.406244,-7.53118,7.88399
2023-03-15 13:52:06:619,-1.75879,-0.0154717,-9.91955,0.400323,-7.52254,7.71055
2023-03-15 13:52:06:629,-1.69211,-0.0987271,-9.83575,0.401447,-7.52353,7.52257
2023-03-15 13:52:06:639,-1.56567,-0.0965801,-9.85509,0.400044,-7.51941,7.32301
2023-03-15 13:52:06:649,-1.44091,-0.0502156,-9.89006,0.397177,-7.51426,7.11703
2023-03-15 13:52:06:659,-1.43445,-0.0753338,-9.85235,0.404651,-7.5087,6.91128
2023-03-15 13:52:06:669,-1.44923,-0.108736,-9.70279,0.416585,-7.50218,6.7065
2023-03-15 13:52:06:679,-1.4337,-0.141251,-9.59631,0.42689,-7.4897,6.50595
2023-03-15 13:52:06:689,-1.47194,-0.127678,-9.58048,0.432808,-7.46961,6.31108
2023-03-15 13:52:06:699,-1.50968,-0.0407861,-9.66281,0.438614,-7.4397,6.11375
2023-03-15 13:52:06:709,-1.50958,-0.0491773,-9.70059,0.447279,-7.40652,5.91089
2023-03-15 13:52:06:719,-1.47293,-0.106587,-9.63146,0.465723,-7.37072,5.70547
2023-03-15 13:52:06:729,-1.41346,-0.132892,-9.5947,0.485277,-7.32563,5.49657
2023-03-15 13:52:06:739,-1.40088,-0.192534,-9.56369,0.512184,-7.27911,5.28754
2023-03-15 13:52:06:749,-1.4454,-0.254205,-9.49109,0.539234,-7.22823,5.08035
2023-03-15 13:52:06:759,-1.50251,-0.315443,-9.45537,0.570898,-7.17755,4.86806
2023-03-15 13:52:06:769,-1.56845,-0.324744,-9.45164,0.593477,-7.12152,4.65261
2023-03-15 13:52:06:779,-1.61962,-0.287615,-9.47831,0.603303,-7.06178,4.42532
2023-03-15 13:52:06:789,-1.62582,-0.264804,-9.53493,0.612339,-6.99443,4.18544
2023-03-15 13:52:06:798,-1.55203,-0.252029,-9.63948,0.617418,-6.91967,3.92959
2023-03-15 13:52:06:809,-1.40077,-0.242663,-9.70166,0.6238,-6.83789,3.66222
2023-03-15 13:52:06:818,-1.27422,-0.287309,-9.65626,0.630889,-6.76194,3.38665
2023-03-15 13:52:06:829,-1.18331,-0.290548,-9.65508,0.636869,-6.69275,3.10343
2023-03-15 13:52:06:839,-1.08591,-0.296081,-9.69212,0.638827,-6.62947,2.81912
2023-03-15 13:52:06:849,-1.01025,-0.30116,-9.72089,0.636369,-6.57375,2.53966
2023-03-15 13:52:06:859,-1.0021,-0.281141,-9.7446,0.632239,-6.52609,2.26457
2023-03-15 13:52:06:869,-1.01825,-0.238072,-9.79366,0.624693,-6.48993,1.99408
2023-03-15 13:52:06:879,-1.03474,-0.178562,-9.84087,0.61476,-6.4601,1.72389
2023-03-15 13:52:06:889,-1.08425,-0.130254,-9.88425,0.610686,-6.44156,1.45245
2023-03-15 13:52:06:899,-1.12172,-0.0829166,-9.92922,0.610111,-6.425,1.18269
2023-03-15 13:52:06:909,-1.10764,-0.0641218,-9.94577,0.621765,-6.40825,0.912791
2023-03-15 13:52:06:919,-1.09545,-0.0960919,-9.93422,0.643049,-6.39214,0.643682
2023-03-15 13:52:06:929,-1.07799,-0.121078,-9.91098,0.673798,-6.37527,0.375476
2023-03-15 13:52:06:939,-1.06857,-0.146481,-9.92053,0.716919,-6.35485,0.114515
2023-03-15 13:52:06:949,-1.03588,-0.174907,-9.92803,0.771279,-6.32712,-0.139848
2023-03-15 13:52:06:959,-0.980069,-0.243266,-9.86602,0.839517,-6.3035,-0.39448
2023-03-15 13:52:06:969,-0.924746,-0.355839,-9.79859,0.912503,-6.28543,-0.643357
2023-03-15 13:52:06:979,-0.890781,-0.347754,-9.84347,0.983148,-6.27502,-0.8809
2023-03-15 13:52:06:989,-0.902512,-0.318491,-9.90436,1.05708,-6.27384,-1.11612
2023-03-15 13:52:06:999,-0.932504,-0.381495,-9.89131,1.13807,-6.2794,-1.34453
2023-03-15 13:52:07:9,-0.953084,-0.43577,-9.83799,1.22788,-6.29275,-1.56548
2023-03-15 13:52:07:19,-0.933861,-0.494134,-9.77768,1.32054,-6.30699,-1.77997
2023-03-15 13:52:07:29,-0.917385,-0.538409,-9.73932,1.41532,-6.32467,-1.98967
2023-03-15 13:52:07:39,-0.971269,-0.57682,-9.70659,1.5125,-6.34915,-2.19478
2023-03-15 13:52:07:49,-1.03354,-0.589276,-9.67609,1.602,-6.3853,-2.39873
2023-03-15 13:52:07:59,-1.07322,-0.584714,-9.66459,1.6869,-6.42915,-2.60097
2023-03-15 13:52:07:69,-1.11036,-0.616586,-9.66794,1.77148,-6.48167,-2.80599
2023-03-15 13:52:07:79,-1.15624,-0.585833,-9.68003,1.85235,-6.54035,-3.013
2023-03-15 13:52:07:89,-1.19324,-0.582879,-9.69986,1.93387,-6.60673,-3.22523
2023-03-15 13:52:07:99,-1.23161,-0.574661,-9.68214,2.01829,-6.6759,-3.43996
2023-03-15 13:52:07:109,-1.25803,-0.61058,-9.6088,2.1099,-6.75249,-3.66125
2023-03-15 13:52:07:119,-1.27941,-0.660636,-9.50745,2.20243,-6.83036,-3.88717
2023-03-15 13:52:07:129,-1.27552,-0.688413,-9.44049,2.29244,-6.90982,-4.11452
2023-03-15 13:52:07:139,-1.21753,-0.723148,-9.42533,2.378,-6.98549,-4.34346
2023-03-15 13:52:07:149,-1.14419,-0.72586,-9.42734,2.45523,-7.06013,-4.56603
2023-03-15 13:52:07:159,-1.13982,-0.72285,-9.44282,2.52464,-7.13442,-4.77932
2023-03-15 13:52:07:169,-1.19087,-0.721649,-9.44018,2.59013,-7.21238,-4.97952
2023-03-15 13:52:07:179,-1.23674,-0.696687,-9.44428,2.6487,-7.28812,-5.16809
2023-03-15 13:52:07:189,-1.25306,-0.710254,-9.47675,2.70186,-7.35524,-5.34401
2023-03-15 13:52:07:199,-1.29135,-0.667284,-9.48509,2.74872,-7.41292,-5.50566
2023-03-15 13:52:07:209,-1.35455,-0.635346,-9.46698,2.79095,-7.46235,-5.65898
2023-03-15 13:52:07:219,-1.37713,-0.652619,-9.44994,2.83641,-7.50308,-5.80062
2023-03-15 13:52:07:229,-1.37997,-0.67096,-9.46767,2.87918,-7.52882,-5.92868
2023-03-15 13:52:07:239,-1.38468,-0.644977,-9.51815,2.91151,-7.55141,-6.05147
2023-03-15 13:52:07:249,-1.39077,-0.591997,-9.62304,2.94192,-7.56581,-6.1724
2023-03-15 13:52:07:259,-1.37635,-0.534993,-9.75787,2.96893,-7.57413,-6.28737
2023-03-15 13:52:07:269,-1.37544,-0.531658,-9.76211,3.00368,-7.58449,-6.40229
2023-03-15 13:52:07:279,-1.46404,-0.549624,-9.68595,3.04182,-7.59835,-6.51335
2023-03-15 13:52:07:289,-1.51556,-0.549288,-9.66018,3.08372,-7.60777,-6.6274
2023-03-15 13:52:07:299,-1.51478,-0.594482,-9.64689,3.12314,-7.61718,-6.74516
2023-03-15 13:52:07:309,-1.5397,-0.615934,-9.64101,3.15591,-7.6262,-6.86719
2023-03-15 13:52:07:318,-1.55625,-0.547538,-9.69093,3.18717,-7.63841,-6.99537
2023-03-15 13:52:07:329,-1.56609,-0.451745,-9.7434,3.21846,-7.64755,-7.13465
2023-03-15 13:52:07:339,-1.54783,-0.456814,-9.72572,3.26026,-7.66292,-7.284
2023-03-15 13:52:07:349,-1.52531,-0.49347,-9.61564,3.31634,-7.67651,-7.44132
2023-03-15 13:52:07:359,-1.51609,-0.583456,-9.4757,3.38515,-7.68655,-7.59976
2023-03-15 13:52:07:369,-1.52039,-0.659441,-9.38072,3.45138,-7.6953,-7.76052
2023-03-15 13:52:07:379,-1.52866,-0.730072,-9.2868,3.51395,-7.70871,-7.92764
2023-03-15 13:52:07:389,-1.53569,-0.770303,-9.18119,3.56235,-7.7185,-8.09482
2023-03-15 13:52:07:399,-1.571,-0.747166,-9.1522,3.5981,-7.72251,-8.26623
2023-03-15 13:52:07:409,-1.55966,-0.730387,-9.1808,3.61582,-7.7149,-8.44587
2023-03-15 13:52:07:419,-1.45249,-0.722181,-9.24526,3.61365,-7.70089,-8.63068
2023-03-15 13:52:07:429,-1.29217,-0.674359,-9.35308,3.5964,-7.68016,-8.82308
2023-03-15 13:52:07:439,-1.1595,-0.645577,-9.44299,3.56404,-7.65189,-9.01066
2023-03-15 13:52:07:449,-1.08056,-0.654716,-9.48905,3.5229,-7.62639,-9.19221
2023-03-15 13:52:07:459,-1.02788,-0.639949,-9.53171,3.47157,-7.60484,-9.36717
2023-03-15 13:52:07:469,-1.02564,-0.583041,-9.61577,3.40852,-7.58715,-9.53245
2023-03-15 13:52:07:479,-1.04405,-0.482299,-9.73652,3.33846,-7.57332,-9.69176
2023-03-15 13:52:07:489,-1.05567,-0.427789,-9.86129,3.26539,-7.5633,-9.84238
2023-03-15 13:52:07:499,-1.05352,-0.387182,-9.93877,3.19563,-7.55033,-9.98801
2023-03-15 13:52:07:509,-1.03916,-0.375605,-9.96649,3.13087,-7.54221,-10.1243
2023-03-15 13:52:07:519,-0.997436,-0.385382,-9.98918,3.07199,-7.53134,-10.2523
2023-03-15 13:52:07:529,-0.919591,-0.369805,-10.0421,3.01586,-7.51819,-10.3662
2023-03-15 13:52:07:539,-0.874329,-0.341259,-10.0648,2.96707,-7.50712,-10.4673
2023-03-15 13:52:07:549,-0.8981,-0.352263,-10.0037,2.92635,-7.49914,-10.551
2023-03-15 13:52:07:559,-0.92166,-0.37024,-9.94289,2.89472,-7.49128,-10.6216
2023-03-15 13:52:07:569,-0.843639,-0.378687,-9.98204,2.87089,-7.48249,-10.6773
2023-03-15 13:52:07:579,-0.737819,-0.352235,-10.0717,2.85027,-7.47221,-10.7213
2023-03-15 13:52:07:589,-0.680902,-0.356032,-10.0993,2.8374,-7.47125,-10.7421
2023-03-15 13:52:07:599,-0.736281,-0.356663,-10.0739,2.83409,-7.4787,-10.7375
2023-03-15 13:52:07:609,-0.804101,-0.377682,-10.0723,2.84526,-7.48314,-10.7091
2023-03-15 13:52:07:619,-0.828826,-0.418871,-10.0679,2.86809,-7.48593,-10.6576
2023-03-15 13:52:07:629,-0.838335,-0.442433,-10.025,2.8999,-7.48547,-10.5853
2023-03-15 13:52:07:639,-0.860014,-0.533217,-9.97647,2.94567,-7.48954,-10.4957
2023-03-15 13:52:07:649,-0.917789,-0.593837,-9.91243,2.99795,-7.49534,-10.3821
2023-03-15 13:52:07:659,-1.00416,-0.636773,-9.88226,3.0442,-7.50369,-10.2481
2023-03-15 13:52:07:669,-1.08937,-0.688245,-9.88785,3.08864,-7.521,-10.0974
2023-03-15 13:52:07:679,-1.17066,-0.68665,-9.90534,3.1338,-7.53359,-9.93662
2023-03-15 13:52:07:689,-1.2485,-0.6857,-9.89155,3.17625,-7.54419,-9.76365
2023-03-15 13:52:07:699,-1.31685,-0.691113,-9.8624,3.22146,-7.54895,-9.58214
2023-03-15 13:52:07:709,-1.38288,-0.700404,-9.83676,3.26716,-7.54294,-9.39387
2023-03-15 13:52:07:719,-1.42544,-0.679702,-9.83188,3.31431,-7.52558,-9.19968
2023-03-15 13:52:07:729,-1.40605,-0.704269,-9.77531,3.36934,-7.49588,-9.00546
2023-03-15 13:52:07:739,-1.3646,-0.777037,-9.70177,3.4231,-7.46363,-8.8115
2023-03-15 13:52:07:749,-1.3416,-0.790959,-9.64781,3.47134,-7.43475,-8.61295
2023-03-15 13:52:07:759,-1.37958,-0.795567,-9.58855,3.50725,-7.41901,-8.41552
2023-03-15 13:52:07:769,-1.41646,-0.773603,-9.57635,3.53231,-7.41243,-8.22382
2023-03-15 13:52:07:779,-1.46684,-0.714611,-9.61694,3.55239,-7.40379,-8.03527
2023-03-15 13:52:07:789,-1.52068,-0.678533,-9.61372,3.5737,-7.39453,-7.85809
2023-03-15 13:52:07:799,-1.56021,-0.708509,-9.5686,3.6048,-7.38729,-7.69229
2023-03-15 13:52:07:809,-1.58623,-0.733071,-9.5299,3.6373,-7.37399,-7.53511
2023-03-15 13:52:07:819,-1.57685,-0.739887,-9.49475,3.67087,-7.35255,-7.39414
2023-03-15 13:52:07:829,-1.51205,-0.787143,-9.47224,3.71089,-7.32768,-7.26448
2023-03-15 13:52:07:839,-1.43221,-0.81744,-9.4136,3.74444,-7.29769,-7.14188
2023-03-15 13:52:07:849,-1.39684,-0.836861,-9.35585,3.77426,-7.27701,-7.02902
2023-03-15 13:52:07:859,-1.38896,-0.845401,-9.35142,3.79327,-7.25493,-6.92507
2023-03-15 13:52:07:869,-1.3797,-0.839671,-9.36778,3.80298,-7.23203,-6.82497
2023-03-15 13:52:07:879,-1.35895,-0.834584,-9.39577,3.80348,-7.20704,-6.73693
2023-03-15 13:52:07:889,-1.33464,-0.824015,-9.46084,3.78967,-7.18447,-6.64882
2023-03-15 13:52:07:899,-1.29425,-0.80253,-9.49432,3.77071,-7.15794,-6.57403
2023-03-15 13:52:07:909,-1.25588,-0.794612,-9.53006,3.75068,-7.13737,-6.50207
2023-03-15 13:52:07:919,-1.26592,-0.742513,-9.57194,3.72205,-7.12519,-6.43827
2023-03-15 13:52:07:929,-1.31601,-0.677099,-9.60096,3.69173,-7.11891,-6.38429
2023-03-15 13:52:07:939,-1.36346,-0.621707,-9.60926,3.65883,-7.11265,-6.33992
2023-03-15 13:52:07:949,-1.36288,-0.62129,-9.59676,3.62368,-7.10953,-6.30805
2023-03-15 13:52:07:959,-1.31651,-0.639191,-9.55066,3.59006,-7.10442,-6.28331
2023-03-15 13:52:07:969,-1.27126,-0.606759,-9.53742,3.55298,-7.09413,-6.26765
2023-03-15 13:52:07:979,-1.21956,-0.586769,-9.58869,3.50359,-7.08629,-6.25706
2023-03-15 13:52:07:989,-1.16892,-0.528545,-9.62986,3.44971,-7.08,-6.25269
2023-03-15 13:52:07:999,-1.16218,-0.483169,-9.70327,3.39531,-7.07642,-6.25416
2023-03-15 13:52:08:9,-1.16065,-0.439629,-9.75374,3.34091,-7.07726,-6.25059
2023-03-15 13:52:08:19,-1.15392,-0.428291,-9.78106,3.29163,-7.08004,-6.25485
2023-03-15 13:52:08:29,-1.16098,-0.443858,-9.80298,3.25178,-7.08077,-6.25751
2023-03-15 13:52:08:39,-1.15097,-0.455906,-9.7962,3.21986,-7.08229,-6.2615
2023-03-15 13:52:08:49,-1.13009,-0.462213,-9.77342,3.1934,-7.08663,-6.26403
2023-03-15 13:52:08:59,-1.09,-0.478114,-9.73765,3.17063,-7.08714,-6.27043
2023-03-15 13:52:08:69,-1.0294,-0.514179,-9.71895,3.15243,-7.09712,-6.27609
2023-03-15 13:52:08:79,-1.04733,-0.537495,-9.7055,3.13361,-7.11088,-6.2767
2023-03-15 13:52:08:89,-1.10227,-0.536817,-9.73909,3.11093,-7.13338,-6.27387
2023-03-15 13:52:08:99,-1.15781,-0.501967,-9.78088,3.08615,-7.15729,-6.27254
2023-03-15 13:52:08:109,-1.15714,-0.485509,-9.82966,3.06688,-7.18351,-6.27226
2023-03-15 13:52:08:119,-1.09182,-0.48621,-9.86151,3.04972,-7.20951,-6.27316
2023-03-15 13:52:08:129,-1.04224,-0.511969,-9.87797,3.04512,-7.23567,-6.27375
2023-03-15 13:52:08:139,-1.04619,-0.532871,-9.85396,3.04387,-7.26736,-6.26743
2023-03-15 13:52:08:149,-1.06441,-0.566382,-9.82188,3.05199,-7.29832,-6.25649
2023-03-15 13:52:08:159,-1.06805,-0.567661,-9.77021,3.06479,-7.33799,-6.23914
2023-03-15 13:52:08:169,-1.08647,-0.565488,-9.73729,3.07851,-7.3815,-6.22026
2023-03-15 13:52:08:179,-1.09975,-0.589215,-9.72567,3.09844,-7.42641,-6.19598
2023-03-15 13:52:08:189,-1.13855,-0.603383,-9.72041,3.11862,-7.47704,-6.16626
2023-03-15 13:52:08:199,-1.20278,-0.571211,-9.75513,3.13902,-7.52917,-6.13212
2023-03-15 13:52:08:209,-1.23354,-0.541668,-9.79992,3.16227,-7.57604,-6.09543
2023-03-15 13:52:08:219,-1.24073,-0.555252,-9.77275,3.18726,-7.61816,-6.0544
2023-03-15 13:52:08:229,-1.24807,-0.592748,-9.69718,3.22006,-7.66254,-6.00997
2023-03-15 13:52:08:239,-1.27702,-0.617556,-9.62777,3.25737,-7.70774,-5.96533
2023-03-15 13:52:08:249,-1.28825,-0.66423,-9.59804,3.29101,-7.75691,-5.91327
2023-03-15 13:52:08:259,-1.30163,-0.664427,-9.58086,3.31919,-7.81004,-5.85547
2023-03-15 13:52:08:269,-1.36398,-0.66841,-9.55357,3.34398,-7.86242,-5.79851
2023-03-15 13:52:08:279,-1.42626,-0.656922,-9.52604,3.36304,-7.91875,-5.74002
2023-03-15 13:52:08:289,-1.49847,-0.630405,-9.53467,3.3725,-7.97127,-5.67858
2023-03-15 13:52:08:299,-1.58067,-0.582618,-9.53964,3.37765,-8.02276,-5.62629
2023-03-15 13:52:08:309,-1.64578,-0.538814,-9.56321,3.37689,-8.06725,-5.57439
2023-03-15 13:52:08:319,-1.67665,-0.508413,-9.60029,3.37453,-8.10618,-5.53128
2023-03-15 13:52:08:329,-1.70541,-0.470398,-9.60732,3.372,-8.13884,-5.49482
2023-03-15 13:52:08:339,-1.70032,-0.480862,-9.60262,3.37246,-8.16281,-5.46687
2023-03-15 13:52:08:349,-1.6927,-0.480646,-9.61698,3.36957,-8.18282,-5.44894
2023-03-15 13:52:08:359,-1.69651,-0.46631,-9.60768,3.36561,-8.19801,-5.44008
2023-03-15 13:52:08:369,-1.71202,-0.448635,-9.60225,3.36768,-8.2061,-5.43945
2023-03-15 13:52:08:379,-1.71973,-0.455326,-9.59654,3.3682,-8.20983,-5.45116
2023-03-15 13:52:08:389,-1.70125,-0.443065,-9.60847,3.37032,-8.20497,-5.47305
2023-03-15 13:52:08:399,-1.69544,-0.40652,-9.6411,3.37009,-8.19518,-5.50673
2023-03-15 13:52:08:409,-1.69825,-0.388053,-9.6686,3.37117,-8.17895,-5.55102
2023-03-15 13:52:08:419,-1.67626,-0.376098,-9.70995,3.37997,-8.15919,-5.60534
2023-03-15 13:52:08:429,-1.63268,-0.370126,-9.73827,3.39202,-8.13302,-5.67247
2023-03-15 13:52:08:439,-1.54913,-0.38769,-9.75464,3.41274,-8.10846,-5.75298
2023-03-15 13:52:08:449,-1.50569,-0.404512,-9.73471,3.43867,-8.08314,-5.8401
2023-03-15 13:52:08:459,-1.48613,-0.460049,-9.69138,3.47122,-8.06265,-5.93594
2023-03-15 13:52:08:469,-1.44273,-0.507475,-9.62724,3.502,-8.04715,-6.03646
2023-03-15 13:52:08:479,-1.40446,-0.508257,-9.59575,3.53151,-8.03226,-6.13965
2023-03-15 13:52:08:489,-1.39678,-0.508368,-9.5796,3.56235,-8.02139,-6.2445
2023-03-15 13:52:08:499,-1.4093,-0.554395,-9.53906,3.58989,-8.00974,-6.35203
2023-03-15 13:52:08:509,-1.42787,-0.568824,-9.52752,3.61194,-7.99181,-6.46082
2023-03-15 13:52:08:519,-1.42651,-0.567561,-9.56098,3.62653,-7.97169,-6.56785
2023-03-15 13:52:08:529,-1.38297,-0.545749,-9.59359,3.63271,-7.95404,-6.67703
2023-03-15 13:52:08:539,-1.33399,-0.539199,-9.62043,3.63888,-7.93559,-6.78728
2023-03-15 13:52:08:549,-1.31905,-0.560679,-9.63079,3.64155,-7.91428,-6.89457
2023-03-15 13:52:08:559,-1.3542,-0.560202,-9.60842,3.63778,-7.89407,-6.99578
2023-03-15 13:52:08:569,-1.38636,-0.547468,-9.62909,3.62799,-7.87731,-7.09793
2023-03-15 13:52:08:579,-1.41295,-0.524878,-9.67121,3.61499,-7.86106,-7.20069
2023-03-15 13:52:08:589,-1.40632,-0.480239,-9.69423,3.60045,-7.84201,-7.31219
2023-03-15 13:52:08:599,-1.36057,-0.47305,-9.68996,3.58745,-7.82649,-7.42451
2023-03-15 13:52:08:609,-1.27331,-0.479125,-9.6617,3.57295,-7.80448,-7.53932
2023-03-15 13:52:08:619,-1.15777,-0.487738,-9.67292,3.56357,-7.78585,-7.65555
2023-03-15 13:52:08:629,-1.04457,-0.492827,-9.69477,3.55473,-7.76807,-7.7682
2023-03-15 13:52:08:639,-1.04595,-0.504852,-9.674,3.54856,-7.75583,-7.86657
2023-03-15 13:52:08:649,-1.08974,-0.535644,-9.66179,3.54653,-7.75424,-7.95796
2023-03-15 13:52:08:659,-1.10287,-0.576952,-9.62208,3.55134,-7.75115,-8.04207
2023-03-15 13:52:08:669,-1.09706,-0.624995,-9.59422,3.55258,-7.75275,-8.1154
2023-03-15 13:52:08:679,-1.09781,-0.653017,-9.58945,3.54956,-7.75483,-8.18049
2023-03-15 13:52:08:689,-1.10889,-0.66455,-9.61801,3.54493,-7.75483,-8.23562
2023-03-15 13:52:08:699,-1.07784,-0.651065,-9.63877,3.53819,-7.75383,-8.27921
2023-03-15 13:52:08:709,-1.05547,-0.64678,-9.67693,3.52791,-7.75302,-8.3186
2023-03-15 13:52:08:719,-1.05624,-0.645151,-9.70435,3.51494,-7.74891,-8.34093
2023-03-15 13:52:08:729,-1.08455,-0.634684,-9.72805,3.50654,-7.74579,-8.35503
2023-03-15 13:52:08:739,-1.12571,-0.647022,-9.71441,3.49829,-7.74418,-8.35852
2023-03-15 13:52:08:749,-1.18468,-0.629319,-9.70228,3.48853,-7.74368,-8.35319
2023-03-15 13:52:08:759,-1.18466,-0.640353,-9.69858,3.47867,-7.74686,-8.34381
2023-03-15 13:52:08:769,-1.20055,-0.665398,-9.67069,3.47147,-7.75186,-8.32787
2023-03-15 13:52:08:779,-1.25872,-0.671552,-9.6341,3.46167,-7.76597,-8.30574
2023-03-15 13:52:08:789,-1.29728,-0.6546,-9.64774,3.44747,-7.77472,-8.28133
2023-03-15 13:52:08:799,-1.27179,-0.6433,-9.67071,3.43112,-7.78313,-8.25433
2023-03-15 13:52:08:809,-1.22816,-0.62575,-9.70477,3.41254,-7.79174,-8.21962
2023-03-15 13:52:08:819,-1.22881,-0.626239,-9.69567,3.39357,-7.7969,-8.18127
2023-03-15 13:52:08:829,-1.24984,-0.615964,-9.68211,3.3731,-7.80696,-8.13593
2023-03-15 13:52:08:839,-1.27949,-0.592143,-9.68947,3.35223,-7.81272,-8.08717
2023-03-15 13:52:08:849,-1.27982,-0.590216,-9.67901,3.33283,-7.81772,-8.03668
2023-03-15 13:52:08:859,-1.2996,-0.597554,-9.6519,3.31379,-7.8303,-7.98328
2023-03-15 13:52:08:869,-1.3344,-0.596812,-9.64756,3.29443,-7.84476,-7.92779
2023-03-15 13:52:08:879,-1.36438,-0.584473,-9.6465,3.27949,-7.85938,-7.8721
2023-03-15 13:52:08:889,-1.41496,-0.594076,-9.63116,3.2633,-7.87358,-7.81561
2023-03-15 13:52:08:899,-1.421,-0.605774,-9.60904,3.24246,-7.88733,-7.76063
2023-03-15 13:52:08:909,-1.41141,-0.623893,-9.59947,3.22431,-7.90556,-7.7061
2023-03-15 13:52:08:919,-1.42567,-0.623115,-9.58123,3.20371,-7.92621,-7.65146
2023-03-15 13:52:08:929,-1.49364,-0.59766,-9.57205,3.17562,-7.94404,-7.59776
2023-03-15 13:52:08:938,-1.53123,-0.574472,-9.56723,3.14809,-7.96428,-7.54883
2023-03-15 13:52:08:949,-1.54807,-0.576692,-9.56298,3.11512,-7.97717,-7.50113
2023-03-15 13:52:08:959,-1.55584,-0.562692,-9.5357,3.08199,-7.98558,-7.45761
2023-03-15 13:52:08:969,-1.58996,-0.539969,-9.5293,3.04239,-7.98802,-7.42029
2023-03-15 13:52:08:979,-1.61075,-0.498325,-9.54381,2.99707,-7.98674,-7.38742
2023-03-15 13:52:08:989,-1.60724,-0.481584,-9.58776,2.94762,-7.97905,-7.36108
2023-03-15 13:52:08:999,-1.59645,-0.434314,-9.623,2.89446,-7.96834,-7.34311
2023-03-15 13:52:09:9,-1.60296,-0.379637,-9.65373,2.83976,-7.95264,-7.33224
2023-03-15 13:52:09:19,-1.60658,-0.355671,-9.65413,2.78752,-7.93317,-7.32971
2023-03-15 13:52:09:29,-1.57169,-0.343972,-9.63581,2.74013,-7.91161,-7.33356
2023-03-15 13:52:09:39,-1.53312,-0.347052,-9.64277,2.69424,-7.88826,-7.34747
2023-03-15 13:52:09:49,-1.509,-0.352457,-9.64819,2.65081,-7.86193,-7.36475
2023-03-15 13:52:09:59,-1.49579,-0.356068,-9.65967,2.61313,-7.83526,-7.39066
2023-03-15 13:52:09:69,-1.47851,-0.348557,-9.65396,2.57767,-7.8062,-7.42135
2023-03-15 13:52:09:79,-1.47418,-0.355514,-9.65179,2.54389,-7.77968,-7.46166
2023-03-15 13:52:09:89,-1.45279,-0.375506,-9.636,2.51368,-7.74941,-7.50935
2023-03-15 13:52:09:99,-1.415,-0.392116,-9.63996,2.48409,-7.71781,-7.55686
2023-03-15 13:52:09:109,-1.39157,-0.354018,-9.65987,2.45342,-7.68719,-7.60792
2023-03-15 13:52:09:119,-1.35156,-0.324524,-9.68422,2.42244,-7.64961,-7.66543
2023-03-15 13:52:09:129,-1.31393,-0.31857,-9.7352,2.39713,-7.61299,-7.7189
2023-03-15 13:52:09:139,-1.27235,-0.31485,-9.75399,2.37628,-7.57172,-7.772
2023-03-15 13:52:09:149,-1.20557,-0.340858,-9.78304,2.35791,-7.53036,-7.82718
2023-03-15 13:52:09:159,-1.16667,-0.339589,-9.80764,2.3398,-7.4904,-7.88104
2023-03-15 13:52:09:169,-1.15011,-0.328782,-9.82093,2.32298,-7.45329,-7.92425
2023-03-15 13:52:09:179,-1.15377,-0.338062,-9.81249,2.31419,-7.42223,-7.97221
2023-03-15 13:52:09:189,-1.16962,-0.355408,-9.76345,2.30463,-7.39449,-8.00995
2023-03-15 13:52:09:199,-1.1808,-0.37038,-9.70904,2.29746,-7.36694,-8.0416
2023-03-15 13:52:09:209,-1.1733,-0.34745,-9.67774,2.29279,-7.33869,-8.07149
2023-03-15 13:52:09:219,-1.17075,-0.329472,-9.67534,2.28334,-7.31416,-8.1006
2023-03-15 13:52:09:229,-1.16794,-0.307765,-9.647,2.27148,-7.2924,-8.12376
2023-03-15 13:52:09:239,-1.18523,-0.281057,-9.63412,2.25652,-7.27287,-8.14427
2023-03-15 13:52:09:249,-1.19925,-0.251335,-9.65686,2.24213,-7.252,-8.16476
2023-03-15 13:52:09:259,-1.18347,-0.26108,-9.63263,2.23822,-7.23221,-8.18048
2023-03-15 13:52:09:269,-1.17654,-0.294684,-9.59333,2.23767,-7.21283,-8.1954
2023-03-15 13:52:09:279,-1.15832,-0.32997,-9.60641,2.23924,-7.19064,-8.20568
2023-03-15 13:52:09:289,-1.1368,-0.355012,-9.62152,2.24136,-7.16927,-8.21496
2023-03-15 13:52:09:299,-1.11661,-0.376288,-9.60588,2.24352,-7.14925,-8.21652
2023-03-15 13:52:09:309,-1.10811,-0.405922,-9.62302,2.23938,-7.13489,-8.21363
2023-03-15 13:52:09:318,-1.11397,-0.410051,-9.65906,2.23329,-7.12243,-8.20878
2023-03-15 13:52:09:329,-1.14282,-0.371016,-9.71024,2.22016,-7.11517,-8.20281
2023-03-15 13:52:09:339,-1.18775,-0.334959,-9.74111,2.20392,-7.11133,-8.19404
2023-03-15 13:52:09:349,-1.24544,-0.32922,-9.77317,2.18666,-7.10922,-8.18841
2023-03-15 13:52:09:359,-1.28687,-0.325055,-9.79215,2.16956,-7.1096,-8.18079
2023-03-15 13:52:09:369,-1.29567,-0.313796,-9.78692,2.15054,-7.10642,-8.173
2023-03-15 13:52:09:379,-1.26572,-0.309797,-9.79026,2.13285,-7.09457,-8.16602
2023-03-15 13:52:09:389,-1.20805,-0.305671,-9.81945,2.12049,-7.08437,-8.16423
2023-03-15 13:52:09:399,-1.18013,-0.312502,-9.82303,2.10683,-7.0762,-8.15879
2023-03-15 13:52:09:409,-1.20648,-0.343937,-9.80207,2.09816,-7.07452,-8.15252
2023-03-15 13:52:09:419,-1.23773,-0.337532,-9.78059,2.09491,-7.07269,-8.14247
2023-03-15 13:52:09:429,-1.2577,-0.326104,-9.75349,2.09681,-7.07307,-8.13937
2023-03-15 13:52:09:439,-1.26168,-0.33857,-9.74762,2.10027,-7.0734,-8.13783
2023-03-15 13:52:09:449,-1.23194,-0.34089,-9.71774,2.1045,-7.07098,-8.14005
2023-03-15 13:52:09:459,-1.21468,-0.35131,-9.68736,2.10982,-7.0643,-8.14171
2023-03-15 13:52:09:469,-1.2111,-0.355194,-9.64071,2.12036,-7.05982,-8.14071
2023-03-15 13:52:09:479,-1.21795,-0.381815,-9.57858,2.13111,-7.051,-8.14072
2023-03-15 13:52:09:489,-1.20748,-0.412361,-9.5589,2.14099,-7.04259,-8.14291
2023-03-15 13:52:09:499,-1.20918,-0.418664,-9.57573,2.15133,-7.03385,-8.14472
2023-03-15 13:52:09:509,-1.21295,-0.407696,-9.59806,2.15389,-7.02145,-8.14814
2023-03-15 13:52:09:519,-1.20925,-0.394039,-9.62041,2.15311,-7.00684,-8.15102
2023-03-15 13:52:09:529,-1.21415,-0.377572,-9.62655,2.15223,-6.99011,-8.158
2023-03-15 13:52:09:539,-1.1841,-0.393802,-9.6331,2.15107,-6.97062,-8.16528
2023-03-15 13:52:09:549,-1.18049,-0.42002,-9.60257,2.14869,-6.95029,-8.17473
2023-03-15 13:52:09:559,-1.20435,-0.398149,-9.62379,2.13873,-6.92896,-8.18272
2023-03-15 13:52:09:569,-1.20528,-0.344005,-9.68175,2.12219,-6.90358,-8.19473
2023-03-15 13:52:09:579,-1.17969,-0.328182,-9.71083,2.10609,-6.87765,-8.21008
2023-03-15 13:52:09:589,-1.17847,-0.322527,-9.72613,2.08491,-6.85056,-8.22778
2023-03-15 13:52:09:599,-1.16177,-0.306254,-9.74756,2.06287,-6.82575,-8.2431
2023-03-15 13:52:09:609,-1.13008,-0.299631,-9.77438,2.04307,-6.79996,-8.26149
2023-03-15 13:52:09:619,-1.1045,-0.277838,-9.77743,2.01921,-6.76905,-8.28196
2023-03-15 13:52:09:629,-1.09449,-0.245848,-9.78833,1.99989,-6.74085,-8.30392
2023-03-15 13:52:09:639,-1.07987,-0.223585,-9.761,1.98539,-6.71327,-8.32708
2023-03-15 13:52:09:649,-1.04218,-0.234374,-9.6866,1.97643,-6.68319,-8.34733
2023-03-15 13:52:09:659,-1.03919,-0.246031,-9.61808,1.96926,-6.66193,-8.3675
2023-03-15 13:52:09:669,-1.06915,-0.254466,-9.59793,1.96085,-6.6395,-8.38805
2023-03-15 13:52:09:679,-1.07084,-0.263263,-9.60557,1.95357,-6.61896,-8.40778
2023-03-15 13:52:09:689,-1.02868,-0.273878,-9.61204,1.94325,-6.59575,-8.42237
2023-03-15 13:52:09:699,-1.0005,-0.28483,-9.67209,1.92769,-6.571,-8.43602
2023-03-15 13:52:09:709,-1.00688,-0.274978,-9.75526,1.91302,-6.54868,-8.44593
2023-03-15 13:52:09:719,-1.04147,-0.239112,-9.78048,1.89698,-6.52942,-8.45626
2023-03-15 13:52:09:729,-1.04403,-0.252728,-9.76854,1.88416,-6.51102,-8.46607
2023-03-15 13:52:09:739,-1.0331,-0.287548,-9.71061,1.87338,-6.49553,-8.47649
2023-03-15 13:52:09:749,-1.02838,-0.280383,-9.67563,1.85851,-6.48233,-8.48664
2023-03-15 13:52:09:759,-1.05233,-0.26199,-9.6909,1.84203,-6.47378,-8.49645
2023-03-15 13:52:09:769,-1.09436,-0.236743,-9.75121,1.82045,-6.46713,-8.50856
2023-03-15 13:52:09:779,-1.11065,-0.208281,-9.82236,1.80286,-6.46436,-8.5278
2023-03-15 13:52:09:789,-1.07415,-0.192231,-9.85365,1.78794,-6.46442,-8.54922
2023-03-15 13:52:09:799,-1.01563,-0.200379,-9.84278,1.78045,-6.46316,-8.57055
2023-03-15 13:52:09:809,-1.00678,-0.224948,-9.78586,1.77558,-6.47011,-8.59457
2023-03-15 13:52:09:819,-1.0529,-0.236434,-9.71358,1.77852,-6.48428,-8.61156
2023-03-15 13:52:09:829,-1.07537,-0.230645,-9.68976,1.77939,-6.50338,-8.6329
2023-03-15 13:52:09:839,-1.08826,-0.236573,-9.6883,1.77847,-6.52473,-8.65348
2023-03-15 13:52:09:849,-1.07956,-0.219371,-9.6828,1.77176,-6.54066,-8.66957
2023-03-15 13:52:09:859,-1.0657,-0.209098,-9.69273,1.76391,-6.55588,-8.68438
2023-03-15 13:52:09:869,-1.06918,-0.191689,-9.69067,1.75639,-6.57374,-8.69827
2023-03-15 13:52:09:879,-1.11837,-0.16684,-9.71941,1.74874,-6.59048,-8.70616
2023-03-15 13:52:09:889,-1.1847,-0.157658,-9.72064,1.74301,-6.60724,-8.71028
2023-03-15 13:52:09:899,-1.22311,-0.189409,-9.6877,1.74514,-6.62143,-8.71588
2023-03-15 13:52:09:909,-1.22525,-0.226638,-9.66055,1.75289,-6.6277,-8.71922
2023-03-15 13:52:09:919,-1.20397,-0.252971,-9.66648,1.76011,-6.62912,-8.72174
2023-03-15 13:52:09:929,-1.18162,-0.274188,-9.68511,1.77114,-6.62894,-8.72611
2023-03-15 13:52:09:939,-1.17225,-0.290866,-9.67555,1.78102,-6.62482,-8.72812
2023-03-15 13:52:09:949,-1.18522,-0.316543,-9.67739,1.79038,-6.61722,-8.72984
2023-03-15 13:52:09:959,-1.19916,-0.311905,-9.68846,1.79674,-6.61319,-8.72968
2023-03-15 13:52:09:969,-1.19287,-0.31494,-9.67732,1.80134,-6.60934,-8.73282
2023-03-15 13:52:09:979,-1.17908,-0.33707,-9.63702,1.80655,-6.60486,-8.73875
2023-03-15 13:52:09:989,-1.18538,-0.351954,-9.66415,1.8077,-6.59987,-8.74354
2023-03-15 13:52:09:999,-1.19564,-0.298952,-9.73442,1.80452,-6.59052,-8.74939
2023-03-15 13:52:10:9,-1.20325,-0.268297,-9.79236,1.8032,-6.57952,-8.75647
2023-03-15 13:52:10:19,-1.19906,-0.255934,-9.77988,1.80579,-6.56628,-8.76812
2023-03-15 13:52:10:29,-1.15894,-0.291244,-9.73549,1.81261,-6.55498,-8.77987
2023-03-15 13:52:10:39,-1.14438,-0.32639,-9.69863,1.82028,-6.53938,-8.79115
2023-03-15 13:52:10:49,-1.17511,-0.344148,-9.67095,1.83094,-6.52332,-8.8029
2023-03-15 13:52:10:59,-1.1872,-0.345782,-9.65385,1.839,-6.509,-8.81604
2023-03-15 13:52:10:69,-1.16326,-0.352567,-9.64092,1.84883,-6.49437,-8.83351
2023-03-15 13:52:10:79,-1.10939,-0.356188,-9.64576,1.8557,-6.47305,-8.85002
2023-03-15 13:52:10:89,-1.06777,-0.362994,-9.64681,1.85919,-6.45819,-8.87044
2023-03-15 13:52:10:99,-1.04745,-0.360837,-9.63884,1.86118,-6.4397,-8.89144
2023-03-15 13:52:10:109,-1.03899,-0.36388,-9.63916,1.86272,-6.4212,-8.90855
2023-03-15 13:52:10:119,-1.02205,-0.34954,-9.65182,1.86038,-6.40859,-8.92837
2023-03-15 13:52:10:129,-1.01761,-0.321376,-9.65899,1.85101,-6.3967,-8.94855
2023-03-15 13:52:10:139,-1.00916,-0.31532,-9.66422,1.84017,-6.38673,-8.96707
2023-03-15 13:52:10:149,-0.980838,-0.338362,-9.64963,1.82936,-6.38365,-8.98718
2023-03-15 13:52:10:159,-0.972079,-0.316193,-9.67532,1.81331,-6.38265,-9.00486
2023-03-15 13:52:10:169,-0.975218,-0.281275,-9.70094,1.79686,-6.38324,-9.0171
2023-03-15 13:52:10:179,-0.982506,-0.289062,-9.68094,1.77733,-6.3921,-9.02706
2023-03-15 13:52:10:189,-1.00118,-0.286918,-9.6827,1.76089,-6.39904,-9.03695
2023-03-15 13:52:10:199,-1.00869,-0.266419,-9.71146,1.74045,-6.40942,-9.04275
