Timestamp,Acceleration_x,Acceleration_y,Acceleration_z,roll,pitch,yaw
2023-03-11 22:55:27:466,-0.0231492,1.85279,-9.69263,-10.2456,0.263961,-28.2418
2023-03-11 22:55:27:474,-0.0827619,1.87638,-9.70795,-10.2689,0.257979,-28.3215
2023-03-11 22:55:27:484,-0.118769,1.90081,-9.7391,-10.2917,0.256032,-28.4079
2023-03-11 22:55:27:495,-0.15392,1.92611,-9.79421,-10.314,0.252652,-28.4949
2023-03-11 22:55:27:505,-0.174945,1.92152,-9.84671,-10.3244,0.247823,-28.587
2023-03-11 22:55:27:515,-0.164929,1.90826,-9.85187,-10.3301,0.245135,-28.6833
2023-03-11 22:55:27:525,-0.0593711,1.88318,-9.82452,-10.3296,0.239152,-28.7838
2023-03-11 22:55:27:535,0.0166536,1.83219,-9.78772,-10.3203,0.230025,-28.878
2023-03-11 22:55:27:545,0.0314971,1.8275,-9.74168,-10.3117,0.217377,-28.9679
2023-03-11 22:55:27:555,0.0298018,1.84504,-9.67326,-10.2983,0.211059,-29.0488
2023-03-11 22:55:27:565,0.00334874,1.86058,-9.54913,-10.2788,0.209359,-29.1235
2023-03-11 22:55:27:575,0.0220482,1.81367,-9.46299,-10.2525,0.218599,-29.1964
2023-03-11 22:55:27:585,0.10639,1.79006,-9.45306,-10.2277,0.239622,-29.2596
2023-03-11 22:55:27:595,0.16186,1.76513,-9.45571,-10.2029,0.264189,-29.3151
2023-03-11 22:55:27:605,0.117358,1.71442,-9.45871,-10.178,0.291452,-29.3635
2023-03-11 22:55:27:615,0.0548054,1.72054,-9.46175,-10.1516,0.317092,-29.4115
2023-03-11 22:55:27:625,0.0452684,1.70686,-9.4469,-10.1273,0.340273,-29.466
2023-03-11 22:55:27:635,0.053605,1.67095,-9.41571,-10.1044,0.367791,-29.522
2023-03-11 22:55:27:645,0.127871,1.65334,-9.44765,-10.0844,0.400053,-29.5872
2023-03-11 22:55:27:655,0.257768,1.63757,-9.49275,-10.0679,0.429191,-29.6562
2023-03-11 22:55:27:665,0.386675,1.61844,-9.43475,-10.0531,0.458083,-29.7214
2023-03-11 22:55:27:675,0.440168,1.58358,-9.35293,-10.0485,0.476163,-29.7842
2023-03-11 22:55:27:685,0.465734,1.55085,-9.30548,-10.0485,0.49,-29.8413
2023-03-11 22:55:27:695,0.464042,1.55268,-9.34831,-10.0676,0.495864,-29.8917
2023-03-11 22:55:27:705,0.400549,1.62897,-9.4309,-10.1029,0.49977,-29.9334
2023-03-11 22:55:27:715,0.450645,1.67743,-9.52296,-10.1443,0.506055,-29.9771
2023-03-11 22:55:27:725,0.553327,1.68171,-9.56584,-10.1917,0.509723,-30.0152
2023-03-11 22:55:27:735,0.565391,1.67665,-9.53746,-10.2415,0.513565,-30.0378
2023-03-11 22:55:27:745,0.516873,1.70108,-9.46436,-10.2958,0.516203,-30.0456
2023-03-11 22:55:27:755,0.496147,1.76324,-9.3975,-10.3631,0.522285,-30.0436
2023-03-11 22:55:27:765,0.482557,1.85535,-9.42826,-10.445,0.526401,-30.0355
2023-03-11 22:55:27:775,0.465784,1.9499,-9.49649,-10.5274,0.531408,-30.0184
2023-03-11 22:55:27:785,0.497375,2.01469,-9.63048,-10.6211,0.541075,-29.9932
2023-03-11 22:55:27:795,0.555992,2.0782,-9.7977,-10.7129,0.551425,-29.9503
2023-03-11 22:55:27:805,0.520079,2.16162,-10.0069,-10.7989,0.557391,-29.8935
2023-03-11 22:55:27:815,0.424469,2.26446,-10.1803,-10.8707,0.548677,-29.8189
2023-03-11 22:55:27:825,0.323723,2.31497,-10.3087,-10.9179,0.527085,-29.7391
2023-03-11 22:55:27:834,0.281305,2.38945,-10.3381,-10.9381,0.504353,-29.6557
2023-03-11 22:55:27:844,0.268957,2.32404,-10.1908,-10.9184,0.478918,-29.5619
2023-03-11 22:55:27:854,0.221414,2.14535,-9.92747,-10.8704,0.455839,-29.456
2023-03-11 22:55:27:864,0.15286,2.01772,-9.81015,-10.8137,0.427932,-29.3377
2023-03-11 22:55:27:874,0.0783471,2.02641,-9.88497,-10.757,0.396073,-29.2156
2023-03-11 22:55:27:884,-0.00446367,2.04446,-9.89904,-10.695,0.359694,-29.0916
2023-03-11 22:55:27:895,-0.135478,1.91612,-9.7555,-10.6131,0.324305,-28.965
2023-03-11 22:55:27:905,-0.198168,1.85453,-9.67103,-10.5278,0.302959,-28.8418
2023-03-11 22:55:27:915,-0.148385,1.81852,-9.69003,-10.4432,0.289888,-28.7261
2023-03-11 22:55:27:925,-0.120194,1.73889,-9.65349,-10.3531,0.28019,-28.6108
2023-03-11 22:55:27:935,-0.111882,1.66353,-9.57116,-10.2582,0.273262,-28.4981
2023-03-11 22:55:27:945,-0.0914324,1.63349,-9.51733,-10.1685,0.266659,-28.3857
2023-03-11 22:55:27:955,-0.095801,1.58751,-9.45041,-10.0801,0.261472,-28.2773
2023-03-11 22:55:27:965,-0.105111,1.55391,-9.3991,-10.002,0.259622,-28.1666
2023-03-11 22:55:27:975,-0.0881405,1.54464,-9.3856,-9.92733,0.259989,-28.0622
2023-03-11 22:55:27:985,-0.0603817,1.52086,-9.4145,-9.86243,0.263202,-27.9615
2023-03-11 22:55:27:995,-0.0321859,1.53146,-9.46508,-9.80383,0.264399,-27.8634
2023-03-11 22:55:28:5,-0.00509445,1.54387,-9.48928,-9.74812,0.267899,-27.7646
2023-03-11 22:55:28:15,-0.00899085,1.53722,-9.48904,-9.69728,0.271713,-27.6661
2023-03-11 22:55:28:25,-0.0266418,1.51539,-9.50157,-9.65208,0.274201,-27.5672
2023-03-11 22:55:28:35,-0.0794004,1.54874,-9.56035,-9.6158,0.271915,-27.4704
2023-03-11 22:55:28:45,-0.136034,1.59991,-9.60668,-9.5864,0.263997,-27.3794
2023-03-11 22:55:28:54,-0.167319,1.62393,-9.61897,-9.55553,0.256466,-27.2928
2023-03-11 22:55:28:65,-0.201746,1.60746,-9.60059,-9.52618,0.247759,-27.2169
2023-03-11 22:55:28:75,-0.187342,1.59466,-9.57755,-9.49867,0.241242,-27.1505
2023-03-11 22:55:28:85,-0.185416,1.60095,-9.57314,-9.47688,0.230691,-27.0907
2023-03-11 22:55:28:95,-0.189429,1.61499,-9.57114,-9.45491,0.222582,-27.0367
2023-03-11 22:55:28:105,-0.183594,1.62618,-9.57694,-9.43835,0.214785,-26.9917
2023-03-11 22:55:28:115,-0.211065,1.63876,-9.6276,-9.42736,0.203529,-26.9515
2023-03-11 22:55:28:125,-0.183281,1.67104,-9.69403,-9.41934,0.197084,-26.9228
2023-03-11 22:55:28:135,-0.127437,1.66503,-9.73881,-9.40882,0.190975,-26.8999
2023-03-11 22:55:28:144,-0.125796,1.65756,-9.74114,-9.39131,0.183469,-26.8791
2023-03-11 22:55:28:155,-0.156161,1.66339,-9.73079,-9.37063,0.175787,-26.8644
2023-03-11 22:55:28:165,-0.153537,1.66378,-9.71313,-9.34377,0.171703,-26.8539
2023-03-11 22:55:28:175,-0.103277,1.63507,-9.70589,-9.31199,0.170186,-26.8487
2023-03-11 22:55:28:185,-0.0790703,1.60298,-9.6787,-9.27494,0.165473,-26.8462
2023-03-11 22:55:28:195,-0.0621691,1.54994,-9.6451,-9.238,0.165851,-26.8467
2023-03-11 22:55:28:205,-0.0284128,1.51395,-9.64535,-9.20198,0.173277,-26.8482
2023-03-11 22:55:28:215,-0.00884272,1.50528,-9.6387,-9.16485,0.178313,-26.8502
2023-03-11 22:55:28:225,0.00509628,1.49056,-9.60371,-9.12704,0.182917,-26.8497
2023-03-11 22:55:28:235,0.0225529,1.47549,-9.61566,-9.09295,0.189773,-26.8515
2023-03-11 22:55:28:245,0.0461965,1.48524,-9.66246,-9.06016,0.199728,-26.85
2023-03-11 22:55:28:255,0.0756545,1.50513,-9.69752,-9.02908,0.210793,-26.8485
2023-03-11 22:55:28:265,0.0951721,1.48778,-9.66105,-8.99277,0.22441,-26.8485
2023-03-11 22:55:28:275,0.112908,1.43323,-9.62477,-8.95647,0.23672,-26.8453
2023-03-11 22:55:28:285,0.0989426,1.40157,-9.60384,-8.91641,0.247016,-26.8347
2023-03-11 22:55:28:295,0.0935338,1.40726,-9.62392,-8.88393,0.256091,-26.8227
2023-03-11 22:55:28:305,0.121924,1.4087,-9.66667,-8.85594,0.268458,-26.8099
2023-03-11 22:55:28:315,0.137733,1.42383,-9.70222,-8.834,0.275083,-26.7944
2023-03-11 22:55:28:325,0.122006,1.44015,-9.71618,-8.81074,0.27697,-26.7708
2023-03-11 22:55:28:335,0.0964171,1.44496,-9.71406,-8.78537,0.276333,-26.7465
2023-03-11 22:55:28:345,0.0873908,1.43842,-9.69998,-8.76133,0.275364,-26.7259
2023-03-11 22:55:28:355,0.0711794,1.44248,-9.68117,-8.73706,0.271607,-26.6993
2023-03-11 22:55:28:365,0.0378447,1.46011,-9.63839,-8.71442,0.268586,-26.6691
2023-03-11 22:55:28:374,0.0323196,1.44863,-9.57902,-8.69336,0.27018,-26.6425
2023-03-11 22:55:28:384,0.0276744,1.43284,-9.56787,-8.67601,0.27008,-26.6121
2023-03-11 22:55:28:395,0.0159568,1.45486,-9.60088,-8.66017,0.27191,-26.5823
2023-03-11 22:55:28:405,-0.000238341,1.49135,-9.63969,-8.65174,0.268414,-26.5516
2023-03-11 22:55:28:414,-0.0111883,1.51666,-9.66355,-8.63911,0.268965,-26.5204
2023-03-11 22:55:28:425,-0.0193178,1.50914,-9.67066,-8.62679,0.26954,-26.4914
2023-03-11 22:55:28:435,-0.0273939,1.48217,-9.64333,-8.61089,0.269028,-26.4591
2023-03-11 22:55:28:445,-0.0416093,1.46913,-9.62973,-8.59453,0.271679,-26.4307
2023-03-11 22:55:28:455,-0.0521241,1.46931,-9.62654,-8.58044,0.276856,-26.4017
2023-03-11 22:55:28:465,-0.0564104,1.46025,-9.61598,-8.56688,0.278387,-26.3746
2023-03-11 22:55:28:475,-0.0452052,1.4514,-9.61978,-8.55449,0.28406,-26.3481
2023-03-11 22:55:28:485,-0.0212084,1.44619,-9.64208,-8.54336,0.293739,-26.3257
2023-03-11 22:55:28:495,0.00746868,1.45874,-9.66906,-8.5373,0.305568,-26.3023
2023-03-11 22:55:28:505,0.0298969,1.4493,-9.66787,-8.53454,0.3166,-26.2799
2023-03-11 22:55:28:515,0.0200736,1.4555,-9.66357,-8.52947,0.326821,-26.2568
2023-03-11 22:55:28:525,0.0168533,1.46953,-9.66345,-8.52539,0.337019,-26.2389
2023-03-11 22:55:28:535,0.0278931,1.45262,-9.66389,-8.52212,0.351806,-26.2215
2023-03-11 22:55:28:545,0.0507845,1.45889,-9.67357,-8.51804,0.367068,-26.2057
2023-03-11 22:55:28:555,0.107162,1.45003,-9.69229,-8.51382,0.380392,-26.19
2023-03-11 22:55:28:565,0.125033,1.42385,-9.67904,-8.50763,0.390033,-26.1725
2023-03-11 22:55:28:575,0.119427,1.41675,-9.69323,-8.50399,0.398553,-26.1551
2023-03-11 22:55:28:585,0.0833504,1.4283,-9.71141,-8.49998,0.401494,-26.135
2023-03-11 22:55:28:595,0.0575303,1.44376,-9.76454,-8.49666,0.400452,-26.1138
2023-03-11 22:55:28:605,0.034793,1.47741,-9.77637,-8.48929,0.397577,-26.0934
2023-03-11 22:55:28:615,0.0103042,1.46665,-9.7255,-8.47671,0.400804,-26.0788
2023-03-11 22:55:28:625,0.0200831,1.43874,-9.65469,-8.46337,0.407608,-26.0634
2023-03-11 22:55:28:635,0.0450859,1.4194,-9.60707,-8.44665,0.417734,-26.0485
2023-03-11 22:55:28:645,0.0676085,1.39603,-9.58235,-8.43073,0.434398,-26.0356
2023-03-11 22:55:28:655,0.108966,1.39349,-9.57085,-8.42381,0.446568,-26.0221
2023-03-11 22:55:28:665,0.138018,1.38876,-9.57242,-8.41986,0.462243,-26.0055
2023-03-11 22:55:28:675,0.140314,1.41526,-9.59855,-8.41672,0.481591,-25.9863
2023-03-11 22:55:28:685,0.146951,1.4269,-9.63788,-8.42214,0.503932,-25.9725
2023-03-11 22:55:28:695,0.136551,1.45348,-9.68456,-8.43096,0.519368,-25.9488
2023-03-11 22:55:28:705,0.132233,1.49857,-9.74156,-8.44088,0.530326,-25.9273
2023-03-11 22:55:28:715,0.109675,1.5265,-9.76726,-8.44846,0.542554,-25.9064
2023-03-11 22:55:28:725,0.0758778,1.515,-9.77951,-8.45009,0.55008,-25.885
2023-03-11 22:55:28:735,0.0650746,1.5274,-9.77248,-8.44747,0.557449,-25.8618
2023-03-11 22:55:28:745,0.0505423,1.52387,-9.77215,-8.43693,0.566261,-25.8401
2023-03-11 22:55:28:755,0.0162985,1.51074,-9.73683,-8.42361,0.578431,-25.82
2023-03-11 22:55:28:765,0.0281381,1.49102,-9.67429,-8.40351,0.58806,-25.8035
2023-03-11 22:55:28:775,0.069953,1.45008,-9.62217,-8.38381,0.600331,-25.7861
2023-03-11 22:55:28:785,0.099608,1.42878,-9.61077,-8.36656,0.615678,-25.769
2023-03-11 22:55:28:795,0.0866777,1.43984,-9.60964,-8.34767,0.632158,-25.7497
2023-03-11 22:55:28:805,0.0818604,1.44485,-9.60425,-8.33428,0.646706,-25.7337
2023-03-11 22:55:28:815,0.100002,1.44442,-9.60931,-8.32557,0.663528,-25.7199
2023-03-11 22:55:28:825,0.118352,1.45532,-9.64251,-8.31791,0.6792,-25.7061
2023-03-11 22:55:28:835,0.117832,1.4697,-9.67925,-8.31067,0.697587,-25.6935
2023-03-11 22:55:28:845,0.125074,1.45227,-9.69369,-8.29944,0.70845,-25.681
2023-03-11 22:55:28:855,0.142757,1.43744,-9.67457,-8.28902,0.720122,-25.671
2023-03-11 22:55:28:865,0.143597,1.42998,-9.65433,-8.28145,0.728316,-25.6613
2023-03-11 22:55:28:875,0.152695,1.44621,-9.64971,-8.27664,0.738956,-25.6538
2023-03-11 22:55:28:885,0.177002,1.45326,-9.66299,-8.27131,0.745728,-25.6434
2023-03-11 22:55:28:895,0.183119,1.45615,-9.68239,-8.26997,0.751718,-25.6314
2023-03-11 22:55:28:905,0.165142,1.44159,-9.68951,-8.26586,0.752801,-25.6192
2023-03-11 22:55:28:915,0.162804,1.41923,-9.68734,-8.26527,0.747671,-25.6051
2023-03-11 22:55:28:925,0.145922,1.44221,-9.71049,-8.26611,0.744615,-25.5927
2023-03-11 22:55:28:935,0.110769,1.46309,-9.72655,-8.26766,0.736145,-25.5771
2023-03-11 22:55:28:945,0.0682956,1.46064,-9.71904,-8.27043,0.728703,-25.5621
2023-03-11 22:55:28:955,0.031886,1.46331,-9.71372,-8.27036,0.720368,-25.5497
2023-03-11 22:55:28:964,0.0262852,1.47245,-9.73457,-8.2678,0.720597,-25.5377
2023-03-11 22:55:28:974,0.0162386,1.48713,-9.74324,-8.26351,0.725844,-25.5267
2023-03-11 22:55:28:984,0.0140171,1.48894,-9.73747,-8.25946,0.733635,-25.5194
2023-03-11 22:55:28:994,0.0225902,1.48948,-9.73042,-8.24414,0.740133,-25.5135
2023-03-11 22:55:29:4,0.0268548,1.4736,-9.72145,-8.22861,0.750489,-25.5032
2023-03-11 22:55:29:14,0.0308023,1.46167,-9.69839,-8.21081,0.759319,-25.4972
2023-03-11 22:55:29:24,0.0524447,1.45033,-9.65173,-8.18524,0.77333,-25.4916
2023-03-11 22:55:29:34,0.0515418,1.43146,-9.60455,-8.16063,0.791428,-25.4928
2023-03-11 22:55:29:44,0.0569105,1.39095,-9.57585,-8.13603,0.808367,-25.4935
2023-03-11 22:55:29:54,0.105621,1.37587,-9.5594,-8.11365,0.827943,-25.5
2023-03-11 22:55:29:64,0.138508,1.36128,-9.56169,-8.09724,0.850655,-25.5089
2023-03-11 22:55:29:74,0.152214,1.35173,-9.54385,-8.08299,0.870548,-25.5183
2023-03-11 22:55:29:84,0.163683,1.33847,-9.53717,-8.07434,0.895589,-25.5301
2023-03-11 22:55:29:94,0.20141,1.35833,-9.55252,-8.0673,0.920693,-25.5433
2023-03-11 22:55:29:104,0.253287,1.36891,-9.576,-8.06867,0.949227,-25.555
2023-03-11 22:55:29:114,0.291514,1.36814,-9.60625,-8.07287,0.972448,-25.5634
2023-03-11 22:55:29:125,0.323801,1.39002,-9.6812,-8.08075,0.993989,-25.5733
2023-03-11 22:55:29:135,0.342994,1.42257,-9.74487,-8.08721,1.01189,-25.5791
2023-03-11 22:55:29:145,0.33259,1.41025,-9.78163,-8.09405,1.0169,-25.5832
2023-03-11 22:55:29:155,0.297097,1.40964,-9.78587,-8.0986,1.02116,-25.584
2023-03-11 22:55:29:165,0.246437,1.39341,-9.78689,-8.1033,1.02035,-25.5837
2023-03-11 22:55:29:175,0.232279,1.3846,-9.79529,-8.10092,1.01318,-25.5818
2023-03-11 22:55:29:185,0.271291,1.37929,-9.83171,-8.10009,1.00792,-25.5833
2023-03-11 22:55:29:195,0.291062,1.38249,-9.86399,-8.09633,0.996677,-25.5772
2023-03-11 22:55:29:205,0.243707,1.37209,-9.84834,-8.08693,0.980985,-25.5666
2023-03-11 22:55:29:215,0.176935,1.36215,-9.79403,-8.07498,0.959009,-25.5537
2023-03-11 22:55:29:225,0.11961,1.34433,-9.74076,-8.06059,0.936011,-25.5418
2023-03-11 22:55:29:235,0.098912,1.34141,-9.71383,-8.04515,0.915915,-25.5302
2023-03-11 22:55:29:245,0.0949751,1.33586,-9.67448,-8.02689,0.899187,-25.5219
2023-03-11 22:55:29:255,0.101631,1.32642,-9.6302,-8.00867,0.88603,-25.5112
2023-03-11 22:55:29:265,0.137706,1.30463,-9.59906,-7.99036,0.879985,-25.5023
2023-03-11 22:55:29:275,0.159048,1.2831,-9.58026,-7.97747,0.872199,-25.4866
2023-03-11 22:55:29:285,0.17688,1.2859,-9.59188,-7.96996,0.866182,-25.4667
2023-03-11 22:55:29:295,0.215877,1.27735,-9.61116,-7.95914,0.858773,-25.4458
2023-03-11 22:55:29:305,0.202756,1.28103,-9.62118,-7.94861,0.857416,-25.4151
2023-03-11 22:55:29:315,0.193931,1.27799,-9.62026,-7.93769,0.864209,-25.3815
2023-03-11 22:55:29:325,0.222204,1.26981,-9.64357,-7.92668,0.871566,-25.3417
2023-03-11 22:55:29:335,0.228188,1.26483,-9.65439,-7.91589,0.878956,-25.2941
2023-03-11 22:55:29:345,0.20177,1.26914,-9.64497,-7.907,0.891221,-25.2415
2023-03-11 22:55:29:355,0.178608,1.27067,-9.64425,-7.90185,0.905653,-25.1801
2023-03-11 22:55:29:365,0.192638,1.2787,-9.64313,-7.90028,0.924287,-25.1193
2023-03-11 22:55:29:375,0.244532,1.28348,-9.65888,-7.90067,0.949427,-25.0536
2023-03-11 22:55:29:385,0.368786,1.28409,-9.68071,-7.90454,0.981373,-24.9791
2023-03-11 22:55:29:395,0.469513,1.28861,-9.68284,-7.90466,1.01745,-24.8908
2023-03-11 22:55:29:405,0.481189,1.28847,-9.68117,-7.90606,1.06091,-24.7867
2023-03-11 22:55:29:415,0.453072,1.31301,-9.68896,-7.90549,1.10925,-24.6695
2023-03-11 22:55:29:425,0.479494,1.35508,-9.73497,-7.90967,1.15931,-24.5407
2023-03-11 22:55:29:435,0.486555,1.36974,-9.74656,-7.91045,1.20304,-24.4005
2023-03-11 22:55:29:445,0.420401,1.35885,-9.75085,-7.90986,1.24436,-24.2512
2023-03-11 22:55:29:455,0.317432,1.39073,-9.74904,-7.90673,1.27874,-24.0915
2023-03-11 22:55:29:465,0.216906,1.38373,-9.78723,-7.89629,1.31552,-23.9299
2023-03-11 22:55:29:475,0.103073,1.40148,-9.80926,-7.87912,1.34269,-23.7723
2023-03-11 22:55:29:485,0.0378327,1.42328,-9.83653,-7.85916,1.3731,-23.6251
2023-03-11 22:55:29:495,0.0232797,1.41739,-9.8301,-7.82791,1.40146,-23.4912
2023-03-11 22:55:29:505,0.0397318,1.38182,-9.76639,-7.78788,1.43064,-23.3669
2023-03-11 22:55:29:515,0.0684575,1.31992,-9.68554,-7.74504,1.45712,-23.2542
2023-03-11 22:55:29:525,0.0925693,1.26486,-9.59187,-7.70545,1.48227,-23.1526
2023-03-11 22:55:29:535,0.130027,1.23914,-9.54011,-7.66742,1.50304,-23.0637
2023-03-11 22:55:29:545,0.159058,1.23446,-9.5662,-7.64439,1.52102,-22.9865
2023-03-11 22:55:29:555,0.18188,1.27219,-9.61321,-7.6271,1.53087,-22.9179
2023-03-11 22:55:29:565,0.182171,1.29004,-9.65736,-7.61762,1.535,-22.8587
2023-03-11 22:55:29:575,0.230653,1.26004,-9.66284,-7.61237,1.53873,-22.8121
2023-03-11 22:55:29:585,0.286243,1.27128,-9.68384,-7.61424,1.53438,-22.77
2023-03-11 22:55:29:595,0.302429,1.28888,-9.73206,-7.62685,1.52406,-22.7321
2023-03-11 22:55:29:605,0.272223,1.32188,-9.7759,-7.64095,1.50262,-22.6982
2023-03-11 22:55:29:615,0.271582,1.3545,-9.81371,-7.65994,1.47304,-22.6675
2023-03-11 22:55:29:625,0.209916,1.39649,-9.87424,-7.67738,1.43445,-22.6372
2023-03-11 22:55:29:635,0.136902,1.42049,-9.92895,-7.69314,1.38965,-22.6072
2023-03-11 22:55:29:645,0.0953202,1.43256,-9.92947,-7.70114,1.3436,-22.5815
2023-03-11 22:55:29:655,0.0556207,1.44091,-9.88536,-7.69872,1.29622,-22.5597
2023-03-11 22:55:29:665,-0.0129947,1.38788,-9.85557,-7.68392,1.24824,-22.5394
2023-03-11 22:55:29:675,-0.0804617,1.36671,-9.88308,-7.66583,1.19947,-22.5213
2023-03-11 22:55:29:685,-0.0777324,1.38065,-9.90518,-7.63623,1.15594,-22.5106
2023-03-11 22:55:29:695,-0.0713164,1.34476,-9.86018,-7.60091,1.11263,-22.5028
2023-03-11 22:55:29:705,-0.0988061,1.30083,-9.79694,-7.5541,1.07751,-22.4956
2023-03-11 22:55:29:715,-0.114675,1.26065,-9.7254,-7.4969,1.04872,-22.4884
2023-03-11 22:55:29:725,-0.111929,1.22272,-9.61316,-7.43954,1.02654,-22.4886
2023-03-11 22:55:29:735,-0.0796785,1.15188,-9.48728,-7.37761,1.01355,-22.4917
2023-03-11 22:55:29:745,-0.0329988,1.09624,-9.36518,-7.32077,1.01584,-22.496
2023-03-11 22:55:29:755,0.0166263,1.05968,-9.27503,-7.27513,1.02846,-22.5002
2023-03-11 22:55:29:765,0.0833813,1.03546,-9.21872,-7.24066,1.05237,-22.5074
2023-03-11 22:55:29:775,0.142292,1.04125,-9.20857,-7.22035,1.08819,-22.512
2023-03-11 22:55:29:785,0.201566,1.06733,-9.24097,-7.21169,1.13032,-22.5166
2023-03-11 22:55:29:795,0.255932,1.1104,-9.2816,-7.21976,1.1795,-22.5218
2023-03-11 22:55:29:805,0.280577,1.15706,-9.31398,-7.23964,1.23896,-22.5258
2023-03-11 22:55:29:815,0.288679,1.19132,-9.34256,-7.26804,1.30095,-22.5314
2023-03-11 22:55:29:825,0.299771,1.22913,-9.39862,-7.30912,1.36501,-22.539
2023-03-11 22:55:29:835,0.329014,1.26207,-9.48463,-7.35829,1.42932,-22.5523
2023-03-11 22:55:29:845,0.366,1.30923,-9.56689,-7.419,1.48934,-22.5706
2023-03-11 22:55:29:855,0.404334,1.35347,-9.66449,-7.48164,1.53951,-22.5923
2023-03-11 22:55:29:865,0.433834,1.4032,-9.74556,-7.55441,1.57495,-22.6153
2023-03-11 22:55:29:875,0.401416,1.45494,-9.81161,-7.62997,1.59667,-22.6415
2023-03-11 22:55:29:885,0.352164,1.51021,-9.84587,-7.70439,1.60913,-22.6749
2023-03-11 22:55:29:895,0.359616,1.55478,-9.8887,-7.77599,1.61528,-22.715
2023-03-11 22:55:29:905,0.377885,1.5856,-9.92629,-7.84461,1.60958,-22.7561
2023-03-11 22:55:29:915,0.376149,1.61838,-9.9378,-7.90535,1.59907,-22.7962
2023-03-11 22:55:29:925,0.346299,1.64184,-9.9303,-7.95925,1.58834,-22.8368
2023-03-11 22:55:29:935,0.344407,1.6489,-9.89761,-8.00396,1.57724,-22.8731
2023-03-11 22:55:29:945,0.342128,1.64131,-9.86395,-8.04131,1.56295,-22.9079
2023-03-11 22:55:29:955,0.304837,1.64844,-9.80996,-8.06905,1.55018,-22.9381
2023-03-11 22:55:29:965,0.259698,1.66448,-9.7446,-8.08649,1.54082,-22.9652
2023-03-11 22:55:29:975,0.251898,1.6289,-9.7307,-8.10244,1.5384,-22.9935
2023-03-11 22:55:29:985,0.286997,1.60748,-9.77714,-8.10861,1.5394,-23.0153
2023-03-11 22:55:29:995,0.290285,1.58188,-9.82224,-8.10985,1.54755,-23.0348
2023-03-11 22:55:30:5,0.30393,1.56746,-9.88236,-8.10423,1.55856,-23.0449
2023-03-11 22:55:30:15,0.346563,1.5332,-9.88831,-8.08887,1.57319,-23.0587
2023-03-11 22:55:30:25,0.348417,1.4674,-9.84507,-8.06531,1.58237,-23.0659
2023-03-11 22:55:30:35,0.307758,1.44092,-9.7744,-8.04367,1.5891,-23.0685
2023-03-11 22:55:30:45,0.270554,1.44409,-9.73434,-8.02104,1.59385,-23.0727
2023-03-11 22:55:30:55,0.247803,1.43417,-9.73056,-8.00179,1.59691,-23.076
2023-03-11 22:55:30:65,0.227712,1.4344,-9.75048,-7.98001,1.60071,-23.0828
2023-03-11 22:55:30:75,0.244578,1.43818,-9.76139,-7.95704,1.60594,-23.096
2023-03-11 22:55:30:85,0.259135,1.4098,-9.74184,-7.92442,1.60712,-23.1098
2023-03-11 22:55:30:95,0.270566,1.37328,-9.71654,-7.88506,1.60087,-23.1241
2023-03-11 22:55:30:105,0.295904,1.34775,-9.66059,-7.84647,1.59307,-23.1428
2023-03-11 22:55:30:115,0.307948,1.30298,-9.60296,-7.80462,1.5856,-23.1651
2023-03-11 22:55:30:125,0.304751,1.26302,-9.53569,-7.76176,1.57505,-23.1822
2023-03-11 22:55:30:135,0.299663,1.22574,-9.5042,-7.72657,1.56994,-23.1981
2023-03-11 22:55:30:145,0.304971,1.2222,-9.507,-7.69901,1.56246,-23.2097
2023-03-11 22:55:30:155,0.288606,1.23891,-9.54205,-7.67927,1.55538,-23.2212
2023-03-11 22:55:30:165,0.254116,1.24073,-9.60476,-7.66574,1.54744,-23.23
2023-03-11 22:55:30:175,0.214076,1.27177,-9.65336,-7.65622,1.54084,-23.239
2023-03-11 22:55:30:185,0.204108,1.28145,-9.66652,-7.64711,1.53482,-23.2472
2023-03-11 22:55:30:195,0.222944,1.27484,-9.68113,-7.64187,1.52949,-23.2591
2023-03-11 22:55:30:205,0.23453,1.28487,-9.67149,-7.64161,1.52127,-23.2693
2023-03-11 22:55:30:215,0.174234,1.29985,-9.6999,-7.64115,1.50658,-23.2796
2023-03-11 22:55:30:225,0.12426,1.35142,-9.71498,-7.64233,1.49014,-23.2926
2023-03-11 22:55:30:235,0.103553,1.36524,-9.74121,-7.64333,1.47615,-23.3119
2023-03-11 22:55:30:245,0.153435,1.38302,-9.76714,-7.64269,1.46553,-23.3387
2023-03-11 22:55:30:255,0.272686,1.3599,-9.7569,-7.6323,1.45936,-23.3657
2023-03-11 22:55:30:265,0.322329,1.33407,-9.71046,-7.61856,1.45281,-23.3879
2023-03-11 22:55:30:275,0.323454,1.30303,-9.68176,-7.60198,1.44493,-23.4064
2023-03-11 22:55:30:285,0.316311,1.28684,-9.63875,-7.58442,1.43791,-23.417
2023-03-11 22:55:30:295,0.304488,1.2802,-9.66627,-7.57682,1.4338,-23.4253
2023-03-11 22:55:30:305,0.297179,1.30623,-9.73087,-7.5734,1.43349,-23.4293
2023-03-11 22:55:30:315,0.306949,1.3495,-9.78702,-7.56734,1.43085,-23.4301
2023-03-11 22:55:30:325,0.318446,1.35497,-9.81599,-7.55656,1.43205,-23.4241
2023-03-11 22:55:30:335,0.310043,1.37292,-9.80599,-7.54,1.43741,-23.4122
2023-03-11 22:55:30:345,0.260246,1.38443,-9.78727,-7.52237,1.44158,-23.3981
2023-03-11 22:55:30:355,0.212834,1.36857,-9.74044,-7.49906,1.44901,-23.3909
2023-03-11 22:55:30:365,0.196837,1.36206,-9.69042,-7.47516,1.45998,-23.3805
2023-03-11 22:55:30:375,0.174452,1.33235,-9.65343,-7.44759,1.46942,-23.3735
2023-03-11 22:55:30:385,0.157052,1.32248,-9.65442,-7.42062,1.47691,-23.3683
2023-03-11 22:55:30:395,0.145207,1.31963,-9.65972,-7.39386,1.48501,-23.3722
2023-03-11 22:55:30:405,0.147758,1.30896,-9.65003,-7.37001,1.48876,-23.376
2023-03-11 22:55:30:415,0.132882,1.31968,-9.65155,-7.3451,1.49195,-23.3872
2023-03-11 22:55:30:425,0.124692,1.31847,-9.67256,-7.31987,1.49849,-23.4046
2023-03-11 22:55:30:435,0.135673,1.29545,-9.66437,-7.29202,1.5049,-23.4326
2023-03-11 22:55:30:445,0.149003,1.23269,-9.64398,-7.2585,1.51381,-23.4659
2023-03-11 22:55:30:455,0.200671,1.192,-9.63028,-7.22694,1.5216,-23.5052
2023-03-11 22:55:30:465,0.2489,1.1566,-9.61965,-7.19818,1.52686,-23.5473
2023-03-11 22:55:30:475,0.289145,1.1251,-9.62007,-7.17548,1.53302,-23.5952
2023-03-11 22:55:30:485,0.278768,1.11283,-9.60934,-7.15371,1.53843,-23.6482
2023-03-11 22:55:30:495,0.282377,1.09718,-9.5912,-7.14064,1.54067,-23.7058
2023-03-11 22:55:30:505,0.384344,1.07729,-9.58771,-7.13651,1.54443,-23.7679
2023-03-11 22:55:30:515,0.499616,1.04712,-9.59907,-7.14246,1.5448,-23.8259
2023-03-11 22:55:30:525,0.561406,1.04135,-9.60139,-7.16233,1.54121,-23.8719
2023-03-11 22:55:30:535,0.515354,1.08637,-9.62442,-7.19342,1.52692,-23.903
2023-03-11 22:55:30:545,0.423704,1.1625,-9.67571,-7.23311,1.509,-23.9213
2023-03-11 22:55:30:554,0.329036,1.24106,-9.76309,-7.27795,1.49205,-23.9333
2023-03-11 22:55:30:564,0.277275,1.33379,-9.89878,-7.32391,1.47869,-23.9391
2023-03-11 22:55:30:574,0.24683,1.41159,-10.047,-7.36532,1.46285,-23.9421
2023-03-11 22:55:30:585,0.145689,1.44133,-10.0939,-7.38997,1.44249,-23.9368
2023-03-11 22:55:30:595,-0.00437087,1.42291,-10.0089,-7.39449,1.42394,-23.9333
2023-03-11 22:55:30:604,-0.086651,1.37633,-9.81924,-7.37571,1.41067,-23.9388
2023-03-11 22:55:30:614,-0.0397757,1.27679,-9.6204,-7.34779,1.40685,-23.9503
2023-03-11 22:55:30:625,0.0623959,1.20256,-9.48159,-7.31978,1.41397,-23.9635
2023-03-11 22:55:30:635,0.193513,1.15474,-9.44214,-7.30449,1.42133,-23.9785
2023-03-11 22:55:30:645,0.297079,1.1678,-9.50041,-7.30298,1.41965,-23.9885
2023-03-11 22:55:30:655,0.351985,1.21187,-9.61962,-7.3104,1.4094,-24.0057
2023-03-11 22:55:30:665,0.293715,1.28065,-9.72056,-7.32002,1.37921,-24.0168
2023-03-11 22:55:30:675,0.16613,1.33098,-9.74723,-7.32653,1.33817,-24.029
2023-03-11 22:55:30:685,0.0912743,1.3351,-9.71904,-7.32976,1.29543,-24.0485
2023-03-11 22:55:30:695,0.10549,1.30736,-9.66832,-7.32775,1.26104,-24.0824
2023-03-11 22:55:30:705,0.224089,1.28883,-9.6448,-7.3271,1.23773,-24.122
2023-03-11 22:55:30:715,0.399981,1.27858,-9.66378,-7.33019,1.2218,-24.1593
2023-03-11 22:55:30:725,0.583669,1.28027,-9.66344,-7.33722,1.20602,-24.1964
2023-03-11 22:55:30:735,0.697147,1.28869,-9.67846,-7.34876,1.17662,-24.2175
2023-03-11 22:55:30:745,0.636721,1.33913,-9.72645,-7.36522,1.13402,-24.2224
2023-03-11 22:55:30:755,0.484183,1.40699,-9.78582,-7.38286,1.07133,-24.2185
2023-03-11 22:55:30:765,0.31768,1.47237,-9.83157,-7.39605,0.997956,-24.2173
2023-03-11 22:55:30:775,0.27274,1.49076,-9.85741,-7.40214,0.919337,-24.216
2023-03-11 22:55:30:785,0.376706,1.43588,-9.77609,-7.39056,0.839427,-24.2143
2023-03-11 22:55:30:795,0.451002,1.34014,-9.58583,-7.37442,0.75563,-24.2007
2023-03-11 22:55:30:805,0.431908,1.30562,-9.45504,-7.36483,0.668011,-24.1705
2023-03-11 22:55:30:815,0.36147,1.37396,-9.41626,-7.37491,0.576277,-24.1263
2023-03-11 22:55:30:825,0.27403,1.4815,-9.45914,-7.40227,0.474312,-24.0752
2023-03-11 22:55:30:835,0.135259,1.58332,-9.57483,-7.43988,0.369929,-24.0199
2023-03-11 22:55:30:845,0.0401363,1.6565,-9.66331,-7.47629,0.266914,-23.9626
2023-03-11 22:55:30:855,-0.0342226,1.68415,-9.71194,-7.50654,0.17154,-23.9015
2023-03-11 22:55:30:865,-0.0704059,1.70973,-9.68904,-7.52962,0.0788882,-23.8362
2023-03-11 22:55:30:875,-0.0620752,1.71593,-9.64404,-7.55033,-0.00999032,-23.7718
2023-03-11 22:55:30:885,-0.0773872,1.72172,-9.60009,-7.56913,-0.0869893,-23.6973
2023-03-11 22:55:30:895,-0.109712,1.70173,-9.5499,-7.58168,-0.157381,-23.6222
2023-03-11 22:55:30:905,-0.148923,1.69197,-9.58702,-7.59452,-0.217028,-23.5452
2023-03-11 22:55:30:915,-0.189215,1.70249,-9.67576,-7.60261,-0.278424,-23.465
2023-03-11 22:55:30:925,-0.227365,1.69001,-9.7119,-7.6033,-0.332027,-23.385
2023-03-11 22:55:30:935,-0.237789,1.62805,-9.76066,-7.5964,-0.377517,-23.3124
2023-03-11 22:55:30:945,-0.220539,1.58354,-9.83673,-7.58566,-0.412802,-23.2407
2023-03-11 22:55:30:955,-0.149547,1.54351,-9.8742,-7.56894,-0.439995,-23.168
2023-03-11 22:55:30:965,-0.0559757,1.48527,-9.8529,-7.54437,-0.459743,-23.0962
2023-03-11 22:55:30:975,-0.0201167,1.4042,-9.85797,-7.50989,-0.484886,-23.0166
2023-03-11 22:55:30:985,-0.0947223,1.34919,-9.84539,-7.47246,-0.514487,-22.9316
2023-03-11 22:55:30:995,-0.247908,1.3093,-9.81033,-7.43591,-0.550607,-22.8485
2023-03-11 22:55:31:5,-0.404925,1.28212,-9.78177,-7.39416,-0.587221,-22.7739
2023-03-11 22:55:31:15,-0.487643,1.25459,-9.80073,-7.35042,-0.618949,-22.7106
2023-03-11 22:55:31:25,-0.504266,1.21798,-9.82772,-7.30574,-0.643245,-22.6592
2023-03-11 22:55:31:35,-0.470795,1.20783,-9.85642,-7.26149,-0.660441,-22.6227
2023-03-11 22:55:31:45,-0.430898,1.17718,-9.90416,-7.21282,-0.673249,-22.5966
2023-03-11 22:55:31:55,-0.486812,1.16655,-9.92681,-7.1618,-0.690799,-22.5807
2023-03-11 22:55:31:65,-0.583351,1.20963,-9.96985,-7.10541,-0.714492,-22.5814
2023-03-11 22:55:31:75,-0.719015,1.21523,-9.96408,-7.04396,-0.745306,-22.6074
2023-03-11 22:55:31:85,-0.826772,1.16495,-9.91726,-6.97281,-0.782087,-22.6642
2023-03-11 22:55:31:95,-0.858722,1.12459,-9.92062,-6.88616,-0.80346,-22.7501
2023-03-11 22:55:31:105,-0.784183,1.06241,-9.8891,-6.78361,-0.80792,-22.8626
2023-03-11 22:55:31:115,-0.730257,1.00934,-9.8511,-6.66685,-0.795081,-23.0026
2023-03-11 22:55:31:125,-0.695994,0.93388,-9.76181,-6.53342,-0.765797,-23.1607
2023-03-11 22:55:31:135,-0.639144,0.757166,-9.55108,-6.39449,-0.742688,-23.3472
2023-03-11 22:55:31:145,-0.59122,0.620436,-9.36172,-6.26856,-0.736583,-23.5567
2023-03-11 22:55:31:155,-0.602846,0.631421,-9.38138,-6.16512,-0.745114,-23.7916
2023-03-11 22:55:31:165,-0.484452,0.715456,-9.60442,-6.07205,-0.747931,-24.0579
2023-03-11 22:55:31:175,-0.227107,0.714224,-9.67381,-5.97539,-0.751832,-24.3466
2023-03-11 22:55:31:185,-0.0918035,0.530966,-9.46338,-5.87583,-0.77517,-24.6401
2023-03-11 22:55:31:195,-0.124705,0.518866,-9.40925,-5.78688,-0.788963,-24.9311
2023-03-11 22:55:31:205,-0.0311476,0.558139,-9.395,-5.70875,-0.791372,-25.2226
2023-03-11 22:55:31:215,0.0801614,0.471048,-9.23885,-5.64246,-0.795577,-25.5171
2023-03-11 22:55:31:225,0.153736,0.430935,-9.15421,-5.61409,-0.809323,-25.8107
2023-03-11 22:55:31:235,0.229466,0.571169,-9.28028,-5.63063,-0.832274,-26.0972
2023-03-11 22:55:31:245,0.290141,0.84735,-9.68775,-5.67523,-0.838394,-26.3764
2023-03-11 22:55:31:255,0.441348,0.989853,-9.96068,-5.71378,-0.830669,-26.6387
2023-03-11 22:55:31:265,0.562884,0.948219,-9.93919,-5.73834,-0.835115,-26.8741
2023-03-11 22:55:31:275,0.506382,0.881113,-9.7611,-5.76305,-0.862289,-27.0838
2023-03-11 22:55:31:285,0.299477,1.02993,-9.84977,-5.79611,-0.896492,-27.2696
2023-03-11 22:55:31:295,0.22381,1.25294,-10.0861,-5.82245,-0.914806,-27.4472
2023-03-11 22:55:31:305,0.250824,1.22264,-10.0364,-5.82117,-0.927434,-27.6117
2023-03-11 22:55:31:315,0.219211,1.09791,-9.82525,-5.79145,-0.932832,-27.7579
2023-03-11 22:55:31:325,0.15825,1.01482,-9.75273,-5.76446,-0.934734,-27.8856
2023-03-11 22:55:31:335,0.115155,1.06306,-9.91857,-5.73327,-0.923008,-28.0017
2023-03-11 22:55:31:345,0.131203,1.06619,-10.0635,-5.68537,-0.900966,-28.1079
2023-03-11 22:55:31:355,0.167297,0.899735,-9.96583,-5.61799,-0.875565,-28.1999
2023-03-11 22:55:31:365,0.133437,0.790352,-9.90537,-5.54838,-0.84492,-28.2801
2023-03-11 22:55:31:375,0.118257,0.765472,-10.0006,-5.46966,-0.810125,-28.3478
2023-03-11 22:55:31:385,0.0823119,0.687459,-9.97874,-5.38324,-0.781822,-28.4102
2023-03-11 22:55:31:395,0.0579739,0.628639,-9.91285,-5.29662,-0.753084,-28.4737
2023-03-11 22:55:31:405,0.103319,0.557885,-9.75554,-5.20249,-0.729946,-28.5367
2023-03-11 22:55:31:415,0.132758,0.532767,-9.66702,-5.10914,-0.699103,-28.5914
2023-03-11 22:55:31:425,0.187679,0.482643,-9.57953,-5.02473,-0.677299,-28.6416
2023-03-11 22:55:31:435,0.209211,0.481225,-9.4848,-4.95852,-0.670263,-28.6849
2023-03-11 22:55:31:445,0.196287,0.517734,-9.41741,-4.90399,-0.672378,-28.7199
2023-03-11 22:55:31:455,0.1215,0.56702,-9.36339,-4.86953,-0.685751,-28.748
2023-03-11 22:55:31:465,0.00362529,0.619842,-9.35861,-4.84778,-0.699102,-28.7723
2023-03-11 22:55:31:475,-0.105586,0.653327,-9.43814,-4.83922,-0.711544,-28.7946
2023-03-11 22:55:31:485,-0.192759,0.709494,-9.51023,-4.83882,-0.721312,-28.8249
2023-03-11 22:55:31:495,-0.198705,0.741028,-9.53719,-4.84358,-0.721347,-28.8643
2023-03-11 22:55:31:505,-0.15106,0.734126,-9.5723,-4.84881,-0.71992,-28.9032
2023-03-11 22:55:31:515,-0.108301,0.735706,-9.62908,-4.8618,-0.713112,-28.9413
2023-03-11 22:55:31:525,-0.0794434,0.779313,-9.70402,-4.88436,-0.706807,-28.9802
2023-03-11 22:55:31:535,-0.0586145,0.850761,-9.79622,-4.91961,-0.70012,-29.0169
2023-03-11 22:55:31:545,-0.077453,0.916939,-9.86306,-4.95504,-0.699344,-29.056
2023-03-11 22:55:31:555,-0.129525,0.973566,-9.89714,-4.99267,-0.702944,-29.0953
2023-03-11 22:55:31:565,-0.187898,1.00041,-9.90575,-5.02454,-0.712529,-29.1398
2023-03-11 22:55:31:575,-0.203749,1.03881,-9.88435,-5.05217,-0.721897,-29.1891
2023-03-11 22:55:31:585,-0.178777,1.04613,-9.87223,-5.07458,-0.725152,-29.2446
2023-03-11 22:55:31:595,-0.117346,1.04882,-9.8289,-5.0923,-0.728188,-29.3009
2023-03-11 22:55:31:605,-0.0524413,1.03372,-9.75371,-5.10026,-0.730383,-29.3551
2023-03-11 22:55:31:615,-0.0174586,0.989064,-9.69306,-5.10452,-0.733486,-29.4023
2023-03-11 22:55:31:625,-0.0374608,0.982737,-9.64031,-5.10831,-0.738627,-29.4437
2023-03-11 22:55:31:635,-0.095082,0.993181,-9.58158,-5.11264,-0.74825,-29.4834
2023-03-11 22:55:31:645,-0.13809,0.990461,-9.54825,-5.12219,-0.758104,-29.5192
2023-03-11 22:55:31:655,-0.144091,0.987252,-9.55831,-5.13661,-0.759371,-29.5531
2023-03-11 22:55:31:665,-0.0676596,0.988016,-9.60837,-5.1564,-0.752801,-29.5875
2023-03-11 22:55:31:675,0.0166446,0.966755,-9.65687,-5.17169,-0.740171,-29.6135
2023-03-11 22:55:31:685,0.0642177,0.977211,-9.69734,-5.18665,-0.7317,-29.63
2023-03-11 22:55:31:695,0.0910707,0.958328,-9.71449,-5.20019,-0.720588,-29.632
2023-03-11 22:55:31:705,0.0392064,0.942589,-9.70462,-5.21098,-0.712681,-29.6217
2023-03-11 22:55:31:715,-0.0666061,0.947268,-9.65233,-5.22465,-0.706751,-29.604
2023-03-11 22:55:31:725,-0.149005,0.960425,-9.64715,-5.24596,-0.696911,-29.5832
2023-03-11 22:55:31:735,-0.204161,1.00508,-9.69549,-5.27584,-0.67737,-29.5557
2023-03-11 22:55:31:745,-0.208871,1.03379,-9.78648,-5.30465,-0.649872,-29.5302
2023-03-11 22:55:31:755,-0.199966,1.05124,-9.89524,-5.33346,-0.608279,-29.5043
2023-03-11 22:55:31:765,-0.139572,1.0901,-9.97276,-5.35155,-0.563607,-29.4777
2023-03-11 22:55:31:775,-0.0458868,1.07423,-9.9989,-5.36148,-0.519017,-29.4502
2023-03-11 22:55:31:785,-0.00175248,1.01834,-9.97222,-5.35448,-0.477575,-29.4148
2023-03-11 22:55:31:795,-0.076775,0.967295,-9.89229,-5.34461,-0.447074,-29.3752
2023-03-11 22:55:31:805,-0.213007,0.946855,-9.83185,-5.33435,-0.42621,-29.3335
2023-03-11 22:55:31:815,-0.290855,0.940954,-9.80334,-5.31747,-0.410213,-29.2977
2023-03-11 22:55:31:825,-0.238002,0.925741,-9.79334,-5.30814,-0.395531,-29.2724
2023-03-11 22:55:31:835,-0.17699,0.912045,-9.75414,-5.29646,-0.38096,-29.2483
2023-03-11 22:55:31:845,-0.18677,0.892091,-9.67952,-5.28395,-0.370679,-29.2221
2023-03-11 22:55:31:855,-0.220478,0.889211,-9.58364,-5.27565,-0.364052,-29.2019
2023-03-11 22:55:31:865,-0.296567,0.90426,-9.57229,-5.27825,-0.355197,-29.1873
2023-03-11 22:55:31:875,-0.361476,0.951392,-9.62095,-5.28551,-0.341498,-29.1759
2023-03-11 22:55:31:885,-0.359241,0.969051,-9.60824,-5.29648,-0.315613,-29.1764
2023-03-11 22:55:31:895,-0.27099,0.955153,-9.62703,-5.30752,-0.284671,-29.1842
2023-03-11 22:55:31:905,-0.112794,0.940851,-9.65092,-5.32562,-0.253362,-29.2018
2023-03-11 22:55:31:915,-0.00122462,0.955989,-9.70069,-5.34204,-0.218006,-29.2147
2023-03-11 22:55:31:925,0.0504009,0.971138,-9.75519,-5.35542,-0.186967,-29.2252
2023-03-11 22:55:31:935,0.0448613,0.955089,-9.77818,-5.36952,-0.158044,-29.2325
2023-03-11 22:55:31:945,0.0313749,0.926047,-9.81052,-5.38354,-0.135996,-29.2356
2023-03-11 22:55:31:955,0.0343339,0.91545,-9.84337,-5.3926,-0.112283,-29.2352
2023-03-11 22:55:31:965,0.0497804,0.933765,-9.87162,-5.40101,-0.0910082,-29.2293
2023-03-11 22:55:31:975,0.0745416,0.956106,-9.87548,-5.40747,-0.0691294,-29.2219
2023-03-11 22:55:31:985,0.134725,0.944962,-9.83791,-5.40511,-0.0479078,-29.2148
2023-03-11 22:55:31:995,0.202269,0.926905,-9.78902,-5.40058,-0.0256659,-29.1994
2023-03-11 22:55:32:5,0.225069,0.931667,-9.70308,-5.4001,-0.008423,-29.1746
2023-03-11 22:55:32:15,0.203449,0.929788,-9.58184,-5.402,0.00424005,-29.1396
2023-03-11 22:55:32:25,0.134061,0.92335,-9.51884,-5.40938,0.0148115,-29.0962
2023-03-11 22:55:32:35,0.0407566,0.958583,-9.62227,-5.43385,0.0213654,-29.0494
2023-03-11 22:55:32:45,-0.0359386,1.07626,-9.8686,-5.46789,0.0284111,-29.0111
2023-03-11 22:55:32:55,-0.0541736,1.1746,-10.0784,-5.49723,0.0372386,-28.9806
2023-03-11 22:55:32:65,-0.0530566,1.22053,-10.1614,-5.50874,0.0476428,-28.956
2023-03-11 22:55:32:75,-0.0073992,1.18746,-10.0959,-5.49478,0.0607826,-28.934
2023-03-11 22:55:32:85,0.0242089,1.07291,-9.95207,-5.45572,0.0806704,-28.9123
2023-03-11 22:55:32:95,0.0895392,0.976435,-9.86617,-5.40383,0.101534,-28.8894
2023-03-11 22:55:32:105,0.179914,0.890073,-9.83308,-5.34305,0.122318,-28.86
2023-03-11 22:55:32:115,0.244398,0.803213,-9.79971,-5.27744,0.143503,-28.8288
2023-03-11 22:55:32:125,0.290101,0.740446,-9.71856,-5.20839,0.161706,-28.7831
2023-03-11 22:55:32:135,0.359972,0.665457,-9.66421,-5.14023,0.17902,-28.7306
2023-03-11 22:55:32:145,0.409159,0.620375,-9.60825,-5.07411,0.196027,-28.6599
2023-03-11 22:55:32:155,0.454422,0.589825,-9.58147,-5.02236,0.206948,-28.5763
2023-03-11 22:55:32:165,0.491568,0.583606,-9.59927,-4.9813,0.211791,-28.4772
2023-03-11 22:55:32:175,0.44525,0.638442,-9.61749,-4.94865,0.21216,-28.3641
2023-03-11 22:55:32:185,0.358575,0.679658,-9.60154,-4.91639,0.207276,-28.2365
2023-03-11 22:55:32:195,0.293099,0.673749,-9.55286,-4.89029,0.201797,-28.0996
2023-03-11 22:55:32:205,0.206832,0.634972,-9.47215,-4.87026,0.200004,-27.9504
2023-03-11 22:55:32:215,0.142493,0.616894,-9.4214,-4.86348,0.200319,-27.7966
2023-03-11 22:55:32:225,0.104673,0.652764,-9.40463,-4.86773,0.209526,-27.6338
2023-03-11 22:55:32:235,0.0687185,0.686856,-9.44168,-4.88423,0.224229,-27.4662
2023-03-11 22:55:32:245,0.0412208,0.740631,-9.50464,-4.91759,0.247065,-27.2959
2023-03-11 22:55:32:255,0.0225167,0.83247,-9.66307,-4.96029,0.274914,-27.1298
2023-03-11 22:55:32:265,0.0504335,0.951286,-9.92317,-5.00651,0.309292,-26.9677
2023-03-11 22:55:32:275,0.0698348,1.06092,-10.1673,-5.04703,0.342575,-26.8098
2023-03-11 22:55:32:285,0.075495,1.12367,-10.2629,-5.06738,0.372493,-26.6578
2023-03-11 22:55:32:295,0.0469536,1.11675,-10.2236,-5.06723,0.398578,-26.5053
2023-03-11 22:55:32:305,-0.0104394,1.04188,-10.0636,-5.04137,0.423079,-26.3553
2023-03-11 22:55:32:315,-0.0759163,0.958673,-9.88407,-5.00089,0.44926,-26.2126
2023-03-11 22:55:32:325,-0.138148,0.889839,-9.72011,-4.96093,0.474604,-26.0752
2023-03-11 22:55:32:335,-0.169557,0.843236,-9.63459,-4.92417,0.506074,-25.9508
2023-03-11 22:55:32:344,-0.145761,0.838242,-9.61849,-4.89507,0.536647,-25.8391
2023-03-11 22:55:32:355,-0.118159,0.859398,-9.64201,-4.87397,0.563019,-25.7403
2023-03-11 22:55:32:364,-0.106423,0.842216,-9.64619,-4.85469,0.589311,-25.6549
2023-03-11 22:55:32:375,-0.0725687,0.810687,-9.6408,-4.83354,0.614504,-25.5789
2023-03-11 22:55:32:385,-0.0551604,0.799022,-9.65708,-4.81732,0.636673,-25.5174
2023-03-11 22:55:32:395,-0.0502025,0.805686,-9.68735,-4.80199,0.648487,-25.4696
2023-03-11 22:55:32:404,-0.0718248,0.760234,-9.57198,-4.78693,0.649406,-25.4348
2023-03-11 22:55:32:415,-0.133958,0.666249,-9.40571,-4.7739,0.648192,-25.4157
2023-03-11 22:55:32:425,-0.159595,0.616678,-9.32469,-4.77337,0.64298,-25.409
2023-03-11 22:55:32:435,-0.173899,0.65136,-9.36927,-4.79762,0.630609,-25.4182
2023-03-11 22:55:32:445,-0.159567,0.71579,-9.47686,-4.84342,0.616041,-25.4451
2023-03-11 22:55:32:455,-0.101652,0.781371,-9.55238,-4.90391,0.59905,-25.4909
2023-03-11 22:55:32:465,-0.0387311,0.817631,-9.61595,-4.97586,0.580604,-25.5461
2023-03-11 22:55:32:475,-0.00727295,0.879748,-9.67137,-5.0496,0.563136,-25.6154
2023-03-11 22:55:32:485,-0.0260904,0.941031,-9.71766,-5.1267,0.546406,-25.6918
2023-03-11 22:55:32:495,-0.0560145,0.982382,-9.73841,-5.20874,0.525233,-25.7799
2023-03-11 22:55:32:505,-0.0438762,1.01247,-9.73544,-5.29009,0.504158,-25.8788
2023-03-11 22:55:32:515,-0.00365934,1.04338,-9.78487,-5.37312,0.479228,-25.9892
2023-03-11 22:55:32:525,0.0220867,1.09065,-9.83115,-5.4553,0.455643,-26.1062
2023-03-11 22:55:32:535,0.0080803,1.08419,-9.79437,-5.52741,0.425158,-26.2265
2023-03-11 22:55:32:545,0.00138094,1.07105,-9.72112,-5.59595,0.392398,-26.3515
2023-03-11 22:55:32:555,-0.00818417,1.05647,-9.67809,-5.66633,0.364082,-26.4825
2023-03-11 22:55:32:565,0.025365,1.06545,-9.66899,-5.74013,0.334416,-26.6179
2023-03-11 22:55:32:575,0.0432664,1.1018,-9.69736,-5.82184,0.304272,-26.7618
2023-03-11 22:55:32:585,0.0669896,1.1418,-9.75129,-5.9044,0.269575,-26.909
2023-03-11 22:55:32:595,0.0733256,1.18493,-9.7721,-5.98954,0.23326,-27.0617
2023-03-11 22:55:32:605,0.0597612,1.20302,-9.77497,-6.0692,0.187877,-27.2195
2023-03-11 22:55:32:615,0.0498275,1.20654,-9.75525,-6.1476,0.141371,-27.3786
2023-03-11 22:55:32:625,0.0909537,1.20813,-9.72809,-6.22126,0.0885248,-27.5434
2023-03-11 22:55:32:635,0.127133,1.19716,-9.7173,-6.29102,0.0319337,-27.7032
2023-03-11 22:55:32:645,0.118518,1.19239,-9.71174,-6.36183,-0.0343207,-27.8545
2023-03-11 22:55:32:655,0.0929972,1.22139,-9.72347,-6.43214,-0.104141,-28.0064
2023-03-11 22:55:32:665,0.089997,1.24459,-9.75107,-6.5047,-0.172294,-28.1514
2023-03-11 22:55:32:675,0.0757182,1.27606,-9.7738,-6.57013,-0.240776,-28.2886
2023-03-11 22:55:32:685,0.0572487,1.28584,-9.77275,-6.63042,-0.308945,-28.4224
2023-03-11 22:55:32:695,0.0459076,1.26697,-9.74487,-6.68443,-0.371504,-28.5447
2023-03-11 22:55:32:705,0.0320522,1.27178,-9.74409,-6.73658,-0.428223,-28.6571
2023-03-11 22:55:32:715,0.0196332,1.26101,-9.74705,-6.7899,-0.48704,-28.7566
2023-03-11 22:55:32:725,0.00744839,1.26403,-9.76099,-6.8389,-0.540101,-28.849
2023-03-11 22:55:32:735,-0.018471,1.28841,-9.82008,-6.88511,-0.588737,-28.9325
2023-03-11 22:55:32:745,-0.00838308,1.29336,-9.85462,-6.92432,-0.63152,-29.0042
2023-03-11 22:55:32:755,-0.00614929,1.28583,-9.85265,-6.95598,-0.67238,-29.0691
2023-03-11 22:55:32:765,-0.0274488,1.27673,-9.84744,-6.98268,-0.708906,-29.1214
2023-03-11 22:55:32:775,-0.0658598,1.26917,-9.81657,-7.0026,-0.747455,-29.1628
2023-03-11 22:55:32:785,-0.12479,1.27561,-9.81964,-7.02033,-0.781908,-29.194
2023-03-11 22:55:32:795,-0.17252,1.25613,-9.81855,-7.03575,-0.810928,-29.2166
2023-03-11 22:55:32:805,-0.181989,1.24316,-9.80467,-7.04828,-0.83205,-29.2346
2023-03-11 22:55:32:815,-0.180611,1.23599,-9.79897,-7.0532,-0.846433,-29.2464
2023-03-11 22:55:32:825,-0.191756,1.22747,-9.77982,-7.0543,-0.85738,-29.2504
2023-03-11 22:55:32:835,-0.210999,1.19357,-9.76728,-7.05333,-0.861858,-29.2495
2023-03-11 22:55:32:845,-0.242442,1.18534,-9.75133,-7.0525,-0.865471,-29.2453
2023-03-11 22:55:32:855,-0.24283,1.18406,-9.73979,-7.05331,-0.863205,-29.238
2023-03-11 22:55:32:865,-0.211732,1.17365,-9.74144,-7.0528,-0.85963,-29.2302
2023-03-11 22:55:32:875,-0.173423,1.18909,-9.76862,-7.05487,-0.851263,-29.2207
2023-03-11 22:55:32:885,-0.152613,1.22481,-9.77429,-7.05599,-0.844953,-29.2053
2023-03-11 22:55:32:895,-0.199302,1.23861,-9.79051,-7.0538,-0.840707,-29.189
2023-03-11 22:55:32:905,-0.258457,1.23701,-9.79759,-7.04602,-0.833364,-29.1735
2023-03-11 22:55:32:915,-0.304991,1.22791,-9.78911,-7.03238,-0.822462,-29.1631
2023-03-11 22:55:32:925,-0.349643,1.20062,-9.76042,-7.008,-0.809459,-29.1568
2023-03-11 22:55:32:935,-0.376998,1.13779,-9.68338,-6.97784,-0.79295,-29.1575
2023-03-11 22:55:32:945,-0.374277,1.06819,-9.59119,-6.94859,-0.767246,-29.1661
2023-03-11 22:55:32:955,-0.357394,1.00902,-9.51008,-6.9193,-0.733332,-29.1883
2023-03-11 22:55:32:965,-0.316473,0.95169,-9.44083,-6.8969,-0.695626,-29.2227
2023-03-11 22:55:32:975,-0.218989,0.900375,-9.39549,-6.88352,-0.655786,-29.2664
2023-03-11 22:55:32:985,-0.0684014,0.899268,-9.39171,-6.89307,-0.615054,-29.3172
2023-03-11 22:55:32:995,0.0501253,0.932774,-9.41023,-6.92341,-0.580213,-29.3689
2023-03-11 22:55:33:5,0.145538,0.982274,-9.44134,-6.974,-0.559409,-29.4246
2023-03-11 22:55:33:15,0.227155,1.0935,-9.53478,-7.04475,-0.554946,-29.4755
2023-03-11 22:55:33:25,0.215992,1.19824,-9.67441,-7.12719,-0.567312,-29.525
2023-03-11 22:55:33:35,0.106349,1.31276,-9.76643,-7.22143,-0.59954,-29.5721
2023-03-11 22:55:33:45,-0.0310046,1.41466,-9.82045,-7.3098,-0.655109,-29.624
2023-03-11 22:55:33:55,-0.16694,1.4776,-9.81252,-7.39153,-0.715804,-29.6783
2023-03-11 22:55:33:65,-0.298435,1.4974,-9.77367,-7.46514,-0.778389,-29.7386
2023-03-11 22:55:33:75,-0.358402,1.50832,-9.71638,-7.53015,-0.836355,-29.8099
2023-03-11 22:55:33:85,-0.332383,1.48863,-9.66161,-7.5843,-0.880564,-29.8924
2023-03-11 22:55:33:95,-0.258503,1.46645,-9.65245,-7.63132,-0.918456,-29.9811
2023-03-11 22:55:33:105,-0.177428,1.46212,-9.69824,-7.67534,-0.947433,-30.0725
2023-03-11 22:55:33:115,-0.112293,1.43825,-9.70958,-7.71613,-0.970171,-30.1637
2023-03-11 22:55:33:125,-0.0962035,1.39795,-9.67685,-7.74576,-0.992584,-30.2533
2023-03-11 22:55:33:135,-0.123178,1.37323,-9.63749,-7.7732,-1.02046,-30.338
2023-03-11 22:55:33:145,-0.163052,1.36227,-9.60025,-7.79614,-1.04661,-30.427
2023-03-11 22:55:33:155,-0.183979,1.34589,-9.56197,-7.82565,-1.07261,-30.5195
2023-03-11 22:55:33:165,-0.171429,1.33542,-9.54826,-7.85542,-1.08739,-30.6159
2023-03-11 22:55:33:175,-0.129124,1.33098,-9.58462,-7.89372,-1.10183,-30.7127
2023-03-11 22:55:33:185,-0.0839909,1.37464,-9.65454,-7.94025,-1.11474,-30.8077
2023-03-11 22:55:33:195,-0.0748254,1.42582,-9.74408,-7.98837,-1.1247,-30.9047
2023-03-11 22:55:33:205,-0.04899,1.46728,-9.81525,-8.03837,-1.13911,-30.9996
2023-03-11 22:55:33:215,-0.0685105,1.47365,-9.85118,-8.08546,-1.16316,-31.0923
2023-03-11 22:55:33:225,-0.133077,1.47583,-9.8463,-8.12155,-1.19286,-31.1858
2023-03-11 22:55:33:235,-0.208893,1.47657,-9.79845,-8.15377,-1.22857,-31.2803
2023-03-11 22:55:33:245,-0.265871,1.44295,-9.76587,-8.17929,-1.26284,-31.3812
2023-03-11 22:55:33:255,-0.275654,1.39169,-9.72989,-8.20066,-1.29681,-31.4911
2023-03-11 22:55:33:265,-0.272413,1.35116,-9.67323,-8.21998,-1.332,-31.602
2023-03-11 22:55:33:275,-0.268791,1.3052,-9.63481,-8.24146,-1.36791,-31.7169
2023-03-11 22:55:33:285,-0.241902,1.30064,-9.6246,-8.27248,-1.40544,-31.8346
2023-03-11 22:55:33:295,-0.215756,1.34333,-9.65236,-8.30731,-1.44622,-31.9505
2023-03-11 22:55:33:305,-0.208125,1.40679,-9.70932,-8.34093,-1.48893,-32.0671
2023-03-11 22:55:33:315,-0.202133,1.42844,-9.71826,-8.37254,-1.53043,-32.1821
2023-03-11 22:55:33:325,-0.194533,1.43654,-9.73907,-8.40438,-1.57113,-32.2912
2023-03-11 22:55:33:335,-0.190451,1.44951,-9.75232,-8.4308,-1.60727,-32.3957
2023-03-11 22:55:33:345,-0.192336,1.45955,-9.75926,-8.44871,-1.64039,-32.496
2023-03-11 22:55:33:355,-0.190373,1.4633,-9.75183,-8.45966,-1.6733,-32.5913
2023-03-11 22:55:33:365,-0.164511,1.41789,-9.69666,-8.46654,-1.69674,-32.6771
2023-03-11 22:55:33:375,-0.153127,1.38901,-9.61726,-8.46815,-1.72084,-32.7567
2023-03-11 22:55:33:385,-0.186224,1.37113,-9.60506,-8.47401,-1.73739,-32.8267
2023-03-11 22:55:33:395,-0.222991,1.40458,-9.62165,-8.48079,-1.75136,-32.8877
2023-03-11 22:55:33:405,-0.234867,1.43814,-9.65488,-8.49218,-1.7628,-32.9458
2023-03-11 22:55:33:415,-0.232512,1.46083,-9.66655,-8.50135,-1.76934,-33.0015
2023-03-11 22:55:33:425,-0.230032,1.46726,-9.68406,-8.51116,-1.77157,-33.0498
2023-03-11 22:55:33:435,-0.234726,1.4686,-9.72929,-8.52151,-1.77095,-33.0911
2023-03-11 22:55:33:445,-0.237815,1.4812,-9.7889,-8.52608,-1.76887,-33.1239
2023-03-11 22:55:33:455,-0.219672,1.491,-9.81786,-8.53316,-1.76161,-33.1569
2023-03-11 22:55:33:465,-0.22181,1.45538,-9.83251,-8.52884,-1.75676,-33.1787
2023-03-11 22:55:33:475,-0.24222,1.45765,-9.82735,-8.52514,-1.75083,-33.1967
2023-03-11 22:55:33:485,-0.280853,1.43937,-9.81469,-8.52031,-1.74527,-33.2088
2023-03-11 22:55:33:495,-0.357533,1.4464,-9.81376,-8.50977,-1.73999,-33.2145
2023-03-11 22:55:33:505,-0.404811,1.46309,-9.8192,-8.49449,-1.7411,-33.2214
2023-03-11 22:55:33:515,-0.432562,1.4426,-9.77166,-8.47451,-1.73836,-33.2291
2023-03-11 22:55:33:525,-0.438898,1.39134,-9.69221,-8.44549,-1.72905,-33.2406
2023-03-11 22:55:33:534,-0.431755,1.35127,-9.63007,-8.41434,-1.71701,-33.2558
2023-03-11 22:55:33:545,-0.421705,1.35299,-9.57411,-8.3834,-1.70564,-33.2702
2023-03-11 22:55:33:555,-0.418001,1.33979,-9.52888,-8.3557,-1.69232,-33.2867
2023-03-11 22:55:33:565,-0.431458,1.3029,-9.49829,-8.3316,-1.67912,-33.3039
2023-03-11 22:55:33:575,-0.478526,1.30391,-9.48977,-8.31263,-1.66147,-33.3294
2023-03-11 22:55:33:585,-0.509285,1.32756,-9.51797,-8.3027,-1.64105,-33.3596
2023-03-11 22:55:33:595,-0.462765,1.34163,-9.57809,-8.29948,-1.61516,-33.3961
2023-03-11 22:55:33:605,-0.390447,1.36392,-9.62335,-8.30399,-1.58,-33.441
2023-03-11 22:55:33:615,-0.332999,1.38896,-9.66457,-8.30896,-1.54408,-33.4937
2023-03-11 22:55:33:625,-0.257377,1.41716,-9.70275,-8.31643,-1.5075,-33.5515
2023-03-11 22:55:33:635,-0.157723,1.43777,-9.71802,-8.32366,-1.47415,-33.6152
2023-03-11 22:55:33:645,-0.0802758,1.43966,-9.73783,-8.32835,-1.44456,-33.6746
2023-03-11 22:55:33:655,-0.0158634,1.45129,-9.74042,-8.32748,-1.42273,-33.735
2023-03-11 22:55:33:665,0.0223923,1.42005,-9.73807,-8.32257,-1.40753,-33.7807
2023-03-11 22:55:33:675,0.0398892,1.40769,-9.73128,-8.31154,-1.40114,-33.823
2023-03-11 22:55:33:685,0.0259833,1.38511,-9.7273,-8.29682,-1.40187,-33.8498
2023-03-11 22:55:33:695,-0.0070311,1.35937,-9.7002,-8.27911,-1.40601,-33.8633
2023-03-11 22:55:33:705,-0.0561895,1.33208,-9.67047,-8.25928,-1.41276,-33.8697
2023-03-11 22:55:33:715,-0.155887,1.31964,-9.65541,-8.24477,-1.42145,-33.8663
2023-03-11 22:55:33:725,-0.215474,1.33657,-9.64019,-8.23153,-1.43255,-33.8587
2023-03-11 22:55:33:735,-0.26784,1.34436,-9.64527,-8.22118,-1.44112,-33.8516
2023-03-11 22:55:33:745,-0.342437,1.34154,-9.64237,-8.21426,-1.44826,-33.8425
2023-03-11 22:55:33:755,-0.397476,1.34382,-9.6556,-8.21154,-1.45559,-33.8313
2023-03-11 22:55:33:765,-0.401032,1.36879,-9.70276,-8.21543,-1.45948,-33.829
2023-03-11 22:55:33:775,-0.33989,1.41263,-9.75004,-8.22224,-1.46255,-33.8334
2023-03-11 22:55:33:785,-0.291739,1.41302,-9.76385,-8.23186,-1.47179,-33.8402
2023-03-11 22:55:33:795,-0.309594,1.42665,-9.75286,-8.23945,-1.48366,-33.8457
2023-03-11 22:55:33:805,-0.339859,1.46317,-9.72465,-8.24628,-1.49828,-33.8563
2023-03-11 22:55:33:815,-0.392673,1.48973,-9.67716,-8.25118,-1.51533,-33.8658
2023-03-11 22:55:33:825,-0.42583,1.48996,-9.62431,-8.26091,-1.53291,-33.8783
2023-03-11 22:55:33:835,-0.432611,1.4981,-9.59879,-8.26537,-1.53801,-33.8977
2023-03-11 22:55:33:845,-0.406225,1.51076,-9.62056,-8.27436,-1.53731,-33.9191
2023-03-11 22:55:33:855,-0.346651,1.52005,-9.63721,-8.28299,-1.53145,-33.9411
2023-03-11 22:55:33:865,-0.293968,1.52071,-9.64718,-8.29119,-1.52077,-33.9621
2023-03-11 22:55:33:875,-0.255638,1.4823,-9.64017,-8.29609,-1.50733,-33.9788
2023-03-11 22:55:33:885,-0.250966,1.45932,-9.61519,-8.29411,-1.49422,-33.9947
2023-03-11 22:55:33:895,-0.232521,1.465,-9.63975,-8.29426,-1.48173,-34.0087
2023-03-11 22:55:33:905,-0.193518,1.44218,-9.63826,-8.29024,-1.46611,-34.0244
2023-03-11 22:55:33:915,-0.176877,1.41437,-9.59683,-8.28767,-1.4557,-34.0335
2023-03-11 22:55:33:925,-0.199922,1.40576,-9.59922,-8.28823,-1.44586,-34.037
2023-03-11 22:55:33:935,-0.239296,1.41933,-9.62574,-8.28984,-1.43579,-34.04
2023-03-11 22:55:33:945,-0.262833,1.43989,-9.67039,-8.2954,-1.42378,-34.042
2023-03-11 22:55:33:955,-0.252253,1.44776,-9.66941,-8.30357,-1.41104,-34.0484
2023-03-11 22:55:33:965,-0.239808,1.43284,-9.64033,-8.3104,-1.39769,-34.0513
2023-03-11 22:55:33:975,-0.277477,1.42384,-9.63096,-8.31809,-1.38278,-34.0503
2023-03-11 22:55:33:985,-0.339711,1.44116,-9.65758,-8.331,-1.3686,-34.0532
2023-03-11 22:55:33:995,-0.357028,1.4529,-9.67256,-8.34372,-1.34982,-34.0601
2023-03-11 22:55:34:5,-0.323567,1.46162,-9.69811,-8.35487,-1.32859,-34.0727
2023-03-11 22:55:34:15,-0.278977,1.47449,-9.73727,-8.36824,-1.30953,-34.0897
2023-03-11 22:55:34:25,-0.258601,1.49242,-9.76192,-8.3805,-1.29275,-34.1085
2023-03-11 22:55:34:35,-0.249718,1.49397,-9.73419,-8.3855,-1.27673,-34.1246
2023-03-11 22:55:34:45,-0.26905,1.47967,-9.69515,-8.39062,-1.26134,-34.1431
2023-03-11 22:55:34:55,-0.281396,1.48278,-9.6758,-8.39729,-1.24553,-34.1644
2023-03-11 22:55:34:65,-0.24549,1.49379,-9.67314,-8.4028,-1.22827,-34.1893
2023-03-11 22:55:34:75,-0.187269,1.49904,-9.71322,-8.40809,-1.20885,-34.212
2023-03-11 22:55:34:85,-0.15338,1.53046,-9.73702,-8.41403,-1.18592,-34.2321
2023-03-11 22:55:34:95,-0.126505,1.51491,-9.74843,-8.4133,-1.16464,-34.25
2023-03-11 22:55:34:105,-0.11723,1.49929,-9.73717,-8.40899,-1.14414,-34.2629
2023-03-11 22:55:34:115,-0.115931,1.49513,-9.70624,-8.4042,-1.12154,-34.2735
2023-03-11 22:55:34:125,-0.12709,1.46225,-9.66474,-8.39263,-1.10087,-34.2855
2023-03-11 22:55:34:135,-0.142622,1.43409,-9.62442,-8.38557,-1.07871,-34.2911
2023-03-11 22:55:34:145,-0.150803,1.41409,-9.63884,-8.37876,-1.05782,-34.2952
2023-03-11 22:55:34:155,-0.167826,1.43549,-9.66069,-8.37392,-1.03756,-34.3045
2023-03-11 22:55:34:165,-0.18831,1.45268,-9.67484,-8.37441,-1.01917,-34.3137
2023-03-11 22:55:34:175,-0.190252,1.4504,-9.68974,-8.37179,-1.00289,-34.3242
2023-03-11 22:55:34:185,-0.160867,1.46229,-9.71972,-8.37415,-0.98696,-34.3329
2023-03-11 22:55:34:195,-0.14718,1.47602,-9.72829,-8.37377,-0.971996,-34.3438
2023-03-11 22:55:34:205,-0.13695,1.46671,-9.68949,-8.36845,-0.958713,-34.3564
2023-03-11 22:55:34:215,-0.122968,1.44138,-9.64738,-8.36043,-0.950888,-34.3714
2023-03-11 22:55:34:225,-0.119424,1.41623,-9.62368,-8.35745,-0.943619,-34.3836
2023-03-11 22:55:34:235,-0.113582,1.42734,-9.61828,-8.35436,-0.943264,-34.3948
2023-03-11 22:55:34:245,-0.127004,1.4408,-9.63914,-8.35849,-0.94047,-34.4094
2023-03-11 22:55:34:255,-0.119258,1.46365,-9.67002,-8.36336,-0.940368,-34.4219
2023-03-11 22:55:34:265,-0.120268,1.50642,-9.71737,-8.36946,-0.935437,-34.4352
2023-03-11 22:55:34:275,-0.118748,1.51955,-9.75081,-8.37227,-0.932971,-34.4463
2023-03-11 22:55:34:285,-0.118581,1.52229,-9.74758,-8.36615,-0.931997,-34.4584
2023-03-11 22:55:34:295,-0.125975,1.49877,-9.70145,-8.35954,-0.931711,-34.4701
2023-03-11 22:55:34:305,-0.12184,1.47373,-9.66265,-8.35177,-0.929426,-34.4829
2023-03-11 22:55:34:315,-0.125138,1.45655,-9.65523,-8.34554,-0.924941,-34.4957
2023-03-11 22:55:34:325,-0.127641,1.46734,-9.65842,-8.34082,-0.920582,-34.5025
2023-03-11 22:55:34:335,-0.125152,1.47904,-9.67149,-8.3395,-0.913927,-34.5114
2023-03-11 22:55:34:345,-0.130386,1.4862,-9.68763,-8.33662,-0.910036,-34.522
2023-03-11 22:55:34:355,-0.125054,1.47823,-9.69218,-8.32902,-0.903346,-34.5315
2023-03-11 22:55:34:365,-0.1032,1.47128,-9.71136,-8.32231,-0.903584,-34.5354
2023-03-11 22:55:34:375,-0.112527,1.4814,-9.71384,-8.31623,-0.903454,-34.541
2023-03-11 22:55:34:385,-0.11767,1.46221,-9.68603,-8.30104,-0.904521,-34.5481
2023-03-11 22:55:34:395,-0.113912,1.44187,-9.67274,-8.29097,-0.906405,-34.5559
2023-03-11 22:55:34:405,-0.106415,1.42923,-9.65977,-8.28037,-0.911844,-34.5623
2023-03-11 22:55:34:415,-0.122712,1.43329,-9.65143,-8.26902,-0.916972,-34.5672
2023-03-11 22:55:34:425,-0.130043,1.42143,-9.63044,-8.26018,-0.924112,-34.5695
2023-03-11 22:55:34:435,-0.148204,1.42941,-9.64408,-8.25335,-0.933788,-34.5721
2023-03-11 22:55:34:445,-0.166781,1.44287,-9.6649,-8.24677,-0.944237,-34.5725
2023-03-11 22:55:34:455,-0.178015,1.45523,-9.68383,-8.24048,-0.949714,-34.5786
2023-03-11 22:55:34:465,-0.206707,1.45232,-9.69439,-8.23657,-0.959792,-34.5813
2023-03-11 22:55:34:475,-0.220259,1.43857,-9.67901,-8.23008,-0.96595,-34.5853
2023-03-11 22:55:34:485,-0.2278,1.42577,-9.67586,-8.22026,-0.972839,-34.5921
2023-03-11 22:55:34:495,-0.233038,1.42608,-9.65608,-8.20842,-0.978096,-34.6
2023-03-11 22:55:34:505,-0.243309,1.40352,-9.63898,-8.19673,-0.980073,-34.6084
2023-03-11 22:55:34:515,-0.236327,1.38172,-9.62693,-8.18757,-0.981265,-34.6174
2023-03-11 22:55:34:525,-0.239352,1.36103,-9.62907,-8.1789,-0.981902,-34.6294
2023-03-11 22:55:34:535,-0.231399,1.36149,-9.66219,-8.17149,-0.974815,-34.6479
2023-03-11 22:55:34:545,-0.18766,1.38574,-9.73191,-8.16957,-0.971403,-34.6672
2023-03-11 22:55:34:555,-0.137872,1.38592,-9.7528,-8.16713,-0.965635,-34.6774
2023-03-11 22:55:34:565,-0.148989,1.37253,-9.72243,-8.16361,-0.966264,-34.6879
2023-03-11 22:55:34:575,-0.205575,1.3886,-9.68296,-8.16115,-0.96952,-34.7022
2023-03-11 22:55:34:585,-0.230185,1.39304,-9.6678,-8.15821,-0.974664,-34.7204
2023-03-11 22:55:34:595,-0.230421,1.40015,-9.65022,-8.16072,-0.97479,-34.7373
2023-03-11 22:55:34:605,-0.231224,1.42798,-9.63712,-8.16276,-0.973243,-34.7626
2023-03-11 22:55:34:615,-0.203464,1.42487,-9.63796,-8.16187,-0.969012,-34.7874
2023-03-11 22:55:34:625,-0.175731,1.43172,-9.63399,-8.16306,-0.963742,-34.8075
2023-03-11 22:55:34:635,-0.175319,1.4277,-9.64679,-8.16492,-0.961523,-34.8282
2023-03-11 22:55:34:645,-0.175406,1.42139,-9.65374,-8.16442,-0.961646,-34.8474
2023-03-11 22:55:34:655,-0.177993,1.43323,-9.65588,-8.16292,-0.962726,-34.8695
2023-03-11 22:55:34:665,-0.173459,1.42835,-9.64447,-8.15966,-0.961843,-34.8863
2023-03-11 22:55:34:675,-0.182368,1.4128,-9.64519,-8.1555,-0.961589,-34.9043
2023-03-11 22:55:34:685,-0.174422,1.40116,-9.64602,-8.1515,-0.957283,-34.9215
2023-03-11 22:55:34:695,-0.167959,1.38668,-9.64326,-8.1525,-0.949845,-34.9383
2023-03-11 22:55:34:705,-0.15107,1.38022,-9.67067,-8.15126,-0.940875,-34.9526
2023-03-11 22:55:34:715,-0.155896,1.38573,-9.67754,-8.15644,-0.930406,-34.9665
2023-03-11 22:55:34:725,-0.138678,1.41124,-9.6767,-8.16234,-0.924803,-34.9803
2023-03-11 22:55:34:735,-0.120778,1.41823,-9.67554,-8.16762,-0.919104,-34.9927
2023-03-11 22:55:34:745,-0.159326,1.42658,-9.68265,-8.17291,-0.915312,-35.0043
2023-03-11 22:55:34:755,-0.207645,1.43553,-9.68372,-8.18133,-0.91205,-35.0206
2023-03-11 22:55:34:765,-0.205736,1.45116,-9.69535,-8.1854,-0.904971,-35.0369
2023-03-11 22:55:34:775,-0.148387,1.45835,-9.72155,-8.18827,-0.896564,-35.0567
2023-03-11 22:55:34:785,-0.0944323,1.44967,-9.69722,-8.19045,-0.886185,-35.076
2023-03-11 22:55:34:795,-0.109268,1.43808,-9.66991,-8.19005,-0.879787,-35.0919
2023-03-11 22:55:34:805,-0.141488,1.42043,-9.6806,-8.1919,-0.874296,-35.106
2023-03-11 22:55:34:815,-0.13402,1.41485,-9.68739,-8.19098,-0.873986,-35.1229
2023-03-11 22:55:34:825,-0.140498,1.4194,-9.67883,-8.19177,-0.87371,-35.1416
2023-03-11 22:55:34:835,-0.13257,1.43172,-9.68351,-8.19463,-0.871054,-35.1588
2023-03-11 22:55:34:845,-0.115823,1.44311,-9.70363,-8.1946,-0.866087,-35.178
2023-03-11 22:55:34:855,-0.0961552,1.44494,-9.70742,-8.19552,-0.862306,-35.1944
2023-03-11 22:55:34:865,-0.0986947,1.43495,-9.72292,-8.19316,-0.860615,-35.2096
2023-03-11 22:55:34:875,-0.111677,1.43154,-9.7084,-8.19454,-0.855725,-35.2261
2023-03-11 22:55:34:885,-0.128127,1.4356,-9.7106,-8.1949,-0.852674,-35.2354
2023-03-11 22:55:34:895,-0.126873,1.43791,-9.71241,-8.18888,-0.854319,-35.2459
2023-03-11 22:55:34:905,-0.124575,1.43109,-9.70177,-8.18325,-0.853038,-35.255
2023-03-11 22:55:34:915,-0.132067,1.42585,-9.68552,-8.17782,-0.85223,-35.2595
2023-03-11 22:55:34:925,-0.147877,1.42459,-9.67179,-8.17264,-0.852096,-35.2697
2023-03-11 22:55:34:935,-0.156215,1.40115,-9.65398,-8.16604,-0.852955,-35.2817
2023-03-11 22:55:34:945,-0.157171,1.38633,-9.62216,-8.16284,-0.855404,-35.2927
2023-03-11 22:55:34:955,-0.170269,1.37278,-9.61019,-8.16084,-0.853917,-35.3055
2023-03-11 22:55:34:965,-0.16918,1.37436,-9.60307,-8.16076,-0.858874,-35.3162
2023-03-11 22:55:34:975,-0.168566,1.3974,-9.63086,-8.16402,-0.8632,-35.3285
2023-03-11 22:55:34:985,-0.173544,1.42361,-9.66268,-8.16982,-0.866058,-35.3436
2023-03-11 22:55:34:995,-0.176606,1.41979,-9.68891,-8.17671,-0.864114,-35.358
2023-03-11 22:55:35:5,-0.176013,1.432,-9.69531,-8.18064,-0.859067,-35.3685
2023-03-11 22:55:35:15,-0.180375,1.43165,-9.69933,-8.18541,-0.852813,-35.3783
2023-03-11 22:55:35:25,-0.175041,1.43976,-9.6771,-8.18964,-0.846077,-35.3918
2023-03-11 22:55:35:35,-0.176101,1.42693,-9.66794,-8.19007,-0.837837,-35.4067
2023-03-11 22:55:35:45,-0.172305,1.41992,-9.66146,-8.19269,-0.832279,-35.4209
2023-03-11 22:55:35:55,-0.155374,1.42251,-9.65352,-8.19572,-0.821292,-35.4338
2023-03-11 22:55:35:65,-0.14147,1.42211,-9.67669,-8.19634,-0.810826,-35.4499
2023-03-11 22:55:35:75,-0.156994,1.44467,-9.70139,-8.20157,-0.801656,-35.4638
2023-03-11 22:55:35:85,-0.159043,1.46308,-9.74666,-8.20581,-0.790789,-35.4798
2023-03-11 22:55:35:95,-0.15464,1.46266,-9.7493,-8.20776,-0.783018,-35.4982
2023-03-11 22:55:35:105,-0.142948,1.45867,-9.73796,-8.20662,-0.777328,-35.5182
2023-03-11 22:55:35:115,-0.126904,1.45226,-9.73785,-8.20441,-0.765745,-35.5365
2023-03-11 22:55:35:125,-0.123449,1.44033,-9.70488,-8.19899,-0.75657,-35.5548
2023-03-11 22:55:35:135,-0.107645,1.4203,-9.67321,-8.19168,-0.74786,-35.5739
2023-03-11 22:55:35:145,-0.0926747,1.40621,-9.65001,-8.1853,-0.735018,-35.5902
2023-03-11 22:55:35:155,-0.0925327,1.40175,-9.646,-8.18077,-0.723434,-35.605
2023-03-11 22:55:35:165,-0.0839857,1.39404,-9.6489,-8.17775,-0.714282,-35.619
2023-03-11 22:55:35:175,-0.0915329,1.41655,-9.66159,-8.17727,-0.704432,-35.6293
2023-03-11 22:55:35:185,-0.0878666,1.44555,-9.6742,-8.17899,-0.696116,-35.6424
2023-03-11 22:55:35:195,-0.0992852,1.4532,-9.71079,-8.1808,-0.688696,-35.6538
2023-03-11 22:55:35:205,-0.110394,1.43914,-9.72497,-8.18025,-0.684348,-35.668
2023-03-11 22:55:35:215,-0.0953553,1.41487,-9.71259,-8.17393,-0.679611,-35.6833
2023-03-11 22:55:35:225,-0.0955212,1.39721,-9.69497,-8.16613,-0.676058,-35.6963
2023-03-11 22:55:35:235,-0.101483,1.39115,-9.66875,-8.15871,-0.669296,-35.7115
2023-03-11 22:55:35:245,-0.0940086,1.38664,-9.65192,-8.15458,-0.666266,-35.7236
2023-03-11 22:55:35:255,-0.0798627,1.38891,-9.63982,-8.14431,-0.660627,-35.7343
2023-03-11 22:55:35:265,-0.10522,1.36998,-9.6488,-8.14022,-0.657307,-35.7441
2023-03-11 22:55:35:275,-0.09888,1.36641,-9.67538,-8.13968,-0.651179,-35.7536
2023-03-11 22:55:35:285,-0.0358291,1.37691,-9.7213,-8.14015,-0.647399,-35.7638
2023-03-11 22:55:35:295,0.0184277,1.38714,-9.72768,-8.13559,-0.650735,-35.7709
2023-03-11 22:55:35:305,0.00107828,1.37016,-9.67312,-8.13745,-0.653267,-35.7731
2023-03-11 22:55:35:315,-0.0567014,1.36398,-9.63986,-8.14147,-0.661671,-35.7721
2023-03-11 22:55:35:325,-0.105365,1.39412,-9.64803,-8.14485,-0.671383,-35.773
2023-03-11 22:55:35:335,-0.126561,1.42802,-9.66794,-8.1575,-0.681985,-35.7711
2023-03-11 22:55:35:345,-0.134655,1.46862,-9.67431,-8.17278,-0.689691,-35.7699
2023-03-11 22:55:35:355,-0.133968,1.49585,-9.68849,-8.182,-0.694946,-35.7733
2023-03-11 22:55:35:365,-0.129262,1.49444,-9.69576,-8.18885,-0.699144,-35.7729
2023-03-11 22:55:35:375,-0.132385,1.48486,-9.69024,-8.19359,-0.701254,-35.7731
2023-03-11 22:55:35:385,-0.149802,1.48255,-9.67682,-8.19506,-0.704726,-35.7743
2023-03-11 22:55:35:395,-0.16546,1.47552,-9.64586,-8.19556,-0.708374,-35.7762
2023-03-11 22:55:35:405,-0.183029,1.45225,-9.62725,-8.19575,-0.707808,-35.7797
2023-03-11 22:55:35:415,-0.173551,1.42386,-9.59791,-8.19679,-0.707507,-35.7839
2023-03-11 22:55:35:425,-0.159112,1.40116,-9.60054,-8.19918,-0.704915,-35.7906
2023-03-11 22:55:35:435,-0.160336,1.39499,-9.64157,-8.19722,-0.705093,-35.8015
2023-03-11 22:55:35:445,-0.160133,1.42068,-9.66791,-8.20341,-0.703389,-35.8149
2023-03-11 22:55:35:455,-0.147057,1.4313,-9.6853,-8.21265,-0.698449,-35.8262
2023-03-11 22:55:35:465,-0.120826,1.4464,-9.68257,-8.22167,-0.692707,-35.8397
2023-03-11 22:55:35:475,-0.0979522,1.46217,-9.68719,-8.23154,-0.688931,-35.8533
2023-03-11 22:55:35:485,-0.110545,1.47645,-9.72528,-8.24348,-0.687441,-35.8668
2023-03-11 22:55:35:495,-0.138404,1.48819,-9.74087,-8.25456,-0.685184,-35.8833
2023-03-11 22:55:35:505,-0.150301,1.48247,-9.72303,-8.26246,-0.678658,-35.8998
2023-03-11 22:55:35:515,-0.115902,1.48866,-9.72188,-8.26532,-0.670846,-35.9217
2023-03-11 22:55:35:525,-0.0620596,1.47446,-9.7278,-8.26366,-0.66223,-35.9344
2023-03-11 22:55:35:535,-0.0566463,1.44769,-9.71538,-8.26329,-0.658565,-35.9482
2023-03-11 22:55:35:545,-0.085231,1.44677,-9.69804,-8.2612,-0.655361,-35.9568
2023-03-11 22:55:35:555,-0.113784,1.44459,-9.68897,-8.2592,-0.655857,-35.967
2023-03-11 22:55:35:565,-0.112026,1.43014,-9.66976,-8.25696,-0.654362,-35.9759
2023-03-11 22:55:35:575,-0.10707,1.42365,-9.68065,-8.25412,-0.652524,-35.9842
2023-03-11 22:55:35:585,-0.10199,1.42624,-9.68738,-8.2511,-0.653003,-35.9915
2023-03-11 22:55:35:595,-0.0927787,1.43613,-9.69531,-8.24535,-0.654746,-35.9996
2023-03-11 22:55:35:605,-0.100475,1.43737,-9.68988,-8.24328,-0.653704,-36.0046
2023-03-11 22:55:35:615,-0.110212,1.43107,-9.68513,-8.23871,-0.652266,-36.0073
2023-03-11 22:55:35:625,-0.123273,1.42966,-9.66932,-8.2326,-0.651998,-36.0123
2023-03-11 22:55:35:635,-0.115202,1.43172,-9.66324,-8.22867,-0.650091,-36.0228
2023-03-11 22:55:35:645,-0.103466,1.42729,-9.65652,-8.22586,-0.652576,-36.0303
2023-03-11 22:55:35:655,-0.1141,1.41889,-9.63316,-8.22408,-0.654396,-36.0372
2023-03-11 22:55:35:665,-0.115144,1.40694,-9.63269,-8.22318,-0.656195,-36.041
2023-03-11 22:55:35:675,-0.129804,1.41402,-9.64019,-8.22402,-0.661031,-36.0503
2023-03-11 22:55:35:685,-0.121762,1.42393,-9.66476,-8.22927,-0.664225,-36.0543
2023-03-11 22:55:35:695,-0.119447,1.4164,-9.68455,-8.23509,-0.668386,-36.0605
2023-03-11 22:55:35:705,-0.125074,1.41228,-9.67773,-8.23774,-0.674235,-36.0676
2023-03-11 22:55:35:715,-0.128991,1.42248,-9.67628,-8.23798,-0.678189,-36.0748
2023-03-11 22:55:35:725,-0.120227,1.41949,-9.67904,-8.24008,-0.682198,-36.0793
2023-03-11 22:55:35:735,-0.11532,1.42554,-9.67433,-8.24121,-0.684842,-36.0836
2023-03-11 22:55:35:745,-0.143101,1.43276,-9.66133,-8.2431,-0.683928,-36.0855
2023-03-11 22:55:35:755,-0.157003,1.45011,-9.6672,-8.25062,-0.689049,-36.086
2023-03-11 22:55:35:765,-0.153682,1.45142,-9.67332,-8.25436,-0.687043,-36.0923
2023-03-11 22:55:35:775,-0.165609,1.45326,-9.67492,-8.25652,-0.68193,-36.0981
2023-03-11 22:55:35:785,-0.178108,1.46345,-9.67159,-8.25592,-0.677432,-36.1076
2023-03-11 22:55:35:795,-0.182346,1.4767,-9.68947,-8.25852,-0.67304,-36.1194
2023-03-11 22:55:35:805,-0.172668,1.48625,-9.68921,-8.25904,-0.669551,-36.1294
2023-03-11 22:55:35:815,-0.16463,1.48472,-9.70098,-8.25768,-0.662928,-36.145
2023-03-11 22:55:35:825,-0.151582,1.47077,-9.72133,-8.25839,-0.655481,-36.1624
2023-03-11 22:55:35:835,-0.137313,1.47114,-9.7274,-8.25657,-0.651661,-36.182
2023-03-11 22:55:35:845,-0.132935,1.45714,-9.72324,-8.24609,-0.644801,-36.2016
2023-03-11 22:55:35:855,-0.116617,1.43804,-9.68639,-8.23568,-0.639787,-36.222
2023-03-11 22:55:35:865,-0.0942646,1.43128,-9.64885,-8.22638,-0.632142,-36.2425
2023-03-11 22:55:35:875,-0.0687528,1.42059,-9.63372,-8.22001,-0.630367,-36.2585
2023-03-11 22:55:35:885,-0.0611042,1.40947,-9.64121,-8.21434,-0.625824,-36.2761
2023-03-11 22:55:35:895,-0.0577371,1.40373,-9.63676,-8.21037,-0.620455,-36.2892
2023-03-11 22:55:35:905,-0.0607503,1.39483,-9.61696,-8.20785,-0.617597,-36.3008
2023-03-11 22:55:35:915,-0.0711205,1.39111,-9.63079,-8.20798,-0.613524,-36.3105
2023-03-11 22:55:35:925,-0.0758694,1.3794,-9.64058,-8.20343,-0.610987,-36.3169
2023-03-11 22:55:35:935,-0.0858259,1.38417,-9.65633,-8.2047,-0.608018,-36.3232
2023-03-11 22:55:35:945,-0.0880386,1.38565,-9.67149,-8.20684,-0.602111,-36.3308
2023-03-11 22:55:35:955,-0.0963266,1.38395,-9.67342,-8.20939,-0.595919,-36.3366
2023-03-11 22:55:35:965,-0.112295,1.39423,-9.65992,-8.21027,-0.587875,-36.3403
2023-03-11 22:55:35:975,-0.110784,1.39687,-9.64947,-8.21069,-0.580567,-36.3452
2023-03-11 22:55:35:985,-0.114373,1.40296,-9.65045,-8.21096,-0.575908,-36.3458
2023-03-11 22:55:35:995,-0.138675,1.40082,-9.66576,-8.21471,-0.570958,-36.3476
2023-03-11 22:55:36:5,-0.149185,1.40575,-9.6914,-8.21748,-0.563853,-36.3539
2023-03-11 22:55:36:15,-0.0993041,1.41134,-9.7387,-8.2245,-0.556507,-36.361
2023-03-11 22:55:36:25,-0.0414681,1.41774,-9.76473,-8.22535,-0.549907,-36.3686
2023-03-11 22:55:36:35,-0.0247416,1.4063,-9.74205,-8.22432,-0.549752,-36.3735
2023-03-11 22:55:36:45,-0.0737355,1.40645,-9.68904,-8.22626,-0.551145,-36.3762
2023-03-11 22:55:36:55,-0.111403,1.42117,-9.66956,-8.23178,-0.557331,-36.3801
2023-03-11 22:55:36:65,-0.103909,1.44829,-9.69899,-8.23996,-0.562136,-36.3892
2023-03-11 22:55:36:75,-0.100254,1.49406,-9.71045,-8.25117,-0.568723,-36.4011
2023-03-11 22:55:36:85,-0.109926,1.50588,-9.72518,-8.26004,-0.571006,-36.4105
2023-03-11 22:55:36:95,-0.100462,1.52692,-9.71094,-8.26243,-0.573247,-36.42
2023-03-11 22:55:36:105,-0.10994,1.52243,-9.67958,-8.25938,-0.572727,-36.4277
2023-03-11 22:55:36:115,-0.131062,1.51923,-9.6567,-8.25426,-0.572557,-36.436
2023-03-11 22:55:36:125,-0.142217,1.49765,-9.62693,-8.2445,-0.569297,-36.4476
2023-03-11 22:55:36:135,-0.155137,1.44428,-9.60267,-8.23296,-0.566641,-36.4548
2023-03-11 22:55:36:145,-0.143904,1.4053,-9.58458,-8.22241,-0.560838,-36.465
2023-03-11 22:55:36:155,-0.128054,1.40306,-9.59463,-8.21346,-0.554742,-36.4749
2023-03-11 22:55:36:165,-0.103174,1.40657,-9.62015,-8.20913,-0.545668,-36.4857
2023-03-11 22:55:36:175,-0.0813431,1.39111,-9.65089,-8.20909,-0.540022,-36.4995
2023-03-11 22:55:36:185,-0.0707839,1.39444,-9.65532,-8.21106,-0.532802,-36.5124
2023-03-11 22:55:36:195,-0.070937,1.4034,-9.66859,-8.21234,-0.52673,-36.5244
2023-03-11 22:55:36:205,-0.040936,1.42889,-9.69103,-8.22089,-0.520355,-36.5346
2023-03-11 22:55:36:215,-0.0328524,1.44893,-9.71231,-8.22909,-0.515562,-36.5411
2023-03-11 22:55:36:225,-0.044852,1.47077,-9.71773,-8.23429,-0.509341,-36.547
2023-03-11 22:55:36:235,-0.0774536,1.48372,-9.69977,-8.23908,-0.50576,-36.5521
2023-03-11 22:55:36:245,-0.079896,1.48514,-9.71289,-8.24288,-0.496093,-36.5578
2023-03-11 22:55:36:255,-0.0472943,1.4963,-9.75468,-8.24369,-0.489747,-36.5677
2023-03-11 22:55:36:265,0.0111917,1.47908,-9.75651,-8.24138,-0.485445,-36.5727
2023-03-11 22:55:36:275,-0.00236376,1.44636,-9.73518,-8.23403,-0.484045,-36.5755
2023-03-11 22:55:36:285,-0.0518902,1.43863,-9.70687,-8.22301,-0.489928,-36.5784
2023-03-11 22:55:36:295,-0.0754981,1.42317,-9.69283,-8.21358,-0.494052,-36.5836
2023-03-11 22:55:36:305,-0.0630979,1.42408,-9.68988,-8.20598,-0.503177,-36.5881
2023-03-11 22:55:36:315,-0.053166,1.40807,-9.68706,-8.19453,-0.509248,-36.5892
2023-03-11 22:55:36:325,-0.051417,1.39611,-9.6785,-8.18685,-0.513247,-36.5899
2023-03-11 22:55:36:335,-0.0603827,1.39914,-9.68142,-8.18154,-0.520564,-36.5878
2023-03-11 22:55:36:345,-0.0754704,1.40983,-9.64512,-8.17219,-0.525628,-36.5799
2023-03-11 22:55:36:355,-0.0954271,1.39448,-9.63818,-8.1624,-0.530345,-36.5751
2023-03-11 22:55:36:365,-0.0889734,1.3891,-9.6508,-8.15572,-0.533697,-36.5637
2023-03-11 22:55:36:375,-0.0830406,1.39086,-9.64097,-8.15104,-0.539331,-36.5575
2023-03-11 22:55:36:385,-0.11311,1.39683,-9.63509,-8.14902,-0.546203,-36.5485
2023-03-11 22:55:36:395,-0.131998,1.39684,-9.63271,-8.14663,-0.553562,-36.5398
2023-03-11 22:55:36:405,-0.123471,1.41352,-9.65227,-8.14553,-0.562609,-36.5347
2023-03-11 22:55:36:415,-0.12001,1.4084,-9.67817,-8.14664,-0.567978,-36.5329
2023-03-11 22:55:36:425,-0.12577,1.39761,-9.68238,-8.14509,-0.57679,-36.5265
2023-03-11 22:55:36:435,-0.146455,1.40131,-9.65954,-8.14303,-0.589199,-36.5221
2023-03-11 22:55:36:445,-0.146007,1.39652,-9.64629,-8.14169,-0.599707,-36.5179
2023-03-11 22:55:36:455,-0.140008,1.40004,-9.63745,-8.14218,-0.603682,-36.515
2023-03-11 22:55:36:465,-0.159911,1.40686,-9.63654,-8.14624,-0.608639,-36.5098
2023-03-11 22:55:36:475,-0.162666,1.41393,-9.64377,-8.15038,-0.610546,-36.5054
2023-03-11 22:55:36:485,-0.161109,1.43113,-9.68031,-8.1528,-0.615628,-36.5043
2023-03-11 22:55:36:495,-0.171746,1.44827,-9.71275,-8.15731,-0.615272,-36.5054
2023-03-11 22:55:36:505,-0.174158,1.45997,-9.70264,-8.15736,-0.615925,-36.5047
2023-03-11 22:55:36:515,-0.18227,1.46644,-9.69553,-8.15356,-0.611517,-36.5065
2023-03-11 22:55:36:525,-0.176419,1.47497,-9.70131,-8.15215,-0.608857,-36.5107
2023-03-11 22:55:36:535,-0.169446,1.48035,-9.71107,-8.14652,-0.604315,-36.5165
2023-03-11 22:55:36:545,-0.178763,1.47004,-9.69615,-8.13657,-0.598829,-36.5273
2023-03-11 22:55:36:555,-0.170388,1.4632,-9.68963,-8.13134,-0.592798,-36.5383
2023-03-11 22:55:36:565,-0.146712,1.44178,-9.68206,-8.1237,-0.586122,-36.5524
2023-03-11 22:55:36:575,-0.129071,1.4115,-9.66058,-8.11192,-0.57935,-36.5671
2023-03-11 22:55:36:585,-0.097146,1.39917,-9.63853,-8.10546,-0.574849,-36.5844
2023-03-11 22:55:36:595,-0.0784201,1.39271,-9.63522,-8.10003,-0.571677,-36.601
2023-03-11 22:55:36:605,-0.0635195,1.40395,-9.66553,-8.0928,-0.567628,-36.6126
2023-03-11 22:55:36:615,-0.06144,1.41119,-9.68296,-8.08708,-0.5649,-36.6258
2023-03-11 22:55:36:625,-0.0614724,1.4027,-9.67277,-8.08579,-0.563448,-36.6412
2023-03-11 22:55:36:635,-0.055774,1.39946,-9.65545,-8.083,-0.563291,-36.6514
2023-03-11 22:55:36:645,-0.0461211,1.40535,-9.67205,-8.07928,-0.559564,-36.6567
2023-03-11 22:55:36:655,-0.0636966,1.3982,-9.67273,-8.07641,-0.554945,-36.6622
2023-03-11 22:55:36:665,-0.0709677,1.38049,-9.68198,-8.07389,-0.554826,-36.6629
2023-03-11 22:55:36:675,-0.0765282,1.39411,-9.6935,-8.07136,-0.548484,-36.6668
2023-03-11 22:55:36:685,-0.0404751,1.39607,-9.72165,-8.0675,-0.542605,-36.6706
2023-03-11 22:55:36:695,-0.0145221,1.40758,-9.74827,-8.06017,-0.534587,-36.6675
2023-03-11 22:55:36:705,-0.0446626,1.40766,-9.7456,-8.05263,-0.530556,-36.6627
2023-03-11 22:55:36:715,-0.0620973,1.38196,-9.71007,-8.03779,-0.525515,-36.656
2023-03-11 22:55:36:725,-0.0713628,1.37736,-9.68325,-8.02136,-0.518979,-36.6495
2023-03-11 22:55:36:735,-0.0705144,1.35174,-9.68832,-8.00633,-0.512696,-36.6413
2023-03-11 22:55:36:745,-0.0335372,1.32116,-9.70552,-7.99062,-0.498181,-36.6266
2023-03-11 22:55:36:755,0.0491835,1.33994,-9.73861,-7.97388,-0.48151,-36.6105
2023-03-11 22:55:36:765,0.088594,1.30689,-9.70112,-7.95758,-0.471118,-36.5863
2023-03-11 22:55:36:775,0.0509967,1.26751,-9.61913,-7.94664,-0.462875,-36.5513
2023-03-11 22:55:36:785,0.0301967,1.26881,-9.64684,-7.93929,-0.460017,-36.5146
2023-03-11 22:55:36:795,0.0850648,1.36273,-9.71784,-7.94142,-0.46138,-36.4723
2023-03-11 22:55:36:805,-0.0235045,1.37899,-9.68141,-7.93987,-0.467945,-36.4195
2023-03-11 22:55:36:815,-0.239849,1.39853,-9.59939,-7.93696,-0.472633,-36.373
2023-03-11 22:55:36:825,-0.236925,1.38857,-9.55993,-7.93431,-0.469803,-36.3366
2023-03-11 22:55:36:835,-0.156285,1.38083,-9.57031,-7.93988,-0.4587,-36.3032
2023-03-11 22:55:36:845,-0.180579,1.38671,-9.57641,-7.94569,-0.446475,-36.2695
2023-03-11 22:55:36:855,-0.212188,1.365,-9.57273,-7.95108,-0.434057,-36.241
2023-03-11 22:55:36:865,-0.213951,1.37774,-9.58382,-7.95994,-0.424445,-36.2202
2023-03-11 22:55:36:875,-0.237819,1.38291,-9.58765,-7.97322,-0.415209,-36.208
2023-03-11 22:55:36:885,-0.244386,1.38188,-9.60632,-7.98593,-0.407154,-36.2042
2023-03-11 22:55:36:895,-0.23657,1.39213,-9.63965,-8.00433,-0.402077,-36.2084
2023-03-11 22:55:36:905,-0.233899,1.39852,-9.64271,-8.02692,-0.395747,-36.2197
2023-03-11 22:55:36:915,-0.236782,1.40755,-9.67729,-8.04723,-0.389551,-36.2364
2023-03-11 22:55:36:925,-0.220326,1.43365,-9.70389,-8.07071,-0.384972,-36.2606
2023-03-11 22:55:36:935,-0.190063,1.44103,-9.7053,-8.09335,-0.377669,-36.2928
2023-03-11 22:55:36:945,-0.147343,1.44953,-9.7178,-8.11631,-0.368983,-36.3268
2023-03-11 22:55:36:955,-0.126773,1.4737,-9.74418,-8.13835,-0.361301,-36.3648
2023-03-11 22:55:36:965,-0.114984,1.49351,-9.76478,-8.15844,-0.35571,-36.4077
2023-03-11 22:55:36:975,-0.116848,1.50407,-9.75686,-8.17651,-0.345934,-36.4529
2023-03-11 22:55:36:985,-0.0874926,1.5086,-9.75338,-8.1882,-0.337633,-36.5029
2023-03-11 22:55:36:995,-0.0051528,1.487,-9.75193,-8.1944,-0.322772,-36.5499
2023-03-11 22:55:37:5,0.0368572,1.45647,-9.75239,-8.19966,-0.312671,-36.5908
2023-03-11 22:55:37:15,0.00960027,1.45752,-9.75023,-8.2009,-0.30913,-36.6273
2023-03-11 22:55:37:25,-0.0190823,1.45834,-9.74539,-8.19881,-0.305628,-36.6644
2023-03-11 22:55:37:35,-0.0127706,1.47517,-9.73727,-8.19655,-0.302087,-36.7047
2023-03-11 22:55:37:45,-0.0099574,1.47597,-9.74752,-8.19082,-0.300424,-36.7417
2023-03-11 22:55:37:55,0.00754091,1.46756,-9.73719,-8.17995,-0.298019,-36.7738
2023-03-11 22:55:37:65,0.0280268,1.44489,-9.71588,-8.1672,-0.291106,-36.8013
2023-03-11 22:55:37:75,0.0398095,1.40824,-9.67613,-8.15156,-0.28206,-36.8257
2023-03-11 22:55:37:85,0.0270178,1.38519,-9.6189,-8.13793,-0.2744,-36.8438
2023-03-11 22:55:37:95,0.0300157,1.3674,-9.57673,-8.1284,-0.267618,-36.8588
2023-03-11 22:55:37:105,0.0347773,1.36025,-9.56904,-8.12292,-0.260429,-36.8696
2023-03-11 22:55:37:115,0.0177109,1.3719,-9.60576,-8.12486,-0.252193,-36.88
2023-03-11 22:55:37:125,0.0127571,1.40224,-9.663,-8.12859,-0.246356,-36.8866
2023-03-11 22:55:37:135,0.00773283,1.42332,-9.71588,-8.13108,-0.243423,-36.894
2023-03-11 22:55:37:145,0.00614774,1.43107,-9.72815,-8.13042,-0.239944,-36.8985
2023-03-11 22:55:37:154,-0.000282379,1.4206,-9.71489,-8.12504,-0.232732,-36.8996
2023-03-11 22:55:37:165,-0.00449207,1.403,-9.67865,-8.11688,-0.230367,-36.9039
2023-03-11 22:55:37:175,-0.0191015,1.39641,-9.62716,-8.10929,-0.230856,-36.9061
2023-03-11 22:55:37:185,-0.0187556,1.3749,-9.60921,-8.10437,-0.229894,-36.9074
2023-03-11 22:55:37:195,-0.0379585,1.37047,-9.61101,-8.10385,-0.22957,-36.9072
2023-03-11 22:55:37:205,-0.0684421,1.40069,-9.65069,-8.10714,-0.232115,-36.9071
2023-03-11 22:55:37:215,-0.0846271,1.41766,-9.69443,-8.10822,-0.236309,-36.9111
2023-03-11 22:55:37:225,-0.0784123,1.4589,-9.72181,-8.11387,-0.23885,-36.9175
2023-03-11 22:55:37:235,-0.0844114,1.4778,-9.74497,-8.11617,-0.238854,-36.9227
2023-03-11 22:55:37:245,-0.0951772,1.47651,-9.75541,-8.11829,-0.236828,-36.9295
2023-03-11 22:55:37:255,-0.0950442,1.4736,-9.71789,-8.11214,-0.232905,-36.9387
2023-03-11 22:55:37:265,-0.0885861,1.43822,-9.68987,-8.10466,-0.22774,-36.952
2023-03-11 22:55:37:275,-0.0755727,1.41395,-9.65815,-8.09794,-0.220542,-36.9654
2023-03-11 22:55:37:285,-0.0672394,1.39673,-9.64427,-8.08926,-0.217518,-36.9791
2023-03-11 22:55:37:295,-0.0597594,1.38681,-9.66346,-8.08178,-0.209981,-36.9958
2023-03-11 22:55:37:305,-0.0182245,1.38807,-9.69011,-8.07957,-0.20013,-37.0109
2023-03-11 22:55:37:315,-0.013427,1.3932,-9.70114,-8.07196,-0.189,-37.0247
2023-03-11 22:55:37:325,-0.00396832,1.39631,-9.70223,-8.07025,-0.181378,-37.038
2023-03-11 22:55:37:335,0.00113256,1.39184,-9.69098,-8.06359,-0.174337,-37.0504
2023-03-11 22:55:37:345,-0.00630181,1.39326,-9.67216,-8.05871,-0.168522,-37.0644
2023-03-11 22:55:37:355,0.00609719,1.38078,-9.65892,-8.04939,-0.163499,-37.0736
2023-03-11 22:55:37:365,0.0219476,1.35619,-9.65701,-8.03996,-0.157474,-37.0813
2023-03-11 22:55:37:375,0.0186641,1.35879,-9.63151,-8.03273,-0.151612,-37.0894
2023-03-11 22:55:37:385,0.0219799,1.3489,-9.6151,-8.03287,-0.14745,-37.0939
2023-03-11 22:55:37:395,0.0386797,1.34387,-9.63432,-8.03344,-0.146962,-37.0968
2023-03-11 22:55:37:405,0.0251295,1.36244,-9.66762,-8.03616,-0.147302,-37.0998
2023-03-11 22:55:37:415,-0.000900941,1.39488,-9.6913,-8.03901,-0.14739,-37.1037
2023-03-11 22:55:37:425,-0.0268641,1.40382,-9.71485,-8.03921,-0.14922,-37.1059
2023-03-11 22:55:37:435,-0.0235551,1.41606,-9.71332,-8.03872,-0.146447,-37.11
2023-03-11 22:55:37:445,-0.0258928,1.39549,-9.69873,-8.03708,-0.144622,-37.1119
2023-03-11 22:55:37:455,-0.0431407,1.38044,-9.68395,-8.03563,-0.143351,-37.1151
2023-03-11 22:55:37:465,-0.0519989,1.35099,-9.66642,-8.02783,-0.142095,-37.1192
2023-03-11 22:55:37:475,-0.0395676,1.36162,-9.66189,-8.02525,-0.141509,-37.1214
2023-03-11 22:55:37:485,-0.0413427,1.36377,-9.68299,-8.02514,-0.140317,-37.1252
2023-03-11 22:55:37:495,-0.02286,1.38925,-9.71845,-8.02692,-0.137345,-37.1264
2023-03-11 22:55:37:505,0.0377086,1.40588,-9.75771,-8.02821,-0.138557,-37.135
2023-03-11 22:55:37:515,0.0969477,1.38386,-9.74831,-8.02621,-0.13924,-37.141
2023-03-11 22:55:37:525,0.0829994,1.37826,-9.70286,-8.023,-0.146964,-37.1394
2023-03-11 22:55:37:535,0.0404988,1.36564,-9.67492,-8.02573,-0.158083,-37.1337
2023-03-11 22:55:37:545,-0.00216456,1.37043,-9.64277,-8.02474,-0.17377,-37.1287
2023-03-11 22:55:37:555,-0.0183969,1.36214,-9.62641,-8.02753,-0.187342,-37.1237
2023-03-11 22:55:37:565,-0.0407378,1.37691,-9.64394,-8.0337,-0.19741,-37.1155
2023-03-11 22:55:37:575,-0.0537068,1.38946,-9.65839,-8.04046,-0.205288,-37.1054
2023-03-11 22:55:37:585,-0.0555561,1.39091,-9.66772,-8.04684,-0.21123,-37.0917
2023-03-11 22:55:37:595,-0.0606802,1.39012,-9.66539,-8.05065,-0.216935,-37.0781
2023-03-11 22:55:37:605,-0.0888655,1.39516,-9.64378,-8.05266,-0.2201,-37.0681
2023-03-11 22:55:37:615,-0.104391,1.38258,-9.61117,-8.05542,-0.226092,-37.0572
2023-03-11 22:55:37:625,-0.104298,1.36212,-9.57219,-8.05991,-0.232649,-37.0501
2023-03-11 22:55:37:635,-0.0948583,1.36289,-9.55663,-8.06858,-0.234807,-37.0473
2023-03-11 22:55:37:645,-0.0815801,1.37419,-9.56778,-8.08409,-0.238591,-37.0466
2023-03-11 22:55:37:655,-0.0744759,1.39203,-9.61461,-8.10029,-0.242081,-37.0516
2023-03-11 22:55:37:664,-0.06216,1.41066,-9.66337,-8.11702,-0.244475,-37.0548
2023-03-11 22:55:37:675,-0.0640738,1.42671,-9.71277,-8.13555,-0.243505,-37.0616
2023-03-11 22:55:37:685,-0.0381211,1.42943,-9.72506,-8.15317,-0.239145,-37.0641
2023-03-11 22:55:37:695,-0.0041209,1.43298,-9.72527,-8.17154,-0.231829,-37.0654
2023-03-11 22:55:37:705,-0.000145091,1.42083,-9.71974,-8.18672,-0.225868,-37.0622
2023-03-11 22:55:37:715,-0.0520166,1.43703,-9.69461,-8.20169,-0.218817,-37.059
2023-03-11 22:55:37:725,-0.084852,1.46508,-9.69505,-8.2203,-0.211019,-37.0599
2023-03-11 22:55:37:735,-0.0768363,1.51062,-9.73667,-8.2347,-0.202063,-37.0614
2023-03-11 22:55:37:745,-0.0423409,1.52133,-9.78407,-8.24552,-0.191028,-37.0643
2023-03-11 22:55:37:755,-0.0182896,1.5069,-9.79585,-8.25167,-0.183772,-37.0661
2023-03-11 22:55:37:765,-0.0336985,1.50831,-9.7682,-8.25442,-0.18046,-37.0705
2023-03-11 22:55:37:775,-0.0678939,1.49372,-9.72816,-8.24994,-0.180528,-37.0766
2023-03-11 22:55:37:785,-0.0651359,1.45955,-9.71013,-8.24345,-0.178157,-37.0838
2023-03-11 22:55:37:795,-0.0422774,1.44717,-9.70674,-8.23717,-0.175705,-37.0901
2023-03-11 22:55:37:805,-0.0292381,1.44275,-9.68738,-8.23185,-0.173027,-37.096
2023-03-11 22:55:37:815,-0.016743,1.42739,-9.66348,-8.22493,-0.170401,-37.1004
2023-03-11 22:55:37:825,-0.0329713,1.41451,-9.6389,-8.21775,-0.162878,-37.1072
2023-03-11 22:55:37:835,-0.0320562,1.42083,-9.64048,-8.20712,-0.154374,-37.1093
2023-03-11 22:55:37:845,-0.0131714,1.44234,-9.6791,-8.20285,-0.144919,-37.1125
2023-03-11 22:55:37:855,-0.0122501,1.45318,-9.69847,-8.19755,-0.137959,-37.1163
2023-03-11 22:55:37:865,9.66089e-05,1.46306,-9.70612,-8.19232,-0.129004,-37.1208
2023-03-11 22:55:37:875,0.0266049,1.479,-9.74065,-8.18229,-0.122785,-37.1253
2023-03-11 22:55:37:885,0.039278,1.50187,-9.76986,-8.17274,-0.121583,-37.1345
2023-03-11 22:55:37:895,0.0434331,1.49274,-9.73731,-8.15553,-0.12301,-37.1399
2023-03-11 22:55:37:905,0.042913,1.45345,-9.67714,-8.13753,-0.125782,-37.1469
2023-03-11 22:55:37:915,0.0279191,1.42447,-9.61938,-8.11806,-0.131175,-37.1472
2023-03-11 22:55:37:925,0.0226099,1.40858,-9.6108,-8.10145,-0.133991,-37.1484
2023-03-11 22:55:37:935,0.0276382,1.41975,-9.62828,-8.08981,-0.135447,-37.1506
2023-03-11 22:55:37:945,0.00846111,1.40217,-9.67052,-8.07806,-0.13621,-37.1505
2023-03-11 22:55:37:955,0.000434571,1.4184,-9.69802,-8.06791,-0.13829,-37.1519
2023-03-11 22:55:37:965,-0.010853,1.44764,-9.69903,-8.0583,-0.142494,-37.1514
2023-03-11 22:55:37:975,-0.0196787,1.44685,-9.68611,-8.04648,-0.147532,-37.1531
2023-03-11 22:55:37:985,-0.0390297,1.44937,-9.69062,-8.03594,-0.150032,-37.1551
2023-03-11 22:55:37:995,-0.043817,1.4403,-9.69312,-8.02111,-0.150122,-37.1533
2023-03-11 22:55:38:5,-0.0446006,1.4383,-9.68086,-8.00925,-0.152423,-37.1544
2023-03-11 22:55:38:15,-0.0471472,1.41721,-9.65086,-7.99625,-0.149815,-37.1567
2023-03-11 22:55:38:25,-0.0377825,1.40113,-9.63805,-7.98219,-0.148606,-37.1587
2023-03-11 22:55:38:35,-0.0468815,1.39127,-9.63669,-7.96672,-0.147023,-37.1615
2023-03-11 22:55:38:45,-0.0645361,1.38001,-9.63045,-7.95091,-0.14842,-37.1683
2023-03-11 22:55:38:55,-0.0662183,1.36427,-9.64317,-7.94017,-0.149404,-37.1781
2023-03-11 22:55:38:65,-0.0468589,1.3557,-9.66386,-7.93024,-0.147586,-37.1859
2023-03-11 22:55:38:75,-0.0389374,1.36002,-9.66599,-7.91993,-0.148416,-37.1957
2023-03-11 22:55:38:85,-0.0305639,1.34478,-9.66682,-7.9123,-0.149195,-37.2058
2023-03-11 22:55:38:95,-0.0144802,1.33624,-9.66313,-7.9027,-0.150976,-37.2146
2023-03-11 22:55:38:105,0.0210712,1.34505,-9.66647,-7.89532,-0.152314,-37.2201
2023-03-11 22:55:38:115,0.0254801,1.32939,-9.67041,-7.89095,-0.149951,-37.2246
2023-03-11 22:55:38:125,0.0152305,1.3128,-9.67874,-7.88191,-0.151794,-37.2248
2023-03-11 22:55:38:135,0.0203253,1.32865,-9.68317,-7.87841,-0.151119,-37.2237
2023-03-11 22:55:38:145,0.0107111,1.34223,-9.69937,-7.8744,-0.152974,-37.2208
2023-03-11 22:55:38:155,0.00241294,1.33809,-9.69383,-7.87043,-0.153689,-37.2147
2023-03-11 22:55:38:165,-0.0303936,1.33519,-9.67359,-7.86597,-0.151593,-37.2078
2023-03-11 22:55:38:175,-0.0560055,1.33128,-9.67046,-7.85721,-0.149839,-37.2029
2023-03-11 22:55:38:185,-0.0814865,1.33023,-9.66954,-7.85025,-0.150948,-37.1938
2023-03-11 22:55:38:195,-0.0784574,1.32504,-9.66703,-7.84985,-0.148081,-37.1898
2023-03-11 22:55:38:205,-0.0765698,1.30758,-9.64424,-7.84447,-0.142439,-37.1883
2023-03-11 22:55:38:215,-0.0824356,1.29888,-9.63927,-7.83867,-0.13552,-37.1911
2023-03-11 22:55:38:225,-0.0762074,1.32489,-9.65593,-7.83858,-0.129854,-37.1957
2023-03-11 22:55:38:235,-0.0563672,1.33293,-9.67469,-7.8386,-0.12748,-37.199
2023-03-11 22:55:38:245,-0.0612744,1.33114,-9.67706,-7.84141,-0.121829,-37.2067
2023-03-11 22:55:38:255,-0.0642418,1.32638,-9.69121,-7.84602,-0.117516,-37.2186
2023-03-11 22:55:38:265,-0.00399013,1.32503,-9.7337,-7.8475,-0.11247,-37.2321
2023-03-11 22:55:38:275,0.0731439,1.32143,-9.75787,-7.85264,-0.10871,-37.2421
2023-03-11 22:55:38:285,0.105628,1.28967,-9.73143,-7.85727,-0.11133,-37.2495
2023-03-11 22:55:38:295,0.0984381,1.27941,-9.67887,-7.86424,-0.118393,-37.2532
2023-03-11 22:55:38:305,0.0762183,1.29376,-9.64747,-7.87091,-0.125746,-37.2543
2023-03-11 22:55:38:315,0.0596863,1.32911,-9.64577,-7.88315,-0.136089,-37.2553
2023-03-11 22:55:38:325,0.0394397,1.35639,-9.64147,-7.90187,-0.146166,-37.2539
2023-03-11 22:55:38:335,0.00713696,1.39755,-9.65709,-7.91788,-0.157988,-37.2491
2023-03-11 22:55:38:345,-0.0169429,1.44444,-9.67688,-7.93387,-0.164077,-37.2402
2023-03-11 22:55:38:355,-0.0444538,1.4595,-9.69744,-7.9507,-0.167843,-37.2293
2023-03-11 22:55:38:365,-0.0578134,1.43802,-9.70669,-7.96259,-0.170944,-37.22
2023-03-11 22:55:38:375,-0.0718851,1.42932,-9.65886,-7.96727,-0.172308,-37.2125
2023-03-11 22:55:38:385,-0.0938123,1.40782,-9.62898,-7.97061,-0.172993,-37.2057
2023-03-11 22:55:38:395,-0.0937729,1.38496,-9.60963,-7.9736,-0.170711,-37.2012
2023-03-11 22:55:38:405,-0.0874586,1.37863,-9.62021,-7.97608,-0.172334,-37.1978
2023-03-11 22:55:38:415,-0.0843434,1.38892,-9.64806,-7.98451,-0.173201,-37.2007
2023-03-11 22:55:38:425,-0.0687221,1.40417,-9.69748,-7.99443,-0.171833,-37.2065
2023-03-11 22:55:38:435,-0.0416758,1.42719,-9.71882,-8.00702,-0.170961,-37.2114
2023-03-11 22:55:38:445,-0.0360477,1.43953,-9.73062,-8.01833,-0.171674,-37.2191
2023-03-11 22:55:38:455,-0.00249313,1.45966,-9.72222,-8.02942,-0.174238,-37.2288
2023-03-11 22:55:38:465,0.00397509,1.46365,-9.72553,-8.04172,-0.172658,-37.2402
2023-03-11 22:55:38:475,-0.00995593,1.43861,-9.72704,-8.04925,-0.173587,-37.2473
2023-03-11 22:55:38:485,-0.0122001,1.44266,-9.71154,-8.05445,-0.169824,-37.2512
2023-03-11 22:55:38:495,-0.0048552,1.45162,-9.75492,-8.06284,-0.16884,-37.2572
2023-03-11 22:55:38:505,0.0582334,1.45612,-9.76867,-8.06271,-0.165315,-37.2627
2023-03-11 22:55:38:515,0.0810187,1.4439,-9.75327,-8.05984,-0.163323,-37.2676
2023-03-11 22:55:38:525,0.0592791,1.4433,-9.74622,-8.05684,-0.166823,-37.2697
2023-03-11 22:55:38:535,0.0347984,1.4406,-9.73045,-8.04846,-0.172653,-37.2688
2023-03-11 22:55:38:545,0.00606639,1.42898,-9.69925,-8.0388,-0.175105,-37.2687
2023-03-11 22:55:38:555,0.000747471,1.39445,-9.67508,-8.02489,-0.178036,-37.2689
2023-03-11 22:55:38:565,0.016749,1.37202,-9.6835,-8.01049,-0.18348,-37.2639
2023-03-11 22:55:38:575,0.0256647,1.38161,-9.6773,-7.99936,-0.189074,-37.2606
2023-03-11 22:55:38:585,0.0224826,1.37875,-9.65291,-7.98928,-0.193392,-37.2521
2023-03-11 22:55:38:595,0.0105479,1.37871,-9.65717,-7.98106,-0.196685,-37.2443
2023-03-11 22:55:38:605,-0.0041681,1.37273,-9.67306,-7.97412,-0.201661,-37.2282
2023-03-11 22:55:38:615,-0.00707809,1.36369,-9.67144,-7.96384,-0.206295,-37.2173
2023-03-11 22:55:38:625,-0.0197692,1.35434,-9.65567,-7.95587,-0.212327,-37.2046
2023-03-11 22:55:38:635,-0.029061,1.34905,-9.64395,-7.94732,-0.219351,-37.193
2023-03-11 22:55:38:645,-0.0481933,1.34978,-9.63109,-7.94026,-0.225016,-37.1789
2023-03-11 22:55:38:655,-0.0646861,1.35365,-9.62835,-7.93298,-0.227944,-37.1682
2023-03-11 22:55:38:665,-0.0661863,1.35196,-9.65956,-7.93003,-0.230573,-37.1565
2023-03-11 22:55:38:675,-0.0784396,1.34886,-9.67646,-7.92859,-0.236911,-37.1456
2023-03-11 22:55:38:685,-0.08412,1.36422,-9.68102,-7.92696,-0.243028,-37.1349
2023-03-11 22:55:38:695,-0.0946046,1.38893,-9.69784,-7.92666,-0.247787,-37.1248
2023-03-11 22:55:38:705,-0.114805,1.38625,-9.70176,-7.92821,-0.252051,-37.1171
2023-03-11 22:55:38:715,-0.120477,1.38573,-9.67499,-7.92856,-0.258252,-37.1144
2023-03-11 22:55:38:725,-0.126552,1.36859,-9.66202,-7.92417,-0.261189,-37.1121
2023-03-11 22:55:38:735,-0.124388,1.36052,-9.65908,-7.9222,-0.264065,-37.1109
2023-03-11 22:55:38:745,-0.115536,1.37222,-9.65924,-7.92177,-0.266074,-37.1114
2023-03-11 22:55:38:755,-0.105187,1.36897,-9.67725,-7.92516,-0.266764,-37.1173
2023-03-11 22:55:38:765,-0.101972,1.37299,-9.69557,-7.92765,-0.268567,-37.1253
2023-03-11 22:55:38:775,-0.109388,1.38621,-9.69702,-7.92747,-0.270177,-37.1339
2023-03-11 22:55:38:785,-0.100965,1.38352,-9.6919,-7.92482,-0.262648,-37.1413
2023-03-11 22:55:38:795,-0.10994,1.36831,-9.67818,-7.92157,-0.256936,-37.1486
2023-03-11 22:55:38:805,-0.113266,1.342,-9.65042,-7.91783,-0.249525,-37.162
2023-03-11 22:55:38:815,-0.104482,1.32695,-9.61684,-7.91629,-0.241425,-37.1777
2023-03-11 22:55:38:825,-0.0889321,1.33085,-9.60988,-7.9186,-0.239322,-37.1952
2023-03-11 22:55:38:835,-0.0612047,1.34866,-9.64109,-7.92555,-0.234001,-37.2156
2023-03-11 22:55:38:845,-0.0430092,1.38522,-9.67288,-7.94097,-0.226296,-37.2378
2023-03-11 22:55:38:855,-0.0343293,1.40191,-9.70307,-7.95216,-0.222311,-37.2594
2023-03-11 22:55:38:865,-0.0216107,1.40547,-9.70972,-7.96367,-0.218892,-37.2811
2023-03-11 22:55:38:875,-0.0190263,1.40637,-9.70805,-7.97451,-0.212756,-37.3071
2023-03-11 22:55:38:885,0.0231175,1.39621,-9.71664,-7.98354,-0.213945,-37.3306
2023-03-11 22:55:38:895,0.0590493,1.38822,-9.73701,-7.99136,-0.217103,-37.3531
2023-03-11 22:55:38:905,0.0430554,1.39347,-9.72031,-7.99899,-0.216156,-37.3739
2023-03-11 22:55:38:915,0.0580156,1.37912,-9.71026,-8.00356,-0.220579,-37.3933
2023-03-11 22:55:38:925,0.0303709,1.37156,-9.69183,-8.00301,-0.222004,-37.4079
2023-03-11 22:55:38:935,-0.00605374,1.3672,-9.68299,-8.00452,-0.227167,-37.4222
2023-03-11 22:55:38:945,0.0160433,1.3759,-9.68968,-8.00192,-0.231991,-37.4305
2023-03-11 22:55:38:955,-0.000646271,1.37996,-9.70267,-8.00375,-0.235535,-37.4401
2023-03-11 22:55:38:965,-0.030109,1.39291,-9.68465,-8.00252,-0.237475,-37.4466
2023-03-11 22:55:38:975,-0.0127615,1.38863,-9.6586,-8.00106,-0.23958,-37.4534
2023-03-11 22:55:38:985,-0.00408253,1.38266,-9.6645,-7.99945,-0.240775,-37.4594
2023-03-11 22:55:38:995,-0.0382895,1.37123,-9.68892,-7.99951,-0.243608,-37.4622
2023-03-11 22:55:39:5,-0.0265449,1.36469,-9.70524,-7.99529,-0.243147,-37.4663
2023-03-11 22:55:39:15,0.00461582,1.36795,-9.75233,-7.98973,-0.237434,-37.4662
2023-03-11 22:55:39:25,0.0291832,1.38131,-9.7684,-7.98597,-0.23626,-37.4716
2023-03-11 22:55:39:35,0.0382403,1.36725,-9.75211,-7.98465,-0.240132,-37.4702
2023-03-11 22:55:39:45,0.0122944,1.35316,-9.73765,-7.98235,-0.24895,-37.4648
2023-03-11 22:55:39:55,-0.0238474,1.38627,-9.72453,-7.97864,-0.256427,-37.4615
2023-03-11 22:55:39:65,-0.0662269,1.41192,-9.7015,-7.97825,-0.262866,-37.4581
2023-03-11 22:55:39:75,-0.0767721,1.42249,-9.68334,-7.97721,-0.268052,-37.4581
2023-03-11 22:55:39:85,-0.0772549,1.42482,-9.68165,-7.97364,-0.271608,-37.4592
2023-03-11 22:55:39:95,-0.0751564,1.44145,-9.66665,-7.97219,-0.27222,-37.4579
2023-03-11 22:55:39:105,-0.0849198,1.44603,-9.64466,-7.969,-0.27401,-37.458
2023-03-11 22:55:39:115,-0.106351,1.42896,-9.63202,-7.96186,-0.271905,-37.4645
2023-03-11 22:55:39:125,-0.114995,1.40617,-9.63498,-7.95313,-0.270047,-37.4708
2023-03-11 22:55:39:135,-0.10639,1.38003,-9.63526,-7.94276,-0.268912,-37.477
2023-03-11 22:55:39:145,-0.0909726,1.36663,-9.62765,-7.93368,-0.263604,-37.4834
2023-03-11 22:55:39:155,-0.0587776,1.35118,-9.63699,-7.92718,-0.257106,-37.4921
2023-03-11 22:55:39:165,-0.0429575,1.34963,-9.6421,-7.92103,-0.250218,-37.501
2023-03-11 22:55:39:175,-0.0282668,1.34362,-9.67266,-7.9188,-0.242371,-37.5084
2023-03-11 22:55:39:185,-0.0304431,1.34248,-9.696,-7.91394,-0.235099,-37.5154
2023-03-11 22:55:39:195,-0.0104926,1.37041,-9.68279,-7.91453,-0.228634,-37.5246
2023-03-11 22:55:39:205,0.0110582,1.36897,-9.68455,-7.91926,-0.217328,-37.5306
2023-03-11 22:55:39:215,-0.0237311,1.37262,-9.67593,-7.92123,-0.211033,-37.5375
2023-03-11 22:55:39:225,-0.0643009,1.37385,-9.69102,-7.92612,-0.203063,-37.5403
2023-03-11 22:55:39:235,-0.066355,1.39228,-9.69198,-7.92687,-0.193662,-37.5492
2023-03-11 22:55:39:245,-0.0254015,1.4023,-9.74676,-7.93121,-0.182622,-37.5585
2023-03-11 22:55:39:255,0.0383273,1.39686,-9.76906,-7.92742,-0.170986,-37.5678
2023-03-11 22:55:39:265,0.0518851,1.36942,-9.73132,-7.92293,-0.164504,-37.5746
2023-03-11 22:55:39:275,0.015341,1.35179,-9.70635,-7.91387,-0.160548,-37.5761
2023-03-11 22:55:39:285,-0.00858417,1.3511,-9.71209,-7.90124,-0.154436,-37.5778
2023-03-11 22:55:39:295,-0.00819592,1.36262,-9.70461,-7.88862,-0.154978,-37.582
2023-03-11 22:55:39:305,-0.00351251,1.34781,-9.69225,-7.8805,-0.155766,-37.5854
2023-03-11 22:55:39:315,0.00782992,1.33402,-9.69311,-7.86948,-0.152786,-37.5847
2023-03-11 22:55:39:325,0.00269212,1.3366,-9.71165,-7.86353,-0.151681,-37.5854
2023-03-11 22:55:39:335,-0.0108655,1.35318,-9.70332,-7.85524,-0.152741,-37.584
2023-03-11 22:55:39:345,-0.00471456,1.35208,-9.71052,-7.85038,-0.153423,-37.5821
2023-03-11 22:55:39:355,-0.0109084,1.34845,-9.7132,-7.83993,-0.154755,-37.58
2023-03-11 22:55:39:365,-0.0092488,1.35366,-9.71316,-7.83007,-0.154002,-37.5761
2023-03-11 22:55:39:375,-0.0251735,1.36195,-9.72813,-7.81552,-0.152086,-37.5742
2023-03-11 22:55:39:385,-0.0439356,1.34749,-9.71049,-7.80207,-0.152218,-37.5691
2023-03-11 22:55:39:395,-0.0437697,1.32468,-9.69634,-7.78199,-0.154852,-37.5649
2023-03-11 22:55:39:405,-0.0426557,1.32523,-9.68662,-7.76665,-0.155235,-37.5615
2023-03-11 22:55:39:415,-0.0316518,1.32167,-9.66967,-7.7538,-0.155194,-37.5593
2023-03-11 22:55:39:425,-0.0248232,1.30804,-9.66002,-7.73493,-0.157083,-37.5578
2023-03-11 22:55:39:435,-0.0226359,1.295,-9.64723,-7.72117,-0.15768,-37.5545
2023-03-11 22:55:39:445,-0.00622759,1.30258,-9.6627,-7.70955,-0.158657,-37.5511
2023-03-11 22:55:39:455,-0.0077975,1.31787,-9.6665,-7.70218,-0.161185,-37.5477
2023-03-11 22:55:39:465,-0.040822,1.31167,-9.6563,-7.69529,-0.16353,-37.5415
2023-03-11 22:55:39:475,-0.0601295,1.31336,-9.64531,-7.6858,-0.161931,-37.5381
2023-03-11 22:55:39:485,-0.0658146,1.33435,-9.65599,-7.6781,-0.166579,-37.5382
2023-03-11 22:55:39:495,-0.0545622,1.34273,-9.69397,-7.67359,-0.169141,-37.5383
2023-03-11 22:55:39:505,-0.0383117,1.36958,-9.71456,-7.66937,-0.167868,-37.539
2023-03-11 22:55:39:515,-0.0197224,1.37283,-9.7319,-7.66205,-0.167595,-37.54
2023-03-11 22:55:39:525,-0.0104231,1.36176,-9.72374,-7.65301,-0.162904,-37.5394
2023-03-11 22:55:39:535,-0.0256407,1.34399,-9.70815,-7.64137,-0.158309,-37.5355
2023-03-11 22:55:39:545,-0.0162928,1.32046,-9.69304,-7.62968,-0.157083,-37.5304
2023-03-11 22:55:39:555,-0.014381,1.31691,-9.65449,-7.61832,-0.150205,-37.5288
2023-03-11 22:55:39:565,-0.0323073,1.294,-9.65086,-7.6088,-0.144436,-37.5269
2023-03-11 22:55:39:575,-0.027948,1.29652,-9.63582,-7.6018,-0.143802,-37.521
2023-03-11 22:55:39:585,-0.0158613,1.29711,-9.65405,-7.59625,-0.143249,-37.5195
2023-03-11 22:55:39:595,-0.00915938,1.29811,-9.67109,-7.58952,-0.141975,-37.5215
2023-03-11 22:55:39:605,0.00110677,1.30203,-9.69377,-7.58687,-0.139709,-37.5194
2023-03-11 22:55:39:615,0.00657911,1.31678,-9.70291,-7.58442,-0.136397,-37.5227
2023-03-11 22:55:39:625,0.00984813,1.31289,-9.6987,-7.58216,-0.136056,-37.5222
2023-03-11 22:55:39:635,0.0178036,1.29885,-9.68996,-7.57891,-0.135146,-37.5229
2023-03-11 22:55:39:645,0.0214417,1.28653,-9.68693,-7.57339,-0.135142,-37.5234
2023-03-11 22:55:39:655,0.0244288,1.28832,-9.68356,-7.5692,-0.138042,-37.5176
2023-03-11 22:55:39:665,0.012641,1.2865,-9.66931,-7.56461,-0.139205,-37.5096
2023-03-11 22:55:39:675,0.000559839,1.28511,-9.68378,-7.55808,-0.142765,-37.5073
2023-03-11 22:55:39:685,-0.0315373,1.29725,-9.70761,-7.55342,-0.142542,-37.5
2023-03-11 22:55:39:695,-0.0418748,1.30348,-9.74129,-7.54968,-0.141508,-37.4926
2023-03-11 22:55:39:705,-0.0295734,1.31825,-9.74004,-7.54365,-0.146682,-37.4876
2023-03-11 22:55:39:715,-0.0332479,1.30715,-9.71333,-7.53432,-0.148088,-37.4815
2023-03-11 22:55:39:725,-0.0254002,1.30318,-9.68823,-7.52517,-0.14747,-37.478
2023-03-11 22:55:39:735,-0.0379679,1.29315,-9.67807,-7.5151,-0.147371,-37.4782
2023-03-11 22:55:39:745,-0.0630667,1.28314,-9.66542,-7.50445,-0.147281,-37.4794
2023-03-11 22:55:39:755,-0.0539745,1.26063,-9.68366,-7.49664,-0.149022,-37.4796
2023-03-11 22:55:39:765,0.00278767,1.27513,-9.73999,-7.49115,-0.149959,-37.485
2023-03-11 22:55:39:775,0.0693264,1.26581,-9.76604,-7.48576,-0.151339,-37.488
2023-03-11 22:55:39:785,0.0923347,1.24947,-9.74624,-7.4763,-0.157989,-37.483
2023-03-11 22:55:39:795,0.0457997,1.24394,-9.69176,-7.46593,-0.167331,-37.474
2023-03-11 22:55:39:805,0.0185019,1.25867,-9.66168,-7.46304,-0.181639,-37.4659
2023-03-11 22:55:39:815,0.0159395,1.29272,-9.67498,-7.46241,-0.193999,-37.455
2023-03-11 22:55:39:825,-0.00552726,1.31764,-9.68613,-7.46284,-0.200188,-37.4453
2023-03-11 22:55:39:835,-0.0176233,1.32237,-9.67556,-7.46286,-0.208534,-37.4333
2023-03-11 22:55:39:845,-0.0303128,1.33117,-9.67629,-7.46315,-0.211242,-37.4197
2023-03-11 22:55:39:855,-0.0522995,1.34508,-9.69058,-7.46036,-0.215103,-37.4041
2023-03-11 22:55:39:865,-0.0644877,1.34553,-9.67374,-7.45185,-0.220583,-37.3882
2023-03-11 22:55:39:875,-0.0793612,1.33988,-9.65684,-7.44732,-0.223304,-37.3776
2023-03-11 22:55:39:885,-0.0832185,1.33253,-9.67372,-7.43718,-0.223995,-37.3729
2023-03-11 22:55:39:895,-0.0639576,1.32016,-9.66802,-7.42555,-0.222047,-37.3698
2023-03-11 22:55:39:905,-0.0739059,1.29849,-9.64987,-7.413,-0.220509,-37.3648
2023-03-11 22:55:39:915,-0.0550079,1.2717,-9.67379,-7.40433,-0.222114,-37.3629
2023-03-11 22:55:39:925,-0.0354664,1.27935,-9.71112,-7.39883,-0.223849,-37.3602
2023-03-11 22:55:39:935,-0.0298719,1.29245,-9.73778,-7.39178,-0.223618,-37.356
2023-03-11 22:55:39:945,-0.0439277,1.30989,-9.74203,-7.38539,-0.225181,-37.356
2023-03-11 22:55:39:955,-0.0512919,1.31283,-9.74578,-7.37644,-0.230505,-37.3586
2023-03-11 22:55:39:965,-0.0450375,1.30934,-9.75118,-7.36908,-0.23364,-37.3643
2023-03-11 22:55:39:975,-0.0393084,1.32364,-9.75846,-7.36499,-0.237796,-37.3685
2023-03-11 22:55:39:985,-0.00419714,1.34508,-9.74488,-7.35374,-0.238069,-37.3756
2023-03-11 22:55:39:995,0.0851675,1.32643,-9.72633,-7.34006,-0.229569,-37.3799
2023-03-11 22:55:40:5,0.1653,1.25475,-9.77226,-7.32371,-0.215279,-37.374
2023-03-11 22:55:40:15,0.102712,1.26413,-9.81077,-7.30343,-0.215774,-37.359
2023-03-11 22:55:40:25,-0.00807647,1.28198,-9.74664,-7.2825,-0.226655,-37.3474
2023-03-11 22:55:40:35,-0.0596959,1.21087,-9.61809,-7.25406,-0.238739,-37.3379
2023-03-11 22:55:40:45,-0.0941077,1.18459,-9.55195,-7.23008,-0.254278,-37.3282
2023-03-11 22:55:40:55,-0.0927217,1.18744,-9.55717,-7.21652,-0.271294,-37.3189
2023-03-11 22:55:40:65,-0.0677485,1.18086,-9.6017,-7.21042,-0.281371,-37.313
2023-03-11 22:55:40:75,-0.0412882,1.17769,-9.66997,-7.21222,-0.291062,-37.3058
2023-03-11 22:55:40:85,-0.0337811,1.22876,-9.73255,-7.20987,-0.296487,-37.2952
2023-03-11 22:55:40:95,-0.0537957,1.24835,-9.75841,-7.20588,-0.304534,-37.2821
2023-03-11 22:55:40:105,-0.0911381,1.23712,-9.69483,-7.19597,-0.312984,-37.2723
2023-03-11 22:55:40:115,-0.101539,1.21573,-9.65079,-7.18825,-0.319319,-37.2636
2023-03-11 22:55:40:125,-0.116833,1.23144,-9.67173,-7.18457,-0.320311,-37.2538
2023-03-11 22:55:40:135,-0.132731,1.24396,-9.70068,-7.18237,-0.320606,-37.249
2023-03-11 22:55:40:145,-0.15226,1.22153,-9.67488,-7.18162,-0.3263,-37.2445
2023-03-11 22:55:40:155,-0.140563,1.20772,-9.64791,-7.18077,-0.328643,-37.2442
2023-03-11 22:55:40:165,-0.105093,1.20491,-9.66133,-7.18136,-0.334703,-37.2441
2023-03-11 22:55:40:175,-0.0685551,1.20953,-9.69761,-7.18486,-0.341907,-37.2445
2023-03-11 22:55:40:185,-0.0644023,1.23136,-9.70522,-7.18746,-0.347087,-37.2471
2023-03-11 22:55:40:195,-0.0550444,1.22817,-9.69394,-7.19135,-0.352241,-37.2493
2023-03-11 22:55:40:205,-0.0633087,1.23392,-9.67473,-7.19361,-0.355885,-37.2481
2023-03-11 22:55:40:215,-0.078894,1.24223,-9.68776,-7.19998,-0.363923,-37.2496
2023-03-11 22:55:40:225,-0.0746763,1.25154,-9.69718,-7.20923,-0.366255,-37.2485
2023-03-11 22:55:40:235,-0.072656,1.26197,-9.69685,-7.21672,-0.366284,-37.2464
2023-03-11 22:55:40:245,-0.0800339,1.26465,-9.69175,-7.22253,-0.365854,-37.2463
2023-03-11 22:55:40:255,-0.0682958,1.2607,-9.69583,-7.22905,-0.364378,-37.2447
2023-03-11 22:55:40:265,-0.0660615,1.26486,-9.70635,-7.23367,-0.360085,-37.2397
2023-03-11 22:55:40:275,-0.0605858,1.27045,-9.70035,-7.23563,-0.350441,-37.236
2023-03-11 22:55:40:285,-0.0552557,1.26909,-9.70981,-7.23867,-0.343029,-37.2384
2023-03-11 22:55:40:295,-0.0650046,1.27899,-9.72501,-7.24264,-0.339853,-37.2399
2023-03-11 22:55:40:305,-0.076022,1.28931,-9.71619,-7.24594,-0.333681,-37.2391
2023-03-11 22:55:40:315,-0.0742133,1.28838,-9.73381,-7.24633,-0.328957,-37.2442
2023-03-11 22:55:40:325,-0.0505612,1.28605,-9.73445,-7.24792,-0.323252,-37.252
2023-03-11 22:55:40:335,-0.0387694,1.27861,-9.72326,-7.24792,-0.319425,-37.2573
2023-03-11 22:55:40:345,-0.0394732,1.26218,-9.72333,-7.24877,-0.318703,-37.2646
2023-03-11 22:55:40:355,-0.0252685,1.24998,-9.70523,-7.24731,-0.318315,-37.2758
2023-03-11 22:55:40:365,0.00692726,1.24252,-9.68646,-7.2482,-0.321438,-37.2821
2023-03-11 22:55:40:375,0.0303455,1.22126,-9.66956,-7.24728,-0.323414,-37.2861
2023-03-11 22:55:40:385,0.0380856,1.2341,-9.68853,-7.24803,-0.326815,-37.2846
2023-03-11 22:55:40:395,0.0351926,1.27088,-9.71182,-7.25211,-0.332989,-37.2795
2023-03-11 22:55:40:405,0.0270185,1.25912,-9.71833,-7.25206,-0.334882,-37.272
2023-03-11 22:55:40:415,0.00196084,1.24922,-9.72183,-7.24994,-0.338702,-37.2611
2023-03-11 22:55:40:425,-0.0366881,1.25311,-9.72461,-7.24968,-0.342571,-37.2499
2023-03-11 22:55:40:435,-0.0553788,1.25429,-9.70576,-7.24637,-0.34344,-37.236
2023-03-11 22:55:40:445,-0.076232,1.24773,-9.70307,-7.24509,-0.34841,-37.2227
2023-03-11 22:55:40:455,-0.0958222,1.25307,-9.71596,-7.24668,-0.351394,-37.2146
2023-03-11 22:55:40:465,-0.0882841,1.25248,-9.71928,-7.24083,-0.354064,-37.208
2023-03-11 22:55:40:475,-0.0887275,1.26229,-9.70585,-7.23776,-0.352662,-37.2002
2023-03-11 22:55:40:485,-0.110346,1.2389,-9.70226,-7.23504,-0.354759,-37.1954
2023-03-11 22:55:40:495,-0.107312,1.22222,-9.67543,-7.23069,-0.352277,-37.1933
2023-03-11 22:55:40:505,-0.0623134,1.21277,-9.6778,-7.22652,-0.349632,-37.1942
2023-03-11 22:55:40:515,-0.00105376,1.21105,-9.72648,-7.22747,-0.3511,-37.1972
2023-03-11 22:55:40:525,0.0312486,1.21217,-9.72958,-7.22461,-0.358251,-37.1957
2023-03-11 22:55:40:535,-0.012351,1.22336,-9.71042,-7.22362,-0.371394,-37.1938
2023-03-11 22:55:40:545,-0.0416114,1.2295,-9.70276,-7.2238,-0.388545,-37.1909
2023-03-11 22:55:40:555,-0.0523299,1.24327,-9.68365,-7.22731,-0.399606,-37.1876
2023-03-11 22:55:40:565,-0.0658596,1.25518,-9.68705,-7.23441,-0.407956,-37.1818
2023-03-11 22:55:40:575,-0.0751117,1.27075,-9.69523,-7.23985,-0.415051,-37.1736
2023-03-11 22:55:40:585,-0.0704438,1.27721,-9.68939,-7.24483,-0.420292,-37.1665
2023-03-11 22:55:40:595,-0.0842918,1.27364,-9.6941,-7.24709,-0.420271,-37.1584
2023-03-11 22:55:40:605,-0.102731,1.28241,-9.68973,-7.24837,-0.419544,-37.1485
2023-03-11 22:55:40:615,-0.115761,1.28095,-9.68009,-7.24737,-0.418501,-37.1459
2023-03-11 22:55:40:625,-0.140941,1.27271,-9.66607,-7.24634,-0.419471,-37.1433
2023-03-11 22:55:40:635,-0.138986,1.26846,-9.66656,-7.24598,-0.420151,-37.1419
2023-03-11 22:55:40:645,-0.121919,1.2538,-9.68695,-7.24501,-0.418331,-37.1444
2023-03-11 22:55:40:655,-0.0892683,1.25509,-9.69703,-7.24239,-0.415694,-37.1481
2023-03-11 22:55:40:665,-0.0728046,1.26604,-9.71366,-7.24332,-0.412159,-37.1551
2023-03-11 22:55:40:675,-0.0826873,1.27911,-9.72255,-7.24505,-0.408089,-37.1611
2023-03-11 22:55:40:685,-0.0740234,1.26328,-9.71769,-7.24433,-0.403814,-37.1693
2023-03-11 22:55:40:695,-0.0494594,1.2597,-9.70494,-7.24635,-0.398486,-37.1773
2023-03-11 22:55:40:705,-0.0304508,1.25449,-9.71663,-7.24881,-0.392591,-37.1849
2023-03-11 22:55:40:715,-0.0416742,1.26145,-9.72783,-7.25306,-0.387859,-37.1932
2023-03-11 22:55:40:725,-0.0780126,1.25662,-9.70828,-7.25191,-0.383673,-37.1982
2023-03-11 22:55:40:735,-0.0764041,1.28219,-9.72936,-7.25497,-0.381246,-37.2057
2023-03-11 22:55:40:745,-0.0220737,1.28942,-9.76169,-7.25632,-0.379843,-37.2157
2023-03-11 22:55:40:755,0.029391,1.28386,-9.75677,-7.25216,-0.377648,-37.2235
2023-03-11 22:55:40:764,0.0215224,1.2667,-9.74742,-7.24907,-0.376472,-37.2285
2023-03-11 22:55:40:775,-0.00414192,1.24578,-9.7447,-7.24172,-0.378032,-37.2312
2023-03-11 22:55:40:785,-0.0302352,1.24285,-9.70806,-7.23007,-0.385279,-37.2325
2023-03-11 22:55:40:795,-0.0377134,1.23374,-9.6939,-7.22281,-0.388176,-37.2319
2023-03-11 22:55:40:805,-0.0468345,1.20667,-9.69927,-7.21556,-0.391404,-37.2301
2023-03-11 22:55:40:815,-0.0466442,1.21219,-9.7014,-7.20951,-0.391879,-37.2274
2023-03-11 22:55:40:825,-0.0344364,1.24089,-9.71198,-7.20421,-0.395043,-37.2235
2023-03-11 22:55:40:835,-0.0629837,1.23472,-9.70556,-7.1995,-0.396943,-37.2182
2023-03-11 22:55:40:845,-0.0956491,1.23664,-9.68448,-7.19179,-0.396638,-37.2158
2023-03-11 22:55:40:855,-0.0983482,1.23555,-9.66918,-7.18612,-0.400346,-37.2142
2023-03-11 22:55:40:865,-0.102966,1.24067,-9.6802,-7.17993,-0.399658,-37.2142
2023-03-11 22:55:40:875,-0.098434,1.24715,-9.69287,-7.1762,-0.400055,-37.2127
2023-03-11 22:55:40:885,-0.103249,1.23715,-9.69991,-7.17391,-0.401556,-37.2124
2023-03-11 22:55:40:895,-0.105217,1.2401,-9.69211,-7.17096,-0.401298,-37.2143
2023-03-11 22:55:40:905,-0.0988021,1.24783,-9.69879,-7.16865,-0.40347,-37.2196
2023-03-11 22:55:40:915,-0.0923714,1.26049,-9.71076,-7.16711,-0.404805,-37.2242
2023-03-11 22:55:40:925,-0.0939061,1.25072,-9.69829,-7.1661,-0.408041,-37.2292
2023-03-11 22:55:40:935,-0.0751479,1.22985,-9.70155,-7.16251,-0.410148,-37.2349
2023-03-11 22:55:40:945,-0.0705167,1.23782,-9.68913,-7.15842,-0.413069,-37.2393
2023-03-11 22:55:40:955,-0.0765072,1.24141,-9.69071,-7.15594,-0.410325,-37.2385
2023-03-11 22:55:40:965,-0.0738623,1.23228,-9.68867,-7.15458,-0.410168,-37.2375
2023-03-11 22:55:40:975,-0.0805566,1.23299,-9.67943,-7.15138,-0.411084,-37.2402
2023-03-11 22:55:40:985,-0.0922226,1.24822,-9.67905,-7.15092,-0.407628,-37.2406
2023-03-11 22:55:40:995,-0.09274,1.25205,-9.69108,-7.15017,-0.401662,-37.2421
2023-03-11 22:55:41:5,-0.0983586,1.25956,-9.71573,-7.14861,-0.393222,-37.244
2023-03-11 22:55:41:15,-0.112384,1.2562,-9.73423,-7.14628,-0.39126,-37.2494
2023-03-11 22:55:41:25,-0.107022,1.25651,-9.72626,-7.14425,-0.384769,-37.2577
2023-03-11 22:55:41:35,-0.0986353,1.27549,-9.70778,-7.14266,-0.378915,-37.2685
2023-03-11 22:55:41:45,-0.0947104,1.25684,-9.72566,-7.13646,-0.372639,-37.2797
2023-03-11 22:55:41:55,-0.0689123,1.23949,-9.73111,-7.1271,-0.366591,-37.2905
2023-03-11 22:55:41:65,-0.0501367,1.22565,-9.73822,-7.11533,-0.363529,-37.3005
2023-03-11 22:55:41:75,-0.0333696,1.21417,-9.72097,-7.10499,-0.357183,-37.3109
2023-03-11 22:55:41:85,-0.00423566,1.20607,-9.70322,-7.09597,-0.347897,-37.3204
2023-03-11 22:55:41:95,0.0027222,1.19507,-9.67435,-7.08518,-0.34346,-37.332
2023-03-11 22:55:41:105,0.00246483,1.18772,-9.66042,-7.07522,-0.335161,-37.339
2023-03-11 22:55:41:115,0.0100604,1.19799,-9.66916,-7.07048,-0.328934,-37.3406
2023-03-11 22:55:41:125,0.00569641,1.20886,-9.6953,-7.06711,-0.323301,-37.3415
2023-03-11 22:55:41:135,-0.00505985,1.20572,-9.69509,-7.06582,-0.316191,-37.3399
2023-03-11 22:55:41:145,-0.014565,1.19779,-9.6935,-7.06359,-0.311826,-37.3381
2023-03-11 22:55:41:155,-0.0111148,1.20603,-9.67612,-7.0618,-0.308898,-37.3382
2023-03-11 22:55:41:165,-0.0226049,1.22361,-9.69281,-7.06359,-0.302999,-37.3359
2023-03-11 22:55:41:175,-0.038405,1.23735,-9.72988,-7.06031,-0.296449,-37.3294
2023-03-11 22:55:41:185,-0.06949,1.22705,-9.73308,-7.05526,-0.291086,-37.3269
2023-03-11 22:55:41:195,-0.0682109,1.21527,-9.70105,-7.0523,-0.286565,-37.3281
2023-03-11 22:55:41:205,-0.0522743,1.19578,-9.69333,-7.04789,-0.278538,-37.3305
2023-03-11 22:55:41:215,-0.0444901,1.17917,-9.65486,-7.043,-0.268206,-37.3337
2023-03-11 22:55:41:225,-0.0329723,1.15958,-9.64766,-7.03749,-0.26192,-37.3405
2023-03-11 22:55:41:235,-0.0379366,1.18098,-9.65932,-7.03794,-0.258264,-37.3434
2023-03-11 22:55:41:245,-0.0578017,1.19112,-9.68376,-7.04244,-0.250076,-37.3501
2023-03-11 22:55:41:255,-0.026876,1.19117,-9.70007,-7.0449,-0.241812,-37.3577
2023-03-11 22:55:41:265,0.0259393,1.19882,-9.72979,-7.04919,-0.231369,-37.3655
2023-03-11 22:55:41:275,0.063781,1.19265,-9.74071,-7.05542,-0.227444,-37.3753
2023-03-11 22:55:41:285,0.0786,1.20228,-9.75137,-7.06471,-0.23243,-37.381
2023-03-11 22:55:41:295,0.0569963,1.23319,-9.76519,-7.07068,-0.238468,-37.3811
2023-03-11 22:55:41:305,0.0276368,1.25867,-9.76549,-7.077,-0.244799,-37.3768
2023-03-11 22:55:41:315,0.0103815,1.24766,-9.71551,-7.08095,-0.249316,-37.3689
2023-03-11 22:55:41:325,-0.008085,1.24197,-9.69379,-7.08268,-0.253498,-37.3608
2023-03-11 22:55:41:335,-0.0095691,1.25002,-9.67019,-7.08835,-0.255719,-37.351
2023-03-11 22:55:41:345,-0.0256659,1.24596,-9.67544,-7.09414,-0.254282,-37.3382
2023-03-11 22:55:41:355,-0.0391271,1.26432,-9.66338,-7.09891,-0.251385,-37.3261
2023-03-11 22:55:41:365,-0.0669335,1.26029,-9.67492,-7.10171,-0.243244,-37.3121
2023-03-11 22:55:41:375,-0.0920609,1.27016,-9.69361,-7.10554,-0.238854,-37.304
2023-03-11 22:55:41:385,-0.0940155,1.28045,-9.69949,-7.10758,-0.23166,-37.2962
2023-03-11 22:55:41:395,-0.0928909,1.26537,-9.70162,-7.10768,-0.228156,-37.2941
2023-03-11 22:55:41:405,-0.0885348,1.25765,-9.68352,-7.10667,-0.223253,-37.2945
2023-03-11 22:55:41:415,-0.0791059,1.25404,-9.69505,-7.10736,-0.216676,-37.2993
2023-03-11 22:55:41:425,-0.0524725,1.24195,-9.7145,-7.1065,-0.213362,-37.3051
2023-03-11 22:55:41:435,-0.0222629,1.24032,-9.72065,-7.10778,-0.204681,-37.3128
2023-03-11 22:55:41:445,-0.00275023,1.23352,-9.70865,-7.10545,-0.19865,-37.316
2023-03-11 22:55:41:455,0.0415067,1.22324,-9.71385,-7.10727,-0.1986,-37.3251
2023-03-11 22:55:41:465,0.0494061,1.22011,-9.7144,-7.10863,-0.196,-37.332
2023-03-11 22:55:41:475,0.0253528,1.21745,-9.68467,-7.10886,-0.19798,-37.3368
2023-03-11 22:55:41:485,0.0226524,1.224,-9.70741,-7.10948,-0.198301,-37.3398
2023-03-11 22:55:41:495,0.0477071,1.24355,-9.76165,-7.11306,-0.196473,-37.3407
2023-03-11 22:55:41:505,0.0864552,1.25218,-9.77841,-7.10746,-0.194271,-37.3411
2023-03-11 22:55:41:515,0.0726631,1.23644,-9.76463,-7.10736,-0.192984,-37.3351
2023-03-11 22:55:41:525,0.025777,1.227,-9.75044,-7.10197,-0.193394,-37.324
2023-03-11 22:55:41:535,-0.00769333,1.23916,-9.71988,-7.09564,-0.200145,-37.314
2023-03-11 22:55:41:545,-0.0191278,1.22931,-9.7189,-7.08737,-0.205617,-37.306
2023-03-11 22:55:41:555,-0.0328939,1.20355,-9.71011,-7.08078,-0.211437,-37.298
2023-03-11 22:55:41:565,-0.0389161,1.19938,-9.70077,-7.07094,-0.214516,-37.2886
2023-03-11 22:55:41:575,-0.0315005,1.19987,-9.69866,-7.06258,-0.218775,-37.2823
2023-03-11 22:55:41:585,-0.0370119,1.2008,-9.69244,-7.05593,-0.223454,-37.2745
2023-03-11 22:55:41:595,-0.0492969,1.20486,-9.67545,-7.0501,-0.2303,-37.2676
2023-03-11 22:55:41:605,-0.0466942,1.19424,-9.6695,-7.04696,-0.237753,-37.2628
2023-03-11 22:55:41:615,-0.0235504,1.19003,-9.68644,-7.04254,-0.24173,-37.2597
2023-03-11 22:55:41:625,-0.0249471,1.18975,-9.67985,-7.03774,-0.243702,-37.2556
2023-03-11 22:55:41:635,-0.0354702,1.19333,-9.65306,-7.03812,-0.246727,-37.2511
2023-03-11 22:55:41:645,-0.0360679,1.1953,-9.66734,-7.03632,-0.250773,-37.2479
2023-03-11 22:55:41:655,-0.03266,1.20863,-9.68482,-7.03377,-0.252452,-37.2416
2023-03-11 22:55:41:665,-0.0282438,1.20436,-9.69994,-7.03753,-0.257231,-37.2368
2023-03-11 22:55:41:675,-0.0392999,1.19327,-9.68183,-7.03627,-0.259508,-37.2326
2023-03-11 22:55:41:685,-0.050498,1.19155,-9.67447,-7.03698,-0.264151,-37.225
2023-03-11 22:55:41:695,-0.0487095,1.20085,-9.68615,-7.03785,-0.267254,-37.2183
2023-03-11 22:55:41:705,-0.0440636,1.22035,-9.68313,-7.04443,-0.270002,-37.2098
2023-03-11 22:55:41:715,-0.0563225,1.22554,-9.69439,-7.04865,-0.2765,-37.2062
2023-03-11 22:55:41:725,-0.0577581,1.25096,-9.7156,-7.05565,-0.281005,-37.2024
2023-03-11 22:55:41:735,-0.077667,1.25357,-9.72928,-7.06071,-0.282963,-37.1997
2023-03-11 22:55:41:745,-0.0857673,1.24883,-9.71977,-7.06491,-0.287791,-37.1972
2023-03-11 22:55:41:755,-0.0844356,1.25211,-9.72174,-7.06567,-0.288571,-37.1987
2023-03-11 22:55:41:765,-0.0828831,1.26075,-9.72245,-7.06946,-0.294783,-37.1982
2023-03-11 22:55:41:775,-0.0922816,1.26118,-9.69793,-7.06774,-0.295646,-37.2
2023-03-11 22:55:41:785,-0.0885176,1.25527,-9.69477,-7.06605,-0.297927,-37.2001
2023-03-11 22:55:41:795,-0.0882474,1.23667,-9.70588,-7.06568,-0.298806,-37.2022
2023-03-11 22:55:41:805,-0.0651778,1.23263,-9.70066,-7.06156,-0.296023,-37.2062
2023-03-11 22:55:41:815,-0.0641791,1.2342,-9.7058,-7.05647,-0.293618,-37.2116
2023-03-11 22:55:41:825,-0.0573459,1.23952,-9.7231,-7.05158,-0.290811,-37.2203
2023-03-11 22:55:41:835,-0.0401493,1.23531,-9.74005,-7.0499,-0.286326,-37.223
2023-03-11 22:55:41:845,-0.0385185,1.22662,-9.72234,-7.04201,-0.285289,-37.2268
2023-03-11 22:55:41:855,-0.0223296,1.21247,-9.69816,-7.03555,-0.283442,-37.2315
2023-03-11 22:55:41:865,-0.01052,1.20569,-9.6949,-7.02747,-0.280258,-37.2379
2023-03-11 22:55:41:875,-0.00321814,1.20559,-9.69724,-7.02111,-0.277661,-37.2395
2023-03-11 22:55:41:885,0.00675038,1.20811,-9.67366,-7.01458,-0.276693,-37.2386
2023-03-11 22:55:41:895,0.0101701,1.20315,-9.6723,-7.01143,-0.275373,-37.2399
2023-03-11 22:55:41:905,0.00796668,1.21101,-9.68076,-7.00892,-0.276106,-37.2397
2023-03-11 22:55:41:915,0.00364588,1.20772,-9.70278,-7.00275,-0.276381,-37.2351
2023-03-11 22:55:41:925,-0.0183631,1.19288,-9.7118,-7.00389,-0.276896,-37.2268
2023-03-11 22:55:41:935,-0.0287595,1.20755,-9.72321,-7.00116,-0.279281,-37.2196
2023-03-11 22:55:41:945,-0.0190332,1.20488,-9.72614,-6.99812,-0.282439,-37.2101
2023-03-11 22:55:41:955,-0.0369578,1.2015,-9.71661,-6.99475,-0.287449,-37.2034
2023-03-11 22:55:41:965,-0.0662488,1.20107,-9.69747,-6.993,-0.292526,-37.1933
2023-03-11 22:55:41:975,-0.0585905,1.20513,-9.68044,-6.98973,-0.296629,-37.1869
2023-03-11 22:55:41:985,-0.0523047,1.21571,-9.69209,-6.98594,-0.297325,-37.183
2023-03-11 22:55:41:995,-0.0748133,1.19223,-9.70975,-6.9789,-0.302311,-37.1771
2023-03-11 22:55:42:5,-0.0775813,1.19542,-9.72337,-6.97359,-0.30379,-37.1733
2023-03-11 22:55:42:15,-0.0343527,1.20328,-9.76598,-6.9688,-0.305239,-37.173
2023-03-11 22:55:42:25,0.00988276,1.19274,-9.77434,-6.96491,-0.31223,-37.17
2023-03-11 22:55:42:35,0.00435808,1.17512,-9.72015,-6.95868,-0.321734,-37.1644
2023-03-11 22:55:42:45,-0.03282,1.17243,-9.68152,-6.9537,-0.332947,-37.1587
2023-03-11 22:55:42:55,-0.0674267,1.18595,-9.67303,-6.95284,-0.345194,-37.1502
2023-03-11 22:55:42:65,-0.076807,1.20993,-9.68125,-6.9544,-0.353342,-37.146
2023-03-11 22:55:42:75,-0.0864622,1.22637,-9.69097,-6.95845,-0.363607,-37.1374
2023-03-11 22:55:42:85,-0.0935774,1.24505,-9.69042,-6.9632,-0.365987,-37.1324
2023-03-11 22:55:42:95,-0.0967832,1.25264,-9.70471,-6.96392,-0.365905,-37.1258
2023-03-11 22:55:42:105,-0.109124,1.26671,-9.70863,-6.96393,-0.36845,-37.1219
2023-03-11 22:55:42:115,-0.121297,1.26692,-9.69001,-6.96,-0.364893,-37.117
2023-03-11 22:55:42:125,-0.118776,1.22719,-9.65493,-6.95269,-0.364659,-37.1169
2023-03-11 22:55:42:135,-0.105221,1.18966,-9.63646,-6.9454,-0.360987,-37.1141
2023-03-11 22:55:42:145,-0.0805249,1.17242,-9.63923,-6.93805,-0.352604,-37.118
2023-03-11 22:55:42:155,-0.0646785,1.17734,-9.65646,-6.93435,-0.345475,-37.1249
2023-03-11 22:55:42:165,-0.0588057,1.1683,-9.68585,-6.93315,-0.340159,-37.1312
2023-03-11 22:55:42:175,-0.0505532,1.17512,-9.70627,-6.93815,-0.335936,-37.1388
2023-03-11 22:55:42:185,-0.0349196,1.19394,-9.70855,-6.94115,-0.329697,-37.1446
2023-03-11 22:55:42:195,-0.0195971,1.18767,-9.70779,-6.94615,-0.324084,-37.1498
2023-03-11 22:55:42:205,-0.0129648,1.1973,-9.70577,-6.95285,-0.318548,-37.1533
2023-03-11 22:55:42:215,-0.0365029,1.21498,-9.72022,-6.95955,-0.314219,-37.1581
2023-03-11 22:55:42:225,-0.0625897,1.22324,-9.72843,-6.96449,-0.305803,-37.1602
2023-03-11 22:55:42:235,-0.055728,1.23682,-9.74511,-6.96973,-0.298848,-37.1647
2023-03-11 22:55:42:245,0.00131755,1.24887,-9.7758,-6.97247,-0.290959,-37.1728
2023-03-11 22:55:42:255,0.0333103,1.22378,-9.77787,-6.96734,-0.285567,-37.1773
2023-03-11 22:55:42:265,0.0151942,1.20683,-9.74043,-6.96384,-0.284074,-37.18
2023-03-11 22:55:42:275,-0.0233941,1.2099,-9.72535,-6.95741,-0.286223,-37.1834
2023-03-11 22:55:42:285,-0.019979,1.19977,-9.7393,-6.95095,-0.290938,-37.1845
2023-03-11 22:55:42:295,0.0031535,1.21588,-9.73021,-6.94513,-0.294615,-37.1879
2023-03-11 22:55:42:305,-0.000593116,1.20212,-9.72588,-6.93659,-0.300491,-37.1876
2023-03-11 22:55:42:315,-0.00181513,1.18178,-9.71253,-6.93047,-0.305544,-37.1871
2023-03-11 22:55:42:325,0.000920956,1.18066,-9.70217,-6.92211,-0.310366,-37.1854
2023-03-11 22:55:42:335,-0.00718459,1.18422,-9.69723,-6.91311,-0.316873,-37.1785
2023-03-11 22:55:42:345,-0.02861,1.18878,-9.68665,-6.90415,-0.32058,-37.1719
2023-03-11 22:55:42:355,-0.0412619,1.17383,-9.68059,-6.89588,-0.325299,-37.164
2023-03-11 22:55:42:365,-0.0444496,1.16296,-9.68627,-6.89362,-0.329412,-37.1545
2023-03-11 22:55:42:375,-0.0568451,1.17046,-9.6917,-6.88972,-0.332417,-37.1419
2023-03-11 22:55:42:385,-0.0690744,1.18117,-9.69487,-6.88697,-0.332412,-37.1335
2023-03-11 22:55:42:395,-0.0905713,1.18679,-9.69249,-6.88317,-0.334636,-37.125
2023-03-11 22:55:42:405,-0.103047,1.1908,-9.69132,-6.88204,-0.340683,-37.1181
2023-03-11 22:55:42:415,-0.11318,1.1975,-9.68443,-6.87943,-0.343567,-37.1141
2023-03-11 22:55:42:425,-0.112827,1.19616,-9.6927,-6.87825,-0.350407,-37.1087
2023-03-11 22:55:42:435,-0.113632,1.19027,-9.68674,-6.87511,-0.356993,-37.1073
2023-03-11 22:55:42:445,-0.105123,1.20292,-9.67878,-6.87795,-0.359196,-37.1071
2023-03-11 22:55:42:455,-0.103048,1.20218,-9.69194,-6.88234,-0.361867,-37.1092
2023-03-11 22:55:42:465,-0.101381,1.21426,-9.7063,-6.88801,-0.364291,-37.1105
2023-03-11 22:55:42:475,-0.0792721,1.22239,-9.7125,-6.8873,-0.365281,-37.1133
2023-03-11 22:55:42:485,-0.079673,1.23054,-9.72682,-6.88788,-0.363405,-37.1156
2023-03-11 22:55:42:495,-0.0912976,1.2246,-9.72724,-6.88862,-0.35982,-37.1192
2023-03-11 22:55:42:505,-0.0846169,1.21865,-9.71965,-6.88414,-0.353159,-37.1252
2023-03-11 22:55:42:515,-0.0721391,1.21769,-9.71928,-6.88097,-0.344722,-37.1299
2023-03-11 22:55:42:525,-0.0945011,1.20688,-9.70748,-6.87947,-0.337196,-37.1369
2023-03-11 22:55:42:535,-0.077201,1.19962,-9.7232,-6.87793,-0.330177,-37.1411
2023-03-11 22:55:42:545,-0.0594872,1.2124,-9.731,-6.87219,-0.322973,-37.1477
2023-03-11 22:55:42:555,-0.0516381,1.22631,-9.74641,-6.86888,-0.31608,-37.1536
2023-03-11 22:55:42:565,-0.0373141,1.21375,-9.75542,-6.8638,-0.30813,-37.1609
2023-03-11 22:55:42:575,-0.0158575,1.22027,-9.74139,-6.85843,-0.297458,-37.1664
2023-03-11 22:55:42:585,-0.0138212,1.21086,-9.7352,-6.85173,-0.291304,-37.1744
2023-03-11 22:55:42:595,-0.0159395,1.20326,-9.71242,-6.84047,-0.28384,-37.1828
2023-03-11 22:55:42:605,-0.0111294,1.18334,-9.68713,-6.83177,-0.278044,-37.1891
2023-03-11 22:55:42:615,-0.0107487,1.15437,-9.68106,-6.82168,-0.27319,-37.1932
2023-03-11 22:55:42:625,-0.0155186,1.14684,-9.66896,-6.81516,-0.266149,-37.1981
2023-03-11 22:55:42:635,-0.0131959,1.14255,-9.66304,-6.80484,-0.262264,-37.2002
2023-03-11 22:55:42:645,-0.00936292,1.15519,-9.6784,-6.79688,-0.257707,-37.2013
2023-03-11 22:55:42:655,-0.0130809,1.16758,-9.70317,-6.79431,-0.252161,-37.2021
2023-03-11 22:55:42:665,-0.00613258,1.16381,-9.72408,-6.79007,-0.248714,-37.2009
2023-03-11 22:55:42:675,0.000139287,1.14841,-9.71539,-6.78449,-0.242015,-37.2015
2023-03-11 22:55:42:685,-0.024233,1.15721,-9.69692,-6.7804,-0.234644,-37.2001
2023-03-11 22:55:42:695,-0.0411967,1.15665,-9.67475,-6.77661,-0.231501,-37.2001
2023-03-11 22:55:42:705,-0.0298153,1.13241,-9.66761,-6.77242,-0.226977,-37.1984
2023-03-11 22:55:42:715,-0.0464064,1.11455,-9.67554,-6.76786,-0.221304,-37.1949
2023-03-11 22:55:42:725,-0.0575301,1.11048,-9.68189,-6.76309,-0.216107,-37.1945
2023-03-11 22:55:42:735,-0.0319972,1.13576,-9.72132,-6.7608,-0.206857,-37.1964
2023-03-11 22:55:42:745,0.00495518,1.15443,-9.77714,-6.76245,-0.200087,-37.201
2023-03-11 22:55:42:755,0.0392947,1.16412,-9.78048,-6.76288,-0.193997,-37.2031
2023-03-11 22:55:42:765,0.0265186,1.15027,-9.7358,-6.76242,-0.19224,-37.2004
2023-03-11 22:55:42:775,-0.013156,1.13694,-9.69515,-6.76188,-0.196716,-37.1971
2023-03-11 22:55:42:785,-0.0282708,1.16041,-9.69666,-6.76571,-0.201383,-37.1968
2023-03-11 22:55:42:795,-0.0314249,1.18974,-9.71819,-6.76972,-0.204116,-37.1982
