Timestamp,Acceleration_x,Acceleration_y,Acceleration_z,roll,pitch,yaw
2023-03-15 15:14:23:647,-0.605944,-1.60136,-9.70078,9.38571,-3.7842,3.72406
2023-03-15 15:14:23:655,-0.624742,-1.63529,-9.66089,9.38597,-3.78276,3.73374
2023-03-15 15:14:23:665,-0.650183,-1.63361,-9.62898,9.38517,-3.78008,3.74609
2023-03-15 15:14:23:675,-0.696876,-1.61745,-9.60009,9.38094,-3.77566,3.75988
2023-03-15 15:14:23:685,-0.721351,-1.57576,-9.54649,9.37241,-3.76885,3.77349
2023-03-15 15:14:23:695,-0.658356,-1.51917,-9.54093,9.35441,-3.75468,3.78516
2023-03-15 15:14:23:705,-0.57632,-1.47495,-9.61229,9.33916,-3.73761,3.78998
2023-03-15 15:14:23:715,-0.549431,-1.47722,-9.7209,9.32851,-3.72594,3.793
2023-03-15 15:14:23:725,-0.591869,-1.5086,-9.74343,9.32927,-3.72284,3.79368
2023-03-15 15:14:23:735,-0.687448,-1.57592,-9.64154,9.33652,-3.73127,3.79397
2023-03-15 15:14:23:745,-0.789002,-1.6709,-9.47696,9.34923,-3.74193,3.79319
2023-03-15 15:14:23:755,-0.865257,-1.69582,-9.3682,9.35291,-3.7573,3.78714
2023-03-15 15:14:23:765,-0.920762,-1.66328,-9.38701,9.3422,-3.76585,3.76738
2023-03-15 15:14:23:775,-0.916752,-1.60669,-9.45015,9.32124,-3.77081,3.72867
2023-03-15 15:14:23:785,-0.84688,-1.56928,-9.5409,9.28988,-3.76777,3.67962
2023-03-15 15:14:23:795,-0.794107,-1.53991,-9.62341,9.2508,-3.76225,3.61289
2023-03-15 15:14:23:805,-0.743067,-1.4859,-9.69133,9.20781,-3.75626,3.53835
2023-03-15 15:14:23:815,-0.64212,-1.40446,-9.70861,9.16483,-3.74676,3.45176
2023-03-15 15:14:23:825,-0.507869,-1.39516,-9.68612,9.13055,-3.7261,3.35924
2023-03-15 15:14:23:835,-0.375005,-1.4397,-9.65823,9.10165,-3.70539,3.27359
2023-03-15 15:14:23:845,-0.342362,-1.48268,-9.61956,9.07455,-3.69146,3.1959
2023-03-15 15:14:23:855,-0.445597,-1.48922,-9.59873,9.04831,-3.6803,3.133
2023-03-15 15:14:23:865,-0.55461,-1.44117,-9.66129,9.0202,-3.66131,3.07737
2023-03-15 15:14:23:875,-0.491469,-1.44993,-9.64641,8.99419,-3.63027,3.02713
2023-03-15 15:14:23:885,-0.460691,-1.46242,-9.61639,8.97201,-3.59237,2.98792
2023-03-15 15:14:23:895,-0.434301,-1.41391,-9.60596,8.94908,-3.54652,2.95238
2023-03-15 15:14:23:905,-0.333755,-1.44136,-9.59568,8.93216,-3.50144,2.91917
2023-03-15 15:14:23:915,-0.249925,-1.52053,-9.63665,8.9178,-3.47109,2.89383
2023-03-15 15:14:23:925,-0.255694,-1.58057,-9.70705,8.90477,-3.45139,2.88096
2023-03-15 15:14:23:935,-0.411971,-1.588,-9.73703,8.89289,-3.45047,2.87087
2023-03-15 15:14:23:945,-0.600885,-1.60362,-9.66186,8.88164,-3.46634,2.86517
2023-03-15 15:14:23:955,-0.746265,-1.61819,-9.54852,8.86048,-3.47897,2.85775
2023-03-15 15:14:23:965,-0.802008,-1.55382,-9.47382,8.82883,-3.48791,2.8393
2023-03-15 15:14:23:975,-0.746415,-1.4452,-9.49896,8.78019,-3.4887,2.79988
2023-03-15 15:14:23:985,-0.603569,-1.34985,-9.66933,8.71973,-3.48005,2.75443
2023-03-15 15:14:23:995,-0.431513,-1.25182,-9.87833,8.66581,-3.46814,2.70151
2023-03-15 15:14:24:5,-0.337913,-1.26166,-9.94304,8.62919,-3.46522,2.64996
2023-03-15 15:14:24:15,-0.456505,-1.35247,-9.8184,8.61676,-3.46986,2.61534
2023-03-15 15:14:24:25,-0.59456,-1.46756,-9.69245,8.61983,-3.48578,2.59049
2023-03-15 15:14:24:35,-0.581922,-1.53648,-9.61758,8.62574,-3.50343,2.57104
2023-03-15 15:14:24:45,-0.601677,-1.59878,-9.52406,8.63643,-3.52259,2.56179
2023-03-15 15:14:24:55,-0.739567,-1.6153,-9.45518,8.63627,-3.53786,2.56373
2023-03-15 15:14:24:65,-0.848645,-1.60521,-9.44971,8.62536,-3.55282,2.56258
2023-03-15 15:14:24:75,-0.833163,-1.53242,-9.50396,8.59747,-3.55564,2.55428
2023-03-15 15:14:24:85,-0.744293,-1.45657,-9.5482,8.56388,-3.55102,2.53619
2023-03-15 15:14:24:95,-0.628109,-1.41867,-9.62987,8.5317,-3.54244,2.50886
2023-03-15 15:14:24:105,-0.541406,-1.38567,-9.72215,8.49786,-3.54178,2.47766
2023-03-15 15:14:24:115,-0.569654,-1.3916,-9.75185,8.46344,-3.5505,2.44752
2023-03-15 15:14:24:125,-0.69191,-1.41949,-9.73275,8.44225,-3.56861,2.41627
2023-03-15 15:14:24:135,-0.834464,-1.42327,-9.66429,8.4201,-3.59322,2.38052
2023-03-15 15:14:24:145,-0.892551,-1.41868,-9.56421,8.3993,-3.61555,2.33626
2023-03-15 15:14:24:155,-0.844034,-1.42992,-9.53804,8.37855,-3.62971,2.2822
2023-03-15 15:14:24:165,-0.746354,-1.43126,-9.65478,8.35123,-3.643,2.22296
2023-03-15 15:14:24:175,-0.697327,-1.40597,-9.73633,8.3231,-3.65775,2.15475
2023-03-15 15:14:24:185,-0.720677,-1.39624,-9.72087,8.29728,-3.67205,2.08003
2023-03-15 15:14:24:195,-0.694089,-1.35761,-9.69181,8.26558,-3.68358,2.00645
2023-03-15 15:14:24:205,-0.591775,-1.34917,-9.71588,8.23665,-3.69202,1.93347
2023-03-15 15:14:24:215,-0.516667,-1.33705,-9.75041,8.21262,-3.69822,1.86082
2023-03-15 15:14:24:225,-0.528559,-1.34697,-9.74691,8.18984,-3.7078,1.79712
2023-03-15 15:14:24:235,-0.585512,-1.37248,-9.70423,8.17306,-3.7155,1.74795
2023-03-15 15:14:24:245,-0.625301,-1.37125,-9.65642,8.16361,-3.72147,1.70802
2023-03-15 15:14:24:255,-0.658012,-1.39331,-9.57328,8.15536,-3.71591,1.67665
2023-03-15 15:14:24:265,-0.655575,-1.38955,-9.51278,8.14168,-3.70417,1.64918
2023-03-15 15:14:24:275,-0.594756,-1.37412,-9.57298,8.12794,-3.68736,1.62726
2023-03-15 15:14:24:285,-0.526818,-1.35762,-9.68308,8.11266,-3.66759,1.6043
2023-03-15 15:14:24:295,-0.524228,-1.34155,-9.7327,8.09567,-3.64714,1.59164
2023-03-15 15:14:24:305,-0.582863,-1.38398,-9.65987,8.09078,-3.63484,1.58282
2023-03-15 15:14:24:315,-0.612547,-1.43197,-9.57022,8.08877,-3.62081,1.58254
2023-03-15 15:14:24:325,-0.619232,-1.45325,-9.51299,8.08309,-3.61256,1.5845
2023-03-15 15:14:24:335,-0.68253,-1.47133,-9.46278,8.07016,-3.6001,1.58797
2023-03-15 15:14:24:345,-0.731043,-1.46651,-9.4283,8.05094,-3.5906,1.58945
2023-03-15 15:14:24:355,-0.720071,-1.41486,-9.47801,8.02286,-3.57479,1.58521
2023-03-15 15:14:24:365,-0.652027,-1.35946,-9.59456,7.98639,-3.55285,1.57252
2023-03-15 15:14:24:375,-0.568442,-1.30082,-9.6983,7.94918,-3.53057,1.55761
2023-03-15 15:14:24:385,-0.501143,-1.26374,-9.78943,7.91072,-3.51062,1.54189
2023-03-15 15:14:24:395,-0.465069,-1.28811,-9.76056,7.8797,-3.49508,1.52954
2023-03-15 15:14:24:405,-0.570246,-1.30778,-9.65467,7.84941,-3.49218,1.526
2023-03-15 15:14:24:415,-0.71553,-1.24464,-9.67157,7.81925,-3.48749,1.52353
2023-03-15 15:14:24:425,-0.732472,-1.24874,-9.68224,7.78836,-3.47415,1.51076
2023-03-15 15:14:24:435,-0.696485,-1.27449,-9.68712,7.75686,-3.45809,1.49412
2023-03-15 15:14:24:445,-0.714382,-1.22295,-9.75877,7.71359,-3.43938,1.4783
2023-03-15 15:14:24:455,-0.656634,-1.16286,-9.83985,7.67129,-3.41892,1.44936
2023-03-15 15:14:24:465,-0.534787,-1.12217,-9.90389,7.62804,-3.39598,1.41706
2023-03-15 15:14:24:475,-0.441125,-1.07031,-9.95131,7.59278,-3.37247,1.38145
2023-03-15 15:14:24:485,-0.409819,-1.07767,-9.90023,7.57014,-3.34994,1.34638
2023-03-15 15:14:24:495,-0.419623,-1.10427,-9.83442,7.55398,-3.33428,1.32031
2023-03-15 15:14:24:505,-0.439312,-1.09609,-9.79149,7.54117,-3.31633,1.30127
2023-03-15 15:14:24:515,-0.447996,-1.12246,-9.75913,7.53822,-3.30007,1.29031
2023-03-15 15:14:24:525,-0.448372,-1.14711,-9.74407,7.5375,-3.28548,1.28722
2023-03-15 15:14:24:535,-0.45819,-1.17777,-9.73757,7.54609,-3.26856,1.29204
2023-03-15 15:14:24:545,-0.498121,-1.20799,-9.72442,7.55746,-3.25415,1.30822
2023-03-15 15:14:24:555,-0.531569,-1.22356,-9.68236,7.57582,-3.23444,1.32609
2023-03-15 15:14:24:565,-0.545057,-1.28627,-9.62275,7.59887,-3.21278,1.3505
2023-03-15 15:14:24:575,-0.54344,-1.33554,-9.60855,7.62605,-3.18415,1.37856
2023-03-15 15:14:24:585,-0.528372,-1.35972,-9.63594,7.65093,-3.15941,1.40969
2023-03-15 15:14:24:595,-0.563273,-1.40226,-9.65037,7.67779,-3.1359,1.44351
2023-03-15 15:14:24:605,-0.618437,-1.44978,-9.6343,7.70778,-3.10944,1.47992
2023-03-15 15:14:24:615,-0.652587,-1.47105,-9.59375,7.73666,-3.08261,1.51655
2023-03-15 15:14:24:625,-0.613116,-1.48474,-9.5424,7.75604,-3.05326,1.54812
2023-03-15 15:14:24:635,-0.606057,-1.47774,-9.48383,7.76885,-3.02869,1.57445
2023-03-15 15:14:24:645,-0.639703,-1.45228,-9.47614,7.7693,-3.00005,1.59554
2023-03-15 15:14:24:655,-0.665273,-1.40569,-9.51368,7.76411,-2.97736,1.61155
2023-03-15 15:14:24:665,-0.630464,-1.37844,-9.56855,7.74919,-2.9511,1.61363
2023-03-15 15:14:24:675,-0.588992,-1.32773,-9.62785,7.72586,-2.91918,1.60126
2023-03-15 15:14:24:685,-0.520835,-1.27275,-9.68573,7.70081,-2.8937,1.57431
2023-03-15 15:14:24:695,-0.455022,-1.23422,-9.70454,7.67209,-2.86625,1.53575
2023-03-15 15:14:24:705,-0.369849,-1.19378,-9.70345,7.64886,-2.84163,1.49026
2023-03-15 15:14:24:715,-0.288223,-1.17871,-9.72953,7.62822,-2.82282,1.43833
2023-03-15 15:14:24:725,-0.233808,-1.16566,-9.76652,7.61056,-2.80315,1.38841
2023-03-15 15:14:24:735,-0.20872,-1.18316,-9.75963,7.60562,-2.79751,1.3434
2023-03-15 15:14:24:745,-0.235287,-1.22103,-9.75186,7.60369,-2.79667,1.30943
2023-03-15 15:14:24:755,-0.259085,-1.2608,-9.75223,7.60522,-2.79641,1.28689
2023-03-15 15:14:24:765,-0.295459,-1.27569,-9.75639,7.61215,-2.79922,1.27582
2023-03-15 15:14:24:775,-0.350584,-1.2951,-9.73422,7.61874,-2.80615,1.27102
2023-03-15 15:14:24:785,-0.416778,-1.29544,-9.7233,7.62437,-2.80756,1.27625
2023-03-15 15:14:24:795,-0.419305,-1.29452,-9.72783,7.63096,-2.80786,1.28281
2023-03-15 15:14:24:805,-0.369422,-1.29762,-9.7168,7.63904,-2.80373,1.29009
2023-03-15 15:14:24:815,-0.3606,-1.2998,-9.68905,7.64393,-2.8043,1.30697
2023-03-15 15:14:24:825,-0.408168,-1.29057,-9.65297,7.64968,-2.81156,1.32266
2023-03-15 15:14:24:835,-0.503765,-1.25219,-9.6499,7.64863,-2.8159,1.34038
2023-03-15 15:14:24:845,-0.501575,-1.23854,-9.67904,7.6522,-2.81562,1.35375
2023-03-15 15:14:24:855,-0.465538,-1.26853,-9.67164,7.6542,-2.81318,1.36559
2023-03-15 15:14:24:865,-0.47596,-1.26099,-9.6598,7.66054,-2.81451,1.37833
2023-03-15 15:14:24:875,-0.522505,-1.23412,-9.64525,7.66215,-2.81504,1.39327
2023-03-15 15:14:24:885,-0.557312,-1.25154,-9.63587,7.66529,-2.81262,1.40586
2023-03-15 15:14:24:895,-0.572216,-1.26857,-9.58775,7.6694,-2.80489,1.41747
2023-03-15 15:14:24:905,-0.574976,-1.27245,-9.56124,7.67138,-2.7924,1.42362
2023-03-15 15:14:24:915,-0.580053,-1.27635,-9.56677,7.6693,-2.7769,1.42797
2023-03-15 15:14:24:925,-0.563344,-1.27984,-9.59436,7.66539,-2.75544,1.42516
2023-03-15 15:14:24:935,-0.529386,-1.26587,-9.64542,7.65601,-2.73321,1.41488
2023-03-15 15:14:24:945,-0.498426,-1.24805,-9.68567,7.64657,-2.70838,1.39715
2023-03-15 15:14:24:955,-0.470598,-1.22611,-9.71124,7.6377,-2.68215,1.37058
2023-03-15 15:14:24:965,-0.424129,-1.22766,-9.74791,7.62896,-2.65425,1.33466
2023-03-15 15:14:24:975,-0.328709,-1.26204,-9.72788,7.62164,-2.62379,1.29596
2023-03-15 15:14:24:985,-0.218265,-1.28278,-9.73222,7.61807,-2.59656,1.25338
2023-03-15 15:14:24:995,-0.147122,-1.25312,-9.7874,7.61222,-2.57396,1.21169
2023-03-15 15:14:25:5,-0.052283,-1.27686,-9.78373,7.61633,-2.55624,1.17638
2023-03-15 15:14:25:15,0.0151531,-1.32887,-9.71277,7.61985,-2.54296,1.14979
2023-03-15 15:14:25:25,0.0233895,-1.34431,-9.68876,7.62539,-2.53599,1.1377
2023-03-15 15:14:25:35,-0.00573279,-1.30546,-9.71154,7.6213,-2.53727,1.13604
2023-03-15 15:14:25:45,-0.0572895,-1.29718,-9.72671,7.61764,-2.54276,1.14584
2023-03-15 15:14:25:55,-0.0888706,-1.28692,-9.73447,7.61355,-2.55405,1.16554
2023-03-15 15:14:25:65,-0.118278,-1.25987,-9.72975,7.60896,-2.57042,1.19541
2023-03-15 15:14:25:75,-0.17372,-1.24515,-9.71017,7.60825,-2.5935,1.23195
2023-03-15 15:14:25:85,-0.210884,-1.24688,-9.72341,7.60639,-2.62021,1.27516
2023-03-15 15:14:25:95,-0.265028,-1.22045,-9.70325,7.60272,-2.64682,1.3271
2023-03-15 15:14:25:105,-0.332672,-1.19974,-9.68577,7.60047,-2.68155,1.38113
2023-03-15 15:14:25:115,-0.365101,-1.19985,-9.67797,7.60167,-2.71522,1.4367
2023-03-15 15:14:25:125,-0.407164,-1.17963,-9.69281,7.59872,-2.74972,1.49746
2023-03-15 15:14:25:135,-0.463578,-1.15922,-9.72519,7.59666,-2.78514,1.55787
2023-03-15 15:14:25:145,-0.488205,-1.15109,-9.70923,7.59731,-2.82114,1.62111
2023-03-15 15:14:25:155,-0.536535,-1.19352,-9.66802,7.60631,-2.8581,1.68486
2023-03-15 15:14:25:165,-0.623485,-1.19911,-9.61953,7.61412,-2.89948,1.75119
2023-03-15 15:14:25:175,-0.666345,-1.21243,-9.60716,7.62681,-2.93559,1.81842
2023-03-15 15:14:25:185,-0.685644,-1.22453,-9.58491,7.64201,-2.96782,1.88542
2023-03-15 15:14:25:195,-0.718803,-1.23965,-9.5788,7.65424,-2.99484,1.94874
2023-03-15 15:14:25:205,-0.752898,-1.23379,-9.62725,7.66367,-3.01628,2.00894
2023-03-15 15:14:25:215,-0.751142,-1.24061,-9.70076,7.67497,-3.02824,2.06655
2023-03-15 15:14:25:225,-0.709421,-1.26782,-9.73847,7.69151,-3.03517,2.11538
2023-03-15 15:14:25:235,-0.680827,-1.31308,-9.71533,7.70747,-3.04267,2.15843
2023-03-15 15:14:25:245,-0.666113,-1.35123,-9.68324,7.7254,-3.05136,2.19975
2023-03-15 15:14:25:255,-0.688368,-1.35572,-9.67211,7.74252,-3.05758,2.2382
2023-03-15 15:14:25:265,-0.70094,-1.33044,-9.68777,7.75157,-3.06484,2.27374
2023-03-15 15:14:25:275,-0.689701,-1.31519,-9.67668,7.76175,-3.06814,2.30153
2023-03-15 15:14:25:285,-0.676123,-1.33035,-9.63738,7.76973,-3.0764,2.32117
2023-03-15 15:14:25:295,-0.652564,-1.31816,-9.62747,7.77489,-3.07909,2.33659
2023-03-15 15:14:25:305,-0.610858,-1.30044,-9.62897,7.77385,-3.08429,2.34914
2023-03-15 15:14:25:315,-0.57055,-1.28233,-9.62152,7.77279,-3.0868,2.35424
2023-03-15 15:14:25:325,-0.568784,-1.2529,-9.63073,7.76578,-3.09066,2.3615
2023-03-15 15:14:25:335,-0.5861,-1.22824,-9.63449,7.76223,-3.09563,2.3647
2023-03-15 15:14:25:345,-0.589712,-1.22962,-9.64637,7.76187,-3.09872,2.3663
2023-03-15 15:14:25:355,-0.596277,-1.24927,-9.63678,7.75946,-3.10264,2.36353
2023-03-15 15:14:25:365,-0.582513,-1.26965,-9.61889,7.76415,-3.10505,2.35939
2023-03-15 15:14:25:375,-0.569048,-1.29946,-9.60743,7.76894,-3.10859,2.35495
2023-03-15 15:14:25:385,-0.554604,-1.33893,-9.60171,7.77335,-3.10814,2.34601
2023-03-15 15:14:25:395,-0.545792,-1.35696,-9.61193,7.77446,-3.1097,2.34055
2023-03-15 15:14:25:405,-0.521656,-1.35599,-9.62161,7.77119,-3.11017,2.32703
2023-03-15 15:14:25:415,-0.489941,-1.36263,-9.60153,7.76576,-3.11284,2.31694
2023-03-15 15:14:25:425,-0.49308,-1.37068,-9.5647,7.75641,-3.11998,2.30757
2023-03-15 15:14:25:435,-0.534048,-1.36493,-9.5647,7.74403,-3.12646,2.29845
2023-03-15 15:14:25:445,-0.57265,-1.3339,-9.60357,7.72783,-3.13399,2.28822
2023-03-15 15:14:25:455,-0.564176,-1.28541,-9.6573,7.70537,-3.13635,2.27621
2023-03-15 15:14:25:465,-0.496662,-1.26123,-9.6966,7.68601,-3.13439,2.26236
2023-03-15 15:14:25:475,-0.426519,-1.27337,-9.68339,7.66784,-3.13022,2.24986
2023-03-15 15:14:25:485,-0.431984,-1.29756,-9.66,7.65269,-3.12884,2.2449
2023-03-15 15:14:25:495,-0.474454,-1.28274,-9.66946,7.63877,-3.12961,2.24331
2023-03-15 15:14:25:505,-0.490458,-1.25283,-9.70969,7.62195,-3.12766,2.24434
2023-03-15 15:14:25:515,-0.497157,-1.2206,-9.71928,7.60458,-3.12389,2.2453
2023-03-15 15:14:25:525,-0.488356,-1.22314,-9.7269,7.58668,-3.11835,2.24878
2023-03-15 15:14:25:535,-0.471834,-1.22238,-9.72229,7.57436,-3.10803,2.25675
2023-03-15 15:14:25:545,-0.470773,-1.20115,-9.74586,7.56359,-3.10001,2.26192
2023-03-15 15:14:25:555,-0.491938,-1.19084,-9.73798,7.55336,-3.09464,2.26642
2023-03-15 15:14:25:565,-0.506757,-1.19789,-9.73666,7.54334,-3.0912,2.26792
2023-03-15 15:14:25:575,-0.515404,-1.20116,-9.73371,7.5388,-3.0892,2.27166
2023-03-15 15:14:25:585,-0.528032,-1.18939,-9.73502,7.53325,-3.09121,2.27244
2023-03-15 15:14:25:595,-0.519454,-1.1907,-9.71798,7.53104,-3.08972,2.27157
2023-03-15 15:14:25:605,-0.526836,-1.18859,-9.71394,7.53057,-3.08881,2.26883
2023-03-15 15:14:25:615,-0.515921,-1.19514,-9.7335,7.53192,-3.08903,2.26427
2023-03-15 15:14:25:625,-0.495349,-1.19726,-9.73816,7.53653,-3.09229,2.26021
2023-03-15 15:14:25:635,-0.50219,-1.21509,-9.73134,7.54745,-3.09482,2.25515
2023-03-15 15:14:25:645,-0.518326,-1.23102,-9.70764,7.55862,-3.10271,2.24955
2023-03-15 15:14:25:655,-0.544331,-1.23932,-9.66359,7.56573,-3.11053,2.24954
2023-03-15 15:14:25:665,-0.561764,-1.25044,-9.65975,7.57461,-3.12293,2.24849
2023-03-15 15:14:25:675,-0.579442,-1.24181,-9.67251,7.58306,-3.13469,2.24802
2023-03-15 15:14:25:685,-0.588099,-1.24308,-9.68069,7.59141,-3.14391,2.24563
2023-03-15 15:14:25:695,-0.59321,-1.24418,-9.69881,7.59927,-3.15286,2.24089
2023-03-15 15:14:25:705,-0.588947,-1.24087,-9.69554,7.60658,-3.15974,2.23707
2023-03-15 15:14:25:715,-0.574846,-1.23994,-9.69066,7.61456,-3.16503,2.23361
2023-03-15 15:14:25:725,-0.584506,-1.2469,-9.68761,7.62554,-3.16998,2.23235
2023-03-15 15:14:25:735,-0.581795,-1.24676,-9.69047,7.63984,-3.17308,2.23323
2023-03-15 15:14:25:745,-0.565453,-1.26609,-9.67237,7.65276,-3.1773,2.23228
2023-03-15 15:14:25:755,-0.578098,-1.27773,-9.65229,7.66536,-3.17606,2.23172
2023-03-15 15:14:25:765,-0.591988,-1.2802,-9.63996,7.67844,-3.17429,2.23459
2023-03-15 15:14:25:775,-0.59671,-1.27986,-9.637,7.68958,-3.17251,2.23936
2023-03-15 15:14:25:785,-0.590431,-1.2867,-9.64133,7.70099,-3.16452,2.24285
2023-03-15 15:14:25:795,-0.606023,-1.28968,-9.63141,7.71121,-3.15668,2.24279
2023-03-15 15:14:25:805,-0.579736,-1.30025,-9.63123,7.71903,-3.14867,2.24154
2023-03-15 15:14:25:815,-0.550041,-1.30781,-9.64586,7.7271,-3.14053,2.23983
2023-03-15 15:14:25:825,-0.529814,-1.30712,-9.65143,7.73075,-3.13131,2.23894
2023-03-15 15:14:25:835,-0.51959,-1.3121,-9.65339,7.73602,-3.12233,2.23801
2023-03-15 15:14:25:845,-0.522903,-1.30172,-9.66972,7.74209,-3.11391,2.23344
2023-03-15 15:14:25:855,-0.528412,-1.29725,-9.66018,7.75141,-3.1073,2.22928
2023-03-15 15:14:25:865,-0.52411,-1.30777,-9.65311,7.75848,-3.09898,2.22491
2023-03-15 15:14:25:875,-0.508752,-1.31139,-9.64522,7.76642,-3.09089,2.21995
2023-03-15 15:14:25:885,-0.514557,-1.30721,-9.64413,7.77211,-3.08576,2.21519
2023-03-15 15:14:25:895,-0.528523,-1.29629,-9.63073,7.7771,-3.07738,2.21009
2023-03-15 15:14:25:905,-0.533781,-1.31005,-9.64611,7.78183,-3.0716,2.20783
2023-03-15 15:14:25:915,-0.532574,-1.31667,-9.66329,7.78547,-3.06291,2.20495
2023-03-15 15:14:25:925,-0.539852,-1.30146,-9.66596,7.79118,-3.05123,2.20537
2023-03-15 15:14:25:935,-0.527287,-1.2887,-9.67428,7.79654,-3.04006,2.20492
2023-03-15 15:14:25:945,-0.513476,-1.30234,-9.66729,7.80226,-3.02932,2.20118
2023-03-15 15:14:25:955,-0.491148,-1.30469,-9.64098,7.80983,-3.01591,2.19715
2023-03-15 15:14:25:965,-0.462535,-1.31824,-9.61029,7.81872,-3.00039,2.19009
2023-03-15 15:14:25:975,-0.463248,-1.32646,-9.62712,7.82413,-2.99053,2.18492
2023-03-15 15:14:25:985,-0.471494,-1.3141,-9.67684,7.82493,-2.98166,2.17884
2023-03-15 15:14:25:995,-0.450204,-1.29274,-9.75004,7.82551,-2.97331,2.1701
2023-03-15 15:14:26:5,-0.382565,-1.2916,-9.79327,7.83039,-2.96364,2.16099
2023-03-15 15:14:26:15,-0.327758,-1.32508,-9.76112,7.84013,-2.95893,2.1491
2023-03-15 15:14:26:25,-0.334301,-1.37068,-9.71668,7.84998,-2.96356,2.14356
2023-03-15 15:14:26:35,-0.39055,-1.36878,-9.69719,7.8587,-2.97399,2.14827
2023-03-15 15:14:26:45,-0.436793,-1.35274,-9.68291,7.86802,-2.98468,2.15497
2023-03-15 15:14:26:55,-0.451996,-1.33991,-9.6721,7.87129,-2.995,2.16073
2023-03-15 15:14:26:65,-0.467599,-1.31975,-9.65557,7.87334,-3.00472,2.16997
2023-03-15 15:14:26:75,-0.476094,-1.31514,-9.67011,7.87309,-3.01372,2.18131
2023-03-15 15:14:26:85,-0.484926,-1.29264,-9.6935,7.86936,-3.01963,2.19139
2023-03-15 15:14:26:95,-0.499266,-1.26774,-9.70768,7.86403,-3.03089,2.20351
2023-03-15 15:14:26:105,-0.509159,-1.23822,-9.70537,7.86485,-3.0387,2.21419
2023-03-15 15:14:26:115,-0.531973,-1.2511,-9.67975,7.87124,-3.04644,2.22514
2023-03-15 15:14:26:125,-0.54284,-1.28071,-9.66131,7.88481,-3.04755,2.23792
2023-03-15 15:14:26:135,-0.556082,-1.28479,-9.639,7.8955,-3.05266,2.24921
2023-03-15 15:14:26:145,-0.551731,-1.29519,-9.6471,7.90845,-3.05292,2.25921
2023-03-15 15:14:26:155,-0.555923,-1.31327,-9.64161,7.9225,-3.05694,2.26565
2023-03-15 15:14:26:165,-0.574183,-1.32304,-9.61832,7.93864,-3.05888,2.26454
2023-03-15 15:14:26:175,-0.556347,-1.34395,-9.6279,7.95187,-3.06154,2.26341
2023-03-15 15:14:26:185,-0.539268,-1.35942,-9.65884,7.96395,-3.06053,2.26299
2023-03-15 15:14:26:195,-0.541043,-1.35563,-9.67791,7.97205,-3.06269,2.25561
2023-03-15 15:14:26:205,-0.522371,-1.34657,-9.65714,7.98335,-3.066,2.24988
2023-03-15 15:14:26:215,-0.504595,-1.3621,-9.61496,7.99307,-3.06377,2.24601
2023-03-15 15:14:26:225,-0.521327,-1.37261,-9.61408,7.99841,-3.05945,2.24254
2023-03-15 15:14:26:235,-0.544218,-1.35179,-9.64747,8.00052,-3.05988,2.23682
2023-03-15 15:14:26:245,-0.543213,-1.30893,-9.69241,8.00022,-3.05863,2.22609
2023-03-15 15:14:26:255,-0.489035,-1.31136,-9.69921,8.00527,-3.053,2.21653
2023-03-15 15:14:26:265,-0.431949,-1.35401,-9.67127,8.01283,-3.04873,2.20985
2023-03-15 15:14:26:275,-0.445565,-1.36186,-9.65948,8.0189,-3.0437,2.20677
2023-03-15 15:14:26:285,-0.490156,-1.32506,-9.6773,8.02077,-3.04389,2.2034
2023-03-15 15:14:26:295,-0.533665,-1.30557,-9.71525,8.02698,-3.04379,2.20195
2023-03-15 15:14:26:305,-0.542489,-1.28797,-9.71857,8.03318,-3.04045,2.19956
2023-03-15 15:14:26:315,-0.525737,-1.29778,-9.71358,8.04333,-3.03836,2.19274
2023-03-15 15:14:26:325,-0.516287,-1.30822,-9.70616,8.05237,-3.03332,2.18695
2023-03-15 15:14:26:335,-0.544414,-1.28552,-9.73869,8.06202,-3.02553,2.1786
2023-03-15 15:14:26:345,-0.486823,-1.31765,-9.69844,8.07804,-3.01976,2.16802
2023-03-15 15:14:26:355,-0.496285,-1.34737,-9.63237,8.09252,-3.01764,2.16396
2023-03-15 15:14:26:365,-0.541231,-1.34254,-9.64865,8.10761,-3.01467,2.16022
2023-03-15 15:14:26:375,-0.532145,-1.35819,-9.64014,8.1202,-3.01503,2.15563
2023-03-15 15:14:26:385,-0.514527,-1.34213,-9.6697,8.13105,-3.00981,2.14803
2023-03-15 15:14:26:395,-0.4739,-1.36848,-9.66828,8.14521,-3.00519,2.14134
2023-03-15 15:14:26:405,-0.443389,-1.42439,-9.59196,8.16086,-3.00706,2.13256
2023-03-15 15:14:26:415,-0.488724,-1.40828,-9.60934,8.17138,-3.01107,2.12951
2023-03-15 15:14:26:425,-0.484988,-1.38711,-9.62052,8.18045,-3.0172,2.12781
2023-03-15 15:14:26:435,-0.450939,-1.39215,-9.63156,8.19085,-3.01795,2.12524
2023-03-15 15:14:26:445,-0.452086,-1.39726,-9.62787,8.2034,-3.02156,2.12753
2023-03-15 15:14:26:455,-0.468812,-1.40702,-9.62408,8.21037,-3.02112,2.13023
2023-03-15 15:14:26:465,-0.483205,-1.40961,-9.62651,8.21587,-3.02565,2.13893
2023-03-15 15:14:26:475,-0.510065,-1.41235,-9.61713,8.21794,-3.02866,2.14967
2023-03-15 15:14:26:485,-0.520264,-1.3975,-9.62392,8.21898,-3.03414,2.16132
2023-03-15 15:14:26:495,-0.537792,-1.38694,-9.62631,8.21911,-3.03877,2.17094
2023-03-15 15:14:26:505,-0.544139,-1.38177,-9.63146,8.21818,-3.03609,2.18036
2023-03-15 15:14:26:515,-0.547149,-1.38746,-9.64057,8.21788,-3.03265,2.18932
2023-03-15 15:14:26:525,-0.549857,-1.36978,-9.65556,8.21742,-3.0313,2.1984
2023-03-15 15:14:26:535,-0.549043,-1.35589,-9.66375,8.2153,-3.02991,2.20489
2023-03-15 15:14:26:545,-0.562744,-1.34375,-9.65831,8.21281,-3.02467,2.20892
2023-03-15 15:14:26:555,-0.58304,-1.32395,-9.68823,8.21428,-3.02176,2.20715
2023-03-15 15:14:26:565,-0.509976,-1.36784,-9.66613,8.21964,-3.01607,2.20189
2023-03-15 15:14:26:575,-0.505789,-1.38159,-9.61067,8.22082,-3.01186,2.20061
2023-03-15 15:14:26:585,-0.551154,-1.35438,-9.66511,8.22014,-3.00747,2.19755
2023-03-15 15:14:26:595,-0.514144,-1.34871,-9.68095,8.21793,-3.0039,2.18846
2023-03-15 15:14:26:605,-0.470749,-1.37656,-9.67599,8.21909,-2.99635,2.18105
2023-03-15 15:14:26:615,-0.449469,-1.38302,-9.66377,8.22069,-2.99028,2.17645
2023-03-15 15:14:26:625,-0.429026,-1.37937,-9.65929,8.22166,-2.9878,2.16676
2023-03-15 15:14:26:635,-0.439646,-1.37592,-9.67916,8.21974,-2.98633,2.16669
2023-03-15 15:14:26:645,-0.444636,-1.36488,-9.69223,8.21597,-2.98548,2.16389
2023-03-15 15:14:26:655,-0.448864,-1.37839,-9.66598,8.21345,-2.98744,2.16371
2023-03-15 15:14:26:665,-0.439966,-1.37776,-9.64734,8.21295,-2.98936,2.1666
2023-03-15 15:14:26:675,-0.443083,-1.37022,-9.68159,8.20826,-2.9921,2.17071
2023-03-15 15:14:26:685,-0.442487,-1.34372,-9.67684,8.20786,-2.9943,2.17517
2023-03-15 15:14:26:695,-0.460871,-1.35046,-9.65624,8.20664,-2.99657,2.18049
2023-03-15 15:14:26:705,-0.479819,-1.37181,-9.64806,8.20437,-2.99858,2.19055
2023-03-15 15:14:26:715,-0.501897,-1.37308,-9.65496,8.20466,-3.00205,2.19934
2023-03-15 15:14:26:725,-0.526274,-1.36794,-9.66268,8.20464,-3.00488,2.20798
2023-03-15 15:14:26:735,-0.535176,-1.37129,-9.63928,8.20473,-3.00643,2.2164
2023-03-15 15:14:26:745,-0.516401,-1.38351,-9.62376,8.20567,-3.00177,2.22171
2023-03-15 15:14:26:755,-0.512888,-1.38828,-9.60892,8.20375,-3.00417,2.2309
2023-03-15 15:14:26:765,-0.521292,-1.37527,-9.62578,8.20482,-3.00785,2.23455
2023-03-15 15:14:26:775,-0.525862,-1.36509,-9.63625,8.2017,-3.00995,2.23546
2023-03-15 15:14:26:785,-0.540647,-1.35726,-9.62794,8.2008,-3.01015,2.23505
2023-03-15 15:14:26:795,-0.519679,-1.3664,-9.66041,8.19821,-3.0092,2.23012
2023-03-15 15:14:26:805,-0.492133,-1.36935,-9.71213,8.19723,-3.00749,2.22721
2023-03-15 15:14:26:815,-0.453614,-1.38686,-9.72844,8.1968,-3.00675,2.22409
2023-03-15 15:14:26:825,-0.445213,-1.42424,-9.70066,8.19994,-3.01174,2.22324
2023-03-15 15:14:26:835,-0.466634,-1.43015,-9.67582,8.19883,-3.02203,2.23034
2023-03-15 15:14:26:845,-0.503824,-1.39324,-9.64956,8.1941,-3.02894,2.24002
2023-03-15 15:14:26:855,-0.546625,-1.35069,-9.68058,8.18539,-3.0406,2.24888
2023-03-15 15:14:26:865,-0.554378,-1.34001,-9.698,8.17609,-3.04892,2.25765
2023-03-15 15:14:26:875,-0.5162,-1.34564,-9.65155,8.16776,-3.05805,2.26467
2023-03-15 15:14:26:885,-0.528074,-1.31714,-9.64516,8.15735,-3.06265,2.27538
2023-03-15 15:14:26:895,-0.554011,-1.28968,-9.63844,8.14664,-3.06549,2.28164
2023-03-15 15:14:26:905,-0.575685,-1.30037,-9.63046,8.13784,-3.07195,2.28957
2023-03-15 15:14:26:915,-0.593503,-1.30033,-9.60414,8.13233,-3.07523,2.29196
2023-03-15 15:14:26:925,-0.605405,-1.30678,-9.58751,8.13131,-3.07905,2.29119
2023-03-15 15:14:26:935,-0.591029,-1.32019,-9.60106,8.13168,-3.07813,2.28829
2023-03-15 15:14:26:945,-0.565045,-1.34623,-9.60007,8.12819,-3.07784,2.28066
2023-03-15 15:14:26:955,-0.545125,-1.36627,-9.6319,8.12693,-3.07945,2.27092
2023-03-15 15:14:26:965,-0.531298,-1.36588,-9.64431,8.12275,-3.08008,2.25536
2023-03-15 15:14:26:975,-0.536186,-1.37409,-9.64827,8.12487,-3.07712,2.2418
2023-03-15 15:14:26:985,-0.546238,-1.36755,-9.64211,8.11966,-3.07895,2.23105
2023-03-15 15:14:26:995,-0.554818,-1.37729,-9.64692,8.1152,-3.08126,2.21858
2023-03-15 15:14:27:5,-0.528947,-1.37158,-9.64601,8.10848,-3.07851,2.21048
2023-03-15 15:14:27:15,-0.521342,-1.36242,-9.64353,8.1017,-3.0717,2.20392
2023-03-15 15:14:27:25,-0.529513,-1.34247,-9.65467,8.09064,-3.05991,2.19836
2023-03-15 15:14:27:35,-0.530604,-1.34961,-9.64513,8.08182,-3.05299,2.19274
2023-03-15 15:14:27:45,-0.519858,-1.32536,-9.67173,8.06942,-3.0406,2.18881
2023-03-15 15:14:27:55,-0.485872,-1.29241,-9.72606,8.05817,-3.02517,2.17997
2023-03-15 15:14:27:65,-0.458411,-1.30334,-9.73059,8.04739,-3.01375,2.17577
2023-03-15 15:14:27:75,-0.4724,-1.31478,-9.69566,8.03944,-3.00464,2.17106
2023-03-15 15:14:27:85,-0.51409,-1.29441,-9.68144,8.03214,-2.99817,2.1683
2023-03-15 15:14:27:95,-0.526424,-1.28583,-9.72258,8.02775,-2.99354,2.16178
2023-03-15 15:14:27:105,-0.514132,-1.2677,-9.76346,8.02556,-2.98528,2.15689
2023-03-15 15:14:27:115,-0.505659,-1.28089,-9.74896,8.02823,-2.97909,2.14651
2023-03-15 15:14:27:125,-0.504964,-1.29011,-9.72749,8.02853,-2.97496,2.14434
2023-03-15 15:14:27:135,-0.49423,-1.30426,-9.71269,8.03455,-2.97453,2.1383
2023-03-15 15:14:27:145,-0.469787,-1.30773,-9.70602,8.04102,-2.9684,2.12892
2023-03-15 15:14:27:155,-0.469912,-1.33397,-9.69015,8.04942,-2.96536,2.12126
2023-03-15 15:14:27:165,-0.47843,-1.33864,-9.6605,8.05815,-2.96248,2.11911
2023-03-15 15:14:27:175,-0.471026,-1.35008,-9.6373,8.06359,-2.96253,2.11179
2023-03-15 15:14:27:185,-0.464081,-1.38118,-9.62667,8.07055,-2.95925,2.10664
2023-03-15 15:14:27:195,-0.466836,-1.38596,-9.61176,8.07908,-2.95913,2.10469
2023-03-15 15:14:27:205,-0.467358,-1.39011,-9.60947,8.08586,-2.95989,2.09884
2023-03-15 15:14:27:215,-0.448024,-1.38789,-9.60311,8.09059,-2.96187,2.09475
2023-03-15 15:14:27:225,-0.436262,-1.36608,-9.61422,8.08771,-2.96142,2.08767
2023-03-15 15:14:27:235,-0.435784,-1.35691,-9.65176,8.08917,-2.96444,2.08544
2023-03-15 15:14:27:245,-0.454695,-1.36072,-9.6556,8.09169,-2.96696,2.08289
2023-03-15 15:14:27:255,-0.47087,-1.36154,-9.63603,8.09041,-2.9691,2.08309
2023-03-15 15:14:27:265,-0.47619,-1.35719,-9.62269,8.0899,-2.97173,2.08894
2023-03-15 15:14:27:275,-0.492212,-1.35553,-9.63535,8.08714,-2.97111,2.09519
2023-03-15 15:14:27:285,-0.493103,-1.36401,-9.64325,8.08627,-2.97285,2.09943
2023-03-15 15:14:27:295,-0.500777,-1.34759,-9.64496,8.08065,-2.97255,2.10479
2023-03-15 15:14:27:305,-0.490866,-1.3428,-9.63762,8.07965,-2.96782,2.1126
2023-03-15 15:14:27:315,-0.495,-1.34583,-9.65639,8.07436,-2.96403,2.11992
2023-03-15 15:14:27:325,-0.508223,-1.32837,-9.6673,8.06407,-2.96409,2.12261
2023-03-15 15:14:27:335,-0.512208,-1.31591,-9.68477,8.0592,-2.96178,2.12879
2023-03-15 15:14:27:345,-0.518551,-1.31695,-9.68429,8.05348,-2.96048,2.13251
2023-03-15 15:14:27:355,-0.505226,-1.32508,-9.67351,8.05007,-2.96022,2.13375
2023-03-15 15:14:27:365,-0.514364,-1.32803,-9.65995,8.04653,-2.9593,2.13588
2023-03-15 15:14:27:375,-0.520349,-1.32613,-9.67377,8.04247,-2.95999,2.13648
2023-03-15 15:14:27:385,-0.503532,-1.31604,-9.68666,8.03858,-2.95598,2.13242
2023-03-15 15:14:27:395,-0.497767,-1.30986,-9.696,8.03214,-2.95422,2.13147
2023-03-15 15:14:27:405,-0.486909,-1.31147,-9.69733,8.03197,-2.95365,2.12591
2023-03-15 15:14:27:415,-0.470795,-1.31425,-9.69481,8.03269,-2.95603,2.12078
2023-03-15 15:14:27:425,-0.461471,-1.3153,-9.69668,8.03318,-2.9577,2.11543
2023-03-15 15:14:27:435,-0.460919,-1.31894,-9.69002,8.03464,-2.95874,2.11454
2023-03-15 15:14:27:445,-0.478106,-1.33231,-9.67646,8.03699,-2.95657,2.11473
2023-03-15 15:14:27:455,-0.477399,-1.34136,-9.66482,8.03957,-2.96189,2.1197
2023-03-15 15:14:27:465,-0.474587,-1.35869,-9.63668,8.04509,-2.96507,2.12171
2023-03-15 15:14:27:475,-0.487238,-1.35516,-9.62504,8.05191,-2.96917,2.12461
2023-03-15 15:14:27:485,-0.493115,-1.36018,-9.64168,8.05685,-2.97223,2.13203
2023-03-15 15:14:27:495,-0.50196,-1.35285,-9.65663,8.05882,-2.9767,2.13547
2023-03-15 15:14:27:505,-0.5055,-1.3493,-9.66457,8.0583,-2.98011,2.13894
2023-03-15 15:14:27:515,-0.494669,-1.35167,-9.67026,8.05904,-2.9852,2.14608
2023-03-15 15:14:27:525,-0.517666,-1.33781,-9.6804,8.0587,-2.98811,2.14776
2023-03-15 15:14:27:535,-0.543258,-1.33065,-9.66572,8.06126,-2.99266,2.15254
2023-03-15 15:14:27:545,-0.540938,-1.33073,-9.64505,8.06313,-2.99428,2.15664
2023-03-15 15:14:27:555,-0.535079,-1.34849,-9.63999,8.06474,-2.99519,2.15886
2023-03-15 15:14:27:565,-0.542153,-1.35421,-9.62244,8.06808,-2.99591,2.16101
2023-03-15 15:14:27:575,-0.543203,-1.35355,-9.60052,8.07032,-2.99702,2.16331
2023-03-15 15:14:27:585,-0.529935,-1.34757,-9.58422,8.07226,-2.99711,2.16264
2023-03-15 15:14:27:595,-0.509419,-1.36886,-9.59098,8.07397,-2.99665,2.16273
2023-03-15 15:14:27:605,-0.528646,-1.36679,-9.61246,8.07127,-2.99616,2.16233
2023-03-15 15:14:27:615,-0.514291,-1.36241,-9.66903,8.06765,-2.99522,2.16408
2023-03-15 15:14:27:625,-0.483337,-1.34574,-9.7329,8.0627,-2.99284,2.16347
2023-03-15 15:14:27:635,-0.444737,-1.35937,-9.77714,8.05884,-2.98987,2.16541
2023-03-15 15:14:27:645,-0.416346,-1.37444,-9.75739,8.06379,-2.98862,2.16752
2023-03-15 15:14:27:655,-0.43242,-1.38554,-9.6994,8.06335,-2.99383,2.17586
2023-03-15 15:14:27:665,-0.482537,-1.37354,-9.66931,8.06237,-2.99797,2.18663
2023-03-15 15:14:27:675,-0.508863,-1.35518,-9.67838,8.05867,-3.00156,2.19752
2023-03-15 15:14:27:685,-0.517187,-1.32659,-9.67105,8.04875,-3.01102,2.20637
2023-03-15 15:14:27:695,-0.514637,-1.30906,-9.64893,8.03792,-3.0208,2.21307
2023-03-15 15:14:27:705,-0.508998,-1.28492,-9.637,8.02437,-3.0302,2.22392
2023-03-15 15:14:27:715,-0.54267,-1.27646,-9.66022,8.01257,-3.03859,2.23166
2023-03-15 15:14:27:725,-0.542822,-1.25425,-9.65052,8.00526,-3.05058,2.23741
2023-03-15 15:14:27:735,-0.557855,-1.26239,-9.6344,7.99876,-3.05943,2.24312
2023-03-15 15:14:27:745,-0.581577,-1.27683,-9.61315,8.00047,-3.06521,2.24742
2023-03-15 15:14:27:755,-0.578791,-1.29259,-9.60904,8.0053,-3.06828,2.24913
2023-03-15 15:14:27:765,-0.581151,-1.32455,-9.59563,8.01063,-3.07128,2.24695
2023-03-15 15:14:27:775,-0.573647,-1.36309,-9.59218,8.01402,-3.07198,2.24264
2023-03-15 15:14:27:785,-0.563737,-1.37057,-9.60702,8.0159,-3.07085,2.24368
2023-03-15 15:14:27:795,-0.55313,-1.37584,-9.63535,8.01168,-3.06801,2.23925
2023-03-15 15:14:27:805,-0.551249,-1.39573,-9.63738,8.01206,-3.06348,2.23528
2023-03-15 15:14:27:815,-0.532414,-1.39256,-9.63158,8.00811,-3.05946,2.23081
2023-03-15 15:14:27:825,-0.516477,-1.38319,-9.64421,7.9983,-3.05433,2.22509
2023-03-15 15:14:27:835,-0.48586,-1.36302,-9.63019,7.98595,-3.05255,2.22198
2023-03-15 15:14:27:845,-0.50012,-1.35474,-9.60525,7.97105,-3.04752,2.2221
2023-03-15 15:14:27:855,-0.528391,-1.35293,-9.58767,7.94929,-3.04053,2.22496
2023-03-15 15:14:27:865,-0.548603,-1.32215,-9.61878,7.92733,-3.03087,2.22431
2023-03-15 15:14:27:875,-0.50478,-1.29433,-9.66238,7.90404,-3.01882,2.22248
2023-03-15 15:14:27:885,-0.426827,-1.2521,-9.68938,7.88158,-3.00712,2.21721
2023-03-15 15:14:27:895,-0.392266,-1.25518,-9.7062,7.86045,-2.99738,2.21373
2023-03-15 15:14:27:905,-0.446487,-1.24652,-9.72321,7.83835,-2.99446,2.2129
2023-03-15 15:14:27:915,-0.51196,-1.24333,-9.72149,7.82346,-2.99754,2.2125
2023-03-15 15:14:27:925,-0.512551,-1.28392,-9.69393,7.81112,-2.99765,2.21168
2023-03-15 15:14:27:935,-0.514353,-1.3058,-9.68333,7.79838,-2.99514,2.21123
2023-03-15 15:14:27:945,-0.521843,-1.3147,-9.69303,7.78242,-2.99777,2.20958
2023-03-15 15:14:27:955,-0.527623,-1.28147,-9.73972,7.76687,-3.00236,2.20512
2023-03-15 15:14:27:965,-0.512868,-1.24353,-9.77877,7.75334,-3.00521,2.1972
2023-03-15 15:14:27:975,-0.507001,-1.24078,-9.75515,7.74271,-3.00559,2.19029
2023-03-15 15:14:27:985,-0.482313,-1.25963,-9.7166,7.73655,-3.00481,2.18217
2023-03-15 15:14:27:995,-0.470967,-1.27663,-9.68629,7.73307,-3.00665,2.17674
2023-03-15 15:14:28:5,-0.471413,-1.28304,-9.68697,7.72825,-3.00792,2.1726
2023-03-15 15:14:28:15,-0.479153,-1.27267,-9.70286,7.72687,-3.01045,2.16776
2023-03-15 15:14:28:25,-0.480368,-1.25912,-9.6926,7.72617,-3.01429,2.16681
2023-03-15 15:14:28:35,-0.497421,-1.27305,-9.68303,7.72859,-3.01632,2.16737
2023-03-15 15:14:28:45,-0.509527,-1.29955,-9.66764,7.73249,-3.02128,2.16584
2023-03-15 15:14:28:55,-0.52626,-1.3106,-9.63389,7.73547,-3.02696,2.16489
2023-03-15 15:14:28:65,-0.529098,-1.32401,-9.62617,7.73931,-3.03536,2.16463
2023-03-15 15:14:28:75,-0.523626,-1.34611,-9.6442,7.73987,-3.04476,2.1625
2023-03-15 15:14:28:85,-0.555171,-1.33865,-9.65203,7.74033,-3.05637,2.16037
2023-03-15 15:14:28:95,-0.590871,-1.34817,-9.64707,7.74162,-3.0617,2.15703
2023-03-15 15:14:28:105,-0.610313,-1.36624,-9.68151,7.74285,-3.06888,2.1514
2023-03-15 15:14:28:115,-0.606881,-1.3107,-9.72532,7.73873,-3.07789,2.13793
2023-03-15 15:14:28:125,-0.603797,-1.26132,-9.7562,7.73696,-3.08935,2.12052
2023-03-15 15:14:28:135,-0.549523,-1.22424,-9.68286,7.7396,-3.09259,2.09859
2023-03-15 15:14:28:145,-0.475985,-1.26969,-9.5305,7.74598,-3.0943,2.07401
2023-03-15 15:14:28:155,-0.473319,-1.33982,-9.43481,7.7479,-3.095,2.05619
2023-03-15 15:14:28:165,-0.486777,-1.2115,-9.61483,7.72946,-3.0958,2.03968
2023-03-15 15:14:28:175,-0.532448,-1.06601,-9.8622,7.70753,-3.10218,2.01501
2023-03-15 15:14:28:185,-0.575886,-1.04106,-9.90894,7.70066,-3.11237,1.98114
2023-03-15 15:14:28:195,-0.543892,-1.15742,-9.8118,7.7081,-3.11645,1.9471
2023-03-15 15:14:28:205,-0.495198,-1.23132,-9.76081,7.72524,-3.12261,1.9216
2023-03-15 15:14:28:215,-0.506342,-1.2537,-9.71991,7.74685,-3.12833,1.89756
2023-03-15 15:14:28:225,-0.534368,-1.29047,-9.581,7.77074,-3.13516,1.87606
2023-03-15 15:14:28:235,-0.530514,-1.33593,-9.46687,7.78964,-3.14127,1.85942
2023-03-15 15:14:28:245,-0.497731,-1.35442,-9.48595,7.79599,-3.14088,1.83994
2023-03-15 15:14:28:255,-0.50069,-1.32155,-9.6315,7.7917,-3.14026,1.82535
2023-03-15 15:14:28:265,-0.482091,-1.23705,-9.79816,7.78387,-3.14097,1.80851
2023-03-15 15:14:28:275,-0.494606,-1.17672,-9.89589,7.78148,-3.14153,1.78984
2023-03-15 15:14:28:285,-0.55297,-1.19269,-9.85226,7.78777,-3.14625,1.77295
2023-03-15 15:14:28:295,-0.561459,-1.27721,-9.68863,7.80747,-3.15003,1.75394
2023-03-15 15:14:28:305,-0.514787,-1.34253,-9.56551,7.82857,-3.1529,1.73851
2023-03-15 15:14:28:315,-0.497898,-1.3434,-9.55473,7.84366,-3.15406,1.73182
2023-03-15 15:14:28:325,-0.523834,-1.3104,-9.60876,7.85091,-3.15805,1.7202
2023-03-15 15:14:28:335,-0.553954,-1.26967,-9.66765,7.85327,-3.16,1.70545
2023-03-15 15:14:28:345,-0.546714,-1.24992,-9.70588,7.85811,-3.15914,1.69002
2023-03-15 15:14:28:355,-0.519963,-1.26622,-9.70137,7.86794,-3.15438,1.67535
2023-03-15 15:14:28:365,-0.509894,-1.28128,-9.67892,7.88491,-3.1505,1.65946
2023-03-15 15:14:28:375,-0.494125,-1.31153,-9.68275,7.90375,-3.14309,1.64686
2023-03-15 15:14:28:385,-0.465949,-1.30722,-9.70785,7.92512,-3.13583,1.6377
2023-03-15 15:14:28:395,-0.44928,-1.29913,-9.7092,7.94756,-3.13103,1.63109
2023-03-15 15:14:28:405,-0.466042,-1.32181,-9.64553,7.97152,-3.12484,1.62725
2023-03-15 15:14:28:415,-0.47108,-1.3792,-9.60257,7.99241,-3.11938,1.62577
2023-03-15 15:14:28:425,-0.486796,-1.39449,-9.59819,8.01429,-3.1167,1.6313
2023-03-15 15:14:28:435,-0.514794,-1.37597,-9.64887,8.03203,-3.11301,1.63525
2023-03-15 15:14:28:445,-0.508875,-1.36781,-9.71252,8.05059,-3.11236,1.63904
2023-03-15 15:14:28:455,-0.463969,-1.40884,-9.70297,8.06989,-3.10648,1.64298
2023-03-15 15:14:28:465,-0.413331,-1.44561,-9.66127,8.09022,-3.10002,1.65209
2023-03-15 15:14:28:475,-0.422051,-1.46598,-9.65053,8.10852,-3.09871,1.66101
2023-03-15 15:14:28:485,-0.469267,-1.43107,-9.65403,8.11878,-3.1013,1.67223
2023-03-15 15:14:28:495,-0.492877,-1.41378,-9.64583,8.1267,-3.10539,1.68178
2023-03-15 15:14:28:505,-0.510013,-1.40532,-9.6388,8.13384,-3.10958,1.69392
2023-03-15 15:14:28:515,-0.51534,-1.39727,-9.6245,8.13564,-3.11152,1.70674
2023-03-15 15:14:28:525,-0.513064,-1.37827,-9.59354,8.13352,-3.11161,1.71968
2023-03-15 15:14:28:535,-0.521126,-1.36079,-9.58177,8.13058,-3.11706,1.73203
2023-03-15 15:14:28:545,-0.519808,-1.33461,-9.5764,8.12818,-3.12144,1.74134
2023-03-15 15:14:28:555,-0.531777,-1.33171,-9.59447,8.12515,-3.12663,1.75588
2023-03-15 15:14:28:565,-0.563025,-1.32725,-9.60674,8.12435,-3.12738,1.76579
2023-03-15 15:14:28:575,-0.578826,-1.33036,-9.59333,8.12336,-3.12911,1.77411
2023-03-15 15:14:28:585,-0.565073,-1.35737,-9.57232,8.12548,-3.13018,1.77784
2023-03-15 15:14:28:595,-0.540273,-1.39032,-9.5742,8.12464,-3.12666,1.77849
2023-03-15 15:14:28:605,-0.524337,-1.41976,-9.59816,8.12415,-3.1204,1.7798
2023-03-15 15:14:28:615,-0.533798,-1.42338,-9.61906,8.11956,-3.11781,1.78118
2023-03-15 15:14:28:625,-0.520599,-1.42707,-9.62032,8.10971,-3.11375,1.78372
2023-03-15 15:14:28:635,-0.518425,-1.44055,-9.6322,8.10088,-3.11074,1.78454
2023-03-15 15:14:28:645,-0.505961,-1.41061,-9.64985,8.08784,-3.10509,1.78786
2023-03-15 15:14:28:655,-0.479112,-1.38506,-9.67469,8.07437,-3.09641,1.79154
2023-03-15 15:14:28:665,-0.490931,-1.3519,-9.67863,8.06093,-3.09291,1.79695
2023-03-15 15:14:28:675,-0.531319,-1.33201,-9.67489,8.04044,-3.09066,1.7996
2023-03-15 15:14:28:685,-0.51849,-1.30737,-9.69236,8.02472,-3.08551,1.8016
2023-03-15 15:14:28:695,-0.493026,-1.284,-9.72025,8.00515,-3.07824,1.80551
2023-03-15 15:14:28:705,-0.452168,-1.27858,-9.71543,7.99284,-3.06589,1.80731
2023-03-15 15:14:28:715,-0.437407,-1.29875,-9.68229,7.98181,-3.05786,1.81164
2023-03-15 15:14:28:725,-0.467491,-1.30336,-9.66553,7.97143,-3.05531,1.82039
2023-03-15 15:14:28:735,-0.503096,-1.3003,-9.68197,7.95758,-3.0594,1.83161
2023-03-15 15:14:28:745,-0.518524,-1.30055,-9.71297,7.94976,-3.06414,1.8408
2023-03-15 15:14:28:755,-0.524184,-1.30567,-9.74243,7.94378,-3.06562,1.8485
2023-03-15 15:14:28:765,-0.530077,-1.30756,-9.74829,7.93689,-3.06796,1.85462
2023-03-15 15:14:28:775,-0.535711,-1.31167,-9.72963,7.93739,-3.06908,1.86323
2023-03-15 15:14:28:785,-0.5369,-1.31761,-9.71043,7.93762,-3.07068,1.87316
2023-03-15 15:14:28:795,-0.54371,-1.31554,-9.68108,7.93959,-3.07561,1.87998
2023-03-15 15:14:28:805,-0.546203,-1.32126,-9.66341,7.93783,-3.0807,1.88789
2023-03-15 15:14:28:815,-0.546447,-1.33691,-9.65481,7.94093,-3.08108,1.89375
2023-03-15 15:14:28:825,-0.52711,-1.33936,-9.65215,7.9449,-3.08386,1.9003
2023-03-15 15:14:28:835,-0.525989,-1.32856,-9.65449,7.94534,-3.08892,1.90511
2023-03-15 15:14:28:845,-0.527576,-1.31999,-9.6555,7.9409,-3.09139,1.90952
2023-03-15 15:14:28:855,-0.544277,-1.31375,-9.64626,7.9379,-3.09531,1.91483
2023-03-15 15:14:28:865,-0.548362,-1.32116,-9.64034,7.93895,-3.09925,1.91656
2023-03-15 15:14:28:875,-0.562763,-1.3202,-9.63947,7.93824,-3.10495,1.92139
2023-03-15 15:14:28:885,-0.578757,-1.31108,-9.64072,7.93933,-3.10805,1.92101
2023-03-15 15:14:28:895,-0.566893,-1.32427,-9.64711,7.93963,-3.11091,1.92255
2023-03-15 15:14:28:905,-0.570688,-1.33251,-9.64459,7.93925,-3.11072,1.92621
2023-03-15 15:14:28:915,-0.567209,-1.32724,-9.63735,7.93766,-3.11094,1.93032
2023-03-15 15:14:28:925,-0.569955,-1.31314,-9.63869,7.93367,-3.10531,1.93802
2023-03-15 15:14:28:935,-0.58359,-1.3132,-9.66671,7.93077,-3.09985,1.94653
2023-03-15 15:14:28:945,-0.586114,-1.30251,-9.67275,7.92557,-3.09298,1.95182
2023-03-15 15:14:28:955,-0.577159,-1.2882,-9.67835,7.92401,-3.08437,1.95977
2023-03-15 15:14:28:965,-0.566513,-1.28759,-9.67335,7.92163,-3.07613,1.96673
2023-03-15 15:14:28:975,-0.561434,-1.27354,-9.67047,7.91435,-3.06566,1.96697
2023-03-15 15:14:28:985,-0.552006,-1.27707,-9.68199,7.91071,-3.05317,1.96315
2023-03-15 15:14:28:995,-0.53817,-1.27852,-9.68327,7.90646,-3.04545,1.96
2023-03-15 15:14:29:5,-0.548377,-1.27634,-9.69161,7.90435,-3.03567,1.95239
2023-03-15 15:14:29:15,-0.534067,-1.28344,-9.69862,7.90069,-3.02838,1.94482
2023-03-15 15:14:29:25,-0.508286,-1.29419,-9.69047,7.9002,-3.02003,1.93341
2023-03-15 15:14:29:35,-0.498546,-1.29828,-9.67027,7.90109,-3.01139,1.91926
2023-03-15 15:14:29:45,-0.492929,-1.29474,-9.65826,7.9034,-3.00551,1.90468
2023-03-15 15:14:29:55,-0.479332,-1.30106,-9.67427,7.90655,-3.00102,1.89181
2023-03-15 15:14:29:65,-0.461421,-1.30456,-9.70249,7.90441,-2.99162,1.88093
2023-03-15 15:14:29:75,-0.452613,-1.29523,-9.71057,7.90418,-2.98223,1.87429
2023-03-15 15:14:29:85,-0.445102,-1.27914,-9.70343,7.90526,-2.97463,1.86259
2023-03-15 15:14:29:95,-0.43375,-1.28703,-9.69793,7.90884,-2.96937,1.85432
2023-03-15 15:14:29:105,-0.439344,-1.29256,-9.69688,7.91007,-2.96354,1.84537
2023-03-15 15:14:29:115,-0.456298,-1.30432,-9.67205,7.91259,-2.96282,1.84013
2023-03-15 15:14:29:125,-0.460664,-1.32789,-9.65128,7.91365,-2.96123,1.83515
2023-03-15 15:14:29:135,-0.46969,-1.33806,-9.63887,7.91779,-2.96067,1.8357
2023-03-15 15:14:29:145,-0.473635,-1.34113,-9.66284,7.91926,-2.96193,1.83479
2023-03-15 15:14:29:155,-0.475126,-1.33691,-9.66593,7.91789,-2.96454,1.83253
2023-03-15 15:14:29:165,-0.476206,-1.3237,-9.63742,7.91532,-2.96593,1.83664
2023-03-15 15:14:29:175,-0.483522,-1.3245,-9.63709,7.91108,-2.96848,1.83959
2023-03-15 15:14:29:185,-0.50409,-1.31353,-9.64749,7.90814,-2.96854,1.84457
2023-03-15 15:14:29:195,-0.528895,-1.30689,-9.66868,7.90794,-2.9656,1.84209
2023-03-15 15:14:29:205,-0.517433,-1.29209,-9.69444,7.90709,-2.95994,1.8398
2023-03-15 15:14:29:215,-0.508923,-1.28911,-9.69333,7.90851,-2.95338,1.83428
2023-03-15 15:14:29:225,-0.491361,-1.31568,-9.66781,7.90763,-2.94999,1.82973
2023-03-15 15:14:29:235,-0.463319,-1.33069,-9.64028,7.91172,-2.94511,1.82889
2023-03-15 15:14:29:245,-0.463213,-1.32994,-9.63688,7.9146,-2.94242,1.82121
2023-03-15 15:14:29:255,-0.4785,-1.33971,-9.63488,7.91577,-2.94027,1.8165
2023-03-15 15:14:29:265,-0.488789,-1.33577,-9.65289,7.91557,-2.93804,1.81508
2023-03-15 15:14:29:275,-0.460141,-1.33083,-9.69031,7.91742,-2.93137,1.81109
2023-03-15 15:14:29:285,-0.402182,-1.33649,-9.70986,7.91619,-2.92563,1.80538
2023-03-15 15:14:29:295,-0.353145,-1.36634,-9.71599,7.91764,-2.92371,1.80578
2023-03-15 15:14:29:305,-0.376317,-1.35611,-9.70817,7.91784,-2.92628,1.81006
2023-03-15 15:14:29:315,-0.449082,-1.34838,-9.69958,7.9177,-2.93835,1.81492
2023-03-15 15:14:29:325,-0.496788,-1.33784,-9.68137,7.91759,-2.9505,1.82379
2023-03-15 15:14:29:335,-0.50619,-1.32936,-9.68382,7.91754,-2.95816,1.83197
2023-03-15 15:14:29:345,-0.500116,-1.31504,-9.67746,7.91259,-2.96497,1.84128
2023-03-15 15:14:29:355,-0.510325,-1.29526,-9.6596,7.90652,-2.96959,1.85109
2023-03-15 15:14:29:365,-0.51509,-1.26956,-9.67316,7.90208,-2.97074,1.8587
2023-03-15 15:14:29:375,-0.52378,-1.24448,-9.68537,7.89755,-2.97066,1.8677
2023-03-15 15:14:29:385,-0.529162,-1.24972,-9.68853,7.90133,-2.96961,1.876
2023-03-15 15:14:29:395,-0.559314,-1.26142,-9.66535,7.90666,-2.96737,1.88434
2023-03-15 15:14:29:405,-0.575857,-1.28132,-9.64535,7.91264,-2.96582,1.88891
2023-03-15 15:14:29:415,-0.561214,-1.30065,-9.61725,7.9183,-2.96323,1.88856
2023-03-15 15:14:29:425,-0.53083,-1.32525,-9.60754,7.92624,-2.96207,1.88193
2023-03-15 15:14:29:435,-0.512203,-1.34464,-9.61705,7.93405,-2.96081,1.87711
2023-03-15 15:14:29:445,-0.490664,-1.36201,-9.64567,7.93932,-2.96105,1.86914
2023-03-15 15:14:29:455,-0.469416,-1.36779,-9.64863,7.94095,-2.95966,1.86054
2023-03-15 15:14:29:465,-0.452742,-1.36421,-9.66335,7.93947,-2.96309,1.85495
2023-03-15 15:14:29:475,-0.453653,-1.35279,-9.65844,7.93918,-2.96811,1.84711
2023-03-15 15:14:29:485,-0.434954,-1.34976,-9.66092,7.93704,-2.96745,1.84176
2023-03-15 15:14:29:495,-0.43304,-1.34606,-9.67054,7.93445,-2.96714,1.84009
2023-03-15 15:14:29:505,-0.449643,-1.34029,-9.67032,7.92902,-2.96765,1.84086
2023-03-15 15:14:29:515,-0.475063,-1.32742,-9.68269,7.92177,-2.96646,1.84605
2023-03-15 15:14:29:525,-0.459075,-1.29484,-9.6905,7.91575,-2.96277,1.84996
2023-03-15 15:14:29:535,-0.411317,-1.2846,-9.71612,7.91078,-2.96286,1.85622
2023-03-15 15:14:29:545,-0.395592,-1.28721,-9.71262,7.90487,-2.96565,1.86469
2023-03-15 15:14:29:555,-0.455969,-1.28123,-9.69359,7.90304,-2.97,1.87407
2023-03-15 15:14:29:565,-0.51462,-1.2783,-9.69373,7.90439,-2.97817,1.88834
2023-03-15 15:14:29:575,-0.53649,-1.27469,-9.7233,7.90558,-2.98827,1.89827
2023-03-15 15:14:29:585,-0.54342,-1.2785,-9.73847,7.9127,-2.99933,1.90577
2023-03-15 15:14:29:595,-0.561879,-1.29137,-9.7335,7.92062,-3.00955,1.91468
2023-03-15 15:14:29:605,-0.567314,-1.29811,-9.72327,7.92915,-3.02155,1.92007
2023-03-15 15:14:29:615,-0.587539,-1.30921,-9.71725,7.942,-3.03516,1.92452
2023-03-15 15:14:29:625,-0.61898,-1.29348,-9.70255,7.95477,-3.04677,1.92449
2023-03-15 15:14:29:635,-0.647724,-1.29352,-9.69584,7.96771,-3.05422,1.92639
2023-03-15 15:14:29:645,-0.645327,-1.30442,-9.67381,7.97977,-3.05665,1.92779
2023-03-15 15:14:29:655,-0.60723,-1.33159,-9.63503,7.99862,-3.05833,1.9248
2023-03-15 15:14:29:665,-0.547586,-1.36508,-9.63484,8.01732,-3.05859,1.92654
2023-03-15 15:14:29:675,-0.523466,-1.36249,-9.63365,8.03281,-3.05763,1.92164
2023-03-15 15:14:29:685,-0.514481,-1.36073,-9.62409,8.0457,-3.05488,1.91868
2023-03-15 15:14:29:695,-0.506617,-1.3752,-9.63969,8.05835,-3.0589,1.92108
2023-03-15 15:14:29:705,-0.494404,-1.37876,-9.64426,8.06624,-3.06054,1.92535
2023-03-15 15:14:29:715,-0.495363,-1.38592,-9.62692,8.07562,-3.06342,1.93247
2023-03-15 15:14:29:725,-0.51575,-1.38539,-9.60983,8.08375,-3.06475,1.94343
2023-03-15 15:14:29:735,-0.518621,-1.38477,-9.60632,8.0884,-3.06771,1.95733
2023-03-15 15:14:29:745,-0.540706,-1.38354,-9.62221,8.09106,-3.07158,1.96922
2023-03-15 15:14:29:755,-0.590849,-1.37845,-9.64534,8.09829,-3.07061,1.98569
2023-03-15 15:14:29:765,-0.583832,-1.37399,-9.63951,8.10267,-3.06782,1.99805
2023-03-15 15:14:29:775,-0.573294,-1.38817,-9.61803,8.10571,-3.0624,2.00855
2023-03-15 15:14:29:785,-0.587014,-1.38023,-9.59553,8.10702,-3.05561,2.02013
2023-03-15 15:14:29:795,-0.606885,-1.3758,-9.58195,8.10587,-3.05215,2.0285
2023-03-15 15:14:29:805,-0.597331,-1.37599,-9.61719,8.10186,-3.04253,2.03479
2023-03-15 15:14:29:815,-0.564075,-1.37238,-9.61854,8.0969,-3.03562,2.03487
2023-03-15 15:14:29:825,-0.537812,-1.38176,-9.6207,8.09331,-3.02733,2.03173
2023-03-15 15:14:29:835,-0.521776,-1.38173,-9.638,8.08336,-3.02427,2.02596
2023-03-15 15:14:29:845,-0.515226,-1.3575,-9.65726,8.07214,-3.01912,2.02093
2023-03-15 15:14:29:855,-0.514407,-1.34595,-9.6669,8.06253,-3.01286,2.00825
2023-03-15 15:14:29:865,-0.517122,-1.36407,-9.64641,8.0532,-3.00838,1.99977
2023-03-15 15:14:29:875,-0.51363,-1.35315,-9.64423,8.0439,-3.00065,1.99223
2023-03-15 15:14:29:885,-0.538785,-1.33687,-9.68309,8.03053,-2.99416,1.98465
2023-03-15 15:14:29:895,-0.61811,-1.29766,-9.71849,8.02011,-2.98552,1.97508
2023-03-15 15:14:29:905,-0.664935,-1.28219,-9.70688,8.00954,-2.973,1.96276
2023-03-15 15:14:29:915,-0.683505,-1.29421,-9.68414,8.00053,-2.95584,1.9478
2023-03-15 15:14:29:925,-0.661647,-1.31188,-9.66806,7.99519,-2.92804,1.93256
2023-03-15 15:14:29:935,-0.614176,-1.31425,-9.65628,7.98899,-2.8953,1.91241
2023-03-15 15:14:29:945,-0.557983,-1.33368,-9.64297,7.98433,-2.86282,1.88431
2023-03-15 15:14:29:955,-0.52159,-1.33621,-9.65105,7.98078,-2.83448,1.85634
2023-03-15 15:14:29:965,-0.490788,-1.33047,-9.65749,7.9729,-2.79972,1.82618
2023-03-15 15:14:29:975,-0.456532,-1.3366,-9.66317,7.9664,-2.77017,1.79946
2023-03-15 15:14:29:985,-0.399028,-1.33908,-9.67658,7.95895,-2.73673,1.76875
2023-03-15 15:14:29:995,-0.367437,-1.34199,-9.68177,7.94936,-2.71146,1.73641
2023-03-15 15:14:30:5,-0.381262,-1.33376,-9.6733,7.9402,-2.68726,1.70544
2023-03-15 15:14:30:15,-0.392334,-1.30688,-9.67965,7.93204,-2.66493,1.6758
2023-03-15 15:14:30:25,-0.346422,-1.31977,-9.68112,7.92791,-2.63935,1.64835
2023-03-15 15:14:30:35,-0.328333,-1.35565,-9.65727,7.92642,-2.61253,1.62543
2023-03-15 15:14:30:45,-0.338566,-1.36746,-9.65937,7.92321,-2.58666,1.60884
2023-03-15 15:14:30:55,-0.332183,-1.37188,-9.67046,7.92302,-2.56422,1.59148
2023-03-15 15:14:30:65,-0.31434,-1.36509,-9.65421,7.91863,-2.54446,1.5781
2023-03-15 15:14:30:75,-0.32606,-1.36451,-9.65181,7.91308,-2.52572,1.56982
2023-03-15 15:14:30:85,-0.315955,-1.35379,-9.63468,7.9059,-2.50537,1.56084
2023-03-15 15:14:30:95,-0.307509,-1.34362,-9.61559,7.90042,-2.48961,1.55356
2023-03-15 15:14:30:105,-0.334073,-1.34849,-9.61148,7.89222,-2.47683,1.54579
2023-03-15 15:14:30:115,-0.369043,-1.34439,-9.64959,7.88101,-2.4707,1.5386
2023-03-15 15:14:30:125,-0.362551,-1.34533,-9.70842,7.86811,-2.46067,1.53215
2023-03-15 15:14:30:135,-0.309087,-1.35299,-9.72825,7.85865,-2.45488,1.52404
2023-03-15 15:14:30:145,-0.297193,-1.34945,-9.72652,7.84853,-2.45589,1.51938
2023-03-15 15:14:30:155,-0.338194,-1.30381,-9.77299,7.83883,-2.45969,1.51662
2023-03-15 15:14:30:165,-0.380361,-1.31005,-9.74866,7.83274,-2.46301,1.51305
2023-03-15 15:14:30:175,-0.409006,-1.31917,-9.69257,7.83055,-2.4668,1.51702
2023-03-15 15:14:30:185,-0.451091,-1.3141,-9.63591,7.82448,-2.47384,1.52147
2023-03-15 15:14:30:195,-0.494322,-1.28327,-9.64819,7.81054,-2.47635,1.52615
2023-03-15 15:14:30:205,-0.522986,-1.23517,-9.67832,7.7966,-2.47587,1.52999
2023-03-15 15:14:30:215,-0.531732,-1.19288,-9.68348,7.78367,-2.46941,1.52604
2023-03-15 15:14:30:225,-0.539371,-1.1907,-9.67075,7.77327,-2.46152,1.5151
2023-03-15 15:14:30:235,-0.537515,-1.20142,-9.66706,7.76665,-2.45252,1.50113
2023-03-15 15:14:30:245,-0.532252,-1.20034,-9.67337,7.76287,-2.44108,1.48161
2023-03-15 15:14:30:255,-0.531194,-1.20944,-9.67813,7.75979,-2.42859,1.4601
2023-03-15 15:14:30:265,-0.494106,-1.24572,-9.67549,7.76215,-2.41768,1.4324
2023-03-15 15:14:30:275,-0.445973,-1.28412,-9.64764,7.7621,-2.40406,1.39911
2023-03-15 15:14:30:285,-0.405483,-1.30109,-9.65682,7.76455,-2.3909,1.36505
2023-03-15 15:14:30:295,-0.380543,-1.29592,-9.67406,7.76854,-2.37625,1.32875
2023-03-15 15:14:30:305,-0.351701,-1.30933,-9.65702,7.7724,-2.36091,1.29533
2023-03-15 15:14:30:315,-0.340156,-1.34694,-9.64916,7.76996,-2.34601,1.26302
2023-03-15 15:14:30:325,-0.324944,-1.34475,-9.65752,7.76672,-2.3269,1.23658
2023-03-15 15:14:30:335,-0.290148,-1.32211,-9.68599,7.76046,-2.31221,1.2127
2023-03-15 15:14:30:345,-0.306773,-1.29619,-9.6819,7.75166,-2.29813,1.19255
2023-03-15 15:14:30:355,-0.334935,-1.29128,-9.64681,7.74281,-2.28622,1.17835
2023-03-15 15:14:30:365,-0.352293,-1.3024,-9.63286,7.73536,-2.26944,1.16781
2023-03-15 15:14:30:375,-0.334383,-1.29453,-9.65142,7.72547,-2.25383,1.15872
2023-03-15 15:14:30:385,-0.289237,-1.28723,-9.68496,7.7152,-2.23742,1.14614
2023-03-15 15:14:30:395,-0.253138,-1.28915,-9.66577,7.70588,-2.22329,1.13772
2023-03-15 15:14:30:405,-0.290484,-1.27741,-9.64881,7.69513,-2.20847,1.12764
2023-03-15 15:14:30:415,-0.337294,-1.25163,-9.69324,7.6831,-2.19878,1.12235
2023-03-15 15:14:30:425,-0.339246,-1.24425,-9.72309,7.67126,-2.18937,1.11531
2023-03-15 15:14:30:435,-0.327145,-1.26164,-9.72249,7.66279,-2.18096,1.10412
2023-03-15 15:14:30:445,-0.319583,-1.27686,-9.70163,7.65257,-2.1728,1.09397
2023-03-15 15:14:30:455,-0.305353,-1.2746,-9.68955,7.64316,-2.16764,1.08373
2023-03-15 15:14:30:465,-0.298915,-1.27678,-9.71314,7.63288,-2.16609,1.07649
2023-03-15 15:14:30:475,-0.303295,-1.25569,-9.72196,7.62213,-2.16361,1.06688
2023-03-15 15:14:30:485,-0.319115,-1.25275,-9.69438,7.61565,-2.16276,1.05875
2023-03-15 15:14:30:495,-0.32365,-1.27433,-9.68473,7.61201,-2.16252,1.05179
2023-03-15 15:14:30:505,-0.335884,-1.27636,-9.68775,7.60651,-2.16199,1.04609
2023-03-15 15:14:30:515,-0.350342,-1.2691,-9.69064,7.5985,-2.16299,1.04335
2023-03-15 15:14:30:525,-0.38362,-1.25561,-9.6764,7.58982,-2.16788,1.03659
2023-03-15 15:14:30:535,-0.407082,-1.25931,-9.66592,7.58195,-2.17212,1.02676
2023-03-15 15:14:30:545,-0.394963,-1.26594,-9.67429,7.57609,-2.17812,1.0181
2023-03-15 15:14:30:555,-0.364682,-1.26694,-9.68053,7.56729,-2.18747,1.01008
2023-03-15 15:14:30:565,-0.348632,-1.28021,-9.69694,7.55809,-2.19276,0.998037
2023-03-15 15:14:30:575,-0.34079,-1.27999,-9.66976,7.54771,-2.20296,0.990234
2023-03-15 15:14:30:585,-0.384795,-1.22478,-9.70123,7.53905,-2.21111,0.981589
2023-03-15 15:14:30:595,-0.409029,-1.15417,-9.76495,7.52954,-2.21511,0.973395
2023-03-15 15:14:30:605,-0.367933,-1.16529,-9.76361,7.52567,-2.21611,0.963747
2023-03-15 15:14:30:615,-0.37345,-1.18227,-9.71941,7.52705,-2.21444,0.959451
2023-03-15 15:14:30:625,-0.416388,-1.22064,-9.65157,7.52582,-2.21797,0.957251
2023-03-15 15:14:30:635,-0.448599,-1.21771,-9.64346,7.52996,-2.22436,0.955871
2023-03-15 15:14:30:645,-0.449442,-1.16405,-9.70256,7.52351,-2.22875,0.952999
2023-03-15 15:14:30:655,-0.443162,-1.1392,-9.73496,7.52145,-2.2325,0.948666
2023-03-15 15:14:30:665,-0.425651,-1.15172,-9.7161,7.52248,-2.229,0.941736
2023-03-15 15:14:30:675,-0.417917,-1.17162,-9.7091,7.52812,-2.22718,0.932469
2023-03-15 15:14:30:685,-0.413959,-1.18427,-9.72757,7.53226,-2.22833,0.920135
2023-03-15 15:14:30:695,-0.416648,-1.1806,-9.73,7.53926,-2.22333,0.908535
2023-03-15 15:14:30:705,-0.421285,-1.19847,-9.70795,7.54507,-2.21922,0.898233
2023-03-15 15:14:30:715,-0.404773,-1.20915,-9.66961,7.55595,-2.21289,0.886585
2023-03-15 15:14:30:725,-0.391981,-1.23818,-9.67203,7.56232,-2.21022,0.871823
2023-03-15 15:14:30:735,-0.380109,-1.24112,-9.66865,7.56751,-2.21049,0.859406
2023-03-15 15:14:30:745,-0.368323,-1.23147,-9.68667,7.57235,-2.20991,0.846825
2023-03-15 15:14:30:755,-0.35229,-1.22576,-9.69969,7.57781,-2.20979,0.832635
2023-03-15 15:14:30:765,-0.342826,-1.23007,-9.72884,7.58256,-2.21083,0.814805
2023-03-15 15:14:30:775,-0.344479,-1.21513,-9.75518,7.58446,-2.21689,0.799695
2023-03-15 15:14:30:785,-0.338177,-1.21259,-9.74958,7.59135,-2.22281,0.780928
2023-03-15 15:14:30:795,-0.351191,-1.2279,-9.73799,7.60103,-2.22886,0.769178
2023-03-15 15:14:30:805,-0.374683,-1.2405,-9.71731,7.61215,-2.23761,0.75569
2023-03-15 15:14:30:815,-0.388676,-1.24662,-9.67835,7.6232,-2.24599,0.744587
2023-03-15 15:14:30:825,-0.388898,-1.25877,-9.66368,7.63576,-2.25168,0.734534
2023-03-15 15:14:30:835,-0.37359,-1.28295,-9.65065,7.6486,-2.25691,0.725445
2023-03-15 15:14:30:845,-0.385537,-1.29197,-9.65388,7.65942,-2.26095,0.716757
2023-03-15 15:14:30:855,-0.412915,-1.28193,-9.66063,7.67414,-2.26381,0.711426
2023-03-15 15:14:30:865,-0.41263,-1.2856,-9.66865,7.68599,-2.26369,0.703836
2023-03-15 15:14:30:875,-0.405292,-1.29411,-9.65075,7.69707,-2.2604,0.694963
2023-03-15 15:14:30:885,-0.415575,-1.29345,-9.62703,7.70658,-2.26014,0.681763
2023-03-15 15:14:30:895,-0.379471,-1.32489,-9.61044,7.71647,-2.25474,0.671194
2023-03-15 15:14:30:905,-0.351563,-1.33835,-9.58965,7.724,-2.25208,0.664567
2023-03-15 15:14:30:915,-0.368111,-1.33915,-9.60927,7.73103,-2.25234,0.65878
2023-03-15 15:14:30:925,-0.398283,-1.33653,-9.64216,7.73653,-2.25376,0.64969
2023-03-15 15:14:30:935,-0.377085,-1.32714,-9.69316,7.74215,-2.24784,0.639005
2023-03-15 15:14:30:945,-0.284054,-1.34898,-9.68241,7.74724,-2.24283,0.633204
2023-03-15 15:14:30:955,-0.272745,-1.349,-9.66451,7.74766,-2.24107,0.627281
2023-03-15 15:14:30:965,-0.277949,-1.36141,-9.69329,7.74703,-2.24189,0.626865
2023-03-15 15:14:30:975,-0.29912,-1.34538,-9.6929,7.74969,-2.24472,0.627982
2023-03-15 15:14:30:985,-0.343502,-1.32596,-9.70861,7.74557,-2.25034,0.632236
2023-03-15 15:14:30:995,-0.371498,-1.29879,-9.70788,7.741,-2.25488,0.636925
2023-03-15 15:14:31:5,-0.367259,-1.28864,-9.69183,7.73434,-2.25861,0.636656
2023-03-15 15:14:31:15,-0.368669,-1.29005,-9.67704,7.7271,-2.26528,0.637351
2023-03-15 15:14:31:25,-0.371575,-1.2761,-9.66693,7.71715,-2.27227,0.637118
2023-03-15 15:14:31:35,-0.42191,-1.22633,-9.65505,7.71069,-2.2775,0.636825
2023-03-15 15:14:31:45,-0.383883,-1.21013,-9.69806,7.70631,-2.27326,0.63199
2023-03-15 15:14:31:55,-0.315116,-1.24452,-9.64974,7.70718,-2.27739,0.628353
2023-03-15 15:14:31:65,-0.358629,-1.23518,-9.64285,7.70355,-2.2852,0.631974
2023-03-15 15:14:31:75,-0.418325,-1.21065,-9.69006,7.69568,-2.29303,0.634172
2023-03-15 15:14:31:85,-0.422808,-1.20765,-9.69595,7.69248,-2.30106,0.631541
2023-03-15 15:14:31:95,-0.404469,-1.24475,-9.68411,7.69564,-2.30745,0.630103
2023-03-15 15:14:31:105,-0.427781,-1.26273,-9.68593,7.6986,-2.30736,0.629498
2023-03-15 15:14:31:115,-0.412036,-1.30019,-9.69904,7.70247,-2.30747,0.628736
2023-03-15 15:14:31:125,-0.38614,-1.35251,-9.65531,7.7038,-2.31112,0.628779
2023-03-15 15:14:31:135,-0.402488,-1.31762,-9.66236,7.7025,-2.31591,0.630929
2023-03-15 15:14:31:145,-0.396903,-1.29991,-9.67477,7.69911,-2.32082,0.629497
2023-03-15 15:14:31:155,-0.401462,-1.28028,-9.66541,7.69657,-2.32529,0.624362
2023-03-15 15:14:31:165,-0.430819,-1.24964,-9.65072,7.68814,-2.32709,0.621444
2023-03-15 15:14:31:175,-0.43468,-1.19902,-9.74986,7.67955,-2.3205,0.613698
2023-03-15 15:14:31:185,-0.342028,-1.21456,-9.77396,7.67485,-2.31553,0.601985
2023-03-15 15:14:31:195,-0.279908,-1.25021,-9.73353,7.66864,-2.31399,0.589314
2023-03-15 15:14:31:205,-0.332825,-1.22336,-9.72167,7.66232,-2.32095,0.578627
2023-03-15 15:14:31:215,-0.373818,-1.18498,-9.77314,7.66057,-2.3215,0.570478
2023-03-15 15:14:31:225,-0.334873,-1.23542,-9.72597,7.66894,-2.32567,0.565601
2023-03-15 15:14:31:235,-0.337266,-1.2882,-9.62538,7.67232,-2.32813,0.565073
2023-03-15 15:14:31:245,-0.361806,-1.28265,-9.62174,7.67239,-2.33631,0.569196
2023-03-15 15:14:31:255,-0.366667,-1.2431,-9.66993,7.66626,-2.34851,0.569001
2023-03-15 15:14:31:265,-0.36689,-1.2273,-9.7204,7.66317,-2.3586,0.57166
2023-03-15 15:14:31:275,-0.407384,-1.21171,-9.72314,7.6661,-2.36387,0.575899
2023-03-15 15:14:31:285,-0.393765,-1.24112,-9.71218,7.67065,-2.36173,0.579514
2023-03-15 15:14:31:295,-0.327414,-1.31244,-9.64053,7.67964,-2.36372,0.585044
2023-03-15 15:14:31:305,-0.349739,-1.30161,-9.62712,7.68138,-2.37442,0.59496
2023-03-15 15:14:31:315,-0.412474,-1.25165,-9.68393,7.67981,-2.37897,0.600441
2023-03-15 15:14:31:325,-0.41344,-1.24173,-9.68649,7.68321,-2.38514,0.608811
2023-03-15 15:14:31:335,-0.421111,-1.2524,-9.67743,7.68746,-2.38765,0.614429
2023-03-15 15:14:31:345,-0.364183,-1.27659,-9.66687,7.69628,-2.38091,0.619186
2023-03-15 15:14:31:355,-0.309764,-1.34327,-9.57459,7.70223,-2.3858,0.628519
2023-03-15 15:14:31:365,-0.348817,-1.31575,-9.60085,7.70078,-2.39523,0.645292
2023-03-15 15:14:31:375,-0.387195,-1.2771,-9.66939,7.69421,-2.40456,0.656951
2023-03-15 15:14:31:385,-0.383919,-1.26373,-9.69335,7.69178,-2.41084,0.664205
2023-03-15 15:14:31:395,-0.376212,-1.27043,-9.66855,7.687,-2.41758,0.673919
2023-03-15 15:14:31:405,-0.378203,-1.29138,-9.65058,7.6804,-2.42626,0.687911
2023-03-15 15:14:31:415,-0.381019,-1.28913,-9.66005,7.67325,-2.43386,0.703357
2023-03-15 15:14:31:425,-0.399559,-1.25902,-9.69507,7.66164,-2.44191,0.718403
2023-03-15 15:14:31:435,-0.413891,-1.23892,-9.71223,7.65479,-2.44994,0.732592
2023-03-15 15:14:31:445,-0.434247,-1.21869,-9.70751,7.64851,-2.45743,0.746935
2023-03-15 15:14:31:455,-0.434273,-1.22388,-9.7156,7.64373,-2.46778,0.757287
2023-03-15 15:14:31:465,-0.428007,-1.23767,-9.69539,7.63903,-2.47633,0.768059
2023-03-15 15:14:31:475,-0.452905,-1.26224,-9.6671,7.63999,-2.48472,0.778715
2023-03-15 15:14:31:485,-0.469437,-1.26858,-9.66738,7.63738,-2.4924,0.788123
2023-03-15 15:14:31:495,-0.458279,-1.28086,-9.65997,7.63731,-2.50176,0.793572
2023-03-15 15:14:31:505,-0.439687,-1.28366,-9.66022,7.63635,-2.51463,0.795619
2023-03-15 15:14:31:515,-0.448457,-1.29381,-9.65537,7.63134,-2.52292,0.798642
2023-03-15 15:14:31:525,-0.45431,-1.30001,-9.66965,7.62569,-2.53202,0.798016
2023-03-15 15:14:31:535,-0.435647,-1.29669,-9.68714,7.62277,-2.54327,0.798104
2023-03-15 15:14:31:545,-0.420998,-1.28322,-9.69719,7.61676,-2.55356,0.79801
2023-03-15 15:14:31:555,-0.415462,-1.28259,-9.70901,7.60967,-2.56454,0.793299
2023-03-15 15:14:31:565,-0.429634,-1.293,-9.68666,7.60433,-2.57482,0.797563
2023-03-15 15:14:31:575,-0.420428,-1.3082,-9.6728,7.60394,-2.5844,0.79925
2023-03-15 15:14:31:585,-0.409785,-1.31332,-9.65122,7.6037,-2.59237,0.801072
2023-03-15 15:14:31:595,-0.41699,-1.31669,-9.66111,7.6029,-2.59794,0.806594
2023-03-15 15:14:31:605,-0.433192,-1.31367,-9.66371,7.59807,-2.60333,0.81059
2023-03-15 15:14:31:615,-0.441036,-1.30056,-9.6581,7.59214,-2.61063,0.814709
2023-03-15 15:14:31:625,-0.448152,-1.29528,-9.6587,7.58375,-2.61716,0.819439
2023-03-15 15:14:31:635,-0.462504,-1.28428,-9.66583,7.5809,-2.62557,0.821468
2023-03-15 15:14:31:645,-0.478345,-1.27831,-9.66042,7.57646,-2.63107,0.825605
2023-03-15 15:14:31:655,-0.506867,-1.29652,-9.67107,7.57414,-2.63357,0.827943
2023-03-15 15:14:31:665,-0.533187,-1.28913,-9.65655,7.56786,-2.63613,0.82933
2023-03-15 15:14:31:675,-0.543779,-1.30096,-9.64201,7.5643,-2.63599,0.824861
2023-03-15 15:14:31:685,-0.536166,-1.3193,-9.62837,7.5598,-2.63436,0.823724
2023-03-15 15:14:31:695,-0.509088,-1.31881,-9.59838,7.5458,-2.62996,0.820625
2023-03-15 15:14:31:705,-0.470651,-1.33983,-9.5516,7.53087,-2.62111,0.820457
2023-03-15 15:14:31:715,-0.438145,-1.34375,-9.55241,7.50912,-2.61059,0.822255
2023-03-15 15:14:31:725,-0.432733,-1.28874,-9.60176,7.47986,-2.60216,0.827587
2023-03-15 15:14:31:735,-0.468175,-1.22769,-9.67766,7.445,-2.59627,0.8269
2023-03-15 15:14:31:745,-0.48623,-1.19333,-9.76375,7.41046,-2.59502,0.822433
2023-03-15 15:14:31:755,-0.428168,-1.13404,-9.82324,7.38089,-2.58955,0.815494
2023-03-15 15:14:31:765,-0.358092,-1.15326,-9.82517,7.36264,-2.58372,0.809765
2023-03-15 15:14:31:775,-0.361304,-1.19091,-9.74761,7.34847,-2.5848,0.806764
2023-03-15 15:14:31:785,-0.408569,-1.19935,-9.71746,7.33478,-2.59228,0.806784
2023-03-15 15:14:31:795,-0.45069,-1.18644,-9.70402,7.3214,-2.60686,0.810683
2023-03-15 15:14:31:805,-0.481762,-1.18018,-9.68051,7.31073,-2.61953,0.814131
2023-03-15 15:14:31:815,-0.504724,-1.18644,-9.66953,7.29824,-2.6341,0.816109
2023-03-15 15:14:31:825,-0.513086,-1.1624,-9.67118,7.28922,-2.64855,0.818676
2023-03-15 15:14:31:835,-0.494554,-1.1526,-9.66891,7.27947,-2.65734,0.822028
2023-03-15 15:14:31:845,-0.481619,-1.1527,-9.69282,7.27351,-2.67105,0.82435
2023-03-15 15:14:31:855,-0.47286,-1.14571,-9.73271,7.26662,-2.67414,0.82598
2023-03-15 15:14:31:865,-0.49476,-1.13791,-9.73983,7.26491,-2.68349,0.829632
2023-03-15 15:14:31:875,-0.527601,-1.17093,-9.70564,7.26881,-2.69029,0.829063
2023-03-15 15:14:31:885,-0.518922,-1.21828,-9.69211,7.2706,-2.69768,0.830255
2023-03-15 15:14:31:895,-0.522531,-1.22853,-9.69932,7.27805,-2.70557,0.830806
2023-03-15 15:14:31:905,-0.532032,-1.22855,-9.72267,7.29074,-2.71013,0.830231
2023-03-15 15:14:31:915,-0.546577,-1.21968,-9.73596,7.30391,-2.7166,0.828881
2023-03-15 15:14:31:925,-0.561589,-1.23676,-9.7362,7.31856,-2.72286,0.823513
2023-03-15 15:14:31:935,-0.557261,-1.25967,-9.713,7.33936,-2.71839,0.812511
2023-03-15 15:14:31:945,-0.521576,-1.27896,-9.71101,7.35982,-2.71712,0.799314
2023-03-15 15:14:31:955,-0.441645,-1.32435,-9.71771,7.3864,-2.71239,0.782796
2023-03-15 15:14:31:965,-0.423209,-1.35093,-9.69382,7.41441,-2.7061,0.764962
2023-03-15 15:14:31:975,-0.437875,-1.39082,-9.65597,7.43835,-2.69598,0.747575
2023-03-15 15:14:31:985,-0.425011,-1.44252,-9.65633,7.46137,-2.68789,0.732626
2023-03-15 15:14:31:995,-0.378236,-1.40609,-9.70651,7.47921,-2.67783,0.71682
2023-03-15 15:14:32:5,-0.311028,-1.38592,-9.70349,7.49871,-2.6672,0.698962
2023-03-15 15:14:32:15,-0.296634,-1.41517,-9.65221,7.5185,-2.66971,0.681258
2023-03-15 15:14:32:25,-0.325375,-1.41447,-9.60087,7.5313,-2.67588,0.671392
2023-03-15 15:14:32:35,-0.362272,-1.40964,-9.62737,7.54156,-2.68095,0.659116
2023-03-15 15:14:32:45,-0.382716,-1.37337,-9.64309,7.54871,-2.69458,0.647561
2023-03-15 15:14:32:55,-0.388644,-1.35543,-9.62387,7.55465,-2.70669,0.638029
2023-03-15 15:14:32:65,-0.404445,-1.38313,-9.57618,7.55972,-2.71854,0.628825
2023-03-15 15:14:32:75,-0.479525,-1.36956,-9.54812,7.56346,-2.73262,0.626317
2023-03-15 15:14:32:85,-0.501076,-1.2987,-9.6634,7.56172,-2.73174,0.626402
2023-03-15 15:14:32:95,-0.356173,-1.396,-9.58482,7.56214,-2.73534,0.622409
2023-03-15 15:14:32:105,-0.480193,-1.3195,-9.59657,7.55429,-2.74049,0.630402
2023-03-15 15:14:32:115,-0.536125,-1.27967,-9.68813,7.55063,-2.74559,0.62903
2023-03-15 15:14:32:125,-0.191433,-1.43446,-9.59145,7.54624,-2.76929,0.618153
2023-03-15 15:14:32:135,-0.128832,-1.40345,-9.63819,7.53073,-2.80506,0.630929
2023-03-15 15:14:32:145,-0.347073,-1.22764,-9.81242,7.51001,-2.84674,0.661972
2023-03-15 15:14:32:155,-0.491061,-1.17257,-9.86768,7.5037,-2.88714,0.697916
2023-03-15 15:14:32:165,-0.504588,-1.30359,-9.64143,7.51375,-2.92531,0.7449
2023-03-15 15:14:32:175,-0.578064,-1.33348,-9.55238,7.52811,-2.94991,0.812087
2023-03-15 15:14:32:185,-0.682201,-1.28964,-9.57952,7.5347,-2.96894,0.884287
2023-03-15 15:14:32:195,-0.775865,-1.26706,-9.57824,7.53984,-2.9795,0.956278
2023-03-15 15:14:32:205,-0.832815,-1.22442,-9.57616,7.54219,-2.98837,1.02324
2023-03-15 15:14:32:215,-0.832925,-1.20398,-9.61749,7.5456,-2.98206,1.07841
2023-03-15 15:14:32:225,-0.777113,-1.23905,-9.62577,7.55056,-2.97155,1.12029
2023-03-15 15:14:32:235,-0.749526,-1.26629,-9.59362,7.5534,-2.967,1.15289
2023-03-15 15:14:32:245,-0.799634,-1.27375,-9.62243,7.5494,-2.97085,1.17072
2023-03-15 15:14:32:255,-0.860817,-1.26958,-9.68146,7.53781,-2.98764,1.17533
2023-03-15 15:14:32:265,-0.895878,-1.25904,-9.70469,7.52066,-3.00872,1.15363
2023-03-15 15:14:32:275,-0.929657,-1.23717,-9.66427,7.50404,-3.0346,1.1126
2023-03-15 15:14:32:285,-0.983717,-1.23785,-9.64545,7.48399,-3.06327,1.0543
2023-03-15 15:14:32:295,-0.973927,-1.20618,-9.68694,7.46159,-3.09065,0.972023
2023-03-15 15:14:32:305,-0.839174,-1.20006,-9.74274,7.44172,-3.10618,0.873121
2023-03-15 15:14:32:315,-0.699323,-1.2333,-9.70606,7.42887,-3.11238,0.765466
2023-03-15 15:14:32:325,-0.63656,-1.27025,-9.65612,7.42223,-3.11891,0.664208
2023-03-15 15:14:32:335,-0.603138,-1.31317,-9.61017,7.41983,-3.11781,0.560459
2023-03-15 15:14:32:345,-0.532652,-1.34849,-9.5583,7.41976,-3.11045,0.463212
2023-03-15 15:14:32:355,-0.447495,-1.39702,-9.52454,7.4146,-3.0957,0.377818
2023-03-15 15:14:32:365,-0.423302,-1.43452,-9.50382,7.40758,-3.07705,0.304913
2023-03-15 15:14:32:375,-0.408172,-1.45177,-9.48474,7.39857,-3.05385,0.243881
2023-03-15 15:14:32:385,-0.369287,-1.4735,-9.50857,7.3829,-3.02882,0.19231
2023-03-15 15:14:32:395,-0.301709,-1.44792,-9.60484,7.36076,-2.99781,0.154642
2023-03-15 15:14:32:405,-0.228495,-1.43274,-9.70875,7.33501,-2.96422,0.123555
2023-03-15 15:14:32:415,-0.225776,-1.41462,-9.75058,7.31522,-2.93229,0.106149
2023-03-15 15:14:32:425,-0.291619,-1.41282,-9.6797,7.30294,-2.91338,0.101629
2023-03-15 15:14:32:435,-0.411663,-1.41222,-9.56468,7.29558,-2.90161,0.106109
2023-03-15 15:14:32:445,-0.46226,-1.47199,-9.48505,7.28418,-2.89301,0.114818
2023-03-15 15:14:32:455,-0.551884,-1.49096,-9.41804,7.26185,-2.8907,0.132446
2023-03-15 15:14:32:465,-0.62053,-1.43597,-9.48632,7.22192,-2.88039,0.152282
2023-03-15 15:14:32:475,-0.6595,-1.36265,-9.56249,7.15897,-2.86767,0.168785
2023-03-15 15:14:32:485,-0.650921,-1.27011,-9.67373,7.08691,-2.84143,0.183465
2023-03-15 15:14:32:495,-0.576243,-1.20618,-9.76645,7.00822,-2.80986,0.193552
2023-03-15 15:14:32:505,-0.485632,-1.1528,-9.84573,6.93132,-2.77256,0.197331
2023-03-15 15:14:32:515,-0.46785,-1.10326,-9.83603,6.85612,-2.73456,0.202596
2023-03-15 15:14:32:525,-0.489412,-0.99376,-9.94056,6.78476,-2.69173,0.204706
2023-03-15 15:14:32:535,-0.417247,-1.01151,-9.88644,6.73012,-2.65163,0.198202
2023-03-15 15:14:32:545,-0.354461,-0.976425,-9.91478,6.68525,-2.60984,0.194603
2023-03-15 15:14:32:555,-0.272605,-0.9478,-10.0021,6.65612,-2.57405,0.185068
2023-03-15 15:14:32:565,-0.236162,-1.01918,-10.0183,6.64527,-2.55479,0.177465
2023-03-15 15:14:32:575,-0.350377,-1.07408,-9.96781,6.65344,-2.55135,0.17237
2023-03-15 15:14:32:585,-0.527066,-1.13146,-9.86123,6.67617,-2.56066,0.165236
2023-03-15 15:14:32:595,-0.65585,-1.20399,-9.71759,6.70614,-2.5751,0.150031
2023-03-15 15:14:32:605,-0.717914,-1.27025,-9.56339,6.73811,-2.59063,0.120583
2023-03-15 15:14:32:615,-0.724234,-1.30446,-9.46715,6.76106,-2.60546,0.0716449
2023-03-15 15:14:32:625,-0.637432,-1.30622,-9.40969,6.77527,-2.61721,0.00759003
2023-03-15 15:14:32:635,-0.486019,-1.289,-9.39984,6.77625,-2.62053,-0.0692722
2023-03-15 15:14:32:645,-0.372518,-1.25046,-9.42922,6.76298,-2.6152,-0.150012
2023-03-15 15:14:32:655,-0.277933,-1.20018,-9.47419,6.74514,-2.60889,-0.238274
2023-03-15 15:14:32:665,-0.191472,-1.19521,-9.46903,6.71627,-2.59604,-0.323416
2023-03-15 15:14:32:675,-0.115578,-1.21006,-9.48622,6.6828,-2.58816,-0.406997
2023-03-15 15:14:32:685,-0.0757961,-1.16509,-9.56112,6.63958,-2.58284,-0.477292
2023-03-15 15:14:32:695,-0.0693935,-1.12972,-9.6013,6.59185,-2.57941,-0.542541
2023-03-15 15:14:32:705,-0.0756871,-1.0858,-9.64332,6.53987,-2.58036,-0.59653
2023-03-15 15:14:32:715,-0.0926774,-1.04205,-9.72915,6.48422,-2.58618,-0.644316
2023-03-15 15:14:32:725,-0.12953,-0.992423,-9.79896,6.4271,-2.59704,-0.678589
2023-03-15 15:14:32:735,-0.185664,-0.959386,-9.83636,6.37316,-2.60594,-0.707626
2023-03-15 15:14:32:745,-0.217494,-0.92971,-9.86409,6.32557,-2.61376,-0.728769
2023-03-15 15:14:32:755,-0.223964,-0.951287,-9.85475,6.28458,-2.62059,-0.743085
2023-03-15 15:14:32:765,-0.227807,-0.982716,-9.82339,6.2489,-2.62462,-0.743647
2023-03-15 15:14:32:775,-0.216963,-0.978375,-9.83302,6.21653,-2.62898,-0.733872
2023-03-15 15:14:32:785,-0.212922,-0.936111,-9.90404,6.17907,-2.6286,-0.709055
2023-03-15 15:14:32:795,-0.218716,-0.892931,-9.9339,6.14731,-2.62907,-0.675966
2023-03-15 15:14:32:805,-0.287982,-0.891654,-9.86885,6.12026,-2.63844,-0.636544
2023-03-15 15:14:32:815,-0.418487,-0.89901,-9.82744,6.10141,-2.65239,-0.592193
2023-03-15 15:14:32:825,-0.53938,-0.865209,-9.84502,6.07486,-2.67561,-0.544285
2023-03-15 15:14:32:835,-0.590686,-0.802485,-9.90039,6.0481,-2.70103,-0.510648
2023-03-15 15:14:32:845,-0.653247,-0.767817,-9.91314,6.03152,-2.72275,-0.48653
2023-03-15 15:14:32:855,-0.680901,-0.800155,-9.88428,6.02642,-2.73875,-0.472912
2023-03-15 15:14:32:865,-0.630296,-0.861227,-9.8023,6.03038,-2.75289,-0.467958
2023-03-15 15:14:32:875,-0.570767,-0.892155,-9.75123,6.04019,-2.76055,-0.470826
2023-03-15 15:14:32:885,-0.517789,-0.93868,-9.70586,6.0483,-2.7732,-0.476085
2023-03-15 15:14:32:895,-0.465674,-0.965093,-9.66205,6.05089,-2.78392,-0.481337
2023-03-15 15:14:32:905,-0.442021,-0.951193,-9.63923,6.05497,-2.79495,-0.488002
2023-03-15 15:14:32:915,-0.466613,-0.937389,-9.63556,6.05549,-2.80653,-0.49792
2023-03-15 15:14:32:925,-0.466642,-0.936459,-9.67078,6.05303,-2.8148,-0.503379
2023-03-15 15:14:32:935,-0.408047,-0.924307,-9.70927,6.04993,-2.81846,-0.508525
2023-03-15 15:14:32:945,-0.389064,-0.910915,-9.74135,6.05512,-2.81628,-0.513936
2023-03-15 15:14:32:955,-0.362085,-0.978462,-9.71711,6.06294,-2.80796,-0.510734
2023-03-15 15:14:32:965,-0.3523,-1.04656,-9.68099,6.07583,-2.79647,-0.492903
2023-03-15 15:14:32:975,-0.358506,-1.06119,-9.71713,6.08661,-2.78608,-0.46421
2023-03-15 15:14:32:985,-0.364067,-1.06398,-9.78636,6.0949,-2.77736,-0.429696
2023-03-15 15:14:32:995,-0.342448,-1.03602,-9.83104,6.10471,-2.77138,-0.392499
2023-03-15 15:14:33:5,-0.307893,-1.07182,-9.77741,6.11362,-2.76667,-0.350922
2023-03-15 15:14:33:15,-0.372955,-1.09852,-9.71176,6.12178,-2.77284,-0.302253
2023-03-15 15:14:33:25,-0.511052,-1.07542,-9.68236,6.12199,-2.78667,-0.24961
2023-03-15 15:14:33:35,-0.548184,-1.02114,-9.72071,6.11924,-2.79998,-0.208181
2023-03-15 15:14:33:45,-0.536706,-1.01507,-9.66299,6.11603,-2.82075,-0.169061
2023-03-15 15:14:33:55,-0.578409,-0.992549,-9.6501,6.11213,-2.8348,-0.134972
2023-03-15 15:14:33:65,-0.500819,-1.02537,-9.66965,6.11245,-2.84357,-0.10496
2023-03-15 15:14:33:75,-0.465081,-1.02316,-9.68594,6.11521,-2.85524,-0.0737854
2023-03-15 15:14:33:85,-0.499814,-1.00915,-9.73864,6.11849,-2.86359,-0.0371833
2023-03-15 15:14:33:95,-0.521317,-1.05434,-9.67099,6.13144,-2.88115,-0.0018279
2023-03-15 15:14:33:105,-0.541169,-1.04593,-9.66166,6.13631,-2.8985,0.0374127
2023-03-15 15:14:33:115,-0.586942,-1.00651,-9.6406,6.14316,-2.92478,0.0711467
2023-03-15 15:14:33:125,-0.634561,-0.994573,-9.58734,6.14447,-2.95863,0.0896625
2023-03-15 15:14:33:135,-0.656334,-0.986332,-9.57798,6.14364,-2.99498,0.10511
2023-03-15 15:14:33:145,-0.663235,-0.980113,-9.58192,6.14205,-3.03319,0.112288
2023-03-15 15:14:33:155,-0.675444,-0.964787,-9.6106,6.14423,-3.06909,0.111842
2023-03-15 15:14:33:165,-0.681279,-0.972676,-9.66624,6.14695,-3.09753,0.108131
2023-03-15 15:14:33:175,-0.649626,-0.981271,-9.70126,6.1557,-3.11949,0.100902
2023-03-15 15:14:33:185,-0.571437,-1.03228,-9.69834,6.17079,-3.13483,0.0916218
2023-03-15 15:14:33:195,-0.494924,-1.11257,-9.70717,6.18541,-3.14624,0.088382
2023-03-15 15:14:33:205,-0.506299,-1.13311,-9.72976,6.19301,-3.16106,0.0947417
2023-03-15 15:14:33:215,-0.567689,-1.09324,-9.76478,6.19923,-3.18144,0.0994102
2023-03-15 15:14:33:225,-0.612287,-1.08926,-9.74453,6.20482,-3.19422,0.106495
2023-03-15 15:14:33:235,-0.599497,-1.17568,-9.62129,6.21326,-3.20096,0.120855
2023-03-15 15:14:33:245,-0.624923,-1.1197,-9.57463,6.20654,-3.21083,0.128596
2023-03-15 15:14:33:255,-0.655703,-0.988395,-9.66847,6.18447,-3.22019,0.126536
2023-03-15 15:14:33:265,-0.578293,-0.941957,-9.73256,6.16116,-3.23058,0.112144
2023-03-15 15:14:33:275,-0.50737,-0.889263,-9.74411,6.14128,-3.23637,0.0914671
2023-03-15 15:14:33:285,-0.461294,-0.908483,-9.79555,6.13035,-3.24199,0.069303
2023-03-15 15:14:33:295,-0.397201,-0.930013,-9.84675,6.12224,-3.24959,0.0557938
2023-03-15 15:14:33:305,-0.29655,-0.999931,-9.79145,6.12955,-3.25911,0.0437091
2023-03-15 15:14:33:315,-0.288178,-1.03048,-9.73993,6.13846,-3.2713,0.050685
2023-03-15 15:14:33:325,-0.320975,-1.06409,-9.68991,6.15189,-3.28142,0.0700684
2023-03-15 15:14:33:335,-0.410237,-1.08675,-9.61907,6.16705,-3.29111,0.108348
2023-03-15 15:14:33:345,-0.461122,-1.08386,-9.63585,6.17597,-3.29766,0.157247
2023-03-15 15:14:33:355,-0.50602,-1.11964,-9.64673,6.1806,-3.30779,0.215809
2023-03-15 15:14:33:365,-0.615262,-1.07176,-9.75229,6.17602,-3.31941,0.280292
2023-03-15 15:14:33:375,-0.747806,-0.943444,-9.87353,6.16659,-3.33276,0.337015
2023-03-15 15:14:33:385,-0.834165,-0.899661,-9.86701,6.1655,-3.33866,0.383051
2023-03-15 15:14:33:395,-0.829648,-0.946473,-9.76254,6.17486,-3.33779,0.413601
2023-03-15 15:14:33:405,-0.71651,-0.962837,-9.63606,6.18483,-3.33121,0.436847
2023-03-15 15:14:33:415,-0.661607,-0.972911,-9.60437,6.19849,-3.32763,0.449969
2023-03-15 15:14:33:425,-0.591321,-0.94807,-9.68281,6.20828,-3.31958,0.45524
2023-03-15 15:14:33:435,-0.475848,-0.968387,-9.71434,6.22114,-3.31215,0.453888
2023-03-15 15:14:33:445,-0.449494,-1.06178,-9.64314,6.23433,-3.31882,0.452628
2023-03-15 15:14:33:455,-0.534744,-1.14068,-9.57815,6.24103,-3.34432,0.450415
2023-03-15 15:14:33:465,-0.586086,-1.14819,-9.62246,6.23206,-3.37121,0.452943
2023-03-15 15:14:33:475,-0.593409,-1.11571,-9.69371,6.20865,-3.39519,0.458389
2023-03-15 15:14:33:485,-0.635955,-1.007,-9.73269,6.17497,-3.41607,0.464071
2023-03-15 15:14:33:495,-0.604146,-0.939608,-9.77953,6.13666,-3.42742,0.467952
2023-03-15 15:14:33:505,-0.505068,-0.937867,-9.75688,6.10272,-3.43261,0.476256
2023-03-15 15:14:33:515,-0.585681,-0.810837,-9.86121,6.06826,-3.43273,0.490565
2023-03-15 15:14:33:525,-0.647782,-0.710825,-10.0076,6.04498,-3.42486,0.501901
2023-03-15 15:14:33:535,-0.555047,-0.75675,-9.9806,6.04009,-3.41357,0.508933
2023-03-15 15:14:33:545,-0.441883,-0.846127,-9.89223,6.05276,-3.40132,0.528076
2023-03-15 15:14:33:555,-0.374532,-0.919342,-9.81555,6.07536,-3.39548,0.560066
2023-03-15 15:14:33:565,-0.42998,-0.960267,-9.74513,6.10457,-3.40499,0.610197
2023-03-15 15:14:33:575,-0.572842,-0.976625,-9.69592,6.13064,-3.43171,0.669443
2023-03-15 15:14:33:585,-0.750445,-0.954614,-9.66959,6.16175,-3.47395,0.734872
2023-03-15 15:14:33:595,-0.909528,-0.912398,-9.63373,6.18955,-3.51785,0.795673
2023-03-15 15:14:33:605,-0.992051,-0.908068,-9.59768,6.21632,-3.56206,0.843766
2023-03-15 15:14:33:615,-1.03175,-0.931424,-9.53718,6.24703,-3.60887,0.885643
2023-03-15 15:14:33:625,-1.08105,-0.962235,-9.46533,6.27823,-3.65885,0.918938
2023-03-15 15:14:33:635,-1.18772,-0.982457,-9.43068,6.30442,-3.71037,0.940408
2023-03-15 15:14:33:645,-1.30166,-0.977828,-9.48868,6.32671,-3.7564,0.942383
2023-03-15 15:14:33:655,-1.36144,-0.988784,-9.50245,6.34707,-3.78327,0.924494
2023-03-15 15:14:33:665,-1.3342,-1.01792,-9.52969,6.3705,-3.78393,0.89188
2023-03-15 15:14:33:675,-1.18472,-1.0614,-9.58289,6.39963,-3.76454,0.839972
2023-03-15 15:14:33:685,-0.93386,-1.11936,-9.60761,6.42793,-3.72116,0.775108
2023-03-15 15:14:33:695,-0.720686,-1.19158,-9.59681,6.45282,-3.66643,0.707225
2023-03-15 15:14:33:705,-0.593964,-1.24577,-9.58179,6.46896,-3.61289,0.639204
2023-03-15 15:14:33:715,-0.563667,-1.27118,-9.57313,6.46838,-3.56963,0.570949
2023-03-15 15:14:33:725,-0.592225,-1.16016,-9.67679,6.4463,-3.5295,0.498478
2023-03-15 15:14:33:735,-0.478887,-1.03416,-9.86339,6.4184,-3.4738,0.41789
2023-03-15 15:14:33:745,-0.271419,-1.0341,-9.85719,6.39916,-3.41248,0.334674
2023-03-15 15:14:33:755,-0.162943,-1.06826,-9.85466,6.39239,-3.35077,0.261379
2023-03-15 15:14:33:765,-0.135243,-1.06645,-9.85958,6.38952,-3.30012,0.198296
2023-03-15 15:14:33:775,-0.153893,-1.04491,-9.84091,6.39095,-3.26404,0.143986
2023-03-15 15:14:33:785,-0.195703,-1.03683,-9.80985,6.39837,-3.24076,0.0909777
2023-03-15 15:14:33:795,-0.245805,-1.03498,-9.78637,6.40404,-3.231,0.0440238
2023-03-15 15:14:33:805,-0.320385,-1.01899,-9.77674,6.41569,-3.23726,0.000893176
2023-03-15 15:14:33:815,-0.401062,-1.00951,-9.78017,6.42477,-3.25917,-0.0455668
2023-03-15 15:14:33:825,-0.463508,-0.978874,-9.84752,6.43434,-3.29451,-0.0964225
2023-03-15 15:14:33:835,-0.46307,-0.962303,-9.86107,6.45454,-3.33104,-0.152701
2023-03-15 15:14:33:845,-0.451673,-1.02062,-9.79338,6.48131,-3.37201,-0.211544
2023-03-15 15:14:33:855,-0.475458,-1.07269,-9.71391,6.51669,-3.4222,-0.270328
2023-03-15 15:14:33:865,-0.521617,-1.14271,-9.68548,6.55092,-3.47426,-0.322054
2023-03-15 15:14:33:875,-0.536252,-1.11126,-9.71242,6.57856,-3.52418,-0.36696
2023-03-15 15:14:33:885,-0.469,-1.11543,-9.75766,6.60744,-3.5681,-0.409469
2023-03-15 15:14:33:895,-0.44789,-1.15318,-9.75656,6.63498,-3.61031,-0.437624
2023-03-15 15:14:33:905,-0.46755,-1.15346,-9.7299,6.66223,-3.65035,-0.451312
2023-03-15 15:14:33:915,-0.525996,-1.11676,-9.76071,6.68406,-3.69087,-0.447242
2023-03-15 15:14:33:925,-0.65914,-1.08744,-9.80759,6.70758,-3.7323,-0.432767
2023-03-15 15:14:33:935,-0.808083,-1.04151,-9.779,6.73066,-3.77126,-0.415322
2023-03-15 15:14:33:945,-0.915968,-1.01995,-9.73221,6.75938,-3.80221,-0.40525
2023-03-15 15:14:33:955,-0.962244,-1.01385,-9.68722,6.79013,-3.82623,-0.395066
2023-03-15 15:14:33:965,-0.944072,-1.01229,-9.63182,6.82449,-3.83917,-0.398062
2023-03-15 15:14:33:975,-0.84,-1.01696,-9.55822,6.86566,-3.84705,-0.411984
2023-03-15 15:14:33:985,-0.702336,-1.03065,-9.56291,6.90658,-3.8505,-0.430607
2023-03-15 15:14:33:995,-0.610173,-0.994117,-9.68514,6.93971,-3.85495,-0.455919
2023-03-15 15:14:34:5,-0.529757,-0.983975,-9.77757,6.97725,-3.86192,-0.48089
2023-03-15 15:14:34:15,-0.481095,-0.980334,-9.83856,7.02215,-3.87659,-0.506293
2023-03-15 15:14:34:25,-0.436422,-1.0404,-9.88474,7.07416,-3.89977,-0.524151
2023-03-15 15:14:34:35,-0.422484,-1.12927,-9.89109,7.13697,-3.92878,-0.530004
2023-03-15 15:14:34:45,-0.445439,-1.16162,-9.94636,7.20824,-3.95885,-0.525781
2023-03-15 15:14:34:55,-0.519308,-1.22394,-9.87297,7.28957,-3.99635,-0.505001
2023-03-15 15:14:34:65,-0.613783,-1.28296,-9.77665,7.38069,-4.03941,-0.476561
2023-03-15 15:14:34:75,-0.702264,-1.3392,-9.6947,7.47335,-4.08699,-0.43815
2023-03-15 15:14:34:85,-0.770374,-1.3996,-9.59135,7.56644,-4.13686,-0.396445
2023-03-15 15:14:34:95,-0.841138,-1.46582,-9.51432,7.65503,-4.18823,-0.345639
2023-03-15 15:14:34:105,-0.880359,-1.50556,-9.4677,7.73451,-4.23264,-0.290094
2023-03-15 15:14:34:115,-0.905462,-1.50984,-9.45004,7.79974,-4.27798,-0.237831
2023-03-15 15:14:34:125,-0.919974,-1.48402,-9.49985,7.85804,-4.32187,-0.187611
2023-03-15 15:14:34:135,-0.906978,-1.48626,-9.58276,7.90476,-4.36097,-0.136642
2023-03-15 15:14:34:145,-0.893082,-1.38823,-9.69945,7.94759,-4.39285,-0.084777
2023-03-15 15:14:34:155,-0.852589,-1.35296,-9.6972,7.99743,-4.41979,-0.0342997
2023-03-15 15:14:34:165,-0.898352,-1.47255,-9.54645,8.05983,-4.44229,0.0283541
2023-03-15 15:14:34:175,-0.938461,-1.53961,-9.4359,8.12087,-4.45246,0.103453
2023-03-15 15:14:34:185,-0.862485,-1.53713,-9.49132,8.17461,-4.45529,0.184335
2023-03-15 15:14:34:195,-0.78912,-1.48042,-9.60614,8.22263,-4.45458,0.267311
2023-03-15 15:14:34:205,-0.774415,-1.50883,-9.63132,8.27808,-4.44492,0.358384
2023-03-15 15:14:34:215,-0.784008,-1.53764,-9.5939,8.33507,-4.42917,0.462331
2023-03-15 15:14:34:225,-0.856215,-1.56174,-9.52347,8.38785,-4.41572,0.579515
2023-03-15 15:14:34:235,-1.04329,-1.61935,-9.48707,8.44039,-4.39616,0.697343
2023-03-15 15:14:34:245,-1.29249,-1.5993,-9.45211,8.48434,-4.36724,0.812055
2023-03-15 15:14:34:255,-1.40912,-1.56168,-9.42203,8.51983,-4.32519,0.90529
2023-03-15 15:14:34:265,-1.31472,-1.50159,-9.47339,8.53948,-4.25571,0.968503
2023-03-15 15:14:34:275,-1.09479,-1.45589,-9.53718,8.55755,-4.16088,0.998281
2023-03-15 15:14:34:285,-0.910178,-1.40586,-9.5883,8.56987,-4.05145,1.00586
2023-03-15 15:14:34:295,-0.752206,-1.37964,-9.58642,8.58168,-3.93623,0.991151
2023-03-15 15:14:34:305,-0.593578,-1.40557,-9.53795,8.59808,-3.82477,0.954573
2023-03-15 15:14:34:315,-0.427919,-1.43617,-9.54505,8.61267,-3.71778,0.906291
2023-03-15 15:14:34:325,-0.287432,-1.41074,-9.60182,8.62118,-3.62211,0.8407
2023-03-15 15:14:34:335,-0.218002,-1.39731,-9.63183,8.63019,-3.54169,0.765929
2023-03-15 15:14:34:345,-0.176126,-1.42343,-9.58069,8.63927,-3.48141,0.685991
2023-03-15 15:14:34:355,-0.135842,-1.48213,-9.5326,8.64834,-3.43851,0.607382
2023-03-15 15:14:34:365,-0.170671,-1.5011,-9.52745,8.65368,-3.41104,0.530637
2023-03-15 15:14:34:375,-0.224057,-1.50814,-9.543,8.65265,-3.39658,0.464157
2023-03-15 15:14:34:385,-0.241509,-1.52235,-9.5546,8.65279,-3.3863,0.400676
2023-03-15 15:14:34:395,-0.262087,-1.51898,-9.59465,8.64182,-3.37664,0.344253
2023-03-15 15:14:34:405,-0.302521,-1.5272,-9.598,8.63534,-3.36786,0.296563
2023-03-15 15:14:34:415,-0.318486,-1.56473,-9.53726,8.62844,-3.36795,0.25811
2023-03-15 15:14:34:425,-0.335168,-1.60687,-9.47934,8.61899,-3.3659,0.232589
2023-03-15 15:14:34:435,-0.383188,-1.60712,-9.44744,8.60144,-3.36275,0.214323
2023-03-15 15:14:34:445,-0.426155,-1.57852,-9.44729,8.57426,-3.36041,0.207409
2023-03-15 15:14:34:455,-0.454481,-1.55458,-9.45077,8.5394,-3.35409,0.204376
2023-03-15 15:14:34:465,-0.485849,-1.52501,-9.49141,8.49189,-3.34648,0.207995
2023-03-15 15:14:34:475,-0.517928,-1.44438,-9.5754,8.43632,-3.33387,0.212016
2023-03-15 15:14:34:485,-0.551566,-1.38985,-9.66402,8.37013,-3.32359,0.216065
2023-03-15 15:14:34:495,-0.597748,-1.35764,-9.70468,8.30516,-3.31328,0.220643
2023-03-15 15:14:34:505,-0.600141,-1.32794,-9.74238,8.23896,-3.29421,0.217405
2023-03-15 15:14:34:515,-0.579112,-1.27951,-9.78309,8.17346,-3.27482,0.20604
2023-03-15 15:14:34:525,-0.558285,-1.2316,-9.80944,8.11164,-3.25614,0.187567
2023-03-15 15:14:34:535,-0.527315,-1.21053,-9.82367,8.05775,-3.2326,0.164853
2023-03-15 15:14:34:545,-0.472833,-1.19885,-9.81935,8.00737,-3.21216,0.136014
2023-03-15 15:14:34:555,-0.439434,-1.19889,-9.80557,7.96008,-3.19257,0.103977
2023-03-15 15:14:34:565,-0.433058,-1.21513,-9.75069,7.92373,-3.18,0.0741594
2023-03-15 15:14:34:575,-0.419971,-1.22947,-9.68762,7.88732,-3.17233,0.0421962
2023-03-15 15:14:34:585,-0.408076,-1.25181,-9.68455,7.85297,-3.1656,0.0147786
2023-03-15 15:14:34:595,-0.405873,-1.2192,-9.69699,7.81392,-3.16476,-0.00811807
2023-03-15 15:14:34:605,-0.399996,-1.19032,-9.71546,7.77904,-3.16152,-0.0287412
2023-03-15 15:14:34:615,-0.41059,-1.20685,-9.72703,7.74542,-3.16096,-0.0427593
2023-03-15 15:14:34:625,-0.447959,-1.21635,-9.73105,7.71499,-3.16379,-0.0484759
2023-03-15 15:14:34:635,-0.496451,-1.20041,-9.74987,7.6862,-3.16562,-0.050092
2023-03-15 15:14:34:645,-0.528214,-1.19799,-9.74662,7.66344,-3.16678,-0.0509894
2023-03-15 15:14:34:655,-0.545231,-1.22369,-9.73066,7.64235,-3.16992,-0.0486674
2023-03-15 15:14:34:665,-0.545344,-1.24363,-9.69752,7.62506,-3.17205,-0.0410526
2023-03-15 15:14:34:675,-0.517403,-1.23205,-9.68294,7.60624,-3.17212,-0.0307214
2023-03-15 15:14:34:685,-0.502916,-1.2159,-9.67944,7.58697,-3.17386,-0.0211666
2023-03-15 15:14:34:695,-0.551672,-1.19618,-9.68723,7.56802,-3.1822,-0.0119785
2023-03-15 15:14:34:705,-0.605636,-1.17185,-9.73174,7.55002,-3.19103,-0.00214994
2023-03-15 15:14:34:715,-0.651153,-1.14043,-9.78142,7.5296,-3.20113,0.00377662
2023-03-15 15:14:34:725,-0.654266,-1.14493,-9.8036,7.51715,-3.21466,0.00757463
2023-03-15 15:14:34:735,-0.610147,-1.17971,-9.77264,7.51303,-3.2272,0.00979902
2023-03-15 15:14:34:745,-0.57092,-1.22422,-9.72552,7.51047,-3.23689,0.0133774
2023-03-15 15:14:34:755,-0.576575,-1.23649,-9.68457,7.50515,-3.25239,0.0201447
2023-03-15 15:14:34:765,-0.598562,-1.23312,-9.6519,7.49948,-3.27228,0.0318663
2023-03-15 15:14:34:775,-0.642054,-1.2295,-9.6573,7.48448,-3.29094,0.0439685
2023-03-15 15:14:34:785,-0.668532,-1.19678,-9.66596,7.4683,-3.30678,0.0569722
2023-03-15 15:14:34:795,-0.676419,-1.16122,-9.66898,7.4503,-3.32123,0.0698702
2023-03-15 15:14:34:805,-0.700174,-1.1532,-9.68849,7.43327,-3.33633,0.080539
2023-03-15 15:14:34:815,-0.729749,-1.12995,-9.6866,7.41786,-3.35327,0.0909038
2023-03-15 15:14:34:825,-0.746829,-1.11846,-9.70286,7.40494,-3.36475,0.104056
2023-03-15 15:14:34:835,-0.776204,-1.12063,-9.68632,7.39062,-3.37157,0.110512
2023-03-15 15:14:34:845,-0.77996,-1.12891,-9.6684,7.383,-3.3741,0.114034
2023-03-15 15:14:34:855,-0.764376,-1.12384,-9.68783,7.37872,-3.37176,0.116285
2023-03-15 15:14:34:865,-0.74505,-1.1268,-9.69865,7.37893,-3.36449,0.110633
2023-03-15 15:14:34:875,-0.725776,-1.15295,-9.68102,7.3789,-3.35724,0.0974633
2023-03-15 15:14:34:885,-0.683185,-1.17676,-9.67307,7.37826,-3.34268,0.0795193
2023-03-15 15:14:34:895,-0.628592,-1.19168,-9.68777,7.38235,-3.33034,0.0580583
2023-03-15 15:14:34:905,-0.560416,-1.18741,-9.70903,7.38352,-3.31707,0.0277312
2023-03-15 15:14:34:915,-0.484305,-1.18704,-9.69636,7.38743,-3.31105,-0.00367558
2023-03-15 15:14:34:925,-0.444779,-1.20255,-9.70351,7.39076,-3.30986,-0.0313395
2023-03-15 15:14:34:935,-0.442333,-1.19406,-9.74691,7.39319,-3.3141,-0.055396
2023-03-15 15:14:34:945,-0.491299,-1.18257,-9.80197,7.39644,-3.32082,-0.0798835
2023-03-15 15:14:34:955,-0.567843,-1.18467,-9.78899,7.40334,-3.33368,-0.101378
2023-03-15 15:14:34:965,-0.541267,-1.22405,-9.74184,7.41526,-3.35114,-0.127524
2023-03-15 15:14:34:975,-0.577249,-1.23028,-9.69541,7.42812,-3.3713,-0.149332
2023-03-15 15:14:34:985,-0.691947,-1.21123,-9.70324,7.44003,-3.3887,-0.167644
2023-03-15 15:14:34:995,-0.74239,-1.2099,-9.71514,7.45526,-3.40159,-0.190404
2023-03-15 15:14:35:5,-0.713735,-1.23108,-9.70819,7.47219,-3.40146,-0.216222
2023-03-15 15:14:35:15,-0.645297,-1.22461,-9.72533,7.49075,-3.39446,-0.250654
2023-03-15 15:14:35:25,-0.565695,-1.20033,-9.76256,7.51024,-3.38555,-0.288397
2023-03-15 15:14:35:35,-0.506449,-1.20936,-9.7624,7.5325,-3.37561,-0.330833
2023-03-15 15:14:35:45,-0.44032,-1.22447,-9.73988,7.55887,-3.36705,-0.374292
2023-03-15 15:14:35:55,-0.410877,-1.25033,-9.6951,7.58667,-3.36154,-0.413701
2023-03-15 15:14:35:65,-0.466303,-1.26301,-9.63116,7.61645,-3.36008,-0.453625
2023-03-15 15:14:35:75,-0.485895,-1.30459,-9.5853,7.64677,-3.36753,-0.49246
2023-03-15 15:14:35:85,-0.556169,-1.32162,-9.58586,7.67776,-3.37691,-0.529442
2023-03-15 15:14:35:95,-0.600321,-1.28203,-9.5955,7.70141,-3.38833,-0.569897
2023-03-15 15:14:35:105,-0.539787,-1.33872,-9.53847,7.72703,-3.39756,-0.61692
2023-03-15 15:14:35:115,-0.455242,-1.44328,-9.51505,7.74667,-3.39655,-0.657051
2023-03-15 15:14:35:125,-0.426306,-1.39367,-9.67312,7.75781,-3.39943,-0.68953
2023-03-15 15:14:35:135,-0.471584,-1.29265,-9.76218,7.76353,-3.41204,-0.723949
2023-03-15 15:14:35:145,-0.508006,-1.31553,-9.70261,7.77273,-3.42343,-0.756721
2023-03-15 15:14:35:155,-0.504728,-1.36015,-9.66752,7.7868,-3.43576,-0.781229
2023-03-15 15:14:35:165,-0.493183,-1.31897,-9.71354,7.79839,-3.44741,-0.808021
2023-03-15 15:14:35:175,-0.490183,-1.26403,-9.75125,7.81166,-3.46111,-0.835136
2023-03-15 15:14:35:185,-0.501655,-1.27489,-9.73497,7.83131,-3.47284,-0.854273
2023-03-15 15:14:35:195,-0.512535,-1.29943,-9.70364,7.85317,-3.48463,-0.868359
2023-03-15 15:14:35:205,-0.536756,-1.32227,-9.67025,7.88065,-3.49321,-0.87697
2023-03-15 15:14:35:215,-0.535205,-1.36006,-9.61179,7.91363,-3.4976,-0.87877
2023-03-15 15:14:35:225,-0.518491,-1.40529,-9.56354,7.94157,-3.49761,-0.874073
2023-03-15 15:14:35:235,-0.527602,-1.38364,-9.58205,7.96739,-3.50392,-0.866251
2023-03-15 15:14:35:245,-0.558868,-1.33847,-9.61742,7.98557,-3.51311,-0.862043
2023-03-15 15:14:35:255,-0.607889,-1.32833,-9.63092,8.00319,-3.52407,-0.857395
2023-03-15 15:14:35:265,-0.637313,-1.33164,-9.63255,8.02097,-3.53891,-0.855503
2023-03-15 15:14:35:275,-0.639154,-1.33479,-9.6459,8.0382,-3.55366,-0.855208
2023-03-15 15:14:35:285,-0.647763,-1.32956,-9.65241,8.05472,-3.56986,-0.860659
2023-03-15 15:14:35:295,-0.696652,-1.32279,-9.65599,8.07187,-3.58595,-0.863967
2023-03-15 15:14:35:305,-0.732834,-1.33667,-9.64467,8.0904,-3.60231,-0.869063
2023-03-15 15:14:35:315,-0.755738,-1.36327,-9.62117,8.10842,-3.61297,-0.877317
2023-03-15 15:14:35:325,-0.772015,-1.37226,-9.61081,8.1246,-3.62332,-0.888452
2023-03-15 15:14:35:335,-0.740923,-1.36294,-9.64023,8.14075,-3.62804,-0.899421
2023-03-15 15:14:35:345,-0.714367,-1.34647,-9.67938,8.15206,-3.62654,-0.916028
2023-03-15 15:14:35:355,-0.713248,-1.35195,-9.65235,8.16547,-3.6249,-0.933415
2023-03-15 15:14:35:365,-0.713703,-1.37909,-9.59483,8.17818,-3.62255,-0.949454
2023-03-15 15:14:35:375,-0.708952,-1.39496,-9.58506,8.18805,-3.61969,-0.969555
2023-03-15 15:14:35:385,-0.712815,-1.38564,-9.64374,8.19387,-3.61596,-0.990131
2023-03-15 15:14:35:395,-0.69648,-1.35418,-9.70282,8.20173,-3.6129,-1.01745
2023-03-15 15:14:35:405,-0.660425,-1.38319,-9.72431,8.21486,-3.60817,-1.04476
2023-03-15 15:14:35:415,-0.649305,-1.41638,-9.67306,8.22789,-3.60012,-1.0714
2023-03-15 15:14:35:425,-0.627601,-1.4567,-9.62139,8.24723,-3.59054,-1.09848
2023-03-15 15:14:35:435,-0.578423,-1.48083,-9.59321,8.26419,-3.58297,-1.12196
2023-03-15 15:14:35:445,-0.553853,-1.47294,-9.56989,8.2734,-3.57652,-1.14331
2023-03-15 15:14:35:455,-0.573422,-1.48572,-9.57336,8.28105,-3.5707,-1.1628
2023-03-15 15:14:35:465,-0.58979,-1.4265,-9.6268,8.27792,-3.56736,-1.18383
2023-03-15 15:14:35:475,-0.568885,-1.39715,-9.66847,8.27814,-3.56516,-1.20407
2023-03-15 15:14:35:485,-0.566066,-1.36947,-9.6667,8.27534,-3.56182,-1.22915
2023-03-15 15:14:35:495,-0.55019,-1.33708,-9.66678,8.27425,-3.55862,-1.25609
2023-03-15 15:14:35:505,-0.537178,-1.34524,-9.66525,8.27236,-3.55624,-1.28281
2023-03-15 15:14:35:515,-0.543238,-1.33079,-9.65674,8.27597,-3.55375,-1.30688
2023-03-15 15:14:35:525,-0.561675,-1.3226,-9.66418,8.27715,-3.55087,-1.32881
2023-03-15 15:14:35:535,-0.605859,-1.32078,-9.65497,8.28119,-3.55153,-1.35049
2023-03-15 15:14:35:545,-0.595802,-1.35408,-9.62804,8.29056,-3.54876,-1.37548
2023-03-15 15:14:35:555,-0.547225,-1.37762,-9.63752,8.29906,-3.54312,-1.39291
2023-03-15 15:14:35:565,-0.508654,-1.38016,-9.6879,8.30917,-3.53509,-1.40934
2023-03-15 15:14:35:575,-0.531961,-1.37872,-9.70722,8.31559,-3.53245,-1.42452
2023-03-15 15:14:35:585,-0.548837,-1.36104,-9.71216,8.31982,-3.53476,-1.44228
2023-03-15 15:14:35:595,-0.548784,-1.32583,-9.74059,8.32745,-3.53889,-1.45932
2023-03-15 15:14:35:605,-0.586434,-1.31882,-9.71369,8.34137,-3.54295,-1.4768
2023-03-15 15:14:35:615,-0.606097,-1.34427,-9.6856,8.35132,-3.54515,-1.49358
2023-03-15 15:14:35:625,-0.61162,-1.34758,-9.7296,8.36348,-3.54395,-1.51035
2023-03-15 15:14:35:635,-0.526219,-1.32403,-9.81979,8.37471,-3.54126,-1.52571
2023-03-15 15:14:35:645,-0.434671,-1.27535,-9.87406,8.38998,-3.54024,-1.54879
2023-03-15 15:14:35:655,-0.462133,-1.33537,-9.78738,8.41776,-3.54471,-1.56511
2023-03-15 15:14:35:665,-0.555929,-1.41104,-9.64603,8.4545,-3.55658,-1.57229
2023-03-15 15:14:35:675,-0.55715,-1.41387,-9.6068,8.48753,-3.57091,-1.58087
2023-03-15 15:14:35:685,-0.535056,-1.35414,-9.68037,8.51558,-3.58553,-1.58884
2023-03-15 15:14:35:695,-0.558502,-1.32881,-9.75216,8.54228,-3.60471,-1.60121
2023-03-15 15:14:35:705,-0.602225,-1.34123,-9.76933,8.57447,-3.62372,-1.61699
2023-03-15 15:14:35:715,-0.584131,-1.3714,-9.76319,8.61536,-3.64034,-1.63118
2023-03-15 15:14:35:725,-0.550891,-1.40077,-9.6971,8.66346,-3.65339,-1.64198
2023-03-15 15:14:35:735,-0.547007,-1.45484,-9.608,8.71502,-3.6711,-1.64728
2023-03-15 15:14:35:745,-0.570693,-1.48255,-9.59317,8.76133,-3.69059,-1.65238
2023-03-15 15:14:35:755,-0.590606,-1.43963,-9.65023,8.80061,-3.71304,-1.65751
2023-03-15 15:14:35:765,-0.643386,-1.41316,-9.70751,8.84438,-3.73855,-1.6621
2023-03-15 15:14:35:775,-0.717455,-1.42883,-9.67704,8.88971,-3.76463,-1.67055
2023-03-15 15:14:35:785,-0.709021,-1.46569,-9.62248,8.93301,-3.78991,-1.68233
2023-03-15 15:14:35:795,-0.625779,-1.508,-9.61446,8.98511,-3.80716,-1.6914
2023-03-15 15:14:35:805,-0.581604,-1.53167,-9.63062,9.03212,-3.82047,-1.69638
2023-03-15 15:14:35:815,-0.595568,-1.53786,-9.6431,9.07991,-3.83602,-1.69825
2023-03-15 15:14:35:825,-0.63156,-1.5443,-9.63304,9.12985,-3.85408,-1.70239
2023-03-15 15:14:35:835,-0.653555,-1.55432,-9.56922,9.17834,-3.87835,-1.70546
2023-03-15 15:14:35:845,-0.662303,-1.60172,-9.53002,9.22326,-3.9041,-1.70136
2023-03-15 15:14:35:855,-0.668709,-1.5986,-9.54636,9.26517,-3.92551,-1.69526
2023-03-15 15:14:35:865,-0.700643,-1.59725,-9.53522,9.30504,-3.94942,-1.69172
2023-03-15 15:14:35:875,-0.737387,-1.61354,-9.52542,9.34105,-3.97392,-1.68745
2023-03-15 15:14:35:885,-0.765618,-1.61396,-9.53665,9.37236,-4.00036,-1.68566
2023-03-15 15:14:35:895,-0.782766,-1.60511,-9.531,9.39806,-4.02201,-1.6896
2023-03-15 15:14:35:905,-0.779067,-1.59883,-9.53787,9.42146,-4.0385,-1.69326
2023-03-15 15:14:35:915,-0.735375,-1.58742,-9.55795,9.4439,-4.04991,-1.69892
2023-03-15 15:14:35:925,-0.730296,-1.58588,-9.59786,9.46423,-4.06002,-1.70303
2023-03-15 15:14:35:935,-0.742418,-1.58846,-9.60932,9.48618,-4.06847,-1.70842
2023-03-15 15:14:35:945,-0.769764,-1.59758,-9.57401,9.50967,-4.07767,-1.71429
2023-03-15 15:14:35:955,-0.763833,-1.6238,-9.53296,9.53467,-4.08194,-1.72235
2023-03-15 15:14:35:965,-0.761098,-1.63815,-9.55515,9.55544,-4.08403,-1.7207
2023-03-15 15:14:35:975,-0.758652,-1.63644,-9.57231,9.57562,-4.08282,-1.72059
2023-03-15 15:14:35:985,-0.76109,-1.6496,-9.54203,9.59457,-4.08258,-1.72445
2023-03-15 15:14:35:995,-0.741697,-1.6595,-9.53804,9.61358,-4.07778,-1.72641
2023-03-15 15:14:36:5,-0.726886,-1.66111,-9.5709,9.63194,-4.07141,-1.72819
2023-03-15 15:14:36:15,-0.747007,-1.63098,-9.6132,9.64469,-4.06821,-1.73004
2023-03-15 15:14:36:25,-0.73437,-1.62074,-9.64723,9.65431,-4.06378,-1.73491
2023-03-15 15:14:36:35,-0.723225,-1.62544,-9.63377,9.67092,-4.05543,-1.74693
2023-03-15 15:14:36:45,-0.708779,-1.64578,-9.59997,9.68965,-4.04972,-1.75817
2023-03-15 15:14:36:55,-0.693731,-1.6677,-9.58444,9.70724,-4.04476,-1.76744
2023-03-15 15:14:36:65,-0.694089,-1.66508,-9.59889,9.7272,-4.03869,-1.77672
2023-03-15 15:14:36:75,-0.714806,-1.62885,-9.64025,9.74031,-4.0334,-1.7883
2023-03-15 15:14:36:85,-0.709095,-1.63724,-9.65763,9.75727,-4.02878,-1.79903
2023-03-15 15:14:36:95,-0.664996,-1.67382,-9.64119,9.77859,-4.02516,-1.81569
2023-03-15 15:14:36:105,-0.629656,-1.71328,-9.60452,9.80244,-4.0209,-1.82584
2023-03-15 15:14:36:115,-0.615874,-1.74211,-9.57084,9.8252,-4.01385,-1.83076
2023-03-15 15:14:36:125,-0.626058,-1.74362,-9.55741,9.8422,-4.01206,-1.83097
2023-03-15 15:14:36:135,-0.657214,-1.70332,-9.54844,9.85692,-4.0117,-1.83031
2023-03-15 15:14:36:145,-0.661272,-1.69618,-9.54819,9.866,-4.00917,-1.82817
2023-03-15 15:14:36:155,-0.657726,-1.70035,-9.52833,9.87288,-4.0023,-1.82479
2023-03-15 15:14:36:165,-0.648168,-1.67057,-9.48232,9.87517,-3.99819,-1.81601
2023-03-15 15:14:36:175,-0.630663,-1.68811,-9.31556,9.88168,-3.99154,-1.81095
2023-03-15 15:14:36:185,-0.647392,-1.90761,-9.1179,9.88524,-3.98649,-1.79395
2023-03-15 15:14:36:195,-0.735002,-1.93899,-9.31256,9.86134,-3.98822,-1.76672
2023-03-15 15:14:36:205,-0.813571,-1.67878,-9.70486,9.81446,-3.99915,-1.75354
2023-03-15 15:14:36:215,-0.852794,-1.58306,-9.81709,9.77826,-4.02029,-1.76671
2023-03-15 15:14:36:225,-0.729796,-1.59024,-9.80844,9.76004,-4.01968,-1.7852
2023-03-15 15:14:36:235,-0.583015,-1.5429,-9.81215,9.75642,-4.00273,-1.79541
2023-03-15 15:14:36:245,-0.548353,-1.61365,-9.66437,9.76362,-3.98775,-1.80083
2023-03-15 15:14:36:255,-0.539905,-1.7687,-9.48872,9.77624,-3.97459,-1.79075
2023-03-15 15:14:36:265,-0.442027,-1.70455,-9.55474,9.77158,-3.95637,-1.76649
2023-03-15 15:14:36:275,-0.45047,-1.48473,-9.76213,9.74861,-3.93849,-1.73721
2023-03-15 15:14:36:285,-0.646377,-1.40647,-9.7281,9.73597,-3.9325,-1.71266
2023-03-15 15:14:36:295,-0.876746,-1.51912,-9.48816,9.73124,-3.93573,-1.69327
2023-03-15 15:14:36:305,-0.93783,-1.5653,-9.43381,9.71679,-3.94228,-1.6827
2023-03-15 15:14:36:315,-0.826612,-1.46749,-9.62625,9.6908,-3.94432,-1.6834
2023-03-15 15:14:36:325,-0.701614,-1.42376,-9.77337,9.66364,-3.94211,-1.70005
2023-03-15 15:14:36:335,-0.613536,-1.47623,-9.77256,9.65377,-3.93414,-1.71538
2023-03-15 15:14:36:345,-0.559095,-1.5902,-9.60693,9.65709,-3.91949,-1.72443
2023-03-15 15:14:36:355,-0.538638,-1.72032,-9.49457,9.66335,-3.9071,-1.7231
2023-03-15 15:14:36:365,-0.549528,-1.64854,-9.62426,9.65749,-3.90196,-1.71669
2023-03-15 15:14:36:375,-0.592668,-1.56274,-9.78566,9.64985,-3.90534,-1.71156
2023-03-15 15:14:36:385,-0.679956,-1.55781,-9.79614,9.64856,-3.91784,-1.71031
2023-03-15 15:14:36:395,-0.715536,-1.59007,-9.66308,9.6566,-3.9246,-1.71052
2023-03-15 15:14:36:405,-0.683357,-1.66186,-9.52582,9.67449,-3.93058,-1.70961
2023-03-15 15:14:36:415,-0.638985,-1.72131,-9.49158,9.68599,-3.93272,-1.70176
2023-03-15 15:14:36:425,-0.634983,-1.70669,-9.58128,9.68712,-3.93564,-1.69062
2023-03-15 15:14:36:435,-0.662154,-1.59251,-9.69096,9.68066,-3.94173,-1.68405
2023-03-15 15:14:36:445,-0.67915,-1.55503,-9.71727,9.68131,-3.95304,-1.68153
2023-03-15 15:14:36:455,-0.695725,-1.62834,-9.61594,9.69478,-3.96305,-1.6774
2023-03-15 15:14:36:465,-0.722331,-1.64952,-9.54397,9.70664,-3.97048,-1.67264
2023-03-15 15:14:36:475,-0.737275,-1.59144,-9.58023,9.70992,-3.98013,-1.67055
2023-03-15 15:14:36:485,-0.737661,-1.55755,-9.5937,9.71042,-3.99176,-1.67213
2023-03-15 15:14:36:495,-0.773082,-1.59557,-9.55313,9.71334,-4.00463,-1.67143
2023-03-15 15:14:36:505,-0.767024,-1.62465,-9.51896,9.71354,-4.00691,-1.66912
2023-03-15 15:14:36:515,-0.671765,-1.64717,-9.54435,9.71417,-3.9969,-1.66763
2023-03-15 15:14:36:525,-0.575098,-1.65426,-9.60611,9.71422,-3.98856,-1.66318
2023-03-15 15:14:36:535,-0.575337,-1.63614,-9.67858,9.7122,-3.98416,-1.65321
2023-03-15 15:14:36:545,-0.645616,-1.61752,-9.69326,9.71404,-3.98652,-1.64482
2023-03-15 15:14:36:555,-0.718901,-1.62136,-9.66659,9.71845,-3.99421,-1.63292
2023-03-15 15:14:36:565,-0.720678,-1.64845,-9.60297,9.72962,-3.99589,-1.62246
2023-03-15 15:14:36:575,-0.653499,-1.69942,-9.54362,9.74256,-3.99092,-1.61046
2023-03-15 15:14:36:585,-0.610822,-1.70008,-9.53764,9.75196,-3.98159,-1.58849
2023-03-15 15:14:36:595,-0.662199,-1.67677,-9.52708,9.75239,-3.98201,-1.56757
2023-03-15 15:14:36:605,-0.735514,-1.65105,-9.55525,9.75087,-3.98629,-1.55257
2023-03-15 15:14:36:615,-0.797448,-1.61405,-9.61939,9.74108,-3.99834,-1.54373
2023-03-15 15:14:36:625,-0.841236,-1.5638,-9.69076,9.73093,-4.00882,-1.54243
2023-03-15 15:14:36:635,-0.843545,-1.52902,-9.73441,9.72387,-4.01399,-1.55111
2023-03-15 15:14:36:645,-0.804505,-1.54106,-9.70709,9.72473,-4.01632,-1.56555
2023-03-15 15:14:36:655,-0.741103,-1.58544,-9.67539,9.73709,-4.01032,-1.57871
2023-03-15 15:14:36:665,-0.708377,-1.6177,-9.64968,9.74967,-4.00283,-1.58851
2023-03-15 15:14:36:675,-0.685811,-1.63924,-9.62781,9.75856,-3.9875,-1.59616
2023-03-15 15:14:36:685,-0.665317,-1.64604,-9.66898,9.76923,-3.97468,-1.60206
2023-03-15 15:14:36:695,-0.680957,-1.6073,-9.68532,9.78009,-3.96175,-1.60838
2023-03-15 15:14:36:705,-0.696307,-1.59388,-9.65041,9.79465,-3.94709,-1.61841
2023-03-15 15:14:36:715,-0.696786,-1.6141,-9.59033,9.8124,-3.93258,-1.62793
2023-03-15 15:14:36:725,-0.682913,-1.63056,-9.53229,9.83259,-3.91532,-1.64051
2023-03-15 15:14:36:735,-0.670553,-1.64568,-9.54858,9.85318,-3.90314,-1.65001
2023-03-15 15:14:36:745,-0.683576,-1.62755,-9.59836,9.8698,-3.89362,-1.66107
2023-03-15 15:14:36:755,-0.69507,-1.61876,-9.61215,9.8854,-3.88572,-1.67394
2023-03-15 15:14:36:765,-0.681435,-1.6529,-9.60165,9.90616,-3.87658,-1.69168
2023-03-15 15:14:36:775,-0.626939,-1.69826,-9.6016,9.92768,-3.86571,-1.70674
2023-03-15 15:14:36:785,-0.576897,-1.72839,-9.60335,9.94757,-3.8549,-1.72112
2023-03-15 15:14:36:795,-0.583417,-1.74227,-9.5929,9.96754,-3.84784,-1.73127
2023-03-15 15:14:36:805,-0.628889,-1.72561,-9.57198,9.98439,-3.84656,-1.73982
2023-03-15 15:14:36:815,-0.673488,-1.68952,-9.54783,9.99464,-3.84759,-1.74557
2023-03-15 15:14:36:825,-0.685442,-1.69045,-9.52206,10.0018,-3.84385,-1.75405
2023-03-15 15:14:36:835,-0.689754,-1.69276,-9.50926,10.0048,-3.83864,-1.75802
2023-03-15 15:14:36:845,-0.662681,-1.68383,-9.5061,10.006,-3.83141,-1.76665
2023-03-15 15:14:36:855,-0.682598,-1.66485,-9.51857,10.002,-3.82542,-1.77332
2023-03-15 15:14:36:865,-0.687514,-1.64132,-9.54428,9.99519,-3.82038,-1.78351
2023-03-15 15:14:36:875,-0.686648,-1.62717,-9.53503,9.98844,-3.81283,-1.79441
2023-03-15 15:14:36:885,-0.684482,-1.6625,-9.49976,9.98323,-3.80632,-1.80838
2023-03-15 15:14:36:895,-0.682844,-1.69059,-9.42108,9.97859,-3.79911,-1.82506
2023-03-15 15:14:36:905,-0.639837,-1.7642,-9.31119,9.9648,-3.7933,-1.83675
2023-03-15 15:14:36:915,-0.571053,-1.88674,-9.24816,9.94255,-3.78373,-1.84253
2023-03-15 15:14:36:925,-0.537782,-1.82343,-9.45001,9.89686,-3.76814,-1.84095
2023-03-15 15:14:36:935,-0.565189,-1.55542,-9.80027,9.83818,-3.76816,-1.8482
2023-03-15 15:14:36:945,-0.696159,-1.48727,-9.81337,9.78988,-3.78346,-1.873
2023-03-15 15:14:36:955,-0.714474,-1.66197,-9.60625,9.76038,-3.79351,-1.89726
2023-03-15 15:14:36:965,-0.602998,-1.59548,-9.69126,9.72328,-3.78853,-1.91021
2023-03-15 15:14:36:975,-0.534605,-1.50675,-9.85262,9.68983,-3.7816,-1.92538
2023-03-15 15:14:36:985,-0.490331,-1.49767,-9.89435,9.66451,-3.76872,-1.93905
2023-03-15 15:14:36:995,-0.354124,-1.48029,-9.8836,9.64962,-3.74775,-1.93815
2023-03-15 15:14:37:5,-0.329706,-1.44141,-9.83276,9.64748,-3.72751,-1.92344
2023-03-15 15:14:37:15,-0.562726,-1.48341,-9.664,9.65335,-3.72378,-1.89867
2023-03-15 15:14:37:25,-0.824694,-1.54623,-9.47901,9.65486,-3.73638,-1.87531
2023-03-15 15:14:37:35,-0.935453,-1.56226,-9.45123,9.64168,-3.75805,-1.86581
2023-03-15 15:14:37:45,-0.88028,-1.49244,-9.6001,9.61474,-3.77443,-1.8716
2023-03-15 15:14:37:55,-0.754347,-1.45914,-9.73776,9.59087,-3.77741,-1.89092
2023-03-15 15:14:37:65,-0.655459,-1.50292,-9.6924,9.58359,-3.77103,-1.91529
2023-03-15 15:14:37:75,-0.556958,-1.61168,-9.61253,9.58176,-3.75863,-1.93626
2023-03-15 15:14:37:85,-0.481496,-1.60116,-9.65533,9.57758,-3.74479,-1.94596
2023-03-15 15:14:37:95,-0.514995,-1.59492,-9.65558,9.57808,-3.7418,-1.9478
2023-03-15 15:14:37:105,-0.612409,-1.60715,-9.63502,9.5847,-3.74319,-1.95187
2023-03-15 15:14:37:115,-0.653121,-1.61292,-9.64196,9.5912,-3.75037,-1.95159
2023-03-15 15:14:37:125,-0.640516,-1.60793,-9.61915,9.6036,-3.75243,-1.95546
2023-03-15 15:14:37:135,-0.634758,-1.65407,-9.55315,9.61639,-3.75637,-1.95667
2023-03-15 15:14:37:145,-0.651201,-1.69656,-9.56186,9.62523,-3.76347,-1.95479
2023-03-15 15:14:37:155,-0.68329,-1.62093,-9.65012,9.62493,-3.7777,-1.95874
2023-03-15 15:14:37:165,-0.724744,-1.54051,-9.71834,9.62564,-3.7967,-1.9717
2023-03-15 15:14:37:175,-0.718905,-1.5698,-9.69253,9.63533,-3.81219,-1.99027
2023-03-15 15:14:37:185,-0.669884,-1.59533,-9.69844,9.64644,-3.81865,-2.00236
2023-03-15 15:14:37:195,-0.616677,-1.55865,-9.75931,9.66692,-3.81948,-2.01173
2023-03-15 15:14:37:205,-0.573499,-1.58844,-9.65444,9.69349,-3.81633,-2.01657
2023-03-15 15:14:37:215,-0.572429,-1.72685,-9.45013,9.72902,-3.81021,-2.01434
2023-03-15 15:14:37:225,-0.599432,-1.79449,-9.36262,9.75617,-3.80617,-2.00046
2023-03-15 15:14:37:235,-0.625015,-1.7442,-9.42063,9.76694,-3.80441,-1.98263
2023-03-15 15:14:37:245,-0.668165,-1.66169,-9.5308,9.77045,-3.80553,-1.9763
2023-03-15 15:14:37:255,-0.697946,-1.61416,-9.60319,9.76486,-3.81141,-1.97537
2023-03-15 15:14:37:265,-0.685741,-1.58453,-9.66928,9.76056,-3.81318,-1.97895
2023-03-15 15:14:37:275,-0.63658,-1.57796,-9.7048,9.76369,-3.81648,-1.98595
2023-03-15 15:14:37:285,-0.615303,-1.60781,-9.62534,9.77363,-3.81433,-1.99473
2023-03-15 15:14:37:295,-0.631679,-1.68723,-9.53811,9.78461,-3.81496,-1.9982
2023-03-15 15:14:37:305,-0.678449,-1.68123,-9.52709,9.79275,-3.82234,-2.00173
2023-03-15 15:14:37:315,-0.686217,-1.643,-9.58994,9.79196,-3.82675,-2.01093
2023-03-15 15:14:37:325,-0.679073,-1.58624,-9.64191,9.78778,-3.83245,-2.01845
2023-03-15 15:14:37:335,-0.671431,-1.57051,-9.65067,9.78721,-3.8329,-2.0282
2023-03-15 15:14:37:345,-0.650215,-1.60066,-9.60165,9.78974,-3.83056,-2.03733
2023-03-15 15:14:37:355,-0.626936,-1.68214,-9.53355,9.79451,-3.8276,-2.04322
2023-03-15 15:14:37:365,-0.595042,-1.7062,-9.53725,9.79583,-3.8215,-2.04134
2023-03-15 15:14:37:375,-0.587717,-1.65414,-9.65721,9.78493,-3.81457,-2.03608
2023-03-15 15:14:37:385,-0.63568,-1.57379,-9.73534,9.77834,-3.81661,-2.03439
2023-03-15 15:14:37:395,-0.705122,-1.58255,-9.69263,9.7813,-3.82225,-2.03549
2023-03-15 15:14:37:405,-0.75085,-1.63348,-9.60985,9.78666,-3.82974,-2.03935
2023-03-15 15:14:37:415,-0.744326,-1.65056,-9.56884,9.79344,-3.84017,-2.04994
2023-03-15 15:14:37:425,-0.703394,-1.66282,-9.62302,9.80117,-3.84892,-2.06278
2023-03-15 15:14:37:435,-0.680669,-1.64028,-9.66394,9.80802,-3.85388,-2.07603
2023-03-15 15:14:37:445,-0.647683,-1.6897,-9.63936,9.81873,-3.8582,-2.08994
2023-03-15 15:14:37:455,-0.592024,-1.72692,-9.6034,9.83258,-3.85828,-2.1008
2023-03-15 15:14:37:465,-0.512765,-1.68945,-9.66585,9.84066,-3.85726,-2.10427
2023-03-15 15:14:37:475,-0.466161,-1.67109,-9.69938,9.84707,-3.85065,-2.09515
2023-03-15 15:14:37:485,-0.483768,-1.6651,-9.661,9.85563,-3.84085,-2.07958
2023-03-15 15:14:37:495,-0.54627,-1.63021,-9.66564,9.86073,-3.83651,-2.05473
2023-03-15 15:14:37:505,-0.665392,-1.5809,-9.64695,9.86713,-3.8385,-2.02956
2023-03-15 15:14:37:515,-0.819233,-1.58777,-9.56277,9.87258,-3.85342,-2.01499
2023-03-15 15:14:37:525,-0.943146,-1.60561,-9.49882,9.87441,-3.87628,-2.0136
2023-03-15 15:14:37:535,-0.922387,-1.56245,-9.55899,9.87036,-3.89249,-2.02976
2023-03-15 15:14:37:545,-0.82009,-1.5038,-9.63128,9.87104,-3.90138,-2.05691
2023-03-15 15:14:37:555,-0.734148,-1.57342,-9.58427,9.88774,-3.9031,-2.09097
2023-03-15 15:14:37:565,-0.664266,-1.67323,-9.49478,9.9079,-3.89869,-2.11897
2023-03-15 15:14:37:575,-0.564523,-1.72876,-9.49586,9.92071,-3.88892,-2.14095
2023-03-15 15:14:37:585,-0.504656,-1.72864,-9.53544,9.93012,-3.87599,-2.15364
2023-03-15 15:14:37:595,-0.545682,-1.73513,-9.56404,9.93791,-3.8621,-2.15513
2023-03-15 15:14:37:605,-0.628064,-1.7481,-9.54672,9.94128,-3.85351,-2.15493
2023-03-15 15:14:37:615,-0.640887,-1.74602,-9.50594,9.94295,-3.84446,-2.15148
2023-03-15 15:14:37:625,-0.580897,-1.77092,-9.473,9.93664,-3.83052,-2.14145
2023-03-15 15:14:37:635,-0.584604,-1.7644,-9.50124,9.92367,-3.82105,-2.13006
2023-03-15 15:14:37:645,-0.643946,-1.68039,-9.59209,9.89979,-3.81686,-2.11741
2023-03-15 15:14:37:655,-0.674428,-1.59936,-9.65459,9.87087,-3.80741,-2.11229
2023-03-15 15:14:37:665,-0.670162,-1.56234,-9.66724,9.84567,-3.7954,-2.11006
2023-03-15 15:14:37:675,-0.594279,-1.57606,-9.67332,9.82749,-3.78544,-2.11362
2023-03-15 15:14:37:685,-0.555373,-1.60985,-9.64937,9.81187,-3.77754,-2.11423
2023-03-15 15:14:37:695,-0.570898,-1.6201,-9.63657,9.79708,-3.77131,-2.11034
2023-03-15 15:14:37:705,-0.614009,-1.60946,-9.62774,9.78445,-3.76841,-2.10746
2023-03-15 15:14:37:715,-0.630904,-1.61747,-9.63531,9.77254,-3.76768,-2.10947
2023-03-15 15:14:37:725,-0.61683,-1.59513,-9.66097,9.75941,-3.76827,-2.11276
2023-03-15 15:14:37:735,-0.597082,-1.57767,-9.70484,9.74406,-3.77059,-2.11552
2023-03-15 15:14:37:745,-0.598136,-1.58463,-9.72338,9.73405,-3.7779,-2.1176
2023-03-15 15:14:37:755,-0.599729,-1.57194,-9.73187,9.73024,-3.78213,-2.11971
2023-03-15 15:14:37:765,-0.61354,-1.55556,-9.74796,9.72735,-3.79221,-2.12088
2023-03-15 15:14:37:775,-0.645016,-1.57543,-9.68221,9.73436,-3.80276,-2.12449
2023-03-15 15:14:37:785,-0.660097,-1.60976,-9.67303,9.74222,-3.81178,-2.12347
2023-03-15 15:14:37:795,-0.649821,-1.54999,-9.68991,9.74969,-3.82081,-2.12436
2023-03-15 15:14:37:805,-0.660261,-1.6223,-9.59546,9.76268,-3.83105,-2.12711
2023-03-15 15:14:37:815,-0.673196,-1.68043,-9.51177,9.78137,-3.8407,-2.12299
2023-03-15 15:14:37:825,-0.662871,-1.68598,-9.56728,9.79071,-3.84693,-2.11613
2023-03-15 15:14:37:835,-0.661139,-1.63393,-9.63776,9.79981,-3.85529,-2.11177
2023-03-15 15:14:37:845,-0.659154,-1.64944,-9.6321,9.80971,-3.86314,-2.10726
2023-03-15 15:14:37:855,-0.677611,-1.67174,-9.59114,9.82083,-3.87235,-2.10555
2023-03-15 15:14:37:865,-0.667897,-1.68174,-9.54737,9.82998,-3.87948,-2.10082
2023-03-15 15:14:37:875,-0.666347,-1.693,-9.54213,9.83697,-3.88832,-2.09234
2023-03-15 15:14:37:885,-0.676943,-1.68348,-9.54345,9.83953,-3.89818,-2.08393
2023-03-15 15:14:37:895,-0.669513,-1.69276,-9.55727,9.84296,-3.90213,-2.07722
2023-03-15 15:14:37:905,-0.682832,-1.67886,-9.56373,9.83956,-3.90508,-2.06835
2023-03-15 15:14:37:915,-0.700296,-1.65775,-9.56884,9.83287,-3.90794,-2.05992
2023-03-15 15:14:37:925,-0.713179,-1.65187,-9.5547,9.82588,-3.90644,-2.05163
2023-03-15 15:14:37:935,-0.692275,-1.63873,-9.58867,9.81834,-3.90714,-2.0426
2023-03-15 15:14:37:945,-0.680777,-1.62413,-9.59803,9.81077,-3.90652,-2.03374
2023-03-15 15:14:37:955,-0.693932,-1.61418,-9.59575,9.80295,-3.90208,-2.02912
2023-03-15 15:14:37:965,-0.705723,-1.60134,-9.61452,9.79659,-3.90201,-2.02031
2023-03-15 15:14:37:975,-0.704323,-1.62007,-9.60016,9.78983,-3.90035,-2.01798
2023-03-15 15:14:37:985,-0.685077,-1.61487,-9.59162,9.78319,-3.89547,-2.01606
2023-03-15 15:14:37:995,-0.672836,-1.63138,-9.5816,9.77819,-3.89138,-2.01612
2023-03-15 15:14:38:5,-0.67147,-1.63089,-9.57099,9.76943,-3.88627,-2.01151
2023-03-15 15:14:38:15,-0.677387,-1.60789,-9.61284,9.75985,-3.87954,-2.00991
2023-03-15 15:14:38:25,-0.687762,-1.5638,-9.67406,9.74898,-3.87683,-2.00912
2023-03-15 15:14:38:35,-0.703954,-1.53447,-9.68516,9.74259,-3.87319,-2.01464
2023-03-15 15:14:38:45,-0.726399,-1.54817,-9.62147,9.73835,-3.86817,-2.01959
2023-03-15 15:14:38:55,-0.728143,-1.60587,-9.54601,9.73704,-3.85733,-2.02223
2023-03-15 15:14:38:65,-0.734148,-1.64851,-9.51303,9.7357,-3.84514,-2.02395
2023-03-15 15:14:38:75,-0.730436,-1.63615,-9.51168,9.72791,-3.83349,-2.02894
2023-03-15 15:14:38:85,-0.675456,-1.60367,-9.56443,9.71316,-3.82081,-2.03719
2023-03-15 15:14:38:95,-0.636638,-1.57862,-9.62445,9.69496,-3.80521,-2.05012
2023-03-15 15:14:38:105,-0.64817,-1.57856,-9.57369,9.68233,-3.78831,-2.06436
2023-03-15 15:14:38:115,-0.65288,-1.68716,-9.53982,9.67301,-3.77074,-2.07308
2023-03-15 15:14:38:125,-0.603725,-1.62387,-9.68202,9.65012,-3.7459,-2.07805
2023-03-15 15:14:38:135,-0.51564,-1.57861,-9.80554,9.63112,-3.72143,-2.08667
2023-03-15 15:14:38:145,-0.49289,-1.58304,-9.79919,9.62017,-3.70057,-2.09563
2023-03-15 15:14:38:155,-0.505787,-1.61838,-9.72446,9.61665,-3.68573,-2.0954
2023-03-15 15:14:38:165,-0.551612,-1.62564,-9.70633,9.61425,-3.67493,-2.08955
2023-03-15 15:14:38:175,-0.593609,-1.60051,-9.71965,9.61287,-3.66584,-2.08135
2023-03-15 15:14:38:185,-0.611249,-1.57439,-9.70077,9.61124,-3.65946,-2.07415
2023-03-15 15:14:38:195,-0.64677,-1.55992,-9.65235,9.61432,-3.65843,-2.07237
2023-03-15 15:14:38:205,-0.661366,-1.55617,-9.63201,9.61624,-3.6564,-2.06643
2023-03-15 15:14:38:215,-0.649429,-1.55151,-9.61195,9.62587,-3.65171,-2.06669
2023-03-15 15:14:38:225,-0.641869,-1.57988,-9.54851,9.63955,-3.64726,-2.06577
2023-03-15 15:14:38:235,-0.663283,-1.61336,-9.48197,9.65339,-3.64031,-2.0664
2023-03-15 15:14:38:245,-0.667086,-1.63669,-9.47156,9.66045,-3.63204,-2.06616
2023-03-15 15:14:38:255,-0.644428,-1.63704,-9.50775,9.66594,-3.6239,-2.07345
2023-03-15 15:14:38:265,-0.643972,-1.6304,-9.58261,9.66769,-3.61756,-2.08097
2023-03-15 15:14:38:275,-0.671013,-1.60078,-9.65909,9.6653,-3.61598,-2.09086
2023-03-15 15:14:38:285,-0.664018,-1.60385,-9.67181,9.66589,-3.61483,-2.10741
2023-03-15 15:14:38:295,-0.607381,-1.64035,-9.65745,9.67078,-3.60666,-2.12045
2023-03-15 15:14:38:305,-0.523777,-1.66673,-9.65219,9.67642,-3.59206,-2.12964
2023-03-15 15:14:38:315,-0.468411,-1.65391,-9.65607,9.68244,-3.57379,-2.13129
2023-03-15 15:14:38:325,-0.454885,-1.65402,-9.60971,9.68932,-3.55309,-2.12739
2023-03-15 15:14:38:335,-0.498802,-1.65533,-9.58985,9.69418,-3.53685,-2.11632
2023-03-15 15:14:38:345,-0.5905,-1.58441,-9.64046,9.69339,-3.52835,-2.10346
2023-03-15 15:14:38:355,-0.652895,-1.54443,-9.67101,9.69078,-3.52071,-2.09763
2023-03-15 15:14:38:365,-0.64316,-1.54596,-9.69301,9.69123,-3.50869,-2.09506
2023-03-15 15:14:38:375,-0.583198,-1.54187,-9.71646,9.69801,-3.49892,-2.10206
2023-03-15 15:14:38:385,-0.551123,-1.57767,-9.6939,9.70672,-3.49185,-2.10918
2023-03-15 15:14:38:395,-0.621731,-1.59422,-9.64195,9.72043,-3.49001,-2.11668
2023-03-15 15:14:38:405,-0.654166,-1.59466,-9.64542,9.73749,-3.49017,-2.12478
2023-03-15 15:14:38:415,-0.629408,-1.61582,-9.67649,9.75203,-3.48391,-2.1341
2023-03-15 15:14:38:425,-0.594953,-1.64213,-9.66065,9.77189,-3.47414,-2.14569
2023-03-15 15:14:38:435,-0.570745,-1.64347,-9.59679,9.79233,-3.46634,-2.15389
2023-03-15 15:14:38:445,-0.552322,-1.70257,-9.53696,9.81231,-3.4605,-2.15889
2023-03-15 15:14:38:455,-0.549003,-1.69514,-9.59335,9.82248,-3.45041,-2.1582
2023-03-15 15:14:38:465,-0.555013,-1.65201,-9.6964,9.83345,-3.44362,-2.16123
2023-03-15 15:14:38:475,-0.609346,-1.60627,-9.73957,9.8487,-3.44382,-2.16536
2023-03-15 15:14:38:485,-0.627286,-1.5853,-9.71206,9.86828,-3.44169,-2.17523
2023-03-15 15:14:38:495,-0.600062,-1.60321,-9.66615,9.89913,-3.43713,-2.18866
2023-03-15 15:14:38:505,-0.563802,-1.6473,-9.58508,9.9353,-3.43357,-2.19484
2023-03-15 15:14:38:515,-0.533997,-1.70264,-9.53779,9.97174,-3.42867,-2.20392
2023-03-15 15:14:38:525,-0.535923,-1.74676,-9.49868,10.0057,-3.42805,-2.20724
2023-03-15 15:14:38:535,-0.551747,-1.73553,-9.50839,10.0307,-3.42689,-2.21208
2023-03-15 15:14:38:545,-0.558819,-1.71014,-9.56184,10.0518,-3.42908,-2.215
2023-03-15 15:14:38:555,-0.562345,-1.70183,-9.57548,10.0676,-3.4331,-2.21878
2023-03-15 15:14:38:565,-0.564953,-1.71025,-9.56551,10.0834,-3.43724,-2.22248
2023-03-15 15:14:38:575,-0.572505,-1.7129,-9.55528,10.0963,-3.43867,-2.22174
2023-03-15 15:14:38:585,-0.591059,-1.69894,-9.57374,10.106,-3.44161,-2.22169
2023-03-15 15:14:38:595,-0.59331,-1.67902,-9.60035,10.1136,-3.44596,-2.21954
2023-03-15 15:14:38:605,-0.597977,-1.67241,-9.6052,10.121,-3.4506,-2.21245
2023-03-15 15:14:38:615,-0.622137,-1.68277,-9.5644,10.1284,-3.45022,-2.20592
2023-03-15 15:14:38:625,-0.623186,-1.70874,-9.54316,10.141,-3.44566,-2.2044
2023-03-15 15:14:38:635,-0.597784,-1.69244,-9.55227,10.1429,-3.44049,-2.19948
2023-03-15 15:14:38:645,-0.576742,-1.66304,-9.58681,10.1416,-3.43414,-2.19601
2023-03-15 15:14:38:655,-0.585472,-1.67212,-9.60006,10.1421,-3.43101,-2.19579
2023-03-15 15:14:38:665,-0.599625,-1.67503,-9.59178,10.1385,-3.43013,-2.19457
2023-03-15 15:14:38:675,-0.585783,-1.69373,-9.59532,10.1328,-3.42927,-2.19688
2023-03-15 15:14:38:685,-0.579967,-1.68775,-9.62998,10.1285,-3.43037,-2.20019
2023-03-15 15:14:38:695,-0.575473,-1.66719,-9.63589,10.1274,-3.4296,-2.20677
2023-03-15 15:14:38:705,-0.58614,-1.66796,-9.60024,10.1279,-3.43114,-2.21098
2023-03-15 15:14:38:715,-0.593977,-1.70063,-9.52322,10.1306,-3.43385,-2.21657
2023-03-15 15:14:38:725,-0.582489,-1.72823,-9.52628,10.1268,-3.43561,-2.22026
2023-03-15 15:14:38:735,-0.588122,-1.68269,-9.60801,10.1161,-3.43747,-2.22305
2023-03-15 15:14:38:745,-0.612794,-1.64302,-9.68189,10.1095,-3.43827,-2.22867
2023-03-15 15:14:38:755,-0.611129,-1.62902,-9.70648,10.1074,-3.43824,-2.234
2023-03-15 15:14:38:765,-0.586842,-1.6508,-9.71353,10.1108,-3.4341,-2.24137
2023-03-15 15:14:38:775,-0.55334,-1.62137,-9.69414,10.1205,-3.42669,-2.2499
2023-03-15 15:14:38:785,-0.534545,-1.67596,-9.61177,10.136,-3.42167,-2.25799
2023-03-15 15:14:38:795,-0.527381,-1.70511,-9.51562,10.1498,-3.41666,-2.25921
2023-03-15 15:14:38:805,-0.513028,-1.70884,-9.47005,10.1584,-3.40965,-2.26217
2023-03-15 15:14:38:815,-0.517294,-1.73863,-9.50646,10.1613,-3.40277,-2.25878
2023-03-15 15:14:38:825,-0.507687,-1.69765,-9.6087,10.156,-3.39632,-2.25551
2023-03-15 15:14:38:835,-0.444749,-1.69045,-9.70685,10.1561,-3.38914,-2.25134
2023-03-15 15:14:38:845,-0.40967,-1.70962,-9.74258,10.1607,-3.38307,-2.24438
2023-03-15 15:14:38:855,-0.448217,-1.7403,-9.69521,10.1689,-3.38272,-2.2292
2023-03-15 15:14:38:865,-0.498307,-1.7494,-9.64595,10.1784,-3.39055,-2.20799
2023-03-15 15:14:38:875,-0.538868,-1.71032,-9.63801,10.182,-3.39777,-2.18766
2023-03-15 15:14:38:885,-0.61325,-1.71582,-9.61968,10.1843,-3.40741,-2.1644
2023-03-15 15:14:38:895,-0.667491,-1.70659,-9.59392,10.1887,-3.42024,-2.14302
2023-03-15 15:14:38:905,-0.688813,-1.68191,-9.56436,10.1898,-3.43294,-2.13141
2023-03-15 15:14:38:915,-0.715558,-1.68395,-9.5721,10.1899,-3.44642,-2.125
2023-03-15 15:14:38:925,-0.761827,-1.6618,-9.58831,10.1878,-3.45914,-2.12154
2023-03-15 15:14:38:935,-0.817863,-1.61632,-9.60175,10.1852,-3.47733,-2.13249
2023-03-15 15:14:38:945,-0.846806,-1.61179,-9.57461,10.1819,-3.49654,-2.15216
2023-03-15 15:14:38:955,-0.787076,-1.64729,-9.57595,10.1824,-3.51226,-2.17814
2023-03-15 15:14:38:965,-0.68353,-1.6614,-9.58215,10.1901,-3.51589,-2.2093
2023-03-15 15:14:38:975,-0.564385,-1.69061,-9.60249,10.202,-3.51111,-2.24237
2023-03-15 15:14:38:985,-0.443852,-1.71825,-9.5864,10.2163,-3.49106,-2.26202
2023-03-15 15:14:38:995,-0.389714,-1.78516,-9.56463,10.2378,-3.46855,-2.26826
2023-03-15 15:14:39:5,-0.438242,-1.81834,-9.50927,10.2542,-3.45086,-2.26276
2023-03-15 15:14:39:15,-0.455024,-1.82633,-9.52454,10.2623,-3.43416,-2.25125
2023-03-15 15:14:39:25,-0.427671,-1.79349,-9.57223,10.265,-3.42318,-2.23772
2023-03-15 15:14:39:35,-0.478282,-1.7674,-9.59618,10.266,-3.4133,-2.21781
2023-03-15 15:14:39:45,-0.594199,-1.72133,-9.59301,10.2631,-3.41245,-2.20034
2023-03-15 15:14:39:55,-0.650365,-1.69421,-9.60766,10.2564,-3.41321,-2.19279
2023-03-15 15:14:39:65,-0.646427,-1.66954,-9.64093,10.2514,-3.41515,-2.19287
2023-03-15 15:14:39:75,-0.608823,-1.66271,-9.66221,10.2473,-3.41518,-2.19724
2023-03-15 15:14:39:85,-0.607208,-1.6814,-9.62237,10.246,-3.42077,-2.20646
2023-03-15 15:14:39:95,-0.599465,-1.7246,-9.58012,10.2494,-3.41943,-2.21601
2023-03-15 15:14:39:105,-0.569386,-1.72628,-9.57061,10.2524,-3.42034,-2.22175
2023-03-15 15:14:39:115,-0.568719,-1.70747,-9.60512,10.2519,-3.42,-2.22745
2023-03-15 15:14:39:125,-0.606274,-1.68532,-9.64103,10.2538,-3.42494,-2.23462
2023-03-15 15:14:39:135,-0.614019,-1.69801,-9.6335,10.2578,-3.42973,-2.24486
2023-03-15 15:14:39:145,-0.595614,-1.71309,-9.63637,10.2592,-3.43268,-2.24844
2023-03-15 15:14:39:155,-0.56125,-1.70218,-9.6578,10.2634,-3.4315,-2.25461
2023-03-15 15:14:39:165,-0.54981,-1.68998,-9.66691,10.2684,-3.4272,-2.25632
2023-03-15 15:14:39:175,-0.578647,-1.68197,-9.66617,10.2774,-3.42639,-2.25566
2023-03-15 15:14:39:185,-0.630988,-1.67504,-9.66858,10.2884,-3.43051,-2.25632
2023-03-15 15:14:39:195,-0.64814,-1.67747,-9.61912,10.3035,-3.4375,-2.25996
2023-03-15 15:14:39:205,-0.65469,-1.70797,-9.56145,10.3222,-3.43729,-2.26449
2023-03-15 15:14:39:215,-0.640603,-1.73189,-9.51408,10.3446,-3.43688,-2.27062
