Timestamp,Acceleration_x,Acceleration_y,Acceleration_z,roll,pitch,yaw
2023-03-11 16:03:54:188,-0.517171,2.95143,-9.32546,-17.3429,-2.71863,90.843
2023-03-11 16:03:54:196,-0.531715,2.95951,-9.31756,-17.3706,-2.71451,90.847
2023-03-11 16:03:54:206,-0.508853,2.96655,-9.32992,-17.3977,-2.7074,90.8496
2023-03-11 16:03:54:217,-0.487538,2.99083,-9.36371,-17.4257,-2.69853,90.8514
2023-03-11 16:03:54:226,-0.47557,3.01742,-9.41971,-17.452,-2.68825,90.8531
2023-03-11 16:03:54:236,-0.466036,3.03617,-9.43127,-17.4754,-2.68008,90.8555
2023-03-11 16:03:54:246,-0.459409,3.05228,-9.41365,-17.4899,-2.66848,90.8557
2023-03-11 16:03:54:256,-0.43851,3.05454,-9.41242,-17.4985,-2.65733,90.8578
2023-03-11 16:03:54:266,-0.431408,3.04303,-9.39701,-17.5036,-2.64916,90.8567
2023-03-11 16:03:54:276,-0.429764,3.02679,-9.37309,-17.5097,-2.63859,90.8588
2023-03-11 16:03:54:286,-0.436281,3.0151,-9.35017,-17.5082,-2.62404,90.8583
2023-03-11 16:03:54:296,-0.430768,3.01708,-9.34349,-17.5094,-2.60706,90.8551
2023-03-11 16:03:54:306,-0.424795,3.03741,-9.3779,-17.5131,-2.58987,90.8517
2023-03-11 16:03:54:316,-0.41113,3.06823,-9.37495,-17.5159,-2.5693,90.8465
2023-03-11 16:03:54:326,-0.405216,3.07683,-9.37205,-17.5191,-2.55061,90.8381
2023-03-11 16:03:54:336,-0.406601,3.10156,-9.40893,-17.5162,-2.52778,90.8302
2023-03-11 16:03:54:346,-0.3575,3.11305,-9.44829,-17.5102,-2.50056,90.8154
2023-03-11 16:03:54:356,-0.300868,3.0785,-9.43167,-17.497,-2.47563,90.8017
2023-03-11 16:03:54:366,-0.268833,3.04002,-9.36153,-17.4737,-2.45078,90.7869
2023-03-11 16:03:54:376,-0.240788,2.97427,-9.30103,-17.4466,-2.42539,90.7716
2023-03-11 16:03:54:386,-0.189516,2.93846,-9.28118,-17.4233,-2.40202,90.7542
2023-03-11 16:03:54:396,-0.160537,2.91413,-9.26618,-17.4012,-2.37886,90.7423
2023-03-11 16:03:54:406,-0.168616,2.91567,-9.2588,-17.3846,-2.35643,90.7322
2023-03-11 16:03:54:416,-0.177938,2.93251,-9.3204,-17.3734,-2.33739,90.7281
2023-03-11 16:03:54:426,-0.166191,2.95872,-9.3631,-17.3668,-2.32367,90.7284
2023-03-11 16:03:54:436,-0.165776,2.93939,-9.323,-17.3561,-2.31427,90.7333
2023-03-11 16:03:54:446,-0.205093,2.89925,-9.2242,-17.3387,-2.31453,90.7439
2023-03-11 16:03:54:456,-0.278312,2.88243,-9.17644,-17.3287,-2.32342,90.762
2023-03-11 16:03:54:466,-0.351166,2.89289,-9.18815,-17.3265,-2.33452,90.7852
2023-03-11 16:03:54:476,-0.400068,2.92923,-9.23383,-17.3312,-2.34769,90.8101
2023-03-11 16:03:54:486,-0.456127,2.95873,-9.27308,-17.3396,-2.36124,90.8308
2023-03-11 16:03:54:496,-0.484613,2.98594,-9.31861,-17.3507,-2.37235,90.8527
2023-03-11 16:03:54:506,-0.508439,3.01574,-9.35106,-17.3604,-2.38509,90.8755
2023-03-11 16:03:54:516,-0.560854,3.02888,-9.38027,-17.3749,-2.3921,90.8977
2023-03-11 16:03:54:526,-0.588611,3.0454,-9.37788,-17.3816,-2.39688,90.9158
2023-03-11 16:03:54:536,-0.60545,3.02715,-9.3428,-17.3799,-2.39899,90.9273
2023-03-11 16:03:54:546,-0.581917,2.97559,-9.30327,-17.3705,-2.402,90.9335
2023-03-11 16:03:54:556,-0.555757,2.94038,-9.27577,-17.3593,-2.40278,90.9323
2023-03-11 16:03:54:566,-0.551,2.91305,-9.26465,-17.3451,-2.40288,90.9246
2023-03-11 16:03:54:576,-0.516848,2.89465,-9.2615,-17.3309,-2.39699,90.9122
2023-03-11 16:03:54:586,-0.480066,2.89001,-9.26202,-17.3195,-2.39239,90.8966
2023-03-11 16:03:54:596,-0.417989,2.86912,-9.30355,-17.3147,-2.38736,90.8745
2023-03-11 16:03:54:606,-0.352369,2.88929,-9.34239,-17.3137,-2.37596,90.8504
2023-03-11 16:03:54:616,-0.322676,2.90625,-9.3479,-17.3138,-2.36803,90.8271
2023-03-11 16:03:54:626,-0.320082,2.91128,-9.34081,-17.3135,-2.3591,90.8067
2023-03-11 16:03:54:636,-0.315944,2.90792,-9.35001,-17.3114,-2.35129,90.7936
2023-03-11 16:03:54:646,-0.315934,2.91463,-9.36481,-17.3085,-2.34438,90.7812
2023-03-11 16:03:54:656,-0.298439,2.90894,-9.37438,-17.3009,-2.33953,90.774
2023-03-11 16:03:54:666,-0.269448,2.88609,-9.36686,-17.2889,-2.33413,90.7701
2023-03-11 16:03:54:676,-0.263485,2.84908,-9.34214,-17.279,-2.33062,90.7717
2023-03-11 16:03:54:686,-0.312695,2.83207,-9.3004,-17.2716,-2.32725,90.7781
2023-03-11 16:03:54:696,-0.363147,2.83872,-9.29747,-17.2678,-2.32591,90.7917
2023-03-11 16:03:54:706,-0.366967,2.88692,-9.32754,-17.2695,-2.3247,90.8077
2023-03-11 16:03:54:716,-0.352438,2.92068,-9.35732,-17.2712,-2.32077,90.8248
2023-03-11 16:03:54:726,-0.326345,2.92805,-9.39018,-17.2742,-2.31553,90.8417
2023-03-11 16:03:54:736,-0.321356,2.92103,-9.40723,-17.2715,-2.31024,90.8606
2023-03-11 16:03:54:746,-0.335178,2.92195,-9.41618,-17.2665,-2.30783,90.8838
2023-03-11 16:03:54:756,-0.369798,2.90311,-9.39276,-17.2594,-2.30795,90.9119
2023-03-11 16:03:54:766,-0.401738,2.87486,-9.37427,-17.2386,-2.30788,90.9411
2023-03-11 16:03:54:776,-0.429769,2.86577,-9.35518,-17.221,-2.30596,90.9729
2023-03-11 16:03:54:786,-0.462765,2.85607,-9.33376,-17.2047,-2.30468,91.0061
2023-03-11 16:03:54:796,-0.496556,2.83734,-9.30767,-17.1846,-2.30481,91.0357
2023-03-11 16:03:54:806,-0.523699,2.82881,-9.28795,-17.1669,-2.30285,91.0608
2023-03-11 16:03:54:816,-0.549093,2.8181,-9.29355,-17.1552,-2.30058,91.0822
2023-03-11 16:03:54:826,-0.570306,2.81384,-9.29298,-17.1444,-2.29699,91.0959
2023-03-11 16:03:54:836,-0.551884,2.83056,-9.28952,-17.1387,-2.29501,91.1018
2023-03-11 16:03:54:846,-0.513475,2.83159,-9.29342,-17.1339,-2.29474,91.1004
2023-03-11 16:03:54:856,-0.484496,2.83502,-9.29732,-17.1326,-2.29419,91.0898
2023-03-11 16:03:54:866,-0.455085,2.84371,-9.29303,-17.1333,-2.29429,91.0734
2023-03-11 16:03:54:876,-0.406093,2.83988,-9.28444,-17.135,-2.293,91.0494
2023-03-11 16:03:54:886,-0.347005,2.83052,-9.30611,-17.1362,-2.28806,91.023
2023-03-11 16:03:54:896,-0.288081,2.83551,-9.3276,-17.1422,-2.27902,90.9973
2023-03-11 16:03:54:906,-0.24066,2.83234,-9.33482,-17.1476,-2.26958,90.9731
2023-03-11 16:03:54:916,-0.197913,2.81828,-9.33057,-17.1549,-2.25568,90.9504
2023-03-11 16:03:54:926,-0.187676,2.80872,-9.32446,-17.1533,-2.24321,90.9321
2023-03-11 16:03:54:936,-0.20293,2.8177,-9.32378,-17.1605,-2.22777,90.9251
2023-03-11 16:03:54:946,-0.224818,2.82301,-9.30954,-17.1694,-2.21635,90.9242
2023-03-11 16:03:54:956,-0.255025,2.82885,-9.28912,-17.1795,-2.20463,90.9267
2023-03-11 16:03:54:966,-0.270783,2.82667,-9.26915,-17.1906,-2.19097,90.9292
2023-03-11 16:03:54:976,-0.279539,2.83619,-9.2816,-17.2055,-2.17719,90.9377
2023-03-11 16:03:54:986,-0.298186,2.87087,-9.30544,-17.2286,-2.16051,90.9487
2023-03-11 16:03:54:996,-0.295935,2.90523,-9.32008,-17.2567,-2.15209,90.9604
2023-03-11 16:03:55:6,-0.30787,2.90221,-9.32692,-17.2821,-2.14777,90.9763
2023-03-11 16:03:55:16,-0.353758,2.93369,-9.30639,-17.3103,-2.15107,90.9921
2023-03-11 16:03:55:26,-0.38462,2.94869,-9.32392,-17.3398,-2.15659,91.0059
2023-03-11 16:03:55:36,-0.412714,2.98381,-9.36324,-17.3669,-2.16207,91.019
2023-03-11 16:03:55:46,-0.454704,3.00782,-9.38679,-17.3917,-2.16896,91.0273
2023-03-11 16:03:55:56,-0.472499,3.01142,-9.38646,-17.4154,-2.17871,91.0358
2023-03-11 16:03:55:66,-0.467218,3.01365,-9.38921,-17.4367,-2.18097,91.041
2023-03-11 16:03:55:76,-0.455297,3.0311,-9.37204,-17.4541,-2.18244,91.0425
2023-03-11 16:03:55:86,-0.447647,3.01335,-9.3412,-17.4657,-2.17881,91.0372
2023-03-11 16:03:55:96,-0.432752,2.99458,-9.31178,-17.4753,-2.17659,91.0306
2023-03-11 16:03:55:106,-0.427012,2.98414,-9.29353,-17.4856,-2.17046,91.0213
2023-03-11 16:03:55:116,-0.398854,2.98914,-9.32201,-17.4939,-2.16563,91.0076
2023-03-11 16:03:55:126,-0.347604,3.02184,-9.37934,-17.5057,-2.1584,90.9947
2023-03-11 16:03:55:136,-0.303872,3.02796,-9.40872,-17.5172,-2.1513,90.9826
2023-03-11 16:03:55:146,-0.2497,3.00819,-9.39751,-17.5217,-2.1452,90.9706
2023-03-11 16:03:55:156,-0.220024,2.98046,-9.36627,-17.5215,-2.14009,90.9574
2023-03-11 16:03:55:166,-0.217361,2.96223,-9.32961,-17.5212,-2.13384,90.9511
2023-03-11 16:03:55:176,-0.248974,2.9748,-9.31927,-17.5224,-2.12833,90.95
2023-03-11 16:03:55:186,-0.281554,2.99149,-9.30612,-17.5225,-2.12085,90.9525
2023-03-11 16:03:55:196,-0.291226,2.99654,-9.30467,-17.5245,-2.10981,90.96
2023-03-11 16:03:55:206,-0.241129,2.99647,-9.31703,-17.5286,-2.09394,90.9714
2023-03-11 16:03:55:216,-0.217543,2.98754,-9.33289,-17.5314,-2.07884,90.9859
2023-03-11 16:03:55:226,-0.231837,2.96489,-9.31567,-17.5317,-2.05952,91.003
2023-03-11 16:03:55:236,-0.258975,2.94316,-9.2743,-17.5296,-2.04363,91.0237
2023-03-11 16:03:55:246,-0.280073,2.92201,-9.22999,-17.5273,-2.03031,91.0491
2023-03-11 16:03:55:256,-0.323228,2.90647,-9.18401,-17.5266,-2.0193,91.0769
2023-03-11 16:03:55:266,-0.367193,2.90116,-9.17281,-17.5336,-2.00905,91.106
2023-03-11 16:03:55:276,-0.406007,2.93093,-9.18766,-17.5463,-2.00008,91.1321
2023-03-11 16:03:55:286,-0.429436,2.97307,-9.22098,-17.5648,-1.99276,91.1549
2023-03-11 16:03:55:296,-0.441052,2.99368,-9.24141,-17.5912,-1.9889,91.1713
2023-03-11 16:03:55:306,-0.44795,3.05701,-9.27224,-17.6222,-1.98976,91.1794
2023-03-11 16:03:55:316,-0.438244,3.10046,-9.31517,-17.6601,-1.99568,91.1838
2023-03-11 16:03:55:326,-0.433619,3.14381,-9.34936,-17.6965,-2.00542,91.1795
2023-03-11 16:03:55:336,-0.44173,3.16188,-9.3656,-17.73,-2.01704,91.1702
2023-03-11 16:03:55:346,-0.419587,3.16754,-9.40132,-17.7603,-2.03218,91.1533
2023-03-11 16:03:55:356,-0.385774,3.18499,-9.43707,-17.7878,-2.04717,91.1262
2023-03-11 16:03:55:367,-0.324097,3.18026,-9.4307,-17.807,-2.06124,91.0969
2023-03-11 16:03:55:377,-0.274113,3.13153,-9.40096,-17.8161,-2.07916,91.0677
2023-03-11 16:03:55:387,-0.277508,3.09925,-9.37593,-17.8187,-2.09748,91.0442
2023-03-11 16:03:55:397,-0.316976,3.09208,-9.37905,-17.8167,-2.11548,91.0251
2023-03-11 16:03:55:407,-0.339284,3.07445,-9.38757,-17.8123,-2.13262,91.0149
2023-03-11 16:03:55:417,-0.32399,3.05753,-9.37783,-17.8018,-2.1402,91.0029
2023-03-11 16:03:55:427,-0.298894,3.02263,-9.35259,-17.7876,-2.14597,91.0004
2023-03-11 16:03:55:437,-0.288631,2.99132,-9.31762,-17.7709,-2.1463,90.9943
2023-03-11 16:03:55:447,-0.290583,2.9668,-9.26408,-17.7523,-2.14677,90.996
2023-03-11 16:03:55:457,-0.287813,2.93942,-9.22833,-17.7379,-2.14489,91.003
2023-03-11 16:03:55:467,-0.299359,2.93154,-9.21975,-17.7246,-2.14089,91.0121
2023-03-11 16:03:55:477,-0.303915,2.94545,-9.21481,-17.7116,-2.13856,91.0283
2023-03-11 16:03:55:487,-0.314303,2.94487,-9.20537,-17.7026,-2.13775,91.0454
2023-03-11 16:03:55:497,-0.345142,2.9195,-9.18845,-17.6983,-2.14201,91.0659
2023-03-11 16:03:55:507,-0.409002,2.93115,-9.21284,-17.6986,-2.14625,91.0864
2023-03-11 16:03:55:517,-0.457279,2.94754,-9.24561,-17.7072,-2.15281,91.1091
2023-03-11 16:03:55:527,-0.440243,2.96987,-9.27219,-17.7189,-2.15964,91.1257
2023-03-11 16:03:55:537,-0.414326,3.00572,-9.28295,-17.7361,-2.16382,91.1379
2023-03-11 16:03:55:547,-0.396665,3.01868,-9.29789,-17.7517,-2.16743,91.1461
2023-03-11 16:03:55:557,-0.371174,3.0349,-9.30635,-17.7732,-2.17309,91.149
2023-03-11 16:03:55:567,-0.326652,3.0348,-9.32199,-17.7941,-2.18227,91.1519
2023-03-11 16:03:55:577,-0.306941,3.05577,-9.34738,-17.8104,-2.18909,91.1551
2023-03-11 16:03:55:587,-0.321531,3.0679,-9.38584,-17.8256,-2.1992,91.1594
2023-03-11 16:03:55:597,-0.339141,3.07692,-9.42124,-17.8394,-2.20622,91.1671
2023-03-11 16:03:55:607,-0.346828,3.07541,-9.43998,-17.8465,-2.2136,91.178
2023-03-11 16:03:55:617,-0.353188,3.05918,-9.4331,-17.8461,-2.2169,91.1946
2023-03-11 16:03:55:627,-0.367181,3.04121,-9.38239,-17.835,-2.21675,91.211
2023-03-11 16:03:55:637,-0.380611,3.01316,-9.3175,-17.8195,-2.21185,91.2326
2023-03-11 16:03:55:646,-0.396123,2.98164,-9.26695,-17.8022,-2.20785,91.2506
2023-03-11 16:03:55:657,-0.43678,2.96295,-9.25564,-17.7877,-2.20353,91.2707
2023-03-11 16:03:55:666,-0.475132,2.96642,-9.25047,-17.7768,-2.20199,91.2863
2023-03-11 16:03:55:676,-0.473151,2.97922,-9.25469,-17.7679,-2.20147,91.2984
2023-03-11 16:03:55:687,-0.451087,2.98305,-9.24755,-17.7627,-2.19822,91.3009
2023-03-11 16:03:55:696,-0.422575,2.99464,-9.24393,-17.7636,-2.20149,91.3001
2023-03-11 16:03:55:706,-0.384165,2.99848,-9.26716,-17.7664,-2.20868,91.2931
2023-03-11 16:03:55:716,-0.352924,3.0065,-9.29917,-17.7708,-2.21914,91.2791
2023-03-11 16:03:55:726,-0.318878,3.01655,-9.29788,-17.7758,-2.23041,91.263
2023-03-11 16:03:55:736,-0.307645,3.0238,-9.27393,-17.7814,-2.24594,91.2463
2023-03-11 16:03:55:746,-0.315441,3.02525,-9.27158,-17.7873,-2.26415,91.2281
2023-03-11 16:03:55:756,-0.301273,3.02736,-9.29008,-17.7951,-2.27785,91.2147
2023-03-11 16:03:55:766,-0.272035,3.03849,-9.31885,-17.8037,-2.28752,91.1999
2023-03-11 16:03:55:777,-0.253357,3.03038,-9.31183,-17.805,-2.29724,91.1874
2023-03-11 16:03:55:786,-0.243638,3.02084,-9.33258,-17.8086,-2.30146,91.1848
2023-03-11 16:03:55:796,-0.231797,3.0194,-9.36418,-17.8099,-2.30116,91.1881
2023-03-11 16:03:55:806,-0.222045,3.01668,-9.35266,-17.8058,-2.3013,91.1955
2023-03-11 16:03:55:816,-0.232901,2.99307,-9.30706,-17.7984,-2.29895,91.2103
2023-03-11 16:03:55:826,-0.264864,2.98094,-9.25619,-17.7892,-2.2988,91.2333
2023-03-11 16:03:55:836,-0.294404,2.95735,-9.26753,-17.7768,-2.29989,91.2599
2023-03-11 16:03:55:846,-0.32742,2.9634,-9.32297,-17.7686,-2.2992,91.2916
2023-03-11 16:03:55:856,-0.358872,2.98272,-9.35163,-17.764,-2.30048,91.3267
2023-03-11 16:03:55:866,-0.39246,2.99048,-9.35253,-17.7601,-2.30301,91.3612
2023-03-11 16:03:55:876,-0.427181,3.00994,-9.33198,-17.7557,-2.30966,91.3972
2023-03-11 16:03:55:886,-0.471366,3.01337,-9.31133,-17.7525,-2.31771,91.4319
2023-03-11 16:03:55:896,-0.549874,3.04301,-9.32064,-17.7528,-2.33007,91.462
2023-03-11 16:03:55:907,-0.604912,3.08417,-9.33415,-17.7553,-2.34112,91.4902
2023-03-11 16:03:55:917,-0.602916,3.10844,-9.32658,-17.7606,-2.35024,91.5071
2023-03-11 16:03:55:926,-0.577779,3.10881,-9.33123,-17.7622,-2.35488,91.5157
2023-03-11 16:03:55:937,-0.542508,3.09726,-9.32391,-17.7562,-2.35491,91.5154
2023-03-11 16:03:55:947,-0.49977,3.0874,-9.3162,-17.7487,-2.35559,91.5074
2023-03-11 16:03:55:956,-0.431992,3.06231,-9.31897,-17.735,-2.35176,91.4939
2023-03-11 16:03:55:967,-0.381983,3.04942,-9.29889,-17.7205,-2.34909,91.4763
2023-03-11 16:03:55:977,-0.352879,3.03023,-9.29471,-17.7016,-2.34622,91.4546
2023-03-11 16:03:55:986,-0.337597,3.00869,-9.29063,-17.6773,-2.34302,91.4369
2023-03-11 16:03:55:997,-0.320179,2.98311,-9.28395,-17.6558,-2.34099,91.4122
2023-03-11 16:03:56:6,-0.304264,2.96326,-9.26916,-17.6332,-2.33608,91.3924
2023-03-11 16:03:56:17,-0.304505,2.94261,-9.27596,-17.6135,-2.33345,91.3734
2023-03-11 16:03:56:26,-0.296074,2.93502,-9.26237,-17.5958,-2.33391,91.3577
2023-03-11 16:03:56:37,-0.293459,2.9424,-9.26195,-17.5806,-2.33428,91.342
2023-03-11 16:03:56:47,-0.311858,2.95385,-9.30385,-17.5736,-2.33723,91.3282
2023-03-11 16:03:56:57,-0.335958,2.95708,-9.33072,-17.5705,-2.33889,91.3159
2023-03-11 16:03:56:66,-0.323788,2.99615,-9.34857,-17.5671,-2.34473,91.3071
2023-03-11 16:03:56:77,-0.282505,3.01376,-9.37441,-17.5654,-2.3481,91.2976
2023-03-11 16:03:56:87,-0.247374,2.98983,-9.33116,-17.5597,-2.34935,91.2873
2023-03-11 16:03:56:96,-0.243547,2.9561,-9.27625,-17.5462,-2.35539,91.2823
2023-03-11 16:03:56:107,-0.298954,2.95319,-9.25537,-17.5402,-2.36602,91.2848
2023-03-11 16:03:56:117,-0.378509,2.95579,-9.25564,-17.5328,-2.37844,91.2899
2023-03-11 16:03:56:127,-0.458688,2.97625,-9.28096,-17.5311,-2.39192,91.2976
2023-03-11 16:03:56:137,-0.46781,2.97264,-9.30064,-17.5267,-2.40501,91.309
2023-03-11 16:03:56:146,-0.467991,2.97318,-9.31329,-17.5255,-2.40641,91.317
2023-03-11 16:03:56:156,-0.470315,2.98593,-9.30189,-17.5249,-2.40707,91.3248
2023-03-11 16:03:56:166,-0.440769,3.0026,-9.30448,-17.5224,-2.40388,91.3292
2023-03-11 16:03:56:176,-0.430168,3.01025,-9.32264,-17.522,-2.4027,91.3328
2023-03-11 16:03:56:187,-0.427483,2.99921,-9.3502,-17.5204,-2.39887,91.3293
2023-03-11 16:03:56:197,-0.420412,3.00366,-9.33585,-17.5157,-2.39377,91.3252
2023-03-11 16:03:56:207,-0.402166,3.00365,-9.33726,-17.5122,-2.39147,91.3166
2023-03-11 16:03:56:217,-0.384106,3.00201,-9.33323,-17.5041,-2.39331,91.3097
2023-03-11 16:03:56:227,-0.370243,2.98786,-9.31829,-17.4958,-2.3963,91.3016
2023-03-11 16:03:56:237,-0.348633,2.98825,-9.3104,-17.493,-2.40097,91.2926
2023-03-11 16:03:56:247,-0.329898,2.96357,-9.33165,-17.4912,-2.40163,91.287
2023-03-11 16:03:56:257,-0.325741,2.96724,-9.34389,-17.4899,-2.40724,91.2811
2023-03-11 16:03:56:267,-0.32835,2.95939,-9.34389,-17.4827,-2.41283,91.278
2023-03-11 16:03:56:277,-0.341345,2.94158,-9.34335,-17.4727,-2.42019,91.2807
2023-03-11 16:03:56:286,-0.371683,2.92921,-9.33453,-17.4618,-2.4248,91.2848
2023-03-11 16:03:56:297,-0.395057,2.93529,-9.31395,-17.4561,-2.43177,91.2935
2023-03-11 16:03:56:306,-0.40982,2.91039,-9.30864,-17.4484,-2.4367,91.3031
2023-03-11 16:03:56:317,-0.416362,2.9031,-9.29709,-17.4379,-2.44367,91.3181
2023-03-11 16:03:56:327,-0.4322,2.87835,-9.28406,-17.4275,-2.45089,91.3307
2023-03-11 16:03:56:337,-0.448576,2.87088,-9.26405,-17.4206,-2.45633,91.3463
2023-03-11 16:03:56:346,-0.458024,2.87585,-9.23217,-17.4204,-2.46791,91.3625
2023-03-11 16:03:56:356,-0.467385,2.87186,-9.23968,-17.4245,-2.47901,91.3766
2023-03-11 16:03:56:367,-0.500872,2.87956,-9.23839,-17.4311,-2.49546,91.3955
2023-03-11 16:03:56:377,-0.570594,2.89727,-9.25496,-17.4415,-2.50955,91.4147
2023-03-11 16:03:56:387,-0.64382,2.93526,-9.30421,-17.4576,-2.52604,91.4358
2023-03-11 16:03:56:397,-0.662144,2.95565,-9.36182,-17.4728,-2.53787,91.4528
2023-03-11 16:03:56:407,-0.630608,2.981,-9.36066,-17.4864,-2.54664,91.4616
2023-03-11 16:03:56:417,-0.587099,2.97732,-9.34275,-17.4999,-2.55132,91.4644
2023-03-11 16:03:56:427,-0.550608,2.9812,-9.29852,-17.509,-2.55256,91.4644
2023-03-11 16:03:56:436,-0.524396,2.98911,-9.29291,-17.5187,-2.55347,91.4576
2023-03-11 16:03:56:446,-0.516753,3.00312,-9.30158,-17.5287,-2.55067,91.4483
2023-03-11 16:03:56:456,-0.49776,3.0229,-9.30515,-17.5403,-2.54856,91.437
2023-03-11 16:03:56:466,-0.480492,3.03288,-9.3221,-17.5458,-2.54462,91.4241
2023-03-11 16:03:56:476,-0.459711,3.01484,-9.33375,-17.5509,-2.53973,91.4105
2023-03-11 16:03:56:487,-0.458957,3.01867,-9.33686,-17.5545,-2.52982,91.3959
2023-03-11 16:03:56:497,-0.442209,3.01507,-9.32582,-17.5558,-2.51694,91.3782
2023-03-11 16:03:56:507,-0.418587,2.9982,-9.3216,-17.5561,-2.49727,91.3588
2023-03-11 16:03:56:517,-0.404088,3.01379,-9.31696,-17.5549,-2.47848,91.3347
2023-03-11 16:03:56:527,-0.356923,3.02234,-9.31433,-17.5557,-2.4585,91.3076
2023-03-11 16:03:56:537,-0.308889,3.02269,-9.31208,-17.5546,-2.44251,91.2784
2023-03-11 16:03:56:547,-0.269683,3.01137,-9.32704,-17.5556,-2.42358,91.2507
2023-03-11 16:03:56:557,-0.240747,3.01401,-9.37085,-17.5551,-2.40922,91.2242
2023-03-11 16:03:56:567,-0.203824,3.0378,-9.43717,-17.5559,-2.3993,91.2008
2023-03-11 16:03:56:577,-0.191822,3.0316,-9.4625,-17.5511,-2.39029,91.1826
2023-03-11 16:03:56:587,-0.211977,2.9943,-9.40229,-17.5407,-2.38874,91.1677
2023-03-11 16:03:56:597,-0.25309,2.94783,-9.33411,-17.528,-2.38703,91.1592
2023-03-11 16:03:56:607,-0.3061,2.95433,-9.31898,-17.5184,-2.38953,91.156
2023-03-11 16:03:56:617,-0.364595,2.99905,-9.33929,-17.514,-2.39326,91.159
2023-03-11 16:03:56:627,-0.420906,3.01748,-9.35795,-17.5091,-2.39398,91.1658
2023-03-11 16:03:56:637,-0.460795,3.01933,-9.33377,-17.5005,-2.39508,91.1672
2023-03-11 16:03:56:647,-0.472476,3.00745,-9.30323,-17.487,-2.39866,91.1667
2023-03-11 16:03:56:657,-0.476064,2.9946,-9.27651,-17.4724,-2.39773,91.1614
2023-03-11 16:03:56:667,-0.49416,2.97556,-9.24904,-17.4589,-2.39508,91.1569
2023-03-11 16:03:56:677,-0.496476,2.95291,-9.23324,-17.4432,-2.39198,91.1447
2023-03-11 16:03:56:687,-0.483519,2.93211,-9.22808,-17.4251,-2.39083,91.128
2023-03-11 16:03:56:697,-0.45635,2.90613,-9.25185,-17.4066,-2.38767,91.1069
2023-03-11 16:03:56:707,-0.412093,2.88615,-9.27679,-17.3917,-2.38436,91.0804
2023-03-11 16:03:56:717,-0.361203,2.87307,-9.30137,-17.3843,-2.38086,91.0513
2023-03-11 16:03:56:727,-0.343481,2.87503,-9.34035,-17.374,-2.38001,91.0208
2023-03-11 16:03:56:737,-0.325327,2.89816,-9.36678,-17.3698,-2.37635,90.9906
2023-03-11 16:03:56:747,-0.273931,2.90078,-9.35265,-17.3664,-2.36953,90.9635
2023-03-11 16:03:56:757,-0.239281,2.89328,-9.3391,-17.3632,-2.36316,90.9383
2023-03-11 16:03:56:767,-0.238686,2.91105,-9.35339,-17.3602,-2.36463,90.917
2023-03-11 16:03:56:777,-0.266527,2.92668,-9.36333,-17.3572,-2.36082,90.9048
2023-03-11 16:03:56:787,-0.266202,2.94353,-9.38167,-17.3579,-2.35586,90.8954
2023-03-11 16:03:56:797,-0.23963,2.94743,-9.39601,-17.3549,-2.34741,90.8945
2023-03-11 16:03:56:807,-0.212215,2.91963,-9.36581,-17.3454,-2.34489,90.8959
2023-03-11 16:03:56:817,-0.246457,2.88471,-9.30586,-17.3321,-2.34441,90.9044
2023-03-11 16:03:56:827,-0.321056,2.87182,-9.28993,-17.3222,-2.3487,90.9175
2023-03-11 16:03:56:837,-0.369381,2.88504,-9.2985,-17.3133,-2.35911,90.9358
2023-03-11 16:03:56:847,-0.40148,2.90276,-9.29606,-17.3107,-2.36351,90.9556
2023-03-11 16:03:56:857,-0.412476,2.90391,-9.29214,-17.3103,-2.36941,90.9752
2023-03-11 16:03:56:867,-0.434012,2.90804,-9.29631,-17.3058,-2.37964,90.9941
2023-03-11 16:03:56:877,-0.436599,2.90979,-9.3083,-17.3013,-2.39114,91.0123
2023-03-11 16:03:56:887,-0.461888,2.9291,-9.30765,-17.2989,-2.40605,91.0297
2023-03-11 16:03:56:897,-0.483642,2.93937,-9.31576,-17.2987,-2.42176,91.0483
2023-03-11 16:03:56:907,-0.509179,2.94158,-9.3185,-17.299,-2.43836,91.0612
2023-03-11 16:03:56:916,-0.511717,2.95251,-9.30442,-17.2996,-2.45822,91.0703
2023-03-11 16:03:56:926,-0.527335,2.94055,-9.29543,-17.2963,-2.47727,91.0802
2023-03-11 16:03:56:937,-0.541256,2.9298,-9.30593,-17.2927,-2.49397,91.0897
2023-03-11 16:03:56:946,-0.544004,2.93738,-9.30027,-17.2903,-2.50754,91.0954
2023-03-11 16:03:56:956,-0.539205,2.93364,-9.30703,-17.2897,-2.51319,91.099
2023-03-11 16:03:56:966,-0.52463,2.94035,-9.33287,-17.2887,-2.5212,91.0982
2023-03-11 16:03:56:977,-0.49691,2.94144,-9.35742,-17.2906,-2.52386,91.1007
2023-03-11 16:03:56:987,-0.49165,2.95641,-9.36129,-17.2916,-2.52685,91.1005
2023-03-11 16:03:56:996,-0.493308,2.95458,-9.34852,-17.2916,-2.52606,91.0989
2023-03-11 16:03:57:6,-0.479109,2.95738,-9.34032,-17.2873,-2.52399,91.0985
2023-03-11 16:03:57:16,-0.482099,2.96068,-9.3494,-17.2844,-2.51856,91.0932
2023-03-11 16:03:57:27,-0.468784,2.96203,-9.32033,-17.2799,-2.51277,91.0876
2023-03-11 16:03:57:37,-0.460469,2.92883,-9.31221,-17.2706,-2.50618,91.0799
2023-03-11 16:03:57:47,-0.446244,2.9202,-9.30891,-17.2668,-2.49616,91.0729
2023-03-11 16:03:57:57,-0.437601,2.9137,-9.29891,-17.2583,-2.48505,91.0658
2023-03-11 16:03:57:67,-0.415561,2.91678,-9.30727,-17.2544,-2.47422,91.0551
2023-03-11 16:03:57:77,-0.390455,2.92083,-9.31306,-17.2516,-2.46094,91.0396
2023-03-11 16:03:57:87,-0.378393,2.91399,-9.30755,-17.2501,-2.44876,91.0293
2023-03-11 16:03:57:97,-0.364458,2.90958,-9.308,-17.2515,-2.43494,91.0148
2023-03-11 16:03:57:107,-0.340293,2.9285,-9.30876,-17.2494,-2.42404,91.0045
2023-03-11 16:03:57:117,-0.335031,2.93579,-9.32005,-17.2505,-2.41485,90.9948
2023-03-11 16:03:57:127,-0.330522,2.92845,-9.33743,-17.2516,-2.40503,90.9876
2023-03-11 16:03:57:137,-0.337534,2.92788,-9.32888,-17.2534,-2.39859,90.9804
2023-03-11 16:03:57:147,-0.320965,2.92879,-9.30487,-17.2565,-2.39552,90.9738
2023-03-11 16:03:57:157,-0.316274,2.93737,-9.31592,-17.2641,-2.39048,90.9662
2023-03-11 16:03:57:167,-0.340279,2.95416,-9.34027,-17.2708,-2.38657,90.9631
2023-03-11 16:03:57:177,-0.349825,2.95344,-9.35989,-17.2751,-2.38357,90.9576
2023-03-11 16:03:57:187,-0.355842,2.94457,-9.3873,-17.2787,-2.38079,90.9553
2023-03-11 16:03:57:197,-0.359788,2.95401,-9.35832,-17.2784,-2.37539,90.9565
2023-03-11 16:03:57:207,-0.374168,2.95009,-9.33689,-17.2768,-2.37081,90.9566
2023-03-11 16:03:57:217,-0.381549,2.94639,-9.348,-17.2778,-2.36677,90.9595
2023-03-11 16:03:57:227,-0.355734,2.95818,-9.32763,-17.2724,-2.36247,90.9563
2023-03-11 16:03:57:237,-0.337939,2.94846,-9.29977,-17.264,-2.35976,90.9513
2023-03-11 16:03:57:247,-0.328834,2.91233,-9.30731,-17.2582,-2.35368,90.9443
2023-03-11 16:03:57:257,-0.32489,2.90031,-9.349,-17.2521,-2.34963,90.9392
2023-03-11 16:03:57:267,-0.323937,2.93061,-9.39121,-17.2508,-2.34846,90.9355
2023-03-11 16:03:57:277,-0.314904,2.93433,-9.40682,-17.2467,-2.34858,90.9346
2023-03-11 16:03:57:287,-0.310942,2.90929,-9.3595,-17.2371,-2.35396,90.9328
2023-03-11 16:03:57:297,-0.314525,2.87894,-9.30323,-17.2254,-2.35533,90.9339
2023-03-11 16:03:57:306,-0.353976,2.89243,-9.30833,-17.2232,-2.36209,90.9405
2023-03-11 16:03:57:316,-0.399495,2.92781,-9.35494,-17.2259,-2.37031,90.9475
2023-03-11 16:03:57:326,-0.4353,2.95487,-9.36663,-17.2278,-2.37759,90.9578
2023-03-11 16:03:57:336,-0.440945,2.96099,-9.35232,-17.2274,-2.38599,90.9655
2023-03-11 16:03:57:346,-0.431817,2.95645,-9.32983,-17.2243,-2.38788,90.9701
2023-03-11 16:03:57:356,-0.420982,2.95256,-9.32465,-17.2255,-2.39125,90.9744
2023-03-11 16:03:57:366,-0.415779,2.96206,-9.32037,-17.2256,-2.38962,90.9793
2023-03-11 16:03:57:376,-0.435849,2.95097,-9.30209,-17.219,-2.38892,90.9817
2023-03-11 16:03:57:386,-0.441766,2.9302,-9.28229,-17.2105,-2.39072,90.9818
2023-03-11 16:03:57:396,-0.422705,2.88753,-9.26409,-17.1998,-2.39082,90.9817
2023-03-11 16:03:57:406,-0.42006,2.88116,-9.24931,-17.1883,-2.39084,90.9799
2023-03-11 16:03:57:416,-0.416219,2.87347,-9.26928,-17.1749,-2.39027,90.9766
2023-03-11 16:03:57:426,-0.402051,2.86419,-9.30777,-17.1683,-2.39057,90.9734
2023-03-11 16:03:57:436,-0.380629,2.89206,-9.32403,-17.1672,-2.38835,90.9661
2023-03-11 16:03:57:446,-0.358009,2.90668,-9.35267,-17.1731,-2.38779,90.9564
2023-03-11 16:03:57:456,-0.345219,2.91444,-9.35617,-17.1802,-2.38611,90.9481
2023-03-11 16:03:57:466,-0.362372,2.9162,-9.3689,-17.1837,-2.39249,90.9432
2023-03-11 16:03:57:476,-0.385133,2.92821,-9.37016,-17.1892,-2.39397,90.9404
2023-03-11 16:03:57:486,-0.382883,2.93516,-9.37484,-17.1882,-2.39283,90.9378
2023-03-11 16:03:57:497,-0.354871,2.94325,-9.37688,-17.1862,-2.39112,90.9336
2023-03-11 16:03:57:507,-0.315785,2.91432,-9.33567,-17.1823,-2.3864,90.9319
2023-03-11 16:03:57:517,-0.306488,2.89196,-9.304,-17.1751,-2.38599,90.9292
2023-03-11 16:03:57:527,-0.352078,2.89171,-9.29168,-17.1699,-2.39051,90.9318
2023-03-11 16:03:57:537,-0.408523,2.90429,-9.30146,-17.168,-2.39481,90.9396
2023-03-11 16:03:57:547,-0.411285,2.91384,-9.33077,-17.1683,-2.40003,90.9477
2023-03-11 16:03:57:557,-0.396549,2.91272,-9.36192,-17.1701,-2.40287,90.9538
2023-03-11 16:03:57:567,-0.367054,2.91916,-9.38142,-17.1707,-2.40159,90.958
2023-03-11 16:03:57:577,-0.359725,2.90933,-9.36586,-17.1704,-2.40454,90.9651
2023-03-11 16:03:57:587,-0.379591,2.90224,-9.33957,-17.1686,-2.41127,90.9678
2023-03-11 16:03:57:597,-0.408965,2.89626,-9.31334,-17.1626,-2.41764,90.9726
2023-03-11 16:03:57:606,-0.421873,2.89217,-9.31245,-17.1592,-2.4272,90.9774
2023-03-11 16:03:57:616,-0.428268,2.90575,-9.317,-17.1572,-2.43161,90.9823
2023-03-11 16:03:57:627,-0.438513,2.91136,-9.32772,-17.1566,-2.4374,90.9906
2023-03-11 16:03:57:636,-0.441847,2.9185,-9.33672,-17.1574,-2.44073,90.9943
2023-03-11 16:03:57:647,-0.429678,2.9049,-9.33394,-17.154,-2.4454,90.9979
2023-03-11 16:03:57:657,-0.425308,2.90058,-9.33413,-17.1538,-2.44937,91.0044
2023-03-11 16:03:57:667,-0.419419,2.89962,-9.34417,-17.1506,-2.45496,91.0111
2023-03-11 16:03:57:677,-0.420436,2.90497,-9.33566,-17.1494,-2.45639,91.0162
2023-03-11 16:03:57:687,-0.415995,2.90823,-9.31982,-17.1432,-2.45684,91.0212
2023-03-11 16:03:57:697,-0.428085,2.8986,-9.31997,-17.1393,-2.45973,91.0249
2023-03-11 16:03:57:707,-0.443714,2.88694,-9.32259,-17.1353,-2.46076,91.0314
2023-03-11 16:03:57:717,-0.434401,2.89177,-9.32077,-17.1371,-2.46651,91.0398
2023-03-11 16:03:57:727,-0.43368,2.89403,-9.31948,-17.135,-2.46738,91.0449
2023-03-11 16:03:57:737,-0.441372,2.89599,-9.32453,-17.1375,-2.46997,91.0449
2023-03-11 16:03:57:746,-0.451993,2.9089,-9.32497,-17.1409,-2.47079,91.047
2023-03-11 16:03:57:756,-0.450021,2.91046,-9.34009,-17.1434,-2.47087,91.0475
2023-03-11 16:03:57:766,-0.448705,2.90516,-9.34122,-17.1431,-2.46826,91.0432
2023-03-11 16:03:57:776,-0.437579,2.89681,-9.33349,-17.1382,-2.46293,91.042
2023-03-11 16:03:57:786,-0.421523,2.90204,-9.31032,-17.1349,-2.45794,91.0385
2023-03-11 16:03:57:796,-0.398373,2.89792,-9.31606,-17.1357,-2.45227,91.0289
2023-03-11 16:03:57:806,-0.37666,2.90265,-9.32256,-17.137,-2.44811,91.023
2023-03-11 16:03:57:816,-0.371827,2.90169,-9.32226,-17.1358,-2.44157,91.0162
2023-03-11 16:03:57:826,-0.371635,2.90294,-9.31699,-17.1368,-2.43926,91.0136
2023-03-11 16:03:57:836,-0.361064,2.91201,-9.31617,-17.1389,-2.43837,91.008
2023-03-11 16:03:57:846,-0.347225,2.92419,-9.32725,-17.1441,-2.43584,91.0038
2023-03-11 16:03:57:856,-0.360322,2.92815,-9.34385,-17.1486,-2.43263,91.0016
2023-03-11 16:03:57:866,-0.352551,2.93344,-9.35418,-17.1546,-2.42959,91.0014
2023-03-11 16:03:57:876,-0.363512,2.9343,-9.34563,-17.157,-2.42921,91.0009
2023-03-11 16:03:57:886,-0.36754,2.91969,-9.34828,-17.1624,-2.42715,91.0014
2023-03-11 16:03:57:896,-0.386234,2.91778,-9.36601,-17.1677,-2.42379,91.0016
2023-03-11 16:03:57:906,-0.405268,2.91619,-9.36296,-17.1676,-2.41859,91.0069
2023-03-11 16:03:57:916,-0.411792,2.92255,-9.35903,-17.1663,-2.41417,91.0105
2023-03-11 16:03:57:926,-0.408581,2.92272,-9.33748,-17.1658,-2.40812,91.0081
2023-03-11 16:03:57:936,-0.367247,2.91161,-9.31521,-17.1647,-2.40313,91.0059
2023-03-11 16:03:57:946,-0.350908,2.87629,-9.32137,-17.1645,-2.4022,91.0019
2023-03-11 16:03:57:956,-0.36114,2.87425,-9.33675,-17.1616,-2.39832,90.9985
2023-03-11 16:03:57:966,-0.355205,2.90576,-9.37714,-17.1618,-2.39639,90.9974
2023-03-11 16:03:57:976,-0.324758,2.91185,-9.39956,-17.1622,-2.39621,90.9948
2023-03-11 16:03:57:986,-0.3001,2.88402,-9.3613,-17.1576,-2.40078,90.9912
2023-03-11 16:03:57:996,-0.311413,2.85026,-9.321,-17.1546,-2.4039,90.9924
2023-03-11 16:03:58:6,-0.34752,2.86534,-9.2966,-17.1497,-2.41465,90.9932
2023-03-11 16:03:58:16,-0.376921,2.89044,-9.31459,-17.1527,-2.42163,91.0017
2023-03-11 16:03:58:26,-0.395168,2.91739,-9.32257,-17.1564,-2.42547,91.0102
2023-03-11 16:03:58:36,-0.412948,2.9256,-9.32771,-17.164,-2.42972,91.0214
2023-03-11 16:03:58:46,-0.422919,2.93464,-9.31994,-17.1719,-2.43282,91.0336
2023-03-11 16:03:58:56,-0.424155,2.94413,-9.31591,-17.1819,-2.43082,91.0494
2023-03-11 16:03:58:66,-0.451651,2.97324,-9.33281,-17.1903,-2.43218,91.0631
2023-03-11 16:03:58:76,-0.487407,3.00624,-9.3559,-17.1995,-2.43351,91.0775
2023-03-11 16:03:58:86,-0.495424,3.00707,-9.35095,-17.1981,-2.42901,91.0865
2023-03-11 16:03:58:96,-0.497339,2.97676,-9.33187,-17.1941,-2.42589,91.0901
2023-03-11 16:03:58:106,-0.490469,2.94672,-9.31897,-17.1911,-2.42595,91.0915
2023-03-11 16:03:58:116,-0.469486,2.93026,-9.31196,-17.1841,-2.42406,91.0877
2023-03-11 16:03:58:126,-0.450188,2.92246,-9.29736,-17.1739,-2.42129,91.0794
2023-03-11 16:03:58:136,-0.433446,2.91263,-9.30398,-17.1698,-2.41738,91.0696
2023-03-11 16:03:58:146,-0.402814,2.91616,-9.32525,-17.1703,-2.41055,91.0601
2023-03-11 16:03:58:156,-0.38268,2.9308,-9.35224,-17.172,-2.40739,91.0469
2023-03-11 16:03:58:166,-0.348934,2.96449,-9.37166,-17.1732,-2.40369,91.0347
2023-03-11 16:03:58:176,-0.370761,2.97791,-9.38724,-17.1767,-2.40059,91.0253
2023-03-11 16:03:58:186,-0.384061,2.96981,-9.3865,-17.1799,-2.3952,91.0193
2023-03-11 16:03:58:196,-0.382056,2.984,-9.38635,-17.1757,-2.38981,91.0128
2023-03-11 16:03:58:206,-0.327701,2.97482,-9.38492,-17.1677,-2.38118,91.0069
2023-03-11 16:03:58:216,-0.28632,2.91633,-9.34139,-17.154,-2.37489,91.0028
2023-03-11 16:03:58:226,-0.300821,2.87938,-9.29902,-17.1405,-2.36886,91.0006
2023-03-11 16:03:58:236,-0.344215,2.87949,-9.2825,-17.128,-2.36694,91.0025
2023-03-11 16:03:58:246,-0.388529,2.85889,-9.29971,-17.1172,-2.36378,91.0091
2023-03-11 16:03:58:256,-0.415049,2.87495,-9.3052,-17.1075,-2.36097,91.0124
2023-03-11 16:03:58:266,-0.399252,2.87473,-9.32321,-17.1003,-2.36059,91.0175
2023-03-11 16:03:58:276,-0.377336,2.8872,-9.35069,-17.0907,-2.35665,91.0223
2023-03-11 16:03:58:286,-0.394009,2.88676,-9.35498,-17.088,-2.35459,91.0246
2023-03-11 16:03:58:296,-0.39712,2.87897,-9.3463,-17.082,-2.35222,91.0277
2023-03-11 16:03:58:306,-0.402338,2.89544,-9.32028,-17.0749,-2.35161,91.0297
2023-03-11 16:03:58:316,-0.406015,2.88853,-9.31225,-17.07,-2.35257,91.0305
2023-03-11 16:03:58:327,-0.394453,2.8823,-9.29854,-17.0639,-2.35077,91.0293
2023-03-11 16:03:58:337,-0.377109,2.88325,-9.30133,-17.0604,-2.35324,91.0257
2023-03-11 16:03:58:347,-0.364049,2.87352,-9.31643,-17.0575,-2.35891,91.0186
2023-03-11 16:03:58:357,-0.360292,2.87753,-9.316,-17.0547,-2.36063,91.0171
2023-03-11 16:03:58:367,-0.346929,2.86802,-9.3333,-17.0539,-2.36399,91.0142
2023-03-11 16:03:58:377,-0.339457,2.87721,-9.33731,-17.0544,-2.36806,91.0129
2023-03-11 16:03:58:387,-0.343031,2.88105,-9.33941,-17.0515,-2.3705,91.0124
2023-03-11 16:03:58:397,-0.346899,2.89257,-9.3417,-17.0501,-2.37392,91.0123
2023-03-11 16:03:58:407,-0.351507,2.89529,-9.34183,-17.0485,-2.37355,91.0161
2023-03-11 16:03:58:417,-0.373827,2.88676,-9.34423,-17.0499,-2.37246,91.0213
2023-03-11 16:03:58:427,-0.380457,2.88657,-9.33856,-17.0515,-2.37274,91.0239
2023-03-11 16:03:58:437,-0.388261,2.86996,-9.30902,-17.0525,-2.36824,91.0314
2023-03-11 16:03:58:447,-0.392986,2.85869,-9.29341,-17.052,-2.36108,91.0375
2023-03-11 16:03:58:457,-0.40059,2.87993,-9.29304,-17.0547,-2.35389,91.0455
2023-03-11 16:03:58:467,-0.395893,2.89101,-9.33331,-17.0586,-2.34782,91.0543
2023-03-11 16:03:58:477,-0.402044,2.90023,-9.36356,-17.0639,-2.33962,91.0586
2023-03-11 16:03:58:487,-0.388908,2.9014,-9.35892,-17.0684,-2.33295,91.0606
2023-03-11 16:03:58:497,-0.381276,2.91688,-9.34739,-17.0712,-2.3268,91.0638
2023-03-11 16:03:58:507,-0.386692,2.93928,-9.3433,-17.0738,-2.32404,91.0606
2023-03-11 16:03:58:517,-0.394254,2.92468,-9.34462,-17.0752,-2.32077,91.0522
2023-03-11 16:03:58:527,-0.37106,2.94431,-9.34593,-17.0773,-2.31728,91.0441
2023-03-11 16:03:58:537,-0.333072,2.94097,-9.3558,-17.0751,-2.31457,91.0322
2023-03-11 16:03:58:547,-0.304088,2.91753,-9.37148,-17.0729,-2.31249,91.0176
2023-03-11 16:03:58:557,-0.276342,2.92367,-9.37789,-17.0706,-2.31369,91.0047
2023-03-11 16:03:58:567,-0.259498,2.91047,-9.38498,-17.0688,-2.31407,90.9936
2023-03-11 16:03:58:577,-0.251876,2.91014,-9.3767,-17.0646,-2.31928,90.9866
2023-03-11 16:03:58:587,-0.255417,2.92078,-9.37883,-17.0647,-2.32522,90.9837
2023-03-11 16:03:58:597,-0.290829,2.91494,-9.38679,-17.0609,-2.3374,90.9833
2023-03-11 16:03:58:607,-0.325749,2.90531,-9.38605,-17.0543,-2.34568,90.992
2023-03-11 16:03:58:617,-0.383062,2.89571,-9.36869,-17.0469,-2.35609,91.0003
2023-03-11 16:03:58:627,-0.439591,2.88337,-9.33404,-17.0361,-2.36832,91.009
2023-03-11 16:03:58:637,-0.495948,2.87878,-9.31297,-17.0221,-2.3787,91.015
2023-03-11 16:03:58:647,-0.516801,2.87455,-9.29805,-17.0098,-2.39182,91.0237
2023-03-11 16:03:58:657,-0.494148,2.86197,-9.2785,-17.0007,-2.39669,91.0265
2023-03-11 16:03:58:667,-0.476373,2.83625,-9.26817,-16.9918,-2.4034,91.0246
2023-03-11 16:03:58:677,-0.465454,2.8313,-9.28595,-16.9825,-2.40922,91.023
2023-03-11 16:03:58:687,-0.450862,2.85738,-9.33533,-16.9819,-2.41026,91.0154
2023-03-11 16:03:58:697,-0.400433,2.88926,-9.36264,-16.9815,-2.4125,91.005
2023-03-11 16:03:58:707,-0.37341,2.85837,-9.35659,-16.9792,-2.41652,90.9918
2023-03-11 16:03:58:717,-0.326939,2.83451,-9.33488,-16.976,-2.42206,90.9768
2023-03-11 16:03:58:727,-0.325721,2.83347,-9.33408,-16.9766,-2.42704,90.969
2023-03-11 16:03:58:737,-0.368154,2.85397,-9.34526,-16.9834,-2.43416,90.9634
2023-03-11 16:03:58:747,-0.393628,2.87697,-9.34487,-16.988,-2.44335,90.9597
2023-03-11 16:03:58:757,-0.391712,2.89277,-9.34383,-16.9943,-2.44621,90.9567
2023-03-11 16:03:58:767,-0.389492,2.90468,-9.33815,-17.0022,-2.44438,90.9588
2023-03-11 16:03:58:777,-0.402611,2.91321,-9.34365,-17.0032,-2.44385,90.963
2023-03-11 16:03:58:787,-0.409048,2.93588,-9.3463,-17.0064,-2.44116,90.9651
2023-03-11 16:03:58:797,-0.403638,2.93712,-9.3208,-17.0071,-2.43882,90.969
2023-03-11 16:03:58:807,-0.419405,2.9201,-9.28119,-17.0018,-2.43695,90.9717
2023-03-11 16:03:58:817,-0.423219,2.89734,-9.24995,-16.999,-2.43299,90.9692
2023-03-11 16:03:58:827,-0.405531,2.88512,-9.2388,-16.9971,-2.43481,90.967
2023-03-11 16:03:58:837,-0.401943,2.87555,-9.27309,-17.0018,-2.43395,90.9642
2023-03-11 16:03:58:847,-0.411607,2.88286,-9.31238,-17.007,-2.43625,90.9628
2023-03-11 16:03:58:857,-0.400215,2.9013,-9.34457,-17.0137,-2.43931,90.9537
2023-03-11 16:03:58:867,-0.416935,2.91201,-9.37787,-17.022,-2.44671,90.9442
2023-03-11 16:03:58:877,-0.419584,2.93436,-9.38089,-17.0299,-2.44713,90.9405
2023-03-11 16:03:58:887,-0.411153,2.9429,-9.39724,-17.0373,-2.45053,90.9339
2023-03-11 16:03:58:897,-0.422106,2.97297,-9.39509,-17.0469,-2.45512,90.9265
2023-03-11 16:03:58:907,-0.454893,2.98048,-9.3973,-17.055,-2.45757,90.9198
2023-03-11 16:03:58:917,-0.460527,2.9853,-9.4264,-17.0631,-2.46044,90.9131
2023-03-11 16:03:58:927,-0.417894,2.97815,-9.41009,-17.0621,-2.45725,90.9033
2023-03-11 16:03:58:937,-0.356865,2.94044,-9.35551,-17.0569,-2.45446,90.8899
2023-03-11 16:03:58:947,-0.334921,2.91883,-9.3209,-17.0479,-2.44854,90.8782
2023-03-11 16:03:58:957,-0.37138,2.90143,-9.32847,-17.0383,-2.4486,90.8684
2023-03-11 16:03:58:967,-0.405956,2.91394,-9.32753,-17.0304,-2.45205,90.863
2023-03-11 16:03:58:977,-0.422919,2.92272,-9.34167,-17.0247,-2.4528,90.8549
2023-03-11 16:03:58:987,-0.411487,2.9166,-9.34566,-17.0209,-2.45413,90.8453
2023-03-11 16:03:58:997,-0.380755,2.91598,-9.36577,-17.0137,-2.45268,90.834
2023-03-11 16:03:59:7,-0.361284,2.91454,-9.36589,-17.0022,-2.45077,90.8211
2023-03-11 16:03:59:17,-0.335167,2.89888,-9.34945,-16.9924,-2.44905,90.8122
2023-03-11 16:03:59:27,-0.326205,2.88328,-9.32569,-16.9792,-2.44619,90.8054
2023-03-11 16:03:59:37,-0.339307,2.88474,-9.32328,-16.9702,-2.44873,90.7999
2023-03-11 16:03:59:47,-0.34585,2.8885,-9.32421,-16.9624,-2.45316,90.796
2023-03-11 16:03:59:57,-0.363507,2.89191,-9.32713,-16.9521,-2.45679,90.7942
2023-03-11 16:03:59:67,-0.397787,2.88235,-9.338,-16.9419,-2.46144,90.7933
2023-03-11 16:03:59:77,-0.399196,2.88094,-9.34503,-16.9339,-2.46434,90.7928
2023-03-11 16:03:59:86,-0.402318,2.88757,-9.34747,-16.9228,-2.47163,90.7944
2023-03-11 16:03:59:96,-0.39338,2.8775,-9.35433,-16.9146,-2.47665,90.7908
2023-03-11 16:03:59:106,-0.38098,2.86759,-9.35027,-16.9072,-2.47966,90.7921
2023-03-11 16:03:59:116,-0.378327,2.84913,-9.33317,-16.8956,-2.48282,90.7919
2023-03-11 16:03:59:126,-0.379064,2.84824,-9.31359,-16.8879,-2.48478,90.7956
2023-03-11 16:03:59:136,-0.382582,2.83284,-9.32452,-16.8784,-2.48866,90.7983
2023-03-11 16:03:59:146,-0.404139,2.83404,-9.32382,-16.8738,-2.49544,90.8039
2023-03-11 16:03:59:156,-0.441732,2.83794,-9.33562,-16.8712,-2.50103,90.8133
2023-03-11 16:03:59:166,-0.463393,2.8527,-9.34909,-16.8724,-2.50863,90.8186
2023-03-11 16:03:59:176,-0.479213,2.85667,-9.3426,-16.8684,-2.51295,90.8273
2023-03-11 16:03:59:186,-0.480659,2.84482,-9.3198,-16.8639,-2.51684,90.8277
2023-03-11 16:03:59:196,-0.468636,2.84527,-9.30313,-16.8593,-2.51913,90.8317
2023-03-11 16:03:59:206,-0.448186,2.83466,-9.28673,-16.8572,-2.5212,90.831
2023-03-11 16:03:59:216,-0.427916,2.82386,-9.295,-16.8589,-2.52061,90.827
2023-03-11 16:03:59:226,-0.414216,2.82808,-9.29964,-16.8613,-2.52073,90.8203
2023-03-11 16:03:59:236,-0.383141,2.8257,-9.32973,-16.8669,-2.51866,90.8098
2023-03-11 16:03:59:246,-0.380223,2.85647,-9.33227,-16.8721,-2.51609,90.8022
2023-03-11 16:03:59:256,-0.370935,2.87215,-9.35695,-16.8749,-2.51409,90.7958
2023-03-11 16:03:59:266,-0.351918,2.8934,-9.38923,-16.8816,-2.51717,90.7884
2023-03-11 16:03:59:276,-0.356063,2.90562,-9.39526,-16.8878,-2.52103,90.7834
2023-03-11 16:03:59:286,-0.356033,2.90193,-9.39442,-16.8928,-2.52375,90.7812
2023-03-11 16:03:59:296,-0.355945,2.90146,-9.37251,-16.8941,-2.52983,90.7788
2023-03-11 16:03:59:306,-0.376701,2.88362,-9.3662,-16.8953,-2.53109,90.7786
2023-03-11 16:03:59:316,-0.390251,2.87762,-9.35418,-16.8937,-2.5351,90.779
2023-03-11 16:03:59:326,-0.381906,2.87696,-9.34639,-16.8913,-2.53921,90.7847
2023-03-11 16:03:59:336,-0.386321,2.886,-9.35994,-16.8908,-2.54287,90.7889
2023-03-11 16:03:59:346,-0.397171,2.88519,-9.36989,-16.892,-2.54615,90.7967
2023-03-11 16:03:59:356,-0.420919,2.89611,-9.38593,-16.8899,-2.5491,90.8033
2023-03-11 16:03:59:366,-0.470494,2.88016,-9.38282,-16.8821,-2.55539,90.8117
2023-03-11 16:03:59:376,-0.48811,2.87234,-9.34583,-16.8718,-2.55849,90.8196
2023-03-11 16:03:59:386,-0.473015,2.84701,-9.32687,-16.8628,-2.5604,90.8263
2023-03-11 16:03:59:396,-0.451869,2.83089,-9.30753,-16.8542,-2.55744,90.8325
2023-03-11 16:03:59:406,-0.430324,2.81582,-9.26776,-16.8402,-2.55348,90.8328
2023-03-11 16:03:59:416,-0.434324,2.79794,-9.25772,-16.8282,-2.55628,90.8328
2023-03-11 16:03:59:426,-0.423314,2.8009,-9.29997,-16.8222,-2.55665,90.8355
2023-03-11 16:03:59:436,-0.418269,2.85247,-9.38038,-16.8218,-2.55802,90.8355
2023-03-11 16:03:59:446,-0.38841,2.86999,-9.42825,-16.8238,-2.56148,90.8312
2023-03-11 16:03:59:456,-0.362298,2.84596,-9.3966,-16.8223,-2.56545,90.8267
2023-03-11 16:03:59:466,-0.344269,2.81898,-9.34122,-16.8162,-2.57153,90.8236
2023-03-11 16:03:59:476,-0.364085,2.80966,-9.33188,-16.8145,-2.58019,90.8221
2023-03-11 16:03:59:486,-0.413577,2.83388,-9.34763,-16.8181,-2.59166,90.8245
2023-03-11 16:03:59:496,-0.435188,2.86987,-9.34783,-16.8264,-2.5989,90.8287
2023-03-11 16:03:59:506,-0.453461,2.89338,-9.34046,-16.8318,-2.60679,90.8388
2023-03-11 16:03:59:516,-0.45991,2.90175,-9.33493,-16.8355,-2.61161,90.8488
2023-03-11 16:03:59:526,-0.46636,2.90366,-9.34656,-16.8455,-2.61487,90.8538
2023-03-11 16:03:59:536,-0.476318,2.92156,-9.36294,-16.8533,-2.61604,90.8606
2023-03-11 16:03:59:546,-0.490292,2.94217,-9.35268,-16.8572,-2.61393,90.8652
2023-03-11 16:03:59:556,-0.510253,2.92505,-9.3144,-16.8508,-2.61235,90.8679
2023-03-11 16:03:59:566,-0.509359,2.89435,-9.27392,-16.8461,-2.60631,90.8695
2023-03-11 16:03:59:576,-0.475325,2.8713,-9.28049,-16.8403,-2.60139,90.8635
2023-03-11 16:03:59:586,-0.46109,2.86768,-9.31398,-16.8393,-2.59544,90.8558
2023-03-11 16:03:59:596,-0.447393,2.85867,-9.329,-16.8406,-2.58583,90.8472
2023-03-11 16:03:59:606,-0.419646,2.84834,-9.35959,-16.8393,-2.57991,90.8348
2023-03-11 16:03:59:616,-0.393677,2.87052,-9.37491,-16.8384,-2.57509,90.8235
2023-03-11 16:03:59:627,-0.375071,2.86735,-9.35171,-16.8418,-2.5679,90.812
2023-03-11 16:03:59:637,-0.365621,2.85916,-9.34244,-16.8435,-2.56698,90.7988
2023-03-11 16:03:59:647,-0.391295,2.87446,-9.34363,-16.8467,-2.56946,90.7887
2023-03-11 16:03:59:656,-0.413039,2.88095,-9.35236,-16.855,-2.56807,90.7792
2023-03-11 16:03:59:666,-0.38738,2.90515,-9.38643,-16.8642,-2.56535,90.7731
2023-03-11 16:03:59:676,-0.342368,2.91038,-9.40786,-16.8693,-2.55748,90.7617
2023-03-11 16:03:59:686,-0.303164,2.88842,-9.38844,-16.8722,-2.54844,90.7521
2023-03-11 16:03:59:696,-0.285943,2.87578,-9.36421,-16.8715,-2.54346,90.7425
2023-03-11 16:03:59:706,-0.316705,2.89613,-9.37511,-16.8697,-2.54148,90.7395
2023-03-11 16:03:59:717,-0.356302,2.90481,-9.37077,-16.8676,-2.54112,90.7385
2023-03-11 16:03:59:727,-0.373164,2.8899,-9.35777,-16.8651,-2.54374,90.7385
2023-03-11 16:03:59:737,-0.372825,2.86549,-9.35425,-16.8579,-2.54384,90.7415
2023-03-11 16:03:59:747,-0.373853,2.86364,-9.35325,-16.8534,-2.54152,90.7431
2023-03-11 16:03:59:757,-0.382488,2.85215,-9.34531,-16.846,-2.5398,90.7454
2023-03-11 16:03:59:767,-0.389639,2.84443,-9.31809,-16.841,-2.54186,90.7486
2023-03-11 16:03:59:777,-0.389748,2.83988,-9.32659,-16.8341,-2.5432,90.7578
2023-03-11 16:03:59:787,-0.391861,2.85446,-9.32738,-16.8306,-2.5513,90.7649
2023-03-11 16:03:59:797,-0.398189,2.85996,-9.34113,-16.8277,-2.55962,90.7736
2023-03-11 16:03:59:807,-0.40881,2.86075,-9.35198,-16.8261,-2.56519,90.7828
2023-03-11 16:03:59:817,-0.429671,2.8466,-9.34649,-16.8237,-2.5744,90.7923
2023-03-11 16:03:59:827,-0.435761,2.84227,-9.32604,-16.8206,-2.58139,90.8046
2023-03-11 16:03:59:837,-0.44609,2.84643,-9.3262,-16.8181,-2.5912,90.8173
2023-03-11 16:03:59:847,-0.465286,2.85329,-9.33934,-16.8181,-2.59744,90.8288
2023-03-11 16:03:59:857,-0.489988,2.8786,-9.36266,-16.8189,-2.60065,90.8442
2023-03-11 16:03:59:867,-0.520286,2.89344,-9.35869,-16.8211,-2.61016,90.8574
2023-03-11 16:03:59:877,-0.526545,2.89144,-9.35797,-16.822,-2.61452,90.8667
2023-03-11 16:03:59:887,-0.524922,2.89048,-9.35725,-16.8218,-2.61487,90.8724
2023-03-11 16:03:59:897,-0.524541,2.89288,-9.3687,-16.822,-2.61433,90.8777
2023-03-11 16:03:59:907,-0.516949,2.88202,-9.36321,-16.8157,-2.61779,90.8795
2023-03-11 16:03:59:917,-0.50461,2.87053,-9.36758,-16.8095,-2.61752,90.8734
2023-03-11 16:03:59:927,-0.489183,2.85155,-9.34533,-16.8054,-2.61848,90.8694
2023-03-11 16:03:59:937,-0.477578,2.84312,-9.3278,-16.7969,-2.62111,90.8625
2023-03-11 16:03:59:947,-0.453643,2.83205,-9.3198,-16.792,-2.61821,90.8516
2023-03-11 16:03:59:957,-0.423872,2.83191,-9.31751,-16.7904,-2.61331,90.8388
2023-03-11 16:03:59:967,-0.38133,2.82651,-9.33399,-16.7915,-2.60777,90.829
2023-03-11 16:03:59:977,-0.367943,2.83492,-9.37646,-16.7909,-2.60402,90.8135
2023-03-11 16:03:59:987,-0.352424,2.84719,-9.38837,-16.7931,-2.59887,90.8048
2023-03-11 16:03:59:997,-0.351945,2.86542,-9.39496,-16.7925,-2.59337,90.7972
2023-03-11 16:04:00:7,-0.35662,2.87517,-9.38789,-16.7916,-2.58711,90.7929
2023-03-11 16:04:00:17,-0.368053,2.86499,-9.3659,-16.7859,-2.58505,90.7879
2023-03-11 16:04:00:27,-0.379023,2.84359,-9.34409,-16.7788,-2.58046,90.785
2023-03-11 16:04:00:37,-0.392156,2.83114,-9.34754,-16.7737,-2.57532,90.7809
2023-03-11 16:04:00:46,-0.408063,2.83986,-9.34888,-16.7713,-2.57511,90.7787
2023-03-11 16:04:00:56,-0.40937,2.85,-9.35403,-16.7674,-2.57491,90.7782
2023-03-11 16:04:00:67,-0.417868,2.8555,-9.36687,-16.7678,-2.57341,90.7785
2023-03-11 16:04:00:76,-0.419878,2.87253,-9.36296,-16.7654,-2.57379,90.7737
2023-03-11 16:04:00:87,-0.419764,2.87472,-9.37904,-16.7636,-2.57541,90.7695
2023-03-11 16:04:00:97,-0.416318,2.87858,-9.39939,-16.7624,-2.57684,90.7657
2023-03-11 16:04:00:107,-0.445695,2.87033,-9.38703,-16.753,-2.5804,90.7591
2023-03-11 16:04:00:117,-0.441294,2.85998,-9.3561,-16.7462,-2.58092,90.7563
2023-03-11 16:04:00:127,-0.436786,2.84,-9.31733,-16.7384,-2.58259,90.751
2023-03-11 16:04:00:137,-0.443557,2.81612,-9.30603,-16.7319,-2.58314,90.7497
2023-03-11 16:04:00:147,-0.426695,2.80344,-9.29876,-16.7232,-2.58342,90.7446
2023-03-11 16:04:00:157,-0.411299,2.79839,-9.28818,-16.7185,-2.58162,90.7381
2023-03-11 16:04:00:166,-0.415135,2.81953,-9.32168,-16.7163,-2.58061,90.7303
2023-03-11 16:04:00:176,-0.412873,2.85679,-9.39793,-16.7185,-2.5734,90.7239
2023-03-11 16:04:00:187,-0.382607,2.87858,-9.44202,-16.7182,-2.57041,90.7162
2023-03-11 16:04:00:196,-0.340429,2.83518,-9.408,-16.7123,-2.5681,90.7063
2023-03-11 16:04:00:206,-0.256721,2.76779,-9.33589,-16.7032,-2.57138,90.7008
2023-03-11 16:04:00:216,-0.244686,2.76204,-9.32284,-16.6951,-2.57051,90.6982
2023-03-11 16:04:00:226,-0.284713,2.79632,-9.36699,-16.6992,-2.57466,90.6994
2023-03-11 16:04:00:236,-0.326391,2.84652,-9.39254,-16.7081,-2.58258,90.707
2023-03-11 16:04:00:246,-0.36589,2.88111,-9.38621,-16.7155,-2.59437,90.7196
2023-03-11 16:04:00:257,-0.402773,2.9088,-9.3914,-16.7189,-2.60243,90.7301
2023-03-11 16:04:00:267,-0.431402,2.93976,-9.398,-16.7242,-2.61255,90.7434
2023-03-11 16:04:00:277,-0.464694,2.94935,-9.3787,-16.7242,-2.62511,90.7546
2023-03-11 16:04:00:287,-0.498259,2.9423,-9.3659,-16.716,-2.63526,90.7658
2023-03-11 16:04:00:297,-0.510583,2.91937,-9.33343,-16.7064,-2.64132,90.7735
2023-03-11 16:04:00:307,-0.494017,2.87486,-9.31643,-16.6906,-2.64882,90.7785
2023-03-11 16:04:00:317,-0.463572,2.84806,-9.30038,-16.6773,-2.65038,90.7796
2023-03-11 16:04:00:327,-0.436487,2.83991,-9.29851,-16.6613,-2.65624,90.7763
2023-03-11 16:04:00:337,-0.429741,2.8402,-9.33332,-16.647,-2.65803,90.7743
2023-03-11 16:04:00:347,-0.431315,2.84506,-9.37926,-16.638,-2.66362,90.7716
2023-03-11 16:04:00:357,-0.446028,2.85295,-9.40487,-16.6288,-2.66635,90.769
2023-03-11 16:04:00:367,-0.484365,2.87749,-9.41312,-16.6198,-2.67282,90.7657
2023-03-11 16:04:00:377,-0.511784,2.90546,-9.42173,-16.6161,-2.67749,90.7632
2023-03-11 16:04:00:387,-0.49261,2.90939,-9.42422,-16.6083,-2.68513,90.7543
2023-03-11 16:04:00:397,-0.492088,2.89201,-9.38973,-16.594,-2.69249,90.7435
2023-03-11 16:04:00:407,-0.508018,2.86885,-9.35569,-16.5789,-2.70569,90.7318
2023-03-11 16:04:00:417,-0.464557,2.87681,-9.36657,-16.5669,-2.71755,90.7128
2023-03-11 16:04:00:427,-0.386326,2.86148,-9.38281,-16.5515,-2.72766,90.6936
2023-03-11 16:04:00:437,-0.342321,2.82886,-9.35389,-16.5331,-2.73797,90.6703
2023-03-11 16:04:00:447,-0.363035,2.80727,-9.33474,-16.5136,-2.74843,90.6536
2023-03-11 16:04:00:457,-0.415565,2.7969,-9.34558,-16.4944,-2.75979,90.6402
2023-03-11 16:04:00:467,-0.469197,2.81384,-9.36133,-16.4771,-2.77296,90.6324
2023-03-11 16:04:00:477,-0.511099,2.79824,-9.37576,-16.4598,-2.78798,90.6254
2023-03-11 16:04:00:487,-0.523853,2.77197,-9.37143,-16.4443,-2.80016,90.6141
2023-03-11 16:04:00:497,-0.495956,2.77841,-9.38921,-16.4291,-2.81224,90.6021
2023-03-11 16:04:00:507,-0.452771,2.76866,-9.38709,-16.4105,-2.81859,90.5889
2023-03-11 16:04:00:517,-0.447104,2.76832,-9.36004,-16.3977,-2.81706,90.5799
2023-03-11 16:04:00:527,-0.442165,2.75627,-9.34331,-16.3821,-2.81679,90.5732
2023-03-11 16:04:00:537,-0.410623,2.74749,-9.34863,-16.3674,-2.81604,90.5654
2023-03-11 16:04:00:547,-0.401633,2.73731,-9.35995,-16.3494,-2.81291,90.5637
2023-03-11 16:04:00:557,-0.420436,2.7387,-9.34597,-16.3333,-2.80977,90.5637
2023-03-11 16:04:00:567,-0.43656,2.72946,-9.3369,-16.3198,-2.80993,90.5634
2023-03-11 16:04:00:577,-0.444414,2.73207,-9.34147,-16.3089,-2.80864,90.5631
2023-03-11 16:04:00:587,-0.460304,2.73451,-9.33555,-16.2969,-2.80686,90.5674
2023-03-11 16:04:00:597,-0.447916,2.72806,-9.35082,-16.2867,-2.80509,90.57
2023-03-11 16:04:00:607,-0.452179,2.73233,-9.36938,-16.2807,-2.80447,90.5723
2023-03-11 16:04:00:617,-0.473985,2.73852,-9.36635,-16.2743,-2.80597,90.5766
2023-03-11 16:04:00:627,-0.479574,2.73518,-9.34087,-16.2684,-2.81011,90.5801
2023-03-11 16:04:00:637,-0.495004,2.72543,-9.32621,-16.2629,-2.81054,90.5864
2023-03-11 16:04:00:647,-0.503659,2.72699,-9.3202,-16.2588,-2.81218,90.59
2023-03-11 16:04:00:657,-0.523003,2.72177,-9.32014,-16.2612,-2.81332,90.5975
2023-03-11 16:04:00:667,-0.533714,2.74402,-9.33516,-16.2666,-2.81126,90.6027
2023-03-11 16:04:00:677,-0.542968,2.76263,-9.36421,-16.2738,-2.81085,90.6095
2023-03-11 16:04:00:687,-0.547627,2.77311,-9.38775,-16.2761,-2.80733,90.6133
2023-03-11 16:04:00:697,-0.557,2.78169,-9.39783,-16.281,-2.80545,90.6167
2023-03-11 16:04:00:707,-0.564399,2.78847,-9.39089,-16.2841,-2.80125,90.6163
2023-03-11 16:04:00:717,-0.560118,2.77736,-9.37684,-16.2849,-2.79428,90.6098
2023-03-11 16:04:00:727,-0.52597,2.76751,-9.367,-16.2849,-2.78618,90.601
2023-03-11 16:04:00:737,-0.499065,2.75878,-9.34663,-16.2809,-2.7752,90.5871
2023-03-11 16:04:00:747,-0.469861,2.77638,-9.35262,-16.2796,-2.76499,90.5732
2023-03-11 16:04:00:757,-0.444161,2.78136,-9.36411,-16.2818,-2.75291,90.5557
2023-03-11 16:04:00:767,-0.437322,2.78047,-9.37554,-16.2835,-2.73851,90.5387
2023-03-11 16:04:00:777,-0.410075,2.77256,-9.39518,-16.2851,-2.7254,90.5251
2023-03-11 16:04:00:787,-0.388386,2.78342,-9.40106,-16.2851,-2.71563,90.5064
2023-03-11 16:04:00:797,-0.378186,2.77332,-9.39008,-16.2824,-2.70169,90.4924
2023-03-11 16:04:00:807,-0.381284,2.75998,-9.37399,-16.2819,-2.69293,90.4804
2023-03-11 16:04:00:817,-0.365036,2.7517,-9.35797,-16.2786,-2.68013,90.4663
2023-03-11 16:04:00:827,-0.353986,2.74978,-9.36676,-16.2751,-2.67097,90.453
2023-03-11 16:04:00:837,-0.366567,2.75918,-9.38567,-16.2727,-2.65997,90.4445
2023-03-11 16:04:00:846,-0.363509,2.76305,-9.40357,-16.2703,-2.65198,90.436
2023-03-11 16:04:00:857,-0.373928,2.78405,-9.4133,-16.2686,-2.64619,90.4313
2023-03-11 16:04:00:867,-0.382165,2.78285,-9.39763,-16.2667,-2.63825,90.4287
2023-03-11 16:04:00:877,-0.361534,2.7655,-9.36225,-16.2621,-2.63501,90.4226
2023-03-11 16:04:00:887,-0.348004,2.74472,-9.33412,-16.2575,-2.62935,90.4191
2023-03-11 16:04:00:897,-0.349924,2.7323,-9.34305,-16.2548,-2.62708,90.4178
2023-03-11 16:04:00:907,-0.34405,2.74301,-9.39925,-16.2542,-2.62952,90.4134
2023-03-11 16:04:00:917,-0.350316,2.76614,-9.44491,-16.2544,-2.62816,90.4137
2023-03-11 16:04:00:927,-0.347528,2.75854,-9.42202,-16.2511,-2.632,90.4125
2023-03-11 16:04:00:937,-0.348523,2.72877,-9.36326,-16.2496,-2.63804,90.4164
2023-03-11 16:04:00:947,-0.383801,2.73478,-9.3415,-16.2453,-2.6459,90.4206
2023-03-11 16:04:00:957,-0.433769,2.77481,-9.36625,-16.2496,-2.65238,90.4282
2023-03-11 16:04:00:967,-0.46339,2.80058,-9.40194,-16.2575,-2.66087,90.4374
2023-03-11 16:04:00:977,-0.472124,2.80835,-9.38087,-16.262,-2.66809,90.4488
2023-03-11 16:04:00:987,-0.460789,2.79869,-9.35611,-16.2647,-2.6732,90.4544
2023-03-11 16:04:00:997,-0.460062,2.80015,-9.35458,-16.2711,-2.6743,90.457
2023-03-11 16:04:01:7,-0.471726,2.82772,-9.35378,-16.2798,-2.67787,90.4607
2023-03-11 16:04:01:17,-0.486263,2.84533,-9.35737,-16.2866,-2.68256,90.4643
2023-03-11 16:04:01:27,-0.487287,2.83043,-9.34511,-16.2857,-2.68626,90.4695
2023-03-11 16:04:01:37,-0.483578,2.81115,-9.33897,-16.2796,-2.68855,90.468
2023-03-11 16:04:01:47,-0.47302,2.80118,-9.35494,-16.2756,-2.68792,90.4676
2023-03-11 16:04:01:57,-0.472668,2.79152,-9.34856,-16.2703,-2.6884,90.4604
2023-03-11 16:04:01:67,-0.455067,2.77491,-9.35297,-16.2664,-2.68527,90.4527
2023-03-11 16:04:01:77,-0.455606,2.76411,-9.37011,-16.2625,-2.68199,90.4453
2023-03-11 16:04:01:87,-0.431059,2.76285,-9.37961,-16.2609,-2.67724,90.4367
2023-03-11 16:04:01:97,-0.405427,2.77686,-9.38222,-16.2593,-2.67184,90.4244
2023-03-11 16:04:01:107,-0.367844,2.76288,-9.37922,-16.2616,-2.67192,90.4165
2023-03-11 16:04:01:117,-0.384613,2.78759,-9.38549,-16.2671,-2.67168,90.4086
2023-03-11 16:04:01:127,-0.408698,2.81116,-9.41482,-16.274,-2.67415,90.4018
2023-03-11 16:04:01:137,-0.409482,2.8461,-9.44842,-16.2784,-2.67269,90.3967
2023-03-11 16:04:01:147,-0.392724,2.85759,-9.46675,-16.2805,-2.67012,90.3888
2023-03-11 16:04:01:157,-0.346521,2.80435,-9.41925,-16.2708,-2.66778,90.383
2023-03-11 16:04:01:167,-0.335487,2.75808,-9.3689,-16.2556,-2.66727,90.3773
2023-03-11 16:04:01:177,-0.374709,2.73462,-9.34199,-16.2447,-2.66516,90.3784
2023-03-11 16:04:01:187,-0.431851,2.74303,-9.32968,-16.235,-2.66757,90.3818
2023-03-11 16:04:01:197,-0.449026,2.73248,-9.34414,-16.2197,-2.66939,90.3881
2023-03-11 16:04:01:207,-0.422426,2.7288,-9.37256,-16.2095,-2.66878,90.39
2023-03-11 16:04:01:217,-0.403502,2.73698,-9.38377,-16.2036,-2.6672,90.3908
2023-03-11 16:04:01:227,-0.412006,2.74288,-9.39718,-16.2009,-2.66615,90.3939
2023-03-11 16:04:01:237,-0.426884,2.75981,-9.4053,-16.1952,-2.66579,90.3991
2023-03-11 16:04:01:247,-0.423737,2.77248,-9.40362,-16.1897,-2.6709,90.4018
2023-03-11 16:04:01:257,-0.412339,2.76756,-9.38935,-16.1846,-2.67845,90.4065
2023-03-11 16:04:01:267,-0.425471,2.75389,-9.38225,-16.1793,-2.68434,90.4099
2023-03-11 16:04:01:277,-0.444545,2.73226,-9.35792,-16.1739,-2.69067,90.4166
2023-03-11 16:04:01:287,-0.450626,2.71737,-9.3452,-16.168,-2.69896,90.422
2023-03-11 16:04:01:297,-0.451187,2.71842,-9.33343,-16.1631,-2.70761,90.4256
2023-03-11 16:04:01:307,-0.44822,2.71526,-9.33759,-16.1626,-2.71461,90.4297
2023-03-11 16:04:01:317,-0.452863,2.72915,-9.35481,-16.1619,-2.72523,90.439
2023-03-11 16:04:01:327,-0.464328,2.74627,-9.39097,-16.1617,-2.73212,90.4466
2023-03-11 16:04:01:337,-0.464157,2.74169,-9.38195,-16.1616,-2.73973,90.4512
2023-03-11 16:04:01:347,-0.463847,2.75289,-9.38533,-16.1649,-2.75228,90.4579
2023-03-11 16:04:01:357,-0.453519,2.75711,-9.41021,-16.1683,-2.7627,90.4659
2023-03-11 16:04:01:367,-0.465996,2.74855,-9.38651,-16.1684,-2.77296,90.4715
2023-03-11 16:04:01:377,-0.49199,2.73127,-9.34857,-16.1665,-2.78461,90.4784
2023-03-11 16:04:01:386,-0.50076,2.71635,-9.32852,-16.164,-2.79392,90.4866
2023-03-11 16:04:01:396,-0.50753,2.71303,-9.33306,-16.1618,-2.80215,90.4961
2023-03-11 16:04:01:406,-0.526264,2.72746,-9.34227,-16.1629,-2.81021,90.5032
2023-03-11 16:04:01:417,-0.542862,2.7534,-9.34596,-16.168,-2.8141,90.506
2023-03-11 16:04:01:427,-0.538104,2.74711,-9.36051,-16.1721,-2.81599,90.5056
2023-03-11 16:04:01:437,-0.510004,2.7599,-9.38894,-16.1785,-2.82073,90.503
2023-03-11 16:04:01:447,-0.492496,2.78012,-9.39783,-16.1846,-2.8202,90.5031
2023-03-11 16:04:01:457,-0.470773,2.77797,-9.38693,-16.1875,-2.82092,90.4958
2023-03-11 16:04:01:467,-0.432526,2.77439,-9.38479,-16.1893,-2.82027,90.4871
2023-03-11 16:04:01:477,-0.425127,2.75932,-9.38593,-16.1912,-2.81698,90.4805
2023-03-11 16:04:01:487,-0.407866,2.75961,-9.39033,-16.1932,-2.81799,90.4724
2023-03-11 16:04:01:497,-0.406299,2.77369,-9.40495,-16.1962,-2.82249,90.4659
2023-03-11 16:04:01:506,-0.40999,2.78635,-9.40399,-16.1996,-2.82626,90.4603
2023-03-11 16:04:01:516,-0.411654,2.77428,-9.40083,-16.2016,-2.83251,90.4569
2023-03-11 16:04:01:526,-0.416351,2.7728,-9.39485,-16.2007,-2.8353,90.4587
2023-03-11 16:04:01:536,-0.414278,2.78327,-9.3886,-16.2031,-2.83615,90.4585
2023-03-11 16:04:01:546,-0.426686,2.77712,-9.38544,-16.2043,-2.83895,90.4622
2023-03-11 16:04:01:556,-0.457276,2.78708,-9.39198,-16.2022,-2.84443,90.4652
2023-03-11 16:04:01:566,-0.490323,2.78109,-9.38601,-16.2005,-2.8487,90.4695
2023-03-11 16:04:01:577,-0.510542,2.76516,-9.3819,-16.1972,-2.85097,90.4753
2023-03-11 16:04:01:587,-0.528359,2.76608,-9.37531,-16.1946,-2.85433,90.4819
2023-03-11 16:04:01:597,-0.535858,2.76074,-9.37172,-16.1942,-2.85692,90.4859
2023-03-11 16:04:01:607,-0.518816,2.75728,-9.35386,-16.1903,-2.86122,90.4853
2023-03-11 16:04:01:617,-0.506689,2.74217,-9.35797,-16.1812,-2.86581,90.4825
2023-03-11 16:04:01:627,-0.509574,2.7409,-9.39907,-16.1743,-2.87123,90.4773
2023-03-11 16:04:01:637,-0.495529,2.76408,-9.44982,-16.1701,-2.8758,90.4678
2023-03-11 16:04:01:647,-0.452519,2.76958,-9.45727,-16.1637,-2.88371,90.4585
2023-03-11 16:04:01:657,-0.416362,2.73843,-9.40117,-16.1539,-2.89167,90.4431
2023-03-11 16:04:01:667,-0.404044,2.72048,-9.35982,-16.1428,-2.90044,90.4353
2023-03-11 16:04:01:677,-0.450631,2.73858,-9.38045,-16.1375,-2.9121,90.4265
2023-03-11 16:04:01:687,-0.516857,2.77795,-9.41728,-16.1352,-2.92464,90.4222
2023-03-11 16:04:01:697,-0.537271,2.78425,-9.41061,-16.1303,-2.93517,90.4205
2023-03-11 16:04:01:707,-0.529547,2.78572,-9.39715,-16.1273,-2.94851,90.4148
2023-03-11 16:04:01:717,-0.508525,2.78043,-9.3984,-16.1202,-2.96059,90.4104
2023-03-11 16:04:01:727,-0.518605,2.78338,-9.40942,-16.1162,-2.97123,90.4056
2023-03-11 16:04:01:737,-0.532538,2.79126,-9.40574,-16.1092,-2.97846,90.4002
2023-03-11 16:04:01:747,-0.543736,2.7748,-9.36716,-16.1,-2.98346,90.3983
2023-03-11 16:04:01:757,-0.544392,2.74189,-9.30985,-16.087,-2.98861,90.3972
2023-03-11 16:04:01:767,-0.542324,2.71486,-9.28093,-16.0736,-2.99033,90.3888
2023-03-11 16:04:01:777,-0.521543,2.70861,-9.2928,-16.0617,-2.9893,90.3789
2023-03-11 16:04:01:787,-0.495052,2.71702,-9.32574,-16.0526,-2.99001,90.3662
2023-03-11 16:04:01:797,-0.471551,2.71526,-9.34716,-16.0477,-2.98824,90.3572
2023-03-11 16:04:01:807,-0.466668,2.71587,-9.36069,-16.0469,-2.98636,90.3446
2023-03-11 16:04:01:817,-0.45463,2.71989,-9.39289,-16.0492,-2.98885,90.3325
2023-03-11 16:04:01:827,-0.453537,2.72364,-9.39495,-16.0526,-2.99304,90.3217
2023-03-11 16:04:01:837,-0.456451,2.73258,-9.37857,-16.0561,-2.99513,90.3123
2023-03-11 16:04:01:847,-0.48258,2.74847,-9.3744,-16.0599,-3.00082,90.3055
2023-03-11 16:04:01:857,-0.502293,2.75022,-9.38532,-16.0634,-3.00514,90.2982
2023-03-11 16:04:01:867,-0.512375,2.76784,-9.42905,-16.0692,-3.00605,90.2931
2023-03-11 16:04:01:877,-0.490811,2.77431,-9.44408,-16.0755,-3.00562,90.2879
2023-03-11 16:04:01:887,-0.466253,2.74961,-9.39495,-16.0729,-3.00314,90.2789
2023-03-11 16:04:01:897,-0.473271,2.73225,-9.36931,-16.0706,-3.00279,90.2712
2023-03-11 16:04:01:907,-0.493769,2.7308,-9.37939,-16.0718,-3.00762,90.2628
2023-03-11 16:04:01:917,-0.510087,2.72474,-9.38382,-16.0716,-3.01059,90.2576
2023-03-11 16:04:01:927,-0.512096,2.73119,-9.37846,-16.0692,-3.0162,90.2523
2023-03-11 16:04:01:937,-0.488367,2.71572,-9.39073,-16.0726,-3.02007,90.2477
2023-03-11 16:04:01:947,-0.494296,2.71646,-9.39789,-16.0717,-3.01898,90.2436
2023-03-11 16:04:01:957,-0.477771,2.74465,-9.41338,-16.0712,-3.01821,90.2372
2023-03-11 16:04:01:967,-0.460092,2.76061,-9.43475,-16.0683,-3.01757,90.2328
2023-03-11 16:04:01:977,-0.46396,2.76189,-9.43423,-16.0645,-3.02051,90.2296
2023-03-11 16:04:01:987,-0.457074,2.75299,-9.42427,-16.0571,-3.02462,90.2276
2023-03-11 16:04:01:997,-0.466756,2.76031,-9.41066,-16.0492,-3.0255,90.2252
2023-03-11 16:04:02:7,-0.474999,2.76099,-9.40449,-16.0362,-3.03026,90.2251
2023-03-11 16:04:02:17,-0.491922,2.75005,-9.40807,-16.0209,-3.03299,90.2247
2023-03-11 16:04:02:27,-0.489238,2.73525,-9.40559,-16.0056,-3.04097,90.2214
2023-03-11 16:04:02:37,-0.488188,2.72695,-9.39022,-15.9891,-3.05123,90.2183
2023-03-11 16:04:02:47,-0.504837,2.71541,-9.37758,-15.9723,-3.06037,90.2194
2023-03-11 16:04:02:57,-0.500585,2.70911,-9.37369,-15.9561,-3.06795,90.2202
2023-03-11 16:04:02:67,-0.475228,2.70221,-9.3546,-15.942,-3.07677,90.2219
2023-03-11 16:04:02:77,-0.488042,2.70258,-9.34733,-15.924,-3.08674,90.2219
2023-03-11 16:04:02:87,-0.509068,2.68948,-9.34039,-15.9133,-3.09211,90.2246
2023-03-11 16:04:02:97,-0.532739,2.68573,-9.32633,-15.9062,-3.09799,90.2282
2023-03-11 16:04:02:107,-0.563147,2.69235,-9.30949,-15.8996,-3.1053,90.2329
2023-03-11 16:04:02:117,-0.582708,2.6827,-9.32084,-15.8949,-3.10784,90.238
2023-03-11 16:04:02:127,-0.625271,2.68404,-9.32244,-15.8951,-3.11179,90.2434
2023-03-11 16:04:02:137,-0.634689,2.71476,-9.33004,-15.8982,-3.11111,90.2441
2023-03-11 16:04:02:147,-0.629882,2.71037,-9.35815,-15.901,-3.10631,90.2401
2023-03-11 16:04:02:156,-0.615432,2.71173,-9.37096,-15.9075,-3.09523,90.2322
2023-03-11 16:04:02:166,-0.577122,2.72896,-9.35262,-15.9073,-3.08696,90.2185
2023-03-11 16:04:02:176,-0.524406,2.71748,-9.36845,-15.9071,-3.07951,90.2043
2023-03-11 16:04:02:186,-0.506557,2.70763,-9.37833,-15.9114,-3.06937,90.1876
2023-03-11 16:04:02:196,-0.486743,2.70017,-9.35854,-15.915,-3.06294,90.1678
2023-03-11 16:04:02:207,-0.474069,2.7054,-9.35828,-15.9181,-3.05589,90.15
2023-03-11 16:04:02:217,-0.461001,2.72036,-9.37319,-15.9245,-3.04773,90.1327
2023-03-11 16:04:02:226,-0.454387,2.72125,-9.40232,-15.9332,-3.04065,90.1147
2023-03-11 16:04:02:236,-0.435749,2.73568,-9.41499,-15.9411,-3.03858,90.097
2023-03-11 16:04:02:247,-0.422737,2.75317,-9.40321,-15.9439,-3.03046,90.082
2023-03-11 16:04:02:256,-0.408929,2.73251,-9.37963,-15.9519,-3.02793,90.0699
2023-03-11 16:04:02:267,-0.395164,2.71414,-9.38301,-15.9557,-3.02574,90.061
2023-03-11 16:04:02:277,-0.398002,2.71612,-9.39565,-15.9604,-3.0263,90.0555
2023-03-11 16:04:02:287,-0.403096,2.72367,-9.40391,-15.9635,-3.02415,90.0544
2023-03-11 16:04:02:297,-0.426434,2.69977,-9.41434,-15.9643,-3.02317,90.0556
2023-03-11 16:04:02:307,-0.449225,2.69568,-9.41279,-15.9668,-3.0252,90.0615
2023-03-11 16:04:02:317,-0.465367,2.71344,-9.40646,-15.9721,-3.02635,90.0668
2023-03-11 16:04:02:327,-0.470506,2.70498,-9.40109,-15.9699,-3.02881,90.075
2023-03-11 16:04:02:337,-0.487625,2.715,-9.38019,-15.9688,-3.03053,90.0851
2023-03-11 16:04:02:347,-0.501503,2.71156,-9.37856,-15.9695,-3.0344,90.0954
2023-03-11 16:04:02:357,-0.50843,2.70758,-9.41531,-15.97,-3.03614,90.1017
2023-03-11 16:04:02:367,-0.497477,2.72331,-9.44424,-15.9731,-3.03817,90.1114
2023-03-11 16:04:02:377,-0.459176,2.69826,-9.45157,-15.9693,-3.03854,90.1172
2023-03-11 16:04:02:387,-0.42811,2.67249,-9.41671,-15.9651,-3.04332,90.1245
2023-03-11 16:04:02:397,-0.426976,2.64557,-9.37244,-15.9588,-3.04735,90.1305
2023-03-11 16:04:02:407,-0.475288,2.66551,-9.37349,-15.9599,-3.06032,90.141
2023-03-11 16:04:02:417,-0.511573,2.69999,-9.39032,-15.966,-3.07171,90.1542
2023-03-11 16:04:02:427,-0.527428,2.72919,-9.38893,-15.9774,-3.08325,90.1678
2023-03-11 16:04:02:437,-0.5374,2.73782,-9.37005,-15.9825,-3.09618,90.1823
2023-03-11 16:04:02:447,-0.53605,2.74031,-9.37023,-15.9884,-3.10818,90.1929
2023-03-11 16:04:02:457,-0.540743,2.74737,-9.37964,-15.9937,-3.11714,90.2022
2023-03-11 16:04:02:467,-0.555446,2.74859,-9.36577,-15.998,-3.12307,90.2146
2023-03-11 16:04:02:477,-0.555878,2.72785,-9.32143,-15.9995,-3.131,90.2224
2023-03-11 16:04:02:487,-0.564053,2.71223,-9.29789,-15.9999,-3.13474,90.233
2023-03-11 16:04:02:497,-0.557757,2.70379,-9.31277,-16.0035,-3.13491,90.2383
2023-03-11 16:04:02:507,-0.55466,2.71187,-9.34498,-16.0072,-3.1353,90.247
2023-03-11 16:04:02:517,-0.548339,2.72209,-9.37269,-16.0121,-3.13347,90.2514
2023-03-11 16:04:02:527,-0.549014,2.7293,-9.39309,-16.0176,-3.13641,90.2563
2023-03-11 16:04:02:537,-0.568864,2.73133,-9.389,-16.0248,-3.13995,90.2566
2023-03-11 16:04:02:547,-0.549384,2.73498,-9.39506,-16.0346,-3.14191,90.2565
2023-03-11 16:04:02:557,-0.509966,2.73492,-9.40489,-16.0442,-3.13921,90.2557
2023-03-11 16:04:02:567,-0.499433,2.74219,-9.39935,-16.0538,-3.13323,90.2513
2023-03-11 16:04:02:577,-0.500581,2.76007,-9.40828,-16.0659,-3.13514,90.2479
2023-03-11 16:04:02:587,-0.526547,2.77288,-9.43988,-16.075,-3.13568,90.245
2023-03-11 16:04:02:597,-0.514626,2.80057,-9.45759,-16.086,-3.13427,90.2414
2023-03-11 16:04:02:607,-0.475677,2.77996,-9.43972,-16.0885,-3.12705,90.2368
2023-03-11 16:04:02:617,-0.461609,2.74198,-9.38506,-16.0866,-3.12614,90.2346
2023-03-11 16:04:02:627,-0.494067,2.72669,-9.36054,-16.0821,-3.125,90.2328
2023-03-11 16:04:02:637,-0.525831,2.74861,-9.37443,-16.0834,-3.12699,90.2327
2023-03-11 16:04:02:647,-0.532746,2.77065,-9.39647,-16.083,-3.12539,90.2351
2023-03-11 16:04:02:657,-0.506586,2.78398,-9.42659,-16.0794,-3.12299,90.235
2023-03-11 16:04:02:667,-0.484549,2.7876,-9.45678,-16.0733,-3.11625,90.2322
2023-03-11 16:04:02:677,-0.459423,2.78191,-9.46813,-16.0655,-3.11322,90.2285
2023-03-11 16:04:02:687,-0.452206,2.7703,-9.43585,-16.0567,-3.11155,90.2259
2023-03-11 16:04:02:697,-0.444934,2.7593,-9.39692,-16.04,-3.11445,90.2249
2023-03-11 16:04:02:707,-0.441843,2.73434,-9.35909,-16.027,-3.11696,90.2225
2023-03-11 16:04:02:717,-0.444124,2.71989,-9.33157,-16.0165,-3.12921,90.2244
2023-03-11 16:04:02:727,-0.454153,2.69668,-9.32574,-16.0116,-3.13997,90.2301
2023-03-11 16:04:02:737,-0.476235,2.68888,-9.3271,-16.0045,-3.15222,90.2371
2023-03-11 16:04:02:747,-0.501988,2.67368,-9.33162,-16.0024,-3.16259,90.2443
2023-03-11 16:04:02:757,-0.527639,2.66955,-9.33466,-15.9984,-3.17336,90.252
2023-03-11 16:04:02:767,-0.501326,2.67514,-9.36102,-15.9962,-3.18331,90.2646
2023-03-11 16:04:02:777,-0.501644,2.68892,-9.39265,-15.9974,-3.19674,90.2781
2023-03-11 16:04:02:787,-0.535079,2.70788,-9.39524,-16.0039,-3.20951,90.2903
2023-03-11 16:04:02:797,-0.549658,2.71286,-9.3831,-16.0048,-3.22045,90.3016
2023-03-11 16:04:02:807,-0.564549,2.71083,-9.37571,-16.0058,-3.23116,90.3152
2023-03-11 16:04:02:817,-0.584272,2.70661,-9.37118,-16.0108,-3.23706,90.3265
2023-03-11 16:04:02:827,-0.591223,2.70876,-9.36236,-16.0182,-3.24435,90.3389
2023-03-11 16:04:02:837,-0.609469,2.71134,-9.34847,-16.0249,-3.25166,90.3501
2023-03-11 16:04:02:846,-0.608367,2.70898,-9.34286,-16.0294,-3.26121,90.3571
2023-03-11 16:04:02:856,-0.605453,2.71109,-9.36019,-16.0336,-3.26757,90.363
2023-03-11 16:04:02:866,-0.603329,2.73015,-9.37297,-16.038,-3.27028,90.3689
2023-03-11 16:04:02:876,-0.595723,2.73802,-9.38177,-16.046,-3.27607,90.3746
2023-03-11 16:04:02:886,-0.599159,2.7357,-9.40242,-16.0506,-3.27668,90.3749
2023-03-11 16:04:02:896,-0.579564,2.74729,-9.40795,-16.058,-3.27833,90.3744
2023-03-11 16:04:02:906,-0.571851,2.75983,-9.41994,-16.062,-3.27623,90.3726
2023-03-11 16:04:02:916,-0.563729,2.76669,-9.41441,-16.0627,-3.27136,90.3684
2023-03-11 16:04:02:926,-0.554758,2.75103,-9.38806,-16.0607,-3.26691,90.3647
2023-03-11 16:04:02:936,-0.555882,2.7566,-9.37209,-16.063,-3.26273,90.3634
2023-03-11 16:04:02:946,-0.54257,2.75067,-9.38299,-16.064,-3.25947,90.3602
2023-03-11 16:04:02:956,-0.537559,2.76811,-9.40845,-16.0675,-3.25497,90.356
2023-03-11 16:04:02:966,-0.53683,2.78174,-9.44009,-16.0697,-3.25137,90.3498
2023-03-11 16:04:02:976,-0.52095,2.78662,-9.45278,-16.0642,-3.24692,90.3403
2023-03-11 16:04:02:986,-0.498403,2.77941,-9.43278,-16.0573,-3.24259,90.3319
2023-03-11 16:04:02:996,-0.473269,2.75663,-9.41385,-16.0508,-3.23515,90.3282
2023-03-11 16:04:03:6,-0.484963,2.73102,-9.40711,-16.0386,-3.23468,90.324
2023-03-11 16:04:03:16,-0.497979,2.72233,-9.37974,-16.0255,-3.23742,90.3214
2023-03-11 16:04:03:26,-0.509853,2.69227,-9.35764,-16.0113,-3.2394,90.32
2023-03-11 16:04:03:36,-0.526578,2.67881,-9.33637,-15.9997,-3.24125,90.3199
2023-03-11 16:04:03:47,-0.540437,2.69452,-9.32617,-15.989,-3.24393,90.3199
2023-03-11 16:04:03:57,-0.534242,2.68564,-9.33333,-15.9819,-3.24394,90.3189
2023-03-11 16:04:03:67,-0.517577,2.65155,-9.31588,-15.9755,-3.24275,90.3177
2023-03-11 16:04:03:77,-0.508806,2.63245,-9.30947,-15.9691,-3.23967,90.3147
2023-03-11 16:04:03:87,-0.511797,2.64442,-9.34593,-15.9661,-3.2342,90.3134
2023-03-11 16:04:03:97,-0.498995,2.69048,-9.41439,-15.9708,-3.22893,90.3131
2023-03-11 16:04:03:107,-0.486556,2.69787,-9.44434,-15.9739,-3.2261,90.3139
2023-03-11 16:04:03:117,-0.47944,2.67203,-9.39559,-15.9735,-3.22661,90.3119
2023-03-11 16:04:03:127,-0.502727,2.65192,-9.34176,-15.9732,-3.22924,90.3163
2023-03-11 16:04:03:137,-0.531693,2.6969,-9.37074,-15.985,-3.23067,90.3237
2023-03-11 16:04:03:147,-0.561992,2.74739,-9.41239,-15.9971,-3.23202,90.3308
2023-03-11 16:04:03:157,-0.595662,2.78144,-9.4123,-16.0109,-3.23573,90.3368
2023-03-11 16:04:03:167,-0.594156,2.78029,-9.39559,-16.0225,-3.2396,90.3445
2023-03-11 16:04:03:177,-0.58187,2.77101,-9.37319,-16.0323,-3.24008,90.3468
2023-03-11 16:04:03:187,-0.566726,2.77105,-9.35793,-16.0341,-3.23795,90.3523
2023-03-11 16:04:03:197,-0.564255,2.76579,-9.34422,-16.0383,-3.23485,90.3543
2023-03-11 16:04:03:207,-0.558688,2.74379,-9.34919,-16.0399,-3.23112,90.3548
2023-03-11 16:04:03:217,-0.546507,2.72197,-9.3299,-16.0362,-3.22541,90.351
2023-03-11 16:04:03:227,-0.5175,2.7297,-9.33778,-16.0349,-3.22267,90.3479
2023-03-11 16:04:03:237,-0.512073,2.72684,-9.36753,-16.0345,-3.21777,90.3453
2023-03-11 16:04:03:247,-0.524271,2.73547,-9.39,-16.0337,-3.21329,90.3414
2023-03-11 16:04:03:257,-0.525412,2.73077,-9.40701,-16.0348,-3.20898,90.3389
2023-03-11 16:04:03:267,-0.533635,2.73081,-9.432,-16.0391,-3.20647,90.3374
2023-03-11 16:04:03:277,-0.529917,2.74318,-9.42983,-16.0455,-3.20397,90.336
2023-03-11 16:04:03:287,-0.507949,2.74047,-9.40789,-16.0529,-3.20225,90.3348
2023-03-11 16:04:03:297,-0.506538,2.72343,-9.37268,-16.0576,-3.20155,90.3318
2023-03-11 16:04:03:307,-0.547235,2.746,-9.36506,-16.061,-3.19661,90.3286
2023-03-11 16:04:03:316,-0.582832,2.76722,-9.36496,-16.0646,-3.19194,90.3268
2023-03-11 16:04:03:326,-0.562433,2.77833,-9.39226,-16.0729,-3.18617,90.3272
2023-03-11 16:04:03:336,-0.497951,2.76422,-9.40593,-16.0762,-3.17525,90.3236
2023-03-11 16:04:03:346,-0.460179,2.73897,-9.39816,-16.0745,-3.16647,90.3134
2023-03-11 16:04:03:356,-0.480926,2.71855,-9.3941,-16.0717,-3.16475,90.3078
2023-03-11 16:04:03:366,-0.514347,2.71937,-9.3884,-16.0707,-3.16413,90.3067
2023-03-11 16:04:03:376,-0.533807,2.70542,-9.37807,-16.0661,-3.16361,90.305
2023-03-11 16:04:03:386,-0.510932,2.69191,-9.37394,-16.0577,-3.16046,90.3022
2023-03-11 16:04:03:396,-0.482187,2.69332,-9.37935,-16.0549,-3.15393,90.2965
2023-03-11 16:04:03:406,-0.458199,2.6948,-9.39706,-16.0571,-3.14739,90.2966
2023-03-11 16:04:03:416,-0.458722,2.69816,-9.38839,-16.0588,-3.14226,90.2968
2023-03-11 16:04:03:426,-0.470195,2.71455,-9.3929,-16.0599,-3.14163,90.2985
2023-03-11 16:04:03:436,-0.48801,2.73338,-9.38234,-16.0615,-3.13578,90.3021
2023-03-11 16:04:03:446,-0.50395,2.7278,-9.3668,-16.0624,-3.13552,90.3081
2023-03-11 16:04:03:456,-0.515532,2.7236,-9.36,-16.0671,-3.13501,90.3154
2023-03-11 16:04:03:466,-0.526843,2.73145,-9.34963,-16.0665,-3.13857,90.3174
2023-03-11 16:04:03:476,-0.534385,2.72034,-9.34518,-16.0657,-3.14497,90.3239
2023-03-11 16:04:03:486,-0.559816,2.71435,-9.35203,-16.066,-3.15132,90.3311
2023-03-11 16:04:03:496,-0.565172,2.70742,-9.37621,-16.0686,-3.15395,90.3395
2023-03-11 16:04:03:506,-0.56619,2.72245,-9.39169,-16.0707,-3.15676,90.3431
2023-03-11 16:04:03:516,-0.560151,2.72673,-9.39868,-16.0752,-3.1609,90.3481
2023-03-11 16:04:03:526,-0.564451,2.73387,-9.40832,-16.0797,-3.1633,90.3499
2023-03-11 16:04:03:536,-0.559325,2.7407,-9.41677,-16.0819,-3.16645,90.3563
2023-03-11 16:04:03:546,-0.546973,2.7426,-9.41967,-16.0841,-3.1719,90.3552
2023-03-11 16:04:03:556,-0.554867,2.73841,-9.40333,-16.0819,-3.17281,90.3557
2023-03-11 16:04:03:566,-0.554707,2.73688,-9.3931,-16.0828,-3.17507,90.3578
2023-03-11 16:04:03:576,-0.543444,2.73786,-9.38065,-16.0849,-3.17625,90.3587
2023-03-11 16:04:03:586,-0.554221,2.7341,-9.36266,-16.0905,-3.17761,90.3599
2023-03-11 16:04:03:596,-0.564401,2.7389,-9.35354,-16.0941,-3.17629,90.3609
2023-03-11 16:04:03:606,-0.549255,2.73691,-9.36286,-16.0974,-3.17404,90.3625
2023-03-11 16:04:03:616,-0.534147,2.7423,-9.37116,-16.0992,-3.17269,90.3597
2023-03-11 16:04:03:631,-0.534168,2.75107,-9.38848,-16.1007,-3.16649,90.3558
2023-03-11 16:04:03:636,-0.53087,2.76889,-9.39526,-16.1044,-3.16087,90.3538
2023-03-11 16:04:03:646,-0.512997,2.76207,-9.39793,-16.1006,-3.1576,90.3498
2023-03-11 16:04:03:656,-0.49665,2.74992,-9.38327,-16.0987,-3.15768,90.3425
2023-03-11 16:04:03:666,-0.490492,2.73804,-9.36469,-16.0976,-3.15484,90.3392
2023-03-11 16:04:03:676,-0.497116,2.72768,-9.36676,-16.0952,-3.15415,90.3356
2023-03-11 16:04:03:686,-0.486589,2.73373,-9.37331,-16.0954,-3.15502,90.3367
2023-03-11 16:04:03:696,-0.500594,2.74509,-9.37647,-16.1029,-3.1529,90.3356
2023-03-11 16:04:03:706,-0.511076,2.74021,-9.38469,-16.1071,-3.14623,90.3348
2023-03-11 16:04:03:716,-0.520315,2.74925,-9.38627,-16.1118,-3.14242,90.3342
2023-03-11 16:04:03:726,-0.542676,2.76423,-9.39617,-16.1164,-3.1382,90.336
2023-03-11 16:04:03:736,-0.543377,2.76401,-9.41482,-16.1193,-3.13095,90.3354
2023-03-11 16:04:03:746,-0.553504,2.75304,-9.40168,-16.1195,-3.1296,90.3358
2023-03-11 16:04:03:756,-0.564792,2.74698,-9.36655,-16.1202,-3.12244,90.3371
2023-03-11 16:04:03:766,-0.544916,2.74772,-9.36481,-16.12,-3.11588,90.3336
2023-03-11 16:04:03:776,-0.52347,2.74568,-9.36982,-16.117,-3.10518,90.3303
2023-03-11 16:04:03:786,-0.518093,2.74165,-9.36352,-16.1164,-3.09928,90.3277
2023-03-11 16:04:03:796,-0.504267,2.74357,-9.3851,-16.1164,-3.09354,90.3229
2023-03-11 16:04:03:806,-0.485439,2.75115,-9.42145,-16.1172,-3.08899,90.3178
2023-03-11 16:04:03:816,-0.476009,2.75407,-9.46069,-16.1148,-3.083,90.3121
2023-03-11 16:04:03:826,-0.459225,2.73979,-9.4422,-16.1124,-3.07778,90.3045
2023-03-11 16:04:03:836,-0.447955,2.70109,-9.38669,-16.101,-3.06912,90.2978
2023-03-11 16:04:03:846,-0.457282,2.69393,-9.35889,-16.0953,-3.06368,90.2955
2023-03-11 16:04:03:856,-0.496488,2.72717,-9.39087,-16.0953,-3.0627,90.2967
2023-03-11 16:04:03:866,-0.522098,2.74543,-9.41292,-16.1006,-3.06159,90.2966
2023-03-11 16:04:03:876,-0.540469,2.76862,-9.40887,-16.105,-3.06182,90.2991
2023-03-11 16:04:03:886,-0.534139,2.77683,-9.40501,-16.1049,-3.05726,90.3027
2023-03-11 16:04:03:897,-0.53163,2.7825,-9.39857,-16.1041,-3.05163,90.3084
2023-03-11 16:04:03:907,-0.532604,2.79283,-9.38002,-16.1018,-3.04865,90.3077
2023-03-11 16:04:03:917,-0.538035,2.78456,-9.3706,-16.0932,-3.03892,90.3093
2023-03-11 16:04:03:927,-0.527155,2.76761,-9.34985,-16.0836,-3.03066,90.3108
2023-03-11 16:04:03:937,-0.514008,2.74403,-9.3314,-16.0721,-3.02529,90.3049
2023-03-11 16:04:03:947,-0.49746,2.72216,-9.33096,-16.0632,-3.02174,90.2989
2023-03-11 16:04:03:957,-0.478371,2.7046,-9.34163,-16.0563,-3.01644,90.2902
2023-03-11 16:04:03:967,-0.46253,2.69863,-9.36888,-16.0473,-3.00902,90.2816
2023-03-11 16:04:03:977,-0.450733,2.69868,-9.38328,-16.0418,-3.00239,90.275
2023-03-11 16:04:03:987,-0.456176,2.71006,-9.41412,-16.0378,-2.99745,90.268
2023-03-11 16:04:03:997,-0.461094,2.7444,-9.44127,-16.0354,-2.99117,90.262
2023-03-11 16:04:04:7,-0.434049,2.75992,-9.44787,-16.0352,-2.98535,90.2526
2023-03-11 16:04:04:17,-0.433641,2.76235,-9.43385,-16.0367,-2.98111,90.2484
2023-03-11 16:04:04:27,-0.473059,2.74748,-9.42639,-16.0337,-2.97573,90.2486
2023-03-11 16:04:04:37,-0.492266,2.75926,-9.42528,-16.0285,-2.9695,90.2455
2023-03-11 16:04:04:47,-0.471938,2.77482,-9.43668,-16.0229,-2.9649,90.2443
2023-03-11 16:04:04:57,-0.418621,2.74177,-9.421,-16.0121,-2.95822,90.2397
2023-03-11 16:04:04:67,-0.396934,2.71183,-9.39632,-15.9983,-2.95319,90.2371
2023-03-11 16:04:04:77,-0.410196,2.69958,-9.37218,-15.982,-2.95281,90.2373
2023-03-11 16:04:04:87,-0.455473,2.69449,-9.36495,-15.9647,-2.95643,90.2423
2023-03-11 16:04:04:97,-0.484994,2.69246,-9.36698,-15.9491,-2.9597,90.2464
2023-03-11 16:04:04:107,-0.481226,2.68775,-9.38413,-15.937,-2.95827,90.2517
2023-03-11 16:04:04:117,-0.450986,2.68663,-9.38566,-15.9231,-2.95961,90.2575
2023-03-11 16:04:04:127,-0.451924,2.6836,-9.38377,-15.9075,-2.95551,90.2617
2023-03-11 16:04:04:137,-0.450405,2.67375,-9.39322,-15.8974,-2.95606,90.2673
2023-03-11 16:04:04:147,-0.457011,2.67164,-9.38592,-15.8883,-2.95718,90.2739
2023-03-11 16:04:04:157,-0.481622,2.6705,-9.3872,-15.882,-2.95654,90.2826
2023-03-11 16:04:04:167,-0.502359,2.68567,-9.39387,-15.8726,-2.95996,90.29
2023-03-11 16:04:04:177,-0.502965,2.68093,-9.4048,-15.8658,-2.96753,90.2992
2023-03-11 16:04:04:187,-0.517983,2.6845,-9.39841,-15.8577,-2.9736,90.308
2023-03-11 16:04:04:197,-0.524477,2.68057,-9.37739,-15.8513,-2.98039,90.3145
2023-03-11 16:04:04:207,-0.519042,2.66829,-9.38055,-15.8437,-2.98713,90.3258
2023-03-11 16:04:04:217,-0.519795,2.65897,-9.38188,-15.8366,-2.99342,90.3348
2023-03-11 16:04:04:227,-0.534229,2.66796,-9.39037,-15.8308,-2.99593,90.3405
2023-03-11 16:04:04:237,-0.536401,2.67102,-9.41016,-15.8227,-2.99948,90.346
2023-03-11 16:04:04:247,-0.535845,2.64593,-9.3775,-15.8136,-3.00141,90.3523
2023-03-11 16:04:04:257,-0.537108,2.63629,-9.36007,-15.8077,-3.00712,90.3581
2023-03-11 16:04:04:267,-0.533698,2.65284,-9.38608,-15.8049,-3.01145,90.365
2023-03-11 16:04:04:277,-0.531522,2.65656,-9.38182,-15.8002,-3.01507,90.3718
2023-03-11 16:04:04:287,-0.552123,2.65751,-9.3614,-15.796,-3.01236,90.3791
2023-03-11 16:04:04:296,-0.554307,2.66944,-9.3638,-15.7959,-3.01088,90.387
2023-03-11 16:04:04:306,-0.554336,2.6707,-9.37694,-15.7975,-3.01329,90.3905
2023-03-11 16:04:04:316,-0.545568,2.67812,-9.38187,-15.7975,-3.01302,90.3919
2023-03-11 16:04:04:326,-0.551235,2.6822,-9.37233,-15.8008,-3.00896,90.3933
2023-03-11 16:04:04:336,-0.546052,2.68207,-9.38919,-15.8022,-3.00136,90.3906
2023-03-11 16:04:04:346,-0.527049,2.687,-9.40653,-15.8039,-2.9918,90.389
2023-03-11 16:04:04:356,-0.518908,2.70145,-9.43574,-15.8094,-2.98644,90.3864
2023-03-11 16:04:04:366,-0.488593,2.71863,-9.43322,-15.8101,-2.9809,90.38
2023-03-11 16:04:04:376,-0.474694,2.71758,-9.42549,-15.8113,-2.97798,90.3747
2023-03-11 16:04:04:386,-0.477324,2.7126,-9.43631,-15.8107,-2.97008,90.3687
2023-03-11 16:04:04:396,-0.451115,2.71881,-9.44408,-15.8093,-2.96504,90.3649
2023-03-11 16:04:04:406,-0.44922,2.72007,-9.448,-15.8066,-2.96261,90.3574
2023-03-11 16:04:04:416,-0.44258,2.72285,-9.47194,-15.8017,-2.95813,90.3553
2023-03-11 16:04:04:426,-0.443074,2.73043,-9.45574,-15.7911,-2.95647,90.3564
2023-03-11 16:04:04:436,-0.448507,2.70942,-9.40348,-15.7771,-2.95467,90.3588
2023-03-11 16:04:04:446,-0.457745,2.68814,-9.38721,-15.7681,-2.95477,90.364
2023-03-11 16:04:04:456,-0.4724,2.67505,-9.40079,-15.7539,-2.95152,90.3708
2023-03-11 16:04:04:466,-0.5004,2.67066,-9.39537,-15.7404,-2.94865,90.3788
2023-03-11 16:04:04:476,-0.509474,2.66069,-9.36893,-15.7273,-2.94912,90.3844
2023-03-11 16:04:04:486,-0.527859,2.64668,-9.35462,-15.7149,-2.94723,90.3883
2023-03-11 16:04:04:496,-0.514509,2.63515,-9.34197,-15.709,-2.94483,90.3902
2023-03-11 16:04:04:506,-0.477904,2.65051,-9.33812,-15.7019,-2.93991,90.3912
2023-03-11 16:04:04:516,-0.454428,2.63374,-9.34226,-15.6944,-2.93902,90.3901
2023-03-11 16:04:04:526,-0.475037,2.62976,-9.32717,-15.6928,-2.9378,90.39
2023-03-11 16:04:04:536,-0.489896,2.64984,-9.37264,-15.6977,-2.94299,90.3905
2023-03-11 16:04:04:546,-0.455252,2.68238,-9.46853,-15.7047,-2.94439,90.3883
2023-03-11 16:04:04:556,-0.438808,2.68226,-9.47405,-15.7044,-2.94769,90.3865
2023-03-11 16:04:04:566,-0.424755,2.64573,-9.4216,-15.7033,-2.95162,90.3852
2023-03-11 16:04:04:577,-0.442568,2.62441,-9.37796,-15.7025,-2.95955,90.3856
2023-03-11 16:04:04:587,-0.469235,2.64024,-9.37152,-15.7048,-2.97087,90.3891
2023-03-11 16:04:04:597,-0.499016,2.6548,-9.39489,-15.71,-2.97975,90.3965
2023-03-11 16:04:04:606,-0.535635,2.6765,-9.39104,-15.7177,-2.98661,90.4047
2023-03-11 16:04:04:616,-0.552397,2.70768,-9.38059,-15.7255,-2.99371,90.4166
2023-03-11 16:04:04:626,-0.557953,2.71589,-9.39615,-15.7363,-2.99974,90.4255
2023-03-11 16:04:04:636,-0.547537,2.73085,-9.41021,-15.7461,-2.99751,90.4358
2023-03-11 16:04:04:646,-0.572626,2.75481,-9.41162,-15.7561,-2.99667,90.4432
2023-03-11 16:04:04:656,-0.58773,2.74247,-9.39842,-15.756,-2.99384,90.4506
2023-03-11 16:04:04:666,-0.576939,2.72153,-9.38163,-15.7558,-2.9902,90.4539
2023-03-11 16:04:04:676,-0.562443,2.69502,-9.3681,-15.7542,-2.98872,90.4532
2023-03-11 16:04:04:687,-0.55049,2.68604,-9.37937,-15.7524,-2.98389,90.4524
2023-03-11 16:04:04:696,-0.529507,2.69435,-9.39489,-15.7521,-2.98102,90.4451
2023-03-11 16:04:04:706,-0.524507,2.68943,-9.41902,-15.7499,-2.97576,90.4377
2023-03-11 16:04:04:716,-0.511279,2.69254,-9.4337,-15.752,-2.97171,90.4248
2023-03-11 16:04:04:726,-0.492416,2.69128,-9.45093,-15.749,-2.96366,90.4115
2023-03-11 16:04:04:737,-0.463385,2.69195,-9.43972,-15.7466,-2.95751,90.3986
2023-03-11 16:04:04:747,-0.429042,2.67551,-9.42043,-15.7438,-2.95288,90.3853
2023-03-11 16:04:04:757,-0.437669,2.67799,-9.42132,-15.7409,-2.94585,90.3728
2023-03-11 16:04:04:767,-0.462241,2.68833,-9.42948,-15.7404,-2.9395,90.3649
2023-03-11 16:04:04:777,-0.460217,2.72061,-9.45499,-15.7396,-2.92923,90.3545
2023-03-11 16:04:04:787,-0.412058,2.72796,-9.44003,-15.7353,-2.9217,90.3509
2023-03-11 16:04:04:796,-0.379848,2.69343,-9.40829,-15.724,-2.91755,90.3423
2023-03-11 16:04:04:806,-0.388987,2.66797,-9.39346,-15.7137,-2.91443,90.3369
2023-03-11 16:04:04:816,-0.438452,2.67786,-9.38561,-15.7021,-2.91481,90.3375
2023-03-11 16:04:04:826,-0.467499,2.67323,-9.41264,-15.693,-2.9164,90.3399
2023-03-11 16:04:04:837,-0.473138,2.67555,-9.43417,-15.6835,-2.91751,90.338
2023-03-11 16:04:04:846,-0.46041,2.66526,-9.41794,-15.6709,-2.91779,90.3432
2023-03-11 16:04:04:857,-0.443201,2.65816,-9.41379,-15.6604,-2.92275,90.3415
2023-03-11 16:04:04:866,-0.445311,2.64847,-9.41282,-15.649,-2.92364,90.3468
2023-03-11 16:04:04:877,-0.449991,2.64483,-9.39612,-15.6394,-2.92277,90.351
2023-03-11 16:04:04:886,-0.470149,2.65066,-9.37679,-15.6346,-2.92772,90.3552
2023-03-11 16:04:04:896,-0.480223,2.66306,-9.38015,-15.63,-2.9306,90.3612
2023-03-11 16:04:04:906,-0.494375,2.68773,-9.40228,-15.629,-2.93892,90.3663
2023-03-11 16:04:04:916,-0.496837,2.69315,-9.43783,-15.6272,-2.95081,90.3725
2023-03-11 16:04:04:927,-0.503535,2.68699,-9.4568,-15.621,-2.95925,90.3766
2023-03-11 16:04:04:936,-0.514524,2.69129,-9.44932,-15.6134,-2.96951,90.3824
2023-03-11 16:04:04:946,-0.520187,2.69,-9.43351,-15.603,-2.97824,90.3897
2023-03-11 16:04:04:956,-0.526537,2.66461,-9.40975,-15.5894,-2.98651,90.3992
2023-03-11 16:04:04:967,-0.523406,2.65251,-9.39918,-15.5727,-2.99572,90.4067
2023-03-11 16:04:04:976,-0.522911,2.65501,-9.40666,-15.5556,-3.0049,90.4135
2023-03-11 16:04:04:987,-0.5196,2.66977,-9.45805,-15.5403,-3.00925,90.4212
2023-03-11 16:04:04:996,-0.509491,2.69894,-9.46967,-15.5291,-3.00964,90.429
2023-03-11 16:04:05:6,-0.513468,2.70013,-9.45072,-15.5119,-3.01359,90.4336
2023-03-11 16:04:05:16,-0.514759,2.66907,-9.43465,-15.4926,-3.01976,90.4406
2023-03-11 16:04:05:26,-0.513738,2.65171,-9.40909,-15.4741,-3.02447,90.4499
2023-03-11 16:04:05:37,-0.51886,2.6465,-9.39871,-15.4543,-3.03259,90.4586
2023-03-11 16:04:05:47,-0.520065,2.66173,-9.41906,-15.4369,-3.03258,90.4676
2023-03-11 16:04:05:56,-0.526169,2.65157,-9.44783,-15.4181,-3.03096,90.4758
2023-03-11 16:04:05:66,-0.505204,2.6259,-9.42925,-15.393,-3.02968,90.4795
2023-03-11 16:04:05:76,-0.503197,2.61938,-9.40262,-15.3705,-3.02669,90.4878
2023-03-11 16:04:05:87,-0.505499,2.6136,-9.40273,-15.3486,-3.02628,90.4949
2023-03-11 16:04:05:96,-0.496368,2.62307,-9.43347,-15.3294,-3.02778,90.5004
2023-03-11 16:04:05:107,-0.485806,2.63367,-9.43136,-15.3103,-3.03085,90.5022
2023-03-11 16:04:05:116,-0.473534,2.63767,-9.45488,-15.2872,-3.0325,90.5105
2023-03-11 16:04:05:126,-0.472431,2.62562,-9.45727,-15.262,-3.03496,90.5162
2023-03-11 16:04:05:137,-0.476469,2.61318,-9.4376,-15.2361,-3.03358,90.5233
2023-03-11 16:04:05:146,-0.47218,2.59152,-9.40841,-15.2102,-3.03194,90.5323
2023-03-11 16:04:05:156,-0.469521,2.57548,-9.41038,-15.1853,-3.03314,90.5441
2023-03-11 16:04:05:166,-0.471065,2.58409,-9.4156,-15.1587,-3.03707,90.5584
2023-03-11 16:04:05:176,-0.483698,2.57417,-9.39238,-15.1378,-3.03775,90.5754
2023-03-11 16:04:05:187,-0.512115,2.58219,-9.41151,-15.1139,-3.03991,90.5938
2023-03-11 16:04:05:197,-0.525602,2.59687,-9.46063,-15.0941,-3.04451,90.6145
2023-03-11 16:04:05:207,-0.540842,2.5894,-9.47211,-15.0691,-3.04664,90.6351
2023-03-11 16:04:05:217,-0.574424,2.559,-9.46099,-15.0425,-3.04339,90.6527
2023-03-11 16:04:05:227,-0.563929,2.5397,-9.4175,-15.014,-3.04171,90.6678
2023-03-11 16:04:05:237,-0.549731,2.52218,-9.4152,-14.9861,-3.03903,90.683
2023-03-11 16:04:05:246,-0.531399,2.53034,-9.38622,-14.9618,-3.03476,90.6948
2023-03-11 16:04:05:256,-0.522673,2.50805,-9.36688,-14.9344,-3.03773,90.7017
2023-03-11 16:04:05:266,-0.511346,2.50271,-9.36259,-14.9106,-3.04093,90.7027
2023-03-11 16:04:05:276,-0.502882,2.50764,-9.39947,-14.8926,-3.04889,90.7022
2023-03-11 16:04:05:287,-0.500511,2.50985,-9.43667,-14.8818,-3.05203,90.7032
2023-03-11 16:04:05:296,-0.47447,2.49071,-9.45551,-14.8661,-3.06021,90.7021
2023-03-11 16:04:05:306,-0.448562,2.46258,-9.45523,-14.8551,-3.07091,90.7005
2023-03-11 16:04:05:316,-0.46895,2.4602,-9.44081,-14.8466,-3.07959,90.7009
2023-03-11 16:04:05:327,-0.507581,2.47032,-9.45775,-14.842,-3.09665,90.7054
2023-03-11 16:04:05:337,-0.523708,2.49971,-9.43922,-14.8352,-3.10952,90.712
2023-03-11 16:04:05:346,-0.524154,2.51291,-9.41177,-14.8326,-3.12213,90.7171
2023-03-11 16:04:05:356,-0.528059,2.52255,-9.4091,-14.8301,-3.13314,90.7243
2023-03-11 16:04:05:366,-0.547273,2.53819,-9.41717,-14.8267,-3.13897,90.7337
2023-03-11 16:04:05:376,-0.561042,2.55414,-9.41638,-14.8271,-3.14481,90.7406
2023-03-11 16:04:05:386,-0.591004,2.55989,-9.43979,-14.8244,-3.14989,90.7495
2023-03-11 16:04:05:397,-0.609395,2.56508,-9.42048,-14.8183,-3.1575,90.7569
2023-03-11 16:04:05:407,-0.611414,2.56144,-9.41354,-14.8074,-3.16007,90.7634
2023-03-11 16:04:05:416,-0.603233,2.5377,-9.426,-14.7975,-3.16338,90.7667
2023-03-11 16:04:05:426,-0.596954,2.53222,-9.44065,-14.7869,-3.16259,90.7727
2023-03-11 16:04:05:436,-0.582244,2.54284,-9.46666,-14.7747,-3.1649,90.7699
2023-03-11 16:04:05:446,-0.58193,2.56228,-9.48308,-14.7632,-3.16445,90.7639
2023-03-11 16:04:05:456,-0.567736,2.55659,-9.4944,-14.7484,-3.16684,90.759
2023-03-11 16:04:05:466,-0.547274,2.55582,-9.48981,-14.7381,-3.16625,90.7487
2023-03-11 16:04:05:476,-0.533673,2.57271,-9.47398,-14.7234,-3.16619,90.7354
2023-03-11 16:04:05:487,-0.514745,2.56347,-9.46731,-14.7116,-3.16786,90.7237
2023-03-11 16:04:05:496,-0.536747,2.57261,-9.47678,-14.6977,-3.17288,90.7126
2023-03-11 16:04:05:506,-0.549318,2.58209,-9.49431,-14.6818,-3.17691,90.6989
2023-03-11 16:04:05:517,-0.545352,2.61018,-9.52208,-14.6682,-3.17681,90.6873
2023-03-11 16:04:05:526,-0.50721,2.60772,-9.51005,-14.6468,-3.17307,90.6751
2023-03-11 16:04:05:536,-0.465009,2.57868,-9.49404,-14.6212,-3.17221,90.6617
2023-03-11 16:04:05:547,-0.450245,2.56164,-9.49118,-14.5924,-3.17304,90.6492
2023-03-11 16:04:05:556,-0.472955,2.54861,-9.47343,-14.5601,-3.17578,90.6368
2023-03-11 16:04:05:566,-0.498455,2.54215,-9.45796,-14.5246,-3.1785,90.6302
2023-03-11 16:04:05:576,-0.509001,2.55269,-9.48355,-14.4921,-3.18245,90.6173
2023-03-11 16:04:05:586,-0.507295,2.54707,-9.4742,-14.4581,-3.18781,90.6092
2023-03-11 16:04:05:596,-0.488333,2.54318,-9.46999,-14.4235,-3.18549,90.6054
2023-03-11 16:04:05:606,-0.48249,2.54921,-9.47901,-14.387,-3.1839,90.6028
2023-03-11 16:04:05:616,-0.483597,2.57004,-9.49137,-14.3517,-3.18547,90.5995
2023-03-11 16:04:05:626,-0.483996,2.55332,-9.51643,-14.3178,-3.19074,90.5972
2023-03-11 16:04:05:636,-0.49889,2.55225,-9.5189,-14.2772,-3.198,90.5946
2023-03-11 16:04:05:647,-0.526363,2.54421,-9.49999,-14.2322,-3.20894,90.5953
2023-03-11 16:04:05:656,-0.537912,2.53803,-9.50065,-14.1854,-3.22082,90.5946
2023-03-11 16:04:05:666,-0.5253,2.52431,-9.50306,-14.1397,-3.23389,90.5954
2023-03-11 16:04:05:677,-0.532845,2.50866,-9.5042,-14.0886,-3.24675,90.5941
2023-03-11 16:04:05:686,-0.523672,2.50108,-9.52064,-14.0371,-3.26245,90.5967
2023-03-11 16:04:05:697,-0.514439,2.5009,-9.53405,-13.9818,-3.27427,90.5985
2023-03-11 16:04:05:706,-0.538185,2.54029,-9.59113,-13.9228,-3.28461,90.6026
2023-03-11 16:04:05:716,-0.503997,2.5602,-9.67266,-13.8509,-3.27233,90.609
2023-03-11 16:04:05:726,-0.502724,2.46955,-9.58652,-13.76,-3.258,90.6174
2023-03-11 16:04:05:736,-0.533067,2.32712,-9.41515,-13.6638,-3.25215,90.6248
2023-03-11 16:04:05:746,-0.530666,2.29745,-9.35457,-13.5824,-3.26389,90.6327
2023-03-11 16:04:05:756,-0.536437,2.37833,-9.46877,-13.5199,-3.2789,90.643
2023-03-11 16:04:05:767,-0.585093,2.43658,-9.59475,-13.4594,-3.29791,90.6521
2023-03-11 16:04:05:776,-0.60817,2.4435,-9.63196,-13.3871,-3.31801,90.661
2023-03-11 16:04:05:786,-0.600449,2.42165,-9.60644,-13.3061,-3.32713,90.6671
2023-03-11 16:04:05:796,-0.597487,2.3668,-9.54614,-13.2139,-3.33162,90.6748
2023-03-11 16:04:05:806,-0.597294,2.3162,-9.49607,-13.1157,-3.33807,90.6775
2023-03-11 16:04:05:816,-0.580948,2.29493,-9.50084,-13.0219,-3.34751,90.6742
2023-03-11 16:04:05:826,-0.568857,2.2939,-9.5417,-12.9325,-3.3626,90.6731
2023-03-11 16:04:05:836,-0.571272,2.29888,-9.58138,-12.8432,-3.37326,90.6708
2023-03-11 16:04:05:846,-0.561711,2.28749,-9.59311,-12.7488,-3.38125,90.668
2023-03-11 16:04:05:856,-0.55314,2.27698,-9.57327,-12.6456,-3.38675,90.6663
2023-03-11 16:04:05:866,-0.56702,2.24967,-9.55878,-12.5423,-3.3938,90.6633
2023-03-11 16:04:05:876,-0.577991,2.23671,-9.58538,-12.4381,-3.40189,90.6584
2023-03-11 16:04:05:886,-0.582554,2.23421,-9.60699,-12.3274,-3.41293,90.6536
2023-03-11 16:04:05:896,-0.589591,2.21312,-9.61922,-12.2157,-3.42008,90.6523
2023-03-11 16:04:05:907,-0.589357,2.18471,-9.61154,-12.098,-3.42993,90.6478
2023-03-11 16:04:05:916,-0.582605,2.13252,-9.59114,-11.9764,-3.43734,90.6426
2023-03-11 16:04:05:926,-0.575621,2.09082,-9.56236,-11.8517,-3.44162,90.6354
2023-03-11 16:04:05:936,-0.56005,2.06588,-9.54348,-11.7225,-3.45206,90.627
2023-03-11 16:04:05:946,-0.571456,2.03708,-9.567,-11.6004,-3.46094,90.622
2023-03-11 16:04:05:956,-0.607909,2.033,-9.58429,-11.4792,-3.4756,90.6207
2023-03-11 16:04:05:967,-0.617097,2.06294,-9.61518,-11.3576,-3.48511,90.6186
2023-03-11 16:04:05:976,-0.610494,2.03381,-9.62892,-11.2308,-3.49241,90.6167
2023-03-11 16:04:05:986,-0.618812,1.9803,-9.61217,-11.0955,-3.50133,90.6139
2023-03-11 16:04:05:997,-0.605772,1.93468,-9.5732,-10.9604,-3.5089,90.6097
2023-03-11 16:04:06:6,-0.573249,1.91239,-9.55509,-10.821,-3.51644,90.6026
2023-03-11 16:04:06:16,-0.575976,1.91157,-9.57689,-10.6817,-3.52344,90.5934
2023-03-11 16:04:06:27,-0.591943,1.89964,-9.62568,-10.5441,-3.53325,90.5841
2023-03-11 16:04:06:36,-0.588355,1.89184,-9.6919,-10.4019,-3.54062,90.574
2023-03-11 16:04:06:47,-0.580007,1.89462,-9.74646,-10.2574,-3.55223,90.5664
2023-03-11 16:04:06:56,-0.565404,1.85781,-9.74886,-10.1076,-3.56062,90.5557
2023-03-11 16:04:06:67,-0.57068,1.83526,-9.75234,-9.95132,-3.56749,90.5498
2023-03-11 16:04:06:77,-0.582085,1.82402,-9.82642,-9.78234,-3.56625,90.5431
2023-03-11 16:04:06:87,-0.606624,1.76908,-9.7647,-9.60285,-3.5529,90.5442
2023-03-11 16:04:06:97,-0.613498,1.66988,-9.61294,-9.41571,-3.54941,90.5467
2023-03-11 16:04:06:106,-0.609552,1.59718,-9.49787,-9.23812,-3.56058,90.5478
2023-03-11 16:04:06:117,-0.625213,1.63702,-9.52785,-9.07046,-3.57179,90.5471
2023-03-11 16:04:06:126,-0.638201,1.68939,-9.6196,-8.91445,-3.5834,90.5488
2023-03-11 16:04:06:136,-0.6593,1.67312,-9.63682,-8.7537,-3.59264,90.5524
2023-03-11 16:04:06:147,-0.664581,1.6099,-9.61138,-8.58638,-3.59899,90.5526
2023-03-11 16:04:06:156,-0.63818,1.53902,-9.6354,-8.40807,-3.59851,90.5547
2023-03-11 16:04:06:166,-0.604614,1.47887,-9.68211,-8.22442,-3.59347,90.554
2023-03-11 16:04:06:176,-0.601143,1.42112,-9.67561,-8.0382,-3.58549,90.5557
2023-03-11 16:04:06:186,-0.623615,1.39711,-9.6785,-7.84956,-3.57942,90.5575
2023-03-11 16:04:06:196,-0.662023,1.38092,-9.69766,-7.66503,-3.57621,90.5588
2023-03-11 16:04:06:206,-0.676551,1.34736,-9.72299,-7.48002,-3.57301,90.5604
2023-03-11 16:04:06:216,-0.681552,1.29982,-9.72171,-7.28771,-3.57101,90.5577
2023-03-11 16:04:06:226,-0.665168,1.27046,-9.6948,-7.10085,-3.57032,90.5524
2023-03-11 16:04:06:236,-0.638903,1.23165,-9.67678,-6.91164,-3.56904,90.5452
2023-03-11 16:04:06:246,-0.637609,1.19841,-9.69302,-6.72053,-3.56956,90.5364
2023-03-11 16:04:06:256,-0.64761,1.17877,-9.70352,-6.53209,-3.56893,90.5261
2023-03-11 16:04:06:266,-0.656038,1.16602,-9.73397,-6.34192,-3.56987,90.515
2023-03-11 16:04:06:276,-0.641377,1.16185,-9.75601,-6.15126,-3.56669,90.4993
2023-03-11 16:04:06:287,-0.592698,1.09713,-9.74167,-5.95155,-3.56194,90.4853
2023-03-11 16:04:06:296,-0.570184,1.04051,-9.70274,-5.74957,-3.55668,90.4659
2023-03-11 16:04:06:306,-0.587182,1.00409,-9.71643,-5.54648,-3.55313,90.4512
2023-03-11 16:04:06:316,-0.598665,0.957647,-9.70883,-5.34414,-3.54865,90.4362
2023-03-11 16:04:06:326,-0.609997,0.901336,-9.70186,-5.1417,-3.54471,90.4237
2023-03-11 16:04:06:336,-0.587568,0.847613,-9.69386,-4.93914,-3.53749,90.4107
2023-03-11 16:04:06:347,-0.580413,0.806961,-9.68457,-4.73627,-3.5323,90.3938
2023-03-11 16:04:06:356,-0.586805,0.769574,-9.66655,-4.53837,-3.52223,90.3834
2023-03-11 16:04:06:366,-0.595111,0.724872,-9.64197,-4.34126,-3.51244,90.3731
2023-03-11 16:04:06:376,-0.598046,0.701345,-9.64571,-4.14596,-3.50437,90.3584
2023-03-11 16:04:06:386,-0.584127,0.679484,-9.6852,-3.95704,-3.49225,90.3443
2023-03-11 16:04:06:396,-0.525079,0.655795,-9.72432,-3.7706,-3.48442,90.3233
2023-03-11 16:04:06:406,-0.504627,0.637259,-9.75941,-3.58583,-3.4838,90.3059
2023-03-11 16:04:06:416,-0.538333,0.59327,-9.74318,-3.40221,-3.48273,90.2905
2023-03-11 16:04:06:427,-0.564987,0.539917,-9.70514,-3.21283,-3.48292,90.2741
2023-03-11 16:04:06:436,-0.541024,0.487342,-9.68484,-3.02646,-3.48697,90.2645
2023-03-11 16:04:06:446,-0.534624,0.445518,-9.69217,-2.84209,-3.48941,90.2522
2023-03-11 16:04:06:456,-0.541178,0.460229,-9.71741,-2.66158,-3.49496,90.2447
2023-03-11 16:04:06:467,-0.57565,0.456347,-9.77148,-2.48146,-3.50039,90.2416
2023-03-11 16:04:06:476,-0.590929,0.446238,-9.8022,-2.29832,-3.50423,90.2378
2023-03-11 16:04:06:486,-0.59247,0.4263,-9.80954,-2.1143,-3.50715,90.2376
2023-03-11 16:04:06:496,-0.60563,0.390196,-9.7917,-1.92774,-3.50983,90.2393
2023-03-11 16:04:06:507,-0.610299,0.356485,-9.75536,-1.7374,-3.5112,90.246
2023-03-11 16:04:06:516,-0.630296,0.309559,-9.73707,-1.54963,-3.50732,90.2508
2023-03-11 16:04:06:527,-0.63615,0.300051,-9.7428,-1.35889,-3.50806,90.2553
2023-03-11 16:04:06:536,-0.641101,0.296606,-9.76278,-1.16809,-3.50551,90.2569
2023-03-11 16:04:06:546,-0.649317,0.28028,-9.79954,-0.975717,-3.50005,90.2592
2023-03-11 16:04:06:556,-0.650258,0.272547,-9.82513,-0.778166,-3.49538,90.2608
2023-03-11 16:04:06:566,-0.658376,0.244311,-9.82644,-0.577336,-3.48712,90.2588
2023-03-11 16:04:06:576,-0.653782,0.205854,-9.81372,-0.369508,-3.47994,90.2557
2023-03-11 16:04:06:586,-0.639408,0.17373,-9.81128,-0.159397,-3.47142,90.2485
2023-03-11 16:04:06:596,-0.657987,0.139025,-9.80903,0.0552761,-3.46039,90.2407
2023-03-11 16:04:06:606,-0.643595,0.0970042,-9.80102,0.276958,-3.44774,90.2279
2023-03-11 16:04:06:616,-0.617241,0.0539962,-9.80774,0.501329,-3.43455,90.2169
2023-03-11 16:04:06:626,-0.614413,0.025608,-9.80868,0.731875,-3.42032,90.2003
2023-03-11 16:04:06:636,-0.612898,-0.00877612,-9.828,0.960815,-3.40783,90.1841
2023-03-11 16:04:06:647,-0.590185,-0.0438746,-9.84251,1.19436,-3.39349,90.1645
2023-03-11 16:04:06:657,-0.564431,-0.0536932,-9.84895,1.43145,-3.37549,90.1464
2023-03-11 16:04:06:667,-0.575803,-0.0713997,-9.85701,1.67691,-3.3564,90.1269
2023-03-11 16:04:06:677,-0.564177,-0.102643,-9.8341,1.93333,-3.33982,90.1104
2023-03-11 16:04:06:687,-0.564558,-0.155208,-9.80988,2.19493,-3.32091,90.097
2023-03-11 16:04:06:696,-0.57404,-0.196824,-9.80032,2.46088,-3.30309,90.0851
2023-03-11 16:04:06:707,-0.587364,-0.215362,-9.81193,2.73375,-3.28277,90.0747
2023-03-11 16:04:06:716,-0.602693,-0.234953,-9.83562,3.01404,-3.2588,90.0603
2023-03-11 16:04:06:727,-0.589245,-0.271887,-9.84401,3.30144,-3.23391,90.0527
2023-03-11 16:04:06:736,-0.572723,-0.318619,-9.82334,3.59753,-3.20503,90.0408
2023-03-11 16:04:06:747,-0.564691,-0.365242,-9.79852,3.90431,-3.17548,90.0244
2023-03-11 16:04:06:756,-0.551031,-0.40938,-9.80477,4.21764,-3.14666,90.008
2023-03-11 16:04:06:767,-0.519332,-0.441966,-9.83196,4.54017,-3.10951,89.9917
2023-03-11 16:04:06:776,-0.486848,-0.480702,-9.87698,4.87242,-3.07423,89.9723
2023-03-11 16:04:06:787,-0.470286,-0.524663,-9.89219,5.21809,-3.03711,89.9569
2023-03-11 16:04:06:796,-0.449123,-0.593776,-9.88354,5.57483,-3.00132,89.9401
2023-03-11 16:04:06:807,-0.44311,-0.658953,-9.8324,5.94569,-2.96842,89.9255
2023-03-11 16:04:06:816,-0.433306,-0.723151,-9.789,6.32833,-2.93544,89.9105
2023-03-11 16:04:06:826,-0.434593,-0.7784,-9.75949,6.71915,-2.90185,89.9039
2023-03-11 16:04:06:836,-0.454071,-0.832309,-9.74205,7.11625,-2.86844,89.8989
2023-03-11 16:04:06:846,-0.464105,-0.887562,-9.75377,7.52192,-2.83827,89.8926
2023-03-11 16:04:06:856,-0.448214,-0.904924,-9.74021,7.93871,-2.8101,89.8892
2023-03-11 16:04:06:867,-0.441549,-0.935097,-9.72317,8.36306,-2.78372,89.8835
2023-03-11 16:04:06:876,-0.456562,-0.999855,-9.74095,8.80369,-2.753,89.8801
2023-03-11 16:04:06:886,-0.481901,-1.0687,-9.74618,9.25785,-2.72335,89.8761
2023-03-11 16:04:06:896,-0.503046,-1.14816,-9.73607,9.72903,-2.69725,89.87
2023-03-11 16:04:06:907,-0.493185,-1.24698,-9.70281,10.2205,-2.66477,89.8663
2023-03-11 16:04:06:916,-0.439707,-1.34142,-9.68528,10.7265,-2.63109,89.8572
2023-03-11 16:04:06:927,-0.328094,-1.47474,-9.66954,11.2472,-2.5993,89.8441
2023-03-11 16:04:06:936,-0.210628,-1.61775,-9.66469,11.7827,-2.57109,89.8271
2023-03-11 16:04:06:947,-0.132017,-1.77347,-9.68299,12.3303,-2.54941,89.8064
2023-03-11 16:04:06:956,-0.078745,-1.88587,-9.69726,12.8842,-2.53809,89.788
2023-03-11 16:04:06:967,-0.0779102,-1.98956,-9.64976,13.4468,-2.53955,89.7674
2023-03-11 16:04:06:976,-0.146283,-2.10178,-9.56084,14.0231,-2.55721,89.7496
2023-03-11 16:04:06:986,-0.140992,-2.23111,-9.45312,14.6104,-2.5858,89.7251
2023-03-11 16:04:06:996,-0.0550132,-2.35898,-9.38632,15.2051,-2.62009,89.6969
2023-03-11 16:04:07:6,-0.0465213,-2.49264,-9.28534,15.8006,-2.66719,89.6634
2023-03-11 16:04:07:16,-0.198549,-2.57773,-9.21833,16.393,-2.73447,89.6177
2023-03-11 16:04:07:27,-0.173813,-2.66416,-9.24095,16.9826,-2.81594,89.5644
2023-03-11 16:04:07:36,-0.12276,-2.7634,-9.29471,17.5782,-2.8966,89.5094
2023-03-11 16:04:07:47,-0.267568,-2.87819,-9.21179,18.1788,-2.99704,89.4535
2023-03-11 16:04:07:56,-0.491034,-2.99204,-9.1072,18.7857,-3.11034,89.3987
2023-03-11 16:04:07:66,-0.584074,-3.10226,-9.08896,19.392,-3.22341,89.341
2023-03-11 16:04:07:76,-0.575063,-3.17631,-9.1183,19.9992,-3.32829,89.2821
2023-03-11 16:04:07:87,-0.555412,-3.28551,-9.13022,20.6131,-3.42249,89.2238
2023-03-11 16:04:07:96,-0.527169,-3.4735,-9.04767,21.238,-3.51664,89.1648
2023-03-11 16:04:07:107,-0.531741,-3.62357,-8.94275,21.8664,-3.61159,89.1017
2023-03-11 16:04:07:116,-0.613455,-3.76782,-8.87926,22.4928,-3.70449,89.0385
2023-03-11 16:04:07:127,-0.679489,-3.90093,-8.79626,23.1204,-3.80088,88.974
2023-03-11 16:04:07:136,-0.735524,-4.01732,-8.75963,23.7442,-3.89336,88.912
2023-03-11 16:04:07:147,-0.793709,-4.11322,-8.73776,24.3618,-3.98481,88.85
2023-03-11 16:04:07:156,-0.841422,-4.23134,-8.69748,24.9807,-4.07087,88.7849
2023-03-11 16:04:07:167,-0.902752,-4.34617,-8.6259,25.5996,-4.15263,88.7224
2023-03-11 16:04:07:176,-0.938214,-4.45708,-8.5551,26.222,-4.22165,88.6567
2023-03-11 16:04:07:187,-0.968235,-4.58067,-8.47683,26.8473,-4.28331,88.5919
2023-03-11 16:04:07:197,-1.00464,-4.70382,-8.40287,27.4701,-4.32793,88.5246
2023-03-11 16:04:07:207,-1.00491,-4.8403,-8.31445,28.0909,-4.36321,88.4578
2023-03-11 16:04:07:216,-0.993869,-4.94721,-8.24862,28.7108,-4.38665,88.3855
2023-03-11 16:04:07:226,-0.956744,-5.07572,-8.20876,29.3198,-4.40227,88.3112
2023-03-11 16:04:07:236,-0.889127,-5.17056,-8.16038,29.9174,-4.4071,88.2328
2023-03-11 16:04:07:246,-0.829563,-5.26179,-8.13279,30.5069,-4.40563,88.1499
2023-03-11 16:04:07:257,-0.831739,-5.33414,-8.07462,31.0895,-4.40285,88.0642
2023-03-11 16:04:07:266,-0.866445,-5.4016,-7.99504,31.6658,-4.39581,87.9797
2023-03-11 16:04:07:276,-0.874671,-5.50373,-7.94144,32.235,-4.38186,87.9031
2023-03-11 16:04:07:286,-0.852634,-5.58463,-7.93421,32.8008,-4.35634,87.8291
2023-03-11 16:04:07:297,-0.816549,-5.62343,-7.9046,33.3552,-4.32298,87.7612
2023-03-11 16:04:07:306,-0.802082,-5.66479,-7.83183,33.9057,-4.28222,87.6914
2023-03-11 16:04:07:316,-0.813327,-5.75242,-7.73941,34.4587,-4.24188,87.6275
2023-03-11 16:04:07:326,-0.805089,-5.8255,-7.67688,35.0042,-4.19877,87.5598
2023-03-11 16:04:07:336,-0.765288,-5.87308,-7.66336,35.5439,-4.14753,87.4893
2023-03-11 16:04:07:346,-0.726118,-5.9234,-7.66237,36.0823,-4.09596,87.4165
2023-03-11 16:04:07:356,-0.713292,-5.96602,-7.63843,36.6141,-4.04319,87.3419
2023-03-11 16:04:07:366,-0.69185,-6.00144,-7.61713,37.1415,-3.98764,87.2632
2023-03-11 16:04:07:376,-0.691199,-6.02213,-7.53556,37.6741,-3.92948,87.1814
2023-03-11 16:04:07:386,-0.707626,-6.1081,-7.40307,38.2152,-3.87061,87.1005
2023-03-11 16:04:07:396,-0.716882,-6.26214,-7.28226,38.7644,-3.80902,87.0191
2023-03-11 16:04:07:406,-0.700704,-6.3742,-7.18789,39.3082,-3.74906,86.9351
2023-03-11 16:04:07:417,-0.661736,-6.4822,-7.09905,39.8505,-3.6856,86.8519
2023-03-11 16:04:07:427,-0.661026,-6.60802,-7.02052,40.3844,-3.6257,86.7713
2023-03-11 16:04:07:436,-0.680997,-6.6921,-6.96478,40.9078,-3.56218,86.6904
2023-03-11 16:04:07:447,-0.697095,-6.79824,-6.88025,41.4296,-3.49532,86.607
2023-03-11 16:04:07:456,-0.723561,-6.9305,-6.75264,41.9385,-3.42382,86.527
2023-03-11 16:04:07:467,-0.707593,-7.06245,-6.60744,42.446,-3.3496,86.4494
2023-03-11 16:04:07:476,-0.673026,-7.213,-6.44165,42.9443,-3.26643,86.3774
2023-03-11 16:04:07:486,-0.643472,-7.39389,-6.27192,43.4236,-3.17341,86.31
2023-03-11 16:04:07:497,-0.57164,-7.58683,-6.11655,43.8848,-3.07617,86.253
2023-03-11 16:04:07:506,-0.501763,-7.78206,-5.99838,44.3154,-2.97465,86.2023
2023-03-11 16:04:07:516,-0.3724,-7.96828,-5.93216,44.7113,-2.87172,86.1585
2023-03-11 16:04:07:527,-0.262245,-8.12654,-5.90654,45.0632,-2.77332,86.1188
2023-03-11 16:04:07:536,-0.224371,-8.25397,-5.86247,45.3719,-2.68148,86.0808
2023-03-11 16:04:07:546,-0.256862,-8.34365,-5.78508,45.6277,-2.60286,86.0523
2023-03-11 16:04:07:556,-0.317341,-8.4422,-5.64907,45.839,-2.5392,86.0332
2023-03-11 16:04:07:566,-0.349407,-8.56411,-5.541,45.9971,-2.48323,86.0222
2023-03-11 16:04:07:576,-0.371579,-8.6562,-5.48383,46.0916,-2.43411,86.0209
2023-03-11 16:04:07:586,-0.4351,-8.68999,-5.43382,46.1201,-2.38926,86.03
2023-03-11 16:04:07:596,-0.462192,-8.697,-5.40574,46.0822,-2.34422,86.0518
2023-03-11 16:04:07:606,-0.413663,-8.67187,-5.43446,45.9727,-2.29727,86.0813
2023-03-11 16:04:07:616,-0.264248,-8.6365,-5.46176,45.7916,-2.24949,86.1216
2023-03-11 16:04:07:626,-0.124528,-8.61568,-5.46251,45.5478,-2.2014,86.1673
2023-03-11 16:04:07:636,-0.11608,-8.61663,-5.4307,45.2403,-2.16161,86.2291
2023-03-11 16:04:07:646,-0.15464,-8.61699,-5.38128,44.8658,-2.13127,86.3018
2023-03-11 16:04:07:656,-0.213617,-8.5786,-5.30701,44.4163,-2.1094,86.3861
2023-03-11 16:04:07:666,-0.289627,-8.50222,-5.24305,43.8791,-2.10139,86.4803
2023-03-11 16:04:07:677,-0.333499,-8.44241,-5.23072,43.2594,-2.09412,86.5826
2023-03-11 16:04:07:686,-0.236091,-8.34425,-5.2009,42.5464,-2.08376,86.6928
2023-03-11 16:04:07:696,-0.00804653,-8.24923,-5.17008,41.7379,-2.06543,86.802
2023-03-11 16:04:07:706,0.233158,-8.10531,-5.25415,40.8285,-2.04233,86.9133
2023-03-11 16:04:07:716,0.311047,-7.81791,-5.50936,39.8054,-2.03193,87.02
2023-03-11 16:04:07:726,0.0904664,-7.36462,-5.89903,38.6637,-2.05222,87.131
2023-03-11 16:04:07:736,-0.284251,-6.95489,-6.23228,37.4325,-2.0962,87.2496
2023-03-11 16:04:07:747,-0.571251,-6.64602,-6.41481,36.1414,-2.14616,87.3795
2023-03-11 16:04:07:756,-0.627621,-6.34656,-6.56374,34.8037,-2.1833,87.5138
2023-03-11 16:04:07:767,-0.547824,-5.97423,-6.78337,33.4132,-2.20613,87.6527
2023-03-11 16:04:07:777,-0.440456,-5.544,-7.06395,31.9783,-2.2116,87.7901
2023-03-11 16:04:07:787,-0.366064,-5.11857,-7.37152,30.5012,-2.20308,87.9293
2023-03-11 16:04:07:797,-0.343926,-4.76973,-7.59805,29.0034,-2.19179,88.0722
2023-03-11 16:04:07:807,-0.342016,-4.49488,-7.7297,27.4983,-2.17821,88.2136
2023-03-11 16:04:07:817,-0.405354,-4.26162,-7.67957,25.9876,-2.16627,88.3556
2023-03-11 16:04:07:827,-0.405138,-4.00578,-7.56352,24.4632,-2.1467,88.4935
2023-03-11 16:04:07:837,-0.324691,-3.67917,-7.5574,22.9009,-2.11972,88.6257
2023-03-11 16:04:07:846,-0.246599,-3.24585,-7.72643,21.2984,-2.08925,88.7588
2023-03-11 16:04:07:856,-0.165829,-2.75057,-7.98133,19.6576,-2.05638,88.8893
2023-03-11 16:04:07:866,-0.0662126,-2.24753,-8.25969,17.9911,-2.02344,89.0149
2023-03-11 16:04:07:876,-0.00730566,-1.78282,-8.48499,16.3164,-1.99404,89.1416
2023-03-11 16:04:07:886,-0.0246578,-1.37171,-8.67013,14.6489,-1.97162,89.2713
2023-03-11 16:04:07:896,-0.0290726,-1.00496,-8.84008,13,-1.94551,89.4036
2023-03-11 16:04:07:906,-0.000794666,-0.697863,-9.02183,11.3702,-1.91328,89.5429
2023-03-11 16:04:07:916,0.0288489,-0.34985,-9.16891,9.76359,-1.87846,89.6856
2023-03-11 16:04:07:926,0.0241229,-0.039368,-9.26399,8.18404,-1.84053,89.8329
2023-03-11 16:04:07:936,-0.0244304,0.204648,-9.30529,6.64291,-1.80545,89.9838
2023-03-11 16:04:07:946,-0.0859849,0.434177,-9.31132,5.12997,-1.76847,90.1381
2023-03-11 16:04:07:956,-0.153716,0.625809,-9.30443,3.6467,-1.73391,90.2917
2023-03-11 16:04:07:966,-0.226833,0.810193,-9.30167,2.18849,-1.69965,90.4386
2023-03-11 16:04:07:976,-0.280443,0.999279,-9.32357,0.756593,-1.6604,90.5852
2023-03-11 16:04:07:986,-0.280882,1.1903,-9.27494,-0.65538,-1.61702,90.718
2023-03-11 16:04:07:996,-0.230673,1.33611,-9.10423,-2.03578,-1.57268,90.8383
2023-03-11 16:04:08:6,-0.168727,1.47236,-8.76634,-3.38577,-1.52915,90.9449
2023-03-11 16:04:08:17,-0.117344,1.58421,-8.34359,-4.71963,-1.47997,91.0445
2023-03-11 16:04:08:27,-0.0964084,1.77944,-8.04218,-6.05535,-1.42747,91.1353
2023-03-11 16:04:08:36,-0.078981,2.1073,-7.99709,-7.42621,-1.36999,91.2211
2023-03-11 16:04:08:47,-0.0805919,2.57599,-8.18057,-8.83209,-1.31123,91.3041
2023-03-11 16:04:08:56,-0.0791528,3.01013,-8.42607,-10.2645,-1.26039,91.3778
2023-03-11 16:04:08:66,-0.0690193,3.35628,-8.65838,-11.7042,-1.21517,91.4447
2023-03-11 16:04:08:77,-0.0486966,3.62085,-8.86419,-13.1357,-1.17387,91.5048
2023-03-11 16:04:08:86,-0.066388,3.83939,-9.05054,-14.5486,-1.14876,91.5588
2023-03-11 16:04:08:96,-0.109316,4.15984,-9.20314,-15.9387,-1.14184,91.6066
2023-03-11 16:04:08:107,-0.0879362,4.55026,-9.42184,-17.2959,-1.1394,91.6514
2023-03-11 16:04:08:116,-0.0424708,4.96941,-9.74205,-18.611,-1.14295,91.6875
2023-03-11 16:04:08:126,0.00340584,5.42232,-10.2075,-19.8747,-1.16117,91.7235
2023-03-11 16:04:08:137,-0.0368728,5.84001,-10.607,-21.0657,-1.20703,91.7578
2023-03-11 16:04:08:147,-0.16255,6.07137,-10.7356,-22.1392,-1.26755,91.802
2023-03-11 16:04:08:156,-0.265982,6.04409,-10.4957,-23.0702,-1.32325,91.8451
2023-03-11 16:04:08:167,-0.23716,5.89471,-9.97231,-23.8657,-1.35967,91.8822
2023-03-11 16:04:08:176,-0.13608,5.83131,-9.4802,-24.5686,-1.37916,91.9075
2023-03-11 16:04:08:186,-0.0600523,5.95655,-9.33668,-25.2234,-1.38701,91.9339
2023-03-11 16:04:08:196,-0.0962888,6.26963,-9.59196,-25.8576,-1.39812,91.9693
2023-03-11 16:04:08:206,-0.215493,6.62114,-9.94194,-26.452,-1.42102,92.0176
2023-03-11 16:04:08:216,-0.32199,6.77663,-10.0752,-26.9745,-1.452,92.066
2023-03-11 16:04:08:226,-0.364687,6.73593,-9.94429,-27.404,-1.47381,92.1109
2023-03-11 16:04:08:237,-0.381767,6.57984,-9.67511,-27.7401,-1.48339,92.1418
2023-03-11 16:04:08:246,-0.408683,6.41531,-9.43825,-27.9971,-1.47517,92.1658
2023-03-11 16:04:08:256,-0.427741,6.30114,-9.272,-28.2041,-1.46393,92.1823
2023-03-11 16:04:08:266,-0.433597,6.20948,-9.17175,-28.3739,-1.45667,92.1896
2023-03-11 16:04:08:276,-0.440203,6.15374,-9.15468,-28.5148,-1.45602,92.1863
2023-03-11 16:04:08:286,-0.443309,6.09011,-9.16066,-28.6236,-1.46214,92.1706
2023-03-11 16:04:08:296,-0.405785,5.98928,-9.09814,-28.6981,-1.47717,92.1494
2023-03-11 16:04:08:306,-0.344106,5.8713,-9.02458,-28.7384,-1.48884,92.1192
2023-03-11 16:04:08:316,-0.287221,5.7962,-8.95273,-28.7479,-1.50157,92.0805
2023-03-11 16:04:08:326,-0.271801,5.70531,-8.87948,-28.7326,-1.51815,92.0387
2023-03-11 16:04:08:336,-0.292548,5.58418,-8.75157,-28.6927,-1.54159,91.9954
2023-03-11 16:04:08:346,-0.327039,5.45322,-8.63109,-28.6357,-1.56806,91.9466
2023-03-11 16:04:08:356,-0.32585,5.30165,-8.54391,-28.5651,-1.59836,91.8999
2023-03-11 16:04:08:367,-0.309111,5.18013,-8.4917,-28.4855,-1.62972,91.8453
2023-03-11 16:04:08:376,-0.288145,5.09992,-8.51935,-28.3968,-1.65625,91.784
2023-03-11 16:04:08:386,-0.263245,4.99995,-8.49899,-28.2986,-1.68232,91.7205
2023-03-11 16:04:08:397,-0.228955,4.92167,-8.49595,-28.1988,-1.71175,91.655
2023-03-11 16:04:08:406,-0.179835,4.87961,-8.54616,-28.0971,-1.74198,91.583
2023-03-11 16:04:08:416,-0.123177,4.8394,-8.58607,-27.9892,-1.77913,91.5151
2023-03-11 16:04:08:427,-0.114599,4.79943,-8.62369,-27.8752,-1.82171,91.4521
2023-03-11 16:04:08:436,-0.137842,4.72433,-8.56692,-27.7534,-1.86225,91.3975
2023-03-11 16:04:08:446,-0.16192,4.61729,-8.46493,-27.6259,-1.89833,91.3481
2023-03-11 16:04:08:456,-0.170723,4.55144,-8.4374,-27.5016,-1.92656,91.3077
2023-03-11 16:04:08:466,-0.194549,4.57185,-8.5434,-27.3922,-1.95353,91.2694
2023-03-11 16:04:08:476,-0.215647,4.69539,-8.74879,-27.2888,-1.97534,91.2408
2023-03-11 16:04:08:486,-0.251546,4.80973,-8.95228,-27.185,-1.99752,91.2174
2023-03-11 16:04:08:496,-0.267959,4.86551,-9.00441,-27.0648,-2.02606,91.1946
2023-03-11 16:04:08:506,-0.251792,4.80095,-8.91613,-26.9234,-2.0515,91.1755
2023-03-11 16:04:08:516,-0.244854,4.68479,-8.77059,-26.7647,-2.07844,91.1538
2023-03-11 16:04:08:526,-0.247785,4.6001,-8.66131,-26.601,-2.10427,91.1392
2023-03-11 16:04:08:536,-0.275819,4.59068,-8.65326,-26.449,-2.13138,91.1302
2023-03-11 16:04:08:547,-0.296319,4.63516,-8.75699,-26.3055,-2.16101,91.1246
2023-03-11 16:04:08:556,-0.327304,4.75081,-8.94731,-26.1711,-2.18622,91.1264
2023-03-11 16:04:08:566,-0.347177,4.89178,-9.17901,-26.0287,-2.20675,91.1302
2023-03-11 16:04:08:576,-0.378294,4.96876,-9.30965,-25.8674,-2.22426,91.1395
2023-03-11 16:04:08:586,-0.420697,4.94235,-9.28075,-25.6809,-2.23876,91.1473
2023-03-11 16:04:08:597,-0.435514,4.85074,-9.17375,-25.4612,-2.25045,91.1596
2023-03-11 16:04:08:606,-0.416036,4.78706,-9.10627,-25.222,-2.2536,91.1689
2023-03-11 16:04:08:616,-0.412133,4.82579,-9.1875,-24.9702,-2.25288,91.1797
2023-03-11 16:04:08:632,-0.433584,4.9307,-9.33616,-24.7002,-2.25476,91.1937
2023-03-11 16:04:08:637,-0.467446,4.9909,-9.43901,-24.4049,-2.2669,91.2101
2023-03-11 16:04:08:647,-0.489939,5.04853,-9.5629,-24.0848,-2.27932,91.2237
2023-03-11 16:04:08:657,-0.495326,5.10429,-9.71155,-23.735,-2.29205,91.234
2023-03-11 16:04:08:667,-0.530245,5.0073,-9.68733,-23.3327,-2.30262,91.2402
2023-03-11 16:04:08:677,-0.549599,4.78088,-9.50274,-22.8767,-2.31149,91.2423
2023-03-11 16:04:08:687,-0.524505,4.55385,-9.2903,-22.3831,-2.32044,91.2375
2023-03-11 16:04:08:697,-0.468124,4.42305,-9.23681,-21.8658,-2.32922,91.2325
2023-03-11 16:04:08:706,-0.451012,4.53844,-9.535,-21.3469,-2.34182,91.2254
2023-03-11 16:04:08:716,-0.501077,4.76537,-9.91785,-20.8151,-2.3636,91.2192
2023-03-11 16:04:08:726,-0.552341,4.73738,-9.96894,-20.2271,-2.39439,91.2088
2023-03-11 16:04:08:736,-0.545026,4.50907,-9.81214,-19.5721,-2.42945,91.1868
2023-03-11 16:04:08:747,-0.51241,4.24228,-9.59479,-18.8617,-2.4609,91.161
2023-03-11 16:04:08:756,-0.471972,4.01266,-9.47443,-18.1063,-2.48126,91.1259
2023-03-11 16:04:08:767,-0.440275,3.96159,-9.49715,-17.3274,-2.50009,91.0872
2023-03-11 16:04:08:776,-0.442794,3.90502,-9.47241,-16.5184,-2.52167,91.0429
2023-03-11 16:04:08:787,-0.460046,3.89033,-9.55623,-15.6837,-2.55171,90.9929
2023-03-11 16:04:08:796,-0.513632,3.89348,-9.64439,-14.826,-2.5815,90.942
2023-03-11 16:04:08:806,-0.570956,3.64401,-9.50344,-13.9166,-2.61692,90.8873
2023-03-11 16:04:08:816,-0.580981,3.31268,-9.23208,-12.9577,-2.64484,90.8222
2023-03-11 16:04:08:826,-0.509878,3.08492,-9.01938,-11.975,-2.66594,90.7475
2023-03-11 16:04:08:836,-0.415123,2.98571,-9.09128,-10.9949,-2.68387,90.665
2023-03-11 16:04:08:846,-0.383399,2.87166,-9.32574,-10.0129,-2.70928,90.5767
2023-03-11 16:04:08:856,-0.406688,2.67897,-9.49617,-9.01458,-2.73589,90.4894
2023-03-11 16:04:08:866,-0.439477,2.33968,-9.48535,-7.98738,-2.77076,90.4038
2023-03-11 16:04:08:876,-0.426421,1.86495,-9.32575,-6.91876,-2.79109,90.3134
2023-03-11 16:04:08:886,-0.331503,1.42342,-9.12927,-5.83248,-2.79284,90.2286
2023-03-11 16:04:08:896,-0.227467,1.03328,-8.99392,-4.73891,-2.7825,90.1464
2023-03-11 16:04:08:906,-0.167292,0.748074,-8.98248,-3.65709,-2.77381,90.0707
2023-03-11 16:04:08:916,-0.197769,0.556376,-9.01277,-2.59413,-2.77416,90.0021
2023-03-11 16:04:08:927,-0.30341,0.350371,-8.93062,-1.54335,-2.78766,89.9436
2023-03-11 16:04:08:936,-0.410184,0.088396,-8.77683,-0.503877,-2.80185,89.894
2023-03-11 16:04:08:946,-0.43939,-0.151567,-8.65294,0.521311,-2.81007,89.8474
2023-03-11 16:04:08:956,-0.427586,-0.313465,-8.60632,1.52419,-2.81058,89.8072
2023-03-11 16:04:08:966,-0.385884,-0.439913,-8.63201,2.50083,-2.80844,89.7672
2023-03-11 16:04:08:976,-0.347555,-0.580717,-8.67877,3.45169,-2.79979,89.7309
2023-03-11 16:04:08:986,-0.31877,-0.720061,-8.7329,4.38507,-2.78382,89.6931
2023-03-11 16:04:08:996,-0.282161,-0.842616,-8.83541,5.30023,-2.77288,89.6612
2023-03-11 16:04:09:6,-0.243068,-0.949638,-9.00253,6.20214,-2.76675,89.6292
2023-03-11 16:04:09:16,-0.203339,-1.02908,-9.19051,7.08642,-2.76684,89.6013
2023-03-11 16:04:09:26,-0.202923,-1.13145,-9.40716,7.9645,-2.77498,89.5762
2023-03-11 16:04:09:36,-0.240562,-1.29297,-9.5672,8.84976,-2.79121,89.5567
2023-03-11 16:04:09:47,-0.308969,-1.48362,-9.62543,9.74998,-2.8201,89.5382
2023-03-11 16:04:09:56,-0.397957,-1.68857,-9.56318,10.6644,-2.85697,89.5243
2023-03-11 16:04:09:66,-0.447552,-1.92487,-9.43146,11.5914,-2.89721,89.5117
2023-03-11 16:04:09:76,-0.438119,-2.1776,-9.25963,12.5251,-2.93462,89.5007
2023-03-11 16:04:09:86,-0.460133,-2.43446,-9.11284,13.4569,-2.97443,89.4849
2023-03-11 16:04:09:96,-0.336549,-2.71229,-8.991,14.3839,-3.0073,89.4687
2023-03-11 16:04:09:106,-0.514477,-2.925,-8.83859,15.2865,-3.06367,89.4532
2023-03-11 16:04:09:116,-0.635816,-3.12204,-8.86028,16.1539,-3.12853,89.4141
2023-03-11 16:04:09:126,-0.399702,-3.19135,-9.09611,16.994,-3.17848,89.3726
2023-03-11 16:04:09:136,-0.252121,-3.33305,-9.16171,17.8257,-3.21747,89.3403
2023-03-11 16:04:09:146,-0.381973,-3.5416,-8.9724,18.6615,-3.27207,89.3105
2023-03-11 16:04:09:156,-0.527223,-3.7253,-8.82194,19.4892,-3.32686,89.2881
2023-03-11 16:04:09:167,-0.521681,-3.93451,-8.69394,20.3153,-3.37866,89.2649
2023-03-11 16:04:09:176,-0.476807,-4.1221,-8.61288,21.1289,-3.41533,89.2512
2023-03-11 16:04:09:186,-0.481669,-4.28829,-8.53945,21.9295,-3.44271,89.2424
2023-03-11 16:04:09:197,-0.494571,-4.43485,-8.40572,22.7126,-3.47553,89.2359
2023-03-11 16:04:09:207,-0.506845,-4.57642,-8.26936,23.4746,-3.51218,89.2274
2023-03-11 16:04:09:217,-0.537053,-4.72754,-8.17447,24.2127,-3.55008,89.2165
2023-03-11 16:04:09:227,-0.581785,-4.85493,-8.10958,24.9216,-3.59477,89.2031
2023-03-11 16:04:09:237,-0.636271,-4.94784,-8.10643,25.5989,-3.64257,89.1745
2023-03-11 16:04:09:247,-0.679781,-4.97395,-8.17174,26.242,-3.6885,89.1383
2023-03-11 16:04:09:256,-0.700026,-4.97372,-8.22436,26.8562,-3.73357,89.0871
2023-03-11 16:04:09:267,-0.729012,-5.02441,-8.20506,27.4518,-3.78214,89.0248
2023-03-11 16:04:09:276,-0.771448,-5.11592,-8.09347,28.0403,-3.82727,88.9438
2023-03-11 16:04:09:287,-0.820554,-5.21581,-7.96537,28.616,-3.87081,88.8526
2023-03-11 16:04:09:297,-0.848052,-5.29418,-7.88759,29.1777,-3.90567,88.7519
2023-03-11 16:04:09:307,-0.80706,-5.31636,-7.86616,29.7115,-3.93209,88.6412
2023-03-11 16:04:09:316,-0.734478,-5.31662,-7.85084,30.2268,-3.9524,88.5269
2023-03-11 16:04:09:327,-0.688825,-5.33224,-7.76903,30.7191,-3.96805,88.4096
2023-03-11 16:04:09:336,-0.694429,-5.36176,-7.63687,31.1987,-3.98186,88.2921
2023-03-11 16:04:09:347,-0.73616,-5.41963,-7.51993,31.6592,-4.00073,88.1786
2023-03-11 16:04:09:356,-0.797634,-5.5264,-7.47266,32.1011,-4.02017,88.074
2023-03-11 16:04:09:366,-0.850904,-5.61482,-7.53001,32.52,-4.03433,87.9815
2023-03-11 16:04:09:376,-0.878266,-5.66193,-7.64878,32.9215,-4.04093,87.8923
2023-03-11 16:04:09:386,-0.82147,-5.78809,-7.72113,33.3043,-4.03298,87.8047
2023-03-11 16:04:09:397,-0.696737,-5.97077,-7.7345,33.6836,-4.01578,87.7172
2023-03-11 16:04:09:407,-0.590638,-6.14399,-7.73741,34.0545,-3.98882,87.6355
2023-03-11 16:04:09:416,-0.574378,-6.24932,-7.72643,34.4054,-3.96438,87.5543
2023-03-11 16:04:09:427,-0.629795,-6.27805,-7.6852,34.7395,-3.9402,87.4793
2023-03-11 16:04:09:436,-0.716364,-6.27228,-7.60853,35.0547,-3.92268,87.4065
2023-03-11 16:04:09:447,-0.783048,-6.29422,-7.54929,35.3568,-3.90967,87.3351
2023-03-11 16:04:09:457,-0.795835,-6.3134,-7.50987,35.6451,-3.89093,87.2689
2023-03-11 16:04:09:467,-0.750066,-6.33434,-7.48363,35.9194,-3.8663,87.2044
2023-03-11 16:04:09:476,-0.693581,-6.36711,-7.46375,36.1756,-3.83703,87.1502
2023-03-11 16:04:09:487,-0.651135,-6.39056,-7.41993,36.4176,-3.80783,87.1008
2023-03-11 16:04:09:497,-0.624837,-6.41651,-7.36571,36.6425,-3.77334,87.063
2023-03-11 16:04:09:506,-0.629046,-6.44638,-7.34044,36.8518,-3.74193,87.0313
2023-03-11 16:04:09:517,-0.68915,-6.41287,-7.32635,37.0437,-3.71016,87.0102
2023-03-11 16:04:09:526,-0.754062,-6.36725,-7.35357,37.212,-3.67533,86.9937
2023-03-11 16:04:09:536,-0.800856,-6.31426,-7.37266,37.3582,-3.6427,86.981
2023-03-11 16:04:09:547,-0.821677,-6.32323,-7.40113,37.4941,-3.60767,86.9624
2023-03-11 16:04:09:556,-0.794275,-6.3394,-7.42974,37.6271,-3.56633,86.9436
2023-03-11 16:04:09:567,-0.738261,-6.37419,-7.45392,37.7478,-3.51934,86.9201
2023-03-11 16:04:09:576,-0.633026,-6.46357,-7.44808,37.8639,-3.46886,86.8955
2023-03-11 16:04:09:586,-0.513949,-6.56437,-7.39582,37.9735,-3.41447,86.8597
2023-03-11 16:04:09:596,-0.458239,-6.65767,-7.33507,38.0684,-3.36773,86.819
2023-03-11 16:04:09:607,-0.459308,-6.70681,-7.31444,38.1467,-3.32942,86.7777
2023-03-11 16:04:09:616,-0.529561,-6.71841,-7.28574,38.2051,-3.29692,86.7369
2023-03-11 16:04:09:627,-0.52261,-6.75338,-7.25699,38.2418,-3.26424,86.699
2023-03-11 16:04:09:636,-0.467689,-6.81627,-7.23428,38.2642,-3.23517,86.6561
2023-03-11 16:04:09:646,-0.443188,-6.86067,-7.26491,38.2622,-3.20794,86.6164
2023-03-11 16:04:09:656,-0.416503,-6.91714,-7.24947,38.2401,-3.18068,86.5833
2023-03-11 16:04:09:667,-0.41305,-6.99688,-7.14329,38.2052,-3.15863,86.5511
2023-03-11 16:04:09:676,-0.439808,-7.05143,-7.03171,38.1429,-3.14303,86.5231
2023-03-11 16:04:09:687,-0.460909,-7.06162,-6.99005,38.0455,-3.13534,86.5004
2023-03-11 16:04:09:696,-0.43927,-7.01304,-6.98095,37.9131,-3.12786,86.4873
2023-03-11 16:04:09:707,-0.39093,-6.96009,-6.98992,37.7407,-3.12457,86.4778
2023-03-11 16:04:09:716,-0.376893,-6.92391,-7.0088,37.5336,-3.12667,86.4757
2023-03-11 16:04:09:727,-0.402061,-6.91754,-7.01287,37.3013,-3.1328,86.4841
2023-03-11 16:04:09:736,-0.3863,-6.91656,-6.9796,37.0389,-3.14549,86.5021
2023-03-11 16:04:09:747,-0.335117,-6.94173,-6.93067,36.7468,-3.15955,86.5281
2023-03-11 16:04:09:756,-0.274282,-6.91505,-6.93656,36.4092,-3.17682,86.5594
2023-03-11 16:04:09:766,-0.205115,-6.81873,-7.01949,36.0183,-3.20341,86.6004
2023-03-11 16:04:09:776,-0.198327,-6.68829,-7.12288,35.5785,-3.24541,86.6482
2023-03-11 16:04:09:786,-0.278524,-6.53318,-7.22368,35.0958,-3.29944,86.7104
2023-03-11 16:04:09:796,-0.406164,-6.35578,-7.28095,34.5717,-3.36815,86.7859
2023-03-11 16:04:09:806,-0.511115,-6.17184,-7.32192,34.0054,-3.44498,86.8745
2023-03-11 16:04:09:816,-0.536462,-6.00286,-7.3445,33.4044,-3.52289,86.973
2023-03-11 16:04:09:827,-0.438975,-5.90062,-7.39804,32.773,-3.59744,87.0852
2023-03-11 16:04:09:837,-0.227029,-5.8234,-7.46086,32.1081,-3.67038,87.2022
2023-03-11 16:04:09:846,-0.00937439,-5.74056,-7.56304,31.4072,-3.75074,87.3162
2023-03-11 16:04:09:856,0.14041,-5.63014,-7.65094,30.6678,-3.85261,87.4282
2023-03-11 16:04:09:867,0.224497,-5.47222,-7.71932,29.8852,-3.9845,87.5375
2023-03-11 16:04:09:876,0.284518,-5.3186,-7.78288,29.0621,-4.1495,87.6412
2023-03-11 16:04:09:887,0.110671,-5.12375,-7.821,28.1917,-4.35798,87.7474
2023-03-11 16:04:09:897,-0.322429,-4.84374,-7.89126,27.2703,-4.60437,87.8594
