Timestamp,Acceleration_x,Acceleration_y,Acceleration_z,roll,pitch,yaw
2023-03-14 22:33:40:54,-0.125888,1.74073,-9.60312,-10.7635,-1.04442,21.8387
2023-03-14 22:33:40:62,-0.171686,1.73035,-9.59423,-10.7885,-1.03797,21.8791
2023-03-14 22:33:40:72,-0.252043,1.74191,-9.6294,-10.8114,-1.03271,21.9246
2023-03-14 22:33:40:82,-0.31569,1.79176,-9.68985,-10.8401,-1.03169,21.9669
2023-03-14 22:33:40:92,-0.362775,1.78562,-9.75523,-10.8694,-1.03529,22.0032
2023-03-14 22:33:40:102,-0.390766,1.78382,-9.78999,-10.8971,-1.04354,22.0309
2023-03-14 22:33:40:112,-0.407589,1.79896,-9.81172,-10.9172,-1.04981,22.0482
2023-03-14 22:33:40:122,-0.39091,1.78038,-9.75727,-10.9298,-1.05362,22.0544
2023-03-14 22:33:40:132,-0.320225,1.72826,-9.63861,-10.933,-1.05021,22.0486
2023-03-14 22:33:40:142,-0.165499,1.70261,-9.56332,-10.9342,-1.04544,22.0329
2023-03-14 22:33:40:152,0.0139237,1.6956,-9.53788,-10.9339,-1.02796,22.0091
2023-03-14 22:33:40:162,0.181668,1.65096,-9.51377,-10.9271,-1.0052,21.987
2023-03-14 22:33:40:172,0.266576,1.64689,-9.47624,-10.9236,-0.987354,21.9773
2023-03-14 22:33:40:182,0.24977,1.65867,-9.45487,-10.9341,-0.970885,21.9764
2023-03-14 22:33:40:192,0.120198,1.73958,-9.48524,-10.956,-0.969697,21.9892
2023-03-14 22:33:40:202,-0.0391456,1.84072,-9.5336,-10.9872,-0.981694,22.0068
2023-03-14 22:33:40:212,-0.0816418,1.8855,-9.55513,-11.0154,-0.996892,22.0199
2023-03-14 22:33:40:222,0.0422429,1.86866,-9.52152,-11.0351,-1.00744,22.0257
2023-03-14 22:33:40:232,0.187485,1.81986,-9.46558,-11.0473,-1.01073,22.0274
2023-03-14 22:33:40:242,0.306974,1.77392,-9.43081,-11.0614,-1.00826,22.0307
2023-03-14 22:33:40:252,0.359849,1.78327,-9.41825,-11.0816,-1.00867,22.0462
2023-03-14 22:33:40:262,0.178739,1.82136,-9.39546,-11.119,-1.0177,22.0726
2023-03-14 22:33:40:272,0.0764103,1.91647,-9.4279,-11.1721,-1.03123,22.1063
2023-03-14 22:33:40:282,0.083086,2.00243,-9.51893,-11.2362,-1.05174,22.1447
2023-03-14 22:33:40:292,0.0478991,2.05414,-9.57953,-11.3053,-1.06791,22.1911
2023-03-14 22:33:40:302,0.13293,2.1153,-9.67811,-11.3827,-1.0864,22.2467
2023-03-14 22:33:40:312,0.079752,2.17341,-9.71892,-11.4563,-1.10532,22.3168
2023-03-14 22:33:40:322,-0.235168,2.15826,-9.62807,-11.5174,-1.13541,22.4067
2023-03-14 22:33:40:332,-0.300016,2.20112,-9.62818,-11.581,-1.17095,22.4996
2023-03-14 22:33:40:342,-0.297733,2.21371,-9.69052,-11.6439,-1.20888,22.5941
2023-03-14 22:33:40:352,-0.362404,2.21651,-9.69789,-11.7009,-1.24703,22.6864
2023-03-14 22:33:40:362,-0.431236,2.25012,-9.72226,-11.7577,-1.28422,22.7791
2023-03-14 22:33:40:372,-0.521496,2.26037,-9.74912,-11.8114,-1.32418,22.8721
2023-03-14 22:33:40:382,-0.612307,2.27412,-9.74905,-11.8574,-1.36232,22.9571
2023-03-14 22:33:40:392,-0.652219,2.30159,-9.76136,-11.8916,-1.39602,23.0334
2023-03-14 22:33:40:402,-0.667367,2.29615,-9.74827,-11.912,-1.41894,23.0996
2023-03-14 22:33:40:412,-0.659869,2.2231,-9.6876,-11.9186,-1.43361,23.1556
2023-03-14 22:33:40:422,-0.613297,2.19822,-9.66329,-11.9194,-1.44557,23.1958
2023-03-14 22:33:40:432,-0.541152,2.18976,-9.71464,-11.9141,-1.44226,23.2315
2023-03-14 22:33:40:442,-0.487085,2.1477,-9.69317,-11.8918,-1.42989,23.2546
2023-03-14 22:33:40:452,-0.482201,2.0972,-9.66139,-11.8663,-1.41782,23.2781
2023-03-14 22:33:40:462,-0.478593,2.07913,-9.63455,-11.8363,-1.40523,23.2981
2023-03-14 22:33:40:472,-0.423502,2.03213,-9.62021,-11.8036,-1.3916,23.3076
2023-03-14 22:33:40:482,-0.364757,1.96202,-9.57721,-11.7636,-1.37721,23.3134
2023-03-14 22:33:40:492,-0.296213,1.92894,-9.51462,-11.7221,-1.35949,23.3159
2023-03-14 22:33:40:502,-0.243853,1.87889,-9.50128,-11.6778,-1.33758,23.3167
2023-03-14 22:33:40:512,-0.180239,1.84899,-9.47217,-11.6369,-1.31598,23.3162
2023-03-14 22:33:40:522,-0.149008,1.83951,-9.46652,-11.6002,-1.29454,23.3139
2023-03-14 22:33:40:532,-0.10183,1.81965,-9.46595,-11.5714,-1.27292,23.3117
2023-03-14 22:33:40:542,-0.0863614,1.82405,-9.44771,-11.5495,-1.25273,23.3142
2023-03-14 22:33:40:552,-0.0925111,1.85894,-9.45593,-11.5389,-1.23855,23.3203
2023-03-14 22:33:40:562,-0.103623,1.88473,-9.479,-11.5296,-1.22668,23.3261
2023-03-14 22:33:40:572,-0.0930616,1.89122,-9.47013,-11.5263,-1.21469,23.3344
2023-03-14 22:33:40:582,-0.114084,1.88795,-9.45561,-11.5267,-1.201,23.3465
2023-03-14 22:33:40:592,-0.119027,1.89163,-9.45687,-11.5323,-1.19032,23.3596
2023-03-14 22:33:40:602,-0.120793,1.90783,-9.47577,-11.5408,-1.18041,23.3771
2023-03-14 22:33:40:612,-0.127529,1.92504,-9.46961,-11.5548,-1.17349,23.3952
2023-03-14 22:33:40:622,-0.171363,1.92688,-9.47941,-11.578,-1.18086,23.4123
2023-03-14 22:33:40:632,-0.225639,1.97227,-9.50472,-11.6098,-1.19295,23.4283
2023-03-14 22:33:40:642,-0.277931,2.00587,-9.51124,-11.643,-1.20564,23.4434
2023-03-14 22:33:40:652,-0.285336,2.01908,-9.53291,-11.6795,-1.21358,23.455
2023-03-14 22:33:40:662,-0.259526,2.03053,-9.54704,-11.7099,-1.21618,23.4625
2023-03-14 22:33:40:672,-0.238434,2.03548,-9.5623,-11.7407,-1.2124,23.4656
2023-03-14 22:33:40:682,-0.231548,2.02189,-9.57683,-11.7799,-1.20782,23.4675
2023-03-14 22:33:40:692,-0.17829,2.04676,-9.63968,-11.8224,-1.20891,23.4695
2023-03-14 22:33:40:702,-0.147697,2.11253,-9.69949,-11.8647,-1.21064,23.4676
2023-03-14 22:33:40:712,-0.331575,2.0685,-9.5976,-11.8975,-1.21597,23.471
2023-03-14 22:33:40:722,-0.303151,2.05437,-9.55068,-11.9327,-1.21989,23.4768
2023-03-14 22:33:40:732,-0.277587,2.0605,-9.55788,-11.966,-1.21975,23.4779
2023-03-14 22:33:40:742,-0.237117,2.07747,-9.58467,-11.9984,-1.21431,23.4759
2023-03-14 22:33:40:752,-0.200834,2.08942,-9.62772,-12.032,-1.20989,23.4761
2023-03-14 22:33:40:762,-0.189689,2.08696,-9.63562,-12.0639,-1.20996,23.4748
2023-03-14 22:33:40:772,-0.195408,2.07727,-9.62293,-12.0916,-1.20444,23.4738
2023-03-14 22:33:40:782,-0.23908,2.05428,-9.57659,-12.1112,-1.20014,23.4758
2023-03-14 22:33:40:792,-0.241386,2.04214,-9.56076,-12.1293,-1.19415,23.4791
2023-03-14 22:33:40:802,-0.20549,2.02984,-9.53567,-12.1423,-1.18417,23.4766
2023-03-14 22:33:40:812,-0.174047,2.02631,-9.52827,-12.1549,-1.173,23.4764
2023-03-14 22:33:40:822,-0.149787,2.05016,-9.55558,-12.1728,-1.16503,23.4777
2023-03-14 22:33:40:832,-0.148547,2.09914,-9.59666,-12.1942,-1.15681,23.4769
2023-03-14 22:33:40:842,-0.178941,2.12414,-9.60727,-12.209,-1.15324,23.4759
2023-03-14 22:33:40:852,-0.159345,2.11671,-9.57359,-12.2239,-1.15285,23.4694
2023-03-14 22:33:40:862,-0.139252,2.07687,-9.54333,-12.2317,-1.14614,23.4611
2023-03-14 22:33:40:872,-0.105687,2.07144,-9.5219,-12.2404,-1.13298,23.4479
2023-03-14 22:33:40:882,-0.0833276,2.07394,-9.53092,-12.2534,-1.11782,23.4352
2023-03-14 22:33:40:892,-0.0560164,2.07988,-9.54162,-12.2684,-1.10427,23.4266
2023-03-14 22:33:40:902,-0.0345952,2.10476,-9.56055,-12.2887,-1.09254,23.4183
2023-03-14 22:33:40:912,-0.0357588,2.10996,-9.56121,-12.3056,-1.0817,23.4126
2023-03-14 22:33:40:922,-0.0492708,2.10745,-9.57445,-12.3235,-1.07175,23.4147
2023-03-14 22:33:40:932,-0.0801046,2.115,-9.56159,-12.3441,-1.06813,23.4193
2023-03-14 22:33:40:942,-0.104037,2.12317,-9.54986,-12.3658,-1.06898,23.4274
2023-03-14 22:33:40:952,-0.112739,2.13263,-9.55501,-12.3848,-1.07082,23.4388
2023-03-14 22:33:40:962,-0.150449,2.13699,-9.55011,-12.4078,-1.07275,23.4523
2023-03-14 22:33:40:972,-0.193766,2.14612,-9.54865,-12.4291,-1.08188,23.4624
2023-03-14 22:33:40:982,-0.206603,2.16632,-9.54829,-12.4501,-1.09139,23.472
2023-03-14 22:33:40:992,-0.231193,2.18035,-9.57749,-12.4695,-1.09566,23.4778
2023-03-14 22:33:41:2,-0.251513,2.19262,-9.58627,-12.4837,-1.09933,23.4818
2023-03-14 22:33:41:12,-0.242757,2.19067,-9.58927,-12.4954,-1.10621,23.4814
2023-03-14 22:33:41:22,-0.21859,2.18281,-9.60085,-12.5046,-1.11503,23.4776
2023-03-14 22:33:41:32,-0.21308,2.16642,-9.58702,-12.5129,-1.12219,23.4745
2023-03-14 22:33:41:42,-0.220607,2.17371,-9.56612,-12.5219,-1.12581,23.4697
2023-03-14 22:33:41:52,-0.224039,2.17624,-9.56034,-12.5276,-1.12634,23.4651
2023-03-14 22:33:41:62,-0.219168,2.17501,-9.54366,-12.5281,-1.13059,23.4594
2023-03-14 22:33:41:72,-0.179877,2.15821,-9.51964,-12.5267,-1.13328,23.4516
2023-03-14 22:33:41:82,-0.136352,2.14099,-9.50978,-12.5284,-1.13207,23.4406
2023-03-14 22:33:41:92,-0.121174,2.12846,-9.51353,-12.5274,-1.13139,23.4299
2023-03-14 22:33:41:102,-0.118194,2.13476,-9.51823,-12.5311,-1.13194,23.4128
2023-03-14 22:33:41:112,-0.150189,2.13145,-9.52964,-12.5391,-1.13678,23.4001
2023-03-14 22:33:41:122,-0.216303,2.126,-9.56731,-12.5475,-1.1452,23.3857
2023-03-14 22:33:41:132,-0.249306,2.15071,-9.58316,-12.5609,-1.15921,23.3718
2023-03-14 22:33:41:142,-0.208618,2.14965,-9.62894,-12.5728,-1.17372,23.3546
2023-03-14 22:33:41:152,-0.108845,2.19642,-9.69336,-12.5866,-1.18184,23.3357
2023-03-14 22:33:41:162,-0.272124,2.1395,-9.60047,-12.5861,-1.18935,23.326
2023-03-14 22:33:41:172,-0.317275,2.09511,-9.53348,-12.585,-1.1965,23.3238
2023-03-14 22:33:41:182,-0.303008,2.1158,-9.52269,-12.5829,-1.20268,23.3194
2023-03-14 22:33:41:192,-0.313095,2.13531,-9.48844,-12.585,-1.20562,23.3121
2023-03-14 22:33:41:202,-0.289018,2.14599,-9.47592,-12.5877,-1.20431,23.3037
2023-03-14 22:33:41:212,-0.232511,2.146,-9.45744,-12.5858,-1.20549,23.2929
2023-03-14 22:33:41:222,-0.168166,2.12572,-9.41922,-12.5802,-1.20382,23.2783
2023-03-14 22:33:41:232,-0.129292,2.12907,-9.42467,-12.5743,-1.19566,23.2683
2023-03-14 22:33:41:242,-0.171852,2.13026,-9.39234,-12.5698,-1.18313,23.2601
2023-03-14 22:33:41:252,-0.0251065,2.16109,-9.43647,-12.5704,-1.16891,23.2493
2023-03-14 22:33:41:262,0.0446631,2.17582,-9.49513,-12.5791,-1.15322,23.2341
2023-03-14 22:33:41:272,-0.0423335,2.12371,-9.43715,-12.5832,-1.14052,23.2264
2023-03-14 22:33:41:282,-0.0700316,2.09228,-9.43597,-12.5922,-1.12452,23.2225
2023-03-14 22:33:41:292,-0.0975248,2.10236,-9.46861,-12.6111,-1.11077,23.2198
2023-03-14 22:33:41:302,-0.070405,2.15124,-9.5563,-12.639,-1.10475,23.2191
2023-03-14 22:33:41:312,-0.0141558,2.25813,-9.69214,-12.677,-1.10046,23.2197
2023-03-14 22:33:41:322,-0.152202,2.27222,-9.70627,-12.7081,-1.09635,23.232
2023-03-14 22:33:41:332,-0.231325,2.2965,-9.68308,-12.7377,-1.09163,23.2556
2023-03-14 22:33:41:342,-0.285513,2.33746,-9.70148,-12.7637,-1.09028,23.2853
2023-03-14 22:33:41:352,-0.288325,2.31111,-9.66772,-12.7804,-1.09656,23.3146
2023-03-14 22:33:41:362,-0.23121,2.2642,-9.64081,-12.7913,-1.10261,23.3392
2023-03-14 22:33:41:372,-0.215684,2.25395,-9.6608,-12.7953,-1.11487,23.3682
2023-03-14 22:33:41:382,-0.350159,2.23309,-9.64493,-12.7948,-1.13446,23.4006
2023-03-14 22:33:41:392,-0.427421,2.21203,-9.61602,-12.791,-1.15881,23.4294
2023-03-14 22:33:41:402,-0.370951,2.16309,-9.63381,-12.7831,-1.18102,23.4502
2023-03-14 22:33:41:412,-0.301089,2.09051,-9.58962,-12.7699,-1.20524,23.4643
2023-03-14 22:33:41:422,-0.286443,2.05336,-9.53261,-12.7552,-1.21938,23.4818
2023-03-14 22:33:41:432,-0.465178,2.13674,-9.54262,-12.7401,-1.22395,23.4986
2023-03-14 22:33:41:442,-0.423356,2.10119,-9.53897,-12.7233,-1.22307,23.4945
2023-03-14 22:33:41:452,-0.23015,2.01638,-9.44496,-12.6972,-1.21921,23.4721
2023-03-14 22:33:41:462,-0.124461,1.95442,-9.39771,-12.6694,-1.20641,23.4473
2023-03-14 22:33:41:472,-0.00843765,1.89959,-9.39337,-12.6423,-1.1793,23.4241
2023-03-14 22:33:41:482,0.122752,1.86618,-9.40917,-12.6278,-1.15402,23.4029
2023-03-14 22:33:41:492,0.18554,1.89489,-9.44268,-12.6281,-1.1283,23.3886
2023-03-14 22:33:41:502,0.18987,1.96309,-9.51781,-12.6398,-1.10025,23.3861
2023-03-14 22:33:41:512,0.189458,2.01526,-9.55215,-12.6583,-1.07671,23.3981
2023-03-14 22:33:41:522,0.154445,1.98533,-9.47146,-12.6801,-1.06442,23.4158
2023-03-14 22:33:41:532,0.0261295,1.99447,-9.38065,-12.7064,-1.06593,23.4487
2023-03-14 22:33:41:542,-0.0539091,2.03936,-9.38767,-12.7438,-1.0702,23.4876
2023-03-14 22:33:41:552,-0.0386063,2.03954,-9.38539,-12.7843,-1.07008,23.5302
2023-03-14 22:33:41:562,0.0197258,2.05274,-9.38177,-12.8288,-1.06339,23.5737
2023-03-14 22:33:41:572,0.0469569,2.08585,-9.44585,-12.8781,-1.05908,23.6262
2023-03-14 22:33:41:582,-0.05476,2.20871,-9.56917,-12.9344,-1.0604,23.6886
2023-03-14 22:33:41:592,-0.24473,2.33703,-9.63486,-12.997,-1.06953,23.7578
2023-03-14 22:33:41:602,-0.368296,2.43149,-9.636,-13.056,-1.08329,23.8224
2023-03-14 22:33:41:612,-0.448729,2.42889,-9.56243,-13.1014,-1.09223,23.8825
2023-03-14 22:33:41:622,-0.551804,2.35715,-9.41053,-13.133,-1.08703,23.9436
2023-03-14 22:33:41:632,-0.565893,2.2968,-9.28819,-13.1567,-1.06963,23.9954
2023-03-14 22:33:41:642,-0.478531,2.26355,-9.26992,-13.187,-1.03768,24.0377
2023-03-14 22:33:41:652,-0.344312,2.27646,-9.34929,-13.2291,-1.00099,24.0691
2023-03-14 22:33:41:662,-0.268294,2.32608,-9.44764,-13.285,-0.970411,24.095
2023-03-14 22:33:41:672,-0.261536,2.39318,-9.53188,-13.3477,-0.944884,24.1161
2023-03-14 22:33:41:682,-0.271166,2.44835,-9.57077,-13.4143,-0.925292,24.1316
2023-03-14 22:33:41:692,-0.265918,2.44588,-9.55904,-13.4782,-0.913102,24.14
2023-03-14 22:33:41:702,-0.152459,2.2053,-9.29437,-13.5402,-0.903656,24.1466
2023-03-14 22:33:41:712,-0.258488,2.47603,-9.50725,-13.6188,-0.878613,24.1635
2023-03-14 22:33:41:722,-0.370646,2.56491,-9.70041,-13.696,-0.875008,24.1648
2023-03-14 22:33:41:732,-0.18853,2.46248,-9.55263,-13.757,-0.882245,24.1478
2023-03-14 22:33:41:742,-0.214476,2.53708,-9.62796,-13.8084,-0.880203,24.1292
2023-03-14 22:33:41:752,-0.229918,2.56545,-9.6699,-13.8477,-0.873048,24.1031
2023-03-14 22:33:41:762,-0.142312,2.55485,-9.67628,-13.8751,-0.863873,24.0691
2023-03-14 22:33:41:772,-0.0628464,2.5324,-9.66142,-13.8895,-0.85353,24.0313
2023-03-14 22:33:41:782,0.0248491,2.5119,-9.65241,-13.8989,-0.836517,23.9914
2023-03-14 22:33:41:792,0.0969715,2.47118,-9.62438,-13.9033,-0.820761,23.9525
2023-03-14 22:33:41:802,0.107095,2.44304,-9.59481,-13.9035,-0.810327,23.9145
2023-03-14 22:33:41:812,0.0426946,2.43821,-9.56287,-13.9033,-0.809476,23.8857
2023-03-14 22:33:41:822,-0.0784315,2.49259,-9.5945,-13.909,-0.812874,23.8646
2023-03-14 22:33:41:832,-0.216369,2.52963,-9.59674,-13.9132,-0.819424,23.8489
2023-03-14 22:33:41:842,-0.246469,2.53581,-9.58331,-13.918,-0.826407,23.8268
2023-03-14 22:33:41:853,-0.26909,2.5449,-9.58864,-13.9205,-0.833275,23.8022
2023-03-14 22:33:41:862,-0.266785,2.5847,-9.64665,-13.9144,-0.83511,23.777
2023-03-14 22:33:41:872,-0.225739,2.58045,-9.68998,-13.8996,-0.836152,23.7432
2023-03-14 22:33:41:882,-0.320185,2.48894,-9.59538,-13.8669,-0.83399,23.7091
2023-03-14 22:33:41:892,-0.348644,2.40274,-9.50351,-13.8257,-0.833035,23.6785
2023-03-14 22:33:41:902,-0.266389,2.34838,-9.49801,-13.7812,-0.826198,23.6406
2023-03-14 22:33:41:912,-0.188523,2.33245,-9.50945,-13.7414,-0.820141,23.5972
2023-03-14 22:33:41:922,-0.171241,2.32648,-9.50465,-13.6966,-0.81505,23.5527
2023-03-14 22:33:41:932,-0.19842,2.30995,-9.48488,-13.6502,-0.806018,23.5058
2023-03-14 22:33:41:942,-0.326753,2.24467,-9.44946,-13.5963,-0.796793,23.4632
2023-03-14 22:33:41:952,-0.184107,2.24275,-9.48729,-13.5524,-0.783649,23.4109
2023-03-14 22:33:41:962,-0.109017,2.25275,-9.51596,-13.5106,-0.763221,23.356
2023-03-14 22:33:41:972,-0.088658,2.25937,-9.52043,-13.4685,-0.740372,23.3012
2023-03-14 22:33:41:982,-0.0462111,2.22527,-9.50747,-13.4237,-0.719948,23.2432
2023-03-14 22:33:41:992,-0.0218557,2.19196,-9.47201,-13.3799,-0.699468,23.19
2023-03-14 22:33:42:2,0.0199016,2.17112,-9.42162,-13.34,-0.681553,23.1362
2023-03-14 22:33:42:13,0.0342761,2.15587,-9.38299,-13.3043,-0.662036,23.0836
2023-03-14 22:33:42:22,0.0262627,2.1718,-9.37617,-13.2742,-0.646199,23.0376
2023-03-14 22:33:42:32,0.0170541,2.17918,-9.38601,-13.2478,-0.629646,22.9972
2023-03-14 22:33:42:42,0.0394536,2.17937,-9.41335,-13.2253,-0.613603,22.9588
2023-03-14 22:33:42:52,0.0776709,2.17109,-9.42888,-13.2065,-0.594528,22.9235
2023-03-14 22:33:42:62,0.0857697,2.16073,-9.45212,-13.1937,-0.573356,22.897
2023-03-14 22:33:42:72,0.0410186,2.18462,-9.50202,-13.1881,-0.55344,22.8753
2023-03-14 22:33:42:82,-0.0145851,2.2152,-9.5674,-13.1827,-0.535228,22.8546
2023-03-14 22:33:42:92,-0.0127256,2.21801,-9.60769,-13.1749,-0.515109,22.8327
2023-03-14 22:33:42:102,0.0379346,2.19439,-9.59617,-13.1632,-0.500378,22.8036
2023-03-14 22:33:42:112,0.0583765,2.17182,-9.59172,-13.1495,-0.485888,22.7759
2023-03-14 22:33:42:122,0.0398488,2.19309,-9.5888,-13.139,-0.47569,22.7551
2023-03-14 22:33:42:132,0.0335862,2.19535,-9.60741,-13.1267,-0.47278,22.7373
2023-03-14 22:33:42:142,0.0172788,2.20102,-9.57781,-13.1156,-0.467659,22.7243
2023-03-14 22:33:42:152,-0.111424,2.11258,-9.44674,-13.0996,-0.466709,22.713
2023-03-14 22:33:42:162,0.0687429,2.08772,-9.48859,-13.0904,-0.462571,22.6986
2023-03-14 22:33:42:172,0.197281,2.10302,-9.56101,-13.085,-0.461354,22.6755
2023-03-14 22:33:42:182,0.166902,2.13982,-9.54863,-13.0797,-0.462326,22.6629
2023-03-14 22:33:42:192,0.093425,2.1349,-9.52649,-13.0758,-0.467045,22.6558
2023-03-14 22:33:42:202,0.0160807,2.12088,-9.46938,-13.0712,-0.475424,22.653
2023-03-14 22:33:42:212,0.00917318,2.09608,-9.40166,-13.0653,-0.476117,22.6476
2023-03-14 22:33:42:222,-0.0198696,2.0759,-9.38664,-13.0567,-0.47626,22.6439
2023-03-14 22:33:42:232,0.0407232,2.05696,-9.46452,-13.0551,-0.474008,22.6417
2023-03-14 22:33:42:242,0.0665186,2.08592,-9.62895,-13.0544,-0.470708,22.6416
2023-03-14 22:33:42:252,0.0267353,2.29289,-9.92084,-13.0635,-0.48023,22.645
2023-03-14 22:33:42:262,-0.0794766,2.47946,-10.0978,-13.0755,-0.512516,22.6504
2023-03-14 22:33:42:272,-0.217264,2.51511,-9.95999,-13.0671,-0.574603,22.6468
2023-03-14 22:33:42:282,-0.361887,2.40333,-9.67412,-13.0398,-0.658157,22.6271
2023-03-14 22:33:42:292,-0.435361,2.25415,-9.35716,-13.004,-0.754222,22.591
2023-03-14 22:33:42:302,-0.405912,2.14343,-9.16392,-12.9718,-0.858855,22.5356
2023-03-14 22:33:42:312,-0.367001,2.12303,-9.12916,-12.9563,-0.961241,22.4627
2023-03-14 22:33:42:322,-0.346387,2.16126,-9.225,-12.9565,-1.05581,22.3803
2023-03-14 22:33:42:332,-0.366715,2.22245,-9.36688,-12.9695,-1.14278,22.2931
2023-03-14 22:33:42:342,-0.38031,2.23454,-9.52165,-12.9758,-1.22003,22.203
2023-03-14 22:33:42:352,-0.344523,2.18655,-9.56244,-12.975,-1.28948,22.111
2023-03-14 22:33:42:362,-0.237161,2.12553,-9.52795,-12.9695,-1.34583,22.0232
2023-03-14 22:33:42:372,-0.0986324,2.11016,-9.48192,-12.9586,-1.38908,21.9365
2023-03-14 22:33:42:382,0.00701324,2.08317,-9.42185,-12.9409,-1.41633,21.856
2023-03-14 22:33:42:392,0.0314208,2.05051,-9.33438,-12.9248,-1.43787,21.7883
2023-03-14 22:33:42:402,0.0440051,2.05057,-9.27429,-12.9104,-1.45527,21.7402
2023-03-14 22:33:42:412,0.0331854,2.06706,-9.27759,-12.9074,-1.46218,21.7107
2023-03-14 22:33:42:422,0.0212108,2.0969,-9.3165,-12.914,-1.46697,21.6943
2023-03-14 22:33:42:432,-0.0256563,2.17107,-9.4149,-12.9345,-1.47998,21.6929
2023-03-14 22:33:42:442,-0.0405964,2.27928,-9.55057,-12.9657,-1.48889,21.7012
2023-03-14 22:33:42:452,-0.0506564,2.33556,-9.61308,-12.9952,-1.49605,21.7205
2023-03-14 22:33:42:462,-0.0551301,2.34551,-9.62282,-13.0184,-1.49984,21.7423
2023-03-14 22:33:42:472,-0.0585882,2.3147,-9.58335,-13.0367,-1.5029,21.7766
2023-03-14 22:33:42:482,-0.113195,2.28332,-9.54294,-13.0509,-1.50655,21.8187
2023-03-14 22:33:42:492,-0.230529,2.27334,-9.56211,-13.0705,-1.52193,21.869
2023-03-14 22:33:42:502,-0.370239,2.3227,-9.60927,-13.095,-1.54284,21.9249
2023-03-14 22:33:42:512,-0.46096,2.35458,-9.65872,-13.1164,-1.57274,21.9727
2023-03-14 22:33:42:522,-0.502758,2.37717,-9.68031,-13.1345,-1.59829,22.0128
2023-03-14 22:33:42:532,-0.454259,2.34653,-9.70542,-13.1409,-1.61023,22.0402
2023-03-14 22:33:42:542,-0.308549,2.31036,-9.68476,-13.1299,-1.61409,22.0548
2023-03-14 22:33:42:552,-0.184124,2.19139,-9.57695,-13.1056,-1.61141,22.0565
2023-03-14 22:33:42:562,-0.0223051,2.09471,-9.46178,-13.0792,-1.60638,22.0418
2023-03-14 22:33:42:573,0.0889147,2.08265,-9.46239,-13.06,-1.59966,22.0302
2023-03-14 22:33:42:582,0.132074,2.1378,-9.50703,-13.0487,-1.59376,22.0237
2023-03-14 22:33:42:593,0.126667,2.19206,-9.55115,-13.0482,-1.5983,22.0188
2023-03-14 22:33:42:602,0.0577971,2.21652,-9.55558,-13.0509,-1.60536,22.0227
2023-03-14 22:33:42:612,0.0756464,2.21491,-9.56875,-13.0601,-1.61356,22.0337
2023-03-14 22:33:42:622,0.0460726,2.22185,-9.56003,-13.0719,-1.6267,22.0559
2023-03-14 22:33:42:632,0.0505899,2.24499,-9.62609,-13.0926,-1.64895,22.0891
2023-03-14 22:33:42:642,-0.10321,2.27586,-9.65808,-13.1204,-1.67978,22.1368
2023-03-14 22:33:42:652,-0.458197,2.2815,-9.61781,-13.1495,-1.73382,22.2053
2023-03-14 22:33:42:662,-0.564299,2.37313,-9.69609,-13.1876,-1.79832,22.2854
2023-03-14 22:33:42:673,-0.678282,2.42967,-9.74916,-13.2157,-1.85731,22.3658
2023-03-14 22:33:42:682,-0.833094,2.38027,-9.66987,-13.2302,-1.92093,22.4451
2023-03-14 22:33:42:692,-0.917166,2.3416,-9.57441,-13.2294,-1.98034,22.515
2023-03-14 22:33:42:702,-0.884707,2.32449,-9.5607,-13.208,-2.01146,22.5778
2023-03-14 22:33:42:712,-0.839864,2.26134,-9.48742,-13.1737,-2.02965,22.6271
2023-03-14 22:33:42:722,-0.770136,2.21208,-9.47507,-13.1303,-2.03863,22.6641
2023-03-14 22:33:42:732,-0.6509,2.1899,-9.51053,-13.0876,-2.04104,22.6904
2023-03-14 22:33:42:742,-0.541461,2.1654,-9.50116,-13.0455,-2.04283,22.7074
2023-03-14 22:33:42:752,-0.52942,2.14572,-9.4658,-13.0055,-2.0521,22.7165
2023-03-14 22:33:42:762,-0.588382,2.13876,-9.44073,-12.9712,-2.07058,22.7235
2023-03-14 22:33:42:772,-0.64702,2.15454,-9.42794,-12.9394,-2.09321,22.7248
2023-03-14 22:33:42:782,-0.641198,2.12537,-9.41584,-12.9087,-2.1153,22.7206
2023-03-14 22:33:42:792,-0.592287,2.08315,-9.38433,-12.8701,-2.13402,22.7083
2023-03-14 22:33:42:802,-0.486023,2.08589,-9.35672,-12.8354,-2.14041,22.6869
2023-03-14 22:33:42:812,-0.341901,2.09436,-9.32824,-12.8096,-2.14626,22.6573
2023-03-14 22:33:42:822,-0.228331,2.08013,-9.32903,-12.7911,-2.1514,22.6283
2023-03-14 22:33:42:832,-0.13367,2.09146,-9.3519,-12.7748,-2.15141,22.6024
2023-03-14 22:33:42:842,-0.0957453,2.11346,-9.36044,-12.7678,-2.14116,22.5861
2023-03-14 22:33:42:852,-0.0736796,2.13227,-9.40589,-12.7648,-2.12603,22.5771
2023-03-14 22:33:42:862,-0.0203622,2.17768,-9.47777,-12.7688,-2.10215,22.577
2023-03-14 22:33:42:872,-0.0103078,2.1835,-9.47246,-12.7802,-2.07727,22.5811
2023-03-14 22:33:42:882,-0.0641834,2.1735,-9.40352,-12.7965,-2.05216,22.5901
2023-03-14 22:33:42:892,-0.037808,2.1927,-9.44187,-12.8219,-2.02897,22.6027
2023-03-14 22:33:42:902,-0.079172,2.22054,-9.49887,-12.8555,-2.01326,22.62
2023-03-14 22:33:42:912,-0.174803,2.22142,-9.59648,-12.8964,-2.00679,22.6472
2023-03-14 22:33:42:922,-0.28893,2.26132,-9.73865,-12.9363,-2.01367,22.68
2023-03-14 22:33:42:932,-0.452317,2.2915,-9.83952,-12.975,-2.03186,22.7129
2023-03-14 22:33:42:942,-0.543874,2.33956,-9.91217,-13.0002,-2.05333,22.7429
2023-03-14 22:33:42:952,-0.548889,2.2505,-9.79529,-13.0098,-2.07524,22.766
2023-03-14 22:33:42:962,-0.431311,2.12036,-9.58827,-13.0059,-2.11031,22.77
2023-03-14 22:33:42:972,-0.436672,2.03755,-9.39116,-13.0014,-2.14446,22.7764
2023-03-14 22:33:42:982,-0.418923,2.0745,-9.33115,-13.0011,-2.18753,22.7798
2023-03-14 22:33:42:992,-0.552382,2.29637,-9.61816,-13.0051,-2.2047,22.7865
2023-03-14 22:33:43:2,-0.558671,2.38561,-9.73029,-12.9945,-2.19753,22.7881
2023-03-14 22:33:43:12,-0.390475,2.26735,-9.59731,-12.9576,-2.17118,22.778
2023-03-14 22:33:43:22,-0.19488,2.11669,-9.50713,-12.9117,-2.14102,22.762
2023-03-14 22:33:43:32,-0.0288849,1.80956,-9.14341,-12.8737,-2.1261,22.7489
2023-03-14 22:33:43:42,0.0451924,1.91677,-9.23838,-12.8851,-2.19431,22.7356
2023-03-14 22:33:43:52,-0.409797,2.37218,-9.78591,-12.9233,-2.21314,22.7722
2023-03-14 22:33:43:62,-0.620183,2.39553,-9.87408,-12.9567,-2.21876,22.7965
2023-03-14 22:33:43:72,-0.570717,2.15381,-9.63965,-12.9721,-2.26013,22.8033
2023-03-14 22:33:43:82,-0.432239,2.07363,-9.55662,-12.9777,-2.30663,22.7972
2023-03-14 22:33:43:92,-0.63326,2.32202,-9.82164,-12.9734,-2.31075,22.8021
2023-03-14 22:33:43:102,-0.660482,2.18855,-9.61154,-12.9399,-2.27346,22.805
2023-03-14 22:33:43:112,-0.382544,1.91656,-9.23043,-12.8848,-2.2583,22.7823
2023-03-14 22:33:43:122,-0.186048,1.815,-9.07477,-12.8441,-2.25377,22.7484
2023-03-14 22:33:43:132,0.0129871,1.83672,-9.19017,-12.8214,-2.24771,22.7194
2023-03-14 22:33:43:142,-0.0697188,1.70569,-9.05376,-12.8208,-2.27081,22.6991
2023-03-14 22:33:43:152,-0.188939,1.94396,-9.34766,-12.8744,-2.33462,22.684
2023-03-14 22:33:43:162,-0.32194,2.36384,-9.83191,-12.9492,-2.38071,22.6865
2023-03-14 22:33:43:172,-0.626253,2.67277,-10.2348,-12.9953,-2.34397,22.7186
2023-03-14 22:33:43:182,-0.676515,2.20776,-9.68662,-12.9841,-2.27057,22.7456
2023-03-14 22:33:43:192,-0.385664,1.7864,-9.13171,-12.964,-2.29226,22.7362
2023-03-14 22:33:43:202,-0.429536,1.96912,-9.37587,-12.9787,-2.31633,22.7284
2023-03-14 22:33:43:212,-0.56365,2.1399,-9.5219,-13.0141,-2.33189,22.7288
2023-03-14 22:33:43:222,-0.513269,2.11828,-9.47029,-13.0502,-2.36223,22.7194
2023-03-14 22:33:43:232,-0.469957,2.11271,-9.43591,-13.0847,-2.39385,22.7083
2023-03-14 22:33:43:242,-0.42584,2.14947,-9.46398,-13.1249,-2.4216,22.6955
2023-03-14 22:33:43:252,-0.396749,2.16066,-9.46905,-13.1664,-2.44386,22.6864
2023-03-14 22:33:43:262,-0.391068,2.16403,-9.47042,-13.212,-2.47206,22.6878
2023-03-14 22:33:43:272,-0.45446,2.24285,-9.54725,-13.2598,-2.50232,22.6969
2023-03-14 22:33:43:282,-0.544074,2.34213,-9.65183,-13.3087,-2.52786,22.7077
2023-03-14 22:33:43:292,-0.585736,2.36162,-9.66927,-13.3477,-2.54856,22.7161
2023-03-14 22:33:43:302,-0.563679,2.31676,-9.58365,-13.372,-2.56539,22.7199
2023-03-14 22:33:43:312,-0.508893,2.22398,-9.49563,-13.3938,-2.58247,22.7146
2023-03-14 22:33:43:322,-0.464179,2.1557,-9.4443,-13.4153,-2.60598,22.7095
2023-03-14 22:33:43:332,-0.440912,2.15159,-9.39039,-13.4433,-2.64058,22.7086
2023-03-14 22:33:43:342,-0.479314,2.22404,-9.44373,-13.4857,-2.68158,22.7067
2023-03-14 22:33:43:352,-0.532247,2.33732,-9.50194,-13.5358,-2.71544,22.7109
2023-03-14 22:33:43:362,-0.584144,2.48991,-9.67202,-13.5722,-2.70986,22.7196
2023-03-14 22:33:43:372,-0.496332,2.3851,-9.58777,-13.5818,-2.66543,22.73
2023-03-14 22:33:43:382,-0.231849,2.13216,-9.30301,-13.5774,-2.64418,22.7344
2023-03-14 22:33:43:392,-0.178472,2.18359,-9.35139,-13.5837,-2.63727,22.7368
2023-03-14 22:33:43:402,-0.314628,2.38207,-9.55434,-13.5996,-2.60657,22.7627
2023-03-14 22:33:43:412,-0.301747,2.42273,-9.6153,-13.613,-2.56656,22.7958
2023-03-14 22:33:43:422,-0.230112,2.35661,-9.54365,-13.6164,-2.52205,22.8283
2023-03-14 22:33:43:432,-0.154661,2.29331,-9.44137,-13.6139,-2.47752,22.862
2023-03-14 22:33:43:442,-0.108012,2.27979,-9.38799,-13.617,-2.44678,22.9022
2023-03-14 22:33:43:452,-0.138444,2.29927,-9.38663,-13.6319,-2.42153,22.9482
2023-03-14 22:33:43:462,-0.207975,2.36153,-9.43824,-13.6553,-2.40621,22.9999
2023-03-14 22:33:43:472,-0.269391,2.42242,-9.48059,-13.6874,-2.40003,23.051
2023-03-14 22:33:43:482,-0.292912,2.44262,-9.50147,-13.7199,-2.39803,23.0977
2023-03-14 22:33:43:492,-0.287012,2.45306,-9.48876,-13.7526,-2.40045,23.1406
2023-03-14 22:33:43:502,-0.308815,2.44797,-9.47162,-13.7812,-2.40494,23.1868
2023-03-14 22:33:43:512,-0.33131,2.46314,-9.49946,-13.8141,-2.40907,23.2302
2023-03-14 22:33:43:522,-0.362736,2.45903,-9.52144,-13.842,-2.41694,23.2727
2023-03-14 22:33:43:532,-0.391304,2.44963,-9.52182,-13.8676,-2.4325,23.3208
2023-03-14 22:33:43:542,-0.435732,2.47417,-9.55987,-13.8913,-2.44976,23.3695
2023-03-14 22:33:43:552,-0.461152,2.4727,-9.57275,-13.91,-2.47042,23.4144
2023-03-14 22:33:43:562,-0.463543,2.43022,-9.54045,-13.9308,-2.50219,23.4535
2023-03-14 22:33:43:572,-0.479161,2.40495,-9.51963,-13.9522,-2.54213,23.4878
2023-03-14 22:33:43:582,-0.482706,2.38876,-9.46797,-13.9686,-2.58777,23.5251
2023-03-14 22:33:43:592,-0.510949,2.37737,-9.43597,-13.992,-2.63963,23.5595
2023-03-14 22:33:43:602,-0.539417,2.37574,-9.44832,-14.014,-2.69063,23.5919
2023-03-14 22:33:43:612,-0.556562,2.37377,-9.46299,-14.0374,-2.74512,23.6228
2023-03-14 22:33:43:622,-0.571531,2.39674,-9.47715,-14.0631,-2.79107,23.6496
2023-03-14 22:33:43:632,-0.594897,2.40516,-9.49708,-14.0809,-2.8305,23.6728
2023-03-14 22:33:43:642,-0.595324,2.37319,-9.47338,-14.0951,-2.866,23.692
2023-03-14 22:33:43:652,-0.575148,2.39142,-9.47108,-14.1016,-2.89524,23.7076
2023-03-14 22:33:43:662,-0.593404,2.40408,-9.49238,-14.105,-2.90806,23.7198
2023-03-14 22:33:43:672,-0.557249,2.3849,-9.4804,-14.108,-2.91303,23.7299
2023-03-14 22:33:43:682,-0.507863,2.38889,-9.46554,-14.1083,-2.90769,23.7406
2023-03-14 22:33:43:692,-0.404607,2.40874,-9.52758,-14.1047,-2.89643,23.7496
2023-03-14 22:33:43:702,-0.61545,2.33878,-9.42846,-14.0939,-2.87829,23.7721
2023-03-14 22:33:43:712,-0.493863,2.34822,-9.48935,-14.0923,-2.85937,23.7895
2023-03-14 22:33:43:722,-0.466856,2.37336,-9.54697,-14.0904,-2.83845,23.8062
2023-03-14 22:33:43:732,-0.489142,2.38933,-9.53416,-14.0864,-2.81549,23.8306
2023-03-14 22:33:43:742,-0.465047,2.37995,-9.53509,-14.0858,-2.79242,23.8533
2023-03-14 22:33:43:752,-0.456253,2.3599,-9.51601,-14.0829,-2.77391,23.8778
2023-03-14 22:33:43:762,-0.47966,2.34539,-9.47373,-14.0776,-2.75912,23.9085
2023-03-14 22:33:43:772,-0.497495,2.34912,-9.45685,-14.0721,-2.74775,23.9337
2023-03-14 22:33:43:782,-0.510189,2.37589,-9.48656,-14.0688,-2.73554,23.9577
2023-03-14 22:33:43:792,-0.507269,2.3989,-9.48646,-14.0677,-2.72964,23.9817
2023-03-14 22:33:43:802,-0.483679,2.38241,-9.47493,-14.0656,-2.71931,24.0025
2023-03-14 22:33:43:812,-0.464216,2.37339,-9.46073,-14.0627,-2.7179,24.0259
2023-03-14 22:33:43:822,-0.467665,2.36865,-9.45183,-14.0621,-2.71356,24.0487
2023-03-14 22:33:43:832,-0.47771,2.36881,-9.4617,-14.063,-2.71451,24.0712
2023-03-14 22:33:43:842,-0.491137,2.39267,-9.47426,-14.0598,-2.71313,24.0887
2023-03-14 22:33:43:852,-0.492102,2.39057,-9.4869,-14.0543,-2.71178,24.0996
2023-03-14 22:33:43:862,-0.467101,2.35896,-9.47182,-14.0482,-2.71027,24.102
2023-03-14 22:33:43:872,-0.442265,2.34049,-9.44497,-14.0419,-2.70483,24.1053
2023-03-14 22:33:43:882,-0.412292,2.32983,-9.43581,-14.0358,-2.7026,24.1087
2023-03-14 22:33:43:892,-0.404402,2.31523,-9.45838,-14.0326,-2.6971,24.11
2023-03-14 22:33:43:902,-0.403492,2.3239,-9.45795,-14.0327,-2.69329,24.1117
2023-03-14 22:33:43:912,-0.408288,2.34569,-9.46888,-14.0351,-2.69281,24.1086
2023-03-14 22:33:43:922,-0.401717,2.34552,-9.461,-14.0402,-2.69144,24.1027
2023-03-14 22:33:43:932,-0.390092,2.34315,-9.45738,-14.0433,-2.69118,24.0984
2023-03-14 22:33:43:942,-0.391294,2.35428,-9.45888,-14.0505,-2.68973,24.0959
2023-03-14 22:33:43:952,-0.400089,2.37668,-9.45419,-14.0594,-2.69054,24.09
2023-03-14 22:33:43:962,-0.432209,2.39638,-9.48496,-14.0676,-2.69199,24.0861
2023-03-14 22:33:43:972,-0.470862,2.40801,-9.50344,-14.0784,-2.69733,24.0832
2023-03-14 22:33:43:982,-0.483552,2.41947,-9.50321,-14.0855,-2.69539,24.0767
2023-03-14 22:33:43:992,-0.460023,2.4184,-9.50872,-14.0916,-2.69915,24.0707
2023-03-14 22:33:44:2,-0.408292,2.43675,-9.52307,-14.0917,-2.69932,24.0607
2023-03-14 22:33:44:12,-0.556579,2.39063,-9.42901,-14.0822,-2.69755,24.0586
2023-03-14 22:33:44:22,-0.469449,2.39134,-9.43547,-14.0815,-2.69759,24.0506
2023-03-14 22:33:44:32,-0.448914,2.40613,-9.47326,-14.0818,-2.69904,24.0392
2023-03-14 22:33:44:42,-0.455036,2.42071,-9.48479,-14.0821,-2.69901,24.0281
2023-03-14 22:33:44:52,-0.447086,2.42579,-9.48239,-14.081,-2.6984,24.0235
2023-03-14 22:33:44:62,-0.447568,2.42811,-9.50236,-14.0802,-2.69862,24.0213
2023-03-14 22:33:44:72,-0.447622,2.41386,-9.53216,-14.0792,-2.69408,24.0185
2023-03-14 22:33:44:82,-0.446767,2.42624,-9.5375,-14.0784,-2.69112,24.0198
2023-03-14 22:33:44:92,-0.464611,2.43811,-9.52634,-14.0771,-2.68759,24.0221
2023-03-14 22:33:44:102,-0.45333,2.44185,-9.51949,-14.0758,-2.68731,24.0234
2023-03-14 22:33:44:112,-0.456086,2.40618,-9.50922,-14.0703,-2.68352,24.0263
2023-03-14 22:33:44:122,-0.452215,2.3807,-9.48624,-14.0623,-2.68245,24.0303
2023-03-14 22:33:44:132,-0.454637,2.37441,-9.46971,-14.0541,-2.68083,24.0354
2023-03-14 22:33:44:142,-0.452097,2.36163,-9.45296,-14.0445,-2.68047,24.0387
2023-03-14 22:33:44:152,-0.445258,2.34785,-9.44209,-14.0331,-2.68121,24.0378
2023-03-14 22:33:44:162,-0.435585,2.33731,-9.43775,-14.0242,-2.68528,24.0368
2023-03-14 22:33:44:172,-0.416828,2.33113,-9.44027,-14.0154,-2.68607,24.0364
2023-03-14 22:33:44:182,-0.400081,2.32308,-9.44471,-14.0079,-2.68505,24.0367
2023-03-14 22:33:44:192,-0.385853,2.3205,-9.44736,-14.003,-2.68604,24.0353
2023-03-14 22:33:44:202,-0.384117,2.32045,-9.46393,-14.0001,-2.68631,24.0394
2023-03-14 22:33:44:212,-0.386981,2.32728,-9.45282,-14.002,-2.69056,24.0459
2023-03-14 22:33:44:222,-0.397375,2.3275,-9.43315,-14.0033,-2.69486,24.0541
2023-03-14 22:33:44:232,-0.405169,2.33153,-9.4296,-14.011,-2.69606,24.0656
2023-03-14 22:33:44:242,-0.456967,2.34022,-9.42196,-14.0181,-2.69857,24.0781
2023-03-14 22:33:44:252,-0.485996,2.34198,-9.44228,-14.0263,-2.69902,24.0907
2023-03-14 22:33:44:262,-0.471021,2.34425,-9.4599,-14.0354,-2.70116,24.1017
2023-03-14 22:33:44:272,-0.470236,2.34552,-9.47257,-14.0412,-2.70237,24.1117
2023-03-14 22:33:44:282,-0.454108,2.35436,-9.45956,-14.0494,-2.70414,24.1204
2023-03-14 22:33:44:292,-0.45193,2.35639,-9.47834,-14.0605,-2.70717,24.1305
2023-03-14 22:33:44:302,-0.472129,2.38282,-9.50098,-14.0675,-2.70858,24.1393
2023-03-14 22:33:44:312,-0.480337,2.38409,-9.5229,-14.0707,-2.70935,24.146
2023-03-14 22:33:44:322,-0.476262,2.39875,-9.51384,-14.0731,-2.70909,24.1573
2023-03-14 22:33:44:332,-0.485814,2.40644,-9.49381,-14.0703,-2.70689,24.1659
2023-03-14 22:33:44:342,-0.492413,2.39489,-9.50376,-14.0639,-2.70389,24.1729
2023-03-14 22:33:44:352,-0.516921,2.39328,-9.51331,-14.0587,-2.69617,24.1814
2023-03-14 22:33:44:362,-0.519653,2.41273,-9.51849,-14.0519,-2.68152,24.1881
2023-03-14 22:33:44:372,-0.496474,2.41653,-9.53539,-14.0449,-2.65925,24.1929
2023-03-14 22:33:44:382,-0.404752,2.40328,-9.57516,-14.0288,-2.62846,24.1986
2023-03-14 22:33:44:392,-0.392835,2.39104,-9.57221,-14.0115,-2.59732,24.1998
2023-03-14 22:33:44:402,-0.528456,2.3733,-9.53532,-13.9886,-2.56385,24.2055
2023-03-14 22:33:44:412,-0.477836,2.43521,-9.59849,-13.9645,-2.52395,24.2123
2023-03-14 22:33:44:422,-0.478959,2.41101,-9.59746,-13.9373,-2.47685,24.2166
2023-03-14 22:33:44:432,-0.428301,2.23518,-9.38603,-13.9047,-2.4478,24.2132
2023-03-14 22:33:44:442,-0.389762,2.18877,-9.31364,-13.883,-2.45946,24.2045
2023-03-14 22:33:44:452,-0.440229,2.3414,-9.53032,-13.8765,-2.46036,24.1986
2023-03-14 22:33:44:462,-0.43567,2.34644,-9.57267,-13.863,-2.4562,24.1987
2023-03-14 22:33:44:472,-0.367611,2.25157,-9.49776,-13.8419,-2.4663,24.194
2023-03-14 22:33:44:482,-0.381481,2.25355,-9.4904,-13.8236,-2.48008,24.1925
2023-03-14 22:33:44:492,-0.449302,2.28681,-9.50812,-13.8055,-2.48714,24.1998
2023-03-14 22:33:44:502,-0.46518,2.25596,-9.47363,-13.7851,-2.50193,24.2046
2023-03-14 22:33:44:512,-0.506686,2.23219,-9.38438,-13.7645,-2.51216,24.2069
2023-03-14 22:33:44:522,-0.396472,2.2442,-9.39233,-13.747,-2.51622,24.206
2023-03-14 22:33:44:532,-0.346686,2.24892,-9.36601,-13.7336,-2.5152,24.2025
2023-03-14 22:33:44:542,-0.371753,2.22185,-9.30888,-13.721,-2.51328,24.2048
2023-03-14 22:33:44:552,-0.312096,2.23839,-9.33004,-13.7132,-2.5083,24.207
2023-03-14 22:33:44:562,-0.297735,2.26327,-9.36838,-13.7169,-2.50415,24.2075
2023-03-14 22:33:44:572,-0.347111,2.31865,-9.4303,-13.7271,-2.49753,24.2132
2023-03-14 22:33:44:582,-0.396414,2.34239,-9.47706,-13.7383,-2.4894,24.225
2023-03-14 22:33:44:592,-0.402066,2.33964,-9.4597,-13.7539,-2.48701,24.2375
2023-03-14 22:33:44:602,-0.394963,2.33565,-9.42632,-13.7689,-2.4875,24.2423
2023-03-14 22:33:44:612,-0.415795,2.32605,-9.40268,-13.7889,-2.493,24.251
2023-03-14 22:33:44:622,-0.333016,2.33367,-9.44765,-13.814,-2.50231,24.2614
2023-03-14 22:33:44:632,-0.387923,2.40649,-9.51391,-13.8432,-2.51074,24.2721
2023-03-14 22:33:44:642,-0.458695,2.50974,-9.62398,-13.8699,-2.50057,24.2908
2023-03-14 22:33:44:652,-0.433261,2.43922,-9.54948,-13.8811,-2.47931,24.3061
2023-03-14 22:33:44:662,-0.30509,2.35064,-9.44235,-13.8883,-2.4713,24.3113
2023-03-14 22:33:44:672,-0.335188,2.42488,-9.50181,-13.9006,-2.45808,24.3252
2023-03-14 22:33:44:682,-0.44607,2.53815,-9.62101,-13.9135,-2.43134,24.3511
2023-03-14 22:33:44:692,-0.463277,2.50145,-9.58623,-13.916,-2.40329,24.3731
2023-03-14 22:33:44:702,-0.410231,2.45049,-9.53549,-13.9138,-2.37564,24.392
2023-03-14 22:33:44:712,-0.3442,2.42465,-9.48045,-13.907,-2.35209,24.4078
2023-03-14 22:33:44:722,-0.325283,2.42886,-9.4754,-13.9057,-2.33322,24.4222
2023-03-14 22:33:44:732,-0.344422,2.46192,-9.49046,-13.9125,-2.31939,24.4383
2023-03-14 22:33:44:742,-0.356957,2.45201,-9.49758,-13.9202,-2.31495,24.4545
2023-03-14 22:33:44:752,-0.410653,2.44403,-9.49958,-13.9269,-2.31067,24.4746
2023-03-14 22:33:44:762,-0.439751,2.45468,-9.48829,-13.9305,-2.31708,24.4999
2023-03-14 22:33:44:772,-0.467352,2.4444,-9.49899,-13.9323,-2.32672,24.5253
2023-03-14 22:33:44:782,-0.498664,2.43936,-9.5061,-13.9313,-2.34096,24.5492
2023-03-14 22:33:44:792,-0.51181,2.43747,-9.5023,-13.9268,-2.34787,24.5754
2023-03-14 22:33:44:802,-0.539747,2.42629,-9.50423,-13.9186,-2.35089,24.6017
2023-03-14 22:33:44:812,-0.562757,2.41878,-9.49064,-13.9117,-2.34953,24.6281
2023-03-14 22:33:44:822,-0.575084,2.41327,-9.47587,-13.901,-2.34556,24.6513
2023-03-14 22:33:44:832,-0.539416,2.39211,-9.47793,-13.8878,-2.3324,24.6717
2023-03-14 22:33:44:842,-0.484192,2.37274,-9.49788,-13.874,-2.31874,24.6871
2023-03-14 22:33:44:852,-0.555066,2.32568,-9.43093,-13.8621,-2.297,24.7055
2023-03-14 22:33:44:862,-0.469529,2.34899,-9.43875,-13.8547,-2.27935,24.7191
2023-03-14 22:33:44:872,-0.429313,2.36095,-9.47097,-13.848,-2.25739,24.7311
2023-03-14 22:33:44:882,-0.437313,2.34615,-9.44476,-13.8418,-2.2338,24.746
2023-03-14 22:33:44:892,-0.434341,2.31219,-9.43082,-13.8378,-2.20998,24.7594
2023-03-14 22:33:44:902,-0.447286,2.32857,-9.43807,-13.8371,-2.18557,24.7793
2023-03-14 22:33:44:912,-0.410453,2.34961,-9.46518,-13.8319,-2.14066,24.7977
2023-03-14 22:33:44:922,-0.428773,2.35937,-9.51957,-13.825,-2.1027,24.814
2023-03-14 22:33:44:932,-0.339657,2.29828,-9.49407,-13.8055,-2.0329,24.8246
2023-03-14 22:33:44:942,-0.205716,2.18628,-9.3769,-13.7807,-1.98163,24.8349
2023-03-14 22:33:44:952,-0.200674,2.17898,-9.40889,-13.7637,-1.9271,24.8476
2023-03-14 22:33:44:962,-0.226729,2.20485,-9.44138,-13.7564,-1.88632,24.8602
2023-03-14 22:33:44:972,-0.234068,2.23845,-9.49211,-13.7554,-1.85514,24.8765
2023-03-14 22:33:44:982,-0.238251,2.2562,-9.49857,-13.7548,-1.83219,24.8897
2023-03-14 22:33:44:992,-0.224678,2.28343,-9.51126,-13.7574,-1.81334,24.9009
2023-03-14 22:33:45:2,-0.200452,2.30451,-9.53532,-13.7644,-1.78544,24.9156
2023-03-14 22:33:45:12,-0.178322,2.30639,-9.53117,-13.7705,-1.75201,24.9357
2023-03-14 22:33:45:22,-0.182371,2.28749,-9.50815,-13.7724,-1.71633,24.9597
2023-03-14 22:33:45:32,-0.205234,2.28028,-9.51648,-13.7745,-1.6818,24.9851
2023-03-14 22:33:45:42,-0.227862,2.312,-9.56006,-13.7748,-1.6542,25.0107
2023-03-14 22:33:45:52,-0.235819,2.32144,-9.58316,-13.7714,-1.62685,25.041
2023-03-14 22:33:45:62,-0.236103,2.29557,-9.59,-13.7678,-1.59797,25.0652
2023-03-14 22:33:45:72,-0.206285,2.28573,-9.58969,-13.7561,-1.56498,25.0865
2023-03-14 22:33:45:82,-0.129953,2.27077,-9.56907,-13.7424,-1.53053,25.1056
2023-03-14 22:33:45:92,-0.127376,2.23054,-9.53595,-13.7188,-1.49611,25.1221
2023-03-14 22:33:45:102,-0.126788,2.17331,-9.48267,-13.6953,-1.46135,25.142
2023-03-14 22:33:45:112,-0.0704307,2.15726,-9.46728,-13.6742,-1.4307,25.1578
2023-03-14 22:33:45:122,-0.0730028,2.15,-9.45146,-13.6631,-1.40904,25.1733
2023-03-14 22:33:45:132,-0.0894562,2.20036,-9.46997,-13.6517,-1.39497,25.1904
2023-03-14 22:33:45:142,-0.1071,2.23242,-9.51215,-13.6447,-1.38454,25.2071
2023-03-14 22:33:45:152,-0.0900577,2.23314,-9.50227,-13.6378,-1.37394,25.2252
2023-03-14 22:33:45:162,-0.0590441,2.19321,-9.46352,-13.6313,-1.36527,25.2385
2023-03-14 22:33:45:172,-0.0529818,2.21116,-9.44412,-13.6255,-1.36049,25.2531
2023-03-14 22:33:45:182,-0.0589134,2.22698,-9.45038,-13.624,-1.36494,25.2671
2023-03-14 22:33:45:192,-0.0781156,2.23838,-9.45916,-13.6271,-1.37233,25.2834
2023-03-14 22:33:45:202,-0.0957412,2.22295,-9.45184,-13.6332,-1.38396,25.3
2023-03-14 22:33:45:212,-0.119905,2.21379,-9.43239,-13.6404,-1.40357,25.3211
2023-03-14 22:33:45:222,-0.168716,2.22411,-9.41067,-13.6586,-1.4253,25.3456
2023-03-14 22:33:45:232,-0.217678,2.26549,-9.41767,-13.6808,-1.44924,25.3697
2023-03-14 22:33:45:242,-0.279615,2.32239,-9.45748,-13.7057,-1.47662,25.3949
2023-03-14 22:33:45:252,-0.331452,2.33137,-9.44465,-13.7314,-1.50268,25.4202
2023-03-14 22:33:45:262,-0.324942,2.34486,-9.40128,-13.7584,-1.53928,25.4388
2023-03-14 22:33:45:272,-0.388084,2.44184,-9.47367,-13.7946,-1.57747,25.4636
2023-03-14 22:33:45:282,-0.429749,2.49971,-9.52304,-13.8263,-1.59996,25.4853
2023-03-14 22:33:45:292,-0.466914,2.45422,-9.46431,-13.8544,-1.62715,25.5058
2023-03-14 22:33:45:302,-0.467787,2.4643,-9.49762,-13.8754,-1.64923,25.5263
2023-03-14 22:33:45:312,-0.520756,2.47921,-9.54681,-13.9004,-1.6701,25.5455
2023-03-14 22:33:45:322,-0.556899,2.47318,-9.55671,-13.9226,-1.69287,25.5609
2023-03-14 22:33:45:332,-0.573792,2.46721,-9.55075,-13.944,-1.72124,25.5736
2023-03-14 22:33:45:342,-0.601213,2.48584,-9.53416,-13.9643,-1.74426,25.5828
2023-03-14 22:33:45:352,-0.614107,2.47113,-9.53906,-13.9801,-1.76136,25.5854
2023-03-14 22:33:45:362,-0.581708,2.46709,-9.53394,-13.9904,-1.77036,25.5815
2023-03-14 22:33:45:372,-0.543226,2.44121,-9.52902,-13.9997,-1.76954,25.5733
2023-03-14 22:33:45:382,-0.482274,2.40655,-9.50445,-13.9991,-1.76306,25.5551
2023-03-14 22:33:45:392,-0.422247,2.37419,-9.49478,-13.9959,-1.757,25.5305
2023-03-14 22:33:45:402,-0.36702,2.36854,-9.4924,-13.9951,-1.74856,25.501
2023-03-14 22:33:45:412,-0.328008,2.36511,-9.4617,-13.9928,-1.73734,25.4697
2023-03-14 22:33:45:422,-0.292991,2.36556,-9.44665,-13.9877,-1.72422,25.4364
2023-03-14 22:33:45:432,-0.275108,2.37728,-9.47611,-13.9866,-1.71501,25.4015
2023-03-14 22:33:45:442,-0.259892,2.39254,-9.49461,-13.9852,-1.70448,25.3731
2023-03-14 22:33:45:452,-0.221125,2.39706,-9.49309,-13.9853,-1.68984,25.347
2023-03-14 22:33:45:462,-0.227205,2.38951,-9.4843,-13.9854,-1.67286,25.3237
2023-03-14 22:33:45:472,-0.208385,2.39041,-9.45155,-13.9828,-1.65286,25.3028
2023-03-14 22:33:45:482,-0.208385,2.37097,-9.45657,-13.9809,-1.63382,25.2839
2023-03-14 22:33:45:492,-0.211252,2.36608,-9.45716,-13.9765,-1.61508,25.2708
2023-03-14 22:33:45:502,-0.226172,2.37055,-9.43658,-13.9736,-1.59707,25.2576
2023-03-14 22:33:45:512,-0.214422,2.37848,-9.42895,-13.9683,-1.57729,25.2426
2023-03-14 22:33:45:522,-0.17699,2.3757,-9.44856,-13.9645,-1.56019,25.2248
2023-03-14 22:33:45:532,-0.147166,2.3636,-9.44946,-13.9632,-1.54318,25.2036
2023-03-14 22:33:45:542,-0.117373,2.36696,-9.42082,-13.9594,-1.52676,25.1847
2023-03-14 22:33:45:552,-0.103057,2.38471,-9.42763,-13.9586,-1.51317,25.1651
2023-03-14 22:33:45:562,-0.0789967,2.41231,-9.45707,-13.9604,-1.50058,25.1462
2023-03-14 22:33:45:572,-0.0706795,2.40009,-9.46302,-13.9621,-1.48838,25.1303
2023-03-14 22:33:45:582,-0.0671825,2.38915,-9.46714,-13.9612,-1.477,25.1168
2023-03-14 22:33:45:592,-0.067352,2.40577,-9.46455,-13.971,-1.46909,25.1085
2023-03-14 22:33:45:602,-0.0983868,2.42552,-9.47965,-13.9867,-1.46463,25.1058
2023-03-14 22:33:45:612,-0.146945,2.44164,-9.50723,-14.0065,-1.46288,25.1046
2023-03-14 22:33:45:622,-0.205024,2.434,-9.55901,-14.0277,-1.46259,25.1032
2023-03-14 22:33:45:632,-0.26706,2.43095,-9.5758,-14.0474,-1.46072,25.1083
2023-03-14 22:33:45:642,-0.287159,2.41296,-9.5686,-14.0594,-1.45982,25.1092
2023-03-14 22:33:45:652,-0.283729,2.41302,-9.56101,-14.0703,-1.45959,25.1037
2023-03-14 22:33:45:662,-0.273889,2.41878,-9.56374,-14.0842,-1.4598,25.0944
2023-03-14 22:33:45:672,-0.245615,2.45972,-9.61009,-14.0962,-1.46013,25.0872
2023-03-14 22:33:45:682,-0.316537,2.46729,-9.59064,-14.1019,-1.4609,25.0808
2023-03-14 22:33:45:692,-0.308534,2.44898,-9.52376,-14.0984,-1.46451,25.0738
2023-03-14 22:33:45:702,-0.229684,2.46065,-9.5214,-14.0943,-1.46634,25.0589
2023-03-14 22:33:45:712,-0.236871,2.46363,-9.53375,-14.0887,-1.47113,25.0484
2023-03-14 22:33:45:722,-0.26564,2.44638,-9.55537,-14.0744,-1.47028,25.0435
2023-03-14 22:33:45:732,-0.316009,2.44867,-9.55632,-14.0537,-1.47205,25.039
2023-03-14 22:33:45:742,-0.366647,2.43972,-9.54942,-14.033,-1.46808,25.0305
2023-03-14 22:33:45:752,-0.305986,2.43008,-9.56638,-14.0037,-1.46115,25.0151
2023-03-14 22:33:45:762,-0.279276,2.38431,-9.50515,-13.9672,-1.45196,24.9904
2023-03-14 22:33:45:772,-0.2004,2.32949,-9.45554,-13.9264,-1.44067,24.9573
2023-03-14 22:33:45:782,-0.137748,2.27298,-9.42727,-13.8841,-1.42267,24.928
2023-03-14 22:33:45:792,-0.0938634,2.24504,-9.41346,-13.8424,-1.40059,24.9001
2023-03-14 22:33:45:802,-0.0721498,2.19789,-9.36509,-13.8043,-1.37874,24.8761
2023-03-14 22:33:45:812,0.0150722,2.18199,-9.36275,-13.7712,-1.35998,24.8548
2023-03-14 22:33:45:822,0.0329121,2.18108,-9.38752,-13.7533,-1.34652,24.8367
2023-03-14 22:33:45:832,-0.0116511,2.17928,-9.4118,-13.7427,-1.34082,24.8267
2023-03-14 22:33:45:842,-0.0496418,2.19567,-9.43494,-13.7427,-1.33966,24.8263
2023-03-14 22:33:45:852,-0.110675,2.22752,-9.44981,-13.7476,-1.34401,24.8252
2023-03-14 22:33:45:862,-0.162506,2.25061,-9.45758,-13.7568,-1.34997,24.8259
2023-03-14 22:33:45:872,-0.197497,2.2823,-9.44171,-13.7664,-1.35176,24.8293
2023-03-14 22:33:45:882,-0.20296,2.28617,-9.45977,-13.7813,-1.35401,24.8315
2023-03-14 22:33:45:892,-0.20539,2.29283,-9.48989,-13.7945,-1.3582,24.8359
2023-03-14 22:33:45:902,-0.256825,2.29247,-9.44049,-13.8055,-1.36603,24.8401
2023-03-14 22:33:45:912,-0.252951,2.30063,-9.44244,-13.8166,-1.37386,24.8452
2023-03-14 22:33:45:922,-0.269607,2.32027,-9.48261,-13.8275,-1.38046,24.8519
2023-03-14 22:33:45:932,-0.271897,2.32845,-9.5026,-13.8375,-1.39467,24.856
2023-03-14 22:33:45:942,-0.312438,2.32438,-9.51822,-13.8484,-1.40852,24.8599
2023-03-14 22:33:45:952,-0.338208,2.33096,-9.52708,-13.857,-1.42446,24.8688
2023-03-14 22:33:45:962,-0.349438,2.33639,-9.5295,-13.8661,-1.4328,24.872
2023-03-14 22:33:45:972,-0.320956,2.34641,-9.5094,-13.8752,-1.44274,24.8735
2023-03-14 22:33:45:982,-0.285288,2.36833,-9.53918,-13.8843,-1.45364,24.8759
2023-03-14 22:33:45:992,-0.299203,2.40387,-9.60844,-13.8988,-1.46473,24.8795
2023-03-14 22:33:46:2,-0.293009,2.40216,-9.62116,-13.9072,-1.46729,24.8813
2023-03-14 22:33:46:12,-0.286199,2.36433,-9.56902,-13.9058,-1.47141,24.8873
2023-03-14 22:33:46:22,-0.291829,2.35701,-9.5307,-13.9034,-1.47865,24.8931
2023-03-14 22:33:46:32,-0.324133,2.38315,-9.53747,-13.8999,-1.48292,24.9012
2023-03-14 22:33:46:42,-0.33303,2.37495,-9.53027,-13.8929,-1.48898,24.9081
2023-03-14 22:33:46:52,-0.331241,2.33803,-9.50406,-13.8853,-1.49466,24.9122
2023-03-14 22:33:46:62,-0.336021,2.33212,-9.49132,-13.876,-1.50478,24.9154
2023-03-14 22:33:46:72,-0.346666,2.33926,-9.4897,-13.8685,-1.51018,24.9156
2023-03-14 22:33:46:82,-0.385379,2.31681,-9.44633,-13.8547,-1.5145,24.916
2023-03-14 22:33:46:92,-0.255352,2.30056,-9.43065,-13.8362,-1.51933,24.9069
2023-03-14 22:33:46:102,-0.176421,2.27006,-9.41849,-13.8156,-1.5169,24.8917
2023-03-14 22:33:46:112,-0.127031,2.24065,-9.39938,-13.7919,-1.51361,24.8774
2023-03-14 22:33:46:122,-0.0549359,2.21723,-9.41495,-13.7742,-1.51027,24.8629
2023-03-14 22:33:46:132,-0.00990876,2.17539,-9.3748,-13.7651,-1.50862,24.8534
2023-03-14 22:33:46:142,-0.0494144,2.16795,-9.3504,-13.7686,-1.51782,24.8443
2023-03-14 22:33:46:152,-0.152058,2.23563,-9.39383,-13.7879,-1.53084,24.843
2023-03-14 22:33:46:162,-0.276763,2.29399,-9.46026,-13.8173,-1.54394,24.8587
2023-03-14 22:33:46:172,-0.362608,2.32841,-9.53411,-13.8569,-1.56217,24.8774
2023-03-14 22:33:46:182,-0.46381,2.39501,-9.62355,-13.8968,-1.57604,24.9039
2023-03-14 22:33:46:192,-0.57538,2.45325,-9.69702,-13.9392,-1.58326,24.9362
2023-03-14 22:33:46:202,-0.62125,2.47311,-9.70574,-13.9736,-1.58367,24.9633
2023-03-14 22:33:46:212,-0.594472,2.46307,-9.63819,-13.9917,-1.57786,24.985
2023-03-14 22:33:46:222,-0.5278,2.4265,-9.55999,-13.9967,-1.56527,24.9988
2023-03-14 22:33:46:232,-0.470712,2.37628,-9.5062,-13.9878,-1.54367,25.008
2023-03-14 22:33:46:242,-0.485141,2.33471,-9.45796,-13.9704,-1.50993,25.0209
2023-03-14 22:33:46:252,-0.300978,2.30913,-9.48117,-13.9428,-1.46752,25.0173
2023-03-14 22:33:46:262,-0.226735,2.2391,-9.408,-13.9077,-1.41556,25.008
2023-03-14 22:33:46:272,-0.147069,2.2166,-9.37746,-13.8709,-1.36083,24.992
2023-03-14 22:33:46:282,-0.0164844,2.21679,-9.38094,-13.8367,-1.30028,24.9723
2023-03-14 22:33:46:292,0.110837,2.23766,-9.38448,-13.8107,-1.24187,24.9454
2023-03-14 22:33:46:302,0.193227,2.24233,-9.39762,-13.7943,-1.19307,24.9138
2023-03-14 22:33:46:312,0.213951,2.26554,-9.41418,-13.7762,-1.15109,24.8847
2023-03-14 22:33:46:322,0.256528,2.27429,-9.44657,-13.7668,-1.1144,24.8574
2023-03-14 22:33:46:332,0.289353,2.27198,-9.43602,-13.7596,-1.07958,24.8348
2023-03-14 22:33:46:342,0.294314,2.26866,-9.40936,-13.7594,-1.06283,24.8162
2023-03-14 22:33:46:352,0.28443,2.29625,-9.41767,-13.7718,-1.06189,24.8024
2023-03-14 22:33:46:362,0.227094,2.33027,-9.42073,-13.7972,-1.07064,24.7884
2023-03-14 22:33:46:372,0.153537,2.39028,-9.45257,-13.8306,-1.08555,24.7797
2023-03-14 22:33:46:382,0.0711396,2.46948,-9.48992,-13.8769,-1.10208,24.774
2023-03-14 22:33:46:392,-0.0107968,2.53617,-9.529,-13.9274,-1.12339,24.7694
2023-03-14 22:33:46:402,-0.0253786,2.56477,-9.54085,-13.9725,-1.14205,24.7612
2023-03-14 22:33:46:412,0.00362353,2.55484,-9.52081,-14.0062,-1.16665,24.75
2023-03-14 22:33:46:422,0.0241418,2.51009,-9.50295,-14.033,-1.18743,24.7325
2023-03-14 22:33:46:432,0.0441883,2.49506,-9.45796,-14.0535,-1.21262,24.7114
2023-03-14 22:33:46:442,0.0640119,2.5018,-9.44733,-14.0721,-1.24503,24.6872
2023-03-14 22:33:46:452,0.0681359,2.52053,-9.47181,-14.0961,-1.28115,24.6646
2023-03-14 22:33:46:462,0.0863783,2.56633,-9.49,-14.1221,-1.31577,24.6463
2023-03-14 22:33:46:472,-0.0435623,2.56916,-9.44816,-14.154,-1.35295,24.6334
2023-03-14 22:33:46:482,-0.175053,2.64089,-9.49617,-14.1923,-1.3972,24.6292
2023-03-14 22:33:46:492,-0.284536,2.66636,-9.55448,-14.2336,-1.44899,24.627
2023-03-14 22:33:46:502,-0.375957,2.68852,-9.59713,-14.2707,-1.50519,24.6349
2023-03-14 22:33:46:512,-0.447849,2.72237,-9.62204,-14.3039,-1.56298,24.6456
2023-03-14 22:33:46:522,-0.44764,2.72571,-9.64608,-14.3284,-1.61477,24.6619
2023-03-14 22:33:46:532,-0.523634,2.68537,-9.59177,-14.339,-1.66501,24.6804
2023-03-14 22:33:46:542,-0.510496,2.61655,-9.51406,-14.3421,-1.71323,24.6971
2023-03-14 22:33:46:552,-0.466247,2.51247,-9.42537,-14.344,-1.76296,24.7146
2023-03-14 22:33:46:562,-0.566425,2.47749,-9.36256,-14.3494,-1.80967,24.7399
2023-03-14 22:33:46:572,-0.682932,2.53195,-9.44415,-14.3676,-1.85833,24.7715
2023-03-14 22:33:46:582,-0.702197,2.54831,-9.56779,-14.3817,-1.90208,24.7994
2023-03-14 22:33:46:592,-0.713157,2.55627,-9.56341,-14.3908,-1.93594,24.8214
2023-03-14 22:33:46:602,-0.696,2.51489,-9.46316,-14.3902,-1.95663,24.8338
2023-03-14 22:33:46:612,-0.536133,2.46832,-9.42945,-14.3896,-1.96922,24.8285
2023-03-14 22:33:46:622,-0.504329,2.41152,-9.37439,-14.3919,-1.98121,24.8202
2023-03-14 22:33:46:632,-0.481602,2.38633,-9.37864,-14.3992,-1.99327,24.8054
2023-03-14 22:33:46:642,-0.475456,2.39579,-9.40902,-14.418,-2.01045,24.792
2023-03-14 22:33:46:653,-0.307492,2.4049,-9.48468,-14.4396,-2.03428,24.775
2023-03-14 22:33:46:662,-0.591091,2.42358,-9.42646,-14.4736,-2.08828,24.7512
2023-03-14 22:33:46:672,-0.854747,2.45923,-9.48638,-14.4897,-2.14969,24.7276
2023-03-14 22:33:46:682,-0.585503,2.48915,-9.56376,-14.5072,-2.19939,24.6894
2023-03-14 22:33:46:692,-0.430065,2.41281,-9.52182,-14.5038,-2.23382,24.6364
2023-03-14 22:33:46:702,-0.39598,2.35623,-9.40868,-14.4934,-2.26352,24.5854
2023-03-14 22:33:46:712,-0.395077,2.34537,-9.39249,-14.4814,-2.3001,24.5402
2023-03-14 22:33:46:722,-0.445695,2.34021,-9.43486,-14.4718,-2.34339,24.5017
2023-03-14 22:33:46:733,-0.447702,2.31569,-9.43261,-14.4669,-2.3828,24.4638
2023-03-14 22:33:46:742,-0.453702,2.25846,-9.3998,-14.4586,-2.42878,24.4306
2023-03-14 22:33:46:752,-0.454445,2.24239,-9.38364,-14.455,-2.47543,24.4075
2023-03-14 22:33:46:762,-0.441631,2.15213,-9.23724,-14.4612,-2.53758,24.3784
2023-03-14 22:33:46:772,-0.464799,2.1882,-9.1747,-14.4953,-2.64111,24.3443
2023-03-14 22:33:46:782,-0.685959,2.56292,-9.55553,-14.5411,-2.70062,24.3386
2023-03-14 22:33:46:792,-0.724484,2.54125,-9.6081,-14.5592,-2.66362,24.3339
2023-03-14 22:33:46:802,-0.446854,2.2833,-9.25708,-14.5626,-2.6781,24.3018
2023-03-14 22:33:46:812,-0.341081,2.35073,-9.30429,-14.5815,-2.69833,24.2718
2023-03-14 22:33:46:822,-0.381586,2.41524,-9.36717,-14.6082,-2.71838,24.2548
2023-03-14 22:33:46:832,-0.304104,2.52424,-9.49951,-14.648,-2.75098,24.2536
2023-03-14 22:33:46:842,-0.398393,2.51043,-9.53709,-14.6833,-2.75951,24.2618
2023-03-14 22:33:46:852,-0.506405,2.52937,-9.49938,-14.7149,-2.78672,24.2779
2023-03-14 22:33:46:862,-0.519187,2.53782,-9.52453,-14.7427,-2.80816,24.2977
2023-03-14 22:33:46:872,-0.579532,2.54736,-9.54172,-14.7666,-2.82565,24.3141
2023-03-14 22:33:46:882,-0.626338,2.59265,-9.60111,-14.7828,-2.8345,24.3356
2023-03-14 22:33:46:892,-0.595947,2.58048,-9.59145,-14.7837,-2.82764,24.353
2023-03-14 22:33:46:902,-0.515461,2.45116,-9.45125,-14.7694,-2.81361,24.3634
2023-03-14 22:33:46:913,-0.414522,2.36769,-9.3248,-14.7554,-2.80507,24.3708
2023-03-14 22:33:46:922,-0.415172,2.41357,-9.34223,-14.7462,-2.78562,24.3854
2023-03-14 22:33:46:932,-0.425514,2.43449,-9.36332,-14.74,-2.75758,24.4021
2023-03-14 22:33:46:942,-0.362958,2.41343,-9.38359,-14.7403,-2.73929,24.4177
2023-03-14 22:33:46:952,-0.342253,2.46966,-9.49527,-14.7528,-2.72117,24.438
2023-03-14 22:33:46:962,-0.406347,2.53275,-9.60545,-14.7628,-2.69725,24.4649
2023-03-14 22:33:46:972,-0.444314,2.53893,-9.62245,-14.767,-2.66552,24.4954
2023-03-14 22:33:46:982,-0.487107,2.47481,-9.54637,-14.7642,-2.63153,24.5296
2023-03-14 22:33:46:992,-0.46208,2.39977,-9.46575,-14.7546,-2.60428,24.5606
2023-03-14 22:33:47:2,-0.441589,2.45259,-9.48887,-14.7435,-2.58655,24.5858
2023-03-14 22:33:47:12,-0.48926,2.4746,-9.51121,-14.7331,-2.55301,24.6086
2023-03-14 22:33:47:22,-0.408351,2.43642,-9.44523,-14.7138,-2.52287,24.6276
2023-03-14 22:33:47:32,-0.323316,2.41585,-9.40455,-14.6919,-2.49237,24.6422
2023-03-14 22:33:47:42,-0.287958,2.41447,-9.39858,-14.672,-2.46245,24.659
2023-03-14 22:33:47:52,-0.271372,2.42207,-9.42208,-14.658,-2.43552,24.6746
2023-03-14 22:33:47:62,-0.273019,2.44638,-9.46138,-14.6522,-2.40644,24.6973
2023-03-14 22:33:47:72,-0.280367,2.47014,-9.47798,-14.6433,-2.38263,24.7221
2023-03-14 22:33:47:82,-0.278626,2.47318,-9.47961,-14.635,-2.35056,24.7481
2023-03-14 22:33:47:92,-0.271932,2.47415,-9.49907,-14.629,-2.32338,24.772
2023-03-14 22:33:47:102,-0.257788,2.46221,-9.49933,-14.622,-2.2971,24.7936
2023-03-14 22:33:47:112,-0.302879,2.44697,-9.49708,-14.6121,-2.27502,24.8158
2023-03-14 22:33:47:122,-0.319783,2.44332,-9.50225,-14.6032,-2.25724,24.8397
2023-03-14 22:33:47:132,-0.363591,2.4492,-9.52689,-14.5978,-2.24666,24.8681
2023-03-14 22:33:47:142,-0.453458,2.43649,-9.47598,-14.5876,-2.23713,24.8913
2023-03-14 22:33:47:152,-0.430954,2.42682,-9.43186,-14.5799,-2.23494,24.9083
2023-03-14 22:33:47:162,-0.411042,2.44122,-9.46753,-14.5719,-2.23145,24.9174
2023-03-14 22:33:47:172,-0.397222,2.43404,-9.46431,-14.5609,-2.22589,24.9253
2023-03-14 22:33:47:182,-0.394321,2.43114,-9.46699,-14.5496,-2.2191,24.9292
2023-03-14 22:33:47:192,-0.384537,2.42418,-9.46504,-14.54,-2.2169,24.9286
2023-03-14 22:33:47:202,-0.355607,2.41625,-9.48664,-14.5299,-2.2136,24.9224
2023-03-14 22:33:47:212,-0.379185,2.40309,-9.47684,-14.518,-2.21916,24.9155
2023-03-14 22:33:47:222,-0.397616,2.3904,-9.46774,-14.5081,-2.2236,24.903
2023-03-14 22:33:47:232,-0.37973,2.38301,-9.47048,-14.5032,-2.23826,24.8893
2023-03-14 22:33:47:242,-0.339316,2.39356,-9.46673,-14.496,-2.251,24.8774
2023-03-14 22:33:47:252,-0.373555,2.38963,-9.43374,-14.4891,-2.25864,24.8639
2023-03-14 22:33:47:262,-0.416397,2.40852,-9.42486,-14.4835,-2.2712,24.8528
2023-03-14 22:33:47:272,-0.405714,2.43922,-9.4778,-14.4764,-2.27927,24.8413
2023-03-14 22:33:47:282,-0.426243,2.40009,-9.4368,-14.4663,-2.28203,24.8231
2023-03-14 22:33:47:292,-0.351958,2.39792,-9.42101,-14.4555,-2.287,24.8035
2023-03-14 22:33:47:302,-0.343998,2.41734,-9.47062,-14.4403,-2.28234,24.7868
2023-03-14 22:33:47:312,-0.355581,2.42121,-9.46727,-14.4236,-2.27314,24.7673
2023-03-14 22:33:47:322,-0.352843,2.42259,-9.46552,-14.4078,-2.26453,24.7482
2023-03-14 22:33:47:332,-0.335073,2.40419,-9.44979,-14.394,-2.25814,24.7269
2023-03-14 22:33:47:342,-0.308692,2.4205,-9.45761,-14.3815,-2.24985,24.707
2023-03-14 22:33:47:352,-0.257707,2.421,-9.46805,-14.3693,-2.23755,24.6884
2023-03-14 22:33:47:362,-0.299994,2.41335,-9.42918,-14.3586,-2.22658,24.6739
2023-03-14 22:33:47:372,-0.277808,2.41964,-9.43553,-14.3534,-2.21126,24.6629
2023-03-14 22:33:47:382,-0.277118,2.43484,-9.47116,-14.3463,-2.19796,24.6561
2023-03-14 22:33:47:392,-0.315374,2.45856,-9.49085,-14.3423,-2.18671,24.6512
2023-03-14 22:33:47:402,-0.349147,2.47662,-9.49773,-14.3349,-2.1768,24.652
2023-03-14 22:33:47:412,-0.272701,2.48121,-9.52086,-14.3312,-2.16633,24.6512
2023-03-14 22:33:47:422,-0.286676,2.49082,-9.50978,-14.3274,-2.15973,24.6536
2023-03-14 22:33:47:432,-0.362339,2.49468,-9.49351,-14.3213,-2.15333,24.6609
2023-03-14 22:33:47:442,-0.352545,2.48306,-9.4942,-14.3158,-2.15389,24.6654
2023-03-14 22:33:47:452,-0.337089,2.47242,-9.52394,-14.3078,-2.1555,24.6677
2023-03-14 22:33:47:462,-0.247059,2.47112,-9.54151,-14.2978,-2.15356,24.6725
2023-03-14 22:33:47:472,-0.236263,2.44856,-9.52528,-14.2836,-2.15475,24.6819
2023-03-14 22:33:47:482,-0.428723,2.38624,-9.41405,-14.2616,-2.1538,24.7011
2023-03-14 22:33:47:492,-0.428626,2.39618,-9.39357,-14.2501,-2.15535,24.7176
2023-03-14 22:33:47:502,-0.378764,2.41296,-9.43418,-14.2383,-2.15354,24.7284
2023-03-14 22:33:47:512,-0.354618,2.44234,-9.46201,-14.2273,-2.14937,24.7374
2023-03-14 22:33:47:522,-0.344087,2.42838,-9.47341,-14.2169,-2.14658,24.7422
2023-03-14 22:33:47:532,-0.348141,2.40553,-9.46473,-14.2042,-2.14765,24.7488
2023-03-14 22:33:47:542,-0.330054,2.40012,-9.4705,-14.1948,-2.14762,24.7541
2023-03-14 22:33:47:552,-0.289706,2.3897,-9.49359,-14.184,-2.14684,24.7598
2023-03-14 22:33:47:562,-0.258643,2.37771,-9.47956,-14.1773,-2.14268,24.7658
2023-03-14 22:33:47:572,-0.245428,2.37363,-9.46873,-14.1671,-2.1367,24.7746
2023-03-14 22:33:47:582,-0.247942,2.35739,-9.47454,-14.1577,-2.13817,24.7864
2023-03-14 22:33:47:592,-0.304373,2.35014,-9.4555,-14.1446,-2.1356,24.8022
2023-03-14 22:33:47:602,-0.325377,2.33627,-9.40238,-14.1392,-2.14526,24.8188
2023-03-14 22:33:47:612,-0.308648,2.43376,-9.52778,-14.1395,-2.15234,24.841
2023-03-14 22:33:47:622,-0.352578,2.44903,-9.52894,-14.1376,-2.14741,24.8636
2023-03-14 22:33:47:632,-0.363024,2.38705,-9.43681,-14.1327,-2.14691,24.8837
2023-03-14 22:33:47:642,-0.367269,2.35917,-9.4148,-14.1259,-2.15342,24.898
2023-03-14 22:33:47:653,-0.386725,2.38569,-9.43502,-14.1237,-2.16235,24.9097
2023-03-14 22:33:47:662,-0.412952,2.38955,-9.43274,-14.1211,-2.17358,24.9216
2023-03-14 22:33:47:672,-0.419878,2.36235,-9.42481,-14.1207,-2.18375,24.9287
2023-03-14 22:33:47:682,-0.435154,2.36011,-9.4033,-14.1227,-2.19373,24.9352
2023-03-14 22:33:47:692,-0.429405,2.36658,-9.42611,-14.1288,-2.20468,24.9374
2023-03-14 22:33:47:702,-0.434979,2.41147,-9.47838,-14.1361,-2.21441,24.9395
2023-03-14 22:33:47:712,-0.427719,2.47987,-9.54965,-14.1456,-2.22113,24.9344
2023-03-14 22:33:47:722,-0.392307,2.50207,-9.60378,-14.1553,-2.22814,24.9251
2023-03-14 22:33:47:732,-0.380923,2.48074,-9.60541,-14.1537,-2.23198,24.9134
2023-03-14 22:33:47:742,-0.384384,2.46543,-9.55311,-14.1456,-2.23549,24.9036
2023-03-14 22:33:47:752,-0.388996,2.42811,-9.50046,-14.1321,-2.23699,24.8921
2023-03-14 22:33:47:762,-0.402282,2.39922,-9.47182,-14.1155,-2.23809,24.8859
2023-03-14 22:33:47:772,-0.39998,2.39493,-9.46882,-14.1017,-2.23689,24.8778
2023-03-14 22:33:47:782,-0.382974,2.39932,-9.47104,-14.0921,-2.23879,24.8682
2023-03-14 22:33:47:792,-0.366106,2.38711,-9.49599,-14.0821,-2.24107,24.8595
2023-03-14 22:33:47:802,-0.387891,2.4067,-9.54277,-14.0719,-2.24491,24.8503
2023-03-14 22:33:47:812,-0.397604,2.41011,-9.52645,-14.0625,-2.24517,24.8436
2023-03-14 22:33:47:822,-0.34412,2.37183,-9.5041,-14.0464,-2.24941,24.8328
2023-03-14 22:33:47:832,-0.257152,2.34269,-9.48221,-14.0329,-2.25342,24.8187
2023-03-14 22:33:47:842,-0.240157,2.32571,-9.47062,-14.018,-2.26197,24.8078
2023-03-14 22:33:47:852,-0.291294,2.31548,-9.44422,-14.0076,-2.27902,24.8022
2023-03-14 22:33:47:862,-0.348976,2.29783,-9.45165,-13.9951,-2.29564,24.8023
2023-03-14 22:33:47:872,-0.36155,2.31208,-9.46417,-13.9823,-2.31558,24.803
2023-03-14 22:33:47:882,-0.372298,2.33436,-9.48552,-13.9791,-2.33637,24.8025
2023-03-14 22:33:47:892,-0.362346,2.34749,-9.48861,-13.9711,-2.35531,24.8039
2023-03-14 22:33:47:902,-0.361762,2.34976,-9.49446,-13.9678,-2.37342,24.8076
2023-03-14 22:33:47:912,-0.36995,2.34671,-9.49534,-13.9632,-2.39034,24.8079
2023-03-14 22:33:47:922,-0.394177,2.3371,-9.46176,-13.9605,-2.4061,24.8116
2023-03-14 22:33:47:932,-0.422304,2.33985,-9.44566,-13.9589,-2.42062,24.8183
2023-03-14 22:33:47:942,-0.431937,2.35471,-9.45245,-13.9591,-2.43351,24.8235
2023-03-14 22:33:47:953,-0.429472,2.35437,-9.44557,-13.9542,-2.44216,24.8266
2023-03-14 22:33:47:962,-0.425004,2.32886,-9.41717,-13.9538,-2.45176,24.8284
2023-03-14 22:33:47:972,-0.424691,2.30593,-9.40554,-13.9495,-2.46247,24.8272
2023-03-14 22:33:47:982,-0.413814,2.30483,-9.39226,-13.9478,-2.47345,24.8275
2023-03-14 22:33:47:992,-0.422617,2.31318,-9.40057,-13.9514,-2.48582,24.8249
2023-03-14 22:33:48:2,-0.435436,2.3158,-9.4036,-13.9632,-2.49832,24.8297
2023-03-14 22:33:48:12,-0.435419,2.3372,-9.41524,-13.9788,-2.50678,24.8314
2023-03-14 22:33:48:22,-0.452743,2.36963,-9.48031,-13.9973,-2.51959,24.8356
2023-03-14 22:33:48:32,-0.474351,2.42021,-9.54348,-14.0156,-2.53561,24.8382
2023-03-14 22:33:48:42,-0.484364,2.41275,-9.52198,-14.0276,-2.54679,24.8411
2023-03-14 22:33:48:52,-0.492048,2.39368,-9.50007,-14.0368,-2.55648,24.8441
2023-03-14 22:33:48:62,-0.480908,2.39607,-9.49297,-14.0489,-2.56427,24.8449
2023-03-14 22:33:48:72,-0.457417,2.37931,-9.48348,-14.0535,-2.56668,24.8439
2023-03-14 22:33:48:82,-0.444853,2.39901,-9.4872,-14.0601,-2.56736,24.8428
2023-03-14 22:33:48:92,-0.475768,2.40489,-9.49647,-14.0605,-2.56435,24.8447
2023-03-14 22:33:48:102,-0.463341,2.35398,-9.44666,-14.0578,-2.55889,24.8356
2023-03-14 22:33:48:112,-0.40067,2.31491,-9.40095,-14.0598,-2.56669,24.8237
2023-03-14 22:33:48:122,-0.454726,2.39367,-9.46684,-14.0641,-2.57961,24.814
2023-03-14 22:33:48:132,-0.50792,2.44811,-9.56693,-14.074,-2.57813,24.8095
2023-03-14 22:33:48:142,-0.470654,2.3983,-9.53997,-14.0731,-2.56889,24.8038
2023-03-14 22:33:48:152,-0.422868,2.3702,-9.49682,-14.0707,-2.56367,24.7935
2023-03-14 22:33:48:162,-0.439344,2.39206,-9.50918,-14.0703,-2.55467,24.7825
2023-03-14 22:33:48:172,-0.437751,2.40011,-9.52555,-14.0692,-2.54734,24.7779
2023-03-14 22:33:48:182,-0.413733,2.40268,-9.51648,-14.0678,-2.53978,24.7675
2023-03-14 22:33:48:192,-0.387972,2.36885,-9.48704,-14.0658,-2.52726,24.7544
2023-03-14 22:33:48:202,-0.34368,2.33596,-9.45147,-14.0603,-2.51524,24.7395
2023-03-14 22:33:48:212,-0.301503,2.36649,-9.4756,-14.0557,-2.50396,24.7234
2023-03-14 22:33:48:222,-0.285399,2.41885,-9.52797,-14.0584,-2.49699,24.7118
2023-03-14 22:33:48:232,-0.387894,2.41216,-9.51542,-14.0582,-2.48864,24.7048
2023-03-14 22:33:48:242,-0.39296,2.39255,-9.5108,-14.0546,-2.48113,24.7009
2023-03-14 22:33:48:252,-0.375502,2.37749,-9.52203,-14.0476,-2.4786,24.6966
2023-03-14 22:33:48:262,-0.396638,2.37997,-9.55137,-14.0444,-2.47498,24.6967
2023-03-14 22:33:48:272,-0.475256,2.38242,-9.52167,-14.04,-2.47212,24.7008
2023-03-14 22:33:48:282,-0.543031,2.37233,-9.50451,-14.0313,-2.46987,24.7037
2023-03-14 22:33:48:292,-0.553102,2.36264,-9.47222,-14.0193,-2.4702,24.704
2023-03-14 22:33:48:302,-0.541234,2.36388,-9.49799,-14.0067,-2.46394,24.7048
2023-03-14 22:33:48:312,-0.507661,2.37312,-9.54011,-13.9853,-2.43601,24.7083
2023-03-14 22:33:48:322,-0.484661,2.32814,-9.47901,-13.9611,-2.40699,24.7117
2023-03-14 22:33:48:332,-0.449804,2.29691,-9.41373,-13.9364,-2.38117,24.7113
2023-03-14 22:33:48:342,-0.402071,2.31536,-9.43606,-13.9147,-2.3601,24.7111
2023-03-14 22:33:48:352,-0.407808,2.37023,-9.5034,-13.9002,-2.33481,24.7103
2023-03-14 22:33:48:362,-0.39912,2.39097,-9.51803,-13.8783,-2.30324,24.7096
2023-03-14 22:33:48:372,-0.394517,2.37277,-9.48675,-13.8522,-2.27096,24.7101
2023-03-14 22:33:48:382,-0.387443,2.25358,-9.39208,-13.8217,-2.23607,24.7088
2023-03-14 22:33:48:392,-0.364254,2.15533,-9.26312,-13.8008,-2.23467,24.7046
2023-03-14 22:33:48:402,-0.37792,2.35272,-9.48974,-13.8028,-2.2443,24.7011
2023-03-14 22:33:48:412,-0.449593,2.47014,-9.64378,-13.805,-2.23217,24.705
2023-03-14 22:33:48:422,-0.472796,2.33988,-9.49607,-13.799,-2.22252,24.7051
2023-03-14 22:33:48:432,-0.475807,2.23532,-9.34919,-13.7868,-2.22447,24.6989
2023-03-14 22:33:48:442,-0.446668,2.31196,-9.42319,-13.7878,-2.23376,24.6853
2023-03-14 22:33:48:452,-0.423465,2.38046,-9.51296,-13.7932,-2.23414,24.671
2023-03-14 22:33:48:462,-0.42381,2.3644,-9.46443,-13.7912,-2.23376,24.6524
2023-03-14 22:33:48:472,-0.409878,2.32661,-9.43842,-13.7898,-2.22902,24.6303
2023-03-14 22:33:48:482,-0.33198,2.30709,-9.43824,-13.7852,-2.21944,24.6063
2023-03-14 22:33:48:492,-0.289521,2.31306,-9.46663,-13.7864,-2.20793,24.5829
2023-03-14 22:33:48:502,-0.346125,2.34199,-9.51626,-13.7896,-2.19561,24.5656
2023-03-14 22:33:48:512,-0.404068,2.39733,-9.55115,-13.7973,-2.18416,24.556
2023-03-14 22:33:48:522,-0.395861,2.40563,-9.5663,-13.8028,-2.17148,24.5419
2023-03-14 22:33:48:532,-0.354716,2.38159,-9.54753,-13.8053,-2.16264,24.5285
2023-03-14 22:33:48:542,-0.363502,2.36464,-9.51985,-13.7999,-2.14733,24.5148
2023-03-14 22:33:48:552,-0.415166,2.40185,-9.52614,-13.7988,-2.13397,24.5051
2023-03-14 22:33:48:562,-0.442185,2.40886,-9.5405,-13.8004,-2.13039,24.4917
2023-03-14 22:33:48:572,-0.450867,2.39532,-9.49685,-13.7939,-2.12878,24.4707
2023-03-14 22:33:48:582,-0.450538,2.39688,-9.45077,-13.7882,-2.12891,24.4512
2023-03-14 22:33:48:592,-0.44502,2.40823,-9.45591,-13.7874,-2.1278,24.4246
2023-03-14 22:33:48:602,-0.426063,2.41965,-9.48295,-13.7868,-2.13327,24.3971
2023-03-14 22:33:48:612,-0.391845,2.45027,-9.49612,-13.7844,-2.138,24.362
2023-03-14 22:33:48:622,-0.391873,2.44314,-9.5059,-13.7811,-2.14495,24.3202
2023-03-14 22:33:48:632,-0.44569,2.40948,-9.48066,-13.7742,-2.16278,24.2793
2023-03-14 22:33:48:642,-0.488525,2.39587,-9.44444,-13.7646,-2.18662,24.2333
2023-03-14 22:33:48:652,-0.499859,2.42199,-9.48714,-13.7544,-2.20784,24.1839
2023-03-14 22:33:48:662,-0.482514,2.40891,-9.47995,-13.7405,-2.21826,24.1252
2023-03-14 22:33:48:672,-0.423852,2.35389,-9.44563,-13.7269,-2.22938,24.0615
2023-03-14 22:33:48:682,-0.351374,2.35376,-9.44452,-13.7094,-2.22971,23.9966
2023-03-14 22:33:48:692,-0.326836,2.35363,-9.43236,-13.6915,-2.22551,23.9364
2023-03-14 22:33:48:702,-0.272615,2.34688,-9.45757,-13.6764,-2.21382,23.8705
2023-03-14 22:33:48:712,-0.210751,2.35925,-9.48968,-13.6635,-2.20266,23.8102
2023-03-14 22:33:48:722,-0.165795,2.36314,-9.50835,-13.6521,-2.18683,23.7537
2023-03-14 22:33:48:732,-0.134094,2.34743,-9.5301,-13.6385,-2.17087,23.7023
2023-03-14 22:33:48:742,-0.133987,2.36198,-9.52498,-13.6271,-2.15445,23.6573
2023-03-14 22:33:48:752,-0.146677,2.38699,-9.53504,-13.6185,-2.13821,23.6204
2023-03-14 22:33:48:762,-0.171032,2.37667,-9.53116,-13.6073,-2.12374,23.5865
2023-03-14 22:33:48:772,-0.21757,2.36753,-9.52316,-13.5944,-2.10761,23.562
2023-03-14 22:33:48:782,-0.250452,2.37665,-9.50347,-13.5789,-2.09584,23.5396
2023-03-14 22:33:48:792,-0.212478,2.37628,-9.51279,-13.5613,-2.0821,23.5132
2023-03-14 22:33:48:802,-0.140331,2.36412,-9.53353,-13.5464,-2.06648,23.4881
2023-03-14 22:33:48:812,-0.0896389,2.35973,-9.53414,-13.5331,-2.0559,23.4613
2023-03-14 22:33:48:822,-0.0953688,2.37905,-9.57548,-13.5237,-2.0515,23.4454
2023-03-14 22:33:48:832,-0.169575,2.39228,-9.58143,-13.5123,-2.05286,23.435
2023-03-14 22:33:48:842,-0.233587,2.42589,-9.59618,-13.5006,-2.05855,23.4258
2023-03-14 22:33:48:852,-0.27774,2.40982,-9.57722,-13.4849,-2.07087,23.418
2023-03-14 22:33:48:862,-0.319011,2.39383,-9.54822,-13.4664,-2.08257,23.4093
2023-03-14 22:33:48:872,-0.342865,2.38613,-9.50589,-13.4472,-2.09791,23.3994
2023-03-14 22:33:48:882,-0.352167,2.37186,-9.52561,-13.4289,-2.10973,23.391
2023-03-14 22:33:48:892,-0.30106,2.36328,-9.56067,-13.4094,-2.11742,23.3797
2023-03-14 22:33:48:902,-0.256624,2.30768,-9.54796,-13.3782,-2.12774,23.3638
2023-03-14 22:33:48:912,-0.284284,2.26349,-9.49639,-13.3379,-2.13749,23.3497
2023-03-14 22:33:48:922,-0.306953,2.20953,-9.46416,-13.2973,-2.149,23.344
2023-03-14 22:33:48:932,-0.270309,2.17854,-9.47266,-13.2562,-2.15991,23.3409
2023-03-14 22:33:48:942,-0.292397,2.14911,-9.47269,-13.217,-2.17372,23.3382
2023-03-14 22:33:48:952,-0.374409,2.11691,-9.46348,-13.1804,-2.19133,23.3381
2023-03-14 22:33:48:962,-0.463354,2.11188,-9.46666,-13.1414,-2.21625,23.3428
2023-03-14 22:33:48:972,-0.464113,2.08642,-9.4929,-13.1082,-2.24022,23.3427
2023-03-14 22:33:48:982,-0.43284,2.06335,-9.49303,-13.0756,-2.26076,23.3425
2023-03-14 22:33:48:992,-0.390759,2.0605,-9.45969,-13.0457,-2.27894,23.338
2023-03-14 22:33:49:2,-0.396598,2.04312,-9.40452,-13.0206,-2.29314,23.3323
2023-03-14 22:33:49:12,-0.366774,2.01048,-9.35719,-12.9973,-2.30877,23.3302
2023-03-14 22:33:49:22,-0.32356,1.99343,-9.3242,-12.9825,-2.319,23.3255
2023-03-14 22:33:49:32,-0.320385,1.99613,-9.33878,-12.9752,-2.32773,23.3265
2023-03-14 22:33:49:42,-0.360541,2.01728,-9.37929,-12.9767,-2.33355,23.3305
2023-03-14 22:33:49:52,-0.404413,2.05511,-9.42917,-12.988,-2.34632,23.3424
2023-03-14 22:33:49:62,-0.418252,2.11252,-9.49002,-13.0109,-2.36281,23.3523
2023-03-14 22:33:49:73,-0.390423,2.13534,-9.5366,-13.0355,-2.37659,23.3633
2023-03-14 22:33:49:82,-0.417035,2.16655,-9.5532,-13.059,-2.38967,23.3758
2023-03-14 22:33:49:92,-0.454122,2.1904,-9.56624,-13.0795,-2.39479,23.3889
2023-03-14 22:33:49:102,-0.450119,2.18303,-9.57541,-13.0956,-2.40086,23.407
2023-03-14 22:33:49:112,-0.452561,2.18164,-9.54852,-13.1123,-2.40238,23.4251
2023-03-14 22:33:49:122,-0.449678,2.17187,-9.54667,-13.126,-2.39953,23.4408
2023-03-14 22:33:49:132,-0.453371,2.17581,-9.57529,-13.1392,-2.39584,23.4558
2023-03-14 22:33:49:142,-0.458597,2.17871,-9.58361,-13.1544,-2.39235,23.4727
2023-03-14 22:33:49:152,-0.473191,2.18674,-9.5826,-13.1663,-2.38451,23.4869
2023-03-14 22:33:49:162,-0.46996,2.19491,-9.55143,-13.1741,-2.37468,23.5002
2023-03-14 22:33:49:172,-0.447716,2.18328,-9.53294,-13.1746,-2.3609,23.5098
2023-03-14 22:33:49:182,-0.407773,2.19617,-9.54763,-13.1742,-2.34379,23.51
2023-03-14 22:33:49:192,-0.362489,2.19288,-9.56123,-13.1772,-2.32967,23.5005
2023-03-14 22:33:49:202,-0.349305,2.17802,-9.58556,-13.1784,-2.31443,23.4925
2023-03-14 22:33:49:212,-0.36004,2.17983,-9.60071,-13.1785,-2.29649,23.4834
2023-03-14 22:33:49:222,-0.38721,2.19629,-9.60578,-13.176,-2.28691,23.4716
2023-03-14 22:33:49:232,-0.387236,2.21659,-9.60353,-13.1735,-2.27881,23.456
2023-03-14 22:33:49:242,-0.38115,2.21206,-9.57826,-13.1707,-2.27705,23.4388
2023-03-14 22:33:49:252,-0.370953,2.17287,-9.52557,-13.1676,-2.27407,23.4196
2023-03-14 22:33:49:262,-0.38003,2.1303,-9.48339,-13.1595,-2.27098,23.3974
2023-03-14 22:33:49:272,-0.423032,2.15241,-9.48329,-13.1545,-2.26684,23.3717
2023-03-14 22:33:49:282,-0.484526,2.17167,-9.51781,-13.1507,-2.26697,23.3449
2023-03-14 22:33:49:292,-0.481889,2.17463,-9.55031,-13.1499,-2.26521,23.3166
2023-03-14 22:33:49:302,-0.471635,2.19177,-9.58459,-13.1435,-2.2585,23.2775
2023-03-14 22:33:49:312,-0.460006,2.23149,-9.62175,-13.1359,-2.24826,23.2329
2023-03-14 22:33:49:322,-0.393525,2.24698,-9.62301,-13.1268,-2.2378,23.1759
2023-03-14 22:33:49:332,-0.309811,2.19791,-9.55668,-13.1054,-2.23089,23.1171
2023-03-14 22:33:49:342,-0.225464,2.14907,-9.46935,-13.083,-2.22651,23.0563
2023-03-14 22:33:49:352,-0.244749,2.13337,-9.43661,-13.0672,-2.22017,23.0025
2023-03-14 22:33:49:362,-0.259293,2.13757,-9.44216,-13.0567,-2.21721,22.9526
2023-03-14 22:33:49:372,-0.148986,2.17883,-9.56566,-13.055,-2.21595,22.9043
2023-03-14 22:33:49:382,-0.131606,2.16415,-9.57802,-13.0519,-2.22196,22.8664
2023-03-14 22:33:49:392,-0.270335,2.18733,-9.58959,-13.0428,-2.22828,22.8398
2023-03-14 22:33:49:402,-0.323879,2.13998,-9.57207,-13.0256,-2.23555,22.8179
2023-03-14 22:33:49:412,-0.264943,2.07604,-9.52976,-13.0049,-2.23844,22.7935
2023-03-14 22:33:49:423,-0.167693,2.0573,-9.51193,-12.9882,-2.23202,22.771
2023-03-14 22:33:49:432,-0.111769,2.0447,-9.48592,-12.9718,-2.22643,22.7578
2023-03-14 22:33:49:442,-0.0891459,2.02015,-9.45884,-12.9603,-2.22014,22.7497
2023-03-14 22:33:49:452,-0.071096,2.02442,-9.46149,-12.9543,-2.21537,22.7519
2023-03-14 22:33:49:462,-0.0892494,2.04918,-9.48168,-12.9503,-2.21315,22.7678
2023-03-14 22:33:49:472,-0.168877,2.06593,-9.4682,-12.9508,-2.21076,22.789
2023-03-14 22:33:49:482,-0.245428,2.06173,-9.42558,-12.9499,-2.2136,22.8207
2023-03-14 22:33:49:492,-0.298864,2.04299,-9.36901,-12.9524,-2.21532,22.8586
2023-03-14 22:33:49:502,-0.318507,2.02854,-9.3301,-12.9624,-2.21615,22.8994
2023-03-14 22:33:49:512,-0.307009,2.02717,-9.33127,-12.9781,-2.21705,22.9439
2023-03-14 22:33:49:522,-0.286601,2.0633,-9.34651,-13.0101,-2.22751,22.9851
2023-03-14 22:33:49:532,-0.309787,2.1947,-9.45844,-13.0606,-2.24433,23.031
2023-03-14 22:33:49:542,-0.370123,2.30996,-9.56057,-13.1171,-2.26877,23.0746
2023-03-14 22:33:49:552,-0.388792,2.33256,-9.53078,-13.1641,-2.29704,23.1197
2023-03-14 22:33:49:562,-0.443108,2.31374,-9.45286,-13.2044,-2.32525,23.1646
2023-03-14 22:33:49:572,-0.514797,2.31322,-9.41259,-13.2431,-2.35242,23.2141
2023-03-14 22:33:49:582,-0.536314,2.32831,-9.44977,-13.2841,-2.3787,23.2615
2023-03-14 22:33:49:592,-0.572633,2.34693,-9.50662,-13.3302,-2.40118,23.3008
2023-03-14 22:33:49:602,-0.627489,2.38156,-9.57642,-13.3786,-2.42733,23.3389
2023-03-14 22:33:49:612,-0.633224,2.41432,-9.68284,-13.4254,-2.44851,23.3651
2023-03-14 22:33:49:622,-0.556145,2.45847,-9.7737,-13.4711,-2.46685,23.383
2023-03-14 22:33:49:632,-0.431037,2.49906,-9.78787,-13.5089,-2.48447,23.3925
2023-03-14 22:33:49:642,-0.320709,2.46637,-9.7413,-13.5324,-2.50557,23.3964
2023-03-14 22:33:49:652,-0.293239,2.42001,-9.62059,-13.5436,-2.53123,23.4012
2023-03-14 22:33:49:662,-0.340466,2.35026,-9.47408,-13.5471,-2.56898,23.4157
2023-03-14 22:33:49:672,-0.508031,2.28761,-9.33421,-13.5475,-2.61402,23.4396
2023-03-14 22:33:49:682,-0.672988,2.26522,-9.24408,-13.5501,-2.65683,23.4675
2023-03-14 22:33:49:692,-0.749636,2.30519,-9.26466,-13.5665,-2.69119,23.4913
2023-03-14 22:33:49:702,-0.715898,2.36222,-9.40805,-13.5938,-2.71103,23.5058
2023-03-14 22:33:49:712,-0.565024,2.44415,-9.62527,-13.6269,-2.72136,23.5059
2023-03-14 22:33:49:722,-0.36907,2.50606,-9.83116,-13.6583,-2.72378,23.5008
2023-03-14 22:33:49:732,-0.184527,2.51573,-9.95892,-13.6739,-2.72309,23.4891
2023-03-14 22:33:49:742,-0.07292,2.4326,-9.89134,-13.6664,-2.73514,23.4842
2023-03-14 22:33:49:752,-0.120831,2.27984,-9.64523,-13.6337,-2.75789,23.4926
2023-03-14 22:33:49:762,-0.33414,2.17012,-9.40085,-13.5935,-2.78904,23.5245
2023-03-14 22:33:49:772,-0.537596,2.10422,-9.2446,-13.5519,-2.80413,23.5771
2023-03-14 22:33:49:782,-0.615901,2.0636,-9.1432,-13.5166,-2.80568,23.6359
2023-03-14 22:33:49:792,-0.630639,2.08038,-9.15425,-13.4976,-2.79075,23.6927
2023-03-14 22:33:49:802,-0.593775,2.17307,-9.29089,-13.4988,-2.75736,23.7422
2023-03-14 22:33:49:812,-0.427073,2.27925,-9.54345,-13.516,-2.71586,23.782
2023-03-14 22:33:49:822,-0.148956,2.3575,-9.8273,-13.5366,-2.6641,23.8079
2023-03-14 22:33:49:832,0.0346169,2.37274,-9.94064,-13.546,-2.61612,23.8349
2023-03-14 22:33:49:842,0.0326515,2.31701,-9.83962,-13.5315,-2.58171,23.8718
2023-03-14 22:33:49:852,-0.104021,2.24664,-9.66239,-13.5038,-2.55948,23.929
2023-03-14 22:33:49:862,-0.235115,2.15246,-9.44581,-13.4602,-2.54319,23.9949
2023-03-14 22:33:49:872,-0.379828,2.04421,-9.22318,-13.4169,-2.53482,24.0666
2023-03-14 22:33:49:882,-0.542195,2.02661,-9.12677,-13.3833,-2.5245,24.1463
2023-03-14 22:33:49:892,-0.662567,2.1115,-9.1825,-13.3758,-2.51265,24.2218
2023-03-14 22:33:49:902,-0.560419,2.23433,-9.38391,-13.3887,-2.49442,24.2755
2023-03-14 22:33:49:912,-0.259623,2.26407,-9.57751,-13.4051,-2.46791,24.3083
2023-03-14 22:33:49:922,-0.00669906,2.2566,-9.70736,-13.4206,-2.45611,24.3318
2023-03-14 22:33:49:932,0.0397004,2.2765,-9.80095,-13.4383,-2.46289,24.3637
2023-03-14 22:33:49:942,-0.0932153,2.27809,-9.77384,-13.4464,-2.48698,24.4098
2023-03-14 22:33:49:952,-0.246286,2.22137,-9.62661,-13.4415,-2.52161,24.4639
2023-03-14 22:33:49:962,-0.3662,2.17064,-9.45127,-13.43,-2.55997,24.5254
2023-03-14 22:33:49:973,-0.428187,2.15191,-9.31021,-13.4171,-2.59449,24.5891
2023-03-14 22:33:49:982,-0.416214,2.13064,-9.24166,-13.4126,-2.61848,24.657
2023-03-14 22:33:49:992,-0.359425,2.15849,-9.26121,-13.418,-2.63515,24.7229
2023-03-14 22:33:50:2,-0.315872,2.23483,-9.34418,-13.439,-2.65608,24.7907
2023-03-14 22:33:50:12,-0.352126,2.29192,-9.40293,-13.4649,-2.67783,24.8625
2023-03-14 22:33:50:22,-0.413499,2.31196,-9.44086,-13.4962,-2.70945,24.9407
2023-03-14 22:33:50:32,-0.479914,2.31113,-9.46174,-13.5252,-2.74376,25.0157
2023-03-14 22:33:50:42,-0.592422,2.33193,-9.40963,-13.5538,-2.78649,25.0914
2023-03-14 22:33:50:52,-0.687253,2.33262,-9.35582,-13.5795,-2.82807,25.1678
2023-03-14 22:33:50:62,-0.654007,2.32517,-9.34623,-13.608,-2.86885,25.232
2023-03-14 22:33:50:72,-0.556235,2.31301,-9.34921,-13.6365,-2.90984,25.2859
2023-03-14 22:33:50:82,-0.493323,2.29223,-9.36437,-13.6702,-2.94397,25.3325
2023-03-14 22:33:50:92,-0.518509,2.3294,-9.3677,-13.7077,-2.97981,25.3797
2023-03-14 22:33:50:102,-0.587082,2.37997,-9.37568,-13.7536,-3.01841,25.4261
2023-03-14 22:33:50:112,-0.639549,2.42051,-9.35635,-13.8041,-3.05845,25.4728
2023-03-14 22:33:50:122,-0.670352,2.45776,-9.36742,-13.8635,-3.10132,25.5164
2023-03-14 22:33:50:132,-0.673781,2.49703,-9.39671,-13.9252,-3.14481,25.5511
2023-03-14 22:33:50:142,-0.660178,2.53091,-9.43178,-13.989,-3.18537,25.5786
2023-03-14 22:33:50:152,-0.656277,2.57569,-9.50955,-14.0603,-3.22669,25.6022
2023-03-14 22:33:50:162,-0.708977,2.64363,-9.56419,-14.1303,-3.27496,25.6209
2023-03-14 22:33:50:172,-0.790933,2.67279,-9.58264,-14.1895,-3.32413,25.6305
2023-03-14 22:33:50:182,-0.82649,2.64841,-9.56049,-14.2391,-3.37415,25.6335
2023-03-14 22:33:50:193,-0.805093,2.61988,-9.51885,-14.2786,-3.42175,25.623
2023-03-14 22:33:50:202,-0.733943,2.59303,-9.50176,-14.3115,-3.46577,25.5987
2023-03-14 22:33:50:212,-0.637897,2.55993,-9.51632,-14.3398,-3.50821,25.5668
2023-03-14 22:33:50:222,-0.558979,2.51447,-9.53022,-14.3621,-3.55849,25.5301
2023-03-14 22:33:50:232,-0.603946,2.50751,-9.54781,-14.3836,-3.61087,25.4935
2023-03-14 22:33:50:242,-0.636831,2.49606,-9.5126,-14.4055,-3.66452,25.4631
2023-03-14 22:33:50:252,-0.638375,2.48153,-9.49392,-14.4268,-3.71789,25.4262
2023-03-14 22:33:50:262,-0.612901,2.4732,-9.52572,-14.4495,-3.76649,25.3913
2023-03-14 22:33:50:272,-0.575543,2.51075,-9.57645,-14.4721,-3.81158,25.3596
2023-03-14 22:33:50:282,-0.570838,2.54618,-9.6179,-14.4979,-3.85236,25.3301
2023-03-14 22:33:50:292,-0.553138,2.58733,-9.64726,-14.5196,-3.88967,25.3074
2023-03-14 22:33:50:302,-0.536508,2.60271,-9.68111,-14.535,-3.91834,25.2905
2023-03-14 22:33:50:312,-0.550771,2.57412,-9.65445,-14.5396,-3.94418,25.2789
2023-03-14 22:33:50:322,-0.599026,2.51324,-9.56347,-14.5352,-3.97562,25.2734
2023-03-14 22:33:50:332,-0.645653,2.48358,-9.5092,-14.5197,-4.01205,25.2758
2023-03-14 22:33:50:342,-0.686915,2.49405,-9.50021,-14.5073,-4.04852,25.2849
2023-03-14 22:33:50:352,-0.729866,2.4891,-9.49431,-14.4895,-4.0866,25.2932
2023-03-14 22:33:50:362,-0.721194,2.45652,-9.45756,-14.4683,-4.12168,25.3037
2023-03-14 22:33:50:372,-0.685875,2.41839,-9.43427,-14.4457,-4.16084,25.3155
2023-03-14 22:33:50:382,-0.674938,2.37356,-9.41663,-14.4171,-4.20201,25.3341
2023-03-14 22:33:50:392,-0.677346,2.34196,-9.38886,-14.391,-4.24609,25.3574
2023-03-14 22:33:50:402,-0.7046,2.33413,-9.3822,-14.3629,-4.29107,25.3866
2023-03-14 22:33:50:412,-0.758429,2.32883,-9.40118,-14.3445,-4.33614,25.4276
2023-03-14 22:33:50:422,-0.827552,2.33723,-9.41081,-14.3289,-4.38069,25.4789
2023-03-14 22:33:50:432,-0.867959,2.36832,-9.42068,-14.3128,-4.42024,25.5362
2023-03-14 22:33:50:442,-0.912249,2.3833,-9.44935,-14.303,-4.45288,25.5939
2023-03-14 22:33:50:452,-0.923642,2.40486,-9.46022,-14.2943,-4.48069,25.6553
2023-03-14 22:33:50:462,-0.937337,2.40469,-9.45155,-14.2835,-4.4995,25.7179
2023-03-14 22:33:50:472,-0.952346,2.37542,-9.43972,-14.2745,-4.515,25.7839
2023-03-14 22:33:50:482,-0.981631,2.39191,-9.48238,-14.2603,-4.52071,25.8487
2023-03-14 22:33:50:492,-0.975339,2.38839,-9.50393,-14.2378,-4.52043,25.9149
2023-03-14 22:33:50:502,-0.945495,2.31356,-9.46799,-14.2099,-4.51251,25.9778
2023-03-14 22:33:50:512,-0.94796,2.28123,-9.44873,-14.1735,-4.50352,26.0419
2023-03-14 22:33:50:522,-0.927879,2.25792,-9.42789,-14.1396,-4.49008,26.1
2023-03-14 22:33:50:532,-0.893018,2.21507,-9.38226,-14.106,-4.46884,26.1552
2023-03-14 22:33:50:542,-0.88615,2.17398,-9.35851,-14.0762,-4.44783,26.209
2023-03-14 22:33:50:552,-0.882807,2.19291,-9.34671,-14.0522,-4.42406,26.2611
2023-03-14 22:33:50:562,-0.872579,2.24059,-9.37011,-14.037,-4.39857,26.3122
2023-03-14 22:33:50:572,-0.870908,2.27131,-9.38992,-14.026,-4.36949,26.354
2023-03-14 22:33:50:582,-0.853601,2.28552,-9.38773,-14.0225,-4.33903,26.3864
2023-03-14 22:33:50:592,-0.844507,2.28594,-9.3862,-14.0199,-4.31053,26.4121
2023-03-14 22:33:50:602,-0.843008,2.30066,-9.39944,-14.0202,-4.28111,26.427
2023-03-14 22:33:50:612,-0.837859,2.32366,-9.40123,-14.0225,-4.25096,26.4341
2023-03-14 22:33:50:622,-0.799086,2.31675,-9.40599,-14.0295,-4.22239,26.4307
2023-03-14 22:33:50:632,-0.74894,2.33777,-9.4054,-14.041,-4.19933,26.4182
2023-03-14 22:33:50:642,-0.700942,2.37795,-9.43856,-14.0551,-4.17872,26.3977
2023-03-14 22:33:50:652,-0.661574,2.41195,-9.47015,-14.0726,-4.16605,26.3669
2023-03-14 22:33:50:662,-0.617959,2.43046,-9.49479,-14.0862,-4.15678,26.3345
2023-03-14 22:33:50:672,-0.608509,2.42308,-9.49639,-14.0966,-4.15368,26.2968
2023-03-14 22:33:50:682,-0.624204,2.41508,-9.48289,-14.1132,-4.16091,26.2571
2023-03-14 22:33:50:692,-0.670657,2.45945,-9.5168,-14.1303,-4.17163,26.222
2023-03-14 22:33:50:702,-0.670766,2.47812,-9.54919,-14.1469,-4.18351,26.1851
2023-03-14 22:33:50:712,-0.67028,2.4824,-9.54474,-14.1581,-4.19535,26.1495
2023-03-14 22:33:50:722,-0.707567,2.46347,-9.50206,-14.1621,-4.20608,26.1159
2023-03-14 22:33:50:732,-0.727583,2.43266,-9.49439,-14.1617,-4.21601,26.0836
2023-03-14 22:33:50:742,-0.747562,2.47302,-9.52921,-14.163,-4.22119,26.0545
2023-03-14 22:33:50:752,-0.762815,2.51627,-9.55458,-14.1654,-4.22404,26.0261
2023-03-14 22:33:50:762,-0.737909,2.48382,-9.5533,-14.1585,-4.22112,25.9912
2023-03-14 22:33:50:773,-0.758143,2.44725,-9.51346,-14.1477,-4.21595,25.9555
2023-03-14 22:33:50:782,-0.806721,2.452,-9.47743,-14.1317,-4.21177,25.9235
2023-03-14 22:33:50:792,-0.816377,2.44169,-9.42128,-14.1165,-4.19926,25.885
2023-03-14 22:33:50:802,-0.777379,2.40581,-9.3983,-14.1005,-4.1861,25.8415
2023-03-14 22:33:50:812,-0.766241,2.40677,-9.40288,-14.0848,-4.16674,25.7978
2023-03-14 22:33:50:822,-0.760315,2.42707,-9.43224,-14.0705,-4.14205,25.7493
2023-03-14 22:33:50:832,-0.678702,2.39401,-9.43049,-14.0508,-4.11429,25.6926
2023-03-14 22:33:50:842,-0.572573,2.34967,-9.41759,-14.0341,-4.08551,25.631
2023-03-14 22:33:50:852,-0.555171,2.3668,-9.4219,-14.0152,-4.05916,25.5699
2023-03-14 22:33:50:862,-0.519462,2.35423,-9.43155,-14.0026,-4.04073,25.5122
2023-03-14 22:33:50:872,-0.488404,2.3382,-9.43334,-13.992,-4.02723,25.456
2023-03-14 22:33:50:882,-0.470746,2.34463,-9.43225,-13.9853,-4.01596,25.403
2023-03-14 22:33:50:892,-0.492733,2.35604,-9.43784,-13.9798,-4.01189,25.3581
2023-03-14 22:33:50:902,-0.504741,2.37811,-9.45512,-13.9749,-4.01035,25.3174
2023-03-14 22:33:50:912,-0.531659,2.38755,-9.47671,-13.9754,-4.00822,25.2765
2023-03-14 22:33:50:922,-0.539916,2.37208,-9.47581,-13.9768,-4.01155,25.2367
2023-03-14 22:33:50:932,-0.568154,2.37198,-9.476,-13.9789,-4.01724,25.1999
2023-03-14 22:33:50:942,-0.595987,2.39495,-9.48995,-13.9809,-4.02503,25.1681
2023-03-14 22:33:50:952,-0.588516,2.39331,-9.51494,-13.9862,-4.03298,25.1374
2023-03-14 22:33:50:962,-0.593229,2.40706,-9.50968,-13.9905,-4.04111,25.1073
2023-03-14 22:33:50:972,-0.621688,2.40932,-9.50583,-13.9904,-4.0515,25.0813
2023-03-14 22:33:50:982,-0.608298,2.39712,-9.47814,-13.9878,-4.0611,25.051
2023-03-14 22:33:50:992,-0.610193,2.39344,-9.48777,-13.9868,-4.07115,25.0283
2023-03-14 22:33:51:2,-0.630402,2.41301,-9.47394,-13.981,-4.07951,25.0081
2023-03-14 22:33:51:12,-0.60873,2.40395,-9.45538,-13.9734,-4.09121,24.9855
2023-03-14 22:33:51:22,-0.616029,2.38501,-9.4681,-13.9706,-4.10758,24.9659
2023-03-14 22:33:51:32,-0.664099,2.40485,-9.48118,-13.9694,-4.12604,24.9492
2023-03-14 22:33:51:42,-0.689167,2.41027,-9.48395,-13.9683,-4.14292,24.9377
2023-03-14 22:33:51:52,-0.673331,2.39688,-9.47454,-13.9671,-4.15707,24.925
2023-03-14 22:33:51:62,-0.676625,2.39421,-9.49795,-13.9658,-4.17252,24.9145
2023-03-14 22:33:51:72,-0.719255,2.40782,-9.50829,-13.9636,-4.18804,24.906
2023-03-14 22:33:51:82,-0.741318,2.41988,-9.52362,-13.9568,-4.20631,24.8958
2023-03-14 22:33:51:92,-0.754821,2.42745,-9.53869,-13.9477,-4.21823,24.8842
2023-03-14 22:33:51:102,-0.76821,2.41063,-9.53579,-13.9303,-4.22406,24.8744
2023-03-14 22:33:51:112,-0.776189,2.38369,-9.49508,-13.9093,-4.23317,24.8673
2023-03-14 22:33:51:122,-0.773019,2.35598,-9.48101,-13.8881,-4.24262,24.8582
2023-03-14 22:33:51:132,-0.77232,2.32796,-9.47633,-13.8625,-4.24761,24.8467
2023-03-14 22:33:51:142,-0.743677,2.31662,-9.46156,-13.8394,-4.2487,24.8343
2023-03-14 22:33:51:152,-0.743356,2.29802,-9.46691,-13.8153,-4.25041,24.8195
2023-03-14 22:33:51:162,-0.762707,2.28576,-9.49556,-13.7905,-4.25089,24.8058
2023-03-14 22:33:51:172,-0.776407,2.28016,-9.50366,-13.7654,-4.24918,24.7943
2023-03-14 22:33:51:182,-0.732609,2.27934,-9.50955,-13.7415,-4.24664,24.7765
2023-03-14 22:33:51:192,-0.665565,2.27658,-9.5268,-13.7168,-4.241,24.7599
2023-03-14 22:33:51:202,-0.637513,2.25271,-9.50547,-13.6883,-4.23516,24.7413
2023-03-14 22:33:51:212,-0.677626,2.21983,-9.45376,-13.6608,-4.23223,24.7267
2023-03-14 22:33:51:222,-0.701525,2.21643,-9.42549,-13.6326,-4.23178,24.7134
2023-03-14 22:33:51:232,-0.716035,2.22492,-9.42401,-13.6105,-4.22921,24.7042
2023-03-14 22:33:51:242,-0.713216,2.24219,-9.4414,-13.5894,-4.2262,24.6954
2023-03-14 22:33:51:252,-0.703413,2.25445,-9.43208,-13.574,-4.22506,24.6801
2023-03-14 22:33:51:262,-0.690891,2.25346,-9.42579,-13.5583,-4.22053,24.6666
2023-03-14 22:33:51:272,-0.67868,2.24894,-9.42119,-13.5436,-4.21725,24.6522
2023-03-14 22:33:51:282,-0.684746,2.24301,-9.41922,-13.5278,-4.21198,24.6382
2023-03-14 22:33:51:292,-0.692858,2.23408,-9.40335,-13.5146,-4.21279,24.6278
2023-03-14 22:33:51:302,-0.686325,2.21886,-9.38143,-13.5028,-4.21515,24.6149
2023-03-14 22:33:51:312,-0.693409,2.21119,-9.39893,-13.4946,-4.21462,24.6022
2023-03-14 22:33:51:322,-0.695413,2.2278,-9.3959,-13.4886,-4.21286,24.5879
2023-03-14 22:33:51:332,-0.688773,2.2234,-9.42606,-13.4882,-4.21109,24.5734
2023-03-14 22:33:51:342,-0.70617,2.25304,-9.48025,-13.4896,-4.21015,24.564
2023-03-14 22:33:51:352,-0.743956,2.30391,-9.5348,-13.4955,-4.20698,24.553
2023-03-14 22:33:51:362,-0.751389,2.3392,-9.56347,-13.5051,-4.20436,24.5384
2023-03-14 22:33:51:372,-0.709654,2.33663,-9.5669,-13.5131,-4.20474,24.5238
2023-03-14 22:33:51:382,-0.664333,2.32087,-9.57426,-13.5142,-4.20225,24.5039
2023-03-14 22:33:51:392,-0.646357,2.32746,-9.56321,-13.5122,-4.20404,24.4875
2023-03-14 22:33:51:402,-0.662336,2.32539,-9.51799,-13.5062,-4.20366,24.4706
2023-03-14 22:33:51:412,-0.665948,2.31977,-9.47807,-13.5001,-4.20385,24.456
2023-03-14 22:33:51:422,-0.682639,2.30963,-9.50325,-13.4981,-4.20628,24.4415
2023-03-14 22:33:51:432,-0.728464,2.32108,-9.51298,-13.493,-4.20899,24.4348
2023-03-14 22:33:51:442,-0.756467,2.31541,-9.4974,-13.4886,-4.21349,24.4278
2023-03-14 22:33:51:452,-0.72726,2.30591,-9.50431,-13.4812,-4.21505,24.4141
2023-03-14 22:33:51:462,-0.661716,2.29569,-9.51387,-13.4754,-4.21595,24.4
2023-03-14 22:33:51:472,-0.629727,2.27642,-9.49942,-13.4677,-4.21781,24.3829
2023-03-14 22:33:51:482,-0.67427,2.28124,-9.50434,-13.459,-4.22267,24.3728
2023-03-14 22:33:51:492,-0.71471,2.28752,-9.50898,-13.4508,-4.22395,24.3656
2023-03-14 22:33:51:502,-0.700316,2.25124,-9.50602,-13.44,-4.22571,24.3568
2023-03-14 22:33:51:513,-0.695716,2.25053,-9.49373,-13.4278,-4.23116,24.351
2023-03-14 22:33:51:522,-0.718854,2.25629,-9.47469,-13.4179,-4.2306,24.3421
2023-03-14 22:33:51:532,-0.7401,2.24932,-9.48215,-13.4089,-4.23144,24.3307
2023-03-14 22:33:51:542,-0.735632,2.24662,-9.48948,-13.3993,-4.23316,24.3214
2023-03-14 22:33:51:552,-0.715003,2.24602,-9.49554,-13.392,-4.23466,24.3091
2023-03-14 22:33:51:562,-0.694866,2.23146,-9.49299,-13.3814,-4.23181,24.2969
2023-03-14 22:33:51:572,-0.681326,2.20786,-9.47638,-13.3695,-4.2293,24.2804
2023-03-14 22:33:51:582,-0.678849,2.21907,-9.45804,-13.359,-4.22862,24.2661
2023-03-14 22:33:51:592,-0.664186,2.22886,-9.47829,-13.3539,-4.22904,24.2526
2023-03-14 22:33:51:602,-0.646414,2.22281,-9.48396,-13.3483,-4.23012,24.2383
2023-03-14 22:33:51:612,-0.636767,2.21572,-9.46869,-13.3366,-4.2382,24.2248
2023-03-14 22:33:51:622,-0.642792,2.21121,-9.44969,-13.3312,-4.25001,24.2124
2023-03-14 22:33:51:632,-0.662571,2.18742,-9.43598,-13.3232,-4.26255,24.2006
2023-03-14 22:33:51:642,-0.646461,2.18028,-9.4172,-13.3174,-4.2754,24.1919
2023-03-14 22:33:51:652,-0.653618,2.19835,-9.40106,-13.3165,-4.28781,24.185
2023-03-14 22:33:51:662,-0.687939,2.19166,-9.40482,-13.3212,-4.29748,24.1814
2023-03-14 22:33:51:672,-0.70922,2.21007,-9.42765,-13.329,-4.30804,24.1808
2023-03-14 22:33:51:682,-0.713441,2.24485,-9.46982,-13.3402,-4.31677,24.1812
2023-03-14 22:33:51:692,-0.715056,2.2675,-9.50628,-13.3527,-4.32116,24.1782
2023-03-14 22:33:51:702,-0.71121,2.28475,-9.51598,-13.3638,-4.32538,24.1786
2023-03-14 22:33:51:712,-0.711691,2.28773,-9.52369,-13.3731,-4.32989,24.1822
2023-03-14 22:33:51:722,-0.708889,2.27846,-9.51069,-13.3847,-4.33318,24.1882
2023-03-14 22:33:51:732,-0.706396,2.28546,-9.51693,-13.3899,-4.33283,24.1937
2023-03-14 22:33:51:742,-0.714137,2.28658,-9.49582,-13.3947,-4.33221,24.2002
2023-03-14 22:33:51:752,-0.722943,2.26282,-9.49967,-13.3992,-4.33013,24.209
2023-03-14 22:33:51:762,-0.746566,2.26453,-9.48467,-13.4002,-4.32602,24.2234
2023-03-14 22:33:51:772,-0.75969,2.2496,-9.45556,-13.3995,-4.32406,24.2358
2023-03-14 22:33:51:782,-0.75325,2.24687,-9.45626,-13.4022,-4.32058,24.249
2023-03-14 22:33:51:792,-0.747514,2.25327,-9.45896,-13.4044,-4.31326,24.2628
2023-03-14 22:33:51:802,-0.772877,2.26064,-9.47853,-13.4057,-4.30557,24.2727
2023-03-14 22:33:51:812,-0.805383,2.27562,-9.47843,-13.4114,-4.29954,24.2836
2023-03-14 22:33:51:822,-0.804796,2.26652,-9.48326,-13.4135,-4.29407,24.2929
2023-03-14 22:33:51:832,-0.767151,2.27687,-9.4949,-13.4169,-4.28692,24.2979
2023-03-14 22:33:51:842,-0.717188,2.27755,-9.48123,-13.4206,-4.27731,24.2971
2023-03-14 22:33:51:853,-0.691556,2.24801,-9.48759,-13.4259,-4.26757,24.2965
2023-03-14 22:33:51:862,-0.688905,2.25035,-9.48658,-13.4292,-4.2605,24.2967
2023-03-14 22:33:51:872,-0.65705,2.22949,-9.45961,-13.4326,-4.25258,24.295
2023-03-14 22:33:51:882,-0.650539,2.25723,-9.47987,-13.4432,-4.25192,24.2977
2023-03-14 22:33:51:892,-0.667484,2.2854,-9.50719,-13.4547,-4.24796,24.302
2023-03-14 22:33:51:902,-0.655683,2.26257,-9.46353,-13.4606,-4.24095,24.3052
2023-03-14 22:33:51:912,-0.621575,2.23993,-9.4482,-13.4651,-4.23465,24.3106
2023-03-14 22:33:51:922,-0.618992,2.23332,-9.45249,-13.4739,-4.22937,24.3213
2023-03-14 22:33:51:932,-0.635746,2.24466,-9.46933,-13.4849,-4.2209,24.3373
2023-03-14 22:33:51:942,-0.65111,2.27586,-9.48669,-13.5002,-4.21855,24.356
2023-03-14 22:33:51:952,-0.664306,2.27899,-9.5175,-13.5178,-4.21164,24.3748
2023-03-14 22:33:51:962,-0.690087,2.31578,-9.54719,-13.5317,-4.20906,24.3951
2023-03-14 22:33:51:973,-0.707657,2.31977,-9.54914,-13.5422,-4.20885,24.4175
2023-03-14 22:33:51:982,-0.705346,2.30541,-9.51996,-13.5481,-4.20535,24.4373
2023-03-14 22:33:51:992,-0.719445,2.289,-9.49392,-13.5553,-4.20235,24.4551
2023-03-14 22:33:52:3,-0.704423,2.26923,-9.48019,-13.5595,-4.20485,24.4735
2023-03-14 22:33:52:12,-0.686554,2.26338,-9.46078,-13.5655,-4.20664,24.4896
2023-03-14 22:33:52:22,-0.704858,2.26446,-9.45475,-13.5727,-4.20859,24.5046
2023-03-14 22:33:52:32,-0.742736,2.27548,-9.47876,-13.5805,-4.21142,24.5221
2023-03-14 22:33:52:42,-0.758117,2.28247,-9.49713,-13.5898,-4.21259,24.5397
2023-03-14 22:33:52:52,-0.717091,2.29217,-9.50962,-13.5982,-4.21295,24.5536
2023-03-14 22:33:52:62,-0.669062,2.29164,-9.51913,-13.605,-4.21564,24.5642
2023-03-14 22:33:52:72,-0.66315,2.26716,-9.50105,-13.6119,-4.22114,24.5754
2023-03-14 22:33:52:82,-0.69916,2.26284,-9.44774,-13.6164,-4.23043,24.5918
2023-03-14 22:33:52:93,-0.744556,2.27336,-9.43182,-13.6245,-4.24037,24.6076
2023-03-14 22:33:52:102,-0.768378,2.30156,-9.44324,-13.6333,-4.25093,24.624
2023-03-14 22:33:52:112,-0.772541,2.31794,-9.45967,-13.6457,-4.2569,24.6393
2023-03-14 22:33:52:122,-0.749855,2.32449,-9.46449,-13.6594,-4.26054,24.6528
2023-03-14 22:33:52:132,-0.755768,2.34743,-9.48393,-13.6688,-4.26205,24.6624
2023-03-14 22:33:52:142,-0.740124,2.36425,-9.49684,-13.679,-4.26084,24.6728
2023-03-14 22:33:52:152,-0.727116,2.3728,-9.49191,-13.6876,-4.26211,24.6797
2023-03-14 22:33:52:162,-0.729583,2.34458,-9.47965,-13.6918,-4.26029,24.6858
2023-03-14 22:33:52:172,-0.732681,2.32185,-9.4498,-13.6951,-4.26178,24.6925
2023-03-14 22:33:52:182,-0.721795,2.30996,-9.42261,-13.6973,-4.26241,24.6946
2023-03-14 22:33:52:192,-0.727722,2.32313,-9.43041,-13.701,-4.26185,24.6987
2023-03-14 22:33:52:202,-0.729925,2.34171,-9.47341,-13.7092,-4.26379,24.6992
2023-03-14 22:33:52:212,-0.727669,2.35647,-9.48228,-13.7181,-4.25954,24.701
2023-03-14 22:33:52:222,-0.72107,2.36155,-9.48927,-13.7292,-4.25758,24.7
2023-03-14 22:33:52:232,-0.720738,2.3798,-9.49407,-13.7407,-4.25656,24.7021
2023-03-14 22:33:52:242,-0.723639,2.37818,-9.48486,-13.7508,-4.25286,24.6976
2023-03-14 22:33:52:252,-0.70043,2.36968,-9.48644,-13.7613,-4.25168,24.6928
2023-03-14 22:33:52:262,-0.677728,2.37986,-9.51919,-13.7714,-4.2486,24.686
2023-03-14 22:33:52:272,-0.672294,2.39403,-9.52191,-13.7764,-4.25019,24.6785
2023-03-14 22:33:52:282,-0.66097,2.38539,-9.51071,-13.7803,-4.25283,24.6701
2023-03-14 22:33:52:292,-0.675139,2.3707,-9.49142,-13.783,-4.25745,24.6612
2023-03-14 22:33:52:302,-0.682295,2.36901,-9.47137,-13.7855,-4.26021,24.6522
2023-03-14 22:33:52:312,-0.652775,2.34547,-9.47976,-13.7844,-4.26232,24.6461
2023-03-14 22:33:52:322,-0.588102,2.34323,-9.50234,-13.7877,-4.26224,24.6399
2023-03-14 22:33:52:332,-0.551863,2.33934,-9.50959,-13.7898,-4.26154,24.6394
2023-03-14 22:33:52:342,-0.570544,2.34223,-9.48791,-13.7888,-4.26558,24.6427
2023-03-14 22:33:52:352,-0.622784,2.33443,-9.46841,-13.7867,-4.2711,24.6471
2023-03-14 22:33:52:362,-0.672242,2.32577,-9.4534,-13.7877,-4.27946,24.6555
2023-03-14 22:33:52:372,-0.684476,2.32479,-9.45554,-13.7864,-4.29183,24.6706
2023-03-14 22:33:52:382,-0.694152,2.33581,-9.47132,-13.7875,-4.29914,24.687
2023-03-14 22:33:52:392,-0.715322,2.33256,-9.47555,-13.7889,-4.30428,24.7035
2023-03-14 22:33:52:402,-0.714604,2.34061,-9.49167,-13.7889,-4.30853,24.718
2023-03-14 22:33:52:412,-0.72784,2.34749,-9.49278,-13.7938,-4.31618,24.7375
2023-03-14 22:33:52:422,-0.746279,2.36021,-9.48502,-13.7946,-4.32162,24.7547
2023-03-14 22:33:52:432,-0.732931,2.34916,-9.49404,-13.7963,-4.33032,24.7696
2023-03-14 22:33:52:442,-0.730223,2.35084,-9.4961,-13.7949,-4.33585,24.7837
2023-03-14 22:33:52:452,-0.718572,2.34873,-9.48866,-13.7915,-4.34173,24.7972
2023-03-14 22:33:52:462,-0.728677,2.33409,-9.45367,-13.7892,-4.34909,24.8086
2023-03-14 22:33:52:472,-0.720651,2.30852,-9.43358,-13.7858,-4.35911,24.8179
2023-03-14 22:33:52:482,-0.72465,2.30273,-9.42474,-13.7785,-4.36806,24.8297
2023-03-14 22:33:52:492,-0.721168,2.30114,-9.42299,-13.7759,-4.38221,24.8407
2023-03-14 22:33:52:502,-0.723235,2.28519,-9.41128,-13.7731,-4.39411,24.8526
2023-03-14 22:33:52:512,-0.738211,2.29255,-9.41781,-13.7796,-4.40747,24.8684
2023-03-14 22:33:52:522,-0.771978,2.31463,-9.4526,-13.7898,-4.42023,24.883
2023-03-14 22:33:52:532,-0.774312,2.32704,-9.48534,-13.7966,-4.43201,24.8953
2023-03-14 22:33:52:542,-0.766843,2.33703,-9.49034,-13.8055,-4.4416,24.906
2023-03-14 22:33:52:552,-0.792061,2.35843,-9.51031,-13.8134,-4.45008,24.9207
2023-03-14 22:33:52:562,-0.819328,2.38035,-9.52515,-13.82,-4.45399,24.933
2023-03-14 22:33:52:572,-0.807782,2.35919,-9.50447,-13.822,-4.45803,24.9436
2023-03-14 22:33:52:582,-0.78719,2.33945,-9.47658,-13.8221,-4.46216,24.9525
2023-03-14 22:33:52:592,-0.777924,2.32989,-9.46007,-13.819,-4.46698,24.9628
2023-03-14 22:33:52:602,-0.801575,2.32108,-9.44623,-13.8182,-4.47117,24.9691
2023-03-14 22:33:52:612,-0.788435,2.32314,-9.44038,-13.8161,-4.47422,24.9731
2023-03-14 22:33:52:622,-0.775063,2.32275,-9.46032,-13.8162,-4.47661,24.9762
2023-03-14 22:33:52:632,-0.765438,2.33951,-9.46123,-13.8119,-4.47691,24.9808
2023-03-14 22:33:52:642,-0.773249,2.34869,-9.47613,-13.8127,-4.47678,24.9809
2023-03-14 22:33:52:652,-0.765782,2.35118,-9.47509,-13.8134,-4.47588,24.9822
2023-03-14 22:33:52:662,-0.763658,2.34218,-9.46808,-13.8128,-4.47852,24.9805
2023-03-14 22:33:52:672,-0.765938,2.3603,-9.46669,-13.8171,-4.47976,24.9815
2023-03-14 22:33:52:682,-0.75722,2.37155,-9.47511,-13.8166,-4.47873,24.9802
2023-03-14 22:33:52:692,-0.749807,2.36043,-9.48268,-13.8177,-4.47833,24.9802
2023-03-14 22:33:52:702,-0.744171,2.36012,-9.48161,-13.8163,-4.47921,24.9784
2023-03-14 22:33:52:712,-0.751435,2.36872,-9.47776,-13.8154,-4.48152,24.9763
2023-03-14 22:33:52:722,-0.765751,2.35226,-9.48142,-13.817,-4.4851,24.9769
2023-03-14 22:33:52:732,-0.752597,2.35505,-9.47305,-13.8155,-4.48871,24.9756
2023-03-14 22:33:52:742,-0.748037,2.34641,-9.46145,-13.8121,-4.49142,24.9755
2023-03-14 22:33:52:752,-0.748147,2.32847,-9.44788,-13.8095,-4.49519,24.9809
2023-03-14 22:33:52:762,-0.758704,2.30658,-9.43711,-13.803,-4.49457,24.983
2023-03-14 22:33:52:772,-0.763302,2.32197,-9.44697,-13.802,-4.49867,24.9843
2023-03-14 22:33:52:782,-0.75262,2.33574,-9.47084,-13.8026,-4.50347,24.9855
2023-03-14 22:33:52:792,-0.750511,2.35173,-9.48701,-13.8039,-4.50604,24.9852
2023-03-14 22:33:52:802,-0.762517,2.35082,-9.4799,-13.8022,-4.50969,24.9832
2023-03-14 22:33:52:812,-0.775621,2.3451,-9.46205,-13.8025,-4.51725,24.9824
2023-03-14 22:33:52:822,-0.786199,2.34555,-9.44538,-13.7985,-4.52273,24.9818
2023-03-14 22:33:52:832,-0.809886,2.34679,-9.42923,-13.7984,-4.5286,24.9792
2023-03-14 22:33:52:842,-0.841064,2.34808,-9.44612,-13.7977,-4.53459,24.9784
2023-03-14 22:33:52:852,-0.858836,2.36159,-9.45607,-13.7982,-4.54087,24.9748
2023-03-14 22:33:52:862,-0.880116,2.37065,-9.45454,-13.7974,-4.54614,24.972
2023-03-14 22:33:52:872,-0.87161,2.37216,-9.47825,-13.795,-4.55,24.9636
2023-03-14 22:33:52:882,-0.856719,2.38533,-9.48643,-13.7968,-4.55304,24.9498
2023-03-14 22:33:52:892,-0.846581,2.38532,-9.49717,-13.7968,-4.55135,24.9323
2023-03-14 22:33:52:902,-0.82587,2.37859,-9.50879,-13.7948,-4.55871,24.9116
2023-03-14 22:33:52:912,-0.856481,2.38765,-9.49699,-13.79,-4.55922,24.8918
2023-03-14 22:33:52:922,-0.85471,2.37742,-9.48268,-13.7807,-4.56416,24.8704
2023-03-14 22:33:52:932,-0.854924,2.35501,-9.48719,-13.7679,-4.56221,24.8456
2023-03-14 22:33:52:942,-0.836709,2.3578,-9.50079,-13.7557,-4.55366,24.819
2023-03-14 22:33:52:952,-0.787342,2.3195,-9.48082,-13.7397,-4.54174,24.7885
2023-03-14 22:33:52:962,-0.740027,2.30077,-9.44892,-13.7243,-4.53412,24.757
2023-03-14 22:33:52:972,-0.732379,2.29496,-9.44297,-13.7073,-4.52587,24.7239
2023-03-14 22:33:52:982,-0.734779,2.26359,-9.45634,-13.6926,-4.5215,24.6971
2023-03-14 22:33:52:992,-0.728817,2.25941,-9.46952,-13.6781,-4.51548,24.6693
2023-03-14 22:33:53:2,-0.716713,2.26953,-9.49907,-13.6668,-4.50957,24.6452
2023-03-14 22:33:53:12,-0.680408,2.30328,-9.52057,-13.6543,-4.50091,24.6196
2023-03-14 22:33:53:22,-0.652685,2.29594,-9.50824,-13.6398,-4.48826,24.5933
2023-03-14 22:33:53:32,-0.663913,2.25579,-9.48366,-13.6232,-4.4781,24.571
2023-03-14 22:33:53:42,-0.690541,2.25725,-9.4609,-13.6079,-4.47134,24.5545
2023-03-14 22:33:53:52,-0.702414,2.27171,-9.46629,-13.5991,-4.46443,24.5416
2023-03-14 22:33:53:62,-0.707203,2.2869,-9.47151,-13.5918,-4.45876,24.5302
2023-03-14 22:33:53:72,-0.731203,2.29114,-9.46073,-13.5843,-4.45394,24.5185
2023-03-14 22:33:53:82,-0.712682,2.2907,-9.4468,-13.5787,-4.45079,24.5058
2023-03-14 22:33:53:92,-0.690352,2.28148,-9.44788,-13.5699,-4.44396,24.4892
2023-03-14 22:33:53:102,-0.673452,2.24335,-9.44551,-13.5622,-4.43631,24.4745
2023-03-14 22:33:53:112,-0.680546,2.23728,-9.43096,-13.5526,-4.43099,24.4591
2023-03-14 22:33:53:122,-0.672325,2.23875,-9.43844,-13.5423,-4.42605,24.4416
2023-03-14 22:33:53:133,-0.652045,2.23239,-9.44284,-13.5335,-4.42219,24.4296
2023-03-14 22:33:53:142,-0.647426,2.22461,-9.44423,-13.5289,-4.41797,24.4221
2023-03-14 22:33:53:152,-0.677974,2.24502,-9.44645,-13.526,-4.41407,24.4136
2023-03-14 22:33:53:162,-0.707851,2.25438,-9.46672,-13.5265,-4.41266,24.4102
2023-03-14 22:33:53:172,-0.712034,2.26292,-9.4926,-13.5298,-4.40725,24.4049
2023-03-14 22:33:53:182,-0.710388,2.25989,-9.51103,-13.5376,-4.39994,24.4
2023-03-14 22:33:53:192,-0.719178,2.25429,-9.51918,-13.5428,-4.39469,24.4005
2023-03-14 22:33:53:202,-0.730659,2.27206,-9.52354,-13.5486,-4.39125,24.4018
2023-03-14 22:33:53:212,-0.714547,2.29555,-9.54411,-13.5564,-4.38753,24.3979
2023-03-14 22:33:53:222,-0.694363,2.31201,-9.55252,-13.565,-4.38547,24.393
2023-03-14 22:33:53:232,-0.684993,2.32489,-9.54644,-13.5727,-4.38205,24.3922
2023-03-14 22:33:53:242,-0.710208,2.30959,-9.53294,-13.5731,-4.37998,24.393
2023-03-14 22:33:53:252,-0.761702,2.31319,-9.51003,-13.5721,-4.37676,24.3976
2023-03-14 22:33:53:262,-0.782195,2.29095,-9.48308,-13.5662,-4.37285,24.3999
2023-03-14 22:33:53:272,-0.766906,2.30274,-9.49336,-13.5605,-4.36096,24.4005
2023-03-14 22:33:53:282,-0.723189,2.28859,-9.51136,-13.5534,-4.35067,24.4
2023-03-14 22:33:53:292,-0.723561,2.27128,-9.49967,-13.5453,-4.34365,24.4
2023-03-14 22:33:53:302,-0.755431,2.2869,-9.4779,-13.5352,-4.33282,24.4033
2023-03-14 22:33:53:312,-0.787633,2.29534,-9.46382,-13.5264,-4.32593,24.4064
2023-03-14 22:33:53:322,-0.78473,2.2955,-9.4959,-13.516,-4.3119,24.4076
2023-03-14 22:33:53:332,-0.769643,2.30369,-9.51493,-13.5072,-4.29997,24.4058
2023-03-14 22:33:53:342,-0.777321,2.33607,-9.51517,-13.4986,-4.28698,24.3999
2023-03-14 22:33:53:352,-0.780819,2.32362,-9.51953,-13.4915,-4.27262,24.3909
2023-03-14 22:33:53:362,-0.76691,2.30507,-9.49192,-13.4819,-4.2605,24.3833
2023-03-14 22:33:53:373,-0.742213,2.3093,-9.46607,-13.4672,-4.25203,24.3773
2023-03-14 22:33:53:382,-0.736833,2.30105,-9.47452,-13.4577,-4.24407,24.3693
2023-03-14 22:33:53:392,-0.720057,2.29184,-9.46442,-13.4445,-4.23045,24.3593
2023-03-14 22:33:53:402,-0.705756,2.27643,-9.43601,-13.4363,-4.22035,24.3476
2023-03-14 22:33:53:412,-0.704675,2.26382,-9.39822,-13.4274,-4.21093,24.3348
2023-03-14 22:33:53:422,-0.723283,2.26531,-9.4012,-13.417,-4.20623,24.3237
2023-03-14 22:33:53:432,-0.732649,2.23534,-9.39819,-13.409,-4.20077,24.3124
2023-03-14 22:33:53:442,-0.74881,2.19543,-9.37647,-13.3988,-4.19808,24.302
2023-03-14 22:33:53:452,-0.765316,2.15571,-9.35793,-13.3979,-4.19311,24.2947
2023-03-14 22:33:53:462,-0.780201,2.16068,-9.39902,-13.3989,-4.1866,24.2808
2023-03-14 22:33:53:472,-0.753225,2.25717,-9.48776,-13.4088,-4.18183,24.2652
2023-03-14 22:33:53:482,-0.673654,2.28398,-9.38452,-13.4201,-4.17645,24.2486
2023-03-14 22:33:53:492,-0.599675,2.19627,-9.09887,-13.4299,-4.16315,24.2271
2023-03-14 22:33:53:502,-0.612744,2.11996,-8.99366,-13.4444,-4.14637,24.217
2023-03-14 22:33:53:512,-0.690866,2.18225,-9.21811,-13.4859,-4.12851,24.2129
2023-03-14 22:33:53:522,-0.746183,2.33165,-9.55013,-13.5552,-4.1204,24.2126
2023-03-14 22:33:53:532,-0.745369,2.45907,-9.85649,-13.6366,-4.12318,24.2037
2023-03-14 22:33:53:542,-0.770054,2.56863,-10.0256,-13.7001,-4.12486,24.1959
2023-03-14 22:33:53:552,-0.747158,2.52607,-9.90071,-13.7286,-4.11842,24.1811
2023-03-14 22:33:53:562,-0.619877,2.33511,-9.59708,-13.7235,-4.10538,24.1628
2023-03-14 22:33:53:572,-0.562792,2.19566,-9.3664,-13.7103,-4.09127,24.1506
2023-03-14 22:33:53:582,-0.619189,2.2869,-9.44524,-13.7093,-4.07564,24.1504
2023-03-14 22:33:53:592,-0.680554,2.43531,-9.62608,-13.7199,-4.06089,24.1517
2023-03-14 22:33:53:602,-0.677288,2.46003,-9.66357,-13.7274,-4.04919,24.1477
2023-03-14 22:33:53:612,-0.646221,2.39581,-9.5842,-13.7225,-4.03622,24.1405
2023-03-14 22:33:53:622,-0.629345,2.35848,-9.50855,-13.7136,-4.02549,24.136
2023-03-14 22:33:53:632,-0.64255,2.33476,-9.47486,-13.7012,-4.01539,24.1333
2023-03-14 22:33:53:642,-0.6429,2.33901,-9.45337,-13.6905,-4.00384,24.1267
2023-03-14 22:33:53:652,-0.635343,2.34095,-9.452,-13.6806,-3.99247,24.1211
2023-03-14 22:33:53:662,-0.650345,2.35718,-9.50978,-13.6726,-3.9767,24.1147
2023-03-14 22:33:53:672,-0.64585,2.36958,-9.53408,-13.6646,-3.96416,24.1079
2023-03-14 22:33:53:682,-0.630607,2.36164,-9.53534,-13.655,-3.95288,24.0983
2023-03-14 22:33:53:692,-0.624916,2.35985,-9.52809,-13.6445,-3.9447,24.0906
2023-03-14 22:33:53:702,-0.631264,2.33403,-9.55962,-13.6279,-3.93779,24.0787
2023-03-14 22:33:53:712,-0.649675,2.33612,-9.56869,-13.6135,-3.93376,24.0675
2023-03-14 22:33:53:722,-0.63513,2.33942,-9.55661,-13.5976,-3.93052,24.0584
2023-03-14 22:33:53:732,-0.621266,2.31681,-9.5167,-13.5741,-3.92726,24.0464
2023-03-14 22:33:53:742,-0.606491,2.28536,-9.44756,-13.5449,-3.92373,24.0304
2023-03-14 22:33:53:752,-0.611891,2.22116,-9.39418,-13.5168,-3.91943,24.0171
2023-03-14 22:33:53:762,-0.602441,2.1962,-9.37728,-13.4916,-3.91943,24.0048
2023-03-14 22:33:53:772,-0.571243,2.19887,-9.40822,-13.4771,-3.92085,23.9928
2023-03-14 22:33:53:782,-0.566319,2.22119,-9.48636,-13.4686,-3.92483,23.9863
2023-03-14 22:33:53:792,-0.587843,2.22749,-9.52042,-13.46,-3.92576,23.9844
2023-03-14 22:33:53:802,-0.582788,2.21063,-9.5035,-13.4452,-3.93097,23.982
2023-03-14 22:33:53:812,-0.577188,2.18723,-9.42935,-13.4282,-3.93484,23.9788
2023-03-14 22:33:53:822,-0.587242,2.15565,-9.33511,-13.4108,-3.93639,23.9785
2023-03-14 22:33:53:832,-0.594838,2.12079,-9.2606,-13.4001,-3.93652,23.9861
2023-03-14 22:33:53:842,-0.606012,2.14836,-9.31231,-13.4067,-3.93419,23.9958
2023-03-14 22:33:53:853,-0.622198,2.2636,-9.50271,-13.4248,-3.93379,24.0058
2023-03-14 22:33:53:862,-0.634403,2.36191,-9.62473,-13.4459,-3.93381,24.0204
2023-03-14 22:33:53:873,-0.665183,2.34688,-9.60129,-13.4561,-3.93602,24.0329
2023-03-14 22:33:53:882,-0.683019,2.3098,-9.55366,-13.4574,-3.93619,24.0403
2023-03-14 22:33:53:892,-0.682999,2.2991,-9.53818,-13.4575,-3.93921,24.0462
2023-03-14 22:33:53:902,-0.664143,2.32358,-9.53452,-13.4572,-3.94108,24.0552
2023-03-14 22:33:53:912,-0.672592,2.30818,-9.51471,-13.4579,-3.94177,24.0582
2023-03-14 22:33:53:922,-0.693948,2.28377,-9.50837,-13.4548,-3.94122,24.0657
2023-03-14 22:33:53:933,-0.719664,2.32676,-9.55724,-13.4515,-3.94551,24.0704
2023-03-14 22:33:53:942,-0.718174,2.34962,-9.56468,-13.4497,-3.95068,24.074
2023-03-14 22:33:53:952,-0.686806,2.30173,-9.52939,-13.4415,-3.96113,24.0731
2023-03-14 22:33:53:963,-0.640638,2.26532,-9.48261,-13.4268,-3.96374,24.0727
2023-03-14 22:33:53:972,-0.636092,2.23005,-9.42997,-13.4101,-3.96919,24.0749
2023-03-14 22:33:53:982,-0.672205,2.2239,-9.41415,-13.3968,-3.97909,24.0785
2023-03-14 22:33:53:992,-0.700015,2.2394,-9.41978,-13.3893,-3.98938,24.0877
2023-03-14 22:33:54:2,-0.719581,2.25914,-9.41716,-13.3876,-3.99443,24.0971
2023-03-14 22:33:54:12,-0.723933,2.2592,-9.42961,-13.392,-3.99722,24.1052
2023-03-14 22:33:54:22,-0.719084,2.27672,-9.45515,-13.397,-4.00151,24.1109
2023-03-14 22:33:54:32,-0.710445,2.29433,-9.46896,-13.3993,-4.0018,24.1181
2023-03-14 22:33:54:43,-0.744976,2.28937,-9.47677,-13.4021,-4.00414,24.1237
2023-03-14 22:33:54:52,-0.769496,2.2951,-9.47013,-13.4055,-4.00551,24.1261
2023-03-14 22:33:54:62,-0.768271,2.28399,-9.45516,-13.407,-4.00727,24.1286
2023-03-14 22:33:54:72,-0.752026,2.25738,-9.42306,-13.4054,-4.01059,24.1286
2023-03-14 22:33:54:83,-0.763295,2.23905,-9.41888,-13.4028,-4.00937,24.1241
2023-03-14 22:33:54:93,-0.748406,2.24189,-9.44769,-13.4075,-4.00489,24.1198
2023-03-14 22:33:54:103,-0.711572,2.25157,-9.48294,-13.4157,-4.00491,24.1124
2023-03-14 22:33:54:113,-0.690928,2.26558,-9.51821,-13.4231,-4.00046,24.1059
2023-03-14 22:33:54:122,-0.695473,2.29191,-9.5346,-13.4309,-3.99735,24.0969
2023-03-14 22:33:54:132,-0.681344,2.29526,-9.55732,-13.437,-3.99123,24.0887
2023-03-14 22:33:54:142,-0.661016,2.30427,-9.56408,-13.4432,-3.98794,24.0778
2023-03-14 22:33:54:152,-0.663979,2.3026,-9.56347,-13.448,-3.98663,24.068
2023-03-14 22:33:54:162,-0.662347,2.30142,-9.55009,-13.4505,-3.98158,24.0595
2023-03-14 22:33:54:172,-0.64014,2.28749,-9.52825,-13.4486,-3.97794,24.0514
2023-03-14 22:33:54:182,-0.629827,2.27607,-9.51329,-13.4486,-3.97516,24.0429
2023-03-14 22:33:54:193,-0.651589,2.25827,-9.50138,-13.4432,-3.97391,24.035
2023-03-14 22:33:54:202,-0.668528,2.24831,-9.45107,-13.4355,-3.97056,24.0298
2023-03-14 22:33:54:213,-0.645547,2.23434,-9.45481,-13.4296,-3.96341,24.0252
2023-03-14 22:33:54:222,-0.590949,2.2562,-9.49298,-13.4281,-3.95963,24.0158
2023-03-14 22:33:54:233,-0.571354,2.25941,-9.49402,-13.4252,-3.94982,24.0095
2023-03-14 22:33:54:243,-0.591729,2.24639,-9.47523,-13.4207,-3.94085,24.0027
2023-03-14 22:33:54:253,-0.6135,2.24592,-9.4832,-13.4202,-3.93779,24.0002
2023-03-14 22:33:54:262,-0.628648,2.27265,-9.49804,-13.4196,-3.93979,23.9992
2023-03-14 22:33:54:272,-0.649846,2.27703,-9.51123,-13.419,-3.94338,23.9988
2023-03-14 22:33:54:282,-0.656422,2.26809,-9.5275,-13.418,-3.94186,23.9995
2023-03-14 22:33:54:292,-0.659726,2.27123,-9.53576,-13.415,-3.94117,24.0009
2023-03-14 22:33:54:302,-0.664414,2.28854,-9.53572,-13.4174,-3.94151,24.0033
2023-03-14 22:33:54:312,-0.663926,2.29008,-9.54498,-13.4176,-3.9417,24.0038
2023-03-14 22:33:54:322,-0.661205,2.28926,-9.54736,-13.4108,-3.93967,24.0044
2023-03-14 22:33:54:333,-0.681999,2.29212,-9.52857,-13.4056,-3.94006,24.0064
2023-03-14 22:33:54:342,-0.697925,2.29427,-9.54952,-13.3954,-3.93611,24.0038
2023-03-14 22:33:54:352,-0.679894,2.24897,-9.51978,-13.381,-3.93147,24.0002
2023-03-14 22:33:54:363,-0.638994,2.21889,-9.46252,-13.3638,-3.93059,23.9983
2023-03-14 22:33:54:372,-0.6456,2.21848,-9.44207,-13.3488,-3.93185,23.995
2023-03-14 22:33:54:382,-0.662535,2.20221,-9.42997,-13.3382,-3.93144,23.9879
2023-03-14 22:33:54:392,-0.62769,2.17563,-9.42808,-13.3299,-3.9405,23.9802
2023-03-14 22:33:54:402,-0.626941,2.18986,-9.42305,-13.3265,-3.94504,23.9756
2023-03-14 22:33:54:412,-0.648278,2.20466,-9.43613,-13.3242,-3.95031,23.975
2023-03-14 22:33:54:423,-0.648216,2.21351,-9.44194,-13.3253,-3.95313,23.9752
2023-03-14 22:33:54:433,-0.648987,2.23451,-9.46362,-13.3265,-3.9548,23.975
2023-03-14 22:33:54:442,-0.662327,2.24839,-9.4935,-13.3304,-3.95562,23.9776
2023-03-14 22:33:54:452,-0.666157,2.27406,-9.50041,-13.3356,-3.95558,23.9825
2023-03-14 22:33:54:462,-0.658487,2.27458,-9.49634,-13.3423,-3.95286,23.9833
2023-03-14 22:33:54:472,-0.658262,2.2586,-9.47923,-13.3458,-3.951,23.9859
2023-03-14 22:33:54:482,-0.655793,2.25325,-9.48637,-13.3525,-3.94518,23.9893
2023-03-14 22:33:54:492,-0.664388,2.26116,-9.48997,-13.3552,-3.94564,23.9925
2023-03-14 22:33:54:502,-0.664837,2.2453,-9.48753,-13.3622,-3.94624,23.9954
2023-03-14 22:33:54:512,-0.641068,2.24206,-9.47364,-13.3661,-3.94318,23.997
2023-03-14 22:33:54:522,-0.636602,2.24831,-9.48403,-13.3689,-3.94451,24.0006
2023-03-14 22:33:54:532,-0.633807,2.26836,-9.50355,-13.3752,-3.94312,24.0025
2023-03-14 22:33:54:542,-0.642967,2.29104,-9.51485,-13.3809,-3.93908,24.0008
2023-03-14 22:33:54:552,-0.648602,2.29784,-9.52181,-13.3853,-3.94099,23.9988
2023-03-14 22:33:54:562,-0.641693,2.28155,-9.51371,-13.3897,-3.94588,23.9977
2023-03-14 22:33:54:572,-0.647582,2.29008,-9.49851,-13.3904,-3.94725,24.0004
2023-03-14 22:33:54:582,-0.640375,2.29023,-9.49121,-13.3951,-3.95035,24.0021
2023-03-14 22:33:54:592,-0.647658,2.28573,-9.50102,-13.4006,-3.95207,23.9998
2023-03-14 22:33:54:602,-0.64737,2.27521,-9.50414,-13.4009,-3.95353,24.0057
2023-03-14 22:33:54:612,-0.652498,2.27353,-9.5134,-13.4057,-3.95498,24.0084
2023-03-14 22:33:54:622,-0.654356,2.28005,-9.50936,-13.4061,-3.95518,24.0129
2023-03-14 22:33:54:632,-0.64653,2.26903,-9.51572,-13.4081,-3.95964,24.0174
2023-03-14 22:33:54:642,-0.654777,2.26479,-9.51414,-13.409,-3.9641,24.02
2023-03-14 22:33:54:652,-0.666259,2.26739,-9.48791,-13.4081,-3.9676,24.0261
2023-03-14 22:33:54:662,-0.680076,2.26627,-9.48621,-13.4086,-3.97051,24.0331
2023-03-14 22:33:54:672,-0.688415,2.26492,-9.49481,-13.4101,-3.97469,24.0379
2023-03-14 22:33:54:682,-0.692435,2.26692,-9.51563,-13.41,-3.98236,24.0446
2023-03-14 22:33:54:692,-0.705447,2.26984,-9.5216,-13.4106,-3.98685,24.0502
2023-03-14 22:33:54:702,-0.727591,2.26714,-9.51689,-13.4069,-3.99236,24.056
2023-03-14 22:33:54:712,-0.724764,2.26781,-9.50345,-13.4056,-3.99741,24.0642
2023-03-14 22:33:54:722,-0.712175,2.25124,-9.4897,-13.4027,-3.99792,24.069
2023-03-14 22:33:54:732,-0.711038,2.23432,-9.46983,-13.4027,-3.9991,24.0696
2023-03-14 22:33:54:742,-0.718361,2.22626,-9.45478,-13.3997,-4.00126,24.0723
2023-03-14 22:33:54:753,-0.718207,2.23891,-9.45655,-13.4036,-4.00543,24.0778
2023-03-14 22:33:54:762,-0.703881,2.24127,-9.46353,-13.4069,-4.00538,24.081
2023-03-14 22:33:54:772,-0.691697,2.23937,-9.46032,-13.4102,-4.00525,24.0823
2023-03-14 22:33:54:782,-0.695052,2.24303,-9.45332,-13.4178,-4.00341,24.083
2023-03-14 22:33:54:792,-0.681808,2.24696,-9.46516,-13.4219,-4.00128,24.0852
2023-03-14 22:33:54:802,-0.675242,2.2595,-9.48064,-13.4296,-4.00035,24.0886
2023-03-14 22:33:54:812,-0.677578,2.26466,-9.48753,-13.4357,-3.99946,24.0916
2023-03-14 22:33:54:822,-0.690618,2.26085,-9.50312,-13.4441,-3.99797,24.093
2023-03-14 22:33:54:832,-0.710584,2.2609,-9.50616,-13.4478,-3.99839,24.0934
2023-03-14 22:33:54:842,-0.724281,2.27369,-9.49813,-13.4549,-3.99624,24.0966
2023-03-14 22:33:54:852,-0.725399,2.26967,-9.5011,-13.4579,-3.99487,24.099
2023-03-14 22:33:54:862,-0.717411,2.25438,-9.47741,-13.4601,-3.99446,24.0976
2023-03-14 22:33:54:872,-0.691877,2.26202,-9.46554,-13.4644,-3.99284,24.091
2023-03-14 22:33:54:882,-0.668697,2.26647,-9.4818,-13.4687,-3.99034,24.0821
2023-03-14 22:33:54:892,-0.654488,2.26057,-9.47834,-13.473,-3.98652,24.0743
2023-03-14 22:33:54:902,-0.660199,2.25282,-9.48611,-13.481,-3.98157,24.0673
2023-03-14 22:33:54:912,-0.662955,2.23416,-9.50384,-13.4842,-3.97611,24.0611
2023-03-14 22:33:54:922,-0.624988,2.24756,-9.52549,-13.4901,-3.96874,24.0532
2023-03-14 22:33:54:932,-0.57745,2.26136,-9.5461,-13.4977,-3.96624,24.0474
2023-03-14 22:33:54:942,-0.543607,2.26814,-9.55347,-13.5056,-3.9603,24.0415
2023-03-14 22:33:54:952,-0.569755,2.25723,-9.53107,-13.5089,-3.96038,24.042
2023-03-14 22:33:54:962,-0.599098,2.27033,-9.49593,-13.5126,-3.96313,24.0452
2023-03-14 22:33:54:972,-0.614312,2.26942,-9.48789,-13.5156,-3.96209,24.0543
2023-03-14 22:33:54:982,-0.62014,2.27124,-9.46885,-13.5222,-3.96631,24.065
2023-03-14 22:33:54:992,-0.664314,2.35016,-9.52503,-13.5359,-3.9687,24.078
2023-03-14 22:33:55:2,-0.676605,2.38138,-9.54088,-13.5445,-3.96607,24.0917
2023-03-14 22:33:55:12,-0.631101,2.32752,-9.49028,-13.5466,-3.96495,24.0996
2023-03-14 22:33:55:22,-0.61223,2.28734,-9.44069,-13.5461,-3.96054,24.11
2023-03-14 22:33:55:32,-0.648404,2.2938,-9.43272,-13.5449,-3.95832,24.1195
2023-03-14 22:33:55:42,-0.667423,2.28601,-9.42258,-13.5414,-3.95471,24.1304
2023-03-14 22:33:55:52,-0.652476,2.25383,-9.38573,-13.5404,-3.95403,24.1394
2023-03-14 22:33:55:62,-0.638491,2.22762,-9.36594,-13.5452,-3.95801,24.1478
2023-03-14 22:33:55:73,-0.677226,2.28447,-9.44462,-13.5601,-3.95855,24.1592
2023-03-14 22:33:55:82,-0.692162,2.34374,-9.53387,-13.5766,-3.95919,24.1667
2023-03-14 22:33:55:92,-0.679119,2.33151,-9.53168,-13.5919,-3.96094,24.1698
2023-03-14 22:33:55:102,-0.664357,2.33422,-9.52259,-13.6047,-3.96493,24.1714
2023-03-14 22:33:55:112,-0.664344,2.34512,-9.54488,-13.617,-3.9698,24.1732
2023-03-14 22:33:55:122,-0.651138,2.34667,-9.5305,-13.6257,-3.9713,24.1752
2023-03-14 22:33:55:132,-0.627673,2.33651,-9.53061,-13.6269,-3.97795,24.1725
2023-03-14 22:33:55:142,-0.612533,2.33525,-9.50683,-13.6296,-3.9818,24.1712
2023-03-14 22:33:55:152,-0.604982,2.34856,-9.5081,-13.6322,-3.98367,24.1698
2023-03-14 22:33:55:162,-0.607822,2.33836,-9.50949,-13.6353,-3.98418,24.1714
2023-03-14 22:33:55:172,-0.635198,2.31791,-9.49807,-13.6346,-3.98784,24.175
2023-03-14 22:33:55:182,-0.656863,2.31377,-9.4729,-13.6316,-3.9898,24.1811
2023-03-14 22:33:55:192,-0.619728,2.32134,-9.49086,-13.629,-3.98736,24.1868
2023-03-14 22:33:55:202,-0.585358,2.31606,-9.50223,-13.6254,-3.98875,24.1939
2023-03-14 22:33:55:212,-0.597455,2.29554,-9.4701,-13.6202,-3.98982,24.2
2023-03-14 22:33:55:222,-0.645742,2.28646,-9.47052,-13.6166,-3.99667,24.2106
2023-03-14 22:33:55:232,-0.694495,2.30081,-9.48234,-13.6125,-4.00203,24.2241
2023-03-14 22:33:55:242,-0.723877,2.32044,-9.50232,-13.6115,-4.01151,24.2378
2023-03-14 22:33:55:252,-0.722943,2.33468,-9.52739,-13.6118,-4.01868,24.249
2023-03-14 22:33:55:262,-0.702548,2.33553,-9.54206,-13.609,-4.02319,24.2601
2023-03-14 22:33:55:272,-0.693919,2.34178,-9.53357,-13.6035,-4.03286,24.2708
2023-03-14 22:33:55:282,-0.698287,2.31876,-9.52407,-13.5958,-4.04135,24.2788
2023-03-14 22:33:55:292,-0.711965,2.30957,-9.49881,-13.5865,-4.04915,24.2855
2023-03-14 22:33:55:302,-0.712486,2.29824,-9.49217,-13.5766,-4.05723,24.293
2023-03-14 22:33:55:312,-0.69718,2.28078,-9.46976,-13.5689,-4.06474,24.2991
2023-03-14 22:33:55:322,-0.699776,2.26059,-9.46809,-13.5584,-4.07341,24.3023
2023-03-14 22:33:55:332,-0.700799,2.25303,-9.46115,-13.5514,-4.08353,24.3054
2023-03-14 22:33:55:342,-0.697668,2.23787,-9.45193,-13.5389,-4.09539,24.3092
2023-03-14 22:33:55:352,-0.700407,2.2448,-9.44674,-13.531,-4.10883,24.3136
2023-03-14 22:33:55:362,-0.705849,2.25393,-9.46914,-13.5285,-4.12123,24.3182
2023-03-14 22:33:55:372,-0.700867,2.26271,-9.484,-13.5244,-4.13235,24.3227
2023-03-14 22:33:55:382,-0.691265,2.2688,-9.4959,-13.5192,-4.14083,24.3272
2023-03-14 22:33:55:392,-0.673327,2.25961,-9.49303,-13.5114,-4.14912,24.3336
2023-03-14 22:33:55:402,-0.690399,2.25193,-9.47951,-13.5023,-4.15718,24.3402
2023-03-14 22:33:55:412,-0.70899,2.24893,-9.46218,-13.4938,-4.15972,24.3508
2023-03-14 22:33:55:423,-0.716238,2.23327,-9.43305,-13.4894,-4.16245,24.3582
2023-03-14 22:33:55:432,-0.728482,2.22317,-9.42249,-13.4902,-4.16608,24.3712
2023-03-14 22:33:55:442,-0.735627,2.23584,-9.44276,-13.4875,-4.16876,24.3851
2023-03-14 22:33:55:452,-0.718193,2.24824,-9.45688,-13.4905,-4.16799,24.3989
2023-03-14 22:33:55:462,-0.715213,2.25792,-9.47028,-13.4933,-4.16447,24.4116
2023-03-14 22:33:55:472,-0.710419,2.25756,-9.49677,-13.4971,-4.1627,24.4207
2023-03-14 22:33:55:482,-0.703125,2.27674,-9.50491,-13.4984,-4.16114,24.4287
2023-03-14 22:33:55:492,-0.704155,2.28981,-9.52509,-13.4989,-4.15965,24.4335
2023-03-14 22:33:55:502,-0.691762,2.2962,-9.51843,-13.4963,-4.15614,24.4408
2023-03-14 22:33:55:512,-0.695707,2.28024,-9.48901,-13.498,-4.15459,24.4461
2023-03-14 22:33:55:522,-0.68778,2.26286,-9.47546,-13.4955,-4.15448,24.4514
2023-03-14 22:33:55:532,-0.693646,2.26044,-9.48837,-13.4921,-4.15085,24.4579
2023-03-14 22:33:55:542,-0.696344,2.29653,-9.50685,-13.4949,-4.15164,24.4641
2023-03-14 22:33:55:552,-0.690474,2.29718,-9.4963,-13.4949,-4.15145,24.4697
2023-03-14 22:33:55:562,-0.694877,2.28687,-9.491,-13.4944,-4.14938,24.4741
2023-03-14 22:33:55:572,-0.683262,2.29127,-9.49325,-13.492,-4.14959,24.4758
2023-03-14 22:33:55:582,-0.679483,2.28537,-9.50998,-13.493,-4.14864,24.4787
2023-03-14 22:33:55:592,-0.675408,2.28453,-9.51399,-13.4932,-4.14861,24.4798
2023-03-14 22:33:55:602,-0.673724,2.30148,-9.52188,-13.495,-4.14805,24.4809
2023-03-14 22:33:55:612,-0.668448,2.30193,-9.52559,-13.4967,-4.14611,24.4851
2023-03-14 22:33:55:622,-0.664677,2.28619,-9.50803,-13.4928,-4.14952,24.4836
2023-03-14 22:33:55:632,-0.675711,2.2673,-9.48266,-13.4881,-4.14888,24.4857
2023-03-14 22:33:55:642,-0.677264,2.25406,-9.46407,-13.4848,-4.15317,24.4894
2023-03-14 22:33:55:652,-0.662246,2.25517,-9.46635,-13.4811,-4.1561,24.4926
2023-03-14 22:33:55:662,-0.658036,2.2452,-9.47008,-13.4799,-4.15816,24.4975
2023-03-14 22:33:55:672,-0.669457,2.24818,-9.44676,-13.4792,-4.15842,24.5025
2023-03-14 22:33:55:682,-0.668987,2.23398,-9.44873,-13.4789,-4.16278,24.5072
2023-03-14 22:33:55:692,-0.659474,2.2419,-9.46079,-13.4797,-4.16233,24.5138
2023-03-14 22:33:55:702,-0.658322,2.24911,-9.46213,-13.4825,-4.16415,24.5184
2023-03-14 22:33:55:712,-0.673625,2.25569,-9.48173,-13.4859,-4.1685,24.5262
2023-03-14 22:33:55:722,-0.707971,2.27792,-9.5068,-13.4926,-4.17605,24.5395
2023-03-14 22:33:55:732,-0.710921,2.29521,-9.52164,-13.4971,-4.17962,24.5511
2023-03-14 22:33:55:742,-0.711576,2.29673,-9.50037,-13.4977,-4.18297,24.5571
2023-03-14 22:33:55:752,-0.710296,2.29061,-9.47365,-13.4977,-4.18633,24.5661
