Timestamp,Acceleration_x,Acceleration_y,Acceleration_z,roll,pitch,yaw
2023-03-15 21:31:30:566,0.355861,7.98812,-5.61734,-54.8297,1.89005,148.051
2023-03-15 21:31:30:574,0.362331,7.99332,-5.60843,-54.8278,1.8938,148.051
2023-03-15 21:31:30:584,0.352702,7.99334,-5.6054,-54.8273,1.89409,148.051
2023-03-15 21:31:30:594,0.343768,7.98768,-5.61081,-54.8258,1.8939,148.047
2023-03-15 21:31:30:604,0.349442,7.98676,-5.60574,-54.8237,1.89292,148.048
2023-03-15 21:31:30:614,0.357139,7.98472,-5.61044,-54.8255,1.89262,148.047
2023-03-15 21:31:30:624,0.356489,7.9931,-5.60456,-54.8263,1.8913,148.046
2023-03-15 21:31:30:634,0.358018,7.99157,-5.60562,-54.8305,1.8958,148.044
2023-03-15 21:31:30:644,0.353585,7.98382,-5.61332,-54.827,1.89433,148.042
2023-03-15 21:31:30:654,0.356407,8.00384,-5.61499,-54.8276,1.89345,148.04
2023-03-15 21:31:30:664,0.354931,7.99817,-5.61235,-54.8277,1.8923,148.039
2023-03-15 21:31:30:674,0.344868,7.99993,-5.61233,-54.8287,1.89297,148.037
2023-03-15 21:31:30:684,0.346033,8.00135,-5.60587,-54.8299,1.89136,148.035
2023-03-15 21:31:30:694,0.357829,7.98567,-5.612,-54.8302,1.89209,148.037
2023-03-15 21:31:30:704,0.357713,7.99435,-5.60952,-54.8327,1.89174,148.035
2023-03-15 21:31:30:714,0.346182,7.986,-5.62048,-54.8324,1.89023,148.036
2023-03-15 21:31:30:724,0.349974,7.98981,-5.61543,-54.8306,1.88978,148.034
2023-03-15 21:31:30:734,0.361699,7.98874,-5.6299,-54.8311,1.89256,148.035
2023-03-15 21:31:30:744,0.357737,7.99202,-5.63004,-54.8283,1.89284,148.035
2023-03-15 21:31:30:754,0.343351,7.9926,-5.60628,-54.8303,1.8937,148.036
2023-03-15 21:31:30:765,0.34995,7.97429,-5.61015,-54.8302,1.8949,148.036
2023-03-15 21:31:30:775,0.365888,7.98602,-5.60908,-54.8293,1.89503,148.037
2023-03-15 21:31:30:785,0.353241,7.98914,-5.60945,-54.8282,1.89812,148.036
2023-03-15 21:31:30:794,0.353139,7.99274,-5.59851,-54.8289,1.89857,148.036
2023-03-15 21:31:30:804,0.360286,7.99209,-5.6114,-54.8296,1.89657,148.035
2023-03-15 21:31:30:815,0.361557,7.99933,-5.61835,-54.8308,1.89396,148.036
2023-03-15 21:31:30:824,0.357973,7.99541,-5.61683,-54.8272,1.89706,148.034
2023-03-15 21:31:30:834,0.355141,7.98539,-5.617,-54.83,1.89604,148.034
2023-03-15 21:31:30:844,0.347256,7.99951,-5.60521,-54.8305,1.89674,148.037
2023-03-15 21:31:30:855,0.337123,7.99491,-5.59828,-54.8279,1.89848,148.039
2023-03-15 21:31:30:864,0.352343,7.98686,-5.613,-54.827,1.89822,148.037
2023-03-15 21:31:30:874,0.349637,7.99229,-5.61567,-54.8249,1.89801,148.038
2023-03-15 21:31:30:884,0.349199,8.00033,-5.61385,-54.8222,1.89621,148.04
2023-03-15 21:31:30:894,0.351458,7.99324,-5.6075,-54.8216,1.89418,148.04
2023-03-15 21:31:30:904,0.347179,7.99241,-5.61078,-54.8222,1.89222,148.039
2023-03-15 21:31:30:914,0.359396,7.98571,-5.60649,-54.823,1.8948,148.038
2023-03-15 21:31:30:924,0.345849,7.98414,-5.61284,-54.8238,1.89426,148.037
2023-03-15 21:31:30:934,0.338026,7.99324,-5.59673,-54.8226,1.89361,148.035
2023-03-15 21:31:30:944,0.341483,7.99428,-5.607,-54.8236,1.89306,148.038
2023-03-15 21:31:30:954,0.344207,7.99089,-5.61115,-54.8213,1.8926,148.039
2023-03-15 21:31:30:964,0.347312,7.99392,-5.61315,-54.8187,1.89345,148.037
2023-03-15 21:31:30:974,0.35282,7.99654,-5.60591,-54.82,1.89661,148.037
2023-03-15 21:31:30:984,0.357429,7.9931,-5.60505,-54.8218,1.89651,148.038
2023-03-15 21:31:30:994,0.362567,7.98784,-5.61124,-54.8241,1.89362,148.04
2023-03-15 21:31:31:4,0.354312,7.99005,-5.60524,-54.8223,1.89352,148.036
2023-03-15 21:31:31:14,0.349337,7.99434,-5.61113,-54.8231,1.89352,148.036
2023-03-15 21:31:31:24,0.355076,7.98186,-5.6173,-54.8258,1.89261,148.039
2023-03-15 21:31:31:34,0.349276,7.99144,-5.61096,-54.8268,1.89293,148.039
2023-03-15 21:31:31:44,0.343515,7.98857,-5.60927,-54.8272,1.89341,148.035
2023-03-15 21:31:31:54,0.349696,7.98759,-5.62256,-54.829,1.89456,148.035
2023-03-15 21:31:31:64,0.356371,7.98242,-5.62722,-54.8283,1.89323,148.036
2023-03-15 21:31:31:74,0.364829,7.98213,-5.61473,-54.8263,1.89417,148.037
2023-03-15 21:31:31:84,0.346625,7.99524,-5.60681,-54.8305,1.89094,148.037
2023-03-15 21:31:31:94,0.351632,7.98785,-5.59993,-54.8313,1.89268,148.037
2023-03-15 21:31:31:104,0.348846,7.99755,-5.59825,-54.8336,1.89315,148.037
2023-03-15 21:31:31:114,0.349491,7.99546,-5.61098,-54.8326,1.89377,148.039
2023-03-15 21:31:31:124,0.351687,7.99032,-5.61212,-54.8321,1.89205,148.039
2023-03-15 21:31:31:134,0.349365,7.99282,-5.60862,-54.8311,1.89261,148.04
2023-03-15 21:31:31:144,0.348268,7.99124,-5.61687,-54.8297,1.89059,148.04
2023-03-15 21:31:31:154,0.350173,7.98485,-5.61442,-54.8266,1.89137,148.042
2023-03-15 21:31:31:164,0.359291,7.98714,-5.61956,-54.8267,1.89033,148.043
2023-03-15 21:31:31:174,0.35518,7.99358,-5.61566,-54.8262,1.88699,148.045
2023-03-15 21:31:31:184,0.352305,7.98611,-5.60788,-54.8285,1.88469,148.042
2023-03-15 21:31:31:194,0.348521,7.99594,-5.60018,-54.8276,1.88505,148.039
2023-03-15 21:31:31:204,0.348491,7.98784,-5.60022,-54.8279,1.8835,148.038
2023-03-15 21:31:31:214,0.353786,7.99832,-5.60382,-54.8324,1.88276,148.035
2023-03-15 21:31:31:224,0.352071,7.9861,-5.61794,-54.8356,1.88365,148.035
2023-03-15 21:31:31:234,0.345292,7.97801,-5.61686,-54.8341,1.88363,148.038
2023-03-15 21:31:31:244,0.344775,7.98468,-5.61616,-54.8331,1.88131,148.039
2023-03-15 21:31:31:254,0.352982,7.98556,-5.61503,-54.8324,1.88044,148.041
2023-03-15 21:31:31:264,0.353883,7.98446,-5.61333,-54.8302,1.88068,148.042
2023-03-15 21:31:31:274,0.350117,7.9977,-5.61116,-54.83,1.87853,148.039
2023-03-15 21:31:31:284,0.354202,8.00382,-5.60864,-54.832,1.87745,148.041
2023-03-15 21:31:31:294,0.341061,7.98594,-5.61702,-54.8316,1.87667,148.039
2023-03-15 21:31:31:304,0.352972,7.98572,-5.61632,-54.8319,1.87753,148.038
2023-03-15 21:31:31:314,0.36396,7.99771,-5.61017,-54.835,1.87878,148.039
2023-03-15 21:31:31:324,0.351124,7.98669,-5.61493,-54.8317,1.87724,148.041
2023-03-15 21:31:31:334,0.350245,7.98307,-5.61637,-54.8301,1.87881,148.042
2023-03-15 21:31:31:344,0.349034,7.98677,-5.61394,-54.8298,1.87783,148.042
2023-03-15 21:31:31:354,0.35763,7.99347,-5.59856,-54.83,1.8801,148.044
2023-03-15 21:31:31:364,0.361938,7.98907,-5.60727,-54.8317,1.88204,148.046
2023-03-15 21:31:31:374,0.364171,7.96977,-5.61539,-54.8312,1.88251,148.047
2023-03-15 21:31:31:384,0.361294,7.98657,-5.60977,-54.8322,1.88239,148.048
2023-03-15 21:31:31:394,0.364788,7.98419,-5.61733,-54.8339,1.88129,148.048
2023-03-15 21:31:31:404,0.357676,7.98996,-5.60674,-54.8347,1.88287,148.05
2023-03-15 21:31:31:414,0.347802,7.97723,-5.61452,-54.8354,1.88194,148.048
2023-03-15 21:31:31:424,0.346434,7.98061,-5.61185,-54.8325,1.88368,148.046
2023-03-15 21:31:31:434,0.348106,7.99108,-5.61655,-54.8332,1.8831,148.043
2023-03-15 21:31:31:445,0.358385,7.98688,-5.62199,-54.8363,1.88306,148.043
2023-03-15 21:31:31:455,0.345805,7.98515,-5.6173,-54.8363,1.88285,148.041
2023-03-15 21:31:31:464,0.347653,7.98902,-5.61393,-54.8372,1.8834,148.045
2023-03-15 21:31:31:474,0.352436,7.99624,-5.5917,-54.8395,1.88275,148.044
2023-03-15 21:31:31:484,0.353373,7.98927,-5.60166,-54.8418,1.88089,148.044
2023-03-15 21:31:31:494,0.352639,7.98757,-5.6152,-54.8433,1.88021,148.043
2023-03-15 21:31:31:504,0.346817,7.98309,-5.61284,-54.8448,1.87845,148.044
2023-03-15 21:31:31:514,0.350979,7.99131,-5.60822,-54.8442,1.8799,148.046
2023-03-15 21:31:31:524,0.345717,7.99772,-5.61867,-54.8437,1.88042,148.047
2023-03-15 21:31:31:534,0.356798,7.98609,-5.61985,-54.8402,1.88,148.049
2023-03-15 21:31:31:544,0.355908,7.99391,-5.6138,-54.84,1.87839,148.049
2023-03-15 21:31:31:554,0.36307,7.99183,-5.60412,-54.8417,1.87798,148.048
2023-03-15 21:31:31:564,0.357339,8.00245,-5.60875,-54.8392,1.88261,148.047
2023-03-15 21:31:31:574,0.356513,8.00218,-5.60143,-54.8352,1.88228,148.048
2023-03-15 21:31:31:584,0.372017,7.98547,-5.60662,-54.8394,1.88335,148.048
2023-03-15 21:31:31:594,0.341891,7.9884,-5.61047,-54.8383,1.88532,148.047
2023-03-15 21:31:31:604,0.340993,7.9966,-5.61661,-54.8395,1.88618,148.047
2023-03-15 21:31:31:614,0.338543,7.9902,-5.60535,-54.8399,1.8859,148.046
2023-03-15 21:31:31:624,0.346541,7.98564,-5.60387,-54.8406,1.88581,148.043
2023-03-15 21:31:31:634,0.344828,7.98215,-5.6104,-54.8399,1.88538,148.041
2023-03-15 21:31:31:644,0.343879,7.97788,-5.62263,-54.8409,1.88481,148.038
2023-03-15 21:31:31:654,0.351377,7.99355,-5.61759,-54.8399,1.88631,148.036
2023-03-15 21:31:31:664,0.3568,7.99957,-5.60818,-54.8398,1.8876,148.035
2023-03-15 21:31:31:674,0.34528,8.00082,-5.61067,-54.8404,1.88757,148.03
2023-03-15 21:31:31:684,0.345999,7.99364,-5.61761,-54.842,1.88731,148.025
2023-03-15 21:31:31:694,0.345625,7.99705,-5.62201,-54.8452,1.88736,148.026
2023-03-15 21:31:31:704,0.347267,8.00023,-5.61458,-54.8451,1.88866,148.022
2023-03-15 21:31:31:714,0.347076,7.99577,-5.61164,-54.8471,1.88901,148.021
2023-03-15 21:31:31:724,0.350569,7.99257,-5.60979,-54.8468,1.88591,148.019
2023-03-15 21:31:31:734,0.342443,7.99039,-5.61181,-54.8467,1.88736,148.017
2023-03-15 21:31:31:744,0.351387,7.99098,-5.60874,-54.8465,1.88869,148.016
2023-03-15 21:31:31:754,0.348317,7.98878,-5.62386,-54.8457,1.88846,148.018
2023-03-15 21:31:31:764,0.345422,7.99023,-5.61191,-54.8461,1.88709,148.019
2023-03-15 21:31:31:775,0.359011,7.98491,-5.61658,-54.8453,1.88636,148.02
2023-03-15 21:31:31:784,0.347763,7.9942,-5.60668,-54.8455,1.88566,148.021
2023-03-15 21:31:31:794,0.345719,8.00086,-5.60597,-54.8454,1.88673,148.018
2023-03-15 21:31:31:804,0.348459,7.98924,-5.61495,-54.8442,1.88618,148.017
2023-03-15 21:31:31:814,0.350456,7.99907,-5.60868,-54.847,1.88578,148.017
2023-03-15 21:31:31:824,0.353471,7.995,-5.60651,-54.8468,1.88596,148.016
2023-03-15 21:31:31:834,0.353515,7.98681,-5.61832,-54.8435,1.88191,148.014
2023-03-15 21:31:31:844,0.35751,7.98792,-5.62152,-54.842,1.8824,148.015
2023-03-15 21:31:31:854,0.35333,7.98889,-5.61994,-54.8437,1.88319,148.013
2023-03-15 21:31:31:864,0.347321,7.98584,-5.60858,-54.8433,1.88305,148.014
2023-03-15 21:31:31:874,0.34343,7.97654,-5.60987,-54.8416,1.88288,148.015
2023-03-15 21:31:31:884,0.34862,7.99045,-5.61381,-54.8433,1.8852,148.014
2023-03-15 21:31:31:894,0.345696,7.99688,-5.6126,-54.8438,1.88702,148.012
2023-03-15 21:31:31:904,0.34128,7.9843,-5.61103,-54.8406,1.88943,148.012
2023-03-15 21:31:31:915,0.351677,7.99408,-5.61094,-54.8445,1.88973,148.012
2023-03-15 21:31:31:924,0.346134,7.98788,-5.61515,-54.8426,1.88859,148.009
2023-03-15 21:31:31:935,0.349877,7.98232,-5.61387,-54.8453,1.88731,148.006
2023-03-15 21:31:31:944,0.354553,7.98532,-5.6099,-54.8474,1.8892,148.004
2023-03-15 21:31:31:954,0.357963,7.9923,-5.59967,-54.8495,1.88806,148.004
2023-03-15 21:31:31:964,0.350491,7.99101,-5.61078,-54.8533,1.89078,148.003
2023-03-15 21:31:31:974,0.342367,7.98898,-5.62343,-54.853,1.89223,148.003
2023-03-15 21:31:31:984,0.336917,7.98861,-5.60982,-54.853,1.88965,148.005
2023-03-15 21:31:31:994,0.34594,7.98596,-5.61039,-54.8526,1.88763,148.004
2023-03-15 21:31:32:4,0.353676,7.99244,-5.60263,-54.8508,1.88592,148.003
2023-03-15 21:31:32:14,0.348557,7.99156,-5.59064,-54.8473,1.88403,148.004
2023-03-15 21:31:32:24,0.350541,7.99564,-5.60196,-54.8486,1.88386,148.005
2023-03-15 21:31:32:35,0.351547,7.99326,-5.60935,-54.8475,1.88418,148.004
2023-03-15 21:31:32:44,0.342235,7.9777,-5.62005,-54.8475,1.88442,148.003
2023-03-15 21:31:32:54,0.347856,7.98052,-5.60819,-54.8465,1.88555,148.002
2023-03-15 21:31:32:64,0.344161,7.9852,-5.6145,-54.8481,1.88291,148.003
2023-03-15 21:31:32:74,0.350933,8.00144,-5.60905,-54.8465,1.8782,148.006
2023-03-15 21:31:32:84,0.348045,7.99475,-5.60307,-54.8451,1.87886,148.007
2023-03-15 21:31:32:94,0.355563,7.98963,-5.61294,-54.8463,1.88099,148.006
2023-03-15 21:31:32:104,0.355722,7.99495,-5.60859,-54.8476,1.87785,148.003
2023-03-15 21:31:32:114,0.348774,7.99637,-5.6116,-54.8475,1.8776,148.002
2023-03-15 21:31:32:124,0.353313,7.99528,-5.60783,-54.8457,1.8792,148.002
2023-03-15 21:31:32:134,0.356215,7.99262,-5.60964,-54.846,1.87988,148.002
2023-03-15 21:31:32:144,0.355287,7.99,-5.59574,-54.8464,1.88106,148.002
2023-03-15 21:31:32:154,0.350718,7.98348,-5.60994,-54.8461,1.88157,147.999
2023-03-15 21:31:32:164,0.347326,7.99322,-5.60346,-54.8447,1.88231,147.996
2023-03-15 21:31:32:174,0.347957,7.98433,-5.613,-54.8475,1.88183,147.997
2023-03-15 21:31:32:184,0.348591,7.99102,-5.61921,-54.8464,1.8793,147.996
2023-03-15 21:31:32:194,0.35507,8.00002,-5.61673,-54.8447,1.88003,147.996
2023-03-15 21:31:32:204,0.357129,7.98685,-5.61002,-54.847,1.8775,147.997
2023-03-15 21:31:32:214,0.353526,7.99219,-5.60328,-54.8462,1.87695,147.998
2023-03-15 21:31:32:224,0.345516,7.99019,-5.61195,-54.8476,1.87729,147.996
2023-03-15 21:31:32:234,0.352488,7.98146,-5.61124,-54.847,1.87546,147.995
2023-03-15 21:31:32:244,0.353557,7.99585,-5.60687,-54.8464,1.87419,147.997
2023-03-15 21:31:32:254,0.346685,7.98144,-5.61354,-54.8484,1.87352,147.996
2023-03-15 21:31:32:264,0.346934,7.98363,-5.61047,-54.8465,1.87533,147.998
2023-03-15 21:31:32:274,0.351039,7.98166,-5.61139,-54.8448,1.87467,147.996
2023-03-15 21:31:32:284,0.351709,7.97192,-5.62736,-54.8434,1.87756,147.999
2023-03-15 21:31:32:294,0.355051,7.97787,-5.60478,-54.8479,1.87736,148
2023-03-15 21:31:32:304,0.356635,7.98276,-5.60434,-54.8482,1.87866,148
2023-03-15 21:31:32:314,0.353877,7.98653,-5.61545,-54.8484,1.87782,148.003
2023-03-15 21:31:32:324,0.356458,7.97733,-5.62224,-54.8484,1.87632,148.005
2023-03-15 21:31:32:334,0.361959,7.98036,-5.61493,-54.8482,1.8776,148.005
2023-03-15 21:31:32:344,0.352642,7.98609,-5.61981,-54.8478,1.87808,148.002
2023-03-15 21:31:32:354,0.346814,7.99705,-5.60131,-54.8481,1.87783,148.001
2023-03-15 21:31:32:364,0.351866,7.99922,-5.60137,-54.8476,1.88215,148.001
2023-03-15 21:31:32:374,0.343288,7.9919,-5.604,-54.8468,1.88512,148.002
2023-03-15 21:31:32:384,0.351296,7.9955,-5.60516,-54.8497,1.88444,148.002
2023-03-15 21:31:32:394,0.352262,7.99074,-5.60921,-54.8465,1.8866,148.005
2023-03-15 21:31:32:404,0.361209,7.99729,-5.61233,-54.8439,1.88652,148.005
2023-03-15 21:31:32:414,0.359273,7.99575,-5.61418,-54.8484,1.8874,148.005
2023-03-15 21:31:32:424,0.349068,7.98125,-5.614,-54.8475,1.88703,148.004
2023-03-15 21:31:32:434,0.344063,7.97953,-5.60712,-54.8473,1.88936,148.005
2023-03-15 21:31:32:444,0.349844,7.97977,-5.60831,-54.8454,1.89016,148.003
2023-03-15 21:31:32:454,0.349912,8.00234,-5.60177,-54.8448,1.88663,148.003
2023-03-15 21:31:32:464,0.345669,7.99017,-5.60978,-54.8445,1.88575,148.004
2023-03-15 21:31:32:474,0.358386,7.98268,-5.61442,-54.846,1.88405,148.004
2023-03-15 21:31:32:484,0.35548,7.99122,-5.61987,-54.8461,1.88502,148.004
2023-03-15 21:31:32:494,0.359556,8.00443,-5.61186,-54.8482,1.88611,148.002
2023-03-15 21:31:32:504,0.344041,7.9929,-5.59874,-54.8466,1.88741,147.999
2023-03-15 21:31:32:514,0.346942,7.98734,-5.60305,-54.8476,1.88442,148.002
2023-03-15 21:31:32:524,0.339708,7.99219,-5.59837,-54.8489,1.88101,148.003
2023-03-15 21:31:32:534,0.344886,7.99286,-5.61523,-54.8503,1.88119,148
2023-03-15 21:31:32:544,0.35329,7.98434,-5.61714,-54.8521,1.88117,148.001
2023-03-15 21:31:32:554,0.348312,7.98936,-5.61183,-54.8526,1.88035,147.999
2023-03-15 21:31:32:564,0.346642,7.98792,-5.62106,-54.8519,1.8798,148.003
2023-03-15 21:31:32:574,0.344282,7.99692,-5.61775,-54.8493,1.88086,148
2023-03-15 21:31:32:584,0.354875,7.99699,-5.62038,-54.8483,1.88156,148.001
2023-03-15 21:31:32:594,0.35729,7.99401,-5.62258,-54.8505,1.8822,148.002
2023-03-15 21:31:32:604,0.357083,7.99114,-5.62045,-54.8504,1.88518,148.001
2023-03-15 21:31:32:614,0.354506,7.99775,-5.60447,-54.851,1.88546,147.996
2023-03-15 21:31:32:624,0.346267,7.99013,-5.60476,-54.8527,1.8857,147.995
2023-03-15 21:31:32:634,0.351741,7.99231,-5.61335,-54.8525,1.88436,147.993
2023-03-15 21:31:32:644,0.364162,7.99122,-5.6202,-54.8515,1.88751,147.994
2023-03-15 21:31:32:654,0.345166,7.98886,-5.61334,-54.8505,1.88966,147.999
2023-03-15 21:31:32:664,0.330699,7.99194,-5.60931,-54.8461,1.89287,148
2023-03-15 21:31:32:674,0.361646,7.96586,-5.64504,-54.8397,1.89429,148
2023-03-15 21:31:32:684,0.369893,7.98164,-5.61478,-54.8434,1.89157,148.001
2023-03-15 21:31:32:694,0.361096,8.00946,-5.58455,-54.8406,1.89566,148
2023-03-15 21:31:32:704,0.405358,7.94751,-5.65556,-54.8375,1.89612,147.997
2023-03-15 21:31:32:714,0.32482,8.02688,-5.54847,-54.8471,1.89447,147.996
2023-03-15 21:31:32:724,0.394769,7.94841,-5.67346,-54.8234,1.90691,147.999
2023-03-15 21:31:32:734,0.347229,7.96849,-5.63525,-54.839,1.89976,147.998
2023-03-15 21:31:32:744,0.337297,8.0189,-5.55417,-54.8198,1.90636,147.999
2023-03-15 21:31:32:754,0.388442,7.92575,-5.71046,-54.8221,1.90521,147.998
2023-03-15 21:31:32:764,0.34088,8.03508,-5.54528,-54.8295,1.90213,148
2023-03-15 21:31:32:774,0.369568,7.96266,-5.65404,-54.8253,1.90203,148.003
2023-03-15 21:31:32:784,0.352531,7.98754,-5.60862,-54.8336,1.89686,148.004
2023-03-15 21:31:32:794,0.338219,8.0019,-5.59589,-54.8388,1.89709,148.006
2023-03-15 21:31:32:804,0.343248,7.99677,-5.61677,-54.8431,1.89573,148.008
2023-03-15 21:31:32:814,0.327804,8.01977,-5.5755,-54.8444,1.89813,148.006
2023-03-15 21:31:32:824,0.368211,7.98042,-5.6486,-54.8388,1.89934,148.004
2023-03-15 21:31:32:834,0.326092,7.99618,-5.59833,-54.8485,1.89507,148.002
2023-03-15 21:31:32:844,0.324079,8.00272,-5.58268,-54.839,1.89788,148.001
2023-03-15 21:31:32:854,0.351219,7.952,-5.66427,-54.8422,1.89589,148.001
2023-03-15 21:31:32:864,0.331468,8.02491,-5.55421,-54.847,1.8969,147.999
2023-03-15 21:31:32:874,0.360851,7.95545,-5.66397,-54.8423,1.90273,147.999
2023-03-15 21:31:32:884,0.350581,7.99566,-5.60483,-54.8472,1.90007,148
2023-03-15 21:31:32:894,0.357493,8.00511,-5.59699,-54.8443,1.90023,147.998
2023-03-15 21:31:32:904,0.35364,7.97412,-5.64436,-54.8447,1.89989,147.996
2023-03-15 21:31:32:914,0.34434,7.99844,-5.60916,-54.845,1.90121,147.994
2023-03-15 21:31:32:924,0.354602,7.99187,-5.61881,-54.8415,1.90275,147.997
2023-03-15 21:31:32:934,0.357956,7.98289,-5.61888,-54.842,1.90538,147.997
2023-03-15 21:31:32:944,0.350951,7.98441,-5.61857,-54.8418,1.90811,147.999
2023-03-15 21:31:32:954,0.363818,7.97958,-5.62306,-54.8414,1.90637,148
2023-03-15 21:31:32:964,0.367479,7.98438,-5.61331,-54.8428,1.90548,147.998
2023-03-15 21:31:32:974,0.344193,8.01088,-5.5852,-54.845,1.90779,147.999
2023-03-15 21:31:32:984,0.361373,7.97858,-5.61735,-54.8368,1.91179,147.997
2023-03-15 21:31:32:994,0.333422,8.00702,-5.58758,-54.8452,1.90748,147.997
2023-03-15 21:31:33:4,0.335113,8.0117,-5.57278,-54.8349,1.91018,147.996
2023-03-15 21:31:33:14,0.352586,7.94513,-5.67066,-54.838,1.90694,147.997
2023-03-15 21:31:33:24,0.315792,8.01958,-5.55767,-54.8406,1.90804,147.997
2023-03-15 21:31:33:34,0.35463,7.95904,-5.66547,-54.8344,1.91013,147.996
2023-03-15 21:31:33:44,0.344157,7.99284,-5.61757,-54.8409,1.91071,147.997
2023-03-15 21:31:33:54,0.340807,7.98754,-5.61824,-54.8378,1.91354,147.996
2023-03-15 21:31:33:64,0.360995,7.96995,-5.64409,-54.8379,1.9115,147.998
2023-03-15 21:31:33:74,0.342963,7.99899,-5.59908,-54.8408,1.91036,147.999
2023-03-15 21:31:33:84,0.352692,7.98429,-5.62354,-54.842,1.91065,147.998
2023-03-15 21:31:33:94,0.352149,7.98271,-5.61087,-54.8427,1.9109,147.998
2023-03-15 21:31:33:104,0.341237,8.00242,-5.60151,-54.8447,1.91078,147.999
2023-03-15 21:31:33:114,0.349125,7.99436,-5.60789,-54.8464,1.90725,148
2023-03-15 21:31:33:124,0.352025,7.98912,-5.61138,-54.8475,1.91093,147.999
2023-03-15 21:31:33:134,0.350205,7.98463,-5.61086,-54.8454,1.91157,148.002
2023-03-15 21:31:33:144,0.345024,7.99161,-5.62058,-54.8428,1.90933,148.002
2023-03-15 21:31:33:154,0.354853,7.99067,-5.61897,-54.8436,1.90662,148.002
2023-03-15 21:31:33:164,0.35159,7.99029,-5.61511,-54.8428,1.90776,148.003
2023-03-15 21:31:33:174,0.364361,7.98941,-5.60689,-54.84,1.90781,148.004
2023-03-15 21:31:33:184,0.354123,7.98735,-5.61213,-54.8408,1.90785,148.006
2023-03-15 21:31:33:194,0.346888,7.99841,-5.60221,-54.843,1.90703,148.007
2023-03-15 21:31:33:204,0.348303,8.00063,-5.60467,-54.8413,1.90583,148.008
2023-03-15 21:31:33:214,0.365154,7.99019,-5.61891,-54.8404,1.90576,148.007
2023-03-15 21:31:33:224,0.361707,7.97988,-5.61501,-54.8402,1.90291,148.009
2023-03-15 21:31:33:234,0.354097,7.96772,-5.62152,-54.8399,1.90654,148.012
2023-03-15 21:31:33:244,0.34626,7.98882,-5.60808,-54.837,1.90264,148.014
2023-03-15 21:31:33:254,0.351948,7.99348,-5.60727,-54.8374,1.90408,148.013
2023-03-15 21:31:33:264,0.354819,7.99483,-5.60917,-54.8381,1.90491,148.011
2023-03-15 21:31:33:274,0.349449,8.00001,-5.60248,-54.837,1.90692,148.013
2023-03-15 21:31:33:284,0.348704,7.98603,-5.61701,-54.8378,1.90481,148.018
2023-03-15 21:31:33:294,0.366663,7.98824,-5.61202,-54.8382,1.90607,148.014
2023-03-15 21:31:33:304,0.357583,7.98945,-5.61023,-54.8374,1.90856,148.014
2023-03-15 21:31:33:314,0.358652,7.99004,-5.61746,-54.8384,1.90627,148.015
2023-03-15 21:31:33:324,0.358305,7.99413,-5.61699,-54.8413,1.90449,148.015
2023-03-15 21:31:33:334,0.350547,7.98739,-5.60624,-54.8412,1.90461,148.014
2023-03-15 21:31:33:344,0.350712,7.99079,-5.6027,-54.8418,1.90456,148.015
2023-03-15 21:31:33:354,0.346584,7.98817,-5.6196,-54.8442,1.9045,148.016
2023-03-15 21:31:33:364,0.354563,7.99094,-5.61466,-54.8447,1.9027,148.015
2023-03-15 21:31:33:374,0.343698,7.99255,-5.61366,-54.8466,1.90348,148.012
2023-03-15 21:31:33:384,0.345466,7.98487,-5.62071,-54.8432,1.90157,148.009
2023-03-15 21:31:33:394,0.340072,8.00004,-5.60823,-54.8415,1.9011,148.008
2023-03-15 21:31:33:404,0.391452,7.96923,-5.62541,-54.8361,1.90476,148.009
2023-03-15 21:31:33:414,0.342091,7.99319,-5.61309,-54.8468,1.89947,148.009
2023-03-15 21:31:33:424,0.358291,7.9859,-5.61435,-54.8335,1.90471,148.007
2023-03-15 21:31:33:434,0.366251,7.95772,-5.64976,-54.8467,1.89985,148.005
2023-03-15 21:31:33:444,0.343561,8.03383,-5.52079,-54.8369,1.90461,148.002
2023-03-15 21:31:33:454,0.36708,7.94265,-5.67047,-54.8414,1.90161,148.001
2023-03-15 21:31:33:464,0.34286,8.02666,-5.55629,-54.8443,1.89959,148.005
2023-03-15 21:31:33:474,0.364838,7.98059,-5.63672,-54.8399,1.89942,148.008
2023-03-15 21:31:33:484,0.363439,7.99421,-5.60707,-54.8402,1.8982,148.009
2023-03-15 21:31:33:494,0.35838,7.99987,-5.57945,-54.8408,1.89735,148.007
2023-03-15 21:31:33:504,0.362781,7.98984,-5.61313,-54.841,1.90087,148.003
2023-03-15 21:31:33:514,0.342525,8.00454,-5.57703,-54.8441,1.9026,148.004
2023-03-15 21:31:33:524,0.35744,7.9777,-5.61658,-54.8429,1.9024,148.005
2023-03-15 21:31:33:534,0.31728,8.00865,-5.57224,-54.851,1.89914,148.005
2023-03-15 21:31:33:544,0.356708,7.97421,-5.62101,-54.8417,1.90411,148.003
2023-03-15 21:31:33:554,0.334233,7.99387,-5.59808,-54.8489,1.89977,148.002
2023-03-15 21:31:33:564,0.348131,7.99394,-5.58953,-54.8347,1.90292,148.001
2023-03-15 21:31:33:574,0.366202,7.96009,-5.65448,-54.843,1.89673,148.001
2023-03-15 21:31:33:584,0.331292,8.02982,-5.54125,-54.8425,1.89691,148.005
2023-03-15 21:31:33:594,0.355177,7.93877,-5.67366,-54.8402,1.89655,148.003
2023-03-15 21:31:33:604,0.331386,8.00933,-5.57865,-54.848,1.89501,148.001
2023-03-15 21:31:33:614,0.355824,7.97695,-5.64026,-54.8459,1.89723,148.001
2023-03-15 21:31:33:624,0.353219,7.98757,-5.62478,-54.8509,1.89744,148
2023-03-15 21:31:33:634,0.345487,8.00371,-5.59021,-54.8518,1.89545,148.001
2023-03-15 21:31:33:644,0.358961,7.98495,-5.62271,-54.851,1.89726,148.004
2023-03-15 21:31:33:654,0.348916,7.99093,-5.60527,-54.8517,1.8992,148.003
2023-03-15 21:31:33:664,0.34506,7.99706,-5.61038,-54.8513,1.89959,148.007
2023-03-15 21:31:33:674,0.344184,7.99909,-5.60729,-54.8516,1.90066,148.007
2023-03-15 21:31:33:684,0.343538,7.99973,-5.60745,-54.8505,1.90076,148.008
2023-03-15 21:31:33:694,0.353267,8.00158,-5.61714,-54.8508,1.90099,148.009
2023-03-15 21:31:33:704,0.352603,7.98986,-5.61877,-54.8483,1.90111,148.01
2023-03-15 21:31:33:714,0.344586,7.99449,-5.60086,-54.8467,1.90273,148.009
2023-03-15 21:31:33:724,0.340315,7.98593,-5.60889,-54.8464,1.89923,148.005
2023-03-15 21:31:33:734,0.347583,7.98007,-5.60983,-54.848,1.89874,148.004
2023-03-15 21:31:33:744,0.34642,7.98963,-5.60671,-54.8462,1.89854,148.001
2023-03-15 21:31:33:754,0.34742,7.9828,-5.62973,-54.8433,1.8962,148.002
2023-03-15 21:31:33:764,0.353546,7.99227,-5.6089,-54.8413,1.8972,148.003
2023-03-15 21:31:33:774,0.350933,7.98836,-5.60675,-54.8414,1.89476,148.001
2023-03-15 21:31:33:784,0.354189,7.99719,-5.59408,-54.8423,1.89617,148
2023-03-15 21:31:33:794,0.347563,7.99279,-5.61265,-54.8431,1.89767,148
2023-03-15 21:31:33:804,0.350327,7.99436,-5.60782,-54.8439,1.90182,148
2023-03-15 21:31:33:814,0.343076,7.99636,-5.60784,-54.8436,1.90118,148.002
2023-03-15 21:31:33:824,0.356783,7.99713,-5.60231,-54.8447,1.90155,148.002
2023-03-15 21:31:33:834,0.360133,7.99064,-5.61172,-54.8438,1.9033,148.003
2023-03-15 21:31:33:844,0.362814,7.98728,-5.62171,-54.8401,1.90403,148.003
2023-03-15 21:31:33:854,0.352403,8.0083,-5.6084,-54.8379,1.90565,148.004
2023-03-15 21:31:33:864,0.342236,8.00068,-5.59795,-54.8403,1.90567,148.006
2023-03-15 21:31:33:874,0.341022,7.99462,-5.60407,-54.8385,1.90521,148.004
2023-03-15 21:31:33:884,0.358417,7.98255,-5.61101,-54.8373,1.90538,148.004
2023-03-15 21:31:33:894,0.359695,7.98892,-5.61763,-54.8372,1.90319,148.005
2023-03-15 21:31:33:904,0.354904,7.9975,-5.61657,-54.8409,1.90381,148.007
2023-03-15 21:31:33:914,0.357265,7.99277,-5.60578,-54.8418,1.90399,148.01
2023-03-15 21:31:33:924,0.361204,7.98333,-5.61453,-54.8409,1.90494,148.01
2023-03-15 21:31:33:934,0.35657,7.98731,-5.61776,-54.8427,1.90508,148.012
2023-03-15 21:31:33:944,0.355899,8.00027,-5.61018,-54.8445,1.90431,148.012
2023-03-15 21:31:33:954,0.330418,8.00076,-5.60797,-54.843,1.90176,148.012
2023-03-15 21:31:33:964,0.331072,7.99537,-5.61144,-54.8444,1.9026,148.008
2023-03-15 21:31:33:974,0.338268,7.9971,-5.60487,-54.8419,1.90272,148.008
2023-03-15 21:31:33:984,0.342396,7.98567,-5.6107,-54.8421,1.90164,148.007
2023-03-15 21:31:33:994,0.358582,7.98118,-5.61149,-54.8425,1.89809,148.008
2023-03-15 21:31:34:4,0.354414,7.99144,-5.61199,-54.8424,1.89656,148.009
2023-03-15 21:31:34:14,0.35603,8.00081,-5.61376,-54.8391,1.8964,148.01
2023-03-15 21:31:34:24,0.346036,7.99305,-5.60152,-54.8405,1.89629,148.013
2023-03-15 21:31:34:34,0.340847,7.98121,-5.60661,-54.8433,1.89494,148.014
2023-03-15 21:31:34:44,0.3529,7.98774,-5.60254,-54.8401,1.89454,148.014
2023-03-15 21:31:34:54,0.361855,7.99116,-5.60654,-54.8393,1.89349,148.017
2023-03-15 21:31:34:64,0.348732,7.98525,-5.61328,-54.8409,1.89543,148.013
2023-03-15 21:31:34:74,0.354063,7.98262,-5.61275,-54.8409,1.89315,148.014
2023-03-15 21:31:34:84,0.367729,7.98536,-5.61112,-54.8399,1.89138,148.011
2023-03-15 21:31:34:94,0.359656,7.98396,-5.61622,-54.8392,1.8925,148.009
2023-03-15 21:31:34:104,0.354266,7.98928,-5.60126,-54.8366,1.89559,148.009
2023-03-15 21:31:34:114,0.361246,7.99806,-5.59627,-54.8375,1.8947,148.01
2023-03-15 21:31:34:124,0.350424,7.99341,-5.60636,-54.836,1.89624,148.008
2023-03-15 21:31:34:134,0.340486,7.99303,-5.61234,-54.8403,1.89432,148.011
2023-03-15 21:31:34:144,0.344311,7.99018,-5.60912,-54.8432,1.89434,148.011
2023-03-15 21:31:34:154,0.341735,7.99381,-5.60586,-54.8427,1.89409,148.009
2023-03-15 21:31:34:164,0.343609,7.99245,-5.61496,-54.8416,1.89142,148.005
2023-03-15 21:31:34:174,0.355907,7.98164,-5.61407,-54.8397,1.89068,148.007
2023-03-15 21:31:34:184,0.355152,7.99403,-5.60811,-54.8414,1.89103,148.006
2023-03-15 21:31:34:194,0.357607,7.98456,-5.61045,-54.8424,1.89185,148.005
2023-03-15 21:31:34:204,0.353622,7.98064,-5.60844,-54.8437,1.89104,148.004
2023-03-15 21:31:34:214,0.35018,7.99607,-5.60385,-54.8419,1.89085,148.004
2023-03-15 21:31:34:224,0.359337,8.00228,-5.60048,-54.8426,1.88834,148.005
2023-03-15 21:31:34:234,0.361442,7.98704,-5.61163,-54.84,1.88877,148.005
2023-03-15 21:31:34:244,0.355179,7.99173,-5.61743,-54.8377,1.88991,148.005
2023-03-15 21:31:34:254,0.356666,7.99112,-5.61241,-54.8414,1.89035,148.005
2023-03-15 21:31:34:264,0.353477,7.99284,-5.60696,-54.8421,1.89032,148.002
2023-03-15 21:31:34:274,0.358343,7.98554,-5.61849,-54.8396,1.88962,148.002
2023-03-15 21:31:34:284,0.351384,7.98808,-5.61105,-54.8386,1.89024,148.004
2023-03-15 21:31:34:294,0.349307,8.00221,-5.6085,-54.8385,1.88969,148.005
2023-03-15 21:31:34:304,0.350547,8.00152,-5.61541,-54.8401,1.88926,148.005
2023-03-15 21:31:34:314,0.363957,7.99169,-5.61566,-54.8401,1.88953,148.004
2023-03-15 21:31:34:324,0.358858,7.99102,-5.60974,-54.8401,1.8898,148.004
2023-03-15 21:31:34:334,0.350585,7.99353,-5.60609,-54.8407,1.89021,148.005
2023-03-15 21:31:34:344,0.351997,7.99897,-5.60622,-54.8463,1.88777,148.005
2023-03-15 21:31:34:354,0.34555,8.00227,-5.60535,-54.8461,1.8878,148.007
2023-03-15 21:31:34:364,0.337028,7.99,-5.6263,-54.8489,1.89039,148.006
2023-03-15 21:31:34:374,0.348812,7.99078,-5.60865,-54.8494,1.89189,148.007
2023-03-15 21:31:34:384,0.361637,7.99114,-5.60352,-54.8497,1.89039,148.005
2023-03-15 21:31:34:394,0.354486,7.98987,-5.60287,-54.8484,1.88805,148.003
2023-03-15 21:31:34:404,0.346837,7.97928,-5.61337,-54.8494,1.88673,148.002
2023-03-15 21:31:34:414,0.350571,7.97229,-5.61451,-54.8479,1.88577,148
2023-03-15 21:31:34:424,0.346611,7.98301,-5.61849,-54.8462,1.88641,148.001
2023-03-15 21:31:34:434,0.350754,7.98071,-5.6152,-54.8474,1.88562,148.002
2023-03-15 21:31:34:444,0.353029,7.99913,-5.60745,-54.8494,1.88375,148.005
2023-03-15 21:31:34:454,0.349919,7.99141,-5.61013,-54.8502,1.881,148.006
2023-03-15 21:31:34:464,0.348911,7.99605,-5.60098,-54.8473,1.881,148.006
2023-03-15 21:31:34:474,0.343619,7.99767,-5.60856,-54.8509,1.88315,148.007
2023-03-15 21:31:34:484,0.346593,7.99501,-5.61076,-54.849,1.87983,148.006
2023-03-15 21:31:34:494,0.3518,7.99097,-5.59554,-54.8475,1.87947,148.005
2023-03-15 21:31:34:504,0.365408,7.99308,-5.60235,-54.8473,1.87831,148.005
2023-03-15 21:31:34:514,0.344831,7.9959,-5.6093,-54.8481,1.87655,148.005
2023-03-15 21:31:34:524,0.34256,7.97741,-5.61656,-54.8466,1.87297,148.007
2023-03-15 21:31:34:534,0.350176,7.98466,-5.61351,-54.8463,1.87306,148.005
2023-03-15 21:31:34:544,0.369347,7.98743,-5.61819,-54.849,1.87278,148.002
2023-03-15 21:31:34:554,0.380807,7.97674,-5.6331,-54.8511,1.87439,148.004
2023-03-15 21:31:34:564,0.375353,7.97837,-5.61853,-54.8518,1.87659,148.007
2023-03-15 21:31:34:574,0.35155,7.99305,-5.5945,-54.855,1.88118,148.007
2023-03-15 21:31:34:584,0.322576,8.00464,-5.58743,-54.8588,1.88059,148.009
2023-03-15 21:31:34:594,0.314435,8.01268,-5.59445,-54.8645,1.87878,148.011
2023-03-15 21:31:34:604,0.329471,8.00106,-5.60453,-54.8637,1.87848,148.01
2023-03-15 21:31:34:614,0.334449,7.99114,-5.61403,-54.8656,1.88159,148.008
2023-03-15 21:31:34:624,0.359974,7.99456,-5.60701,-54.8641,1.88191,148.008
2023-03-15 21:31:34:634,0.374424,7.98623,-5.61767,-54.8637,1.88148,148.006
2023-03-15 21:31:34:644,0.389304,7.97979,-5.62339,-54.8639,1.88016,148.005
2023-03-15 21:31:34:654,0.380802,7.98795,-5.62424,-54.8634,1.87737,148.007
2023-03-15 21:31:34:664,0.347134,7.98909,-5.6191,-54.866,1.87843,148.011
2023-03-15 21:31:34:674,0.323211,7.99825,-5.60518,-54.865,1.87899,148.011
2023-03-15 21:31:34:684,0.31549,8.00381,-5.60083,-54.8655,1.87766,148.008
2023-03-15 21:31:34:694,0.332724,8.0032,-5.60896,-54.8678,1.8762,148.008
2023-03-15 21:31:34:704,0.354694,7.99168,-5.61668,-54.8657,1.87636,148.008
2023-03-15 21:31:34:714,0.365864,7.98781,-5.6102,-54.8633,1.87489,148.008
2023-03-15 21:31:34:724,0.383522,7.97947,-5.61148,-54.8663,1.87614,148.006
2023-03-15 21:31:34:734,0.380275,7.97607,-5.61565,-54.8662,1.87677,148.006
2023-03-15 21:31:34:744,0.363627,7.98316,-5.62046,-54.8658,1.87825,148.008
2023-03-15 21:31:34:754,0.360722,7.98283,-5.61134,-54.8647,1.87744,148.008
2023-03-15 21:31:34:764,0.346906,7.98768,-5.61608,-54.8647,1.87576,148.009
2023-03-15 21:31:34:774,0.328465,7.99499,-5.6126,-54.8638,1.87522,148.01
2023-03-15 21:31:34:784,0.3189,7.99838,-5.59791,-54.865,1.8737,148.014
2023-03-15 21:31:34:794,0.335464,7.99459,-5.60189,-54.8625,1.8733,148.012
2023-03-15 21:31:34:804,0.361992,7.98539,-5.62232,-54.8632,1.87383,148.013
2023-03-15 21:31:34:814,0.381464,7.98549,-5.62098,-54.8607,1.87527,148.012
2023-03-15 21:31:34:824,0.386365,7.99453,-5.60306,-54.8602,1.87597,148.014
2023-03-15 21:31:34:834,0.362335,7.99672,-5.60964,-54.8609,1.87226,148.014
2023-03-15 21:31:34:844,0.344787,7.99717,-5.60078,-54.8631,1.87079,148.013
2023-03-15 21:31:34:854,0.338806,7.99262,-5.60864,-54.8638,1.86979,148.017
2023-03-15 21:31:34:864,0.337822,8.00067,-5.60413,-54.8663,1.87069,148.015
2023-03-15 21:31:34:874,0.336834,7.99218,-5.61446,-54.8666,1.87293,148.016
2023-03-15 21:31:34:884,0.349624,7.9846,-5.62081,-54.8677,1.87066,148.017
2023-03-15 21:31:34:894,0.365706,7.97411,-5.63001,-54.8667,1.86864,148.018
2023-03-15 21:31:34:904,0.365353,7.98037,-5.61819,-54.8651,1.87043,148.021
2023-03-15 21:31:34:914,0.375418,7.98894,-5.61996,-54.8654,1.87194,148.021
2023-03-15 21:31:34:924,0.362272,7.99342,-5.61011,-54.8639,1.8725,148.021
2023-03-15 21:31:34:934,0.355008,7.99057,-5.60515,-54.865,1.8725,148.017
2023-03-15 21:31:34:944,0.330823,7.98549,-5.61721,-54.8651,1.8721,148.019
2023-03-15 21:31:34:954,0.320652,7.99174,-5.60634,-54.8682,1.87132,148.022
2023-03-15 21:31:34:964,0.344342,7.99068,-5.60074,-54.8693,1.87237,148.025
2023-03-15 21:31:34:974,0.35209,7.99175,-5.6074,-54.8684,1.86911,148.024
2023-03-15 21:31:34:984,0.357921,7.98002,-5.61211,-54.8698,1.86923,148.025
2023-03-15 21:31:34:994,0.356635,7.98562,-5.61813,-54.8676,1.87083,148.027
2023-03-15 21:31:35:4,0.366628,7.98145,-5.6188,-54.8644,1.87077,148.026
2023-03-15 21:31:35:14,0.361517,7.97746,-5.61742,-54.8627,1.86835,148.028
2023-03-15 21:31:35:24,0.352484,8.00243,-5.61015,-54.8649,1.86962,148.028
2023-03-15 21:31:35:34,0.346645,8.00271,-5.60547,-54.8683,1.87047,148.026
2023-03-15 21:31:35:44,0.351951,8.00085,-5.59683,-54.8686,1.87116,148.028
2023-03-15 21:31:35:54,0.356109,7.99503,-5.60472,-54.8694,1.87072,148.027
2023-03-15 21:31:35:64,0.350877,7.98646,-5.61282,-54.8669,1.87232,148.023
2023-03-15 21:31:35:74,0.351109,7.97741,-5.61148,-54.8672,1.87286,148.024
2023-03-15 21:31:35:84,0.370174,7.99195,-5.60956,-54.8694,1.87319,148.025
2023-03-15 21:31:35:94,0.356017,7.98403,-5.61643,-54.8692,1.87487,148.026
2023-03-15 21:31:35:104,0.344282,7.98606,-5.61348,-54.8712,1.87767,148.026
2023-03-15 21:31:35:114,0.341321,7.98057,-5.61642,-54.8719,1.87699,148.025
2023-03-15 21:31:35:124,0.350616,7.99628,-5.60792,-54.8737,1.87736,148.024
2023-03-15 21:31:35:134,0.338764,7.99867,-5.5988,-54.8723,1.87543,148.023
2023-03-15 21:31:35:144,0.344171,8.00539,-5.60132,-54.87,1.87435,148.022
2023-03-15 21:31:35:154,0.359554,7.99234,-5.62049,-54.869,1.87597,148.021
2023-03-15 21:31:35:164,0.364457,7.98129,-5.61935,-54.868,1.87517,148.021
2023-03-15 21:31:35:174,0.374136,7.99254,-5.61691,-54.8689,1.87499,148.021
2023-03-15 21:31:35:184,0.357271,7.9961,-5.6105,-54.8672,1.87509,148.02
2023-03-15 21:31:35:194,0.348901,7.99553,-5.61171,-54.8679,1.87292,148.021
2023-03-15 21:31:35:204,0.346141,7.9909,-5.61928,-54.8692,1.87174,148.022
2023-03-15 21:31:35:214,0.348258,7.9814,-5.62405,-54.8672,1.87132,148.024
2023-03-15 21:31:35:224,0.347499,7.97855,-5.62013,-54.8677,1.87077,148.022
2023-03-15 21:31:35:234,0.347002,7.98636,-5.6157,-54.8626,1.87142,148.02
2023-03-15 21:31:35:244,0.348256,7.98657,-5.60897,-54.8613,1.87448,148.018
2023-03-15 21:31:35:254,0.359986,7.98641,-5.61031,-54.8621,1.87496,148.019
2023-03-15 21:31:35:264,0.352137,7.9878,-5.616,-54.8599,1.87138,148.022
2023-03-15 21:31:35:274,0.360806,7.9852,-5.62039,-54.8597,1.86842,148.021
2023-03-15 21:31:35:284,0.359625,7.99701,-5.60688,-54.8636,1.86988,148.023
2023-03-15 21:31:35:294,0.354992,8.00592,-5.60574,-54.8669,1.86861,148.02
2023-03-15 21:31:35:304,0.356429,7.99646,-5.61585,-54.8671,1.87012,148.019
2023-03-15 21:31:35:314,0.353293,7.99485,-5.61678,-54.8676,1.87128,148.02
2023-03-15 21:31:35:324,0.343938,7.98772,-5.62622,-54.8656,1.87183,148.019
2023-03-15 21:31:35:334,0.344511,7.98801,-5.61398,-54.8674,1.87627,148.018
2023-03-15 21:31:35:344,0.356076,7.99405,-5.61078,-54.865,1.87746,148.018
2023-03-15 21:31:35:354,0.359402,7.99529,-5.61683,-54.8621,1.87942,148.021
2023-03-15 21:31:35:364,0.352195,7.99597,-5.61205,-54.8623,1.88046,148.024
2023-03-15 21:31:35:374,0.352201,7.99468,-5.61229,-54.8607,1.87878,148.025
2023-03-15 21:31:35:384,0.34957,7.99906,-5.61649,-54.8586,1.8762,148.025
2023-03-15 21:31:35:394,0.344206,7.9965,-5.61497,-54.8596,1.87474,148.028
2023-03-15 21:31:35:404,0.352881,7.99423,-5.60807,-54.8565,1.87195,148.027
2023-03-15 21:31:35:414,0.350283,7.99087,-5.60851,-54.8594,1.87296,148.029
2023-03-15 21:31:35:424,0.350986,8.00392,-5.61062,-54.8581,1.87383,148.028
2023-03-15 21:31:35:434,0.352702,8.00119,-5.60964,-54.8563,1.87615,148.026
2023-03-15 21:31:35:444,0.35795,7.99372,-5.61299,-54.8567,1.87676,148.024
2023-03-15 21:31:35:454,0.355793,7.99494,-5.60997,-54.8602,1.87548,148.025
2023-03-15 21:31:35:464,0.361231,7.99572,-5.61376,-54.8609,1.8784,148.026
2023-03-15 21:31:35:474,0.354353,7.9893,-5.61374,-54.8611,1.87998,148.025
2023-03-15 21:31:35:484,0.357169,7.98906,-5.61369,-54.862,1.87808,148.023
2023-03-15 21:31:35:494,0.353786,7.98792,-5.61576,-54.8638,1.8794,148.026
2023-03-15 21:31:35:504,0.353328,7.98141,-5.61766,-54.8644,1.88201,148.025
2023-03-15 21:31:35:514,0.360576,7.97933,-5.61806,-54.8645,1.88567,148.023
2023-03-15 21:31:35:524,0.361337,7.98711,-5.62849,-54.8652,1.88332,148.023
2023-03-15 21:31:35:534,0.363749,7.98921,-5.61587,-54.8646,1.88086,148.025
2023-03-15 21:31:35:544,0.354288,7.98133,-5.60753,-54.8626,1.87927,148.027
2023-03-15 21:31:35:554,0.343378,7.9849,-5.61174,-54.8636,1.879,148.028
2023-03-15 21:31:35:564,0.340229,8.00224,-5.5984,-54.8662,1.87927,148.029
2023-03-15 21:31:35:574,0.346706,7.99357,-5.60037,-54.8655,1.87804,148.029
2023-03-15 21:31:35:584,0.349018,7.98363,-5.60002,-54.8674,1.87925,148.027
2023-03-15 21:31:35:594,0.355225,7.99332,-5.61231,-54.8707,1.87661,148.028
2023-03-15 21:31:35:604,0.350923,7.98013,-5.61763,-54.8726,1.87855,148.028
2023-03-15 21:31:35:614,0.354455,7.99247,-5.61903,-54.8721,1.87612,148.029
2023-03-15 21:31:35:624,0.351852,7.99099,-5.61348,-54.8735,1.8762,148.025
2023-03-15 21:31:35:634,0.341175,7.99431,-5.60786,-54.8739,1.87846,148.024
2023-03-15 21:31:35:644,0.344853,7.99446,-5.61058,-54.8743,1.87864,148.029
2023-03-15 21:31:35:654,0.345917,7.99834,-5.60493,-54.8754,1.87739,148.029
2023-03-15 21:31:35:664,0.349982,7.99556,-5.61202,-54.8774,1.87745,148.026
2023-03-15 21:31:35:674,0.359904,7.98761,-5.61525,-54.8768,1.87642,148.028
2023-03-15 21:31:35:684,0.349704,7.98682,-5.60276,-54.8752,1.8762,148.027
2023-03-15 21:31:35:694,0.352701,7.99176,-5.60686,-54.8761,1.87846,148.025
2023-03-15 21:31:35:704,0.358882,7.99304,-5.60734,-54.8792,1.87782,148.024
2023-03-15 21:31:35:714,0.355923,8.00032,-5.60946,-54.8807,1.87962,148.023
2023-03-15 21:31:35:724,0.353591,7.98677,-5.61001,-54.8797,1.87748,148.025
2023-03-15 21:31:35:734,0.349459,7.99238,-5.60951,-54.8793,1.87868,148.023
2023-03-15 21:31:35:744,0.344038,7.9925,-5.61359,-54.8776,1.87934,148.025
2023-03-15 21:31:35:754,0.360371,7.98864,-5.61756,-54.8749,1.88277,148.027
2023-03-15 21:31:35:764,0.354191,7.99454,-5.61079,-54.8732,1.88026,148.03
2023-03-15 21:31:35:774,0.350315,7.99435,-5.61327,-54.8708,1.8772,148.029
2023-03-15 21:31:35:784,0.35409,7.99815,-5.61056,-54.8694,1.87848,148.029
2023-03-15 21:31:35:794,0.360332,7.99457,-5.60688,-54.8695,1.87457,148.032
2023-03-15 21:31:35:804,0.350836,7.99173,-5.60993,-54.8701,1.87719,148.034
2023-03-15 21:31:35:814,0.34804,7.99118,-5.60811,-54.8717,1.88148,148.035
2023-03-15 21:31:35:824,0.352653,7.99314,-5.61352,-54.8719,1.88048,148.037
2023-03-15 21:31:35:834,0.351562,7.98431,-5.61622,-54.8708,1.88085,148.035
2023-03-15 21:31:35:844,0.353947,7.97451,-5.6283,-54.8713,1.88078,148.033
2023-03-15 21:31:35:854,0.348684,7.98578,-5.61223,-54.8697,1.88217,148.034
2023-03-15 21:31:35:864,0.356259,8.00443,-5.60574,-54.8689,1.88098,148.037
2023-03-15 21:31:35:874,0.355341,7.99706,-5.61641,-54.8686,1.88074,148.037
2023-03-15 21:31:35:884,0.346634,8.00002,-5.60587,-54.8676,1.88076,148.037
2023-03-15 21:31:35:894,0.347596,8.00374,-5.5917,-54.8678,1.87831,148.034
2023-03-15 21:31:35:904,0.355302,7.99032,-5.60559,-54.8673,1.8791,148.034
2023-03-15 21:31:35:914,0.355768,7.98449,-5.6235,-54.8684,1.88217,148.031
2023-03-15 21:31:35:924,0.348714,7.98508,-5.61969,-54.8699,1.8835,148.034
2023-03-15 21:31:35:934,0.342988,7.98587,-5.61071,-54.8684,1.88509,148.033
2023-03-15 21:31:35:944,0.348434,7.98908,-5.6107,-54.8709,1.88711,148.033
2023-03-15 21:31:35:954,0.336962,7.98958,-5.61764,-54.867,1.88362,148.034
2023-03-15 21:31:35:964,0.345984,7.98864,-5.61619,-54.866,1.88153,148.034
2023-03-15 21:31:35:974,0.342581,7.99539,-5.6028,-54.865,1.87782,148.038
2023-03-15 21:31:35:984,0.349433,7.99242,-5.60342,-54.8691,1.87718,148.038
2023-03-15 21:31:35:994,0.356178,7.99709,-5.61212,-54.8699,1.88018,148.036
2023-03-15 21:31:36:4,0.349062,7.99818,-5.61635,-54.8672,1.88025,148.037
2023-03-15 21:31:36:14,0.351761,7.99646,-5.60062,-54.8654,1.87873,148.036
2023-03-15 21:31:36:24,0.361318,7.99766,-5.60155,-54.8634,1.8789,148.03
2023-03-15 21:31:36:34,0.363141,7.99222,-5.6094,-54.8633,1.87682,148.031
2023-03-15 21:31:36:44,0.342243,7.98763,-5.60089,-54.8661,1.87879,148.03
2023-03-15 21:31:36:54,0.346332,7.98278,-5.61747,-54.8657,1.87806,148.03
2023-03-15 21:31:36:64,0.35307,7.99704,-5.60794,-54.8681,1.8767,148.029
2023-03-15 21:31:36:74,0.352008,7.99823,-5.60908,-54.8674,1.87651,148.033
2023-03-15 21:31:36:84,0.355598,7.98506,-5.61335,-54.8652,1.87864,148.03
2023-03-15 21:31:36:94,0.351423,7.98514,-5.61201,-54.8665,1.87811,148.03
2023-03-15 21:31:36:104,0.356207,7.98486,-5.6179,-54.8669,1.87918,148.03
2023-03-15 21:31:36:114,0.357497,7.98745,-5.61517,-54.8691,1.879,148.032
2023-03-15 21:31:36:124,0.357734,7.99285,-5.61106,-54.8695,1.88017,148.029
2023-03-15 21:31:36:134,0.348661,7.99633,-5.60578,-54.8675,1.87847,148.029
2023-03-15 21:31:36:144,0.345706,8.00183,-5.60952,-54.8683,1.87791,148.029
2023-03-15 21:31:36:154,0.350773,7.98893,-5.60942,-54.8691,1.87611,148.027
2023-03-15 21:31:36:164,0.356591,7.98243,-5.61124,-54.8678,1.87657,148.028
2023-03-15 21:31:36:174,0.357428,7.97584,-5.62355,-54.867,1.87696,148.027
2023-03-15 21:31:36:184,0.352349,7.98535,-5.61665,-54.8677,1.87498,148.028
2023-03-15 21:31:36:194,0.352447,7.98577,-5.61381,-54.8644,1.87785,148.025
2023-03-15 21:31:36:204,0.347806,7.99523,-5.60317,-54.8607,1.87657,148.026
2023-03-15 21:31:36:214,0.351426,7.99273,-5.61603,-54.8596,1.87752,148.023
2023-03-15 21:31:36:224,0.349278,7.99808,-5.60816,-54.8587,1.87845,148.024
2023-03-15 21:31:36:234,0.349782,7.99431,-5.60822,-54.8579,1.88015,148.022
2023-03-15 21:31:36:244,0.341667,8.00504,-5.60933,-54.8594,1.88077,148.023
2023-03-15 21:31:36:254,0.329195,8.00543,-5.60945,-54.8599,1.88386,148.022
2023-03-15 21:31:36:264,0.340501,7.99621,-5.61139,-54.8558,1.88275,148.021
2023-03-15 21:31:36:274,0.350016,7.99221,-5.61089,-54.8553,1.88098,148.023
2023-03-15 21:31:36:284,0.334453,7.98103,-5.60394,-54.8563,1.88167,148.025
2023-03-15 21:31:36:294,0.345863,7.98335,-5.61471,-54.8552,1.88113,148.028
2023-03-15 21:31:36:304,0.343565,7.98686,-5.61786,-54.8534,1.87942,148.028
2023-03-15 21:31:36:314,0.348704,7.99016,-5.61606,-54.853,1.87779,148.026
2023-03-15 21:31:36:324,0.34861,7.98733,-5.60939,-54.852,1.8773,148.028
2023-03-15 21:31:36:334,0.344371,7.98509,-5.60845,-54.8531,1.87752,148.03
2023-03-15 21:31:36:344,0.356934,8.00795,-5.60836,-54.853,1.875,148.032
2023-03-15 21:31:36:354,0.354283,7.9956,-5.61858,-54.8502,1.87747,148.033
2023-03-15 21:31:36:364,0.351351,8.00435,-5.61637,-54.8508,1.87817,148.037
2023-03-15 21:31:36:374,0.343266,8.00076,-5.61408,-54.8471,1.87706,148.04
2023-03-15 21:31:36:384,0.342212,7.99664,-5.6078,-54.8478,1.87704,148.038
2023-03-15 21:31:36:394,0.343911,7.99528,-5.60725,-54.8472,1.8743,148.039
2023-03-15 21:31:36:404,0.348282,7.99143,-5.60695,-54.8505,1.87262,148.04
2023-03-15 21:31:36:414,0.353439,7.99314,-5.61496,-54.8527,1.87274,148.039
2023-03-15 21:31:36:424,0.350009,7.9822,-5.62031,-54.8514,1.8734,148.037
2023-03-15 21:31:36:434,0.355731,7.9885,-5.61358,-54.8539,1.87345,148.037
2023-03-15 21:31:36:444,0.355977,7.99182,-5.60995,-54.8545,1.87411,148.038
2023-03-15 21:31:36:454,0.358302,7.99414,-5.60893,-54.8555,1.87504,148.04
2023-03-15 21:31:36:464,0.350357,7.98343,-5.6161,-54.8576,1.87693,148.037
2023-03-15 21:31:36:474,0.35276,7.9689,-5.61898,-54.8577,1.87514,148.038
2023-03-15 21:31:36:484,0.353602,7.98435,-5.61111,-54.8554,1.87585,148.037
2023-03-15 21:31:36:494,0.36253,7.98572,-5.61024,-54.8563,1.87461,148.038
2023-03-15 21:31:36:504,0.363365,7.98963,-5.60231,-54.8517,1.87404,148.037
2023-03-15 21:31:36:514,0.357867,7.98847,-5.60752,-54.8502,1.87601,148.039
2023-03-15 21:31:36:524,0.364183,7.99553,-5.61752,-54.8474,1.87242,148.033
2023-03-15 21:31:36:534,0.353263,7.99861,-5.61248,-54.8478,1.87247,148.033
2023-03-15 21:31:36:544,0.345505,7.993,-5.61164,-54.8467,1.87034,148.03
2023-03-15 21:31:36:554,0.349939,7.98955,-5.61264,-54.8472,1.86991,148.031
2023-03-15 21:31:36:564,0.345756,7.99793,-5.61694,-54.8492,1.87151,148.032
2023-03-15 21:31:36:574,0.345461,7.99965,-5.61192,-54.8491,1.87184,148.03
2023-03-15 21:31:36:584,0.345572,7.99404,-5.61254,-54.8513,1.87075,148.028
2023-03-15 21:31:36:594,0.362722,7.99334,-5.61035,-54.8509,1.86868,148.027
2023-03-15 21:31:36:604,0.357068,7.97879,-5.61493,-54.8521,1.86944,148.027
2023-03-15 21:31:36:614,0.354472,7.98175,-5.61549,-54.8512,1.86875,148.027
2023-03-15 21:31:36:624,0.34986,7.98721,-5.61457,-54.8531,1.86861,148.03
2023-03-15 21:31:36:634,0.341578,7.98882,-5.61288,-54.8527,1.86323,148.031
2023-03-15 21:31:36:644,0.356501,7.9912,-5.61613,-54.8533,1.86353,148.03
2023-03-15 21:31:36:654,0.361376,7.99409,-5.60694,-54.8536,1.86084,148.027
2023-03-15 21:31:36:664,0.357714,7.99203,-5.60365,-54.8523,1.8589,148.026
2023-03-15 21:31:36:674,0.347236,7.9912,-5.60719,-54.8505,1.85866,148.026
2023-03-15 21:31:36:684,0.3542,7.99076,-5.61212,-54.8514,1.86163,148.027
2023-03-15 21:31:36:694,0.349457,7.99302,-5.60989,-54.8517,1.86235,148.028
2023-03-15 21:31:36:704,0.350546,7.9887,-5.61865,-54.8537,1.85873,148.03
2023-03-15 21:31:36:714,0.357089,7.99406,-5.6099,-54.8531,1.85795,148.033
2023-03-15 21:31:36:724,0.353724,7.9914,-5.62186,-54.8547,1.85679,148.034
2023-03-15 21:31:36:734,0.349202,8.00543,-5.61222,-54.8566,1.85594,148.034
2023-03-15 21:31:36:744,0.347824,7.9913,-5.60394,-54.8584,1.85602,148.033
2023-03-15 21:31:36:754,0.355929,7.9958,-5.60218,-54.8617,1.85807,148.031
2023-03-15 21:31:36:764,0.347462,7.99529,-5.60567,-54.8645,1.85687,148.033
2023-03-15 21:31:36:774,0.353452,7.99211,-5.60311,-54.8643,1.85898,148.033
2023-03-15 21:31:36:784,0.358648,7.99304,-5.60715,-54.8642,1.85636,148.034
2023-03-15 21:31:36:794,0.356357,7.99099,-5.61409,-54.8644,1.85409,148.036
2023-03-15 21:31:36:804,0.353821,7.99215,-5.60798,-54.8636,1.85434,148.037
2023-03-15 21:31:36:814,0.359009,7.99614,-5.62072,-54.8636,1.85586,148.038
2023-03-15 21:31:36:824,0.358476,7.9948,-5.61819,-54.8656,1.85728,148.033
2023-03-15 21:31:36:834,0.354366,7.98455,-5.61672,-54.8692,1.85926,148.033
2023-03-15 21:31:36:844,0.36176,7.98528,-5.61672,-54.869,1.85893,148.034
2023-03-15 21:31:36:854,0.35831,7.9856,-5.61514,-54.8698,1.86053,148.033
2023-03-15 21:31:36:864,0.352229,7.98668,-5.62093,-54.8702,1.85972,148.032
2023-03-15 21:31:36:874,0.348158,7.99833,-5.60707,-54.8713,1.85783,148.033
2023-03-15 21:31:36:884,0.335616,7.99608,-5.5971,-54.8708,1.85625,148.032
2023-03-15 21:31:36:894,0.333777,7.99431,-5.5974,-54.8709,1.85325,148.033
2023-03-15 21:31:36:904,0.351272,7.99622,-5.60067,-54.869,1.8542,148.029
2023-03-15 21:31:36:914,0.345406,7.99718,-5.59965,-54.8687,1.85444,148.029
2023-03-15 21:31:36:924,0.341393,7.99525,-5.61071,-54.8676,1.85554,148.031
2023-03-15 21:31:36:934,0.347387,7.99352,-5.61734,-54.8645,1.85482,148.033
2023-03-15 21:31:36:944,0.363176,7.99395,-5.61353,-54.8641,1.85591,148.034
2023-03-15 21:31:36:954,0.357523,7.99352,-5.60649,-54.8662,1.85733,148.038
2023-03-15 21:31:36:964,0.35323,8.006,-5.61065,-54.8647,1.8594,148.038
2023-03-15 21:31:36:974,0.35953,7.99094,-5.61972,-54.8649,1.86145,148.038
2023-03-15 21:31:36:984,0.348591,7.97876,-5.61939,-54.8653,1.85876,148.035
2023-03-15 21:31:36:994,0.350981,7.98067,-5.60984,-54.8661,1.85824,148.035
2023-03-15 21:31:37:4,0.351605,7.9921,-5.61404,-54.8658,1.85364,148.035
2023-03-15 21:31:37:14,0.349075,7.99368,-5.61776,-54.867,1.85481,148.033
2023-03-15 21:31:37:24,0.354904,7.99363,-5.62366,-54.8675,1.85543,148.03
2023-03-15 21:31:37:34,0.34606,7.99439,-5.62212,-54.8685,1.85443,148.03
2023-03-15 21:31:37:44,0.346636,7.99482,-5.60947,-54.8716,1.8543,148.028
2023-03-15 21:31:37:54,0.358647,7.98936,-5.61038,-54.8766,1.85738,148.025
2023-03-15 21:31:37:64,0.357287,7.99647,-5.61437,-54.8767,1.85602,148.028
2023-03-15 21:31:37:74,0.351185,7.9943,-5.61413,-54.8778,1.85718,148.027
2023-03-15 21:31:37:84,0.339608,7.99228,-5.61562,-54.8772,1.8561,148.029
2023-03-15 21:31:37:94,0.348917,7.99356,-5.61752,-54.8765,1.86052,148.028
2023-03-15 21:31:37:104,0.34982,7.98769,-5.61961,-54.8748,1.86173,148.029
2023-03-15 21:31:37:114,0.357953,7.98972,-5.6167,-54.8751,1.86402,148.028
2023-03-15 21:31:37:124,0.350388,7.97728,-5.62808,-54.875,1.86519,148.03
2023-03-15 21:31:37:134,0.347714,7.9842,-5.62508,-54.8724,1.86537,148.03
2023-03-15 21:31:37:144,0.34574,7.98762,-5.61688,-54.8733,1.86582,148.031
2023-03-15 21:31:37:154,0.355617,7.98656,-5.61974,-54.8709,1.86488,148.032
2023-03-15 21:31:37:164,0.347845,7.98869,-5.61423,-54.8708,1.86607,148.033
2023-03-15 21:31:37:174,0.343137,7.98905,-5.60891,-54.8716,1.86417,148.033
2023-03-15 21:31:37:184,0.345648,7.99165,-5.60416,-54.8686,1.86398,148.032
2023-03-15 21:31:37:194,0.339729,7.9953,-5.6184,-54.8668,1.86242,148.031
2023-03-15 21:31:37:204,0.34709,7.99544,-5.61247,-54.8673,1.86503,148.028
2023-03-15 21:31:37:214,0.350256,7.99377,-5.61014,-54.8645,1.8668,148.028
2023-03-15 21:31:37:224,0.362757,7.98921,-5.62007,-54.8638,1.86636,148.028
2023-03-15 21:31:37:234,0.355168,7.99272,-5.62123,-54.8616,1.86594,148.031
2023-03-15 21:31:37:244,0.357101,7.99539,-5.62905,-54.8602,1.8649,148.029
2023-03-15 21:31:37:254,0.35368,8.00261,-5.61834,-54.8591,1.86488,148.027
2023-03-15 21:31:37:264,0.350985,8.00798,-5.60795,-54.8575,1.86469,148.027
2023-03-15 21:31:37:274,0.352852,7.99653,-5.6157,-54.8621,1.86522,148.029
2023-03-15 21:31:37:284,0.354881,7.99994,-5.62134,-54.8634,1.86261,148.026
2023-03-15 21:31:37:294,0.35055,7.99149,-5.61582,-54.8646,1.86408,148.026
2023-03-15 21:31:37:304,0.347545,7.99331,-5.60694,-54.8653,1.86598,148.028
2023-03-15 21:31:37:314,0.345771,7.98694,-5.60236,-54.8665,1.86593,148.025
2023-03-15 21:31:37:324,0.347532,7.99637,-5.60607,-54.866,1.8642,148.023
2023-03-15 21:31:37:334,0.343645,8.00012,-5.61757,-54.8656,1.86456,148.02
2023-03-15 21:31:37:344,0.34502,7.99094,-5.62428,-54.8644,1.86065,148.023
2023-03-15 21:31:37:354,0.346558,7.98118,-5.62076,-54.866,1.85784,148.022
2023-03-15 21:31:37:364,0.352395,7.99181,-5.61584,-54.8634,1.85858,148.023
2023-03-15 21:31:37:374,0.3506,7.99569,-5.61624,-54.8632,1.85906,148.024
2023-03-15 21:31:37:384,0.348358,7.98391,-5.62482,-54.8622,1.86125,148.025
2023-03-15 21:31:37:394,0.350503,7.98502,-5.61674,-54.8614,1.86281,148.028
2023-03-15 21:31:37:404,0.356483,7.98989,-5.61967,-54.862,1.8642,148.027
2023-03-15 21:31:37:414,0.351873,7.98534,-5.62697,-54.8632,1.86562,148.023
2023-03-15 21:31:37:424,0.348222,7.97708,-5.62738,-54.8609,1.86103,148.025
2023-03-15 21:31:37:434,0.355525,7.98126,-5.62594,-54.8602,1.86087,148.025
2023-03-15 21:31:37:444,0.362422,7.98132,-5.61781,-54.858,1.85855,148.025
2023-03-15 21:31:37:454,0.353994,7.98966,-5.61874,-54.8591,1.85878,148.026
2023-03-15 21:31:37:464,0.356586,7.99477,-5.61173,-54.8571,1.86033,148.027
2023-03-15 21:31:37:474,0.342149,7.99285,-5.61896,-54.8569,1.86266,148.027
2023-03-15 21:31:37:484,0.339373,7.99265,-5.61397,-54.8558,1.8622,148.028
2023-03-15 21:31:37:494,0.352254,7.99211,-5.61233,-54.8569,1.85789,148.028
2023-03-15 21:31:37:504,0.356967,7.99425,-5.62585,-54.8581,1.85813,148.027
2023-03-15 21:31:37:514,0.360361,7.98482,-5.63185,-54.8576,1.85761,148.029
2023-03-15 21:31:37:524,0.352039,7.98673,-5.61343,-54.856,1.85634,148.031
2023-03-15 21:31:37:534,0.342328,7.99853,-5.60057,-54.8561,1.8582,148.034
2023-03-15 21:31:37:544,0.344478,7.98866,-5.61214,-54.8554,1.85644,148.033
2023-03-15 21:31:37:554,0.347778,7.98955,-5.61121,-54.8549,1.85643,148.034
2023-03-15 21:31:37:564,0.360178,7.9861,-5.61189,-54.8555,1.85617,148.033
2023-03-15 21:31:37:574,0.352524,7.99376,-5.6069,-54.8562,1.8559,148.033
2023-03-15 21:31:37:584,0.353031,7.99676,-5.61227,-54.8562,1.85526,148.032
2023-03-15 21:31:37:594,0.361351,7.98009,-5.62161,-54.8548,1.85591,148.03
2023-03-15 21:31:37:604,0.357039,7.98667,-5.61153,-54.8543,1.85744,148.031
2023-03-15 21:31:37:614,0.352086,7.99032,-5.61491,-54.8557,1.8581,148.03
2023-03-15 21:31:37:624,0.355496,8.0077,-5.60684,-54.8562,1.85759,148.032
2023-03-15 21:31:37:634,0.345989,8.00317,-5.61288,-54.8552,1.86042,148.034
2023-03-15 21:31:37:644,0.356289,7.98163,-5.63065,-54.8573,1.86248,148.033
2023-03-15 21:31:37:654,0.35544,7.97465,-5.63158,-54.8519,1.86145,148.031
2023-03-15 21:31:37:664,0.348237,7.99259,-5.62251,-54.8512,1.86181,148.034
2023-03-15 21:31:37:674,0.356276,8.00299,-5.61429,-54.8525,1.86182,148.034
2023-03-15 21:31:37:684,0.337502,7.98972,-5.61913,-54.8568,1.86341,148.033
2023-03-15 21:31:37:694,0.347764,7.9884,-5.61404,-54.8533,1.86216,148.037
2023-03-15 21:31:37:704,0.352416,7.98179,-5.6208,-54.8535,1.85904,148.036
2023-03-15 21:31:37:714,0.346797,7.97695,-5.62396,-54.8542,1.85737,148.035
2023-03-15 21:31:37:724,0.356919,7.98365,-5.6196,-54.8532,1.85931,148.036
2023-03-15 21:31:37:734,0.354236,7.98709,-5.60978,-54.8535,1.85918,148.033
2023-03-15 21:31:37:743,0.359753,7.99142,-5.61018,-54.8527,1.85724,148.035
2023-03-15 21:31:37:754,0.353527,7.99501,-5.6008,-54.8525,1.85574,148.031
2023-03-15 21:31:37:764,0.354627,7.98788,-5.61035,-54.8519,1.85875,148.032
2023-03-15 21:31:37:774,0.346239,7.98261,-5.61803,-54.8509,1.85893,148.031
2023-03-15 21:31:37:784,0.353803,7.98487,-5.62697,-54.8485,1.85888,148.031
2023-03-15 21:31:37:794,0.344548,7.99084,-5.61164,-54.8476,1.86092,148.033
2023-03-15 21:31:37:804,0.347045,7.99472,-5.60779,-54.8474,1.86177,148.036
2023-03-15 21:31:37:814,0.352856,7.99941,-5.6121,-54.8511,1.86236,148.035
2023-03-15 21:31:37:824,0.351877,7.99876,-5.61435,-54.8503,1.86449,148.035
2023-03-15 21:31:37:834,0.349166,7.99538,-5.61423,-54.8507,1.86461,148.036
2023-03-15 21:31:37:844,0.354798,7.98693,-5.60979,-54.8472,1.86458,148.037
2023-03-15 21:31:37:854,0.341585,7.98618,-5.6025,-54.8452,1.86323,148.034
2023-03-15 21:31:37:864,0.337584,7.98426,-5.60163,-54.8469,1.86183,148.032
2023-03-15 21:31:37:874,0.345978,7.98147,-5.61096,-54.8457,1.86382,148.034
2023-03-15 21:31:37:884,0.349547,7.99061,-5.60999,-54.8438,1.86379,148.033
2023-03-15 21:31:37:894,0.352672,8.0031,-5.60116,-54.845,1.86378,148.033
2023-03-15 21:31:37:904,0.354248,7.99267,-5.60339,-54.8442,1.86291,148.031
2023-03-15 21:31:37:914,0.360935,7.99349,-5.61166,-54.8407,1.86355,148.035
2023-03-15 21:31:37:924,0.357372,7.99902,-5.61084,-54.8395,1.86404,148.037
2023-03-15 21:31:37:934,0.356263,7.99226,-5.62524,-54.8397,1.8636,148.04
2023-03-15 21:31:37:944,0.359464,7.98813,-5.61958,-54.8405,1.86428,148.04
2023-03-15 21:31:37:954,0.362192,7.97886,-5.6172,-54.8428,1.86412,148.042
2023-03-15 21:31:37:964,0.348028,7.98158,-5.61666,-54.8419,1.86543,148.046
2023-03-15 21:31:37:973,0.345439,7.98641,-5.61472,-54.8391,1.86442,148.044
2023-03-15 21:31:37:983,0.352734,7.9809,-5.61167,-54.8359,1.86505,148.043
2023-03-15 21:31:37:994,0.353495,7.98747,-5.62243,-54.8355,1.86717,148.047
2023-03-15 21:31:38:4,0.347389,7.99158,-5.61817,-54.832,1.86408,148.046
2023-03-15 21:31:38:14,0.355962,7.98866,-5.61411,-54.8331,1.86858,148.046
2023-03-15 21:31:38:24,0.345397,7.99201,-5.61571,-54.834,1.86804,148.046
2023-03-15 21:31:38:34,0.352022,7.98147,-5.62019,-54.8352,1.86882,148.043
2023-03-15 21:31:38:44,0.339102,7.99691,-5.60301,-54.8386,1.86604,148.046
2023-03-15 21:31:38:54,0.343932,7.99825,-5.60121,-54.8369,1.86576,148.044
2023-03-15 21:31:38:64,0.357169,8.00064,-5.60377,-54.8373,1.86365,148.043
2023-03-15 21:31:38:74,0.353995,7.98342,-5.61299,-54.8376,1.86217,148.043
2023-03-15 21:31:38:84,0.363863,7.98001,-5.60821,-54.8364,1.86324,148.043
2023-03-15 21:31:38:94,0.361514,7.98467,-5.61739,-54.8343,1.86346,148.044
2023-03-15 21:31:38:104,0.356753,7.98336,-5.62057,-54.8337,1.86499,148.046
2023-03-15 21:31:38:114,0.350422,7.98822,-5.61347,-54.834,1.86344,148.049
2023-03-15 21:31:38:124,0.350679,7.98606,-5.61314,-54.835,1.86368,148.049
2023-03-15 21:31:38:134,0.348046,7.98336,-5.61067,-54.8367,1.86511,148.052
2023-03-15 21:31:38:144,0.358433,7.9866,-5.60592,-54.8364,1.8669,148.05
2023-03-15 21:31:38:154,0.365103,7.99652,-5.60953,-54.8373,1.86865,148.052
2023-03-15 21:31:38:164,0.356115,7.98596,-5.61547,-54.8362,1.86841,148.054
2023-03-15 21:31:38:174,0.342636,7.98059,-5.60475,-54.8354,1.86947,148.055
2023-03-15 21:31:38:184,0.344125,7.9891,-5.61357,-54.8372,1.86924,148.056
2023-03-15 21:31:38:194,0.345415,7.9954,-5.60834,-54.8383,1.87179,148.053
2023-03-15 21:31:38:204,0.343846,7.99746,-5.60079,-54.837,1.87195,148.055
2023-03-15 21:31:38:214,0.352181,7.99476,-5.60712,-54.8366,1.87157,148.053
2023-03-15 21:31:38:224,0.354724,7.98013,-5.6237,-54.8339,1.87123,148.053
2023-03-15 21:31:38:234,0.353232,7.99098,-5.62066,-54.8341,1.87055,148.053
2023-03-15 21:31:38:244,0.353353,7.99449,-5.61207,-54.8342,1.87176,148.051
2023-03-15 21:31:38:253,0.346516,7.99771,-5.5983,-54.8382,1.87064,148.055
2023-03-15 21:31:38:264,0.340636,7.99536,-5.60213,-54.8376,1.87284,148.051
2023-03-15 21:31:38:274,0.355604,7.97956,-5.61406,-54.8377,1.87205,148.049
2023-03-15 21:31:38:284,0.351427,7.98385,-5.6094,-54.8353,1.87074,148.051
2023-03-15 21:31:38:294,0.349365,7.99492,-5.61828,-54.8341,1.87039,148.049
2023-03-15 21:31:38:304,0.35061,7.99245,-5.61511,-54.8345,1.87149,148.047
2023-03-15 21:31:38:314,0.342237,7.99447,-5.61455,-54.8338,1.87123,148.047
2023-03-15 21:31:38:324,0.348829,7.98979,-5.61866,-54.832,1.87306,148.049
2023-03-15 21:31:38:334,0.354446,7.99937,-5.61243,-54.8337,1.87211,148.047
2023-03-15 21:31:38:344,0.351961,8.00212,-5.60901,-54.8327,1.87157,148.047
2023-03-15 21:31:38:354,0.349747,7.99297,-5.58971,-54.8342,1.87014,148.044
2023-03-15 21:31:38:364,0.359595,7.99309,-5.60645,-54.834,1.87011,148.046
2023-03-15 21:31:38:374,0.360522,7.99757,-5.60803,-54.8325,1.86976,148.044
2023-03-15 21:31:38:384,0.356269,7.98571,-5.61717,-54.8297,1.87096,148.045
2023-03-15 21:31:38:394,0.351937,7.99699,-5.60582,-54.8333,1.87249,148.047
2023-03-15 21:31:38:404,0.346308,8.00247,-5.61167,-54.8322,1.87266,148.045
2023-03-15 21:31:38:414,0.349201,7.98956,-5.61252,-54.8326,1.87434,148.043
2023-03-15 21:31:38:424,0.342346,7.97961,-5.6124,-54.8302,1.87329,148.045
2023-03-15 21:31:38:434,0.354142,7.99694,-5.61237,-54.8296,1.87481,148.05
2023-03-15 21:31:38:443,0.361555,7.98807,-5.61792,-54.8301,1.8774,148.05
2023-03-15 21:31:38:454,0.345061,7.99427,-5.61323,-54.8302,1.87838,148.051
2023-03-15 21:31:38:464,0.341345,7.99523,-5.61483,-54.8267,1.87704,148.044
2023-03-15 21:31:38:473,0.350564,7.97848,-5.62425,-54.8274,1.87606,148.044
2023-03-15 21:31:38:484,0.350262,7.98737,-5.61415,-54.8259,1.87678,148.042
2023-03-15 21:31:38:494,0.353691,7.99244,-5.61331,-54.8285,1.87355,148.042
2023-03-15 21:31:38:504,0.34318,7.99036,-5.60127,-54.8275,1.87287,148.039
2023-03-15 21:31:38:514,0.350659,7.9952,-5.59715,-54.8307,1.8728,148.037
2023-03-15 21:31:38:524,0.343121,7.99723,-5.60341,-54.8292,1.87177,148.038
2023-03-15 21:31:38:534,0.351668,8.00848,-5.60177,-54.8303,1.87136,148.037
2023-03-15 21:31:38:544,0.357466,7.99147,-5.60443,-54.8298,1.87302,148.036
2023-03-15 21:31:38:554,0.357937,7.98895,-5.60799,-54.8291,1.86894,148.036
2023-03-15 21:31:38:564,0.357383,7.98299,-5.61144,-54.8264,1.86884,148.038
2023-03-15 21:31:38:574,0.365824,7.98073,-5.61395,-54.8272,1.87006,148.038
2023-03-15 21:31:38:584,0.359602,7.98207,-5.61681,-54.8264,1.86882,148.039
2023-03-15 21:31:38:594,0.350612,7.98539,-5.61187,-54.8257,1.86875,148.04
2023-03-15 21:31:38:604,0.346107,7.9816,-5.61513,-54.8232,1.86892,148.037
2023-03-15 21:31:38:614,0.361184,7.98882,-5.61516,-54.8214,1.86837,148.038
2023-03-15 21:31:38:624,0.358773,7.99455,-5.60997,-54.8196,1.86807,148.036
2023-03-15 21:31:38:634,0.356237,7.9908,-5.59661,-54.8191,1.87105,148.036
2023-03-15 21:31:38:644,0.352914,7.98552,-5.61595,-54.8173,1.87009,148.038
2023-03-15 21:31:38:654,0.35545,7.98734,-5.61939,-54.8132,1.87154,148.039
2023-03-15 21:31:38:664,0.360419,7.98475,-5.61302,-54.8141,1.87079,148.041
2023-03-15 21:31:38:673,0.356271,7.98591,-5.60763,-54.8166,1.87161,148.043
2023-03-15 21:31:38:684,0.340151,7.98546,-5.61233,-54.8163,1.87196,148.043
2023-03-15 21:31:38:694,0.350265,7.98803,-5.61326,-54.816,1.87285,148.043
2023-03-15 21:31:38:703,0.361939,7.99821,-5.61343,-54.8148,1.87042,148.041
2023-03-15 21:31:38:714,0.35541,7.98633,-5.61484,-54.8148,1.86952,148.041
2023-03-15 21:31:38:724,0.359667,7.98431,-5.61691,-54.8118,1.87122,148.04
2023-03-15 21:31:38:734,0.353856,7.98251,-5.61092,-54.8103,1.87058,148.039
2023-03-15 21:31:38:744,0.346407,7.99052,-5.61034,-54.8113,1.87108,148.041
2023-03-15 21:31:38:753,0.347194,7.99325,-5.6214,-54.8143,1.86932,148.043
2023-03-15 21:31:38:763,0.352078,8.00275,-5.61631,-54.8159,1.86996,148.042
2023-03-15 21:31:38:774,0.348348,7.99021,-5.6093,-54.8147,1.87169,148.042
2023-03-15 21:31:38:784,0.346832,7.9912,-5.60702,-54.8129,1.87233,148.043
2023-03-15 21:31:38:794,0.352078,7.99251,-5.60318,-54.8145,1.87137,148.043
2023-03-15 21:31:38:804,0.346086,7.99093,-5.61001,-54.8125,1.87086,148.042
2023-03-15 21:31:38:814,0.3568,7.98474,-5.61293,-54.8103,1.87385,148.044
2023-03-15 21:31:38:824,0.35147,7.97842,-5.61066,-54.8119,1.87334,148.044
2023-03-15 21:31:38:834,0.348348,7.99352,-5.60655,-54.8119,1.87327,148.041
2023-03-15 21:31:38:844,0.354428,7.99204,-5.61213,-54.8129,1.87231,148.042
2023-03-15 21:31:38:854,0.3532,7.99024,-5.6057,-54.8136,1.87162,148.043
2023-03-15 21:31:38:864,0.351074,7.99118,-5.6095,-54.8161,1.87136,148.043
2023-03-15 21:31:38:874,0.356544,7.97657,-5.62205,-54.8139,1.86872,148.046
2023-03-15 21:31:38:884,0.357403,7.97898,-5.6121,-54.8127,1.8722,148.044
2023-03-15 21:31:38:894,0.34924,7.99652,-5.60309,-54.8116,1.87268,148.043
2023-03-15 21:31:38:904,0.364043,7.98676,-5.61058,-54.8129,1.86995,148.043
2023-03-15 21:31:38:914,0.351396,7.98649,-5.61394,-54.8114,1.87256,148.044
2023-03-15 21:31:38:924,0.350107,7.99102,-5.60972,-54.8106,1.87168,148.042
2023-03-15 21:31:38:934,0.341019,7.99117,-5.60995,-54.81,1.87313,148.04
2023-03-15 21:31:38:943,0.340537,7.99294,-5.60866,-54.8079,1.87054,148.043
2023-03-15 21:31:38:954,0.353061,8.00107,-5.60454,-54.8081,1.87069,148.042
2023-03-15 21:31:38:964,0.34284,7.98607,-5.60695,-54.8094,1.86761,148.045
2023-03-15 21:31:38:974,0.356895,7.98394,-5.62258,-54.809,1.86934,148.044
2023-03-15 21:31:38:983,0.362557,7.99043,-5.61293,-54.8107,1.86943,148.043
2023-03-15 21:31:38:993,0.363432,7.99043,-5.6028,-54.81,1.86903,148.041
2023-03-15 21:31:39:3,0.35083,7.99029,-5.61078,-54.8058,1.87011,148.041
2023-03-15 21:31:39:14,0.349958,7.98465,-5.61367,-54.8056,1.8679,148.043
2023-03-15 21:31:39:24,0.354685,7.99335,-5.60881,-54.8065,1.87037,148.042
2023-03-15 21:31:39:34,0.343857,7.98627,-5.62165,-54.8065,1.87094,148.042
2023-03-15 21:31:39:44,0.337358,7.99201,-5.61495,-54.8087,1.87154,148.042
2023-03-15 21:31:39:54,0.342658,7.98644,-5.60955,-54.8073,1.87184,148.041
2023-03-15 21:31:39:64,0.34524,7.9779,-5.6157,-54.8074,1.87408,148.042
2023-03-15 21:31:39:74,0.346067,7.98328,-5.61906,-54.8063,1.87434,148.043
2023-03-15 21:31:39:84,0.348583,7.99057,-5.60976,-54.8054,1.87664,148.046
2023-03-15 21:31:39:94,0.348532,7.99285,-5.61481,-54.8053,1.8773,148.044
2023-03-15 21:31:39:104,0.343881,7.99101,-5.61443,-54.8031,1.87534,148.045
2023-03-15 21:31:39:114,0.35628,7.98998,-5.61389,-54.8003,1.87399,148.045
2023-03-15 21:31:39:124,0.346264,7.99204,-5.60658,-54.7988,1.87475,148.043
2023-03-15 21:31:39:134,0.338969,7.98746,-5.60737,-54.8009,1.87202,148.044
2023-03-15 21:31:39:144,0.344996,7.99746,-5.61048,-54.7993,1.87229,148.042
2023-03-15 21:31:39:153,0.348506,7.99221,-5.61561,-54.7953,1.87283,148.042
2023-03-15 21:31:39:164,0.349562,7.99302,-5.61376,-54.7924,1.87554,148.042
2023-03-15 21:31:39:174,0.358737,7.98756,-5.60612,-54.7895,1.87811,148.043
2023-03-15 21:31:39:183,0.343507,7.98179,-5.60447,-54.7899,1.87934,148.043
2023-03-15 21:31:39:194,0.348614,7.98256,-5.60915,-54.7917,1.87896,148.043
2023-03-15 21:31:39:204,0.350867,7.9945,-5.60988,-54.7947,1.87771,148.043
2023-03-15 21:31:39:214,0.346665,7.9957,-5.60027,-54.797,1.87933,148.041
2023-03-15 21:31:39:224,0.348583,7.99309,-5.60441,-54.7984,1.88026,148.039
2023-03-15 21:31:39:234,0.357349,7.99003,-5.61788,-54.8004,1.88031,148.04
2023-03-15 21:31:39:244,0.343399,7.99038,-5.62285,-54.8007,1.87773,148.038
2023-03-15 21:31:39:254,0.34848,7.98266,-5.61645,-54.8006,1.87669,148.038
2023-03-15 21:31:39:264,0.3556,7.98311,-5.62124,-54.8025,1.88006,148.037
2023-03-15 21:31:39:273,0.352704,7.98279,-5.62128,-54.8043,1.8769,148.035
2023-03-15 21:31:39:284,0.348013,7.99082,-5.6186,-54.8016,1.8754,148.035
2023-03-15 21:31:39:294,0.347501,7.9958,-5.60702,-54.7987,1.87436,148.035
2023-03-15 21:31:39:303,0.358952,8.00131,-5.60951,-54.8015,1.87197,148.035
2023-03-15 21:31:39:314,0.349553,7.99463,-5.61361,-54.8037,1.87102,148.032
2023-03-15 21:31:39:324,0.346362,8.0011,-5.61515,-54.8057,1.86831,148.028
2023-03-15 21:31:39:334,0.346495,7.99156,-5.61615,-54.8054,1.86643,148.03
2023-03-15 21:31:39:344,0.344843,7.99144,-5.61143,-54.8042,1.86666,148.027
2023-03-15 21:31:39:354,0.353377,7.99605,-5.60626,-54.8031,1.86309,148.027
2023-03-15 21:31:39:364,0.359134,7.99198,-5.61442,-54.8054,1.86233,148.024
2023-03-15 21:31:39:374,0.349818,7.99038,-5.61375,-54.8067,1.86121,148.027
2023-03-15 21:31:39:384,0.350205,7.98899,-5.61683,-54.8074,1.86002,148.029
2023-03-15 21:31:39:394,0.354659,7.99249,-5.62087,-54.8081,1.86112,148.028
2023-03-15 21:31:39:404,0.349421,7.99941,-5.61655,-54.8046,1.85872,148.025
2023-03-15 21:31:39:414,0.355992,7.99525,-5.61221,-54.8025,1.85881,148.029
2023-03-15 21:31:39:424,0.358871,7.99329,-5.6164,-54.801,1.86137,148.03
2023-03-15 21:31:39:434,0.352666,7.98489,-5.62465,-54.8,1.86011,148.029
2023-03-15 21:31:39:444,0.361119,7.97853,-5.61797,-54.7971,1.86089,148.028
2023-03-15 21:31:39:454,0.348133,7.98163,-5.62102,-54.7985,1.86067,148.027
2023-03-15 21:31:39:464,0.346873,7.9969,-5.61532,-54.7982,1.86455,148.028
2023-03-15 21:31:39:474,0.359378,7.99631,-5.61033,-54.7984,1.86461,148.028
2023-03-15 21:31:39:484,0.355854,7.99922,-5.60577,-54.7993,1.86403,148.027
2023-03-15 21:31:39:493,0.352032,7.99056,-5.61705,-54.8014,1.86131,148.028
2023-03-15 21:31:39:503,0.358182,7.98608,-5.61563,-54.7981,1.85987,148.026
2023-03-15 21:31:39:514,0.361336,7.98884,-5.61113,-54.799,1.85916,148.024
2023-03-15 21:31:39:524,0.349202,7.98232,-5.61479,-54.7983,1.85917,148.025
2023-03-15 21:31:39:534,0.355702,7.98448,-5.61527,-54.8034,1.86183,148.028
2023-03-15 21:31:39:543,0.349734,7.99172,-5.61135,-54.8015,1.86194,148.029
2023-03-15 21:31:39:554,0.352958,7.98576,-5.61565,-54.8021,1.86293,148.028
2023-03-15 21:31:39:564,0.356284,7.98862,-5.60888,-54.8029,1.85902,148.028
2023-03-15 21:31:39:574,0.356142,7.97896,-5.6146,-54.8023,1.85955,148.028
2023-03-15 21:31:39:584,0.345477,7.97858,-5.62146,-54.8056,1.8579,148.025
2023-03-15 21:31:39:594,0.350952,7.99287,-5.60877,-54.8082,1.8588,148.022
2023-03-15 21:31:39:604,0.356374,7.99565,-5.61241,-54.8073,1.85977,148.024
2023-03-15 21:31:39:614,0.35442,7.99069,-5.62024,-54.8061,1.86094,148.024
2023-03-15 21:31:39:624,0.350653,7.99256,-5.61697,-54.8054,1.86447,148.023
2023-03-15 21:31:39:634,0.354367,7.99621,-5.61183,-54.808,1.86311,148.022
2023-03-15 21:31:39:643,0.357321,7.99264,-5.6176,-54.8109,1.8623,148.022
2023-03-15 21:31:39:654,0.350483,7.99078,-5.61988,-54.8093,1.8625,148.025
2023-03-15 21:31:39:664,0.349149,7.98638,-5.6075,-54.8133,1.86115,148.023
2023-03-15 21:31:39:674,0.358126,7.98263,-5.61528,-54.8112,1.86243,148.022
2023-03-15 21:31:39:684,0.35416,7.98253,-5.61898,-54.8114,1.86371,148.021
2023-03-15 21:31:39:694,0.357337,7.99371,-5.61445,-54.8073,1.86248,148.02
2023-03-15 21:31:39:704,0.368481,7.99053,-5.61089,-54.8103,1.86358,148.024
2023-03-15 21:31:39:714,0.36227,7.98963,-5.61423,-54.8098,1.86314,148.025
2023-03-15 21:31:39:724,0.350186,7.9871,-5.60817,-54.8102,1.86184,148.025
2023-03-15 21:31:39:734,0.352546,7.99019,-5.61275,-54.8102,1.86219,148.025
2023-03-15 21:31:39:744,0.359308,7.98923,-5.61298,-54.8103,1.86118,148.026
2023-03-15 21:31:39:754,0.355452,7.98354,-5.61737,-54.8096,1.86464,148.023
2023-03-15 21:31:39:763,0.350276,7.98481,-5.6197,-54.8069,1.86411,148.025
2023-03-15 21:31:39:773,0.363053,7.98932,-5.61766,-54.8057,1.86406,148.026
2023-03-15 21:31:39:783,0.35398,7.98603,-5.61812,-54.8036,1.86481,148.027
2023-03-15 21:31:39:794,0.354137,7.98432,-5.62055,-54.8061,1.86531,148.026
2023-03-15 21:31:39:804,0.355631,7.99115,-5.61922,-54.8064,1.8666,148.025
2023-03-15 21:31:39:814,0.358963,7.99328,-5.61294,-54.8051,1.86892,148.024
2023-03-15 21:31:39:824,0.350315,7.99695,-5.61497,-54.8061,1.86829,148.025
2023-03-15 21:31:39:834,0.35187,7.98138,-5.61734,-54.8041,1.87234,148.028
2023-03-15 21:31:39:844,0.360694,7.9979,-5.61703,-54.8037,1.87359,148.03
2023-03-15 21:31:39:854,0.352398,7.99845,-5.60721,-54.8044,1.87629,148.029
2023-03-15 21:31:39:863,0.352257,7.99016,-5.61171,-54.8035,1.87553,148.028
2023-03-15 21:31:39:874,0.351429,7.98337,-5.60956,-54.8064,1.87775,148.027
2023-03-15 21:31:39:884,0.362472,7.98977,-5.60127,-54.806,1.87716,148.025
2023-03-15 21:31:39:894,0.360998,7.99369,-5.61191,-54.8091,1.87788,148.03
2023-03-15 21:31:39:904,0.367373,8.00283,-5.60171,-54.8097,1.88057,148.031
2023-03-15 21:31:39:914,0.361593,8.00251,-5.60035,-54.8101,1.8807,148.034
2023-03-15 21:31:39:924,0.354075,7.98956,-5.61685,-54.8093,1.88066,148.033
2023-03-15 21:31:39:934,0.354838,7.99267,-5.60843,-54.808,1.87875,148.033
2023-03-15 21:31:39:944,0.361122,7.99591,-5.60478,-54.8074,1.88055,148.032
2023-03-15 21:31:39:954,0.356286,8.00114,-5.61262,-54.807,1.87996,148.033
2023-03-15 21:31:39:964,0.345005,7.98522,-5.61779,-54.8077,1.88299,148.036
2023-03-15 21:31:39:974,0.342222,7.97992,-5.61813,-54.8041,1.88094,148.037
2023-03-15 21:31:39:984,0.348496,7.98639,-5.60143,-54.8059,1.87904,148.038
2023-03-15 21:31:39:994,0.35225,7.97668,-5.61319,-54.8038,1.88006,148.039
2023-03-15 21:31:40:3,0.362729,7.98486,-5.61416,-54.8027,1.88029,148.039
2023-03-15 21:31:40:14,0.365792,7.99488,-5.60425,-54.8084,1.88154,148.038
2023-03-15 21:31:40:24,0.347127,7.99655,-5.61502,-54.8106,1.88367,148.036
2023-03-15 21:31:40:34,0.338697,7.98962,-5.60784,-54.8104,1.88404,148.037
2023-03-15 21:31:40:44,0.34362,7.99254,-5.60312,-54.8083,1.88679,148.038
2023-03-15 21:31:40:54,0.345553,7.99158,-5.60378,-54.8093,1.88819,148.037
2023-03-15 21:31:40:64,0.352544,7.99481,-5.60127,-54.81,1.8859,148.035
2023-03-15 21:31:40:74,0.354659,7.9887,-5.60346,-54.8101,1.88512,148.038
2023-03-15 21:31:40:84,0.347301,7.99479,-5.60365,-54.8118,1.88617,148.04
2023-03-15 21:31:40:94,0.35172,7.99316,-5.61684,-54.8148,1.88666,148.039
2023-03-15 21:31:40:104,0.342211,7.98992,-5.61104,-54.8148,1.89002,148.038
2023-03-15 21:31:40:114,0.351103,7.98956,-5.61592,-54.8154,1.89006,148.039
2023-03-15 21:31:40:124,0.355394,7.99169,-5.61062,-54.8141,1.88952,148.037
2023-03-15 21:31:40:133,0.354146,7.98754,-5.61976,-54.8151,1.88637,148.037
2023-03-15 21:31:40:144,0.357088,7.98839,-5.62328,-54.8169,1.88503,148.034
2023-03-15 21:31:40:154,0.356412,7.9886,-5.61703,-54.8181,1.88697,148.032
2023-03-15 21:31:40:164,0.348968,7.98727,-5.61272,-54.8181,1.88652,148.031
2023-03-15 21:31:40:173,0.339432,7.98955,-5.62862,-54.8162,1.88487,148.03
2023-03-15 21:31:40:184,0.344034,7.99336,-5.61148,-54.8129,1.88309,148.03
2023-03-15 21:31:40:194,0.35673,7.99973,-5.60791,-54.8137,1.88157,148.028
2023-03-15 21:31:40:203,0.355958,7.98992,-5.61168,-54.815,1.88272,148.025
2023-03-15 21:31:40:214,0.346602,7.97657,-5.62709,-54.8152,1.88201,148.026
2023-03-15 21:31:40:224,0.353161,7.98348,-5.62573,-54.8152,1.87803,148.027
2023-03-15 21:31:40:234,0.359564,7.99782,-5.60671,-54.8158,1.88014,148.025
2023-03-15 21:31:40:244,0.359137,7.99779,-5.58854,-54.816,1.87597,148.024
2023-03-15 21:31:40:254,0.358908,7.99902,-5.60769,-54.815,1.87224,148.026
2023-03-15 21:31:40:264,0.351841,8.00039,-5.61598,-54.815,1.87387,148.028
2023-03-15 21:31:40:274,0.354725,7.9861,-5.61854,-54.813,1.87344,148.028
2023-03-15 21:31:40:283,0.353542,7.99694,-5.60609,-54.8141,1.87621,148.028
2023-03-15 21:31:40:293,0.34706,7.99696,-5.61284,-54.8112,1.87502,148.027
2023-03-15 21:31:40:303,0.350557,7.99773,-5.60695,-54.8089,1.87572,148.026
2023-03-15 21:31:40:314,0.346626,7.98983,-5.61255,-54.8093,1.8788,148.028
2023-03-15 21:31:40:324,0.357075,7.9841,-5.60695,-54.8101,1.87638,148.029
2023-03-15 21:31:40:334,0.355382,7.9862,-5.60596,-54.8071,1.87507,148.032
2023-03-15 21:31:40:343,0.350033,7.98889,-5.6198,-54.8061,1.87457,148.032
2023-03-15 21:31:40:354,0.348459,7.98763,-5.61628,-54.8066,1.87326,148.033
2023-03-15 21:31:40:364,0.348292,7.97972,-5.62396,-54.8024,1.87253,148.032
2023-03-15 21:31:40:374,0.346503,7.97882,-5.61614,-54.8029,1.87233,148.03
2023-03-15 21:31:40:384,0.339739,7.9784,-5.60707,-54.8013,1.86858,148.034
2023-03-15 21:31:40:394,0.355553,7.99073,-5.61159,-54.8015,1.86834,148.035
2023-03-15 21:31:40:404,0.363297,7.98503,-5.61302,-54.8043,1.86561,148.037
2023-03-15 21:31:40:414,0.343273,7.98445,-5.61362,-54.8028,1.86131,148.039
2023-03-15 21:31:40:424,0.346253,7.99003,-5.608,-54.8023,1.86403,148.042
2023-03-15 21:31:40:433,0.360309,7.98141,-5.61809,-54.8018,1.86556,148.042
2023-03-15 21:31:40:444,0.357962,7.98107,-5.62023,-54.8035,1.86786,148.039
2023-03-15 21:31:40:454,0.34605,7.98784,-5.6156,-54.8054,1.87039,148.039
2023-03-15 21:31:40:464,0.35123,7.98256,-5.61546,-54.8067,1.87181,148.04
2023-03-15 21:31:40:474,0.347961,7.97604,-5.61766,-54.8055,1.87248,148.038
2023-03-15 21:31:40:483,0.350016,7.98932,-5.61077,-54.8082,1.87435,148.039
2023-03-15 21:31:40:493,0.355374,7.97783,-5.6141,-54.811,1.87546,148.038
2023-03-15 21:31:40:503,0.353404,7.98643,-5.61201,-54.8106,1.86849,148.039
2023-03-15 21:31:40:513,0.355446,7.98348,-5.61039,-54.8109,1.86654,148.041
2023-03-15 21:31:40:523,0.342788,7.98682,-5.62237,-54.8145,1.86826,148.042
2023-03-15 21:31:40:533,0.34424,7.99005,-5.61956,-54.8149,1.86899,148.046
2023-03-15 21:31:40:543,0.347295,7.99223,-5.61758,-54.8142,1.86816,148.048
2023-03-15 21:31:40:553,0.355361,7.98774,-5.61845,-54.815,1.8682,148.048
2023-03-15 21:31:40:563,0.348422,7.99006,-5.60841,-54.8171,1.86465,148.051
2023-03-15 21:31:40:574,0.351431,7.98356,-5.60913,-54.815,1.86454,148.054
2023-03-15 21:31:40:584,0.354446,7.97989,-5.61807,-54.8149,1.86468,148.054
2023-03-15 21:31:40:594,0.357855,7.9854,-5.60938,-54.8135,1.86622,148.054
2023-03-15 21:31:40:603,0.349141,7.99191,-5.60777,-54.8161,1.86468,148.054
2023-03-15 21:31:40:614,0.350574,7.98165,-5.61837,-54.8182,1.86307,148.056
2023-03-15 21:31:40:623,0.35152,7.98179,-5.6209,-54.8184,1.86594,148.055
2023-03-15 21:31:40:634,0.3476,7.98625,-5.61381,-54.8181,1.86572,148.055
2023-03-15 21:31:40:643,0.358654,7.98588,-5.62074,-54.8187,1.86795,148.054
2023-03-15 21:31:40:654,0.366507,7.98183,-5.61692,-54.818,1.86844,148.053
2023-03-15 21:31:40:663,0.352605,7.99144,-5.60683,-54.8162,1.86686,148.052
2023-03-15 21:31:40:674,0.350536,7.99823,-5.60937,-54.8185,1.86808,148.05
2023-03-15 21:31:40:683,0.354499,7.98575,-5.61681,-54.8236,1.86471,148.05
2023-03-15 21:31:40:694,0.359184,7.99044,-5.6211,-54.8211,1.86497,148.051
2023-03-15 21:31:40:703,0.357261,7.9957,-5.61534,-54.8212,1.86569,148.051
2023-03-15 21:31:40:714,0.347441,7.99456,-5.6175,-54.8203,1.86639,148.051
2023-03-15 21:31:40:723,0.355805,7.9886,-5.61181,-54.8189,1.86138,148.05
2023-03-15 21:31:40:734,0.354686,7.98578,-5.61316,-54.8221,1.86312,148.049
2023-03-15 21:31:40:743,0.349356,7.98906,-5.61368,-54.821,1.85956,148.046
2023-03-15 21:31:40:753,0.353951,7.98285,-5.62847,-54.8205,1.85822,148.045
2023-03-15 21:31:40:763,0.357535,7.99403,-5.62378,-54.8208,1.85622,148.046
2023-03-15 21:31:40:773,0.346945,7.9876,-5.61463,-54.8218,1.85667,148.049
2023-03-15 21:31:40:783,0.341681,7.99016,-5.60607,-54.8234,1.85693,148.046
2023-03-15 21:31:40:793,0.339944,7.99608,-5.5969,-54.8247,1.85581,148.045
2023-03-15 21:31:40:803,0.339826,7.9941,-5.60371,-54.8259,1.85679,148.044
2023-03-15 21:31:40:813,0.343426,7.98513,-5.61392,-54.8271,1.85682,148.045
2023-03-15 21:31:40:823,0.349585,7.99243,-5.61225,-54.8283,1.85802,148.048
2023-03-15 21:31:40:833,0.357494,7.99731,-5.6048,-54.8244,1.85867,148.05
2023-03-15 21:31:40:843,0.355424,7.99548,-5.60323,-54.8259,1.85918,148.049
2023-03-15 21:31:40:853,0.359798,8.00189,-5.61369,-54.8242,1.85701,148.05
2023-03-15 21:31:40:864,0.352269,8.00442,-5.60754,-54.8234,1.85739,148.055
2023-03-15 21:31:40:873,0.357755,7.98854,-5.60818,-54.8203,1.85776,148.057
2023-03-15 21:31:40:883,0.361641,7.99882,-5.59576,-54.8215,1.85884,148.057
2023-03-15 21:31:40:894,0.36213,7.99229,-5.61116,-54.8241,1.85916,148.06
2023-03-15 21:31:40:903,0.358473,7.99185,-5.60576,-54.8239,1.85896,148.06
2023-03-15 21:31:40:914,0.357709,7.99326,-5.59943,-54.8218,1.85968,148.057
2023-03-15 21:31:40:924,0.362671,7.9934,-5.61352,-54.8233,1.86144,148.056
2023-03-15 21:31:40:934,0.350372,7.98945,-5.61613,-54.8222,1.86205,148.054
2023-03-15 21:31:40:943,0.347326,7.98332,-5.61972,-54.8182,1.86126,148.056
2023-03-15 21:31:40:954,0.345026,7.98771,-5.61144,-54.8204,1.85892,148.058
2023-03-15 21:31:40:964,0.35591,7.9904,-5.60565,-54.8201,1.85893,148.056
2023-03-15 21:31:40:973,0.364946,7.99883,-5.59491,-54.8202,1.85585,148.057
2023-03-15 21:31:40:983,0.353075,7.99159,-5.60757,-54.8181,1.85552,148.054
2023-03-15 21:31:40:994,0.346173,7.99072,-5.60612,-54.8145,1.8553,148.051
2023-03-15 21:31:41:4,0.360125,7.99608,-5.60758,-54.8141,1.85685,148.052
2023-03-15 21:31:41:14,0.346366,7.99397,-5.60979,-54.8129,1.8563,148.051
2023-03-15 21:31:41:23,0.349185,7.9889,-5.61393,-54.8137,1.85936,148.051
2023-03-15 21:31:41:34,0.35176,7.98744,-5.615,-54.8115,1.85778,148.052
2023-03-15 21:31:41:43,0.357678,7.99154,-5.6051,-54.8122,1.85671,148.059
2023-03-15 21:31:41:53,0.362288,7.99285,-5.611,-54.8118,1.85636,148.056
2023-03-15 21:31:41:64,0.356936,7.9878,-5.61051,-54.8101,1.85504,148.056
2023-03-15 21:31:41:74,0.348563,7.99409,-5.60632,-54.8116,1.85451,148.057
2023-03-15 21:31:41:84,0.350772,7.98759,-5.60696,-54.8139,1.856,148.055
2023-03-15 21:31:41:93,0.343533,7.98411,-5.6209,-54.8178,1.85778,148.058
2023-03-15 21:31:41:103,0.344763,7.98437,-5.62831,-54.8178,1.8561,148.056
2023-03-15 21:31:41:114,0.349521,7.99141,-5.6206,-54.8167,1.85612,148.055
2023-03-15 21:31:41:123,0.357282,7.99267,-5.61387,-54.8207,1.85798,148.055
2023-03-15 21:31:41:134,0.345124,7.98918,-5.60788,-54.8214,1.85659,148.054
2023-03-15 21:31:41:143,0.342221,7.98361,-5.60295,-54.8241,1.85691,148.054
2023-03-15 21:31:41:154,0.348578,7.98127,-5.61526,-54.8225,1.85557,148.053
2023-03-15 21:31:41:163,0.349219,7.99087,-5.6076,-54.8197,1.85622,148.053
2023-03-15 21:31:41:174,0.343136,7.98913,-5.60454,-54.8211,1.85671,148.054
2023-03-15 21:31:41:184,0.351835,7.98785,-5.60437,-54.8228,1.85346,148.051
2023-03-15 21:31:41:194,0.352688,7.98547,-5.61094,-54.8247,1.85137,148.051
2023-03-15 21:31:41:203,0.337096,7.98475,-5.62149,-54.8262,1.85044,148.049
2023-03-15 21:31:41:214,0.343129,7.99613,-5.61179,-54.8264,1.84766,148.047
2023-03-15 21:31:41:224,0.345836,7.99118,-5.60855,-54.8306,1.84697,148.048
2023-03-15 21:31:41:234,0.346456,8.00633,-5.60944,-54.8299,1.8451,148.046
2023-03-15 21:31:41:243,0.349761,7.98842,-5.62392,-54.8294,1.84465,148.047
2023-03-15 21:31:41:254,0.34544,7.99151,-5.60708,-54.8315,1.84373,148.046
2023-03-15 21:31:41:263,0.347812,7.98211,-5.62061,-54.8286,1.84513,148.046
2023-03-15 21:31:41:274,0.338958,7.98783,-5.6169,-54.8295,1.84659,148.046
2023-03-15 21:31:41:283,0.339885,7.99384,-5.60614,-54.8309,1.84234,148.046
2023-03-15 21:31:41:294,0.346666,7.99832,-5.59861,-54.8324,1.84312,148.045
2023-03-15 21:31:41:303,0.349414,7.99139,-5.60306,-54.8312,1.84063,148.045
2023-03-15 21:31:41:313,0.347201,7.99223,-5.60791,-54.8308,1.83919,148.043
2023-03-15 21:31:41:323,0.34655,7.99351,-5.60759,-54.8317,1.84122,148.041
2023-03-15 21:31:41:333,0.346938,7.98139,-5.6202,-54.8312,1.84248,148.041
2023-03-15 21:31:41:343,0.346931,8.00066,-5.61567,-54.8324,1.84286,148.039
2023-03-15 21:31:41:353,0.342675,7.99018,-5.62344,-54.8328,1.84386,148.037
2023-03-15 21:31:41:363,0.353421,7.9879,-5.61867,-54.8303,1.84721,148.04
2023-03-15 21:31:41:373,0.344861,7.98778,-5.61266,-54.8317,1.84516,148.041
2023-03-15 21:31:41:383,0.343818,7.9894,-5.6,-54.829,1.84778,148.041
2023-03-15 21:31:41:394,0.341472,7.99431,-5.60852,-54.8285,1.84581,148.043
2023-03-15 21:31:41:403,0.341467,7.99236,-5.62174,-54.8293,1.84512,148.041
2023-03-15 21:31:41:413,0.33566,7.99726,-5.6088,-54.8298,1.84235,148.041
2023-03-15 21:31:41:423,0.349912,7.99463,-5.60885,-54.8303,1.84095,148.037
2023-03-15 21:31:41:433,0.361531,7.99225,-5.60604,-54.8305,1.84028,148.037
2023-03-15 21:31:41:443,0.363811,7.97856,-5.6249,-54.8311,1.8397,148.035
2023-03-15 21:31:41:453,0.36963,7.98315,-5.61719,-54.8301,1.83952,148.036
2023-03-15 21:31:41:463,0.38243,7.99196,-5.60777,-54.831,1.83897,148.034
2023-03-15 21:31:41:473,0.379741,7.98756,-5.6164,-54.8326,1.8414,148.029
2023-03-15 21:31:41:483,0.375288,7.98334,-5.61284,-54.8291,1.84281,148.031
2023-03-15 21:31:41:493,0.370325,7.99296,-5.60148,-54.8307,1.84353,148.033
2023-03-15 21:31:41:503,0.361849,7.99835,-5.59021,-54.8306,1.84153,148.034
2023-03-15 21:31:41:514,0.357934,7.99126,-5.60385,-54.8279,1.8421,148.034
2023-03-15 21:31:41:523,0.344268,7.98311,-5.62103,-54.8294,1.84198,148.033
2023-03-15 21:31:41:533,0.338205,7.98622,-5.62261,-54.8271,1.84238,148.033
2023-03-15 21:31:41:543,0.346657,7.97776,-5.6173,-54.8257,1.84266,148.032
2023-03-15 21:31:41:553,0.35273,7.98733,-5.61514,-54.8284,1.84121,148.033
2023-03-15 21:31:41:563,0.358707,7.98195,-5.61559,-54.8297,1.84053,148.032
2023-03-15 21:31:41:573,0.354637,7.97391,-5.61842,-54.8274,1.84205,148.029
2023-03-15 21:31:41:583,0.350736,7.98548,-5.62517,-54.8246,1.84278,148.031
2023-03-15 21:31:41:593,0.347283,7.99041,-5.60925,-54.8249,1.84333,148.032
2023-03-15 21:31:41:603,0.350593,7.98801,-5.60977,-54.8269,1.84451,148.033
2023-03-15 21:31:41:613,0.345135,7.98883,-5.59633,-54.8241,1.84521,148.036
2023-03-15 21:31:41:623,0.344623,7.98895,-5.61133,-54.8252,1.84224,148.038
2023-03-15 21:31:41:633,0.35581,7.99655,-5.61457,-54.8252,1.84593,148.038
2023-03-15 21:31:41:643,0.352897,7.99653,-5.6173,-54.8256,1.84412,148.034
2023-03-15 21:31:41:654,0.352052,7.98963,-5.61758,-54.8249,1.84559,148.034
2023-03-15 21:31:41:663,0.352837,7.99792,-5.62437,-54.8277,1.84739,148.034
2023-03-15 21:31:41:673,0.355641,7.99114,-5.60943,-54.8289,1.84931,148.031
2023-03-15 21:31:41:683,0.357617,7.99295,-5.60191,-54.8293,1.85047,148.032
2023-03-15 21:31:41:694,0.345638,7.99675,-5.60903,-54.8315,1.85226,148.034
2023-03-15 21:31:41:703,0.343308,8.00038,-5.60553,-54.8311,1.84991,148.038
2023-03-15 21:31:41:714,0.339258,7.99519,-5.60254,-54.8323,1.84843,148.039
2023-03-15 21:31:41:723,0.346617,7.9933,-5.60951,-54.8315,1.84685,148.039
2023-03-15 21:31:41:733,0.350734,7.98524,-5.61463,-54.8315,1.84706,148.039
2023-03-15 21:31:41:743,0.3623,7.98192,-5.61928,-54.832,1.85094,148.038
2023-03-15 21:31:41:753,0.375036,7.99592,-5.60373,-54.8336,1.85121,148.038
2023-03-15 21:31:41:763,0.359695,7.97519,-5.6184,-54.8322,1.85139,148.037
2023-03-15 21:31:41:773,0.360172,7.97995,-5.61542,-54.8308,1.85075,148.035
2023-03-15 21:31:41:783,0.355739,7.98203,-5.61474,-54.8302,1.84924,148.033
2023-03-15 21:31:41:793,0.353796,7.99445,-5.60577,-54.8279,1.84852,148.033
2023-03-15 21:31:41:803,0.355491,7.99341,-5.60611,-54.8288,1.84602,148.03
2023-03-15 21:31:41:813,0.352098,7.98266,-5.61722,-54.8271,1.84833,148.03
2023-03-15 21:31:41:823,0.348682,7.98125,-5.61264,-54.8262,1.8485,148.031
2023-03-15 21:31:41:833,0.354726,7.98344,-5.60906,-54.826,1.84926,148.032
2023-03-15 21:31:41:843,0.357085,7.97992,-5.60842,-54.8279,1.85019,148.033
2023-03-15 21:31:41:853,0.344518,7.97344,-5.60606,-54.8273,1.84969,148.034
2023-03-15 21:31:41:863,0.342821,7.98182,-5.61063,-54.8245,1.85019,148.034
2023-03-15 21:31:41:873,0.341166,7.98847,-5.61154,-54.8229,1.84911,148.032
2023-03-15 21:31:41:883,0.343532,7.98511,-5.62071,-54.825,1.84847,148.032
2023-03-15 21:31:41:893,0.350521,7.98631,-5.62104,-54.8246,1.84709,148.033
2023-03-15 21:31:41:903,0.358998,7.99386,-5.61021,-54.8254,1.84602,148.032
2023-03-15 21:31:41:913,0.362837,7.98481,-5.60972,-54.8273,1.84485,148.031
2023-03-15 21:31:41:923,0.360147,7.99041,-5.60996,-54.8254,1.84388,148.03
2023-03-15 21:31:41:933,0.349438,8.00548,-5.60976,-54.8258,1.84317,148.034
2023-03-15 21:31:41:943,0.351416,7.99521,-5.61152,-54.8269,1.84264,148.033
2023-03-15 21:31:41:953,0.349254,7.98433,-5.59813,-54.8251,1.84203,148.036
2023-03-15 21:31:41:963,0.335005,7.9998,-5.59765,-54.8237,1.841,148.038
2023-03-15 21:31:41:973,0.339123,7.99618,-5.6092,-54.8242,1.84028,148.037
2023-03-15 21:31:41:983,0.359898,7.98984,-5.62261,-54.8233,1.84054,148.035
2023-03-15 21:31:41:993,0.351975,7.97309,-5.63121,-54.8212,1.84001,148.033
2023-03-15 21:31:42:3,0.357307,7.9778,-5.62366,-54.8216,1.83908,148.032
2023-03-15 21:31:42:13,0.347681,7.99138,-5.60878,-54.824,1.84264,148.034
2023-03-15 21:31:42:23,0.338759,7.98145,-5.61667,-54.8238,1.84086,148.037
2023-03-15 21:31:42:33,0.342925,7.97563,-5.63453,-54.8209,1.84189,148.039
2023-03-15 21:31:42:43,0.342775,7.98984,-5.62098,-54.8199,1.8412,148.042
2023-03-15 21:31:42:53,0.353285,7.99603,-5.60846,-54.8208,1.84005,148.045
2023-03-15 21:31:42:63,0.349992,7.9849,-5.61721,-54.8229,1.84151,148.04
2023-03-15 21:31:42:73,0.346419,7.98527,-5.61061,-54.8238,1.84365,148.04
2023-03-15 21:31:42:83,0.362833,7.97996,-5.60345,-54.8244,1.84459,148.04
2023-03-15 21:31:42:93,0.357172,7.97961,-5.60776,-54.8256,1.84651,148.037
2023-03-15 21:31:42:103,0.350325,7.99725,-5.60559,-54.823,1.8481,148.034
2023-03-15 21:31:42:113,0.343267,7.99259,-5.60679,-54.8229,1.84836,148.033
2023-03-15 21:31:42:123,0.339381,7.98789,-5.61379,-54.8191,1.84667,148.035
2023-03-15 21:31:42:133,0.342774,7.98108,-5.61768,-54.8194,1.84917,148.032
2023-03-15 21:31:42:143,0.346374,7.98074,-5.62054,-54.8163,1.85314,148.034
2023-03-15 21:31:42:153,0.3442,7.97929,-5.6111,-54.8132,1.85378,148.032
2023-03-15 21:31:42:163,0.347533,7.98724,-5.61052,-54.813,1.85456,148.031
2023-03-15 21:31:42:173,0.343552,7.98808,-5.60456,-54.8127,1.85464,148.031
2023-03-15 21:31:42:183,0.355653,7.98546,-5.61262,-54.8114,1.85408,148.032
2023-03-15 21:31:42:193,0.364616,7.98695,-5.61727,-54.8082,1.85393,148.031
2023-03-15 21:31:42:203,0.348339,7.98845,-5.60948,-54.8065,1.85509,148.034
2023-03-15 21:31:42:213,0.344796,7.98779,-5.61123,-54.8061,1.85305,148.035
2023-03-15 21:31:42:223,0.346719,7.99085,-5.62084,-54.8055,1.8523,148.033
2023-03-15 21:31:42:233,0.356105,7.98042,-5.62145,-54.8058,1.85297,148.033
2023-03-15 21:31:42:243,0.345115,7.98077,-5.61744,-54.8047,1.84912,148.031
2023-03-15 21:31:42:253,0.358357,7.98736,-5.61566,-54.8044,1.85161,148.032
2023-03-15 21:31:42:263,0.355961,8.00303,-5.61101,-54.8033,1.85138,148.034
2023-03-15 21:31:42:273,0.357831,7.99353,-5.61658,-54.8026,1.85373,148.035
2023-03-15 21:31:42:283,0.344756,7.99146,-5.61359,-54.804,1.85115,148.036
2023-03-15 21:31:42:293,0.342321,7.98272,-5.61312,-54.803,1.84892,148.035
2023-03-15 21:31:42:303,0.345399,7.99235,-5.61312,-54.8035,1.848,148.033
2023-03-15 21:31:42:313,0.339766,7.99202,-5.62466,-54.8034,1.84642,148.031
2023-03-15 21:31:42:323,0.344892,7.98821,-5.61967,-54.8044,1.84553,148.032
2023-03-15 21:31:42:333,0.345575,7.98809,-5.61473,-54.8017,1.84284,148.027
2023-03-15 21:31:42:343,0.356446,7.9911,-5.61022,-54.8017,1.84278,148.032
2023-03-15 21:31:42:353,0.358673,7.99212,-5.61285,-54.8038,1.84154,148.032
2023-03-15 21:31:42:363,0.353171,7.99474,-5.61484,-54.8043,1.84416,148.032
2023-03-15 21:31:42:373,0.342563,7.99668,-5.61198,-54.8036,1.84387,148.03
2023-03-15 21:31:42:383,0.345673,8.00352,-5.59914,-54.803,1.84493,148.032
2023-03-15 21:31:42:393,0.351058,7.99391,-5.60751,-54.8037,1.84673,148.032
2023-03-15 21:31:42:403,0.343557,7.9947,-5.60987,-54.8053,1.84565,148.034
2023-03-15 21:31:42:413,0.343852,7.99564,-5.60159,-54.8042,1.84384,148.034
2023-03-15 21:31:42:423,0.344924,7.9884,-5.61512,-54.8034,1.84289,148.037
2023-03-15 21:31:42:433,0.363324,7.98371,-5.62138,-54.8019,1.84343,148.035
2023-03-15 21:31:42:443,0.357874,7.99277,-5.61139,-54.8016,1.84484,148.036
2023-03-15 21:31:42:453,0.354809,7.99429,-5.61095,-54.802,1.84354,148.037
2023-03-15 21:31:42:463,0.34672,7.98569,-5.61416,-54.8028,1.84236,148.038
2023-03-15 21:31:42:473,0.361454,7.98946,-5.60865,-54.8032,1.84421,148.041
2023-03-15 21:31:42:483,0.361391,7.99383,-5.6026,-54.8023,1.84589,148.043
2023-03-15 21:31:42:493,0.341789,7.99199,-5.61229,-54.8038,1.84756,148.046
2023-03-15 21:31:42:503,0.344375,7.99386,-5.60891,-54.8029,1.84829,148.046
2023-03-15 21:31:42:513,0.350183,7.98992,-5.62097,-54.8035,1.84828,148.046
2023-03-15 21:31:42:523,0.352899,7.99362,-5.60925,-54.8032,1.85055,148.049
2023-03-15 21:31:42:533,0.347282,7.99395,-5.60701,-54.8039,1.84916,148.048
2023-03-15 21:31:42:543,0.346049,7.99651,-5.60839,-54.8026,1.85146,148.047
2023-03-15 21:31:42:553,0.357651,7.98435,-5.61623,-54.8009,1.85211,148.043
2023-03-15 21:31:42:563,0.354655,7.98926,-5.60357,-54.8026,1.8513,148.046
2023-03-15 21:31:42:573,0.347794,7.9931,-5.60343,-54.805,1.8512,148.044
2023-03-15 21:31:42:583,0.350837,7.98752,-5.61025,-54.8053,1.84988,148.044
2023-03-15 21:31:42:593,0.350517,7.99978,-5.61072,-54.8057,1.85191,148.043
2023-03-15 21:31:42:603,0.347584,8.00232,-5.6133,-54.8064,1.85322,148.042
2023-03-15 21:31:42:613,0.356402,7.99956,-5.60907,-54.8069,1.85459,148.044
2023-03-15 21:31:42:623,0.367143,7.99904,-5.60359,-54.8056,1.85249,148.045
2023-03-15 21:31:42:633,0.345801,7.99134,-5.61387,-54.8093,1.8512,148.044
2023-03-15 21:31:42:643,0.348178,7.98323,-5.61467,-54.81,1.85223,148.047
2023-03-15 21:31:42:653,0.355194,7.9927,-5.60415,-54.8136,1.85251,148.05
2023-03-15 21:31:42:663,0.348812,7.99105,-5.60903,-54.8137,1.85467,148.051
2023-03-15 21:31:42:673,0.359045,7.99237,-5.60557,-54.811,1.85379,148.054
2023-03-15 21:31:42:683,0.343506,7.99953,-5.61267,-54.8092,1.85322,148.054
2023-03-15 21:31:42:693,0.349591,7.99434,-5.60979,-54.8097,1.85443,148.053
2023-03-15 21:31:42:703,0.344309,7.98742,-5.61246,-54.8097,1.85529,148.053
2023-03-15 21:31:42:713,0.340021,7.99087,-5.60171,-54.8098,1.85482,148.056
2023-03-15 21:31:42:723,0.349232,8.00147,-5.60909,-54.8073,1.85421,148.056
2023-03-15 21:31:42:733,0.356111,7.99862,-5.60525,-54.8086,1.85411,148.055
2023-03-15 21:31:42:743,0.352086,7.98708,-5.60483,-54.8091,1.85458,148.054
2023-03-15 21:31:42:753,0.34295,7.99744,-5.60219,-54.8122,1.85394,148.052
2023-03-15 21:31:42:763,0.354066,8.00472,-5.6051,-54.8132,1.85368,148.052
2023-03-15 21:31:42:773,0.360036,8.00522,-5.60224,-54.8152,1.85549,148.052
2023-03-15 21:31:42:783,0.350591,7.99381,-5.60574,-54.815,1.85344,148.053
2023-03-15 21:31:42:793,0.35566,7.99664,-5.60289,-54.8136,1.85237,148.053
2023-03-15 21:31:42:803,0.363677,7.99766,-5.60573,-54.8139,1.84996,148.054
2023-03-15 21:31:42:813,0.356673,7.98325,-5.60786,-54.8118,1.85038,148.05
2023-03-15 21:31:42:823,0.349946,7.98393,-5.61398,-54.8119,1.84924,148.052
2023-03-15 21:31:42:833,0.350827,7.99586,-5.61552,-54.8099,1.84943,148.05
2023-03-15 21:31:42:843,0.354549,7.99072,-5.61667,-54.813,1.84725,148.05
2023-03-15 21:31:42:853,0.351846,7.99342,-5.61024,-54.8157,1.85116,148.052
2023-03-15 21:31:42:863,0.349287,7.99714,-5.6052,-54.8179,1.85512,148.05
2023-03-15 21:31:42:873,0.346036,7.99162,-5.61432,-54.8187,1.85415,148.048
2023-03-15 21:31:42:883,0.347544,7.98651,-5.62128,-54.8167,1.85155,148.045
2023-03-15 21:31:42:893,0.341269,7.9873,-5.62293,-54.8172,1.85239,148.045
2023-03-15 21:31:42:903,0.349957,7.98521,-5.62423,-54.8157,1.85122,148.046
2023-03-15 21:31:42:913,0.34339,8.00024,-5.61879,-54.8156,1.84893,148.051
2023-03-15 21:31:42:923,0.35004,7.99232,-5.61777,-54.8149,1.84784,148.052
2023-03-15 21:31:42:933,0.355599,7.98725,-5.61017,-54.8118,1.84831,148.05
2023-03-15 21:31:42:943,0.349545,7.99682,-5.60496,-54.8132,1.85047,148.05
2023-03-15 21:31:42:953,0.352029,7.98955,-5.61242,-54.8131,1.85111,148.049
2023-03-15 21:31:42:963,0.356494,7.99241,-5.6154,-54.8159,1.85378,148.048
2023-03-15 21:31:42:973,0.347935,7.99043,-5.62171,-54.8192,1.85411,148.049
2023-03-15 21:31:42:983,0.349979,7.99185,-5.60462,-54.8178,1.85317,148.052
2023-03-15 21:31:42:993,0.348164,7.98559,-5.60554,-54.8171,1.85487,148.052
2023-03-15 21:31:43:3,0.354035,7.99842,-5.60575,-54.8148,1.85416,148.056
2023-03-15 21:31:43:13,0.361339,7.99268,-5.61253,-54.8164,1.85483,148.056
2023-03-15 21:31:43:23,0.362491,7.99723,-5.6051,-54.8149,1.85358,148.057
2023-03-15 21:31:43:33,0.347145,7.99683,-5.61419,-54.8171,1.85505,148.056
2023-03-15 21:31:43:43,0.356675,7.98332,-5.62031,-54.8153,1.8528,148.056
2023-03-15 21:31:43:53,0.35857,7.99756,-5.61326,-54.8166,1.85377,148.055
2023-03-15 21:31:43:63,0.354562,7.98846,-5.61877,-54.8171,1.8533,148.057
2023-03-15 21:31:43:73,0.35337,7.9813,-5.61191,-54.8181,1.8534,148.057
2023-03-15 21:31:43:83,0.345535,7.98327,-5.61524,-54.8195,1.85576,148.056
2023-03-15 21:31:43:93,0.351333,7.98143,-5.61521,-54.8183,1.85378,148.053
2023-03-15 21:31:43:103,0.35852,7.97363,-5.61792,-54.8164,1.85434,148.053
2023-03-15 21:31:43:113,0.351245,7.98933,-5.60965,-54.8138,1.85514,148.057
2023-03-15 21:31:43:123,0.341257,7.99229,-5.6202,-54.815,1.8547,148.058
2023-03-15 21:31:43:133,0.339652,7.99415,-5.60744,-54.8156,1.85355,148.057
2023-03-15 21:31:43:143,0.34381,7.98824,-5.60461,-54.8138,1.85399,148.054
2023-03-15 21:31:43:153,0.350052,7.99039,-5.61776,-54.8132,1.85337,148.058
2023-03-15 21:31:43:163,0.340155,7.9903,-5.61866,-54.814,1.85478,148.058
2023-03-15 21:31:43:173,0.33946,7.98347,-5.60994,-54.8177,1.85267,148.06
2023-03-15 21:31:43:183,0.349228,7.98045,-5.6075,-54.8182,1.85018,148.06
2023-03-15 21:31:43:193,0.350785,7.98637,-5.60925,-54.8188,1.8497,148.058
2023-03-15 21:31:43:203,0.350886,7.99219,-5.61237,-54.8183,1.85075,148.061
2023-03-15 21:31:43:213,0.3461,7.99038,-5.60857,-54.815,1.84985,148.059
2023-03-15 21:31:43:223,0.348836,7.99514,-5.61512,-54.8148,1.84936,148.059
2023-03-15 21:31:43:233,0.360387,7.99465,-5.61735,-54.8124,1.84972,148.062
2023-03-15 21:31:43:243,0.352967,7.98745,-5.61552,-54.8122,1.84941,148.061
2023-03-15 21:31:43:253,0.358477,7.99701,-5.61239,-54.8133,1.85085,148.061
2023-03-15 21:31:43:263,0.358359,7.9881,-5.61413,-54.8136,1.85032,148.063
2023-03-15 21:31:43:273,0.340836,7.99148,-5.61031,-54.8141,1.85403,148.065
2023-03-15 21:31:43:283,0.343964,7.98979,-5.61245,-54.814,1.85231,148.064
2023-03-15 21:31:43:293,0.344672,7.983,-5.60982,-54.8159,1.85415,148.062
2023-03-15 21:31:43:303,0.341728,7.99845,-5.59201,-54.8169,1.85607,148.055
2023-03-15 21:31:43:313,0.346331,7.99281,-5.60518,-54.8153,1.85452,148.057
2023-03-15 21:31:43:323,0.34847,7.9868,-5.61491,-54.8141,1.8549,148.057
2023-03-15 21:31:43:333,0.35392,7.98783,-5.61692,-54.8136,1.85577,148.056
2023-03-15 21:31:43:343,0.370872,7.98887,-5.6184,-54.8141,1.85773,148.054
2023-03-15 21:31:43:353,0.35142,7.99251,-5.61334,-54.8127,1.85575,148.056
2023-03-15 21:31:43:363,0.343891,7.99729,-5.61605,-54.8089,1.85492,148.055
2023-03-15 21:31:43:373,0.347855,8.00563,-5.60632,-54.8127,1.8547,148.054
2023-03-15 21:31:43:383,0.345893,7.98978,-5.61295,-54.8134,1.85789,148.053
2023-03-15 21:31:43:393,0.352224,7.98291,-5.61071,-54.8119,1.85726,148.052
2023-03-15 21:31:43:403,0.347495,7.99389,-5.61014,-54.8128,1.85499,148.05
2023-03-15 21:31:43:413,0.35002,7.99143,-5.60781,-54.81,1.85405,148.05
2023-03-15 21:31:43:423,0.353588,7.99122,-5.60403,-54.8118,1.85387,148.048
2023-03-15 21:31:43:433,0.362342,7.98322,-5.61236,-54.8118,1.85481,148.049
2023-03-15 21:31:43:443,0.34929,7.99126,-5.60918,-54.8137,1.85572,148.053
2023-03-15 21:31:43:453,0.340409,7.98791,-5.61621,-54.8124,1.85368,148.053
2023-03-15 21:31:43:463,0.354901,7.98132,-5.61974,-54.8135,1.85369,148.054
2023-03-15 21:31:43:473,0.350545,7.99146,-5.61333,-54.8118,1.85376,148.055
2023-03-15 21:31:43:483,0.347211,7.98932,-5.62002,-54.8141,1.85492,148.054
2023-03-15 21:31:43:493,0.353079,7.98901,-5.60985,-54.816,1.85529,148.052
2023-03-15 21:31:43:503,0.357736,7.99022,-5.60991,-54.8149,1.85509,148.054
2023-03-15 21:31:43:513,0.350294,7.9896,-5.60472,-54.8117,1.85744,148.055
2023-03-15 21:31:43:523,0.351227,7.98997,-5.60903,-54.8111,1.85396,148.059
2023-03-15 21:31:43:533,0.345747,7.98948,-5.61124,-54.8094,1.85689,148.06
2023-03-15 21:31:43:543,0.347711,7.9879,-5.61848,-54.8107,1.85713,148.061
2023-03-15 21:31:43:553,0.349725,7.98822,-5.60706,-54.8088,1.8575,148.057
2023-03-15 21:31:43:563,0.347021,7.98696,-5.61506,-54.8109,1.85472,148.056
2023-03-15 21:31:43:573,0.352694,7.993,-5.61207,-54.8112,1.85593,148.059
2023-03-15 21:31:43:583,0.347268,7.99159,-5.60778,-54.8091,1.85689,148.056
2023-03-15 21:31:43:593,0.347507,7.98974,-5.60948,-54.8108,1.85389,148.057
2023-03-15 21:31:43:603,0.362229,7.9949,-5.61542,-54.814,1.8506,148.058
2023-03-15 21:31:43:613,0.340659,7.98649,-5.61369,-54.8124,1.84717,148.059
2023-03-15 21:31:43:623,0.342683,8.00151,-5.61022,-54.8096,1.84574,148.061
2023-03-15 21:31:43:633,0.345727,7.99416,-5.60745,-54.807,1.84757,148.063
2023-03-15 21:31:43:643,0.348853,7.98971,-5.60145,-54.8095,1.85131,148.063
2023-03-15 21:31:43:653,0.351957,7.99387,-5.61352,-54.8067,1.85147,148.063
2023-03-15 21:31:43:663,0.353476,7.99152,-5.6166,-54.8057,1.85231,148.062
2023-03-15 21:31:43:673,0.356171,7.98625,-5.61531,-54.8084,1.85584,148.064
2023-03-15 21:31:43:683,0.356042,7.9895,-5.60826,-54.8053,1.85644,148.063
2023-03-15 21:31:43:693,0.351769,7.98593,-5.61315,-54.8055,1.85291,148.064
2023-03-15 21:31:43:703,0.349028,7.9827,-5.61628,-54.8072,1.84936,148.067
2023-03-15 21:31:43:713,0.347028,7.99062,-5.60858,-54.8077,1.85172,148.069
2023-03-15 21:31:43:723,0.357396,8.00425,-5.60835,-54.8061,1.85203,148.066
2023-03-15 21:31:43:733,0.35123,8.00145,-5.60723,-54.8078,1.84817,148.07
2023-03-15 21:31:43:743,0.355974,7.99057,-5.60576,-54.8076,1.8497,148.068
2023-03-15 21:31:43:753,0.352238,7.99302,-5.60873,-54.8064,1.85164,148.067
2023-03-15 21:31:43:763,0.331145,7.98839,-5.6158,-54.8069,1.85267,148.067
2023-03-15 21:31:43:773,0.34533,7.99456,-5.61694,-54.8089,1.85223,148.068
2023-03-15 21:31:43:783,0.352777,7.98639,-5.6173,-54.8092,1.85334,148.064
2023-03-15 21:31:43:793,0.338245,7.97939,-5.60892,-54.8099,1.85298,148.065
2023-03-15 21:31:43:803,0.337604,7.98044,-5.60811,-54.8103,1.85197,148.064
2023-03-15 21:31:43:813,0.348932,7.99084,-5.61152,-54.8067,1.85321,148.066
2023-03-15 21:31:43:823,0.357931,7.99293,-5.61123,-54.8025,1.85559,148.067
2023-03-15 21:31:43:833,0.358803,7.98779,-5.61689,-54.8016,1.8548,148.065
2023-03-15 21:31:43:843,0.347624,7.98254,-5.62147,-54.8009,1.85689,148.064
2023-03-15 21:31:43:853,0.336489,7.98702,-5.61189,-54.7984,1.85846,148.064
2023-03-15 21:31:43:863,0.34799,7.98009,-5.61733,-54.803,1.8598,148.064
2023-03-15 21:31:43:873,0.346568,7.97777,-5.616,-54.801,1.85888,148.066
2023-03-15 21:31:43:883,0.351585,7.99862,-5.61648,-54.8013,1.86323,148.068
2023-03-15 21:31:43:893,0.352038,7.99286,-5.61418,-54.802,1.86174,148.069
2023-03-15 21:31:43:903,0.35852,7.99768,-5.60332,-54.7996,1.86377,148.071
2023-03-15 21:31:43:913,0.345461,7.99051,-5.60631,-54.8045,1.86295,148.068
2023-03-15 21:31:43:923,0.34957,7.98681,-5.61908,-54.8022,1.86298,148.066
2023-03-15 21:31:43:933,0.342669,7.99207,-5.61238,-54.8044,1.85984,148.065
2023-03-15 21:31:43:943,0.354774,7.99575,-5.61456,-54.8059,1.86059,148.063
2023-03-15 21:31:43:953,0.357694,7.99649,-5.61094,-54.8037,1.86234,148.06
2023-03-15 21:31:43:963,0.361546,7.99665,-5.61179,-54.8057,1.86243,148.06
2023-03-15 21:31:43:973,0.349715,7.98744,-5.60976,-54.8051,1.85955,148.058
2023-03-15 21:31:43:983,0.344054,7.99168,-5.61012,-54.8031,1.8614,148.059
2023-03-15 21:31:43:993,0.353191,7.99456,-5.61234,-54.8021,1.86377,148.059
2023-03-15 21:31:44:3,0.350684,8.00044,-5.59822,-54.8049,1.86303,148.058
2023-03-15 21:31:44:13,0.34854,7.99869,-5.60687,-54.8048,1.86202,148.058
2023-03-15 21:31:44:23,0.349428,8.00765,-5.60977,-54.8066,1.86045,148.058
2023-03-15 21:31:44:33,0.352108,8.00493,-5.60849,-54.8047,1.85929,148.061
2023-03-15 21:31:44:43,0.361851,7.99018,-5.60852,-54.805,1.85983,148.059
2023-03-15 21:31:44:53,0.351453,7.98749,-5.61432,-54.8027,1.86055,148.061
2023-03-15 21:31:44:63,0.351058,7.98467,-5.61535,-54.8024,1.85937,148.061
2023-03-15 21:31:44:73,0.347857,7.99275,-5.61755,-54.8029,1.86222,148.062
2023-03-15 21:31:44:83,0.340211,7.98371,-5.62563,-54.8015,1.86123,148.063
2023-03-15 21:31:44:93,0.333111,7.99062,-5.62274,-54.8022,1.85828,148.064
2023-03-15 21:31:44:103,0.337569,7.98865,-5.61986,-54.8008,1.86074,148.065
2023-03-15 21:31:44:113,0.356633,7.9901,-5.61836,-54.8002,1.85852,148.067
2023-03-15 21:31:44:123,0.357628,7.98974,-5.6148,-54.7996,1.85875,148.069
2023-03-15 21:31:44:133,0.352801,7.98101,-5.61137,-54.7973,1.85886,148.068
2023-03-15 21:31:44:143,0.342003,7.98793,-5.6083,-54.7956,1.85998,148.067
2023-03-15 21:31:44:153,0.33904,7.98512,-5.61961,-54.7954,1.86186,148.069
2023-03-15 21:31:44:163,0.34975,7.99845,-5.60656,-54.7945,1.86179,148.072
2023-03-15 21:31:44:173,0.348521,7.99931,-5.60891,-54.7953,1.85875,148.074
2023-03-15 21:31:44:183,0.354561,7.98376,-5.61003,-54.7985,1.85805,148.072
2023-03-15 21:31:44:193,0.358728,7.98938,-5.61871,-54.7985,1.85996,148.075
2023-03-15 21:31:44:203,0.350891,7.99475,-5.61857,-54.7981,1.85922,148.075
2023-03-15 21:31:44:213,0.359017,7.99751,-5.60511,-54.7964,1.86077,148.074
2023-03-15 21:31:44:223,0.353807,8.00317,-5.60906,-54.7967,1.86125,148.071
2023-03-15 21:31:44:233,0.35819,7.99232,-5.61238,-54.798,1.86367,148.071
2023-03-15 21:31:44:243,0.359213,7.98922,-5.61823,-54.7992,1.86243,148.074
2023-03-15 21:31:44:253,0.361366,7.98185,-5.61813,-54.8003,1.86339,148.075
2023-03-15 21:31:44:263,0.355918,7.99034,-5.6186,-54.7958,1.86492,148.073
2023-03-15 21:31:44:273,0.35557,7.99064,-5.61121,-54.7972,1.86466,148.072
2023-03-15 21:31:44:283,0.356466,7.99009,-5.61033,-54.7946,1.86571,148.073
2023-03-15 21:31:44:293,0.34891,7.99661,-5.61531,-54.7946,1.86501,148.073
2023-03-15 21:31:44:303,0.360768,7.99602,-5.61048,-54.7941,1.86562,148.074
2023-03-15 21:31:44:313,0.35311,7.99898,-5.6105,-54.7945,1.86358,148.072
2023-03-15 21:31:44:323,0.349574,7.9964,-5.60144,-54.7931,1.86203,148.069
2023-03-15 21:31:44:333,0.359675,7.98065,-5.60812,-54.7922,1.86258,148.07
2023-03-15 21:31:44:343,0.366156,7.98989,-5.6161,-54.7954,1.86708,148.067
2023-03-15 21:31:44:353,0.356276,8.00821,-5.60993,-54.7931,1.86617,148.068
2023-03-15 21:31:44:363,0.350044,7.99534,-5.61467,-54.7929,1.86428,148.067
2023-03-15 21:31:44:373,0.350405,7.9819,-5.6103,-54.7939,1.8648,148.068
2023-03-15 21:31:44:383,0.351508,7.99576,-5.6017,-54.7962,1.86719,148.066
2023-03-15 21:31:44:393,0.349311,7.99832,-5.6029,-54.797,1.86592,148.067
2023-03-15 21:31:44:403,0.359581,7.99362,-5.60989,-54.7977,1.86682,148.066
2023-03-15 21:31:44:413,0.348452,7.98309,-5.62311,-54.7945,1.86631,148.065
2023-03-15 21:31:44:423,0.344868,7.98418,-5.61732,-54.7961,1.86504,148.065
2023-03-15 21:31:44:433,0.352422,7.99096,-5.61215,-54.7966,1.86371,148.067
2023-03-15 21:31:44:443,0.348352,7.99897,-5.60128,-54.7965,1.86496,148.067
2023-03-15 21:31:44:453,0.344044,7.99359,-5.61184,-54.7968,1.86263,148.068
2023-03-15 21:31:44:463,0.344518,7.99004,-5.61645,-54.7949,1.86321,148.07
2023-03-15 21:31:44:473,0.350002,7.97892,-5.62343,-54.7961,1.8653,148.07
2023-03-15 21:31:44:483,0.357143,7.98746,-5.61852,-54.7948,1.86514,148.068
2023-03-15 21:31:44:493,0.347135,7.98129,-5.60694,-54.7962,1.86406,148.068
2023-03-15 21:31:44:503,0.34676,7.98535,-5.61085,-54.7991,1.86214,148.065
2023-03-15 21:31:44:513,0.348583,7.99524,-5.61677,-54.7998,1.8616,148.068
2023-03-15 21:31:44:523,0.342317,7.99509,-5.60501,-54.8024,1.86175,148.067
2023-03-15 21:31:44:533,0.352772,7.99565,-5.61583,-54.8026,1.86435,148.067
2023-03-15 21:31:44:543,0.361964,7.98907,-5.61776,-54.8,1.8642,148.066
2023-03-15 21:31:44:553,0.351846,7.98569,-5.6079,-54.801,1.86625,148.064
2023-03-15 21:31:44:563,0.35257,7.98407,-5.6204,-54.7979,1.86408,148.062
2023-03-15 21:31:44:573,0.358889,7.98179,-5.61591,-54.7968,1.86419,148.062
2023-03-15 21:31:44:583,0.354844,7.98314,-5.61758,-54.7981,1.86706,148.067
2023-03-15 21:31:44:593,0.353258,7.98774,-5.61214,-54.8007,1.87076,148.066
2023-03-15 21:31:44:603,0.348252,7.99434,-5.60928,-54.8,1.86896,148.066
2023-03-15 21:31:44:613,0.347165,7.99551,-5.61382,-54.7972,1.86892,148.064
2023-03-15 21:31:44:623,0.342943,7.98038,-5.61054,-54.7985,1.86731,148.061
2023-03-15 21:31:44:633,0.35213,7.98952,-5.61076,-54.7986,1.86732,148.063
2023-03-15 21:31:44:643,0.357726,7.98222,-5.62183,-54.8001,1.86933,148.063
2023-03-15 21:31:44:653,0.352087,7.999,-5.60854,-54.8,1.87042,148.061
2023-03-15 21:31:44:663,0.35161,7.99843,-5.60853,-54.8014,1.86902,148.064
2023-03-15 21:31:44:673,0.351258,7.9888,-5.61018,-54.7997,1.87027,148.063
2023-03-15 21:31:44:683,0.346089,7.9975,-5.6053,-54.7994,1.86948,148.063
2023-03-15 21:31:44:693,0.359295,7.99155,-5.60809,-54.799,1.87002,148.064
2023-03-15 21:31:44:703,0.342654,7.98962,-5.60864,-54.7967,1.87216,148.066
2023-03-15 21:31:44:713,0.356923,7.99182,-5.62422,-54.7945,1.86824,148.071
2023-03-15 21:31:44:723,0.355707,7.98907,-5.61688,-54.7956,1.86936,148.068
2023-03-15 21:31:44:733,0.358981,8.00188,-5.62031,-54.7974,1.87069,148.065
2023-03-15 21:31:44:743,0.3591,8.00039,-5.61624,-54.7983,1.87075,148.064
2023-03-15 21:31:44:753,0.352573,7.9881,-5.61782,-54.7992,1.86896,148.064
2023-03-15 21:31:44:763,0.361649,7.996,-5.61236,-54.8008,1.8659,148.064
2023-03-15 21:31:44:773,0.351825,7.99728,-5.61299,-54.798,1.86438,148.064
2023-03-15 21:31:44:783,0.346883,8.00128,-5.60371,-54.7952,1.86136,148.063
2023-03-15 21:31:44:793,0.352683,7.98677,-5.61482,-54.7971,1.86041,148.064
2023-03-15 21:31:44:803,0.353734,7.98741,-5.61361,-54.7978,1.85912,148.063
2023-03-15 21:31:44:813,0.349127,7.99627,-5.60906,-54.7977,1.86002,148.061
2023-03-15 21:31:44:823,0.346294,7.99722,-5.61033,-54.7988,1.86143,148.059
2023-03-15 21:31:44:833,0.341366,7.98614,-5.61185,-54.8013,1.86177,148.059
2023-03-15 21:31:44:843,0.326848,7.98835,-5.61561,-54.8061,1.86138,148.061
2023-03-15 21:31:44:853,0.349783,7.99043,-5.62284,-54.8035,1.85956,148.064
2023-03-15 21:31:44:863,0.35105,7.99751,-5.61954,-54.801,1.85815,148.063
2023-03-15 21:31:44:873,0.358115,7.98459,-5.62133,-54.801,1.85769,148.063
2023-03-15 21:31:44:883,0.353036,7.98885,-5.6196,-54.797,1.85786,148.061
2023-03-15 21:31:44:893,0.349558,7.9894,-5.6108,-54.7959,1.85724,148.06
2023-03-15 21:31:44:903,0.343737,7.99034,-5.61399,-54.7953,1.85631,148.06
2023-03-15 21:31:44:913,0.339428,7.99093,-5.62011,-54.7976,1.85407,148.058
2023-03-15 21:31:44:923,0.362059,7.9883,-5.61823,-54.7991,1.85482,148.059
2023-03-15 21:31:44:933,0.35324,7.98656,-5.61552,-54.8002,1.85532,148.061
2023-03-15 21:31:44:943,0.345552,7.99627,-5.61403,-54.8021,1.85807,148.062
2023-03-15 21:31:44:953,0.351031,7.98927,-5.60724,-54.8029,1.85685,148.061
2023-03-15 21:31:44:963,0.337264,7.98981,-5.60905,-54.804,1.85799,148.062
2023-03-15 21:31:44:973,0.356587,7.98443,-5.62172,-54.8077,1.86079,148.062
2023-03-15 21:31:44:983,0.360022,7.98578,-5.62379,-54.81,1.8625,148.061
2023-03-15 21:31:44:993,0.344365,7.99184,-5.62609,-54.812,1.86255,148.065
2023-03-15 21:31:45:3,0.352133,7.99166,-5.61952,-54.8111,1.86014,148.064
2023-03-15 21:31:45:13,0.359722,7.99645,-5.61199,-54.8112,1.86244,148.064
2023-03-15 21:31:45:23,0.357451,8.00031,-5.60022,-54.8144,1.86326,148.066
2023-03-15 21:31:45:33,0.346993,7.99111,-5.60826,-54.8147,1.86168,148.065
2023-03-15 21:31:45:43,0.351655,7.98424,-5.61452,-54.8144,1.86309,148.065
2023-03-15 21:31:45:53,0.344083,7.9881,-5.61308,-54.8124,1.86475,148.064
2023-03-15 21:31:45:63,0.340952,7.99352,-5.6074,-54.814,1.86755,148.063
2023-03-15 21:31:45:73,0.359822,7.98695,-5.6173,-54.8141,1.86731,148.062
2023-03-15 21:31:45:83,0.349784,7.97793,-5.62251,-54.8147,1.86426,148.06
2023-03-15 21:31:45:93,0.345101,7.98791,-5.60547,-54.8156,1.8632,148.059
2023-03-15 21:31:45:103,0.342071,7.99705,-5.6054,-54.8145,1.85977,148.059
2023-03-15 21:31:45:113,0.349281,7.99574,-5.61033,-54.8117,1.85881,148.055
2023-03-15 21:31:45:123,0.344451,7.98525,-5.60894,-54.8099,1.86072,148.052
2023-03-15 21:31:45:133,0.348408,7.98914,-5.61419,-54.8072,1.86277,148.052
2023-03-15 21:31:45:143,0.340362,7.99445,-5.61064,-54.8079,1.86357,148.054
2023-03-15 21:31:45:153,0.332291,7.99636,-5.61259,-54.8079,1.86282,148.053
2023-03-15 21:31:45:163,0.353928,7.99169,-5.61629,-54.8071,1.86216,148.055
2023-03-15 21:31:45:173,0.343309,7.98708,-5.6095,-54.804,1.86136,148.056
2023-03-15 21:31:45:183,0.343236,7.99815,-5.61012,-54.8018,1.86047,148.058
2023-03-15 21:31:45:193,0.350713,7.98806,-5.61892,-54.7999,1.86184,148.056
2023-03-15 21:31:45:203,0.361293,7.98448,-5.61609,-54.7959,1.86359,148.059
2023-03-15 21:31:45:213,0.351875,7.9881,-5.60302,-54.7962,1.86188,148.062
2023-03-15 21:31:45:223,0.34107,7.98032,-5.6135,-54.7992,1.86136,148.061
2023-03-15 21:31:45:233,0.353867,7.99034,-5.6149,-54.7958,1.86023,148.059
2023-03-15 21:31:45:243,0.348946,7.995,-5.60205,-54.7959,1.85889,148.055
2023-03-15 21:31:45:253,0.347341,7.99694,-5.61048,-54.795,1.85971,148.056
2023-03-15 21:31:45:263,0.3585,7.98715,-5.622,-54.7954,1.85953,148.055
2023-03-15 21:31:45:273,0.350942,7.99127,-5.61715,-54.799,1.85977,148.053
2023-03-15 21:31:45:283,0.345383,7.99667,-5.6142,-54.8002,1.85727,148.05
2023-03-15 21:31:45:293,0.346841,7.98353,-5.62388,-54.7996,1.85732,148.051
2023-03-15 21:31:45:303,0.352144,7.98353,-5.62426,-54.7977,1.85914,148.05
2023-03-15 21:31:45:313,0.353587,7.99046,-5.61896,-54.7973,1.85841,148.05
2023-03-15 21:31:45:323,0.351165,7.99182,-5.61902,-54.7985,1.85796,148.048
2023-03-15 21:31:45:333,0.34853,7.99434,-5.62534,-54.7974,1.86011,148.048
2023-03-15 21:31:45:343,0.346864,7.98815,-5.61677,-54.7957,1.8578,148.049
2023-03-15 21:31:45:353,0.352863,7.9928,-5.61734,-54.795,1.85882,148.048
2023-03-15 21:31:45:363,0.35135,7.99685,-5.61199,-54.7952,1.86275,148.048
2023-03-15 21:31:45:373,0.347022,7.98976,-5.61572,-54.7936,1.86217,148.045
2023-03-15 21:31:45:383,0.350353,7.99455,-5.62909,-54.7969,1.86157,148.044
2023-03-15 21:31:45:393,0.342319,7.98295,-5.61572,-54.7974,1.86061,148.044
2023-03-15 21:31:45:403,0.339649,7.98656,-5.61498,-54.8013,1.85833,148.044
2023-03-15 21:31:45:413,0.356094,7.99338,-5.61519,-54.8004,1.86229,148.043
2023-03-15 21:31:45:423,0.345146,7.98231,-5.61437,-54.8014,1.86057,148.045
2023-03-15 21:31:45:433,0.359039,7.99052,-5.62145,-54.7995,1.86011,148.047
2023-03-15 21:31:45:443,0.355186,8.00078,-5.61188,-54.8026,1.86074,148.047
2023-03-15 21:31:45:453,0.35297,7.99113,-5.61506,-54.8003,1.86617,148.048
2023-03-15 21:31:45:463,0.362357,7.99451,-5.61542,-54.7999,1.8662,148.048
2023-03-15 21:31:45:473,0.360648,7.99497,-5.61735,-54.8007,1.86637,148.049
2023-03-15 21:31:45:483,0.355932,7.99055,-5.61712,-54.8019,1.86627,148.051
2023-03-15 21:31:45:493,0.347551,7.98585,-5.62333,-54.8023,1.86716,148.05
2023-03-15 21:31:45:503,0.343145,7.98958,-5.62915,-54.8016,1.86868,148.051
2023-03-15 21:31:45:513,0.35702,7.9885,-5.62409,-54.802,1.86899,148.05
2023-03-15 21:31:45:523,0.355655,7.98907,-5.61248,-54.8036,1.86996,148.052
2023-03-15 21:31:45:533,0.347694,7.99246,-5.60982,-54.8043,1.86983,148.051
2023-03-15 21:31:45:543,0.344312,7.99342,-5.60938,-54.8053,1.87028,148.048
2023-03-15 21:31:45:553,0.357479,7.98509,-5.61962,-54.8048,1.86667,148.046
2023-03-15 21:31:45:563,0.349603,7.98622,-5.62855,-54.8051,1.86618,148.043
2023-03-15 21:31:45:573,0.347223,7.99601,-5.62663,-54.8013,1.867,148.045
2023-03-15 21:31:45:583,0.351166,7.98521,-5.61355,-54.8003,1.86926,148.047
2023-03-15 21:31:45:593,0.354098,7.99033,-5.60459,-54.7967,1.86883,148.046
2023-03-15 21:31:45:603,0.35454,7.99198,-5.60843,-54.7986,1.86842,148.048
2023-03-15 21:31:45:613,0.351915,7.98555,-5.62103,-54.7983,1.87273,148.046
2023-03-15 21:31:45:623,0.350959,7.98969,-5.61617,-54.7954,1.87193,148.047
2023-03-15 21:31:45:633,0.347798,7.99078,-5.61898,-54.7959,1.87059,148.049
2023-03-15 21:31:45:643,0.346919,7.99757,-5.61219,-54.7969,1.87132,148.052
2023-03-15 21:31:45:653,0.338767,7.99996,-5.61398,-54.7964,1.87132,148.051
2023-03-15 21:31:45:663,0.349949,7.99585,-5.61684,-54.7982,1.8714,148.052
2023-03-15 21:31:45:673,0.355521,7.99273,-5.61672,-54.7971,1.86836,148.053
2023-03-15 21:31:45:683,0.353652,7.99263,-5.60818,-54.8009,1.86878,148.051
2023-03-15 21:31:45:693,0.343445,8.00166,-5.61071,-54.7961,1.87043,148.05
2023-03-15 21:31:45:703,0.347943,7.99771,-5.61512,-54.798,1.87049,148.05
2023-03-15 21:31:45:713,0.349391,7.99819,-5.61449,-54.7984,1.87236,148.051
2023-03-15 21:31:45:723,0.356172,7.99676,-5.61252,-54.7994,1.87174,148.051
2023-03-15 21:31:45:733,0.356808,7.98216,-5.62561,-54.7979,1.86948,148.05
2023-03-15 21:31:45:743,0.356176,7.98224,-5.62438,-54.7972,1.86988,148.052
2023-03-15 21:31:45:753,0.348642,7.98526,-5.60687,-54.7991,1.87114,148.052
2023-03-15 21:31:45:763,0.348564,7.99027,-5.60227,-54.799,1.8709,148.052
2023-03-15 21:31:45:773,0.354654,7.98411,-5.61049,-54.7995,1.86873,148.053
2023-03-15 21:31:45:783,0.34665,7.98124,-5.60821,-54.7995,1.87337,148.048
2023-03-15 21:31:45:793,0.355024,7.98044,-5.61851,-54.7985,1.8738,148.048
2023-03-15 21:31:45:803,0.350597,7.98311,-5.61646,-54.7979,1.87539,148.052
2023-03-15 21:31:45:813,0.355778,7.99976,-5.60848,-54.7979,1.8763,148.054
2023-03-15 21:31:45:823,0.362562,7.99132,-5.61208,-54.7955,1.87688,148.05
2023-03-15 21:31:45:833,0.354947,7.98117,-5.61746,-54.7935,1.87963,148.053
2023-03-15 21:31:45:843,0.35124,7.99368,-5.60719,-54.7932,1.88129,148.055
2023-03-15 21:31:45:853,0.341844,7.99118,-5.60788,-54.7916,1.88316,148.052
2023-03-15 21:31:45:863,0.351375,7.99598,-5.62026,-54.7908,1.88351,148.053
2023-03-15 21:31:45:873,0.351561,7.98846,-5.62315,-54.7928,1.88326,148.055
2023-03-15 21:31:45:883,0.35046,7.98656,-5.61036,-54.791,1.8833,148.053
2023-03-15 21:31:45:893,0.352898,7.99183,-5.61341,-54.7909,1.88325,148.056
2023-03-15 21:31:45:903,0.348792,7.99028,-5.62642,-54.7909,1.88173,148.057
2023-03-15 21:31:45:913,0.332308,7.98354,-5.53256,-54.7955,1.87673,148.056
2023-03-15 21:31:45:923,0.387016,8.03646,-5.62754,-54.7945,1.87833,148.057
2023-03-15 21:31:45:933,0.403851,7.95831,-5.65776,-54.7963,1.88308,148.057
2023-03-15 21:31:45:943,0.370092,7.93532,-5.68545,-54.7929,1.88712,148.055
2023-03-15 21:31:45:953,0.293294,7.99967,-5.66265,-54.7966,1.88558,148.059
2023-03-15 21:31:45:963,0.303695,7.97164,-5.63892,-54.7941,1.8894,148.059
2023-03-15 21:31:45:973,0.315671,7.99966,-5.58335,-54.7967,1.89003,148.058
2023-03-15 21:31:45:983,0.361445,8.02953,-5.58926,-54.797,1.88814,148.055
2023-03-15 21:31:45:993,0.358435,8.03161,-5.54801,-54.797,1.88559,148.059
2023-03-15 21:31:46:3,0.362862,8.00538,-5.59191,-54.7949,1.88798,148.056
2023-03-15 21:31:46:13,0.337467,8.03049,-5.56791,-54.805,1.88506,148.055
2023-03-15 21:31:46:23,0.367256,8.00301,-5.6201,-54.8005,1.88443,148.057
2023-03-15 21:31:46:33,0.362536,7.95156,-5.61663,-54.8039,1.88445,148.061
2023-03-15 21:31:46:43,0.34899,7.99071,-5.63186,-54.8023,1.88395,148.064
2023-03-15 21:31:46:53,0.336804,7.95276,-5.62554,-54.8036,1.8828,148.064
2023-03-15 21:31:46:63,0.343643,7.96776,-5.65628,-54.8031,1.88244,148.064
2023-03-15 21:31:46:73,0.318182,7.9715,-5.63762,-54.8032,1.8855,148.065
2023-03-15 21:31:46:83,0.32453,7.97271,-5.62624,-54.8013,1.88382,148.067
2023-03-15 21:31:46:93,0.354777,8.03865,-5.59167,-54.8029,1.88153,148.068
2023-03-15 21:31:46:103,0.399528,8.01645,-5.57255,-54.8058,1.8811,148.066
2023-03-15 21:31:46:113,0.428279,8.00778,-5.58555,-54.8037,1.88124,148.067
2023-03-15 21:31:46:123,0.431301,7.98821,-5.62906,-54.8043,1.88439,148.07
2023-03-15 21:31:46:133,0.384116,7.96458,-5.63486,-54.8035,1.88302,148.066
2023-03-15 21:31:46:143,0.330159,7.95672,-5.65113,-54.8004,1.88189,148.062
2023-03-15 21:31:46:152,0.294453,7.98188,-5.64066,-54.8027,1.88025,148.057
2023-03-15 21:31:46:163,0.289391,7.96357,-5.65497,-54.8052,1.88133,148.056
2023-03-15 21:31:46:173,0.291527,7.97427,-5.65091,-54.8024,1.87883,148.055
2023-03-15 21:31:46:183,0.309236,8.00238,-5.6251,-54.8002,1.87579,148.055
2023-03-15 21:31:46:193,0.337133,7.9994,-5.6072,-54.7959,1.87696,148.054
2023-03-15 21:31:46:203,0.344052,8.01491,-5.58227,-54.7984,1.87575,148.05
2023-03-15 21:31:46:213,0.340945,8.035,-5.53973,-54.7995,1.87652,148.049
2023-03-15 21:31:46:223,0.358909,8.03351,-5.5371,-54.7994,1.87759,148.049
2023-03-15 21:31:46:233,0.383796,8.03501,-5.55246,-54.8015,1.87767,148.048
2023-03-15 21:31:46:243,0.404884,8.00823,-5.58419,-54.8012,1.87773,148.05
2023-03-15 21:31:46:253,0.407124,7.98716,-5.60384,-54.8007,1.87808,148.054
2023-03-15 21:31:46:263,0.373121,7.97351,-5.62418,-54.8011,1.87937,148.056
2023-03-15 21:31:46:273,0.350802,7.97232,-5.6414,-54.8002,1.87948,148.053
2023-03-15 21:31:46:283,0.337153,7.96444,-5.65598,-54.7999,1.87853,148.05
2023-03-15 21:31:46:293,0.340087,7.95438,-5.64875,-54.7982,1.88007,148.049
2023-03-15 21:31:46:303,0.338736,7.96618,-5.63653,-54.7932,1.88151,148.046
2023-03-15 21:31:46:313,0.346916,7.97795,-5.62994,-54.7922,1.8817,148.044
2023-03-15 21:31:46:323,0.339893,7.98236,-5.62957,-54.79,1.88185,148.045
2023-03-15 21:31:46:333,0.321152,8.00357,-5.60124,-54.7917,1.88241,148.045
2023-03-15 21:31:46:343,0.307487,8.01375,-5.58013,-54.7931,1.88119,148.043
2023-03-15 21:31:46:353,0.314009,8.01312,-5.56907,-54.7929,1.87975,148.042
2023-03-15 21:31:46:363,0.328729,8.01732,-5.57607,-54.7958,1.87867,148.04
2023-03-15 21:31:46:373,0.343534,8.00539,-5.59604,-54.7986,1.87376,148.039
2023-03-15 21:31:46:383,0.35003,7.99463,-5.60815,-54.8,1.87526,148.043
2023-03-15 21:31:46:393,0.35921,7.9886,-5.61138,-54.798,1.87521,148.042
2023-03-15 21:31:46:403,0.360808,7.98036,-5.61955,-54.7958,1.87767,148.045
2023-03-15 21:31:46:412,0.354751,7.98041,-5.62298,-54.7991,1.87485,148.043
2023-03-15 21:31:46:422,0.364162,7.97792,-5.62501,-54.7996,1.87719,148.042
2023-03-15 21:31:46:432,0.362173,7.98697,-5.62569,-54.8005,1.88144,148.041
2023-03-15 21:31:46:442,0.360849,7.98709,-5.61983,-54.8043,1.87825,148.038
2023-03-15 21:31:46:452,0.362358,7.9845,-5.61358,-54.8072,1.87895,148.04
2023-03-15 21:31:46:462,0.351397,7.99141,-5.59995,-54.8063,1.88201,148.039
2023-03-15 21:31:46:472,0.34904,8.00179,-5.60526,-54.8051,1.88383,148.036
2023-03-15 21:31:46:482,0.337253,8.00174,-5.60042,-54.8078,1.88152,148.034
2023-03-15 21:31:46:492,0.334716,7.9975,-5.599,-54.8091,1.88119,148.033
2023-03-15 21:31:46:502,0.339108,7.99755,-5.61446,-54.8065,1.88275,148.033
2023-03-15 21:31:46:512,0.326186,7.99071,-5.62743,-54.8076,1.88353,148.034
2023-03-15 21:31:46:522,0.336501,7.9863,-5.61713,-54.8065,1.88192,148.034
2023-03-15 21:31:46:532,0.338115,7.99042,-5.61328,-54.8065,1.88114,148.034
2023-03-15 21:31:46:542,0.332683,7.99086,-5.61842,-54.8052,1.88181,148.033
2023-03-15 21:31:46:552,0.336781,8.00066,-5.60017,-54.8022,1.88388,148.035
2023-03-15 21:31:46:562,0.358588,7.99019,-5.60745,-54.8044,1.88246,148.033
2023-03-15 21:31:46:572,0.376587,7.99293,-5.60733,-54.8058,1.8819,148.034
2023-03-15 21:31:46:582,0.367202,7.98585,-5.60979,-54.8067,1.88438,148.034
2023-03-15 21:31:46:592,0.364537,7.99245,-5.60582,-54.807,1.88424,148.035
2023-03-15 21:31:46:602,0.367438,7.99366,-5.61479,-54.8065,1.88061,148.033
2023-03-15 21:31:46:612,0.360218,7.99231,-5.6134,-54.8031,1.87868,148.03
2023-03-15 21:31:46:622,0.344378,7.99941,-5.60694,-54.8018,1.878,148.03
2023-03-15 21:31:46:632,0.340244,7.98915,-5.6157,-54.8013,1.87763,148.028
2023-03-15 21:31:46:642,0.343938,7.98471,-5.62042,-54.8022,1.87999,148.028
2023-03-15 21:31:46:652,0.354248,7.98852,-5.61527,-54.8022,1.88214,148.032
2023-03-15 21:31:46:662,0.340444,7.98515,-5.62476,-54.8015,1.88239,148.032
2023-03-15 21:31:46:672,0.32998,7.98344,-5.62781,-54.7997,1.88168,148.031
2023-03-15 21:31:46:682,0.346662,7.99447,-5.6024,-54.7978,1.87791,148.034
2023-03-15 21:31:46:692,0.342386,7.98928,-5.61986,-54.7984,1.87792,148.032
2023-03-15 21:31:46:702,0.352884,7.97893,-5.62308,-54.7966,1.88015,148.027
