Timestamp,Acceleration_x,Acceleration_y,Acceleration_z,roll,pitch,yaw
2023-03-14 21:23:11:21,1.49607,2.42281,-9.37988,-14.0578,7.5558,35.8726
2023-03-14 21:23:11:30,1.50246,2.4432,-9.34653,-14.0353,7.58752,35.7488
2023-03-14 21:23:11:40,1.54488,2.43285,-9.33979,-14.0113,7.61587,35.6226
2023-03-14 21:23:11:50,1.63894,2.41745,-9.35725,-13.988,7.63944,35.4979
2023-03-14 21:23:11:60,1.72142,2.42115,-9.36072,-13.963,7.66209,35.3849
2023-03-14 21:23:11:70,1.76783,2.3986,-9.34502,-13.93,7.68373,35.2784
2023-03-14 21:23:11:80,1.77439,2.34402,-9.3212,-13.8914,7.69881,35.1882
2023-03-14 21:23:11:90,1.75289,2.31295,-9.30646,-13.8506,7.70904,35.1134
2023-03-14 21:23:11:100,1.67165,2.2887,-9.30678,-13.8087,7.70602,35.0575
2023-03-14 21:23:11:110,1.60682,2.28478,-9.32191,-13.7685,7.69465,35.0117
2023-03-14 21:23:11:120,1.5267,2.25198,-9.3292,-13.729,7.67512,34.9782
2023-03-14 21:23:11:130,1.46499,2.22933,-9.34158,-13.6928,7.64971,34.9523
2023-03-14 21:23:11:140,1.38956,2.23423,-9.3366,-13.6576,7.61554,34.9293
2023-03-14 21:23:11:150,1.38178,2.22108,-9.35544,-13.6286,7.58502,34.9063
2023-03-14 21:23:11:160,1.41265,2.18292,-9.36815,-13.6016,7.55468,34.8812
2023-03-14 21:23:11:170,1.37638,2.19373,-9.35849,-13.5809,7.5178,34.8598
2023-03-14 21:23:11:180,1.29055,2.21472,-9.37548,-13.5665,7.47519,34.8429
2023-03-14 21:23:11:190,1.21597,2.22402,-9.38132,-13.5568,7.43395,34.8254
2023-03-14 21:23:11:200,1.18944,2.24789,-9.3922,-13.5497,7.39538,34.8125
2023-03-14 21:23:11:210,1.19054,2.23793,-9.42625,-13.5473,7.36065,34.7979
2023-03-14 21:23:11:220,1.1782,2.23965,-9.44138,-13.5423,7.32739,34.7803
2023-03-14 21:23:11:230,1.16399,2.24184,-9.45805,-13.5376,7.29845,34.7656
2023-03-14 21:23:11:240,1.13724,2.24735,-9.45982,-13.5332,7.26771,34.7443
2023-03-14 21:23:11:250,1.10976,2.2755,-9.47681,-13.526,7.24697,34.7228
2023-03-14 21:23:11:260,1.13172,2.271,-9.50063,-13.5205,7.22899,34.6954
2023-03-14 21:23:11:270,1.18191,2.25263,-9.50593,-13.5113,7.20808,34.6637
2023-03-14 21:23:11:280,1.17253,2.24539,-9.49686,-13.5032,7.18882,34.629
2023-03-14 21:23:11:290,1.15755,2.23344,-9.46605,-13.4952,7.17423,34.5894
2023-03-14 21:23:11:300,1.21059,2.22562,-9.44457,-13.4892,7.15753,34.5437
2023-03-14 21:23:11:310,1.28903,2.23027,-9.4485,-13.4883,7.14331,34.4966
2023-03-14 21:23:11:320,1.32991,2.23022,-9.45713,-13.4837,7.12793,34.4463
2023-03-14 21:23:11:330,1.29967,2.22005,-9.44345,-13.4766,7.10835,34.401
2023-03-14 21:23:11:340,1.26586,2.20446,-9.38313,-13.4765,7.08726,34.3529
2023-03-14 21:23:11:350,1.2585,2.18136,-9.33321,-13.4759,7.06157,34.3074
2023-03-14 21:23:11:360,1.2361,2.18526,-9.32375,-13.4813,7.03693,34.2637
2023-03-14 21:23:11:370,1.22838,2.23195,-9.3502,-13.4874,7.01097,34.2148
2023-03-14 21:23:11:380,1.24091,2.27154,-9.39499,-13.5,6.98484,34.1663
2023-03-14 21:23:11:390,1.26903,2.29467,-9.4126,-13.5173,6.9616,34.1112
2023-03-14 21:23:11:399,1.29117,2.29939,-9.40555,-13.5301,6.94038,34.0579
2023-03-14 21:23:11:409,1.32919,2.28405,-9.39906,-13.5434,6.91948,34.0103
2023-03-14 21:23:11:419,1.34387,2.27643,-9.37961,-13.5561,6.89777,33.9654
2023-03-14 21:23:11:429,1.34881,2.28268,-9.39203,-13.5711,6.87855,33.927
2023-03-14 21:23:11:439,1.3747,2.30123,-9.40992,-13.5903,6.85698,33.8873
2023-03-14 21:23:11:449,1.37023,2.31336,-9.40621,-13.6087,6.83811,33.8606
2023-03-14 21:23:11:459,1.35852,2.32106,-9.4058,-13.6204,6.81989,33.8398
2023-03-14 21:23:11:469,1.38334,2.33006,-9.41422,-13.6366,6.80145,33.8264
2023-03-14 21:23:11:479,1.39332,2.32297,-9.41923,-13.6507,6.78537,33.821
2023-03-14 21:23:11:489,1.38983,2.32084,-9.42487,-13.6704,6.77116,33.8257
2023-03-14 21:23:11:499,1.39228,2.31902,-9.43243,-13.6854,6.75203,33.8409
2023-03-14 21:23:11:509,1.37149,2.31196,-9.42155,-13.7,6.73549,33.8612
2023-03-14 21:23:11:519,1.33626,2.29856,-9.39019,-13.7149,6.71673,33.8896
2023-03-14 21:23:11:529,1.31026,2.29086,-9.39906,-13.7322,6.69831,33.9274
2023-03-14 21:23:11:539,1.27711,2.30452,-9.43448,-13.751,6.67801,33.9741
2023-03-14 21:23:11:549,1.27223,2.28447,-9.42492,-13.7661,6.65666,34.0277
2023-03-14 21:23:11:559,1.24673,2.27365,-9.38086,-13.7805,6.63949,34.0861
2023-03-14 21:23:11:569,1.23374,2.27482,-9.38487,-13.8014,6.62493,34.1528
2023-03-14 21:23:11:580,1.22522,2.29119,-9.41448,-13.825,6.61208,34.2245
2023-03-14 21:23:11:590,1.25688,2.31286,-9.43318,-13.8496,6.60016,34.3022
2023-03-14 21:23:11:600,1.27546,2.29683,-9.44522,-13.8768,6.59212,34.3878
2023-03-14 21:23:11:610,1.27169,2.29916,-9.46403,-13.9053,6.58812,34.4799
2023-03-14 21:23:11:620,1.25047,2.32762,-9.49324,-13.9339,6.58434,34.583
2023-03-14 21:23:11:630,1.17527,2.33188,-9.4786,-13.9632,6.57705,34.6946
2023-03-14 21:23:11:640,1.10866,2.33862,-9.45286,-13.9933,6.5722,34.8115
2023-03-14 21:23:11:650,1.0612,2.3594,-9.4476,-14.0247,6.56964,34.9269
2023-03-14 21:23:11:659,1.03828,2.37947,-9.46354,-14.0619,6.57238,35.0426
2023-03-14 21:23:11:669,0.990822,2.41927,-9.51834,-14.096,6.57845,35.1587
2023-03-14 21:23:11:679,0.879636,2.49508,-9.55798,-14.1266,6.58454,35.2711
2023-03-14 21:23:11:690,0.845306,2.51862,-9.58027,-14.1506,6.59246,35.3711
2023-03-14 21:23:11:700,0.835613,2.48432,-9.53804,-14.1651,6.59914,35.4616
2023-03-14 21:23:11:710,0.807795,2.44724,-9.45844,-14.1719,6.60165,35.5376
2023-03-14 21:23:11:720,0.797491,2.43465,-9.42704,-14.1776,6.60112,35.5977
2023-03-14 21:23:11:730,0.819747,2.45367,-9.4573,-14.1838,6.59736,35.6433
2023-03-14 21:23:11:740,0.861399,2.42075,-9.47592,-14.1856,6.59052,35.6712
2023-03-14 21:23:11:750,0.884946,2.41301,-9.46265,-14.1869,6.5829,35.6858
2023-03-14 21:23:11:760,0.919854,2.41269,-9.46383,-14.1905,6.57196,35.691
2023-03-14 21:23:11:770,0.994589,2.41404,-9.45998,-14.1893,6.56676,35.6853
2023-03-14 21:23:11:780,1.03886,2.38248,-9.44868,-14.1918,6.56159,35.6699
2023-03-14 21:23:11:790,1.06368,2.38762,-9.44824,-14.1937,6.55721,35.6573
2023-03-14 21:23:11:800,1.10404,2.38883,-9.4386,-14.1917,6.55073,35.6449
2023-03-14 21:23:11:810,1.09955,2.35941,-9.41844,-14.1905,6.5456,35.6298
2023-03-14 21:23:11:820,1.00652,2.35279,-9.39853,-14.1861,6.54078,35.6159
2023-03-14 21:23:11:830,0.936208,2.39153,-9.42299,-14.1858,6.53792,35.6076
2023-03-14 21:23:11:840,0.967069,2.44353,-9.48119,-14.1902,6.54642,35.5888
2023-03-14 21:23:11:850,1.06365,2.47355,-9.54451,-14.1892,6.56025,35.5603
2023-03-14 21:23:11:860,1.12104,2.43634,-9.52675,-14.1855,6.57106,35.5266
2023-03-14 21:23:11:870,1.0875,2.4116,-9.45972,-14.1716,6.57539,35.492
2023-03-14 21:23:11:880,1.05971,2.4093,-9.40237,-14.1576,6.57602,35.455
2023-03-14 21:23:11:890,1.09519,2.39491,-9.37905,-14.1454,6.5747,35.4092
2023-03-14 21:23:11:900,1.12458,2.37599,-9.38008,-14.1327,6.56717,35.3652
2023-03-14 21:23:11:910,1.10351,2.35968,-9.39382,-14.1211,6.55638,35.3259
2023-03-14 21:23:11:920,1.03665,2.37526,-9.41697,-14.1152,6.5415,35.2847
2023-03-14 21:23:11:930,1.0263,2.38713,-9.4579,-14.1104,6.52741,35.2379
2023-03-14 21:23:11:940,1.05438,2.38118,-9.46182,-14.1083,6.5169,35.1883
2023-03-14 21:23:11:950,1.08307,2.38489,-9.47172,-14.1094,6.5124,35.1377
2023-03-14 21:23:11:960,1.077,2.4146,-9.49591,-14.1095,6.50608,35.0873
2023-03-14 21:23:11:970,1.08043,2.42134,-9.50499,-14.1089,6.50617,35.0341
2023-03-14 21:23:11:980,1.10995,2.40387,-9.45351,-14.1063,6.51234,34.9768
2023-03-14 21:23:11:990,1.1669,2.42199,-9.42619,-14.1033,6.52555,34.9231
2023-03-14 21:23:11:999,1.26028,2.43825,-9.43285,-14.1004,6.54505,34.872
2023-03-14 21:23:12:9,1.34849,2.42764,-9.4006,-14.097,6.56845,34.8224
2023-03-14 21:23:12:20,1.35665,2.38318,-9.33562,-14.0928,6.58305,34.7795
2023-03-14 21:23:12:30,1.29384,2.36849,-9.30324,-14.0946,6.59969,34.7409
2023-03-14 21:23:12:40,1.25959,2.38355,-9.31157,-14.1002,6.61613,34.7064
2023-03-14 21:23:12:50,1.30114,2.39377,-9.36213,-14.1114,6.62874,34.6724
2023-03-14 21:23:12:60,1.37952,2.39664,-9.43015,-14.1288,6.6448,34.6399
2023-03-14 21:23:12:70,1.4342,2.40954,-9.47534,-14.1437,6.66096,34.606
2023-03-14 21:23:12:80,1.50094,2.4206,-9.51116,-14.1524,6.68407,34.5785
2023-03-14 21:23:12:90,1.55104,2.37934,-9.47016,-14.1519,6.70637,34.5574
2023-03-14 21:23:12:100,1.5844,2.30485,-9.34824,-14.1399,6.72606,34.5447
2023-03-14 21:23:12:110,1.54807,2.23415,-9.23073,-14.1293,6.73361,34.5418
2023-03-14 21:23:12:120,1.41844,2.18067,-9.14146,-14.1258,6.73073,34.5504
2023-03-14 21:23:12:130,1.24083,2.17235,-9.07698,-14.137,6.70976,34.5663
2023-03-14 21:23:12:140,1.0944,2.23767,-9.07197,-14.176,6.67277,34.5799
2023-03-14 21:23:12:150,1.05637,2.39323,-9.20091,-14.2429,6.62779,34.5814
2023-03-14 21:23:12:160,1.11072,2.47136,-9.2913,-14.3238,6.58819,34.5689
2023-03-14 21:23:12:170,1.23011,2.5126,-9.45888,-14.4203,6.5491,34.5481
2023-03-14 21:23:12:180,1.41227,2.57986,-9.66579,-14.5131,6.51884,34.5296
2023-03-14 21:23:12:190,1.463,2.56996,-9.64314,-14.5903,6.495,34.5153
2023-03-14 21:23:12:200,1.439,2.44925,-9.42097,-14.6452,6.46639,34.5125
2023-03-14 21:23:12:210,1.38576,2.31148,-9.14348,-14.689,6.43044,34.5147
2023-03-14 21:23:12:220,1.2894,2.17778,-8.89735,-14.7383,6.37923,34.5232
2023-03-14 21:23:12:230,1.13872,2.08125,-8.74411,-14.8045,6.30663,34.5374
2023-03-14 21:23:12:240,1.03044,2.06132,-8.58934,-14.9054,6.2122,34.5475
2023-03-14 21:23:12:250,1.00292,2.00069,-8.44445,-15.0405,6.10307,34.5431
2023-03-14 21:23:12:260,1.07066,1.94117,-8.34909,-15.2155,5.97668,34.524
2023-03-14 21:23:12:270,1.16,1.88589,-8.2996,-15.4287,5.827,34.4948
2023-03-14 21:23:12:280,1.18959,1.80345,-8.27263,-15.681,5.64627,34.4591
2023-03-14 21:23:12:290,1.12939,1.78658,-8.30397,-15.9761,5.43236,34.4299
2023-03-14 21:23:12:300,1.01939,1.84865,-8.37853,-16.318,5.18373,34.3991
2023-03-14 21:23:12:310,0.858373,1.98309,-8.47345,-16.7138,4.89232,34.3678
2023-03-14 21:23:12:320,0.683621,2.19842,-8.65011,-17.162,4.56779,34.3252
2023-03-14 21:23:12:330,0.495023,2.55606,-8.97124,-17.6536,4.22373,34.2727
2023-03-14 21:23:12:340,0.357364,3.09009,-9.47816,-18.1754,3.87333,34.2059
2023-03-14 21:23:12:350,0.306055,3.52001,-9.91267,-18.6807,3.5307,34.1162
2023-03-14 21:23:12:360,0.33961,3.59318,-10.0017,-19.1215,3.20755,34.0106
2023-03-14 21:23:12:370,0.311527,3.47944,-9.72719,-19.4988,2.8815,33.903
2023-03-14 21:23:12:380,0.397685,3.28702,-9.36128,-19.8319,2.56737,33.7857
2023-03-14 21:23:12:390,0.324934,3.23398,-8.9083,-20.154,2.23293,33.6813
2023-03-14 21:23:12:400,0.0308006,3.33575,-8.83456,-20.4944,1.88115,33.5865
2023-03-14 21:23:12:410,-0.225483,3.7023,-9.08912,-20.8731,1.50293,33.4965
2023-03-14 21:23:12:420,-0.370305,4.14641,-9.50795,-21.279,1.12463,33.3922
2023-03-14 21:23:12:430,-0.400817,4.46883,-9.83055,-21.6677,0.766294,33.2766
2023-03-14 21:23:12:440,-0.386119,4.60237,-9.92722,-22.0085,0.44734,33.1475
2023-03-14 21:23:12:450,-0.305693,4.56088,-9.87469,-22.2923,0.169854,33.0167
2023-03-14 21:23:12:460,-0.170211,4.46739,-9.73978,-22.5263,-0.0748652,32.8835
2023-03-14 21:23:12:470,-0.0995885,4.31118,-9.49968,-22.7148,-0.294233,32.7608
2023-03-14 21:23:12:480,-0.117412,4.17053,-9.28519,-22.879,-0.497696,32.6545
2023-03-14 21:23:12:490,-0.207305,4.09321,-9.16172,-23.0369,-0.695947,32.5677
2023-03-14 21:23:12:500,-0.340103,4.08758,-9.11397,-23.1915,-0.883534,32.5022
2023-03-14 21:23:12:510,-0.460281,4.0764,-9.08246,-23.3435,-1.05283,32.4417
2023-03-14 21:23:12:520,-0.602084,4.05603,-8.99113,-23.5022,-1.21205,32.3762
2023-03-14 21:23:12:530,-0.569065,4.15109,-9.07952,-23.674,-1.35086,32.2909
2023-03-14 21:23:12:540,-0.469324,4.29411,-9.23076,-23.855,-1.4683,32.1898
2023-03-14 21:23:12:550,-0.332137,4.33555,-9.3629,-24.0201,-1.56397,32.0724
2023-03-14 21:23:12:560,-0.215038,4.28111,-9.27767,-24.1568,-1.64534,31.9583
2023-03-14 21:23:12:570,-0.157634,4.20099,-9.14054,-24.2712,-1.7169,31.8511
2023-03-14 21:23:12:580,-0.170987,4.1548,-9.00481,-24.3735,-1.79223,31.7633
2023-03-14 21:23:12:590,-0.34796,4.1358,-8.86036,-24.4685,-1.88128,31.6925
2023-03-14 21:23:12:600,-0.644687,4.12911,-8.6735,-24.5604,-1.99731,31.6429
2023-03-14 21:23:12:610,-0.906712,4.16407,-8.71987,-24.6714,-2.12587,31.5959
2023-03-14 21:23:12:620,-1.20102,4.04859,-8.4278,-24.8098,-2.29971,31.5393
2023-03-14 21:23:12:630,-1.646,5.02363,-9.19724,-24.9813,-2.44956,31.4689
2023-03-14 21:23:12:640,-1.67408,5.17708,-10.2188,-25.0755,-2.44621,31.3033
2023-03-14 21:23:12:650,-0.860361,4.30833,-8.76945,-25.12,-2.61698,31.1224
2023-03-14 21:23:12:660,-0.855119,4.68217,-9.32664,-25.1602,-2.64869,30.9362
2023-03-14 21:23:12:670,-1.11561,4.92233,-9.63677,-25.1518,-2.64001,30.7659
2023-03-14 21:23:12:680,-1.32003,4.66145,-9.09835,-25.11,-2.70696,30.5706
2023-03-14 21:23:12:690,-1.32079,4.76989,-9.32905,-25.0546,-2.74834,30.3333
2023-03-14 21:23:12:700,-1.27056,4.77922,-9.6337,-24.9613,-2.75992,30.0564
2023-03-14 21:23:12:710,-1.44268,4.64095,-9.59973,-24.8275,-2.7712,29.7604
2023-03-14 21:23:12:720,-1.74318,4.65924,-9.67427,-24.6648,-2.78502,29.4317
2023-03-14 21:23:12:730,-1.93669,4.73464,-9.88558,-24.4762,-2.80247,29.0527
2023-03-14 21:23:12:740,-1.98056,4.85503,-10.0521,-24.2541,-2.8347,28.607
2023-03-14 21:23:12:750,-1.92832,5.01573,-10.2265,-23.9771,-2.8711,28.0864
2023-03-14 21:23:12:760,-1.97768,5.01231,-10.2815,-23.6246,-2.90873,27.4959
2023-03-14 21:23:12:770,-2.21663,4.83133,-10.1074,-23.1949,-2.96052,26.8407
2023-03-14 21:23:12:780,-2.61203,4.70793,-9.97204,-22.7057,-3.02251,26.1165
2023-03-14 21:23:12:790,-2.92369,4.84716,-10.041,-22.1716,-3.08721,25.3026
2023-03-14 21:23:12:800,-2.7711,5.0228,-10.2166,-21.5881,-3.14415,24.3577
2023-03-14 21:23:12:810,-2.11307,4.88126,-10.1878,-20.9314,-3.18478,23.2895
2023-03-14 21:23:12:820,-1.33707,4.49335,-9.91674,-20.1931,-3.20954,22.1295
2023-03-14 21:23:12:830,-0.923942,4.09439,-9.62372,-19.3964,-3.2158,20.9264
2023-03-14 21:23:12:840,-1.08124,3.87605,-9.42386,-18.5629,-3.21429,19.7178
2023-03-14 21:23:12:850,-1.46116,3.92326,-9.40317,-17.7195,-3.19979,18.4899
2023-03-14 21:23:12:860,-1.52243,3.98235,-9.44998,-16.858,-3.15451,17.2118
2023-03-14 21:23:12:870,-1.14886,3.77943,-9.32756,-15.9601,-3.07198,15.8765
2023-03-14 21:23:12:880,-0.547029,3.36928,-9.05162,-15.0345,-2.94512,14.499
2023-03-14 21:23:12:890,-0.00331589,2.80863,-8.74545,-14.0961,-2.779,13.1153
2023-03-14 21:23:12:900,0.307172,2.42027,-8.61988,-13.1774,-2.58927,11.7595
2023-03-14 21:23:12:910,0.436048,2.32369,-8.67577,-12.3031,-2.39485,10.4418
2023-03-14 21:23:12:920,0.511339,2.23799,-8.6594,-11.4682,-2.19753,9.15284
2023-03-14 21:23:12:930,0.719741,1.99018,-8.5274,-10.6631,-1.98822,7.89707
2023-03-14 21:23:12:940,1.04112,1.6188,-8.40497,-9.88907,-1.7587,6.68744
2023-03-14 21:23:12:950,1.31718,1.29216,-8.37162,-9.16657,-1.51366,5.53346
2023-03-14 21:23:12:960,1.44093,1.15426,-8.52439,-8.50173,-1.26674,4.44892
2023-03-14 21:23:12:970,1.4374,1.14933,-8.74693,-7.89741,-1.0222,3.43338
2023-03-14 21:23:12:980,1.35561,1.10764,-8.8043,-7.32952,-0.777919,2.48239
2023-03-14 21:23:12:990,1.32825,0.906391,-8.67081,-6.79367,-0.538636,1.59682
2023-03-14 21:23:13:0,1.44765,0.636059,-8.53241,-6.30286,-0.30229,0.767382
2023-03-14 21:23:13:10,1.63103,0.405289,-8.51774,-5.86436,-0.0684201,0.00275654
2023-03-14 21:23:13:20,1.65069,0.339527,-8.65672,-5.4893,0.154493,-0.691877
2023-03-14 21:23:13:30,1.40571,0.517106,-8.89056,-5.18035,0.35835,-1.31682
2023-03-14 21:23:13:40,1.1723,0.639557,-9.08433,-4.90908,0.547167,-1.88849
2023-03-14 21:23:13:50,1.20695,0.629601,-9.18176,-4.66244,0.741171,-2.42249
2023-03-14 21:23:13:60,1.31943,0.53974,-9.18678,-4.43012,0.935122,-2.91414
2023-03-14 21:23:13:70,1.36457,0.442429,-9.13572,-4.22227,1.12116,-3.35864
2023-03-14 21:23:13:80,1.38605,0.377259,-9.13545,-4.04268,1.29697,-3.75231
2023-03-14 21:23:13:90,1.39792,0.335114,-9.17488,-3.89009,1.45376,-4.10557
2023-03-14 21:23:13:100,1.37249,0.354102,-9.22657,-3.76843,1.59404,-4.41371
2023-03-14 21:23:13:110,1.32651,0.351023,-9.26966,-3.6732,1.71807,-4.68401
2023-03-14 21:23:13:120,1.31363,0.349059,-9.32607,-3.60031,1.82563,-4.9207
2023-03-14 21:23:13:130,1.36247,0.363518,-9.38696,-3.54813,1.91741,-5.12013
2023-03-14 21:23:13:140,1.40123,0.334324,-9.37999,-3.51486,1.99281,-5.28226
2023-03-14 21:23:13:150,1.41454,0.323588,-9.33926,-3.4985,2.04962,-5.41024
2023-03-14 21:23:13:160,1.41417,0.306215,-9.274,-3.50103,2.09496,-5.50166
2023-03-14 21:23:13:170,1.45516,0.232768,-9.14267,-3.52019,2.12222,-5.55435
2023-03-14 21:23:13:180,1.54536,0.157086,-9.01395,-3.56784,2.13321,-5.57856
2023-03-14 21:23:13:190,1.63116,0.125445,-8.90107,-3.64881,2.1235,-5.55661
2023-03-14 21:23:13:200,1.7652,0.0555122,-8.76715,-3.7678,2.09301,-5.4938
2023-03-14 21:23:13:210,1.92965,-0.0219156,-8.66071,-3.9315,2.0453,-5.38083
2023-03-14 21:23:13:220,2.05692,-0.0287316,-8.59586,-4.15238,1.97479,-5.20876
2023-03-14 21:23:13:230,2.04772,0.0168751,-8.4724,-4.42821,1.87894,-4.96425
2023-03-14 21:23:13:240,2.00657,0.038975,-8.3187,-4.76365,1.769,-4.6513
2023-03-14 21:23:13:250,2.05268,0.0238602,-8.11986,-5.15811,1.65504,-4.27359
2023-03-14 21:23:13:260,2.14925,0.0429885,-7.95379,-5.62493,1.54351,-3.82189
2023-03-14 21:23:13:270,2.24029,0.119965,-7.83307,-6.16749,1.42373,-3.29471
2023-03-14 21:23:13:280,2.17672,0.274345,-7.75032,-6.79741,1.29745,-2.68549
2023-03-14 21:23:13:290,1.93739,0.55437,-7.88208,-7.50901,1.15552,-1.99238
2023-03-14 21:23:13:300,1.78004,1.06602,-8.28619,-8.31377,1.01439,-1.2363
2023-03-14 21:23:13:310,1.85972,1.52749,-8.64131,-9.18128,0.879928,-0.433502
2023-03-14 21:23:13:320,2.02396,1.76252,-8.74825,-10.0771,0.755845,0.430015
2023-03-14 21:23:13:330,2.09568,1.92799,-8.5772,-10.9959,0.622913,1.36218
2023-03-14 21:23:13:340,2.06659,2.06175,-8.37274,-11.9464,0.488859,2.37247
2023-03-14 21:23:13:350,1.77458,2.22869,-8.06393,-12.9366,0.341959,3.46747
2023-03-14 21:23:13:360,1.15725,2.49108,-7.74985,-13.9831,0.184111,4.63282
2023-03-14 21:23:13:370,0.356128,2.80108,-7.55072,-15.0867,0.0170331,5.84675
2023-03-14 21:23:13:379,-0.330359,3.13824,-7.51157,-16.2609,-0.147261,7.06897
2023-03-14 21:23:13:389,-0.60823,3.49832,-7.67752,-17.5004,-0.300874,8.25961
2023-03-14 21:23:13:400,-0.399608,3.81224,-8.01328,-18.7916,-0.440599,9.40091
2023-03-14 21:23:13:410,0.015716,4.05446,-8.31188,-20.1061,-0.573783,10.5167
2023-03-14 21:23:13:420,0.1318,4.32082,-8.55302,-21.4357,-0.707098,11.6325
2023-03-14 21:23:13:430,-0.546039,4.77163,-8.92664,-22.7689,-0.844174,12.7785
2023-03-14 21:23:13:440,-1.73752,5.66958,-9.61739,-24.1003,-0.962931,13.9387
2023-03-14 21:23:13:450,-2.56854,6.63097,-10.6169,-25.3856,-1.03621,15.0305
2023-03-14 21:23:13:460,-2.7653,7.27188,-11.4291,-26.5434,-1.05922,15.9921
2023-03-14 21:23:13:470,-2.54708,7.45985,-11.7044,-27.5132,-1.04521,16.8257
2023-03-14 21:23:13:480,-2.22474,7.18853,-11.3222,-28.2729,-1.01788,17.555
2023-03-14 21:23:13:489,-2.00312,6.73021,-10.5882,-28.8434,-0.976786,18.2003
2023-03-14 21:23:13:500,-1.87334,6.27198,-9.79583,-29.2903,-0.938224,18.7758
2023-03-14 21:23:13:510,-1.81772,5.88242,-9.22191,-29.6682,-0.919794,19.2943
2023-03-14 21:23:13:520,-1.98567,5.82189,-9.05657,-30.0259,-0.927479,19.7601
2023-03-14 21:23:13:530,-2.2979,6.14845,-9.25249,-30.3807,-0.967539,20.168
2023-03-14 21:23:13:540,-2.31583,6.42646,-9.58578,-30.7094,-1.02597,20.4792
2023-03-14 21:23:13:550,-1.9748,6.45091,-9.75988,-30.9693,-1.09373,20.6937
2023-03-14 21:23:13:560,-1.61373,6.28256,-9.65584,-31.1465,-1.15822,20.8347
2023-03-14 21:23:13:570,-1.38851,6.07144,-9.41472,-31.2538,-1.21482,20.9243
2023-03-14 21:23:13:580,-1.19977,5.88993,-9.17767,-31.306,-1.27567,20.9683
2023-03-14 21:23:13:590,-0.992326,5.70869,-8.9891,-31.3222,-1.33821,20.9761
2023-03-14 21:23:13:600,-0.822304,5.58446,-8.80863,-31.3151,-1.40393,20.9572
2023-03-14 21:23:13:610,-0.726592,5.48204,-8.66547,-31.2943,-1.46948,20.9239
2023-03-14 21:23:13:619,-0.658882,5.40297,-8.55776,-31.2607,-1.53085,20.875
2023-03-14 21:23:13:629,-0.582106,5.49795,-8.66843,-31.2143,-1.57106,20.816
2023-03-14 21:23:13:639,-0.460288,5.43041,-8.7618,-31.1307,-1.55413,20.7389
2023-03-14 21:23:13:649,-0.416832,4.95218,-8.14575,-31.0361,-1.58007,20.6598
2023-03-14 21:23:13:660,-0.264148,4.87307,-8.1424,-30.9671,-1.60141,20.5895
2023-03-14 21:23:13:670,-0.558449,5.04541,-8.27313,-30.9093,-1.60444,20.5168
2023-03-14 21:23:13:680,-0.256613,4.68172,-8.0886,-30.8505,-1.61897,20.4096
2023-03-14 21:23:13:690,-0.14416,4.89967,-7.95543,-30.8214,-1.63569,20.3561
2023-03-14 21:23:13:700,-0.48978,5.06791,-8.51897,-30.7864,-1.58483,20.2675
2023-03-14 21:23:13:710,-0.448214,4.94993,-8.25911,-30.7348,-1.5586,20.1909
2023-03-14 21:23:13:720,-0.324292,4.84086,-8.19981,-30.6905,-1.52563,20.0951
2023-03-14 21:23:13:730,-0.229527,4.80912,-8.20288,-30.6578,-1.48485,19.993
2023-03-14 21:23:13:740,-0.196134,4.83958,-8.20646,-30.6413,-1.44979,19.8891
2023-03-14 21:23:13:750,-0.164699,4.91585,-8.3083,-30.6312,-1.41806,19.778
2023-03-14 21:23:13:760,-0.0993796,4.93741,-8.36517,-30.623,-1.38556,19.6644
2023-03-14 21:23:13:770,-0.0247855,4.91531,-8.33443,-30.6197,-1.3584,19.5498
2023-03-14 21:23:13:780,0.0238352,4.95407,-8.39437,-30.618,-1.33108,19.4436
2023-03-14 21:23:13:790,0.0217646,4.99544,-8.45519,-30.6161,-1.30385,19.347
2023-03-14 21:23:13:800,-0.023986,4.9873,-8.43795,-30.6126,-1.28233,19.2556
2023-03-14 21:23:13:810,-0.104315,4.98834,-8.41269,-30.605,-1.27178,19.1794
2023-03-14 21:23:13:820,-0.159176,5.0001,-8.38183,-30.606,-1.27346,19.0966
2023-03-14 21:23:13:830,-0.185463,5.05502,-8.42135,-30.6079,-1.28321,19.0185
2023-03-14 21:23:13:840,-0.213245,5.12141,-8.50076,-30.608,-1.29861,18.9366
2023-03-14 21:23:13:850,-0.245038,5.10493,-8.48558,-30.5992,-1.3224,18.8523
2023-03-14 21:23:13:860,-0.26984,5.11755,-8.48968,-30.5869,-1.35141,18.7689
2023-03-14 21:23:13:870,-0.30166,5.13481,-8.515,-30.5652,-1.3844,18.6863
2023-03-14 21:23:13:880,-0.350732,5.12576,-8.4914,-30.5363,-1.42183,18.6078
2023-03-14 21:23:13:890,-0.394758,5.0898,-8.46187,-30.5028,-1.46362,18.5232
2023-03-14 21:23:13:900,-0.400892,5.06326,-8.44309,-30.4585,-1.50521,18.4341
2023-03-14 21:23:13:910,-0.381485,5.0395,-8.42718,-30.4125,-1.5501,18.3449
2023-03-14 21:23:13:920,-0.366073,5.01188,-8.44384,-30.3626,-1.5925,18.254
2023-03-14 21:23:13:930,-0.331596,5.00218,-8.46615,-30.3093,-1.64099,18.1676
2023-03-14 21:23:13:940,-0.281968,4.96832,-8.45051,-30.2532,-1.68503,18.0816
2023-03-14 21:23:13:950,-0.227861,4.94484,-8.47326,-30.2012,-1.72174,18.0009
2023-03-14 21:23:13:960,-0.178928,4.93473,-8.48858,-30.1498,-1.75177,17.9204
2023-03-14 21:23:13:970,-0.128655,4.90702,-8.46705,-30.0977,-1.77478,17.8464
2023-03-14 21:23:13:980,-0.0911559,4.88754,-8.44803,-30.0502,-1.79696,17.7862
2023-03-14 21:23:13:990,-0.130646,4.95712,-8.48782,-30.0179,-1.81238,17.7356
2023-03-14 21:23:14:0,-0.173253,5.04407,-8.53163,-29.9903,-1.81955,17.6934
2023-03-14 21:23:14:10,-0.181982,5.10523,-8.58395,-29.962,-1.80988,17.656
2023-03-14 21:23:14:20,-0.117589,5.15295,-8.6575,-29.9336,-1.78258,17.618
2023-03-14 21:23:14:30,0.00590067,5.18172,-8.75907,-29.8968,-1.73554,17.5804
2023-03-14 21:23:14:40,0.155566,5.20826,-8.89118,-29.8429,-1.66507,17.5525
2023-03-14 21:23:14:50,0.242527,5.24297,-8.99062,-29.7709,-1.58099,17.5378
2023-03-14 21:23:14:60,0.230369,5.23315,-9.00084,-29.6738,-1.4887,17.5456
2023-03-14 21:23:14:70,0.11768,5.20406,-8.93939,-29.5525,-1.38871,17.5732
2023-03-14 21:23:14:80,0.0233288,5.16444,-8.86485,-29.4115,-1.28394,17.6181
2023-03-14 21:23:14:90,-0.0426087,5.11895,-8.79243,-29.2507,-1.17536,17.6748
2023-03-14 21:23:14:100,-0.132622,5.09872,-8.80138,-29.0808,-1.0668,17.7337
2023-03-14 21:23:14:110,-0.192022,5.11806,-8.88948,-28.8992,-0.960259,17.798
2023-03-14 21:23:14:120,-0.201187,5.1222,-9.00603,-28.6964,-0.846162,17.861
2023-03-14 21:23:14:130,-0.176649,5.13154,-9.0952,-28.4669,-0.727796,17.9246
2023-03-14 21:23:14:140,-0.152172,5.0769,-9.0619,-28.2098,-0.611651,17.989
2023-03-14 21:23:14:150,-0.163881,4.91243,-8.87965,-27.9243,-0.503432,18.0583
2023-03-14 21:23:14:160,-0.189295,4.7469,-8.64694,-27.6217,-0.405462,18.1278
2023-03-14 21:23:14:170,-0.238377,4.62138,-8.53737,-27.3192,-0.320866,18.198
2023-03-14 21:23:14:180,-0.307157,4.6251,-8.60184,-27.0275,-0.245887,18.2662
2023-03-14 21:23:14:190,-0.340495,4.69009,-8.72802,-26.7479,-0.177123,18.3254
2023-03-14 21:23:14:200,-0.365265,4.66215,-8.7841,-26.4625,-0.105758,18.3775
2023-03-14 21:23:14:210,-0.376874,4.56404,-8.72846,-26.1697,-0.0341563,18.423
2023-03-14 21:23:14:220,-0.331991,4.47124,-8.65421,-25.8746,0.0460864,18.4573
2023-03-14 21:23:14:230,-0.186993,4.35272,-8.64644,-25.5783,0.134029,18.4791
2023-03-14 21:23:14:240,-0.0180492,4.22674,-8.66989,-25.2836,0.222149,18.488
2023-03-14 21:23:14:250,0.0959329,4.10724,-8.69231,-24.9937,0.313446,18.4997
2023-03-14 21:23:14:260,0.138275,4.04749,-8.75972,-24.7066,0.408023,18.5178
2023-03-14 21:23:14:270,0.150997,4.04215,-8.85007,-24.4314,0.50078,18.5434
2023-03-14 21:23:14:280,0.149485,3.95945,-8.89647,-24.1577,0.597488,18.5731
2023-03-14 21:23:14:290,0.017629,3.90085,-8.95162,-23.8886,0.690986,18.6072
2023-03-14 21:23:14:300,-0.168018,3.95628,-9.06049,-23.6237,0.784885,18.6348
2023-03-14 21:23:14:310,-0.221335,3.97156,-9.113,-23.3557,0.873949,18.6478
2023-03-14 21:23:14:320,-0.148419,3.88033,-9.09626,-23.0742,0.965512,18.6392
2023-03-14 21:23:14:330,-0.109406,3.78646,-9.08694,-22.7877,1.05074,18.6142
2023-03-14 21:23:14:340,-0.234818,3.73794,-9.16468,-22.4938,1.13553,18.5761
2023-03-14 21:23:14:350,-0.535653,3.74497,-9.26408,-22.1955,1.20891,18.5285
2023-03-14 21:23:14:360,-0.939033,3.78505,-9.36639,-21.8899,1.26836,18.4523
2023-03-14 21:23:14:371,-1.29361,3.85882,-9.5097,-21.5717,1.31761,18.3252
2023-03-14 21:23:14:380,-1.54628,3.84694,-9.5703,-21.2269,1.35105,18.1242
2023-03-14 21:23:14:390,-1.86621,3.85936,-9.62481,-20.8535,1.36218,17.8398
2023-03-14 21:23:14:399,-2.19611,3.94437,-9.70499,-20.4513,1.348,17.4579
2023-03-14 21:23:14:410,-2.32213,3.98271,-9.7377,-20.0137,1.30757,16.9545
2023-03-14 21:23:14:420,-1.98064,3.89542,-9.72346,-19.5361,1.24016,16.3127
2023-03-14 21:23:14:430,-1.42704,3.69686,-9.66907,-19.0226,1.15683,15.551
2023-03-14 21:23:14:440,-1.12537,3.51916,-9.54757,-18.4784,1.05084,14.7077
2023-03-14 21:23:14:450,-1.10101,3.46465,-9.4961,-17.919,0.924457,13.8049
2023-03-14 21:23:14:460,-1.14777,3.52968,-9.53359,-17.3491,0.785157,12.8391
2023-03-14 21:23:14:470,-1.08165,3.53101,-9.52073,-16.7631,0.650493,11.7995
2023-03-14 21:23:14:480,-0.758863,3.38392,-9.46444,-16.1573,0.534997,10.6972
2023-03-14 21:23:14:490,-0.277623,3.18117,-9.37829,-15.5305,0.452591,9.5461
2023-03-14 21:23:14:500,0.209382,2.94209,-9.30417,-14.893,0.393817,8.37371
2023-03-14 21:23:14:510,0.604873,2.75258,-9.26279,-14.257,0.357982,7.2096
2023-03-14 21:23:14:520,0.844148,2.54224,-9.22146,-13.629,0.340541,6.075
2023-03-14 21:23:14:530,0.911783,2.4466,-9.20489,-13.0103,0.336688,4.98192
2023-03-14 21:23:14:540,0.840173,2.39122,-9.13553,-12.4068,0.350567,3.93683
2023-03-14 21:23:14:550,0.835897,2.18293,-8.93049,-11.8162,0.388283,2.93163
2023-03-14 21:23:14:560,0.968936,1.87749,-8.7609,-11.2431,0.453499,1.96355
2023-03-14 21:23:14:570,1.21368,1.6418,-8.76259,-10.7115,0.549243,1.04788
2023-03-14 21:23:14:580,1.40908,1.49787,-8.90138,-10.2248,0.663844,0.195441
2023-03-14 21:23:14:590,1.41556,1.51295,-9.02497,-9.77779,0.782017,-0.589668
2023-03-14 21:23:14:600,1.35991,1.48531,-9.09217,-9.36263,0.904448,-1.30708
2023-03-14 21:23:14:610,1.35003,1.31988,-9.05455,-8.97422,1.03125,-1.96335
2023-03-14 21:23:14:620,1.28916,1.19677,-9.01581,-8.6116,1.15987,-2.55616
2023-03-14 21:23:14:630,1.21065,1.15928,-9.03809,-8.28839,1.2935,-3.09178
2023-03-14 21:23:14:640,1.16937,1.13148,-9.0751,-7.99645,1.43169,-3.5782
2023-03-14 21:23:14:650,1.14263,1.07882,-9.10466,-7.73031,1.57558,-4.01645
2023-03-14 21:23:14:660,1.11288,1.02259,-9.10634,-7.48801,1.72126,-4.41338
2023-03-14 21:23:14:670,1.15279,0.981383,-9.14972,-7.27367,1.87195,-4.77444
2023-03-14 21:23:14:680,1.16934,0.944706,-9.21723,-7.08455,2.02032,-5.0908
2023-03-14 21:23:14:690,1.09097,0.96785,-9.26798,-6.92208,2.16488,-5.36686
2023-03-14 21:23:14:700,0.99646,0.972132,-9.31985,-6.77876,2.30791,-5.60911
2023-03-14 21:23:14:710,0.953161,0.947795,-9.34452,-6.65318,2.44788,-5.82265
2023-03-14 21:23:14:720,0.978959,0.932284,-9.37157,-6.53868,2.59091,-6.01683
2023-03-14 21:23:14:730,1.08453,0.931403,-9.40886,-6.44038,2.73379,-6.18907
2023-03-14 21:23:14:740,1.16207,0.859721,-9.39242,-6.35277,2.87337,-6.33618
2023-03-14 21:23:14:750,1.20203,0.830868,-9.36343,-6.28019,3.01127,-6.4558
2023-03-14 21:23:14:760,1.23475,0.840619,-9.37875,-6.23015,3.13891,-6.54919
2023-03-14 21:23:14:770,1.19401,0.853762,-9.42855,-6.19759,3.25964,-6.61892
2023-03-14 21:23:14:780,1.02616,0.963922,-9.53245,-6.17798,3.37631,-6.65872
2023-03-14 21:23:14:790,0.852892,1.03422,-9.58609,-6.16825,3.4871,-6.68505
2023-03-14 21:23:14:800,0.831464,1.00942,-9.56813,-6.15973,3.59144,-6.70727
2023-03-14 21:23:14:810,0.920333,1.00509,-9.57228,-6.16395,3.69353,-6.72084
2023-03-14 21:23:14:820,1.06173,1.05167,-9.66383,-6.17566,3.79152,-6.73036
2023-03-14 21:23:14:830,1.23111,1.07713,-9.73982,-6.18955,3.88171,-6.72637
2023-03-14 21:23:14:840,1.37995,1.06209,-9.7232,-6.20378,3.96272,-6.70026
2023-03-14 21:23:14:850,1.41073,0.983323,-9.59555,-6.21196,4.02887,-6.64578
2023-03-14 21:23:14:860,1.30176,0.958253,-9.45162,-6.22633,4.09109,-6.55645
2023-03-14 21:23:14:870,1.15608,0.967466,-9.38311,-6.25129,4.14508,-6.43858
2023-03-14 21:23:14:880,1.02251,1.00847,-9.41081,-6.29707,4.20419,-6.29706
2023-03-14 21:23:14:890,0.918942,1.08545,-9.49631,-6.35176,4.26852,-6.13525
2023-03-14 21:23:14:900,0.921911,1.13923,-9.56105,-6.41579,4.34152,-5.96529
2023-03-14 21:23:14:910,1.0179,1.16744,-9.60837,-6.48651,4.42616,-5.78285
2023-03-14 21:23:14:920,1.15257,1.19247,-9.60421,-6.55528,4.51446,-5.58524
2023-03-14 21:23:14:930,1.33303,1.19359,-9.58354,-6.62694,4.60365,-5.36983
2023-03-14 21:23:14:940,1.49832,1.17193,-9.53355,-6.70004,4.68654,-5.13133
2023-03-14 21:23:14:950,1.62543,1.16149,-9.46024,-6.77312,4.76229,-4.85982
2023-03-14 21:23:14:960,1.76469,1.16055,-9.42281,-6.86027,4.83585,-4.54784
2023-03-14 21:23:14:970,1.88703,1.14576,-9.43456,-6.95544,4.90097,-4.18749
2023-03-14 21:23:14:980,1.97164,1.14123,-9.38291,-7.06111,4.97009,-3.77253
2023-03-14 21:23:14:990,1.97693,1.1397,-9.3535,-7.17546,5.04771,-3.29757
2023-03-14 21:23:15:0,1.99947,1.15175,-9.3736,-7.31313,5.13404,-2.76729
2023-03-14 21:23:15:10,2.04813,1.14383,-9.24844,-7.47511,5.19835,-2.18868
2023-03-14 21:23:15:20,1.99053,1.46798,-9.32526,-7.66939,5.25562,-1.55942
2023-03-14 21:23:15:30,2.18708,1.6769,-9.71953,-7.86718,5.36241,-0.894329
2023-03-14 21:23:15:40,2.41176,1.57249,-9.57203,-8.04288,5.46114,-0.16837
2023-03-14 21:23:15:50,2.23081,1.62402,-9.45037,-8.21002,5.55169,0.635695
2023-03-14 21:23:15:60,1.96223,1.73663,-9.46908,-8.38011,5.64128,1.49939
2023-03-14 21:23:15:70,1.77102,1.79693,-9.46601,-8.55137,5.73572,2.40981
2023-03-14 21:23:15:80,1.6467,1.85432,-9.48155,-8.7307,5.82545,3.35459
2023-03-14 21:23:15:90,1.43461,1.95489,-9.51725,-8.91265,5.91597,4.33921
2023-03-14 21:23:15:100,1.10599,2.06243,-9.53482,-9.0914,6.01032,5.34942
2023-03-14 21:23:15:110,0.836909,2.12572,-9.59831,-9.26486,6.12209,6.36417
2023-03-14 21:23:15:120,0.698381,2.17413,-9.7371,-9.43089,6.2477,7.37204
2023-03-14 21:23:15:130,0.605852,2.22079,-9.84512,-9.58383,6.38253,8.37203
2023-03-14 21:23:15:140,0.466433,2.25227,-9.93342,-9.72165,6.51996,9.35495
2023-03-14 21:23:15:150,0.337534,2.27987,-9.99462,-9.84267,6.65562,10.3053
2023-03-14 21:23:15:160,0.253616,2.26334,-10.0027,-9.94079,6.78353,11.223
2023-03-14 21:23:15:170,0.168434,2.24879,-9.96162,-10.025,6.90271,12.1032
2023-03-14 21:23:15:180,0.0250726,2.22273,-9.91284,-10.0897,7.01312,12.9408
2023-03-14 21:23:15:190,-0.0920394,2.16452,-9.86563,-10.1375,7.11785,13.7283
2023-03-14 21:23:15:200,-0.105472,2.08547,-9.8444,-10.1756,7.21455,14.4589
2023-03-14 21:23:15:210,-0.0746758,1.96774,-9.7267,-10.2101,7.29831,15.128
2023-03-14 21:23:15:220,-0.0176824,1.9853,-9.7708,-10.2494,7.37032,15.7416
2023-03-14 21:23:15:230,0.0854313,2.072,-9.94834,-10.2863,7.44541,16.2981
2023-03-14 21:23:15:240,0.231859,2.03395,-9.97345,-10.3075,7.51135,16.7982
2023-03-14 21:23:15:250,0.29941,1.97657,-9.90237,-10.3098,7.57228,17.25
2023-03-14 21:23:15:260,0.386649,1.88651,-9.82898,-10.2978,7.62638,17.6573
2023-03-14 21:23:15:270,0.447859,1.84294,-9.72211,-10.2827,7.66486,18.0211
2023-03-14 21:23:15:280,0.50894,1.83253,-9.70435,-10.2671,7.69431,18.3419
2023-03-14 21:23:15:290,0.556052,1.81876,-9.64196,-10.252,7.7142,18.6227
2023-03-14 21:23:15:300,0.565515,1.80601,-9.61221,-10.2344,7.72774,18.8681
2023-03-14 21:23:15:310,0.565904,1.80343,-9.58315,-10.2204,7.7343,19.0808
2023-03-14 21:23:15:320,0.606659,1.79068,-9.57523,-10.2083,7.74185,19.2558
2023-03-14 21:23:15:330,0.651725,1.80992,-9.59926,-10.1981,7.75789,19.4015
2023-03-14 21:23:15:340,0.758184,1.78064,-9.6274,-10.1825,7.78507,19.517
2023-03-14 21:23:15:350,0.850689,1.73498,-9.57636,-10.1574,7.82807,19.609
2023-03-14 21:23:15:360,0.863081,1.62742,-9.48052,-10.1269,7.8804,19.6814
2023-03-14 21:23:15:370,0.873267,1.51008,-9.3428,-10.1036,7.93044,19.7404
2023-03-14 21:23:15:380,0.907531,1.42611,-9.18359,-10.098,7.9766,19.7794
2023-03-14 21:23:15:390,0.959988,1.57689,-9.26134,-10.1275,8.01688,19.7943
2023-03-14 21:23:15:400,1.11083,1.85848,-9.78299,-10.1731,8.08917,19.7881
2023-03-14 21:23:15:410,1.39147,1.83023,-9.97819,-10.1945,8.17018,19.7654
2023-03-14 21:23:15:420,1.37919,1.78886,-9.82423,-10.1818,8.25019,19.7512
2023-03-14 21:23:15:429,1.2609,1.78345,-9.76053,-10.1557,8.34203,19.7363
2023-03-14 21:23:15:439,1.28135,1.72158,-9.63472,-10.119,8.42407,19.7124
2023-03-14 21:23:15:450,1.37472,1.65792,-9.54651,-10.0817,8.50463,19.6785
2023-03-14 21:23:15:460,1.40732,1.63138,-9.47782,-10.0497,8.57363,19.6341
2023-03-14 21:23:15:470,1.38312,1.64932,-9.40625,-10.0313,8.62961,19.5798
2023-03-14 21:23:15:480,1.42991,1.7015,-9.44166,-10.0248,8.67705,19.5091
2023-03-14 21:23:15:490,1.58677,1.74076,-9.5468,-10.0266,8.7285,19.4261
2023-03-14 21:23:15:500,1.71967,1.77776,-9.63106,-10.0226,8.7845,19.3401
2023-03-14 21:23:15:510,1.79209,1.75404,-9.60232,-10.0065,8.83656,19.258
2023-03-14 21:23:15:520,1.80632,1.72358,-9.53017,-9.98566,8.88193,19.1828
2023-03-14 21:23:15:530,1.85614,1.6354,-9.49081,-9.96032,8.92784,19.1165
2023-03-14 21:23:15:540,1.84004,1.55926,-9.26067,-9.94548,8.94098,19.0586
2023-03-14 21:23:15:550,1.80373,1.78434,-9.45822,-9.94534,8.95682,19.0068
2023-03-14 21:23:15:560,1.87903,1.85141,-9.68431,-9.9322,8.99965,18.9549
2023-03-14 21:23:15:570,1.958,1.66841,-9.45803,-9.89526,9.03109,18.9183
2023-03-14 21:23:15:580,1.83174,1.64931,-9.31866,-9.8585,9.05969,18.9012
2023-03-14 21:23:15:590,1.76294,1.69537,-9.37157,-9.83155,9.08521,18.8907
2023-03-14 21:23:15:600,1.89122,1.64386,-9.40495,-9.8097,9.11147,18.8844
2023-03-14 21:23:15:610,1.9206,1.65277,-9.41585,-9.79581,9.13047,18.8853
2023-03-14 21:23:15:620,1.8593,1.68699,-9.47601,-9.7818,9.14885,18.8957
2023-03-14 21:23:15:630,1.88882,1.65329,-9.46048,-9.76671,9.1639,18.9124
2023-03-14 21:23:15:640,1.89024,1.6347,-9.46933,-9.7491,9.1765,18.9383
2023-03-14 21:23:15:650,1.81006,1.65097,-9.47637,-9.72887,9.18465,18.9756
2023-03-14 21:23:15:660,1.75409,1.62959,-9.44946,-9.70687,9.19135,19.0188
2023-03-14 21:23:15:670,1.7413,1.58563,-9.42127,-9.68275,9.19092,19.064
2023-03-14 21:23:15:680,1.69856,1.5784,-9.40009,-9.66027,9.18477,19.1122
2023-03-14 21:23:15:690,1.61437,1.56516,-9.37586,-9.64378,9.169,19.1599
2023-03-14 21:23:15:700,1.59083,1.56773,-9.41523,-9.63164,9.14702,19.2
2023-03-14 21:23:15:710,1.6376,1.62302,-9.515,-9.62979,9.12668,19.2388
2023-03-14 21:23:15:720,1.69218,1.63862,-9.59307,-9.62653,9.10276,19.2763
2023-03-14 21:23:15:730,1.72191,1.63141,-9.62589,-9.61557,9.07987,19.3152
2023-03-14 21:23:15:740,1.69367,1.6072,-9.61403,-9.60135,9.05249,19.3589
2023-03-14 21:23:15:750,1.64997,1.5736,-9.58119,-9.58547,9.02047,19.4049
2023-03-14 21:23:15:760,1.60636,1.57575,-9.56021,-9.56816,8.9811,19.4578
2023-03-14 21:23:15:770,1.56175,1.58712,-9.57944,-9.55351,8.94686,19.5125
2023-03-14 21:23:15:780,1.53764,1.59834,-9.57909,-9.53869,8.91351,19.5673
2023-03-14 21:23:15:790,1.4874,1.60165,-9.58264,-9.51997,8.88472,19.6281
2023-03-14 21:23:15:800,1.457,1.59656,-9.57612,-9.49589,8.8608,19.6906
2023-03-14 21:23:15:810,1.44368,1.5415,-9.55258,-9.47231,8.84116,19.7506
2023-03-14 21:23:15:820,1.4357,1.53204,-9.55261,-9.44695,8.83029,19.8091
2023-03-14 21:23:15:830,1.41709,1.51506,-9.53846,-9.41749,8.82546,19.866
2023-03-14 21:23:15:840,1.42965,1.48218,-9.51034,-9.38813,8.83314,19.9193
2023-03-14 21:23:15:850,1.46587,1.45511,-9.51813,-9.36005,8.84491,19.9709
2023-03-14 21:23:15:860,1.50227,1.4438,-9.53217,-9.33413,8.85938,20.0194
2023-03-14 21:23:15:870,1.53818,1.44401,-9.55884,-9.31031,8.87741,20.0647
2023-03-14 21:23:15:880,1.5577,1.45706,-9.5518,-9.2899,8.89659,20.1075
2023-03-14 21:23:15:890,1.57781,1.45869,-9.54959,-9.26973,8.90605,20.1468
2023-03-14 21:23:15:900,1.53611,1.46121,-9.54218,-9.24893,8.91354,20.1871
2023-03-14 21:23:15:910,1.44897,1.47485,-9.5579,-9.23306,8.91517,20.2254
2023-03-14 21:23:15:920,1.41116,1.5103,-9.59445,-9.21768,8.91925,20.2561
2023-03-14 21:23:15:930,1.38126,1.55798,-9.59576,-9.204,8.92151,20.277
2023-03-14 21:23:15:939,1.35464,1.54934,-9.56987,-9.18897,8.9221,20.2878
2023-03-14 21:23:15:950,1.34013,1.53473,-9.54205,-9.17472,8.92396,20.2909
2023-03-14 21:23:15:960,1.35223,1.56016,-9.56089,-9.16015,8.92363,20.2792
2023-03-14 21:23:15:970,1.41423,1.58808,-9.5926,-9.14564,8.92337,20.253
2023-03-14 21:23:15:980,1.55186,1.58944,-9.62155,-9.12891,8.92429,20.2166
2023-03-14 21:23:15:990,1.65015,1.55706,-9.62631,-9.10339,8.92509,20.1782
2023-03-14 21:23:16:0,1.64379,1.53795,-9.58784,-9.07509,8.9177,20.1439
2023-03-14 21:23:16:10,1.60827,1.51435,-9.53866,-9.04441,8.9041,20.1124
2023-03-14 21:23:16:20,1.59473,1.47688,-9.53013,-9.01205,8.89278,20.0825
2023-03-14 21:23:16:30,1.61778,1.44588,-9.54962,-8.97995,8.88109,20.0556
2023-03-14 21:23:16:40,1.63836,1.4311,-9.56412,-8.94984,8.86735,20.0349
2023-03-14 21:23:16:50,1.63621,1.44886,-9.57895,-8.92385,8.85344,20.0169
2023-03-14 21:23:16:60,1.62105,1.44196,-9.59029,-8.89433,8.83797,20.0046
2023-03-14 21:23:16:70,1.60124,1.41967,-9.56895,-8.86308,8.81541,19.9966
2023-03-14 21:23:16:80,1.55345,1.42142,-9.53665,-8.83281,8.79444,19.9952
2023-03-14 21:23:16:90,1.51213,1.43514,-9.53255,-8.80442,8.77132,19.9969
2023-03-14 21:23:16:100,1.49414,1.43039,-9.54451,-8.77917,8.74565,19.998
2023-03-14 21:23:16:110,1.49765,1.43472,-9.54457,-8.75676,8.71906,20.004
2023-03-14 21:23:16:120,1.48513,1.41546,-9.54686,-8.73325,8.68633,20.0148
2023-03-14 21:23:16:130,1.45022,1.41189,-9.54989,-8.7133,8.6521,20.0316
2023-03-14 21:23:16:140,1.45122,1.39966,-9.54513,-8.69455,8.61571,20.0461
2023-03-14 21:23:16:150,1.45796,1.39771,-9.54884,-8.67725,8.5813,20.0642
2023-03-14 21:23:16:160,1.45856,1.38604,-9.57639,-8.66098,8.5413,20.0876
2023-03-14 21:23:16:170,1.47188,1.37647,-9.63223,-8.64513,8.50385,20.117
2023-03-14 21:23:16:180,1.50145,1.36433,-9.64846,-8.62663,8.46813,20.1596
2023-03-14 21:23:16:190,1.49846,1.32809,-9.67,-8.60422,8.42888,20.2111
2023-03-14 21:23:16:200,1.4699,1.31708,-9.69164,-8.58075,8.39136,20.2737
2023-03-14 21:23:16:210,1.46559,1.31445,-9.6889,-8.55338,8.35461,20.3481
2023-03-14 21:23:16:220,1.48028,1.27298,-9.6727,-8.5237,8.31547,20.4324
2023-03-14 21:23:16:230,1.48973,1.26867,-9.66052,-8.49821,8.27117,20.5304
2023-03-14 21:23:16:240,1.46661,1.27847,-9.63542,-8.47509,8.2238,20.6387
2023-03-14 21:23:16:250,1.40415,1.27252,-9.61485,-8.45238,8.17353,20.7633
2023-03-14 21:23:16:260,1.36941,1.29872,-9.62484,-8.4435,8.12362,20.8995
2023-03-14 21:23:16:270,1.33562,1.33257,-9.64081,-8.44321,8.07115,21.0404
2023-03-14 21:23:16:280,1.26713,1.37322,-9.66797,-8.44989,8.02043,21.1969
2023-03-14 21:23:16:290,1.19236,1.44547,-9.71268,-8.45783,7.97915,21.3602
2023-03-14 21:23:16:300,1.11336,1.48511,-9.72536,-8.46426,7.94489,21.528
2023-03-14 21:23:16:310,1.06921,1.49647,-9.69363,-8.46831,7.92673,21.6929
2023-03-14 21:23:16:320,1.08043,1.49017,-9.65956,-8.46877,7.92702,21.8559
2023-03-14 21:23:16:330,1.15028,1.47138,-9.6149,-8.46745,7.95114,22.0065
2023-03-14 21:23:16:340,1.21479,1.46006,-9.59036,-8.46245,7.98807,22.1504
2023-03-14 21:23:16:350,1.23699,1.45934,-9.57013,-8.44874,8.04061,22.2825
2023-03-14 21:23:16:360,1.24353,1.49803,-9.54451,-8.43313,8.10648,22.4053
2023-03-14 21:23:16:370,1.3083,1.54117,-9.51513,-8.41248,8.18663,22.5089
2023-03-14 21:23:16:380,1.43133,1.51639,-9.47271,-8.38065,8.28332,22.5926
2023-03-14 21:23:16:390,1.53184,1.46289,-9.34673,-8.34056,8.38156,22.6665
2023-03-14 21:23:16:400,1.60982,1.39634,-9.17637,-8.29417,8.48412,22.7303
2023-03-14 21:23:16:410,1.73185,1.33047,-9.05461,-8.25931,8.58763,22.7779
2023-03-14 21:23:16:420,1.83776,1.30898,-9.01958,-8.24342,8.67861,22.8191
2023-03-14 21:23:16:430,1.92393,1.35445,-9.07459,-8.24931,8.75354,22.8564
2023-03-14 21:23:16:440,1.95741,1.41008,-9.16709,-8.27419,8.80672,22.8943
2023-03-14 21:23:16:450,1.93137,1.48046,-9.27968,-8.31522,8.83861,22.9342
2023-03-14 21:23:16:460,1.91584,1.5091,-9.41007,-8.36454,8.85565,22.9778
2023-03-14 21:23:16:470,1.87769,1.53549,-9.47977,-8.41861,8.85167,23.0237
2023-03-14 21:23:16:480,1.8285,1.57266,-9.55306,-8.476,8.83466,23.0694
2023-03-14 21:23:16:490,1.77008,1.62815,-9.60945,-8.54118,8.80701,23.1185
2023-03-14 21:23:16:500,1.6984,1.6693,-9.65435,-8.59913,8.77724,23.1722
2023-03-14 21:23:16:510,1.70763,1.6937,-9.72372,-8.65241,8.73899,23.2262
2023-03-14 21:23:16:520,1.76272,1.69983,-9.78446,-8.69824,8.6994,23.2833
2023-03-14 21:23:16:530,1.72381,1.68169,-9.77536,-8.72999,8.66108,23.3465
2023-03-14 21:23:16:540,1.62752,1.63728,-9.7273,-8.7494,8.61614,23.4271
2023-03-14 21:23:16:550,1.55966,1.56153,-9.70171,-8.75886,8.56177,23.5154
2023-03-14 21:23:16:560,1.49404,1.5015,-9.66461,-8.76793,8.50683,23.6123
2023-03-14 21:23:16:570,1.38089,1.48266,-9.65766,-8.76947,8.44536,23.7201
2023-03-14 21:23:16:580,1.24421,1.44168,-9.64174,-8.77129,8.38218,23.8351
2023-03-14 21:23:16:590,1.13449,1.40628,-9.61956,-8.76989,8.32245,23.9502
2023-03-14 21:23:16:600,1.06682,1.39679,-9.57758,-8.77024,8.26605,24.0655
2023-03-14 21:23:16:610,1.01918,1.40436,-9.53029,-8.7779,8.22247,24.1707
2023-03-14 21:23:16:620,1.00053,1.40855,-9.53653,-8.7875,8.18572,24.2743
2023-03-14 21:23:16:630,1.0233,1.43478,-9.56774,-8.80357,8.15843,24.3735
2023-03-14 21:23:16:640,1.05892,1.44164,-9.57415,-8.81779,8.14378,24.4702
2023-03-14 21:23:16:650,1.05627,1.441,-9.54239,-8.83463,8.13711,24.5614
2023-03-14 21:23:16:660,1.01284,1.43382,-9.50416,-8.84961,8.13723,24.6494
2023-03-14 21:23:16:670,0.992919,1.45418,-9.46129,-8.86528,8.14553,24.7323
2023-03-14 21:23:16:680,1.04118,1.4575,-9.50173,-8.88662,8.1678,24.8071
2023-03-14 21:23:16:690,1.13877,1.42924,-9.54343,-8.908,8.19668,24.8706
2023-03-14 21:23:16:700,1.19095,1.40989,-9.56117,-8.92832,8.22999,24.9325
2023-03-14 21:23:16:710,1.22424,1.42109,-9.57521,-8.94997,8.26924,24.9834
2023-03-14 21:23:16:720,1.23708,1.41196,-9.56547,-8.97494,8.30941,25.0286
2023-03-14 21:23:16:730,1.27669,1.41454,-9.53555,-9.00398,8.34851,25.0605
2023-03-14 21:23:16:740,1.34369,1.42,-9.49675,-9.04139,8.39128,25.08
2023-03-14 21:23:16:750,1.42561,1.42323,-9.47668,-9.082,8.43335,25.0902
2023-03-14 21:23:16:760,1.48932,1.4837,-9.47822,-9.12862,8.47028,25.0903
2023-03-14 21:23:16:770,1.52596,1.53602,-9.52609,-9.18184,8.50512,25.0855
2023-03-14 21:23:16:780,1.56633,1.56377,-9.55782,-9.23464,8.53424,25.0751
2023-03-14 21:23:16:790,1.59322,1.56688,-9.5513,-9.2845,8.56016,25.0617
2023-03-14 21:23:16:800,1.59415,1.56953,-9.47772,-9.33737,8.5823,25.0444
2023-03-14 21:23:16:810,1.63164,1.58565,-9.41806,-9.39726,8.60216,25.0226
2023-03-14 21:23:16:820,1.7177,1.59852,-9.40724,-9.46311,8.62083,24.9974
2023-03-14 21:23:16:830,1.78079,1.60528,-9.38513,-9.53006,8.63169,24.9685
2023-03-14 21:23:16:840,1.82031,1.6293,-9.36108,-9.60715,8.63169,24.9412
2023-03-14 21:23:16:850,1.85317,1.65243,-9.37842,-9.68984,8.61995,24.9187
2023-03-14 21:23:16:860,1.84278,1.69465,-9.44426,-9.77733,8.59401,24.9062
2023-03-14 21:23:16:870,1.79066,1.7354,-9.52036,-9.86842,8.55989,24.9027
2023-03-14 21:23:16:880,1.7635,1.76783,-9.56577,-9.96108,8.52097,24.9107
2023-03-14 21:23:16:890,1.71053,1.78316,-9.58128,-10.058,8.47195,24.9252
2023-03-14 21:23:16:900,1.62014,1.77805,-9.56271,-10.1538,8.41684,24.948
2023-03-14 21:23:16:910,1.50429,1.78813,-9.53744,-10.2439,8.35868,24.9803
2023-03-14 21:23:16:920,1.38282,1.8008,-9.54062,-10.3342,8.30315,25.0202
2023-03-14 21:23:16:930,1.30777,1.77937,-9.55994,-10.4233,8.25092,25.0595
2023-03-14 21:23:16:940,1.2883,1.75344,-9.60538,-10.5111,8.20751,25.0942
2023-03-14 21:23:16:950,1.26646,1.76063,-9.62759,-10.5946,8.17138,25.1298
2023-03-14 21:23:16:960,1.21758,1.76418,-9.6327,-10.6796,8.13423,25.1628
2023-03-14 21:23:16:970,1.13063,1.79357,-9.66318,-10.7663,8.09776,25.1926
2023-03-14 21:23:16:980,1.05652,1.86745,-9.71609,-10.8488,8.0737,25.2142
2023-03-14 21:23:16:990,1.03663,1.9274,-9.78858,-10.9236,8.05416,25.2245
2023-03-14 21:23:17:0,1.03826,1.94038,-9.84076,-10.9854,8.04322,25.2253
2023-03-14 21:23:17:10,1.03259,1.91238,-9.78213,-11.0282,8.04159,25.216
2023-03-14 21:23:17:20,1.01395,1.85951,-9.6933,-11.0593,8.04259,25.1918
2023-03-14 21:23:17:30,0.914004,1.86991,-9.64816,-11.0869,8.04853,25.1577
2023-03-14 21:23:17:40,0.920815,1.88831,-9.57001,-11.113,8.055,25.1112
2023-03-14 21:23:17:50,1.02447,1.82749,-9.44832,-11.1331,8.06492,25.0414
2023-03-14 21:23:17:60,1.11024,1.77567,-9.34442,-11.1576,8.08106,24.9562
2023-03-14 21:23:17:70,1.21186,1.77801,-9.34728,-11.1887,8.09835,24.8554
2023-03-14 21:23:17:80,1.34853,1.79421,-9.40697,-11.2271,8.11226,24.738
2023-03-14 21:23:17:90,1.46844,1.79496,-9.451,-11.2702,8.12418,24.6142
2023-03-14 21:23:17:100,1.48264,1.78244,-9.42244,-11.3116,8.12947,24.4887
2023-03-14 21:23:17:110,1.48874,1.75623,-9.38073,-11.3555,8.12822,24.3628
2023-03-14 21:23:17:120,1.52925,1.71804,-9.30792,-11.404,8.11369,24.2332
2023-03-14 21:23:17:130,1.52,1.64559,-9.14943,-11.4624,8.08338,24.1008
2023-03-14 21:23:17:140,1.48,1.59968,-9.05083,-11.5372,8.03829,23.9688
2023-03-14 21:23:17:150,1.46026,1.60862,-9.00376,-11.6328,7.98356,23.8302
2023-03-14 21:23:17:160,1.51958,1.60282,-8.97959,-11.7498,7.91517,23.6849
2023-03-14 21:23:17:170,1.62681,1.59353,-8.96281,-11.8879,7.83193,23.5307
2023-03-14 21:23:17:180,1.71971,1.59579,-8.9056,-12.0501,7.73775,23.3713
2023-03-14 21:23:17:190,1.73241,1.61363,-8.85843,-12.2309,7.62974,23.2128
2023-03-14 21:23:17:200,1.69352,1.65399,-8.86277,-12.4449,7.50212,23.0617
2023-03-14 21:23:17:210,1.63601,1.73039,-8.94127,-12.6906,7.35229,22.9149
2023-03-14 21:23:17:220,1.64093,1.84654,-9.04863,-12.9609,7.18482,22.7749
2023-03-14 21:23:17:230,1.66112,1.93867,-9.23409,-13.2465,7.00463,22.6382
2023-03-14 21:23:17:240,1.56248,2.0329,-9.3999,-13.5416,6.80957,22.5148
2023-03-14 21:23:17:250,1.40036,2.16379,-9.5383,-13.8334,6.60538,22.4076
2023-03-14 21:23:17:260,1.27775,2.40583,-9.82025,-14.1264,6.40951,22.3104
2023-03-14 21:23:17:270,1.25871,2.74248,-10.2006,-14.4084,6.23957,22.2189
2023-03-14 21:23:17:280,1.32187,2.97349,-10.4273,-14.644,6.10959,22.1364
2023-03-14 21:23:17:290,1.3173,3.03386,-10.3525,-14.8218,6.01346,22.0717
2023-03-14 21:23:17:300,1.25809,2.93072,-10.0256,-14.9322,5.94807,22.0306
2023-03-14 21:23:17:310,1.24554,2.76363,-9.674,-14.9993,5.91437,22.0078
2023-03-14 21:23:17:320,1.24864,2.60106,-9.43471,-15.049,5.89515,22.0043
2023-03-14 21:23:17:330,1.22693,2.567,-9.28685,-15.1027,5.88911,22.0158
2023-03-14 21:23:17:340,1.23829,2.57043,-9.24852,-15.1617,5.88805,22.0377
2023-03-14 21:23:17:350,1.25859,2.5973,-9.33067,-15.2307,5.88697,22.0713
2023-03-14 21:23:17:360,1.21793,2.75235,-9.55599,-15.3169,5.88236,22.112
2023-03-14 21:23:17:370,1.14871,2.90155,-9.80995,-15.4077,5.87539,22.1634
2023-03-14 21:23:17:380,1.07989,2.98521,-9.97594,-15.4844,5.87193,22.2203
2023-03-14 21:23:17:390,1.01254,3.0057,-10.0178,-15.535,5.87707,22.2815
2023-03-14 21:23:17:400,1.07432,2.94178,-9.99359,-15.5525,5.88703,22.3404
2023-03-14 21:23:17:410,1.21443,2.8479,-9.92934,-15.5474,5.90301,22.4022
2023-03-14 21:23:17:420,1.20742,2.74282,-9.79142,-15.5257,5.90784,22.4776
2023-03-14 21:23:17:430,1.08627,2.7055,-9.74923,-15.4894,5.90642,22.5693
2023-03-14 21:23:17:440,0.837251,2.75818,-9.80655,-15.4413,5.90011,22.6739
2023-03-14 21:23:17:450,0.552729,2.83079,-9.92762,-15.3751,5.90128,22.7748
2023-03-14 21:23:17:460,0.431889,2.90347,-9.99149,-15.2822,5.90582,22.8613
2023-03-14 21:23:17:470,0.446012,2.82321,-9.92167,-15.1477,5.92952,22.9222
2023-03-14 21:23:17:480,0.485247,2.69671,-9.73503,-14.9789,5.9784,22.9666
2023-03-14 21:23:17:490,0.56437,2.56563,-9.58554,-14.7818,6.0449,22.9976
2023-03-14 21:23:17:500,0.606813,2.52185,-9.52725,-14.576,6.11846,23.0137
2023-03-14 21:23:17:510,0.707651,2.49227,-9.53237,-14.3587,6.20065,23.014
2023-03-14 21:23:17:520,0.859897,2.41345,-9.49014,-14.1358,6.28552,23.0003
2023-03-14 21:23:17:530,0.992222,2.30731,-9.44563,-13.908,6.37074,22.9859
2023-03-14 21:23:17:540,0.993079,2.23453,-9.4344,-13.6826,6.44547,22.9752
2023-03-14 21:23:17:550,0.902953,2.267,-9.49034,-13.4661,6.51709,22.9677
2023-03-14 21:23:17:560,0.900926,2.32264,-9.52144,-13.2564,6.59704,22.9533
2023-03-14 21:23:17:570,1.01331,2.24143,-9.45525,-13.0407,6.6888,22.9249
2023-03-14 21:23:17:580,1.14633,2.0857,-9.29193,-12.8191,6.78865,22.8881
2023-03-14 21:23:17:590,1.252,1.97472,-9.1459,-12.6061,6.88726,22.8504
2023-03-14 21:23:17:600,1.36446,1.94989,-9.09818,-12.4178,6.98438,22.8147
2023-03-14 21:23:17:610,1.49514,1.955,-9.11774,-12.2525,7.06674,22.7775
2023-03-14 21:23:17:620,1.56495,1.95862,-9.21328,-12.108,7.13308,22.7502
2023-03-14 21:23:17:630,1.50795,2.01963,-9.34479,-11.982,7.18162,22.7385
2023-03-14 21:23:17:640,1.45791,2.0818,-9.50332,-11.8592,7.22197,22.7417
2023-03-14 21:23:17:650,1.45348,2.08168,-9.56901,-11.7373,7.25788,22.7533
2023-03-14 21:23:17:660,1.40798,1.99564,-9.4867,-11.6048,7.29356,22.7696
2023-03-14 21:23:17:670,1.30386,1.90896,-9.3473,-11.4678,7.32915,22.7959
2023-03-14 21:23:17:680,1.23451,1.84547,-9.22883,-11.3351,7.36717,22.8305
2023-03-14 21:23:17:690,1.23331,1.79895,-9.20148,-11.2164,7.41188,22.8683
2023-03-14 21:23:17:700,1.27301,1.83818,-9.29355,-11.1155,7.45955,22.9039
2023-03-14 21:23:17:710,1.3176,1.89901,-9.41272,-11.0278,7.50769,22.9399
2023-03-14 21:23:17:720,1.31127,1.90834,-9.50043,-10.9409,7.54775,22.9796
2023-03-14 21:23:17:730,1.25502,1.8949,-9.5156,-10.8557,7.58196,23.0212
2023-03-14 21:23:17:740,1.14603,1.91469,-9.50004,-10.7717,7.61185,23.0649
2023-03-14 21:23:17:750,1.04944,1.8923,-9.48707,-10.6818,7.64573,23.1027
2023-03-14 21:23:17:760,1.0311,1.87924,-9.46474,-10.5932,7.69876,23.1218
2023-03-14 21:23:17:770,1.14071,1.85409,-9.49862,-10.5049,7.768,23.125
2023-03-14 21:23:17:780,1.3193,1.82413,-9.49555,-10.416,7.84787,23.1158
2023-03-14 21:23:17:790,1.43568,1.82071,-9.48814,-10.3335,7.92956,23.0944
2023-03-14 21:23:17:800,1.56618,1.78878,-9.49819,-10.2549,8.00835,23.0695
2023-03-14 21:23:17:810,1.62383,1.73871,-9.45487,-10.1799,8.07381,23.0476
2023-03-14 21:23:17:820,1.58308,1.72309,-9.42053,-10.1108,8.12277,23.0338
2023-03-14 21:23:17:830,1.48581,1.78349,-9.47297,-10.0547,8.15816,23.0223
2023-03-14 21:23:17:840,1.46961,1.82505,-9.55076,-10.004,8.18466,23.0032
2023-03-14 21:23:17:850,1.49854,1.80567,-9.55957,-9.95424,8.20067,22.9788
2023-03-14 21:23:17:860,1.51124,1.75387,-9.56204,-9.89924,8.21672,22.9524
2023-03-14 21:23:17:870,1.51604,1.71967,-9.50673,-9.84818,8.23171,22.9199
2023-03-14 21:23:17:880,1.55686,1.65941,-9.47334,-9.7943,8.2425,22.8867
2023-03-14 21:23:17:890,1.58785,1.63347,-9.48181,-9.74341,8.24503,22.8517
2023-03-14 21:23:17:900,1.58141,1.64297,-9.49639,-9.70118,8.23891,22.8146
2023-03-14 21:23:17:910,1.57542,1.6539,-9.50337,-9.66343,8.23516,22.7799
2023-03-14 21:23:17:920,1.55289,1.62323,-9.48724,-9.62265,8.22906,22.7414
2023-03-14 21:23:17:930,1.50759,1.5999,-9.42237,-9.58564,8.22164,22.7046
2023-03-14 21:23:17:940,1.45317,1.58155,-9.36709,-9.55181,8.21567,22.667
2023-03-14 21:23:17:950,1.4696,1.54939,-9.3585,-9.51929,8.20842,22.6175
2023-03-14 21:23:17:960,1.47984,1.55731,-9.39176,-9.49416,8.20473,22.5632
2023-03-14 21:23:17:970,1.50583,1.54329,-9.41412,-9.47274,8.20186,22.4987
2023-03-14 21:23:17:980,1.55828,1.51718,-9.41267,-9.45632,8.20063,22.4256
2023-03-14 21:23:17:990,1.6057,1.51443,-9.40796,-9.44124,8.19859,22.3462
2023-03-14 21:23:18:0,1.6042,1.50453,-9.41243,-9.42595,8.18784,22.2638
2023-03-14 21:23:18:10,1.58874,1.48709,-9.39717,-9.41802,8.17427,22.1786
2023-03-14 21:23:18:20,1.6026,1.46059,-9.39377,-9.41082,8.15403,22.0938
2023-03-14 21:23:18:30,1.66006,1.42619,-9.40758,-9.40906,8.12271,22.0056
2023-03-14 21:23:18:40,1.74613,1.43758,-9.48385,-9.41745,8.07312,21.9161
2023-03-14 21:23:18:50,1.84154,1.4701,-9.62842,-9.43426,8.00756,21.8314
2023-03-14 21:23:18:60,1.87332,1.4597,-9.69005,-9.44935,7.91901,21.7602
2023-03-14 21:23:18:70,1.80838,1.45737,-9.68555,-9.45755,7.80779,21.7101
2023-03-14 21:23:18:80,1.63764,1.48805,-9.64845,-9.46792,7.66759,21.6839
2023-03-14 21:23:18:90,1.37982,1.53543,-9.57158,-9.47651,7.50886,21.6815
2023-03-14 21:23:18:100,1.10522,1.56059,-9.45426,-9.48608,7.34803,21.6946
2023-03-14 21:23:18:110,0.87617,1.53624,-9.36548,-9.49852,7.20131,21.7177
2023-03-14 21:23:18:120,0.744196,1.55002,-9.29802,-9.5197,7.0736,21.7403
2023-03-14 21:23:18:130,0.707569,1.60264,-9.3126,-9.55164,6.97512,21.7507
2023-03-14 21:23:18:140,0.749203,1.66356,-9.37404,-9.59493,6.90974,21.7497
2023-03-14 21:23:18:150,0.870149,1.68617,-9.41187,-9.6464,6.86972,21.7399
2023-03-14 21:23:18:160,1.02703,1.68643,-9.44873,-9.69453,6.8532,21.7283
2023-03-14 21:23:18:170,1.1827,1.6924,-9.52497,-9.74888,6.85055,21.7125
2023-03-14 21:23:18:180,1.30974,1.73118,-9.62802,-9.80761,6.85287,21.6964
2023-03-14 21:23:18:190,1.37564,1.74243,-9.68054,-9.86171,6.84921,21.6884
2023-03-14 21:23:18:200,1.3969,1.72963,-9.70934,-9.91368,6.83394,21.6928
2023-03-14 21:23:18:210,1.34848,1.7533,-9.74547,-9.9624,6.80543,21.7062
2023-03-14 21:23:18:220,1.28549,1.78945,-9.82559,-10.0091,6.76617,21.7362
2023-03-14 21:23:18:230,1.22978,1.80992,-9.88111,-10.0487,6.71509,21.7747
2023-03-14 21:23:18:240,1.11405,1.79138,-9.8863,-10.0761,6.65504,21.8232
2023-03-14 21:23:18:250,0.962233,1.7641,-9.83962,-10.0936,6.59098,21.8822
2023-03-14 21:23:18:260,0.820545,1.77587,-9.78236,-10.1082,6.52265,21.948
2023-03-14 21:23:18:270,0.677859,1.77557,-9.74046,-10.1204,6.45982,22.0128
2023-03-14 21:23:18:280,0.551095,1.76334,-9.68633,-10.1276,6.40546,22.0767
2023-03-14 21:23:18:290,0.469593,1.75362,-9.64445,-10.1295,6.36276,22.1202
2023-03-14 21:23:18:300,0.452488,1.74929,-9.62225,-10.1332,6.33121,22.1524
2023-03-14 21:23:18:310,0.510335,1.73668,-9.58659,-10.136,6.30758,22.1661
2023-03-14 21:23:18:320,0.58506,1.73061,-9.55773,-10.141,6.29716,22.1567
2023-03-14 21:23:18:330,0.707651,1.74207,-9.54462,-10.1477,6.29717,22.1352
2023-03-14 21:23:18:340,0.861365,1.73892,-9.55602,-10.1544,6.3053,22.0972
2023-03-14 21:23:18:350,0.963767,1.72914,-9.55088,-10.1572,6.31524,22.056
2023-03-14 21:23:18:360,1.00906,1.70523,-9.51405,-10.1571,6.3247,22.0113
2023-03-14 21:23:18:370,1.04696,1.67504,-9.47104,-10.16,6.3318,21.9689
2023-03-14 21:23:18:380,1.07358,1.69287,-9.47847,-10.1723,6.33274,21.9246
2023-03-14 21:23:18:390,1.09062,1.70327,-9.52504,-10.1928,6.33043,21.8853
2023-03-14 21:23:18:400,1.09801,1.71107,-9.52134,-10.2166,6.32548,21.8491
2023-03-14 21:23:18:410,1.11987,1.72066,-9.53696,-10.2427,6.31934,21.8105
2023-03-14 21:23:18:420,1.15805,1.74862,-9.6034,-10.2738,6.31382,21.7789
2023-03-14 21:23:18:430,1.17946,1.79694,-9.68104,-10.3067,6.30756,21.7499
2023-03-14 21:23:18:440,1.14304,1.83048,-9.70533,-10.3394,6.29495,21.7294
2023-03-14 21:23:18:450,1.05563,1.84556,-9.6584,-10.3641,6.27963,21.7133
2023-03-14 21:23:18:460,1.00464,1.85395,-9.61717,-10.3842,6.26837,21.698
2023-03-14 21:23:18:470,1.03476,1.84787,-9.5957,-10.4043,6.26305,21.6816
2023-03-14 21:23:18:480,1.09142,1.8562,-9.62661,-10.4235,6.26112,21.667
2023-03-14 21:23:18:490,1.14529,1.83862,-9.64415,-10.4372,6.25905,21.6555
2023-03-14 21:23:18:500,1.14468,1.8164,-9.62423,-10.4481,6.25756,21.648
2023-03-14 21:23:18:510,1.10835,1.80318,-9.63247,-10.4538,6.25249,21.6448
2023-03-14 21:23:18:520,1.04754,1.79894,-9.62736,-10.4544,6.24716,21.6485
2023-03-14 21:23:18:530,1.01818,1.80345,-9.62326,-10.4559,6.2417,21.653
2023-03-14 21:23:18:540,1.00862,1.80063,-9.61406,-10.4559,6.24117,21.6572
2023-03-14 21:23:18:550,0.989783,1.80109,-9.59399,-10.4541,6.24112,21.6596
2023-03-14 21:23:18:560,0.98174,1.7936,-9.56732,-10.4533,6.24938,21.6604
2023-03-14 21:23:18:570,0.998954,1.78805,-9.57153,-10.4545,6.25734,21.6609
2023-03-14 21:23:18:580,1.02791,1.7787,-9.59005,-10.4553,6.26233,21.654
2023-03-14 21:23:18:590,1.04844,1.76614,-9.57616,-10.4514,6.26547,21.6481
2023-03-14 21:23:18:600,1.03997,1.76735,-9.54499,-10.4546,6.26746,21.6384
2023-03-14 21:23:18:610,1.02654,1.78573,-9.55241,-10.4563,6.26835,21.6263
2023-03-14 21:23:18:620,1.02323,1.77788,-9.57036,-10.457,6.27031,21.6149
2023-03-14 21:23:18:630,1.03969,1.76898,-9.58209,-10.4603,6.27491,21.6011
2023-03-14 21:23:18:640,1.06938,1.78878,-9.55287,-10.4591,6.28008,21.5878
2023-03-14 21:23:18:650,1.09172,1.76006,-9.52521,-10.457,6.28674,21.5743
2023-03-14 21:23:18:660,1.08904,1.73247,-9.50751,-10.4578,6.298,21.5598
2023-03-14 21:23:18:670,1.09374,1.75258,-9.51927,-10.4613,6.30602,21.5483
2023-03-14 21:23:18:680,1.09373,1.78803,-9.57852,-10.4671,6.31225,21.5369
2023-03-14 21:23:18:690,1.09516,1.82212,-9.63877,-10.4774,6.31952,21.5256
2023-03-14 21:23:18:700,1.10348,1.83168,-9.64734,-10.4847,6.3301,21.5163
2023-03-14 21:23:18:710,1.12134,1.80848,-9.59076,-10.4848,6.34346,21.506
2023-03-14 21:23:18:720,1.10445,1.79655,-9.55628,-10.4844,6.35379,21.5014
2023-03-14 21:23:18:730,1.11399,1.7983,-9.53748,-10.491,6.36008,21.4937
2023-03-14 21:23:18:740,1.1298,1.80676,-9.52308,-10.4957,6.36703,21.4864
2023-03-14 21:23:18:750,1.12064,1.81304,-9.55053,-10.5047,6.37302,21.4788
2023-03-14 21:23:18:760,1.12025,1.85441,-9.59075,-10.5152,6.3753,21.472
2023-03-14 21:23:18:770,1.11046,1.86774,-9.59761,-10.5171,6.3814,21.4637
2023-03-14 21:23:18:780,1.11152,1.83921,-9.58693,-10.5231,6.38271,21.4519
2023-03-14 21:23:18:790,1.12791,1.82992,-9.57488,-10.5242,6.38776,21.443
2023-03-14 21:23:18:800,1.11671,1.83425,-9.58541,-10.5263,6.38653,21.4367
2023-03-14 21:23:18:810,1.09407,1.833,-9.57032,-10.526,6.38686,21.4315
2023-03-14 21:23:18:820,1.09572,1.82494,-9.54862,-10.5248,6.38661,21.421
2023-03-14 21:23:18:830,1.09299,1.82623,-9.54751,-10.5264,6.38903,21.4129
2023-03-14 21:23:18:840,1.08865,1.82332,-9.56068,-10.5261,6.38671,21.4049
2023-03-14 21:23:18:850,1.09097,1.83291,-9.57602,-10.5256,6.38177,21.3939
2023-03-14 21:23:18:860,1.08322,1.84149,-9.59521,-10.5269,6.37609,21.3832
2023-03-14 21:23:18:870,1.05921,1.83934,-9.60273,-10.5245,6.37282,21.3718
2023-03-14 21:23:18:880,1.05613,1.84787,-9.58774,-10.5252,6.37138,21.3617
2023-03-14 21:23:18:890,1.05361,1.84438,-9.57292,-10.5241,6.37328,21.348
2023-03-14 21:23:18:900,1.03818,1.83093,-9.57975,-10.5263,6.36969,21.3352
2023-03-14 21:23:18:910,1.02501,1.8273,-9.58114,-10.5281,6.36578,21.3189
2023-03-14 21:23:18:920,1.02198,1.82476,-9.57882,-10.5311,6.36377,21.3014
2023-03-14 21:23:18:930,1.01418,1.83193,-9.57326,-10.5341,6.35982,21.2813
2023-03-14 21:23:18:940,1.02061,1.86339,-9.57941,-10.5375,6.36402,21.2609
2023-03-14 21:23:18:950,1.01529,1.84476,-9.55272,-10.5368,6.37117,21.2369
2023-03-14 21:23:18:960,1.00113,1.83362,-9.51948,-10.5374,6.37516,21.2098
2023-03-14 21:23:18:970,1.00359,1.85715,-9.51508,-10.5388,6.37486,21.1779
2023-03-14 21:23:18:980,1.01167,1.86162,-9.52753,-10.5443,6.37392,21.1473
2023-03-14 21:23:18:990,1.00561,1.8694,-9.55875,-10.5533,6.37944,21.1128
2023-03-14 21:23:19:0,1.02081,1.87883,-9.60497,-10.5608,6.37909,21.0763
2023-03-14 21:23:19:10,1.08282,1.89014,-9.62734,-10.5703,6.38103,21.035
2023-03-14 21:23:19:20,1.12946,1.88345,-9.62431,-10.5785,6.37795,20.9895
2023-03-14 21:23:19:30,1.12266,1.87326,-9.60535,-10.5849,6.37612,20.9457
2023-03-14 21:23:19:40,1.09437,1.87835,-9.58813,-10.5919,6.36744,20.9079
2023-03-14 21:23:19:50,1.06109,1.89256,-9.59426,-10.6011,6.36016,20.8701
2023-03-14 21:23:19:60,1.03704,1.90214,-9.57604,-10.6102,6.35113,20.8338
2023-03-14 21:23:19:70,1.00276,1.91994,-9.57496,-10.6211,6.34287,20.794
2023-03-14 21:23:19:80,0.971626,1.95147,-9.55986,-10.6338,6.33679,20.7555
2023-03-14 21:23:19:90,0.981095,1.95935,-9.57801,-10.65,6.33294,20.7135
2023-03-14 21:23:19:100,0.98834,1.98202,-9.59062,-10.6643,6.33334,20.6695
2023-03-14 21:23:19:110,1.03699,2.00833,-9.592,-10.6752,6.32973,20.6252
2023-03-14 21:23:19:120,1.08951,2.02457,-9.60001,-10.683,6.32776,20.5812
2023-03-14 21:23:19:130,1.08703,2.02014,-9.60175,-10.6845,6.32776,20.5346
2023-03-14 21:23:19:140,1.07026,2.03581,-9.62737,-10.6802,6.32488,20.4965
2023-03-14 21:23:19:150,1.07843,2.01893,-9.62291,-10.6673,6.31834,20.4604
2023-03-14 21:23:19:160,1.07636,1.96536,-9.57904,-10.6503,6.31072,20.4256
2023-03-14 21:23:19:170,1.05716,1.94675,-9.54753,-10.6315,6.29595,20.3912
2023-03-14 21:23:19:180,1.04082,1.9473,-9.53811,-10.6102,6.28295,20.3579
2023-03-14 21:23:19:190,1.06979,1.93249,-9.52657,-10.5932,6.2667,20.3247
2023-03-14 21:23:19:200,1.1063,1.91766,-9.52843,-10.5719,6.24774,20.2944
2023-03-14 21:23:19:210,1.11334,1.94722,-9.57377,-10.5595,6.22623,20.2652
2023-03-14 21:23:19:220,1.09132,1.98149,-9.60877,-10.5498,6.20695,20.2388
2023-03-14 21:23:19:230,1.05751,1.96806,-9.6129,-10.532,6.18639,20.2188
2023-03-14 21:23:19:240,1.01983,1.94357,-9.57424,-10.5139,6.16726,20.2047
2023-03-14 21:23:19:250,0.985103,1.93632,-9.55558,-10.4904,6.14995,20.1931
2023-03-14 21:23:19:259,0.979479,1.93503,-9.5672,-10.4676,6.14491,20.1831
2023-03-14 21:23:19:270,1.04925,1.91195,-9.5804,-10.4466,6.14411,20.1697
2023-03-14 21:23:19:280,1.11974,1.87861,-9.57203,-10.4225,6.14238,20.1557
2023-03-14 21:23:19:290,1.1224,1.85055,-9.56137,-10.3984,6.14435,20.152
2023-03-14 21:23:19:300,1.09923,1.85568,-9.58079,-10.373,6.14207,20.152
2023-03-14 21:23:19:310,1.07635,1.85191,-9.59985,-10.3494,6.13842,20.1531
2023-03-14 21:23:19:320,1.07852,1.81715,-9.59612,-10.325,6.13817,20.1587
2023-03-14 21:23:19:330,1.0978,1.80228,-9.62303,-10.2986,6.13716,20.1674
2023-03-14 21:23:19:340,1.13708,1.80466,-9.64934,-10.2763,6.14604,20.174
2023-03-14 21:23:19:350,1.16631,1.78907,-9.62522,-10.2525,6.15642,20.1821
2023-03-14 21:23:19:360,1.16072,1.75758,-9.58029,-10.2276,6.1663,20.1993
2023-03-14 21:23:19:370,1.17319,1.74429,-9.54821,-10.203,6.17961,20.22
2023-03-14 21:23:19:380,1.22755,1.70132,-9.53047,-10.1795,6.19227,20.2422
2023-03-14 21:23:19:390,1.25264,1.65793,-9.52305,-10.161,6.20699,20.2651
2023-03-14 21:23:19:400,1.25864,1.64,-9.52115,-10.1432,6.2174,20.2939
2023-03-14 21:23:19:410,1.29188,1.61509,-9.52884,-10.1315,6.22623,20.3246
2023-03-14 21:23:19:420,1.33812,1.56157,-9.49821,-10.1199,6.23223,20.36
2023-03-14 21:23:19:430,1.35852,1.50678,-9.46123,-10.1151,6.23094,20.4009
2023-03-14 21:23:19:440,1.36851,1.47455,-9.44186,-10.1112,6.22897,20.4488
2023-03-14 21:23:19:450,1.36921,1.47435,-9.45639,-10.1121,6.22646,20.5059
2023-03-14 21:23:19:460,1.34379,1.45254,-9.47647,-10.116,6.22035,20.5713
2023-03-14 21:23:19:470,1.27918,1.41039,-9.43889,-10.1268,6.20956,20.6434
2023-03-14 21:23:19:480,1.21482,1.38793,-9.42715,-10.14,6.20045,20.7215
2023-03-14 21:23:19:490,1.17241,1.42796,-9.46238,-10.161,6.18886,20.7993
2023-03-14 21:23:19:500,1.17855,1.48228,-9.48868,-10.187,6.18558,20.8773
2023-03-14 21:23:19:510,1.178,1.48753,-9.47248,-10.2144,6.1867,20.9545
2023-03-14 21:23:19:520,1.15304,1.50428,-9.47247,-10.2451,6.18666,21.0309
2023-03-14 21:23:19:530,1.11111,1.51883,-9.46382,-10.2779,6.19306,21.1053
2023-03-14 21:23:19:540,1.08376,1.53067,-9.4657,-10.3127,6.19811,21.1775
2023-03-14 21:23:19:550,1.07102,1.57878,-9.50615,-10.3438,6.20634,21.2463
2023-03-14 21:23:19:560,1.04295,1.63932,-9.56443,-10.3794,6.21361,21.3082
2023-03-14 21:23:19:570,1.0263,1.6869,-9.611,-10.4147,6.22235,21.3661
2023-03-14 21:23:19:580,1.04234,1.69924,-9.65359,-10.4459,6.2325,21.4188
2023-03-14 21:23:19:590,1.04386,1.71586,-9.65141,-10.4727,6.24082,21.4672
2023-03-14 21:23:19:600,1.03855,1.7194,-9.64894,-10.495,6.25141,21.5052
2023-03-14 21:23:19:610,1.04613,1.71362,-9.65062,-10.5123,6.26324,21.5407
2023-03-14 21:23:19:620,1.02898,1.71915,-9.65956,-10.5192,6.27155,21.5727
2023-03-14 21:23:19:630,1.017,1.72552,-9.67521,-10.5243,6.27855,21.5998
2023-03-14 21:23:19:640,0.989567,1.76502,-9.67601,-10.5265,6.28419,21.6222
2023-03-14 21:23:19:650,0.995085,1.78821,-9.73729,-10.5236,6.28879,21.6359
2023-03-14 21:23:19:660,1.04255,1.79782,-9.77168,-10.5121,6.29687,21.6478
2023-03-14 21:23:19:670,1.04498,1.77075,-9.74722,-10.4953,6.3021,21.6587
2023-03-14 21:23:19:680,1.01984,1.73223,-9.67762,-10.4696,6.31105,21.6714
2023-03-14 21:23:19:690,1.0333,1.70461,-9.65384,-10.4459,6.31533,21.6834
2023-03-14 21:23:19:700,1.04941,1.70804,-9.63577,-10.4171,6.32403,21.6988
2023-03-14 21:23:19:710,1.03874,1.68871,-9.62639,-10.3876,6.33248,21.7119
2023-03-14 21:23:19:720,1.02178,1.67813,-9.65579,-10.358,6.34135,21.7283
2023-03-14 21:23:19:730,0.997651,1.67553,-9.66947,-10.3311,6.35075,21.7446
2023-03-14 21:23:19:740,0.982642,1.63603,-9.65483,-10.2981,6.36111,21.7602
2023-03-14 21:23:19:750,0.974968,1.60504,-9.59795,-10.2637,6.37329,21.7762
2023-03-14 21:23:19:760,0.989818,1.57801,-9.57006,-10.229,6.38808,21.793
2023-03-14 21:23:19:770,1.01385,1.56131,-9.55399,-10.1996,6.40153,21.8027
2023-03-14 21:23:19:780,1.04711,1.54493,-9.51725,-10.1686,6.41371,21.8113
2023-03-14 21:23:19:790,1.06291,1.53109,-9.52433,-10.1444,6.42738,21.8177
2023-03-14 21:23:19:800,1.08309,1.54367,-9.53678,-10.1267,6.44181,21.8222
2023-03-14 21:23:19:810,1.11294,1.55846,-9.55485,-10.1105,6.45354,21.8238
2023-03-14 21:23:19:820,1.14363,1.56505,-9.5539,-10.0977,6.46697,21.8231
2023-03-14 21:23:19:830,1.15047,1.58885,-9.56627,-10.087,6.47998,21.8259
2023-03-14 21:23:19:840,1.13392,1.57469,-9.5209,-10.075,6.49008,21.8271
2023-03-14 21:23:19:850,1.10963,1.55629,-9.49288,-10.0657,6.49686,21.8283
2023-03-14 21:23:19:860,1.11061,1.57623,-9.496,-10.0604,6.50099,21.8286
2023-03-14 21:23:19:870,1.11276,1.59967,-9.52341,-10.0646,6.50815,21.8265
2023-03-14 21:23:19:880,1.10852,1.64114,-9.57178,-10.0715,6.51699,21.8239
2023-03-14 21:23:19:890,1.09621,1.70983,-9.63562,-10.0807,6.52447,21.8204
2023-03-14 21:23:19:900,1.06996,1.80914,-9.71992,-10.0854,6.53905,21.8204
2023-03-14 21:23:19:910,1.05487,1.84538,-9.73934,-10.0843,6.56152,21.8198
2023-03-14 21:23:19:920,1.04798,1.81867,-9.65749,-10.0731,6.58565,21.8205
2023-03-14 21:23:19:930,1.05599,1.77888,-9.60909,-10.052,6.61836,21.8268
2023-03-14 21:23:19:940,1.06331,1.77858,-9.57565,-10.0378,6.65753,21.8321
2023-03-14 21:23:19:950,1.1102,1.76158,-9.58993,-10.0195,6.69886,21.8381
2023-03-14 21:23:19:960,1.15289,1.77068,-9.62856,-10.0078,6.74147,21.843
2023-03-14 21:23:19:970,1.1673,1.80398,-9.70817,-9.99492,6.78496,21.8485
2023-03-14 21:23:19:980,1.17228,1.85679,-9.78388,-9.98042,6.8268,21.8579
2023-03-14 21:23:19:990,1.15908,1.83322,-9.75075,-9.95874,6.86877,21.8692
2023-03-14 21:23:20:0,1.14352,1.76691,-9.64857,-9.92699,6.90675,21.882
2023-03-14 21:23:20:10,1.14185,1.71945,-9.55442,-9.89684,6.94496,21.8966
2023-03-14 21:23:20:20,1.1191,1.69989,-9.48145,-9.86855,6.98013,21.909
2023-03-14 21:23:20:30,1.08264,1.65057,-9.4292,-9.8468,7.01235,21.9182
2023-03-14 21:23:20:40,1.05495,1.63692,-9.38851,-9.83232,7.04407,21.9242
2023-03-14 21:23:20:50,1.05167,1.64557,-9.41125,-9.82835,7.07936,21.9273
2023-03-14 21:23:20:60,1.05135,1.67474,-9.47396,-9.83904,7.11875,21.9215
2023-03-14 21:23:20:70,1.0985,1.71559,-9.51353,-9.85511,7.1606,21.91
2023-03-14 21:23:20:80,1.17412,1.72006,-9.5507,-9.87527,7.20467,21.8846
2023-03-14 21:23:20:90,1.22402,1.7223,-9.56552,-9.89457,7.2537,21.8614
2023-03-14 21:23:20:100,1.21601,1.73362,-9.56273,-9.91468,7.30172,21.8351
2023-03-14 21:23:20:110,1.20041,1.74055,-9.54588,-9.93005,7.34291,21.8044
2023-03-14 21:23:20:120,1.21278,1.7274,-9.5371,-9.94391,7.38994,21.7685
2023-03-14 21:23:20:130,1.23569,1.7332,-9.54516,-9.95551,7.44267,21.7304
2023-03-14 21:23:20:140,1.27016,1.76512,-9.58764,-9.96948,7.49833,21.6843
2023-03-14 21:23:20:150,1.31135,1.8153,-9.60999,-9.98146,7.55306,21.6328
2023-03-14 21:23:20:160,1.35816,1.8384,-9.62269,-9.98744,7.60742,21.5727
2023-03-14 21:23:20:170,1.41445,1.85068,-9.60232,-9.98475,7.6631,21.5084
2023-03-14 21:23:20:180,1.45352,1.82912,-9.53599,-9.9707,7.72065,21.4445
2023-03-14 21:23:20:190,1.46808,1.77659,-9.43675,-9.94857,7.77471,21.3775
2023-03-14 21:23:20:200,1.48066,1.74085,-9.35279,-9.92278,7.82098,21.3117
2023-03-14 21:23:20:210,1.46828,1.74966,-9.31132,-9.89702,7.86373,21.2411
2023-03-14 21:23:20:220,1.45358,1.78541,-9.29056,-9.8774,7.90006,21.1684
2023-03-14 21:23:20:230,1.43397,1.81179,-9.3098,-9.86296,7.92684,21.0967
2023-03-14 21:23:20:240,1.46969,1.82642,-9.32802,-9.84849,7.94465,21.0237
2023-03-14 21:23:20:250,1.50225,1.85068,-9.37474,-9.84037,7.95069,20.951
2023-03-14 21:23:20:260,1.517,1.87982,-9.44411,-9.82919,7.94695,20.8841
2023-03-14 21:23:20:270,1.50456,1.87949,-9.48504,-9.81228,7.92986,20.8243
2023-03-14 21:23:20:280,1.47337,1.85714,-9.50213,-9.79169,7.90129,20.7756
2023-03-14 21:23:20:290,1.41055,1.82113,-9.48928,-9.7607,7.86636,20.7386
2023-03-14 21:23:20:300,1.33705,1.77069,-9.4657,-9.72331,7.81846,20.7147
2023-03-14 21:23:20:310,1.23265,1.75595,-9.47883,-9.6871,7.76786,20.7025
2023-03-14 21:23:20:320,1.13875,1.74498,-9.47267,-9.6456,7.71665,20.7025
2023-03-14 21:23:20:330,1.09469,1.70845,-9.44582,-9.6035,7.66391,20.7079
2023-03-14 21:23:20:340,1.04873,1.6695,-9.45164,-9.5629,7.61053,20.7182
2023-03-14 21:23:20:350,1.00004,1.65905,-9.44207,-9.52586,7.55898,20.7376
2023-03-14 21:23:20:360,0.972585,1.64515,-9.39285,-9.49523,7.50833,20.7579
2023-03-14 21:23:20:370,0.924554,1.61471,-9.35528,-9.47023,7.45571,20.7776
2023-03-14 21:23:20:380,0.870897,1.61719,-9.33338,-9.45319,7.40365,20.8013
2023-03-14 21:23:20:390,0.831736,1.64024,-9.3671,-9.45474,7.34812,20.8263
2023-03-14 21:23:20:400,0.784803,1.69402,-9.45915,-9.47153,7.28774,20.8489
2023-03-14 21:23:20:410,0.736415,1.75264,-9.5263,-9.50331,7.23079,20.8673
2023-03-14 21:23:20:420,0.684088,1.81815,-9.55408,-9.54266,7.17798,20.8794
2023-03-14 21:23:20:430,0.638424,1.88429,-9.57227,-9.58824,7.12992,20.8849
2023-03-14 21:23:20:440,0.593395,1.95527,-9.56543,-9.63738,7.09139,20.8776
2023-03-14 21:23:20:450,0.550536,1.95206,-9.50118,-9.68741,7.05831,20.8579
2023-03-14 21:23:20:460,0.516931,1.95311,-9.46562,-9.74409,7.03611,20.8289
2023-03-14 21:23:20:470,0.55751,2.00091,-9.52853,-9.81048,7.02098,20.7822
2023-03-14 21:23:20:480,0.633062,2.06638,-9.578,-9.88129,7.01551,20.7171
2023-03-14 21:23:20:490,0.672648,2.07724,-9.53384,-9.9522,7.01526,20.6391
2023-03-14 21:23:20:500,0.687512,2.09663,-9.46463,-10.0223,7.01703,20.5503
2023-03-14 21:23:20:510,0.702752,2.14244,-9.41989,-10.0992,7.01626,20.4463
2023-03-14 21:23:20:520,0.757428,2.15595,-9.4435,-10.1797,7.02244,20.3289
2023-03-14 21:23:20:530,0.818092,2.21002,-9.50416,-10.2676,7.0294,20.2006
2023-03-14 21:23:20:540,0.867096,2.26747,-9.59415,-10.3539,7.04158,20.0603
2023-03-14 21:23:20:550,0.913301,2.29421,-9.64289,-10.436,7.05403,19.9059
2023-03-14 21:23:20:560,0.960819,2.29849,-9.66337,-10.5087,7.06968,19.7445
2023-03-14 21:23:20:570,0.998624,2.30118,-9.63838,-10.5777,7.08946,19.5716
2023-03-14 21:23:20:580,1.05891,2.29893,-9.61189,-10.6419,7.10676,19.3891
2023-03-14 21:23:20:590,1.13871,2.26721,-9.57012,-10.6983,7.1195,19.1996
2023-03-14 21:23:20:600,1.16697,2.22532,-9.51559,-10.751,7.13064,19.004
2023-03-14 21:23:20:610,1.16243,2.22527,-9.5532,-10.8042,7.13635,18.8097
2023-03-14 21:23:20:620,1.19499,2.29011,-9.58722,-10.8588,7.14509,18.612
2023-03-14 21:23:20:630,1.21647,2.25423,-9.59464,-10.9082,7.14996,18.4103
2023-03-14 21:23:20:640,1.18896,2.23532,-9.63346,-10.9541,7.15489,18.2093
2023-03-14 21:23:20:650,1.11088,2.28428,-9.75552,-11,7.15799,18.0039
2023-03-14 21:23:20:660,0.996098,2.36098,-9.86638,-11.0417,7.15659,17.7898
2023-03-14 21:23:20:670,0.786922,2.4703,-9.84908,-11.0754,7.15613,17.5666
2023-03-14 21:23:20:680,0.58514,2.49132,-9.74231,-11.0904,7.15159,17.3196
2023-03-14 21:23:20:690,0.562867,2.46151,-9.63489,-11.0912,7.1442,17.0392
2023-03-14 21:23:20:700,0.724325,2.43123,-9.57856,-11.0947,7.13654,16.7166
2023-03-14 21:23:20:710,0.969751,2.37718,-9.59618,-11.0925,7.12333,16.3589
2023-03-14 21:23:20:720,1.14365,2.34513,-9.64312,-11.0819,7.09826,15.9894
2023-03-14 21:23:20:730,1.21743,2.30105,-9.68758,-11.0671,7.06388,15.6048
2023-03-14 21:23:20:740,1.28534,2.26691,-9.69079,-11.0452,7.01514,15.2173
2023-03-14 21:23:20:750,1.36872,2.22806,-9.6495,-11.012,6.96543,14.8227
2023-03-14 21:23:20:760,1.4272,2.13889,-9.60324,-10.9697,6.91668,14.434
2023-03-14 21:23:20:770,1.47441,2.059,-9.53971,-10.9194,6.87112,14.0504
2023-03-14 21:23:20:780,1.58516,2.02816,-9.5003,-10.8726,6.83219,13.6718
2023-03-14 21:23:20:790,1.76075,1.99747,-9.46838,-10.8262,6.79631,13.2993
2023-03-14 21:23:20:800,1.93073,1.90782,-9.40753,-10.7769,6.76534,12.9473
2023-03-14 21:23:20:810,2.01259,1.81993,-9.34221,-10.7309,6.73361,12.6241
2023-03-14 21:23:20:820,2.02703,1.83208,-9.35898,-10.6967,6.70142,12.3346
2023-03-14 21:23:20:830,2.02952,1.8711,-9.40278,-10.6748,6.67009,12.075
2023-03-14 21:23:20:840,2.01248,1.83754,-9.4405,-10.6462,6.6421,11.8456
2023-03-14 21:23:20:850,1.99651,1.81287,-9.4458,-10.6257,6.62367,11.6545
2023-03-14 21:23:20:860,1.96593,1.7603,-9.4044,-10.6041,6.60787,11.4973
2023-03-14 21:23:20:870,1.89615,1.75006,-9.38736,-10.5866,6.60628,11.3761
2023-03-14 21:23:20:880,1.88608,1.72714,-9.36572,-10.576,6.61535,11.2811
2023-03-14 21:23:20:890,1.85519,1.68701,-9.38946,-10.5747,6.62774,11.219
2023-03-14 21:23:20:900,1.83829,1.69608,-9.47129,-10.5803,6.6492,11.1775
2023-03-14 21:23:20:910,1.80966,1.6942,-9.49467,-10.5893,6.67041,11.1573
2023-03-14 21:23:20:920,1.76024,1.72044,-9.48845,-10.6029,6.68718,11.1609
2023-03-14 21:23:20:930,1.70973,1.70703,-9.45685,-10.618,6.7083,11.1812
2023-03-14 21:23:20:940,1.67135,1.71629,-9.4505,-10.638,6.73562,11.2162
2023-03-14 21:23:20:950,1.66182,1.71576,-9.43473,-10.6616,6.76639,11.2646
2023-03-14 21:23:20:960,1.64272,1.71417,-9.44158,-10.6866,6.79952,11.3262
2023-03-14 21:23:20:970,1.67672,1.73554,-9.46932,-10.7174,6.83541,11.3982
2023-03-14 21:23:20:980,1.7293,1.71699,-9.46595,-10.751,6.87263,11.4812
2023-03-14 21:23:20:990,1.72064,1.69444,-9.43767,-10.782,6.90842,11.5776
2023-03-14 21:23:21:0,1.67987,1.73089,-9.41738,-10.8159,6.94385,11.6843
2023-03-14 21:23:21:10,1.67988,1.75302,-9.40816,-10.8504,6.9768,11.7945
2023-03-14 21:23:21:20,1.71733,1.76372,-9.43539,-10.8852,7.00976,11.9182
2023-03-14 21:23:21:30,1.74482,1.76209,-9.48273,-10.9251,7.04279,12.0518
2023-03-14 21:23:21:40,1.70736,1.7578,-9.50683,-10.9556,7.07813,12.1995
2023-03-14 21:23:21:50,1.62004,1.76023,-9.44661,-10.9849,7.10685,12.36
2023-03-14 21:23:21:60,1.55173,1.7201,-9.39619,-11.0151,7.13097,12.5242
2023-03-14 21:23:21:70,1.531,1.71959,-9.47104,-11.051,7.15914,12.6937
2023-03-14 21:23:21:80,1.58035,1.75351,-9.56701,-11.0944,7.18737,12.8601
2023-03-14 21:23:21:90,1.624,1.82018,-9.65625,-11.1387,7.21614,13.0345
2023-03-14 21:23:21:100,1.55851,1.90724,-9.68311,-11.1789,7.24338,13.215
2023-03-14 21:23:21:110,1.47278,1.93721,-9.70079,-11.2088,7.2763,13.4026
2023-03-14 21:23:21:120,1.45986,1.94616,-9.75564,-11.23,7.31758,13.59
2023-03-14 21:23:21:130,1.43626,1.95022,-9.75744,-11.2424,7.3629,13.7858
2023-03-14 21:23:21:140,1.35714,1.93525,-9.65721,-11.2393,7.41369,13.9861
2023-03-14 21:23:21:150,1.3343,1.9438,-9.64947,-11.2327,7.46942,14.182
2023-03-14 21:23:21:160,1.39804,1.94898,-9.74998,-11.2202,7.53012,14.3722
2023-03-14 21:23:21:170,1.4302,1.95468,-9.83344,-11.1975,7.59549,14.5621
2023-03-14 21:23:21:180,1.42374,1.91443,-9.77223,-11.1632,7.66315,14.7552
2023-03-14 21:23:21:190,1.44172,1.81192,-9.64587,-11.1093,7.73169,14.952
2023-03-14 21:23:21:200,1.4928,1.74141,-9.61602,-11.0506,7.79796,15.1495
2023-03-14 21:23:21:210,1.52669,1.68924,-9.65691,-10.9899,7.86712,15.3489
2023-03-14 21:23:21:220,1.51386,1.65696,-9.5912,-10.9312,7.93231,15.5483
2023-03-14 21:23:21:230,1.46141,1.6076,-9.49196,-10.8726,7.99285,15.7487
2023-03-14 21:23:21:240,1.40714,1.52583,-9.39522,-10.8136,8.04965,15.948
2023-03-14 21:23:21:250,1.35349,1.47183,-9.40803,-10.7651,8.10091,16.146
2023-03-14 21:23:21:260,1.32505,1.50674,-9.48435,-10.7332,8.14875,16.3326
2023-03-14 21:23:21:270,1.34579,1.55392,-9.52197,-10.7063,8.19244,16.5068
2023-03-14 21:23:21:280,1.43435,1.52765,-9.55418,-10.6819,8.23254,16.667
2023-03-14 21:23:21:290,1.55061,1.50409,-9.61175,-10.6565,8.27585,16.8244
2023-03-14 21:23:21:300,1.64179,1.50168,-9.63899,-10.6286,8.32096,16.9835
2023-03-14 21:23:21:310,1.6925,1.48007,-9.56394,-10.593,8.36385,17.1473
2023-03-14 21:23:21:320,1.65788,1.44537,-9.45651,-10.5523,8.40721,17.314
2023-03-14 21:23:21:330,1.59259,1.41442,-9.39246,-10.505,8.45386,17.4924
2023-03-14 21:23:21:340,1.57153,1.37685,-9.34628,-10.4643,8.50396,17.6774
2023-03-14 21:23:21:350,1.57085,1.34664,-9.34336,-10.4329,8.55071,17.8573
2023-03-14 21:23:21:360,1.56391,1.33402,-9.33608,-10.4057,8.59927,18.0395
2023-03-14 21:23:21:370,1.52633,1.33786,-9.33564,-10.3856,8.64008,18.2257
2023-03-14 21:23:21:380,1.49536,1.38001,-9.39882,-10.3705,8.68047,18.4099
2023-03-14 21:23:21:390,1.52862,1.39366,-9.49103,-10.3629,8.7226,18.5878
2023-03-14 21:23:21:400,1.56212,1.35974,-9.53608,-10.3547,8.76155,18.7602
2023-03-14 21:23:21:410,1.57586,1.32287,-9.51461,-10.3445,8.80271,18.9294
2023-03-14 21:23:21:420,1.56614,1.28497,-9.49087,-10.3341,8.83304,19.099
2023-03-14 21:23:21:430,1.57123,1.30605,-9.49151,-10.331,8.85875,19.2661
2023-03-14 21:23:21:440,1.55677,1.32032,-9.54305,-10.334,8.88429,19.4308
2023-03-14 21:23:21:450,1.54648,1.30902,-9.56179,-10.3334,8.9053,19.5937
2023-03-14 21:23:21:460,1.51536,1.3053,-9.55487,-10.3395,8.92204,19.7482
2023-03-14 21:23:21:470,1.48606,1.30905,-9.54388,-10.3465,8.9369,19.8998
2023-03-14 21:23:21:480,1.48779,1.33661,-9.53632,-10.3565,8.94949,20.0428
2023-03-14 21:23:21:490,1.51826,1.33274,-9.51974,-10.3647,8.96631,20.1749
2023-03-14 21:23:21:500,1.55667,1.31734,-9.49247,-10.3732,8.98227,20.306
2023-03-14 21:23:21:510,1.54513,1.29344,-9.43104,-10.3782,8.99305,20.4356
2023-03-14 21:23:21:520,1.50955,1.29697,-9.36673,-10.3862,8.99872,20.5628
2023-03-14 21:23:21:530,1.50244,1.30073,-9.3567,-10.3993,9.00862,20.6836
2023-03-14 21:23:21:540,1.54248,1.29851,-9.39306,-10.4209,9.01732,20.7987
2023-03-14 21:23:21:550,1.58556,1.3034,-9.4153,-10.4479,9.02589,20.9096
2023-03-14 21:23:21:560,1.57277,1.32219,-9.43173,-10.4749,9.02832,21.0232
2023-03-14 21:23:21:570,1.58331,1.33798,-9.47372,-10.5051,9.03254,21.1324
2023-03-14 21:23:21:579,1.6,1.33247,-9.49376,-10.5394,9.03325,21.2375
2023-03-14 21:23:21:590,1.595,1.34573,-9.53937,-10.5726,9.03178,21.3402
2023-03-14 21:23:21:600,1.59907,1.34965,-9.57239,-10.6062,9.023,21.4409
2023-03-14 21:23:21:610,1.61764,1.36271,-9.58547,-10.6408,9.00805,21.5423
2023-03-14 21:23:21:620,1.52568,1.40057,-9.56726,-10.6729,8.99023,21.6477
2023-03-14 21:23:21:630,1.44758,1.43078,-9.56456,-10.7025,8.968,21.7501
2023-03-14 21:23:21:640,1.48362,1.43232,-9.58426,-10.7331,8.94863,21.8454
2023-03-14 21:23:21:650,1.54885,1.43411,-9.61514,-10.7671,8.92848,21.9361
2023-03-14 21:23:21:660,1.52624,1.44031,-9.62184,-10.7952,8.90992,22.0285
2023-03-14 21:23:21:670,1.4793,1.44136,-9.60715,-10.8195,8.88478,22.1204
2023-03-14 21:23:21:680,1.45757,1.42328,-9.59044,-10.8452,8.85433,22.2127
2023-03-14 21:23:21:690,1.40946,1.41019,-9.57056,-10.869,8.81896,22.3036
2023-03-14 21:23:21:700,1.31395,1.44133,-9.53936,-10.8997,8.77821,22.3906
2023-03-14 21:23:21:710,1.25978,1.49395,-9.53322,-10.9383,8.7377,22.4707
2023-03-14 21:23:21:720,1.30325,1.53328,-9.56106,-10.9803,8.70208,22.5398
2023-03-14 21:23:21:730,1.36948,1.56099,-9.63014,-11.0182,8.67136,22.6032
2023-03-14 21:23:21:740,1.40198,1.57858,-9.67,-11.0506,8.63888,22.6597
2023-03-14 21:23:21:750,1.42101,1.60148,-9.66464,-11.0785,8.60495,22.7181
2023-03-14 21:23:21:760,1.43001,1.60357,-9.65322,-11.0972,8.57473,22.778
2023-03-14 21:23:21:770,1.44171,1.56909,-9.6552,-11.1095,8.54345,22.8359
2023-03-14 21:23:21:780,1.42963,1.52092,-9.64314,-11.1157,8.51051,22.8976
2023-03-14 21:23:21:790,1.38181,1.51021,-9.59381,-11.1208,8.47995,22.9672
2023-03-14 21:23:21:800,1.29746,1.56386,-9.54597,-11.1266,8.44544,23.0363
2023-03-14 21:23:21:810,1.22157,1.60786,-9.47066,-11.1346,8.4159,23.0985
2023-03-14 21:23:21:820,1.22528,1.67073,-9.43758,-11.1553,8.38511,23.1567
2023-03-14 21:23:21:830,1.30637,1.76578,-9.54026,-11.1838,8.35911,23.211
2023-03-14 21:23:21:840,1.28433,1.86467,-9.68791,-11.2106,8.33448,23.2683
2023-03-14 21:23:21:850,1.22376,1.94654,-9.80601,-11.232,8.31198,23.3283
2023-03-14 21:23:21:860,1.20452,1.94577,-9.88461,-11.2402,8.28533,23.3904
2023-03-14 21:23:21:870,1.15281,1.9421,-9.92082,-11.2363,8.2579,23.4551
2023-03-14 21:23:21:880,1.12491,1.94445,-9.97272,-11.2188,8.23382,23.5201
2023-03-14 21:23:21:890,1.02959,1.95077,-9.98071,-11.1868,8.21067,23.58
2023-03-14 21:23:21:900,0.909804,1.91053,-9.93073,-11.1303,8.18864,23.6341
2023-03-14 21:23:21:910,0.853221,1.8587,-9.85984,-11.0626,8.15934,23.6754
2023-03-14 21:23:21:920,0.826256,1.7998,-9.80336,-10.9809,8.12969,23.7003
2023-03-14 21:23:21:930,0.820423,1.71744,-9.70355,-10.8923,8.08879,23.7072
2023-03-14 21:23:21:940,0.827999,1.64997,-9.61661,-10.7974,8.0378,23.6911
2023-03-14 21:23:21:950,0.879856,1.63077,-9.61356,-10.6993,7.97366,23.6494
2023-03-14 21:23:21:960,0.833345,1.61832,-9.55134,-10.5978,7.90254,23.5938
2023-03-14 21:23:21:970,0.647891,1.60095,-9.45469,-10.4899,7.81942,23.5232
2023-03-14 21:23:21:980,0.457305,1.60197,-9.3959,-10.389,7.72409,23.4294
2023-03-14 21:23:21:990,0.346548,1.62127,-9.39168,-10.2935,7.63088,23.3088
2023-03-14 21:23:22:0,0.337931,1.60827,-9.38252,-10.2116,7.53429,23.1478
2023-03-14 21:23:22:10,0.310271,1.62899,-9.40773,-10.1371,7.44272,22.9516
2023-03-14 21:23:22:20,0.211092,1.67415,-9.48118,-10.0722,7.34838,22.7287
2023-03-14 21:23:22:30,0.276694,1.72075,-9.56553,-10.0177,7.25374,22.4653
2023-03-14 21:23:22:40,0.592444,1.75211,-9.72594,-9.98053,7.15553,22.1583
2023-03-14 21:23:22:50,0.9035,1.77492,-9.85379,-9.94147,7.06295,21.832
2023-03-14 21:23:22:60,1.01329,1.7283,-9.76064,-9.89661,6.96244,21.5061
2023-03-14 21:23:22:70,1.0028,1.69057,-9.63252,-9.85168,6.85864,21.1788
2023-03-14 21:23:22:80,1.07393,1.71073,-9.58913,-9.81774,6.76039,20.8522
2023-03-14 21:23:22:90,1.15173,1.72359,-9.50796,-9.79698,6.66343,20.5254
2023-03-14 21:23:22:100,1.2372,1.76531,-9.48747,-9.78409,6.58017,20.206
2023-03-14 21:23:22:110,1.28766,1.78958,-9.48383,-9.78091,6.51164,19.899
2023-03-14 21:23:22:120,1.39743,1.80121,-9.51968,-9.78121,6.45203,19.6068
2023-03-14 21:23:22:130,1.61436,1.85984,-9.64299,-9.79654,6.40446,19.3295
2023-03-14 21:23:22:140,1.78696,1.92126,-9.75409,-9.81636,6.36448,19.0792
2023-03-14 21:23:22:150,1.81183,1.93598,-9.75013,-9.82719,6.33007,18.8717
2023-03-14 21:23:22:160,1.72823,1.93932,-9.69709,-9.83733,6.29998,18.7056
2023-03-14 21:23:22:170,1.6604,1.9408,-9.67813,-9.84922,6.27366,18.5798
2023-03-14 21:23:22:180,1.61774,1.97437,-9.70983,-9.86357,6.25973,18.4899
2023-03-14 21:23:22:190,1.54334,2.04087,-9.72018,-9.87614,6.26095,18.4288
2023-03-14 21:23:22:200,1.40885,2.04887,-9.72555,-9.88553,6.26314,18.4007
2023-03-14 21:23:22:210,1.24416,2.04889,-9.76636,-9.8899,6.26749,18.4044
2023-03-14 21:23:22:220,1.01443,2.10179,-9.84612,-9.89167,6.27282,18.4283
2023-03-14 21:23:22:230,0.6428,2.13865,-9.8787,-9.88545,6.28008,18.4632
2023-03-14 21:23:22:240,0.259324,2.13662,-9.90268,-9.86354,6.29257,18.4924
2023-03-14 21:23:22:250,0.0293874,2.07654,-9.99697,-9.83266,6.31033,18.4982
2023-03-14 21:23:22:260,-0.252557,2.07113,-10.151,-9.78672,6.33336,18.4645
2023-03-14 21:23:22:270,-0.623873,2.13623,-10.3463,-9.72658,6.34672,18.3769
2023-03-14 21:23:22:280,-1.16486,2.24229,-10.5029,-9.6418,6.34269,18.2222
2023-03-14 21:23:22:290,-1.79469,2.34385,-10.5723,-9.52071,6.31825,17.9689
2023-03-14 21:23:22:300,-2.32681,2.38543,-10.6177,-9.3661,6.27257,17.5825
2023-03-14 21:23:22:310,-2.6378,2.46784,-10.6109,-9.17474,6.20044,17.0297
2023-03-14 21:23:22:320,-2.56908,2.48533,-10.624,-8.95035,6.10994,16.289
2023-03-14 21:23:22:330,-2.10379,2.42563,-10.5954,-8.69512,6.00561,15.3558
2023-03-14 21:23:22:340,-1.56713,2.31087,-10.445,-8.39997,5.88916,14.257
2023-03-14 21:23:22:350,-1.13891,2.15968,-10.2506,-8.06996,5.75329,13.0255
2023-03-14 21:23:22:360,-0.931941,2.08468,-10.1118,-7.71678,5.61196,11.6897
2023-03-14 21:23:22:370,-0.862954,2.16111,-10.0499,-7.34596,5.46831,10.2665
2023-03-14 21:23:22:380,-0.555487,2.18249,-9.99871,-6.96377,5.33774,8.74616
2023-03-14 21:23:22:390,0.053813,2.00904,-9.86273,-6.55457,5.23873,7.14611
2023-03-14 21:23:22:400,0.776865,1.70142,-9.60595,-6.12457,5.1672,5.50568
2023-03-14 21:23:22:410,1.39882,1.3963,-9.41305,-5.68563,5.12002,3.86435
2023-03-14 21:23:22:420,1.80924,1.14604,-9.30725,-5.25664,5.09431,2.25762
2023-03-14 21:23:22:430,2.04904,1.01877,-9.26568,-4.84211,5.07595,0.707113
2023-03-14 21:23:22:440,2.26895,0.940935,-9.31782,-4.44567,5.07448,-0.782007
2023-03-14 21:23:22:450,2.4562,0.832056,-9.29829,-4.06433,5.09416,-2.20227
2023-03-14 21:23:22:460,2.59574,0.687435,-9.19174,-3.6936,5.13118,-3.53355
2023-03-14 21:23:22:470,2.60725,0.520187,-9.09055,-3.33525,5.19553,-4.77063
2023-03-14 21:23:22:480,2.57108,0.401631,-9.0352,-2.99295,5.28209,-5.90188
2023-03-14 21:23:22:490,2.66986,0.290679,-9.06123,-2.67427,5.40203,-6.93936
2023-03-14 21:23:22:500,2.80084,0.0958714,-9.07769,-2.3755,5.54923,-7.88289
2023-03-14 21:23:22:510,2.75801,-0.0240677,-9.05506,-2.09962,5.70738,-8.71642
2023-03-14 21:23:22:520,2.50132,-0.0173729,-9.06629,-1.85139,5.87034,-9.45055
2023-03-14 21:23:22:530,2.28568,-0.0216806,-9.07213,-1.6238,6.0384,-10.1027
2023-03-14 21:23:22:540,2.27425,-0.0831819,-9.08266,-1.42525,6.22166,-10.6936
2023-03-14 21:23:22:550,2.37584,-0.138735,-9.16078,-1.24883,6.4168,-11.2204
2023-03-14 21:23:22:560,2.40212,-0.165047,-9.22966,-1.09,6.6192,-11.6815
2023-03-14 21:23:22:570,2.31906,-0.162175,-9.25741,-0.9544,6.81558,-12.0799
2023-03-14 21:23:22:580,2.26502,-0.157055,-9.30768,-0.83714,7.00491,-12.4307
2023-03-14 21:23:22:590,2.28861,-0.170192,-9.35915,-0.735652,7.18513,-12.7355
2023-03-14 21:23:22:600,2.24106,-0.187422,-9.3867,-0.641846,7.35423,-12.9919
2023-03-14 21:23:22:610,2.09517,-0.120072,-9.4502,-0.563661,7.50973,-13.2104
2023-03-14 21:23:22:620,2.01312,-0.0464221,-9.52089,-0.493151,7.65907,-13.3987
2023-03-14 21:23:22:630,2.00876,-0.0710315,-9.48963,-0.424965,7.80624,-13.5689
2023-03-14 21:23:22:640,2.01748,-0.16065,-9.41615,-0.359215,7.94232,-13.7135
2023-03-14 21:23:22:650,1.93678,-0.18628,-9.37704,-0.299889,8.06931,-13.8319
2023-03-14 21:23:22:660,1.79989,-0.13641,-9.37935,-0.255569,8.18213,-13.9316
2023-03-14 21:23:22:670,1.69019,-0.0972597,-9.40072,-0.223961,8.28967,-14.0237
2023-03-14 21:23:22:680,1.62613,-0.0549148,-9.44653,-0.201672,8.39124,-14.1111
2023-03-14 21:23:22:690,1.57227,0.00500093,-9.50169,-0.186567,8.48386,-14.1948
2023-03-14 21:23:22:700,1.513,0.0885341,-9.54037,-0.172173,8.5775,-14.2806
2023-03-14 21:23:22:710,1.52436,0.0733876,-9.57157,-0.153279,8.66878,-14.3711
2023-03-14 21:23:22:720,1.57529,0.0256731,-9.55539,-0.136783,8.75719,-14.467
2023-03-14 21:23:22:730,1.52427,0.0579044,-9.531,-0.12691,8.83704,-14.5592
2023-03-14 21:23:22:740,1.4065,0.13913,-9.5434,-0.126974,8.91116,-14.6579
2023-03-14 21:23:22:750,1.36849,0.164796,-9.56075,-0.127965,8.97806,-14.768
2023-03-14 21:23:22:760,1.39421,0.167684,-9.58237,-0.133709,9.04536,-14.8857
2023-03-14 21:23:22:770,1.43733,0.17665,-9.6172,-0.146626,9.11436,-15.0125
2023-03-14 21:23:22:780,1.50772,0.176463,-9.60406,-0.16236,9.17627,-15.1441
2023-03-14 21:23:22:790,1.5482,0.219029,-9.58619,-0.184685,9.23381,-15.2803
2023-03-14 21:23:22:800,1.56563,0.227901,-9.56004,-0.215024,9.29141,-15.4198
2023-03-14 21:23:22:810,1.58982,0.269596,-9.57105,-0.248734,9.34875,-15.5603
2023-03-14 21:23:22:820,1.6596,0.323688,-9.67146,-0.292921,9.4041,-15.6977
2023-03-14 21:23:22:830,1.69357,0.341691,-9.72888,-0.340423,9.45636,-15.8372
2023-03-14 21:23:22:840,1.70524,0.352453,-9.69611,-0.387534,9.50492,-15.9718
2023-03-14 21:23:22:850,1.72863,0.385377,-9.67022,-0.439574,9.55122,-16.1038
2023-03-14 21:23:22:860,1.79438,0.392862,-9.66949,-0.489203,9.5975,-16.2312
2023-03-14 21:23:22:870,1.807,0.388899,-9.69556,-0.540392,9.64507,-16.3475
2023-03-14 21:23:22:880,1.75367,0.437191,-9.68851,-0.602772,9.68782,-16.4565
2023-03-14 21:23:22:890,1.67835,0.474001,-9.67331,-0.664294,9.72252,-16.5672
2023-03-14 21:23:22:900,1.64353,0.498793,-9.66236,-0.730421,9.75684,-16.6775
2023-03-14 21:23:22:910,1.63923,0.529887,-9.66366,-0.802253,9.78909,-16.7906
2023-03-14 21:23:22:920,1.66527,0.573692,-9.66204,-0.880446,9.81929,-16.9088
2023-03-14 21:23:22:930,1.66445,0.595448,-9.67813,-0.957717,9.8517,-17.0221
2023-03-14 21:23:22:940,1.6613,0.657858,-9.72523,-1.03624,9.87873,-17.134
2023-03-14 21:23:22:950,1.66405,0.772385,-9.81243,-1.1154,9.91368,-17.2486
2023-03-14 21:23:22:960,1.67373,0.772486,-9.85197,-1.18508,9.95308,-17.3641
2023-03-14 21:23:22:970,1.69754,0.733479,-9.78661,-1.24778,9.99273,-17.4747
2023-03-14 21:23:22:980,1.74172,0.779332,-9.82114,-1.30212,10.0393,-17.5813
2023-03-14 21:23:22:990,1.83214,0.745575,-9.84699,-1.34548,10.0965,-17.6907
2023-03-14 21:23:23:0,1.91879,0.679539,-9.7561,-1.37703,10.1534,-17.788
2023-03-14 21:23:23:10,1.90699,0.690621,-9.74257,-1.40551,10.2102,-17.876
2023-03-14 21:23:23:20,1.9544,0.703476,-9.78256,-1.42856,10.2722,-17.9583
2023-03-14 21:23:23:30,2.02742,0.698744,-9.79734,-1.44499,10.3373,-18.031
2023-03-14 21:23:23:40,2.02375,0.649898,-9.76938,-1.44579,10.4051,-18.0921
2023-03-14 21:23:23:50,1.99767,0.583735,-9.70905,-1.4381,10.4784,-18.1411
2023-03-14 21:23:23:60,2.01309,0.497905,-9.66358,-1.42135,10.55,-18.1806
2023-03-14 21:23:23:70,2.01985,0.454762,-9.64468,-1.40644,10.6232,-18.2123
2023-03-14 21:23:23:80,1.98338,0.419952,-9.61369,-1.38923,10.6944,-18.2406
2023-03-14 21:23:23:90,1.91752,0.40993,-9.62059,-1.3739,10.7654,-18.2663
2023-03-14 21:23:23:100,1.92773,0.429753,-9.67094,-1.36257,10.8342,-18.2989
2023-03-14 21:23:23:110,1.9864,0.412789,-9.67992,-1.34698,10.903,-18.3387
2023-03-14 21:23:23:120,1.96305,0.378246,-9.63584,-1.31842,10.9664,-18.3737
2023-03-14 21:23:23:130,1.86287,0.37294,-9.57041,-1.28666,11.0235,-18.4141
2023-03-14 21:23:23:140,1.78837,0.339572,-9.53667,-1.24908,11.0791,-18.4637
2023-03-14 21:23:23:150,1.77653,0.298744,-9.51874,-1.20571,11.133,-18.5274
2023-03-14 21:23:23:160,1.80407,0.260963,-9.50146,-1.16526,11.1911,-18.6025
2023-03-14 21:23:23:170,1.85354,0.210402,-9.53297,-1.12439,11.2446,-18.6883
2023-03-14 21:23:23:180,1.92903,0.224006,-9.61247,-1.08257,11.2978,-18.7861
2023-03-14 21:23:23:190,1.98828,0.241236,-9.66812,-1.03469,11.3509,-18.8934
2023-03-14 21:23:23:200,2.05759,0.193839,-9.62234,-0.98098,11.4065,-19.0072
2023-03-14 21:23:23:210,2.11141,0.118728,-9.54145,-0.912194,11.4642,-19.1224
2023-03-14 21:23:23:220,2.10989,0.0639292,-9.44418,-0.839131,11.5185,-19.2388
2023-03-14 21:23:23:230,2.04646,-0.00702802,-9.33774,-0.768976,11.5668,-19.3516
2023-03-14 21:23:23:240,1.97775,-0.0414501,-9.28215,-0.7005,11.6117,-19.4651
2023-03-14 21:23:23:250,1.95401,-0.0933397,-9.26278,-0.639739,11.6589,-19.583
2023-03-14 21:23:23:260,1.97255,-0.123389,-9.28263,-0.590286,11.7051,-19.7066
2023-03-14 21:23:23:270,1.99994,-0.0883436,-9.33479,-0.553775,11.754,-19.8366
2023-03-14 21:23:23:280,2.04914,-0.0334326,-9.41067,-0.529076,11.806,-19.9665
2023-03-14 21:23:23:290,2.12569,-0.0139982,-9.46221,-0.504012,11.8594,-20.0994
2023-03-14 21:23:23:300,2.14832,-0.00974891,-9.43284,-0.477778,11.9128,-20.2279
2023-03-14 21:23:23:310,2.11938,-0.0210111,-9.37389,-0.449766,11.9688,-20.3545
2023-03-14 21:23:23:320,2.13096,-0.0756788,-9.31133,-0.42406,12.0175,-20.475
2023-03-14 21:23:23:330,2.14135,-0.0619401,-9.29754,-0.412579,12.0585,-20.6005
2023-03-14 21:23:23:340,2.16591,0.00108603,-9.32863,-0.412558,12.0955,-20.7231
2023-03-14 21:23:23:350,2.21507,0.0420941,-9.36733,-0.418931,12.1225,-20.8478
2023-03-14 21:23:23:360,2.32029,0.0604669,-9.41323,-0.429087,12.1438,-20.9714
2023-03-14 21:23:23:370,2.42952,0.0908396,-9.44147,-0.443799,12.157,-21.0855
2023-03-14 21:23:23:380,2.46643,0.121667,-9.45962,-0.460523,12.1601,-21.1886
2023-03-14 21:23:23:390,2.46104,0.101793,-9.47797,-0.467789,12.1498,-21.2756
2023-03-14 21:23:23:400,2.41094,0.110238,-9.5128,-0.477138,12.1316,-21.3429
2023-03-14 21:23:23:410,2.35463,0.130023,-9.58485,-0.492613,12.1015,-21.4003
2023-03-14 21:23:23:420,2.31993,0.120432,-9.62032,-0.507263,12.0648,-21.4436
2023-03-14 21:23:23:430,2.30252,0.11207,-9.63267,-0.520904,12.015,-21.4726
2023-03-14 21:23:23:440,2.2483,0.140491,-9.67672,-0.535747,11.9571,-21.4914
2023-03-14 21:23:23:450,2.20259,0.165751,-9.73513,-0.549055,11.8972,-21.5024
2023-03-14 21:23:23:460,2.21178,0.181951,-9.8068,-0.558416,11.8272,-21.5064
2023-03-14 21:23:23:470,2.17899,0.192283,-9.82704,-0.561181,11.7541,-21.4998
2023-03-14 21:23:23:480,2.10511,0.177206,-9.80316,-0.556006,11.674,-21.4844
2023-03-14 21:23:23:490,2.01571,0.150112,-9.75542,-0.545364,11.5876,-21.4609
2023-03-14 21:23:23:500,1.91317,0.12299,-9.72272,-0.528964,11.4961,-21.4307
2023-03-14 21:23:23:510,1.82533,0.0899478,-9.69835,-0.510677,11.402,-21.3972
2023-03-14 21:23:23:520,1.77693,0.0623566,-9.66565,-0.497295,11.3073,-21.3637
2023-03-14 21:23:23:530,1.75697,0.0583217,-9.63718,-0.483979,11.209,-21.3326
2023-03-14 21:23:23:540,1.74355,0.0552558,-9.62835,-0.473015,11.1121,-21.3019
2023-03-14 21:23:23:550,1.74381,0.046971,-9.63179,-0.462068,11.0118,-21.2651
2023-03-14 21:23:23:560,1.73453,0.043467,-9.63849,-0.452946,10.913,-21.2283
2023-03-14 21:23:23:570,1.67699,0.0184035,-9.61066,-0.439719,10.8203,-21.1879
2023-03-14 21:23:23:580,1.61558,-0.0162337,-9.59175,-0.427971,10.7304,-21.1423
2023-03-14 21:23:23:590,1.5839,-0.0163174,-9.60073,-0.416467,10.6456,-21.0922
2023-03-14 21:23:23:600,1.63965,0.0132162,-9.68327,-0.409692,10.571,-21.0453
2023-03-14 21:23:23:610,1.7117,-0.0111567,-9.72894,-0.397656,10.5081,-20.9949
2023-03-14 21:23:23:620,1.71228,-0.0558054,-9.67612,-0.380678,10.4501,-20.9371
2023-03-14 21:23:23:630,1.65189,-0.0775806,-9.63782,-0.364541,10.3896,-20.8716
2023-03-14 21:23:23:640,1.58785,-0.047947,-9.63753,-0.357388,10.3301,-20.81
2023-03-14 21:23:23:650,1.54731,-0.0161185,-9.66633,-0.356363,10.2744,-20.7509
2023-03-14 21:23:23:660,1.5059,-0.00128287,-9.66321,-0.359963,10.2176,-20.6957
2023-03-14 21:23:23:670,1.46208,0.0263859,-9.64909,-0.36482,10.1677,-20.6431
2023-03-14 21:23:23:680,1.43654,0.0569853,-9.66156,-0.372694,10.1227,-20.5966
2023-03-14 21:23:23:690,1.43486,0.0502192,-9.65502,-0.382696,10.0844,-20.5573
2023-03-14 21:23:23:700,1.43942,0.0615775,-9.63833,-0.392683,10.0605,-20.5252
2023-03-14 21:23:23:710,1.47563,0.0842682,-9.64985,-0.406703,10.0433,-20.4979
2023-03-14 21:23:23:720,1.53296,0.0886438,-9.64739,-0.412546,10.0318,-20.4734
2023-03-14 21:23:23:730,1.57686,0.0597733,-9.6408,-0.415188,10.0285,-20.4547
2023-03-14 21:23:23:740,1.55993,0.0575564,-9.62585,-0.418317,10.0243,-20.4395
2023-03-14 21:23:23:750,1.54117,0.0786533,-9.63379,-0.425663,10.0197,-20.4281
2023-03-14 21:23:23:760,1.56557,0.0897513,-9.64091,-0.436929,10.0147,-20.4306
2023-03-14 21:23:23:770,1.60364,0.0977916,-9.61969,-0.447148,10.0142,-20.4449
2023-03-14 21:23:23:780,1.61763,0.108754,-9.63279,-0.460944,10.012,-20.4662
2023-03-14 21:23:23:790,1.65715,0.129849,-9.6553,-0.476548,10.0041,-20.4981
2023-03-14 21:23:23:800,1.71537,0.120741,-9.67494,-0.492019,9.99746,-20.5334
2023-03-14 21:23:23:810,1.75592,0.141449,-9.64308,-0.508592,9.9859,-20.5719
2023-03-14 21:23:23:820,1.75619,0.151421,-9.57708,-0.526531,9.96875,-20.6098
2023-03-14 21:23:23:830,1.70379,0.144098,-9.55645,-0.542365,9.95106,-20.6462
2023-03-14 21:23:23:840,1.68127,0.144976,-9.55589,-0.562783,9.92948,-20.6847
2023-03-14 21:23:23:850,1.697,0.166251,-9.57434,-0.586675,9.91432,-20.726
2023-03-14 21:23:23:860,1.77166,0.190883,-9.62726,-0.613902,9.90387,-20.7695
2023-03-14 21:23:23:870,1.81862,0.195799,-9.66852,-0.636139,9.88815,-20.8075
2023-03-14 21:23:23:880,1.77224,0.203457,-9.68016,-0.658403,9.86995,-20.8414
2023-03-14 21:23:23:890,1.70445,0.191823,-9.67794,-0.678766,9.84508,-20.8721
2023-03-14 21:23:23:900,1.68136,0.203508,-9.67937,-0.695538,9.82396,-20.9014
2023-03-14 21:23:23:910,1.69435,0.213954,-9.68752,-0.713311,9.79804,-20.9314
2023-03-14 21:23:23:920,1.68819,0.211874,-9.71666,-0.735864,9.76952,-20.9613
2023-03-14 21:23:23:930,1.63569,0.212593,-9.71433,-0.753022,9.73814,-20.9895
2023-03-14 21:23:23:940,1.59491,0.212653,-9.70424,-0.770699,9.70672,-21.0167
2023-03-14 21:23:23:950,1.55497,0.227598,-9.70821,-0.786261,9.67418,-21.0437
2023-03-14 21:23:23:960,1.53571,0.234399,-9.70853,-0.801808,9.64447,-21.0783
2023-03-14 21:23:23:970,1.53882,0.231163,-9.69224,-0.817801,9.61387,-21.115
2023-03-14 21:23:23:980,1.54854,0.229544,-9.67382,-0.832736,9.58557,-21.1485
2023-03-14 21:23:23:990,1.56668,0.229688,-9.66712,-0.842438,9.56329,-21.1815
2023-03-14 21:23:24:0,1.60292,0.225224,-9.67551,-0.853309,9.54399,-21.2176
2023-03-14 21:23:24:10,1.61702,0.229051,-9.67956,-0.865582,9.52258,-21.2535
2023-03-14 21:23:24:20,1.62374,0.218843,-9.69387,-0.875562,9.50244,-21.2844
2023-03-14 21:23:24:30,1.64455,0.213587,-9.70047,-0.881462,9.4819,-21.3153
2023-03-14 21:23:24:40,1.65791,0.192054,-9.70723,-0.887619,9.46157,-21.3408
2023-03-14 21:23:24:50,1.64977,0.189218,-9.68969,-0.893376,9.44189,-21.3618
2023-03-14 21:23:24:60,1.62351,0.177141,-9.6948,-0.897825,9.41802,-21.3736
2023-03-14 21:23:24:70,1.57341,0.171404,-9.68791,-0.901205,9.39556,-21.3835
2023-03-14 21:23:24:80,1.50583,0.173133,-9.67796,-0.902547,9.37538,-21.3897
2023-03-14 21:23:24:90,1.48042,0.158852,-9.67771,-0.904452,9.35604,-21.3985
2023-03-14 21:23:24:100,1.48991,0.155391,-9.67033,-0.905772,9.33669,-21.4038
2023-03-14 21:23:24:110,1.47842,0.162018,-9.6631,-0.906876,9.32605,-21.4113
2023-03-14 21:23:24:120,1.46781,0.155959,-9.65752,-0.908255,9.31356,-21.4226
2023-03-14 21:23:24:130,1.47406,0.161923,-9.65444,-0.912753,9.30678,-21.4317
2023-03-14 21:23:24:140,1.49405,0.151639,-9.66856,-0.917395,9.29594,-21.442
2023-03-14 21:23:24:150,1.51741,0.14128,-9.67184,-0.920654,9.28993,-21.4538
2023-03-14 21:23:24:160,1.51917,0.131099,-9.67148,-0.927594,9.28131,-21.4654
2023-03-14 21:23:24:170,1.5198,0.146898,-9.67076,-0.936372,9.272,-21.4785
2023-03-14 21:23:24:180,1.53464,0.148395,-9.67489,-0.945432,9.2648,-21.4871
2023-03-14 21:23:24:190,1.55094,0.122169,-9.66795,-0.956552,9.2575,-21.4988
2023-03-14 21:23:24:200,1.56104,0.116895,-9.65561,-0.962639,9.24825,-21.5077
2023-03-14 21:23:24:210,1.55403,0.117938,-9.65522,-0.977706,9.2394,-21.5149
2023-03-14 21:23:24:220,1.565,0.122403,-9.66883,-0.991298,9.22664,-21.5185
2023-03-14 21:23:24:230,1.55575,0.140547,-9.6655,-1.00751,9.21473,-21.5242
2023-03-14 21:23:24:240,1.53566,0.148223,-9.66678,-1.02577,9.20502,-21.524
2023-03-14 21:23:24:250,1.51144,0.164087,-9.68771,-1.04285,9.19638,-21.5229
2023-03-14 21:23:24:260,1.49937,0.167209,-9.68663,-1.06062,9.18628,-21.5247
2023-03-14 21:23:24:270,1.51144,0.134724,-9.65908,-1.07314,9.18235,-21.5228
2023-03-14 21:23:24:280,1.56747,0.118891,-9.69789,-1.08735,9.17687,-21.5253
2023-03-14 21:23:24:290,1.58087,0.23019,-9.71718,-1.1093,9.17558,-21.5281
2023-03-14 21:23:24:300,1.57254,0.137576,-9.60495,-1.11595,9.17124,-21.5308
2023-03-14 21:23:24:310,1.60917,0.0536792,-9.53918,-1.12266,9.16706,-21.5298
2023-03-14 21:23:24:320,1.64919,0.13452,-9.6619,-1.14408,9.16257,-21.529
2023-03-14 21:23:24:330,1.7165,0.243034,-9.86668,-1.16745,9.1609,-21.5312
2023-03-14 21:23:24:340,1.81733,0.194007,-9.87901,-1.17423,9.16966,-21.5279
2023-03-14 21:23:24:350,1.81827,0.0999199,-9.70894,-1.16566,9.17377,-21.5106
2023-03-14 21:23:24:360,1.74149,0.0492338,-9.55182,-1.14884,9.16876,-21.4808
2023-03-14 21:23:24:370,1.70098,0.0263586,-9.4905,-1.14411,9.153,-21.4493
2023-03-14 21:23:24:380,1.72535,0.0752951,-9.59154,-1.15084,9.1319,-21.4158
2023-03-14 21:23:24:390,1.69928,0.184989,-9.75211,-1.17116,9.1047,-21.3758
2023-03-14 21:23:24:400,1.59927,0.227428,-9.74373,-1.18163,9.07103,-21.3297
2023-03-14 21:23:24:410,1.47981,0.165771,-9.62385,-1.1824,9.0265,-21.2762
2023-03-14 21:23:24:420,1.34786,0.146785,-9.59308,-1.18283,8.98149,-21.224
2023-03-14 21:23:24:430,1.21982,0.221112,-9.60583,-1.18997,8.93327,-21.1745
2023-03-14 21:23:24:440,1.11516,0.233898,-9.51139,-1.19948,8.88544,-21.1355
2023-03-14 21:23:24:450,1.0651,0.115224,-9.39788,-1.21034,8.83936,-21.1097
2023-03-14 21:23:24:460,1.10458,0.0531614,-9.47402,-1.23655,8.79573,-21.0962
2023-03-14 21:23:24:470,1.20029,0.228047,-9.79605,-1.28746,8.74875,-21.1
2023-03-14 21:23:24:480,1.26736,0.4209,-10.0832,-1.34371,8.70208,-21.1177
2023-03-14 21:23:24:490,1.28789,0.519524,-10.0619,-1.38916,8.65752,-21.1445
2023-03-14 21:23:24:500,1.24759,0.386459,-9.74735,-1.40531,8.61864,-21.1778
2023-03-14 21:23:24:510,1.23762,0.174421,-9.43446,-1.40734,8.58371,-21.2115
2023-03-14 21:23:24:520,1.28374,0.152286,-9.45894,-1.43231,8.55462,-21.2453
2023-03-14 21:23:24:530,1.36168,0.304031,-9.71356,-1.48663,8.52004,-21.2877
2023-03-14 21:23:24:540,1.42742,0.411463,-9.92449,-1.54883,8.47679,-21.3377
2023-03-14 21:23:24:550,1.40329,0.453858,-9.98669,-1.60276,8.43501,-21.384
2023-03-14 21:23:24:560,1.32217,0.430891,-9.91497,-1.63778,8.39329,-21.4236
2023-03-14 21:23:24:570,1.23848,0.388986,-9.782,-1.65654,8.35827,-21.4622
2023-03-14 21:23:24:580,1.18759,0.359825,-9.69416,-1.67284,8.33552,-21.5052
2023-03-14 21:23:24:590,1.24718,0.332925,-9.65181,-1.69114,8.32665,-21.5533
2023-03-14 21:23:24:600,1.38842,0.306408,-9.66231,-1.70922,8.32591,-21.602
2023-03-14 21:23:24:610,1.43762,0.254563,-9.59883,-1.722,8.32926,-21.6469
2023-03-14 21:23:24:620,1.47318,0.189517,-9.54336,-1.73736,8.33296,-21.6872
2023-03-14 21:23:24:630,1.56033,0.211923,-9.59454,-1.76338,8.33959,-21.7237
2023-03-14 21:23:24:640,1.57133,0.259483,-9.64447,-1.79637,8.34341,-21.7554
2023-03-14 21:23:24:650,1.51579,0.281633,-9.5872,-1.82915,8.3377,-21.7802
2023-03-14 21:23:24:660,1.47634,0.239569,-9.51865,-1.86132,8.33177,-21.8045
2023-03-14 21:23:24:670,1.47199,0.269174,-9.50601,-1.90504,8.32069,-21.8271
2023-03-14 21:23:24:680,1.51469,0.345456,-9.55399,-1.95775,8.30442,-21.8504
2023-03-14 21:23:24:690,1.55028,0.373977,-9.6217,-2.0101,8.29339,-21.8739
2023-03-14 21:23:24:700,1.57337,0.421797,-9.70066,-2.06633,8.27876,-21.8981
2023-03-14 21:23:24:710,1.5899,0.461024,-9.74972,-2.1205,8.26216,-21.9207
2023-03-14 21:23:24:720,1.55122,0.443607,-9.71952,-2.16584,8.23921,-21.9356
2023-03-14 21:23:24:730,1.48144,0.430296,-9.69463,-2.20211,8.21186,-21.9445
2023-03-14 21:23:24:740,1.40666,0.466013,-9.71619,-2.23945,8.17992,-21.9533
2023-03-14 21:23:24:750,1.35151,0.490426,-9.78025,-2.27454,8.14844,-21.9687
2023-03-14 21:23:24:760,1.29378,0.537733,-9.85893,-2.31045,8.11545,-21.9853
2023-03-14 21:23:24:770,1.27142,0.58794,-9.9582,-2.34412,8.08612,-22.0095
2023-03-14 21:23:24:780,1.25515,0.605397,-9.99115,-2.35985,8.05894,-22.0423
2023-03-14 21:23:24:790,1.29097,0.574481,-9.96857,-2.36279,8.03647,-22.0749
2023-03-14 21:23:24:800,1.31555,0.529226,-9.91292,-2.35377,8.01848,-22.1081
2023-03-14 21:23:24:810,1.32022,0.483604,-9.84164,-2.33164,8.00749,-22.1376
2023-03-14 21:23:24:820,1.35649,0.419439,-9.76468,-2.30228,8.00291,-22.1623
2023-03-14 21:23:24:830,1.34574,0.390429,-9.73116,-2.27553,7.99476,-22.1801
2023-03-14 21:23:24:840,1.32969,0.396993,-9.7427,-2.25016,7.98703,-22.1983
2023-03-14 21:23:24:850,1.30132,0.389827,-9.71283,-2.22621,7.98068,-22.2143
2023-03-14 21:23:24:860,1.26944,0.359456,-9.68889,-2.19831,7.973,-22.231
2023-03-14 21:23:24:870,1.24749,0.34745,-9.66442,-2.17623,7.96665,-22.2471
2023-03-14 21:23:24:880,1.2547,0.350574,-9.66549,-2.1566,7.95855,-22.2661
2023-03-14 21:23:24:890,1.28581,0.344512,-9.66269,-2.13817,7.95086,-22.2879
2023-03-14 21:23:24:900,1.30764,0.317544,-9.65849,-2.12257,7.94904,-22.3064
2023-03-14 21:23:24:910,1.32421,0.333122,-9.66653,-2.11004,7.9502,-22.3263
2023-03-14 21:23:24:920,1.32918,0.332852,-9.69076,-2.09873,7.94907,-22.3459
2023-03-14 21:23:24:930,1.34317,0.315024,-9.69594,-2.08508,7.94999,-22.363
2023-03-14 21:23:24:940,1.3608,0.307313,-9.67847,-2.07044,7.94837,-22.3781
2023-03-14 21:23:24:950,1.33226,0.323289,-9.66291,-2.05619,7.95027,-22.3913
2023-03-14 21:23:24:960,1.32051,0.307879,-9.64429,-2.044,7.957,-22.4036
2023-03-14 21:23:24:970,1.36701,0.306141,-9.62278,-2.03423,7.9632,-22.4124
2023-03-14 21:23:24:980,1.40714,0.327366,-9.64789,-2.0287,7.96996,-22.4208
2023-03-14 21:23:24:990,1.43781,0.346843,-9.67127,-2.02752,7.9784,-22.4241
2023-03-14 21:23:25:0,1.4719,0.327479,-9.67819,-2.02605,7.98697,-22.4236
2023-03-14 21:23:25:10,1.53194,0.316816,-9.68168,-2.02822,7.99563,-22.4131
2023-03-14 21:23:25:20,1.53457,0.35737,-9.70407,-2.0325,8.0027,-22.3966
2023-03-14 21:23:25:30,1.51355,0.41002,-9.70646,-2.03382,8.01056,-22.3748
2023-03-14 21:23:25:40,1.53248,0.364989,-9.64216,-2.02968,8.02016,-22.3429
2023-03-14 21:23:25:50,1.57776,0.307748,-9.60323,-2.02446,8.0331,-22.3013
2023-03-14 21:23:25:60,1.67708,0.332469,-9.61583,-2.02784,8.04662,-22.247
2023-03-14 21:23:25:70,1.89974,0.364774,-9.63885,-2.03439,8.05938,-22.1793
2023-03-14 21:23:25:80,2.24502,0.371796,-9.65328,-2.04743,8.07346,-22.0871
2023-03-14 21:23:25:90,2.63659,0.354929,-9.65915,-2.05761,8.09781,-21.9512
2023-03-14 21:23:25:100,2.94273,0.313815,-9.61271,-2.05974,8.12273,-21.7481
2023-03-14 21:23:25:110,3.07665,0.279732,-9.48669,-2.0524,8.15278,-21.4566
2023-03-14 21:23:25:120,3.08293,0.214074,-9.3108,-2.04281,8.18396,-21.0744
2023-03-14 21:23:25:130,3.0122,0.142756,-9.16866,-2.04059,8.21618,-20.6055
2023-03-14 21:23:25:140,2.99684,0.167439,-9.15783,-2.05946,8.25616,-20.0516
2023-03-14 21:23:25:150,3.10196,0.207634,-9.21188,-2.09953,8.30066,-19.4172
2023-03-14 21:23:25:160,3.17096,0.228806,-9.20548,-2.15504,8.33385,-18.6989
2023-03-14 21:23:25:170,3.06103,0.321938,-9.21251,-2.23072,8.36251,-17.8913
2023-03-14 21:23:25:180,2.82627,0.439854,-9.22081,-2.32047,8.38393,-17.0032
2023-03-14 21:23:25:190,2.59896,0.529671,-9.2356,-2.42849,8.40469,-16.0464
2023-03-14 21:23:25:200,2.3965,0.631838,-9.25096,-2.55284,8.43602,-15.0381
2023-03-14 21:23:25:210,2.18254,0.706903,-9.2461,-2.68716,8.47778,-13.9794
2023-03-14 21:23:25:220,2.01363,0.777644,-9.24283,-2.83636,8.53416,-12.8775
2023-03-14 21:23:25:230,1.8422,0.856994,-9.24623,-2.99516,8.60091,-11.7467
2023-03-14 21:23:25:240,1.69322,0.949478,-9.30317,-3.16919,8.67751,-10.5982
2023-03-14 21:23:25:250,1.6059,1.00412,-9.3849,-3.35774,8.76286,-9.44039
2023-03-14 21:23:25:260,1.55537,1.05777,-9.47367,-3.55188,8.85099,-8.28234
2023-03-14 21:23:25:270,1.39425,1.14525,-9.55643,-3.75568,8.93317,-7.1276
2023-03-14 21:23:25:280,1.16863,1.25394,-9.66588,-3.96074,9.00912,-5.98624
2023-03-14 21:23:25:290,0.939825,1.35923,-9.77207,-4.16425,9.07856,-4.87015
2023-03-14 21:23:25:300,0.72937,1.42295,-9.82465,-4.35833,9.1498,-3.79122
2023-03-14 21:23:25:310,0.561908,1.42995,-9.83211,-4.54348,9.21977,-2.76417
2023-03-14 21:23:25:320,0.495984,1.40993,-9.86728,-4.71068,9.28498,-1.7976
2023-03-14 21:23:25:330,0.550931,1.3859,-9.94053,-4.86884,9.35023,-0.895273
2023-03-14 21:23:25:340,0.588175,1.34895,-9.97109,-5.01536,9.40492,-0.0543723
2023-03-14 21:23:25:350,0.581086,1.37145,-9.98622,-5.15561,9.43811,0.733235
2023-03-14 21:23:25:360,0.567472,1.42617,-10.0624,-5.29174,9.45401,1.45595
2023-03-14 21:23:25:370,0.577614,1.44689,-10.1096,-5.41208,9.45023,2.11819
2023-03-14 21:23:25:380,0.529397,1.46208,-10.1023,-5.5141,9.42623,2.7239
2023-03-14 21:23:25:390,0.414319,1.44125,-10.0416,-5.59915,9.38924,3.27279
2023-03-14 21:23:25:400,0.337915,1.41187,-10.012,-5.66999,9.34226,3.76126
2023-03-14 21:23:25:410,0.374158,1.36457,-10.0234,-5.72778,9.28973,4.18311
2023-03-14 21:23:25:420,0.422161,1.31926,-9.99744,-5.77257,9.2278,4.5448
2023-03-14 21:23:25:430,0.413457,1.21946,-9.96407,-5.80607,9.15352,4.85257
2023-03-14 21:23:25:440,0.288084,1.24417,-9.79871,-5.83692,9.05529,5.10356
2023-03-14 21:23:25:450,0.277114,1.42276,-10.134,-5.86186,8.98716,5.29378
2023-03-14 21:23:25:460,0.322609,1.27548,-10.0329,-5.87422,8.88864,5.41549
2023-03-14 21:23:25:470,0.373944,1.16047,-9.89721,-5.87402,8.78249,5.48954
2023-03-14 21:23:25:480,0.216604,1.28226,-9.91761,-5.87417,8.66702,5.5119
2023-03-14 21:23:25:490,0.196503,1.31625,-10.0413,-5.86667,8.55879,5.46282
2023-03-14 21:23:25:500,0.198281,1.24253,-10.026,-5.84085,8.45699,5.35968
2023-03-14 21:23:25:510,-0.0123399,1.14646,-9.8316,-5.80139,8.34535,5.2112
2023-03-14 21:23:25:520,-0.294893,1.15621,-9.73757,-5.76351,8.23065,5.00401
2023-03-14 21:23:25:530,-0.532591,1.22688,-9.75979,-5.73478,8.11525,4.71895
2023-03-14 21:23:25:540,-0.620897,1.28126,-9.83347,-5.71358,8.00382,4.33619
2023-03-14 21:23:25:550,-0.530733,1.34546,-9.97619,-5.68962,7.89615,3.85108
2023-03-14 21:23:25:560,-0.325343,1.4041,-10.1691,-5.65693,7.79275,3.26699
2023-03-14 21:23:25:570,-0.0376394,1.36549,-10.2331,-5.60821,7.68767,2.59425
2023-03-14 21:23:25:580,0.239022,1.25588,-10.2612,-5.53199,7.58262,1.85426
2023-03-14 21:23:25:590,0.307501,1.15688,-10.2636,-5.42638,7.49371,1.07006
2023-03-14 21:23:25:600,0.0746197,1.10964,-10.0358,-5.30358,7.42238,0.249516
2023-03-14 21:23:25:610,-0.309029,0.980358,-9.53348,-5.17054,7.35426,-0.610602
2023-03-14 21:23:25:620,-0.387935,0.992648,-9.29421,-5.06611,7.30563,-1.53817
2023-03-14 21:23:25:630,0.235082,1.06729,-9.60941,-5.00291,7.29343,-2.55878
2023-03-14 21:23:25:640,1.02718,1.08858,-9.96756,-4.95751,7.30162,-3.62599
2023-03-14 21:23:25:650,1.54247,1.0487,-10.0338,-4.88987,7.29788,-4.68763
2023-03-14 21:23:25:660,1.68359,0.924634,-9.90209,-4.79219,7.27707,-5.72611
2023-03-14 21:23:25:670,1.57159,0.734034,-9.62103,-4.67294,7.22875,-6.72726
2023-03-14 21:23:25:680,1.26731,0.614686,-9.33135,-4.5438,7.1529,-7.69604
2023-03-14 21:23:25:690,0.936908,0.506538,-9.08486,-4.41752,7.06477,-8.6455
2023-03-14 21:23:25:700,0.81519,0.348478,-8.93835,-4.30727,6.97899,-9.59783
2023-03-14 21:23:25:710,0.975447,0.189932,-8.90229,-4.23008,6.89096,-10.5481
2023-03-14 21:23:25:720,1.22275,0.113881,-8.89216,-4.188,6.8088,-11.4905
2023-03-14 21:23:25:730,1.414,0.0416294,-8.83333,-4.1815,6.72832,-12.4137
2023-03-14 21:23:25:740,1.55847,0.0973843,-8.65057,-4.22316,6.65617,-13.3025
2023-03-14 21:23:25:750,1.58797,-0.0433985,-8.32182,-4.30714,6.58359,-14.1544
2023-03-14 21:23:25:760,1.59954,-0.13048,-8.19035,-4.4642,6.50103,-14.9709
2023-03-14 21:23:25:770,1.81364,0.140443,-8.52912,-4.73701,6.42026,-15.7588
2023-03-14 21:23:25:780,2.05797,0.514866,-9.08792,-5.09115,6.33461,-16.5141
2023-03-14 21:23:25:790,2.10636,0.87056,-9.41418,-5.48662,6.23295,-17.213
2023-03-14 21:23:25:800,2.00684,1.04406,-9.49054,-5.89623,6.10766,-17.8636
2023-03-14 21:23:25:810,1.88954,1.19798,-9.62944,-6.31453,5.96765,-18.4635
2023-03-14 21:23:25:820,1.79865,1.53651,-9.8459,-6.73637,5.82999,-19.0175
2023-03-14 21:23:25:830,1.75945,1.93271,-10.0402,-7.15132,5.70875,-19.534
2023-03-14 21:23:25:840,1.73721,2.01125,-9.96865,-7.52731,5.59602,-20.0104
2023-03-14 21:23:25:850,1.76021,2.11909,-10.0305,-7.87749,5.51464,-20.4362
2023-03-14 21:23:25:860,1.85992,2.329,-10.2823,-8.20861,5.48246,-20.815
2023-03-14 21:23:25:870,2.01018,2.48722,-10.4299,-8.5036,5.49067,-21.1411
2023-03-14 21:23:25:880,2.02418,2.54232,-10.4581,-8.74228,5.53818,-21.4026
2023-03-14 21:23:25:890,1.89389,2.61021,-10.4222,-8.93375,5.62039,-21.6002
2023-03-14 21:23:25:900,1.80713,2.63782,-10.3197,-9.08009,5.73203,-21.7536
2023-03-14 21:23:25:910,1.79382,2.58598,-10.15,-9.19043,5.86779,-21.873
2023-03-14 21:23:25:920,1.81785,2.45702,-10.043,-9.26781,6.02581,-21.9527
2023-03-14 21:23:25:930,1.83946,2.43361,-10.0444,-9.32728,6.18658,-21.9982
2023-03-14 21:23:25:940,1.82652,2.47513,-10.1063,-9.36478,6.351,-22.015
2023-03-14 21:23:25:950,1.79875,2.43186,-10.102,-9.36943,6.51711,-22.011
2023-03-14 21:23:25:960,1.7551,2.35884,-10.0415,-9.34378,6.68127,-21.9869
2023-03-14 21:23:25:970,1.73352,2.29735,-9.98747,-9.29166,6.84492,-21.9485
2023-03-14 21:23:25:980,1.72979,2.21683,-9.94921,-9.21435,7.00785,-21.9038
2023-03-14 21:23:25:990,1.74299,2.07409,-9.86131,-9.10119,7.16172,-21.8487
2023-03-14 21:23:26:0,1.7103,1.91148,-9.698,-8.95838,7.31123,-21.7839
2023-03-14 21:23:26:10,1.64869,1.75444,-9.55804,-8.79238,7.44708,-21.7194
2023-03-14 21:23:26:20,1.6139,1.58525,-9.47713,-8.6136,7.56691,-21.6506
2023-03-14 21:23:26:30,1.52247,1.48425,-9.40823,-8.42509,7.66855,-21.5864
2023-03-14 21:23:26:40,1.41536,1.4726,-9.41566,-8.23651,7.76064,-21.5293
2023-03-14 21:23:26:50,1.46015,1.40628,-9.4515,-8.04234,7.84103,-21.49
2023-03-14 21:23:26:60,1.63347,1.26082,-9.45485,-7.84382,7.90776,-21.4646
2023-03-14 21:23:26:70,1.88724,1.13711,-9.52325,-7.64035,7.96644,-21.4344
2023-03-14 21:23:26:80,2.15886,1.04922,-9.55203,-7.43164,8.02112,-21.3883
2023-03-14 21:23:26:90,2.17316,0.913018,-9.40622,-7.21401,8.06347,-21.3087
2023-03-14 21:23:26:100,1.6372,0.789849,-9.21441,-6.98521,8.09109,-21.1876
2023-03-14 21:23:26:110,0.750908,0.862723,-9.1846,-6.76796,8.10575,-21.0495
2023-03-14 21:23:26:120,0.118321,1.08635,-9.33932,-6.57563,8.13007,-20.9518
2023-03-14 21:23:26:130,0.21343,1.1595,-9.58909,-6.40128,8.17558,-20.9394
2023-03-14 21:23:26:140,0.850425,1.04113,-9.78562,-6.22573,8.25239,-20.99
2023-03-14 21:23:26:150,1.34008,0.947373,-9.81954,-6.03746,8.33333,-21.0558
2023-03-14 21:23:26:160,1.46659,0.903348,-9.72497,-5.83932,8.38875,-21.1166
2023-03-14 21:23:26:170,1.49994,0.834152,-9.63383,-5.64367,8.42008,-21.182
2023-03-14 21:23:26:180,1.62671,0.799627,-9.62751,-5.45784,8.42643,-21.2533
2023-03-14 21:23:26:190,1.71464,0.799991,-9.67899,-5.28724,8.41201,-21.3188
2023-03-14 21:23:26:200,1.67939,0.794643,-9.64329,-5.12556,8.37989,-21.3741
2023-03-14 21:23:26:210,1.53065,0.760283,-9.57818,-4.96505,8.33036,-21.4151
2023-03-14 21:23:26:220,1.29713,0.761355,-9.55003,-4.81227,8.27051,-21.4496
2023-03-14 21:23:26:230,1.10551,0.786867,-9.57851,-4.66926,8.20829,-21.486
2023-03-14 21:23:26:240,1.0573,0.798965,-9.65979,-4.53518,8.15282,-21.5318
2023-03-14 21:23:26:250,1.07021,0.796719,-9.73328,-4.40291,8.1067,-21.5864
2023-03-14 21:23:26:260,1.0806,0.774531,-9.78326,-4.2667,8.07207,-21.6474
2023-03-14 21:23:26:270,1.15304,0.78604,-9.86377,-4.12458,8.05098,-21.7096
2023-03-14 21:23:26:280,1.28337,0.768984,-9.96154,-3.97152,8.04521,-21.7776
2023-03-14 21:23:26:290,1.39176,0.72334,-10.0033,-3.7993,8.05233,-21.8413
2023-03-14 21:23:26:300,1.40734,0.678528,-10.0659,-3.60737,8.06907,-21.9013
2023-03-14 21:23:26:310,1.34344,0.606543,-10.1327,-3.39879,8.08887,-21.9547
2023-03-14 21:23:26:320,1.20215,0.535503,-10.1579,-3.16476,8.10663,-22.007
2023-03-14 21:23:26:330,1.0188,0.517817,-10.2146,-2.91367,8.11777,-22.0683
2023-03-14 21:23:26:340,1.01741,0.499385,-10.2557,-2.64623,8.12388,-22.1617
2023-03-14 21:23:26:350,1.25648,0.358159,-10.1823,-2.35973,8.1224,-22.2842
2023-03-14 21:23:26:360,1.42203,0.175794,-9.982,-2.04895,8.11163,-22.4131
2023-03-14 21:23:26:370,1.31786,0.0273708,-9.79319,-1.72786,8.0937,-22.5286
2023-03-14 21:23:26:380,1.10326,-0.0502933,-9.6543,-1.40861,8.06668,-22.6372
2023-03-14 21:23:26:390,1.0059,-0.123095,-9.55667,-1.09939,8.03823,-22.7528
2023-03-14 21:23:26:400,0.994299,-0.167719,-9.51023,-0.803936,8.01085,-22.8766
2023-03-14 21:23:26:410,1.04416,-0.217954,-9.49857,-0.52272,7.98969,-23.0026
2023-03-14 21:23:26:420,1.12031,-0.27948,-9.48696,-0.250793,7.97057,-23.1271
2023-03-14 21:23:26:430,1.15013,-0.297888,-9.52605,0.013636,7.95541,-23.2488
2023-03-14 21:23:26:440,1.1855,-0.379854,-9.53242,0.277177,7.94222,-23.3614
2023-03-14 21:23:26:450,1.12318,-0.449161,-9.50285,0.534693,7.92748,-23.4619
2023-03-14 21:23:26:460,1.00574,-0.466718,-9.45455,0.778456,7.91587,-23.5556
2023-03-14 21:23:26:470,0.980114,-0.557816,-9.36334,1.00687,7.90366,-23.6465
2023-03-14 21:23:26:480,0.991189,-0.63517,-9.30042,1.2133,7.89909,-23.7333
2023-03-14 21:23:26:490,1.00174,-0.621919,-9.28777,1.38691,7.8946,-23.8231
2023-03-14 21:23:26:500,1.0449,-0.587968,-9.30576,1.52703,7.88996,-23.9183
2023-03-14 21:23:26:510,1.04863,-0.517687,-9.33057,1.63546,7.88422,-24.0167
2023-03-14 21:23:26:520,1.02771,-0.421503,-9.42523,1.71116,7.87723,-24.1145
2023-03-14 21:23:26:530,1.11467,-0.348243,-9.53541,1.76352,7.86893,-24.2211
2023-03-14 21:23:26:540,1.183,-0.272435,-9.59566,1.80076,7.85995,-24.3187
2023-03-14 21:23:26:550,1.11712,-0.174396,-9.61332,1.82603,7.85137,-24.4055
2023-03-14 21:23:26:560,1.00164,-0.116991,-9.6064,1.84443,7.84182,-24.4823
2023-03-14 21:23:26:570,0.908162,-0.0766508,-9.63039,1.86319,7.8403,-24.5552
2023-03-14 21:23:26:580,0.860817,-0.0633543,-9.67037,1.87272,7.85486,-24.6239
2023-03-14 21:23:26:590,0.803978,-0.0656875,-9.65784,1.88148,7.8815,-24.685
2023-03-14 21:23:26:600,0.729226,-0.0525035,-9.6077,1.88114,7.92272,-24.7466
2023-03-14 21:23:26:610,0.742806,0.0217015,-9.62314,1.86066,7.97866,-24.8222
2023-03-14 21:23:26:620,0.938616,0.12715,-9.73438,1.81149,8.04547,-24.9187
2023-03-14 21:23:26:630,1.14759,0.220497,-9.8048,1.75296,8.12215,-25.0247
2023-03-14 21:23:26:640,1.27726,0.274428,-9.80009,1.68704,8.19854,-25.132
2023-03-14 21:23:26:650,1.37804,0.352065,-9.84262,1.61706,8.27396,-25.2356
2023-03-14 21:23:26:660,1.50217,0.390904,-9.95878,1.55124,8.3544,-25.3322
2023-03-14 21:23:26:670,1.60459,0.456046,-10.0632,1.50086,8.43111,-25.4138
2023-03-14 21:23:26:680,1.60986,0.538984,-10.151,1.47031,8.50914,-25.4722
2023-03-14 21:23:26:690,1.57159,0.524798,-10.1062,1.46467,8.59565,-25.5129
2023-03-14 21:23:26:700,1.54704,0.434542,-9.9895,1.4913,8.68442,-25.5357
2023-03-14 21:23:26:710,1.54017,0.362989,-9.9226,1.53792,8.77961,-25.5383
2023-03-14 21:23:26:720,1.51971,0.306801,-9.8786,1.60211,8.88573,-25.5229
2023-03-14 21:23:26:730,1.50058,0.202146,-9.76776,1.68445,8.99109,-25.4975
2023-03-14 21:23:26:740,1.48162,0.0905561,-9.66198,1.77741,9.09831,-25.4565
2023-03-14 21:23:26:750,1.46828,-0.0130116,-9.6179,1.87509,9.20167,-25.402
2023-03-14 21:23:26:760,1.46854,-0.0736448,-9.59041,1.97337,9.30335,-25.3418
2023-03-14 21:23:26:770,1.46898,-0.112652,-9.59582,2.07049,9.39463,-25.2765
2023-03-14 21:23:26:780,1.4556,-0.162071,-9.62076,2.17479,9.48525,-25.2042
2023-03-14 21:23:26:790,1.43018,-0.229986,-9.57916,2.27771,9.56614,-25.1321
2023-03-14 21:23:26:800,1.38036,-0.31408,-9.5241,2.37962,9.64297,-25.0551
2023-03-14 21:23:26:810,1.36294,-0.369149,-9.5014,2.48268,9.7146,-24.9796
2023-03-14 21:23:26:820,1.38391,-0.41523,-9.51031,2.57367,9.78374,-24.9077
2023-03-14 21:23:26:830,1.42702,-0.462319,-9.496,2.65015,9.84688,-24.84
2023-03-14 21:23:26:840,1.42091,-0.484331,-9.47083,2.71581,9.90655,-24.7704
2023-03-14 21:23:26:850,1.44145,-0.48954,-9.49187,2.77371,9.96474,-24.7033
2023-03-14 21:23:26:860,1.44477,-0.440008,-9.55611,2.81556,10.0172,-24.6342
2023-03-14 21:23:26:870,1.40409,-0.393091,-9.60299,2.85204,10.07,-24.5656
2023-03-14 21:23:26:880,1.39416,-0.345134,-9.62114,2.88221,10.1233,-24.5016
2023-03-14 21:23:26:890,1.43184,-0.329514,-9.62502,2.90847,10.1818,-24.4464
2023-03-14 21:23:26:900,1.46694,-0.334289,-9.61221,2.93209,10.2385,-24.3943
2023-03-14 21:23:26:910,1.49495,-0.329075,-9.57204,2.9544,10.2933,-24.339
2023-03-14 21:23:26:920,1.49374,-0.310993,-9.52505,2.9753,10.3428,-24.2886
2023-03-14 21:23:26:930,1.51155,-0.305696,-9.49418,2.98864,10.387,-24.2357
2023-03-14 21:23:26:940,1.53843,-0.308628,-9.45038,2.99436,10.4247,-24.1855
2023-03-14 21:23:26:950,1.59683,-0.294315,-9.45795,2.99102,10.459,-24.1331
2023-03-14 21:23:26:960,1.66775,-0.238659,-9.51173,2.97631,10.4906,-24.0855
2023-03-14 21:23:26:970,1.73603,-0.200095,-9.5778,2.95875,10.5166,-24.0393
2023-03-14 21:23:26:980,1.74598,-0.156118,-9.59842,2.94472,10.5329,-23.9867
2023-03-14 21:23:26:990,1.77785,-0.159464,-9.57676,2.93219,10.5399,-23.936
2023-03-14 21:23:27:0,1.85047,-0.178879,-9.58278,2.92501,10.5431,-23.8803
2023-03-14 21:23:27:10,1.96579,-0.239543,-9.66889,2.91632,10.5409,-23.8203
2023-03-14 21:23:27:20,2.03121,-0.283065,-9.73388,2.91054,10.516,-23.7574
2023-03-14 21:23:27:30,1.98044,-0.29483,-9.79018,2.90788,10.4699,-23.6846
2023-03-14 21:23:27:40,1.85619,-0.305697,-9.80928,2.90308,10.3986,-23.6033
2023-03-14 21:23:27:50,1.7113,-0.298765,-9.76544,2.90571,10.3111,-23.5208
2023-03-14 21:23:27:60,1.54585,-0.30197,-9.70397,2.91277,10.2186,-23.4366
2023-03-14 21:23:27:70,1.44059,-0.312562,-9.67847,2.92118,10.126,-23.3568
2023-03-14 21:23:27:80,1.41933,-0.340416,-9.66123,2.93951,10.0408,-23.2725
2023-03-14 21:23:27:90,1.38468,-0.374051,-9.63327,2.96644,9.96646,-23.1876
2023-03-14 21:23:27:100,1.37148,-0.409287,-9.55561,2.99949,9.8991,-23.1005
2023-03-14 21:23:27:110,1.35738,-0.45309,-9.4758,3.029,9.83556,-23.0115
2023-03-14 21:23:27:120,1.36866,-0.474916,-9.44757,3.0598,9.7765,-22.9226
