Timestamp,Acceleration_x,Acceleration_y,Acceleration_z,roll,pitch,yaw
2023-03-15 12:05:17:822,-1.14473,0.62942,-9.64979,-3.60672,-6.50368,-6.77633
2023-03-15 12:05:17:830,-1.14798,0.625028,-9.63683,-3.6104,-6.50736,-6.79246
2023-03-15 12:05:17:840,-1.13867,0.634863,-9.6412,-3.61741,-6.51335,-6.81471
2023-03-15 12:05:17:850,-1.14437,0.62277,-9.6496,-3.62503,-6.51295,-6.83615
2023-03-15 12:05:17:860,-1.15148,0.639838,-9.63987,-3.63395,-6.51618,-6.86276
2023-03-15 12:05:17:870,-1.15518,0.645786,-9.65772,-3.64485,-6.52544,-6.89012
2023-03-15 12:05:17:880,-1.15661,0.659356,-9.67651,-3.65814,-6.53373,-6.92065
2023-03-15 12:05:17:890,-1.15416,0.671254,-9.67124,-3.67163,-6.54194,-6.95356
2023-03-15 12:05:17:900,-1.14845,0.675153,-9.67652,-3.68657,-6.55361,-6.99107
2023-03-15 12:05:17:910,-1.12968,0.693418,-9.68947,-3.70171,-6.56763,-7.03237
2023-03-15 12:05:17:920,-1.15924,0.686646,-9.70211,-3.71769,-6.57989,-7.07613
2023-03-15 12:05:17:930,-1.18115,0.690409,-9.70271,-3.72983,-6.59695,-7.12112
2023-03-15 12:05:17:940,-1.18062,0.691756,-9.68406,-3.73888,-6.61213,-7.17238
2023-03-15 12:05:17:950,-1.18406,0.695232,-9.68997,-3.74772,-6.62797,-7.22016
2023-03-15 12:05:17:960,-1.18462,0.682246,-9.69014,-3.75912,-6.64251,-7.26976
2023-03-15 12:05:17:970,-1.19407,0.684058,-9.6825,-3.77155,-6.65525,-7.32202
2023-03-15 12:05:17:980,-1.2235,0.694711,-9.66156,-3.78345,-6.6661,-7.37716
2023-03-15 12:05:17:990,-1.25248,0.682334,-9.65429,-3.79527,-6.67776,-7.43281
2023-03-15 12:05:18:0,-1.29616,0.66698,-9.64613,-3.80455,-6.69085,-7.49064
2023-03-15 12:05:18:10,-1.38104,0.653778,-9.62822,-3.81432,-6.69435,-7.55601
2023-03-15 12:05:18:20,-1.55708,0.683952,-9.62442,-3.82493,-6.69841,-7.62991
2023-03-15 12:05:18:30,-1.81433,0.729787,-9.61256,-3.841,-6.70584,-7.72093
2023-03-15 12:05:18:40,-2.07936,0.756743,-9.59467,-3.86048,-6.71809,-7.84776
2023-03-15 12:05:18:50,-2.40222,0.796769,-9.55271,-3.88063,-6.7348,-8.02388
2023-03-15 12:05:18:60,-2.69784,0.839358,-9.50269,-3.90211,-6.75841,-8.27005
2023-03-15 12:05:18:70,-2.88922,0.882131,-9.49563,-3.92744,-6.79175,-8.59588
2023-03-15 12:05:18:80,-2.92243,0.959476,-9.54883,-3.95176,-6.83441,-9.01457
2023-03-15 12:05:18:90,-2.85482,0.965029,-9.59136,-3.97455,-6.89885,-9.5331
2023-03-15 12:05:18:100,-2.95946,0.999438,-9.55197,-3.99616,-6.99238,-10.1446
2023-03-15 12:05:18:110,-3.26129,1.0904,-9.5281,-4.02003,-7.11718,-10.8567
2023-03-15 12:05:18:120,-3.55222,1.24203,-9.60098,-4.04397,-7.27238,-11.6865
2023-03-15 12:05:18:130,-3.64795,1.40834,-9.70453,-4.07032,-7.45506,-12.6424
2023-03-15 12:05:18:140,-3.49131,1.5066,-9.81069,-4.08155,-7.65611,-13.73
2023-03-15 12:05:18:150,-3.19116,1.56502,-9.8818,-4.06075,-7.86638,-14.9316
2023-03-15 12:05:18:160,-2.88592,1.5452,-9.90696,-4.00628,-8.07845,-16.2329
2023-03-15 12:05:18:170,-2.67419,1.48891,-9.83772,-3.91084,-8.29373,-17.6103
2023-03-15 12:05:18:180,-2.53991,1.43743,-9.74293,-3.79043,-8.52448,-19.061
2023-03-15 12:05:18:190,-2.40228,1.38446,-9.67577,-3.64881,-8.75826,-20.5725
2023-03-15 12:05:18:200,-2.17303,1.34435,-9.66099,-3.49589,-8.99162,-22.1328
2023-03-15 12:05:18:210,-1.86235,1.30357,-9.68536,-3.33042,-9.2188,-23.7278
2023-03-15 12:05:18:220,-1.53035,1.24087,-9.71619,-3.15794,-9.43684,-25.3392
2023-03-15 12:05:18:230,-1.22844,1.14564,-9.72138,-2.97218,-9.64367,-26.9475
2023-03-15 12:05:18:240,-0.984138,1.03692,-9.66495,-2.77747,-9.83815,-28.5318
2023-03-15 12:05:18:250,-0.784444,0.917487,-9.59047,-2.57183,-10.0151,-30.0782
2023-03-15 12:05:18:260,-0.583806,0.786406,-9.52958,-2.36596,-10.179,-31.576
2023-03-15 12:05:18:270,-0.372891,0.66313,-9.49756,-2.16862,-10.3215,-33.0112
2023-03-15 12:05:18:280,-0.175984,0.562309,-9.52508,-1.99177,-10.4421,-34.3788
2023-03-15 12:05:18:290,-0.029219,0.471656,-9.58215,-1.83093,-10.5449,-35.657
2023-03-15 12:05:18:300,0.038387,0.408072,-9.60777,-1.69463,-10.632,-36.8427
2023-03-15 12:05:18:310,0.0549779,0.364854,-9.63061,-1.57744,-10.7038,-37.9316
2023-03-15 12:05:18:320,0.0438127,0.330315,-9.66919,-1.47616,-10.7579,-38.925
2023-03-15 12:05:18:330,0.0173026,0.29837,-9.725,-1.38932,-10.7946,-39.8251
2023-03-15 12:05:18:340,0.00635642,0.301164,-9.76751,-1.31178,-10.8111,-40.6251
2023-03-15 12:05:18:350,0.0266851,0.265811,-9.77841,-1.24368,-10.8081,-41.3345
2023-03-15 12:05:18:360,0.0239048,0.223245,-9.79854,-1.18095,-10.7785,-41.9433
2023-03-15 12:05:18:370,0.0397077,0.174958,-9.81234,-1.12107,-10.732,-42.4542
2023-03-15 12:05:18:380,0.0377013,0.127858,-9.79698,-1.06521,-10.6689,-42.8697
2023-03-15 12:05:18:390,0.0343519,0.0970663,-9.80824,-1.01835,-10.5913,-43.1921
2023-03-15 12:05:18:400,0.018684,0.0712474,-9.82815,-0.981632,-10.5036,-43.4165
2023-03-15 12:05:18:410,-0.0506548,0.0810466,-9.83203,-0.952509,-10.4104,-43.5536
2023-03-15 12:05:18:420,-0.146082,0.0990407,-9.80133,-0.932868,-10.3112,-43.6121
2023-03-15 12:05:18:430,-0.271464,0.0869858,-9.75671,-0.921166,-10.2074,-43.5951
2023-03-15 12:05:18:440,-0.400627,0.0883144,-9.73305,-0.914656,-10.0996,-43.5127
2023-03-15 12:05:18:450,-0.483842,0.113559,-9.6979,-0.916506,-9.99219,-43.3719
2023-03-15 12:05:18:460,-0.506174,0.149735,-9.67407,-0.92722,-9.87574,-43.1774
2023-03-15 12:05:18:470,-0.497571,0.146924,-9.66514,-0.943374,-9.75213,-42.9295
2023-03-15 12:05:18:480,-0.50509,0.169135,-9.67427,-0.965299,-9.62986,-42.6282
2023-03-15 12:05:18:490,-0.462278,0.231179,-9.77127,-1.00046,-9.50054,-42.275
2023-03-15 12:05:18:500,-0.325032,0.280183,-9.89914,-1.04536,-9.36804,-41.8704
2023-03-15 12:05:18:510,-0.200278,0.318542,-9.96332,-1.08823,-9.24429,-41.41
2023-03-15 12:05:18:520,-0.25323,0.354871,-9.94835,-1.12317,-9.11923,-40.883
2023-03-15 12:05:18:530,-0.342012,0.351641,-9.87387,-1.14904,-8.99322,-40.2987
2023-03-15 12:05:18:540,-0.341633,0.339973,-9.77683,-1.16526,-8.86238,-39.6554
2023-03-15 12:05:18:550,-0.253049,0.322245,-9.72126,-1.18189,-8.71618,-38.9525
2023-03-15 12:05:18:560,-0.115858,0.333274,-9.70262,-1.20369,-8.5555,-38.1827
2023-03-15 12:05:18:570,-0.053765,0.34339,-9.70397,-1.23241,-8.37808,-37.3426
2023-03-15 12:05:18:580,-0.0558756,0.360554,-9.69186,-1.26265,-8.19289,-36.4303
2023-03-15 12:05:18:590,-0.107993,0.400882,-9.6688,-1.30454,-7.99967,-35.4474
2023-03-15 12:05:18:600,-0.157247,0.455777,-9.62717,-1.35447,-7.79767,-34.4015
2023-03-15 12:05:18:610,-0.131743,0.494119,-9.61513,-1.4098,-7.58507,-33.3022
2023-03-15 12:05:18:620,-0.0805845,0.538908,-9.65282,-1.47573,-7.35923,-32.1433
2023-03-15 12:05:18:630,-0.150117,0.596184,-9.6652,-1.54899,-7.13051,-30.9292
2023-03-15 12:05:18:640,-0.352604,0.679703,-9.63446,-1.62969,-6.90075,-29.663
2023-03-15 12:05:18:650,-0.559068,0.76312,-9.59726,-1.72168,-6.66953,-28.3608
2023-03-15 12:05:18:660,-0.738839,0.810361,-9.62532,-1.81424,-6.43173,-27.0334
2023-03-15 12:05:18:670,-0.887281,0.916507,-9.73046,-1.91139,-6.18816,-25.685
2023-03-15 12:05:18:680,-1.01137,1.04694,-9.86981,-2.00594,-5.93816,-24.3374
2023-03-15 12:05:18:690,-1.20982,1.15865,-9.9669,-2.08962,-5.69261,-22.994
2023-03-15 12:05:18:700,-1.45954,1.22484,-10.0089,-2.15522,-5.45407,-21.6714
2023-03-15 12:05:18:710,-1.6341,1.23674,-9.9933,-2.19435,-5.2276,-20.3803
2023-03-15 12:05:18:720,-1.71279,1.22524,-9.96329,-2.21154,-5.00962,-19.1302
2023-03-15 12:05:18:730,-1.75881,1.15666,-9.90258,-2.2026,-4.80629,-17.9244
2023-03-15 12:05:18:740,-1.80518,1.06111,-9.81558,-2.17652,-4.62507,-16.7611
2023-03-15 12:05:18:750,-1.88195,0.977503,-9.72745,-2.14363,-4.46085,-15.6462
2023-03-15 12:05:18:760,-1.97252,0.912449,-9.67546,-2.1059,-4.30826,-14.5852
2023-03-15 12:05:18:770,-2.05754,0.838602,-9.62972,-2.06845,-4.17555,-13.5834
2023-03-15 12:05:18:780,-2.14399,0.811072,-9.61911,-2.03958,-4.05439,-12.6437
2023-03-15 12:05:18:790,-2.14768,0.791611,-9.65704,-2.0188,-3.94811,-11.7675
2023-03-15 12:05:18:800,-2.08283,0.76075,-9.70178,-1.99646,-3.84621,-10.9624
2023-03-15 12:05:18:810,-2.05171,0.730356,-9.71591,-1.97498,-3.75916,-10.221
2023-03-15 12:05:18:820,-2.01716,0.677173,-9.70067,-1.95072,-3.68096,-9.54502
2023-03-15 12:05:18:830,-1.92626,0.630771,-9.71437,-1.92217,-3.61117,-8.93861
2023-03-15 12:05:18:840,-1.79894,0.597419,-9.74288,-1.896,-3.55171,-8.39464
2023-03-15 12:05:18:850,-1.68658,0.565937,-9.7457,-1.87005,-3.50543,-7.90486
2023-03-15 12:05:18:860,-1.59662,0.53786,-9.743,-1.84365,-3.46948,-7.47463
2023-03-15 12:05:18:870,-1.48126,0.509631,-9.72978,-1.81345,-3.44557,-7.09183
2023-03-15 12:05:18:880,-1.38494,0.488029,-9.70903,-1.78341,-3.43428,-6.75664
2023-03-15 12:05:18:890,-1.3135,0.453079,-9.71326,-1.75409,-3.42867,-6.46006
2023-03-15 12:05:18:900,-1.22402,0.43508,-9.73398,-1.72363,-3.43305,-6.19771
2023-03-15 12:05:18:910,-1.14855,0.409415,-9.72953,-1.69376,-3.44184,-5.96802
2023-03-15 12:05:18:920,-1.10574,0.37536,-9.7087,-1.66033,-3.45563,-5.76915
2023-03-15 12:05:18:930,-1.05073,0.32601,-9.68614,-1.62734,-3.47053,-5.59499
2023-03-15 12:05:18:940,-0.967997,0.295705,-9.69172,-1.59463,-3.4883,-5.43954
2023-03-15 12:05:18:950,-0.876755,0.30085,-9.71567,-1.56371,-3.50322,-5.29903
2023-03-15 12:05:18:960,-0.804307,0.269728,-9.72178,-1.52888,-3.51897,-5.17188
2023-03-15 12:05:18:970,-0.763009,0.237683,-9.71069,-1.49889,-3.5362,-5.05141
2023-03-15 12:05:18:980,-0.76031,0.204821,-9.69968,-1.46427,-3.55283,-4.94014
2023-03-15 12:05:18:990,-0.780073,0.183299,-9.67161,-1.43171,-3.56852,-4.83571
2023-03-15 12:05:19:0,-0.796809,0.176598,-9.65639,-1.40538,-3.59013,-4.73741
2023-03-15 12:05:19:10,-0.822073,0.165376,-9.64471,-1.38244,-3.6047,-4.64427
2023-03-15 12:05:19:20,-0.830979,0.162167,-9.64484,-1.36368,-3.62207,-4.5607
2023-03-15 12:05:19:30,-0.809449,0.168118,-9.64315,-1.34983,-3.63569,-4.48643
2023-03-15 12:05:19:40,-0.813452,0.177326,-9.64396,-1.33385,-3.64642,-4.42095
2023-03-15 12:05:19:50,-0.797159,0.173267,-9.64135,-1.32516,-3.65798,-4.36533
2023-03-15 12:05:19:60,-0.769018,0.163036,-9.62837,-1.3202,-3.67499,-4.319
2023-03-15 12:05:19:70,-0.763698,0.203765,-9.68056,-1.32361,-3.68865,-4.27731
2023-03-15 12:05:19:80,-0.744493,0.236808,-9.73125,-1.33113,-3.70027,-4.24375
2023-03-15 12:05:19:90,-0.731717,0.242209,-9.72849,-1.33699,-3.71855,-4.21684
2023-03-15 12:05:19:100,-0.724103,0.250082,-9.75806,-1.34062,-3.73726,-4.19536
2023-03-15 12:05:19:110,-0.736831,0.240061,-9.73621,-1.34303,-3.75912,-4.18141
2023-03-15 12:05:19:120,-0.738122,0.238358,-9.73895,-1.34873,-3.77931,-4.16687
2023-03-15 12:05:19:130,-0.708383,0.224723,-9.74105,-1.35269,-3.8054,-4.16059
2023-03-15 12:05:19:140,-0.675119,0.22236,-9.7375,-1.36063,-3.82878,-4.15889
2023-03-15 12:05:19:150,-0.646482,0.240696,-9.72133,-1.36588,-3.8519,-4.15528
2023-03-15 12:05:19:160,-0.617632,0.225213,-9.72546,-1.37276,-3.871,-4.15453
2023-03-15 12:05:19:170,-0.581121,0.227223,-9.74703,-1.37855,-3.88911,-4.14806
2023-03-15 12:05:19:180,-0.528758,0.228091,-9.76705,-1.38612,-3.90252,-4.13704
2023-03-15 12:05:19:190,-0.475116,0.242221,-9.79928,-1.39346,-3.91825,-4.11604
2023-03-15 12:05:19:200,-0.435612,0.252897,-9.82052,-1.39588,-3.93038,-4.09123
2023-03-15 12:05:19:210,-0.43023,0.24103,-9.81005,-1.39607,-3.94595,-4.05735
2023-03-15 12:05:19:220,-0.460546,0.216603,-9.76466,-1.39294,-3.96464,-4.0124
2023-03-15 12:05:19:230,-0.494927,0.183241,-9.73248,-1.38653,-3.98536,-3.95937
2023-03-15 12:05:19:240,-0.552538,0.139975,-9.69554,-1.38298,-4.00402,-3.89724
2023-03-15 12:05:19:250,-0.635364,0.149163,-9.65318,-1.38284,-4.02534,-3.82607
2023-03-15 12:05:19:260,-0.693693,0.154756,-9.65195,-1.38747,-4.04587,-3.74976
2023-03-15 12:05:19:270,-0.688634,0.162652,-9.66746,-1.40193,-4.06464,-3.67672
2023-03-15 12:05:19:280,-0.660796,0.195596,-9.67067,-1.42299,-4.07907,-3.60371
2023-03-15 12:05:19:290,-0.662688,0.213611,-9.68333,-1.44675,-4.09477,-3.52694
2023-03-15 12:05:19:300,-0.704986,0.219329,-9.66676,-1.46697,-4.11205,-3.45159
2023-03-15 12:05:19:310,-0.791816,0.221929,-9.62699,-1.49154,-4.13101,-3.37887
2023-03-15 12:05:19:320,-0.876923,0.199537,-9.59468,-1.5205,-4.15013,-3.31263
2023-03-15 12:05:19:330,-0.942224,0.190084,-9.57909,-1.54798,-4.17255,-3.2519
2023-03-15 12:05:19:340,-0.992304,0.179768,-9.56294,-1.58006,-4.196,-3.20224
2023-03-15 12:05:19:350,-1.06321,0.154126,-9.52531,-1.62004,-4.21696,-3.16639
2023-03-15 12:05:19:360,-1.14892,0.140898,-9.47914,-1.66422,-4.24255,-3.14912
2023-03-15 12:05:19:370,-1.27,0.103973,-9.40587,-1.71787,-4.27306,-3.15679
2023-03-15 12:05:19:380,-1.41313,0.0710513,-9.34278,-1.78056,-4.31361,-3.19396
2023-03-15 12:05:19:390,-1.48171,0.0563061,-9.27577,-1.86033,-4.35785,-3.26727
2023-03-15 12:05:19:400,-1.46244,0.00378904,-9.23618,-1.95808,-4.41102,-3.38318
2023-03-15 12:05:19:410,-1.44017,-0.0381277,-9.17396,-2.07499,-4.47375,-3.53841
2023-03-15 12:05:19:420,-1.50472,-0.0717373,-9.08953,-2.2151,-4.55437,-3.73315
2023-03-15 12:05:19:430,-1.6096,-0.104013,-8.9865,-2.38201,-4.64468,-3.96624
2023-03-15 12:05:19:440,-1.6859,-0.138744,-8.8703,-2.57733,-4.74476,-4.24066
2023-03-15 12:05:19:450,-1.67833,-0.168124,-8.77211,-2.80711,-4.85032,-4.55631
2023-03-15 12:05:19:460,-1.65855,-0.156467,-8.67596,-3.08201,-4.95373,-4.90432
2023-03-15 12:05:19:470,-1.60456,-0.103124,-8.57194,-3.39924,-5.05574,-5.2892
2023-03-15 12:05:19:480,-1.55393,-0.0697177,-8.51567,-3.7625,-5.15315,-5.70334
2023-03-15 12:05:19:490,-1.49565,-0.0111574,-8.53516,-4.18035,-5.24599,-6.14319
2023-03-15 12:05:19:500,-1.38359,0.0992386,-8.62453,-4.66008,-5.33267,-6.60137
2023-03-15 12:05:19:510,-1.26632,0.243006,-8.73116,-5.18876,-5.4223,-7.07873
2023-03-15 12:05:19:520,-1.21443,0.468646,-8.90967,-5.75874,-5.50358,-7.56102
2023-03-15 12:05:19:530,-1.18312,0.658333,-9.10743,-6.34935,-5.5653,-8.04934
2023-03-15 12:05:19:540,-1.12803,0.798447,-9.19701,-6.94495,-5.62318,-8.53843
2023-03-15 12:05:19:550,-1.01378,0.940829,-9.25539,-7.54874,-5.66699,-9.02988
2023-03-15 12:05:19:560,-0.89816,1.09143,-9.29654,-8.15969,-5.70697,-9.52031
2023-03-15 12:05:19:570,-0.829979,1.34922,-9.39845,-8.78343,-5.74278,-10.0046
2023-03-15 12:05:19:580,-0.773438,1.61662,-9.52171,-9.41718,-5.77651,-10.484
2023-03-15 12:05:19:590,-0.697301,1.81853,-9.58357,-10.0507,-5.81888,-10.9589
2023-03-15 12:05:19:600,-0.646924,2.02095,-9.66959,-10.6803,-5.87522,-11.4247
2023-03-15 12:05:19:610,-0.613067,2.1989,-9.72733,-11.2966,-5.93695,-11.8779
2023-03-15 12:05:19:620,-0.570735,2.34931,-9.77097,-11.8978,-6.00993,-12.3185
2023-03-15 12:05:19:630,-0.556145,2.47204,-9.77181,-12.4759,-6.09357,-12.7391
2023-03-15 12:05:19:640,-0.554869,2.58257,-9.75575,-13.0355,-6.18788,-13.1389
2023-03-15 12:05:19:650,-0.564785,2.7695,-9.809,-13.5737,-6.28202,-13.5241
2023-03-15 12:05:19:660,-0.546323,2.92298,-9.84698,-14.0867,-6.3712,-13.8875
2023-03-15 12:05:19:670,-0.499928,3.03634,-9.82953,-14.5661,-6.46093,-14.2325
2023-03-15 12:05:19:680,-0.466447,3.08659,-9.7502,-15.0189,-6.54976,-14.5555
2023-03-15 12:05:19:690,-0.509627,3.10488,-9.59134,-15.4359,-6.63279,-14.8518
2023-03-15 12:05:19:700,-0.589582,3.10716,-9.44842,-15.8338,-6.71312,-15.1198
2023-03-15 12:05:19:710,-0.634702,3.13826,-9.2797,-16.2159,-6.78103,-15.3644
2023-03-15 12:05:19:720,-0.658951,3.16424,-9.17523,-16.5982,-6.83954,-15.5902
2023-03-15 12:05:19:730,-0.682194,3.26869,-9.2061,-16.991,-6.89328,-15.7965
2023-03-15 12:05:19:740,-0.698321,3.43499,-9.35658,-17.4035,-6.9377,-15.9789
2023-03-15 12:05:19:750,-0.706597,3.60085,-9.54341,-17.8226,-6.98684,-16.14
2023-03-15 12:05:19:760,-0.742479,3.75196,-9.65798,-18.2312,-7.03668,-16.2792
2023-03-15 12:05:19:770,-0.8035,3.86197,-9.70375,-18.6154,-7.0882,-16.4039
2023-03-15 12:05:19:780,-0.868419,3.91646,-9.69223,-18.9706,-7.12867,-16.5101
2023-03-15 12:05:19:790,-0.929755,3.91425,-9.60263,-19.2859,-7.16024,-16.6083
2023-03-15 12:05:19:800,-0.9791,3.85715,-9.4155,-19.5653,-7.18532,-16.6864
2023-03-15 12:05:19:810,-1.05952,3.78571,-9.25661,-19.8232,-7.19791,-16.7521
2023-03-15 12:05:19:820,-1.12547,3.75313,-9.1635,-20.0685,-7.19696,-16.8086
2023-03-15 12:05:19:830,-1.1968,3.77263,-9.17794,-20.3175,-7.18683,-16.8548
2023-03-15 12:05:19:840,-1.46729,3.92414,-9.20542,-20.5689,-7.16514,-16.898
2023-03-15 12:05:19:850,-1.29693,4.26154,-9.8819,-20.7971,-7.05569,-16.9571
2023-03-15 12:05:19:860,-0.943556,3.76048,-9.22354,-20.9695,-7.01507,-17.0223
2023-03-15 12:05:19:870,-1.25688,3.67047,-8.89242,-21.138,-7.00864,-17.0707
2023-03-15 12:05:19:880,-1.36361,3.86624,-9.17682,-21.3257,-6.93875,-17.1245
2023-03-15 12:05:19:890,-1.04088,3.62636,-8.81419,-21.5217,-6.94437,-17.1909
2023-03-15 12:05:19:900,-0.952727,3.80647,-8.99942,-21.7526,-6.9213,-17.242
2023-03-15 12:05:19:910,-1.09405,4.27999,-9.58626,-21.9912,-6.81657,-17.2741
2023-03-15 12:05:19:920,-1.22072,4.39669,-9.71683,-22.1834,-6.7135,-17.3116
2023-03-15 12:05:19:930,-1.23839,4.2208,-9.45721,-22.3185,-6.63811,-17.3623
2023-03-15 12:05:19:940,-1.15134,3.97321,-9.07326,-22.4097,-6.58075,-17.4233
2023-03-15 12:05:19:950,-1.09917,3.84822,-8.75512,-22.496,-6.53439,-17.4893
2023-03-15 12:05:19:960,-1.07355,3.92452,-8.71804,-22.5965,-6.46673,-17.5575
2023-03-15 12:05:19:970,-1.00977,4.05317,-8.81779,-22.7172,-6.39633,-17.6302
2023-03-15 12:05:19:980,-0.830896,4.16291,-8.97448,-22.844,-6.31743,-17.7047
2023-03-15 12:05:19:990,-0.714305,4.20045,-8.98944,-22.9732,-6.25237,-17.7745
2023-03-15 12:05:20:0,-0.682744,4.17463,-8.90889,-23.0984,-6.20701,-17.8341
2023-03-15 12:05:20:10,-0.744943,4.22459,-8.90297,-23.2306,-6.17456,-17.8854
2023-03-15 12:05:20:20,-0.789187,4.29768,-9.00717,-23.3635,-6.13812,-17.9246
2023-03-15 12:05:20:30,-0.773333,4.29343,-9.00934,-23.4793,-6.10268,-17.9658
2023-03-15 12:05:20:40,-0.811471,4.26132,-8.9178,-23.5828,-6.07221,-18.0057
2023-03-15 12:05:20:50,-0.842918,4.22584,-8.8497,-23.6712,-6.03932,-18.0437
2023-03-15 12:05:20:60,-0.833749,4.16256,-8.7714,-23.7547,-6.01097,-18.0843
2023-03-15 12:05:20:70,-0.791213,4.14346,-8.73466,-23.844,-5.98556,-18.1256
2023-03-15 12:05:20:80,-0.758837,4.15111,-8.71126,-23.9408,-5.96395,-18.1693
2023-03-15 12:05:20:90,-0.748417,4.14561,-8.67661,-24.0416,-5.94733,-18.2088
2023-03-15 12:05:20:100,-0.768808,4.12365,-8.6138,-24.15,-5.94246,-18.2476
2023-03-15 12:05:20:110,-0.759759,4.10134,-8.61589,-24.2648,-5.94423,-18.2882
2023-03-15 12:05:20:120,-0.708837,4.11911,-8.65352,-24.3827,-5.94523,-18.329
2023-03-15 12:05:20:130,-0.651164,4.08843,-8.6241,-24.5049,-5.95145,-18.3726
2023-03-15 12:05:20:140,-0.631763,4.01933,-8.59222,-24.6311,-5.96983,-18.4133
2023-03-15 12:05:20:150,-0.605431,3.9551,-8.55452,-24.769,-6.00811,-18.4502
2023-03-15 12:05:20:160,-0.622321,3.96718,-8.58792,-24.9185,-6.06179,-18.4817
2023-03-15 12:05:20:170,-0.687482,3.99459,-8.67746,-25.085,-6.12654,-18.516
2023-03-15 12:05:20:180,-0.72438,4.02892,-8.77666,-25.2651,-6.20724,-18.5521
2023-03-15 12:05:20:190,-0.710096,4.07442,-8.90696,-25.4466,-6.3037,-18.5926
2023-03-15 12:05:20:200,-0.662426,4.07824,-9.02726,-25.6266,-6.42077,-18.6323
2023-03-15 12:05:20:210,-0.645208,4.07303,-9.18474,-25.7956,-6.5524,-18.6669
2023-03-15 12:05:20:220,-0.729485,4.16199,-9.33794,-25.9426,-6.70032,-18.6941
2023-03-15 12:05:20:230,-0.800333,4.2198,-9.35315,-26.0593,-6.87231,-18.7168
2023-03-15 12:05:20:240,-0.815837,4.11387,-9.21061,-26.1338,-7.06908,-18.7398
2023-03-15 12:05:20:250,-0.83903,3.97189,-8.93016,-26.1666,-7.27999,-18.7581
2023-03-15 12:05:20:260,-0.857342,3.83098,-8.57437,-26.1753,-7.49967,-18.7655
2023-03-15 12:05:20:270,-0.961503,3.69718,-8.34977,-26.1993,-7.72322,-18.7593
2023-03-15 12:05:20:280,-1.13172,3.66652,-8.28178,-26.2672,-7.95944,-18.738
2023-03-15 12:05:20:290,-1.3591,3.73598,-8.34768,-26.3929,-8.21196,-18.6966
2023-03-15 12:05:20:300,-1.58931,4.02392,-8.55537,-26.5694,-8.47298,-18.6462
2023-03-15 12:05:20:310,-1.7344,4.30916,-8.81767,-26.7583,-8.71978,-18.6028
2023-03-15 12:05:20:320,-1.79579,4.385,-8.85554,-26.9209,-8.95934,-18.5664
2023-03-15 12:05:20:330,-1.78932,4.27674,-8.73496,-27.0485,-9.18886,-18.537
2023-03-15 12:05:20:340,-1.78641,4.12994,-8.57178,-27.1565,-9.40864,-18.5058
2023-03-15 12:05:20:350,-1.87395,4.09208,-8.44481,-27.269,-9.62443,-18.4694
2023-03-15 12:05:20:360,-2.02895,4.14717,-8.43373,-27.4017,-9.83628,-18.4291
2023-03-15 12:05:20:370,-2.15214,4.25216,-8.47258,-27.5396,-10.0391,-18.3938
2023-03-15 12:05:20:380,-2.19575,4.30381,-8.50906,-27.673,-10.2265,-18.3695
2023-03-15 12:05:20:390,-2.2325,4.31216,-8.39137,-27.8008,-10.4195,-18.3516
2023-03-15 12:05:20:400,-2.32415,4.36002,-8.33499,-27.9272,-10.604,-18.342
2023-03-15 12:05:20:410,-2.45733,4.38622,-8.24624,-28.0694,-10.7989,-18.3359
2023-03-15 12:05:20:420,-2.63535,4.50833,-8.24509,-28.2266,-10.9966,-18.3441
2023-03-15 12:05:20:430,-2.76265,4.63381,-8.22507,-28.3987,-11.1965,-18.3715
2023-03-15 12:05:20:440,-2.81386,4.6215,-8.15566,-28.5674,-11.4026,-18.4215
2023-03-15 12:05:20:450,-2.8347,4.64842,-8.15639,-28.7351,-11.5919,-18.4994
2023-03-15 12:05:20:460,-2.76495,4.66661,-8.2033,-28.8936,-11.7644,-18.6026
2023-03-15 12:05:20:470,-2.6131,4.64733,-8.16543,-29.0514,-11.9256,-18.7243
2023-03-15 12:05:20:480,-2.5153,4.63192,-8.10006,-29.2077,-12.0813,-18.8569
2023-03-15 12:05:20:490,-2.50145,4.65317,-8.07029,-29.3691,-12.2262,-18.9921
2023-03-15 12:05:20:500,-2.53768,4.67691,-8.05535,-29.5383,-12.3619,-19.1386
2023-03-15 12:05:20:510,-2.55338,4.69288,-8.04342,-29.7206,-12.4957,-19.289
2023-03-15 12:05:20:520,-2.54786,4.75473,-8.04921,-29.9111,-12.6263,-19.4529
2023-03-15 12:05:20:530,-2.49967,4.84549,-8.10212,-30.1099,-12.7446,-19.6274
2023-03-15 12:05:20:540,-2.39737,4.91236,-8.14337,-30.3102,-12.8554,-19.8108
2023-03-15 12:05:20:550,-2.27814,4.94876,-8.13949,-30.5013,-12.9573,-20.0034
2023-03-15 12:05:20:560,-2.16435,4.94935,-8.15237,-30.6855,-13.0409,-20.1984
2023-03-15 12:05:20:570,-2.06246,4.96148,-8.15446,-30.8651,-13.1201,-20.3854
2023-03-15 12:05:20:580,-1.97947,4.98797,-8.15481,-31.0503,-13.1899,-20.5617
2023-03-15 12:05:20:590,-1.92247,5.06137,-8.18329,-31.2414,-13.2519,-20.7262
2023-03-15 12:05:20:600,-1.89583,5.16068,-8.239,-31.4327,-13.3106,-20.8803
2023-03-15 12:05:20:610,-1.92905,5.23182,-8.255,-31.6244,-13.3686,-21.0224
2023-03-15 12:05:20:620,-2.02666,5.2855,-8.30578,-31.8177,-13.4306,-21.1516
2023-03-15 12:05:20:630,-2.04746,5.47068,-8.42944,-32.0078,-13.4918,-21.2778
2023-03-15 12:05:20:640,-1.9918,5.57654,-8.48046,-32.1779,-13.5521,-21.4
2023-03-15 12:05:20:650,-1.96656,5.56163,-8.43967,-32.3179,-13.611,-21.5161
2023-03-15 12:05:20:660,-1.94654,5.50867,-8.33274,-32.4382,-13.6777,-21.6205
2023-03-15 12:05:20:670,-1.96126,5.58111,-8.32621,-32.553,-13.7444,-21.7171
2023-03-15 12:05:20:680,-1.97579,5.6846,-8.39889,-32.6677,-13.8067,-21.7967
2023-03-15 12:05:20:690,-1.98946,5.76436,-8.46245,-32.7645,-13.8644,-21.8664
2023-03-15 12:05:20:700,-1.99131,5.77719,-8.4517,-32.8359,-13.9163,-21.9259
2023-03-15 12:05:20:710,-2.00974,5.73823,-8.39783,-32.8818,-13.9605,-21.9699
2023-03-15 12:05:20:720,-1.97461,5.68403,-8.34858,-32.8951,-13.9956,-21.9999
2023-03-15 12:05:20:730,-1.89559,5.59083,-8.23483,-32.8868,-14.0095,-22.0137
2023-03-15 12:05:20:740,-2.05054,5.47745,-8.04218,-32.8577,-14.0058,-22.0047
2023-03-15 12:05:20:750,-2.1467,5.37214,-7.89822,-32.8166,-13.9888,-21.9871
2023-03-15 12:05:20:760,-2.14787,5.20283,-7.73018,-32.7682,-13.9543,-21.9615
2023-03-15 12:05:20:770,-2.13566,5.00226,-7.59572,-32.7181,-13.9028,-21.9249
2023-03-15 12:05:20:780,-2.19422,4.93911,-7.48491,-32.6855,-13.8267,-21.8771
2023-03-15 12:05:20:790,-2.21934,4.9186,-7.45143,-32.6821,-13.7294,-21.8143
2023-03-15 12:05:20:800,-2.20407,4.95776,-7.54042,-32.7093,-13.6092,-21.7469
2023-03-15 12:05:20:810,-2.18457,5.05382,-7.67306,-32.7681,-13.4825,-21.6763
2023-03-15 12:05:20:820,-2.23874,5.17205,-7.79717,-32.856,-13.3682,-21.593
2023-03-15 12:05:20:830,-2.3836,5.33033,-7.962,-32.9707,-13.2686,-21.5016
2023-03-15 12:05:20:840,-2.58069,5.47276,-8.10982,-33.0818,-13.1728,-21.4123
2023-03-15 12:05:20:850,-2.73699,5.55838,-8.17314,-33.1878,-13.0892,-21.3379
2023-03-15 12:05:20:860,-2.8013,5.58404,-8.17016,-33.2651,-13.0128,-21.2878
2023-03-15 12:05:20:870,-2.81495,5.54625,-8.12065,-33.3199,-12.941,-21.2601
2023-03-15 12:05:20:880,-2.77249,5.46988,-8.07665,-33.3436,-12.8707,-21.2579
2023-03-15 12:05:20:890,-2.73602,5.40116,-7.99897,-33.3504,-12.8057,-21.2725
2023-03-15 12:05:20:900,-2.5517,5.35125,-7.89117,-33.3421,-12.7442,-21.3061
2023-03-15 12:05:20:910,-2.3481,5.32066,-7.87715,-33.3312,-12.6718,-21.348
2023-03-15 12:05:20:920,-2.27012,5.32791,-7.86573,-33.321,-12.5873,-21.3947
2023-03-15 12:05:20:930,-2.18272,5.32179,-7.88463,-33.3167,-12.494,-21.4473
2023-03-15 12:05:20:940,-1.95827,5.33161,-7.9655,-33.3108,-12.3887,-21.5034
2023-03-15 12:05:20:950,-1.61599,5.35124,-8.04918,-33.3045,-12.2761,-21.5582
2023-03-15 12:05:20:960,-1.47002,5.34378,-8.09855,-33.292,-12.1537,-21.5926
2023-03-15 12:05:20:970,-1.75829,5.27985,-8.01521,-33.2744,-12.0368,-21.5987
2023-03-15 12:05:20:980,-1.97421,5.20842,-7.93988,-33.2586,-11.9302,-21.6018
2023-03-15 12:05:20:990,-1.97585,5.17135,-7.95323,-33.2494,-11.8387,-21.6127
2023-03-15 12:05:21:0,-1.99103,5.15787,-7.99561,-33.2475,-11.7488,-21.629
2023-03-15 12:05:21:10,-1.98933,5.17917,-8.01983,-33.2488,-11.6739,-21.6475
2023-03-15 12:05:21:20,-1.97758,5.16457,-8.04277,-33.245,-11.6172,-21.6778
2023-03-15 12:05:21:30,-2.0261,5.15415,-7.98801,-33.2428,-11.5818,-21.713
2023-03-15 12:05:21:40,-2.09937,5.13648,-7.89471,-33.235,-11.5645,-21.7608
2023-03-15 12:05:21:50,-2.05795,5.13497,-7.89603,-33.2388,-11.5571,-21.8221
2023-03-15 12:05:21:60,-1.93896,5.18135,-7.94872,-33.2479,-11.5649,-21.9011
2023-03-15 12:05:21:70,-1.86744,5.22238,-7.95535,-33.2641,-11.5897,-21.9837
2023-03-15 12:05:21:80,-1.91137,5.21745,-7.89522,-33.2814,-11.6249,-22.0658
2023-03-15 12:05:21:90,-2.05852,5.21511,-7.80594,-33.3008,-11.6709,-22.1536
2023-03-15 12:05:21:100,-2.13104,5.18117,-7.73344,-33.3262,-11.7246,-22.2549
2023-03-15 12:05:21:110,-1.95996,5.21691,-7.74539,-33.3706,-11.7681,-22.3718
2023-03-15 12:05:21:120,-1.73803,5.30025,-7.86652,-33.426,-11.7997,-22.4871
2023-03-15 12:05:21:130,-1.81465,5.3673,-8.01408,-33.4922,-11.8271,-22.5795
2023-03-15 12:05:21:140,-1.90541,5.44848,-8.11491,-33.5563,-11.862,-22.6685
2023-03-15 12:05:21:150,-1.87937,5.50583,-8.12342,-33.6169,-11.9011,-22.754
2023-03-15 12:05:21:160,-1.84542,5.36806,-7.96515,-33.6504,-11.9365,-22.8356
2023-03-15 12:05:21:170,-1.81598,5.2518,-7.8227,-33.6683,-11.9553,-22.9145
2023-03-15 12:05:21:180,-1.79638,5.21068,-7.77173,-33.6924,-11.965,-22.9818
2023-03-15 12:05:21:190,-1.82304,5.25489,-7.81777,-33.732,-11.9702,-23.0351
2023-03-15 12:05:21:200,-1.92579,5.38301,-7.94491,-33.7981,-11.9749,-23.0777
2023-03-15 12:05:21:210,-2.01771,5.50717,-8.05738,-33.8724,-11.982,-23.1144
2023-03-15 12:05:21:220,-2.09385,5.58263,-8.12238,-33.9338,-11.9968,-23.1489
2023-03-15 12:05:21:230,-2.14273,5.60756,-8.12984,-33.9764,-12.0076,-23.1882
2023-03-15 12:05:21:240,-2.14731,5.55904,-8.01901,-33.9986,-12.0125,-23.2304
2023-03-15 12:05:21:250,-2.16712,5.4296,-7.8797,-34.0019,-12.0136,-23.2737
2023-03-15 12:05:21:260,-2.20302,5.3482,-7.7882,-34.0048,-12.014,-23.3191
2023-03-15 12:05:21:270,-2.25363,5.35693,-7.8063,-34.0169,-12.0118,-23.3675
2023-03-15 12:05:21:280,-2.31672,5.39096,-7.89167,-34.041,-12.0049,-23.4184
2023-03-15 12:05:21:290,-2.41245,5.4224,-7.93458,-34.0653,-11.9974,-23.4733
2023-03-15 12:05:21:300,-2.40408,5.42458,-7.98442,-34.0744,-11.9871,-23.5405
2023-03-15 12:05:21:310,-2.31079,5.38594,-7.91809,-34.0686,-11.9756,-23.6277
2023-03-15 12:05:21:320,-2.26214,5.27961,-7.79008,-34.0573,-11.9697,-23.7198
2023-03-15 12:05:21:330,-2.3384,5.21474,-7.68345,-34.0455,-11.9673,-23.8232
2023-03-15 12:05:21:340,-2.32654,5.1922,-7.66504,-34.045,-11.9713,-23.9461
2023-03-15 12:05:21:350,-2.1742,5.21048,-7.74626,-34.052,-11.9731,-24.0857
2023-03-15 12:05:21:360,-2.09557,5.26854,-7.83201,-34.0724,-11.9783,-24.2313
2023-03-15 12:05:21:370,-2.08137,5.26592,-7.82842,-34.0946,-11.9983,-24.378
2023-03-15 12:05:21:380,-2.00136,5.2541,-7.80703,-34.1227,-12.0243,-24.5265
2023-03-15 12:05:21:390,-1.93755,5.29472,-7.84442,-34.1631,-12.0566,-24.674
2023-03-15 12:05:21:400,-1.88322,5.35444,-7.90965,-34.2115,-12.0856,-24.8152
2023-03-15 12:05:21:410,-1.87464,5.41507,-7.97026,-34.2619,-12.1089,-24.9471
2023-03-15 12:05:21:420,-1.82059,5.47211,-8.03067,-34.308,-12.1223,-25.0769
2023-03-15 12:05:21:430,-1.79049,5.49925,-8.04777,-34.3467,-12.1221,-25.198
2023-03-15 12:05:21:440,-1.80767,5.51727,-8.01829,-34.3736,-12.1131,-25.3088
2023-03-15 12:05:21:450,-1.83218,5.53688,-8.00995,-34.3937,-12.0935,-25.413
2023-03-15 12:05:21:460,-1.80123,5.54964,-8.01082,-34.4084,-12.0665,-25.5104
2023-03-15 12:05:21:470,-1.71423,5.56683,-8.01116,-34.4181,-12.0364,-25.6017
2023-03-15 12:05:21:480,-1.61563,5.57977,-8.02248,-34.433,-12.0042,-25.6773
2023-03-15 12:05:21:490,-1.55682,5.58256,-8.02789,-34.4432,-11.9759,-25.7378
2023-03-15 12:05:21:500,-1.58289,5.57722,-8.01315,-34.453,-11.9483,-25.7766
2023-03-15 12:05:21:510,-1.60985,5.5571,-8.01049,-34.4573,-11.9199,-25.7994
2023-03-15 12:05:21:520,-1.69376,5.53834,-7.99629,-34.4622,-11.8914,-25.8054
2023-03-15 12:05:21:530,-1.76766,5.51387,-7.97268,-34.4593,-11.8578,-25.8031
2023-03-15 12:05:21:540,-1.85926,5.48129,-7.89966,-34.4532,-11.8248,-25.7874
2023-03-15 12:05:21:550,-1.96675,5.4299,-7.84107,-34.4432,-11.7894,-25.769
2023-03-15 12:05:21:560,-2.06384,5.41046,-7.81544,-34.4338,-11.753,-25.751
2023-03-15 12:05:21:570,-2.13869,5.43466,-7.82388,-34.4348,-11.7209,-25.7323
2023-03-15 12:05:21:580,-2.19512,5.46103,-7.85215,-34.4361,-11.6902,-25.72
2023-03-15 12:05:21:590,-2.28787,5.47362,-7.85562,-34.4346,-11.6642,-25.7154
2023-03-15 12:05:21:600,-2.33678,5.43716,-7.79992,-34.4295,-11.6479,-25.7274
2023-03-15 12:05:21:610,-2.15832,5.41085,-7.8006,-34.4187,-11.6297,-25.7655
2023-03-15 12:05:21:620,-2.2572,5.37507,-7.71507,-34.4066,-11.6182,-25.8115
2023-03-15 12:05:21:630,-2.0081,5.40171,-7.79993,-34.3972,-11.6147,-25.8801
2023-03-15 12:05:21:640,-1.6612,5.41024,-7.90787,-34.3891,-11.6179,-25.9495
2023-03-15 12:05:21:650,-1.55912,5.4216,-7.92879,-34.3843,-11.6219,-26.0066
2023-03-15 12:05:21:660,-1.63715,5.40341,-7.89178,-34.3768,-11.6313,-26.0469
2023-03-15 12:05:21:670,-1.85123,5.38378,-7.74304,-34.3746,-11.6512,-26.0737
2023-03-15 12:05:21:680,-1.99381,5.34643,-7.64082,-34.3785,-11.6741,-26.0995
2023-03-15 12:05:21:690,-2.00523,5.30524,-7.57614,-34.3847,-11.6831,-26.1325
2023-03-15 12:05:21:700,-1.89407,5.28447,-7.5922,-34.3998,-11.6773,-26.1699
2023-03-15 12:05:21:710,-1.74124,5.28713,-7.64128,-34.4288,-11.6572,-26.2075
2023-03-15 12:05:21:720,-1.64758,5.34599,-7.69611,-34.4712,-11.6228,-26.2288
2023-03-15 12:05:21:730,-1.61787,5.42611,-7.76565,-34.5285,-11.5846,-26.2359
2023-03-15 12:05:21:740,-1.75998,5.44171,-7.76271,-34.5966,-11.5358,-26.2289
2023-03-15 12:05:21:750,-1.73122,5.49022,-7.82436,-34.6707,-11.4708,-26.2172
2023-03-15 12:05:21:760,-1.41073,5.59088,-7.98191,-34.7469,-11.3847,-26.2001
2023-03-15 12:05:21:770,-1.33006,5.61145,-8.2708,-34.8261,-11.2925,-26.1602
2023-03-15 12:05:21:780,-2.16235,5.77551,-8.29126,-34.9054,-11.2085,-26.0749
2023-03-15 12:05:21:790,-2.69504,5.74142,-8.15974,-34.9423,-11.1501,-26.0209
2023-03-15 12:05:21:800,-2.37232,5.58987,-7.96449,-34.9537,-11.1211,-26.015
2023-03-15 12:05:21:810,-1.87179,5.53531,-8.07105,-34.9418,-11.0639,-26.0378
2023-03-15 12:05:21:820,-1.73728,5.45489,-7.92442,-34.9172,-11.0278,-26.0492
2023-03-15 12:05:21:830,-1.98444,5.49752,-7.76949,-34.8991,-11.0053,-26.0548
2023-03-15 12:05:21:840,-2.03812,5.53685,-7.70761,-34.8903,-11.0024,-26.0745
2023-03-15 12:05:21:850,-1.75899,5.48551,-7.62456,-34.8885,-11.0149,-26.1076
2023-03-15 12:05:21:860,-1.54437,5.48072,-7.63424,-34.9042,-11.0261,-26.1364
2023-03-15 12:05:21:870,-1.6553,5.55331,-7.6953,-34.9369,-11.0311,-26.1507
2023-03-15 12:05:21:880,-1.79901,5.62962,-7.7819,-34.9842,-11.0317,-26.1554
2023-03-15 12:05:21:890,-1.79413,5.68845,-7.87818,-35.0321,-11.0336,-26.1648
2023-03-15 12:05:21:900,-1.73309,5.69514,-7.94953,-35.0734,-11.0343,-26.1669
2023-03-15 12:05:21:910,-1.75495,5.70182,-8.00725,-35.1068,-11.0275,-26.1615
2023-03-15 12:05:21:920,-1.89289,5.70627,-7.9724,-35.1328,-11.0203,-26.15
2023-03-15 12:05:21:930,-1.98035,5.67687,-7.91429,-35.1397,-11.0166,-26.1419
2023-03-15 12:05:21:940,-2.06632,5.64862,-7.83916,-35.1419,-11.0106,-26.1389
2023-03-15 12:05:21:950,-2.29691,5.61734,-7.73654,-35.143,-11.0078,-26.1473
2023-03-15 12:05:21:960,-1.94367,5.617,-7.7898,-35.142,-11.0102,-26.1853
2023-03-15 12:05:21:970,-1.39751,5.57856,-7.86722,-35.1374,-11.014,-26.2218
2023-03-15 12:05:21:980,-1.52334,5.54471,-7.81111,-35.138,-11.017,-26.224
2023-03-15 12:05:21:990,-2.02045,5.5492,-7.70864,-35.147,-11.0224,-26.2076
2023-03-15 12:05:22:0,-2.25505,5.5816,-7.7247,-35.1638,-11.0321,-26.2068
2023-03-15 12:05:22:10,-2.15052,5.5445,-7.76026,-35.181,-11.0384,-26.2244
2023-03-15 12:05:22:20,-2.04137,5.50131,-7.78423,-35.1869,-11.0308,-26.2541
2023-03-15 12:05:22:30,-2.09403,5.47517,-7.7605,-35.1855,-11.0145,-26.2821
2023-03-15 12:05:22:40,-2.12086,5.47458,-7.71128,-35.187,-11.0013,-26.3155
2023-03-15 12:05:22:50,-1.97347,5.48656,-7.69381,-35.1929,-10.9833,-26.3622
2023-03-15 12:05:22:60,-1.79044,5.49687,-7.68838,-35.1981,-10.9595,-26.4165
2023-03-15 12:05:22:70,-1.54322,5.53522,-7.6897,-35.2079,-10.9254,-26.465
2023-03-15 12:05:22:80,-1.41138,5.50152,-7.78244,-35.2281,-10.8793,-26.5045
2023-03-15 12:05:22:90,-1.60494,5.5653,-7.90994,-35.2653,-10.8213,-26.522
2023-03-15 12:05:22:100,-1.95001,5.63928,-8.02828,-35.3024,-10.7685,-26.5303
2023-03-15 12:05:22:110,-1.98734,5.7015,-8.08664,-35.3353,-10.7381,-26.5569
2023-03-15 12:05:22:120,-1.74471,5.66934,-8.05046,-35.3437,-10.7211,-26.601
2023-03-15 12:05:22:130,-1.55226,5.6199,-7.99622,-35.3303,-10.7054,-26.6434
2023-03-15 12:05:22:140,-1.63209,5.59084,-7.8516,-35.3127,-10.7001,-26.6747
2023-03-15 12:05:22:150,-1.63797,5.56232,-7.7558,-35.2956,-10.7092,-26.7116
2023-03-15 12:05:22:160,-1.47691,5.57599,-7.74959,-35.2917,-10.7194,-26.7486
2023-03-15 12:05:22:170,-1.41613,5.58043,-7.78003,-35.2985,-10.7392,-26.7764
2023-03-15 12:05:22:180,-1.59559,5.65176,-7.83508,-35.3218,-10.7538,-26.7864
2023-03-15 12:05:22:190,-1.83386,5.69749,-7.87932,-35.3448,-10.7748,-26.7945
2023-03-15 12:05:22:200,-1.90369,5.74015,-7.94488,-35.3649,-10.7973,-26.8144
2023-03-15 12:05:22:210,-1.82911,5.75336,-7.96293,-35.377,-10.8294,-26.8415
2023-03-15 12:05:22:220,-1.60816,5.73615,-7.93113,-35.3734,-10.865,-26.8704
2023-03-15 12:05:22:230,-1.47209,5.6979,-7.87718,-35.3557,-10.9004,-26.8919
2023-03-15 12:05:22:240,-1.43448,5.65965,-7.82447,-35.3341,-10.9257,-26.8962
2023-03-15 12:05:22:250,-1.61168,5.62457,-7.75818,-35.3167,-10.9435,-26.882
2023-03-15 12:05:22:260,-1.9506,5.59837,-7.69447,-35.3061,-10.9566,-26.8584
2023-03-15 12:05:22:270,-2.18269,5.54772,-7.6586,-35.3007,-10.9603,-26.8363
2023-03-15 12:05:22:280,-2.2123,5.52911,-7.73124,-35.2998,-10.9498,-26.8315
2023-03-15 12:05:22:290,-2.1144,5.50897,-7.81079,-35.3021,-10.9255,-26.8323
2023-03-15 12:05:22:300,-2.05617,5.49632,-7.85444,-35.3001,-10.8936,-26.839
2023-03-15 12:05:22:310,-2.09357,5.51694,-7.85902,-35.2958,-10.8576,-26.8491
2023-03-15 12:05:22:320,-1.99398,5.51411,-7.86889,-35.2852,-10.8254,-26.8709
2023-03-15 12:05:22:330,-1.87693,5.5307,-7.89624,-35.2704,-10.7913,-26.8987
2023-03-15 12:05:22:340,-1.77555,5.53623,-7.84085,-35.2503,-10.7603,-26.9288
2023-03-15 12:05:22:350,-1.56742,5.49566,-7.82187,-35.2325,-10.7288,-26.9647
2023-03-15 12:05:22:360,-1.41939,5.47825,-7.85181,-35.2205,-10.6954,-26.9886
2023-03-15 12:05:22:370,-1.49759,5.45759,-7.91768,-35.2153,-10.6567,-26.9986
2023-03-15 12:05:22:380,-1.77086,5.43089,-7.82909,-35.2085,-10.6361,-26.9953
2023-03-15 12:05:22:390,-1.50167,5.36345,-7.76436,-35.1967,-10.6195,-27.0134
2023-03-15 12:05:22:400,-1.12523,5.28152,-7.8379,-35.1791,-10.5829,-27.021
2023-03-15 12:05:22:410,-1.19763,5.46738,-7.92362,-35.1828,-10.5427,-26.9954
2023-03-15 12:05:22:420,-1.42662,5.52261,-7.86876,-35.1901,-10.5239,-26.9457
2023-03-15 12:05:22:430,-1.58409,5.58066,-7.82935,-35.1996,-10.5063,-26.8926
2023-03-15 12:05:22:440,-1.52447,5.63007,-7.83898,-35.21,-10.4892,-26.846
2023-03-15 12:05:22:450,-1.39155,5.65196,-7.86799,-35.2203,-10.4721,-26.7947
2023-03-15 12:05:22:460,-1.46292,5.72251,-7.9658,-35.2387,-10.4471,-26.7256
2023-03-15 12:05:22:470,-1.73136,5.8097,-7.99752,-35.253,-10.4253,-26.6438
2023-03-15 12:05:22:480,-1.8524,5.81265,-7.94027,-35.2606,-10.4161,-26.5702
2023-03-15 12:05:22:490,-1.82496,5.77412,-7.91691,-35.2532,-10.4092,-26.5098
2023-03-15 12:05:22:500,-1.92634,5.67946,-7.81605,-35.2279,-10.4064,-26.451
2023-03-15 12:05:22:510,-2.04554,5.62287,-7.74506,-35.1958,-10.4041,-26.398
2023-03-15 12:05:22:520,-2.10574,5.57481,-7.70498,-35.1661,-10.4066,-26.3594
2023-03-15 12:05:22:530,-2.11578,5.52686,-7.64402,-35.1416,-10.4087,-26.3352
2023-03-15 12:05:22:540,-2.03354,5.52554,-7.6844,-35.1295,-10.4067,-26.321
2023-03-15 12:05:22:550,-1.93516,5.58865,-7.7914,-35.1329,-10.4053,-26.3173
2023-03-15 12:05:22:560,-1.82685,5.6521,-7.93884,-35.141,-10.3983,-26.3178
2023-03-15 12:05:22:570,-1.75862,5.70932,-8.02789,-35.144,-10.3904,-26.3164
2023-03-15 12:05:22:580,-1.74137,5.70351,-8.02788,-35.1354,-10.3786,-26.3147
2023-03-15 12:05:22:590,-1.73848,5.65623,-8.00331,-35.1129,-10.3638,-26.3114
2023-03-15 12:05:22:600,-1.7556,5.62851,-7.98092,-35.0852,-10.3514,-26.309
2023-03-15 12:05:22:610,-1.7662,5.62618,-7.96976,-35.0522,-10.3388,-26.3041
2023-03-15 12:05:22:620,-1.7972,5.64276,-7.96075,-35.0155,-10.3255,-26.2975
2023-03-15 12:05:22:630,-1.83061,5.61657,-7.94461,-34.9719,-10.3148,-26.3012
2023-03-15 12:05:22:640,-1.91055,5.5613,-7.90202,-34.9253,-10.3036,-26.3061
2023-03-15 12:05:22:650,-1.98193,5.49162,-7.85873,-34.8733,-10.2932,-26.3224
2023-03-15 12:05:22:660,-2.00237,5.42942,-7.83589,-34.8168,-10.2777,-26.3473
2023-03-15 12:05:22:670,-1.97786,5.3894,-7.7965,-34.7575,-10.2586,-26.3831
2023-03-15 12:05:22:680,-1.96241,5.32284,-7.70795,-34.6935,-10.2452,-26.4314
2023-03-15 12:05:22:690,-1.89528,5.24818,-7.62193,-34.6259,-10.238,-26.4885
2023-03-15 12:05:22:700,-1.7558,5.2055,-7.61254,-34.5717,-10.2368,-26.5544
2023-03-15 12:05:22:710,-1.58439,5.24589,-7.7167,-34.54,-10.2374,-26.6234
2023-03-15 12:05:22:720,-1.49028,5.35022,-7.81219,-34.5299,-10.2446,-26.6863
2023-03-15 12:05:22:730,-1.32113,5.39848,-7.96716,-34.5351,-10.2609,-26.7473
2023-03-15 12:05:22:740,-1.20345,5.47511,-8.15171,-34.5468,-10.2729,-26.792
2023-03-15 12:05:22:750,-1.34577,5.49128,-8.15614,-34.5514,-10.2995,-26.8131
2023-03-15 12:05:22:760,-1.5426,5.4711,-8.11097,-34.5446,-10.3353,-26.8199
2023-03-15 12:05:22:770,-1.63856,5.44298,-8.06049,-34.5329,-10.3758,-26.8254
2023-03-15 12:05:22:780,-1.51239,5.44237,-8.08477,-34.5194,-10.4107,-26.8297
2023-03-15 12:05:22:790,-1.36021,5.52225,-8.24444,-34.5126,-10.4339,-26.8273
2023-03-15 12:05:22:800,-1.31417,5.60962,-8.38527,-34.5033,-10.4503,-26.8078
2023-03-15 12:05:22:810,-1.32298,5.68795,-8.48758,-34.4839,-10.4678,-26.7698
2023-03-15 12:05:22:820,-1.58297,5.71706,-8.48153,-34.4465,-10.4829,-26.7136
2023-03-15 12:05:22:830,-1.76625,5.67214,-8.45383,-34.378,-10.5013,-26.6554
2023-03-15 12:05:22:840,-1.57975,5.59785,-8.41929,-34.2781,-10.5143,-26.6059
2023-03-15 12:05:22:850,-1.47421,5.46463,-8.29847,-34.1456,-10.5054,-26.5478
2023-03-15 12:05:22:860,-1.62053,5.33241,-8.09591,-33.9967,-10.489,-26.4758
2023-03-15 12:05:22:870,-1.84595,5.24819,-7.9133,-33.8495,-10.4738,-26.4009
2023-03-15 12:05:22:880,-1.90326,5.21878,-7.82548,-33.7106,-10.4593,-26.3369
2023-03-15 12:05:22:890,-1.8524,5.22882,-7.84537,-33.5853,-10.4385,-26.2832
2023-03-15 12:05:22:900,-1.84195,5.26172,-7.916,-33.4696,-10.4204,-26.2328
2023-03-15 12:05:22:910,-1.89147,5.29718,-7.99244,-33.3587,-10.396,-26.1848
2023-03-15 12:05:22:920,-1.93749,5.36486,-8.06989,-33.2525,-10.3816,-26.1424
2023-03-15 12:05:22:930,-1.92992,5.38945,-8.15619,-33.1385,-10.3705,-26.1125
2023-03-15 12:05:22:940,-1.90267,5.37298,-8.16199,-33.0126,-10.3674,-26.0867
2023-03-15 12:05:22:950,-1.85971,5.29833,-8.09219,-32.8718,-10.3676,-26.0686
2023-03-15 12:05:22:960,-1.80876,5.21738,-7.98966,-32.723,-10.3717,-26.0535
2023-03-15 12:05:22:970,-1.77048,5.11803,-7.91124,-32.5792,-10.3778,-26.0397
2023-03-15 12:05:22:980,-1.79469,5.06057,-7.93902,-32.4467,-10.3847,-26.0184
2023-03-15 12:05:22:990,-1.94269,5.09531,-7.99941,-32.3248,-10.3963,-25.9865
2023-03-15 12:05:23:0,-2.11845,5.14504,-8.0479,-32.2172,-10.416,-25.9511
2023-03-15 12:05:23:10,-2.20243,5.17814,-8.08696,-32.1114,-10.4388,-25.9297
2023-03-15 12:05:23:20,-2.18574,5.13437,-8.08585,-31.9922,-10.4532,-25.9242
2023-03-15 12:05:23:30,-2.26532,5.12285,-8.08002,-31.8686,-10.4574,-25.9247
2023-03-15 12:05:23:40,-2.37701,5.12108,-8.02196,-31.7476,-10.4628,-25.9342
2023-03-15 12:05:23:50,-2.434,5.10224,-7.91373,-31.6242,-10.4676,-25.9651
2023-03-15 12:05:23:60,-2.36702,5.02412,-7.85074,-31.5015,-10.4671,-26.0179
2023-03-15 12:05:23:70,-2.20676,4.97003,-7.85636,-31.3805,-10.4591,-26.0873
2023-03-15 12:05:23:80,-2.1232,4.99519,-7.96676,-31.2753,-10.4442,-26.1604
2023-03-15 12:05:23:90,-2.06421,5.07119,-8.08405,-31.1804,-10.4284,-26.239
2023-03-15 12:05:23:100,-1.99918,5.08069,-8.12438,-31.0837,-10.4132,-26.3185
2023-03-15 12:05:23:110,-1.99005,5.05549,-8.11834,-30.9826,-10.3988,-26.3976
2023-03-15 12:05:23:120,-2.04342,5.04333,-8.11221,-30.8732,-10.3763,-26.482
2023-03-15 12:05:23:130,-2.10252,5.0438,-8.08838,-30.7617,-10.3474,-26.569
2023-03-15 12:05:23:140,-2.11862,5.02216,-8.07561,-30.6558,-10.3194,-26.6631
2023-03-15 12:05:23:150,-2.09677,5.00723,-8.04922,-30.5488,-10.2822,-26.7697
2023-03-15 12:05:23:160,-2.07134,5.00598,-8.02627,-30.4429,-10.2355,-26.8856
2023-03-15 12:05:23:170,-2.04666,5.03613,-8.0572,-30.3415,-10.1791,-27.0134
2023-03-15 12:05:23:180,-1.94469,5.08195,-8.12958,-30.2442,-10.1178,-27.157
2023-03-15 12:05:23:190,-1.77754,5.08778,-8.17371,-30.1449,-10.0496,-27.3037
2023-03-15 12:05:23:200,-1.6237,5.05957,-8.22249,-30.044,-9.98085,-27.4489
2023-03-15 12:05:23:210,-1.54913,5.00885,-8.30677,-29.9415,-9.91108,-27.586
2023-03-15 12:05:23:220,-1.57265,4.98496,-8.35533,-29.8429,-9.84518,-27.712
2023-03-15 12:05:23:230,-1.65991,4.98775,-8.37416,-29.7449,-9.78203,-27.8271
2023-03-15 12:05:23:240,-1.74897,4.97905,-8.37408,-29.6469,-9.72287,-27.9403
2023-03-15 12:05:23:250,-1.81596,4.99017,-8.32149,-29.542,-9.65755,-28.0561
2023-03-15 12:05:23:260,-1.85656,4.97782,-8.24107,-29.4335,-9.58923,-28.1821
2023-03-15 12:05:23:270,-1.80665,4.95123,-8.15841,-29.3202,-9.5112,-28.3148
2023-03-15 12:05:23:280,-1.67881,4.9474,-8.10211,-29.2072,-9.42706,-28.4542
2023-03-15 12:05:23:290,-1.54503,4.90264,-8.09167,-29.1007,-9.3365,-28.592
2023-03-15 12:05:23:300,-1.46251,4.8623,-8.19126,-29.0039,-9.23759,-28.7175
2023-03-15 12:05:23:310,-1.50618,4.92789,-8.35375,-28.9267,-9.13787,-28.8254
2023-03-15 12:05:23:320,-1.65748,5.0087,-8.53056,-28.86,-9.04007,-28.9182
2023-03-15 12:05:23:330,-1.83841,5.09451,-8.66147,-28.7893,-8.93813,-29.014
2023-03-15 12:05:23:340,-1.90478,5.16258,-8.77108,-28.7034,-8.8344,-29.1143
2023-03-15 12:05:23:350,-1.7818,5.241,-8.88929,-28.5961,-8.71135,-29.2298
2023-03-15 12:05:23:360,-1.50022,5.26774,-8.94252,-28.4549,-8.57287,-29.3543
2023-03-15 12:05:23:370,-1.23261,5.23746,-8.97478,-28.2745,-8.4186,-29.476
2023-03-15 12:05:23:380,-1.06688,5.23937,-8.97684,-28.0653,-8.25691,-29.584
2023-03-15 12:05:23:390,-0.966668,5.22047,-8.94842,-27.8297,-8.08817,-29.6693
2023-03-15 12:05:23:400,-0.8754,5.08003,-8.97179,-27.5756,-7.91779,-29.7292
2023-03-15 12:05:23:410,-0.81246,4.93299,-9.06852,-27.3,-7.74801,-29.7592
2023-03-15 12:05:23:420,-0.790076,4.89666,-9.21635,-27.0248,-7.58231,-29.7576
2023-03-15 12:05:23:430,-0.882865,4.85912,-9.24466,-26.7288,-7.41576,-29.7277
2023-03-15 12:05:23:440,-1.06019,4.70835,-9.07577,-26.4002,-7.25083,-29.6803
2023-03-15 12:05:23:450,-1.20152,4.45701,-8.80993,-26.0304,-7.08368,-29.6257
2023-03-15 12:05:23:460,-1.22815,4.18832,-8.53416,-25.6426,-6.90283,-29.5727
2023-03-15 12:05:23:470,-1.16079,3.92544,-8.29073,-25.2533,-6.70924,-29.5179
2023-03-15 12:05:23:480,-1.04502,3.74166,-8.13642,-24.8892,-6.50368,-29.4553
2023-03-15 12:05:23:490,-0.880212,3.62195,-8.12536,-24.5683,-6.28998,-29.3891
2023-03-15 12:05:23:500,-0.715945,3.48038,-8.16475,-24.3026,-6.08211,-29.3039
2023-03-15 12:05:23:510,-0.787552,3.58525,-8.41952,-24.093,-5.87706,-29.1989
2023-03-15 12:05:23:520,-1.0306,3.88066,-8.91407,-23.9288,-5.67587,-29.0903
2023-03-15 12:05:23:530,-0.727838,3.57654,-8.73959,-23.7609,-5.54083,-29.0026
2023-03-15 12:05:23:540,-0.496429,3.50035,-8.75689,-23.6098,-5.40114,-28.8951
2023-03-15 12:05:23:550,-0.703207,3.72609,-9.02586,-23.4764,-5.21418,-28.7631
2023-03-15 12:05:23:560,-1.04945,3.82963,-9.09402,-23.3284,-5.02359,-28.6377
2023-03-15 12:05:23:570,-0.980425,3.7145,-9.06828,-23.1524,-4.82911,-28.5424
2023-03-15 12:05:23:580,-0.631309,3.37736,-8.88478,-22.9541,-4.63255,-28.4707
2023-03-15 12:05:23:590,-0.423166,3.22209,-8.85185,-22.7571,-4.43622,-28.3942
2023-03-15 12:05:23:600,-0.259077,3.25797,-9.03829,-22.5851,-4.23286,-28.3131
2023-03-15 12:05:23:610,-0.153647,3.28885,-9.16585,-22.4322,-4.04166,-28.2225
2023-03-15 12:05:23:620,-0.13748,3.34166,-9.23096,-22.2833,-3.87247,-28.1318
2023-03-15 12:05:23:630,-0.179154,3.36496,-9.20175,-22.1309,-3.72206,-28.0347
2023-03-15 12:05:23:640,-0.148016,3.30195,-9.08985,-21.9703,-3.58992,-27.9461
2023-03-15 12:05:23:650,-0.0756759,3.18771,-8.91783,-21.8066,-3.46922,-27.8555
2023-03-15 12:05:23:660,-0.0601298,3.18404,-8.87406,-21.6525,-3.34817,-27.7646
2023-03-15 12:05:23:670,-0.0482394,3.23841,-8.87333,-21.5143,-3.22211,-27.6703
2023-03-15 12:05:23:680,0.0612831,3.22804,-8.82231,-21.3768,-3.09897,-27.578
2023-03-15 12:05:23:690,0.228534,3.15169,-8.78221,-21.2411,-2.97406,-27.4814
2023-03-15 12:05:23:700,0.339744,3.06884,-8.70155,-21.1244,-2.86508,-27.369
2023-03-15 12:05:23:710,0.320405,3.12693,-8.7561,-21.0408,-2.76992,-27.233
2023-03-15 12:05:23:720,0.148153,3.25806,-8.89365,-20.9905,-2.69477,-27.0831
2023-03-15 12:05:23:730,-0.0364148,3.45708,-9.08563,-20.9644,-2.63911,-26.9228
2023-03-15 12:05:23:740,0.0121454,3.60382,-9.28108,-20.9414,-2.58318,-26.7713
2023-03-15 12:05:23:750,-0.00230463,3.59972,-9.29186,-20.8963,-2.5282,-26.6121
2023-03-15 12:05:23:760,-0.141656,3.48375,-9.1129,-20.826,-2.48429,-26.4466
2023-03-15 12:05:23:771,-0.312736,3.34677,-8.91315,-20.7393,-2.44415,-26.2671
2023-03-15 12:05:23:780,-0.444063,3.2304,-8.72552,-20.6552,-2.41316,-26.0898
2023-03-15 12:05:23:791,-0.517094,3.18709,-8.63097,-20.5887,-2.3926,-25.9231
2023-03-15 12:05:23:800,-0.456401,3.20149,-8.70008,-20.5532,-2.37273,-25.7634
2023-03-15 12:05:23:810,-0.643275,3.28217,-8.75843,-20.5515,-2.36037,-25.6024
2023-03-15 12:05:23:820,-0.924193,3.37679,-8.86294,-20.5788,-2.35685,-25.456
2023-03-15 12:05:23:830,-0.958441,3.5915,-9.15054,-20.6283,-2.34779,-25.3357
2023-03-15 12:05:23:840,-0.79231,3.68882,-9.36741,-20.681,-2.34596,-25.2436
2023-03-15 12:05:23:851,-0.824956,3.70983,-9.43664,-20.71,-2.34584,-25.1612
2023-03-15 12:05:23:860,-1.04127,3.71527,-9.39465,-20.711,-2.34901,-25.0943
2023-03-15 12:05:23:870,-1.10967,3.64678,-9.24906,-20.6908,-2.35182,-25.0594
2023-03-15 12:05:23:880,-0.990896,3.51056,-9.08252,-20.6477,-2.35241,-25.0509
2023-03-15 12:05:23:891,-0.870613,3.40342,-8.93683,-20.594,-2.33579,-25.0634
2023-03-15 12:05:23:900,-0.731127,3.31321,-8.83395,-20.5467,-2.31823,-25.0921
2023-03-15 12:05:23:911,-0.660304,3.27669,-8.79239,-20.5116,-2.29607,-25.1292
2023-03-15 12:05:23:920,-0.653102,3.25729,-8.78174,-20.4971,-2.2753,-25.1744
2023-03-15 12:05:23:931,-0.581838,3.27116,-8.87888,-20.5067,-2.2608,-25.2374
2023-03-15 12:05:23:940,-0.417343,3.3564,-9.07718,-20.5404,-2.24917,-25.3106
2023-03-15 12:05:23:950,-0.244823,3.46773,-9.27716,-20.5846,-2.24741,-25.3861
2023-03-15 12:05:23:960,-0.135912,3.56422,-9.41277,-20.6288,-2.24994,-25.463
2023-03-15 12:05:23:970,-0.117697,3.56919,-9.39229,-20.6548,-2.26853,-25.5348
2023-03-15 12:05:23:980,-0.104091,3.48036,-9.27927,-20.6616,-2.29432,-25.6017
2023-03-15 12:05:23:990,-0.0662569,3.40292,-9.20859,-20.6585,-2.31925,-25.6655
2023-03-15 12:05:24:0,-0.0473489,3.36602,-9.15106,-20.6535,-2.34928,-25.7235
2023-03-15 12:05:24:10,-0.0569158,3.36224,-9.13187,-20.653,-2.38552,-25.7732
2023-03-15 12:05:24:20,-0.0963254,3.40104,-9.09749,-20.6535,-2.42326,-25.8114
2023-03-15 12:05:24:30,-0.185379,3.39616,-9.03965,-20.6511,-2.46763,-25.84
2023-03-15 12:05:24:40,-0.27308,3.42255,-9.04316,-20.6563,-2.51253,-25.8588
2023-03-15 12:05:24:50,-0.338691,3.50091,-9.12889,-20.6756,-2.5618,-25.8754
2023-03-15 12:05:24:60,-0.400296,3.61352,-9.27392,-20.7014,-2.61522,-25.8901
2023-03-15 12:05:24:70,-0.386624,3.71626,-9.38373,-20.7309,-2.67095,-25.9022
2023-03-15 12:05:24:80,-0.371084,3.74417,-9.41285,-20.7504,-2.72264,-25.9149
2023-03-15 12:05:24:90,-0.422035,3.68526,-9.32551,-20.7469,-2.77022,-25.9199
2023-03-15 12:05:24:100,-0.484513,3.56453,-9.22905,-20.7219,-2.81159,-25.9184
2023-03-15 12:05:24:110,-0.51196,3.44555,-9.12478,-20.6844,-2.84252,-25.9199
2023-03-15 12:05:24:120,-0.539743,3.35026,-9.04627,-20.6415,-2.86782,-25.912
2023-03-15 12:05:24:130,-0.559032,3.32825,-9.01942,-20.6096,-2.87931,-25.9019
2023-03-15 12:05:24:140,-0.538634,3.33571,-9.05002,-20.5875,-2.88218,-25.892
2023-03-15 12:05:24:150,-0.525532,3.34853,-9.0839,-20.5725,-2.88509,-25.8826
2023-03-15 12:05:24:160,-0.579246,3.34585,-9.08511,-20.5607,-2.88055,-25.8695
2023-03-15 12:05:24:170,-0.675425,3.30736,-9.0289,-20.5495,-2.87573,-25.8553
2023-03-15 12:05:24:180,-0.71737,3.2577,-8.9998,-20.5412,-2.86985,-25.8463
2023-03-15 12:05:24:191,-0.7417,3.26072,-8.97083,-20.5369,-2.85799,-25.8448
2023-03-15 12:05:24:200,-0.74894,3.27893,-9.00957,-20.5372,-2.84736,-25.8506
2023-03-15 12:05:24:211,-0.707565,3.36711,-9.12738,-20.5459,-2.83508,-25.8649
2023-03-15 12:05:24:220,-0.666269,3.46344,-9.24906,-20.5582,-2.82457,-25.8827
2023-03-15 12:05:24:230,-0.628137,3.55185,-9.31401,-20.567,-2.82327,-25.9108
2023-03-15 12:05:24:240,-0.594503,3.57914,-9.34403,-20.5634,-2.81784,-25.9464
2023-03-15 12:05:24:251,-0.576368,3.5649,-9.35081,-20.545,-2.81464,-25.9824
2023-03-15 12:05:24:260,-0.599195,3.57138,-9.31059,-20.5176,-2.81332,-26.0201
2023-03-15 12:05:24:271,-0.582239,3.57114,-9.29015,-20.4809,-2.81019,-26.0664
2023-03-15 12:05:24:280,-0.478816,3.55071,-9.30825,-20.4396,-2.80395,-26.1177
2023-03-15 12:05:24:290,-0.366479,3.57266,-9.35873,-20.3964,-2.7931,-26.1648
2023-03-15 12:05:24:300,-0.29512,3.62329,-9.37831,-20.3523,-2.78194,-26.2103
2023-03-15 12:05:24:310,-0.239499,3.64644,-9.3631,-20.3034,-2.7678,-26.2519
2023-03-15 12:05:24:320,-0.120911,3.63203,-9.33618,-20.2412,-2.74679,-26.286
2023-03-15 12:05:24:330,0.0221439,3.60665,-9.3502,-20.1702,-2.71737,-26.3092
2023-03-15 12:05:24:340,0.161057,3.57572,-9.41836,-20.0968,-2.68687,-26.3146
2023-03-15 12:05:24:350,0.336995,3.57708,-9.55289,-20.0209,-2.65588,-26.2982
2023-03-15 12:05:24:360,0.520694,3.69113,-9.78521,-19.9486,-2.62145,-26.2566
2023-03-15 12:05:24:370,0.647282,3.86025,-10.0034,-19.8693,-2.59422,-26.189
2023-03-15 12:05:24:380,0.575974,3.90282,-10.0725,-19.7582,-2.5672,-26.0898
2023-03-15 12:05:24:390,0.486885,3.80955,-10.0614,-19.6058,-2.54637,-25.9665
2023-03-15 12:05:24:400,0.489571,3.68794,-10.0394,-19.409,-2.52404,-25.8219
2023-03-15 12:05:24:410,0.523607,3.57732,-9.95647,-19.1705,-2.49865,-25.6572
2023-03-15 12:05:24:420,0.475436,3.42966,-9.80695,-18.8939,-2.46671,-25.4662
2023-03-15 12:05:24:430,0.407574,3.31039,-9.69747,-18.5879,-2.43218,-25.2551
2023-03-15 12:05:24:440,0.358217,3.18394,-9.60437,-18.2692,-2.39739,-25.0262
2023-03-15 12:05:24:450,0.264246,3.05815,-9.46391,-17.9386,-2.37804,-24.7737
2023-03-15 12:05:24:460,0.145301,3.0553,-9.44358,-17.6141,-2.36865,-24.5102
2023-03-15 12:05:24:470,0.00937801,3.08982,-9.46977,-17.29,-2.36885,-24.2416
2023-03-15 12:05:24:480,-0.115453,3.03148,-9.54234,-16.9715,-2.37646,-23.9761
2023-03-15 12:05:24:490,-0.148941,2.97469,-9.62805,-16.6391,-2.3898,-23.7135
2023-03-15 12:05:24:500,-0.0625108,2.93907,-9.73883,-16.3044,-2.41725,-23.453
2023-03-15 12:05:24:510,-0.0193123,2.86647,-9.79937,-15.9437,-2.45276,-23.1908
2023-03-15 12:05:24:520,-0.164374,2.75145,-9.65283,-15.5475,-2.50909,-22.9219
2023-03-15 12:05:24:530,-0.412729,2.55133,-9.38345,-15.1189,-2.58166,-22.6506
2023-03-15 12:05:24:540,-0.613611,2.40162,-9.17918,-14.6858,-2.66582,-22.3855
2023-03-15 12:05:24:550,-0.750886,2.33295,-9.09373,-14.2636,-2.7615,-22.132
2023-03-15 12:05:24:560,-0.816834,2.30441,-9.16212,-13.8691,-2.86042,-21.8994
2023-03-15 12:05:24:570,-0.799867,2.35518,-9.30498,-13.5013,-2.96618,-21.6848
2023-03-15 12:05:24:580,-0.731436,2.39353,-9.45018,-13.1477,-3.08029,-21.487
2023-03-15 12:05:24:590,-0.674536,2.34852,-9.59232,-12.7953,-3.20175,-21.3046
2023-03-15 12:05:24:600,-0.679574,2.31174,-9.66277,-12.432,-3.33376,-21.131
2023-03-15 12:05:24:610,-0.760868,2.25146,-9.63622,-12.0529,-3.47642,-20.9624
2023-03-15 12:05:24:620,-0.898628,2.17032,-9.48368,-11.6516,-3.62789,-20.8054
2023-03-15 12:05:24:630,-1.05341,2.03848,-9.29469,-11.2369,-3.78995,-20.6616
2023-03-15 12:05:24:640,-1.20709,1.88152,-9.11879,-10.8214,-3.9579,-20.5364
2023-03-15 12:05:24:650,-1.32774,1.7649,-9.05511,-10.4213,-4.12273,-20.4287
2023-03-15 12:05:24:660,-1.39056,1.7396,-9.07842,-10.0523,-4.29087,-20.3428
2023-03-15 12:05:24:670,-1.41053,1.71323,-9.15924,-9.71008,-4.45411,-20.2771
2023-03-15 12:05:24:680,-1.36718,1.69796,-9.25983,-9.3903,-4.61597,-20.2314
2023-03-15 12:05:24:690,-1.33941,1.71092,-9.38914,-9.08582,-4.78087,-20.2002
2023-03-15 12:05:24:700,-1.40565,1.74687,-9.49551,-8.78696,-4.95398,-20.1917
2023-03-15 12:05:24:710,-1.49765,1.71827,-9.51851,-8.48062,-5.13166,-20.2022
2023-03-15 12:05:24:720,-1.57438,1.64992,-9.47849,-8.16504,-5.30867,-20.2306
2023-03-15 12:05:24:730,-1.64484,1.55288,-9.38565,-7.84189,-5.47912,-20.2871
2023-03-15 12:05:24:740,-1.69719,1.40501,-9.31368,-7.51215,-5.64386,-20.3629
2023-03-15 12:05:24:750,-1.67224,1.27455,-9.268,-7.18805,-5.79353,-20.4587
2023-03-15 12:05:24:760,-1.60234,1.18093,-9.24797,-6.87692,-5.9359,-20.5772
2023-03-15 12:05:24:770,-1.55679,1.06029,-9.24824,-6.5737,-6.06782,-20.7144
2023-03-15 12:05:24:780,-1.51874,1.00859,-9.30177,-6.29021,-6.1996,-20.866
2023-03-15 12:05:24:790,-1.50705,1.0331,-9.39763,-6.03149,-6.33261,-21.0326
2023-03-15 12:05:24:800,-1.48784,1.07727,-9.47213,-5.78898,-6.46477,-21.2134
2023-03-15 12:05:24:810,-1.46429,1.10153,-9.52964,-5.55508,-6.59557,-21.4106
2023-03-15 12:05:24:820,-1.41316,1.08798,-9.53318,-5.31853,-6.72738,-21.6159
2023-03-15 12:05:24:830,-1.38194,1.0088,-9.48929,-5.07874,-6.86027,-21.8298
2023-03-15 12:05:24:840,-1.3764,0.913785,-9.42874,-4.83073,-6.98936,-22.0437
2023-03-15 12:05:24:850,-1.38569,0.825355,-9.35605,-4.58725,-7.11508,-22.2609
2023-03-15 12:05:24:860,-1.40928,0.716203,-9.28822,-4.34428,-7.237,-22.4773
2023-03-15 12:05:24:870,-1.45237,0.613306,-9.21827,-4.114,-7.35557,-22.6916
2023-03-15 12:05:24:880,-1.5218,0.542846,-9.16079,-3.90202,-7.45775,-22.9031
2023-03-15 12:05:24:890,-1.58215,0.51335,-9.14712,-3.70699,-7.54723,-23.12
2023-03-15 12:05:24:900,-1.57514,0.527916,-9.24278,-3.54316,-7.61951,-23.3418
2023-03-15 12:05:24:910,-1.49162,0.618908,-9.44488,-3.40846,-7.6739,-23.5717
2023-03-15 12:05:24:920,-1.36064,0.718136,-9.66229,-3.29576,-7.71283,-23.8028
2023-03-15 12:05:24:930,-1.26179,0.749662,-9.81995,-3.18299,-7.74756,-24.0299
2023-03-15 12:05:24:940,-1.24592,0.720467,-9.87491,-3.06,-7.783,-24.2584
2023-03-15 12:05:24:950,-1.30163,0.647568,-9.82372,-2.92164,-7.8189,-24.4764
2023-03-15 12:05:24:960,-1.39615,0.552618,-9.67578,-2.76655,-7.85682,-24.6901
2023-03-15 12:05:24:970,-1.45417,0.441049,-9.53481,-2.60593,-7.88992,-24.9009
2023-03-15 12:05:24:980,-1.52405,0.377664,-9.42251,-2.44417,-7.92047,-25.1154
2023-03-15 12:05:24:990,-1.61903,0.341512,-9.37597,-2.29504,-7.94566,-25.331
2023-03-15 12:05:25:0,-1.68532,0.356388,-9.38735,-2.15902,-7.96523,-25.5515
2023-03-15 12:05:25:10,-1.69067,0.307137,-9.3692,-2.02684,-7.97554,-25.786
2023-03-15 12:05:25:20,-1.70083,0.203323,-9.26445,-1.90062,-7.99168,-26.0377
2023-03-15 12:05:25:30,-1.76062,0.183511,-9.2522,-1.78623,-8.00145,-26.297
2023-03-15 12:05:25:40,-1.88867,0.175286,-9.25026,-1.68454,-8.00593,-26.5755
2023-03-15 12:05:25:50,-2.00666,0.198835,-9.31926,-1.59995,-8.00486,-26.8824
2023-03-15 12:05:25:60,-1.91884,0.239556,-9.43902,-1.53168,-7.99574,-27.2233
2023-03-15 12:05:25:70,-1.69179,0.228237,-9.5573,-1.47494,-7.98345,-27.5941
2023-03-15 12:05:25:80,-1.51635,0.25685,-9.69278,-1.42045,-7.96482,-27.9788
2023-03-15 12:05:25:90,-1.44957,0.253713,-9.78005,-1.35237,-7.95318,-28.3772
2023-03-15 12:05:25:100,-1.46027,0.164015,-9.75709,-1.26654,-7.95258,-28.7909
2023-03-15 12:05:25:110,-1.49743,0.0694914,-9.64172,-1.16988,-7.96615,-29.2131
2023-03-15 12:05:25:120,-1.52573,-0.00732603,-9.49699,-1.07149,-7.99003,-29.6453
2023-03-15 12:05:25:130,-1.51238,-0.0676533,-9.46169,-0.982953,-8.01778,-30.0921
2023-03-15 12:05:25:140,-1.41337,-0.0955944,-9.48319,-0.911587,-8.04537,-30.547
2023-03-15 12:05:25:150,-1.34559,-0.111327,-9.51019,-0.853915,-8.07142,-31.0071
2023-03-15 12:05:25:160,-1.3804,-0.10518,-9.48057,-0.812581,-8.10151,-31.4665
2023-03-15 12:05:25:170,-1.49041,-0.110601,-9.42884,-0.781775,-8.1308,-31.929
2023-03-15 12:05:25:180,-1.5554,-0.1195,-9.39378,-0.757031,-8.15623,-32.3959
2023-03-15 12:05:25:190,-1.518,-0.091817,-9.41347,-0.750476,-8.17513,-32.8736
2023-03-15 12:05:25:200,-1.39604,-0.0426276,-9.48745,-0.756699,-8.17958,-33.3538
2023-03-15 12:05:25:210,-1.24006,0.0156558,-9.62043,-0.776098,-8.16877,-33.8315
2023-03-15 12:05:25:220,-1.10368,0.0975111,-9.7832,-0.806845,-8.14472,-34.2992
2023-03-15 12:05:25:230,-0.984835,0.167983,-9.92454,-0.830667,-8.11394,-34.7516
2023-03-15 12:05:25:240,-0.875013,0.20223,-10.0324,-0.837989,-8.07473,-35.1887
2023-03-15 12:05:25:251,-0.810486,0.157574,-10.0776,-0.820995,-8.03796,-35.6043
2023-03-15 12:05:25:260,-0.815765,0.0823034,-9.95152,-0.781079,-8.00885,-35.9926
2023-03-15 12:05:25:270,-0.964898,0.0442068,-9.79022,-0.720037,-7.97984,-36.3568
2023-03-15 12:05:25:280,-1.06636,0.028826,-9.72091,-0.647809,-7.92907,-36.7014
2023-03-15 12:05:25:290,-1.02811,-0.0501309,-9.62816,-0.562816,-7.86493,-37.0248
2023-03-15 12:05:25:300,-0.918494,-0.158218,-9.50152,-0.477021,-7.78745,-37.3253
2023-03-15 12:05:25:310,-0.875352,-0.208697,-9.3973,-0.407752,-7.71171,-37.6101
2023-03-15 12:05:25:320,-0.867857,-0.114424,-9.51228,-0.367613,-7.61825,-37.8698
2023-03-15 12:05:25:330,-0.802075,0.0166056,-9.69816,-0.351942,-7.51985,-38.1168
2023-03-15 12:05:25:340,-0.728693,0.0932558,-9.83613,-0.333225,-7.41427,-38.3497
2023-03-15 12:05:25:350,-0.682353,0.127065,-9.89383,-0.301007,-7.30201,-38.563
2023-03-15 12:05:25:360,-0.630321,0.0982133,-9.85309,-0.247835,-7.1804,-38.7498
2023-03-15 12:05:25:371,-0.578627,0.0273529,-9.75166,-0.175294,-7.0584,-38.9161
2023-03-15 12:05:25:380,-0.485209,-0.00394118,-9.69875,-0.10231,-6.92785,-39.0594
2023-03-15 12:05:25:390,-0.416561,-0.0737611,-9.5877,-0.0334715,-6.81228,-39.1792
2023-03-15 12:05:25:400,-0.424199,-0.0269178,-9.64604,0.0206745,-6.70295,-39.2765
2023-03-15 12:05:25:411,-0.432565,0.0949778,-9.8273,0.0562106,-6.59278,-39.3485
2023-03-15 12:05:25:420,-0.458967,0.136505,-9.97103,0.100233,-6.49065,-39.4049
2023-03-15 12:05:25:430,-0.449714,0.103422,-9.98784,0.15969,-6.39947,-39.4451
2023-03-15 12:05:25:440,-0.492422,-0.0138459,-9.90054,0.242633,-6.3253,-39.4715
2023-03-15 12:05:25:451,-0.605023,-0.103646,-9.79204,0.336942,-6.26094,-39.4838
2023-03-15 12:05:25:461,-0.706942,-0.146357,-9.72154,0.430496,-6.20091,-39.4906
2023-03-15 12:05:25:471,-0.748395,-0.167184,-9.63409,0.514228,-6.14674,-39.4931
2023-03-15 12:05:25:480,-0.738915,-0.163867,-9.60969,0.588885,-6.09551,-39.4922
2023-03-15 12:05:25:490,-0.690677,-0.162327,-9.61077,0.653736,-6.04347,-39.4834
2023-03-15 12:05:25:500,-0.661676,-0.070813,-9.65877,0.703809,-5.99506,-39.4683
2023-03-15 12:05:25:511,-0.62702,-0.0166129,-9.71158,0.743602,-5.94811,-39.4493
2023-03-15 12:05:25:520,-0.607551,0.00975905,-9.75508,0.782937,-5.9052,-39.4242
2023-03-15 12:05:25:530,-0.614165,0.0416662,-9.78537,0.823613,-5.87067,-39.3912
2023-03-15 12:05:25:540,-0.643653,0.0472361,-9.80992,0.867327,-5.84516,-39.351
2023-03-15 12:05:25:550,-0.672431,0.0228775,-9.80674,0.917544,-5.82564,-39.3021
2023-03-15 12:05:25:560,-0.710557,-0.00964678,-9.79109,0.967774,-5.80966,-39.2455
2023-03-15 12:05:25:570,-0.726252,-0.0723389,-9.76894,1.02478,-5.80073,-39.1816
2023-03-15 12:05:25:580,-0.804311,-0.0949753,-9.69586,1.08327,-5.79763,-39.1042
2023-03-15 12:05:25:590,-0.882451,-0.127293,-9.62031,1.13885,-5.79666,-39.0238
2023-03-15 12:05:25:600,-0.951251,-0.200191,-9.59853,1.19536,-5.79762,-38.9359
2023-03-15 12:05:25:610,-1.04241,-0.16567,-9.60797,1.23955,-5.79863,-38.8461
2023-03-15 12:05:25:620,-1.09546,-0.176071,-9.62262,1.27897,-5.80361,-38.7567
2023-03-15 12:05:25:630,-1.09801,-0.187422,-9.6288,1.314,-5.8045,-38.6688
2023-03-15 12:05:25:640,-1.06149,-0.172817,-9.68176,1.33731,-5.79562,-38.5847
2023-03-15 12:05:25:650,-1.01686,-0.160243,-9.74807,1.36279,-5.78337,-38.5019
2023-03-15 12:05:25:660,-1.01066,-0.150177,-9.79396,1.38839,-5.77474,-38.4213
2023-03-15 12:05:25:670,-1.02173,-0.155968,-9.81686,1.41928,-5.77155,-38.3423
2023-03-15 12:05:25:680,-1.04587,-0.182129,-9.80837,1.45233,-5.76569,-38.2683
2023-03-15 12:05:25:690,-1.06917,-0.215348,-9.80009,1.49243,-5.76228,-38.2002
2023-03-15 12:05:25:700,-1.08902,-0.24206,-9.82166,1.53017,-5.75798,-38.1336
2023-03-15 12:05:25:710,-1.10257,-0.238245,-9.86633,1.57021,-5.75644,-38.0744
2023-03-15 12:05:25:720,-1.11363,-0.218778,-9.89894,1.61533,-5.75061,-38.0249
2023-03-15 12:05:25:730,-1.1742,-0.238756,-9.90754,1.66842,-5.7406,-37.9869
2023-03-15 12:05:25:740,-1.16819,-0.265071,-9.9,1.74025,-5.72301,-37.9584
2023-03-15 12:05:25:750,-1.09463,-0.316943,-9.91487,1.82591,-5.69745,-37.9419
2023-03-15 12:05:25:760,-1.01922,-0.382601,-9.89869,1.92655,-5.6626,-37.937
2023-03-15 12:05:25:771,-0.949855,-0.450914,-9.84121,2.03859,-5.62824,-37.9378
2023-03-15 12:05:25:780,-0.94453,-0.510817,-9.80225,2.16396,-5.59602,-37.9449
2023-03-15 12:05:25:790,-0.930638,-0.564704,-9.76326,2.29205,-5.56424,-37.958
2023-03-15 12:05:25:800,-0.822797,-0.625081,-9.75012,2.424,-5.53164,-37.9749
2023-03-15 12:05:25:811,-0.713415,-0.674136,-9.71392,2.56028,-5.50155,-37.9908
2023-03-15 12:05:25:820,-0.70596,-0.747209,-9.61536,2.69775,-5.47962,-38.0027
2023-03-15 12:05:25:830,-0.819973,-0.802365,-9.51586,2.82872,-5.47128,-38.0066
2023-03-15 12:05:25:840,-0.951404,-0.837908,-9.44979,2.95323,-5.47202,-38.0164
2023-03-15 12:05:25:850,-1.01635,-0.849512,-9.46448,3.06421,-5.46905,-38.0333
2023-03-15 12:05:25:860,-0.991614,-0.817465,-9.53055,3.15761,-5.46296,-38.0614
2023-03-15 12:05:25:871,-0.946242,-0.807921,-9.543,3.24698,-5.4579,-38.0977
2023-03-15 12:05:25:880,-0.909943,-0.839068,-9.48795,3.33196,-5.45101,-38.1412
2023-03-15 12:05:25:891,-0.831885,-0.844874,-9.476,3.41163,-5.44584,-38.1847
2023-03-15 12:05:25:900,-0.783405,-0.815363,-9.51926,3.47447,-5.43369,-38.224
2023-03-15 12:05:25:910,-0.783996,-0.748052,-9.55416,3.5267,-5.43259,-38.26
2023-03-15 12:05:25:920,-0.805424,-0.712604,-9.5826,3.56822,-5.44105,-38.2945
2023-03-15 12:05:25:931,-0.870512,-0.678778,-9.58981,3.59854,-5.45835,-38.3269
2023-03-15 12:05:25:940,-0.957121,-0.681151,-9.58069,3.6268,-5.47795,-38.3639
2023-03-15 12:05:25:950,-1.01027,-0.668887,-9.56746,3.64747,-5.50088,-38.4014
2023-03-15 12:05:25:960,-1.01316,-0.669853,-9.57862,3.66526,-5.52444,-38.4383
2023-03-15 12:05:25:971,-1.02272,-0.648872,-9.57051,3.68407,-5.53799,-38.4789
2023-03-15 12:05:25:980,-0.993141,-0.643913,-9.55786,3.70556,-5.53969,-38.5186
2023-03-15 12:05:25:990,-0.948347,-0.666805,-9.54544,3.72602,-5.53967,-38.5537
2023-03-15 12:05:26:0,-0.873203,-0.681581,-9.54274,3.74378,-5.52665,-38.584
2023-03-15 12:05:26:10,-0.801629,-0.69891,-9.56881,3.75643,-5.51002,-38.6065
2023-03-15 12:05:26:20,-0.787682,-0.702858,-9.6444,3.75755,-5.49101,-38.6215
2023-03-15 12:05:26:30,-0.801556,-0.657681,-9.72166,3.75207,-5.47322,-38.6332
2023-03-15 12:05:26:40,-0.775544,-0.624753,-9.78758,3.74328,-5.45902,-38.6406
2023-03-15 12:05:26:50,-0.70889,-0.597814,-9.82234,3.73242,-5.4427,-38.6433
2023-03-15 12:05:26:60,-0.699562,-0.5939,-9.82456,3.72246,-5.42715,-38.6396
2023-03-15 12:05:26:70,-0.701655,-0.610348,-9.79501,3.71948,-5.414,-38.6261
2023-03-15 12:05:26:80,-0.708819,-0.64445,-9.73689,3.72559,-5.40497,-38.6045
2023-03-15 12:05:26:90,-0.74971,-0.662709,-9.66958,3.7255,-5.39889,-38.5762
2023-03-15 12:05:26:100,-0.823522,-0.68804,-9.63411,3.72509,-5.39684,-38.5412
2023-03-15 12:05:26:110,-0.861169,-0.676764,-9.62509,3.71874,-5.39122,-38.503
2023-03-15 12:05:26:120,-0.865935,-0.651075,-9.68255,3.70557,-5.38457,-38.4629
2023-03-15 12:05:26:130,-0.84667,-0.598142,-9.75314,3.69196,-5.38097,-38.4228
2023-03-15 12:05:26:140,-0.829514,-0.584568,-9.79258,3.67502,-5.37501,-38.3791
2023-03-15 12:05:26:150,-0.823346,-0.60709,-9.78166,3.66804,-5.37059,-38.3334
2023-03-15 12:05:26:160,-0.829835,-0.643184,-9.73198,3.66913,-5.37064,-38.288
2023-03-15 12:05:26:171,-0.849848,-0.670914,-9.67767,3.67677,-5.36885,-38.2389
2023-03-15 12:05:26:180,-0.849222,-0.69043,-9.63075,3.6803,-5.36736,-38.1887
2023-03-15 12:05:26:191,-0.859664,-0.723666,-9.64605,3.6838,-5.36778,-38.142
2023-03-15 12:05:26:200,-0.862827,-0.719585,-9.65757,3.6812,-5.36957,-38.0879
2023-03-15 12:05:26:210,-0.887405,-0.68932,-9.67142,3.6716,-5.37323,-38.0325
2023-03-15 12:05:26:220,-0.884041,-0.661828,-9.68279,3.6597,-5.37846,-37.9794
2023-03-15 12:05:26:231,-0.880022,-0.640941,-9.69796,3.64343,-5.38441,-37.9296
2023-03-15 12:05:26:241,-0.888438,-0.633103,-9.72071,3.62571,-5.39012,-37.879
2023-03-15 12:05:26:250,-0.882273,-0.618291,-9.73367,3.60906,-5.40098,-37.828
2023-03-15 12:05:26:261,-0.8787,-0.597443,-9.74412,3.58672,-5.41608,-37.7769
2023-03-15 12:05:26:271,-0.888728,-0.579926,-9.75871,3.56435,-5.43049,-37.7274
2023-03-15 12:05:26:281,-0.895537,-0.564478,-9.74103,3.5442,-5.44784,-37.6782
2023-03-15 12:05:26:291,-0.900148,-0.553297,-9.72538,3.52872,-5.46658,-37.6282
2023-03-15 12:05:26:301,-0.905606,-0.562468,-9.70895,3.51239,-5.48044,-37.5786
2023-03-15 12:05:26:311,-0.894347,-0.570761,-9.68314,3.50274,-5.49944,-37.5246
2023-03-15 12:05:26:321,-0.899861,-0.56327,-9.6613,3.49361,-5.51697,-37.4696
2023-03-15 12:05:26:331,-0.935129,-0.564462,-9.67903,3.48128,-5.53542,-37.4129
2023-03-15 12:05:26:340,-0.958463,-0.547321,-9.72083,3.46884,-5.55652,-37.3528
2023-03-15 12:05:26:350,-0.959841,-0.50855,-9.76646,3.45235,-5.57993,-37.2935
2023-03-15 12:05:26:360,-0.960318,-0.479433,-9.79523,3.43371,-5.59958,-37.2376
2023-03-15 12:05:26:371,-0.962591,-0.476633,-9.79562,3.42253,-5.61444,-37.1821
2023-03-15 12:05:26:380,-0.954665,-0.460114,-9.77518,3.41863,-5.63152,-37.1257
2023-03-15 12:05:26:391,-0.936547,-0.490804,-9.73269,3.42247,-5.64563,-37.0703
2023-03-15 12:05:26:400,-0.881321,-0.54993,-9.69993,3.43386,-5.65692,-37.0058
2023-03-15 12:05:26:411,-0.820696,-0.579188,-9.67161,3.44666,-5.66709,-36.9334
2023-03-15 12:05:26:421,-0.778646,-0.608377,-9.64423,3.45771,-5.67772,-36.8515
2023-03-15 12:05:26:430,-0.740357,-0.629793,-9.61669,3.46256,-5.68904,-36.7587
2023-03-15 12:05:26:440,-0.722166,-0.633245,-9.61824,3.46369,-5.70059,-36.6545
2023-03-15 12:05:26:451,-0.708022,-0.613983,-9.65752,3.44923,-5.71723,-36.5363
2023-03-15 12:05:26:460,-0.687324,-0.569764,-9.70463,3.42717,-5.7326,-36.4022
2023-03-15 12:05:26:471,-0.71465,-0.545072,-9.72394,3.39822,-5.75128,-36.2559
2023-03-15 12:05:26:480,-0.760434,-0.530442,-9.73684,3.37283,-5.77015,-36.0969
2023-03-15 12:05:26:491,-0.791326,-0.51651,-9.73756,3.34725,-5.78806,-35.927
2023-03-15 12:05:26:500,-0.813831,-0.520527,-9.71637,3.32621,-5.80571,-35.7468
2023-03-15 12:05:26:510,-0.851761,-0.529464,-9.70911,3.30765,-5.81608,-35.555
2023-03-15 12:05:26:520,-0.881916,-0.514143,-9.68518,3.29085,-5.82775,-35.3556
2023-03-15 12:05:26:530,-0.928788,-0.517201,-9.67396,3.27445,-5.83627,-35.147
2023-03-15 12:05:26:540,-1.00654,-0.53568,-9.64336,3.25817,-5.84877,-34.933
2023-03-15 12:05:26:550,-1.05816,-0.547126,-9.60746,3.24113,-5.85773,-34.7186
2023-03-15 12:05:26:560,-1.09759,-0.548788,-9.63301,3.21818,-5.86364,-34.5036
2023-03-15 12:05:26:570,-1.13952,-0.51475,-9.69718,3.1848,-5.87016,-34.2897
2023-03-15 12:05:26:580,-1.1839,-0.474996,-9.73725,3.14942,-5.87351,-34.0784
2023-03-15 12:05:26:590,-1.19337,-0.448547,-9.80001,3.11602,-5.8776,-33.8729
2023-03-15 12:05:26:600,-1.20059,-0.41459,-9.83492,3.08751,-5.87932,-33.6736
2023-03-15 12:05:26:610,-1.22875,-0.403158,-9.83777,3.06637,-5.88242,-33.4856
2023-03-15 12:05:26:620,-1.26258,-0.416759,-9.81114,3.05592,-5.88826,-33.3068
2023-03-15 12:05:26:630,-1.27793,-0.419068,-9.76698,3.05307,-5.89728,-33.1404
2023-03-15 12:05:26:641,-1.30079,-0.433527,-9.72813,3.06006,-5.90548,-32.9851
2023-03-15 12:05:26:651,-1.28464,-0.430698,-9.69495,3.06542,-5.91325,-32.8396
2023-03-15 12:05:26:661,-1.24686,-0.426735,-9.68279,3.06945,-5.92311,-32.7055
2023-03-15 12:05:26:671,-1.21643,-0.433787,-9.67379,3.07058,-5.93396,-32.5847
2023-03-15 12:05:26:680,-1.21147,-0.446321,-9.68814,3.07157,-5.94662,-32.4744
2023-03-15 12:05:26:690,-1.22593,-0.438263,-9.71311,3.07101,-5.95951,-32.3706
2023-03-15 12:05:26:700,-1.23873,-0.422392,-9.71258,3.07174,-5.97529,-32.2777
2023-03-15 12:05:26:711,-1.2262,-0.411098,-9.71503,3.07021,-5.99398,-32.1938
2023-03-15 12:05:26:720,-1.23023,-0.403219,-9.73215,3.06989,-6.01199,-32.1233
2023-03-15 12:05:26:730,-1.24082,-0.407953,-9.73202,3.07819,-6.03041,-32.0609
2023-03-15 12:05:26:740,-1.23939,-0.423748,-9.72206,3.08683,-6.04519,-32.0043
2023-03-15 12:05:26:751,-1.21235,-0.440732,-9.70147,3.10399,-6.06128,-31.961
2023-03-15 12:05:26:760,-1.19012,-0.469234,-9.66675,3.12684,-6.07365,-31.9227
2023-03-15 12:05:26:770,-1.172,-0.521537,-9.62009,3.14746,-6.08121,-31.8884
2023-03-15 12:05:26:780,-1.12577,-0.575079,-9.57973,3.16791,-6.08834,-31.8537
2023-03-15 12:05:26:791,-1.06679,-0.635998,-9.54035,3.1824,-6.08893,-31.8198
2023-03-15 12:05:26:800,-1.02762,-0.646957,-9.5601,3.1828,-6.08857,-31.7855
2023-03-15 12:05:26:811,-1.04837,-0.602469,-9.62219,3.16476,-6.09033,-31.7484
2023-03-15 12:05:26:820,-1.0766,-0.533217,-9.71549,3.13232,-6.09327,-31.7117
2023-03-15 12:05:26:830,-1.07285,-0.449383,-9.79119,3.09206,-6.09354,-31.6772
2023-03-15 12:05:26:840,-1.06254,-0.392746,-9.83905,3.05909,-6.08826,-31.6475
2023-03-15 12:05:26:850,-1.06539,-0.357468,-9.86922,3.03576,-6.08028,-31.6159
2023-03-15 12:05:26:860,-1.06362,-0.338968,-9.82007,3.02525,-6.06626,-31.5862
2023-03-15 12:05:26:870,-1.01185,-0.401218,-9.73493,3.03611,-6.04433,-31.5575
2023-03-15 12:05:26:880,-0.993955,-0.485106,-9.64697,3.05305,-6.02258,-31.5258
2023-03-15 12:05:26:891,-1.01569,-0.537782,-9.58374,3.07274,-6.00029,-31.4883
2023-03-15 12:05:26:900,-1.01817,-0.564627,-9.5719,3.08029,-5.9814,-31.45
2023-03-15 12:05:26:911,-0.977571,-0.5723,-9.60239,3.07922,-5.95602,-31.4145
2023-03-15 12:05:26:920,-0.926134,-0.536124,-9.6544,3.06914,-5.93102,-31.3754
2023-03-15 12:05:26:931,-0.882301,-0.499253,-9.70949,3.05894,-5.90659,-31.3333
2023-03-15 12:05:26:940,-0.828547,-0.480894,-9.72281,3.04836,-5.88453,-31.2921
2023-03-15 12:05:26:950,-0.810633,-0.492679,-9.70362,3.04427,-5.86316,-31.2487
2023-03-15 12:05:26:960,-0.844837,-0.568674,-9.62831,3.04161,-5.84667,-31.2014
2023-03-15 12:05:26:970,-0.866679,-0.64501,-9.54605,3.03844,-5.82893,-31.1487
2023-03-15 12:05:26:980,-0.830106,-0.682455,-9.55931,3.02566,-5.81478,-31.0886
2023-03-15 12:05:26:990,-0.762373,-0.613231,-9.64103,2.99384,-5.7998,-31.0261
2023-03-15 12:05:27:0,-0.742579,-0.508794,-9.7807,2.95156,-5.79085,-30.9601
2023-03-15 12:05:27:10,-0.753489,-0.417817,-9.86476,2.91089,-5.79135,-30.8976
2023-03-15 12:05:27:20,-0.824134,-0.419157,-9.84746,2.87832,-5.80374,-30.8356
2023-03-15 12:05:27:30,-0.888229,-0.464816,-9.77652,2.8566,-5.82236,-30.7742
2023-03-15 12:05:27:40,-0.896884,-0.50993,-9.71113,2.84308,-5.84515,-30.7117
2023-03-15 12:05:27:50,-0.873982,-0.53155,-9.67816,2.83224,-5.86521,-30.6454
2023-03-15 12:05:27:60,-0.87617,-0.532784,-9.69233,2.8174,-5.88977,-30.5738
2023-03-15 12:05:27:71,-0.902305,-0.537211,-9.67296,2.79717,-5.90691,-30.4976
2023-03-15 12:05:27:80,-0.926153,-0.53177,-9.67258,2.77709,-5.92425,-30.4128
2023-03-15 12:05:27:90,-0.926496,-0.487273,-9.71346,2.74985,-5.94077,-30.3218
2023-03-15 12:05:27:100,-0.926311,-0.44314,-9.74979,2.72442,-5.95427,-30.2272
2023-03-15 12:05:27:110,-0.952604,-0.409987,-9.74311,2.70586,-5.96281,-30.1288
2023-03-15 12:05:27:120,-0.969754,-0.449764,-9.70191,2.69331,-5.97209,-30.03
2023-03-15 12:05:27:131,-0.978069,-0.496881,-9.63682,2.68608,-5.9799,-29.9263
2023-03-15 12:05:27:140,-0.963814,-0.524031,-9.61314,2.67882,-5.98542,-29.8178
2023-03-15 12:05:27:150,-0.962359,-0.528059,-9.61598,2.66379,-5.98643,-29.7108
2023-03-15 12:05:27:161,-0.98842,-0.507994,-9.64275,2.63685,-5.99351,-29.6009
2023-03-15 12:05:27:170,-1.03449,-0.460915,-9.69931,2.60544,-6.00381,-29.4937
2023-03-15 12:05:27:180,-1.06826,-0.407377,-9.74095,2.56973,-6.01509,-29.3901
2023-03-15 12:05:27:191,-1.09196,-0.337609,-9.78852,2.53006,-6.0287,-29.2932
2023-03-15 12:05:27:201,-1.10811,-0.32309,-9.82835,2.49739,-6.04164,-29.2042
2023-03-15 12:05:27:211,-1.13842,-0.325011,-9.78469,2.47088,-6.06151,-29.1258
2023-03-15 12:05:27:221,-1.15822,-0.352185,-9.72105,2.45409,-6.08404,-29.0526
2023-03-15 12:05:27:231,-1.15393,-0.373211,-9.69283,2.44106,-6.10382,-28.9838
2023-03-15 12:05:27:241,-1.14988,-0.37834,-9.71362,2.42439,-6.12367,-28.9225
2023-03-15 12:05:27:251,-1.2044,-0.312133,-9.72247,2.40312,-6.14758,-28.8697
2023-03-15 12:05:27:260,-1.24363,-0.286243,-9.73144,2.38326,-6.17299,-28.8264
2023-03-15 12:05:27:271,-1.25431,-0.303815,-9.71193,2.36708,-6.19898,-28.7917
2023-03-15 12:05:27:280,-1.24631,-0.340943,-9.69283,2.35856,-6.21657,-28.7641
2023-03-15 12:05:27:290,-1.24179,-0.373281,-9.69686,2.35036,-6.23368,-28.7384
2023-03-15 12:05:27:300,-1.22854,-0.35153,-9.72519,2.3376,-6.24905,-28.7202
2023-03-15 12:05:27:311,-1.21081,-0.313913,-9.77595,2.32163,-6.26291,-28.7093
2023-03-15 12:05:27:321,-1.19875,-0.300672,-9.77501,2.31316,-6.27555,-28.7036
2023-03-15 12:05:27:330,-1.197,-0.322452,-9.72031,2.31182,-6.28544,-28.7001
2023-03-15 12:05:27:340,-1.20392,-0.357769,-9.65278,2.31353,-6.29562,-28.7016
2023-03-15 12:05:27:351,-1.19027,-0.387129,-9.60392,2.31551,-6.302,-28.706
2023-03-15 12:05:27:360,-1.15972,-0.406707,-9.57704,2.31395,-6.306,-28.7128
2023-03-15 12:05:27:371,-1.13249,-0.416029,-9.61233,2.30606,-6.30508,-28.7182
2023-03-15 12:05:27:381,-1.11177,-0.412197,-9.6464,2.29556,-6.29941,-28.7234
2023-03-15 12:05:27:391,-1.06633,-0.393878,-9.68552,2.27966,-6.29581,-28.7357
2023-03-15 12:05:27:401,-0.986893,-0.367333,-9.70953,2.25892,-6.29135,-28.744
2023-03-15 12:05:27:411,-0.949635,-0.370856,-9.72134,2.23901,-6.28474,-28.7529
2023-03-15 12:05:27:420,-0.978572,-0.357868,-9.72996,2.21809,-6.28015,-28.7525
2023-03-15 12:05:27:431,-1.01525,-0.33176,-9.75218,2.19293,-6.28464,-28.7557
2023-03-15 12:05:27:440,-1.03991,-0.296085,-9.75105,2.1715,-6.28934,-28.7584
2023-03-15 12:05:27:450,-1.07127,-0.298102,-9.73018,2.15336,-6.28994,-28.7602
2023-03-15 12:05:27:460,-1.06834,-0.338692,-9.67133,2.14425,-6.29554,-28.7631
2023-03-15 12:05:27:471,-1.07857,-0.367175,-9.63229,2.13414,-6.29253,-28.7653
2023-03-15 12:05:27:481,-1.09517,-0.362128,-9.62143,2.12052,-6.29066,-28.7687
2023-03-15 12:05:27:491,-1.0698,-0.338534,-9.65086,2.09552,-6.28751,-28.7704
2023-03-15 12:05:27:500,-1.0602,-0.28471,-9.68897,2.06892,-6.28001,-28.7746
2023-03-15 12:05:27:510,-1.06396,-0.253494,-9.72618,2.04157,-6.27565,-28.7785
2023-03-15 12:05:27:520,-1.03051,-0.243737,-9.76196,2.01649,-6.26793,-28.7861
2023-03-15 12:05:27:530,-1.00911,-0.234447,-9.78528,1.99614,-6.25857,-28.7947
2023-03-15 12:05:27:540,-1.0031,-0.229468,-9.78439,1.98007,-6.25323,-28.7998
2023-03-15 12:05:27:550,-0.988642,-0.2432,-9.78853,1.97038,-6.24447,-28.8078
2023-03-15 12:05:27:560,-0.983009,-0.26351,-9.76122,1.96716,-6.23511,-28.8156
2023-03-15 12:05:27:570,-1.00226,-0.308697,-9.71502,1.96872,-6.23218,-28.8262
2023-03-15 12:05:27:580,-1.03631,-0.343822,-9.683,1.97132,-6.22634,-28.8341
2023-03-15 12:05:27:591,-1.04933,-0.344868,-9.68319,1.97302,-6.22151,-28.8433
2023-03-15 12:05:27:600,-1.0494,-0.32519,-9.68864,1.96385,-6.21816,-28.8581
2023-03-15 12:05:27:610,-1.04795,-0.303723,-9.70151,1.95433,-6.22064,-28.8737
2023-03-15 12:05:27:620,-1.07892,-0.285046,-9.7313,1.94389,-6.22198,-28.8983
2023-03-15 12:05:27:631,-1.10751,-0.251219,-9.7405,1.93147,-6.22818,-28.9312
2023-03-15 12:05:27:641,-1.12755,-0.257055,-9.74749,1.92083,-6.2397,-28.9761
2023-03-15 12:05:27:651,-1.11799,-0.259226,-9.72811,1.91549,-6.24949,-29.0264
2023-03-15 12:05:27:660,-1.09929,-0.259741,-9.72343,1.91234,-6.25908,-29.0883
2023-03-15 12:05:27:671,-1.06775,-0.273752,-9.72271,1.91032,-6.26721,-29.1513
2023-03-15 12:05:27:680,-1.03126,-0.29034,-9.72861,1.90961,-6.2765,-29.218
2023-03-15 12:05:27:691,-0.991258,-0.279159,-9.73619,1.90945,-6.28633,-29.282
2023-03-15 12:05:27:701,-0.987611,-0.262522,-9.75165,1.91022,-6.29424,-29.3493
2023-03-15 12:05:27:711,-0.977495,-0.260766,-9.76394,1.91197,-6.30132,-29.4122
2023-03-15 12:05:27:720,-0.960081,-0.286113,-9.73575,1.91697,-6.30645,-29.4711
2023-03-15 12:05:27:731,-0.937037,-0.314674,-9.68804,1.9298,-6.30916,-29.5242
2023-03-15 12:05:27:740,-0.922874,-0.312476,-9.67368,1.93948,-6.31188,-29.5749
2023-03-15 12:05:27:751,-0.882124,-0.303208,-9.68032,1.94205,-6.30761,-29.6173
2023-03-15 12:05:27:760,-0.844827,-0.322919,-9.68134,1.94514,-6.30434,-29.6546
2023-03-15 12:05:27:771,-0.823895,-0.34661,-9.68752,1.94556,-6.29856,-29.6817
2023-03-15 12:05:27:781,-0.812802,-0.337981,-9.69182,1.94568,-6.2963,-29.6993
2023-03-15 12:05:27:790,-0.816786,-0.334559,-9.69496,1.94269,-6.29205,-29.709
2023-03-15 12:05:27:800,-0.813947,-0.343646,-9.6779,1.93919,-6.28935,-29.7109
2023-03-15 12:05:27:811,-0.83995,-0.319799,-9.67174,1.93453,-6.28914,-29.7027
2023-03-15 12:05:27:821,-0.886331,-0.313029,-9.69572,1.92466,-6.2918,-29.6853
2023-03-15 12:05:27:831,-0.904965,-0.304143,-9.70637,1.91282,-6.29756,-29.6657
2023-03-15 12:05:27:841,-0.923229,-0.276171,-9.71703,1.89956,-6.29901,-29.6402
2023-03-15 12:05:27:851,-0.942064,-0.280222,-9.71072,1.89007,-6.30305,-29.61
2023-03-15 12:05:27:861,-0.964558,-0.291335,-9.70565,1.88078,-6.31139,-29.5744
2023-03-15 12:05:27:871,-0.982668,-0.29378,-9.70967,1.87083,-6.32198,-29.5347
2023-03-15 12:05:27:881,-1.00137,-0.271903,-9.71997,1.85904,-6.33345,-29.4922
2023-03-15 12:05:27:891,-1.04543,-0.242384,-9.73629,1.84692,-6.34758,-29.4504
2023-03-15 12:05:27:901,-1.08192,-0.237212,-9.72872,1.83507,-6.36206,-29.4076
2023-03-15 12:05:27:910,-1.09588,-0.243472,-9.71864,1.82704,-6.37652,-29.3652
2023-03-15 12:05:27:921,-1.09758,-0.252105,-9.69472,1.8204,-6.38915,-29.3209
2023-03-15 12:05:27:931,-1.10983,-0.259307,-9.68206,1.80908,-6.40113,-29.2778
2023-03-15 12:05:27:941,-1.12793,-0.273674,-9.67271,1.80139,-6.41709,-29.2364
2023-03-15 12:05:27:951,-1.14538,-0.276263,-9.67495,1.79366,-6.43422,-29.1989
2023-03-15 12:05:27:961,-1.15222,-0.256435,-9.69153,1.7804,-6.45022,-29.1644
2023-03-15 12:05:27:971,-1.16361,-0.252868,-9.70644,1.76842,-6.46427,-29.134
2023-03-15 12:05:27:981,-1.15789,-0.258734,-9.69803,1.7522,-6.47486,-29.1039
2023-03-15 12:05:27:991,-1.15418,-0.249852,-9.69049,1.73968,-6.48933,-29.0782
2023-03-15 12:05:28:1,-1.15623,-0.244165,-9.69057,1.7251,-6.50276,-29.0552
2023-03-15 12:05:28:10,-1.14679,-0.251796,-9.69323,1.70798,-6.51535,-29.03
2023-03-15 12:05:28:20,-1.14662,-0.228075,-9.68313,1.6912,-6.53034,-29.0102
2023-03-15 12:05:28:30,-1.16446,-0.219107,-9.69422,1.67428,-6.54537,-28.9938
2023-03-15 12:05:28:40,-1.17597,-0.222204,-9.72102,1.65448,-6.55842,-28.9775
2023-03-15 12:05:28:50,-1.1723,-0.19942,-9.75007,1.6364,-6.57117,-28.965
2023-03-15 12:05:28:60,-1.15757,-0.191897,-9.75252,1.61994,-6.58366,-28.9514
2023-03-15 12:05:28:71,-1.13978,-0.196159,-9.78636,1.60788,-6.5925,-28.9382
2023-03-15 12:05:28:81,-1.12323,-0.192786,-9.78615,1.60041,-6.60958,-28.9264
2023-03-15 12:05:28:91,-1.15361,-0.186144,-9.74497,1.59764,-6.62321,-28.9159
2023-03-15 12:05:28:100,-1.16702,-0.214369,-9.70337,1.5987,-6.63424,-28.9041
2023-03-15 12:05:28:111,-1.15124,-0.232976,-9.68421,1.60283,-6.64114,-28.8946
2023-03-15 12:05:28:120,-1.12332,-0.24666,-9.7035,1.60795,-6.64539,-28.8813
2023-03-15 12:05:28:131,-1.10596,-0.261518,-9.72869,1.61192,-6.65078,-28.8667
2023-03-15 12:05:28:141,-1.07585,-0.252036,-9.72767,1.61418,-6.65805,-28.8476
2023-03-15 12:05:28:151,-1.03937,-0.257215,-9.73622,1.61803,-6.66439,-28.8281
2023-03-15 12:05:28:160,-1.03473,-0.270388,-9.72931,1.62614,-6.6701,-28.804
2023-03-15 12:05:28:171,-1.08692,-0.296127,-9.6853,1.63537,-6.68289,-28.7763
2023-03-15 12:05:28:181,-1.14583,-0.331099,-9.63216,1.64192,-6.69843,-28.7456
2023-03-15 12:05:28:191,-1.18459,-0.352643,-9.6168,1.64851,-6.71845,-28.7095
2023-03-15 12:05:28:201,-1.21241,-0.343123,-9.61777,1.65218,-6.73284,-28.6703
2023-03-15 12:05:28:211,-1.21767,-0.329051,-9.61227,1.65047,-6.74422,-28.6329
2023-03-15 12:05:28:221,-1.22237,-0.305206,-9.62833,1.64576,-6.76054,-28.5968
2023-03-15 12:05:28:231,-1.23582,-0.26799,-9.67682,1.63033,-6.76777,-28.5548
2023-03-15 12:05:28:240,-1.23933,-0.22966,-9.7066,1.61615,-6.77614,-28.5123
2023-03-15 12:05:28:251,-1.21287,-0.227229,-9.71509,1.60422,-6.78132,-28.4739
2023-03-15 12:05:28:261,-1.21571,-0.226664,-9.68382,1.5945,-6.78056,-28.4333
2023-03-15 12:05:28:271,-1.24136,-0.232966,-9.68807,1.58682,-6.77756,-28.3925
2023-03-15 12:05:28:280,-1.25684,-0.220194,-9.70484,1.58311,-6.77719,-28.3473
2023-03-15 12:05:28:291,-1.26867,-0.219168,-9.70635,1.58168,-6.77344,-28.309
2023-03-15 12:05:28:301,-1.26038,-0.22778,-9.70095,1.58212,-6.76771,-28.2729
2023-03-15 12:05:28:311,-1.25283,-0.247468,-9.69672,1.58168,-6.75727,-28.2398
2023-03-15 12:05:28:321,-1.23221,-0.267038,-9.69918,1.58271,-6.74936,-28.2077
2023-03-15 12:05:28:331,-1.21701,-0.260325,-9.70295,1.57967,-6.73947,-28.1746
2023-03-15 12:05:28:341,-1.21398,-0.219056,-9.69499,1.57143,-6.73194,-28.1438
2023-03-15 12:05:28:351,-1.20043,-0.19505,-9.71197,1.56523,-6.72339,-28.1159
2023-03-15 12:05:28:361,-1.18588,-0.191592,-9.72244,1.55878,-6.71287,-28.0937
2023-03-15 12:05:28:371,-1.17557,-0.18979,-9.72862,1.5509,-6.70535,-28.0723
2023-03-15 12:05:28:381,-1.1907,-0.182709,-9.72452,1.54861,-6.69341,-28.0541
2023-03-15 12:05:28:390,-1.17695,-0.175927,-9.70855,1.54844,-6.68113,-28.0393
2023-03-15 12:05:28:401,-1.12651,-0.187512,-9.72729,1.551,-6.66974,-28.0296
2023-03-15 12:05:28:411,-1.09949,-0.191215,-9.73088,1.55462,-6.66006,-28.0202
2023-03-15 12:05:28:421,-1.11546,-0.215626,-9.71387,1.56275,-6.65313,-28.01
2023-03-15 12:05:28:431,-1.12816,-0.245707,-9.69476,1.57583,-6.64712,-27.9966
2023-03-15 12:05:28:440,-1.1288,-0.250106,-9.67265,1.58736,-6.64368,-27.9868
2023-03-15 12:05:28:451,-1.15601,-0.263221,-9.67709,1.59554,-6.64103,-27.9763
2023-03-15 12:05:28:461,-1.14783,-0.25314,-9.65994,1.60382,-6.63409,-27.9698
2023-03-15 12:05:28:470,-1.11217,-0.256731,-9.65981,1.61006,-6.62414,-27.9638
2023-03-15 12:05:28:481,-1.08329,-0.268252,-9.67888,1.61407,-6.61846,-27.9562
2023-03-15 12:05:28:491,-1.06984,-0.281226,-9.68804,1.62195,-6.60964,-27.9514
2023-03-15 12:05:28:500,-1.07404,-0.277688,-9.68648,1.6281,-6.60042,-27.9453
2023-03-15 12:05:28:511,-1.06847,-0.285327,-9.67968,1.6341,-6.59139,-27.9373
2023-03-15 12:05:28:520,-1.07242,-0.280182,-9.68778,1.63736,-6.58565,-27.9289
2023-03-15 12:05:28:530,-1.07844,-0.281539,-9.68665,1.64099,-6.57921,-27.9243
2023-03-15 12:05:28:540,-1.09101,-0.283824,-9.68083,1.64544,-6.57428,-27.9153
2023-03-15 12:05:28:550,-1.0809,-0.275608,-9.67652,1.64822,-6.57041,-27.9066
2023-03-15 12:05:28:560,-1.08277,-0.271518,-9.66572,1.6504,-6.5638,-27.899
2023-03-15 12:05:28:570,-1.07293,-0.263251,-9.66514,1.64887,-6.56029,-27.8905
2023-03-15 12:05:28:580,-1.0797,-0.249643,-9.66782,1.64674,-6.55581,-27.8852
2023-03-15 12:05:28:591,-1.07809,-0.248754,-9.68715,1.64084,-6.55187,-27.8824
2023-03-15 12:05:28:600,-1.07371,-0.228164,-9.72057,1.63345,-6.54784,-27.8744
2023-03-15 12:05:28:611,-1.08072,-0.209312,-9.73942,1.62435,-6.5437,-27.8711
2023-03-15 12:05:28:620,-1.09424,-0.204249,-9.74725,1.61455,-6.53817,-27.8698
2023-03-15 12:05:28:630,-1.11887,-0.210485,-9.7438,1.61061,-6.53306,-27.8692
2023-03-15 12:05:28:640,-1.09265,-0.210708,-9.72192,1.60889,-6.5317,-27.8709
2023-03-15 12:05:28:651,-1.07405,-0.223424,-9.71937,1.60766,-6.52884,-27.8679
2023-03-15 12:05:28:661,-1.08085,-0.232981,-9.71082,1.60998,-6.52571,-27.8686
2023-03-15 12:05:28:670,-1.10971,-0.232493,-9.6977,1.61025,-6.52307,-27.8652
2023-03-15 12:05:28:681,-1.10936,-0.233848,-9.70702,1.61327,-6.51724,-27.8651
2023-03-15 12:05:28:691,-1.10276,-0.233755,-9.72632,1.61534,-6.51236,-27.8653
2023-03-15 12:05:28:701,-1.09763,-0.219355,-9.71671,1.61599,-6.50902,-27.8691
2023-03-15 12:05:28:711,-1.08566,-0.233403,-9.70918,1.62084,-6.50494,-27.8696
2023-03-15 12:05:28:721,-1.07273,-0.267375,-9.70745,1.62546,-6.50102,-27.8749
2023-03-15 12:05:28:730,-1.09229,-0.264899,-9.69727,1.63251,-6.49763,-27.878
2023-03-15 12:05:28:741,-1.07824,-0.273386,-9.6858,1.63608,-6.49208,-27.8819
2023-03-15 12:05:28:751,-1.07057,-0.282632,-9.69005,1.63495,-6.48506,-27.8826
2023-03-15 12:05:28:761,-1.0464,-0.271272,-9.68394,1.63806,-6.47698,-27.8867
2023-03-15 12:05:28:771,-1.04425,-0.267418,-9.67279,1.6401,-6.4699,-27.8852
2023-03-15 12:05:28:781,-1.05061,-0.263144,-9.69011,1.64012,-6.45978,-27.8843
2023-03-15 12:05:28:791,-1.02479,-0.265854,-9.67941,1.63997,-6.45419,-27.8817
2023-03-15 12:05:28:801,-1.02686,-0.278991,-9.68825,1.63993,-6.44984,-27.8811
2023-03-15 12:05:28:811,-1.03169,-0.260291,-9.70558,1.63697,-6.44586,-27.8783
2023-03-15 12:05:28:821,-1.02343,-0.232728,-9.72925,1.63121,-6.44259,-27.8746
2023-03-15 12:05:28:831,-1.02613,-0.230689,-9.74482,1.62519,-6.4411,-27.8714
2023-03-15 12:05:28:841,-1.04488,-0.22715,-9.73207,1.61896,-6.4366,-27.8627
2023-03-15 12:05:28:850,-1.04906,-0.219257,-9.75836,1.61829,-6.43248,-27.8569
2023-03-15 12:05:28:860,-1.03548,-0.2283,-9.76697,1.6174,-6.42889,-27.8511
2023-03-15 12:05:28:871,-1.05819,-0.230425,-9.74052,1.62327,-6.42687,-27.8431
2023-03-15 12:05:28:881,-1.10822,-0.234311,-9.70077,1.63304,-6.42957,-27.8339
2023-03-15 12:05:28:891,-1.13418,-0.252768,-9.67087,1.64065,-6.42774,-27.8257
2023-03-15 12:05:28:901,-1.13574,-0.266749,-9.65407,1.65039,-6.4215,-27.8195
2023-03-15 12:05:28:911,-1.08659,-0.288269,-9.69213,1.66035,-6.40953,-27.81
2023-03-15 12:05:28:921,-1.03803,-0.324006,-9.70259,1.6715,-6.39714,-27.8004
2023-03-15 12:05:28:931,-1.00486,-0.328979,-9.71518,1.68149,-6.38762,-27.7908
2023-03-15 12:05:28:941,-0.978758,-0.290606,-9.752,1.68426,-6.37859,-27.7767
2023-03-15 12:05:28:951,-1.00573,-0.251297,-9.76725,1.68702,-6.37607,-27.7612
2023-03-15 12:05:28:960,-1.04851,-0.253559,-9.74643,1.6912,-6.37732,-27.7471
2023-03-15 12:05:28:971,-1.08487,-0.298319,-9.68576,1.70021,-6.38465,-27.7345
2023-03-15 12:05:28:981,-1.116,-0.318983,-9.65011,1.70929,-6.39174,-27.7211
2023-03-15 12:05:28:991,-1.14269,-0.302198,-9.64481,1.71641,-6.39293,-27.7074
2023-03-15 12:05:29:1,-1.12712,-0.27916,-9.65207,1.71927,-6.3976,-27.6954
2023-03-15 12:05:29:11,-1.09675,-0.262492,-9.68647,1.71777,-6.39169,-27.6885
2023-03-15 12:05:29:21,-1.05805,-0.246489,-9.71309,1.71541,-6.38633,-27.6787
2023-03-15 12:05:29:30,-1.03091,-0.228068,-9.72701,1.71187,-6.38142,-27.6693
2023-03-15 12:05:29:40,-1.03044,-0.210405,-9.74456,1.70601,-6.37768,-27.6559
2023-03-15 12:05:29:50,-1.05395,-0.194475,-9.74617,1.70101,-6.37738,-27.6452
2023-03-15 12:05:29:60,-1.08286,-0.187985,-9.73511,1.70217,-6.37729,-27.631
2023-03-15 12:05:29:70,-1.08956,-0.205515,-9.74121,1.70503,-6.37516,-27.6202
2023-03-15 12:05:29:81,-1.0555,-0.2233,-9.75226,1.71164,-6.37102,-27.6118
2023-03-15 12:05:29:91,-1.02006,-0.225975,-9.75765,1.71954,-6.36823,-27.6025
2023-03-15 12:05:29:100,-1.02108,-0.227736,-9.76777,1.73115,-6.3665,-27.5953
2023-03-15 12:05:29:111,-1.00812,-0.221908,-9.79245,1.74393,-6.36217,-27.5794
2023-03-15 12:05:29:121,-0.972017,-0.256032,-9.78008,1.76802,-6.35997,-27.5694
2023-03-15 12:05:29:131,-0.969871,-0.288218,-9.72312,1.79109,-6.35915,-27.5539
2023-03-15 12:05:29:141,-0.976877,-0.29572,-9.68755,1.81487,-6.35908,-27.5331
2023-03-15 12:05:29:150,-0.995268,-0.316511,-9.69017,1.83509,-6.36296,-27.5122
2023-03-15 12:05:29:160,-1.00853,-0.318356,-9.67891,1.85095,-6.37188,-27.4881
2023-03-15 12:05:29:170,-1.06017,-0.310157,-9.6733,1.86116,-6.37944,-27.4606
2023-03-15 12:05:29:181,-1.08821,-0.301991,-9.67329,1.87526,-6.38528,-27.4319
2023-03-15 12:05:29:191,-1.05506,-0.295599,-9.68811,1.8837,-6.38762,-27.4034
2023-03-15 12:05:29:200,-1.03871,-0.308245,-9.7073,1.89183,-6.39213,-27.3726
2023-03-15 12:05:29:211,-1.08009,-0.326536,-9.70604,1.9032,-6.39536,-27.3406
2023-03-15 12:05:29:220,-1.12833,-0.332911,-9.69844,1.91868,-6.40593,-27.3073
2023-03-15 12:05:29:231,-1.16202,-0.323151,-9.68881,1.93262,-6.41455,-27.2775
2023-03-15 12:05:29:241,-1.18188,-0.315178,-9.69351,1.94172,-6.4166,-27.245
2023-03-15 12:05:29:251,-1.19204,-0.297772,-9.69154,1.9499,-6.41449,-27.2189
2023-03-15 12:05:29:261,-1.18759,-0.304918,-9.67256,1.95926,-6.41682,-27.1967
2023-03-15 12:05:29:271,-1.15362,-0.322288,-9.66099,1.96798,-6.41688,-27.1752
2023-03-15 12:05:29:280,-1.12096,-0.326864,-9.65327,1.975,-6.41655,-27.1547
2023-03-15 12:05:29:290,-1.1146,-0.346859,-9.637,1.98155,-6.41635,-27.1367
2023-03-15 12:05:29:300,-1.11647,-0.34954,-9.63129,1.98362,-6.4151,-27.1195
2023-03-15 12:05:29:310,-1.12111,-0.332499,-9.64569,1.98323,-6.41471,-27.1031
2023-03-15 12:05:29:320,-1.13552,-0.303894,-9.68821,1.97599,-6.41648,-27.0899
2023-03-15 12:05:29:330,-1.11143,-0.276034,-9.71514,1.96696,-6.41999,-27.082
2023-03-15 12:05:29:340,-1.10825,-0.256648,-9.75902,1.95532,-6.42158,-27.0777
2023-03-15 12:05:29:350,-1.09607,-0.24515,-9.77632,1.94868,-6.42452,-27.0772
2023-03-15 12:05:29:360,-1.08839,-0.241875,-9.75719,1.94818,-6.42787,-27.0778
2023-03-15 12:05:29:371,-1.06186,-0.270174,-9.72737,1.95114,-6.43061,-27.0769
2023-03-15 12:05:29:381,-1.04986,-0.300323,-9.7185,1.9562,-6.43153,-27.0779
2023-03-15 12:05:29:391,-1.03342,-0.318664,-9.70697,1.96312,-6.4393,-27.0715
2023-03-15 12:05:29:400,-1.03102,-0.333031,-9.67828,1.97442,-6.44404,-27.0638
2023-03-15 12:05:29:411,-1.03677,-0.337826,-9.67601,1.98094,-6.44339,-27.0503
2023-03-15 12:05:29:421,-1.02842,-0.33938,-9.71155,1.99087,-6.44346,-27.0326
2023-03-15 12:05:29:431,-1.0059,-0.369051,-9.68274,2.00208,-6.44351,-27.0134
2023-03-15 12:05:29:441,-1.01183,-0.388702,-9.65223,2.01416,-6.44539,-26.9907
2023-03-15 12:05:29:451,-1.04587,-0.36897,-9.67007,2.01883,-6.44342,-26.9633
2023-03-15 12:05:29:461,-1.07625,-0.334371,-9.69339,2.01628,-6.44373,-26.9354
2023-03-15 12:05:29:471,-1.07943,-0.319569,-9.70722,2.01604,-6.44547,-26.9075
2023-03-15 12:05:29:480,-1.10256,-0.330927,-9.70271,2.02032,-6.45042,-26.881
2023-03-15 12:05:29:491,-1.12239,-0.328722,-9.68563,2.02374,-6.45213,-26.8539
2023-03-15 12:05:29:501,-1.1282,-0.341391,-9.66521,2.02645,-6.45392,-26.8358
2023-03-15 12:05:29:511,-1.15144,-0.344623,-9.64637,2.03132,-6.45415,-26.8136
2023-03-15 12:05:29:521,-1.15972,-0.360912,-9.6475,2.03549,-6.45913,-26.7971
2023-03-15 12:05:29:531,-1.15807,-0.372085,-9.66182,2.03295,-6.46465,-26.7802
2023-03-15 12:05:29:540,-1.15215,-0.380437,-9.67426,2.02991,-6.47021,-26.7717
2023-03-15 12:05:29:550,-1.14794,-0.360801,-9.67562,2.02474,-6.47491,-26.7646
2023-03-15 12:05:29:561,-1.15162,-0.355946,-9.67998,2.01883,-6.48109,-26.7609
2023-03-15 12:05:29:570,-1.14404,-0.367063,-9.6874,2.01075,-6.49243,-26.758
2023-03-15 12:05:29:581,-1.14083,-0.362557,-9.6954,2.00439,-6.49615,-26.759
2023-03-15 12:05:29:591,-1.13486,-0.330502,-9.70789,1.99516,-6.4979,-26.7591
2023-03-15 12:05:29:601,-1.1223,-0.327104,-9.7254,1.98876,-6.49926,-26.7595
2023-03-15 12:05:29:611,-1.09439,-0.330316,-9.71715,1.985,-6.49799,-26.763
2023-03-15 12:05:29:621,-1.08738,-0.34651,-9.70748,1.98356,-6.49324,-26.7664
2023-03-15 12:05:29:631,-1.07294,-0.353315,-9.69657,1.97873,-6.4941,-26.7682
2023-03-15 12:05:29:641,-1.0565,-0.349315,-9.68808,1.97652,-6.49,-26.7692
2023-03-15 12:05:29:651,-1.05573,-0.342733,-9.68739,1.97075,-6.484,-26.7661
2023-03-15 12:05:29:660,-1.05913,-0.34107,-9.69994,1.96167,-6.48197,-26.7615
2023-03-15 12:05:29:671,-1.04802,-0.32469,-9.71815,1.9557,-6.48101,-26.7587
2023-03-15 12:05:29:681,-1.03393,-0.302323,-9.72953,1.94777,-6.47608,-26.7528
2023-03-15 12:05:29:691,-1.02001,-0.285355,-9.7236,1.93969,-6.4763,-26.7468
2023-03-15 12:05:29:701,-1.03507,-0.286111,-9.70639,1.93401,-6.47585,-26.7407
2023-03-15 12:05:29:711,-1.04374,-0.297294,-9.68019,1.9315,-6.47572,-26.7358
2023-03-15 12:05:29:721,-1.05497,-0.295101,-9.67538,1.92432,-6.47482,-26.7298
2023-03-15 12:05:29:731,-1.08539,-0.27836,-9.69612,1.91856,-6.47611,-26.7211
2023-03-15 12:05:29:741,-1.10558,-0.243945,-9.75418,1.90389,-6.47464,-26.7124
2023-03-15 12:05:29:751,-1.11896,-0.196728,-9.78521,1.88788,-6.47725,-26.707
2023-03-15 12:05:29:761,-1.13334,-0.178815,-9.81086,1.87729,-6.47902,-26.7033
2023-03-15 12:05:29:771,-1.13025,-0.155885,-9.83146,1.87131,-6.482,-26.7023
2023-03-15 12:05:29:781,-1.12323,-0.13456,-9.85274,1.87027,-6.48644,-26.7029
2023-03-15 12:05:29:791,-1.13265,-0.110806,-9.8905,1.87674,-6.48829,-26.7053
2023-03-15 12:05:29:801,-1.17813,-0.0574878,-9.95975,1.88823,-6.49837,-26.711
2023-03-15 12:05:29:811,-1.27108,0.0110048,-10.0952,1.8999,-6.5117,-26.7245
2023-03-15 12:05:29:821,-1.42645,0.175147,-10.175,1.92658,-6.5334,-26.7583
2023-03-15 12:05:29:831,-1.55778,0.22449,-10.1323,1.97669,-6.56723,-26.8198
2023-03-15 12:05:29:841,-1.58255,0.137065,-10.0526,2.07151,-6.6024,-26.9103
2023-03-15 12:05:29:851,-1.49568,0.0288049,-9.97911,2.20124,-6.62157,-27.0198
2023-03-15 12:05:29:861,-1.39234,-0.159122,-9.8098,2.36029,-6.63948,-27.1484
2023-03-15 12:05:29:871,-1.34469,-0.328473,-9.63041,2.53207,-6.66036,-27.2822
2023-03-15 12:05:29:881,-1.31906,-0.438336,-9.55288,2.69773,-6.6869,-27.4273
2023-03-15 12:05:29:890,-1.33039,-0.438891,-9.562,2.84861,-6.7145,-27.5796
2023-03-15 12:05:29:900,-1.35318,-0.393573,-9.68178,2.97847,-6.74556,-27.7414
2023-03-15 12:05:29:911,-1.39577,-0.263927,-9.89567,3.09711,-6.77854,-27.9202
2023-03-15 12:05:29:921,-1.40084,-0.121142,-10.0706,3.21465,-6.81305,-28.1221
2023-03-15 12:05:29:931,-1.35839,-0.115823,-10.1007,3.3628,-6.84574,-28.339
2023-03-15 12:05:29:941,-1.29173,-0.237816,-9.98745,3.54913,-6.87362,-28.5692
2023-03-15 12:05:29:951,-1.22925,-0.420762,-9.81497,3.77122,-6.89767,-28.7987
2023-03-15 12:05:29:961,-1.22961,-0.577878,-9.63677,4.00316,-6.91257,-29.0197
2023-03-15 12:05:29:971,-1.28621,-0.696652,-9.51442,4.23462,-6.92474,-29.2431
2023-03-15 12:05:29:981,-1.33214,-0.803688,-9.42025,4.45805,-6.94085,-29.4679
2023-03-15 12:05:29:991,-1.34481,-0.870196,-9.3736,4.65921,-6.94989,-29.6926
2023-03-15 12:05:30:1,-1.33661,-0.893752,-9.38298,4.84445,-6.95533,-29.9173
2023-03-15 12:05:30:11,-1.30976,-0.899499,-9.41196,5.00579,-6.95454,-30.1445
2023-03-15 12:05:30:21,-1.34347,-0.908483,-9.43161,5.14549,-6.9502,-30.3782
2023-03-15 12:05:30:31,-1.42518,-0.929086,-9.42636,5.27682,-6.9464,-30.6147
2023-03-15 12:05:30:40,-1.39513,-0.933308,-9.45578,5.39145,-6.92933,-30.8555
2023-03-15 12:05:30:50,-1.28132,-0.94278,-9.48443,5.50311,-6.90492,-31.1033
2023-03-15 12:05:30:60,-1.20239,-0.973381,-9.47398,5.613,-6.87023,-31.3513
2023-03-15 12:05:30:71,-1.14726,-1.04251,-9.4496,5.72545,-6.82504,-31.5932
2023-03-15 12:05:30:81,-1.07888,-1.10304,-9.42226,5.83455,-6.77779,-31.834
2023-03-15 12:05:30:91,-0.990693,-1.17209,-9.40969,5.93355,-6.72769,-32.0621
2023-03-15 12:05:30:101,-0.934146,-1.22458,-9.39936,6.01752,-6.67674,-32.2801
2023-03-15 12:05:30:111,-0.902312,-1.25781,-9.38573,6.08614,-6.62413,-32.4837
2023-03-15 12:05:30:121,-0.882583,-1.28205,-9.38021,6.1366,-6.57121,-32.6742
2023-03-15 12:05:30:131,-0.832466,-1.29711,-9.39234,6.1726,-6.51725,-32.8521
2023-03-15 12:05:30:141,-0.778993,-1.29138,-9.42141,6.18965,-6.46551,-33.0218
2023-03-15 12:05:30:151,-0.73942,-1.25725,-9.45698,6.18887,-6.41355,-33.1696
2023-03-15 12:05:30:161,-0.729353,-1.21636,-9.51969,6.17225,-6.36007,-33.3036
2023-03-15 12:05:30:171,-0.747941,-1.1658,-9.55416,6.14674,-6.30742,-33.4192
2023-03-15 12:05:30:180,-0.735492,-1.1347,-9.58561,6.11797,-6.25555,-33.5287
2023-03-15 12:05:30:190,-0.701225,-1.10846,-9.60599,6.08746,-6.20108,-33.6202
2023-03-15 12:05:30:201,-0.618105,-1.1159,-9.62881,6.05496,-6.14808,-33.6984
2023-03-15 12:05:30:211,-0.581241,-1.11813,-9.65977,6.02026,-6.0931,-33.7561
2023-03-15 12:05:30:221,-0.619156,-1.08832,-9.64971,5.98308,-6.05004,-33.7942
2023-03-15 12:05:30:231,-0.6632,-1.07574,-9.65719,5.94363,-6.01119,-33.822
2023-03-15 12:05:30:241,-0.706365,-1.04937,-9.69753,5.89891,-5.97631,-33.8359
2023-03-15 12:05:30:251,-0.760965,-0.994636,-9.74893,5.84639,-5.93847,-33.8368
2023-03-15 12:05:30:261,-0.798843,-0.941901,-9.76957,5.8019,-5.90282,-33.8346
2023-03-15 12:05:30:271,-0.802838,-0.933961,-9.75886,5.76847,-5.86748,-33.8278
2023-03-15 12:05:30:281,-0.798614,-0.965361,-9.73521,5.74065,-5.83491,-33.8187
2023-03-15 12:05:30:291,-0.789557,-0.997088,-9.70179,5.72126,-5.79867,-33.8
2023-03-15 12:05:30:301,-0.811403,-1.01809,-9.64879,5.70453,-5.76812,-33.781
2023-03-15 12:05:30:311,-0.84983,-1.02817,-9.62294,5.68756,-5.7429,-33.7584
2023-03-15 12:05:30:321,-0.892,-1.04387,-9.62899,5.66721,-5.72048,-33.7383
2023-03-15 12:05:30:331,-0.898998,-1.01201,-9.64499,5.63967,-5.70899,-33.7196
2023-03-15 12:05:30:341,-0.918289,-0.974992,-9.66721,5.6108,-5.69727,-33.7085
2023-03-15 12:05:30:351,-0.965897,-0.953242,-9.69287,5.57681,-5.69207,-33.6993
2023-03-15 12:05:30:361,-0.980991,-0.943057,-9.70161,5.54621,-5.69227,-33.6958
2023-03-15 12:05:30:371,-0.987822,-0.932655,-9.70402,5.51545,-5.69113,-33.6918
2023-03-15 12:05:30:381,-0.992964,-0.934581,-9.7038,5.48476,-5.69296,-33.6997
2023-03-15 12:05:30:391,-0.987662,-0.924507,-9.69709,5.45551,-5.69505,-33.7073
2023-03-15 12:05:30:401,-0.965619,-0.935204,-9.69353,5.42934,-5.69516,-33.7141
2023-03-15 12:05:30:411,-0.942931,-0.940194,-9.69752,5.40595,-5.69577,-33.7255
2023-03-15 12:05:30:421,-0.967262,-0.926854,-9.70229,5.3782,-5.69824,-33.7337
2023-03-15 12:05:30:431,-1.00914,-0.910078,-9.71784,5.35137,-5.70136,-33.7441
2023-03-15 12:05:30:440,-1.06904,-0.887079,-9.69494,5.32953,-5.70154,-33.7576
2023-03-15 12:05:30:451,-1.11887,-0.892235,-9.68458,5.31212,-5.7015,-33.7786
2023-03-15 12:05:30:461,-1.14671,-0.90394,-9.66288,5.29755,-5.70366,-33.8092
2023-03-15 12:05:30:471,-1.19941,-0.902521,-9.63191,5.28332,-5.70674,-33.8475
2023-03-15 12:05:30:481,-1.27852,-0.92318,-9.61345,5.26636,-5.70555,-33.8968
2023-03-15 12:05:30:491,-1.32574,-0.925142,-9.61595,5.25006,-5.70452,-33.9596
2023-03-15 12:05:30:501,-1.39891,-0.910311,-9.62192,5.22486,-5.70273,-34.0405
2023-03-15 12:05:30:511,-1.56086,-0.881169,-9.62792,5.19639,-5.70325,-34.1461
2023-03-15 12:05:30:521,-1.78683,-0.801279,-9.59983,5.16136,-5.70696,-34.2871
2023-03-15 12:05:30:531,-1.96149,-0.767606,-9.57927,5.12602,-5.7207,-34.4833
2023-03-15 12:05:30:540,-1.99941,-0.732586,-9.60981,5.08847,-5.73885,-34.7423
2023-03-15 12:05:30:550,-2.06334,-0.661308,-9.64691,5.04543,-5.76357,-35.0629
2023-03-15 12:05:30:560,-2.16678,-0.640216,-9.61916,5.00746,-5.80278,-35.4598
2023-03-15 12:05:30:571,-2.23045,-0.673118,-9.578,4.97813,-5.8625,-35.9406
2023-03-15 12:05:30:581,-2.16594,-0.668084,-9.60491,4.95381,-5.93388,-36.4977
2023-03-15 12:05:30:591,-2.06907,-0.662922,-9.60628,4.93113,-6.00992,-37.1283
2023-03-15 12:05:30:601,-2.15111,-0.630259,-9.54569,4.90914,-6.10867,-37.8314
2023-03-15 12:05:30:611,-2.31938,-0.616216,-9.49271,4.88811,-6.22193,-38.6093
2023-03-15 12:05:30:621,-2.31885,-0.581969,-9.51172,4.85799,-6.34613,-39.4692
2023-03-15 12:05:30:631,-2.0896,-0.531628,-9.61848,4.82326,-6.47531,-40.4026
2023-03-15 12:05:30:641,-1.81504,-0.46832,-9.72027,4.78883,-6.6063,-41.3939
2023-03-15 12:05:30:651,-1.68129,-0.407946,-9.78957,4.76036,-6.7336,-42.4223
2023-03-15 12:05:30:661,-1.6817,-0.3731,-9.79315,4.74946,-6.86974,-43.4879
2023-03-15 12:05:30:671,-1.67348,-0.400553,-9.71551,4.7537,-7.0154,-44.5958
2023-03-15 12:05:30:681,-1.65766,-0.459995,-9.6382,4.77017,-7.16843,-45.7406
2023-03-15 12:05:30:691,-1.59741,-0.468251,-9.62086,4.78632,-7.31942,-46.9162
2023-03-15 12:05:30:701,-1.4762,-0.461264,-9.65721,4.8042,-7.46645,-48.1048
2023-03-15 12:05:30:711,-1.34075,-0.480159,-9.67192,4.82473,-7.61018,-49.3097
2023-03-15 12:05:30:721,-1.27522,-0.512335,-9.6584,4.85189,-7.7459,-50.5097
2023-03-15 12:05:30:731,-1.31437,-0.559033,-9.63016,4.8799,-7.87552,-51.707
2023-03-15 12:05:30:741,-1.24032,-0.586818,-9.62406,4.90801,-7.99553,-52.9028
2023-03-15 12:05:30:751,-1.03501,-0.59958,-9.64781,4.93171,-8.10602,-54.0856
2023-03-15 12:05:30:761,-0.830543,-0.638121,-9.69812,4.9591,-8.20256,-55.2384
2023-03-15 12:05:30:771,-0.682036,-0.660197,-9.69006,4.98231,-8.29233,-56.3493
2023-03-15 12:05:30:781,-0.631641,-0.688103,-9.64173,5.01131,-8.37425,-57.4186
2023-03-15 12:05:30:791,-0.792481,-0.754449,-9.5869,5.03888,-8.45505,-58.4398
2023-03-15 12:05:30:801,-1.00875,-0.772192,-9.5262,5.05629,-8.53002,-59.4274
2023-03-15 12:05:30:811,-1.0177,-0.743109,-9.54857,5.05323,-8.59638,-60.3865
2023-03-15 12:05:30:821,-0.887041,-0.726411,-9.6672,5.03551,-8.6449,-61.304
2023-03-15 12:05:30:831,-0.7437,-0.697583,-9.80396,5.0097,-8.67547,-62.1724
2023-03-15 12:05:30:841,-0.622325,-0.675369,-9.88244,4.98685,-8.69103,-62.9923
2023-03-15 12:05:30:851,-0.480095,-0.705288,-9.90284,4.97624,-8.69795,-63.7578
2023-03-15 12:05:30:861,-0.362281,-0.752092,-9.86634,4.98013,-8.69125,-64.4579
2023-03-15 12:05:30:871,-0.343957,-0.811856,-9.81016,4.99364,-8.67112,-65.0849
2023-03-15 12:05:30:881,-0.3778,-0.843601,-9.73547,5.0071,-8.65059,-65.6514
2023-03-15 12:05:30:891,-0.476895,-0.854367,-9.68057,5.01663,-8.62458,-66.1623
2023-03-15 12:05:30:901,-0.624862,-0.835042,-9.65089,5.01143,-8.60051,-66.6212
2023-03-15 12:05:30:911,-0.74816,-0.833583,-9.67315,4.99824,-8.58269,-67.0386
2023-03-15 12:05:30:921,-0.807954,-0.802287,-9.71755,4.97432,-8.55605,-67.4204
2023-03-15 12:05:30:931,-0.79199,-0.761515,-9.7538,4.94293,-8.53118,-67.7709
2023-03-15 12:05:30:941,-0.762143,-0.748518,-9.78542,4.91311,-8.49769,-68.0907
2023-03-15 12:05:30:951,-0.774539,-0.72651,-9.80034,4.89084,-8.46561,-68.3757
2023-03-15 12:05:30:961,-0.896179,-0.728536,-9.78574,4.8693,-8.44898,-68.6346
2023-03-15 12:05:30:971,-1.07698,-0.740301,-9.74168,4.85533,-8.44802,-68.881
2023-03-15 12:05:30:981,-1.22343,-0.758721,-9.66864,4.84148,-8.45778,-69.1198
2023-03-15 12:05:30:991,-1.31746,-0.776257,-9.61905,4.82694,-8.46831,-69.3553
2023-03-15 12:05:31:1,-1.34649,-0.788996,-9.57486,4.81001,-8.48262,-69.5896
2023-03-15 12:05:31:11,-1.35003,-0.806107,-9.56889,4.78879,-8.49608,-69.8146
2023-03-15 12:05:31:21,-1.35797,-0.819793,-9.55543,4.76946,-8.51028,-70.0393
2023-03-15 12:05:31:31,-1.33334,-0.818122,-9.51706,4.7422,-8.52318,-70.2569
2023-03-15 12:05:31:40,-1.31726,-0.839982,-9.49335,4.71106,-8.53685,-70.4659
2023-03-15 12:05:31:50,-1.35895,-0.857272,-9.46718,4.67468,-8.55265,-70.666
2023-03-15 12:05:31:61,-1.40679,-0.858328,-9.44558,4.63308,-8.56831,-70.864
2023-03-15 12:05:31:71,-1.50596,-0.85249,-9.46235,4.58182,-8.58606,-71.0548
2023-03-15 12:05:31:81,-1.71812,-0.841864,-9.44233,4.52478,-8.60663,-71.2462
2023-03-15 12:05:31:91,-1.89641,-0.828622,-9.44064,4.45155,-8.62301,-71.4504
2023-03-15 12:05:31:101,-1.92147,-0.804171,-9.48091,4.37141,-8.63238,-71.668
2023-03-15 12:05:31:111,-1.80132,-0.768748,-9.55149,4.28572,-8.6257,-71.8922
2023-03-15 12:05:31:121,-1.60317,-0.771439,-9.59977,4.20068,-8.61013,-72.1187
2023-03-15 12:05:31:131,-1.51648,-0.805882,-9.48672,4.11751,-8.59951,-72.3451
2023-03-15 12:05:31:141,-1.50237,-0.77027,-9.48558,4.0266,-8.59233,-72.5633
2023-03-15 12:05:31:151,-1.48319,-0.733428,-9.49157,3.92063,-8.57629,-72.781
2023-03-15 12:05:31:161,-1.58462,-0.681011,-9.5079,3.80992,-8.56215,-72.9996
2023-03-15 12:05:31:171,-1.65017,-0.608872,-9.56845,3.69055,-8.54675,-73.2253
2023-03-15 12:05:31:181,-1.65422,-0.605586,-9.56785,3.57094,-8.52975,-73.4547
2023-03-15 12:05:31:191,-1.66926,-0.549134,-9.57576,3.44848,-8.50765,-73.6862
2023-03-15 12:05:31:200,-1.55487,-0.508505,-9.65743,3.32407,-8.47606,-73.9239
2023-03-15 12:05:31:210,-1.4029,-0.505995,-9.70407,3.20051,-8.44653,-74.1606
2023-03-15 12:05:31:220,-1.30031,-0.477033,-9.72784,3.07904,-8.4167,-74.3897
2023-03-15 12:05:31:231,-1.30662,-0.417387,-9.74844,2.95343,-8.39154,-74.6035
2023-03-15 12:05:31:241,-1.35117,-0.371429,-9.76371,2.82972,-8.3741,-74.8173
2023-03-15 12:05:31:251,-1.35128,-0.305971,-9.81053,2.71207,-8.36112,-75.0262
2023-03-15 12:05:31:261,-1.32737,-0.236011,-9.85675,2.59776,-8.34906,-75.2386
2023-03-15 12:05:31:271,-1.28983,-0.183676,-9.90244,2.48894,-8.33567,-75.4417
2023-03-15 12:05:31:281,-1.22436,-0.151317,-9.95125,2.39793,-8.31689,-75.6375
2023-03-15 12:05:31:291,-1.07685,-0.152533,-9.97242,2.32706,-8.28652,-75.8182
2023-03-15 12:05:31:301,-0.937542,-0.225681,-9.89121,2.275,-8.25349,-75.9747
2023-03-15 12:05:31:311,-0.852876,-0.289846,-9.80665,2.23488,-8.22534,-76.1128
2023-03-15 12:05:31:321,-0.837766,-0.296052,-9.79111,2.19985,-8.19832,-76.2225
2023-03-15 12:05:31:331,-0.901691,-0.278249,-9.80757,2.1579,-8.17886,-76.3095
2023-03-15 12:05:31:341,-1.00594,-0.227829,-9.83344,2.11346,-8.16604,-76.3804
2023-03-15 12:05:31:351,-1.09564,-0.170858,-9.85316,2.07156,-8.15528,-76.4338
2023-03-15 12:05:31:361,-1.15071,-0.167722,-9.85868,2.03926,-8.13795,-76.4773
2023-03-15 12:05:31:371,-1.15659,-0.214422,-9.81206,2.01979,-8.11988,-76.5063
2023-03-15 12:05:31:381,-1.06203,-0.265518,-9.75882,2.0103,-8.09512,-76.526
2023-03-15 12:05:31:391,-0.953261,-0.317214,-9.73242,2.00375,-8.05951,-76.5183
2023-03-15 12:05:31:401,-0.894156,-0.344858,-9.70295,1.99638,-8.01288,-76.4799
2023-03-15 12:05:31:411,-0.934771,-0.345276,-9.69214,1.99044,-7.95936,-76.4124
2023-03-15 12:05:31:421,-0.980961,-0.325542,-9.71131,1.97439,-7.8991,-76.3135
2023-03-15 12:05:31:431,-0.943649,-0.308858,-9.77426,1.95203,-7.83105,-76.1906
2023-03-15 12:05:31:441,-0.821872,-0.260995,-9.86366,1.92981,-7.74827,-76.034
2023-03-15 12:05:31:451,-0.657799,-0.232806,-9.95973,1.91137,-7.65101,-75.8279
2023-03-15 12:05:31:461,-0.485056,-0.217347,-9.99216,1.90473,-7.54071,-75.5737
2023-03-15 12:05:31:471,-0.33552,-0.273793,-9.97063,1.91578,-7.40929,-75.2578
2023-03-15 12:05:31:481,-0.149714,-0.298032,-9.92245,1.93251,-7.26235,-74.875
2023-03-15 12:05:31:491,0.0964758,-0.268477,-9.95073,1.95268,-7.09064,-74.4082
2023-03-15 12:05:31:501,0.273741,-0.25227,-10.0008,1.97397,-6.89765,-73.8514
2023-03-15 12:05:31:511,0.3098,-0.23787,-10.0068,2.00325,-6.69014,-73.2012
2023-03-15 12:05:31:521,0.212956,-0.184186,-9.9738,2.03628,-6.47877,-72.464
2023-03-15 12:05:31:531,0.0639278,-0.117218,-9.98273,2.06898,-6.26284,-71.6539
2023-03-15 12:05:31:540,-0.0114605,-0.0490669,-10.0602,2.10244,-6.04066,-70.7865
2023-03-15 12:05:31:550,0.0148624,0.0627425,-10.1484,2.14031,-5.81208,-69.8574
2023-03-15 12:05:31:561,0.0421442,0.167693,-10.2215,2.19148,-5.57269,-68.8655
2023-03-15 12:05:31:570,-0.0232595,0.236455,-10.2202,2.27413,-5.32669,-67.8131
2023-03-15 12:05:31:580,-0.232012,0.228613,-10.1132,2.3933,-5.07984,-66.7066
2023-03-15 12:05:31:591,-0.474719,0.156569,-9.92996,2.54459,-4.83823,-65.5714
2023-03-15 12:05:31:601,-0.686782,0.0654115,-9.76368,2.7088,-4.60126,-64.4169
2023-03-15 12:05:31:611,-0.810477,0.00400084,-9.68393,2.87219,-4.37072,-63.2585
2023-03-15 12:05:31:621,-0.767232,-0.00716192,-9.74057,3.02487,-4.14441,-62.095
2023-03-15 12:05:31:631,-0.653042,0.0251771,-9.84693,3.16488,-3.92371,-60.9287
2023-03-15 12:05:31:641,-0.69944,0.0408846,-9.86559,3.30966,-3.71684,-59.7527
2023-03-15 12:05:31:651,-0.930694,-0.00723488,-9.83397,3.46682,-3.51863,-58.5754
2023-03-15 12:05:31:661,-1.26051,0.0313119,-9.7236,3.62788,-3.33985,-57.42
2023-03-15 12:05:31:671,-1.55923,-0.00959995,-9.59635,3.78426,-3.17805,-56.31
2023-03-15 12:05:31:681,-1.63079,-0.126551,-9.51744,3.93675,-3.04117,-55.2796
2023-03-15 12:05:31:691,-1.42733,-0.212556,-9.52659,4.07167,-2.93305,-54.3213
2023-03-15 12:05:31:701,-1.07483,-0.317296,-9.55174,4.19238,-2.85419,-53.4286
2023-03-15 12:05:31:710,-0.857594,-0.407445,-9.51752,4.29375,-2.81491,-52.5858
2023-03-15 12:05:31:721,-0.949192,-0.529725,-9.40136,4.37306,-2.82713,-51.7905
2023-03-15 12:05:31:730,-1.27821,-0.64942,-9.22706,4.42989,-2.8867,-51.0378
2023-03-15 12:05:31:741,-1.55762,-0.733974,-9.10427,4.44956,-2.97871,-50.3451
2023-03-15 12:05:31:751,-1.64863,-0.766089,-9.1159,4.42625,-3.07735,-49.7042
2023-03-15 12:05:31:761,-1.58034,-0.713232,-9.28876,4.35916,-3.16241,-49.1152
2023-03-15 12:05:31:771,-1.52112,-0.586875,-9.53958,4.26073,-3.23277,-48.5666
2023-03-15 12:05:31:781,-1.56944,-0.407501,-9.77061,4.14636,-3.29265,-48.0621
2023-03-15 12:05:31:791,-1.68913,-0.285167,-9.9193,4.03835,-3.35686,-47.6131
2023-03-15 12:05:31:801,-1.73939,-0.251252,-9.97831,3.95656,-3.42803,-47.229
2023-03-15 12:05:31:811,-1.68586,-0.302157,-9.96059,3.91182,-3.49217,-46.9043
2023-03-15 12:05:31:821,-1.59252,-0.403341,-9.85321,3.90352,-3.55237,-46.6291
2023-03-15 12:05:31:831,-1.51285,-0.534296,-9.72791,3.9197,-3.61354,-46.4015
2023-03-15 12:05:31:841,-1.43572,-0.650983,-9.62353,3.94844,-3.66864,-46.2107
2023-03-15 12:05:31:851,-1.3694,-0.751302,-9.55822,3.97919,-3.72133,-46.0515
2023-03-15 12:05:31:861,-1.33333,-0.782631,-9.54764,4.00044,-3.77599,-45.9231
2023-03-15 12:05:31:871,-1.33535,-0.749814,-9.58569,4.00655,-3.82984,-45.8256
2023-03-15 12:05:31:881,-1.33286,-0.714024,-9.63313,4.00717,-3.88143,-45.7558
2023-03-15 12:05:31:891,-1.32318,-0.691652,-9.66434,4.01123,-3.92953,-45.7227
2023-03-15 12:05:31:901,-1.26015,-0.712457,-9.63154,4.02131,-3.96856,-45.7084
2023-03-15 12:05:31:911,-1.15849,-0.773383,-9.59553,4.04379,-3.99492,-45.7145
2023-03-15 12:05:31:921,-1.03242,-0.844266,-9.58375,4.06767,-4.01207,-45.7423
2023-03-15 12:05:31:931,-0.924109,-0.900459,-9.56829,4.08951,-4.02234,-45.7793
2023-03-15 12:05:31:941,-0.851936,-0.91903,-9.55872,4.10314,-4.03426,-45.8225
2023-03-15 12:05:31:951,-0.787476,-0.925809,-9.54735,4.10692,-4.0422,-45.8702
2023-03-15 12:05:31:961,-0.739777,-0.923698,-9.5675,4.10019,-4.04917,-45.9188
2023-03-15 12:05:31:971,-0.737805,-0.895274,-9.60345,4.08219,-4.06007,-45.9669
2023-03-15 12:05:31:981,-0.743061,-0.848694,-9.64428,4.05883,-4.0667,-46.0165
2023-03-15 12:05:31:991,-0.728072,-0.806395,-9.65934,4.03019,-4.07425,-46.0657
2023-03-15 12:05:32:1,-0.70977,-0.780694,-9.67483,3.99586,-4.08268,-46.1204
2023-03-15 12:05:32:11,-0.697532,-0.759306,-9.68822,3.96312,-4.09152,-46.1723
2023-03-15 12:05:32:21,-0.650312,-0.749263,-9.68844,3.92841,-4.09792,-46.2227
2023-03-15 12:05:32:31,-0.594611,-0.734833,-9.69169,3.89416,-4.10186,-46.2694
2023-03-15 12:05:32:40,-0.571435,-0.722787,-9.68006,3.85959,-4.10367,-46.3082
2023-03-15 12:05:32:50,-0.581226,-0.697116,-9.68755,3.82163,-4.10367,-46.3437
2023-03-15 12:05:32:60,-0.579067,-0.666253,-9.71914,3.78549,-4.09962,-46.3719
2023-03-15 12:05:32:70,-0.586732,-0.651035,-9.73098,3.74637,-4.10566,-46.3981
2023-03-15 12:05:32:81,-0.611216,-0.607624,-9.77606,3.70149,-4.11357,-46.4172
2023-03-15 12:05:32:91,-0.633589,-0.547334,-9.83627,3.66124,-4.12089,-46.4326
2023-03-15 12:05:32:101,-0.624096,-0.51898,-9.86589,3.62343,-4.12826,-46.4487
2023-03-15 12:05:32:111,-0.616937,-0.520031,-9.87765,3.59447,-4.13319,-46.4638
2023-03-15 12:05:32:120,-0.612967,-0.53282,-9.86245,3.57833,-4.13844,-46.4754
2023-03-15 12:05:32:131,-0.579138,-0.546059,-9.84513,3.56771,-4.13865,-46.4812
2023-03-15 12:05:32:141,-0.498101,-0.577012,-9.79913,3.56306,-4.13159,-46.4784
2023-03-15 12:05:32:151,-0.376061,-0.59748,-9.76809,3.56562,-4.12311,-46.4608
2023-03-15 12:05:32:161,-0.289247,-0.634657,-9.72888,3.56555,-4.10503,-46.4209
2023-03-15 12:05:32:171,-0.231655,-0.684464,-9.69336,3.56806,-4.08552,-46.3544
2023-03-15 12:05:32:181,-0.223123,-0.739193,-9.70104,3.57143,-4.06226,-46.2611
2023-03-15 12:05:32:191,-0.304717,-0.707096,-9.70247,3.56222,-4.0396,-46.1484
2023-03-15 12:05:32:201,-0.443411,-0.685888,-9.6892,3.54482,-4.0292,-46.0253
2023-03-15 12:05:32:211,-0.490743,-0.649345,-9.74034,3.51914,-4.02045,-45.9026
2023-03-15 12:05:32:221,-0.507651,-0.576971,-9.8138,3.49378,-4.01254,-45.782
2023-03-15 12:05:32:230,-0.569908,-0.533289,-9.843,3.47003,-4.00911,-45.6649
2023-03-15 12:05:32:240,-0.695049,-0.541726,-9.81771,3.46001,-4.01112,-45.5618
2023-03-15 12:05:32:251,-0.801625,-0.567804,-9.74213,3.4595,-4.02671,-45.4731
2023-03-15 12:05:32:261,-0.863032,-0.572135,-9.70771,3.46588,-4.04842,-45.4058
2023-03-15 12:05:32:271,-0.888373,-0.554975,-9.70559,3.46886,-4.07622,-45.3635
2023-03-15 12:05:32:281,-0.895323,-0.548969,-9.72672,3.47142,-4.10753,-45.3403
2023-03-15 12:05:32:291,-0.900024,-0.540465,-9.74619,3.47097,-4.14219,-45.3312
2023-03-15 12:05:32:301,-0.88498,-0.546409,-9.71768,3.47515,-4.17801,-45.3403
2023-03-15 12:05:32:311,-0.844097,-0.579666,-9.67679,3.48064,-4.216,-45.358
2023-03-15 12:05:32:321,-0.809115,-0.601977,-9.641,3.48463,-4.25212,-45.3833
2023-03-15 12:05:32:331,-0.78248,-0.609534,-9.62413,3.48135,-4.28404,-45.4114
2023-03-15 12:05:32:341,-0.732768,-0.6191,-9.63027,3.4778,-4.32003,-45.4425
2023-03-15 12:05:32:351,-0.681467,-0.598607,-9.63716,3.45908,-4.3525,-45.4712
2023-03-15 12:05:32:361,-0.645512,-0.553102,-9.68459,3.43791,-4.38286,-45.4983
2023-03-15 12:05:32:371,-0.63371,-0.483611,-9.74999,3.40935,-4.41518,-45.5209
2023-03-15 12:05:32:381,-0.649455,-0.437723,-9.80677,3.37527,-4.44768,-45.5408
2023-03-15 12:05:32:391,-0.675882,-0.416075,-9.80507,3.34479,-4.48435,-45.5537
2023-03-15 12:05:32:401,-0.679952,-0.425881,-9.77723,3.31914,-4.52482,-45.5604
2023-03-15 12:05:32:411,-0.691332,-0.438734,-9.7385,3.29487,-4.55709,-45.557
2023-03-15 12:05:32:421,-0.730753,-0.426322,-9.7069,3.27391,-4.58856,-45.5446
2023-03-15 12:05:32:431,-0.775454,-0.42834,-9.68533,3.24629,-4.61743,-45.5267
2023-03-15 12:05:32:441,-0.812162,-0.403721,-9.69123,3.21623,-4.64104,-45.5016
2023-03-15 12:05:32:451,-0.850118,-0.360673,-9.73072,3.18132,-4.65783,-45.4689
2023-03-15 12:05:32:461,-0.893317,-0.315218,-9.76986,3.14705,-4.67638,-45.4342
2023-03-15 12:05:32:471,-0.934801,-0.269983,-9.81681,3.113,-4.69337,-45.3981
2023-03-15 12:05:32:481,-0.953219,-0.248219,-9.84226,3.08229,-4.70674,-45.3666
2023-03-15 12:05:32:491,-0.971053,-0.223209,-9.8624,3.05957,-4.71875,-45.3407
2023-03-15 12:05:32:500,-0.989115,-0.241585,-9.87349,3.04672,-4.72993,-45.3194
2023-03-15 12:05:32:511,-0.989331,-0.282271,-9.82695,3.04276,-4.74308,-45.3047
2023-03-15 12:05:32:521,-1.01273,-0.321761,-9.79015,3.04888,-4.75843,-45.2938
2023-03-15 12:05:32:531,-0.997297,-0.362724,-9.75975,3.05793,-4.76968,-45.2881
2023-03-15 12:05:32:540,-0.984155,-0.391075,-9.7358,3.06502,-4.77965,-45.2859
2023-03-15 12:05:32:550,-0.969544,-0.402071,-9.73841,3.07378,-4.78889,-45.2913
2023-03-15 12:05:32:560,-0.933246,-0.393476,-9.74857,3.08026,-4.79684,-45.2995
2023-03-15 12:05:32:571,-0.895285,-0.392664,-9.77016,3.08303,-4.79917,-45.3074
2023-03-15 12:05:32:581,-0.899159,-0.381001,-9.80645,3.08867,-4.80443,-45.3154
2023-03-15 12:05:32:590,-0.897721,-0.370523,-9.82007,3.09299,-4.80963,-45.3246
2023-03-15 12:05:32:601,-0.871421,-0.383249,-9.78774,3.10467,-4.81332,-45.3395
2023-03-15 12:05:32:611,-0.845237,-0.414876,-9.75271,3.122,-4.81504,-45.3545
2023-03-15 12:05:32:621,-0.811184,-0.46289,-9.71242,3.14772,-4.81551,-45.3692
2023-03-15 12:05:32:631,-0.79122,-0.503028,-9.68969,3.17323,-4.81573,-45.3806
2023-03-15 12:05:32:641,-0.783933,-0.524181,-9.66767,3.19217,-4.81529,-45.3888
2023-03-15 12:05:32:651,-0.784418,-0.535222,-9.64424,3.20978,-4.81339,-45.3945
2023-03-15 12:05:32:661,-0.78003,-0.550669,-9.65143,3.2206,-4.81327,-45.3961
2023-03-15 12:05:32:671,-0.784103,-0.552913,-9.67158,3.22628,-4.81607,-45.3973
2023-03-15 12:05:32:681,-0.805187,-0.551974,-9.69409,3.23128,-4.8208,-45.396
2023-03-15 12:05:32:691,-0.849546,-0.546328,-9.71824,3.23543,-4.82628,-45.3973
2023-03-15 12:05:32:701,-0.875113,-0.548436,-9.74029,3.23745,-4.82986,-45.4007
2023-03-15 12:05:32:711,-0.87545,-0.553295,-9.75698,3.23725,-4.83299,-45.4062
2023-03-15 12:05:32:720,-0.865032,-0.570676,-9.75578,3.24211,-4.83338,-45.4167
2023-03-15 12:05:32:731,-0.841118,-0.588058,-9.7445,3.24927,-4.83487,-45.4252
2023-03-15 12:05:32:740,-0.815661,-0.599141,-9.74869,3.25739,-4.83006,-45.4359
2023-03-15 12:05:32:751,-0.783603,-0.605678,-9.72538,3.26212,-4.82389,-45.4444
2023-03-15 12:05:32:761,-0.756303,-0.61764,-9.6976,3.27118,-4.81578,-45.4517
2023-03-15 12:05:32:771,-0.739074,-0.622283,-9.67698,3.27705,-4.80769,-45.4487
2023-03-15 12:05:32:781,-0.734382,-0.624991,-9.67572,3.27848,-4.79915,-45.442
2023-03-15 12:05:32:791,-0.698535,-0.61395,-9.70176,3.28239,-4.78949,-45.4299
2023-03-15 12:05:32:801,-0.638851,-0.607231,-9.7171,3.28263,-4.77596,-45.4124
2023-03-15 12:05:32:811,-0.628511,-0.611047,-9.7137,3.28578,-4.75393,-45.3829
2023-03-15 12:05:32:821,-0.631737,-0.630903,-9.70011,3.29273,-4.7331,-45.3414
2023-03-15 12:05:32:831,-0.650187,-0.654637,-9.65809,3.30439,-4.71066,-45.2932
2023-03-15 12:05:32:841,-0.685592,-0.674345,-9.62296,3.31162,-4.6886,-45.2405
2023-03-15 12:05:32:851,-0.727307,-0.672304,-9.59551,3.3164,-4.66894,-45.1839
2023-03-15 12:05:32:861,-0.733644,-0.675903,-9.60427,3.3129,-4.65118,-45.1343
2023-03-15 12:05:32:871,-0.743061,-0.671481,-9.62238,3.30339,-4.63871,-45.086
2023-03-15 12:05:32:881,-0.7795,-0.653045,-9.65204,3.28435,-4.62718,-45.0411
2023-03-15 12:05:32:891,-0.822663,-0.604233,-9.65126,3.26132,-4.62423,-44.9978
2023-03-15 12:05:32:901,-0.867489,-0.583876,-9.67013,3.23594,-4.62433,-44.9672
2023-03-15 12:05:32:911,-0.862653,-0.563223,-9.69487,3.2079,-4.62425,-44.9415
2023-03-15 12:05:32:921,-0.832828,-0.586144,-9.70594,3.18443,-4.62712,-44.9248
2023-03-15 12:05:32:931,-0.838807,-0.576165,-9.7005,3.15434,-4.63458,-44.9115
2023-03-15 12:05:32:941,-0.835536,-0.528047,-9.75076,3.12087,-4.63466,-44.9013
2023-03-15 12:05:32:951,-0.759295,-0.487302,-9.80435,3.08696,-4.62897,-44.898
2023-03-15 12:05:32:961,-0.687786,-0.47694,-9.80556,3.06127,-4.6235,-44.8915
2023-03-15 12:05:32:971,-0.667694,-0.504997,-9.75506,3.04146,-4.62058,-44.8785
2023-03-15 12:05:32:981,-0.689736,-0.516125,-9.71014,3.02518,-4.61446,-44.861
2023-03-15 12:05:32:991,-0.692496,-0.511956,-9.7103,3.00211,-4.60603,-44.8362
2023-03-15 12:05:33:1,-0.649266,-0.504333,-9.75282,2.97844,-4.59405,-44.8066
2023-03-15 12:05:33:11,-0.553921,-0.434573,-9.80887,2.95065,-4.57696,-44.7627
2023-03-15 12:05:33:21,-0.483458,-0.4209,-9.81738,2.92713,-4.55662,-44.7103
2023-03-15 12:05:33:31,-0.495772,-0.470891,-9.72944,2.9111,-4.54177,-44.6411
2023-03-15 12:05:33:40,-0.534353,-0.500697,-9.65268,2.89759,-4.52558,-44.5595
2023-03-15 12:05:33:50,-0.542797,-0.511419,-9.62828,2.87863,-4.50362,-44.4618
2023-03-15 12:05:33:60,-0.533555,-0.498746,-9.60774,2.85688,-4.47611,-44.3487
2023-03-15 12:05:33:71,-0.50943,-0.520117,-9.59417,2.828,-4.44431,-44.2235
2023-03-15 12:05:33:81,-0.48158,-0.555331,-9.5985,2.79684,-4.41066,-44.0844
2023-03-15 12:05:33:91,-0.477105,-0.532059,-9.6265,2.75602,-4.37323,-43.9327
2023-03-15 12:05:33:101,-0.499662,-0.499051,-9.66961,2.7049,-4.33357,-43.7632
2023-03-15 12:05:33:111,-0.555528,-0.459543,-9.73041,2.64555,-4.2999,-43.5913
2023-03-15 12:05:33:121,-0.595708,-0.405859,-9.7904,2.58219,-4.2707,-43.4164
2023-03-15 12:05:33:131,-0.617536,-0.350092,-9.83419,2.51456,-4.24999,-43.2466
2023-03-15 12:05:33:141,-0.635597,-0.30685,-9.88137,2.45111,-4.23351,-43.0786
2023-03-15 12:05:33:151,-0.662022,-0.282066,-9.88836,2.39567,-4.22431,-42.9159
2023-03-15 12:05:33:161,-0.709478,-0.251907,-9.85265,2.3443,-4.22331,-42.7537
2023-03-15 12:05:33:171,-0.737026,-0.27952,-9.79371,2.306,-4.22115,-42.6007
2023-03-15 12:05:33:181,-0.730616,-0.309208,-9.74551,2.27159,-4.2243,-42.4481
2023-03-15 12:05:33:191,-0.697581,-0.307509,-9.71437,2.23627,-4.22935,-42.2983
2023-03-15 12:05:33:201,-0.632794,-0.309971,-9.71511,2.20233,-4.23614,-42.1461
2023-03-15 12:05:33:211,-0.616908,-0.316463,-9.73659,2.16717,-4.24224,-41.9922
2023-03-15 12:05:33:221,-0.678589,-0.304546,-9.72579,2.127,-4.25589,-41.8389
2023-03-15 12:05:33:231,-0.70873,-0.30687,-9.7033,2.0873,-4.27561,-41.6846
2023-03-15 12:05:33:241,-0.707996,-0.312994,-9.69719,2.04358,-4.2958,-41.5351
2023-03-15 12:05:33:250,-0.704541,-0.300414,-9.70882,2.00033,-4.31771,-41.3786
2023-03-15 12:05:33:261,-0.714998,-0.262845,-9.76359,1.95239,-4.33949,-41.2216
2023-03-15 12:05:33:271,-0.764997,-0.216811,-9.83114,1.90238,-4.35913,-41.0592
2023-03-15 12:05:33:281,-0.811028,-0.157986,-9.87235,1.85193,-4.37662,-40.8992
2023-03-15 12:05:33:291,-0.85222,-0.129308,-9.89365,1.80964,-4.397,-40.7424
2023-03-15 12:05:33:301,-0.892004,-0.126797,-9.88797,1.7804,-4.40498,-40.5923
2023-03-15 12:05:33:311,-0.932057,-0.12535,-9.85412,1.75762,-4.41239,-40.4481
