Timestamp,Acceleration_x,Acceleration_y,Acceleration_z,roll,pitch,yaw
2023-03-15 15:39:14:888,0.108766,1.68509,-9.85641,-8.51849,0.472279,-18.5655
2023-03-15 15:39:14:896,0.129098,1.65413,-9.81874,-8.54592,0.456925,-18.6152
2023-03-15 15:39:14:906,0.103911,1.62057,-9.75086,-8.57181,0.437033,-18.6656
2023-03-15 15:39:14:916,0.0922008,1.59327,-9.70394,-8.59684,0.412235,-18.7168
2023-03-15 15:39:14:926,0.111214,1.58835,-9.67814,-8.61666,0.389801,-18.7679
2023-03-15 15:39:14:936,0.124624,1.59044,-9.65735,-8.63741,0.364796,-18.8189
2023-03-15 15:39:14:947,0.106318,1.57796,-9.64193,-8.66047,0.337075,-18.8684
2023-03-15 15:39:14:956,0.0839189,1.59807,-9.66355,-8.6863,0.303013,-18.9169
2023-03-15 15:39:14:966,0.06816,1.61807,-9.67874,-8.71686,0.267953,-18.9686
2023-03-15 15:39:14:977,0.0286371,1.66043,-9.72365,-8.74487,0.233836,-19.0183
2023-03-15 15:39:14:987,0.0138165,1.7099,-9.79468,-8.76322,0.210403,-19.0737
2023-03-15 15:39:14:997,0.010572,1.70808,-9.83254,-8.77131,0.193075,-19.131
2023-03-15 15:39:15:7,0.0479963,1.68184,-9.80756,-8.77184,0.178032,-19.1874
2023-03-15 15:39:15:17,0.07304,1.64803,-9.73323,-8.7644,0.161162,-19.2413
2023-03-15 15:39:15:26,0.0726572,1.64717,-9.70969,-8.75912,0.143387,-19.2954
2023-03-15 15:39:15:37,0.0744768,1.62722,-9.68672,-8.74555,0.127279,-19.3449
2023-03-15 15:39:15:47,0.0703561,1.59543,-9.66136,-8.73122,0.11007,-19.3936
2023-03-15 15:39:15:57,0.0885047,1.57896,-9.64629,-8.71534,0.095874,-19.4369
2023-03-15 15:39:15:67,0.111795,1.55297,-9.62903,-8.70077,0.084861,-19.4793
2023-03-15 15:39:15:77,0.112414,1.56866,-9.66296,-8.69125,0.0732074,-19.5142
2023-03-15 15:39:15:87,0.128479,1.57686,-9.70293,-8.67921,0.0604209,-19.5522
2023-03-15 15:39:15:97,0.135084,1.57509,-9.72458,-8.66262,0.0482123,-19.5799
2023-03-15 15:39:15:107,0.124691,1.55425,-9.72267,-8.63756,0.0377789,-19.6042
2023-03-15 15:39:15:117,0.12024,1.51971,-9.67911,-8.60835,0.0280527,-19.6227
2023-03-15 15:39:15:127,0.116533,1.47924,-9.6163,-8.5842,0.0152538,-19.6381
2023-03-15 15:39:15:137,0.105116,1.48238,-9.63462,-8.5581,0.00429339,-19.6472
2023-03-15 15:39:15:147,0.0930184,1.48465,-9.68165,-8.53039,-0.00166518,-19.6529
2023-03-15 15:39:15:157,0.07077,1.45419,-9.64856,-8.50096,-0.00459058,-19.6586
2023-03-15 15:39:15:167,0.0743333,1.41593,-9.5679,-8.47056,-0.00615037,-19.6618
2023-03-15 15:39:15:177,0.0544979,1.39516,-9.53748,-8.44527,-0.0104953,-19.6587
2023-03-15 15:39:15:187,0.00498374,1.4055,-9.58019,-8.42622,-0.014743,-19.658
2023-03-15 15:39:15:197,-0.0119911,1.41773,-9.63608,-8.41056,-0.0159403,-19.6586
2023-03-15 15:39:15:207,0.0138662,1.4051,-9.67443,-8.39446,-0.0143815,-19.6603
2023-03-15 15:39:15:217,0.0342073,1.40588,-9.70751,-8.37555,-0.015419,-19.6612
2023-03-15 15:39:15:227,0.0212163,1.40358,-9.70418,-8.35553,-0.020736,-19.6646
2023-03-15 15:39:15:237,0.0123561,1.37486,-9.67538,-8.3322,-0.0301097,-19.6689
2023-03-15 15:39:15:247,0.000805564,1.35272,-9.63513,-8.30687,-0.038507,-19.6723
2023-03-15 15:39:15:256,-0.0063752,1.33584,-9.6198,-8.28536,-0.0508165,-19.6783
2023-03-15 15:39:15:266,-0.0070613,1.339,-9.60464,-8.26266,-0.0618619,-19.6882
2023-03-15 15:39:15:276,0.00607956,1.32527,-9.55682,-8.24544,-0.0727024,-19.6929
2023-03-15 15:39:15:286,0.014968,1.31274,-9.53973,-8.23176,-0.079077,-19.6968
2023-03-15 15:39:15:296,0.00952346,1.31559,-9.53433,-8.22725,-0.0870295,-19.6979
2023-03-15 15:39:15:306,0.0316275,1.30984,-9.56261,-8.22292,-0.0939625,-19.7005
2023-03-15 15:39:15:316,0.0223218,1.32929,-9.60887,-8.22704,-0.103971,-19.6964
2023-03-15 15:39:15:326,-0.0363572,1.35446,-9.60481,-8.23295,-0.113661,-19.6965
2023-03-15 15:39:15:337,-0.0999023,1.36534,-9.56379,-8.24105,-0.121671,-19.7016
2023-03-15 15:39:15:346,-0.0752218,1.37898,-9.53206,-8.25223,-0.130793,-19.708
2023-03-15 15:39:15:356,-0.0371036,1.38462,-9.57168,-8.26791,-0.139898,-19.713
2023-03-15 15:39:15:367,-0.0369427,1.40646,-9.62949,-8.28491,-0.144023,-19.7196
2023-03-15 15:39:15:376,-0.0449661,1.44211,-9.66253,-8.30319,-0.151785,-19.7261
2023-03-15 15:39:15:386,-0.0408951,1.46185,-9.67218,-8.319,-0.157902,-19.735
2023-03-15 15:39:15:396,-0.0484193,1.47923,-9.67389,-8.33809,-0.1586,-19.7439
2023-03-15 15:39:15:407,-0.0522769,1.50914,-9.70346,-8.35862,-0.166695,-19.7591
2023-03-15 15:39:15:416,-0.0255864,1.54147,-9.75381,-8.38011,-0.175193,-19.772
2023-03-15 15:39:15:427,0.0149349,1.57968,-9.84418,-8.40015,-0.186256,-19.7859
2023-03-15 15:39:15:436,0.0366702,1.59694,-9.91412,-8.41135,-0.201365,-19.8002
2023-03-15 15:39:15:446,0.0228107,1.57286,-9.92757,-8.41055,-0.214948,-19.8105
2023-03-15 15:39:15:456,-0.0284024,1.54874,-9.9016,-8.39779,-0.235966,-19.8174
2023-03-15 15:39:15:466,-0.0939132,1.52395,-9.80747,-8.37843,-0.258216,-19.8253
2023-03-15 15:39:15:477,-0.139721,1.46522,-9.66629,-8.35431,-0.272941,-19.8362
2023-03-15 15:39:15:486,-0.130199,1.43714,-9.58696,-8.33439,-0.287806,-19.8487
2023-03-15 15:39:15:497,-0.111583,1.39911,-9.55994,-8.31534,-0.303176,-19.8617
2023-03-15 15:39:15:506,-0.104797,1.37188,-9.54575,-8.30168,-0.317256,-19.8716
2023-03-15 15:39:15:516,-0.0852424,1.38626,-9.5647,-8.29703,-0.329336,-19.8853
2023-03-15 15:39:15:526,-0.0635001,1.39819,-9.61765,-8.29545,-0.343759,-19.9039
2023-03-15 15:39:15:536,-0.0660651,1.39963,-9.65904,-8.29592,-0.355374,-19.9179
2023-03-15 15:39:15:547,-0.0678294,1.40851,-9.67229,-8.29489,-0.37081,-19.9354
2023-03-15 15:39:15:556,-0.0663835,1.41365,-9.70082,-8.2918,-0.38594,-19.9507
2023-03-15 15:39:15:566,-0.0515562,1.40609,-9.73653,-8.28509,-0.398578,-19.9658
2023-03-15 15:39:15:576,-0.0332975,1.37859,-9.72677,-8.27364,-0.410545,-19.9792
2023-03-15 15:39:15:587,-0.0255845,1.35779,-9.70158,-8.25319,-0.42264,-19.9953
2023-03-15 15:39:15:596,-0.0171618,1.34285,-9.69543,-8.23155,-0.434693,-20.0073
2023-03-15 15:39:15:606,-0.00370161,1.31282,-9.66035,-8.20644,-0.446042,-20.0177
2023-03-15 15:39:15:616,0.0056688,1.25683,-9.59266,-8.17852,-0.461349,-20.0262
2023-03-15 15:39:15:626,0.00806564,1.22352,-9.55697,-8.15727,-0.478352,-20.0295
2023-03-15 15:39:15:637,0.00966807,1.21916,-9.53943,-8.14337,-0.495395,-20.0311
2023-03-15 15:39:15:646,-0.0146182,1.21875,-9.53958,-8.13706,-0.516914,-20.0268
2023-03-15 15:39:15:657,-0.00922699,1.2285,-9.56403,-8.13597,-0.538026,-20.0217
2023-03-15 15:39:15:666,0.00311975,1.25258,-9.59236,-8.14004,-0.560115,-20.0151
2023-03-15 15:39:15:676,-0.00507088,1.26508,-9.61328,-8.1487,-0.579947,-20.0053
2023-03-15 15:39:15:686,-0.0310518,1.27983,-9.63434,-8.15462,-0.604831,-19.9884
2023-03-15 15:39:15:696,-0.0435318,1.31529,-9.66093,-8.16166,-0.626956,-19.9742
2023-03-15 15:39:15:706,-0.0306472,1.32103,-9.67522,-8.16616,-0.648804,-19.9556
2023-03-15 15:39:15:716,-0.0121401,1.31153,-9.67154,-8.17248,-0.670016,-19.9337
2023-03-15 15:39:15:726,-0.0134132,1.32591,-9.65748,-8.18071,-0.687578,-19.9091
2023-03-15 15:39:15:736,0.00655348,1.34224,-9.65128,-8.18974,-0.706697,-19.8753
2023-03-15 15:39:15:747,0.0112111,1.35967,-9.62658,-8.19859,-0.729426,-19.8369
2023-03-15 15:39:15:756,-0.00332123,1.37808,-9.62944,-8.21354,-0.748049,-19.7941
2023-03-15 15:39:15:766,0.00282657,1.35682,-9.62079,-8.22927,-0.770791,-19.742
2023-03-15 15:39:15:777,-0.016958,1.39956,-9.63931,-8.25009,-0.795201,-19.6865
2023-03-15 15:39:15:786,-0.0122167,1.43384,-9.66534,-8.26974,-0.82014,-19.6238
2023-03-15 15:39:15:796,-0.0511352,1.41071,-9.5852,-8.29702,-0.858211,-19.557
2023-03-15 15:39:15:806,-0.14607,1.42159,-9.60277,-8.32619,-0.893451,-19.4821
2023-03-15 15:39:15:816,-0.252171,1.46939,-9.72859,-8.35741,-0.92688,-19.4079
2023-03-15 15:39:15:826,-0.368839,1.55609,-9.73933,-8.38113,-0.959733,-19.3455
2023-03-15 15:39:15:837,-0.405816,1.5475,-9.63397,-8.39833,-0.976748,-19.2905
2023-03-15 15:39:15:846,-0.33784,1.49494,-9.4687,-8.4137,-0.98025,-19.2388
2023-03-15 15:39:15:857,-0.255729,1.45066,-9.35312,-8.43766,-0.975632,-19.1846
2023-03-15 15:39:15:867,-0.173422,1.48514,-9.4293,-8.47776,-0.967394,-19.1288
2023-03-15 15:39:15:876,-0.105101,1.55047,-9.62048,-8.52501,-0.953564,-19.0711
2023-03-15 15:39:15:886,-0.0783232,1.57921,-9.77185,-8.56463,-0.940903,-19.0066
2023-03-15 15:39:15:896,-0.140633,1.57055,-9.79883,-8.59186,-0.927441,-18.9402
2023-03-15 15:39:15:906,-0.225721,1.55747,-9.76501,-8.60734,-0.91583,-18.8709
2023-03-15 15:39:15:916,-0.288947,1.53358,-9.69971,-8.62126,-0.89918,-18.8035
2023-03-15 15:39:15:927,-0.261978,1.50015,-9.67995,-8.63131,-0.878266,-18.7436
2023-03-15 15:39:15:936,-0.218816,1.49545,-9.72046,-8.64241,-0.85938,-18.6825
2023-03-15 15:39:15:947,-0.199146,1.48237,-9.77531,-8.65459,-0.839041,-18.6254
2023-03-15 15:39:15:957,-0.157646,1.48107,-9.83139,-8.66613,-0.820605,-18.5702
2023-03-15 15:39:15:967,-0.126593,1.46205,-9.85679,-8.6727,-0.809646,-18.5178
2023-03-15 15:39:15:977,-0.154616,1.42425,-9.83918,-8.68145,-0.805097,-18.4576
2023-03-15 15:39:15:987,-0.211623,1.41909,-9.81868,-8.68164,-0.798676,-18.4041
2023-03-15 15:39:15:997,-0.22016,1.40877,-9.77447,-8.67423,-0.789272,-18.3553
2023-03-15 15:39:16:7,-0.214767,1.37631,-9.64889,-8.66431,-0.780012,-18.3142
2023-03-15 15:39:16:17,-0.202839,1.33034,-9.51878,-8.65274,-0.769666,-18.2778
2023-03-15 15:39:16:26,-0.20283,1.32238,-9.48068,-8.65153,-0.756194,-18.2424
2023-03-15 15:39:16:36,-0.194213,1.32368,-9.49977,-8.65083,-0.746214,-18.2104
2023-03-15 15:39:16:47,-0.211105,1.38148,-9.56156,-8.66413,-0.740818,-18.1839
2023-03-15 15:39:16:56,-0.190665,1.41158,-9.59918,-8.68077,-0.736031,-18.1638
2023-03-15 15:39:16:66,-0.148714,1.40906,-9.61664,-8.70677,-0.730633,-18.1424
2023-03-15 15:39:16:76,-0.124261,1.4468,-9.68282,-8.73447,-0.728971,-18.1258
2023-03-15 15:39:16:86,-0.120346,1.49073,-9.69388,-8.76547,-0.735095,-18.1156
2023-03-15 15:39:16:96,-0.191901,1.47067,-9.6083,-8.79445,-0.748732,-18.1088
2023-03-15 15:39:16:106,-0.237355,1.47033,-9.56717,-8.82833,-0.764618,-18.1034
2023-03-15 15:39:16:116,-0.257485,1.53827,-9.64416,-8.86272,-0.78484,-18.1054
2023-03-15 15:39:16:126,-0.248813,1.59664,-9.71644,-8.889,-0.807046,-18.1138
2023-03-15 15:39:16:136,-0.261254,1.6098,-9.75663,-8.90596,-0.8281,-18.1319
2023-03-15 15:39:16:146,-0.270451,1.59258,-9.72098,-8.91512,-0.847909,-18.153
2023-03-15 15:39:16:156,-0.247504,1.542,-9.63965,-8.91732,-0.86558,-18.1798
2023-03-15 15:39:16:166,-0.254132,1.49918,-9.52729,-8.92001,-0.88729,-18.209
2023-03-15 15:39:16:176,-0.256739,1.45974,-9.43309,-8.92604,-0.908118,-18.2409
2023-03-15 15:39:16:186,-0.256969,1.43163,-9.35731,-8.94851,-0.92881,-18.2743
2023-03-15 15:39:16:196,-0.281232,1.45933,-9.30843,-8.98184,-0.950577,-18.3149
2023-03-15 15:39:16:206,-0.257337,1.50124,-9.34824,-9.02674,-0.9691,-18.3605
2023-03-15 15:39:16:216,-0.221861,1.57888,-9.50058,-9.07942,-0.98022,-18.4085
2023-03-15 15:39:16:226,-0.200925,1.66333,-9.6326,-9.13439,-0.990765,-18.4557
2023-03-15 15:39:16:236,-0.175981,1.72439,-9.71099,-9.18537,-1.00132,-18.5074
2023-03-15 15:39:16:246,-0.169358,1.76521,-9.74997,-9.23222,-1.00394,-18.5629
2023-03-15 15:39:16:256,-0.113316,1.76998,-9.75846,-9.26784,-1.00857,-18.6135
2023-03-15 15:39:16:266,-0.117793,1.73615,-9.696,-9.29758,-1.01292,-18.6644
2023-03-15 15:39:16:276,-0.143424,1.754,-9.68794,-9.32901,-1.00826,-18.7084
2023-03-15 15:39:16:286,-0.11816,1.80482,-9.72101,-9.35572,-1.00418,-18.7537
2023-03-15 15:39:16:296,-0.0890812,1.75326,-9.69378,-9.36799,-0.999542,-18.7945
2023-03-15 15:39:16:306,-0.0947875,1.79111,-9.66088,-9.38548,-0.993685,-18.8349
2023-03-15 15:39:16:316,-0.136643,1.80659,-9.55389,-9.40322,-0.996878,-18.8815
2023-03-15 15:39:16:326,-0.168995,1.80197,-9.53803,-9.43129,-1.00885,-18.9297
2023-03-15 15:39:16:336,-0.20026,1.91381,-9.67079,-9.47047,-1.02844,-18.9818
2023-03-15 15:39:16:346,-0.239035,1.98077,-9.77987,-9.49883,-1.05327,-19.0438
2023-03-15 15:39:16:356,-0.257314,1.99007,-9.80846,-9.51061,-1.08082,-19.1146
2023-03-15 15:39:16:366,-0.257807,1.95129,-9.77636,-9.51139,-1.11213,-19.1935
2023-03-15 15:39:16:376,-0.241586,1.91184,-9.71466,-9.50771,-1.14757,-19.2757
2023-03-15 15:39:16:386,-0.251258,1.88029,-9.67885,-9.49964,-1.18754,-19.3594
2023-03-15 15:39:16:396,-0.225039,1.83047,-9.63254,-9.48754,-1.22047,-19.4451
2023-03-15 15:39:16:406,-0.199585,1.7986,-9.59961,-9.47725,-1.25549,-19.5321
2023-03-15 15:39:16:416,-0.193944,1.78666,-9.59758,-9.4668,-1.29248,-19.6175
2023-03-15 15:39:16:426,-0.21091,1.74424,-9.56692,-9.46113,-1.32884,-19.6991
2023-03-15 15:39:16:436,-0.222826,1.69969,-9.55253,-9.45688,-1.36051,-19.7809
2023-03-15 15:39:16:446,-0.191704,1.66721,-9.52607,-9.45392,-1.38795,-19.8558
2023-03-15 15:39:16:456,-0.176766,1.63737,-9.47699,-9.45558,-1.41275,-19.9208
2023-03-15 15:39:16:466,-0.175375,1.60934,-9.44221,-9.46267,-1.43149,-19.9821
2023-03-15 15:39:16:476,-0.163021,1.58665,-9.42193,-9.48023,-1.44412,-20.0335
2023-03-15 15:39:16:486,-0.175918,1.59485,-9.41924,-9.50479,-1.45245,-20.0746
2023-03-15 15:39:16:496,-0.20505,1.59699,-9.42,-9.53522,-1.45134,-20.1095
2023-03-15 15:39:16:506,-0.217115,1.59414,-9.46636,-9.57716,-1.44063,-20.1425
2023-03-15 15:39:16:516,-0.150895,1.62965,-9.57476,-9.62459,-1.42162,-20.1629
2023-03-15 15:39:16:526,-0.0923625,1.6939,-9.68663,-9.67175,-1.40093,-20.1775
2023-03-15 15:39:16:536,-0.0559466,1.72501,-9.77222,-9.71587,-1.37095,-20.1809
2023-03-15 15:39:16:547,-0.0488565,1.75205,-9.76942,-9.75586,-1.34574,-20.1794
2023-03-15 15:39:16:556,-0.0731048,1.75922,-9.70268,-9.79478,-1.32339,-20.1689
2023-03-15 15:39:16:567,-0.109336,1.7428,-9.66813,-9.83313,-1.30666,-20.1502
2023-03-15 15:39:16:577,-0.144715,1.76691,-9.67941,-9.87462,-1.29164,-20.1264
2023-03-15 15:39:16:587,-0.196267,1.82107,-9.74246,-9.9097,-1.27277,-20.0972
2023-03-15 15:39:16:597,-0.260759,1.82452,-9.72761,-9.93246,-1.251,-20.0696
2023-03-15 15:39:16:607,-0.3073,1.79891,-9.63651,-9.94791,-1.22727,-20.0418
2023-03-15 15:39:16:617,-0.309255,1.77794,-9.5803,-9.96166,-1.19859,-20.0136
2023-03-15 15:39:16:626,-0.296974,1.76093,-9.59341,-9.9678,-1.16668,-19.9864
2023-03-15 15:39:16:637,-0.299548,1.73908,-9.55684,-9.97674,-1.14025,-19.9601
2023-03-15 15:39:16:647,-0.312703,1.71168,-9.56444,-9.9828,-1.11268,-19.9382
2023-03-15 15:39:16:657,-0.299155,1.69993,-9.59186,-9.9926,-1.08027,-19.9203
2023-03-15 15:39:16:667,-0.22444,1.71355,-9.69018,-10.0017,-1.04692,-19.9077
2023-03-15 15:39:16:677,-0.175055,1.74878,-9.7915,-10.0061,-1.01884,-19.8915
2023-03-15 15:39:16:687,-0.197421,1.74416,-9.81867,-9.99858,-0.99685,-19.8783
2023-03-15 15:39:16:697,-0.2251,1.71254,-9.75914,-9.98696,-0.979399,-19.8641
2023-03-15 15:39:16:707,-0.272686,1.67829,-9.68544,-9.97406,-0.966748,-19.8527
2023-03-15 15:39:16:716,-0.306594,1.65274,-9.64908,-9.96516,-0.9538,-19.8445
2023-03-15 15:39:16:727,-0.313378,1.65869,-9.64759,-9.95784,-0.939593,-19.841
2023-03-15 15:39:16:737,-0.290718,1.62869,-9.58794,-9.94692,-0.923657,-19.8446
2023-03-15 15:39:16:747,-0.262041,1.59838,-9.48681,-9.94124,-0.908975,-19.8481
2023-03-15 15:39:16:756,-0.238714,1.59133,-9.42591,-9.94042,-0.892522,-19.855
2023-03-15 15:39:16:766,-0.22637,1.58289,-9.4501,-9.94474,-0.873986,-19.8623
2023-03-15 15:39:16:776,-0.236377,1.64462,-9.52326,-9.95211,-0.856379,-19.8694
2023-03-15 15:39:16:786,-0.22292,1.65207,-9.51329,-9.95795,-0.833939,-19.8804
2023-03-15 15:39:16:796,-0.18829,1.63408,-9.4781,-9.96189,-0.806386,-19.8896
2023-03-15 15:39:16:807,-0.126561,1.62445,-9.52406,-9.97193,-0.780839,-19.8986
2023-03-15 15:39:16:816,-0.0600211,1.66446,-9.66218,-9.98204,-0.749939,-19.9019
2023-03-15 15:39:16:826,-0.0381854,1.68802,-9.7574,-9.98874,-0.720768,-19.9002
2023-03-15 15:39:16:837,-0.0400373,1.68238,-9.75127,-9.9907,-0.693472,-19.893
2023-03-15 15:39:16:847,-0.0546269,1.65783,-9.72137,-9.98847,-0.664511,-19.8839
2023-03-15 15:39:16:857,-0.0622404,1.64568,-9.6839,-9.98386,-0.633427,-19.8685
2023-03-15 15:39:16:867,-0.0523335,1.63216,-9.67209,-9.97511,-0.598439,-19.8508
2023-03-15 15:39:16:877,-0.0340071,1.62491,-9.62493,-9.97006,-0.56007,-19.8282
2023-03-15 15:39:16:886,-0.0353546,1.62157,-9.58083,-9.96315,-0.519934,-19.8039
2023-03-15 15:39:16:897,-0.0166347,1.61919,-9.62947,-9.95583,-0.480473,-19.7803
2023-03-15 15:39:16:907,-0.00593821,1.64232,-9.69794,-9.94903,-0.440811,-19.7545
2023-03-15 15:39:16:917,-0.0228926,1.64892,-9.75583,-9.94036,-0.405765,-19.7264
2023-03-15 15:39:16:927,-0.017634,1.64621,-9.76463,-9.92206,-0.376674,-19.6981
2023-03-15 15:39:16:937,0.00467871,1.63965,-9.73301,-9.89629,-0.350545,-19.6712
2023-03-15 15:39:16:947,-0.00661797,1.6189,-9.67882,-9.86714,-0.328928,-19.6447
2023-03-15 15:39:16:957,-0.0294666,1.59697,-9.59952,-9.83313,-0.311734,-19.6215
2023-03-15 15:39:16:967,-0.0366925,1.56517,-9.53427,-9.80011,-0.297464,-19.598
2023-03-15 15:39:16:977,-0.0477835,1.53978,-9.48875,-9.7725,-0.284822,-19.5768
2023-03-15 15:39:16:987,-0.0618504,1.54825,-9.48094,-9.75503,-0.270974,-19.5587
2023-03-15 15:39:16:997,-0.0646339,1.56101,-9.52066,-9.74766,-0.260866,-19.544
2023-03-15 15:39:17:7,-0.0411742,1.58784,-9.57736,-9.75022,-0.252168,-19.5295
2023-03-15 15:39:17:17,-0.0334522,1.60395,-9.65129,-9.75317,-0.243163,-19.5117
2023-03-15 15:39:17:27,-0.0411811,1.59498,-9.63842,-9.75794,-0.235274,-19.4946
2023-03-15 15:39:17:37,-0.0412871,1.59039,-9.5906,-9.76348,-0.224171,-19.4788
2023-03-15 15:39:17:47,-0.050047,1.5899,-9.56843,-9.76896,-0.213817,-19.4635
2023-03-15 15:39:17:57,-0.0513043,1.60052,-9.53358,-9.78093,-0.203765,-19.4475
2023-03-15 15:39:17:67,-0.0602062,1.61305,-9.50879,-9.79556,-0.193146,-19.4333
2023-03-15 15:39:17:77,-0.058705,1.63804,-9.50131,-9.82159,-0.179093,-19.4185
2023-03-15 15:39:17:87,-0.0528601,1.66069,-9.49726,-9.84887,-0.165687,-19.4053
2023-03-15 15:39:17:97,-0.0570319,1.70586,-9.53421,-9.88155,-0.148894,-19.3895
2023-03-15 15:39:17:106,-0.0655004,1.75089,-9.59813,-9.92226,-0.134116,-19.3796
2023-03-15 15:39:17:117,-0.0710128,1.79206,-9.62336,-9.96109,-0.118977,-19.375
2023-03-15 15:39:17:127,-0.085604,1.82639,-9.63165,-10.0008,-0.100222,-19.3732
2023-03-15 15:39:17:137,-0.0951593,1.84656,-9.64513,-10.0428,-0.0840791,-19.3764
2023-03-15 15:39:17:147,-0.0771605,1.86752,-9.66238,-10.0803,-0.0713949,-19.3834
2023-03-15 15:39:17:157,-0.081726,1.88342,-9.66866,-10.1168,-0.0598035,-19.3976
2023-03-15 15:39:17:167,-0.0557793,1.88081,-9.68628,-10.1484,-0.0507213,-19.4158
2023-03-15 15:39:17:177,-0.0466189,1.87886,-9.6996,-10.1782,-0.0410182,-19.4364
2023-03-15 15:39:17:187,-0.0449867,1.878,-9.70781,-10.2057,-0.028838,-19.4647
2023-03-15 15:39:17:197,-0.0247317,1.88729,-9.69078,-10.2339,-0.0171205,-19.4962
2023-03-15 15:39:17:207,0.0279819,1.90025,-9.68612,-10.2601,-0.00165206,-19.5237
2023-03-15 15:39:17:217,0.0926591,1.89972,-9.71755,-10.2865,0.0105249,-19.5508
2023-03-15 15:39:17:227,0.103655,1.92515,-9.7535,-10.3064,0.0167347,-19.5743
2023-03-15 15:39:17:237,0.0935382,1.94298,-9.74723,-10.321,0.0243419,-19.602
2023-03-15 15:39:17:247,0.0760566,1.93369,-9.70416,-10.3284,0.0309969,-19.6242
2023-03-15 15:39:17:257,0.0598396,1.92292,-9.67626,-10.3289,0.0405406,-19.6496
2023-03-15 15:39:17:267,0.0611999,1.90333,-9.62822,-10.3231,0.0508153,-19.6747
2023-03-15 15:39:17:277,0.0586185,1.86632,-9.56187,-10.3138,0.0626748,-19.6959
2023-03-15 15:39:17:287,0.0683281,1.82034,-9.50559,-10.3006,0.0778544,-19.7221
2023-03-15 15:39:17:297,0.110691,1.79905,-9.48279,-10.2859,0.0939822,-19.7368
2023-03-15 15:39:17:307,0.130925,1.76493,-9.4696,-10.2762,0.113165,-19.7556
2023-03-15 15:39:17:316,0.140998,1.7251,-9.46781,-10.2674,0.132403,-19.7713
2023-03-15 15:39:17:326,0.127893,1.7226,-9.49111,-10.2664,0.148693,-19.7878
2023-03-15 15:39:17:336,0.135283,1.73193,-9.52872,-10.2751,0.162855,-19.8003
2023-03-15 15:39:17:346,0.160746,1.75246,-9.59198,-10.2873,0.176587,-19.8153
2023-03-15 15:39:17:356,0.157858,1.78528,-9.62881,-10.3032,0.18952,-19.8241
2023-03-15 15:39:17:366,0.158515,1.79246,-9.65401,-10.316,0.204176,-19.8348
2023-03-15 15:39:17:376,0.168728,1.8006,-9.66941,-10.3264,0.217286,-19.8399
2023-03-15 15:39:17:387,0.186402,1.81013,-9.64164,-10.3393,0.225437,-19.845
2023-03-15 15:39:17:397,0.176865,1.81244,-9.59132,-10.3462,0.234842,-19.8454
2023-03-15 15:39:17:407,0.164948,1.81485,-9.54739,-10.3528,0.245386,-19.8455
2023-03-15 15:39:17:416,0.152668,1.8065,-9.49593,-10.3583,0.257297,-19.8418
2023-03-15 15:39:17:427,0.13876,1.807,-9.45139,-10.366,0.26969,-19.8337
2023-03-15 15:39:17:437,0.112711,1.79668,-9.44782,-10.3751,0.282447,-19.8264
2023-03-15 15:39:17:447,0.109065,1.79955,-9.47093,-10.3936,0.304277,-19.8177
2023-03-15 15:39:17:456,0.117493,1.82678,-9.52706,-10.4158,0.327302,-19.8101
2023-03-15 15:39:17:467,0.130829,1.83594,-9.5869,-10.4373,0.347309,-19.8015
2023-03-15 15:39:17:477,0.135636,1.87719,-9.66417,-10.4609,0.362973,-19.7959
2023-03-15 15:39:17:487,0.142575,1.91301,-9.71823,-10.4838,0.376069,-19.7883
2023-03-15 15:39:17:497,0.130106,1.92083,-9.72317,-10.5012,0.385531,-19.7835
2023-03-15 15:39:17:507,0.114682,1.92116,-9.72034,-10.5138,0.396964,-19.7817
2023-03-15 15:39:17:517,0.118415,1.91579,-9.7094,-10.5195,0.408048,-19.7823
2023-03-15 15:39:17:527,0.124612,1.89694,-9.67008,-10.5233,0.417926,-19.7848
2023-03-15 15:39:17:537,0.152242,1.86555,-9.63556,-10.5278,0.422951,-19.7889
2023-03-15 15:39:17:547,0.158533,1.83807,-9.61276,-10.5336,0.426039,-19.789
2023-03-15 15:39:17:557,0.162274,1.83239,-9.61188,-10.5389,0.427785,-19.7937
2023-03-15 15:39:17:567,0.176916,1.83524,-9.58689,-10.5451,0.426404,-19.7997
2023-03-15 15:39:17:577,0.181492,1.83178,-9.55832,-10.549,0.423783,-19.8043
2023-03-15 15:39:17:587,0.164744,1.84362,-9.52899,-10.5594,0.418715,-19.8083
2023-03-15 15:39:17:597,0.143524,1.84985,-9.51079,-10.5664,0.413008,-19.8165
2023-03-15 15:39:17:607,0.127345,1.83143,-9.50673,-10.576,0.408118,-19.8238
2023-03-15 15:39:17:617,0.120862,1.84074,-9.51595,-10.5793,0.404882,-19.8296
2023-03-15 15:39:17:627,0.121518,1.83775,-9.54986,-10.5899,0.400278,-19.8358
2023-03-15 15:39:17:637,0.117309,1.8594,-9.57914,-10.6006,0.395914,-19.8424
2023-03-15 15:39:17:647,0.126913,1.88477,-9.63789,-10.6122,0.385773,-19.8511
2023-03-15 15:39:17:657,0.137183,1.89489,-9.67659,-10.6254,0.375311,-19.8614
2023-03-15 15:39:17:667,0.145573,1.88144,-9.71735,-10.6366,0.362184,-19.8657
2023-03-15 15:39:17:677,0.109592,1.8843,-9.69719,-10.6414,0.346114,-19.8734
2023-03-15 15:39:17:687,0.0759565,1.8734,-9.65409,-10.6454,0.329978,-19.8812
2023-03-15 15:39:17:697,0.0667398,1.84666,-9.61759,-10.6436,0.314355,-19.888
2023-03-15 15:39:17:707,0.0579679,1.82458,-9.56018,-10.6413,0.299753,-19.8999
2023-03-15 15:39:17:717,0.0490418,1.81441,-9.52521,-10.6399,0.283346,-19.9081
2023-03-15 15:39:17:727,0.0554194,1.80969,-9.51487,-10.6391,0.268159,-19.919
2023-03-15 15:39:17:737,0.0740399,1.81692,-9.51364,-10.6428,0.252995,-19.9304
2023-03-15 15:39:17:747,0.0711636,1.8266,-9.54677,-10.6533,0.23529,-19.9401
2023-03-15 15:39:17:757,0.071919,1.84881,-9.57846,-10.6635,0.217185,-19.9502
2023-03-15 15:39:17:767,0.0903709,1.84772,-9.5745,-10.6729,0.200935,-19.9618
2023-03-15 15:39:17:776,0.0789115,1.85785,-9.57152,-10.6851,0.186127,-19.9707
2023-03-15 15:39:17:786,0.0450764,1.87915,-9.572,-10.6991,0.170263,-19.9765
2023-03-15 15:39:17:797,0.0272374,1.87085,-9.55497,-10.71,0.155113,-19.9827
2023-03-15 15:39:17:806,0.0289142,1.85374,-9.54906,-10.7218,0.143669,-19.9883
2023-03-15 15:39:17:816,0.0247739,1.8625,-9.55807,-10.7321,0.138131,-19.9922
2023-03-15 15:39:17:827,0.0494071,1.88398,-9.58076,-10.7426,0.133825,-19.9919
2023-03-15 15:39:17:837,0.0915996,1.89856,-9.59441,-10.7557,0.131593,-19.99
2023-03-15 15:39:17:847,0.122515,1.90545,-9.63908,-10.7703,0.122951,-19.9877
2023-03-15 15:39:17:857,0.130682,1.9121,-9.66037,-10.7826,0.113721,-19.9782
2023-03-15 15:39:17:867,0.122618,1.92433,-9.67447,-10.7956,0.100191,-19.9685
2023-03-15 15:39:17:877,0.081675,1.94665,-9.67822,-10.8068,0.083544,-19.9579
2023-03-15 15:39:17:887,0.0237473,1.93522,-9.7127,-10.813,0.0688266,-19.9457
2023-03-15 15:39:17:897,0.0250418,1.94498,-9.71487,-10.8122,0.0565445,-19.9348
2023-03-15 15:39:17:906,0.0247181,1.93542,-9.67911,-10.8037,0.0401149,-19.9253
2023-03-15 15:39:17:916,0.0178451,1.90901,-9.65176,-10.7951,0.0268837,-19.9128
2023-03-15 15:39:17:927,-0.00573985,1.8986,-9.60844,-10.7831,0.0165975,-19.8983
2023-03-15 15:39:17:937,-0.0206952,1.86473,-9.57079,-10.7651,0.00619973,-19.8821
2023-03-15 15:39:17:947,-0.0414474,1.85263,-9.52691,-10.7517,-0.00315122,-19.8709
2023-03-15 15:39:17:957,-0.0659197,1.85738,-9.49276,-10.7427,-0.0139357,-19.8574
2023-03-15 15:39:17:967,-0.0572766,1.85323,-9.46921,-10.737,-0.0192005,-19.8464
2023-03-15 15:39:17:977,-0.0470744,1.86387,-9.48398,-10.7336,-0.0242375,-19.8364
2023-03-15 15:39:17:987,-0.0216164,1.88001,-9.54397,-10.736,-0.0319249,-19.8264
2023-03-15 15:39:17:997,-0.00863041,1.91197,-9.61016,-10.7383,-0.0408993,-19.8191
2023-03-15 15:39:18:7,-0.040379,1.92293,-9.6421,-10.7414,-0.0563381,-19.8102
2023-03-15 15:39:18:17,-0.0714268,1.94348,-9.6577,-10.7382,-0.0715365,-19.8046
2023-03-15 15:39:18:27,-0.0843361,1.92801,-9.6872,-10.734,-0.0872893,-19.7996
2023-03-15 15:39:18:37,-0.0854961,1.92354,-9.69625,-10.7261,-0.10351,-19.7949
2023-03-15 15:39:18:47,-0.0842119,1.90442,-9.69033,-10.7114,-0.120009,-19.7912
2023-03-15 15:39:18:57,-0.108064,1.88493,-9.65906,-10.6934,-0.133008,-19.7864
2023-03-15 15:39:18:67,-0.117998,1.86513,-9.60521,-10.673,-0.143101,-19.7812
2023-03-15 15:39:18:77,-0.134798,1.85016,-9.58265,-10.6531,-0.149789,-19.7784
2023-03-15 15:39:18:87,-0.138159,1.8292,-9.56522,-10.6324,-0.152556,-19.7765
2023-03-15 15:39:18:97,-0.150966,1.8253,-9.56061,-10.6121,-0.156122,-19.7757
2023-03-15 15:39:18:107,-0.145487,1.81443,-9.54633,-10.5923,-0.154361,-19.7785
2023-03-15 15:39:18:117,-0.110935,1.81506,-9.56114,-10.5746,-0.15382,-19.7859
2023-03-15 15:39:18:127,-0.0793344,1.79593,-9.60072,-10.5587,-0.155373,-19.7926
2023-03-15 15:39:18:137,-0.0603456,1.79288,-9.59077,-10.542,-0.160516,-19.7989
2023-03-15 15:39:18:147,-0.0570282,1.77741,-9.57952,-10.5241,-0.16661,-19.8072
2023-03-15 15:39:18:157,-0.0794932,1.77165,-9.57747,-10.5071,-0.1771,-19.8162
2023-03-15 15:39:18:167,-0.0880369,1.75856,-9.59054,-10.4893,-0.181276,-19.8241
2023-03-15 15:39:18:177,-0.0844157,1.7513,-9.58616,-10.4698,-0.182756,-19.8349
2023-03-15 15:39:18:187,-0.071283,1.74382,-9.58943,-10.4557,-0.179469,-19.8459
2023-03-15 15:39:18:197,-0.054141,1.72683,-9.57971,-10.4414,-0.178452,-19.8545
2023-03-15 15:39:18:207,-0.0543084,1.71876,-9.5657,-10.4314,-0.172512,-19.8626
2023-03-15 15:39:18:217,-0.0431924,1.71264,-9.57934,-10.4194,-0.161538,-19.8685
2023-03-15 15:39:18:227,-0.0474056,1.70479,-9.56871,-10.4078,-0.152676,-19.8707
2023-03-15 15:39:18:237,-0.0481948,1.68915,-9.57974,-10.3957,-0.142826,-19.8769
2023-03-15 15:39:18:247,-0.0369891,1.69252,-9.58401,-10.387,-0.134666,-19.8826
2023-03-15 15:39:18:257,-0.0412257,1.69957,-9.56389,-10.3797,-0.127618,-19.8937
2023-03-15 15:39:18:267,-0.02116,1.69826,-9.54827,-10.3756,-0.121405,-19.9049
2023-03-15 15:39:18:277,0.0044879,1.70577,-9.53185,-10.3722,-0.116452,-19.9153
2023-03-15 15:39:18:287,0.00708193,1.69653,-9.50407,-10.3708,-0.114418,-19.9295
2023-03-15 15:39:18:297,0.033271,1.70812,-9.50935,-10.3741,-0.113544,-19.9454
2023-03-15 15:39:18:306,0.0601801,1.71551,-9.54083,-10.3849,-0.111983,-19.9604
2023-03-15 15:39:18:316,0.0617634,1.72467,-9.56905,-10.3942,-0.114772,-19.9742
2023-03-15 15:39:18:327,0.0339636,1.75393,-9.59959,-10.4054,-0.117231,-19.9851
2023-03-15 15:39:18:337,0.0203844,1.76351,-9.6554,-10.4153,-0.124841,-19.9941
2023-03-15 15:39:18:347,0.0113103,1.77004,-9.68042,-10.4268,-0.12442,-20.0021
2023-03-15 15:39:18:357,0.0073522,1.77736,-9.68764,-10.43,-0.123092,-20.0081
2023-03-15 15:39:18:367,-0.000332851,1.75361,-9.65952,-10.4292,-0.119036,-20.0121
2023-03-15 15:39:18:377,-0.0242877,1.74209,-9.62327,-10.4268,-0.11557,-20.013
2023-03-15 15:39:18:387,-0.0333837,1.73079,-9.60153,-10.4217,-0.106686,-20.0158
2023-03-15 15:39:18:397,-0.0169592,1.72147,-9.59573,-10.4257,-0.0978978,-20.0195
2023-03-15 15:39:18:407,-0.0306439,1.74047,-9.60331,-10.4284,-0.0965268,-20.0272
2023-03-15 15:39:18:417,-0.0426867,1.75518,-9.59887,-10.4348,-0.100813,-20.0382
2023-03-15 15:39:18:427,-0.0540699,1.76692,-9.57317,-10.444,-0.106122,-20.0523
2023-03-15 15:39:18:437,-0.0467962,1.76672,-9.55758,-10.4545,-0.115448,-20.0769
2023-03-15 15:39:18:447,-0.049833,1.794,-9.57514,-10.4652,-0.130538,-20.1027
2023-03-15 15:39:18:457,-0.0565571,1.82282,-9.60134,-10.4763,-0.147067,-20.1381
2023-03-15 15:39:18:467,-0.0537587,1.81797,-9.59656,-10.4855,-0.164573,-20.1756
2023-03-15 15:39:18:477,-0.0237729,1.82586,-9.61354,-10.4915,-0.184415,-20.2141
2023-03-15 15:39:18:487,-0.00733583,1.8192,-9.62626,-10.5002,-0.202093,-20.2526
2023-03-15 15:39:18:497,-0.0114623,1.80869,-9.61635,-10.5026,-0.217156,-20.286
2023-03-15 15:39:18:507,-0.0205626,1.79149,-9.61113,-10.5058,-0.230024,-20.3135
2023-03-15 15:39:18:517,-0.0256388,1.79665,-9.59658,-10.5097,-0.236425,-20.3422
2023-03-15 15:39:18:527,0.0172222,1.79335,-9.58955,-10.5159,-0.241281,-20.3711
2023-03-15 15:39:18:537,0.0599679,1.77809,-9.60777,-10.5213,-0.240343,-20.3862
2023-03-15 15:39:18:547,0.0792884,1.78867,-9.62969,-10.5305,-0.235552,-20.3958
2023-03-15 15:39:18:557,0.083249,1.79377,-9.63341,-10.5379,-0.232098,-20.4045
2023-03-15 15:39:18:567,0.0792794,1.80301,-9.64055,-10.5457,-0.230338,-20.4074
2023-03-15 15:39:18:577,0.0732888,1.80403,-9.62313,-10.5501,-0.225251,-20.4095
2023-03-15 15:39:18:587,0.0381941,1.79625,-9.61128,-10.5566,-0.221721,-20.4107
2023-03-15 15:39:18:597,0.0132262,1.80952,-9.59442,-10.5656,-0.220408,-20.4073
2023-03-15 15:39:18:607,-0.00308383,1.82736,-9.59856,-10.5732,-0.221385,-20.4057
2023-03-15 15:39:18:617,-0.0120401,1.83288,-9.59809,-10.5823,-0.22477,-20.4033
2023-03-15 15:39:18:627,-0.0111267,1.83517,-9.60331,-10.5927,-0.228905,-20.3981
2023-03-15 15:39:18:637,-0.01685,1.84178,-9.59931,-10.6015,-0.232851,-20.3937
2023-03-15 15:39:18:647,-0.0409955,1.83828,-9.60473,-10.6124,-0.236958,-20.3921
2023-03-15 15:39:18:657,-0.0446235,1.844,-9.60107,-10.6184,-0.237219,-20.3897
2023-03-15 15:39:18:667,-0.0421025,1.84847,-9.57158,-10.6193,-0.235861,-20.3878
2023-03-15 15:39:18:677,-0.0472141,1.83552,-9.56699,-10.6223,-0.228466,-20.3845
2023-03-15 15:39:18:687,-0.0123197,1.81704,-9.58414,-10.6262,-0.223046,-20.3818
2023-03-15 15:39:18:697,0.0241523,1.81097,-9.57289,-10.633,-0.214866,-20.3791
2023-03-15 15:39:18:707,0.0126758,1.80995,-9.55921,-10.639,-0.207533,-20.3724
2023-03-15 15:39:18:717,-0.00122145,1.82972,-9.57329,-10.6478,-0.199777,-20.369
2023-03-15 15:39:18:727,0.0293668,1.84145,-9.59225,-10.6594,-0.191462,-20.3656
2023-03-15 15:39:18:737,0.0420208,1.83978,-9.60122,-10.6655,-0.184022,-20.3574
2023-03-15 15:39:18:747,0.0517551,1.85212,-9.634,-10.6721,-0.176649,-20.3511
2023-03-15 15:39:18:757,0.073468,1.84809,-9.63769,-10.6757,-0.172807,-20.3427
2023-03-15 15:39:18:767,0.0996242,1.84232,-9.60759,-10.6777,-0.170436,-20.333
2023-03-15 15:39:18:777,0.0966426,1.82273,-9.58101,-10.6833,-0.169492,-20.3203
2023-03-15 15:39:18:787,0.0750277,1.82097,-9.54701,-10.6847,-0.169568,-20.3077
2023-03-15 15:39:18:797,0.0475265,1.83653,-9.55491,-10.6908,-0.171763,-20.2942
2023-03-15 15:39:18:807,0.0496939,1.84452,-9.54881,-10.6988,-0.173811,-20.2791
2023-03-15 15:39:18:816,0.0439655,1.84701,-9.549,-10.7107,-0.170349,-20.2637
2023-03-15 15:39:18:827,0.0306819,1.85351,-9.56716,-10.7194,-0.173021,-20.2453
2023-03-15 15:39:18:837,0.0306497,1.86887,-9.59126,-10.7281,-0.174894,-20.2273
2023-03-15 15:39:18:847,0.0147194,1.88387,-9.60131,-10.7421,-0.179395,-20.2057
2023-03-15 15:39:18:857,-0.0280534,1.89507,-9.60117,-10.7569,-0.182205,-20.1885
2023-03-15 15:39:18:867,-0.0742124,1.91338,-9.56321,-10.7695,-0.186723,-20.1728
2023-03-15 15:39:18:877,-0.0717363,1.94636,-9.57021,-10.7837,-0.189004,-20.163
2023-03-15 15:39:18:887,-0.0582431,1.94136,-9.55434,-10.7986,-0.188223,-20.1517
2023-03-15 15:39:18:897,-0.0344733,1.94278,-9.54794,-10.8133,-0.191355,-20.1471
2023-03-15 15:39:18:907,-0.0231905,1.95999,-9.57363,-10.8275,-0.196728,-20.1421
2023-03-15 15:39:18:916,-0.00329572,1.96234,-9.62254,-10.8445,-0.201643,-20.1381
2023-03-15 15:39:18:927,0.00208971,1.9645,-9.67609,-10.8595,-0.209409,-20.1341
2023-03-15 15:39:18:937,-0.0256051,1.97841,-9.68996,-10.8704,-0.22411,-20.1311
2023-03-15 15:39:18:947,-0.0172866,1.95304,-9.68505,-10.8778,-0.238345,-20.1251
2023-03-15 15:39:18:957,-0.027918,1.9306,-9.64051,-10.8853,-0.261357,-20.1251
2023-03-15 15:39:18:967,-0.0543672,1.95617,-9.68282,-10.8921,-0.280154,-20.1249
2023-03-15 15:39:18:977,-0.0674038,1.9472,-9.68044,-10.8831,-0.295075,-20.1263
2023-03-15 15:39:18:987,-0.0367414,1.90402,-9.62675,-10.873,-0.299488,-20.1234
2023-03-15 15:39:18:997,-0.0395101,1.8764,-9.5998,-10.8612,-0.303191,-20.1185
2023-03-15 15:39:19:7,-0.0579438,1.85906,-9.59124,-10.8534,-0.310634,-20.1089
2023-03-15 15:39:19:17,-0.0475173,1.84993,-9.57037,-10.8482,-0.313882,-20.103
2023-03-15 15:39:19:27,-0.0436977,1.8452,-9.5914,-10.8427,-0.315691,-20.0927
2023-03-15 15:39:19:37,-0.0386804,1.84071,-9.61277,-10.837,-0.3222,-20.0817
2023-03-15 15:39:19:47,-0.0522835,1.82174,-9.59719,-10.8294,-0.331978,-20.0699
2023-03-15 15:39:19:57,-0.0849594,1.82284,-9.56732,-10.8205,-0.337065,-20.0595
2023-03-15 15:39:19:67,-0.100687,1.83231,-9.57565,-10.8124,-0.337274,-20.05
2023-03-15 15:39:19:77,-0.0983375,1.80797,-9.56127,-10.8066,-0.343182,-20.0423
2023-03-15 15:39:19:87,-0.102704,1.80737,-9.55447,-10.8024,-0.346695,-20.0346
2023-03-15 15:39:19:97,-0.0970908,1.82068,-9.54495,-10.8001,-0.348021,-20.0291
2023-03-15 15:39:19:107,-0.0931055,1.823,-9.51489,-10.7932,-0.354184,-20.0266
2023-03-15 15:39:19:116,-0.0767955,1.8142,-9.49214,-10.7909,-0.360616,-20.0217
2023-03-15 15:39:19:127,-0.0683778,1.79887,-9.47543,-10.7917,-0.367829,-20.0161
2023-03-15 15:39:19:137,-0.0779708,1.80924,-9.5024,-10.7982,-0.379671,-20.0144
2023-03-15 15:39:19:147,-0.0865668,1.84036,-9.52998,-10.8105,-0.391708,-20.0149
2023-03-15 15:39:19:157,-0.0986523,1.87371,-9.57011,-10.819,-0.402873,-20.0155
2023-03-15 15:39:19:167,-0.0819211,1.86839,-9.59622,-10.8273,-0.412963,-20.017
2023-03-15 15:39:19:177,-0.0842688,1.86337,-9.61346,-10.8344,-0.423272,-20.0154
2023-03-15 15:39:19:187,-0.0917017,1.87496,-9.59673,-10.8425,-0.430571,-20.015
2023-03-15 15:39:19:197,-0.107101,1.87087,-9.5847,-10.8534,-0.438832,-20.013
2023-03-15 15:39:19:207,-0.121129,1.89399,-9.60155,-10.8619,-0.447968,-20.0118
2023-03-15 15:39:19:217,-0.111564,1.90842,-9.61251,-10.8713,-0.450853,-20.0106
2023-03-15 15:39:19:227,-0.112306,1.90775,-9.61535,-10.8777,-0.457021,-20.0061
2023-03-15 15:39:19:237,-0.131552,1.90255,-9.62364,-10.8863,-0.462435,-20.0009
2023-03-15 15:39:19:247,-0.128053,1.90945,-9.61227,-10.8911,-0.464586,-19.9986
2023-03-15 15:39:19:257,-0.12241,1.90021,-9.60643,-10.8985,-0.46881,-19.9944
2023-03-15 15:39:19:267,-0.145142,1.91729,-9.6097,-10.9011,-0.468222,-19.9896
2023-03-15 15:39:19:277,-0.168677,1.90052,-9.58823,-10.8978,-0.467935,-19.982
2023-03-15 15:39:19:287,-0.167342,1.88953,-9.55808,-10.9004,-0.467253,-19.9762
2023-03-15 15:39:19:297,-0.169288,1.90234,-9.57103,-10.9019,-0.46334,-19.9747
2023-03-15 15:39:19:307,-0.157991,1.89755,-9.56909,-10.9057,-0.461425,-19.9754
2023-03-15 15:39:19:317,-0.147928,1.90224,-9.56418,-10.9098,-0.457878,-19.9769
2023-03-15 15:39:19:326,-0.165756,1.93227,-9.56764,-10.9139,-0.45358,-19.9759
2023-03-15 15:39:19:336,-0.152723,1.94356,-9.58009,-10.9179,-0.449621,-19.9798
2023-03-15 15:39:19:346,-0.127996,1.94078,-9.59851,-10.9234,-0.445317,-19.9846
2023-03-15 15:39:19:357,-0.118978,1.94468,-9.60431,-10.9274,-0.439802,-19.9905
2023-03-15 15:39:19:367,-0.119983,1.93568,-9.59605,-10.9287,-0.437146,-19.9965
2023-03-15 15:39:19:377,-0.0943455,1.94228,-9.60439,-10.9299,-0.432144,-20.0017
2023-03-15 15:39:19:387,-0.0897439,1.96956,-9.61172,-10.9328,-0.431299,-20.0107
2023-03-15 15:39:19:397,-0.0874686,1.96305,-9.62444,-10.9315,-0.424676,-20.0211
2023-03-15 15:39:19:406,-0.0859713,1.96285,-9.64021,-10.9311,-0.417193,-20.0338
2023-03-15 15:39:19:416,-0.123796,1.95045,-9.66523,-10.9246,-0.409649,-20.0434
2023-03-15 15:39:19:427,-0.102767,1.95205,-9.64696,-10.9148,-0.400212,-20.0512
2023-03-15 15:39:19:437,-0.0952222,1.93486,-9.63129,-10.9074,-0.386558,-20.0616
2023-03-15 15:39:19:447,-0.100848,1.91704,-9.61288,-10.8968,-0.373734,-20.0705
2023-03-15 15:39:19:457,-0.0921374,1.89973,-9.59137,-10.8813,-0.360138,-20.0772
2023-03-15 15:39:19:467,-0.0781317,1.88935,-9.57702,-10.8674,-0.346077,-20.0802
2023-03-15 15:39:19:477,-0.0834591,1.87078,-9.57257,-10.8511,-0.330846,-20.0863
2023-03-15 15:39:19:487,-0.0939888,1.87634,-9.57842,-10.8362,-0.315092,-20.089
2023-03-15 15:39:19:497,-0.082271,1.88817,-9.59369,-10.8213,-0.301479,-20.0939
2023-03-15 15:39:19:507,-0.0799945,1.87981,-9.58597,-10.8067,-0.283045,-20.1022
2023-03-15 15:39:19:517,-0.0793991,1.87195,-9.577,-10.7941,-0.268286,-20.1127
2023-03-15 15:39:19:527,-0.0719221,1.88041,-9.58224,-10.7803,-0.251364,-20.1242
2023-03-15 15:39:19:537,-0.0619152,1.85633,-9.57605,-10.7642,-0.234042,-20.1367
2023-03-15 15:39:19:547,-0.0436296,1.83976,-9.57453,-10.7502,-0.213527,-20.1517
2023-03-15 15:39:19:557,-0.0275422,1.84137,-9.58421,-10.7345,-0.195306,-20.1657
2023-03-15 15:39:19:567,-0.0104472,1.82214,-9.57252,-10.7194,-0.169648,-20.1826
2023-03-15 15:39:19:577,0.00856607,1.81089,-9.57778,-10.7042,-0.148993,-20.1963
2023-03-15 15:39:19:587,0.022805,1.80856,-9.58968,-10.6874,-0.128502,-20.2109
2023-03-15 15:39:19:597,0.00651631,1.79673,-9.58402,-10.6761,-0.110434,-20.2253
2023-03-15 15:39:19:606,0.0153487,1.78083,-9.57745,-10.6637,-0.0933433,-20.2381
2023-03-15 15:39:19:616,0.0342799,1.78959,-9.57688,-10.6496,-0.0755249,-20.2522
2023-03-15 15:39:19:627,0.0569567,1.79546,-9.60523,-10.6408,-0.0617627,-20.2689
2023-03-15 15:39:19:637,0.0807036,1.78307,-9.62334,-10.6278,-0.0449913,-20.2848
2023-03-15 15:39:19:647,0.110233,1.7914,-9.62573,-10.6133,-0.0315022,-20.2995
2023-03-15 15:39:19:657,0.125439,1.77569,-9.61615,-10.5994,-0.018879,-20.3108
2023-03-15 15:39:19:666,0.115151,1.75796,-9.57603,-10.5862,-0.00645051,-20.3214
2023-03-15 15:39:19:676,0.0986163,1.74268,-9.54064,-10.5716,-0.00140849,-20.333
2023-03-15 15:39:19:687,0.084524,1.72305,-9.53771,-10.5601,0.00655268,-20.3416
2023-03-15 15:39:19:697,0.0724125,1.71953,-9.53627,-10.5501,0.0180656,-20.3508
2023-03-15 15:39:19:707,0.0742434,1.71111,-9.54566,-10.5448,0.0268028,-20.3568
2023-03-15 15:39:19:716,0.0872012,1.72791,-9.55213,-10.5434,0.0376197,-20.3627
2023-03-15 15:39:19:727,0.0887144,1.73869,-9.57825,-10.5468,0.0482578,-20.3716
2023-03-15 15:39:19:737,0.0937762,1.76135,-9.59229,-10.5536,0.0545746,-20.3799
2023-03-15 15:39:19:747,0.0757544,1.78111,-9.58726,-10.5602,0.0605723,-20.3892
2023-03-15 15:39:19:756,0.0672096,1.77915,-9.56979,-10.5682,0.063348,-20.4021
2023-03-15 15:39:19:766,0.0573542,1.79363,-9.56351,-10.5737,0.067749,-20.4188
2023-03-15 15:39:19:776,0.0504748,1.80464,-9.54888,-10.5846,0.0702244,-20.434
2023-03-15 15:39:19:786,0.0732876,1.81882,-9.55163,-10.5978,0.0764102,-20.4531
2023-03-15 15:39:19:796,0.111576,1.80866,-9.58152,-10.6117,0.0772202,-20.468
2023-03-15 15:39:19:806,0.124042,1.81988,-9.6045,-10.6255,0.0785086,-20.4829
2023-03-15 15:39:19:817,0.124777,1.83852,-9.60924,-10.6414,0.0777365,-20.4959
2023-03-15 15:39:19:827,0.122613,1.83402,-9.59004,-10.6536,0.0781924,-20.5088
2023-03-15 15:39:19:836,0.122347,1.82391,-9.5912,-10.6616,0.0721554,-20.5181
2023-03-15 15:39:19:847,0.11011,1.83009,-9.60961,-10.6722,0.0702995,-20.5268
2023-03-15 15:39:19:857,0.111096,1.83504,-9.58076,-10.685,0.0674224,-20.5311
2023-03-15 15:39:19:867,0.115184,1.83513,-9.5605,-10.6964,0.0673184,-20.534
2023-03-15 15:39:19:877,0.126225,1.83748,-9.57719,-10.7096,0.0680723,-20.5315
2023-03-15 15:39:19:886,0.108301,1.86143,-9.5996,-10.7218,0.0660683,-20.5254
2023-03-15 15:39:19:897,0.0708042,1.87341,-9.6138,-10.7395,0.0661418,-20.5212
2023-03-15 15:39:19:906,0.0614179,1.9078,-9.62491,-10.7533,0.0645205,-20.5145
2023-03-15 15:39:19:917,0.0666775,1.90839,-9.64234,-10.7612,0.0647421,-20.505
2023-03-15 15:39:19:927,0.0847025,1.89492,-9.65252,-10.7686,0.0641928,-20.4902
2023-03-15 15:39:19:937,0.062046,1.89826,-9.63542,-10.7715,0.062326,-20.4781
2023-03-15 15:39:19:947,0.0306843,1.87355,-9.61151,-10.7723,0.0619404,-20.4648
2023-03-15 15:39:19:957,0.00400256,1.86122,-9.57571,-10.7714,0.0608307,-20.4453
2023-03-15 15:39:19:967,-0.0124618,1.85389,-9.58954,-10.77,0.0621862,-20.4278
2023-03-15 15:39:19:977,-0.031155,1.86094,-9.6104,-10.7796,0.0644906,-20.4106
2023-03-15 15:39:19:987,-0.0364484,1.87497,-9.6295,-10.7826,0.0703408,-20.3987
2023-03-15 15:39:19:997,-0.0298759,1.89108,-9.65197,-10.7828,0.0780911,-20.3862
2023-03-15 15:39:20:6,-0.0115928,1.88676,-9.64102,-10.7825,0.0841106,-20.3743
2023-03-15 15:39:20:16,0.00104399,1.8872,-9.61713,-10.7808,0.0883662,-20.3671
2023-03-15 15:39:20:27,0.00688587,1.87945,-9.60401,-10.7772,0.0932934,-20.3601
2023-03-15 15:39:20:37,0.00359838,1.8714,-9.56562,-10.7764,0.0959142,-20.3541
2023-03-15 15:39:20:47,0.00471747,1.86744,-9.5584,-10.775,0.0953873,-20.3481
2023-03-15 15:39:20:57,0.00836556,1.86755,-9.57686,-10.7738,0.0917865,-20.347
2023-03-15 15:39:20:67,0.0223428,1.88206,-9.58827,-10.7773,0.0918278,-20.3464
2023-03-15 15:39:20:77,0.0420587,1.88343,-9.6078,-10.7822,0.0925116,-20.3432
2023-03-15 15:39:20:87,0.0491673,1.88306,-9.62581,-10.7839,0.0911877,-20.3408
2023-03-15 15:39:20:97,0.0617866,1.88185,-9.62756,-10.7828,0.090267,-20.3332
2023-03-15 15:39:20:107,0.0652002,1.85809,-9.6321,-10.7791,0.089947,-20.3202
2023-03-15 15:39:20:117,0.0656314,1.85264,-9.59978,-10.7722,0.092904,-20.3071
2023-03-15 15:39:20:126,0.049823,1.85905,-9.58958,-10.7693,0.0934236,-20.2901
2023-03-15 15:39:20:137,0.0178503,1.86424,-9.57986,-10.7636,0.0929683,-20.2745
2023-03-15 15:39:20:147,0.00251318,1.83715,-9.56731,-10.7579,0.0930732,-20.2561
2023-03-15 15:39:20:157,-0.0237698,1.84305,-9.57088,-10.7536,0.0890422,-20.2383
2023-03-15 15:39:20:167,-0.0438873,1.83132,-9.59309,-10.7509,0.0873108,-20.2192
2023-03-15 15:39:20:177,-0.0580427,1.82687,-9.60769,-10.7465,0.0865219,-20.2027
2023-03-15 15:39:20:187,-0.080835,1.82239,-9.60548,-10.7408,0.0874344,-20.1927
2023-03-15 15:39:20:197,-0.109703,1.82287,-9.59342,-10.7337,0.0861183,-20.1826
2023-03-15 15:39:20:207,-0.104334,1.80939,-9.58481,-10.7251,0.0869023,-20.1805
2023-03-15 15:39:20:217,-0.0766635,1.80497,-9.56681,-10.7166,0.0882333,-20.1802
2023-03-15 15:39:20:227,-0.0663714,1.7986,-9.56193,-10.7074,0.0904397,-20.1836
2023-03-15 15:39:20:237,-0.0407485,1.78487,-9.56635,-10.7012,0.0906829,-20.1933
2023-03-15 15:39:20:247,-0.00803083,1.78584,-9.55664,-10.699,0.0918886,-20.2008
2023-03-15 15:39:20:257,-0.00241822,1.78833,-9.54615,-10.6989,0.0901978,-20.212
2023-03-15 15:39:20:267,0.00997893,1.77101,-9.53727,-10.7003,0.0881336,-20.2229
2023-03-15 15:39:20:277,0.0340779,1.75978,-9.53982,-10.7043,0.088576,-20.234
2023-03-15 15:39:20:287,0.035126,1.77855,-9.51266,-10.7132,0.0871905,-20.2406
2023-03-15 15:39:20:297,0.0325015,1.78905,-9.52167,-10.7239,0.0881373,-20.2512
2023-03-15 15:39:20:307,0.0497701,1.80751,-9.54167,-10.7369,0.0887372,-20.2605
2023-03-15 15:39:20:317,0.0705597,1.82078,-9.54731,-10.7529,0.0906058,-20.2658
2023-03-15 15:39:20:327,0.07341,1.83929,-9.57023,-10.7714,0.0924599,-20.2719
2023-03-15 15:39:20:337,0.0710945,1.86018,-9.58354,-10.7929,0.0954506,-20.2778
2023-03-15 15:39:20:347,0.0567001,1.86735,-9.599,-10.8143,0.0950238,-20.2801
2023-03-15 15:39:20:356,0.0437057,1.89568,-9.63561,-10.8335,0.0969262,-20.284
2023-03-15 15:39:20:366,0.0434178,1.915,-9.63659,-10.8486,0.0996104,-20.2905
2023-03-15 15:39:20:377,0.0355638,1.93139,-9.64106,-10.8651,0.0988024,-20.2991
2023-03-15 15:39:20:387,0.0173584,1.94152,-9.64741,-10.8783,0.0975215,-20.306
2023-03-15 15:39:20:397,0.0137862,1.93496,-9.63566,-10.8867,0.0908011,-20.3154
2023-03-15 15:39:20:407,0.0220876,1.93466,-9.62268,-10.8962,0.0845413,-20.3198
2023-03-15 15:39:20:417,0.0115041,1.94429,-9.62083,-10.9049,0.0816297,-20.3289
2023-03-15 15:39:20:427,0.000959873,1.93436,-9.60841,-10.9129,0.0817463,-20.3382
2023-03-15 15:39:20:437,0.00976452,1.94295,-9.61756,-10.9215,0.0765711,-20.3491
2023-03-15 15:39:20:447,0.0139241,1.96026,-9.63903,-10.9288,0.0743328,-20.3599
2023-03-15 15:39:20:457,0.00922409,1.95773,-9.635,-10.9334,0.0703632,-20.3675
2023-03-15 15:39:20:467,-0.00139741,1.97077,-9.65792,-10.9354,0.0678672,-20.376
2023-03-15 15:39:20:477,-0.00472088,1.96622,-9.66516,-10.9356,0.0696639,-20.3819
2023-03-15 15:39:20:487,-0.0107887,1.94797,-9.64188,-10.9319,0.0702886,-20.3867
2023-03-15 15:39:20:497,-0.0374001,1.94233,-9.60108,-10.926,0.0724287,-20.3951
2023-03-15 15:39:20:507,-0.0464216,1.9203,-9.57766,-10.9176,0.0758824,-20.4035
2023-03-15 15:39:20:517,-0.0326836,1.90246,-9.59524,-10.9103,0.0799786,-20.4129
2023-03-15 15:39:20:527,-0.0123431,1.89697,-9.61191,-10.9006,0.080768,-20.4254
2023-03-15 15:39:20:537,0.00260439,1.89793,-9.62335,-10.8885,0.0816833,-20.4386
2023-03-15 15:39:20:547,0.0325202,1.88389,-9.63576,-10.8764,0.0828851,-20.4493
2023-03-15 15:39:20:557,0.0479333,1.87185,-9.6391,-10.8621,0.084546,-20.4618
2023-03-15 15:39:20:567,0.0500737,1.8461,-9.61011,-10.8471,0.0838741,-20.4762
2023-03-15 15:39:20:577,0.0270363,1.8322,-9.57222,-10.8305,0.0842413,-20.4881
2023-03-15 15:39:20:587,0.0195341,1.83532,-9.56185,-10.8197,0.0825627,-20.5036
2023-03-15 15:39:20:597,0.0425179,1.84119,-9.58111,-10.8098,0.0816855,-20.5198
2023-03-15 15:39:20:607,0.0812383,1.83778,-9.59002,-10.7963,0.0873524,-20.5336
2023-03-15 15:39:20:617,0.103661,1.82155,-9.58376,-10.7849,0.0904832,-20.5437
2023-03-15 15:39:20:627,0.121344,1.82191,-9.56325,-10.7731,0.0956765,-20.5517
2023-03-15 15:39:20:637,0.104378,1.82055,-9.55309,-10.7626,0.100954,-20.5579
2023-03-15 15:39:20:647,0.0779826,1.81625,-9.51506,-10.7528,0.109165,-20.5639
2023-03-15 15:39:20:657,0.0754583,1.82036,-9.48242,-10.7463,0.117019,-20.5729
2023-03-15 15:39:20:667,0.0769673,1.82945,-9.47777,-10.7422,0.125863,-20.5837
2023-03-15 15:39:20:677,0.0999493,1.8333,-9.50992,-10.7482,0.133486,-20.5969
2023-03-15 15:39:20:687,0.12894,1.8381,-9.53354,-10.7508,0.142329,-20.605
2023-03-15 15:39:20:697,0.136008,1.84034,-9.55489,-10.7551,0.145875,-20.6126
2023-03-15 15:39:20:707,0.127794,1.85819,-9.58978,-10.7577,0.144566,-20.6207
2023-03-15 15:39:20:717,0.111169,1.85659,-9.59878,-10.7623,0.138958,-20.6223
2023-03-15 15:39:20:727,0.0949822,1.86543,-9.61626,-10.7653,0.133744,-20.6289
2023-03-15 15:39:20:737,0.0881262,1.86944,-9.62627,-10.7702,0.132494,-20.633
2023-03-15 15:39:20:747,0.106161,1.84977,-9.64032,-10.7717,0.125148,-20.6337
2023-03-15 15:39:20:756,0.0978081,1.85776,-9.632,-10.7697,0.120244,-20.6306
2023-03-15 15:39:20:766,0.0899477,1.86167,-9.60426,-10.7665,0.115928,-20.6296
2023-03-15 15:39:20:776,0.064342,1.84026,-9.59334,-10.7647,0.11284,-20.62
2023-03-15 15:39:20:786,0.0382315,1.84036,-9.58924,-10.7639,0.109779,-20.6096
2023-03-15 15:39:20:796,0.020074,1.86601,-9.5874,-10.7646,0.107179,-20.5991
2023-03-15 15:39:20:806,0.0158419,1.8734,-9.57668,-10.7638,0.109051,-20.5928
2023-03-15 15:39:20:817,0.0149045,1.86478,-9.60195,-10.7625,0.109628,-20.5847
2023-03-15 15:39:20:827,0.0252605,1.87661,-9.61657,-10.7629,0.104574,-20.5756
2023-03-15 15:39:20:837,0.00965673,1.8683,-9.60191,-10.7572,0.101898,-20.5688
2023-03-15 15:39:20:847,-0.00372315,1.85779,-9.59304,-10.7529,0.0965312,-20.5622
2023-03-15 15:39:20:857,-0.0258335,1.87215,-9.57949,-10.7503,0.0916648,-20.5578
2023-03-15 15:39:20:866,-0.0199513,1.85949,-9.58882,-10.7493,0.0893865,-20.5512
2023-03-15 15:39:20:876,-0.0110846,1.86678,-9.58034,-10.7493,0.0846497,-20.5476
2023-03-15 15:39:20:886,-0.00212124,1.86013,-9.58081,-10.7465,0.0789194,-20.5431
2023-03-15 15:39:20:897,0.0113264,1.85708,-9.59198,-10.7482,0.075852,-20.5407
2023-03-15 15:39:20:907,0.0173171,1.86857,-9.59874,-10.7445,0.0752134,-20.5372
2023-03-15 15:39:20:916,0.0108248,1.87101,-9.5939,-10.7442,0.0758847,-20.533
2023-03-15 15:39:20:927,0.016607,1.89198,-9.57735,-10.7468,0.0729006,-20.5273
2023-03-15 15:39:20:937,0.0147242,1.8842,-9.58817,-10.7444,0.0678182,-20.5222
2023-03-15 15:39:20:947,0.0210383,1.88673,-9.61373,-10.7413,0.0612234,-20.5133
2023-03-15 15:39:20:957,0.0214688,1.90951,-9.63397,-10.7403,0.053285,-20.5094
2023-03-15 15:39:20:967,0.0172154,1.90604,-9.63602,-10.7364,0.0473234,-20.5061
2023-03-15 15:39:20:977,0.00837091,1.8879,-9.62886,-10.7279,0.0411108,-20.5005
2023-03-15 15:39:20:987,0.0144309,1.88366,-9.61771,-10.7218,0.0337287,-20.4943
2023-03-15 15:39:20:997,0.00772877,1.86549,-9.60374,-10.7113,0.0239575,-20.4906
2023-03-15 15:39:21:7,-0.0142404,1.86136,-9.57639,-10.7001,0.0169937,-20.485
2023-03-15 15:39:21:17,-0.0525247,1.85602,-9.58099,-10.6921,0.00914662,-20.4796
2023-03-15 15:39:21:27,-0.0602818,1.85201,-9.59989,-10.6831,0.00241605,-20.4745
2023-03-15 15:39:21:37,-0.0603647,1.85613,-9.6077,-10.672,-0.00668885,-20.4727
2023-03-15 15:39:21:47,-0.0700746,1.84515,-9.61606,-10.6611,-0.00823536,-20.4672
2023-03-15 15:39:21:57,-0.0699312,1.84214,-9.62091,-10.6493,-0.0092693,-20.4688
2023-03-15 15:39:21:67,-0.0923587,1.84046,-9.61029,-10.6382,-0.0116313,-20.4705
2023-03-15 15:39:21:77,-0.0836911,1.81956,-9.58609,-10.6266,-0.0156387,-20.4739
2023-03-15 15:39:21:87,-0.0748518,1.80559,-9.59942,-10.6151,-0.0194151,-20.4832
2023-03-15 15:39:21:97,-0.0612363,1.80951,-9.57085,-10.6026,-0.0255533,-20.4916
2023-03-15 15:39:21:107,-0.0500228,1.79295,-9.52544,-10.5976,-0.028387,-20.5052
2023-03-15 15:39:21:117,-0.0558352,1.79705,-9.51323,-10.594,-0.0359227,-20.521
2023-03-15 15:39:21:127,-0.0624937,1.80295,-9.52812,-10.5923,-0.0414976,-20.5391
2023-03-15 15:39:21:137,-0.0485191,1.78939,-9.50978,-10.5936,-0.0454289,-20.5607
2023-03-15 15:39:21:147,-0.0422569,1.79034,-9.51033,-10.5945,-0.0472599,-20.5845
2023-03-15 15:39:21:157,-0.0162317,1.79861,-9.55171,-10.602,-0.0486797,-20.6097
2023-03-15 15:39:21:167,0.0110245,1.80578,-9.59066,-10.6094,-0.051123,-20.6332
2023-03-15 15:39:21:177,0.0330461,1.80519,-9.63673,-10.6174,-0.0551141,-20.6518
2023-03-15 15:39:21:187,0.040575,1.80943,-9.64876,-10.6226,-0.0525849,-20.6739
2023-03-15 15:39:21:197,0.0166471,1.81938,-9.65676,-10.6262,-0.0555632,-20.6938
2023-03-15 15:39:21:207,0.0133416,1.82945,-9.67098,-10.6273,-0.0568006,-20.7132
2023-03-15 15:39:21:217,0.0292312,1.83329,-9.67295,-10.625,-0.0568905,-20.7298
2023-03-15 15:39:21:227,0.0111005,1.8339,-9.66627,-10.6199,-0.0572503,-20.7482
2023-03-15 15:39:21:237,0.0115199,1.81762,-9.64477,-10.6168,-0.0511713,-20.7672
2023-03-15 15:39:21:247,0.0340141,1.8161,-9.61627,-10.61,-0.0476479,-20.7821
2023-03-15 15:39:21:257,0.0421875,1.81228,-9.60189,-10.6024,-0.0431894,-20.8007
2023-03-15 15:39:21:267,0.0300127,1.8045,-9.59085,-10.5938,-0.0404425,-20.8143
2023-03-15 15:39:21:277,0.0364054,1.80632,-9.59474,-10.5891,-0.0422154,-20.8257
2023-03-15 15:39:21:287,0.0292541,1.81721,-9.59545,-10.5814,-0.0450542,-20.8414
2023-03-15 15:39:21:297,0.00461836,1.79887,-9.58138,-10.5735,-0.0451085,-20.8569
2023-03-15 15:39:21:307,0.0192855,1.79184,-9.58386,-10.5705,-0.0486639,-20.8714
2023-03-15 15:39:21:317,0.0659987,1.8067,-9.5945,-10.5645,-0.0503802,-20.8868
2023-03-15 15:39:21:327,0.0856142,1.79694,-9.58257,-10.5589,-0.0519582,-20.8961
2023-03-15 15:39:21:337,0.0735265,1.78126,-9.59916,-10.5569,-0.0549512,-20.9065
2023-03-15 15:39:21:347,0.0707119,1.80326,-9.62432,-10.5562,-0.053043,-20.9133
2023-03-15 15:39:21:357,0.087464,1.82806,-9.62194,-10.556,-0.050895,-20.9198
2023-03-15 15:39:21:367,0.106049,1.83227,-9.62808,-10.5541,-0.0517519,-20.9226
2023-03-15 15:39:21:376,0.0923366,1.83787,-9.62902,-10.5519,-0.0517739,-20.9255
2023-03-15 15:39:21:386,0.0644954,1.84666,-9.60037,-10.5487,-0.0540807,-20.9237
2023-03-15 15:39:21:397,0.0486151,1.83491,-9.59357,-10.5402,-0.0530846,-20.9231
2023-03-15 15:39:21:407,0.0472067,1.7993,-9.59679,-10.534,-0.0512378,-20.9193
2023-03-15 15:39:21:417,0.0321093,1.7994,-9.60426,-10.5287,-0.0492257,-20.9164
2023-03-15 15:39:21:427,0.0224345,1.77726,-9.6154,-10.52,-0.0486298,-20.9147
2023-03-15 15:39:21:437,0.0327894,1.74521,-9.6238,-10.5063,-0.0472817,-20.9106
2023-03-15 15:39:21:447,0.0732444,1.71957,-9.62328,-10.4953,-0.0479281,-20.9009
2023-03-15 15:39:21:457,0.0645945,1.71027,-9.57177,-10.4851,-0.0515003,-20.8912
2023-03-15 15:39:21:467,0.0251705,1.70372,-9.53554,-10.4774,-0.056548,-20.8833
2023-03-15 15:39:21:477,0.00237844,1.71094,-9.53363,-10.4752,-0.0632448,-20.8779
2023-03-15 15:39:21:487,0.00193613,1.73081,-9.54428,-10.4805,-0.0656446,-20.875
2023-03-15 15:39:21:497,0.0121072,1.7691,-9.56097,-10.4863,-0.0695482,-20.8713
2023-03-15 15:39:21:507,0.0358947,1.77562,-9.56904,-10.497,-0.0719087,-20.8665
2023-03-15 15:39:21:517,0.0339288,1.78372,-9.57831,-10.5038,-0.0778029,-20.8643
2023-03-15 15:39:21:527,0.0255519,1.80452,-9.58417,-10.5105,-0.0810674,-20.864
2023-03-15 15:39:21:537,0.0167064,1.81065,-9.57835,-10.5178,-0.0852077,-20.8649
2023-03-15 15:39:21:547,-0.0065683,1.84151,-9.55659,-10.5309,-0.092672,-20.869
2023-03-15 15:39:21:557,-0.0110693,1.85403,-9.53445,-10.5413,-0.102005,-20.8727
2023-03-15 15:39:21:567,-0.0140959,1.86768,-9.55194,-10.5572,-0.108575,-20.8777
2023-03-15 15:39:21:577,0.0030699,1.88167,-9.57946,-10.5715,-0.109847,-20.8856
2023-03-15 15:39:21:587,0.0355131,1.89252,-9.59875,-10.5819,-0.114995,-20.8923
2023-03-15 15:39:21:597,0.0448462,1.88873,-9.62285,-10.5966,-0.119949,-20.8964
2023-03-15 15:39:21:607,0.0211284,1.9342,-9.67096,-10.6105,-0.132304,-20.9002
2023-03-15 15:39:21:617,-0.00115859,1.93933,-9.68999,-10.625,-0.144494,-20.9092
2023-03-15 15:39:21:627,0.00988079,1.93419,-9.70233,-10.6294,-0.160203,-20.9159
2023-03-15 15:39:21:637,0.0183094,1.92949,-9.71944,-10.6285,-0.175783,-20.9215
2023-03-15 15:39:21:647,0.0195408,1.92989,-9.70477,-10.6271,-0.191321,-20.9264
2023-03-15 15:39:21:657,0.00966668,1.92523,-9.67359,-10.6222,-0.204564,-20.931
2023-03-15 15:39:21:667,-0.0101511,1.91101,-9.64612,-10.6143,-0.218911,-20.9397
2023-03-15 15:39:21:677,-0.0417214,1.89369,-9.6341,-10.6079,-0.231257,-20.9456
2023-03-15 15:39:21:687,-0.0659042,1.877,-9.64489,-10.5979,-0.244864,-20.953
2023-03-15 15:39:21:697,-0.0564215,1.88136,-9.63073,-10.5831,-0.254581,-20.9571
2023-03-15 15:39:21:707,-0.0445046,1.86654,-9.61966,-10.5692,-0.266933,-20.9592
2023-03-15 15:39:21:717,-0.0276364,1.85185,-9.61319,-10.5524,-0.277898,-20.9654
2023-03-15 15:39:21:727,-0.0479489,1.82543,-9.57616,-10.536,-0.289379,-20.9721
2023-03-15 15:39:21:737,-0.0858942,1.80874,-9.54484,-10.5198,-0.30228,-20.9763
2023-03-15 15:39:21:747,-0.116572,1.82218,-9.5372,-10.5047,-0.317156,-20.9833
2023-03-15 15:39:21:757,-0.133562,1.8211,-9.55187,-10.4951,-0.328889,-20.9965
2023-03-15 15:39:21:767,-0.135689,1.83645,-9.58861,-10.4859,-0.341097,-21.0081
2023-03-15 15:39:21:777,-0.115492,1.84218,-9.61457,-10.4771,-0.350901,-21.0224
2023-03-15 15:39:21:787,-0.121131,1.82314,-9.599,-10.464,-0.360027,-21.0408
2023-03-15 15:39:21:797,-0.131205,1.82264,-9.58006,-10.4516,-0.368446,-21.063
2023-03-15 15:39:21:807,-0.159559,1.82363,-9.56436,-10.4359,-0.380728,-21.0907
2023-03-15 15:39:21:817,-0.190512,1.81823,-9.54469,-10.421,-0.391493,-21.1247
2023-03-15 15:39:21:827,-0.17567,1.81079,-9.54497,-10.4065,-0.402479,-21.1619
2023-03-15 15:39:21:837,-0.130407,1.81062,-9.55859,-10.3927,-0.409123,-21.2067
2023-03-15 15:39:21:847,-0.114448,1.8034,-9.57073,-10.3847,-0.420725,-21.2588
2023-03-15 15:39:21:857,-0.108491,1.80493,-9.57964,-10.3764,-0.429918,-21.3149
2023-03-15 15:39:21:867,-0.0645165,1.78952,-9.59561,-10.3717,-0.443254,-21.373
2023-03-15 15:39:21:877,-0.0321166,1.79008,-9.60772,-10.3705,-0.458214,-21.4367
2023-03-15 15:39:21:886,-0.019847,1.80602,-9.60979,-10.3679,-0.477009,-21.5039
2023-03-15 15:39:21:896,0.0212075,1.80437,-9.63951,-10.3592,-0.495859,-21.5719
2023-03-15 15:39:21:906,0.0627172,1.81956,-9.65771,-10.3511,-0.518105,-21.6401
2023-03-15 15:39:21:917,0.0704914,1.81502,-9.65468,-10.3369,-0.54917,-21.7038
2023-03-15 15:39:21:927,0.0843516,1.80385,-9.62742,-10.3215,-0.585647,-21.7658
2023-03-15 15:39:21:937,0.0786473,1.79579,-9.62238,-10.3064,-0.623756,-21.8227
2023-03-15 15:39:21:947,0.0610828,1.79993,-9.6563,-10.2907,-0.665136,-21.8758
2023-03-15 15:39:21:957,0.044187,1.81749,-9.67503,-10.2744,-0.708999,-21.9276
2023-03-15 15:39:21:967,0.0474442,1.81156,-9.6748,-10.2545,-0.754171,-21.9758
2023-03-15 15:39:21:977,0.0284489,1.81388,-9.67469,-10.2326,-0.798795,-22.0168
2023-03-15 15:39:21:987,-0.0218825,1.82129,-9.67712,-10.2094,-0.84817,-22.059
2023-03-15 15:39:21:997,-0.0641614,1.82461,-9.66001,-10.1817,-0.900058,-22.0957
2023-03-15 15:39:22:7,-0.0970288,1.8089,-9.64806,-10.1543,-0.951139,-22.1293
2023-03-15 15:39:22:17,-0.136463,1.81966,-9.65315,-10.1252,-1.00163,-22.1605
2023-03-15 15:39:22:27,-0.159555,1.80891,-9.6522,-10.095,-1.05283,-22.1894
2023-03-15 15:39:22:37,-0.182499,1.8221,-9.65559,-10.0659,-1.09837,-22.2202
2023-03-15 15:39:22:47,-0.215821,1.82165,-9.67083,-10.0285,-1.14209,-22.248
2023-03-15 15:39:22:57,-0.228941,1.8189,-9.65274,-9.99013,-1.18742,-22.2787
2023-03-15 15:39:22:67,-0.239503,1.81046,-9.65558,-9.95092,-1.23044,-22.3063
2023-03-15 15:39:22:77,-0.276357,1.81477,-9.66521,-9.90899,-1.27589,-22.3373
2023-03-15 15:39:22:87,-0.291339,1.80449,-9.67726,-9.86609,-1.32031,-22.3708
2023-03-15 15:39:22:97,-0.310003,1.80512,-9.68867,-9.82174,-1.36633,-22.4084
2023-03-15 15:39:22:107,-0.320767,1.77633,-9.67867,-9.77299,-1.40885,-22.4442
2023-03-15 15:39:22:117,-0.336251,1.74459,-9.6566,-9.72094,-1.45246,-22.4808
2023-03-15 15:39:22:127,-0.356303,1.72859,-9.64008,-9.66579,-1.49425,-22.5188
2023-03-15 15:39:22:137,-0.358277,1.73162,-9.63293,-9.61333,-1.53641,-22.5614
2023-03-15 15:39:22:147,-0.338827,1.7112,-9.63011,-9.55707,-1.57092,-22.6041
2023-03-15 15:39:22:157,-0.335745,1.69428,-9.63038,-9.49959,-1.60898,-22.6458
2023-03-15 15:39:22:167,-0.332557,1.65474,-9.61228,-9.44028,-1.64506,-22.6896
2023-03-15 15:39:22:177,-0.342148,1.63681,-9.59748,-9.38312,-1.67775,-22.73
2023-03-15 15:39:22:187,-0.344029,1.60968,-9.58142,-9.32699,-1.70806,-22.7694
2023-03-15 15:39:22:197,-0.295198,1.59342,-9.56043,-9.27121,-1.7335,-22.8028
2023-03-15 15:39:22:207,-0.21875,1.56737,-9.56548,-9.21444,-1.75591,-22.8292
2023-03-15 15:39:22:217,-0.142504,1.53471,-9.59346,-9.159,-1.7763,-22.8527
2023-03-15 15:39:22:227,-0.081812,1.52012,-9.58711,-9.10805,-1.80063,-22.8642
2023-03-15 15:39:22:237,-0.0663159,1.49881,-9.55487,-9.05668,-1.82329,-22.8629
2023-03-15 15:39:22:247,-0.110893,1.4487,-9.49053,-9.01089,-1.84482,-22.85
2023-03-15 15:39:22:257,-0.131915,1.43785,-9.49269,-8.97307,-1.86478,-22.8334
2023-03-15 15:39:22:267,-0.132577,1.4537,-9.55793,-8.93769,-1.88636,-22.8079
2023-03-15 15:39:22:277,-0.17348,1.46837,-9.6186,-8.90668,-1.90036,-22.7791
2023-03-15 15:39:22:287,-0.175167,1.46932,-9.66144,-8.87299,-1.91491,-22.7393
2023-03-15 15:39:22:297,-0.152193,1.46333,-9.6696,-8.83901,-1.92764,-22.6972
2023-03-15 15:39:22:307,-0.16425,1.43116,-9.63052,-8.80273,-1.9469,-22.6498
2023-03-15 15:39:22:317,-0.21542,1.42169,-9.60812,-8.76656,-1.96774,-22.5993
2023-03-15 15:39:22:327,-0.255345,1.41172,-9.5885,-8.73648,-1.98851,-22.543
2023-03-15 15:39:22:337,-0.27378,1.40565,-9.58462,-8.70846,-2.00649,-22.4811
2023-03-15 15:39:22:347,-0.304606,1.40221,-9.60262,-8.68328,-2.02089,-22.4135
2023-03-15 15:39:22:357,-0.336132,1.42083,-9.61887,-8.6617,-2.03419,-22.3417
2023-03-15 15:39:22:367,-0.365338,1.42936,-9.61397,-8.64249,-2.04764,-22.2707
2023-03-15 15:39:22:377,-0.388086,1.41855,-9.60979,-8.62511,-2.06151,-22.1999
2023-03-15 15:39:22:387,-0.408291,1.42143,-9.60976,-8.61173,-2.07206,-22.1284
2023-03-15 15:39:22:397,-0.427797,1.42936,-9.59864,-8.5991,-2.0795,-22.0547
2023-03-15 15:39:22:406,-0.454165,1.44423,-9.57271,-8.58475,-2.08826,-21.9857
2023-03-15 15:39:22:417,-0.479429,1.42509,-9.55758,-8.57268,-2.0955,-21.9215
2023-03-15 15:39:22:427,-0.482262,1.43103,-9.57649,-8.56402,-2.10466,-21.8599
2023-03-15 15:39:22:437,-0.480425,1.44136,-9.56901,-8.5593,-2.117,-21.8023
2023-03-15 15:39:22:447,-0.492911,1.43778,-9.55385,-8.56052,-2.1273,-21.7516
2023-03-15 15:39:22:457,-0.486714,1.43269,-9.58968,-8.56126,-2.13987,-21.7065
2023-03-15 15:39:22:467,-0.476765,1.42532,-9.62091,-8.56212,-2.15097,-21.6644
2023-03-15 15:39:22:477,-0.481407,1.42735,-9.64936,-8.56733,-2.1641,-21.6246
2023-03-15 15:39:22:487,-0.47733,1.42838,-9.65159,-8.56872,-2.18034,-21.5886
2023-03-15 15:39:22:497,-0.470565,1.43499,-9.65656,-8.57128,-2.19513,-21.5498
2023-03-15 15:39:22:507,-0.460886,1.44196,-9.65711,-8.5764,-2.2057,-21.5144
2023-03-15 15:39:22:517,-0.4633,1.43381,-9.65388,-8.58108,-2.21152,-21.4821
2023-03-15 15:39:22:527,-0.466841,1.43988,-9.62652,-8.58411,-2.21654,-21.4455
2023-03-15 15:39:22:537,-0.467639,1.42504,-9.62709,-8.58702,-2.22422,-21.413
2023-03-15 15:39:22:547,-0.460577,1.42277,-9.62098,-8.59448,-2.22497,-21.3827
2023-03-15 15:39:22:557,-0.447153,1.44076,-9.61683,-8.6013,-2.22456,-21.3521
2023-03-15 15:39:22:567,-0.442968,1.43114,-9.65846,-8.60659,-2.2239,-21.3157
2023-03-15 15:39:22:577,-0.451593,1.44798,-9.65707,-8.61099,-2.2247,-21.2793
2023-03-15 15:39:22:587,-0.450314,1.46127,-9.66924,-8.61833,-2.22625,-21.2478
2023-03-15 15:39:22:597,-0.480309,1.48297,-9.67212,-8.62658,-2.22693,-21.2131
2023-03-15 15:39:22:607,-0.490706,1.47947,-9.67784,-8.62991,-2.23052,-21.1839
2023-03-15 15:39:22:617,-0.490944,1.45803,-9.65144,-8.63151,-2.2336,-21.1561
2023-03-15 15:39:22:627,-0.51068,1.46608,-9.60477,-8.63109,-2.24045,-21.1362
2023-03-15 15:39:22:637,-0.538185,1.45953,-9.59918,-8.63234,-2.24544,-21.1177
2023-03-15 15:39:22:647,-0.552286,1.44522,-9.5833,-8.63676,-2.25269,-21.107
2023-03-15 15:39:22:657,-0.530057,1.44389,-9.57987,-8.64512,-2.25598,-21.1009
2023-03-15 15:39:22:667,-0.510884,1.46544,-9.58943,-8.65617,-2.2575,-21.0974
2023-03-15 15:39:22:677,-0.508373,1.46852,-9.59533,-8.66632,-2.255,-21.0979
2023-03-15 15:39:22:687,-0.507997,1.478,-9.60277,-8.68044,-2.2551,-21.101
2023-03-15 15:39:22:697,-0.490313,1.48171,-9.63259,-8.69774,-2.25399,-21.1073
2023-03-15 15:39:22:707,-0.465602,1.49189,-9.6549,-8.71428,-2.25303,-21.1145
2023-03-15 15:39:22:717,-0.438814,1.50175,-9.65652,-8.72849,-2.25249,-21.1233
2023-03-15 15:39:22:727,-0.416417,1.5147,-9.65147,-8.74673,-2.24717,-21.1307
2023-03-15 15:39:22:737,-0.396786,1.52086,-9.65528,-8.76759,-2.24097,-21.1368
2023-03-15 15:39:22:747,-0.392494,1.51114,-9.65795,-8.77973,-2.23716,-21.1452
2023-03-15 15:39:22:757,-0.375424,1.51142,-9.64336,-8.7935,-2.23035,-21.1517
2023-03-15 15:39:22:767,-0.35476,1.53166,-9.67045,-8.80624,-2.22088,-21.1524
2023-03-15 15:39:22:777,-0.340366,1.53989,-9.68631,-8.81891,-2.21006,-21.1514
2023-03-15 15:39:22:787,-0.357148,1.5262,-9.6614,-8.83131,-2.19966,-21.1496
2023-03-15 15:39:22:797,-0.352696,1.52721,-9.65625,-8.84005,-2.18885,-21.1408
2023-03-15 15:39:22:807,-0.354404,1.53089,-9.65601,-8.8476,-2.17505,-21.136
2023-03-15 15:39:22:817,-0.366667,1.52206,-9.6353,-8.85802,-2.16361,-21.1246
2023-03-15 15:39:22:827,-0.35874,1.52858,-9.61295,-8.8671,-2.14706,-21.1166
2023-03-15 15:39:22:837,-0.336666,1.55177,-9.63171,-8.87849,-2.13291,-21.1048
2023-03-15 15:39:22:847,-0.328698,1.56452,-9.65369,-8.89053,-2.11407,-21.0971
2023-03-15 15:39:22:857,-0.324119,1.57145,-9.66984,-8.89924,-2.1015,-21.0831
2023-03-15 15:39:22:867,-0.318737,1.58055,-9.68528,-8.90887,-2.09013,-21.067
2023-03-15 15:39:22:877,-0.329468,1.5864,-9.68479,-8.9129,-2.07899,-21.0534
2023-03-15 15:39:22:887,-0.326708,1.5686,-9.67451,-8.91769,-2.06362,-21.0378
2023-03-15 15:39:22:897,-0.311865,1.5589,-9.65457,-8.92174,-2.05226,-21.0239
2023-03-15 15:39:22:906,-0.310735,1.55245,-9.66031,-8.92148,-2.03926,-21.0104
2023-03-15 15:39:22:917,-0.341061,1.56606,-9.65974,-8.92567,-2.02834,-20.9976
2023-03-15 15:39:22:927,-0.348814,1.56522,-9.65364,-8.92902,-2.01499,-20.9858
2023-03-15 15:39:22:937,-0.331191,1.56467,-9.64263,-8.93174,-2.00609,-20.9739
2023-03-15 15:39:22:947,-0.3171,1.55445,-9.64865,-8.93213,-1.99596,-20.9604
2023-03-15 15:39:22:957,-0.315081,1.55729,-9.6447,-8.93397,-1.98176,-20.9473
2023-03-15 15:39:22:967,-0.326273,1.5613,-9.65475,-8.93363,-1.97447,-20.9342
2023-03-15 15:39:22:977,-0.319135,1.54153,-9.65188,-8.93394,-1.96873,-20.9226
2023-03-15 15:39:22:987,-0.329323,1.54017,-9.63887,-8.93733,-1.95886,-20.9164
2023-03-15 15:39:22:997,-0.328542,1.53572,-9.6133,-8.93512,-1.94959,-20.9081
2023-03-15 15:39:23:7,-0.326311,1.53527,-9.60503,-8.93532,-1.94057,-20.9005
2023-03-15 15:39:23:17,-0.317622,1.53059,-9.60906,-8.93826,-1.93357,-20.8971
2023-03-15 15:39:23:27,-0.30833,1.52677,-9.58414,-8.94018,-1.92237,-20.8913
2023-03-15 15:39:23:37,-0.309471,1.52765,-9.59639,-8.94605,-1.91502,-20.8863
2023-03-15 15:39:23:47,-0.295271,1.54358,-9.60895,-8.95194,-1.90847,-20.8816
2023-03-15 15:39:23:57,-0.298284,1.54693,-9.6224,-8.95942,-1.90268,-20.8803
2023-03-15 15:39:23:67,-0.325331,1.54648,-9.63657,-8.96452,-1.89864,-20.8766
2023-03-15 15:39:23:77,-0.324092,1.55999,-9.63226,-8.97018,-1.89374,-20.878
2023-03-15 15:39:23:87,-0.322609,1.56422,-9.63457,-8.97705,-1.88624,-20.8789
2023-03-15 15:39:23:97,-0.339675,1.56621,-9.63522,-8.98461,-1.88056,-20.8775
2023-03-15 15:39:23:107,-0.340882,1.57606,-9.6372,-8.99386,-1.87477,-20.8776
2023-03-15 15:39:23:117,-0.34055,1.57673,-9.6028,-9.00608,-1.86649,-20.8822
2023-03-15 15:39:23:127,-0.353339,1.57011,-9.59687,-9.01503,-1.8559,-20.8852
2023-03-15 15:39:23:137,-0.359948,1.57467,-9.62799,-9.02442,-1.84379,-20.8937
2023-03-15 15:39:23:147,-0.341264,1.58374,-9.64924,-9.03987,-1.83254,-20.9018
2023-03-15 15:39:23:157,-0.306823,1.57981,-9.6728,-9.05059,-1.82168,-20.9122
2023-03-15 15:39:23:167,-0.269237,1.59009,-9.69247,-9.06039,-1.81302,-20.9243
2023-03-15 15:39:23:177,-0.255342,1.59717,-9.6899,-9.06607,-1.80609,-20.9347
2023-03-15 15:39:23:187,-0.258693,1.57545,-9.63838,-9.06818,-1.80349,-20.9463
2023-03-15 15:39:23:197,-0.258745,1.56936,-9.59534,-9.0706,-1.79619,-20.9571
2023-03-15 15:39:23:207,-0.261806,1.59234,-9.58844,-9.07693,-1.78984,-20.9713
2023-03-15 15:39:23:217,-0.269494,1.61101,-9.57856,-9.08496,-1.78169,-20.9846
2023-03-15 15:39:23:227,-0.259166,1.60573,-9.57815,-9.09607,-1.77181,-20.995
2023-03-15 15:39:23:237,-0.23854,1.62964,-9.6189,-9.11171,-1.76406,-21.0061
2023-03-15 15:39:23:247,-0.230092,1.6594,-9.63683,-9.12374,-1.7548,-21.015
2023-03-15 15:39:23:257,-0.239688,1.65889,-9.64135,-9.13537,-1.74468,-21.0182
2023-03-15 15:39:23:267,-0.265657,1.66793,-9.63155,-9.14611,-1.73868,-21.0178
2023-03-15 15:39:23:277,-0.303955,1.66927,-9.62207,-9.15741,-1.72999,-21.0235
2023-03-15 15:39:23:287,-0.30718,1.67442,-9.62952,-9.1713,-1.72006,-21.0251
2023-03-15 15:39:23:297,-0.300988,1.67676,-9.62757,-9.18002,-1.70637,-21.0264
2023-03-15 15:39:23:307,-0.266634,1.68453,-9.61961,-9.18864,-1.69156,-21.0267
2023-03-15 15:39:23:317,-0.253374,1.69597,-9.65495,-9.19773,-1.6739,-21.031
2023-03-15 15:39:23:327,-0.242002,1.71375,-9.66855,-9.20419,-1.65989,-21.0339
2023-03-15 15:39:23:337,-0.236293,1.72221,-9.68358,-9.21058,-1.64617,-21.0368
2023-03-15 15:39:23:346,-0.247525,1.71223,-9.70971,-9.21279,-1.63306,-21.0397
2023-03-15 15:39:23:357,-0.251222,1.69537,-9.7128,-9.21226,-1.62192,-21.0448
2023-03-15 15:39:23:367,-0.23208,1.67546,-9.67573,-9.20754,-1.60918,-21.0478
2023-03-15 15:39:23:377,-0.227287,1.65665,-9.64095,-9.20252,-1.6022,-21.0493
2023-03-15 15:39:23:386,-0.219594,1.63856,-9.63803,-9.19537,-1.59242,-21.0513
2023-03-15 15:39:23:397,-0.242905,1.63476,-9.65075,-9.18811,-1.5847,-21.0474
2023-03-15 15:39:23:407,-0.258472,1.62979,-9.66095,-9.18136,-1.57893,-21.0469
2023-03-15 15:39:23:417,-0.274895,1.64042,-9.64355,-9.17395,-1.57294,-21.0488
2023-03-15 15:39:23:426,-0.276087,1.60746,-9.63372,-9.16459,-1.56177,-21.0487
2023-03-15 15:39:23:437,-0.249292,1.61046,-9.66201,-9.15462,-1.55482,-21.0508
2023-03-15 15:39:23:447,-0.225381,1.62057,-9.67261,-9.14532,-1.54858,-21.0497
2023-03-15 15:39:23:457,-0.240256,1.60793,-9.61689,-9.13082,-1.54041,-21.053
2023-03-15 15:39:23:467,-0.262843,1.58164,-9.59371,-9.11751,-1.53344,-21.0526
2023-03-15 15:39:23:477,-0.268434,1.5679,-9.57735,-9.10945,-1.5266,-21.0539
2023-03-15 15:39:23:487,-0.273987,1.59153,-9.55875,-9.10356,-1.51624,-21.0597
2023-03-15 15:39:23:497,-0.25856,1.58547,-9.56537,-9.1016,-1.50731,-21.0659
2023-03-15 15:39:23:507,-0.219494,1.59183,-9.58439,-9.10008,-1.49516,-21.0734
2023-03-15 15:39:23:517,-0.182777,1.61238,-9.59429,-9.09849,-1.48606,-21.0796
2023-03-15 15:39:23:527,-0.177097,1.62042,-9.59164,-9.09912,-1.47656,-21.0858
2023-03-15 15:39:23:537,-0.18669,1.62941,-9.63134,-9.09856,-1.46929,-21.0914
2023-03-15 15:39:23:547,-0.193589,1.64224,-9.67192,-9.09996,-1.46635,-21.0961
2023-03-15 15:39:23:557,-0.19944,1.66251,-9.67366,-9.10177,-1.46121,-21.1019
2023-03-15 15:39:23:567,-0.189083,1.64941,-9.67719,-9.10029,-1.45774,-21.1048
2023-03-15 15:39:23:577,-0.192781,1.64271,-9.69368,-9.09504,-1.4525,-21.1058
2023-03-15 15:39:23:587,-0.193692,1.6435,-9.6849,-9.08763,-1.45067,-21.1072
2023-03-15 15:39:23:597,-0.207564,1.63039,-9.66879,-9.07787,-1.44766,-21.1087
2023-03-15 15:39:23:607,-0.203144,1.60481,-9.65849,-9.06735,-1.44518,-21.1028
2023-03-15 15:39:23:617,-0.217223,1.61319,-9.66276,-9.05541,-1.44633,-21.0965
2023-03-15 15:39:23:627,-0.227211,1.60535,-9.6717,-9.04584,-1.44289,-21.0863
2023-03-15 15:39:23:637,-0.236602,1.60924,-9.66505,-9.03265,-1.44116,-21.0836
2023-03-15 15:39:23:647,-0.234812,1.59256,-9.67668,-9.01758,-1.44147,-21.0759
2023-03-15 15:39:23:657,-0.234916,1.57752,-9.68187,-9.00005,-1.44117,-21.0684
2023-03-15 15:39:23:667,-0.268314,1.57871,-9.67261,-8.98187,-1.43583,-21.0596
2023-03-15 15:39:23:677,-0.281855,1.56988,-9.67331,-8.96213,-1.43119,-21.0529
2023-03-15 15:39:23:687,-0.281037,1.54896,-9.65674,-8.93866,-1.42476,-21.0473
2023-03-15 15:39:23:697,-0.273278,1.52772,-9.63588,-8.91956,-1.42144,-21.0401
2023-03-15 15:39:23:707,-0.273613,1.51852,-9.62391,-8.89431,-1.42042,-21.0366
2023-03-15 15:39:23:717,-0.282088,1.49855,-9.61284,-8.87297,-1.4147,-21.0328
2023-03-15 15:39:23:727,-0.285048,1.49502,-9.61337,-8.85504,-1.40752,-21.0333
2023-03-15 15:39:23:737,-0.262835,1.48351,-9.59893,-8.83745,-1.40276,-21.0376
2023-03-15 15:39:23:747,-0.248329,1.48388,-9.59454,-8.82121,-1.39841,-21.0416
2023-03-15 15:39:23:757,-0.230054,1.49431,-9.60501,-8.80526,-1.39093,-21.0454
2023-03-15 15:39:23:767,-0.217098,1.49816,-9.6369,-8.79292,-1.38341,-21.0552
2023-03-15 15:39:23:777,-0.217825,1.48047,-9.66367,-8.78287,-1.37877,-21.0622
2023-03-15 15:39:23:787,-0.2027,1.4958,-9.69328,-8.76968,-1.37759,-21.0713
2023-03-15 15:39:23:797,-0.185104,1.49224,-9.69896,-8.75992,-1.3734,-21.0803
2023-03-15 15:39:23:807,-0.191889,1.48471,-9.68725,-8.74105,-1.37131,-21.0871
2023-03-15 15:39:23:817,-0.194134,1.4765,-9.66097,-8.72382,-1.36846,-21.0977
2023-03-15 15:39:23:827,-0.182904,1.4722,-9.64597,-8.70767,-1.36651,-21.1071
2023-03-15 15:39:23:837,-0.169711,1.45503,-9.63904,-8.68983,-1.36156,-21.1147
2023-03-15 15:39:23:847,-0.159823,1.43663,-9.65447,-8.67298,-1.35183,-21.1179
2023-03-15 15:39:23:857,-0.143021,1.44495,-9.6374,-8.65757,-1.34774,-21.1201
2023-03-15 15:39:23:867,-0.138718,1.43628,-9.62864,-8.64008,-1.345,-21.1221
2023-03-15 15:39:23:877,-0.148581,1.4317,-9.63963,-8.62577,-1.34302,-21.1222
2023-03-15 15:39:23:887,-0.175656,1.44737,-9.65558,-8.61541,-1.34342,-21.1216
2023-03-15 15:39:23:897,-0.189707,1.44319,-9.655,-8.60459,-1.34746,-21.1219
2023-03-15 15:39:23:907,-0.193467,1.4541,-9.66501,-8.59238,-1.35374,-21.1215
2023-03-15 15:39:23:917,-0.205575,1.45065,-9.67387,-8.57805,-1.35974,-21.1205
2023-03-15 15:39:23:927,-0.214308,1.44914,-9.68237,-8.56206,-1.36438,-21.1177
2023-03-15 15:39:23:937,-0.252178,1.43978,-9.66732,-8.54727,-1.36782,-21.1165
2023-03-15 15:39:23:947,-0.262857,1.43932,-9.65374,-8.53192,-1.36799,-21.1193
2023-03-15 15:39:23:957,-0.248071,1.41682,-9.63065,-8.51536,-1.36724,-21.1209
2023-03-15 15:39:23:967,-0.241193,1.39864,-9.61813,-8.50087,-1.36511,-21.1224
2023-03-15 15:39:23:977,-0.218555,1.39464,-9.63831,-8.48653,-1.36308,-21.1221
2023-03-15 15:39:23:987,-0.202509,1.39879,-9.65205,-8.4735,-1.35899,-21.1221
2023-03-15 15:39:23:997,-0.226049,1.4081,-9.62953,-8.46643,-1.35861,-21.1201
2023-03-15 15:39:24:7,-0.246316,1.41004,-9.60523,-8.45614,-1.35772,-21.1194
2023-03-15 15:39:24:17,-0.232736,1.4156,-9.59169,-8.44593,-1.35506,-21.1207
2023-03-15 15:39:24:27,-0.209228,1.41247,-9.62364,-8.441,-1.35032,-21.1243
2023-03-15 15:39:24:37,-0.171641,1.4183,-9.66994,-8.43443,-1.34733,-21.1252
2023-03-15 15:39:24:47,-0.130558,1.43678,-9.68889,-8.42927,-1.34468,-21.1266
2023-03-15 15:39:24:57,-0.106008,1.42858,-9.69356,-8.41997,-1.34666,-21.1247
2023-03-15 15:39:24:67,-0.115058,1.40796,-9.69465,-8.41076,-1.35117,-21.1194
2023-03-15 15:39:24:77,-0.145313,1.40672,-9.69725,-8.3961,-1.35893,-21.11
2023-03-15 15:39:24:86,-0.18167,1.38542,-9.65051,-8.38179,-1.36284,-21.1009
2023-03-15 15:39:24:97,-0.186464,1.37361,-9.6125,-8.37059,-1.36824,-21.089
2023-03-15 15:39:24:107,-0.202514,1.3624,-9.60919,-8.36155,-1.37118,-21.0727
2023-03-15 15:39:24:117,-0.189433,1.37964,-9.62037,-8.35323,-1.37252,-21.0604
2023-03-15 15:39:24:127,-0.196029,1.36963,-9.60808,-8.34795,-1.37309,-21.0415
2023-03-15 15:39:24:137,-0.212598,1.38221,-9.60772,-8.34567,-1.37606,-21.0202
2023-03-15 15:39:24:147,-0.240447,1.41097,-9.61902,-8.347,-1.37758,-20.9962
2023-03-15 15:39:24:157,-0.252749,1.41217,-9.61834,-8.35212,-1.37837,-20.9779
2023-03-15 15:39:24:167,-0.282341,1.41226,-9.61665,-8.35663,-1.38033,-20.9563
2023-03-15 15:39:24:177,-0.313592,1.43117,-9.58493,-8.35865,-1.384,-20.943
2023-03-15 15:39:24:186,-0.300706,1.43402,-9.56933,-8.36772,-1.38495,-20.9303
2023-03-15 15:39:24:197,-0.278477,1.4376,-9.59523,-8.37241,-1.38513,-20.9194
2023-03-15 15:39:24:207,-0.269591,1.44578,-9.63724,-8.38122,-1.38152,-20.911
2023-03-15 15:39:24:216,-0.282201,1.44804,-9.64426,-8.38885,-1.3781,-20.9041
2023-03-15 15:39:24:227,-0.281858,1.43958,-9.65996,-8.40276,-1.37452,-20.8993
2023-03-15 15:39:24:237,-0.270393,1.45173,-9.66582,-8.41383,-1.37313,-20.8937
2023-03-15 15:39:24:247,-0.264112,1.47287,-9.67939,-8.42676,-1.3669,-20.8919
2023-03-15 15:39:24:257,-0.25396,1.47975,-9.69259,-8.43893,-1.35954,-20.8866
2023-03-15 15:39:24:267,-0.230209,1.50357,-9.70188,-8.44647,-1.35292,-20.8835
2023-03-15 15:39:24:277,-0.221257,1.49731,-9.69326,-8.45503,-1.3468,-20.884
2023-03-15 15:39:24:286,-0.233917,1.48389,-9.68706,-8.46171,-1.33899,-20.8853
2023-03-15 15:39:24:297,-0.24596,1.48568,-9.69295,-8.46615,-1.33321,-20.8842
2023-03-15 15:39:24:307,-0.2399,1.50409,-9.69659,-8.46891,-1.33131,-20.888
2023-03-15 15:39:24:316,-0.214197,1.49279,-9.68804,-8.46966,-1.32699,-20.8925
2023-03-15 15:39:24:327,-0.180421,1.48085,-9.69848,-8.46928,-1.32105,-20.8942
2023-03-15 15:39:24:337,-0.190097,1.47583,-9.68439,-8.46616,-1.31793,-20.8972
2023-03-15 15:39:24:347,-0.209816,1.45775,-9.64725,-8.45957,-1.31594,-20.8992
2023-03-15 15:39:24:357,-0.215542,1.44161,-9.61927,-8.4528,-1.31105,-20.8968
2023-03-15 15:39:24:367,-0.212198,1.43831,-9.62619,-8.45193,-1.30704,-20.8984
2023-03-15 15:39:24:377,-0.201466,1.4494,-9.63397,-8.45157,-1.30061,-20.8975
2023-03-15 15:39:24:387,-0.187154,1.43987,-9.63228,-8.4516,-1.29658,-20.8946
2023-03-15 15:39:24:397,-0.177285,1.45647,-9.64246,-8.45473,-1.29253,-20.8932
2023-03-15 15:39:24:407,-0.158429,1.45371,-9.62851,-8.45392,-1.2884,-20.8888
2023-03-15 15:39:24:416,-0.156038,1.44143,-9.62003,-8.4545,-1.28507,-20.8863
2023-03-15 15:39:24:427,-0.170975,1.45933,-9.6573,-8.46021,-1.28477,-20.8825
2023-03-15 15:39:24:437,-0.193036,1.4626,-9.66837,-8.4596,-1.2882,-20.8784
2023-03-15 15:39:24:446,-0.200148,1.45411,-9.65575,-8.46146,-1.29186,-20.8728
2023-03-15 15:39:24:456,-0.1863,1.45986,-9.67102,-8.46115,-1.28876,-20.8706
2023-03-15 15:39:24:466,-0.196801,1.45828,-9.65719,-8.46169,-1.28717,-20.862
2023-03-15 15:39:24:477,-0.203055,1.45129,-9.6484,-8.46654,-1.28809,-20.858
2023-03-15 15:39:24:487,-0.181124,1.44949,-9.65398,-8.46963,-1.28764,-20.8576
2023-03-15 15:39:24:497,-0.189439,1.43985,-9.66625,-8.47123,-1.28508,-20.8532
2023-03-15 15:39:24:507,-0.1805,1.43351,-9.62614,-8.47438,-1.28824,-20.8449
2023-03-15 15:39:24:517,-0.172233,1.41922,-9.60855,-8.47755,-1.29247,-20.8386
2023-03-15 15:39:24:527,-0.177411,1.41975,-9.63301,-8.48388,-1.29884,-20.8283
2023-03-15 15:39:24:537,-0.190911,1.45105,-9.63774,-8.49257,-1.30468,-20.8194
2023-03-15 15:39:24:546,-0.212792,1.46799,-9.6242,-8.50076,-1.30509,-20.8082
2023-03-15 15:39:24:557,-0.233706,1.45974,-9.62085,-8.50693,-1.30548,-20.7993
2023-03-15 15:39:24:567,-0.229461,1.45553,-9.62656,-8.51724,-1.30447,-20.7911
2023-03-15 15:39:24:577,-0.239866,1.45436,-9.63261,-8.53042,-1.30125,-20.7818
2023-03-15 15:39:24:587,-0.242838,1.46364,-9.62387,-8.54299,-1.29632,-20.7742
2023-03-15 15:39:24:597,-0.230656,1.48064,-9.61515,-8.5508,-1.29412,-20.7678
2023-03-15 15:39:24:607,-0.254854,1.48895,-9.59587,-8.56395,-1.28712,-20.7649
2023-03-15 15:39:24:617,-0.263379,1.48371,-9.57782,-8.57632,-1.28066,-20.7628
2023-03-15 15:39:24:627,-0.242882,1.47821,-9.606,-8.59072,-1.2765,-20.7623
2023-03-15 15:39:24:637,-0.20625,1.49964,-9.62662,-8.6106,-1.27195,-20.7623
2023-03-15 15:39:24:646,-0.213439,1.52735,-9.64007,-8.63315,-1.27121,-20.7638
2023-03-15 15:39:24:657,-0.213937,1.52951,-9.64049,-8.65478,-1.26631,-20.767
2023-03-15 15:39:24:667,-0.204885,1.56575,-9.68117,-8.67734,-1.26436,-20.7759
2023-03-15 15:39:24:677,-0.19789,1.57842,-9.69194,-8.69716,-1.26185,-20.7808
2023-03-15 15:39:24:687,-0.19806,1.57752,-9.69405,-8.71596,-1.26321,-20.7853
2023-03-15 15:39:24:697,-0.195341,1.5996,-9.71066,-8.73268,-1.25804,-20.7946
2023-03-15 15:39:24:706,-0.189979,1.59018,-9.71099,-8.7429,-1.25568,-20.8006
2023-03-15 15:39:24:716,-0.193511,1.583,-9.70529,-8.74978,-1.25348,-20.8057
2023-03-15 15:39:24:727,-0.203961,1.58817,-9.70058,-8.75926,-1.25075,-20.8105
2023-03-15 15:39:24:737,-0.210448,1.57376,-9.67593,-8.76502,-1.24763,-20.8126
2023-03-15 15:39:24:747,-0.211826,1.56037,-9.65547,-8.76942,-1.24519,-20.8161
2023-03-15 15:39:24:757,-0.214234,1.55748,-9.647,-8.77446,-1.2426,-20.8222
2023-03-15 15:39:24:766,-0.221737,1.56228,-9.65717,-8.77602,-1.23952,-20.825
2023-03-15 15:39:24:777,-0.229364,1.57287,-9.64594,-8.78222,-1.23768,-20.8283
2023-03-15 15:39:24:787,-0.216071,1.55475,-9.63633,-8.78354,-1.23192,-20.8324
2023-03-15 15:39:24:797,-0.210115,1.54395,-9.63407,-8.78538,-1.22939,-20.841
2023-03-15 15:39:24:807,-0.218677,1.54948,-9.63376,-8.79255,-1.22655,-20.8495
2023-03-15 15:39:24:817,-0.228604,1.54717,-9.6412,-8.79585,-1.22628,-20.8539
2023-03-15 15:39:24:827,-0.217462,1.54124,-9.66149,-8.80056,-1.22132,-20.8589
2023-03-15 15:39:24:837,-0.231036,1.56545,-9.68233,-8.80165,-1.21354,-20.8698
2023-03-15 15:39:24:847,-0.218188,1.55003,-9.66558,-8.80547,-1.20554,-20.8743
2023-03-15 15:39:24:857,-0.193678,1.52331,-9.66952,-8.80278,-1.19517,-20.8815
2023-03-15 15:39:24:866,-0.19449,1.52532,-9.67959,-8.8018,-1.19036,-20.8885
2023-03-15 15:39:24:877,-0.23074,1.52574,-9.64359,-8.79917,-1.18324,-20.8977
2023-03-15 15:39:24:887,-0.235708,1.5185,-9.62548,-8.79766,-1.1748,-20.9046
2023-03-15 15:39:24:897,-0.195246,1.50136,-9.62695,-8.79557,-1.16448,-20.9164
2023-03-15 15:39:24:907,-0.156217,1.50259,-9.65666,-8.79542,-1.15139,-20.9286
2023-03-15 15:39:24:917,-0.141971,1.51276,-9.67958,-8.798,-1.13926,-20.943
2023-03-15 15:39:24:926,-0.108593,1.51625,-9.67597,-8.79706,-1.13156,-20.9553
2023-03-15 15:39:24:937,-0.0705083,1.50889,-9.66562,-8.79404,-1.12036,-20.9676
2023-03-15 15:39:24:947,-0.0548293,1.49214,-9.63543,-8.78954,-1.11325,-20.9774
2023-03-15 15:39:24:957,-0.0610483,1.48606,-9.61212,-8.78908,-1.1093,-20.9807
2023-03-15 15:39:24:966,-0.0610268,1.49342,-9.61321,-8.78669,-1.10325,-20.9857
2023-03-15 15:39:24:977,-0.0773517,1.50301,-9.62705,-8.78816,-1.10415,-20.988
2023-03-15 15:39:24:987,-0.08233,1.52035,-9.6447,-8.79,-1.10487,-20.9829
2023-03-15 15:39:24:997,-0.0594657,1.5211,-9.65184,-8.79384,-1.10563,-20.9807
2023-03-15 15:39:25:7,-0.0514874,1.52322,-9.66929,-8.7948,-1.10691,-20.9733
2023-03-15 15:39:25:17,-0.0704207,1.53286,-9.66542,-8.79434,-1.10801,-20.9578
2023-03-15 15:39:25:27,-0.0949008,1.53839,-9.65481,-8.79516,-1.11177,-20.942
2023-03-15 15:39:25:37,-0.127093,1.54684,-9.62797,-8.79644,-1.11233,-20.9283
2023-03-15 15:39:25:46,-0.138101,1.53579,-9.61417,-8.7963,-1.11317,-20.9162
2023-03-15 15:39:25:57,-0.135969,1.54075,-9.62639,-8.797,-1.11783,-20.9044
2023-03-15 15:39:25:67,-0.137496,1.54728,-9.64272,-8.80148,-1.12238,-20.8882
2023-03-15 15:39:25:77,-0.145231,1.55209,-9.6627,-8.80334,-1.12885,-20.8711
2023-03-15 15:39:25:87,-0.156895,1.56297,-9.67464,-8.80665,-1.13728,-20.8546
2023-03-15 15:39:25:97,-0.179634,1.56951,-9.68921,-8.8111,-1.14598,-20.8361
2023-03-15 15:39:25:107,-0.197525,1.5873,-9.70015,-8.81342,-1.15658,-20.8202
2023-03-15 15:39:25:117,-0.185806,1.56733,-9.71024,-8.80948,-1.16801,-20.802
2023-03-15 15:39:25:126,-0.181736,1.55889,-9.7048,-8.80861,-1.17859,-20.785
2023-03-15 15:39:25:137,-0.179273,1.53951,-9.68095,-8.80169,-1.18461,-20.7666
2023-03-15 15:39:25:147,-0.197111,1.52138,-9.65097,-8.79447,-1.19515,-20.7478
2023-03-15 15:39:25:157,-0.224037,1.51809,-9.62933,-8.78626,-1.2024,-20.7295
2023-03-15 15:39:25:167,-0.253694,1.50462,-9.60558,-8.78361,-1.20875,-20.7073
2023-03-15 15:39:25:177,-0.251822,1.50119,-9.59366,-8.7858,-1.21062,-20.6842
2023-03-15 15:39:25:187,-0.245982,1.49931,-9.58916,-8.78422,-1.21469,-20.665
2023-03-15 15:39:25:197,-0.222621,1.49297,-9.60017,-8.78706,-1.21902,-20.645
2023-03-15 15:39:25:207,-0.216254,1.51412,-9.62396,-8.7914,-1.22602,-20.6292
2023-03-15 15:39:25:217,-0.216035,1.51474,-9.62688,-8.79773,-1.23233,-20.6111
2023-03-15 15:39:25:227,-0.235903,1.51264,-9.60686,-8.80671,-1.2406,-20.5902
2023-03-15 15:39:25:237,-0.242736,1.51901,-9.61178,-8.81366,-1.24922,-20.5711
2023-03-15 15:39:25:247,-0.273571,1.53798,-9.66592,-8.82187,-1.25492,-20.5478
2023-03-15 15:39:25:257,-0.294175,1.56811,-9.69702,-8.83125,-1.25803,-20.5292
2023-03-15 15:39:25:267,-0.293864,1.56472,-9.66909,-8.83084,-1.25509,-20.5122
2023-03-15 15:39:25:277,-0.265895,1.55546,-9.62478,-8.82961,-1.25369,-20.4967
2023-03-15 15:39:25:287,-0.268533,1.53265,-9.61969,-8.83136,-1.25012,-20.4778
2023-03-15 15:39:25:297,-0.284442,1.54216,-9.63215,-8.83329,-1.24522,-20.4617
2023-03-15 15:39:25:307,-0.300907,1.55929,-9.62516,-8.83655,-1.23847,-20.4467
2023-03-15 15:39:25:317,-0.290781,1.54703,-9.62488,-8.83832,-1.23401,-20.432
2023-03-15 15:39:25:327,-0.28356,1.57153,-9.63978,-8.84381,-1.23146,-20.4208
2023-03-15 15:39:25:337,-0.289005,1.57443,-9.67812,-8.84994,-1.22909,-20.4126
2023-03-15 15:39:25:347,-0.283207,1.59502,-9.68095,-8.85446,-1.22387,-20.4091
2023-03-15 15:39:25:357,-0.281047,1.59969,-9.68952,-8.85402,-1.22144,-20.4076
2023-03-15 15:39:25:367,-0.272863,1.58385,-9.68458,-8.85262,-1.21954,-20.4145
2023-03-15 15:39:25:377,-0.247638,1.57361,-9.66313,-8.84999,-1.22155,-20.4208
2023-03-15 15:39:25:387,-0.266501,1.55967,-9.66018,-8.84963,-1.22265,-20.4245
2023-03-15 15:39:25:397,-0.261754,1.56251,-9.64653,-8.84685,-1.22295,-20.431
2023-03-15 15:39:25:407,-0.233686,1.56623,-9.65357,-8.84767,-1.22035,-20.4379
2023-03-15 15:39:25:417,-0.237869,1.56147,-9.6574,-8.84699,-1.2181,-20.4461
2023-03-15 15:39:25:427,-0.251386,1.55275,-9.65486,-8.84591,-1.2156,-20.4529
2023-03-15 15:39:25:437,-0.225706,1.53705,-9.66471,-8.83943,-1.21341,-20.4566
2023-03-15 15:39:25:447,-0.231915,1.53953,-9.66482,-8.83451,-1.2086,-20.4594
2023-03-15 15:39:25:457,-0.231265,1.5209,-9.64737,-8.82708,-1.20295,-20.4661
2023-03-15 15:39:25:467,-0.234022,1.51874,-9.62664,-8.8188,-1.19535,-20.4733
2023-03-15 15:39:25:476,-0.222664,1.50891,-9.64391,-8.8116,-1.1935,-20.4841
2023-03-15 15:39:25:486,-0.202716,1.50328,-9.63768,-8.80613,-1.18999,-20.4925
2023-03-15 15:39:25:496,-0.188671,1.49414,-9.62722,-8.80029,-1.18646,-20.4989
2023-03-15 15:39:25:507,-0.200534,1.49555,-9.62054,-8.79231,-1.18187,-20.5052
2023-03-15 15:39:25:517,-0.191017,1.49035,-9.59951,-8.78737,-1.17704,-20.5165
2023-03-15 15:39:25:526,-0.174795,1.4917,-9.60195,-8.78746,-1.17679,-20.5269
2023-03-15 15:39:25:537,-0.175471,1.49174,-9.62727,-8.78691,-1.17313,-20.5322
2023-03-15 15:39:25:547,-0.168648,1.49931,-9.63379,-8.78567,-1.16918,-20.5394
2023-03-15 15:39:25:557,-0.157442,1.49603,-9.62237,-8.78304,-1.16532,-20.5458
2023-03-15 15:39:25:567,-0.133581,1.49755,-9.63569,-8.78408,-1.16109,-20.5492
2023-03-15 15:39:25:577,-0.130595,1.51184,-9.64423,-8.78381,-1.15971,-20.5538
2023-03-15 15:39:25:587,-0.149049,1.50234,-9.65746,-8.78458,-1.1588,-20.5539
2023-03-15 15:39:25:597,-0.15764,1.51631,-9.67587,-8.78522,-1.15856,-20.5551
2023-03-15 15:39:25:607,-0.169817,1.50635,-9.66636,-8.78279,-1.1577,-20.5517
2023-03-15 15:39:25:617,-0.175541,1.50077,-9.65231,-8.78212,-1.1566,-20.5531
2023-03-15 15:39:25:627,-0.161808,1.50245,-9.66358,-8.77992,-1.1556,-20.5501
2023-03-15 15:39:25:637,-0.170514,1.50476,-9.67543,-8.77977,-1.15276,-20.549
2023-03-15 15:39:25:647,-0.18116,1.50942,-9.66438,-8.78001,-1.15181,-20.5442
2023-03-15 15:39:25:657,-0.18588,1.4958,-9.65137,-8.77919,-1.15233,-20.5417
2023-03-15 15:39:25:667,-0.204659,1.48938,-9.65098,-8.77121,-1.14992,-20.5367
2023-03-15 15:39:25:677,-0.207355,1.5062,-9.64194,-8.76932,-1.15148,-20.5332
2023-03-15 15:39:25:687,-0.205067,1.48415,-9.60192,-8.77005,-1.15345,-20.5348
2023-03-15 15:39:25:697,-0.196399,1.47172,-9.60383,-8.76632,-1.15211,-20.5349
2023-03-15 15:39:25:707,-0.188981,1.47399,-9.63134,-8.76816,-1.15239,-20.5338
2023-03-15 15:39:25:717,-0.184716,1.49013,-9.62855,-8.76982,-1.1493,-20.5354
2023-03-15 15:39:25:726,-0.189213,1.49319,-9.65829,-8.77132,-1.1464,-20.5338
2023-03-15 15:39:25:736,-0.184499,1.51332,-9.66661,-8.77335,-1.14331,-20.5371
2023-03-15 15:39:25:747,-0.178963,1.50573,-9.66484,-8.76961,-1.14196,-20.5373
2023-03-15 15:39:25:757,-0.164662,1.50417,-9.70045,-8.76729,-1.13941,-20.5386
2023-03-15 15:39:25:767,-0.179836,1.50565,-9.69536,-8.76505,-1.13706,-20.5387
2023-03-15 15:39:25:777,-0.186202,1.49202,-9.64321,-8.76176,-1.13853,-20.5389
2023-03-15 15:39:25:787,-0.181593,1.45189,-9.5976,-8.76219,-1.1361,-20.5424
2023-03-15 15:39:25:797,-0.168325,1.46053,-9.59057,-8.76433,-1.12832,-20.5463
2023-03-15 15:39:25:807,-0.138292,1.48431,-9.61712,-8.76738,-1.12252,-20.5486
2023-03-15 15:39:25:817,-0.116213,1.48773,-9.65203,-8.77097,-1.11507,-20.55
2023-03-15 15:39:25:827,-0.0962085,1.49683,-9.67955,-8.7752,-1.11414,-20.5513
2023-03-15 15:39:25:837,-0.0624294,1.5049,-9.69447,-8.779,-1.11673,-20.5493
2023-03-15 15:39:25:847,-0.0621184,1.49715,-9.69208,-8.77735,-1.12033,-20.5436
2023-03-15 15:39:25:857,-0.0767347,1.48822,-9.68531,-8.77432,-1.12436,-20.535
2023-03-15 15:39:25:867,-0.126995,1.47668,-9.63952,-8.77012,-1.13102,-20.5236
2023-03-15 15:39:25:877,-0.169421,1.46179,-9.60395,-8.76559,-1.13484,-20.5125
2023-03-15 15:39:25:887,-0.181277,1.46902,-9.60159,-8.76464,-1.13698,-20.4974
2023-03-15 15:39:25:897,-0.186516,1.48924,-9.6087,-8.77014,-1.1373,-20.4833
2023-03-15 15:39:25:907,-0.191114,1.49536,-9.62645,-8.7763,-1.1349,-20.466
2023-03-15 15:39:25:917,-0.208726,1.50583,-9.61845,-8.78794,-1.13357,-20.4478
2023-03-15 15:39:25:927,-0.251834,1.53688,-9.61369,-8.79544,-1.13,-20.4337
2023-03-15 15:39:25:937,-0.271242,1.555,-9.59078,-8.80022,-1.12802,-20.4226
2023-03-15 15:39:25:947,-0.293444,1.55629,-9.57903,-8.80756,-1.12498,-20.4143
2023-03-15 15:39:25:957,-0.316619,1.57739,-9.59569,-8.81876,-1.12438,-20.41
2023-03-15 15:39:25:967,-0.303236,1.58976,-9.62511,-8.83054,-1.12368,-20.4117
2023-03-15 15:39:25:977,-0.284003,1.57775,-9.64464,-8.84032,-1.11937,-20.4233
2023-03-15 15:39:25:987,-0.269197,1.59866,-9.65789,-8.85052,-1.11787,-20.4386
2023-03-15 15:39:25:997,-0.261521,1.59417,-9.67913,-8.86033,-1.11667,-20.4547
2023-03-15 15:39:26:7,-0.246048,1.58355,-9.68459,-8.86825,-1.11442,-20.4759
2023-03-15 15:39:26:17,-0.221107,1.57195,-9.69275,-8.87498,-1.11386,-20.4959
2023-03-15 15:39:26:27,-0.172284,1.57125,-9.69309,-8.88025,-1.11236,-20.5127
2023-03-15 15:39:26:37,-0.134532,1.55856,-9.67743,-8.88045,-1.10683,-20.5315
2023-03-15 15:39:26:47,-0.121518,1.54969,-9.66462,-8.87922,-1.09985,-20.5479
2023-03-15 15:39:26:57,-0.101503,1.53524,-9.65689,-8.88222,-1.09861,-20.5609
2023-03-15 15:39:26:67,-0.11488,1.52909,-9.64316,-8.87844,-1.0945,-20.5721
2023-03-15 15:39:26:77,-0.117339,1.53179,-9.64729,-8.88001,-1.08747,-20.5776
2023-03-15 15:39:26:87,-0.119567,1.53738,-9.6391,-8.87889,-1.07742,-20.5806
2023-03-15 15:39:26:97,-0.121248,1.52618,-9.62596,-8.88506,-1.06748,-20.58
2023-03-15 15:39:26:107,-0.0877338,1.54842,-9.64314,-8.88933,-1.05925,-20.5799
2023-03-15 15:39:26:117,-0.0758467,1.55085,-9.63175,-8.89022,-1.05,-20.5796
2023-03-15 15:39:26:127,-0.0989283,1.54213,-9.60704,-8.89276,-1.04652,-20.576
2023-03-15 15:39:26:137,-0.136945,1.53737,-9.62869,-8.8982,-1.04345,-20.571
2023-03-15 15:39:26:147,-0.136681,1.5618,-9.65283,-8.90384,-1.04157,-20.572
2023-03-15 15:39:26:156,-0.146229,1.55634,-9.65376,-8.91087,-1.0428,-20.5694
2023-03-15 15:39:26:167,-0.163394,1.56419,-9.65249,-8.91183,-1.04447,-20.5679
2023-03-15 15:39:26:177,-0.143953,1.55409,-9.66401,-8.91753,-1.04343,-20.566
2023-03-15 15:39:26:187,-0.11044,1.55603,-9.65487,-8.91914,-1.04212,-20.5652
2023-03-15 15:39:26:197,-0.128144,1.56642,-9.64662,-8.9244,-1.04589,-20.5638
2023-03-15 15:39:26:207,-0.146968,1.56882,-9.64627,-8.92752,-1.05195,-20.5613
2023-03-15 15:39:26:217,-0.151085,1.57937,-9.66016,-8.93291,-1.058,-20.5604
2023-03-15 15:39:26:227,-0.155293,1.5887,-9.66698,-8.93551,-1.06318,-20.562
2023-03-15 15:39:26:237,-0.150106,1.57406,-9.67386,-8.93751,-1.06861,-20.5578
2023-03-15 15:39:26:247,-0.166496,1.58301,-9.6752,-8.93682,-1.07722,-20.557
2023-03-15 15:39:26:257,-0.173714,1.58191,-9.67341,-8.93241,-1.08682,-20.5547
2023-03-15 15:39:26:267,-0.17381,1.57421,-9.68278,-8.93177,-1.09509,-20.5508
2023-03-15 15:39:26:277,-0.177077,1.56128,-9.65599,-8.92411,-1.10131,-20.5452
2023-03-15 15:39:26:287,-0.194856,1.54038,-9.63062,-8.92122,-1.11008,-20.5374
2023-03-15 15:39:26:297,-0.195831,1.54263,-9.61901,-8.91627,-1.11453,-20.5263
2023-03-15 15:39:26:307,-0.205022,1.54293,-9.62159,-8.91207,-1.11434,-20.5178
2023-03-15 15:39:26:317,-0.223969,1.54682,-9.62507,-8.91399,-1.11653,-20.5059
2023-03-15 15:39:26:327,-0.244676,1.54855,-9.62884,-8.9128,-1.11708,-20.4979
2023-03-15 15:39:26:336,-0.248386,1.54654,-9.60956,-8.91313,-1.11909,-20.4902
2023-03-15 15:39:26:347,-0.250834,1.55576,-9.61802,-8.91276,-1.11922,-20.4832
2023-03-15 15:39:26:357,-0.248906,1.56762,-9.63044,-8.91582,-1.11815,-20.4815
2023-03-15 15:39:26:367,-0.240305,1.55623,-9.65092,-8.91672,-1.11927,-20.4785
2023-03-15 15:39:26:377,-0.245877,1.5541,-9.65677,-8.91783,-1.12105,-20.4787
2023-03-15 15:39:26:387,-0.26046,1.56482,-9.63906,-8.91532,-1.12259,-20.4837
2023-03-15 15:39:26:397,-0.263242,1.56211,-9.6262,-8.914,-1.11938,-20.4889
2023-03-15 15:39:26:407,-0.243735,1.55204,-9.6184,-8.9152,-1.11704,-20.4997
2023-03-15 15:39:26:417,-0.22075,1.55283,-9.63087,-8.91718,-1.11447,-20.5125
2023-03-15 15:39:26:427,-0.196042,1.52954,-9.62672,-8.91703,-1.10756,-20.5213
2023-03-15 15:39:26:437,-0.173094,1.53192,-9.62104,-8.91585,-1.10372,-20.5243
2023-03-15 15:39:26:447,-0.1608,1.53651,-9.62955,-8.91975,-1.10304,-20.5316
2023-03-15 15:39:26:457,-0.164107,1.53845,-9.61744,-8.92402,-1.10005,-20.5385
2023-03-15 15:39:26:467,-0.175315,1.54092,-9.61936,-8.92885,-1.09758,-20.5438
2023-03-15 15:39:26:477,-0.173532,1.53825,-9.64201,-8.9358,-1.09576,-20.5485
2023-03-15 15:39:26:487,-0.176794,1.55548,-9.65318,-8.93821,-1.09072,-20.5538
2023-03-15 15:39:26:496,-0.195969,1.54342,-9.6461,-8.94263,-1.08906,-20.556
2023-03-15 15:39:26:506,-0.192748,1.55303,-9.63693,-8.94327,-1.08704,-20.5633
2023-03-15 15:39:26:516,-0.184324,1.5389,-9.64019,-8.94525,-1.08228,-20.57
2023-03-15 15:39:26:527,-0.201021,1.54005,-9.64651,-8.94655,-1.07696,-20.5741
2023-03-15 15:39:26:537,-0.189692,1.54964,-9.66145,-8.95208,-1.07256,-20.5786
2023-03-15 15:39:26:547,-0.18161,1.5504,-9.67809,-8.95634,-1.06883,-20.5857
2023-03-15 15:39:26:557,-0.178184,1.54811,-9.673,-8.95763,-1.06234,-20.5953
2023-03-15 15:39:26:567,-0.178675,1.54932,-9.65142,-8.96127,-1.05709,-20.6055
2023-03-15 15:39:26:577,-0.160978,1.5658,-9.63659,-8.96677,-1.05573,-20.6165
2023-03-15 15:39:26:587,-0.143954,1.56311,-9.64228,-8.97106,-1.05409,-20.6269
2023-03-15 15:39:26:597,-0.139887,1.56502,-9.64525,-8.97567,-1.05616,-20.6364
2023-03-15 15:39:26:607,-0.154838,1.56462,-9.64468,-8.9792,-1.05633,-20.645
2023-03-15 15:39:26:617,-0.166732,1.56541,-9.65423,-8.98004,-1.05764,-20.6548
2023-03-15 15:39:26:627,-0.181101,1.556,-9.65792,-8.98274,-1.05924,-20.6594
2023-03-15 15:39:26:637,-0.178874,1.55969,-9.65821,-8.98791,-1.06126,-20.665
2023-03-15 15:39:26:647,-0.174329,1.57021,-9.67721,-8.98859,-1.06123,-20.6714
2023-03-15 15:39:26:657,-0.166879,1.57873,-9.68489,-8.98908,-1.05773,-20.6786
2023-03-15 15:39:26:667,-0.156416,1.55801,-9.70095,-8.98688,-1.05777,-20.6788
2023-03-15 15:39:26:677,-0.182342,1.54352,-9.68479,-8.98169,-1.05637,-20.678
2023-03-15 15:39:26:687,-0.20377,1.55602,-9.64527,-8.978,-1.05516,-20.6834
2023-03-15 15:39:26:697,-0.215649,1.54353,-9.62049,-8.9711,-1.05583,-20.6888
2023-03-15 15:39:26:707,-0.176413,1.522,-9.60789,-8.96742,-1.05231,-20.6915
2023-03-15 15:39:26:717,-0.159507,1.51984,-9.62923,-8.96647,-1.04896,-20.7009
2023-03-15 15:39:26:727,-0.146147,1.51759,-9.65111,-8.96352,-1.0466,-20.7084
2023-03-15 15:39:26:737,-0.139638,1.52598,-9.66624,-8.96099,-1.04585,-20.7123
2023-03-15 15:39:26:747,-0.116733,1.50657,-9.68496,-8.95394,-1.04642,-20.7196
2023-03-15 15:39:26:757,-0.104056,1.48944,-9.67129,-8.94593,-1.05092,-20.7224
2023-03-15 15:39:26:767,-0.133799,1.46735,-9.63321,-8.93795,-1.0555,-20.7257
2023-03-15 15:39:26:777,-0.150401,1.47022,-9.6135,-8.93488,-1.06126,-20.7253
2023-03-15 15:39:26:787,-0.145395,1.45452,-9.61381,-8.93363,-1.06327,-20.7256
2023-03-15 15:39:26:797,-0.149434,1.47256,-9.62222,-8.93291,-1.06197,-20.7221
2023-03-15 15:39:26:807,-0.143573,1.50789,-9.62708,-8.93426,-1.06298,-20.7173
2023-03-15 15:39:26:817,-0.131671,1.50201,-9.61038,-8.93718,-1.06315,-20.7106
2023-03-15 15:39:26:827,-0.141245,1.49484,-9.59312,-8.94403,-1.06206,-20.6996
2023-03-15 15:39:26:837,-0.17444,1.52872,-9.5953,-8.95047,-1.05618,-20.6924
2023-03-15 15:39:26:847,-0.19476,1.55198,-9.60373,-8.95414,-1.05223,-20.6845
2023-03-15 15:39:26:857,-0.221815,1.55499,-9.60589,-8.96177,-1.0469,-20.6783
2023-03-15 15:39:26:867,-0.249884,1.56707,-9.61767,-8.9687,-1.04431,-20.6737
2023-03-15 15:39:26:877,-0.258653,1.56844,-9.61702,-8.97542,-1.04292,-20.6751
2023-03-15 15:39:26:887,-0.245856,1.56588,-9.62842,-8.98533,-1.041,-20.6814
2023-03-15 15:39:26:897,-0.23932,1.56734,-9.63563,-8.99459,-1.03553,-20.6855
2023-03-15 15:39:26:907,-0.235252,1.57367,-9.66793,-9.00109,-1.03027,-20.6953
2023-03-15 15:39:26:917,-0.23959,1.57141,-9.69075,-9.00881,-1.02774,-20.707
2023-03-15 15:39:26:927,-0.217105,1.55984,-9.69458,-9.01226,-1.02615,-20.7206
2023-03-15 15:39:26:937,-0.200289,1.55477,-9.70893,-9.0158,-1.02397,-20.7372
2023-03-15 15:39:26:947,-0.179925,1.57535,-9.72272,-9.02511,-1.02207,-20.7514
2023-03-15 15:39:26:957,-0.167593,1.57653,-9.69543,-9.02566,-1.01882,-20.7698
2023-03-15 15:39:26:967,-0.164535,1.55711,-9.6676,-9.02327,-1.01304,-20.7854
2023-03-15 15:39:26:977,-0.165999,1.56072,-9.64562,-9.02567,-1.00634,-20.7992
2023-03-15 15:39:26:987,-0.136073,1.55921,-9.66726,-9.02986,-0.997785,-20.8098
2023-03-15 15:39:26:997,-0.117173,1.56566,-9.67285,-9.02876,-0.988547,-20.8203
2023-03-15 15:39:27:7,-0.0962352,1.54183,-9.65648,-9.02581,-0.979081,-20.8301
2023-03-15 15:39:27:17,-0.0729886,1.5295,-9.65601,-9.02325,-0.971048,-20.8405
2023-03-15 15:39:27:27,-0.0717275,1.5094,-9.63222,-9.01707,-0.964565,-20.8475
2023-03-15 15:39:27:37,-0.0993062,1.49327,-9.60117,-9.01251,-0.956763,-20.8495
2023-03-15 15:39:27:47,-0.107351,1.49965,-9.5849,-9.01207,-0.949159,-20.8553
2023-03-15 15:39:27:57,-0.106727,1.51052,-9.5998,-9.01146,-0.941253,-20.8567
2023-03-15 15:39:27:67,-0.117272,1.52734,-9.63159,-9.01312,-0.932334,-20.8634
2023-03-15 15:39:27:77,-0.101256,1.51832,-9.63756,-9.01765,-0.92583,-20.8712
2023-03-15 15:39:27:87,-0.0978133,1.52408,-9.63487,-9.02215,-0.922668,-20.8783
2023-03-15 15:39:27:97,-0.0735143,1.54047,-9.64126,-9.02218,-0.917537,-20.8849
2023-03-15 15:39:27:107,-0.0624078,1.53976,-9.6516,-9.02679,-0.918473,-20.8909
2023-03-15 15:39:27:117,-0.0634716,1.54909,-9.65763,-9.03121,-0.915965,-20.8958
2023-03-15 15:39:27:127,-0.0741438,1.55152,-9.674,-9.03447,-0.914711,-20.9006
2023-03-15 15:39:27:137,-0.05536,1.54618,-9.66054,-9.03331,-0.915924,-20.9051
2023-03-15 15:39:27:147,-0.0449514,1.52638,-9.64027,-9.03706,-0.918193,-20.9079
2023-03-15 15:39:27:157,-0.0547321,1.51665,-9.63346,-9.03939,-0.919536,-20.9102
2023-03-15 15:39:27:167,-0.0694287,1.51529,-9.63248,-9.04006,-0.923576,-20.9118
2023-03-15 15:39:27:176,-0.076784,1.51315,-9.61812,-9.04129,-0.931544,-20.908
2023-03-15 15:39:27:187,-0.0617542,1.52041,-9.6239,-9.04277,-0.938921,-20.9008
2023-03-15 15:39:27:197,-0.0747872,1.52362,-9.62224,-9.05005,-0.942987,-20.8955
2023-03-15 15:39:27:207,-0.086931,1.53395,-9.62436,-9.05973,-0.949897,-20.8895
2023-03-15 15:39:27:217,-0.0921872,1.55602,-9.63091,-9.06881,-0.959454,-20.8819
2023-03-15 15:39:27:227,-0.115829,1.56867,-9.64136,-9.07444,-0.969455,-20.8735
2023-03-15 15:39:27:237,-0.129843,1.57888,-9.65823,-9.08108,-0.979117,-20.8673
2023-03-15 15:39:27:247,-0.145209,1.58548,-9.65307,-9.08683,-0.984622,-20.8591
2023-03-15 15:39:27:257,-0.158279,1.57722,-9.63276,-9.09344,-0.991492,-20.85
2023-03-15 15:39:27:267,-0.160458,1.59125,-9.63264,-9.1033,-1.00001,-20.8442
2023-03-15 15:39:27:277,-0.170261,1.59707,-9.63695,-9.10903,-1.00618,-20.8378
2023-03-15 15:39:27:287,-0.196559,1.60713,-9.6287,-9.11421,-1.01489,-20.8318
2023-03-15 15:39:27:297,-0.212437,1.61113,-9.63009,-9.12281,-1.02182,-20.8272
2023-03-15 15:39:27:307,-0.209358,1.61011,-9.61722,-9.12678,-1.02657,-20.8239
2023-03-15 15:39:27:317,-0.21759,1.60394,-9.63714,-9.13305,-1.03555,-20.8248
2023-03-15 15:39:27:327,-0.225147,1.60442,-9.63642,-9.13845,-1.04211,-20.8257
2023-03-15 15:39:27:337,-0.232103,1.60478,-9.65169,-9.14741,-1.04596,-20.8252
2023-03-15 15:39:27:347,-0.224223,1.61397,-9.65531,-9.15237,-1.04954,-20.8249
2023-03-15 15:39:27:357,-0.229181,1.61093,-9.64387,-9.15576,-1.05009,-20.8291
2023-03-15 15:39:27:367,-0.217984,1.61896,-9.62285,-9.15934,-1.05152,-20.832
2023-03-15 15:39:27:377,-0.207128,1.61614,-9.61516,-9.16189,-1.0532,-20.8371
2023-03-15 15:39:27:387,-0.199713,1.60219,-9.62475,-9.16655,-1.05408,-20.8434
2023-03-15 15:39:27:397,-0.193373,1.62274,-9.65267,-9.17377,-1.0532,-20.8503
2023-03-15 15:39:27:407,-0.184138,1.61998,-9.68992,-9.17913,-1.05327,-20.8565
2023-03-15 15:39:27:417,-0.177461,1.61635,-9.6821,-9.18095,-1.05264,-20.8603
2023-03-15 15:39:27:427,-0.176926,1.60987,-9.65838,-9.18084,-1.04986,-20.8676
2023-03-15 15:39:27:437,-0.175659,1.6135,-9.63547,-9.18033,-1.04692,-20.8723
2023-03-15 15:39:27:447,-0.161635,1.6096,-9.62342,-9.18219,-1.04378,-20.8758
2023-03-15 15:39:27:457,-0.159697,1.61347,-9.61925,-9.18388,-1.03975,-20.8787
2023-03-15 15:39:27:466,-0.153127,1.60183,-9.63296,-9.18498,-1.03656,-20.8838
2023-03-15 15:39:27:477,-0.145226,1.60298,-9.64052,-9.18464,-1.02923,-20.8844
2023-03-15 15:39:27:487,-0.152353,1.62067,-9.64248,-9.18615,-1.02796,-20.8881
2023-03-15 15:39:27:497,-0.158378,1.62567,-9.64885,-9.18609,-1.02413,-20.8921
2023-03-15 15:39:27:507,-0.155977,1.62201,-9.64455,-9.18791,-1.02272,-20.8967
2023-03-15 15:39:27:516,-0.156322,1.60949,-9.6367,-9.18631,-1.02312,-20.8981
2023-03-15 15:39:27:527,-0.15319,1.60328,-9.64287,-9.18957,-1.02403,-20.898
2023-03-15 15:39:27:537,-0.16045,1.61987,-9.65351,-9.19034,-1.02632,-20.8985
2023-03-15 15:39:27:547,-0.164288,1.61408,-9.6549,-9.18867,-1.02474,-20.8953
2023-03-15 15:39:27:557,-0.127547,1.61303,-9.66826,-9.18927,-1.02387,-20.8924
2023-03-15 15:39:27:566,-0.134272,1.62152,-9.67975,-9.18615,-1.02357,-20.8878
2023-03-15 15:39:27:577,-0.158757,1.60349,-9.67697,-9.18223,-1.02293,-20.8844
2023-03-15 15:39:27:587,-0.182808,1.61107,-9.62791,-9.17318,-1.02296,-20.8814
2023-03-15 15:39:27:597,-0.181795,1.59895,-9.60936,-9.16207,-1.02192,-20.8797
2023-03-15 15:39:27:607,-0.164309,1.581,-9.63063,-9.15494,-1.0205,-20.8795
2023-03-15 15:39:27:617,-0.162032,1.57754,-9.65206,-9.14636,-1.01872,-20.8783
2023-03-15 15:39:27:627,-0.133075,1.57449,-9.67604,-9.13942,-1.01617,-20.8737
2023-03-15 15:39:27:637,-0.106752,1.56725,-9.67961,-9.12741,-1.01652,-20.8671
2023-03-15 15:39:27:647,-0.0965794,1.5373,-9.65587,-9.11462,-1.02063,-20.8583
2023-03-15 15:39:27:657,-0.109898,1.52363,-9.60859,-9.10065,-1.02416,-20.8473
2023-03-15 15:39:27:667,-0.150561,1.51277,-9.57979,-9.08969,-1.02852,-20.8388
2023-03-15 15:39:27:677,-0.153115,1.53149,-9.60493,-9.08299,-1.03631,-20.8291
2023-03-15 15:39:27:687,-0.154098,1.53695,-9.63546,-9.07721,-1.03881,-20.8172
2023-03-15 15:39:27:697,-0.159389,1.52469,-9.63348,-9.06969,-1.04364,-20.8013
2023-03-15 15:39:27:707,-0.156012,1.52486,-9.62265,-9.06283,-1.04341,-20.782
2023-03-15 15:39:27:717,-0.15093,1.54183,-9.61694,-9.05998,-1.04142,-20.7641
2023-03-15 15:39:27:727,-0.172741,1.52454,-9.61135,-9.05734,-1.04388,-20.7436
2023-03-15 15:39:27:737,-0.214451,1.54441,-9.59008,-9.05649,-1.04575,-20.7222
2023-03-15 15:39:27:747,-0.259655,1.55026,-9.58663,-9.05409,-1.04345,-20.7016
2023-03-15 15:39:27:757,-0.258656,1.55056,-9.55937,-9.05452,-1.04169,-20.6846
2023-03-15 15:39:27:767,-0.25068,1.55279,-9.5559,-9.0561,-1.04115,-20.6669
2023-03-15 15:39:27:777,-0.234723,1.57468,-9.59888,-9.0618,-1.03764,-20.6573
2023-03-15 15:39:27:787,-0.223092,1.59384,-9.63001,-9.06729,-1.03569,-20.6486
2023-03-15 15:39:27:797,-0.221141,1.59305,-9.6603,-9.07439,-1.03721,-20.6429
2023-03-15 15:39:27:807,-0.24061,1.59472,-9.67132,-9.07763,-1.04103,-20.6402
2023-03-15 15:39:27:817,-0.250481,1.59643,-9.67804,-9.07893,-1.04615,-20.6425
2023-03-15 15:39:27:827,-0.234351,1.59463,-9.6726,-9.07844,-1.04953,-20.6427
2023-03-15 15:39:27:837,-0.202659,1.59311,-9.6743,-9.07862,-1.05412,-20.6435
2023-03-15 15:39:27:847,-0.17626,1.59034,-9.67156,-9.08054,-1.05221,-20.646
2023-03-15 15:39:27:857,-0.174415,1.57275,-9.66492,-9.07791,-1.05395,-20.6417
2023-03-15 15:39:27:867,-0.185953,1.57553,-9.66797,-9.07012,-1.05204,-20.6359
2023-03-15 15:39:27:877,-0.191335,1.56513,-9.65383,-9.0685,-1.05165,-20.6336
2023-03-15 15:39:27:887,-0.202098,1.55829,-9.6467,-9.06426,-1.05128,-20.6255
2023-03-15 15:39:27:897,-0.187049,1.54991,-9.6632,-9.0592,-1.04543,-20.6173
2023-03-15 15:39:27:907,-0.170067,1.57242,-9.6764,-9.0522,-1.03953,-20.6118
2023-03-15 15:39:27:917,-0.152788,1.55476,-9.6704,-9.04576,-1.03506,-20.6064
2023-03-15 15:39:27:927,-0.166215,1.5509,-9.63981,-9.03727,-1.03431,-20.6008
2023-03-15 15:39:27:937,-0.190065,1.52318,-9.62555,-9.03126,-1.03441,-20.5958
2023-03-15 15:39:27:947,-0.205925,1.52057,-9.61977,-9.02306,-1.03447,-20.5911
2023-03-15 15:39:27:957,-0.223351,1.52165,-9.60466,-9.01345,-1.03134,-20.5887
2023-03-15 15:39:27:967,-0.222262,1.52283,-9.60809,-9.0072,-1.03044,-20.587
2023-03-15 15:39:27:977,-0.184576,1.53635,-9.62283,-9.00508,-1.03022,-20.5871
2023-03-15 15:39:27:987,-0.171167,1.52649,-9.62381,-9.00122,-1.03077,-20.5917
2023-03-15 15:39:27:997,-0.1813,1.51123,-9.63702,-8.99571,-1.0295,-20.5945
2023-03-15 15:39:28:7,-0.182932,1.52145,-9.65288,-8.98797,-1.03044,-20.5976
2023-03-15 15:39:28:17,-0.176024,1.51629,-9.64709,-8.98444,-1.03395,-20.5965
2023-03-15 15:39:28:27,-0.155279,1.50806,-9.65521,-8.98491,-1.03336,-20.5988
2023-03-15 15:39:28:36,-0.137396,1.5139,-9.65745,-8.98314,-1.03017,-20.6034
2023-03-15 15:39:28:47,-0.125394,1.51522,-9.6429,-8.97795,-1.0311,-20.6039
2023-03-15 15:39:28:57,-0.127902,1.49537,-9.62914,-8.97542,-1.03007,-20.6057
2023-03-15 15:39:28:67,-0.118205,1.50049,-9.64031,-8.97055,-1.03504,-20.6088
2023-03-15 15:39:28:77,-0.100568,1.50367,-9.63466,-8.9671,-1.03963,-20.6082
2023-03-15 15:39:28:87,-0.0904435,1.48762,-9.62738,-8.96767,-1.04369,-20.6051
2023-03-15 15:39:28:97,-0.103816,1.48436,-9.62219,-8.96906,-1.04356,-20.6033
2023-03-15 15:39:28:107,-0.126828,1.49668,-9.62421,-8.97347,-1.04951,-20.595
2023-03-15 15:39:28:117,-0.156053,1.50237,-9.62295,-8.97767,-1.05154,-20.5902
2023-03-15 15:39:28:127,-0.166769,1.51557,-9.62591,-8.98341,-1.05473,-20.5807
2023-03-15 15:39:28:137,-0.17123,1.52699,-9.64224,-8.98915,-1.05712,-20.5723
2023-03-15 15:39:28:147,-0.177278,1.52156,-9.66073,-8.98961,-1.05921,-20.5617
2023-03-15 15:39:28:157,-0.172431,1.51852,-9.64876,-8.9903,-1.05678,-20.5521
2023-03-15 15:39:28:167,-0.171278,1.52211,-9.63109,-8.99328,-1.06012,-20.541
2023-03-15 15:39:28:177,-0.179402,1.51323,-9.62837,-8.99473,-1.06405,-20.5309
2023-03-15 15:39:28:187,-0.18991,1.52873,-9.63313,-8.99886,-1.06496,-20.5218
2023-03-15 15:39:28:197,-0.212949,1.53432,-9.66618,-9.00623,-1.06728,-20.5171
2023-03-15 15:39:28:207,-0.212481,1.544,-9.67005,-9.0136,-1.07038,-20.5128
2023-03-15 15:39:28:217,-0.209303,1.55435,-9.66738,-9.01912,-1.07307,-20.5115
2023-03-15 15:39:28:227,-0.215437,1.56297,-9.65219,-9.02284,-1.07321,-20.5101
2023-03-15 15:39:28:237,-0.191884,1.5675,-9.63793,-9.02609,-1.07501,-20.5122
2023-03-15 15:39:28:247,-0.164363,1.55687,-9.64571,-9.03127,-1.07436,-20.516
2023-03-15 15:39:28:257,-0.152594,1.55569,-9.64314,-9.03517,-1.07631,-20.5177
2023-03-15 15:39:28:267,-0.150532,1.54849,-9.64184,-9.04044,-1.07732,-20.5199
2023-03-15 15:39:28:277,-0.138914,1.54974,-9.64634,-9.04395,-1.07975,-20.52
2023-03-15 15:39:28:287,-0.125415,1.54957,-9.65898,-9.0464,-1.08212,-20.516
2023-03-15 15:39:28:297,-0.12719,1.55837,-9.64156,-9.0487,-1.08565,-20.5116
2023-03-15 15:39:28:307,-0.156781,1.5511,-9.63586,-9.05139,-1.08455,-20.51
2023-03-15 15:39:28:317,-0.175179,1.56192,-9.64602,-9.05737,-1.08972,-20.5052
2023-03-15 15:39:28:327,-0.172613,1.56377,-9.64541,-9.05907,-1.09064,-20.5004
2023-03-15 15:39:28:337,-0.184,1.56798,-9.64848,-9.06344,-1.09286,-20.4941
2023-03-15 15:39:28:347,-0.204928,1.57757,-9.6423,-9.0664,-1.09291,-20.4885
2023-03-15 15:39:28:357,-0.219742,1.57399,-9.64765,-9.07179,-1.09276,-20.4811
2023-03-15 15:39:28:367,-0.23029,1.58743,-9.67114,-9.07434,-1.09229,-20.4741
2023-03-15 15:39:28:377,-0.23033,1.5944,-9.69244,-9.07777,-1.09179,-20.4716
2023-03-15 15:39:28:387,-0.224942,1.5965,-9.70144,-9.07298,-1.09155,-20.4704
2023-03-15 15:39:28:397,-0.242311,1.59891,-9.69923,-9.06704,-1.09057,-20.4723
2023-03-15 15:39:28:407,-0.230378,1.58178,-9.66608,-9.05989,-1.0921,-20.4765
2023-03-15 15:39:28:417,-0.223391,1.55282,-9.63761,-9.0529,-1.09133,-20.4843
2023-03-15 15:39:28:427,-0.213532,1.52037,-9.6149,-9.04639,-1.08829,-20.4913
2023-03-15 15:39:28:437,-0.181268,1.52185,-9.61208,-9.04217,-1.08542,-20.4966
2023-03-15 15:39:28:447,-0.16665,1.52225,-9.60266,-9.03969,-1.08231,-20.5012
2023-03-15 15:39:28:457,-0.149113,1.51226,-9.60002,-9.03912,-1.08089,-20.5052
2023-03-15 15:39:28:467,-0.137427,1.52576,-9.62844,-9.0404,-1.08113,-20.5095
2023-03-15 15:39:28:477,-0.14115,1.5321,-9.62698,-9.03946,-1.08046,-20.5152
2023-03-15 15:39:28:487,-0.16168,1.52716,-9.62253,-9.03887,-1.07937,-20.5219
2023-03-15 15:39:28:497,-0.165034,1.54298,-9.62817,-9.0411,-1.07406,-20.526
2023-03-15 15:39:28:507,-0.150782,1.53462,-9.63242,-9.04148,-1.07242,-20.5236
2023-03-15 15:39:28:517,-0.142964,1.51833,-9.64443,-9.04196,-1.06873,-20.5265
2023-03-15 15:39:28:527,-0.111733,1.53143,-9.66316,-9.04122,-1.06387,-20.5298
2023-03-15 15:39:28:537,-0.0768975,1.53113,-9.67229,-9.04351,-1.06108,-20.5278
2023-03-15 15:39:28:547,-0.0670179,1.52686,-9.66661,-9.04127,-1.05905,-20.5222
2023-03-15 15:39:28:557,-0.0658874,1.52065,-9.64881,-9.03881,-1.06088,-20.5171
2023-03-15 15:39:28:567,-0.0902481,1.5076,-9.61587,-9.03926,-1.06359,-20.5115
2023-03-15 15:39:28:577,-0.115303,1.50255,-9.6039,-9.04411,-1.06641,-20.5026
2023-03-15 15:39:28:587,-0.129387,1.52173,-9.61124,-9.04681,-1.06735,-20.4942
2023-03-15 15:39:28:597,-0.115659,1.53606,-9.62395,-9.05355,-1.06852,-20.4849
2023-03-15 15:39:28:607,-0.100428,1.55029,-9.64008,-9.062,-1.07226,-20.4749
2023-03-15 15:39:28:617,-0.115751,1.5834,-9.65023,-9.07148,-1.0754,-20.4617
2023-03-15 15:39:28:627,-0.132454,1.60552,-9.63945,-9.0798,-1.07854,-20.4475
2023-03-15 15:39:28:637,-0.180801,1.6167,-9.64242,-9.08788,-1.08323,-20.4323
2023-03-15 15:39:28:647,-0.220098,1.63656,-9.63269,-9.09688,-1.08516,-20.4216
2023-03-15 15:39:28:657,-0.241273,1.63251,-9.59455,-9.10563,-1.09117,-20.4132
2023-03-15 15:39:28:667,-0.246365,1.62216,-9.58576,-9.11522,-1.09751,-20.407
2023-03-15 15:39:28:677,-0.216787,1.6428,-9.61409,-9.12466,-1.10204,-20.405
2023-03-15 15:39:28:687,-0.18888,1.65143,-9.65046,-9.13363,-1.10803,-20.4023
2023-03-15 15:39:28:697,-0.190404,1.65425,-9.66952,-9.13997,-1.11807,-20.4019
2023-03-15 15:39:28:707,-0.211133,1.66288,-9.68193,-9.14765,-1.12871,-20.4007
2023-03-15 15:39:28:717,-0.226482,1.65192,-9.67791,-9.15534,-1.14318,-20.4024
2023-03-15 15:39:28:727,-0.22823,1.65314,-9.70703,-9.16112,-1.15777,-20.4053
2023-03-15 15:39:28:737,-0.212886,1.6578,-9.7055,-9.16046,-1.16952,-20.4092
2023-03-15 15:39:28:746,-0.202851,1.64303,-9.6773,-9.15484,-1.18146,-20.4142
2023-03-15 15:39:28:757,-0.198548,1.63163,-9.66966,-9.15055,-1.18853,-20.4173
2023-03-15 15:39:28:767,-0.209945,1.63948,-9.66065,-9.1437,-1.19611,-20.4148
2023-03-15 15:39:28:777,-0.218245,1.60945,-9.64466,-9.13815,-1.20264,-20.4133
2023-03-15 15:39:28:787,-0.238568,1.61181,-9.6495,-9.13388,-1.20982,-20.4123
2023-03-15 15:39:28:797,-0.233855,1.61759,-9.63807,-9.12976,-1.2124,-20.412
2023-03-15 15:39:28:807,-0.209373,1.599,-9.62744,-9.12437,-1.21833,-20.4084
2023-03-15 15:39:28:817,-0.211697,1.60117,-9.65713,-9.11821,-1.21954,-20.4041
2023-03-15 15:39:28:827,-0.233046,1.60008,-9.64164,-9.11066,-1.22485,-20.4014
2023-03-15 15:39:28:837,-0.260368,1.59913,-9.62812,-9.10438,-1.23386,-20.3993
2023-03-15 15:39:28:847,-0.286759,1.60846,-9.63324,-9.09782,-1.24082,-20.4015
2023-03-15 15:39:28:857,-0.294234,1.60104,-9.66024,-9.09032,-1.24467,-20.4055
2023-03-15 15:39:28:867,-0.291711,1.59129,-9.65607,-9.07728,-1.24753,-20.4113
2023-03-15 15:39:28:877,-0.270825,1.57539,-9.63999,-9.06544,-1.24635,-20.4168
2023-03-15 15:39:28:887,-0.258085,1.56493,-9.63389,-9.05499,-1.2487,-20.4244
2023-03-15 15:39:28:897,-0.23081,1.5568,-9.63958,-9.0462,-1.24464,-20.4304
2023-03-15 15:39:28:907,-0.224358,1.5466,-9.62304,-9.03431,-1.24295,-20.444
2023-03-15 15:39:28:917,-0.222532,1.54415,-9.61776,-9.02394,-1.24243,-20.4521
2023-03-15 15:39:28:927,-0.185554,1.54866,-9.62743,-9.01847,-1.24332,-20.4599
2023-03-15 15:39:28:937,-0.158838,1.53916,-9.64502,-9.01112,-1.24317,-20.4684
2023-03-15 15:39:28:947,-0.17567,1.55325,-9.64703,-9.00323,-1.24227,-20.4786
2023-03-15 15:39:28:957,-0.179171,1.547,-9.63633,-8.99164,-1.24199,-20.484
2023-03-15 15:39:28:967,-0.186176,1.53964,-9.6544,-8.98512,-1.24532,-20.4882
2023-03-15 15:39:28:977,-0.18772,1.54155,-9.67695,-8.98181,-1.24757,-20.4921
2023-03-15 15:39:28:987,-0.174888,1.52329,-9.67513,-8.97052,-1.24653,-20.4928
2023-03-15 15:39:28:997,-0.186121,1.51904,-9.67467,-8.96051,-1.24844,-20.4885
2023-03-15 15:39:29:7,-0.192319,1.51177,-9.68171,-8.952,-1.24841,-20.4827
2023-03-15 15:39:29:17,-0.190146,1.51442,-9.69027,-8.93853,-1.24839,-20.4762
2023-03-15 15:39:29:27,-0.219023,1.51135,-9.67225,-8.92924,-1.24701,-20.4689
2023-03-15 15:39:29:37,-0.241691,1.51137,-9.648,-8.91711,-1.24795,-20.4604
2023-03-15 15:39:29:47,-0.241301,1.49966,-9.64843,-8.90506,-1.24967,-20.4559
2023-03-15 15:39:29:57,-0.24129,1.50073,-9.62417,-8.89413,-1.25046,-20.45
2023-03-15 15:39:29:66,-0.229132,1.49067,-9.59804,-8.88681,-1.25278,-20.4486
2023-03-15 15:39:29:77,-0.230151,1.49837,-9.58784,-8.88374,-1.25768,-20.4482
2023-03-15 15:39:29:87,-0.22422,1.50784,-9.62698,-8.87846,-1.26286,-20.4488
2023-03-15 15:39:29:97,-0.221392,1.51987,-9.65904,-8.87492,-1.26701,-20.4512
2023-03-15 15:39:29:107,-0.222349,1.5265,-9.6413,-8.87306,-1.27579,-20.4533
2023-03-15 15:39:29:117,-0.220811,1.51336,-9.62899,-8.86635,-1.28235,-20.4599
2023-03-15 15:39:29:127,-0.219696,1.52334,-9.64325,-8.85932,-1.28405,-20.4597
2023-03-15 15:39:29:137,-0.200137,1.51715,-9.64695,-8.8511,-1.28508,-20.4582
2023-03-15 15:39:29:147,-0.201234,1.50121,-9.64564,-8.84137,-1.28648,-20.4577
2023-03-15 15:39:29:157,-0.188785,1.50251,-9.62403,-8.83677,-1.28736,-20.4548
2023-03-15 15:39:29:167,-0.18419,1.49583,-9.61746,-8.83191,-1.28708,-20.4505
2023-03-15 15:39:29:177,-0.205486,1.51551,-9.63235,-8.82673,-1.28827,-20.4445
2023-03-15 15:39:29:187,-0.218491,1.49768,-9.65501,-8.82521,-1.2942,-20.4378
2023-03-15 15:39:29:197,-0.206566,1.49312,-9.64448,-8.82428,-1.29439,-20.4307
2023-03-15 15:39:29:207,-0.219025,1.4949,-9.62091,-8.82136,-1.29473,-20.419
2023-03-15 15:39:29:217,-0.248792,1.53019,-9.64796,-8.81895,-1.29608,-20.411
2023-03-15 15:39:29:227,-0.243666,1.53671,-9.66703,-8.816,-1.29656,-20.404
2023-03-15 15:39:29:237,-0.258351,1.53036,-9.65711,-8.81093,-1.29814,-20.4011
2023-03-15 15:39:29:247,-0.257612,1.52973,-9.66612,-8.81118,-1.30177,-20.3989
2023-03-15 15:39:29:257,-0.262732,1.53515,-9.66951,-8.80548,-1.30491,-20.3988
2023-03-15 15:39:29:267,-0.262481,1.53177,-9.66008,-8.80064,-1.30791,-20.4
2023-03-15 15:39:29:277,-0.270254,1.52527,-9.66135,-8.7962,-1.3033,-20.4032
2023-03-15 15:39:29:287,-0.254336,1.52026,-9.667,-8.79294,-1.30223,-20.4089
2023-03-15 15:39:29:297,-0.241774,1.51602,-9.64642,-8.78455,-1.30265,-20.4166
2023-03-15 15:39:29:307,-0.261014,1.50196,-9.63828,-8.77981,-1.30365,-20.4159
2023-03-15 15:39:29:317,-0.268975,1.51599,-9.63754,-8.77668,-1.30395,-20.4221
2023-03-15 15:39:29:327,-0.242545,1.5242,-9.64564,-8.77384,-1.30247,-20.4317
2023-03-15 15:39:29:337,-0.221893,1.51686,-9.63227,-8.76964,-1.30116,-20.439
2023-03-15 15:39:29:347,-0.221729,1.50895,-9.63848,-8.76593,-1.30174,-20.4446
2023-03-15 15:39:29:357,-0.238421,1.51301,-9.65179,-8.76286,-1.30623,-20.4565
2023-03-15 15:39:29:367,-0.2259,1.51171,-9.65606,-8.76109,-1.30305,-20.4682
2023-03-15 15:39:29:377,-0.195718,1.50511,-9.68053,-8.75529,-1.30332,-20.4762
2023-03-15 15:39:29:387,-0.197115,1.49975,-9.67894,-8.75077,-1.29896,-20.4861
2023-03-15 15:39:29:397,-0.225851,1.51288,-9.66004,-8.74445,-1.29792,-20.4945
2023-03-15 15:39:29:407,-0.242447,1.50921,-9.66683,-8.7354,-1.29475,-20.5043
2023-03-15 15:39:29:417,-0.22854,1.49663,-9.64597,-8.72783,-1.29148,-20.5123
2023-03-15 15:39:29:427,-0.234853,1.49682,-9.6623,-8.72045,-1.28639,-20.5222
2023-03-15 15:39:29:437,-0.221075,1.50878,-9.70243,-8.71255,-1.28629,-20.5384
2023-03-15 15:39:29:447,-0.178688,1.50475,-9.71689,-8.70468,-1.28189,-20.551
2023-03-15 15:39:29:457,-0.155669,1.49012,-9.68257,-8.69382,-1.28369,-20.5639
2023-03-15 15:39:29:467,-0.169598,1.45686,-9.66968,-8.68094,-1.28587,-20.5766
2023-03-15 15:39:29:477,-0.171847,1.43647,-9.64277,-8.66532,-1.28976,-20.5886
2023-03-15 15:39:29:487,-0.187427,1.43093,-9.62189,-8.65307,-1.29689,-20.5959
2023-03-15 15:39:29:497,-0.209794,1.43921,-9.62794,-8.64728,-1.3029,-20.605
2023-03-15 15:39:29:507,-0.214375,1.47123,-9.66499,-8.64109,-1.31122,-20.6137
2023-03-15 15:39:29:517,-0.193121,1.49545,-9.68545,-8.63501,-1.31699,-20.6289
2023-03-15 15:39:29:527,-0.181276,1.49637,-9.68241,-8.62791,-1.32288,-20.6413
2023-03-15 15:39:29:537,-0.190429,1.50317,-9.66271,-8.61595,-1.32923,-20.652
2023-03-15 15:39:29:547,-0.22496,1.5137,-9.6573,-8.60347,-1.33216,-20.6618
2023-03-15 15:39:29:557,-0.264545,1.51455,-9.64771,-8.59058,-1.34276,-20.677
2023-03-15 15:39:29:567,-0.286272,1.50656,-9.6227,-8.57861,-1.35103,-20.6963
2023-03-15 15:39:29:577,-0.277662,1.49729,-9.61965,-8.5635,-1.35832,-20.7184
2023-03-15 15:39:29:587,-0.259036,1.51379,-9.66441,-8.55179,-1.36513,-20.7481
2023-03-15 15:39:29:597,-0.259362,1.53159,-9.70531,-8.53666,-1.37659,-20.779
2023-03-15 15:39:29:607,-0.284417,1.53443,-9.73038,-8.52378,-1.38921,-20.813
2023-03-15 15:39:29:616,-0.290486,1.53577,-9.7227,-8.50355,-1.40146,-20.8523
2023-03-15 15:39:29:627,-0.297567,1.53334,-9.72513,-8.48338,-1.41827,-20.8966
2023-03-15 15:39:29:637,-0.296306,1.51807,-9.73067,-8.46137,-1.43486,-20.9468
2023-03-15 15:39:29:647,-0.297435,1.47902,-9.70968,-8.43298,-1.4567,-20.995
2023-03-15 15:39:29:657,-0.275098,1.49007,-9.69252,-8.40908,-1.47859,-21.0465
2023-03-15 15:39:29:667,-0.258579,1.48939,-9.68839,-8.38384,-1.50357,-21.1026
2023-03-15 15:39:29:677,-0.286445,1.48692,-9.67454,-8.35957,-1.52829,-21.1602
2023-03-15 15:39:29:687,-0.325195,1.49506,-9.68749,-8.3301,-1.55152,-21.2238
2023-03-15 15:39:29:697,-0.32797,1.49929,-9.69998,-8.30115,-1.57492,-21.2889
2023-03-15 15:39:29:707,-0.309317,1.46395,-9.70932,-8.26978,-1.59458,-21.3538
2023-03-15 15:39:29:717,-0.299991,1.46419,-9.73149,-8.23452,-1.61332,-21.4227
2023-03-15 15:39:29:727,-0.342343,1.4617,-9.72941,-8.19449,-1.63474,-21.4925
2023-03-15 15:39:29:737,-0.396599,1.46544,-9.69877,-8.15152,-1.64905,-21.5676
2023-03-15 15:39:29:747,-0.417711,1.42169,-9.63194,-8.10662,-1.67572,-21.648
2023-03-15 15:39:29:757,-0.466308,1.41503,-9.63026,-8.06717,-1.69826,-21.7268
2023-03-15 15:39:29:767,-0.485005,1.42377,-9.64959,-8.0274,-1.71376,-21.8125
2023-03-15 15:39:29:777,-0.496655,1.42862,-9.6443,-7.98922,-1.7278,-21.9079
2023-03-15 15:39:29:787,-0.515845,1.43694,-9.67587,-7.94966,-1.73853,-22.0141
2023-03-15 15:39:29:797,-0.565992,1.46365,-9.69261,-7.90791,-1.75026,-22.1303
2023-03-15 15:39:29:807,-0.695643,1.48434,-9.66392,-7.86816,-1.76011,-22.2667
2023-03-15 15:39:29:817,-0.723243,1.54587,-9.83321,-7.81503,-1.74722,-22.4232
2023-03-15 15:39:29:827,-0.581195,1.452,-9.76815,-7.75813,-1.74715,-22.5984
2023-03-15 15:39:29:837,-0.495969,1.36463,-9.61546,-7.70314,-1.75043,-22.7801
2023-03-15 15:39:29:847,-0.511113,1.38638,-9.62232,-7.65308,-1.76383,-22.9728
2023-03-15 15:39:29:857,-0.488705,1.38277,-9.6955,-7.60557,-1.77867,-23.1717
2023-03-15 15:39:29:867,-0.364989,1.35518,-9.69381,-7.55601,-1.7948,-23.3706
2023-03-15 15:39:29:877,-0.264166,1.30601,-9.64105,-7.50814,-1.80942,-23.5693
2023-03-15 15:39:29:887,-0.221248,1.26812,-9.62856,-7.45794,-1.82204,-23.7646
2023-03-15 15:39:29:897,-0.177149,1.24727,-9.64248,-7.41251,-1.8327,-23.9553
2023-03-15 15:39:29:907,-0.144769,1.2283,-9.6411,-7.36836,-1.8392,-24.1326
2023-03-15 15:39:29:917,-0.170655,1.25224,-9.68452,-7.32307,-1.82553,-24.3064
2023-03-15 15:39:29:927,-0.151703,1.27985,-9.76398,-7.26676,-1.79935,-24.4751
2023-03-15 15:39:29:937,-0.0782146,1.20342,-9.7001,-7.20787,-1.76745,-24.6307
2023-03-15 15:39:29:947,-0.0296112,1.13638,-9.61132,-7.15104,-1.74304,-24.7735
2023-03-15 15:39:29:957,-0.0451925,1.11704,-9.6139,-7.10477,-1.72602,-24.9032
2023-03-15 15:39:29:967,-0.0227781,1.1254,-9.6425,-7.05985,-1.71034,-25.0199
2023-03-15 15:39:29:977,0.0149445,1.08672,-9.60926,-7.01657,-1.69633,-25.1223
2023-03-15 15:39:29:987,-0.0471676,1.09232,-9.58617,-6.98341,-1.68385,-25.2141
2023-03-15 15:39:29:997,-0.0932198,1.11724,-9.63726,-6.95169,-1.66233,-25.2969
2023-03-15 15:39:30:7,-0.0751812,1.08364,-9.61838,-6.92239,-1.63391,-25.3712
2023-03-15 15:39:30:17,-0.0139587,1.06659,-9.58678,-6.89766,-1.61066,-25.4378
2023-03-15 15:39:30:27,-0.00352696,1.06035,-9.61738,-6.87725,-1.59201,-25.4943
2023-03-15 15:39:30:37,-0.0346415,1.05413,-9.62116,-6.86658,-1.57438,-25.5438
2023-03-15 15:39:30:47,-0.0618968,1.10374,-9.64304,-6.8606,-1.5541,-25.5849
2023-03-15 15:39:30:57,-0.107589,1.16191,-9.73764,-6.84697,-1.51068,-25.6236
2023-03-15 15:39:30:67,-0.0605178,1.1317,-9.73839,-6.82465,-1.4698,-25.6579
2023-03-15 15:39:30:77,0.0272347,1.03564,-9.61092,-6.80689,-1.45076,-25.6807
2023-03-15 15:39:30:86,-0.0421824,1.03175,-9.54972,-6.80621,-1.44687,-25.6966
2023-03-15 15:39:30:96,-0.140555,1.1382,-9.7022,-6.80716,-1.43725,-25.7163
2023-03-15 15:39:30:106,-0.150259,1.17094,-9.75867,-6.80438,-1.42581,-25.7379
2023-03-15 15:39:30:117,-0.144576,1.11046,-9.64951,-6.79905,-1.41677,-25.7558
2023-03-15 15:39:30:127,-0.15366,1.10291,-9.57853,-6.80178,-1.40687,-25.7787
2023-03-15 15:39:30:137,-0.184589,1.13713,-9.59907,-6.81174,-1.40639,-25.7982
2023-03-15 15:39:30:147,-0.187064,1.17674,-9.66125,-6.82476,-1.40862,-25.825
2023-03-15 15:39:30:157,-0.179185,1.20061,-9.68599,-6.83737,-1.41228,-25.8499
2023-03-15 15:39:30:167,-0.201237,1.20614,-9.71574,-6.84952,-1.41901,-25.8798
2023-03-15 15:39:30:177,-0.218237,1.22424,-9.74884,-6.85733,-1.42361,-25.9132
2023-03-15 15:39:30:187,-0.213225,1.22281,-9.74647,-6.86564,-1.42895,-25.9479
2023-03-15 15:39:30:197,-0.211519,1.21137,-9.74334,-6.87056,-1.43426,-25.9806
2023-03-15 15:39:30:207,-0.2112,1.20492,-9.75939,-6.86963,-1.44627,-26.0155
2023-03-15 15:39:30:217,-0.227142,1.19455,-9.77134,-6.86641,-1.45426,-26.0476
2023-03-15 15:39:30:227,-0.244901,1.19798,-9.75202,-6.86183,-1.46377,-26.0808
2023-03-15 15:39:30:237,-0.223503,1.1847,-9.72937,-6.85649,-1.47308,-26.1125
2023-03-15 15:39:30:247,-0.206235,1.17002,-9.69028,-6.85008,-1.47952,-26.1415
2023-03-15 15:39:30:257,-0.214253,1.16954,-9.69928,-6.84938,-1.48738,-26.1705
2023-03-15 15:39:30:267,-0.214964,1.16052,-9.70499,-6.84233,-1.49737,-26.2007
