Timestamp,Acceleration_x,Acceleration_y,Acceleration_z,roll,pitch,yaw
2023-03-15 21:23:35:251,0.363963,7.99115,-5.61026,-54.8029,1.8795,148
2023-03-15 21:23:35:258,0.365481,8.00365,-5.60084,-54.8036,1.87894,148.001
2023-03-15 21:23:35:268,0.363303,7.99573,-5.6192,-54.8067,1.87918,148.004
2023-03-15 21:23:35:278,0.368193,7.98475,-5.60889,-54.8077,1.87892,148.005
2023-03-15 21:23:35:288,0.357492,7.97579,-5.61701,-54.8087,1.88054,148.005
2023-03-15 21:23:35:298,0.361634,7.97735,-5.62144,-54.8059,1.87944,148.003
2023-03-15 21:23:35:308,0.368812,7.989,-5.6198,-54.8039,1.87934,148.002
2023-03-15 21:23:35:318,0.358212,7.9911,-5.61571,-54.7997,1.87872,148.004
2023-03-15 21:23:35:328,0.361712,7.9901,-5.62183,-54.8012,1.87814,148.005
2023-03-15 21:23:35:338,0.348638,7.99368,-5.61385,-54.8026,1.87732,148.006
2023-03-15 21:23:35:348,0.356205,7.99055,-5.61545,-54.802,1.87583,148.007
2023-03-15 21:23:35:358,0.365927,7.98408,-5.62225,-54.8058,1.87524,148.006
2023-03-15 21:23:35:368,0.356621,7.98621,-5.6164,-54.8069,1.87737,148.007
2023-03-15 21:23:35:378,0.365139,7.97741,-5.62545,-54.8081,1.87897,148.002
2023-03-15 21:23:35:388,0.370273,7.9786,-5.62617,-54.8073,1.88105,148.004
2023-03-15 21:23:35:398,0.365166,7.98422,-5.616,-54.8083,1.87941,148.004
2023-03-15 21:23:35:408,0.363133,7.99589,-5.60889,-54.811,1.88179,148.003
2023-03-15 21:23:35:418,0.361482,7.98262,-5.61465,-54.8129,1.88152,148.004
2023-03-15 21:23:35:428,0.358307,7.98209,-5.6207,-54.8121,1.88263,148.003
2023-03-15 21:23:35:438,0.366875,7.99553,-5.61437,-54.81,1.88271,148
2023-03-15 21:23:35:448,0.363216,7.98008,-5.611,-54.8122,1.88346,147.999
2023-03-15 21:23:35:458,0.371113,7.98034,-5.61928,-54.8106,1.88583,147.995
2023-03-15 21:23:35:468,0.365288,7.98812,-5.62884,-54.8119,1.88375,147.993
2023-03-15 21:23:35:478,0.360381,7.97949,-5.61446,-54.8153,1.88541,147.994
2023-03-15 21:23:35:488,0.357332,7.97731,-5.62603,-54.8139,1.88406,147.998
2023-03-15 21:23:35:498,0.354802,7.99237,-5.61828,-54.8146,1.88507,147.999
2023-03-15 21:23:35:508,0.351808,7.99171,-5.60997,-54.8136,1.88418,147.997
2023-03-15 21:23:35:518,0.3633,7.98169,-5.62003,-54.8185,1.88458,147.997
2023-03-15 21:23:35:528,0.363125,7.97522,-5.62753,-54.8177,1.88243,147.997
2023-03-15 21:23:35:538,0.363806,7.97309,-5.62396,-54.8177,1.88008,147.997
2023-03-15 21:23:35:548,0.360801,7.98653,-5.62773,-54.8169,1.87913,147.999
2023-03-15 21:23:35:558,0.356185,7.98569,-5.61072,-54.818,1.87769,147.999
2023-03-15 21:23:35:568,0.349923,7.98554,-5.60944,-54.818,1.8783,147.999
2023-03-15 21:23:35:578,0.352557,7.97906,-5.61754,-54.8152,1.8817,147.998
2023-03-15 21:23:35:588,0.360457,7.97028,-5.62286,-54.8129,1.88384,147.998
2023-03-15 21:23:35:598,0.359125,7.97766,-5.62288,-54.8132,1.88817,147.998
2023-03-15 21:23:35:608,0.36361,7.97257,-5.62931,-54.8103,1.88574,147.999
2023-03-15 21:23:35:618,0.365856,7.9904,-5.61498,-54.8108,1.88482,148.003
2023-03-15 21:23:35:627,0.355131,7.99354,-5.6161,-54.8085,1.88404,148.005
2023-03-15 21:23:35:637,0.336668,7.9968,-5.60868,-54.8073,1.88363,148.007
2023-03-15 21:23:35:647,0.346783,7.99275,-5.61452,-54.8109,1.88182,148.005
2023-03-15 21:23:35:657,0.351242,7.98512,-5.61631,-54.8112,1.88298,148.006
2023-03-15 21:23:35:667,0.350933,7.99231,-5.60872,-54.8132,1.883,148.006
2023-03-15 21:23:35:677,0.360382,7.98719,-5.61878,-54.8138,1.88426,148.009
2023-03-15 21:23:35:687,0.360604,7.98241,-5.62532,-54.8153,1.88195,148.012
2023-03-15 21:23:35:697,0.37044,7.98615,-5.61879,-54.8154,1.88259,148.011
2023-03-15 21:23:35:707,0.352289,7.98744,-5.61682,-54.8182,1.88306,148.012
2023-03-15 21:23:35:717,0.357579,7.99364,-5.61366,-54.8191,1.88346,148.013
2023-03-15 21:23:35:727,0.363408,7.98803,-5.61345,-54.8158,1.88443,148.013
2023-03-15 21:23:35:737,0.355591,8.00012,-5.61643,-54.8153,1.8841,148.013
2023-03-15 21:23:35:747,0.343063,7.99053,-5.62177,-54.8155,1.88551,148.013
2023-03-15 21:23:35:757,0.357983,7.98953,-5.60643,-54.8144,1.88219,148.012
2023-03-15 21:23:35:767,0.362977,7.98695,-5.61847,-54.8145,1.88418,148.012
2023-03-15 21:23:35:777,0.364934,7.98763,-5.61387,-54.815,1.88266,148.013
2023-03-15 21:23:35:787,0.360039,7.99168,-5.60897,-54.8155,1.88331,148.014
2023-03-15 21:23:35:797,0.363075,7.98156,-5.62064,-54.8156,1.88377,148.015
2023-03-15 21:23:35:807,0.366147,7.98797,-5.61267,-54.8158,1.88441,148.015
2023-03-15 21:23:35:817,0.353176,7.98785,-5.61634,-54.8167,1.88762,148.017
2023-03-15 21:23:35:827,0.356694,7.9771,-5.61738,-54.8161,1.88462,148.02
2023-03-15 21:23:35:837,0.355051,7.98683,-5.61335,-54.8174,1.88429,148.022
2023-03-15 21:23:35:847,0.353233,7.99081,-5.60597,-54.8185,1.88226,148.019
2023-03-15 21:23:35:857,0.364352,7.9839,-5.61986,-54.8195,1.88307,148.022
2023-03-15 21:23:35:867,0.363963,7.98609,-5.6274,-54.8188,1.88111,148.02
2023-03-15 21:23:35:877,0.361399,7.98996,-5.62294,-54.8201,1.88216,148.022
2023-03-15 21:23:35:887,0.36772,7.99155,-5.62584,-54.8213,1.88539,148.024
2023-03-15 21:23:35:897,0.371602,7.98666,-5.62684,-54.8237,1.88411,148.024
2023-03-15 21:23:35:908,0.368556,7.98449,-5.61616,-54.8234,1.88417,148.025
2023-03-15 21:23:35:917,0.356499,7.97981,-5.61918,-54.8236,1.8837,148.023
2023-03-15 21:23:35:927,0.361353,7.99089,-5.6175,-54.8224,1.88409,148.026
2023-03-15 21:23:35:937,0.365718,7.98365,-5.62019,-54.8207,1.88325,148.028
2023-03-15 21:23:35:948,0.343391,7.98262,-5.61711,-54.8192,1.88319,148.028
2023-03-15 21:23:35:958,0.364124,7.98601,-5.61645,-54.819,1.88175,148.025
2023-03-15 21:23:35:968,0.369537,7.98664,-5.62317,-54.8158,1.88349,148.027
2023-03-15 21:23:35:978,0.361828,7.98624,-5.62216,-54.8171,1.88316,148.029
2023-03-15 21:23:35:988,0.363408,7.98025,-5.62004,-54.8178,1.88242,148.03
2023-03-15 21:23:35:998,0.369458,7.98373,-5.62556,-54.8132,1.88189,148.03
2023-03-15 21:23:36:7,0.359023,7.97213,-5.63301,-54.8111,1.88133,148.032
2023-03-15 21:23:36:17,0.361264,7.98188,-5.6257,-54.8109,1.88267,148.029
2023-03-15 21:23:36:27,0.361112,7.98141,-5.62488,-54.8121,1.88274,148.027
2023-03-15 21:23:36:37,0.361979,7.99107,-5.61934,-54.8106,1.88531,148.028
2023-03-15 21:23:36:47,0.355219,7.98267,-5.62678,-54.8078,1.88311,148.024
2023-03-15 21:23:36:57,0.354124,7.99206,-5.61513,-54.8082,1.88167,148.024
2023-03-15 21:23:36:67,0.359524,7.98482,-5.61944,-54.8082,1.88499,148.02
2023-03-15 21:23:36:77,0.356368,7.98908,-5.61822,-54.8084,1.88502,148.021
2023-03-15 21:23:36:88,0.364141,7.99195,-5.62002,-54.8067,1.88336,148.024
2023-03-15 21:23:36:97,0.369927,7.97968,-5.63122,-54.8059,1.88524,148.024
2023-03-15 21:23:36:108,0.362419,7.98441,-5.63051,-54.8075,1.88551,148.022
2023-03-15 21:23:36:118,0.362687,7.9883,-5.635,-54.8086,1.88578,148.025
2023-03-15 21:23:36:128,0.350948,7.98742,-5.62416,-54.8062,1.88389,148.026
2023-03-15 21:23:36:138,0.351665,7.98831,-5.61313,-54.8089,1.88758,148.027
2023-03-15 21:23:36:148,0.359453,7.9808,-5.62162,-54.8096,1.88623,148.027
2023-03-15 21:23:36:158,0.363858,7.98707,-5.61902,-54.8126,1.88579,148.028
2023-03-15 21:23:36:168,0.374133,7.98584,-5.62236,-54.8137,1.88547,148.028
2023-03-15 21:23:36:178,0.369378,7.9914,-5.61902,-54.8128,1.88446,148.028
2023-03-15 21:23:36:188,0.374743,7.99016,-5.62361,-54.8156,1.8813,148.032
2023-03-15 21:23:36:198,0.376082,7.9907,-5.616,-54.8175,1.8843,148.03
2023-03-15 21:23:36:208,0.354778,7.98425,-5.60909,-54.816,1.88673,148.032
2023-03-15 21:23:36:218,0.345571,7.99027,-5.60894,-54.8153,1.88861,148.031
2023-03-15 21:23:36:228,0.349677,7.97437,-5.61134,-54.813,1.88961,148.032
2023-03-15 21:23:36:238,0.367255,7.98677,-5.61621,-54.8167,1.89007,148.033
2023-03-15 21:23:36:248,0.346402,7.98884,-5.61771,-54.8201,1.88854,148.033
2023-03-15 21:23:36:258,0.353651,7.96973,-5.6215,-54.8173,1.88913,148.031
2023-03-15 21:23:36:268,0.367701,7.9668,-5.62764,-54.8174,1.88685,148.034
2023-03-15 21:23:36:278,0.360788,7.96946,-5.62466,-54.8188,1.88671,148.034
2023-03-15 21:23:36:288,0.361038,7.97682,-5.61715,-54.8207,1.88677,148.034
2023-03-15 21:23:36:298,0.361355,7.98004,-5.62642,-54.8197,1.88769,148.035
2023-03-15 21:23:36:308,0.35477,7.98489,-5.62054,-54.8236,1.88705,148.033
2023-03-15 21:23:36:318,0.357573,7.99529,-5.61307,-54.8233,1.88849,148.034
2023-03-15 21:23:36:327,0.352385,7.99371,-5.60928,-54.8226,1.88867,148.034
2023-03-15 21:23:36:337,0.353637,7.99247,-5.61505,-54.8227,1.88603,148.031
2023-03-15 21:23:36:348,0.367344,7.98097,-5.61983,-54.8232,1.88514,148.032
2023-03-15 21:23:36:358,0.370624,7.97797,-5.61401,-54.8212,1.88423,148.031
2023-03-15 21:23:36:368,0.357083,7.97914,-5.61728,-54.8189,1.88634,148.031
2023-03-15 21:23:36:378,0.353491,7.99869,-5.61873,-54.8186,1.88717,148.031
2023-03-15 21:23:36:388,0.344308,8.00386,-5.61346,-54.8174,1.88662,148.033
2023-03-15 21:23:36:398,0.357683,7.99284,-5.6086,-54.8159,1.88393,148.032
2023-03-15 21:23:36:408,0.354509,7.99781,-5.59892,-54.8145,1.88336,148.031
2023-03-15 21:23:36:418,0.351816,7.9909,-5.60958,-54.8128,1.88285,148.03
2023-03-15 21:23:36:428,0.365503,7.99455,-5.6159,-54.8133,1.88037,148.029
2023-03-15 21:23:36:438,0.3606,7.99778,-5.61279,-54.8157,1.87821,148.028
2023-03-15 21:23:36:448,0.364841,7.97929,-5.60925,-54.8111,1.87931,148.027
2023-03-15 21:23:36:458,0.363878,7.9851,-5.61478,-54.8139,1.8824,148.026
2023-03-15 21:23:36:468,0.363422,7.99271,-5.61587,-54.8136,1.88315,148.026
2023-03-15 21:23:36:478,0.356085,7.99559,-5.6051,-54.814,1.88675,148.031
2023-03-15 21:23:36:488,0.358172,8.00172,-5.60053,-54.8131,1.88848,148.032
2023-03-15 21:23:36:498,0.346593,7.98994,-5.59914,-54.8134,1.89177,148.031
2023-03-15 21:23:36:508,0.349026,7.98633,-5.61034,-54.8101,1.893,148.033
2023-03-15 21:23:36:518,0.357444,7.98275,-5.61706,-54.8081,1.89372,148.032
2023-03-15 21:23:36:528,0.360497,7.98411,-5.61662,-54.809,1.89748,148.034
2023-03-15 21:23:36:538,0.359112,7.97369,-5.62791,-54.8088,1.89752,148.036
2023-03-15 21:23:36:548,0.354623,7.98694,-5.62541,-54.8058,1.89861,148.035
2023-03-15 21:23:36:558,0.351308,7.98724,-5.61645,-54.8028,1.8978,148.034
2023-03-15 21:23:36:568,0.357409,7.98296,-5.62161,-54.8037,1.89951,148.033
2023-03-15 21:23:36:578,0.35417,7.99253,-5.61627,-54.8024,1.90147,148.034
2023-03-15 21:23:36:588,0.353189,7.99058,-5.62055,-54.8035,1.90029,148.036
2023-03-15 21:23:36:598,0.362894,7.9858,-5.6173,-54.8032,1.90099,148.036
2023-03-15 21:23:36:608,0.355983,7.98225,-5.6194,-54.8046,1.90276,148.036
2023-03-15 21:23:36:618,0.351638,7.97701,-5.62387,-54.8053,1.9024,148.035
2023-03-15 21:23:36:628,0.36067,7.9884,-5.62207,-54.8047,1.90484,148.036
2023-03-15 21:23:36:638,0.358902,7.9939,-5.61697,-54.8043,1.90477,148.038
2023-03-15 21:23:36:648,0.368014,7.99476,-5.62421,-54.8058,1.90674,148.037
2023-03-15 21:23:36:658,0.371288,7.9899,-5.62079,-54.8043,1.90428,148.036
2023-03-15 21:23:36:668,0.370343,7.98266,-5.624,-54.8043,1.90527,148.036
2023-03-15 21:23:36:678,0.362419,7.99133,-5.61121,-54.8096,1.9043,148.034
2023-03-15 21:23:36:688,0.349061,7.99019,-5.61325,-54.81,1.90255,148.033
2023-03-15 21:23:36:698,0.359356,7.98946,-5.61409,-54.8102,1.90315,148.031
2023-03-15 21:23:36:708,0.367922,7.98572,-5.62252,-54.8112,1.90485,148.029
2023-03-15 21:23:36:718,0.366875,7.98588,-5.6226,-54.8128,1.90354,148.031
2023-03-15 21:23:36:728,0.358285,7.99396,-5.62384,-54.8099,1.90375,148.031
2023-03-15 21:23:36:738,0.349959,7.98585,-5.61462,-54.8086,1.90304,148.031
2023-03-15 21:23:36:748,0.372302,7.98754,-5.61495,-54.8095,1.90119,148.03
2023-03-15 21:23:36:758,0.368656,7.99341,-5.60268,-54.8087,1.90193,148.027
2023-03-15 21:23:36:768,0.366287,7.99741,-5.59335,-54.8104,1.90214,148.023
2023-03-15 21:23:36:778,0.362152,7.9897,-5.61559,-54.8112,1.89972,148.026
2023-03-15 21:23:36:788,0.366289,7.98086,-5.61802,-54.81,1.90203,148.024
2023-03-15 21:23:36:798,0.36541,7.9903,-5.60977,-54.8094,1.90263,148.025
2023-03-15 21:23:36:808,0.349563,7.99207,-5.61968,-54.8106,1.90597,148.028
2023-03-15 21:23:36:818,0.359631,7.98764,-5.62123,-54.8097,1.90728,148.029
2023-03-15 21:23:36:828,0.356857,7.98227,-5.63132,-54.8107,1.90737,148.027
2023-03-15 21:23:36:838,0.350964,7.99742,-5.62127,-54.8118,1.90697,148.029
2023-03-15 21:23:36:848,0.362218,7.97975,-5.626,-54.8094,1.90468,148.028
2023-03-15 21:23:36:858,0.359215,7.97715,-5.62133,-54.8084,1.90449,148.029
2023-03-15 21:23:36:868,0.348128,7.99136,-5.61796,-54.8099,1.90493,148.031
2023-03-15 21:23:36:878,0.350893,7.97541,-5.61694,-54.8111,1.90442,148.032
2023-03-15 21:23:36:888,0.362295,7.96926,-5.63528,-54.8092,1.90456,148.033
2023-03-15 21:23:36:898,0.357783,7.97918,-5.61694,-54.8063,1.9045,148.033
2023-03-15 21:23:36:908,0.357265,7.97754,-5.61247,-54.8046,1.90367,148.032
2023-03-15 21:23:36:918,0.367329,7.97407,-5.62473,-54.8068,1.90195,148.031
2023-03-15 21:23:36:928,0.363773,7.99286,-5.61099,-54.8058,1.90578,148.029
2023-03-15 21:23:36:938,0.364766,7.98005,-5.62919,-54.8028,1.90502,148.028
2023-03-15 21:23:36:948,0.359905,7.98236,-5.62104,-54.8069,1.90709,148.029
2023-03-15 21:23:36:958,0.365104,7.98717,-5.62071,-54.8063,1.90902,148.027
2023-03-15 21:23:36:968,0.359905,7.99478,-5.62143,-54.8041,1.90812,148.03
2023-03-15 21:23:36:978,0.366858,7.99119,-5.61969,-54.8066,1.90867,148.028
2023-03-15 21:23:36:988,0.370068,7.97496,-5.62371,-54.8071,1.90889,148.027
2023-03-15 21:23:36:998,0.356321,7.9811,-5.61735,-54.8055,1.90895,148.024
2023-03-15 21:23:37:8,0.353719,7.99148,-5.61242,-54.8024,1.90891,148.025
2023-03-15 21:23:37:18,0.353822,7.98658,-5.61353,-54.802,1.90908,148.025
2023-03-15 21:23:37:28,0.360025,7.97909,-5.61843,-54.8031,1.91066,148.025
2023-03-15 21:23:37:38,0.352864,7.97594,-5.62151,-54.8028,1.91125,148.023
2023-03-15 21:23:37:48,0.360259,7.98618,-5.61328,-54.8015,1.90834,148.024
2023-03-15 21:23:37:58,0.357926,7.99223,-5.61977,-54.8011,1.9095,148.025
2023-03-15 21:23:37:68,0.357976,7.98678,-5.62908,-54.8032,1.9115,148.023
2023-03-15 21:23:37:78,0.354793,7.98819,-5.62297,-54.8036,1.90998,148.021
2023-03-15 21:23:37:88,0.356009,7.99514,-5.61587,-54.8031,1.91315,148.021
2023-03-15 21:23:37:98,0.36248,7.98502,-5.61913,-54.8024,1.91361,148.023
2023-03-15 21:23:37:108,0.356164,7.97908,-5.6192,-54.8024,1.9132,148.025
2023-03-15 21:23:37:118,0.358043,7.97701,-5.6283,-54.8033,1.91364,148.025
2023-03-15 21:23:37:128,0.363089,7.98409,-5.62498,-54.8028,1.91249,148.024
2023-03-15 21:23:37:138,0.354761,7.99091,-5.61421,-54.7997,1.91019,148.024
2023-03-15 21:23:37:148,0.349016,7.98297,-5.61452,-54.7979,1.91259,148.02
2023-03-15 21:23:37:157,0.356167,7.99377,-5.61732,-54.7969,1.91205,148.021
2023-03-15 21:23:37:168,0.36402,7.98422,-5.61873,-54.794,1.91044,148.023
2023-03-15 21:23:37:178,0.364603,7.98182,-5.61768,-54.7934,1.91031,148.022
2023-03-15 21:23:37:188,0.362158,7.99091,-5.61437,-54.789,1.90764,148.023
2023-03-15 21:23:37:198,0.361903,7.99558,-5.61236,-54.7889,1.90792,148.025
2023-03-15 21:23:37:208,0.370258,7.9887,-5.61955,-54.7902,1.90332,148.026
2023-03-15 21:23:37:218,0.363054,7.98737,-5.61607,-54.7921,1.90769,148.024
2023-03-15 21:23:37:228,0.360402,7.97583,-5.62572,-54.7893,1.90802,148.026
2023-03-15 21:23:37:238,0.350562,7.95974,-5.64258,-54.788,1.90675,148.023
2023-03-15 21:23:37:248,0.351944,7.99478,-5.60049,-54.7868,1.90672,148.023
2023-03-15 21:23:37:258,0.358394,7.98801,-5.62568,-54.7837,1.90968,148.026
2023-03-15 21:23:37:268,0.359366,7.98673,-5.61497,-54.7832,1.90987,148.025
2023-03-15 21:23:37:278,0.369663,7.99958,-5.60338,-54.7809,1.91029,148.024
2023-03-15 21:23:37:288,0.373525,7.97601,-5.6347,-54.7828,1.913,148.023
2023-03-15 21:23:37:298,0.349085,7.9986,-5.61371,-54.7824,1.91173,148.023
2023-03-15 21:23:37:308,0.355865,7.97991,-5.63754,-54.7804,1.91485,148.023
2023-03-15 21:23:37:318,0.359239,7.98668,-5.62146,-54.7807,1.91527,148.025
2023-03-15 21:23:37:328,0.362518,7.98849,-5.61104,-54.7773,1.91477,148.023
2023-03-15 21:23:37:338,0.356443,7.98949,-5.61603,-54.7772,1.91269,148.025
2023-03-15 21:23:37:348,0.359892,7.98941,-5.61753,-54.7772,1.913,148.024
2023-03-15 21:23:37:357,0.350866,8.00172,-5.60978,-54.7797,1.90986,148.021
2023-03-15 21:23:37:368,0.365664,7.98963,-5.61994,-54.7762,1.90771,148.023
2023-03-15 21:23:37:378,0.365935,7.98748,-5.61766,-54.7748,1.90753,148.022
2023-03-15 21:23:37:388,0.358343,8.00083,-5.62171,-54.7738,1.90741,148.02
2023-03-15 21:23:37:398,0.351333,7.98791,-5.63431,-54.7755,1.90721,148.022
2023-03-15 21:23:37:408,0.349817,8.00034,-5.60295,-54.7787,1.90665,148.026
2023-03-15 21:23:37:418,0.349684,7.98163,-5.62607,-54.7798,1.90448,148.029
2023-03-15 21:23:37:428,0.36929,7.97913,-5.60865,-54.7813,1.90312,148.027
2023-03-15 21:23:37:438,0.373226,7.98267,-5.62794,-54.7845,1.90253,148.03
2023-03-15 21:23:37:448,0.369579,7.98167,-5.62165,-54.7859,1.90494,148.028
2023-03-15 21:23:37:458,0.362676,7.99275,-5.61083,-54.788,1.90392,148.027
2023-03-15 21:23:37:468,0.356227,7.987,-5.6174,-54.7908,1.9055,148.026
2023-03-15 21:23:37:478,0.357723,7.9898,-5.60833,-54.7924,1.90578,148.024
2023-03-15 21:23:37:488,0.35055,7.98969,-5.62197,-54.7964,1.90691,148.026
2023-03-15 21:23:37:498,0.351479,7.98247,-5.61067,-54.7959,1.90358,148.03
2023-03-15 21:23:37:508,0.350595,7.98949,-5.61597,-54.7966,1.90302,148.024
2023-03-15 21:23:37:518,0.355126,7.98299,-5.61728,-54.7949,1.90378,148.026
2023-03-15 21:23:37:528,0.365635,7.97603,-5.61614,-54.7967,1.90326,148.027
2023-03-15 21:23:37:538,0.377291,7.98329,-5.61103,-54.7948,1.90264,148.027
2023-03-15 21:23:37:548,0.366838,7.97893,-5.61414,-54.7956,1.89906,148.028
2023-03-15 21:23:37:558,0.355565,7.99222,-5.61579,-54.7958,1.90012,148.031
2023-03-15 21:23:37:568,0.352618,7.98902,-5.61429,-54.7954,1.90007,148.033
2023-03-15 21:23:37:578,0.356049,7.98609,-5.6096,-54.7949,1.89956,148.035
2023-03-15 21:23:37:588,0.366008,7.99406,-5.62646,-54.7922,1.90103,148.03
2023-03-15 21:23:37:598,0.358892,7.97788,-5.63507,-54.7938,1.90189,148.031
2023-03-15 21:23:37:607,0.358825,7.98429,-5.61628,-54.7952,1.90625,148.034
2023-03-15 21:23:37:618,0.360826,7.9804,-5.62106,-54.7948,1.90662,148.034
2023-03-15 21:23:37:628,0.352539,7.9791,-5.6226,-54.7948,1.90718,148.036
2023-03-15 21:23:37:638,0.369112,7.98726,-5.6151,-54.7939,1.90752,148.038
2023-03-15 21:23:37:648,0.368401,7.98937,-5.6112,-54.7939,1.90606,148.036
2023-03-15 21:23:37:658,0.361977,7.98438,-5.62532,-54.7922,1.90509,148.036
2023-03-15 21:23:37:668,0.356928,7.9846,-5.61187,-54.7932,1.90604,148.036
2023-03-15 21:23:37:678,0.356577,7.99159,-5.61015,-54.7925,1.9053,148.035
2023-03-15 21:23:37:688,0.361105,7.98443,-5.6233,-54.7935,1.90488,148.035
2023-03-15 21:23:37:698,0.349849,7.99621,-5.60206,-54.7931,1.90339,148.034
2023-03-15 21:23:37:708,0.351446,7.99604,-5.60362,-54.7935,1.90128,148.034
2023-03-15 21:23:37:718,0.360215,7.99758,-5.6133,-54.7924,1.90224,148.034
2023-03-15 21:23:37:728,0.350378,7.99561,-5.61782,-54.7891,1.90269,148.034
2023-03-15 21:23:37:738,0.352743,7.9854,-5.62209,-54.7879,1.90322,148.034
2023-03-15 21:23:37:748,0.3649,7.98899,-5.61534,-54.7879,1.90619,148.036
2023-03-15 21:23:37:758,0.366297,7.99038,-5.62161,-54.7879,1.90559,148.038
2023-03-15 21:23:37:768,0.354068,7.98989,-5.62204,-54.7858,1.9042,148.037
2023-03-15 21:23:37:778,0.354257,7.97838,-5.62864,-54.7845,1.90088,148.039
2023-03-15 21:23:37:788,0.354208,7.99116,-5.61345,-54.7879,1.89904,148.039
2023-03-15 21:23:37:797,0.358878,7.98431,-5.61801,-54.7876,1.89782,148.041
2023-03-15 21:23:37:808,0.350405,7.98355,-5.61167,-54.7852,1.89824,148.039
2023-03-15 21:23:37:818,0.362245,7.98333,-5.62055,-54.7841,1.89649,148.039
2023-03-15 21:23:37:828,0.362244,7.98155,-5.62208,-54.7831,1.89396,148.038
2023-03-15 21:23:37:838,0.367037,7.97685,-5.6196,-54.7865,1.89206,148.04
2023-03-15 21:23:37:847,0.359324,7.99241,-5.61652,-54.789,1.89321,148.039
2023-03-15 21:23:37:858,0.3543,7.99302,-5.61029,-54.7877,1.89414,148.04
2023-03-15 21:23:37:867,0.339736,7.99132,-5.61265,-54.7891,1.89457,148.038
2023-03-15 21:23:37:877,0.340674,7.9888,-5.60705,-54.7922,1.89247,148.037
2023-03-15 21:23:37:888,0.353959,7.99165,-5.60274,-54.7922,1.89158,148.039
2023-03-15 21:23:37:898,0.360142,7.97984,-5.6365,-54.7886,1.89479,148.041
2023-03-15 21:23:37:907,0.357762,7.98746,-5.61396,-54.7894,1.89473,148.038
2023-03-15 21:23:37:918,0.360748,7.9878,-5.62349,-54.7896,1.89543,148.041
2023-03-15 21:23:37:927,0.367513,7.97821,-5.63064,-54.789,1.89555,148.043
2023-03-15 21:23:37:938,0.366288,7.98077,-5.6201,-54.7847,1.89795,148.041
2023-03-15 21:23:37:948,0.35912,7.97268,-5.6393,-54.7853,1.89693,148.041
2023-03-15 21:23:37:958,0.360513,7.98159,-5.62808,-54.7869,1.89699,148.04
2023-03-15 21:23:37:968,0.352104,7.98429,-5.62095,-54.7876,1.89697,148.039
2023-03-15 21:23:37:978,0.348962,7.97485,-5.61851,-54.7903,1.89727,148.04
2023-03-15 21:23:37:988,0.35828,7.98298,-5.62425,-54.7884,1.89824,148.041
2023-03-15 21:23:37:998,0.357183,7.98865,-5.6155,-54.7879,1.89603,148.041
2023-03-15 21:23:38:8,0.362999,7.9949,-5.60683,-54.7918,1.89789,148.04
2023-03-15 21:23:38:18,0.363318,7.98151,-5.60741,-54.7898,1.89899,148.042
2023-03-15 21:23:38:28,0.367575,7.96907,-5.63004,-54.7905,1.89929,148.047
2023-03-15 21:23:38:38,0.367139,7.97315,-5.63079,-54.7897,1.90084,148.048
2023-03-15 21:23:38:48,0.355653,7.98849,-5.61596,-54.7899,1.8978,148.049
2023-03-15 21:23:38:58,0.362619,7.98234,-5.61398,-54.791,1.89905,148.048
2023-03-15 21:23:38:68,0.348636,7.98275,-5.61254,-54.796,1.89908,148.048
2023-03-15 21:23:38:78,0.350336,7.98947,-5.59409,-54.7985,1.9011,148.047
2023-03-15 21:23:38:88,0.355726,7.9967,-5.6126,-54.8025,1.9008,148.048
2023-03-15 21:23:38:98,0.370114,7.97241,-5.62342,-54.8041,1.90166,148.049
2023-03-15 21:23:38:108,0.37296,7.96898,-5.6219,-54.8057,1.90163,148.052
2023-03-15 21:23:38:117,0.353582,7.97405,-5.61693,-54.8072,1.90298,148.051
2023-03-15 21:23:38:127,0.360323,7.98493,-5.62095,-54.8061,1.90487,148.051
2023-03-15 21:23:38:137,0.353386,7.98806,-5.62089,-54.8048,1.9035,148.054
2023-03-15 21:23:38:147,0.339151,7.98337,-5.61366,-54.8024,1.89967,148.052
2023-03-15 21:23:38:158,0.348139,7.98239,-5.61764,-54.8033,1.90136,148.05
2023-03-15 21:23:38:167,0.353262,7.97729,-5.61418,-54.8035,1.90185,148.048
2023-03-15 21:23:38:178,0.351114,7.97473,-5.61293,-54.803,1.90196,148.049
2023-03-15 21:23:38:188,0.339155,7.97571,-5.61971,-54.8028,1.8978,148.048
2023-03-15 21:23:38:198,0.337066,7.98402,-5.61218,-54.8007,1.89462,148.05
2023-03-15 21:23:38:207,0.34833,7.98242,-5.60247,-54.8006,1.89363,148.05
2023-03-15 21:23:38:218,0.362136,7.9749,-5.61231,-54.8021,1.89311,148.048
2023-03-15 21:23:38:228,0.360935,7.97594,-5.62164,-54.801,1.89353,148.049
2023-03-15 21:23:38:238,0.354361,7.99193,-5.61638,-54.8023,1.89349,148.049
2023-03-15 21:23:38:248,0.365037,7.98272,-5.6162,-54.8024,1.893,148.048
2023-03-15 21:23:38:257,0.355296,7.98852,-5.61256,-54.8047,1.89102,148.046
2023-03-15 21:23:38:268,0.351109,7.99175,-5.61018,-54.8039,1.88962,148.046
2023-03-15 21:23:38:278,0.348575,7.98218,-5.6239,-54.8057,1.8923,148.045
2023-03-15 21:23:38:288,0.352487,7.97876,-5.61962,-54.8059,1.89275,148.044
2023-03-15 21:23:38:298,0.358566,7.98003,-5.61206,-54.8068,1.89228,148.044
2023-03-15 21:23:38:308,0.347853,7.9771,-5.61681,-54.8061,1.89239,148.047
2023-03-15 21:23:38:318,0.355419,7.98678,-5.61912,-54.8039,1.8928,148.042
2023-03-15 21:23:38:328,0.355101,7.98599,-5.61888,-54.8043,1.89425,148.041
2023-03-15 21:23:38:338,0.364114,7.97656,-5.61559,-54.8062,1.89333,148.041
2023-03-15 21:23:38:348,0.375475,7.98537,-5.61583,-54.8037,1.89451,148.04
2023-03-15 21:23:38:357,0.36269,7.98674,-5.61469,-54.8031,1.89386,148.04
2023-03-15 21:23:38:367,0.360947,7.97805,-5.61819,-54.8034,1.89438,148.037
2023-03-15 21:23:38:377,0.358583,7.98714,-5.61465,-54.8049,1.89334,148.036
2023-03-15 21:23:38:387,0.354189,7.99402,-5.60529,-54.8081,1.8933,148.034
2023-03-15 21:23:38:397,0.353524,8.00135,-5.60167,-54.8089,1.89288,148.031
2023-03-15 21:23:38:407,0.357999,7.99365,-5.61231,-54.8115,1.89066,148.034
2023-03-15 21:23:38:418,0.358553,7.9917,-5.6149,-54.8146,1.89139,148.03
2023-03-15 21:23:38:427,0.354697,7.9746,-5.61746,-54.8154,1.89003,148.031
2023-03-15 21:23:38:437,0.369495,7.97663,-5.61551,-54.8139,1.8919,148.032
2023-03-15 21:23:38:447,0.36802,7.99177,-5.61752,-54.8141,1.89274,148.032
2023-03-15 21:23:38:458,0.362642,7.9892,-5.61858,-54.8164,1.89746,148.034
2023-03-15 21:23:38:468,0.36748,7.99155,-5.61483,-54.8166,1.89826,148.033
2023-03-15 21:23:38:478,0.364922,7.99414,-5.62148,-54.8183,1.8982,148.032
2023-03-15 21:23:38:487,0.363917,7.98894,-5.60935,-54.8185,1.90063,148.032
2023-03-15 21:23:38:498,0.357573,7.98387,-5.61186,-54.819,1.89948,148.034
2023-03-15 21:23:38:508,0.35343,7.98051,-5.62072,-54.8173,1.9005,148.034
2023-03-15 21:23:38:518,0.367901,7.98374,-5.6187,-54.8202,1.89959,148.034
2023-03-15 21:23:38:528,0.373251,7.98573,-5.62201,-54.8205,1.90153,148.032
2023-03-15 21:23:38:538,0.367991,7.98674,-5.61474,-54.8203,1.90224,148.032
2023-03-15 21:23:38:548,0.356464,7.99018,-5.61512,-54.8197,1.90119,148.028
2023-03-15 21:23:38:558,0.359808,7.99152,-5.60777,-54.8209,1.89964,148.028
2023-03-15 21:23:38:567,0.367157,7.98954,-5.60533,-54.8188,1.90016,148.029
2023-03-15 21:23:38:577,0.352696,7.99302,-5.61112,-54.8177,1.90136,148.027
2023-03-15 21:23:38:587,0.355319,7.98726,-5.60925,-54.8151,1.90297,148.025
2023-03-15 21:23:38:598,0.35684,7.99128,-5.60725,-54.8138,1.90334,148.024
2023-03-15 21:23:38:607,0.357619,7.98649,-5.61438,-54.8132,1.90626,148.026
2023-03-15 21:23:38:618,0.36265,7.98622,-5.62003,-54.8108,1.90493,148.028
2023-03-15 21:23:38:627,0.354932,7.98549,-5.61986,-54.8117,1.90248,148.028
2023-03-15 21:23:38:638,0.371151,7.98256,-5.62628,-54.8086,1.90494,148.031
2023-03-15 21:23:38:647,0.359948,7.98286,-5.61788,-54.8064,1.90798,148.029
2023-03-15 21:23:38:658,0.358089,7.98738,-5.60481,-54.8082,1.90622,148.025
2023-03-15 21:23:38:667,0.352404,7.98828,-5.61125,-54.8067,1.90428,148.026
2023-03-15 21:23:38:677,0.346711,8.00459,-5.61679,-54.8088,1.90556,148.025
2023-03-15 21:23:38:687,0.351263,8.00028,-5.61406,-54.8084,1.90681,148.027
2023-03-15 21:23:38:697,0.35202,7.98668,-5.61043,-54.8095,1.90483,148.025
2023-03-15 21:23:38:707,0.357446,7.98906,-5.62486,-54.8127,1.90483,148.027
2023-03-15 21:23:38:717,0.354041,8.00202,-5.61807,-54.8137,1.90574,148.028
2023-03-15 21:23:38:727,0.355937,7.98835,-5.62298,-54.8157,1.90482,148.025
2023-03-15 21:23:38:737,0.357965,7.98297,-5.61445,-54.8163,1.90798,148.025
2023-03-15 21:23:38:747,0.352681,7.98001,-5.61333,-54.8151,1.9083,148.023
2023-03-15 21:23:38:758,0.35779,7.98166,-5.62848,-54.8124,1.90626,148.026
2023-03-15 21:23:38:768,0.356176,7.98087,-5.627,-54.8101,1.90741,148.024
2023-03-15 21:23:38:778,0.356905,7.9883,-5.62023,-54.812,1.9068,148.025
2023-03-15 21:23:38:787,0.360717,7.98373,-5.61968,-54.8101,1.90585,148.028
2023-03-15 21:23:38:798,0.36066,7.9819,-5.61804,-54.8107,1.90079,148.026
2023-03-15 21:23:38:807,0.36256,7.98187,-5.611,-54.8092,1.89831,148.029
2023-03-15 21:23:38:818,0.363259,7.97725,-5.61845,-54.8109,1.89746,148.029
2023-03-15 21:23:38:827,0.364447,7.987,-5.61275,-54.812,1.89889,148.03
2023-03-15 21:23:38:838,0.358686,7.97726,-5.61678,-54.8101,1.89693,148.031
2023-03-15 21:23:38:847,0.352423,7.98058,-5.61276,-54.8101,1.89814,148.032
2023-03-15 21:23:38:858,0.352916,7.98042,-5.62218,-54.8103,1.89825,148.03
2023-03-15 21:23:38:867,0.351986,7.98417,-5.61472,-54.8095,1.89718,148.031
2023-03-15 21:23:38:877,0.344373,7.99129,-5.61541,-54.8101,1.89574,148.031
2023-03-15 21:23:38:887,0.355824,7.99762,-5.60614,-54.8117,1.89553,148.03
2023-03-15 21:23:38:897,0.364466,7.99532,-5.62497,-54.8132,1.89146,148.032
2023-03-15 21:23:38:907,0.365072,7.98939,-5.62446,-54.8128,1.89191,148.032
2023-03-15 21:23:38:917,0.375555,7.98821,-5.62131,-54.8121,1.89336,148.035
2023-03-15 21:23:38:927,0.357224,7.98709,-5.61057,-54.8108,1.89601,148.033
2023-03-15 21:23:38:937,0.368285,7.98771,-5.60419,-54.8086,1.89552,148.033
2023-03-15 21:23:38:947,0.356607,7.99123,-5.60312,-54.811,1.89623,148.034
2023-03-15 21:23:38:957,0.355004,7.99034,-5.60334,-54.8112,1.89752,148.035
2023-03-15 21:23:38:967,0.356293,7.98326,-5.609,-54.8129,1.89832,148.039
2023-03-15 21:23:38:978,0.357476,7.98678,-5.60927,-54.812,1.89622,148.041
2023-03-15 21:23:38:987,0.353321,7.98889,-5.61499,-54.8141,1.89502,148.039
2023-03-15 21:23:38:997,0.360708,7.99075,-5.615,-54.8181,1.89613,148.04
2023-03-15 21:23:39:7,0.349702,7.99777,-5.61833,-54.8192,1.89658,148.036
2023-03-15 21:23:39:18,0.359648,7.9858,-5.62106,-54.8208,1.89476,148.038
2023-03-15 21:23:39:27,0.359348,7.9778,-5.62507,-54.8198,1.8929,148.035
2023-03-15 21:23:39:38,0.366104,7.97781,-5.62459,-54.8188,1.89455,148.034
2023-03-15 21:23:39:47,0.360735,7.97718,-5.62283,-54.8187,1.89269,148.035
2023-03-15 21:23:39:57,0.354866,7.9779,-5.62179,-54.8205,1.89217,148.037
2023-03-15 21:23:39:67,0.357363,7.98226,-5.62842,-54.8205,1.89142,148.037
2023-03-15 21:23:39:78,0.354218,7.98991,-5.62356,-54.8216,1.8947,148.036
2023-03-15 21:23:39:87,0.35123,7.98733,-5.61604,-54.8234,1.89359,148.034
2023-03-15 21:23:39:98,0.352142,7.998,-5.6144,-54.8228,1.89567,148.032
2023-03-15 21:23:39:107,0.356616,7.99005,-5.61701,-54.8217,1.89264,148.034
2023-03-15 21:23:39:118,0.353298,7.98833,-5.62102,-54.8211,1.88927,148.035
2023-03-15 21:23:39:127,0.372435,7.99132,-5.60826,-54.8174,1.88907,148.035
2023-03-15 21:23:39:137,0.374203,7.97979,-5.61796,-54.8161,1.89098,148.034
2023-03-15 21:23:39:147,0.363469,7.97982,-5.62295,-54.8159,1.88943,148.037
2023-03-15 21:23:39:157,0.359696,7.98847,-5.60389,-54.818,1.88987,148.036
2023-03-15 21:23:39:167,0.35179,7.99109,-5.6052,-54.8186,1.88982,148.037
2023-03-15 21:23:39:177,0.361738,7.9914,-5.60815,-54.819,1.88927,148.039
2023-03-15 21:23:39:187,0.353135,7.98099,-5.60589,-54.8189,1.88944,148.041
2023-03-15 21:23:39:197,0.357185,7.97037,-5.62171,-54.8146,1.88908,148.04
2023-03-15 21:23:39:207,0.370022,7.98221,-5.61614,-54.8124,1.88859,148.042
2023-03-15 21:23:39:218,0.367845,7.99333,-5.60724,-54.8109,1.88839,148.042
2023-03-15 21:23:39:227,0.370123,7.99134,-5.61643,-54.8105,1.88622,148.042
2023-03-15 21:23:39:237,0.359252,7.99123,-5.62921,-54.8119,1.88612,148.042
2023-03-15 21:23:39:247,0.35854,7.99238,-5.6155,-54.811,1.88543,148.045
2023-03-15 21:23:39:258,0.349379,7.99319,-5.60316,-54.8114,1.88519,148.047
2023-03-15 21:23:39:267,0.361369,7.98506,-5.6086,-54.8083,1.88331,148.046
2023-03-15 21:23:39:278,0.358895,7.98677,-5.61556,-54.808,1.8816,148.045
2023-03-15 21:23:39:287,0.351906,7.97773,-5.62266,-54.8078,1.8854,148.044
2023-03-15 21:23:39:297,0.365728,7.98289,-5.6195,-54.8072,1.8859,148.046
2023-03-15 21:23:39:307,0.36171,7.9883,-5.61462,-54.8085,1.88322,148.049
2023-03-15 21:23:39:318,0.361526,7.98037,-5.61368,-54.8073,1.88487,148.051
2023-03-15 21:23:39:327,0.361232,7.99025,-5.61202,-54.8071,1.88409,148.05
2023-03-15 21:23:39:337,0.35414,7.99393,-5.62236,-54.8062,1.8861,148.049
2023-03-15 21:23:39:347,0.357416,7.994,-5.61379,-54.8057,1.88689,148.05
2023-03-15 21:23:39:357,0.358576,7.99049,-5.61216,-54.803,1.88283,148.052
2023-03-15 21:23:39:367,0.366748,7.97928,-5.61528,-54.8004,1.88751,148.051
2023-03-15 21:23:39:377,0.359785,7.98463,-5.61676,-54.7988,1.88769,148.048
2023-03-15 21:23:39:387,0.361948,7.97761,-5.62412,-54.7995,1.89067,148.048
2023-03-15 21:23:39:397,0.354172,7.99352,-5.61836,-54.8009,1.89064,148.048
2023-03-15 21:23:39:407,0.349021,7.98489,-5.61469,-54.8027,1.89152,148.046
2023-03-15 21:23:39:417,0.346336,7.97049,-5.62036,-54.8011,1.89305,148.045
2023-03-15 21:23:39:427,0.354075,7.97785,-5.62234,-54.8013,1.89249,148.045
2023-03-15 21:23:39:437,0.359477,7.97231,-5.62553,-54.7973,1.89315,148.046
2023-03-15 21:23:39:447,0.358456,7.98217,-5.61437,-54.7966,1.89354,148.045
2023-03-15 21:23:39:457,0.352182,7.98935,-5.61946,-54.7944,1.89253,148.047
2023-03-15 21:23:39:467,0.342708,7.98249,-5.62297,-54.7939,1.8929,148.048
2023-03-15 21:23:39:478,0.352136,7.98212,-5.62087,-54.7903,1.89283,148.049
2023-03-15 21:23:39:487,0.346826,7.97695,-5.61431,-54.7865,1.89472,148.051
2023-03-15 21:23:39:497,0.340793,7.98542,-5.60722,-54.7885,1.89374,148.054
2023-03-15 21:23:39:507,0.355799,7.98506,-5.62336,-54.7886,1.89433,148.052
2023-03-15 21:23:39:518,0.362454,7.98828,-5.61217,-54.787,1.8973,148.051
2023-03-15 21:23:39:527,0.358793,7.98549,-5.62024,-54.7873,1.89993,148.052
2023-03-15 21:23:39:537,0.356733,7.98463,-5.61712,-54.7907,1.89961,148.052
2023-03-15 21:23:39:547,0.355,7.98161,-5.61449,-54.7928,1.89854,148.053
2023-03-15 21:23:39:557,0.365275,7.98716,-5.61268,-54.7902,1.89932,148.052
2023-03-15 21:23:39:567,0.363707,7.99477,-5.61181,-54.7891,1.89914,148.051
2023-03-15 21:23:39:577,0.370627,7.98123,-5.62236,-54.7882,1.89923,148.049
2023-03-15 21:23:39:587,0.366418,7.98346,-5.62444,-54.7864,1.89853,148.051
2023-03-15 21:23:39:597,0.36324,7.99084,-5.61267,-54.7843,1.89835,148.052
2023-03-15 21:23:39:607,0.365847,7.98151,-5.61598,-54.7831,1.90006,148.053
2023-03-15 21:23:39:617,0.360198,7.99005,-5.61175,-54.7834,1.90184,148.052
2023-03-15 21:23:39:627,0.358547,7.98976,-5.61741,-54.7833,1.90135,148.05
2023-03-15 21:23:39:637,0.36034,7.99051,-5.61378,-54.7822,1.89812,148.053
2023-03-15 21:23:39:647,0.359299,7.99286,-5.61119,-54.783,1.8976,148.055
2023-03-15 21:23:39:657,0.364693,7.98319,-5.61834,-54.7818,1.89826,148.056
2023-03-15 21:23:39:667,0.359268,7.98386,-5.62299,-54.7842,1.89947,148.058
2023-03-15 21:23:39:677,0.361365,7.98347,-5.62276,-54.7859,1.90079,148.061
2023-03-15 21:23:39:687,0.362769,7.98916,-5.61283,-54.7872,1.90037,148.06
2023-03-15 21:23:39:697,0.355679,7.98518,-5.62872,-54.7876,1.9015,148.058
2023-03-15 21:23:39:707,0.359002,7.98086,-5.61818,-54.7888,1.90026,148.06
2023-03-15 21:23:39:717,0.351282,8.0003,-5.61203,-54.7874,1.8962,148.057
2023-03-15 21:23:39:727,0.352338,7.9924,-5.60648,-54.7863,1.89691,148.054
2023-03-15 21:23:39:737,0.356773,7.98653,-5.61007,-54.7852,1.89967,148.057
2023-03-15 21:23:39:747,0.34541,7.98473,-5.61441,-54.7853,1.8992,148.055
2023-03-15 21:23:39:757,0.350073,7.9869,-5.61293,-54.7844,1.89853,148.054
2023-03-15 21:23:39:767,0.346304,7.98942,-5.60925,-54.7864,1.9022,148.058
2023-03-15 21:23:39:777,0.346267,7.97615,-5.6147,-54.7861,1.90093,148.059
2023-03-15 21:23:39:787,0.370575,7.97803,-5.62138,-54.7855,1.90101,148.054
2023-03-15 21:23:39:797,0.360042,7.97884,-5.62006,-54.788,1.89927,148.054
2023-03-15 21:23:39:807,0.351585,7.98197,-5.61909,-54.7827,1.89817,148.055
2023-03-15 21:23:39:817,0.360007,7.98801,-5.61701,-54.7828,1.8978,148.054
2023-03-15 21:23:39:827,0.369071,7.98709,-5.61045,-54.7843,1.89824,148.053
2023-03-15 21:23:39:837,0.358926,7.99393,-5.60648,-54.7844,1.90007,148.05
2023-03-15 21:23:39:847,0.358232,7.98743,-5.60766,-54.7836,1.90012,148.052
2023-03-15 21:23:39:857,0.363857,7.98654,-5.62021,-54.7843,1.90015,148.052
2023-03-15 21:23:39:867,0.365882,7.99874,-5.61834,-54.7816,1.89911,148.054
2023-03-15 21:23:39:877,0.368304,7.99713,-5.61852,-54.7823,1.90029,148.055
2023-03-15 21:23:39:887,0.362117,7.9856,-5.6167,-54.7845,1.90239,148.056
2023-03-15 21:23:39:897,0.358116,7.98174,-5.61737,-54.7856,1.90271,148.056
2023-03-15 21:23:39:907,0.357728,7.98425,-5.62443,-54.7879,1.90117,148.059
2023-03-15 21:23:39:917,0.348771,7.991,-5.61148,-54.7859,1.90415,148.056
2023-03-15 21:23:39:927,0.358386,7.98984,-5.60653,-54.7868,1.89977,148.058
2023-03-15 21:23:39:937,0.369677,7.99077,-5.61209,-54.7847,1.90015,148.058
2023-03-15 21:23:39:947,0.366579,7.99363,-5.60486,-54.7837,1.90218,148.062
2023-03-15 21:23:39:957,0.358898,7.98325,-5.61933,-54.7825,1.89997,148.065
2023-03-15 21:23:39:967,0.346823,7.98276,-5.60979,-54.7839,1.8977,148.064
2023-03-15 21:23:39:977,0.351769,7.98893,-5.6106,-54.7862,1.89258,148.061
2023-03-15 21:23:39:987,0.354318,7.9839,-5.61807,-54.7869,1.89183,148.061
2023-03-15 21:23:39:997,0.35263,7.98229,-5.61894,-54.7873,1.88914,148.066
2023-03-15 21:23:40:7,0.347423,7.98473,-5.61427,-54.7869,1.88911,148.066
2023-03-15 21:23:40:17,0.357947,7.9857,-5.60432,-54.7864,1.88903,148.067
2023-03-15 21:23:40:27,0.351228,7.98242,-5.61275,-54.7884,1.88993,148.066
2023-03-15 21:23:40:37,0.345527,7.98,-5.61333,-54.7881,1.88813,148.067
2023-03-15 21:23:40:47,0.347827,7.98442,-5.61403,-54.7885,1.88912,148.069
2023-03-15 21:23:40:57,0.357823,7.98621,-5.60984,-54.7874,1.88514,148.069
2023-03-15 21:23:40:67,0.358638,7.98058,-5.61282,-54.7894,1.88679,148.073
2023-03-15 21:23:40:77,0.354315,7.98858,-5.61452,-54.791,1.88736,148.071
2023-03-15 21:23:40:87,0.365168,7.98809,-5.61561,-54.7967,1.88527,148.07
2023-03-15 21:23:40:97,0.366552,7.98682,-5.62519,-54.7959,1.88757,148.069
2023-03-15 21:23:40:107,0.361095,7.98425,-5.61457,-54.7956,1.88665,148.066
2023-03-15 21:23:40:117,0.367048,7.98635,-5.62357,-54.7961,1.88733,148.066
2023-03-15 21:23:40:127,0.364535,7.9847,-5.61931,-54.7945,1.88384,148.065
2023-03-15 21:23:40:137,0.36495,7.97495,-5.61529,-54.7973,1.88247,148.067
2023-03-15 21:23:40:147,0.355482,7.98328,-5.61597,-54.796,1.88224,148.069
2023-03-15 21:23:40:157,0.350405,7.98964,-5.61213,-54.797,1.88208,148.07
2023-03-15 21:23:40:167,0.34682,7.99233,-5.61609,-54.801,1.88108,148.07
2023-03-15 21:23:40:177,0.353578,7.99404,-5.61398,-54.8004,1.88016,148.069
2023-03-15 21:23:40:187,0.346948,7.98754,-5.61363,-54.8029,1.87834,148.067
2023-03-15 21:23:40:197,0.351197,7.98882,-5.61409,-54.8044,1.8776,148.066
2023-03-15 21:23:40:207,0.360993,7.99873,-5.60766,-54.8038,1.87639,148.064
2023-03-15 21:23:40:217,0.36499,7.99258,-5.60573,-54.8033,1.87775,148.062
2023-03-15 21:23:40:227,0.362316,7.98239,-5.61661,-54.8004,1.88135,148.061
2023-03-15 21:23:40:237,0.358799,7.98038,-5.62686,-54.8001,1.881,148.061
2023-03-15 21:23:40:247,0.366679,7.98774,-5.62057,-54.8005,1.87871,148.062
2023-03-15 21:23:40:257,0.354318,7.99017,-5.62621,-54.802,1.88033,148.061
2023-03-15 21:23:40:267,0.362667,7.99057,-5.61705,-54.8017,1.88105,148.062
2023-03-15 21:23:40:277,0.361542,7.98807,-5.61906,-54.8005,1.87714,148.062
2023-03-15 21:23:40:287,0.37289,7.99059,-5.61554,-54.8003,1.87795,148.062
2023-03-15 21:23:40:297,0.372767,7.98295,-5.62791,-54.8007,1.87734,148.061
2023-03-15 21:23:40:307,0.356962,7.98048,-5.62481,-54.8005,1.87628,148.059
2023-03-15 21:23:40:317,0.355241,7.97738,-5.62113,-54.8014,1.87521,148.058
2023-03-15 21:23:40:327,0.360645,7.98321,-5.62462,-54.8,1.87417,148.057
2023-03-15 21:23:40:337,0.349494,7.9813,-5.62263,-54.7967,1.8746,148.057
2023-03-15 21:23:40:347,0.356589,7.98568,-5.61664,-54.7948,1.87521,148.057
2023-03-15 21:23:40:357,0.361591,7.98368,-5.61611,-54.7938,1.87505,148.059
2023-03-15 21:23:40:367,0.357102,7.99015,-5.61926,-54.7911,1.87189,148.059
2023-03-15 21:23:40:377,0.360393,7.99071,-5.61995,-54.7892,1.87111,148.058
2023-03-15 21:23:40:387,0.360301,7.99037,-5.62182,-54.7896,1.87044,148.058
2023-03-15 21:23:40:397,0.363064,7.98492,-5.61142,-54.7917,1.87012,148.063
2023-03-15 21:23:40:407,0.355003,7.9815,-5.62764,-54.7894,1.87082,148.061
2023-03-15 21:23:40:417,0.355102,7.98514,-5.6335,-54.7861,1.87267,148.059
2023-03-15 21:23:40:427,0.359837,7.97651,-5.61979,-54.7905,1.87522,148.06
2023-03-15 21:23:40:437,0.34823,7.98181,-5.60826,-54.7928,1.87514,148.061
2023-03-15 21:23:40:447,0.359496,7.98973,-5.61125,-54.7931,1.8747,148.061
2023-03-15 21:23:40:457,0.366101,7.98029,-5.61834,-54.7931,1.87725,148.057
2023-03-15 21:23:40:467,0.354438,7.98062,-5.61732,-54.7921,1.87702,148.058
2023-03-15 21:23:40:477,0.360647,7.98145,-5.60343,-54.7935,1.88033,148.057
2023-03-15 21:23:40:487,0.354231,7.98042,-5.61294,-54.7918,1.88109,148.054
2023-03-15 21:23:40:497,0.351327,7.9846,-5.62121,-54.7929,1.87761,148.056
2023-03-15 21:23:40:507,0.355418,7.98789,-5.62021,-54.7929,1.87533,148.057
2023-03-15 21:23:40:517,0.365183,7.98616,-5.61705,-54.7946,1.87649,148.061
2023-03-15 21:23:40:527,0.365535,7.97772,-5.62002,-54.7965,1.87893,148.065
2023-03-15 21:23:40:537,0.357652,7.98102,-5.61761,-54.7975,1.88018,148.065
2023-03-15 21:23:40:547,0.361787,7.98203,-5.61197,-54.7973,1.87899,148.064
2023-03-15 21:23:40:557,0.363358,7.98111,-5.61767,-54.7972,1.87979,148.061
2023-03-15 21:23:40:567,0.362027,7.98186,-5.61222,-54.8,1.88087,148.059
2023-03-15 21:23:40:577,0.363252,7.98487,-5.61808,-54.8029,1.8814,148.059
2023-03-15 21:23:40:587,0.36207,7.97916,-5.63046,-54.8,1.87921,148.058
2023-03-15 21:23:40:597,0.357219,7.98107,-5.62133,-54.7969,1.88166,148.059
2023-03-15 21:23:40:607,0.359061,7.97962,-5.61307,-54.7975,1.88313,148.057
2023-03-15 21:23:40:617,0.360536,7.98165,-5.61845,-54.8005,1.88154,148.057
2023-03-15 21:23:40:627,0.361598,7.97652,-5.60975,-54.8009,1.88063,148.058
2023-03-15 21:23:40:637,0.359832,7.97692,-5.61947,-54.802,1.88145,148.054
2023-03-15 21:23:40:647,0.353188,7.98566,-5.61904,-54.8021,1.88254,148.054
2023-03-15 21:23:40:657,0.347434,7.99038,-5.62079,-54.799,1.88403,148.054
2023-03-15 21:23:40:667,0.35108,7.98444,-5.61122,-54.7978,1.88385,148.055
2023-03-15 21:23:40:677,0.351976,7.98089,-5.62387,-54.7983,1.88287,148.052
2023-03-15 21:23:40:687,0.357942,7.98188,-5.62102,-54.8006,1.88284,148.054
2023-03-15 21:23:40:697,0.365825,7.98439,-5.61843,-54.7995,1.88327,148.053
2023-03-15 21:23:40:707,0.362188,7.99388,-5.61285,-54.7974,1.88204,148.055
2023-03-15 21:23:40:717,0.363154,7.98816,-5.6177,-54.7948,1.88507,148.055
2023-03-15 21:23:40:727,0.363767,7.99877,-5.61313,-54.7953,1.88559,148.055
2023-03-15 21:23:40:737,0.357257,7.99104,-5.6187,-54.7948,1.88425,148.052
2023-03-15 21:23:40:747,0.35223,7.98284,-5.62032,-54.7953,1.88407,148.05
2023-03-15 21:23:40:757,0.362567,7.98498,-5.62393,-54.7935,1.88326,148.047
2023-03-15 21:23:40:767,0.356081,7.98849,-5.61665,-54.7933,1.88408,148.048
2023-03-15 21:23:40:777,0.364666,7.99742,-5.61184,-54.7959,1.88615,148.046
2023-03-15 21:23:40:787,0.362026,7.99945,-5.60824,-54.7957,1.88732,148.045
2023-03-15 21:23:40:797,0.356455,7.98943,-5.60919,-54.7986,1.88647,148.046
2023-03-15 21:23:40:807,0.353953,7.9866,-5.62116,-54.7977,1.888,148.047
2023-03-15 21:23:40:817,0.356599,7.99103,-5.60814,-54.798,1.88576,148.043
2023-03-15 21:23:40:827,0.369626,7.99548,-5.60417,-54.7976,1.88474,148.042
2023-03-15 21:23:40:837,0.365994,7.98779,-5.6234,-54.794,1.88659,148.043
2023-03-15 21:23:40:847,0.362504,7.98534,-5.61946,-54.7927,1.88649,148.044
2023-03-15 21:23:40:857,0.353365,7.98295,-5.61716,-54.792,1.88618,148.045
2023-03-15 21:23:40:867,0.367325,7.97436,-5.62935,-54.7884,1.88546,148.046
2023-03-15 21:23:40:877,0.353834,7.98261,-5.61903,-54.7873,1.88508,148.047
2023-03-15 21:23:40:887,0.350492,7.98765,-5.61034,-54.7861,1.88568,148.046
2023-03-15 21:23:40:897,0.360827,7.99278,-5.61104,-54.7892,1.88064,148.046
2023-03-15 21:23:40:907,0.360947,7.98886,-5.61987,-54.7854,1.883,148.048
2023-03-15 21:23:40:917,0.352606,7.98695,-5.61831,-54.7861,1.88297,148.05
2023-03-15 21:23:40:927,0.351807,7.98735,-5.61765,-54.7851,1.88314,148.048
2023-03-15 21:23:40:937,0.363498,7.98182,-5.61791,-54.7853,1.88365,148.046
2023-03-15 21:23:40:947,0.371831,7.98809,-5.6169,-54.7859,1.88526,148.048
2023-03-15 21:23:40:957,0.360208,7.98699,-5.61295,-54.7847,1.88529,148.047
2023-03-15 21:23:40:967,0.355467,7.98563,-5.61355,-54.7863,1.88331,148.047
2023-03-15 21:23:40:977,0.353335,7.98606,-5.60768,-54.7878,1.88403,148.046
2023-03-15 21:23:40:987,0.355342,7.97887,-5.62544,-54.7901,1.8863,148.047
2023-03-15 21:23:40:997,0.356934,7.98266,-5.6133,-54.79,1.8876,148.047
2023-03-15 21:23:41:7,0.362175,7.98832,-5.61744,-54.788,1.8911,148.047
2023-03-15 21:23:41:17,0.354272,7.98684,-5.6219,-54.7892,1.89015,148.048
2023-03-15 21:23:41:27,0.360597,7.98625,-5.61514,-54.7888,1.8889,148.051
2023-03-15 21:23:41:37,0.374667,7.98786,-5.61465,-54.7915,1.89113,148.053
2023-03-15 21:23:41:47,0.358214,7.97829,-5.62888,-54.7924,1.89356,148.051
2023-03-15 21:23:41:57,0.361273,7.9937,-5.6156,-54.7951,1.89288,148.054
2023-03-15 21:23:41:67,0.359489,7.98334,-5.60432,-54.7948,1.89273,148.055
2023-03-15 21:23:41:77,0.358085,7.98159,-5.61081,-54.7951,1.89182,148.051
2023-03-15 21:23:41:87,0.354542,7.98377,-5.60948,-54.7959,1.89318,148.051
2023-03-15 21:23:41:97,0.362016,7.98344,-5.62133,-54.7962,1.89235,148.049
2023-03-15 21:23:41:107,0.359505,7.99496,-5.61398,-54.7962,1.89397,148.052
2023-03-15 21:23:41:117,0.350057,7.98483,-5.61675,-54.7979,1.89257,148.051
2023-03-15 21:23:41:127,0.34648,7.98496,-5.61095,-54.7962,1.88978,148.048
2023-03-15 21:23:41:137,0.354408,7.99541,-5.60703,-54.799,1.88972,148.047
2023-03-15 21:23:41:147,0.358433,7.9817,-5.61731,-54.8032,1.89134,148.044
2023-03-15 21:23:41:157,0.361838,7.98811,-5.61925,-54.8068,1.8923,148.045
2023-03-15 21:23:41:167,0.348702,7.98041,-5.61842,-54.8072,1.89092,148.047
2023-03-15 21:23:41:177,0.35914,7.98289,-5.61887,-54.8085,1.8923,148.045
2023-03-15 21:23:41:187,0.361715,7.9838,-5.6068,-54.8085,1.89018,148.045
2023-03-15 21:23:41:197,0.354511,7.98842,-5.62007,-54.8072,1.88911,148.047
2023-03-15 21:23:41:207,0.364373,7.97718,-5.62279,-54.8076,1.88956,148.045
2023-03-15 21:23:41:217,0.37744,7.97795,-5.617,-54.8064,1.89073,148.041
2023-03-15 21:23:41:227,0.390038,7.98293,-5.61642,-54.8058,1.89287,148.042
2023-03-15 21:23:41:237,0.379714,7.98717,-5.61716,-54.8063,1.89493,148.045
2023-03-15 21:23:41:247,0.360868,7.98415,-5.61224,-54.8104,1.89603,148.046
2023-03-15 21:23:41:257,0.353425,7.98539,-5.6172,-54.8104,1.89441,148.043
2023-03-15 21:23:41:267,0.347065,7.98918,-5.61496,-54.8094,1.89348,148.043
2023-03-15 21:23:41:277,0.350756,7.98723,-5.61782,-54.8073,1.89323,148.048
2023-03-15 21:23:41:287,0.352273,7.97988,-5.61447,-54.8074,1.89604,148.047
2023-03-15 21:23:41:297,0.369363,7.98049,-5.61936,-54.8086,1.89989,148.046
2023-03-15 21:23:41:307,0.37794,7.97991,-5.62367,-54.808,1.89864,148.045
2023-03-15 21:23:41:317,0.372972,7.97774,-5.62304,-54.806,1.89631,148.042
2023-03-15 21:23:41:327,0.363653,7.98453,-5.61576,-54.8047,1.89601,148.044
2023-03-15 21:23:41:337,0.362851,7.98654,-5.62501,-54.8045,1.89474,148.044
2023-03-15 21:23:41:347,0.36537,7.9915,-5.61735,-54.804,1.89415,148.042
2023-03-15 21:23:41:357,0.354832,7.99795,-5.60104,-54.8064,1.89404,148.038
2023-03-15 21:23:41:367,0.353795,7.99166,-5.60506,-54.8054,1.8943,148.037
2023-03-15 21:23:41:377,0.351371,7.986,-5.6115,-54.8076,1.89351,148.039
2023-03-15 21:23:41:387,0.367998,7.98146,-5.6183,-54.8071,1.89554,148.04
2023-03-15 21:23:41:397,0.369798,7.96947,-5.62411,-54.8072,1.89544,148.04
2023-03-15 21:23:41:407,0.374533,7.99033,-5.61866,-54.8062,1.89747,148.042
2023-03-15 21:23:41:417,0.365424,7.99062,-5.6216,-54.8069,1.89908,148.041
2023-03-15 21:23:41:427,0.357249,7.97589,-5.61917,-54.8082,1.90084,148.04
2023-03-15 21:23:41:437,0.346539,7.97869,-5.61858,-54.8073,1.90261,148.039
2023-03-15 21:23:41:447,0.346228,7.9983,-5.61154,-54.8065,1.90341,148.041
2023-03-15 21:23:41:457,0.356734,7.99844,-5.60475,-54.8099,1.89958,148.042
2023-03-15 21:23:41:467,0.357013,7.98177,-5.62455,-54.8068,1.89751,148.045
2023-03-15 21:23:41:477,0.357659,7.98226,-5.62343,-54.8075,1.89413,148.048
2023-03-15 21:23:41:487,0.358173,7.99133,-5.60091,-54.8041,1.89125,148.052
2023-03-15 21:23:41:497,0.361363,7.98582,-5.60879,-54.8076,1.89289,148.053
2023-03-15 21:23:41:507,0.341062,7.98473,-5.6257,-54.8068,1.89105,148.054
2023-03-15 21:23:41:517,0.351641,7.98736,-5.61713,-54.8066,1.88905,148.052
2023-03-15 21:23:41:527,0.346101,7.98382,-5.60838,-54.8068,1.88894,148.05
2023-03-15 21:23:41:537,0.352551,7.97988,-5.62027,-54.8037,1.88992,148.051
2023-03-15 21:23:41:547,0.367703,7.98363,-5.61307,-54.8006,1.88729,148.052
2023-03-15 21:23:41:557,0.360853,7.97611,-5.62107,-54.7953,1.88994,148.052
2023-03-15 21:23:41:567,0.369192,7.98448,-5.61747,-54.7977,1.88935,148.05
2023-03-15 21:23:41:577,0.356655,7.97633,-5.62339,-54.7964,1.88709,148.052
2023-03-15 21:23:41:587,0.359751,7.99558,-5.61215,-54.7967,1.88528,148.051
2023-03-15 21:23:41:597,0.359063,7.99013,-5.61228,-54.7995,1.88344,148.05
2023-03-15 21:23:41:607,0.348567,7.98388,-5.60102,-54.7999,1.88705,148.047
2023-03-15 21:23:41:617,0.348445,7.98326,-5.60734,-54.8014,1.88321,148.049
2023-03-15 21:23:41:627,0.36236,7.98303,-5.61788,-54.8019,1.88361,148.049
2023-03-15 21:23:41:637,0.369807,7.98961,-5.61726,-54.8056,1.88505,148.048
2023-03-15 21:23:41:647,0.361001,7.97755,-5.62157,-54.8092,1.88431,148.048
2023-03-15 21:23:41:657,0.35579,7.98547,-5.61271,-54.8096,1.88247,148.047
2023-03-15 21:23:41:667,0.351342,7.98908,-5.61284,-54.8128,1.88483,148.048
2023-03-15 21:23:41:677,0.360038,7.98587,-5.61397,-54.8156,1.88556,148.048
2023-03-15 21:23:41:687,0.356679,7.98482,-5.62376,-54.8136,1.88462,148.047
2023-03-15 21:23:41:697,0.352509,7.98702,-5.60895,-54.8128,1.88327,148.048
2023-03-15 21:23:41:707,0.350815,7.99137,-5.60619,-54.8116,1.88265,148.05
2023-03-15 21:23:41:717,0.351806,7.99333,-5.61213,-54.8095,1.88436,148.053
2023-03-15 21:23:41:727,0.368647,7.98974,-5.62171,-54.8123,1.8845,148.052
2023-03-15 21:23:41:737,0.375744,7.99,-5.61829,-54.8103,1.88485,148.051
2023-03-15 21:23:41:747,0.366555,7.98545,-5.6254,-54.8075,1.8857,148.054
2023-03-15 21:23:41:757,0.36571,7.9817,-5.62297,-54.8084,1.88789,148.052
2023-03-15 21:23:41:767,0.36159,7.98289,-5.62463,-54.808,1.88705,148.05
2023-03-15 21:23:41:777,0.362033,7.9914,-5.62265,-54.8071,1.88821,148.048
2023-03-15 21:23:41:787,0.356181,7.98595,-5.61355,-54.8063,1.88728,148.046
2023-03-15 21:23:41:797,0.357247,7.98338,-5.61314,-54.8064,1.88909,148.045
2023-03-15 21:23:41:807,0.349777,7.98645,-5.60927,-54.806,1.88778,148.043
2023-03-15 21:23:41:817,0.361926,7.98823,-5.61809,-54.8041,1.8872,148.043
2023-03-15 21:23:41:827,0.365953,7.986,-5.62794,-54.803,1.88913,148.045
2023-03-15 21:23:41:837,0.355267,7.97721,-5.63395,-54.8013,1.89099,148.044
2023-03-15 21:23:41:847,0.364937,7.99571,-5.61564,-54.802,1.89399,148.044
2023-03-15 21:23:41:857,0.358328,7.99069,-5.61117,-54.8012,1.89339,148.044
2023-03-15 21:23:41:867,0.35614,7.98615,-5.61712,-54.8019,1.89087,148.044
2023-03-15 21:23:41:877,0.364114,7.99948,-5.60438,-54.8023,1.88938,148.044
2023-03-15 21:23:41:887,0.35184,7.98943,-5.6089,-54.8055,1.89055,148.042
2023-03-15 21:23:41:897,0.343722,7.98902,-5.60841,-54.8082,1.88931,148.043
2023-03-15 21:23:41:907,0.33858,7.99112,-5.61696,-54.8093,1.88744,148.042
2023-03-15 21:23:41:917,0.366441,7.99399,-5.60989,-54.809,1.88526,148.039
2023-03-15 21:23:41:927,0.363756,7.98598,-5.6095,-54.809,1.88256,148.039
2023-03-15 21:23:41:937,0.358907,7.97764,-5.6197,-54.8093,1.88497,148.04
2023-03-15 21:23:41:947,0.354674,7.99033,-5.61616,-54.8097,1.88481,148.04
2023-03-15 21:23:41:957,0.353053,7.98418,-5.62341,-54.8095,1.88187,148.038
2023-03-15 21:23:41:967,0.363052,7.98696,-5.6172,-54.8094,1.88218,148.035
2023-03-15 21:23:41:977,0.365376,7.98856,-5.61707,-54.8084,1.88381,148.038
2023-03-15 21:23:41:987,0.360984,7.984,-5.61644,-54.8089,1.88314,148.039
2023-03-15 21:23:41:997,0.364016,7.9801,-5.61239,-54.8078,1.88317,148.043
2023-03-15 21:23:42:7,0.359606,7.99028,-5.60168,-54.8071,1.88212,148.044
2023-03-15 21:23:42:17,0.368107,7.99929,-5.60823,-54.8051,1.88564,148.041
2023-03-15 21:23:42:27,0.371665,7.99011,-5.61349,-54.8058,1.88516,148.04
2023-03-15 21:23:42:37,0.361232,7.98892,-5.61119,-54.8046,1.883,148.039
2023-03-15 21:23:42:47,0.350244,7.98863,-5.61829,-54.8017,1.88165,148.037
2023-03-15 21:23:42:57,0.352111,7.98453,-5.6088,-54.8022,1.8811,148.032
2023-03-15 21:23:42:67,0.354334,7.99185,-5.60667,-54.8035,1.87977,148.033
2023-03-15 21:23:42:77,0.354711,7.98626,-5.6146,-54.8046,1.87969,148.034
2023-03-15 21:23:42:87,0.352026,8.00203,-5.61644,-54.8016,1.8789,148.038
2023-03-15 21:23:42:97,0.352993,7.99864,-5.61919,-54.8022,1.87863,148.035
2023-03-15 21:23:42:107,0.363833,7.98701,-5.62053,-54.8033,1.87904,148.035
2023-03-15 21:23:42:117,0.361742,7.98903,-5.61866,-54.8026,1.88075,148.038
2023-03-15 21:23:42:127,0.35054,7.98238,-5.62768,-54.8032,1.87821,148.033
2023-03-15 21:23:42:137,0.359534,7.98432,-5.61666,-54.8049,1.8783,148.03
2023-03-15 21:23:42:147,0.359121,7.98745,-5.6157,-54.8022,1.88065,148.03
2023-03-15 21:23:42:157,0.34773,7.99918,-5.60136,-54.8016,1.87982,148.031
2023-03-15 21:23:42:167,0.339981,7.98543,-5.60616,-54.8003,1.8776,148.032
2023-03-15 21:23:42:177,0.350809,7.98621,-5.60952,-54.802,1.87615,148.031
2023-03-15 21:23:42:187,0.362015,7.98979,-5.61355,-54.8005,1.87469,148.032
2023-03-15 21:23:42:197,0.361464,7.9852,-5.6162,-54.7984,1.87404,148.033
2023-03-15 21:23:42:207,0.366126,7.99546,-5.6073,-54.7987,1.87564,148.034
2023-03-15 21:23:42:217,0.369205,7.99297,-5.61745,-54.802,1.87366,148.033
2023-03-15 21:23:42:227,0.363662,7.99112,-5.61796,-54.803,1.87685,148.036
2023-03-15 21:23:42:237,0.365059,8.00075,-5.60626,-54.8049,1.87937,148.034
2023-03-15 21:23:42:247,0.35672,7.98738,-5.61405,-54.808,1.87826,148.034
2023-03-15 21:23:42:257,0.350436,7.98486,-5.62817,-54.8074,1.87669,148.034
2023-03-15 21:23:42:267,0.34634,7.98656,-5.6262,-54.808,1.87502,148.035
2023-03-15 21:23:42:277,0.354206,7.99099,-5.61397,-54.8102,1.8743,148.034
2023-03-15 21:23:42:287,0.356632,7.99641,-5.60753,-54.8091,1.87537,148.032
2023-03-15 21:23:42:297,0.371141,7.99419,-5.61586,-54.8102,1.87538,148.03
2023-03-15 21:23:42:307,0.356446,8.00098,-5.61745,-54.8123,1.87279,148.029
2023-03-15 21:23:42:317,0.353759,8.00426,-5.60834,-54.8123,1.87206,148.032
2023-03-15 21:23:42:327,0.349411,7.99666,-5.61581,-54.8164,1.87036,148.03
2023-03-15 21:23:42:337,0.355686,7.98086,-5.61798,-54.8198,1.87346,148.029
2023-03-15 21:23:42:347,0.360867,7.98525,-5.62042,-54.8203,1.87229,148.029
2023-03-15 21:23:42:357,0.357098,7.97428,-5.62828,-54.8211,1.87183,148.03
2023-03-15 21:23:42:367,0.356985,7.98232,-5.62604,-54.8206,1.87315,148.033
2023-03-15 21:23:42:377,0.358646,7.9848,-5.61649,-54.8206,1.87662,148.033
2023-03-15 21:23:42:387,0.350586,7.99219,-5.61304,-54.8213,1.87658,148.031
2023-03-15 21:23:42:397,0.358363,7.99339,-5.61499,-54.818,1.87705,148.033
2023-03-15 21:23:42:407,0.356763,7.98556,-5.63166,-54.8179,1.87944,148.033
2023-03-15 21:23:42:417,0.355407,7.97622,-5.62721,-54.8197,1.88208,148.031
2023-03-15 21:23:42:427,0.353127,7.98442,-5.61311,-54.8199,1.88055,148.032
2023-03-15 21:23:42:437,0.34817,7.98841,-5.60512,-54.8179,1.87746,148.031
2023-03-15 21:23:42:447,0.355399,7.98235,-5.6115,-54.8181,1.87827,148.033
2023-03-15 21:23:42:457,0.356243,7.9832,-5.61646,-54.816,1.87579,148.031
2023-03-15 21:23:42:467,0.353208,7.98127,-5.62648,-54.817,1.87442,148.03
2023-03-15 21:23:42:477,0.357989,7.98284,-5.62038,-54.818,1.87495,148.029
2023-03-15 21:23:42:487,0.3655,7.98079,-5.61776,-54.8203,1.87141,148.029
2023-03-15 21:23:42:497,0.355343,7.98076,-5.62058,-54.818,1.86956,148.025
2023-03-15 21:23:42:507,0.346779,7.97603,-5.61901,-54.8167,1.86766,148.025
2023-03-15 21:23:42:517,0.35842,7.97311,-5.62447,-54.8149,1.86772,148.026
2023-03-15 21:23:42:527,0.357362,7.98746,-5.6139,-54.8164,1.86694,148.028
2023-03-15 21:23:42:537,0.349842,7.98572,-5.61007,-54.8212,1.86664,148.028
2023-03-15 21:23:42:547,0.352879,7.98683,-5.62228,-54.8197,1.86796,148.031
2023-03-15 21:23:42:557,0.352328,7.98539,-5.62219,-54.819,1.86753,148.03
2023-03-15 21:23:42:567,0.365573,7.98312,-5.61664,-54.8198,1.86729,148.027
2023-03-15 21:23:42:577,0.355834,7.9844,-5.61663,-54.8182,1.8689,148.029
2023-03-15 21:23:42:587,0.354482,7.97723,-5.6208,-54.8169,1.8653,148.03
2023-03-15 21:23:42:597,0.368747,7.99195,-5.61526,-54.8124,1.86795,148.034
2023-03-15 21:23:42:607,0.362347,8.00465,-5.6103,-54.8159,1.86983,148.038
2023-03-15 21:23:42:617,0.364445,7.99465,-5.61807,-54.8179,1.87013,148.038
2023-03-15 21:23:42:627,0.350159,7.98241,-5.61331,-54.8187,1.87036,148.036
2023-03-15 21:23:42:637,0.347993,7.9892,-5.60675,-54.8194,1.86969,148.036
2023-03-15 21:23:42:647,0.355361,7.99481,-5.60612,-54.8194,1.86892,148.035
2023-03-15 21:23:42:657,0.368164,7.98483,-5.61278,-54.8167,1.86639,148.035
2023-03-15 21:23:42:667,0.365676,7.97837,-5.62855,-54.8155,1.8645,148.034
2023-03-15 21:23:42:677,0.362077,7.9855,-5.61978,-54.8148,1.86288,148.036
2023-03-15 21:23:42:687,0.357637,7.98717,-5.62039,-54.8146,1.86222,148.035
2023-03-15 21:23:42:697,0.362365,7.97465,-5.62249,-54.8179,1.86277,148.037
2023-03-15 21:23:42:707,0.360304,7.97783,-5.61615,-54.8164,1.86035,148.037
2023-03-15 21:23:42:717,0.361427,7.97719,-5.61641,-54.8146,1.85971,148.037
2023-03-15 21:23:42:727,0.365003,7.97722,-5.62229,-54.813,1.86122,148.035
2023-03-15 21:23:42:737,0.365791,7.97809,-5.624,-54.8127,1.86216,148.035
2023-03-15 21:23:42:747,0.367063,7.97889,-5.61444,-54.8134,1.8619,148.037
2023-03-15 21:23:42:757,0.366538,7.97957,-5.61988,-54.8138,1.86168,148.038
2023-03-15 21:23:42:767,0.363747,7.99012,-5.61812,-54.814,1.86033,148.042
2023-03-15 21:23:42:777,0.364874,7.9902,-5.60695,-54.8111,1.86037,148.043
2023-03-15 21:23:42:787,0.361826,7.98593,-5.60982,-54.8122,1.86035,148.041
2023-03-15 21:23:42:797,0.356993,7.98795,-5.60921,-54.814,1.86135,148.04
2023-03-15 21:23:42:807,0.350178,7.98739,-5.61742,-54.8128,1.86208,148.042
2023-03-15 21:23:42:817,0.342031,7.99309,-5.61565,-54.8132,1.86095,148.043
2023-03-15 21:23:42:827,0.349621,7.98797,-5.60557,-54.8124,1.86046,148.045
2023-03-15 21:23:42:837,0.375017,7.97908,-5.61553,-54.8137,1.85848,148.045
2023-03-15 21:23:42:847,0.390921,7.98407,-5.62424,-54.8137,1.85945,148.047
2023-03-15 21:23:42:857,0.383992,7.99511,-5.62738,-54.812,1.86107,148.045
2023-03-15 21:23:42:867,0.362755,7.98864,-5.61196,-54.8135,1.86166,148.045
2023-03-15 21:23:42:877,0.338037,7.99975,-5.59495,-54.8109,1.8626,148.044
2023-03-15 21:23:42:887,0.321787,7.98917,-5.60479,-54.8103,1.86042,148.043
2023-03-15 21:23:42:897,0.324676,7.99175,-5.60321,-54.8119,1.8575,148.04
2023-03-15 21:23:42:907,0.344432,7.98551,-5.61223,-54.8145,1.85471,148.036
2023-03-15 21:23:42:917,0.351789,7.97546,-5.62638,-54.8161,1.85215,148.033
2023-03-15 21:23:42:927,0.361542,7.98186,-5.61864,-54.8139,1.85481,148.031
2023-03-15 21:23:42:937,0.381438,7.97286,-5.63277,-54.8136,1.85879,148.031
2023-03-15 21:23:42:947,0.379871,7.96668,-5.64351,-54.8153,1.86092,148.029
2023-03-15 21:23:42:957,0.373582,7.97425,-5.63934,-54.8152,1.86109,148.029
2023-03-15 21:23:42:967,0.359366,7.99258,-5.62102,-54.8128,1.85798,148.03
2023-03-15 21:23:42:977,0.333226,7.99524,-5.60778,-54.8141,1.85995,148.029
2023-03-15 21:23:42:987,0.331858,7.98354,-5.61786,-54.8138,1.86049,148.026
2023-03-15 21:23:42:997,0.359239,7.99262,-5.60544,-54.8162,1.86263,148.024
2023-03-15 21:23:43:7,0.359519,7.98089,-5.61001,-54.8156,1.86785,148.025
2023-03-15 21:23:43:17,0.371392,7.98191,-5.61339,-54.8152,1.86783,148.023
2023-03-15 21:23:43:27,0.375883,7.98545,-5.62255,-54.8119,1.86727,148.022
2023-03-15 21:23:43:37,0.370608,7.9795,-5.62335,-54.8104,1.86806,148.023
2023-03-15 21:23:43:47,0.369071,7.98312,-5.62173,-54.8078,1.8684,148.023
2023-03-15 21:23:43:57,0.350223,7.98591,-5.62284,-54.8074,1.8681,148.022
2023-03-15 21:23:43:67,0.332385,7.97648,-5.61758,-54.8083,1.8658,148.021
2023-03-15 21:23:43:77,0.325092,7.98587,-5.60611,-54.8048,1.86805,148.021
2023-03-15 21:23:43:87,0.333335,7.98986,-5.60833,-54.8054,1.86632,148.019
2023-03-15 21:23:43:97,0.344312,8.00072,-5.61564,-54.8035,1.8666,148.021
2023-03-15 21:23:43:107,0.359715,7.99217,-5.61746,-54.801,1.86653,148.024
2023-03-15 21:23:43:117,0.381702,7.97882,-5.62454,-54.8016,1.86692,148.023
2023-03-15 21:23:43:127,0.37678,7.9788,-5.62669,-54.8039,1.87126,148.025
2023-03-15 21:23:43:137,0.367261,7.98321,-5.61589,-54.8034,1.87014,148.027
2023-03-15 21:23:43:147,0.360687,7.98499,-5.62274,-54.8041,1.87322,148.025
2023-03-15 21:23:43:157,0.349712,7.98277,-5.62976,-54.8005,1.87406,148.025
2023-03-15 21:23:43:167,0.349881,8.00256,-5.6116,-54.8001,1.87452,148.025
2023-03-15 21:23:43:177,0.361061,7.98893,-5.61213,-54.7999,1.87994,148.026
2023-03-15 21:23:43:187,0.36629,7.97925,-5.61993,-54.8009,1.87785,148.026
2023-03-15 21:23:43:197,0.359103,7.98309,-5.60965,-54.7972,1.87706,148.023
2023-03-15 21:23:43:207,0.370033,7.98704,-5.60799,-54.7969,1.87803,148.024
2023-03-15 21:23:43:217,0.371876,7.98275,-5.62317,-54.7971,1.88015,148.024
2023-03-15 21:23:43:227,0.368294,7.97803,-5.62213,-54.797,1.88035,148.024
2023-03-15 21:23:43:237,0.355993,7.98965,-5.61168,-54.7979,1.88035,148.022
2023-03-15 21:23:43:247,0.353723,7.98729,-5.61611,-54.7962,1.87905,148.023
2023-03-15 21:23:43:257,0.356183,7.99509,-5.60302,-54.7948,1.87943,148.022
2023-03-15 21:23:43:267,0.350162,7.99977,-5.60842,-54.7939,1.88035,148.024
2023-03-15 21:23:43:277,0.360027,7.9987,-5.61307,-54.7961,1.88144,148.022
2023-03-15 21:23:43:287,0.361149,7.9945,-5.61719,-54.7956,1.87688,148.022
2023-03-15 21:23:43:297,0.364594,7.98061,-5.61992,-54.7963,1.87498,148.02
2023-03-15 21:23:43:307,0.372934,7.98188,-5.62228,-54.7951,1.87533,148.021
2023-03-15 21:23:43:317,0.369698,7.97412,-5.62026,-54.7942,1.8746,148.022
2023-03-15 21:23:43:327,0.369983,7.97464,-5.62538,-54.7947,1.8739,148.024
2023-03-15 21:23:43:337,0.366594,7.98068,-5.62164,-54.7926,1.87497,148.024
2023-03-15 21:23:43:347,0.355089,7.97631,-5.61468,-54.7915,1.87549,148.023
2023-03-15 21:23:43:357,0.350427,7.98076,-5.61044,-54.7903,1.87589,148.022
2023-03-15 21:23:43:367,0.342874,7.99012,-5.6126,-54.7936,1.87482,148.018
2023-03-15 21:23:43:377,0.351975,7.98884,-5.6122,-54.793,1.87569,148.019
2023-03-15 21:23:43:387,0.355354,7.98457,-5.61513,-54.7916,1.87733,148.02
2023-03-15 21:23:43:397,0.352208,7.9802,-5.62052,-54.7891,1.87044,148.019
2023-03-15 21:23:43:407,0.35423,7.98633,-5.62495,-54.7887,1.87178,148.02
2023-03-15 21:23:43:417,0.363349,7.98831,-5.61873,-54.7882,1.86888,148.02
2023-03-15 21:23:43:427,0.368686,7.98076,-5.62093,-54.7876,1.86962,148.02
2023-03-15 21:23:43:437,0.366983,7.98099,-5.62295,-54.7882,1.86978,148.023
2023-03-15 21:23:43:447,0.358519,7.99307,-5.60425,-54.7882,1.87338,148.023
2023-03-15 21:23:43:457,0.351372,7.99291,-5.61387,-54.7849,1.87655,148.021
2023-03-15 21:23:43:467,0.346909,7.98997,-5.61064,-54.7836,1.87662,148.021
2023-03-15 21:23:43:477,0.351928,7.98669,-5.60954,-54.7871,1.87513,148.023
2023-03-15 21:23:43:487,0.360205,7.9812,-5.61454,-54.7868,1.87521,148.023
2023-03-15 21:23:43:497,0.362045,7.98507,-5.61296,-54.7833,1.87743,148.025
2023-03-15 21:23:43:507,0.350457,7.99087,-5.61952,-54.7848,1.87374,148.023
2023-03-15 21:23:43:517,0.351064,7.98299,-5.62054,-54.7852,1.87392,148.023
2023-03-15 21:23:43:527,0.362577,7.97777,-5.61277,-54.7871,1.87394,148.02
2023-03-15 21:23:43:537,0.358903,7.97715,-5.62068,-54.7857,1.87378,148.021
2023-03-15 21:23:43:547,0.35981,7.9866,-5.62074,-54.7865,1.86994,148.024
2023-03-15 21:23:43:557,0.356723,7.99215,-5.60962,-54.7837,1.86658,148.025
2023-03-15 21:23:43:567,0.360647,7.99762,-5.60716,-54.7851,1.86395,148.025
2023-03-15 21:23:43:577,0.359777,7.9936,-5.61923,-54.7863,1.86447,148.026
2023-03-15 21:23:43:587,0.35727,7.98624,-5.61657,-54.7859,1.8649,148.026
2023-03-15 21:23:43:597,0.35987,7.97723,-5.62053,-54.7897,1.86658,148.028
2023-03-15 21:23:43:607,0.365135,7.98122,-5.62336,-54.7885,1.8656,148.03
2023-03-15 21:23:43:617,0.350167,7.99105,-5.61587,-54.7878,1.86285,148.029
2023-03-15 21:23:43:626,0.346373,7.98062,-5.62665,-54.7841,1.86586,148.028
2023-03-15 21:23:43:636,0.361539,7.97422,-5.62613,-54.7822,1.86498,148.03
2023-03-15 21:23:43:646,0.35932,7.98773,-5.61011,-54.7797,1.86741,148.031
2023-03-15 21:23:43:656,0.35391,7.99522,-5.60635,-54.7791,1.8671,148.034
2023-03-15 21:23:43:666,0.356101,7.99871,-5.60087,-54.7807,1.86573,148.033
2023-03-15 21:23:43:676,0.366296,7.98707,-5.61374,-54.7805,1.8664,148.034
2023-03-15 21:23:43:686,0.367158,7.98632,-5.61691,-54.7817,1.86727,148.031
2023-03-15 21:23:43:696,0.359603,7.98592,-5.61676,-54.7821,1.86525,148.03
2023-03-15 21:23:43:706,0.358397,7.97535,-5.62577,-54.7792,1.86639,148.026
2023-03-15 21:23:43:716,0.358657,7.98489,-5.61495,-54.7812,1.8659,148.028
2023-03-15 21:23:43:726,0.356769,7.9859,-5.60869,-54.7795,1.8675,148.028
2023-03-15 21:23:43:736,0.360606,7.99145,-5.60706,-54.778,1.86712,148.03
2023-03-15 21:23:43:746,0.361631,7.98868,-5.61232,-54.7803,1.86705,148.033
2023-03-15 21:23:43:756,0.366539,7.98892,-5.61173,-54.778,1.87011,148.03
2023-03-15 21:23:43:766,0.352549,7.98166,-5.61706,-54.7785,1.87095,148.03
2023-03-15 21:23:43:776,0.354795,7.98884,-5.61193,-54.7819,1.87459,148.029
2023-03-15 21:23:43:786,0.364599,7.98271,-5.61809,-54.781,1.87533,148.029
2023-03-15 21:23:43:796,0.35879,7.98689,-5.61696,-54.7824,1.87822,148.029
2023-03-15 21:23:43:806,0.352719,7.97369,-5.6226,-54.783,1.8803,148.025
2023-03-15 21:23:43:816,0.33956,7.98372,-5.62064,-54.7843,1.88092,148.026
2023-03-15 21:23:43:826,0.338529,7.98672,-5.61667,-54.7869,1.87993,148.025
2023-03-15 21:23:43:836,0.347233,7.98133,-5.62964,-54.7856,1.882,148.025
2023-03-15 21:23:43:846,0.351404,7.98649,-5.61559,-54.7838,1.88281,148.025
2023-03-15 21:23:43:856,0.364283,7.97247,-5.61533,-54.7833,1.88374,148.025
2023-03-15 21:23:43:866,0.372432,7.98178,-5.61497,-54.784,1.88261,148.024
2023-03-15 21:23:43:876,0.366379,7.9807,-5.61872,-54.7868,1.88339,148.025
2023-03-15 21:23:43:886,0.355744,7.9823,-5.60888,-54.7875,1.88325,148.029
2023-03-15 21:23:43:896,0.344967,8.00213,-5.60286,-54.7845,1.88005,148.027
2023-03-15 21:23:43:906,0.342006,7.99594,-5.6058,-54.7856,1.88477,148.027
2023-03-15 21:23:43:916,0.345352,7.99228,-5.60249,-54.7838,1.88833,148.026
2023-03-15 21:23:43:926,0.359668,7.98172,-5.62247,-54.7854,1.88757,148.026
2023-03-15 21:23:43:936,0.361495,7.98451,-5.62348,-54.7853,1.88627,148.024
2023-03-15 21:23:43:946,0.375527,7.98851,-5.61447,-54.7832,1.88552,148.024
2023-03-15 21:23:43:956,0.363697,7.98705,-5.61661,-54.7839,1.88258,148.021
2023-03-15 21:23:43:966,0.35144,7.98943,-5.60814,-54.7863,1.88228,148.023
2023-03-15 21:23:43:976,0.353123,7.98798,-5.61058,-54.7866,1.88095,148.025
2023-03-15 21:23:43:986,0.349228,7.99423,-5.62031,-54.7852,1.8798,148.025
2023-03-15 21:23:43:996,0.351501,7.98344,-5.6159,-54.7835,1.88095,148.025
2023-03-15 21:23:44:6,0.351486,7.99157,-5.62195,-54.7805,1.87982,148.027
2023-03-15 21:23:44:16,0.362084,7.99059,-5.6253,-54.7812,1.87794,148.027
2023-03-15 21:23:44:26,0.362279,7.98506,-5.62536,-54.7808,1.87654,148.023
2023-03-15 21:23:44:37,0.359659,7.98639,-5.60869,-54.7809,1.87407,148.023
2023-03-15 21:23:44:47,0.367095,7.97892,-5.6209,-54.7844,1.87323,148.023
2023-03-15 21:23:44:56,0.361537,7.97164,-5.61773,-54.7841,1.87717,148.023
2023-03-15 21:23:44:66,0.357692,7.98005,-5.61895,-54.7864,1.87991,148.023
2023-03-15 21:23:44:77,0.349158,7.98988,-5.61177,-54.7856,1.87911,148.023
2023-03-15 21:23:44:87,0.354064,7.9936,-5.60859,-54.7868,1.87978,148.022
2023-03-15 21:23:44:97,0.360739,7.98618,-5.60424,-54.7871,1.87895,148.022
2023-03-15 21:23:44:107,0.370749,7.97775,-5.60625,-54.7879,1.87833,148.018
2023-03-15 21:23:44:116,0.374654,7.97328,-5.62575,-54.791,1.87862,148.017
2023-03-15 21:23:44:126,0.374383,7.97893,-5.62513,-54.7933,1.8814,148.017
2023-03-15 21:23:44:136,0.357135,7.98164,-5.61695,-54.7968,1.88264,148.018
2023-03-15 21:23:44:146,0.356246,7.98139,-5.61759,-54.7989,1.88401,148.016
2023-03-15 21:23:44:156,0.356092,7.98809,-5.62201,-54.7985,1.88444,148.014
2023-03-15 21:23:44:166,0.363266,7.98318,-5.62408,-54.801,1.88513,148.015
2023-03-15 21:23:44:176,0.358601,7.98585,-5.61082,-54.8018,1.88945,148.014
2023-03-15 21:23:44:186,0.368778,7.99767,-5.61707,-54.8022,1.89379,148.013
2023-03-15 21:23:44:196,0.368162,7.9948,-5.62647,-54.8006,1.8927,148.011
2023-03-15 21:23:44:206,0.368754,7.98563,-5.61905,-54.8007,1.89334,148.012
2023-03-15 21:23:44:217,0.354891,7.98778,-5.61007,-54.8049,1.89052,148.011
2023-03-15 21:23:44:227,0.35033,7.98829,-5.61724,-54.8046,1.89087,148.009
2023-03-15 21:23:44:237,0.357163,7.98368,-5.62184,-54.8043,1.89246,148.008
2023-03-15 21:23:44:246,0.352862,7.98429,-5.61522,-54.807,1.89372,148.004
2023-03-15 21:23:44:256,0.356813,7.9822,-5.6271,-54.8089,1.89475,148.002
2023-03-15 21:23:44:266,0.352776,7.98694,-5.62481,-54.8091,1.89508,148.004
2023-03-15 21:23:44:276,0.360688,7.98617,-5.62164,-54.8062,1.89586,148.004
2023-03-15 21:23:44:286,0.363069,7.98453,-5.61639,-54.8048,1.89728,148.002
2023-03-15 21:23:44:296,0.354102,7.98086,-5.61359,-54.8064,1.8981,148.006
2023-03-15 21:23:44:306,0.364937,7.96946,-5.62639,-54.805,1.89853,148.006
2023-03-15 21:23:44:316,0.370684,7.97151,-5.63068,-54.8031,1.899,148.005
2023-03-15 21:23:44:327,0.357493,7.97329,-5.62934,-54.8012,1.89895,148.007
2023-03-15 21:23:44:337,0.355695,7.98422,-5.62417,-54.8002,1.9022,148.005
2023-03-15 21:23:44:346,0.354672,7.98626,-5.61939,-54.7995,1.90314,148.005
2023-03-15 21:23:44:356,0.358181,7.98003,-5.61785,-54.7986,1.9032,148.004
2023-03-15 21:23:44:366,0.364391,7.97488,-5.63064,-54.7968,1.9037,148.005
2023-03-15 21:23:44:376,0.360555,7.98934,-5.62604,-54.7969,1.90395,148.006
2023-03-15 21:23:44:387,0.345067,7.99889,-5.61327,-54.7973,1.90469,148.005
2023-03-15 21:23:44:397,0.352225,7.99261,-5.60771,-54.7973,1.90696,148.005
2023-03-15 21:23:44:407,0.364583,7.98685,-5.61617,-54.7982,1.90942,148.004
2023-03-15 21:23:44:417,0.371448,7.98632,-5.61291,-54.8011,1.91188,148.003
2023-03-15 21:23:44:427,0.356762,7.97715,-5.61652,-54.8021,1.91098,148.001
2023-03-15 21:23:44:436,0.362604,7.99012,-5.60878,-54.8015,1.91078,148.004
2023-03-15 21:23:44:447,0.345329,7.99835,-5.6217,-54.8012,1.9082,148.003
2023-03-15 21:23:44:456,0.346699,7.98907,-5.62913,-54.8006,1.9068,148.002
2023-03-15 21:23:44:467,0.353182,7.98944,-5.62247,-54.8003,1.90449,148.005
2023-03-15 21:23:44:477,0.346881,7.98796,-5.61618,-54.8035,1.90759,148.005
2023-03-15 21:23:44:487,0.353411,7.98282,-5.61882,-54.8027,1.91053,148.009
2023-03-15 21:23:44:497,0.354201,7.98579,-5.6177,-54.8014,1.90814,148.011
2023-03-15 21:23:44:507,0.363961,7.98009,-5.61939,-54.8022,1.90747,148.011
2023-03-15 21:23:44:517,0.364077,7.97795,-5.6163,-54.802,1.90776,148.01
2023-03-15 21:23:44:527,0.352519,7.98192,-5.62041,-54.8008,1.90431,148.014
2023-03-15 21:23:44:537,0.341699,7.98712,-5.6217,-54.8011,1.90567,148.01
2023-03-15 21:23:44:547,0.341949,7.98608,-5.61099,-54.8015,1.90651,148.006
2023-03-15 21:23:44:557,0.353861,7.98027,-5.62577,-54.8003,1.90716,148.005
2023-03-15 21:23:44:567,0.354472,7.98718,-5.62452,-54.8012,1.90631,148.008
2023-03-15 21:23:44:577,0.354281,7.98465,-5.62005,-54.7975,1.90697,148.007
2023-03-15 21:23:44:587,0.35845,7.98852,-5.60728,-54.7983,1.90647,148.009
2023-03-15 21:23:44:597,0.366376,7.99405,-5.61867,-54.7974,1.90647,148.007
2023-03-15 21:23:44:607,0.346456,7.98624,-5.62159,-54.7978,1.90495,148.008
2023-03-15 21:23:44:617,0.349346,7.99439,-5.61573,-54.7953,1.9041,148.009
2023-03-15 21:23:44:627,0.355288,7.99204,-5.61838,-54.7951,1.90613,148.008
2023-03-15 21:23:44:637,0.362208,7.99616,-5.61466,-54.7938,1.90553,148.006
2023-03-15 21:23:44:647,0.37026,7.99625,-5.60257,-54.7972,1.90463,148.006
2023-03-15 21:23:44:657,0.36677,7.98767,-5.6141,-54.7971,1.90492,148.007
2023-03-15 21:23:44:667,0.352234,7.99285,-5.61779,-54.7944,1.90863,148.006
2023-03-15 21:23:44:677,0.355767,7.98751,-5.62307,-54.7946,1.90935,148.006
2023-03-15 21:23:44:687,0.350475,7.98446,-5.62316,-54.7953,1.91099,148.007
2023-03-15 21:23:44:696,0.343058,7.98823,-5.62246,-54.7909,1.91275,148.007
2023-03-15 21:23:44:706,0.352266,7.99054,-5.61542,-54.7907,1.90966,148.008
2023-03-15 21:23:44:717,0.36066,7.98758,-5.61388,-54.7911,1.90989,148.004
2023-03-15 21:23:44:727,0.360207,7.98309,-5.62488,-54.7897,1.90822,148.006
2023-03-15 21:23:44:736,0.366728,7.98286,-5.62398,-54.7886,1.90875,148.006
2023-03-15 21:23:44:746,0.363396,7.9863,-5.61455,-54.7885,1.91125,148.005
2023-03-15 21:23:44:757,0.360357,7.99172,-5.60805,-54.7907,1.91432,148.006
2023-03-15 21:23:44:767,0.355477,7.99053,-5.61635,-54.7911,1.91397,148.004
2023-03-15 21:23:44:776,0.350391,7.99181,-5.61736,-54.7913,1.91221,148.005
2023-03-15 21:23:44:786,0.346505,7.98887,-5.6126,-54.7946,1.909,148.005
2023-03-15 21:23:44:796,0.349213,7.99216,-5.61329,-54.7957,1.91181,148.003
2023-03-15 21:23:44:807,0.353125,8.00096,-5.59926,-54.7968,1.9106,148.004
2023-03-15 21:23:44:816,0.364983,7.97915,-5.61253,-54.7968,1.91226,148.007
2023-03-15 21:23:44:826,0.36431,7.97241,-5.62263,-54.7947,1.91359,148.006
2023-03-15 21:23:44:836,0.362941,7.98282,-5.62494,-54.7942,1.91447,148.003
2023-03-15 21:23:44:847,0.356649,7.98327,-5.62724,-54.795,1.91448,148.004
2023-03-15 21:23:44:856,0.35717,7.98655,-5.61898,-54.7966,1.91325,148.003
2023-03-15 21:23:44:866,0.348907,7.99375,-5.60992,-54.7959,1.9113,148.005
2023-03-15 21:23:44:876,0.351935,7.99098,-5.60548,-54.7986,1.91101,148.006
2023-03-15 21:23:44:886,0.360069,7.99463,-5.61069,-54.7953,1.91362,148.004
2023-03-15 21:23:44:896,0.360965,7.97931,-5.61151,-54.7966,1.91341,148.006
2023-03-15 21:23:44:906,0.365971,7.98038,-5.61871,-54.7971,1.9174,148.004
2023-03-15 21:23:44:916,0.354311,8.00563,-5.60841,-54.7984,1.91722,148.008
2023-03-15 21:23:44:926,0.356306,8.00118,-5.61393,-54.7966,1.91938,148.007
2023-03-15 21:23:44:936,0.347491,7.9824,-5.62576,-54.7957,1.92101,148.008
2023-03-15 21:23:44:946,0.354678,7.97945,-5.62427,-54.7959,1.92107,148.01
2023-03-15 21:23:44:957,0.356228,7.98069,-5.62015,-54.7951,1.92282,148.008
2023-03-15 21:23:44:967,0.352633,7.97611,-5.62066,-54.7947,1.92213,148.011
2023-03-15 21:23:44:977,0.353834,7.98143,-5.61689,-54.7942,1.92114,148.011
2023-03-15 21:23:44:987,0.357369,7.98772,-5.62304,-54.7947,1.92264,148.009
2023-03-15 21:23:44:997,0.36133,7.98661,-5.62105,-54.7947,1.92213,148.013
2023-03-15 21:23:45:7,0.364553,7.98597,-5.621,-54.793,1.92472,148.015
2023-03-15 21:23:45:17,0.365921,7.98751,-5.61948,-54.7951,1.92479,148.019
2023-03-15 21:23:45:27,0.365134,7.97574,-5.62753,-54.7945,1.92298,148.018
2023-03-15 21:23:45:37,0.362214,7.98565,-5.62211,-54.7961,1.91966,148.015
2023-03-15 21:23:45:47,0.355206,7.99999,-5.62219,-54.7933,1.92244,148.014
2023-03-15 21:23:45:56,0.349333,7.9857,-5.62368,-54.7941,1.91978,148.013
2023-03-15 21:23:45:67,0.363475,7.97093,-5.62716,-54.7917,1.92168,148.015
2023-03-15 21:23:45:77,0.344589,7.96884,-5.62679,-54.7896,1.92063,148.015
2023-03-15 21:23:45:87,0.356044,7.97614,-5.6272,-54.7907,1.92279,148.017
2023-03-15 21:23:45:96,0.370648,7.98482,-5.6243,-54.7907,1.92228,148.018
2023-03-15 21:23:45:107,0.348113,7.97867,-5.62054,-54.789,1.92128,148.021
2023-03-15 21:23:45:117,0.357778,7.982,-5.62675,-54.7857,1.9192,148.022
2023-03-15 21:23:45:127,0.356677,7.98984,-5.6172,-54.7855,1.91864,148.023
2023-03-15 21:23:45:137,0.358432,7.98621,-5.61104,-54.7859,1.91602,148.025
2023-03-15 21:23:45:147,0.361384,7.99313,-5.60818,-54.7869,1.92024,148.026
2023-03-15 21:23:45:157,0.356381,7.97116,-5.61824,-54.7879,1.92214,148.024
2023-03-15 21:23:45:166,0.36865,7.975,-5.61986,-54.7868,1.92256,148.023
2023-03-15 21:23:45:176,0.371931,7.99088,-5.60877,-54.7864,1.92329,148.024
2023-03-15 21:23:45:186,0.369773,7.98912,-5.60825,-54.7855,1.9241,148.024
2023-03-15 21:23:45:196,0.335684,7.99339,-5.61416,-54.7855,1.92218,148.024
2023-03-15 21:23:45:206,0.350249,7.9838,-5.62109,-54.7894,1.91831,148.025
2023-03-15 21:23:45:216,0.348309,7.9825,-5.62398,-54.7874,1.9155,148.026
2023-03-15 21:23:45:226,0.353493,7.98325,-5.62078,-54.7909,1.91484,148.024
2023-03-15 21:23:45:236,0.366773,7.98657,-5.61656,-54.7894,1.91468,148.025
2023-03-15 21:23:45:246,0.356826,7.98352,-5.61579,-54.7893,1.91578,148.027
2023-03-15 21:23:45:256,0.353916,7.97464,-5.62497,-54.7901,1.9177,148.026
2023-03-15 21:23:45:266,0.354785,7.9751,-5.62684,-54.7878,1.91711,148.027
2023-03-15 21:23:45:276,0.35895,7.98477,-5.62126,-54.7868,1.91737,148.028
2023-03-15 21:23:45:286,0.353376,7.98458,-5.62453,-54.7868,1.9181,148.028
2023-03-15 21:23:45:296,0.358909,7.96803,-5.61858,-54.7864,1.91642,148.027
2023-03-15 21:23:45:306,0.358764,7.97764,-5.61927,-54.7866,1.9174,148.031
2023-03-15 21:23:45:316,0.348794,7.98305,-5.62537,-54.7851,1.91794,148.028
2023-03-15 21:23:45:327,0.362188,7.98802,-5.61522,-54.7848,1.91917,148.029
2023-03-15 21:23:45:336,0.354795,7.97875,-5.62233,-54.7861,1.91676,148.03
2023-03-15 21:23:45:347,0.356587,7.97521,-5.63361,-54.7848,1.91632,148.031
2023-03-15 21:23:45:356,0.356288,7.97523,-5.64091,-54.786,1.91465,148.03
2023-03-15 21:23:45:367,0.350513,7.97589,-5.62786,-54.7856,1.9172,148.028
2023-03-15 21:23:45:377,0.355653,7.98121,-5.62413,-54.7878,1.91767,148.027
2023-03-15 21:23:45:387,0.363059,7.97985,-5.62428,-54.7872,1.91945,148.027
2023-03-15 21:23:45:397,0.359951,7.98214,-5.61809,-54.7869,1.91934,148.032
2023-03-15 21:23:45:407,0.35889,7.99793,-5.61832,-54.7843,1.92104,148.03
2023-03-15 21:23:45:417,0.358045,7.99685,-5.61368,-54.7867,1.92143,148.031
2023-03-15 21:23:45:427,0.363923,7.99081,-5.61794,-54.7872,1.92317,148.032
2023-03-15 21:23:45:436,0.357483,7.97838,-5.61797,-54.7841,1.92037,148.037
2023-03-15 21:23:45:446,0.357026,7.97848,-5.62559,-54.786,1.92069,148.037
2023-03-15 21:23:45:456,0.361498,7.98555,-5.62405,-54.7866,1.92378,148.037
2023-03-15 21:23:45:466,0.368087,7.9979,-5.61404,-54.7872,1.92277,148.035
2023-03-15 21:23:45:477,0.360613,7.99152,-5.6188,-54.7881,1.92325,148.035
2023-03-15 21:23:45:487,0.351317,7.98384,-5.62069,-54.7887,1.91993,148.035
2023-03-15 21:23:45:496,0.353029,7.97547,-5.62502,-54.7895,1.9164,148.032
2023-03-15 21:23:45:506,0.364903,7.97473,-5.62903,-54.7884,1.91539,148.031
2023-03-15 21:23:45:517,0.372499,7.97993,-5.62013,-54.7877,1.91406,148.03
2023-03-15 21:23:45:526,0.361919,7.98189,-5.62432,-54.7873,1.91553,148.032
2023-03-15 21:23:45:536,0.350108,7.99748,-5.6203,-54.7861,1.91819,148.031
2023-03-15 21:23:45:546,0.361977,7.98881,-5.62153,-54.7831,1.92167,148.032
2023-03-15 21:23:45:556,0.359042,7.9911,-5.62516,-54.786,1.92208,148.031
2023-03-15 21:23:45:566,0.360279,7.99477,-5.61789,-54.7872,1.92387,148.031
2023-03-15 21:23:45:576,0.350506,7.99254,-5.61452,-54.7853,1.92532,148.029
2023-03-15 21:23:45:586,0.353357,7.99121,-5.61057,-54.7856,1.92222,148.031
2023-03-15 21:23:45:596,0.349302,7.98925,-5.61701,-54.7875,1.91872,148.034
2023-03-15 21:23:45:606,0.363288,7.97851,-5.62692,-54.7875,1.91621,148.037
2023-03-15 21:23:45:616,0.36575,7.98478,-5.61489,-54.7864,1.9176,148.037
2023-03-15 21:23:45:626,0.355464,7.99034,-5.62025,-54.7856,1.91589,148.035
2023-03-15 21:23:45:636,0.35132,7.99385,-5.62266,-54.7815,1.91463,148.035
2023-03-15 21:23:45:646,0.336647,7.99429,-5.61626,-54.7828,1.91485,148.034
2023-03-15 21:23:45:656,0.352049,7.97611,-5.62639,-54.782,1.91444,148.034
2023-03-15 21:23:45:666,0.374099,7.98508,-5.62763,-54.778,1.91377,148.033
2023-03-15 21:23:45:676,0.367714,7.98359,-5.62253,-54.7792,1.91567,148.032
2023-03-15 21:23:45:687,0.371107,7.9778,-5.62546,-54.7775,1.91637,148.032
2023-03-15 21:23:45:697,0.365821,7.98428,-5.62747,-54.7783,1.91809,148.034
2023-03-15 21:23:45:707,0.35282,7.98221,-5.61442,-54.7768,1.91658,148.037
2023-03-15 21:23:45:717,0.355357,7.98031,-5.62149,-54.7768,1.91532,148.036
2023-03-15 21:23:45:727,0.345859,7.99047,-5.6139,-54.7787,1.91538,148.035
2023-03-15 21:23:45:737,0.351689,7.9952,-5.604,-54.7794,1.9128,148.034
2023-03-15 21:23:45:747,0.339833,7.99039,-5.6131,-54.777,1.9138,148.034
2023-03-15 21:23:45:757,0.352355,7.99441,-5.61277,-54.7779,1.91425,148.037
2023-03-15 21:23:45:767,0.359766,7.99096,-5.61396,-54.7804,1.91464,148.036
2023-03-15 21:23:45:777,0.362175,7.97715,-5.62625,-54.7808,1.91412,148.035
2023-03-15 21:23:45:787,0.359323,7.98267,-5.62682,-54.779,1.91327,148.038
2023-03-15 21:23:45:798,0.342199,7.97647,-5.62044,-54.7801,1.91441,148.037
2023-03-15 21:23:45:806,0.350946,7.98686,-5.61401,-54.7809,1.91224,148.036
2023-03-15 21:23:45:816,0.356158,7.99451,-5.60948,-54.7815,1.91238,148.032
2023-03-15 21:23:45:826,0.352595,7.97981,-5.61432,-54.7807,1.91577,148.032
2023-03-15 21:23:45:836,0.354562,7.98694,-5.61446,-54.782,1.91605,148.032
2023-03-15 21:23:45:846,0.359916,7.98263,-5.62253,-54.7804,1.91482,148.029
2023-03-15 21:23:45:856,0.368809,7.97494,-5.62314,-54.7827,1.91698,148.029
2023-03-15 21:23:45:866,0.356371,7.97133,-5.62194,-54.7828,1.91495,148.027
2023-03-15 21:23:45:876,0.35536,7.98597,-5.61625,-54.7802,1.91345,148.029
2023-03-15 21:23:45:886,0.362259,7.99112,-5.61391,-54.7809,1.91274,148.029
2023-03-15 21:23:45:896,0.356071,7.98998,-5.61424,-54.7812,1.91014,148.032
2023-03-15 21:23:45:906,0.345922,7.98731,-5.62719,-54.7776,1.91188,148.03
2023-03-15 21:23:45:916,0.354707,7.9867,-5.62517,-54.7827,1.91225,148.028
2023-03-15 21:23:45:926,0.352149,7.98115,-5.61684,-54.7831,1.91431,148.027
2023-03-15 21:23:45:936,0.353369,7.97777,-5.62885,-54.7815,1.91169,148.031
2023-03-15 21:23:45:947,0.367273,7.98026,-5.6277,-54.7826,1.91045,148.031
2023-03-15 21:23:45:956,0.371957,7.98166,-5.62387,-54.7832,1.91056,148.032
2023-03-15 21:23:45:967,0.366367,7.98637,-5.63681,-54.7817,1.91152,148.031
2023-03-15 21:23:45:977,0.349635,7.98491,-5.62746,-54.7814,1.91325,148.032
2023-03-15 21:23:45:987,0.349107,7.98423,-5.62299,-54.7831,1.91156,148.032
2023-03-15 21:23:45:996,0.354549,7.99542,-5.61742,-54.7803,1.91068,148.035
2023-03-15 21:23:46:7,0.352951,7.98817,-5.62167,-54.7801,1.91048,148.036
2023-03-15 21:23:46:16,0.365134,7.98643,-5.61846,-54.7798,1.90956,148.035
2023-03-15 21:23:46:26,0.358618,7.98199,-5.6221,-54.7807,1.91025,148.036
2023-03-15 21:23:46:36,0.360154,7.98233,-5.62049,-54.782,1.90824,148.036
2023-03-15 21:23:46:47,0.35643,7.99109,-5.61645,-54.7833,1.90919,148.036
2023-03-15 21:23:46:56,0.357152,7.9819,-5.61381,-54.7841,1.91228,148.035
2023-03-15 21:23:46:66,0.347721,7.98469,-5.61429,-54.7855,1.91168,148.036
2023-03-15 21:23:46:76,0.352831,7.98635,-5.61777,-54.7871,1.91481,148.034
2023-03-15 21:23:46:86,0.355926,7.98929,-5.62122,-54.7886,1.91459,148.034
2023-03-15 21:23:46:96,0.357679,7.97927,-5.62078,-54.788,1.91693,148.033
2023-03-15 21:23:46:106,0.361247,7.98753,-5.62069,-54.7895,1.91619,148.032
2023-03-15 21:23:46:116,0.369849,7.99133,-5.61781,-54.7904,1.91278,148.035
2023-03-15 21:23:46:126,0.370348,7.99255,-5.61497,-54.7903,1.90977,148.036
2023-03-15 21:23:46:136,0.362448,7.9927,-5.617,-54.7882,1.91059,148.035
2023-03-15 21:23:46:146,0.355372,7.99431,-5.61531,-54.7857,1.91221,148.037
2023-03-15 21:23:46:156,0.360032,7.98196,-5.61571,-54.7846,1.91587,148.034
2023-03-15 21:23:46:166,0.362395,7.98526,-5.60877,-54.7853,1.91648,148.034
2023-03-15 21:23:46:176,0.357153,7.98492,-5.6112,-54.7873,1.91938,148.035
2023-03-15 21:23:46:186,0.357129,7.99256,-5.60792,-54.7846,1.91817,148.033
2023-03-15 21:23:46:196,0.36572,7.99142,-5.61084,-54.7853,1.91658,148.029
2023-03-15 21:23:46:207,0.364438,7.98811,-5.61308,-54.786,1.91686,148.028
2023-03-15 21:23:46:217,0.364152,7.97492,-5.61958,-54.7828,1.91467,148.027
2023-03-15 21:23:46:227,0.356306,7.98197,-5.6193,-54.7835,1.91167,148.028
2023-03-15 21:23:46:236,0.356538,7.98108,-5.62116,-54.7837,1.90874,148.029
2023-03-15 21:23:46:247,0.360537,7.97377,-5.62247,-54.7838,1.91061,148.03
2023-03-15 21:23:46:256,0.367903,7.97592,-5.62507,-54.7841,1.91062,148.032
2023-03-15 21:23:46:267,0.361933,7.97646,-5.62712,-54.7843,1.91153,148.03
2023-03-15 21:23:46:276,0.367339,7.98762,-5.60394,-54.7856,1.91353,148.032
2023-03-15 21:23:46:287,0.367287,7.98676,-5.61181,-54.7852,1.91508,148.032
2023-03-15 21:23:46:297,0.369525,7.98336,-5.61669,-54.7861,1.91569,148.03
2023-03-15 21:23:46:307,0.380259,7.98332,-5.62264,-54.786,1.91895,148.028
2023-03-15 21:23:46:316,0.362883,7.99202,-5.61609,-54.7844,1.9173,148.03
2023-03-15 21:23:46:326,0.359278,7.99194,-5.62506,-54.7878,1.91758,148.029
2023-03-15 21:23:46:336,0.342666,7.98795,-5.6234,-54.7888,1.91398,148.029
2023-03-15 21:23:46:346,0.346559,7.99096,-5.61624,-54.7892,1.91637,148.029
2023-03-15 21:23:46:356,0.361412,7.98642,-5.62416,-54.7873,1.91498,148.03
2023-03-15 21:23:46:366,0.364865,7.98391,-5.63798,-54.7869,1.9161,148.033
2023-03-15 21:23:46:376,0.359862,7.98382,-5.62884,-54.7878,1.91603,148.032
2023-03-15 21:23:46:386,0.359114,7.98307,-5.62217,-54.7879,1.91567,148.032
2023-03-15 21:23:46:396,0.350319,7.98208,-5.62646,-54.7883,1.91643,148.033
2023-03-15 21:23:46:406,0.348743,7.98469,-5.62004,-54.7898,1.91532,148.032
2023-03-15 21:23:46:416,0.347039,7.98798,-5.60868,-54.7911,1.91769,148.031
2023-03-15 21:23:46:426,0.350843,7.9897,-5.60378,-54.7913,1.92025,148.029
2023-03-15 21:23:46:436,0.350579,7.98298,-5.61275,-54.7921,1.91948,148.031
2023-03-15 21:23:46:446,0.356985,7.97302,-5.62486,-54.792,1.92018,148.033
2023-03-15 21:23:46:456,0.357589,7.98057,-5.62352,-54.7917,1.91866,148.036
2023-03-15 21:23:46:466,0.356381,7.99203,-5.614,-54.7969,1.91795,148.037
2023-03-15 21:23:46:476,0.359944,7.98617,-5.62658,-54.7965,1.91601,148.039
2023-03-15 21:23:46:486,0.345712,7.99052,-5.62288,-54.7969,1.91514,148.04
2023-03-15 21:23:46:496,0.353013,8.00042,-5.61684,-54.7963,1.91254,148.041
2023-03-15 21:23:46:506,0.35599,7.99353,-5.62235,-54.7963,1.90942,148.042
2023-03-15 21:23:46:516,0.360337,7.98797,-5.62669,-54.7948,1.90835,148.042
2023-03-15 21:23:46:526,0.358292,7.98511,-5.62276,-54.795,1.90983,148.04
2023-03-15 21:23:46:536,0.359261,7.98503,-5.63324,-54.7947,1.90679,148.043
2023-03-15 21:23:46:546,0.366364,7.98982,-5.62588,-54.7956,1.90383,148.045
2023-03-15 21:23:46:556,0.371762,7.98008,-5.62166,-54.797,1.90278,148.047
2023-03-15 21:23:46:566,0.3687,7.98596,-5.61777,-54.7982,1.90084,148.044
2023-03-15 21:23:46:576,0.341194,7.98893,-5.61514,-54.7973,1.90438,148.043
2023-03-15 21:23:46:586,0.347064,7.98789,-5.61617,-54.8006,1.90394,148.042
2023-03-15 21:23:46:596,0.348227,7.98888,-5.6213,-54.7989,1.9032,148.041
2023-03-15 21:23:46:607,0.358668,7.98791,-5.62367,-54.7964,1.90265,148.042
2023-03-15 21:23:46:616,0.368477,7.98928,-5.62289,-54.7947,1.90364,148.041
2023-03-15 21:23:46:626,0.363722,7.99363,-5.60956,-54.7944,1.9039,148.039
2023-03-15 21:23:46:636,0.36211,7.99419,-5.60978,-54.7953,1.90313,148.039
2023-03-15 21:23:46:646,0.351748,7.99678,-5.61707,-54.7953,1.90637,148.039
2023-03-15 21:23:46:656,0.34629,7.98187,-5.61702,-54.7947,1.90647,148.04
2023-03-15 21:23:46:666,0.346934,7.98775,-5.61219,-54.7958,1.90741,148.039
2023-03-15 21:23:46:676,0.3466,7.99371,-5.61935,-54.7974,1.91143,148.043
2023-03-15 21:23:46:686,0.357066,7.99793,-5.6035,-54.7956,1.91092,148.045
2023-03-15 21:23:46:696,0.363761,7.98238,-5.61371,-54.7957,1.91141,148.044
2023-03-15 21:23:46:706,0.368213,7.98217,-5.62123,-54.795,1.91289,148.04
2023-03-15 21:23:46:716,0.365437,7.9818,-5.62737,-54.7953,1.9131,148.038
2023-03-15 21:23:46:727,0.370776,7.98344,-5.6215,-54.7959,1.91133,148.04
2023-03-15 21:23:46:736,0.35774,7.98812,-5.60743,-54.796,1.91124,148.038
2023-03-15 21:23:46:747,0.350302,7.98307,-5.61707,-54.7943,1.91126,148.039
2023-03-15 21:23:46:757,0.353184,7.99652,-5.61872,-54.7921,1.91216,148.037
2023-03-15 21:23:46:766,0.349613,7.98101,-5.61445,-54.7929,1.90954,148.031
2023-03-15 21:23:46:776,0.345816,7.98204,-5.61596,-54.7956,1.90786,148.032
2023-03-15 21:23:46:786,0.353592,7.97903,-5.62163,-54.7953,1.90653,148.034
2023-03-15 21:23:46:796,0.36868,7.98174,-5.62407,-54.7954,1.90443,148.036
2023-03-15 21:23:46:807,0.368037,7.98126,-5.62406,-54.7927,1.90575,148.035
2023-03-15 21:23:46:816,0.353774,7.98074,-5.61725,-54.7938,1.9042,148.034
2023-03-15 21:23:46:827,0.361467,7.9841,-5.61865,-54.7926,1.90444,148.032
2023-03-15 21:23:46:836,0.361977,7.97429,-5.62299,-54.7921,1.90321,148.033
2023-03-15 21:23:46:846,0.361084,7.9834,-5.61613,-54.7905,1.90158,148.032
2023-03-15 21:23:46:856,0.354934,7.99182,-5.62512,-54.7915,1.90364,148.028
2023-03-15 21:23:46:866,0.362353,7.98959,-5.62413,-54.7906,1.90331,148.028
2023-03-15 21:23:46:876,0.352348,7.97648,-5.62899,-54.7905,1.90488,148.028
2023-03-15 21:23:46:886,0.356005,7.97411,-5.61489,-54.789,1.90448,148.027
2023-03-15 21:23:46:896,0.350073,7.97865,-5.60828,-54.7868,1.90497,148.026
2023-03-15 21:23:46:906,0.358251,7.98064,-5.62112,-54.7874,1.90338,148.026
2023-03-15 21:23:46:916,0.364362,7.97563,-5.62554,-54.7867,1.90672,148.025
2023-03-15 21:23:46:926,0.356456,7.98361,-5.61982,-54.7851,1.90466,148.025
2023-03-15 21:23:46:936,0.356547,7.98806,-5.61465,-54.7836,1.90518,148.026
2023-03-15 21:23:46:946,0.357235,7.9852,-5.62218,-54.7829,1.90546,148.021
2023-03-15 21:23:46:956,0.354294,7.97853,-5.62342,-54.7816,1.90391,148.023
2023-03-15 21:23:46:966,0.357834,7.96829,-5.62049,-54.7847,1.90236,148.021
2023-03-15 21:23:46:976,0.3641,7.97837,-5.62425,-54.7821,1.9015,148.023
2023-03-15 21:23:46:986,0.361392,7.97784,-5.62073,-54.7796,1.89976,148.026
2023-03-15 21:23:46:996,0.35884,7.97987,-5.61601,-54.7796,1.90055,148.027
2023-03-15 21:23:47:6,0.363288,7.97619,-5.61611,-54.7782,1.90178,148.027
2023-03-15 21:23:47:16,0.365958,7.98791,-5.61474,-54.7835,1.90025,148.021
2023-03-15 21:23:47:26,0.36612,7.98758,-5.6257,-54.7825,1.90321,148.018
2023-03-15 21:23:47:36,0.357235,7.9827,-5.61341,-54.7823,1.90405,148.014
2023-03-15 21:23:47:46,0.358119,7.98769,-5.62034,-54.7811,1.90284,148.012
2023-03-15 21:23:47:56,0.35838,7.99256,-5.62426,-54.7789,1.90142,148.009
2023-03-15 21:23:47:66,0.360389,7.98941,-5.61656,-54.7801,1.89855,148.007
2023-03-15 21:23:47:76,0.355269,7.98428,-5.61664,-54.7792,1.89693,148.009
2023-03-15 21:23:47:86,0.34852,7.97476,-5.62431,-54.7778,1.89531,148.007
2023-03-15 21:23:47:96,0.348802,7.97351,-5.61968,-54.7754,1.89845,148.007
2023-03-15 21:23:47:106,0.360557,7.97611,-5.62672,-54.7708,1.89927,148.006
2023-03-15 21:23:47:116,0.369961,7.99095,-5.61504,-54.7691,1.89897,148.004
2023-03-15 21:23:47:126,0.369494,7.98056,-5.6214,-54.7671,1.89845,148.004
2023-03-15 21:23:47:136,0.347178,7.98664,-5.62176,-54.7676,1.89711,148.003
2023-03-15 21:23:47:146,0.357061,7.98785,-5.62187,-54.7675,1.8959,148.007
2023-03-15 21:23:47:156,0.369354,7.98348,-5.61621,-54.7674,1.89706,148.008
2023-03-15 21:23:47:166,0.358911,7.9789,-5.61819,-54.7679,1.89671,148.008
2023-03-15 21:23:47:176,0.356603,7.98101,-5.62451,-54.7676,1.89369,148.008
2023-03-15 21:23:47:186,0.364214,7.97949,-5.62961,-54.7679,1.89332,148.009
2023-03-15 21:23:47:196,0.358709,7.97824,-5.62441,-54.7687,1.892,148.012
2023-03-15 21:23:47:206,0.359965,7.98887,-5.60866,-54.7682,1.89135,148.013
2023-03-15 21:23:47:216,0.361309,7.98554,-5.6145,-54.7692,1.89037,148.013
2023-03-15 21:23:47:226,0.358635,7.98108,-5.62118,-54.7672,1.88831,148.013
2023-03-15 21:23:47:236,0.356085,7.98392,-5.62652,-54.7686,1.88653,148.014
2023-03-15 21:23:47:246,0.359263,7.97766,-5.62645,-54.7687,1.88599,148.014
2023-03-15 21:23:47:256,0.361809,7.97644,-5.62022,-54.7678,1.88562,148.012
2023-03-15 21:23:47:266,0.366462,7.97367,-5.62626,-54.7723,1.88258,148.011
2023-03-15 21:23:47:276,0.367468,7.97749,-5.62848,-54.7698,1.88384,148.011
2023-03-15 21:23:47:286,0.363198,7.98725,-5.62078,-54.7687,1.88645,148.014
2023-03-15 21:23:47:296,0.356952,7.98816,-5.62745,-54.7694,1.88704,148.013
2023-03-15 21:23:47:306,0.352331,7.98062,-5.61689,-54.772,1.88673,148.016
2023-03-15 21:23:47:316,0.351499,7.99052,-5.61199,-54.7688,1.88738,148.014
2023-03-15 21:23:47:326,0.351816,7.97994,-5.62216,-54.7691,1.88709,148.018
2023-03-15 21:23:47:336,0.357089,7.98427,-5.61202,-54.7672,1.8872,148.018
2023-03-15 21:23:47:346,0.36615,7.979,-5.61987,-54.7666,1.88767,148.02
2023-03-15 21:23:47:356,0.366647,7.98531,-5.62388,-54.768,1.88951,148.019
2023-03-15 21:23:47:366,0.362545,7.98215,-5.62683,-54.7673,1.89189,148.017
2023-03-15 21:23:47:376,0.355642,7.97499,-5.63086,-54.7682,1.8917,148.018
2023-03-15 21:23:47:386,0.352672,7.97676,-5.62824,-54.7659,1.89195,148.018
2023-03-15 21:23:47:396,0.358211,7.97748,-5.62927,-54.7658,1.8913,148.018
2023-03-15 21:23:47:406,0.357355,7.98631,-5.62859,-54.7663,1.88939,148.014
2023-03-15 21:23:47:416,0.365005,7.99689,-5.61881,-54.7641,1.89129,148.016
2023-03-15 21:23:47:426,0.361047,7.99308,-5.61291,-54.7609,1.89115,148.016
2023-03-15 21:23:47:436,0.369095,7.98478,-5.61952,-54.7639,1.89247,148.016
2023-03-15 21:23:47:446,0.364653,7.97855,-5.6162,-54.7683,1.89386,148.017
2023-03-15 21:23:47:456,0.355795,7.98128,-5.61564,-54.7691,1.89387,148.016
2023-03-15 21:23:47:466,0.352878,7.994,-5.60739,-54.771,1.89369,148.015
2023-03-15 21:23:47:476,0.360374,7.98635,-5.61206,-54.7717,1.89451,148.015
2023-03-15 21:23:47:486,0.360601,7.97989,-5.6195,-54.7725,1.89723,148.015
2023-03-15 21:23:47:496,0.356076,7.97203,-5.6289,-54.7717,1.89701,148.015
2023-03-15 21:23:47:506,0.353385,7.97829,-5.62874,-54.7692,1.89831,148.016
2023-03-15 21:23:47:516,0.352141,7.98527,-5.617,-54.7668,1.90128,148.016
2023-03-15 21:23:47:526,0.350369,7.98821,-5.61448,-54.7701,1.90025,148.018
2023-03-15 21:23:47:536,0.360689,7.9834,-5.61535,-54.7706,1.90333,148.018
2023-03-15 21:23:47:546,0.360475,7.99085,-5.61643,-54.7715,1.90505,148.019
2023-03-15 21:23:47:556,0.358269,7.98638,-5.61387,-54.774,1.89987,148.022
2023-03-15 21:23:47:566,0.355527,7.97918,-5.62111,-54.7734,1.89903,148.02
2023-03-15 21:23:47:576,0.350695,7.97828,-5.62284,-54.7746,1.89928,148.019
2023-03-15 21:23:47:586,0.352018,7.97986,-5.61653,-54.7763,1.89769,148.02
2023-03-15 21:23:47:596,0.365646,7.97708,-5.61374,-54.7749,1.89855,148.022
2023-03-15 21:23:47:606,0.367061,7.98003,-5.62651,-54.7749,1.8996,148.023
2023-03-15 21:23:47:616,0.36796,7.9911,-5.61529,-54.7775,1.89806,148.024
2023-03-15 21:23:47:626,0.348149,7.9959,-5.61503,-54.7785,1.8983,148.027
2023-03-15 21:23:47:636,0.356342,7.98847,-5.6223,-54.7791,1.90055,148.028
2023-03-15 21:23:47:646,0.357701,7.97918,-5.63184,-54.7795,1.90048,148.032
2023-03-15 21:23:47:656,0.366118,7.97982,-5.6235,-54.7807,1.90124,148.029
2023-03-15 21:23:47:666,0.354995,7.98228,-5.62493,-54.7817,1.90161,148.027
2023-03-15 21:23:47:676,0.34686,7.97573,-5.621,-54.7809,1.90148,148.027
2023-03-15 21:23:47:686,0.35794,7.98782,-5.61379,-54.7781,1.90424,148.028
2023-03-15 21:23:47:696,0.354026,7.98429,-5.62355,-54.7803,1.90245,148.027
2023-03-15 21:23:47:706,0.361679,7.97406,-5.62009,-54.7852,1.8996,148.027
2023-03-15 21:23:47:716,0.351402,7.98998,-5.61479,-54.7832,1.89838,148.029
2023-03-15 21:23:47:726,0.351415,7.98814,-5.61462,-54.7818,1.89574,148.029
2023-03-15 21:23:47:736,0.352271,7.98778,-5.61901,-54.7827,1.89579,148.029
2023-03-15 21:23:47:746,0.353637,7.97237,-5.63217,-54.7801,1.89638,148.029
2023-03-15 21:23:47:756,0.348753,7.98377,-5.61944,-54.7814,1.89728,148.03
2023-03-15 21:23:47:766,0.347568,7.97555,-5.6236,-54.7811,1.89955,148.03
2023-03-15 21:23:47:776,0.362956,7.97752,-5.61842,-54.7806,1.89708,148.028
2023-03-15 21:23:47:786,0.354343,7.9893,-5.60946,-54.7792,1.89849,148.027
2023-03-15 21:23:47:796,0.342346,7.9804,-5.62975,-54.7788,1.90217,148.03
2023-03-15 21:23:47:806,0.360314,7.97576,-5.62934,-54.7789,1.90061,148.031
2023-03-15 21:23:47:816,0.359522,7.97851,-5.62512,-54.7791,1.90033,148.031
2023-03-15 21:23:47:826,0.366125,7.98547,-5.61785,-54.7818,1.89964,148.033
2023-03-15 21:23:47:836,0.350995,7.99013,-5.61552,-54.7825,1.8972,148.035
2023-03-15 21:23:47:846,0.346323,7.99472,-5.61248,-54.7806,1.89558,148.034
2023-03-15 21:23:47:856,0.355418,7.98908,-5.6167,-54.7799,1.89468,148.034
2023-03-15 21:23:47:866,0.366149,7.9909,-5.60991,-54.7806,1.89176,148.032
2023-03-15 21:23:47:876,0.370317,7.99169,-5.6115,-54.7801,1.88928,148.032
2023-03-15 21:23:47:886,0.369094,7.98352,-5.6207,-54.7782,1.88896,148.036
2023-03-15 21:23:47:896,0.357021,7.9848,-5.62083,-54.7788,1.89039,148.035
2023-03-15 21:23:47:906,0.351051,7.98123,-5.62643,-54.7816,1.88945,148.034
2023-03-15 21:23:47:916,0.34933,7.97442,-5.6258,-54.7813,1.88978,148.033
2023-03-15 21:23:47:926,0.353894,7.9794,-5.62394,-54.7809,1.89037,148.033
2023-03-15 21:23:47:936,0.361185,7.9789,-5.61711,-54.7818,1.8903,148.032
2023-03-15 21:23:47:946,0.359092,7.98219,-5.61572,-54.7848,1.88973,148.034
2023-03-15 21:23:47:956,0.364724,7.97905,-5.61763,-54.7853,1.88918,148.037
2023-03-15 21:23:47:966,0.3707,7.98674,-5.62967,-54.7874,1.8925,148.035
2023-03-15 21:23:47:976,0.367416,7.99119,-5.62446,-54.7867,1.89303,148.033
2023-03-15 21:23:47:986,0.361788,7.99321,-5.61142,-54.7892,1.89604,148.032
2023-03-15 21:23:47:996,0.351019,7.99152,-5.61171,-54.7901,1.89739,148.033
2023-03-15 21:23:48:6,0.353613,7.98621,-5.62421,-54.7902,1.89629,148.033
2023-03-15 21:23:48:16,0.355923,7.99306,-5.62151,-54.7856,1.89664,148.034
2023-03-15 21:23:48:26,0.363662,7.9892,-5.62271,-54.7864,1.89975,148.031
2023-03-15 21:23:48:36,0.371328,7.98811,-5.61994,-54.7861,1.89907,148.031
2023-03-15 21:23:48:46,0.363287,7.98955,-5.61824,-54.7865,1.89792,148.03
2023-03-15 21:23:48:56,0.360066,7.97236,-5.63394,-54.7871,1.89788,148.03
2023-03-15 21:23:48:66,0.367681,7.97951,-5.62018,-54.7861,1.89777,148.028
2023-03-15 21:23:48:76,0.368433,7.98585,-5.61048,-54.7861,1.89789,148.025
2023-03-15 21:23:48:86,0.365272,7.98259,-5.61701,-54.7878,1.89797,148.023
2023-03-15 21:23:48:96,0.350508,7.97278,-5.62078,-54.7872,1.89359,148.022
2023-03-15 21:23:48:106,0.345528,7.96157,-5.62895,-54.7869,1.89211,148.024
2023-03-15 21:23:48:116,0.359892,7.96783,-5.62808,-54.7885,1.89327,148.024
2023-03-15 21:23:48:126,0.355714,7.96936,-5.62642,-54.7908,1.89306,148.023
2023-03-15 21:23:48:136,0.374977,7.97659,-5.62568,-54.7887,1.89302,148.024
2023-03-15 21:23:48:146,0.362523,7.9749,-5.63666,-54.7884,1.89497,148.023
2023-03-15 21:23:48:156,0.36849,7.98267,-5.61631,-54.7897,1.89597,148.022
2023-03-15 21:23:48:166,0.368123,7.98384,-5.61079,-54.7909,1.89408,148.022
2023-03-15 21:23:48:176,0.361874,7.97846,-5.62312,-54.7934,1.89312,148.021
2023-03-15 21:23:48:186,0.357123,7.98401,-5.6192,-54.7947,1.89584,148.018
2023-03-15 21:23:48:196,0.357435,7.98174,-5.63323,-54.7913,1.89791,148.014
2023-03-15 21:23:48:206,0.364617,7.9758,-5.61315,-54.7871,1.89451,148.016
2023-03-15 21:23:48:216,0.369586,7.97272,-5.61806,-54.7843,1.89784,148.017
2023-03-15 21:23:48:226,0.375108,7.97972,-5.61612,-54.7795,1.89877,148.017
2023-03-15 21:23:48:236,0.366762,7.9924,-5.61367,-54.7799,1.89749,148.017
2023-03-15 21:23:48:246,0.358998,7.97581,-5.62299,-54.7774,1.9011,148.016
2023-03-15 21:23:48:256,0.360007,7.98053,-5.62335,-54.7797,1.90313,148.015
2023-03-15 21:23:48:266,0.355719,7.97252,-5.63398,-54.7769,1.9038,148.013
2023-03-15 21:23:48:276,0.35781,7.98446,-5.62408,-54.7786,1.90334,148.01
2023-03-15 21:23:48:286,0.357242,7.98332,-5.61635,-54.7776,1.90306,148.009
2023-03-15 21:23:48:296,0.3656,7.98622,-5.61484,-54.7783,1.90152,148.009
2023-03-15 21:23:48:306,0.364436,7.98496,-5.63194,-54.7771,1.89984,148.009
2023-03-15 21:23:48:316,0.358429,7.98248,-5.63065,-54.7763,1.89938,148.007
2023-03-15 21:23:48:326,0.359182,7.9763,-5.62129,-54.7768,1.89898,148.012
2023-03-15 21:23:48:336,0.350907,7.97356,-5.63312,-54.7777,1.90012,148.012
2023-03-15 21:23:48:346,0.363045,7.98291,-5.63695,-54.7784,1.8988,148.01
2023-03-15 21:23:48:356,0.369562,7.97921,-5.62864,-54.7795,1.89912,148.01
2023-03-15 21:23:48:366,0.365822,7.98241,-5.6205,-54.7801,1.89861,148.013
2023-03-15 21:23:48:376,0.368903,7.99404,-5.61848,-54.7813,1.89967,148.012
2023-03-15 21:23:48:386,0.372745,7.98338,-5.61895,-54.7818,1.90519,148.012
2023-03-15 21:23:48:396,0.375014,7.99396,-5.61863,-54.7822,1.90795,148.013
2023-03-15 21:23:48:406,0.369615,7.98242,-5.61868,-54.7822,1.91024,148.013
2023-03-15 21:23:48:416,0.352985,7.99001,-5.61026,-54.7847,1.91251,148.014
2023-03-15 21:23:48:426,0.346553,8.00292,-5.59858,-54.7849,1.91197,148.014
2023-03-15 21:23:48:436,0.358885,7.9981,-5.6214,-54.7824,1.91187,148.013
2023-03-15 21:23:48:446,0.358878,7.99584,-5.62423,-54.779,1.91229,148.012
2023-03-15 21:23:48:456,0.358841,7.98726,-5.61477,-54.776,1.91044,148.013
2023-03-15 21:23:48:466,0.366193,7.99157,-5.60643,-54.7739,1.91006,148.015
2023-03-15 21:23:48:476,0.365373,7.98808,-5.61143,-54.7733,1.90665,148.014
2023-03-15 21:23:48:486,0.34958,7.99119,-5.6237,-54.7757,1.90338,148.012
2023-03-15 21:23:48:496,0.356892,7.99167,-5.61331,-54.7757,1.90277,148.008
2023-03-15 21:23:48:506,0.363723,7.99571,-5.61081,-54.7764,1.90307,148.006
2023-03-15 21:23:48:516,0.366686,7.99433,-5.61343,-54.7783,1.90287,148.005
2023-03-15 21:23:48:526,0.364931,7.984,-5.6205,-54.7801,1.90498,148.005
2023-03-15 21:23:48:536,0.372762,7.96967,-5.62838,-54.7787,1.90422,148.006
2023-03-15 21:23:48:546,0.375312,7.97598,-5.62608,-54.7765,1.90382,148.008
2023-03-15 21:23:48:556,0.357775,7.99106,-5.61419,-54.776,1.90477,148.005
2023-03-15 21:23:48:566,0.354824,7.99867,-5.61493,-54.7758,1.90601,148.005
2023-03-15 21:23:48:576,0.348885,7.98569,-5.62422,-54.7744,1.90438,148.006
2023-03-15 21:23:48:586,0.352904,7.98819,-5.62289,-54.773,1.90378,148.004
2023-03-15 21:23:48:596,0.362895,7.99346,-5.61572,-54.7742,1.90572,148.003
2023-03-15 21:23:48:606,0.358004,7.98701,-5.63008,-54.7748,1.90522,148.003
2023-03-15 21:23:48:616,0.355387,7.99068,-5.62204,-54.7783,1.90142,148.003
2023-03-15 21:23:48:626,0.364483,7.98506,-5.62356,-54.7764,1.90005,148.005
2023-03-15 21:23:48:636,0.37108,7.99531,-5.61492,-54.7743,1.90025,148.001
2023-03-15 21:23:48:646,0.361338,7.99029,-5.62063,-54.7739,1.90171,148.002
2023-03-15 21:23:48:656,0.354824,7.98521,-5.62444,-54.7746,1.9008,148.005
2023-03-15 21:23:48:666,0.355284,7.98858,-5.61415,-54.7755,1.90197,148.005
2023-03-15 21:23:48:676,0.355189,7.99268,-5.61206,-54.776,1.90185,148.003
2023-03-15 21:23:48:686,0.351866,8.00532,-5.60527,-54.776,1.89871,148.007
2023-03-15 21:23:48:696,0.36304,7.99604,-5.6137,-54.7742,1.89727,148.006
2023-03-15 21:23:48:706,0.367707,7.98813,-5.6202,-54.7756,1.8986,148.005
2023-03-15 21:23:48:716,0.372777,7.98887,-5.61904,-54.775,1.89513,148.006
2023-03-15 21:23:48:726,0.36104,7.98556,-5.60997,-54.7723,1.89261,148.007
2023-03-15 21:23:48:736,0.348252,7.98652,-5.62056,-54.7713,1.89264,148.007
2023-03-15 21:23:48:746,0.360757,7.99028,-5.61187,-54.7707,1.89309,148.006
2023-03-15 21:23:48:756,0.365971,7.98986,-5.61378,-54.7706,1.8952,148.008
2023-03-15 21:23:48:766,0.355353,7.99236,-5.61247,-54.7732,1.89566,148.005
2023-03-15 21:23:48:776,0.348017,7.9858,-5.6204,-54.7734,1.89673,148.007
2023-03-15 21:23:48:786,0.35346,7.97496,-5.63281,-54.7721,1.89676,148.009
2023-03-15 21:23:48:796,0.354679,7.98386,-5.62361,-54.7757,1.89647,148.009
2023-03-15 21:23:48:806,0.357168,7.97821,-5.61802,-54.775,1.89813,148.01
2023-03-15 21:23:48:816,0.353576,7.98541,-5.60812,-54.7739,1.89508,148.011
2023-03-15 21:23:48:826,0.367747,7.99229,-5.61122,-54.7741,1.88987,148.01
2023-03-15 21:23:48:836,0.360539,7.98126,-5.6274,-54.774,1.88891,148.01
2023-03-15 21:23:48:846,0.355674,7.98638,-5.61747,-54.774,1.89275,148.01
2023-03-15 21:23:48:856,0.357744,7.98274,-5.61261,-54.7735,1.89491,148.009
2023-03-15 21:23:48:866,0.369239,7.98839,-5.61925,-54.7754,1.89605,148.009
2023-03-15 21:23:48:876,0.364507,7.99695,-5.62102,-54.7763,1.89751,148.007
2023-03-15 21:23:48:886,0.351354,7.98512,-5.61515,-54.7757,1.89483,148.007
2023-03-15 21:23:48:896,0.365397,7.98123,-5.61203,-54.7743,1.89409,148.009
2023-03-15 21:23:48:906,0.353883,7.9854,-5.62094,-54.7732,1.89487,148.008
2023-03-15 21:23:48:916,0.349727,7.98872,-5.6257,-54.7689,1.89382,148.008
2023-03-15 21:23:48:926,0.350334,7.98474,-5.62276,-54.7696,1.89155,148.006
2023-03-15 21:23:48:936,0.354146,7.98904,-5.62623,-54.7692,1.89314,148.006
2023-03-15 21:23:48:946,0.358749,7.98488,-5.62675,-54.7682,1.89284,148.008
2023-03-15 21:23:48:956,0.355363,7.98607,-5.61641,-54.77,1.88941,148.011
2023-03-15 21:23:48:966,0.357812,7.98424,-5.61496,-54.7715,1.88867,148.011
2023-03-15 21:23:48:976,0.364215,7.98769,-5.6161,-54.7718,1.88962,148.009
2023-03-15 21:23:48:986,0.351534,8.0006,-5.62366,-54.7727,1.88984,148.012
2023-03-15 21:23:48:996,0.35687,7.98741,-5.61993,-54.7732,1.88702,148.012
2023-03-15 21:23:49:6,0.359449,7.975,-5.61867,-54.7736,1.88476,148.016
2023-03-15 21:23:49:16,0.356477,7.98008,-5.62508,-54.7734,1.88601,148.013
2023-03-15 21:23:49:26,0.364684,7.98226,-5.63312,-54.7735,1.88687,148.013
2023-03-15 21:23:49:36,0.361341,7.99278,-5.62,-54.7706,1.88424,148.013
2023-03-15 21:23:49:46,0.358927,7.99528,-5.61796,-54.7722,1.88189,148.015
2023-03-15 21:23:49:56,0.364994,7.97902,-5.62711,-54.7721,1.88091,148.014
2023-03-15 21:23:49:66,0.362537,7.98018,-5.62124,-54.7717,1.88301,148.014
2023-03-15 21:23:49:76,0.355841,7.98064,-5.62337,-54.7713,1.88365,148.012
2023-03-15 21:23:49:86,0.344716,7.9711,-5.62426,-54.7741,1.88452,148.013
2023-03-15 21:23:49:96,0.351162,7.97741,-5.61697,-54.7728,1.88124,148.014
2023-03-15 21:23:49:106,0.352679,7.98595,-5.62206,-54.7719,1.88192,148.012
2023-03-15 21:23:49:116,0.363618,7.98909,-5.61984,-54.7703,1.88097,148.009
2023-03-15 21:23:49:126,0.363645,7.97799,-5.62555,-54.7664,1.8807,148.011
2023-03-15 21:23:49:136,0.364752,7.98282,-5.62347,-54.7684,1.88129,148.007
2023-03-15 21:23:49:146,0.356655,7.99115,-5.61321,-54.7687,1.88183,148.008
2023-03-15 21:23:49:156,0.359007,7.98245,-5.61806,-54.7688,1.87916,148.006
2023-03-15 21:23:49:166,0.354277,7.97948,-5.61848,-54.7681,1.87998,148.007
2023-03-15 21:23:49:176,0.350065,7.97154,-5.62894,-54.7676,1.88027,148.007
2023-03-15 21:23:49:186,0.363938,7.97618,-5.63081,-54.7616,1.881,148.009
2023-03-15 21:23:49:196,0.35745,7.9951,-5.61072,-54.7625,1.87915,148.01
2023-03-15 21:23:49:206,0.351306,7.98191,-5.62625,-54.7627,1.8807,148.012
2023-03-15 21:23:49:216,0.352398,7.9893,-5.62467,-54.7642,1.87891,148.014
2023-03-15 21:23:49:226,0.341077,7.98314,-5.61666,-54.7629,1.8821,148.015
2023-03-15 21:23:49:236,0.353602,7.98499,-5.61771,-54.7627,1.88141,148.015
2023-03-15 21:23:49:246,0.357775,7.98489,-5.61937,-54.7648,1.88167,148.013
2023-03-15 21:23:49:256,0.367824,7.98683,-5.61819,-54.7644,1.88245,148.015
2023-03-15 21:23:49:266,0.366025,7.97882,-5.61781,-54.7615,1.88147,148.016
2023-03-15 21:23:49:276,0.37325,7.98074,-5.6179,-54.7623,1.88291,148.014
2023-03-15 21:23:49:286,0.37099,7.98419,-5.61659,-54.7634,1.8815,148.014
2023-03-15 21:23:49:296,0.362832,7.98932,-5.62781,-54.763,1.88184,148.015
2023-03-15 21:23:49:306,0.339102,7.99909,-5.607,-54.765,1.88164,148.015
2023-03-15 21:23:49:316,0.34436,8.00332,-5.59912,-54.7641,1.87989,148.015
2023-03-15 21:23:49:326,0.355573,7.98762,-5.61929,-54.7646,1.879,148.012
2023-03-15 21:23:49:336,0.366342,7.97915,-5.61668,-54.765,1.87863,148.013
2023-03-15 21:23:49:346,0.368227,7.98749,-5.61536,-54.7638,1.87801,148.013
2023-03-15 21:23:49:356,0.373278,7.98571,-5.61897,-54.7661,1.87829,148.013
2023-03-15 21:23:49:366,0.370755,7.98276,-5.62558,-54.7653,1.87982,148.015
2023-03-15 21:23:49:376,0.350742,7.99076,-5.61738,-54.7667,1.87993,148.015
2023-03-15 21:23:49:386,0.344538,7.99397,-5.6162,-54.7658,1.87748,148.014
2023-03-15 21:23:49:396,0.351894,7.99119,-5.61342,-54.7645,1.8776,148.013
2023-03-15 21:23:49:406,0.347901,7.99437,-5.6065,-54.7683,1.8783,148.012
2023-03-15 21:23:49:416,0.369308,7.98963,-5.61968,-54.7682,1.87823,148.011
2023-03-15 21:23:49:426,0.377129,7.98981,-5.61725,-54.7688,1.87414,148.012
2023-03-15 21:23:49:436,0.364678,7.9853,-5.61855,-54.77,1.87213,148.014
2023-03-15 21:23:49:446,0.361259,7.98283,-5.62679,-54.7691,1.86955,148.012
2023-03-15 21:23:49:456,0.37096,7.98135,-5.63215,-54.7688,1.8708,148.016
2023-03-15 21:23:49:466,0.393881,7.977,-5.63602,-54.765,1.8736,148.016
2023-03-15 21:23:49:476,0.36415,7.98461,-5.62561,-54.7646,1.87435,148.018
2023-03-15 21:23:49:486,0.334545,7.99839,-5.61474,-54.7652,1.87259,148.019
2023-03-15 21:23:49:496,0.335256,8.00031,-5.60412,-54.7661,1.8718,148.019
2023-03-15 21:23:49:506,0.352236,7.98984,-5.61171,-54.766,1.87242,148.018
2023-03-15 21:23:49:516,0.3658,7.98642,-5.61825,-54.7641,1.87321,148.017
2023-03-15 21:23:49:526,0.381387,7.98037,-5.61457,-54.7633,1.87514,148.015
2023-03-15 21:23:49:536,0.373931,7.97482,-5.6272,-54.7664,1.87626,148.013
2023-03-15 21:23:49:546,0.376112,7.98,-5.62165,-54.767,1.87867,148.011
2023-03-15 21:23:49:556,0.375349,7.98657,-5.62111,-54.7679,1.87881,148.011
2023-03-15 21:23:49:566,0.358786,7.98875,-5.61843,-54.7683,1.88031,148.007
2023-03-15 21:23:49:576,0.340162,7.99539,-5.61924,-54.7686,1.87933,148.006
2023-03-15 21:23:49:586,0.344619,7.99712,-5.61346,-54.7699,1.87859,148.007
2023-03-15 21:23:49:596,0.361931,8.00014,-5.59693,-54.7715,1.88183,148.005
2023-03-15 21:23:49:606,0.368693,7.98159,-5.61209,-54.7747,1.88134,148.004
2023-03-15 21:23:49:616,0.363976,7.9825,-5.61837,-54.7738,1.88086,148.002
2023-03-15 21:23:49:626,0.36793,7.97751,-5.63162,-54.7733,1.88246,148.003
2023-03-15 21:23:49:636,0.370308,7.98481,-5.63006,-54.7711,1.88522,148.003
2023-03-15 21:23:49:646,0.373274,7.9904,-5.62379,-54.7706,1.8838,148.002
2023-03-15 21:23:49:656,0.364866,7.98229,-5.61481,-54.7709,1.88306,148.001
2023-03-15 21:23:49:666,0.360408,7.98983,-5.61359,-54.7701,1.88305,148.004
2023-03-15 21:23:49:676,0.358429,7.99454,-5.61594,-54.7704,1.88519,148.006
2023-03-15 21:23:49:686,0.36415,7.99124,-5.61752,-54.7697,1.88723,148.008
2023-03-15 21:23:49:696,0.380624,7.98769,-5.62182,-54.7696,1.88849,148.007
2023-03-15 21:23:49:706,0.382198,7.97781,-5.62455,-54.7681,1.88898,148.003
2023-03-15 21:23:49:716,0.361859,7.99661,-5.6181,-54.7664,1.88781,148.003
2023-03-15 21:23:49:726,0.345386,7.99533,-5.61711,-54.7668,1.88604,148.004
2023-03-15 21:23:49:736,0.336043,7.99435,-5.60865,-54.7665,1.88403,148.004
2023-03-15 21:23:49:746,0.34509,7.99495,-5.61402,-54.7687,1.88454,148.005
2023-03-15 21:23:49:756,0.348385,7.98575,-5.62236,-54.7685,1.88192,148.004
2023-03-15 21:23:49:766,0.364908,7.99048,-5.61307,-54.769,1.88117,148.002
2023-03-15 21:23:49:776,0.371635,7.98423,-5.6226,-54.765,1.88045,148.002
2023-03-15 21:23:49:786,0.37434,7.9821,-5.6283,-54.767,1.88047,148.001
2023-03-15 21:23:49:796,0.377046,7.9778,-5.62466,-54.7645,1.88145,148.004
2023-03-15 21:23:49:806,0.365589,7.97163,-5.62434,-54.7639,1.88252,148.003
2023-03-15 21:23:49:816,0.359407,7.97648,-5.6187,-54.7629,1.88224,148.005
2023-03-15 21:23:49:826,0.350695,7.99613,-5.61668,-54.7653,1.88331,148.007
2023-03-15 21:23:49:836,0.353651,7.99459,-5.62036,-54.7675,1.88335,148.006
2023-03-15 21:23:49:846,0.349503,7.98558,-5.62367,-54.7675,1.88529,148.006
2023-03-15 21:23:49:856,0.350639,7.98155,-5.62578,-54.7671,1.88512,148.006
2023-03-15 21:23:49:866,0.363222,7.97232,-5.6175,-54.7679,1.88445,148.006
2023-03-15 21:23:49:876,0.364632,7.97963,-5.62713,-54.769,1.8882,148.002
2023-03-15 21:23:49:886,0.36466,7.98506,-5.62967,-54.7653,1.88791,148.002
2023-03-15 21:23:49:896,0.364641,7.99093,-5.62719,-54.7676,1.88704,148.002
2023-03-15 21:23:49:906,0.355769,7.9897,-5.621,-54.7668,1.88804,148.001
2023-03-15 21:23:49:916,0.343776,7.98444,-5.61578,-54.7677,1.88674,148
2023-03-15 21:23:49:926,0.344317,7.99361,-5.61064,-54.7673,1.88443,147.999
2023-03-15 21:23:49:936,0.338628,7.98976,-5.61154,-54.7652,1.88313,147.997
2023-03-15 21:23:49:946,0.355251,7.98772,-5.61617,-54.7659,1.88396,147.994
2023-03-15 21:23:49:956,0.358994,7.9922,-5.61794,-54.7672,1.88225,147.992
2023-03-15 21:23:49:966,0.362104,7.99097,-5.62226,-54.7684,1.87954,147.991
2023-03-15 21:23:49:976,0.357646,7.97972,-5.62541,-54.7693,1.88142,147.993
2023-03-15 21:23:49:986,0.357596,7.97718,-5.6228,-54.7717,1.88321,147.992
2023-03-15 21:23:49:996,0.345889,7.98834,-5.6091,-54.772,1.88353,147.991
2023-03-15 21:23:50:6,0.347036,7.98924,-5.62737,-54.7707,1.88173,147.988
2023-03-15 21:23:50:16,0.348937,7.97614,-5.63107,-54.7715,1.88126,147.989
2023-03-15 21:23:50:26,0.344907,7.98784,-5.62264,-54.7736,1.885,147.99
2023-03-15 21:23:50:36,0.355316,7.98957,-5.6161,-54.7749,1.88555,147.99
2023-03-15 21:23:50:46,0.369952,7.99264,-5.61424,-54.774,1.88551,147.991
2023-03-15 21:23:50:56,0.371979,7.9816,-5.63198,-54.7716,1.88747,147.992
2023-03-15 21:23:50:66,0.364498,7.96675,-5.63385,-54.7729,1.88884,147.993
2023-03-15 21:23:50:76,0.363355,7.97731,-5.62725,-54.7716,1.89053,147.99
2023-03-15 21:23:50:86,0.362866,7.99722,-5.62239,-54.7711,1.89039,147.989
2023-03-15 21:23:50:96,0.358159,7.98895,-5.62416,-54.7699,1.89155,147.99
2023-03-15 21:23:50:106,0.340329,7.99114,-5.61879,-54.7699,1.8881,147.992
2023-03-15 21:23:50:116,0.353262,7.98637,-5.62515,-54.7696,1.88847,147.993
2023-03-15 21:23:50:125,0.359553,7.98745,-5.62173,-54.7676,1.88811,147.993
2023-03-15 21:23:50:136,0.365005,7.97985,-5.61924,-54.7674,1.88883,147.996
2023-03-15 21:23:50:146,0.370389,7.98476,-5.62695,-54.7649,1.88989,147.992
2023-03-15 21:23:50:156,0.358745,7.98672,-5.62261,-54.7653,1.88907,147.99
2023-03-15 21:23:50:166,0.359772,7.98573,-5.61515,-54.7657,1.89246,147.992
2023-03-15 21:23:50:176,0.35297,7.9886,-5.60779,-54.7648,1.89307,147.989
2023-03-15 21:23:50:186,0.362071,7.97916,-5.61441,-54.7657,1.89259,147.988
2023-03-15 21:23:50:196,0.354951,7.97484,-5.62373,-54.7646,1.89177,147.99
2023-03-15 21:23:50:206,0.348248,7.98037,-5.63407,-54.766,1.89219,147.989
2023-03-15 21:23:50:216,0.357329,7.98335,-5.63224,-54.7683,1.89252,147.989
2023-03-15 21:23:50:226,0.356999,7.98222,-5.63442,-54.7681,1.89097,147.989
2023-03-15 21:23:50:236,0.361018,7.98859,-5.62914,-54.7692,1.8929,147.987
2023-03-15 21:23:50:246,0.361989,7.99586,-5.62228,-54.7676,1.88928,147.986
2023-03-15 21:23:50:256,0.362861,7.99649,-5.62368,-54.7674,1.88746,147.984
2023-03-15 21:23:50:265,0.372174,7.98551,-5.6238,-54.7685,1.88522,147.985
2023-03-15 21:23:50:275,0.364097,7.98918,-5.61489,-54.7649,1.8832,147.982
2023-03-15 21:23:50:285,0.364355,7.97815,-5.6219,-54.7622,1.88118,147.983
2023-03-15 21:23:50:295,0.361006,7.98641,-5.62166,-54.7647,1.87741,147.981
2023-03-15 21:23:50:305,0.36489,7.98627,-5.61854,-54.7638,1.88086,147.982
2023-03-15 21:23:50:315,0.362108,7.98542,-5.61493,-54.7638,1.88101,147.984
2023-03-15 21:23:50:325,0.360858,7.97044,-5.62336,-54.7627,1.88039,147.984
2023-03-15 21:23:50:336,0.367821,7.97581,-5.62355,-54.7619,1.88133,147.983
2023-03-15 21:23:50:346,0.373671,7.98329,-5.62008,-54.7614,1.88173,147.983
2023-03-15 21:23:50:356,0.359731,7.98948,-5.61818,-54.7584,1.88389,147.981
2023-03-15 21:23:50:366,0.359299,7.99017,-5.62183,-54.7574,1.88268,147.981
2023-03-15 21:23:50:376,0.364402,7.98238,-5.63434,-54.7559,1.88263,147.98
2023-03-15 21:23:50:386,0.373265,7.98434,-5.61935,-54.758,1.88078,147.981
2023-03-15 21:23:50:396,0.364636,7.98738,-5.62001,-54.7578,1.88191,147.98
2023-03-15 21:23:50:406,0.351534,7.98528,-5.62067,-54.7565,1.88096,147.978
2023-03-15 21:23:50:416,0.352616,7.98298,-5.6287,-54.758,1.88236,147.98
2023-03-15 21:23:50:426,0.356096,7.98728,-5.6221,-54.7578,1.88185,147.978
2023-03-15 21:23:50:436,0.351927,7.9835,-5.62391,-54.758,1.88411,147.977
2023-03-15 21:23:50:446,0.350834,7.98063,-5.62177,-54.7557,1.88236,147.977
2023-03-15 21:23:50:456,0.36615,7.9793,-5.61771,-54.7587,1.88084,147.974
2023-03-15 21:23:50:466,0.368044,7.98201,-5.62058,-54.7585,1.87961,147.975
2023-03-15 21:23:50:475,0.346698,7.97382,-5.62097,-54.7594,1.87956,147.975
2023-03-15 21:23:50:485,0.358192,7.97737,-5.61923,-54.7591,1.88097,147.975
2023-03-15 21:23:50:495,0.3602,7.97132,-5.62425,-54.7598,1.88069,147.974
2023-03-15 21:23:50:505,0.365227,7.97546,-5.62668,-54.7614,1.88301,147.97
2023-03-15 21:23:50:515,0.360353,7.98792,-5.62272,-54.7621,1.88144,147.968
2023-03-15 21:23:50:525,0.369471,7.99668,-5.61085,-54.7637,1.87985,147.965
2023-03-15 21:23:50:535,0.362694,7.99866,-5.6124,-54.7654,1.882,147.963
2023-03-15 21:23:50:545,0.37167,7.98484,-5.6173,-54.7657,1.88254,147.965
2023-03-15 21:23:50:555,0.366345,7.97554,-5.61687,-54.7632,1.88317,147.965
2023-03-15 21:23:50:565,0.358137,7.97989,-5.61364,-54.7626,1.8834,147.965
2023-03-15 21:23:50:575,0.360529,7.98624,-5.6111,-54.7616,1.88094,147.966
2023-03-15 21:23:50:585,0.35424,7.98478,-5.603,-54.7636,1.87824,147.965
2023-03-15 21:23:50:595,0.362951,7.98198,-5.61338,-54.7665,1.87828,147.963
2023-03-15 21:23:50:605,0.361658,7.97931,-5.61652,-54.7659,1.8772,147.966
2023-03-15 21:23:50:615,0.363279,7.98069,-5.62442,-54.767,1.87564,147.965
2023-03-15 21:23:50:625,0.371894,7.98409,-5.62014,-54.769,1.87608,147.964
2023-03-15 21:23:50:635,0.353445,7.98526,-5.62361,-54.7674,1.8807,147.968
2023-03-15 21:23:50:645,0.347815,7.9797,-5.62814,-54.7704,1.88004,147.968
2023-03-15 21:23:50:655,0.353405,7.97821,-5.62414,-54.7696,1.87952,147.968
2023-03-15 21:23:50:665,0.358326,7.9841,-5.61894,-54.7684,1.88236,147.966
2023-03-15 21:23:50:675,0.356381,7.99134,-5.6145,-54.7691,1.8807,147.966
2023-03-15 21:23:50:685,0.360683,7.97929,-5.6088,-54.7695,1.87987,147.968
2023-03-15 21:23:50:695,0.376331,7.98999,-5.60439,-54.77,1.87771,147.967
2023-03-15 21:23:50:705,0.374336,7.98395,-5.61822,-54.77,1.88053,147.966
2023-03-15 21:23:50:715,0.353761,7.98589,-5.61461,-54.7716,1.87681,147.965
2023-03-15 21:23:50:725,0.347813,7.99025,-5.61043,-54.7699,1.87775,147.961
2023-03-15 21:23:50:735,0.354914,7.98414,-5.6125,-54.7672,1.87724,147.959
2023-03-15 21:23:50:745,0.357426,7.98513,-5.62,-54.7677,1.87385,147.958
2023-03-15 21:23:50:755,0.357771,7.98838,-5.62545,-54.765,1.87249,147.957
2023-03-15 21:23:50:765,0.362147,7.98866,-5.62031,-54.768,1.8738,147.957
2023-03-15 21:23:50:775,0.362356,7.98765,-5.62541,-54.7714,1.87021,147.958
2023-03-15 21:23:50:785,0.367632,7.98109,-5.62487,-54.772,1.87238,147.959
2023-03-15 21:23:50:795,0.377015,7.98841,-5.62249,-54.7715,1.87293,147.962
2023-03-15 21:23:50:805,0.367633,7.98997,-5.61712,-54.7695,1.87066,147.96
2023-03-15 21:23:50:815,0.356448,7.9823,-5.61308,-54.7708,1.86884,147.96
2023-03-15 21:23:50:825,0.357511,7.98425,-5.63095,-54.7713,1.86974,147.959
2023-03-15 21:23:50:835,0.376171,7.98571,-5.61898,-54.7722,1.87389,147.959
2023-03-15 21:23:50:845,0.360902,7.9887,-5.62557,-54.7743,1.8732,147.959
2023-03-15 21:23:50:855,0.358414,7.97886,-5.6332,-54.7768,1.87405,147.957
2023-03-15 21:23:50:865,0.373968,7.97834,-5.62946,-54.7786,1.87252,147.959
2023-03-15 21:23:50:875,0.379307,7.98773,-5.62795,-54.7823,1.87086,147.959
2023-03-15 21:23:50:885,0.378212,7.99251,-5.62017,-54.7823,1.87204,147.959
2023-03-15 21:23:50:895,0.373895,7.98254,-5.61399,-54.7846,1.87361,147.959
2023-03-15 21:23:50:905,0.349982,7.9871,-5.61359,-54.783,1.87404,147.958
2023-03-15 21:23:50:915,0.357349,7.97247,-5.61945,-54.7836,1.87934,147.959
2023-03-15 21:23:50:925,0.349433,7.97537,-5.62197,-54.7801,1.87822,147.961
2023-03-15 21:23:50:935,0.358253,7.99044,-5.62347,-54.7805,1.88189,147.959
2023-03-15 21:23:50:945,0.343669,7.99242,-5.61464,-54.7823,1.88499,147.958
2023-03-15 21:23:50:955,0.346436,7.99867,-5.61552,-54.7813,1.88625,147.955
2023-03-15 21:23:50:965,0.354622,7.99688,-5.61965,-54.7809,1.88788,147.956
2023-03-15 21:23:50:975,0.372072,7.97817,-5.63556,-54.7764,1.88821,147.953
2023-03-15 21:23:50:985,0.396023,7.98009,-5.63623,-54.7773,1.89035,147.953
2023-03-15 21:23:50:995,0.371252,7.97452,-5.6413,-54.7767,1.88928,147.951
2023-03-15 21:23:51:5,0.35905,7.98746,-5.62533,-54.7756,1.88963,147.95
2023-03-15 21:23:51:15,0.354593,7.98864,-5.61783,-54.7782,1.89383,147.951
2023-03-15 21:23:51:25,0.339719,7.98904,-5.61702,-54.7782,1.89531,147.95
2023-03-15 21:23:51:35,0.346214,7.99669,-5.61291,-54.7798,1.89283,147.953
2023-03-15 21:23:51:45,0.358951,7.99778,-5.60761,-54.7792,1.89078,147.953
2023-03-15 21:23:51:55,0.363121,7.98469,-5.62073,-54.7782,1.88801,147.953
2023-03-15 21:23:51:65,0.363891,7.99087,-5.62029,-54.778,1.88693,147.952
2023-03-15 21:23:51:75,0.365138,7.98349,-5.62108,-54.7774,1.8872,147.953
2023-03-15 21:23:51:85,0.360924,7.9895,-5.62001,-54.7778,1.89159,147.953
2023-03-15 21:23:51:95,0.349906,7.98925,-5.63109,-54.781,1.89304,147.954
2023-03-15 21:23:51:105,0.359307,7.98522,-5.62492,-54.782,1.89249,147.955
2023-03-15 21:23:51:115,0.356238,7.98852,-5.61273,-54.783,1.89223,147.955
2023-03-15 21:23:51:125,0.355465,7.98322,-5.6243,-54.7832,1.89463,147.955
2023-03-15 21:23:51:135,0.355807,7.97808,-5.62565,-54.7849,1.89255,147.958
2023-03-15 21:23:51:145,0.354942,7.98633,-5.61587,-54.7831,1.89494,147.958
2023-03-15 21:23:51:155,0.35793,7.99256,-5.62016,-54.7846,1.8951,147.958
2023-03-15 21:23:51:165,0.362319,7.99866,-5.6083,-54.785,1.89674,147.958
2023-03-15 21:23:51:175,0.36837,8.00134,-5.6143,-54.7838,1.8971,147.954
2023-03-15 21:23:51:185,0.369323,7.99092,-5.62497,-54.7858,1.8974,147.952
2023-03-15 21:23:51:195,0.373705,7.99104,-5.60895,-54.7859,1.89553,147.95
2023-03-15 21:23:51:205,0.359635,7.98047,-5.61702,-54.7843,1.89838,147.947
2023-03-15 21:23:51:215,0.363784,7.97519,-5.62581,-54.7833,1.89878,147.946
2023-03-15 21:23:51:225,0.357759,7.97633,-5.62389,-54.7849,1.89919,147.946
2023-03-15 21:23:51:235,0.354437,7.98913,-5.61677,-54.7853,1.90069,147.947
2023-03-15 21:23:51:245,0.364868,7.99855,-5.61165,-54.7849,1.90192,147.948
2023-03-15 21:23:51:255,0.365202,7.98138,-5.61416,-54.787,1.90487,147.95
2023-03-15 21:23:51:265,0.362479,7.98659,-5.61863,-54.7861,1.90649,147.947
2023-03-15 21:23:51:275,0.367004,7.99258,-5.62168,-54.7868,1.90571,147.947
2023-03-15 21:23:51:285,0.362228,7.98787,-5.61901,-54.7884,1.90462,147.944
2023-03-15 21:23:51:295,0.359406,7.98382,-5.61271,-54.788,1.90567,147.944
2023-03-15 21:23:51:305,0.351899,7.98097,-5.61895,-54.7883,1.90778,147.94
2023-03-15 21:23:51:315,0.35461,7.98289,-5.60941,-54.7875,1.90662,147.94
2023-03-15 21:23:51:325,0.364895,7.98748,-5.6174,-54.7894,1.90872,147.941
2023-03-15 21:23:51:335,0.36924,7.98377,-5.62052,-54.7885,1.90851,147.941
2023-03-15 21:23:51:345,0.367124,7.97583,-5.61063,-54.7902,1.90941,147.942
2023-03-15 21:23:51:355,0.374905,7.98395,-5.61766,-54.7912,1.91284,147.941
2023-03-15 21:23:51:365,0.373701,7.98178,-5.61918,-54.7865,1.91234,147.941
2023-03-15 21:23:51:375,0.349231,7.99054,-5.62561,-54.7861,1.91133,147.942
2023-03-15 21:23:51:385,0.331234,7.98151,-5.61979,-54.7859,1.91479,147.94
