Timestamp,Acceleration_x,Acceleration_y,Acceleration_z,roll,pitch,yaw
2023-03-11 22:39:17:882,-0.493122,-0.641682,-10.017,4.46484,-1.2741,-36.429
2023-03-11 22:39:17:891,-0.583125,-0.653879,-9.95088,4.46892,-1.30238,-36.3986
2023-03-11 22:39:17:901,-0.661115,-0.660785,-9.86531,4.48487,-1.31261,-36.3739
2023-03-11 22:39:17:911,-0.673408,-0.707856,-9.79393,4.5091,-1.31036,-36.363
2023-03-11 22:39:17:921,-0.582324,-0.767096,-9.6744,4.54078,-1.29211,-36.3595
2023-03-11 22:39:17:931,-0.450599,-0.86154,-9.53717,4.57433,-1.26027,-36.3619
2023-03-11 22:39:17:941,-0.312,-0.954831,-9.44863,4.60463,-1.22534,-36.3565
2023-03-11 22:39:17:951,-0.24984,-1.00174,-9.40206,4.62168,-1.19068,-36.3513
2023-03-11 22:39:17:961,-0.235765,-0.98407,-9.39808,4.61979,-1.15947,-36.3489
2023-03-11 22:39:17:971,-0.253861,-0.921174,-9.45387,4.60078,-1.13109,-36.3448
2023-03-11 22:39:17:981,-0.327831,-0.815796,-9.55881,4.57135,-1.10389,-36.3431
2023-03-11 22:39:17:991,-0.333784,-0.735405,-9.64412,4.53795,-1.07402,-36.3504
2023-03-11 22:39:18:1,-0.290034,-0.723009,-9.72246,4.50013,-1.03997,-36.3592
2023-03-11 22:39:18:11,-0.223823,-0.714508,-9.78828,4.46663,-1.00137,-36.3721
2023-03-11 22:39:18:21,-0.165438,-0.657638,-9.83917,4.43218,-0.965155,-36.3868
2023-03-11 22:39:18:31,-0.220693,-0.612875,-9.81228,4.40258,-0.931084,-36.3987
2023-03-11 22:39:18:41,-0.287134,-0.610565,-9.76859,4.38736,-0.895911,-36.4216
2023-03-11 22:39:18:51,-0.225862,-0.679905,-9.71945,4.37295,-0.857563,-36.4513
2023-03-11 22:39:18:61,-0.126638,-0.727314,-9.7291,4.35513,-0.819115,-36.479
2023-03-11 22:39:18:71,-0.0506102,-0.737269,-9.75597,4.33568,-0.78302,-36.5067
2023-03-11 22:39:18:81,0.00402134,-0.72868,-9.76794,4.31129,-0.757566,-36.533
2023-03-11 22:39:18:91,-0.0609006,-0.68878,-9.72608,4.28585,-0.734574,-36.5524
2023-03-11 22:39:18:101,-0.166445,-0.665913,-9.6764,4.26416,-0.70752,-36.5758
2023-03-11 22:39:18:111,-0.0869965,-0.701393,-9.67616,4.23707,-0.668575,-36.6038
2023-03-11 22:39:18:121,0.145716,-0.740546,-9.71426,4.20865,-0.624536,-36.6301
2023-03-11 22:39:18:131,0.327995,-0.751593,-9.7743,4.1717,-0.585737,-36.6355
2023-03-11 22:39:18:141,0.383184,-0.706891,-9.84343,4.12653,-0.558544,-36.6201
2023-03-11 22:39:18:151,0.248676,-0.626824,-9.9007,4.08621,-0.544334,-36.592
2023-03-11 22:39:18:161,0.10895,-0.560283,-9.91377,4.04543,-0.53738,-36.5584
2023-03-11 22:39:18:171,0.0614548,-0.529527,-9.89379,4.01286,-0.527271,-36.5255
2023-03-11 22:39:18:181,0.0983053,-0.547871,-9.86324,3.98641,-0.520675,-36.4906
2023-03-11 22:39:18:191,0.141706,-0.579588,-9.86143,3.96566,-0.517952,-36.4444
2023-03-11 22:39:18:201,0.126752,-0.587171,-9.86683,3.94755,-0.519972,-36.3934
2023-03-11 22:39:18:211,0.0525828,-0.554966,-9.89658,3.93055,-0.528313,-36.34
2023-03-11 22:39:18:221,-0.0407129,-0.509617,-9.95677,3.91892,-0.544295,-36.2884
2023-03-11 22:39:18:231,-0.118649,-0.515919,-9.98425,3.91851,-0.568183,-36.2397
2023-03-11 22:39:18:241,-0.165785,-0.552958,-9.94021,3.92373,-0.595882,-36.1947
2023-03-11 22:39:18:251,-0.232792,-0.596212,-9.87998,3.9391,-0.626224,-36.1559
2023-03-11 22:39:18:260,-0.306579,-0.633451,-9.83957,3.95871,-0.652418,-36.1181
2023-03-11 22:39:18:270,-0.364469,-0.647559,-9.78371,3.97871,-0.680141,-36.0888
2023-03-11 22:39:18:280,-0.404916,-0.66642,-9.72208,3.9959,-0.698931,-36.0696
2023-03-11 22:39:18:290,-0.377941,-0.687815,-9.68095,4.01238,-0.703387,-36.0592
2023-03-11 22:39:18:301,-0.340752,-0.68438,-9.67445,4.02933,-0.705906,-36.0578
2023-03-11 22:39:18:310,-0.315296,-0.696586,-9.66825,4.04317,-0.700381,-36.0661
2023-03-11 22:39:18:320,-0.254333,-0.704617,-9.65286,4.05522,-0.692601,-36.0795
2023-03-11 22:39:18:331,-0.166709,-0.702457,-9.68941,4.05835,-0.681601,-36.099
2023-03-11 22:39:18:341,-0.0516234,-0.681938,-9.72755,4.05663,-0.669746,-36.1133
2023-03-11 22:39:18:351,-0.015734,-0.664643,-9.75342,4.05765,-0.664023,-36.127
2023-03-11 22:39:18:361,-0.0568873,-0.635447,-9.77991,4.05642,-0.664037,-36.1418
2023-03-11 22:39:18:371,-0.0836474,-0.621247,-9.7875,4.05661,-0.667066,-36.1579
2023-03-11 22:39:18:381,-0.078451,-0.618363,-9.78846,4.05846,-0.668778,-36.1769
2023-03-11 22:39:18:391,-0.0393102,-0.621837,-9.78382,4.06486,-0.668452,-36.1964
2023-03-11 22:39:18:401,0.01539,-0.636161,-9.77312,4.07021,-0.668799,-36.2046
2023-03-11 22:39:18:411,0.0376606,-0.659463,-9.74995,4.07775,-0.671684,-36.2048
2023-03-11 22:39:18:421,0.0032563,-0.66099,-9.73822,4.08449,-0.677479,-36.1978
2023-03-11 22:39:18:431,-0.0251787,-0.655557,-9.72846,4.08804,-0.683248,-36.1878
2023-03-11 22:39:18:441,-0.0601512,-0.645578,-9.7735,4.09245,-0.692306,-36.1751
2023-03-11 22:39:18:451,-0.0934408,-0.648748,-9.80845,4.0971,-0.705889,-36.1591
2023-03-11 22:39:18:461,-0.159756,-0.63697,-9.81535,4.09943,-0.722624,-36.1401
2023-03-11 22:39:18:471,-0.214056,-0.624902,-9.80673,4.10443,-0.738475,-36.125
2023-03-11 22:39:18:481,-0.239905,-0.626634,-9.80143,4.11015,-0.753558,-36.109
2023-03-11 22:39:18:491,-0.25741,-0.630552,-9.76778,4.12104,-0.76787,-36.099
2023-03-11 22:39:18:501,-0.266403,-0.640373,-9.75198,4.13035,-0.782365,-36.0885
2023-03-11 22:39:18:511,-0.250594,-0.6354,-9.74219,4.13799,-0.792563,-36.0836
2023-03-11 22:39:18:521,-0.230462,-0.626329,-9.75235,4.14623,-0.803971,-36.0805
2023-03-11 22:39:18:531,-0.229025,-0.637399,-9.77406,4.15139,-0.815606,-36.0762
2023-03-11 22:39:18:541,-0.266767,-0.607367,-9.80692,4.15468,-0.823977,-36.0702
2023-03-11 22:39:18:551,-0.284981,-0.58097,-9.84436,4.1615,-0.829651,-36.0648
2023-03-11 22:39:18:561,-0.300593,-0.59381,-9.8559,4.17351,-0.832837,-36.0608
2023-03-11 22:39:18:571,-0.281786,-0.625924,-9.84141,4.19464,-0.827908,-36.0597
2023-03-11 22:39:18:581,-0.25548,-0.651227,-9.8075,4.22001,-0.820611,-36.0599
2023-03-11 22:39:18:591,-0.226146,-0.69026,-9.77725,4.24778,-0.815331,-36.062
2023-03-11 22:39:18:601,-0.190144,-0.730359,-9.74984,4.27511,-0.810146,-36.0627
2023-03-11 22:39:18:611,-0.19835,-0.742456,-9.7173,4.30259,-0.804094,-36.0632
2023-03-11 22:39:18:621,-0.218307,-0.754981,-9.71825,4.33092,-0.801139,-36.0655
2023-03-11 22:39:18:631,-0.22623,-0.773742,-9.72863,4.35737,-0.794255,-36.0742
2023-03-11 22:39:18:641,-0.213966,-0.787971,-9.7135,4.38353,-0.78839,-36.0878
2023-03-11 22:39:18:651,-0.167118,-0.795407,-9.70348,4.40423,-0.778377,-36.1056
2023-03-11 22:39:18:661,-0.118079,-0.808729,-9.72876,4.4263,-0.77168,-36.1227
2023-03-11 22:39:18:671,-0.110283,-0.81994,-9.73812,4.44701,-0.766248,-36.138
2023-03-11 22:39:18:681,-0.114676,-0.830983,-9.7553,4.47022,-0.760497,-36.153
2023-03-11 22:39:18:691,-0.118882,-0.820997,-9.74971,4.49265,-0.759364,-36.1649
2023-03-11 22:39:18:701,-0.129178,-0.811819,-9.76434,4.5117,-0.755558,-36.1778
2023-03-11 22:39:18:711,-0.0928895,-0.816235,-9.79862,4.53398,-0.749531,-36.1942
2023-03-11 22:39:18:721,-0.102733,-0.803862,-9.83623,4.55757,-0.742472,-36.2081
2023-03-11 22:39:18:731,-0.126397,-0.782678,-9.83204,4.58167,-0.733326,-36.2197
2023-03-11 22:39:18:741,-0.0972991,-0.776297,-9.80689,4.61044,-0.717479,-36.2285
2023-03-11 22:39:18:751,-0.0446522,-0.806629,-9.79292,4.64628,-0.70422,-36.2364
2023-03-11 22:39:18:761,-0.0513787,-0.846196,-9.75678,4.67968,-0.693969,-36.2408
2023-03-11 22:39:18:771,-0.0690602,-0.864413,-9.74791,4.70877,-0.686777,-36.2383
2023-03-11 22:39:18:781,-0.0587828,-0.847902,-9.76928,4.73654,-0.677106,-36.2415
2023-03-11 22:39:18:791,-0.0357908,-0.860008,-9.77059,4.76155,-0.668231,-36.2431
2023-03-11 22:39:18:801,-0.0788238,-0.872107,-9.72609,4.7872,-0.663125,-36.2394
2023-03-11 22:39:18:811,-0.134183,-0.864314,-9.66899,4.80828,-0.660448,-36.2417
2023-03-11 22:39:18:821,-0.138904,-0.871769,-9.6276,4.82942,-0.650644,-36.2473
2023-03-11 22:39:18:831,-0.0843432,-0.86719,-9.6083,4.84452,-0.637881,-36.2529
2023-03-11 22:39:18:841,-0.0192274,-0.867106,-9.60128,4.85574,-0.621545,-36.258
2023-03-11 22:39:18:851,0.0355971,-0.84162,-9.61627,4.86292,-0.609335,-36.2622
2023-03-11 22:39:18:861,0.10492,-0.827973,-9.63831,4.86554,-0.598607,-36.2636
2023-03-11 22:39:18:871,0.151971,-0.842567,-9.67233,4.86633,-0.590631,-36.2641
2023-03-11 22:39:18:881,0.14074,-0.84093,-9.68845,4.86559,-0.588355,-36.2483
2023-03-11 22:39:18:891,0.053501,-0.831915,-9.68881,4.86657,-0.592286,-36.2301
2023-03-11 22:39:18:901,0.000455873,-0.812802,-9.72292,4.8625,-0.600526,-36.2145
2023-03-11 22:39:18:911,-0.060776,-0.806664,-9.77595,4.85957,-0.617924,-36.1971
2023-03-11 22:39:18:921,-0.139867,-0.798764,-9.82792,4.85677,-0.632298,-36.1827
2023-03-11 22:39:18:931,-0.19478,-0.796451,-9.85731,4.85593,-0.64586,-36.1701
2023-03-11 22:39:18:941,-0.198934,-0.819491,-9.8509,4.85693,-0.65616,-36.1618
2023-03-11 22:39:18:951,-0.172614,-0.836958,-9.83023,4.86362,-0.664699,-36.1571
2023-03-11 22:39:18:961,-0.146745,-0.826005,-9.83542,4.86936,-0.673898,-36.1533
2023-03-11 22:39:18:971,-0.154861,-0.799217,-9.83336,4.87241,-0.680767,-36.1476
2023-03-11 22:39:18:981,-0.195046,-0.743939,-9.81553,4.88109,-0.685096,-36.1498
2023-03-11 22:39:18:991,-0.181145,-0.730321,-9.80787,4.89335,-0.687707,-36.1532
2023-03-11 22:39:19:1,-0.0760998,-0.746634,-9.798,4.90373,-0.685422,-36.1617
2023-03-11 22:39:19:11,-0.0216018,-0.761158,-9.78227,4.91403,-0.685745,-36.1684
2023-03-11 22:39:19:21,-0.0601176,-0.742124,-9.76493,4.9253,-0.691331,-36.1736
2023-03-11 22:39:19:31,-0.0857787,-0.738672,-9.76289,4.93556,-0.703305,-36.1807
2023-03-11 22:39:19:41,-0.0651434,-0.748534,-9.76427,4.94962,-0.716679,-36.1884
2023-03-11 22:39:19:51,-0.0111455,-0.773486,-9.75943,4.96522,-0.724657,-36.1947
2023-03-11 22:39:19:61,0.0187786,-0.793796,-9.75421,4.97869,-0.739479,-36.199
2023-03-11 22:39:19:71,0.00944713,-0.794685,-9.75508,4.99583,-0.758407,-36.1966
2023-03-11 22:39:19:81,-0.00402427,-0.80248,-9.75636,5.00665,-0.780302,-36.189
2023-03-11 22:39:19:90,-0.0438488,-0.799524,-9.75572,5.01938,-0.808534,-36.1762
2023-03-11 22:39:19:101,-0.0835634,-0.810264,-9.77359,5.03229,-0.836284,-36.162
2023-03-11 22:39:19:111,-0.108616,-0.800722,-9.78239,5.0461,-0.867403,-36.1417
2023-03-11 22:39:19:120,-0.163476,-0.774553,-9.81627,5.06454,-0.899596,-36.1219
2023-03-11 22:39:19:131,-0.237411,-0.768561,-9.82494,5.08526,-0.929979,-36.1001
2023-03-11 22:39:19:141,-0.276471,-0.787086,-9.78192,5.11145,-0.959987,-36.0785
2023-03-11 22:39:19:150,-0.299764,-0.82585,-9.73449,5.1386,-0.985114,-36.0548
2023-03-11 22:39:19:161,-0.313839,-0.861494,-9.68823,5.16518,-1.00576,-36.0352
2023-03-11 22:39:19:170,-0.309721,-0.892752,-9.6352,5.19544,-1.02332,-36.017
2023-03-11 22:39:19:181,-0.319165,-0.919876,-9.57605,5.2222,-1.03671,-35.9987
2023-03-11 22:39:19:191,-0.324665,-0.930719,-9.57821,5.24457,-1.04934,-35.9812
2023-03-11 22:39:19:201,-0.316043,-0.924257,-9.61412,5.2567,-1.05946,-35.9679
2023-03-11 22:39:19:211,-0.300858,-0.909426,-9.6361,5.26617,-1.06514,-35.9553
2023-03-11 22:39:19:221,-0.284934,-0.900567,-9.67284,5.27514,-1.06417,-35.9417
2023-03-11 22:39:19:231,-0.244813,-0.87903,-9.6995,5.27979,-1.05854,-35.9318
2023-03-11 22:39:19:241,-0.207724,-0.888705,-9.74991,5.28101,-1.05061,-35.9216
2023-03-11 22:39:19:251,-0.179769,-0.896894,-9.77345,5.2831,-1.03868,-35.9125
2023-03-11 22:39:19:261,-0.138784,-0.90456,-9.75098,5.28746,-1.02816,-35.8963
2023-03-11 22:39:19:271,-0.0966343,-0.93284,-9.72985,5.29029,-1.01917,-35.8762
2023-03-11 22:39:19:281,-0.0515865,-0.954096,-9.71367,5.29337,-1.00792,-35.8517
2023-03-11 22:39:19:291,-0.0110056,-0.974671,-9.67048,5.29844,-1.00137,-35.8195
2023-03-11 22:39:19:301,-0.0103441,-0.997066,-9.64302,5.30057,-0.997499,-35.7805
2023-03-11 22:39:19:311,-0.0211471,-0.993457,-9.62159,5.29694,-0.993148,-35.7356
2023-03-11 22:39:19:321,-0.00168719,-1.00652,-9.62212,5.28538,-0.991137,-35.6869
2023-03-11 22:39:19:331,0.00715579,-1.03301,-9.6681,5.27484,-0.98754,-35.627
2023-03-11 22:39:19:341,-0.0161064,-0.995143,-9.72607,5.25691,-0.981128,-35.5569
2023-03-11 22:39:19:351,-0.0315557,-0.968644,-9.78156,5.24007,-0.977144,-35.4831
2023-03-11 22:39:19:361,-0.0525664,-0.991672,-9.79315,5.22723,-0.973918,-35.3955
2023-03-11 22:39:19:371,-0.0485777,-1.01057,-9.78068,5.21567,-0.969597,-35.3081
2023-03-11 22:39:19:381,-0.105628,-0.995538,-9.77196,5.20355,-0.965321,-35.2173
2023-03-11 22:39:19:391,-0.154424,-0.969309,-9.74626,5.19245,-0.958047,-35.1262
2023-03-11 22:39:19:400,-0.145126,-0.989898,-9.73474,5.18136,-0.951378,-35.0354
2023-03-11 22:39:19:410,-0.151552,-0.989799,-9.70099,5.17053,-0.946455,-34.9466
2023-03-11 22:39:19:421,-0.16803,-0.962128,-9.70875,5.15156,-0.947695,-34.8602
2023-03-11 22:39:19:430,-0.143142,-0.91539,-9.75168,5.13165,-0.950368,-34.7776
2023-03-11 22:39:19:441,-0.119456,-0.903816,-9.77001,5.10931,-0.957746,-34.697
2023-03-11 22:39:19:450,-0.17027,-0.885011,-9.75067,5.0881,-0.972112,-34.6191
2023-03-11 22:39:19:461,-0.25929,-0.867538,-9.74634,5.07052,-0.988318,-34.5488
2023-03-11 22:39:19:471,-0.298984,-0.84517,-9.7436,5.05067,-1.00875,-34.484
2023-03-11 22:39:19:481,-0.309412,-0.826022,-9.72402,5.03149,-1.02363,-34.4243
2023-03-11 22:39:19:491,-0.283724,-0.823634,-9.71741,5.01282,-1.03714,-34.3698
2023-03-11 22:39:19:501,-0.288309,-0.811374,-9.70752,4.99242,-1.0553,-34.3223
2023-03-11 22:39:19:511,-0.309616,-0.783373,-9.70395,4.96879,-1.06955,-34.2805
2023-03-11 22:39:19:521,-0.33041,-0.769235,-9.709,4.94751,-1.08304,-34.2458
2023-03-11 22:39:19:531,-0.352851,-0.750771,-9.70488,4.92364,-1.09662,-34.2159
2023-03-11 22:39:19:541,-0.338859,-0.747056,-9.71251,4.89898,-1.10731,-34.1952
2023-03-11 22:39:19:551,-0.323213,-0.761847,-9.7083,4.87861,-1.12025,-34.1803
2023-03-11 22:39:19:561,-0.331773,-0.750767,-9.72619,4.8576,-1.13637,-34.1715
2023-03-11 22:39:19:571,-0.318999,-0.745066,-9.76718,4.83438,-1.14947,-34.1681
2023-03-11 22:39:19:581,-0.312137,-0.751576,-9.79059,4.81528,-1.16329,-34.1663
2023-03-11 22:39:19:591,-0.321702,-0.727539,-9.80214,4.79322,-1.17874,-34.1654
2023-03-11 22:39:19:601,-0.314955,-0.704799,-9.80613,4.76834,-1.19486,-34.1686
2023-03-11 22:39:19:611,-0.317015,-0.678389,-9.79083,4.74527,-1.211,-34.1772
2023-03-11 22:39:19:621,-0.360441,-0.673884,-9.78642,4.7207,-1.22901,-34.1865
2023-03-11 22:39:19:631,-0.397588,-0.694293,-9.76954,4.70208,-1.24716,-34.1946
2023-03-11 22:39:19:641,-0.405232,-0.659934,-9.78408,4.68206,-1.25903,-34.2106
2023-03-11 22:39:19:651,-0.37227,-0.624061,-9.84311,4.66111,-1.26533,-34.2339
2023-03-11 22:39:19:661,-0.325584,-0.620222,-9.86756,4.64507,-1.26992,-34.2589
2023-03-11 22:39:19:671,-0.35015,-0.623001,-9.84221,4.63208,-1.27349,-34.2843
2023-03-11 22:39:19:681,-0.362632,-0.630681,-9.81843,4.62724,-1.2769,-34.3088
2023-03-11 22:39:19:691,-0.342779,-0.650288,-9.8256,4.62326,-1.28036,-34.3381
2023-03-11 22:39:19:701,-0.310283,-0.677218,-9.83708,4.62669,-1.28071,-34.3699
2023-03-11 22:39:19:711,-0.261529,-0.695074,-9.8164,4.6317,-1.28194,-34.3998
2023-03-11 22:39:19:721,-0.264358,-0.715334,-9.80288,4.63738,-1.28324,-34.4234
2023-03-11 22:39:19:731,-0.306428,-0.719881,-9.79739,4.64452,-1.28484,-34.4503
2023-03-11 22:39:19:741,-0.334675,-0.724818,-9.78116,4.64784,-1.28709,-34.4827
2023-03-11 22:39:19:751,-0.335066,-0.732066,-9.77503,4.65643,-1.28949,-34.5172
2023-03-11 22:39:19:761,-0.338578,-0.737604,-9.76514,4.66593,-1.28493,-34.5538
2023-03-11 22:39:19:771,-0.294375,-0.752533,-9.74954,4.67638,-1.27606,-34.596
2023-03-11 22:39:19:781,-0.230494,-0.772714,-9.71935,4.69178,-1.26629,-34.6363
2023-03-11 22:39:19:791,-0.186326,-0.808164,-9.69253,4.70611,-1.25211,-34.6754
2023-03-11 22:39:19:801,-0.149963,-0.835476,-9.66023,4.72197,-1.23653,-34.7087
2023-03-11 22:39:19:811,-0.113835,-0.84366,-9.64239,4.7299,-1.22639,-34.7386
2023-03-11 22:39:19:821,-0.0907436,-0.856875,-9.64208,4.73599,-1.21687,-34.7631
2023-03-11 22:39:19:831,-0.0830991,-0.84912,-9.65591,4.73376,-1.2084,-34.7831
2023-03-11 22:39:19:841,-0.103523,-0.824788,-9.69055,4.72623,-1.19875,-34.7989
2023-03-11 22:39:19:851,-0.129855,-0.794513,-9.73401,4.71537,-1.19136,-34.8115
2023-03-11 22:39:19:861,-0.15463,-0.760731,-9.73952,4.70572,-1.18405,-34.8187
2023-03-11 22:39:19:871,-0.145474,-0.749134,-9.75347,4.69937,-1.1679,-34.826
2023-03-11 22:39:19:881,-0.140437,-0.738343,-9.74757,4.69003,-1.14982,-34.8247
2023-03-11 22:39:19:891,-0.157973,-0.717221,-9.75236,4.68175,-1.13198,-34.822
2023-03-11 22:39:19:901,-0.216734,-0.701978,-9.76847,4.67175,-1.11485,-34.8173
2023-03-11 22:39:19:911,-0.249864,-0.681827,-9.79395,4.66965,-1.09344,-34.8179
2023-03-11 22:39:19:921,-0.229897,-0.693174,-9.80026,4.66936,-1.06733,-34.8277
2023-03-11 22:39:19:931,-0.151491,-0.72162,-9.80394,4.67351,-1.03667,-34.8389
2023-03-11 22:39:19:941,-0.0559465,-0.76465,-9.78594,4.67461,-1.00989,-34.853
2023-03-11 22:39:19:951,0.0167851,-0.779185,-9.76236,4.67735,-0.986263,-34.8624
2023-03-11 22:39:19:961,0.0681272,-0.809215,-9.73971,4.67887,-0.969564,-34.8712
2023-03-11 22:39:19:971,0.103682,-0.842502,-9.73399,4.67609,-0.965662,-34.8775
2023-03-11 22:39:19:981,0.159904,-0.843609,-9.74553,4.6671,-0.967541,-34.8739
2023-03-11 22:39:19:991,0.137887,-0.820477,-9.81074,4.65211,-0.985645,-34.8588
2023-03-11 22:39:20:1,-0.0582575,-0.766365,-9.86221,4.63664,-1.01619,-34.8373
2023-03-11 22:39:20:11,-0.203208,-0.748468,-9.87214,4.62464,-1.05004,-34.8171
2023-03-11 22:39:20:21,-0.303091,-0.74752,-9.84781,4.62011,-1.0877,-34.8033
2023-03-11 22:39:20:31,-0.419217,-0.740768,-9.80761,4.61861,-1.12242,-34.7962
2023-03-11 22:39:20:41,-0.416442,-0.75385,-9.7476,4.6177,-1.15792,-34.8117
2023-03-11 22:39:20:51,-0.208732,-0.800402,-9.70433,4.61952,-1.19946,-34.8459
2023-03-11 22:39:20:61,-0.129296,-0.851291,-9.69581,4.6203,-1.25621,-34.8833
2023-03-11 22:39:20:71,-0.305229,-0.829931,-9.66073,4.62006,-1.32042,-34.9163
2023-03-11 22:39:20:81,-0.290968,-0.797017,-9.70714,4.61047,-1.38294,-34.9776
2023-03-11 22:39:20:91,-0.0752694,-0.825666,-9.76483,4.60434,-1.44583,-35.0377
2023-03-11 22:39:20:101,-0.12328,-0.794043,-9.72643,4.60028,-1.51693,-35.0847
2023-03-11 22:39:20:111,-0.269427,-0.767462,-9.66068,4.59555,-1.58634,-35.13
2023-03-11 22:39:20:121,-0.426767,-0.735839,-9.61595,4.59356,-1.65224,-35.1767
2023-03-11 22:39:20:131,-0.490966,-0.702817,-9.61301,4.58881,-1.70215,-35.231
2023-03-11 22:39:20:141,-0.42422,-0.717145,-9.59326,4.57965,-1.73282,-35.2867
2023-03-11 22:39:20:151,-0.367685,-0.754883,-9.61452,4.56976,-1.75582,-35.3393
2023-03-11 22:39:20:161,-0.382218,-0.723514,-9.68293,4.55345,-1.77251,-35.3867
2023-03-11 22:39:20:171,-0.397754,-0.667336,-9.75772,4.53472,-1.7877,-35.4422
2023-03-11 22:39:20:181,-0.349244,-0.68421,-9.8479,4.52171,-1.80009,-35.4998
2023-03-11 22:39:20:191,-0.329954,-0.696003,-9.8917,4.50821,-1.8116,-35.5555
2023-03-11 22:39:20:201,-0.343575,-0.682805,-9.88457,4.50096,-1.82808,-35.6132
2023-03-11 22:39:20:211,-0.360405,-0.672343,-9.86764,4.49798,-1.84583,-35.6767
2023-03-11 22:39:20:221,-0.314406,-0.680791,-9.85356,4.49709,-1.86861,-35.7419
2023-03-11 22:39:20:231,-0.334912,-0.703456,-9.83902,4.50029,-1.89926,-35.8025
2023-03-11 22:39:20:241,-0.379501,-0.7153,-9.85425,4.51047,-1.93432,-35.8627
2023-03-11 22:39:20:251,-0.439629,-0.720457,-9.84409,4.5214,-1.97137,-35.9238
2023-03-11 22:39:20:261,-0.462061,-0.754173,-9.82786,4.53111,-2.01452,-35.9858
2023-03-11 22:39:20:271,-0.502882,-0.769771,-9.83621,4.54143,-2.05837,-36.0448
2023-03-11 22:39:20:281,-0.589091,-0.732443,-9.82493,4.55302,-2.09906,-36.1077
2023-03-11 22:39:20:291,-0.666937,-0.724388,-9.78423,4.57159,-2.13411,-36.1735
2023-03-11 22:39:20:301,-0.650377,-0.743317,-9.72441,4.59319,-2.16434,-36.2428
2023-03-11 22:39:20:311,-0.536385,-0.781133,-9.67591,4.61572,-2.1823,-36.3117
2023-03-11 22:39:20:321,-0.458669,-0.821159,-9.65224,4.63768,-2.20369,-36.378
2023-03-11 22:39:20:331,-0.467675,-0.844375,-9.61617,4.65356,-2.22882,-36.4401
2023-03-11 22:39:20:341,-0.475785,-0.863642,-9.59854,4.66459,-2.25435,-36.5006
2023-03-11 22:39:20:351,-0.45933,-0.826661,-9.65846,4.66426,-2.28366,-36.5548
2023-03-11 22:39:20:361,-0.473097,-0.769445,-9.75461,4.65761,-2.31048,-36.6065
2023-03-11 22:39:20:371,-0.51108,-0.744191,-9.83477,4.64927,-2.34131,-36.6522
2023-03-11 22:39:20:381,-0.570369,-0.700196,-9.87527,4.64054,-2.37201,-36.6941
2023-03-11 22:39:20:391,-0.648648,-0.647103,-9.87838,4.63797,-2.39748,-36.7349
2023-03-11 22:39:20:401,-0.654642,-0.655762,-9.84727,4.64549,-2.41336,-36.7798
2023-03-11 22:39:20:411,-0.601916,-0.703665,-9.78338,4.65532,-2.42013,-36.8215
2023-03-11 22:39:20:421,-0.541904,-0.735446,-9.69806,4.66851,-2.42549,-36.8603
2023-03-11 22:39:20:431,-0.473351,-0.76482,-9.66447,4.67794,-2.42588,-36.8916
2023-03-11 22:39:20:441,-0.432042,-0.754836,-9.68175,4.68484,-2.42153,-36.9168
2023-03-11 22:39:20:451,-0.423377,-0.732762,-9.71011,4.69103,-2.42334,-36.934
2023-03-11 22:39:20:461,-0.466926,-0.704422,-9.71248,4.69726,-2.42178,-36.9464
2023-03-11 22:39:20:471,-0.509338,-0.688418,-9.7143,4.70492,-2.41602,-36.959
2023-03-11 22:39:20:481,-0.503275,-0.704516,-9.71218,4.71647,-2.4024,-36.968
2023-03-11 22:39:20:491,-0.487183,-0.710477,-9.71678,4.71977,-2.37825,-36.9781
2023-03-11 22:39:20:501,-0.472608,-0.707869,-9.72295,4.72446,-2.34846,-36.992
2023-03-11 22:39:20:511,-0.428552,-0.708523,-9.73704,4.72916,-2.31486,-37.0062
2023-03-11 22:39:20:521,-0.38816,-0.706549,-9.73325,4.7337,-2.27604,-37.0218
2023-03-11 22:39:20:531,-0.381035,-0.6723,-9.75176,4.7374,-2.23209,-37.0371
2023-03-11 22:39:20:541,-0.295029,-0.64694,-9.84668,4.74273,-2.18114,-37.0617
2023-03-11 22:39:20:551,-0.153941,-0.658436,-9.94159,4.75002,-2.13254,-37.0871
2023-03-11 22:39:20:561,-0.0630047,-0.655049,-9.98564,4.76415,-2.08712,-37.1116
2023-03-11 22:39:20:571,-0.0601448,-0.639025,-9.97658,4.77928,-2.04652,-37.1285
2023-03-11 22:39:20:581,-0.049055,-0.670549,-9.92801,4.79939,-2.01849,-37.1472
2023-03-11 22:39:20:591,-0.0317034,-0.691447,-9.89433,4.82732,-1.99695,-37.1605
2023-03-11 22:39:20:601,-0.0821418,-0.70429,-9.86232,4.85823,-1.98365,-37.1785
2023-03-11 22:39:20:611,-0.13891,-0.742211,-9.83825,4.89458,-1.97667,-37.1945
2023-03-11 22:39:20:621,-0.191658,-0.784505,-9.84044,4.92944,-1.9763,-37.2086
2023-03-11 22:39:20:631,-0.243436,-0.773224,-9.86138,4.96873,-1.9838,-37.2284
2023-03-11 22:39:20:641,-0.298103,-0.782835,-9.87764,5.01221,-1.99071,-37.2427
2023-03-11 22:39:20:651,-0.388325,-0.807033,-9.82965,5.06238,-2.00005,-37.2597
2023-03-11 22:39:20:661,-0.447092,-0.829521,-9.77975,5.11777,-2.00563,-37.2845
2023-03-11 22:39:20:671,-0.457591,-0.87086,-9.75452,5.17288,-2.00595,-37.3148
2023-03-11 22:39:20:681,-0.405836,-0.920874,-9.70409,5.23854,-2.00001,-37.3453
2023-03-11 22:39:20:691,-0.312005,-0.965607,-9.64754,5.30035,-1.98824,-37.379
2023-03-11 22:39:20:701,-0.327397,-1.02394,-9.58031,5.36051,-1.98319,-37.401
2023-03-11 22:39:20:711,-0.417666,-1.0381,-9.50836,5.41057,-1.97953,-37.4234
2023-03-11 22:39:20:721,-0.415837,-1.0603,-9.50794,5.45268,-1.97651,-37.4519
2023-03-11 22:39:20:731,-0.389325,-1.03485,-9.55696,5.48915,-1.96841,-37.4871
2023-03-11 22:39:20:741,-0.371572,-1.03119,-9.64433,5.52193,-1.95897,-37.5234
2023-03-11 22:39:20:751,-0.298435,-1.0072,-9.73967,5.54915,-1.94869,-37.5619
2023-03-11 22:39:20:761,-0.183321,-0.963361,-9.80934,5.57696,-1.94133,-37.6064
2023-03-11 22:39:20:771,-0.125466,-0.970643,-9.81096,5.60861,-1.94079,-37.6449
2023-03-11 22:39:20:781,-0.169496,-1.01253,-9.72021,5.64415,-1.95201,-37.6757
2023-03-11 22:39:20:791,-0.274375,-1.02133,-9.61958,5.67393,-1.96956,-37.7074
2023-03-11 22:39:20:801,-0.286117,-1.02026,-9.56322,5.68842,-1.98645,-37.7423
2023-03-11 22:39:20:811,-0.273702,-1.01167,-9.55171,5.70017,-2.00461,-37.7738
2023-03-11 22:39:20:821,-0.262834,-1.00915,-9.5481,5.70219,-2.02405,-37.8016
2023-03-11 22:39:20:831,-0.303084,-0.955738,-9.57416,5.69821,-2.04498,-37.8272
2023-03-11 22:39:20:841,-0.343373,-0.890268,-9.63769,5.69048,-2.06581,-37.8517
2023-03-11 22:39:20:851,-0.389358,-0.885777,-9.69688,5.68728,-2.0836,-37.877
2023-03-11 22:39:20:861,-0.394474,-0.878249,-9.70832,5.68182,-2.10072,-37.9027
2023-03-11 22:39:20:871,-0.376563,-0.907897,-9.75875,5.67879,-2.11314,-37.9239
2023-03-11 22:39:20:881,-0.41517,-0.900115,-9.80773,5.67691,-2.13034,-37.9515
2023-03-11 22:39:20:891,-0.441851,-0.901407,-9.82797,5.68501,-2.14526,-37.983
2023-03-11 22:39:20:901,-0.402679,-0.959042,-9.7777,5.69759,-2.1593,-38.0179
2023-03-11 22:39:20:911,-0.402737,-1.01231,-9.71015,5.71216,-2.17645,-38.0525
2023-03-11 22:39:20:921,-0.476423,-1.02049,-9.67501,5.71978,-2.19411,-38.0885
2023-03-11 22:39:20:931,-0.497987,-1.02528,-9.68166,5.72468,-2.20605,-38.1329
2023-03-11 22:39:20:941,-0.45608,-1.01399,-9.73702,5.72637,-2.21341,-38.1855
2023-03-11 22:39:20:951,-0.41986,-1.0065,-9.79237,5.72887,-2.21718,-38.2397
2023-03-11 22:39:20:961,-0.400422,-1.02458,-9.78918,5.73438,-2.21656,-38.2955
2023-03-11 22:39:20:971,-0.423223,-0.987446,-9.78491,5.73555,-2.21472,-38.3529
2023-03-11 22:39:20:981,-0.434232,-0.944455,-9.80239,5.74013,-2.21494,-38.4223
2023-03-11 22:39:20:991,-0.412466,-0.93447,-9.80876,5.74496,-2.20908,-38.4983
2023-03-11 22:39:21:1,-0.337586,-0.925311,-9.78954,5.7493,-2.20193,-38.5787
2023-03-11 22:39:21:11,-0.273648,-0.950575,-9.72248,5.75738,-2.19889,-38.6613
2023-03-11 22:39:21:21,-0.243458,-1.00906,-9.64719,5.7659,-2.20776,-38.7469
2023-03-11 22:39:21:31,-0.283843,-0.997855,-9.61573,5.76792,-2.22144,-38.8315
2023-03-11 22:39:21:41,-0.361751,-0.939644,-9.66156,5.76847,-2.24285,-38.9239
2023-03-11 22:39:21:51,-0.397623,-0.918624,-9.6991,5.76596,-2.26351,-39.0265
2023-03-11 22:39:21:61,-0.404561,-0.947781,-9.72656,5.76216,-2.28644,-39.1266
2023-03-11 22:39:21:71,-0.444094,-0.916641,-9.7612,5.76134,-2.31575,-39.2324
2023-03-11 22:39:21:81,-0.496058,-0.908447,-9.76647,5.7591,-2.34331,-39.3395
2023-03-11 22:39:21:91,-0.541583,-0.902918,-9.79547,5.75398,-2.37732,-39.4503
2023-03-11 22:39:21:101,-0.571309,-0.860562,-9.83141,5.75709,-2.4089,-39.5687
2023-03-11 22:39:21:111,-0.598788,-0.843843,-9.82439,5.76685,-2.43524,-39.6854
2023-03-11 22:39:21:121,-0.663617,-0.864839,-9.79918,5.78178,-2.45559,-39.8105
2023-03-11 22:39:21:131,-0.659741,-0.890723,-9.80801,5.80517,-2.46819,-39.9406
2023-03-11 22:39:21:141,-0.614605,-0.910851,-9.79045,5.82914,-2.4775,-40.0743
2023-03-11 22:39:21:151,-0.595338,-0.947075,-9.73853,5.85959,-2.48334,-40.2104
2023-03-11 22:39:21:161,-0.606525,-0.979821,-9.70084,5.88791,-2.48547,-40.3456
2023-03-11 22:39:21:171,-0.576712,-1.00445,-9.72537,5.91401,-2.48255,-40.4795
2023-03-11 22:39:21:181,-0.546579,-1.00882,-9.73273,5.9404,-2.4756,-40.6173
2023-03-11 22:39:21:191,-0.55114,-1.00404,-9.73627,5.965,-2.46619,-40.7535
2023-03-11 22:39:21:201,-0.531033,-1.0009,-9.75622,5.98865,-2.45076,-40.8944
2023-03-11 22:39:21:211,-0.503302,-1.00937,-9.75403,6.01268,-2.42964,-41.038
2023-03-11 22:39:21:221,-0.474939,-1.02946,-9.73085,6.03722,-2.40726,-41.1797
2023-03-11 22:39:21:231,-0.441486,-1.05726,-9.69998,6.06215,-2.38053,-41.3185
2023-03-11 22:39:21:241,-0.387562,-1.07317,-9.68724,6.08985,-2.35013,-41.4544
2023-03-11 22:39:21:251,-0.319079,-1.07171,-9.65744,6.11311,-2.32174,-41.5882
2023-03-11 22:39:21:261,-0.284055,-1.1002,-9.62244,6.13889,-2.29324,-41.7182
2023-03-11 22:39:21:271,-0.270586,-1.12265,-9.57077,6.15869,-2.26759,-41.8384
2023-03-11 22:39:21:281,-0.248852,-1.10868,-9.62179,6.1707,-2.24113,-41.9547
2023-03-11 22:39:21:291,-0.190719,-1.08059,-9.69818,6.18122,-2.21542,-42.0706
2023-03-11 22:39:21:301,-0.158341,-1.07072,-9.77157,6.19231,-2.19102,-42.1742
2023-03-11 22:39:21:311,-0.160217,-1.06253,-9.80064,6.20471,-2.17215,-42.2769
2023-03-11 22:39:21:321,-0.189508,-1.0562,-9.80914,6.2184,-2.15786,-42.3742
2023-03-11 22:39:21:331,-0.202861,-1.05774,-9.83203,6.23506,-2.14782,-42.4676
2023-03-11 22:39:21:341,-0.186337,-1.05569,-9.85827,6.25682,-2.14075,-42.5586
2023-03-11 22:39:21:351,-0.153197,-1.06165,-9.86313,6.28253,-2.13058,-42.643
2023-03-11 22:39:21:361,-0.143936,-1.08631,-9.83835,6.31269,-2.1249,-42.7212
2023-03-11 22:39:21:371,-0.159838,-1.10259,-9.7972,6.34181,-2.12255,-42.7924
2023-03-11 22:39:21:381,-0.136212,-1.09848,-9.77466,6.37226,-2.11741,-42.8546
2023-03-11 22:39:21:391,-0.103413,-1.09857,-9.8095,6.40593,-2.10949,-42.9084
2023-03-11 22:39:21:401,-0.0939373,-1.09713,-9.82056,6.43965,-2.10904,-42.9525
2023-03-11 22:39:21:411,-0.108944,-1.11637,-9.78833,6.47296,-2.11268,-42.9893
2023-03-11 22:39:21:421,-0.110791,-1.11013,-9.72772,6.50795,-2.12045,-43.0195
2023-03-11 22:39:21:431,-0.100851,-1.12635,-9.68026,6.54318,-2.13542,-43.0425
2023-03-11 22:39:21:441,-0.163233,-1.18689,-9.56456,6.57623,-2.16168,-43.0552
2023-03-11 22:39:21:451,-0.307815,-1.21568,-9.45335,6.60498,-2.18941,-43.0637
2023-03-11 22:39:21:461,-0.423257,-1.22745,-9.43455,6.62398,-2.21831,-43.0703
2023-03-11 22:39:21:471,-0.509293,-1.19762,-9.43949,6.62696,-2.23667,-43.0836
2023-03-11 22:39:21:481,-0.468771,-1.21151,-9.46484,6.62261,-2.24596,-43.1067
2023-03-11 22:39:21:491,-0.330214,-1.24737,-9.49638,6.60902,-2.24993,-43.1235
2023-03-11 22:39:21:501,-0.263349,-1.20523,-9.56659,6.58777,-2.25131,-43.1298
2023-03-11 22:39:21:511,-0.263746,-1.12846,-9.64293,6.56149,-2.25962,-43.1413
2023-03-11 22:39:21:521,-0.286752,-1.09629,-9.64886,6.53726,-2.26861,-43.1507
2023-03-11 22:39:21:531,-0.316002,-1.121,-9.56768,6.51419,-2.2791,-43.156
2023-03-11 22:39:21:541,-0.328405,-1.14899,-9.4951,6.49015,-2.28336,-43.1623
2023-03-11 22:39:21:551,-0.281884,-1.19903,-9.47853,6.45906,-2.28519,-43.1674
2023-03-11 22:39:21:561,-0.226759,-1.20472,-9.53369,6.42195,-2.28927,-43.1637
2023-03-11 22:39:21:571,-0.181774,-1.13643,-9.54888,6.37394,-2.2975,-43.1592
2023-03-11 22:39:21:581,-0.149802,-1.15869,-9.48523,6.31863,-2.30873,-43.1466
2023-03-11 22:39:21:591,-0.237845,-1.12875,-9.42319,6.24412,-2.33255,-43.1243
2023-03-11 22:39:21:601,-0.339479,-1.02468,-9.55128,6.14682,-2.35811,-43.1078
2023-03-11 22:39:21:611,-0.37912,-0.855292,-9.9432,6.04115,-2.38662,-43.0881
2023-03-11 22:39:21:621,-0.409476,-0.680118,-10.4791,5.94864,-2.41288,-43.0726
2023-03-11 22:39:21:631,-0.499339,-0.463023,-10.7696,5.89027,-2.43878,-43.058
2023-03-11 22:39:21:641,-0.525316,-0.502617,-10.5079,5.8838,-2.45233,-43.051
2023-03-11 22:39:21:651,-0.446152,-0.88777,-9.98655,5.91614,-2.4588,-43.0355
2023-03-11 22:39:21:661,-0.43213,-1.06878,-9.66515,5.94592,-2.47303,-43.0077
2023-03-11 22:39:21:671,-0.458564,-1.13262,-9.5739,5.9662,-2.49349,-42.9779
2023-03-11 22:39:21:681,-0.547365,-1.12946,-9.60586,5.98173,-2.52261,-42.9505
2023-03-11 22:39:21:691,-0.711578,-1.06685,-9.6379,5.98871,-2.55118,-42.9295
2023-03-11 22:39:21:701,-0.7835,-0.98654,-9.6158,5.98958,-2.57432,-42.9262
2023-03-11 22:39:21:711,-0.782123,-0.988638,-9.63804,5.98639,-2.59255,-42.9335
2023-03-11 22:39:21:721,-0.759118,-0.929206,-9.71884,5.98376,-2.60436,-42.9471
2023-03-11 22:39:21:731,-0.722941,-0.885041,-9.81561,5.98256,-2.61207,-42.9663
2023-03-11 22:39:21:741,-0.773088,-0.842374,-9.88306,5.98728,-2.62029,-42.9935
2023-03-11 22:39:21:751,-0.862534,-0.840008,-9.88287,6.00275,-2.62408,-43.0317
2023-03-11 22:39:21:761,-0.84077,-0.878789,-9.77797,6.02993,-2.61957,-43.0879
2023-03-11 22:39:21:771,-0.66926,-0.995405,-9.61816,6.06412,-2.59956,-43.1557
2023-03-11 22:39:21:781,-0.505824,-1.08812,-9.48761,6.09661,-2.58058,-43.2169
2023-03-11 22:39:21:791,-0.405972,-1.1593,-9.38815,6.12,-2.56558,-43.2729
2023-03-11 22:39:21:801,-0.380639,-1.16647,-9.38415,6.1273,-2.55848,-43.3194
2023-03-11 22:39:21:811,-0.384246,-1.09832,-9.45564,6.11633,-2.55439,-43.3678
2023-03-11 22:39:21:821,-0.387722,-1.01579,-9.57409,6.09535,-2.55053,-43.4132
2023-03-11 22:39:21:831,-0.454747,-0.963304,-9.68825,6.07701,-2.54715,-43.4532
2023-03-11 22:39:21:841,-0.514214,-0.929429,-9.76164,6.06193,-2.53743,-43.4987
2023-03-11 22:39:21:851,-0.429282,-0.962624,-9.75717,6.05157,-2.52094,-43.5485
2023-03-11 22:39:21:861,-0.268488,-1.03657,-9.71789,6.041,-2.50612,-43.5836
2023-03-11 22:39:21:871,-0.215876,-1.07798,-9.66411,6.02853,-2.49651,-43.6
2023-03-11 22:39:21:881,-0.260065,-1.0688,-9.6055,6.00992,-2.48987,-43.6076
2023-03-11 22:39:21:891,-0.288553,-1.04722,-9.59055,5.98155,-2.48211,-43.6111
2023-03-11 22:39:21:901,-0.285188,-1.01964,-9.60176,5.94942,-2.47399,-43.6048
2023-03-11 22:39:21:911,-0.344872,-0.967244,-9.62348,5.91187,-2.46959,-43.5848
2023-03-11 22:39:21:921,-0.414654,-0.879252,-9.67593,5.86425,-2.45776,-43.5638
2023-03-11 22:39:21:931,-0.352881,-0.827941,-9.74128,5.82393,-2.44147,-43.5435
2023-03-11 22:39:21:941,-0.176919,-0.851511,-9.7305,5.78332,-2.4234,-43.514
2023-03-11 22:39:21:951,-0.0986287,-0.886429,-9.6783,5.74131,-2.41284,-43.4628
2023-03-11 22:39:21:961,-0.172379,-0.869908,-9.65278,5.69367,-2.4117,-43.3992
2023-03-11 22:39:21:971,-0.339159,-0.811684,-9.67738,5.63993,-2.42097,-43.3311
2023-03-11 22:39:21:981,-0.47029,-0.763483,-9.7395,5.58403,-2.42589,-43.2671
2023-03-11 22:39:21:991,-0.516019,-0.735343,-9.78875,5.53577,-2.43278,-43.2064
2023-03-11 22:39:22:1,-0.586048,-0.726094,-9.84293,5.48872,-2.44095,-43.1476
2023-03-11 22:39:22:11,-0.665007,-0.711533,-9.90459,5.44994,-2.44146,-43.0962
2023-03-11 22:39:22:21,-0.68521,-0.69917,-9.97326,5.42164,-2.43654,-43.0587
2023-03-11 22:39:22:31,-0.631645,-0.713603,-10.0185,5.39955,-2.42289,-43.0328
2023-03-11 22:39:22:41,-0.545534,-0.753933,-10.0341,5.3872,-2.41612,-43.0194
2023-03-11 22:39:22:51,-0.541375,-0.784184,-9.97595,5.39309,-2.40968,-43.0041
2023-03-11 22:39:22:61,-0.623307,-0.795771,-9.88318,5.40745,-2.40678,-43.001
2023-03-11 22:39:22:71,-0.632644,-0.839413,-9.84536,5.42886,-2.39876,-43.0163
2023-03-11 22:39:22:81,-0.542054,-0.892739,-9.84215,5.45599,-2.38696,-43.0498
2023-03-11 22:39:22:91,-0.43014,-0.966374,-9.82217,5.48446,-2.37972,-43.0934
2023-03-11 22:39:22:101,-0.364825,-1.00828,-9.81274,5.51087,-2.37726,-43.1385
2023-03-11 22:39:22:111,-0.327724,-1.01655,-9.80626,5.53457,-2.37779,-43.1958
2023-03-11 22:39:22:121,-0.289171,-1.03022,-9.81334,5.5594,-2.38747,-43.2537
2023-03-11 22:39:22:131,-0.216965,-1.05254,-9.79101,5.58652,-2.40026,-43.3116
2023-03-11 22:39:22:141,-0.177492,-1.09052,-9.75885,5.61107,-2.42067,-43.3646
2023-03-11 22:39:22:151,-0.198159,-1.08656,-9.73333,5.63467,-2.44682,-43.4083
2023-03-11 22:39:22:161,-0.251744,-1.06313,-9.72819,5.65489,-2.4773,-43.449
2023-03-11 22:39:22:171,-0.302509,-1.03526,-9.71766,5.67193,-2.51007,-43.4861
2023-03-11 22:39:22:181,-0.29204,-1.04789,-9.69262,5.68916,-2.53903,-43.5133
2023-03-11 22:39:22:191,-0.296999,-1.03956,-9.69351,5.70707,-2.56475,-43.5299
2023-03-11 22:39:22:201,-0.321672,-1.01994,-9.69586,5.72707,-2.58462,-43.537
2023-03-11 22:39:22:211,-0.353554,-1.00982,-9.68057,5.74779,-2.60167,-43.5337
2023-03-11 22:39:22:221,-0.352372,-1.03031,-9.63568,5.77094,-2.61416,-43.5242
2023-03-11 22:39:22:231,-0.361254,-1.04898,-9.60198,5.79429,-2.62592,-43.5044
2023-03-11 22:39:22:241,-0.371649,-1.07528,-9.56133,5.81552,-2.63653,-43.4774
2023-03-11 22:39:22:251,-0.412719,-1.11777,-9.52757,5.83222,-2.65209,-43.4466
2023-03-11 22:39:22:261,-0.4293,-1.13416,-9.51092,5.83757,-2.6685,-43.4132
2023-03-11 22:39:22:271,-0.451589,-1.10919,-9.54611,5.8327,-2.68181,-43.3745
2023-03-11 22:39:22:281,-0.480392,-1.08318,-9.61273,5.81975,-2.69506,-43.3386
2023-03-11 22:39:22:291,-0.503569,-1.04275,-9.69037,5.79939,-2.70937,-43.2969
2023-03-11 22:39:22:301,-0.570883,-0.97102,-9.78254,5.77334,-2.71889,-43.2564
2023-03-11 22:39:22:311,-0.621091,-0.90997,-9.83231,5.74738,-2.72523,-43.2183
2023-03-11 22:39:22:321,-0.628341,-0.890382,-9.84945,5.72826,-2.72746,-43.1894
2023-03-11 22:39:22:331,-0.58161,-0.880112,-9.84041,5.72209,-2.7278,-43.168
2023-03-11 22:39:22:341,-0.501511,-0.888633,-9.83771,5.71291,-2.72544,-43.1494
2023-03-11 22:39:22:351,-0.472573,-0.898311,-9.83653,5.70942,-2.72777,-43.1301
2023-03-11 22:39:22:361,-0.50565,-0.905846,-9.8243,5.70818,-2.73717,-43.1088
2023-03-11 22:39:22:371,-0.563814,-0.907985,-9.81759,5.70906,-2.7474,-43.095
2023-03-11 22:39:22:381,-0.598012,-0.907045,-9.80831,5.71492,-2.76123,-43.0888
2023-03-11 22:39:22:391,-0.626224,-0.909382,-9.81856,5.72365,-2.77398,-43.0873
2023-03-11 22:39:22:401,-0.632466,-0.906208,-9.82256,5.73314,-2.78084,-43.0923
2023-03-11 22:39:22:411,-0.622436,-0.926459,-9.79838,5.74592,-2.78753,-43.1023
2023-03-11 22:39:22:421,-0.622464,-0.937209,-9.76766,5.76732,-2.79225,-43.1177
2023-03-11 22:39:22:431,-0.61015,-0.946531,-9.71961,5.78951,-2.79198,-43.1407
2023-03-11 22:39:22:441,-0.59219,-0.966059,-9.634,5.81508,-2.78648,-43.1643
2023-03-11 22:39:22:451,-0.555665,-1.01036,-9.53881,5.8401,-2.77731,-43.1905
2023-03-11 22:39:22:461,-0.469054,-1.05572,-9.47894,5.8569,-2.76348,-43.2165
2023-03-11 22:39:22:471,-0.377863,-1.05575,-9.43704,5.8637,-2.74836,-43.2351
2023-03-11 22:39:22:481,-0.340307,-1.03565,-9.42033,5.86227,-2.73423,-43.2434
2023-03-11 22:39:22:491,-0.389648,-0.996032,-9.4472,5.84814,-2.7205,-43.2499
2023-03-11 22:39:22:501,-0.421011,-0.94114,-9.52092,5.82131,-2.70568,-43.2543
2023-03-11 22:39:22:511,-0.431871,-0.874396,-9.62908,5.78663,-2.69466,-43.2585
2023-03-11 22:39:22:521,-0.536975,-0.777679,-9.76359,5.74764,-2.69114,-43.2627
2023-03-11 22:39:22:531,-0.74196,-0.701563,-9.87155,5.71301,-2.69568,-43.2786
2023-03-11 22:39:22:541,-0.912754,-0.661531,-9.91022,5.68988,-2.70398,-43.3241
2023-03-11 22:39:22:551,-0.97961,-0.646758,-9.94458,5.67018,-2.70852,-43.4053
2023-03-11 22:39:22:561,-0.981473,-0.642506,-9.96495,5.66101,-2.71144,-43.5103
2023-03-11 22:39:22:571,-0.950739,-0.656347,-9.93185,5.66821,-2.71034,-43.6492
2023-03-11 22:39:22:581,-0.834345,-0.726747,-9.86754,5.68822,-2.70561,-43.8113
2023-03-11 22:39:22:591,-0.651868,-0.804586,-9.82555,5.71518,-2.7004,-43.9917
2023-03-11 22:39:22:601,-0.428554,-0.881791,-9.7973,5.7435,-2.6946,-44.1761
2023-03-11 22:39:22:611,-0.269666,-0.941762,-9.77594,5.77116,-2.69648,-44.3613
2023-03-11 22:39:22:621,-0.151563,-0.992,-9.75833,5.79781,-2.71136,-44.5386
2023-03-11 22:39:22:631,-0.103864,-1.01214,-9.74217,5.81858,-2.73637,-44.7055
2023-03-11 22:39:22:641,-0.148666,-1.01239,-9.70973,5.83501,-2.77405,-44.8619
2023-03-11 22:39:22:651,-0.254663,-1.00516,-9.68107,5.85358,-2.81845,-45.0041
2023-03-11 22:39:22:661,-0.37304,-1.00776,-9.6485,5.87211,-2.85483,-45.1385
2023-03-11 22:39:22:671,-0.444657,-1.00768,-9.65448,5.89083,-2.88351,-45.2682
2023-03-11 22:39:22:681,-0.424502,-1.03239,-9.65693,5.91004,-2.89535,-45.3876
2023-03-11 22:39:22:691,-0.351105,-1.08224,-9.64973,5.93258,-2.88972,-45.4886
2023-03-11 22:39:22:701,-0.309722,-1.12936,-9.61811,5.94918,-2.87356,-45.5703
2023-03-11 22:39:22:711,-0.264334,-1.1461,-9.63911,5.95967,-2.84342,-45.6338
2023-03-11 22:39:22:721,-0.242361,-1.13915,-9.67517,5.96799,-2.80255,-45.6763
2023-03-11 22:39:22:731,-0.280492,-1.09403,-9.73667,5.96896,-2.75469,-45.6959
2023-03-11 22:39:22:741,-0.309864,-1.03922,-9.79085,5.96966,-2.69769,-45.7052
2023-03-11 22:39:22:751,-0.327684,-1.005,-9.81162,5.97407,-2.63888,-45.7115
2023-03-11 22:39:22:761,-0.344615,-1.02496,-9.77887,5.9808,-2.57262,-45.7107
2023-03-11 22:39:22:771,-0.351108,-1.03042,-9.74875,5.99114,-2.50765,-45.7042
2023-03-11 22:39:22:781,-0.333611,-1.0347,-9.7236,6.00693,-2.43957,-45.6993
2023-03-11 22:39:22:791,-0.279926,-1.06674,-9.71215,6.02528,-2.37463,-45.692
2023-03-11 22:39:22:801,-0.246828,-1.09856,-9.7125,6.03979,-2.31583,-45.6841
2023-03-11 22:39:22:811,-0.225946,-1.08937,-9.70773,6.05126,-2.26591,-45.6779
2023-03-11 22:39:22:821,-0.165717,-1.05621,-9.72524,6.05927,-2.22485,-45.6717
2023-03-11 22:39:22:831,-0.0767647,-1.05578,-9.76862,6.06651,-2.20044,-45.6687
2023-03-11 22:39:22:841,-0.030392,-1.07533,-9.78945,6.07466,-2.19453,-45.6558
2023-03-11 22:39:22:851,-0.0772702,-1.08114,-9.77173,6.0888,-2.2061,-45.6364
2023-03-11 22:39:22:861,-0.168124,-1.08259,-9.74691,6.09503,-2.22979,-45.6182
2023-03-11 22:39:22:871,-0.235987,-1.09695,-9.72365,6.10337,-2.26304,-45.5994
2023-03-11 22:39:22:881,-0.259306,-1.13638,-9.65853,6.10796,-2.30229,-45.5772
2023-03-11 22:39:22:891,-0.296208,-1.15622,-9.63987,6.10751,-2.34523,-45.5491
2023-03-11 22:39:22:901,-0.308308,-1.10419,-9.73292,6.09927,-2.39167,-45.5142
2023-03-11 22:39:22:911,-0.342506,-1.02238,-9.8298,6.0941,-2.44286,-45.4682
2023-03-11 22:39:22:921,-0.448615,-0.982696,-9.85429,6.09453,-2.49575,-45.4153
2023-03-11 22:39:22:931,-0.529579,-1.00057,-9.74534,6.10869,-2.54422,-45.3625
2023-03-11 22:39:22:941,-0.565441,-1.10322,-9.6232,6.12292,-2.58661,-45.2984
2023-03-11 22:39:22:951,-0.595844,-1.11267,-9.62073,6.12955,-2.62052,-45.2278
2023-03-11 22:39:22:961,-0.604889,-1.06506,-9.68394,6.13218,-2.64745,-45.1552
2023-03-11 22:39:22:971,-0.63612,-1.05778,-9.71464,6.13529,-2.67118,-45.0795
2023-03-11 22:39:22:981,-0.63809,-1.05645,-9.7186,6.13905,-2.6878,-45.0072
2023-03-11 22:39:22:991,-0.5985,-1.04496,-9.71713,6.13972,-2.69861,-44.9362
2023-03-11 22:39:23:1,-0.589767,-1.04314,-9.73159,6.14393,-2.7073,-44.8626
2023-03-11 22:39:23:11,-0.656907,-1.05307,-9.73701,6.1487,-2.71393,-44.7866
2023-03-11 22:39:23:21,-0.707543,-1.03466,-9.70671,6.15214,-2.71615,-44.7185
2023-03-11 22:39:23:31,-0.70536,-1.02293,-9.6727,6.1565,-2.71142,-44.6578
2023-03-11 22:39:23:41,-0.661236,-1.02352,-9.69938,6.16195,-2.70148,-44.6105
2023-03-11 22:39:23:51,-0.630281,-0.999823,-9.75711,6.16702,-2.68881,-44.5673
2023-03-11 22:39:23:61,-0.650255,-0.964061,-9.79652,6.17694,-2.67357,-44.5292
2023-03-11 22:39:23:71,-0.680843,-0.929646,-9.82316,6.19354,-2.65596,-44.503
2023-03-11 22:39:23:81,-0.693674,-0.921562,-9.8449,6.20982,-2.63343,-44.4877
2023-03-11 22:39:23:91,-0.685816,-0.903665,-9.83265,6.23571,-2.60898,-44.4836
2023-03-11 22:39:23:101,-0.683955,-0.920993,-9.82358,6.27054,-2.5758,-44.4849
2023-03-11 22:39:23:111,-0.715216,-0.941767,-9.7717,6.30882,-2.53934,-44.4956
2023-03-11 22:39:23:121,-0.726465,-0.960535,-9.69974,6.34968,-2.49815,-44.5203
2023-03-11 22:39:23:131,-0.647886,-0.971196,-9.6312,6.39112,-2.44779,-44.5541
2023-03-11 22:39:23:141,-0.546605,-1.02682,-9.52144,6.43246,-2.39196,-44.5954
2023-03-11 22:39:23:151,-0.450298,-1.08526,-9.41268,6.46449,-2.33283,-44.6416
2023-03-11 22:39:23:161,-0.357112,-1.10736,-9.43505,6.48353,-2.2761,-44.6917
2023-03-11 22:39:23:171,-0.305071,-1.06014,-9.61388,6.49121,-2.22527,-44.7441
2023-03-11 22:39:23:181,-0.31355,-0.95348,-9.88895,6.49137,-2.18167,-44.8009
2023-03-11 22:39:23:191,-0.348227,-0.802082,-10.0369,6.49619,-2.14749,-44.8703
2023-03-11 22:39:23:201,-0.298009,-0.886692,-9.95048,6.52028,-2.11156,-44.9476
2023-03-11 22:39:23:211,-0.219769,-1.05455,-9.76631,6.55575,-2.06928,-45.0155
2023-03-11 22:39:23:221,-0.1546,-1.08077,-9.73002,6.59088,-2.03028,-45.0832
2023-03-11 22:39:23:230,-0.0834349,-1.03842,-9.77277,6.62421,-1.99115,-45.1455
2023-03-11 22:39:23:241,-0.0240602,-1.06507,-9.74882,6.65964,-1.96026,-45.2025
2023-03-11 22:39:23:251,-0.0035716,-1.11894,-9.67655,6.69445,-1.93715,-45.2491
2023-03-11 22:39:23:261,0.00610271,-1.14641,-9.65305,6.72613,-1.9168,-45.2818
2023-03-11 22:39:23:271,-0.00568661,-1.15864,-9.65879,6.75467,-1.9007,-45.3123
2023-03-11 22:39:23:281,-0.0188946,-1.16763,-9.67979,6.78071,-1.89491,-45.3303
2023-03-11 22:39:23:291,-0.0580988,-1.15011,-9.69269,6.80531,-1.89622,-45.3415
2023-03-11 22:39:23:301,-0.0471155,-1.15635,-9.68085,6.83067,-1.89681,-45.3545
2023-03-11 22:39:23:311,-0.0484967,-1.18546,-9.64076,6.85102,-1.90317,-45.3566
2023-03-11 22:39:23:321,-0.0753732,-1.21403,-9.60162,6.86716,-1.92067,-45.3552
2023-03-11 22:39:23:331,-0.0939015,-1.22814,-9.58521,6.87966,-1.9463,-45.3461
2023-03-11 22:39:23:341,-0.179704,-1.20937,-9.58958,6.88244,-1.9825,-45.3368
2023-03-11 22:39:23:351,-0.222467,-1.18671,-9.62196,6.88073,-2.0206,-45.3291
2023-03-11 22:39:23:361,-0.237347,-1.18003,-9.63791,6.87692,-2.06,-45.321
2023-03-11 22:39:23:371,-0.254275,-1.19669,-9.62393,6.87213,-2.10683,-45.3106
2023-03-11 22:39:23:381,-0.232948,-1.21287,-9.59291,6.86395,-2.16023,-45.2895
2023-03-11 22:39:23:391,-0.267868,-1.22781,-9.56325,6.85128,-2.21996,-45.2605
2023-03-11 22:39:23:401,-0.308302,-1.22564,-9.58085,6.83078,-2.28044,-45.224
2023-03-11 22:39:23:411,-0.358917,-1.21428,-9.65399,6.80403,-2.34105,-45.1792
2023-03-11 22:39:23:421,-0.398782,-1.21075,-9.70204,6.77302,-2.40033,-45.1283
2023-03-11 22:39:23:431,-0.437513,-1.20702,-9.7161,6.74421,-2.45994,-45.0727
2023-03-11 22:39:23:441,-0.473397,-1.1869,-9.74448,6.70883,-2.51848,-45.0163
2023-03-11 22:39:23:451,-0.512624,-1.16503,-9.75546,6.67533,-2.57446,-44.9554
2023-03-11 22:39:23:461,-0.5878,-1.1549,-9.78849,6.64695,-2.62691,-44.8947
2023-03-11 22:39:23:471,-0.677964,-1.12583,-9.79783,6.61858,-2.67708,-44.8392
2023-03-11 22:39:23:481,-0.731827,-1.11398,-9.81729,6.59379,-2.72058,-44.7883
2023-03-11 22:39:23:491,-0.746198,-1.12913,-9.83768,6.57447,-2.75731,-44.7442
2023-03-11 22:39:23:501,-0.745373,-1.12588,-9.82131,6.56008,-2.78878,-44.7029
2023-03-11 22:39:23:511,-0.723042,-1.10878,-9.79859,6.54727,-2.81637,-44.6696
2023-03-11 22:39:23:521,-0.702107,-1.11648,-9.75851,6.54542,-2.84022,-44.6448
2023-03-11 22:39:23:531,-0.66336,-1.14985,-9.70194,6.546,-2.86542,-44.6301
2023-03-11 22:39:23:541,-0.616574,-1.1779,-9.67299,6.54107,-2.88909,-44.617
2023-03-11 22:39:23:551,-0.570073,-1.16561,-9.67176,6.53653,-2.91088,-44.6114
2023-03-11 22:39:23:561,-0.472977,-1.17137,-9.69587,6.52787,-2.93111,-44.6101
2023-03-11 22:39:23:571,-0.41978,-1.15445,-9.69902,6.52149,-2.95419,-44.6044
2023-03-11 22:39:23:581,-0.465616,-1.14098,-9.66477,6.51414,-2.98129,-44.5959
2023-03-11 22:39:23:591,-0.536416,-1.13223,-9.62788,6.50372,-3.0113,-44.5915
2023-03-11 22:39:23:601,-0.557753,-1.09651,-9.61144,6.48811,-3.03696,-44.5929
2023-03-11 22:39:23:611,-0.554244,-1.06322,-9.60848,6.47129,-3.06144,-44.6005
2023-03-11 22:39:23:621,-0.527388,-1.03641,-9.56443,6.44834,-3.08954,-44.6129
2023-03-11 22:39:23:631,-0.498876,-0.988897,-9.50832,6.42427,-3.11937,-44.6321
2023-03-11 22:39:23:641,-0.492791,-0.971409,-9.48631,6.39329,-3.15315,-44.6551
2023-03-11 22:39:23:651,-0.473891,-0.93058,-9.49475,6.35649,-3.194,-44.6817
2023-03-11 22:39:23:661,-0.453617,-0.904761,-9.52666,6.31183,-3.23426,-44.7029
2023-03-11 22:39:23:671,-0.45063,-0.888925,-9.57766,6.26769,-3.27744,-44.7186
2023-03-11 22:39:23:681,-0.445557,-0.876688,-9.65427,6.21643,-3.31755,-44.7276
2023-03-11 22:39:23:691,-0.451485,-0.851052,-9.73914,6.16589,-3.35127,-44.7297
2023-03-11 22:39:23:701,-0.432841,-0.857796,-9.84496,6.11741,-3.3817,-44.7172
2023-03-11 22:39:23:711,-0.444945,-0.861193,-9.92012,6.06951,-3.40957,-44.694
2023-03-11 22:39:23:721,-0.489114,-0.839848,-9.93584,6.02448,-3.436,-44.6646
2023-03-11 22:39:23:731,-0.529866,-0.836474,-9.97398,5.98737,-3.45975,-44.6278
2023-03-11 22:39:23:741,-0.576968,-0.824948,-10.0048,5.95594,-3.4842,-44.5842
2023-03-11 22:39:23:751,-0.64168,-0.833151,-9.96301,5.93409,-3.51157,-44.5372
2023-03-11 22:39:23:761,-0.707787,-0.840756,-9.95806,5.91665,-3.53424,-44.4872
2023-03-11 22:39:23:771,-0.78703,-0.817589,-9.95354,5.90705,-3.55029,-44.4426
2023-03-11 22:39:23:781,-0.81484,-0.827324,-9.91522,5.91039,-3.56587,-44.4046
2023-03-11 22:39:23:791,-0.819392,-0.858157,-9.84879,5.91852,-3.57742,-44.3749
2023-03-11 22:39:23:801,-0.801118,-0.880784,-9.78971,5.93329,-3.59078,-44.3519
2023-03-11 22:39:23:811,-0.797464,-0.892812,-9.71811,5.95307,-3.60572,-44.3354
2023-03-11 22:39:23:821,-0.815176,-0.939372,-9.68352,5.97726,-3.61682,-44.3329
2023-03-11 22:39:23:831,-0.826841,-0.980759,-9.66437,6.0022,-3.62984,-44.337
2023-03-11 22:39:23:841,-0.844633,-1.00675,-9.65529,6.02442,-3.64015,-44.3516
2023-03-11 22:39:23:851,-0.801815,-1.02381,-9.65557,6.0469,-3.64692,-44.3783
2023-03-11 22:39:23:861,-0.726747,-1.05326,-9.64354,6.0666,-3.65119,-44.4026
2023-03-11 22:39:23:871,-0.648684,-1.05415,-9.66919,6.08506,-3.65277,-44.4335
2023-03-11 22:39:23:881,-0.549985,-1.04064,-9.72174,6.10046,-3.65569,-44.4592
2023-03-11 22:39:23:891,-0.489193,-1.04944,-9.76372,6.12126,-3.6674,-44.4771
2023-03-11 22:39:23:901,-0.515673,-1.0598,-9.76428,6.14828,-3.68373,-44.49
2023-03-11 22:39:23:911,-0.590718,-1.09137,-9.748,6.17201,-3.69542,-44.4921
2023-03-11 22:39:23:921,-0.68221,-1.11719,-9.72168,6.20119,-3.71254,-44.4971
2023-03-11 22:39:23:931,-0.733334,-1.13329,-9.66652,6.23062,-3.72396,-44.4997
2023-03-11 22:39:23:941,-0.765351,-1.14789,-9.61337,6.2524,-3.72935,-44.504
2023-03-11 22:39:23:951,-0.76057,-1.15923,-9.61888,6.26789,-3.72904,-44.5123
2023-03-11 22:39:23:961,-0.689368,-1.16064,-9.67058,6.27813,-3.72048,-44.5213
2023-03-11 22:39:23:971,-0.609876,-1.1206,-9.72111,6.28963,-3.7094,-44.5281
2023-03-11 22:39:23:981,-0.580569,-1.08264,-9.74977,6.29431,-3.70209,-44.5298
2023-03-11 22:39:23:991,-0.622813,-1.06178,-9.74513,6.30424,-3.69508,-44.5275
2023-03-11 22:39:24:1,-0.689736,-1.0632,-9.74849,6.31517,-3.6903,-44.5292
2023-03-11 22:39:24:11,-0.684223,-1.06924,-9.75761,6.32556,-3.68103,-44.5387
2023-03-11 22:39:24:21,-0.625922,-1.07777,-9.7444,6.33947,-3.67193,-44.5507
2023-03-11 22:39:24:31,-0.607789,-1.08457,-9.70147,6.35434,-3.66464,-44.5614
2023-03-11 22:39:24:41,-0.647599,-1.07431,-9.65914,6.36917,-3.65692,-44.5754
2023-03-11 22:39:24:51,-0.671879,-1.07882,-9.62974,6.38313,-3.65132,-44.5961
2023-03-11 22:39:24:61,-0.63941,-1.08536,-9.61609,6.39591,-3.64606,-44.6222
2023-03-11 22:39:24:71,-0.639509,-1.0998,-9.57624,6.40458,-3.64009,-44.6528
2023-03-11 22:39:24:81,-0.661147,-1.09374,-9.52719,6.41158,-3.63878,-44.6922
2023-03-11 22:39:24:91,-0.667733,-1.07664,-9.52397,6.41007,-3.63814,-44.7363
2023-03-11 22:39:24:101,-0.624735,-1.05117,-9.5497,6.39982,-3.63728,-44.7843
2023-03-11 22:39:24:111,-0.558246,-1.02294,-9.59428,6.38977,-3.63417,-44.8405
2023-03-11 22:39:24:121,-0.534927,-1.0257,-9.64141,6.37654,-3.6331,-44.8943
2023-03-11 22:39:24:131,-0.508746,-1.013,-9.67957,6.36532,-3.63746,-44.9448
2023-03-11 22:39:24:141,-0.497719,-0.995326,-9.70696,6.35213,-3.64603,-44.9907
2023-03-11 22:39:24:151,-0.503678,-1.00115,-9.71352,6.33754,-3.65468,-45.0344
2023-03-11 22:39:24:161,-0.510878,-1.02766,-9.70909,6.32165,-3.66357,-45.0736
2023-03-11 22:39:24:171,-0.517677,-1.01731,-9.71743,6.30577,-3.67434,-45.1121
2023-03-11 22:39:24:181,-0.529478,-1.00536,-9.75885,6.29166,-3.68561,-45.1417
2023-03-11 22:39:24:191,-0.547814,-1.00474,-9.80134,6.27851,-3.70198,-45.1681
2023-03-11 22:39:24:201,-0.643081,-0.983226,-9.83324,6.26751,-3.72305,-45.1947
2023-03-11 22:39:24:211,-0.711687,-0.981661,-9.86564,6.25922,-3.75078,-45.2267
2023-03-11 22:39:24:221,-0.727691,-0.981357,-9.88731,6.25496,-3.77903,-45.2605
2023-03-11 22:39:24:231,-0.694799,-0.976903,-9.89393,6.25657,-3.79684,-45.299
2023-03-11 22:39:24:241,-0.604201,-0.996113,-9.91579,6.26034,-3.80987,-45.3354
2023-03-11 22:39:24:251,-0.561103,-1.03184,-9.90414,6.27124,-3.83169,-45.3601
2023-03-11 22:39:24:261,-0.536082,-1.06964,-9.86971,6.2904,-3.84987,-45.3811
2023-03-11 22:39:24:271,-0.521311,-1.09304,-9.83785,6.31109,-3.87245,-45.3903
2023-03-11 22:39:24:281,-0.525309,-1.10413,-9.78972,6.33628,-3.89418,-45.3888
2023-03-11 22:39:24:291,-0.538713,-1.12812,-9.71909,6.36509,-3.92114,-45.3757
2023-03-11 22:39:24:301,-0.588823,-1.15844,-9.6354,6.39275,-3.95144,-45.3564
2023-03-11 22:39:24:311,-0.648703,-1.17478,-9.5675,6.41216,-3.9776,-45.3291
2023-03-11 22:39:24:321,-0.714624,-1.16574,-9.56661,6.42624,-4.0035,-45.299
2023-03-11 22:39:24:331,-0.76114,-1.12337,-9.57875,6.43369,-4.02772,-45.2647
2023-03-11 22:39:24:341,-0.805552,-1.08558,-9.59309,6.44117,-4.04891,-45.2313
2023-03-11 22:39:24:351,-0.827751,-1.05659,-9.60104,6.44405,-4.0632,-45.1952
2023-03-11 22:39:24:361,-0.848998,-1.04363,-9.60337,6.44742,-4.07934,-45.1587
2023-03-11 22:39:24:371,-0.890447,-1.01826,-9.5969,6.44802,-4.09471,-45.13
2023-03-11 22:39:24:381,-0.917964,-1.00498,-9.59806,6.44835,-4.10557,-45.1006
2023-03-11 22:39:24:391,-0.927143,-1.01006,-9.57009,6.44872,-4.11292,-45.0768
2023-03-11 22:39:24:401,-0.907358,-1.03877,-9.57364,6.44799,-4.122,-45.0586
2023-03-11 22:39:24:411,-0.895789,-1.03676,-9.57263,6.44233,-4.12888,-45.04
2023-03-11 22:39:24:421,-0.907907,-1.02819,-9.59446,6.43247,-4.13271,-45.0257
2023-03-11 22:39:24:431,-0.918565,-1.02794,-9.64419,6.41536,-4.14003,-45.018
2023-03-11 22:39:24:441,-0.909211,-1.00122,-9.68378,6.39571,-4.14868,-45.0105
2023-03-11 22:39:24:451,-0.909347,-0.967725,-9.70594,6.37086,-4.15374,-45.0132
2023-03-11 22:39:24:461,-0.938688,-0.911592,-9.73294,6.34751,-4.16105,-45.0234
2023-03-11 22:39:24:471,-0.950103,-0.900076,-9.76713,6.32576,-4.16771,-45.0393
2023-03-11 22:39:24:481,-0.935535,-0.880628,-9.80365,6.30746,-4.17263,-45.0651
2023-03-11 22:39:24:491,-0.924276,-0.856927,-9.85981,6.2943,-4.17373,-45.0969
2023-03-11 22:39:24:501,-0.866575,-0.8418,-9.88661,6.28339,-4.17472,-45.1337
2023-03-11 22:39:24:511,-0.798625,-0.863066,-9.88332,6.28474,-4.17071,-45.1694
2023-03-11 22:39:24:521,-0.792062,-0.880434,-9.84873,6.29349,-4.16928,-45.2056
2023-03-11 22:39:24:531,-0.800421,-0.898722,-9.79743,6.30751,-4.16593,-45.2429
2023-03-11 22:39:24:541,-0.79208,-0.920739,-9.75308,6.32664,-4.16017,-45.2836
2023-03-11 22:39:24:551,-0.763751,-0.956594,-9.71579,6.34867,-4.15279,-45.326
2023-03-11 22:39:24:561,-0.699398,-0.990748,-9.68837,6.36954,-4.14704,-45.3716
2023-03-11 22:39:24:571,-0.627718,-1.00643,-9.69862,6.38826,-4.13514,-45.4135
2023-03-11 22:39:24:581,-0.587287,-0.99918,-9.71717,6.40776,-4.13178,-45.4554
2023-03-11 22:39:24:591,-0.610618,-0.996703,-9.72717,6.426,-4.12715,-45.4888
2023-03-11 22:39:24:601,-0.653523,-1.00127,-9.72507,6.44706,-4.12574,-45.5185
2023-03-11 22:39:24:611,-0.643541,-1.02094,-9.71843,6.4732,-4.12273,-45.5447
2023-03-11 22:39:24:621,-0.632785,-1.04662,-9.73229,6.50193,-4.11422,-45.5692
2023-03-11 22:39:24:631,-0.618397,-1.09075,-9.72799,6.53017,-4.10302,-45.5836
2023-03-11 22:39:24:641,-0.627678,-1.11812,-9.70074,6.55945,-4.09119,-45.5948
2023-03-11 22:39:24:651,-0.641252,-1.14238,-9.69601,6.5882,-4.0815,-45.6032
2023-03-11 22:39:24:661,-0.683507,-1.14235,-9.68989,6.614,-4.07096,-45.6119
2023-03-11 22:39:24:671,-0.712629,-1.14125,-9.69024,6.63954,-4.06088,-45.6251
2023-03-11 22:39:24:681,-0.700338,-1.15037,-9.68886,6.6629,-4.04916,-45.6404
2023-03-11 22:39:24:691,-0.670783,-1.15751,-9.71186,6.68017,-4.03835,-45.6605
2023-03-11 22:39:24:701,-0.644121,-1.15116,-9.71168,6.70409,-4.02375,-45.6833
2023-03-11 22:39:24:711,-0.628465,-1.15077,-9.7034,6.72383,-4.01454,-45.7036
2023-03-11 22:39:24:721,-0.629462,-1.16211,-9.71803,6.74717,-4.00507,-45.7198
2023-03-11 22:39:24:731,-0.610079,-1.18235,-9.72413,6.76949,-3.99252,-45.7356
2023-03-11 22:39:24:741,-0.590849,-1.19427,-9.72232,6.79472,-3.97574,-45.7419
2023-03-11 22:39:24:751,-0.60351,-1.20472,-9.71361,6.82019,-3.9552,-45.7448
2023-03-11 22:39:24:761,-0.615758,-1.21926,-9.70741,6.84615,-3.93894,-45.742
2023-03-11 22:39:24:771,-0.61634,-1.21178,-9.69308,6.86797,-3.91785,-45.7321
2023-03-11 22:39:24:781,-0.641502,-1.23614,-9.69026,6.89375,-3.89699,-45.7201
2023-03-11 22:39:24:791,-0.683142,-1.24185,-9.6592,6.91949,-3.88095,-45.7065
2023-03-11 22:39:24:801,-0.727364,-1.2349,-9.62891,6.94174,-3.85871,-45.6941
2023-03-11 22:39:24:811,-0.72892,-1.22589,-9.61506,6.96033,-3.83559,-45.6876
2023-03-11 22:39:24:821,-0.682705,-1.2159,-9.6315,6.97681,-3.81215,-45.6853
2023-03-11 22:39:24:831,-0.6479,-1.21542,-9.62359,6.99105,-3.79182,-45.6819
2023-03-11 22:39:24:841,-0.661844,-1.21965,-9.62018,7.00474,-3.76753,-45.6813
2023-03-11 22:39:24:851,-0.683515,-1.20525,-9.61215,7.01584,-3.7444,-45.682
2023-03-11 22:39:24:861,-0.669317,-1.19786,-9.61176,7.02578,-3.72216,-45.684
2023-03-11 22:39:24:871,-0.645775,-1.18706,-9.60533,7.03491,-3.699,-45.6883
2023-03-11 22:39:24:881,-0.615889,-1.18839,-9.63347,7.03685,-3.68059,-45.6985
2023-03-11 22:39:24:891,-0.596867,-1.19504,-9.66577,7.0323,-3.66027,-45.7022
2023-03-11 22:39:24:901,-0.600573,-1.17738,-9.65235,7.03138,-3.64329,-45.7119
2023-03-11 22:39:24:911,-0.609916,-1.16965,-9.65765,7.02739,-3.63098,-45.7164
2023-03-11 22:39:24:921,-0.623273,-1.1691,-9.66904,7.02568,-3.62028,-45.7243
2023-03-11 22:39:24:931,-0.65225,-1.17405,-9.65467,7.01815,-3.61341,-45.7306
2023-03-11 22:39:24:941,-0.654282,-1.19748,-9.66638,7.0126,-3.59927,-45.7402
2023-03-11 22:39:24:951,-0.601779,-1.16595,-9.71837,7.00543,-3.58278,-45.7503
2023-03-11 22:39:24:961,-0.586166,-1.15257,-9.78215,6.9993,-3.5715,-45.7591
2023-03-11 22:39:24:971,-0.645363,-1.17019,-9.79824,6.99878,-3.56253,-45.7687
2023-03-11 22:39:24:981,-0.66679,-1.15185,-9.80899,6.99646,-3.55301,-45.7852
2023-03-11 22:39:24:991,-0.659272,-1.1343,-9.82149,6.99981,-3.54201,-45.81
2023-03-11 22:39:25:1,-0.620604,-1.14994,-9.78237,7.00552,-3.5355,-45.8387
2023-03-11 22:39:25:11,-0.607591,-1.14595,-9.69326,7.01159,-3.53317,-45.8694
2023-03-11 22:39:25:21,-0.600518,-1.15897,-9.58419,7.01538,-3.53285,-45.9052
2023-03-11 22:39:25:31,-0.58102,-1.16928,-9.54433,7.01366,-3.53386,-45.944
2023-03-11 22:39:25:41,-0.583337,-1.11444,-9.59528,7.00685,-3.53613,-45.9818
2023-03-11 22:39:25:51,-0.602773,-1.05581,-9.6844,6.99903,-3.5383,-46.0196
2023-03-11 22:39:25:61,-0.649823,-1.05703,-9.66248,6.99496,-3.54375,-46.0595
2023-03-11 22:39:25:71,-0.731278,-1.13454,-9.5735,6.99377,-3.54784,-46.0996
2023-03-11 22:39:25:81,-0.780672,-1.12732,-9.58,6.99131,-3.54164,-46.1478
2023-03-11 22:39:25:91,-0.712725,-1.06989,-9.6426,6.9845,-3.52834,-46.2044
2023-03-11 22:39:25:101,-0.60892,-1.05051,-9.64029,6.97796,-3.51231,-46.2618
2023-03-11 22:39:25:111,-0.55019,-1.08708,-9.6042,6.97457,-3.49485,-46.3202
2023-03-11 22:39:25:121,-0.592355,-1.09018,-9.58856,6.96598,-3.4841,-46.3775
2023-03-11 22:39:25:131,-0.631678,-1.05036,-9.64111,6.95319,-3.47005,-46.4406
2023-03-11 22:39:25:141,-0.499383,-1.08536,-9.74838,6.94076,-3.45389,-46.5066
2023-03-11 22:39:25:151,-0.486803,-1.05284,-9.79291,6.93143,-3.44597,-46.5684
2023-03-11 22:39:25:161,-0.540595,-1.05308,-9.75907,6.92258,-3.44372,-46.6319
2023-03-11 22:39:25:171,-0.518842,-1.07527,-9.71739,6.91695,-3.4389,-46.6923
2023-03-11 22:39:25:181,-0.493105,-1.09217,-9.66531,6.90657,-3.43658,-46.7535
2023-03-11 22:39:25:191,-0.482533,-1.14022,-9.66932,6.89602,-3.43466,-46.8129
2023-03-11 22:39:25:201,-0.480736,-1.09956,-9.72894,6.87592,-3.43075,-46.8682
2023-03-11 22:39:25:211,-0.43397,-1.0746,-9.79002,6.85607,-3.42821,-46.9205
2023-03-11 22:39:25:221,-0.39229,-1.09078,-9.79053,6.83606,-3.42838,-46.9686
2023-03-11 22:39:25:231,-0.410626,-1.10248,-9.78955,6.822,-3.4391,-47.0158
2023-03-11 22:39:25:241,-0.456316,-1.03185,-9.8076,6.80813,-3.45283,-47.059
2023-03-11 22:39:25:251,-0.417505,-1.06663,-9.79745,6.80452,-3.46278,-47.1012
2023-03-11 22:39:25:261,-0.371495,-1.05128,-9.82715,6.80139,-3.47848,-47.1339
2023-03-11 22:39:25:271,-0.393022,-1.04241,-9.83889,6.80951,-3.49666,-47.154
2023-03-11 22:39:25:281,-0.426919,-1.04986,-9.80604,6.81984,-3.52159,-47.1719
2023-03-11 22:39:25:291,-0.456688,-1.09352,-9.77841,6.83561,-3.54863,-47.1844
2023-03-11 22:39:25:301,-0.527811,-1.12286,-9.77411,6.85247,-3.58139,-47.1847
2023-03-11 22:39:25:311,-0.610677,-1.12421,-9.76788,6.86935,-3.61136,-47.1787
2023-03-11 22:39:25:321,-0.597344,-1.12462,-9.75974,6.8876,-3.63389,-47.1677
2023-03-11 22:39:25:331,-0.574311,-1.14402,-9.76094,6.90988,-3.65136,-47.1494
2023-03-11 22:39:25:341,-0.622646,-1.14097,-9.74738,6.92719,-3.66899,-47.122
2023-03-11 22:39:25:351,-0.658763,-1.12388,-9.71235,6.95157,-3.68865,-47.0929
2023-03-11 22:39:25:361,-0.671894,-1.13567,-9.6918,6.97725,-3.70928,-47.0613
2023-03-11 22:39:25:371,-0.684303,-1.15523,-9.69002,7.00425,-3.73,-47.0239
2023-03-11 22:39:25:381,-0.698688,-1.18643,-9.66033,7.03385,-3.7463,-46.9832
2023-03-11 22:39:25:391,-0.759845,-1.20414,-9.63542,7.05719,-3.76794,-46.9426
2023-03-11 22:39:25:401,-0.822252,-1.20827,-9.60619,7.07827,-3.79158,-46.9067
2023-03-11 22:39:25:411,-0.844012,-1.22655,-9.59435,7.09691,-3.81474,-46.8833
2023-03-11 22:39:25:421,-0.853309,-1.23186,-9.61751,7.11372,-3.83946,-46.8647
2023-03-11 22:39:25:431,-0.839057,-1.22377,-9.62963,7.12616,-3.86299,-46.8543
2023-03-11 22:39:25:441,-0.819127,-1.22055,-9.61841,7.13922,-3.8877,-46.8484
2023-03-11 22:39:25:451,-0.775066,-1.22958,-9.63773,7.15522,-3.91488,-46.8451
2023-03-11 22:39:25:461,-0.758289,-1.21856,-9.65518,7.1702,-3.94389,-46.8418
2023-03-11 22:39:25:471,-0.861813,-1.23233,-9.63617,7.18499,-3.98036,-46.8335
2023-03-11 22:39:25:481,-1.03909,-1.26555,-9.55746,7.20272,-4.01493,-46.8302
2023-03-11 22:39:25:491,-1.17183,-1.32999,-9.49635,7.2151,-4.04111,-46.8337
2023-03-11 22:39:25:501,-1.19982,-1.33847,-9.47094,7.21801,-4.04755,-46.8527
2023-03-11 22:39:25:511,-1.08756,-1.36135,-9.5133,7.20884,-4.04096,-46.8855
2023-03-11 22:39:25:521,-0.928091,-1.32537,-9.62827,7.19067,-4.02321,-46.9291
2023-03-11 22:39:25:531,-0.807895,-1.24045,-9.71533,7.16417,-4.00261,-46.9772
2023-03-11 22:39:25:541,-0.75803,-1.17817,-9.75008,7.14,-3.98192,-47.0305
2023-03-11 22:39:25:551,-0.712488,-1.16813,-9.76067,7.11958,-3.96289,-47.0848
2023-03-11 22:39:25:561,-0.651362,-1.14954,-9.76603,7.10073,-3.94267,-47.1397
2023-03-11 22:39:25:571,-0.614542,-1.1302,-9.80652,7.08863,-3.92203,-47.1912
2023-03-11 22:39:25:581,-0.586039,-1.11588,-9.81209,7.07889,-3.90471,-47.2382
2023-03-11 22:39:25:591,-0.557291,-1.14034,-9.7837,7.07723,-3.8889,-47.2775
2023-03-11 22:39:25:601,-0.547504,-1.19746,-9.75843,7.0817,-3.87548,-47.3109
2023-03-11 22:39:25:611,-0.512862,-1.22328,-9.72961,7.09017,-3.86228,-47.3355
2023-03-11 22:39:25:621,-0.495978,-1.25523,-9.74594,7.09574,-3.84581,-47.3524
2023-03-11 22:39:25:631,-0.500299,-1.25763,-9.73444,7.10472,-3.83105,-47.3564
2023-03-11 22:39:25:641,-0.519582,-1.26542,-9.69476,7.11291,-3.81157,-47.3512
2023-03-11 22:39:25:651,-0.530085,-1.287,-9.67498,7.11753,-3.79402,-47.337
2023-03-11 22:39:25:661,-0.553993,-1.2759,-9.67925,7.12125,-3.77662,-47.3173
2023-03-11 22:39:25:671,-0.59323,-1.26502,-9.69075,7.12508,-3.7572,-47.2942
2023-03-11 22:39:25:681,-0.604046,-1.25345,-9.69718,7.12781,-3.73802,-47.2671
2023-03-11 22:39:25:691,-0.532881,-1.23465,-9.7265,7.12944,-3.71568,-47.2418
2023-03-11 22:39:25:701,-0.479182,-1.2378,-9.73225,7.13218,-3.69452,-47.2143
2023-03-11 22:39:25:711,-0.542034,-1.26185,-9.68172,7.1347,-3.6782,-47.1829
2023-03-11 22:39:25:721,-0.639977,-1.2516,-9.61629,7.1331,-3.66803,-47.1507
2023-03-11 22:39:25:731,-0.676995,-1.22726,-9.58746,7.12943,-3.65808,-47.1306
2023-03-11 22:39:25:741,-0.676745,-1.20831,-9.59251,7.11785,-3.64528,-47.1113
2023-03-11 22:39:25:751,-0.666329,-1.19583,-9.57653,7.10709,-3.63186,-47.0956
2023-03-11 22:39:25:761,-0.646404,-1.1722,-9.58075,7.08987,-3.61711,-47.0818
2023-03-11 22:39:25:771,-0.646421,-1.14231,-9.61295,7.07027,-3.60411,-47.0707
2023-03-11 22:39:25:781,-0.644721,-1.11835,-9.65643,7.04789,-3.58918,-47.0645
2023-03-11 22:39:25:791,-0.619297,-1.11236,-9.69178,7.02667,-3.57114,-47.0582
2023-03-11 22:39:25:801,-0.601413,-1.11556,-9.71168,7.00961,-3.55411,-47.0514
2023-03-11 22:39:25:811,-0.590538,-1.11497,-9.72031,6.9943,-3.53833,-47.0426
2023-03-11 22:39:25:821,-0.564903,-1.11418,-9.72237,6.97936,-3.52175,-47.0352
2023-03-11 22:39:25:831,-0.546401,-1.12239,-9.72788,6.96854,-3.50651,-47.0268
2023-03-11 22:39:25:841,-0.547067,-1.14597,-9.72953,6.9573,-3.49106,-47.0164
2023-03-11 22:39:25:851,-0.553152,-1.16215,-9.71721,6.94288,-3.47893,-47.004
2023-03-11 22:39:25:861,-0.570349,-1.15504,-9.68746,6.92792,-3.47183,-46.9879
2023-03-11 22:39:25:871,-0.571522,-1.16235,-9.67889,6.90708,-3.46295,-46.9726
2023-03-11 22:39:25:881,-0.558879,-1.14822,-9.71901,6.88758,-3.4535,-46.9563
2023-03-11 22:39:25:891,-0.585171,-1.14364,-9.73654,6.86997,-3.44737,-46.9399
2023-03-11 22:39:25:901,-0.616436,-1.11717,-9.73237,6.84799,-3.44655,-46.9208
2023-03-11 22:39:25:911,-0.622632,-1.07854,-9.75522,6.82712,-3.43763,-46.9043
2023-03-11 22:39:25:921,-0.551065,-1.06224,-9.79736,6.81244,-3.42797,-46.8894
2023-03-11 22:39:25:931,-0.512521,-1.0627,-9.82787,6.80163,-3.42381,-46.869
2023-03-11 22:39:25:941,-0.556528,-1.06322,-9.80938,6.79498,-3.41877,-46.848
2023-03-11 22:39:25:951,-0.617719,-1.08128,-9.76751,6.79135,-3.42049,-46.8265
2023-03-11 22:39:25:961,-0.648079,-1.0818,-9.73993,6.78986,-3.42053,-46.8053
2023-03-11 22:39:25:971,-0.638943,-1.09224,-9.72146,6.79259,-3.41963,-46.7861
2023-03-11 22:39:25:981,-0.646866,-1.11565,-9.68052,6.79365,-3.41958,-46.7683
2023-03-11 22:39:25:991,-0.637476,-1.12357,-9.66751,6.79513,-3.41678,-46.7504
2023-03-11 22:39:26:1,-0.613622,-1.14167,-9.66629,6.79534,-3.41585,-46.7346
2023-03-11 22:39:26:11,-0.609368,-1.12919,-9.71176,6.793,-3.4126,-46.7211
2023-03-11 22:39:26:21,-0.624651,-1.10758,-9.73655,6.79115,-3.41543,-46.7094
2023-03-11 22:39:26:31,-0.63882,-1.11204,-9.72144,6.79051,-3.41773,-46.6973
2023-03-11 22:39:26:41,-0.650622,-1.13573,-9.70587,6.79424,-3.41582,-46.6889
2023-03-11 22:39:26:51,-0.634747,-1.13876,-9.70423,6.789,-3.41453,-46.6826
2023-03-11 22:39:26:61,-0.623774,-1.13678,-9.70863,6.78926,-3.41757,-46.6795
2023-03-11 22:39:26:71,-0.635893,-1.14523,-9.71179,6.79052,-3.42296,-46.6804
2023-03-11 22:39:26:81,-0.612915,-1.14855,-9.69658,6.78943,-3.42629,-46.6839
2023-03-11 22:39:26:91,-0.575154,-1.1505,-9.69243,6.79162,-3.42652,-46.6877
2023-03-11 22:39:26:101,-0.559267,-1.1619,-9.68451,6.78899,-3.42961,-46.6888
2023-03-11 22:39:26:111,-0.56609,-1.16438,-9.67371,6.7886,-3.4345,-46.6907
2023-03-11 22:39:26:121,-0.59777,-1.14463,-9.67786,6.78828,-3.4445,-46.6922
2023-03-11 22:39:26:131,-0.602529,-1.1348,-9.68232,6.78547,-3.4534,-46.6946
2023-03-11 22:39:26:141,-0.586658,-1.16986,-9.67623,6.77994,-3.45662,-46.6969
2023-03-11 22:39:26:151,-0.594373,-1.18356,-9.65393,6.77652,-3.46063,-46.6961
2023-03-11 22:39:26:161,-0.597287,-1.18811,-9.66061,6.77198,-3.46387,-46.695
2023-03-11 22:39:26:171,-0.625191,-1.1736,-9.67995,6.76149,-3.46517,-46.6927
2023-03-11 22:39:26:181,-0.643186,-1.15432,-9.69479,6.75174,-3.46647,-46.6957
2023-03-11 22:39:26:191,-0.604617,-1.14708,-9.70375,6.74195,-3.46739,-46.6974
2023-03-11 22:39:26:201,-0.582008,-1.14996,-9.70511,6.73547,-3.46983,-46.6985
2023-03-11 22:39:26:211,-0.574944,-1.13028,-9.7005,6.72759,-3.47156,-46.7004
2023-03-11 22:39:26:221,-0.589012,-1.12116,-9.69236,6.71337,-3.47321,-46.7013
2023-03-11 22:39:26:231,-0.606785,-1.12295,-9.69346,6.70285,-3.4738,-46.7043
2023-03-11 22:39:26:241,-0.599427,-1.12016,-9.68642,6.69033,-3.47804,-46.7045
2023-03-11 22:39:26:251,-0.592025,-1.12266,-9.6881,6.67965,-3.48282,-46.7033
2023-03-11 22:39:26:261,-0.602994,-1.0939,-9.70062,6.6643,-3.48622,-46.7042
2023-03-11 22:39:26:271,-0.621921,-1.06917,-9.71589,6.64591,-3.48955,-46.7034
2023-03-11 22:39:26:281,-0.633395,-1.06166,-9.72798,6.63126,-3.48942,-46.7044
2023-03-11 22:39:26:291,-0.642404,-1.04917,-9.75067,6.61972,-3.48802,-46.7055
2023-03-11 22:39:26:301,-0.68304,-1.03897,-9.76702,6.60989,-3.48404,-46.7046
2023-03-11 22:39:26:311,-0.700335,-1.04527,-9.76097,6.60559,-3.48339,-46.7097
2023-03-11 22:39:26:321,-0.673531,-1.05773,-9.75745,6.60252,-3.4773,-46.7163
2023-03-11 22:39:26:331,-0.670619,-1.07658,-9.72728,6.60138,-3.47332,-46.7212
2023-03-11 22:39:26:341,-0.681632,-1.09996,-9.69247,6.59667,-3.47018,-46.7241
2023-03-11 22:39:26:351,-0.68397,-1.10472,-9.66451,6.59227,-3.46608,-46.7324
2023-03-11 22:39:26:361,-0.686725,-1.13152,-9.6671,6.59215,-3.46283,-46.7461
2023-03-11 22:39:26:371,-0.674329,-1.12893,-9.67496,6.58973,-3.45824,-46.7625
2023-03-11 22:39:26:381,-0.615801,-1.11846,-9.7136,6.58351,-3.45113,-46.7835
2023-03-11 22:39:26:391,-0.526702,-1.10831,-9.73901,6.57917,-3.4497,-46.8013
2023-03-11 22:39:26:401,-0.502105,-1.13428,-9.71888,6.57093,-3.44891,-46.8138
2023-03-11 22:39:26:411,-0.577732,-1.13536,-9.66866,6.56486,-3.45119,-46.8255
2023-03-11 22:39:26:421,-0.66352,-1.11697,-9.6276,6.55253,-3.45632,-46.8417
2023-03-11 22:39:26:431,-0.692557,-1.09108,-9.61696,6.53325,-3.45705,-46.8581
2023-03-11 22:39:26:441,-0.676612,-1.05959,-9.60974,6.51928,-3.45302,-46.8796
2023-03-11 22:39:26:451,-0.663443,-1.0567,-9.60957,6.50111,-3.44747,-46.9003
2023-03-11 22:39:26:461,-0.648981,-1.038,-9.63935,6.48195,-3.43399,-46.9151
2023-03-11 22:39:26:471,-0.65207,-0.995319,-9.67597,6.46108,-3.42222,-46.9286
2023-03-11 22:39:26:481,-0.684583,-0.969713,-9.71172,6.44028,-3.40761,-46.9491
2023-03-11 22:39:26:491,-0.672059,-0.963536,-9.7324,6.41923,-3.39115,-46.9707
2023-03-11 22:39:26:501,-0.651562,-0.98008,-9.74812,6.40342,-3.37618,-46.9944
2023-03-11 22:39:26:511,-0.645357,-0.970625,-9.74856,6.38991,-3.3607,-47.019
2023-03-11 22:39:26:521,-0.641901,-0.985796,-9.7516,6.37833,-3.3468,-47.0487
2023-03-11 22:39:26:531,-0.610204,-0.997313,-9.75991,6.36672,-3.33197,-47.0768
2023-03-11 22:39:26:541,-0.585367,-0.992242,-9.77976,6.35719,-3.31468,-47.1092
2023-03-11 22:39:26:551,-0.578823,-1.00335,-9.79518,6.35093,-3.29913,-47.1389
2023-03-11 22:39:26:561,-0.576609,-0.996515,-9.77276,6.34065,-3.28411,-47.1694
2023-03-11 22:39:26:571,-0.530645,-0.992914,-9.78665,6.32942,-3.27133,-47.1982
2023-03-11 22:39:26:581,-0.53775,-0.986742,-9.8069,6.32334,-3.25847,-47.2246
2023-03-11 22:39:26:591,-0.567329,-0.987293,-9.78346,6.32052,-3.24417,-47.2463
2023-03-11 22:39:26:601,-0.589459,-0.978035,-9.77685,6.31734,-3.22998,-47.2654
2023-03-11 22:39:26:611,-0.558847,-0.965388,-9.78155,6.31841,-3.21486,-47.2896
2023-03-11 22:39:26:621,-0.479268,-0.988298,-9.76311,6.32054,-3.19535,-47.3075
2023-03-11 22:39:26:631,-0.468482,-1.00673,-9.72165,6.32806,-3.18288,-47.3213
2023-03-11 22:39:26:641,-0.524945,-1.01628,-9.709,6.33493,-3.17217,-47.3351
2023-03-11 22:39:26:651,-0.579844,-1.02451,-9.71204,6.34332,-3.16102,-47.3469
2023-03-11 22:39:26:661,-0.579817,-1.0198,-9.71459,6.35077,-3.14645,-47.3643
2023-03-11 22:39:26:671,-0.558885,-1.02605,-9.6957,6.36286,-3.13057,-47.3809
2023-03-11 22:39:26:681,-0.557735,-1.03215,-9.67507,6.37216,-3.11602,-47.3951
2023-03-11 22:39:26:691,-0.565932,-1.04481,-9.67386,6.381,-3.09998,-47.412
2023-03-11 22:39:26:701,-0.553913,-1.05162,-9.66398,6.38647,-3.08039,-47.4267
2023-03-11 22:39:26:711,-0.546001,-1.05619,-9.67499,6.39302,-3.06197,-47.4433
2023-03-11 22:39:26:721,-0.542827,-1.05615,-9.67007,6.39956,-3.04647,-47.4658
2023-03-11 22:39:26:731,-0.538453,-1.06548,-9.66244,6.40499,-3.03144,-47.4851
2023-03-11 22:39:26:741,-0.530336,-1.05218,-9.68558,6.40889,-3.01817,-47.5038
2023-03-11 22:39:26:751,-0.529005,-1.04844,-9.70915,6.40851,-3.00379,-47.5249
2023-03-11 22:39:26:761,-0.543302,-1.04769,-9.69431,6.40512,-2.98985,-47.5535
2023-03-11 22:39:26:771,-0.549961,-1.05122,-9.68383,6.40353,-2.97509,-47.5806
2023-03-11 22:39:26:781,-0.535107,-1.06334,-9.69796,6.39926,-2.96512,-47.6062
2023-03-11 22:39:26:791,-0.525386,-1.04657,-9.69604,6.39625,-2.9545,-47.6347
2023-03-11 22:39:26:801,-0.543926,-1.05791,-9.67883,6.39186,-2.95006,-47.6626
2023-03-11 22:39:26:811,-0.540517,-1.07756,-9.69078,6.38483,-2.93925,-47.6923
2023-03-11 22:39:26:821,-0.525756,-1.06414,-9.71769,6.37846,-2.92974,-47.7223
2023-03-11 22:39:26:831,-0.526282,-1.05151,-9.72344,6.37145,-2.9225,-47.7559
2023-03-11 22:39:26:841,-0.512094,-1.06357,-9.71776,6.36599,-2.91068,-47.7878
2023-03-11 22:39:26:851,-0.49051,-1.07546,-9.69179,6.36399,-2.89991,-47.8199
2023-03-11 22:39:26:861,-0.487159,-1.08879,-9.67286,6.35723,-2.88736,-47.8491
2023-03-11 22:39:26:871,-0.480259,-1.09912,-9.66216,6.35064,-2.87789,-47.8757
2023-03-11 22:39:26:881,-0.488672,-1.08538,-9.65768,6.33901,-2.86345,-47.9008
2023-03-11 22:39:26:891,-0.497387,-1.10074,-9.6524,6.32445,-2.85353,-47.9279
2023-03-11 22:39:26:901,-0.493268,-1.09241,-9.65427,6.30918,-2.8356,-47.954
2023-03-11 22:39:26:911,-0.505743,-1.07042,-9.69166,6.29058,-2.81729,-47.9831
2023-03-11 22:39:26:921,-0.514971,-1.055,-9.7082,6.27225,-2.80294,-48.0119
2023-03-11 22:39:26:931,-0.500416,-1.06773,-9.69676,6.25358,-2.79174,-48.0425
2023-03-11 22:39:26:941,-0.48503,-1.06197,-9.68867,6.23336,-2.77886,-48.0778
2023-03-11 22:39:26:951,-0.459125,-1.04728,-9.71913,6.21522,-2.76698,-48.1095
2023-03-11 22:39:26:961,-0.456698,-1.02913,-9.73515,6.19602,-2.75524,-48.142
2023-03-11 22:39:26:971,-0.448882,-1.02491,-9.7299,6.17854,-2.74697,-48.1762
2023-03-11 22:39:26:981,-0.434237,-1.04458,-9.72378,6.16344,-2.74418,-48.2066
2023-03-11 22:39:26:991,-0.455861,-1.04361,-9.7208,6.15289,-2.73688,-48.2354
2023-03-11 22:39:27:1,-0.46528,-1.04185,-9.73127,6.13439,-2.73095,-48.267
2023-03-11 22:39:27:11,-0.444011,-1.0381,-9.7453,6.12019,-2.7207,-48.297
2023-03-11 22:39:27:21,-0.437611,-1.04524,-9.75644,6.10072,-2.71345,-48.3241
2023-03-11 22:39:27:31,-0.446361,-1.04281,-9.77414,6.08716,-2.70666,-48.3475
2023-03-11 22:39:27:41,-0.420226,-1.03158,-9.76465,6.07403,-2.6963,-48.3707
2023-03-11 22:39:27:51,-0.386575,-1.04209,-9.75756,6.06407,-2.68664,-48.3948
2023-03-11 22:39:27:61,-0.384254,-1.05856,-9.74039,6.05172,-2.67804,-48.4135
2023-03-11 22:39:27:71,-0.372161,-1.03928,-9.73152,6.03644,-2.67053,-48.4312
2023-03-11 22:39:27:81,-0.342196,-1.01382,-9.75828,6.01776,-2.66253,-48.4473
2023-03-11 22:39:27:91,-0.289918,-1.02041,-9.77446,6.00234,-2.65666,-48.4595
2023-03-11 22:39:27:101,-0.273311,-1.04157,-9.75383,5.98789,-2.65871,-48.4637
2023-03-11 22:39:27:111,-0.331054,-1.01892,-9.72388,5.97655,-2.6673,-48.4674
2023-03-11 22:39:27:121,-0.400342,-1.01978,-9.69702,5.96493,-2.68035,-48.4701
2023-03-11 22:39:27:131,-0.461899,-0.992404,-9.66771,5.95147,-2.69351,-48.4716
2023-03-11 22:39:27:141,-0.478695,-0.974154,-9.64978,5.93294,-2.69797,-48.4733
2023-03-11 22:39:27:151,-0.468369,-0.961365,-9.65482,5.91668,-2.70366,-48.4733
2023-03-11 22:39:27:161,-0.462243,-0.951431,-9.67717,5.89741,-2.70574,-48.4762
2023-03-11 22:39:27:171,-0.463355,-0.933675,-9.69298,5.8764,-2.70421,-48.4734
2023-03-11 22:39:27:181,-0.48879,-0.914676,-9.71238,5.85675,-2.70493,-48.4715
2023-03-11 22:39:27:191,-0.510039,-0.903565,-9.69468,5.83715,-2.70453,-48.4724
2023-03-11 22:39:27:201,-0.514783,-0.906559,-9.70792,5.81928,-2.70265,-48.4787
2023-03-11 22:39:27:211,-0.503274,-0.921873,-9.71949,5.80226,-2.70473,-48.4862
2023-03-11 22:39:27:221,-0.495662,-0.922712,-9.72451,5.78532,-2.70569,-48.4908
2023-03-11 22:39:27:231,-0.492386,-0.929756,-9.73361,5.77067,-2.7075,-48.5
2023-03-11 22:39:27:241,-0.477147,-0.914546,-9.74788,5.7532,-2.71295,-48.5095
2023-03-11 22:39:27:251,-0.475014,-0.90532,-9.76792,5.73011,-2.71478,-48.521
2023-03-11 22:39:27:261,-0.477436,-0.889111,-9.76562,5.7096,-2.71652,-48.5342
2023-03-11 22:39:27:271,-0.467218,-0.887246,-9.77409,5.69095,-2.71995,-48.5489
2023-03-11 22:39:27:281,-0.475734,-0.891605,-9.78753,5.67603,-2.72451,-48.5603
2023-03-11 22:39:27:291,-0.483553,-0.882031,-9.78272,5.65998,-2.72575,-48.573
2023-03-11 22:39:27:301,-0.493509,-0.86484,-9.78781,5.64473,-2.7248,-48.5854
2023-03-11 22:39:27:311,-0.475706,-0.853672,-9.80672,5.63579,-2.72246,-48.5989
2023-03-11 22:39:27:321,-0.433768,-0.879434,-9.80207,5.62696,-2.72093,-48.6144
2023-03-11 22:39:27:331,-0.43138,-0.888808,-9.80188,5.6284,-2.7223,-48.6221
2023-03-11 22:39:27:341,-0.476957,-0.886214,-9.77496,5.62592,-2.72266,-48.6289
2023-03-11 22:39:27:351,-0.524549,-0.901618,-9.75289,5.62518,-2.72671,-48.636
2023-03-11 22:39:27:361,-0.535472,-0.908856,-9.73456,5.62721,-2.72888,-48.641
2023-03-11 22:39:27:371,-0.514511,-0.913955,-9.71057,5.63201,-2.72673,-48.6494
2023-03-11 22:39:27:381,-0.511808,-0.928422,-9.70516,5.63328,-2.72494,-48.6576
2023-03-11 22:39:27:391,-0.513492,-0.924778,-9.70038,5.63096,-2.72055,-48.6611
2023-03-11 22:39:27:401,-0.507548,-0.931152,-9.69587,5.63231,-2.716,-48.6696
2023-03-11 22:39:27:411,-0.502008,-0.93355,-9.711,5.63183,-2.71288,-48.6789
2023-03-11 22:39:27:421,-0.493601,-0.939228,-9.69917,5.62985,-2.7062,-48.6897
2023-03-11 22:39:27:431,-0.484392,-0.946034,-9.69842,5.62628,-2.70527,-48.6992
2023-03-11 22:39:27:441,-0.48491,-0.951147,-9.68597,5.62363,-2.70763,-48.7102
2023-03-11 22:39:27:451,-0.468534,-0.934629,-9.68664,5.62054,-2.70634,-48.7207
2023-03-11 22:39:27:461,-0.463605,-0.939379,-9.69981,5.61451,-2.70592,-48.7335
2023-03-11 22:39:27:471,-0.468461,-0.945306,-9.70898,5.6102,-2.70721,-48.7466
2023-03-11 22:39:27:481,-0.478755,-0.928123,-9.71521,5.60226,-2.71118,-48.756
2023-03-11 22:39:27:491,-0.484924,-0.919959,-9.71665,5.59483,-2.71308,-48.7689
2023-03-11 22:39:27:501,-0.48121,-0.918977,-9.72472,5.58682,-2.71573,-48.7787
2023-03-11 22:39:27:511,-0.488918,-0.911465,-9.71689,5.57844,-2.71687,-48.7883
2023-03-11 22:39:27:521,-0.482284,-0.914728,-9.72489,5.57183,-2.71755,-48.794
2023-03-11 22:39:27:531,-0.492659,-0.91352,-9.72366,5.56175,-2.71725,-48.7983
2023-03-11 22:39:27:541,-0.512831,-0.909648,-9.73994,5.5534,-2.71561,-48.8032
2023-03-11 22:39:27:551,-0.522672,-0.888558,-9.75958,5.54266,-2.7116,-48.807
2023-03-11 22:39:27:561,-0.505706,-0.895008,-9.76484,5.53491,-2.70798,-48.8138
2023-03-11 22:39:27:571,-0.485423,-0.896752,-9.75344,5.52594,-2.70336,-48.8175
2023-03-11 22:39:27:581,-0.490514,-0.892833,-9.75413,5.51878,-2.69978,-48.8178
2023-03-11 22:39:27:591,-0.481578,-0.884595,-9.76758,5.51346,-2.69534,-48.8218
2023-03-11 22:39:27:601,-0.473316,-0.889135,-9.77446,5.50481,-2.69296,-48.8255
2023-03-11 22:39:27:611,-0.475738,-0.898659,-9.77219,5.50283,-2.68866,-48.8311
2023-03-11 22:39:27:621,-0.469204,-0.903878,-9.76347,5.50146,-2.68335,-48.8382
2023-03-11 22:39:27:631,-0.449889,-0.909497,-9.75488,5.50148,-2.67781,-48.8492
2023-03-11 22:39:27:641,-0.442803,-0.915378,-9.7486,5.50364,-2.67252,-48.8584
2023-03-11 22:39:27:651,-0.428507,-0.93321,-9.73316,5.50414,-2.66729,-48.8678
2023-03-11 22:39:27:661,-0.431944,-0.932772,-9.70796,5.50802,-2.66935,-48.8781
2023-03-11 22:39:27:671,-0.429363,-0.922104,-9.6759,5.51071,-2.6638,-48.8848
2023-03-11 22:39:27:681,-0.411366,-0.931147,-9.67524,5.50883,-2.66026,-48.8929
2023-03-11 22:39:27:691,-0.408003,-0.940761,-9.67458,5.50667,-2.65868,-48.8988
2023-03-11 22:39:27:701,-0.410988,-0.942789,-9.67729,5.50368,-2.65711,-48.9063
2023-03-11 22:39:27:711,-0.390572,-0.946188,-9.69275,5.49743,-2.65817,-48.9156
2023-03-11 22:39:27:721,-0.358072,-0.943182,-9.70008,5.49218,-2.65658,-48.9165
2023-03-11 22:39:27:731,-0.355201,-0.971444,-9.6951,5.48365,-2.65913,-48.9141
2023-03-11 22:39:27:741,-0.360501,-0.954894,-9.68011,5.47494,-2.66213,-48.9118
2023-03-11 22:39:27:751,-0.347603,-0.949373,-9.68254,5.46351,-2.66495,-48.9084
2023-03-11 22:39:27:761,-0.360734,-0.967228,-9.68898,5.45284,-2.67225,-48.9001
2023-03-11 22:39:27:771,-0.369365,-0.97605,-9.67821,5.43944,-2.6833,-48.8925
2023-03-11 22:39:27:781,-0.340935,-0.953896,-9.69729,5.41891,-2.6968,-48.8838
2023-03-11 22:39:27:791,-0.314673,-0.93216,-9.72842,5.3983,-2.71302,-48.877
2023-03-11 22:39:27:801,-0.309299,-0.932577,-9.74138,5.37776,-2.73427,-48.8618
2023-03-11 22:39:27:811,-0.358778,-0.919633,-9.74425,5.35911,-2.76044,-48.8425
2023-03-11 22:39:27:821,-0.435027,-0.898697,-9.74843,5.33684,-2.78931,-48.8261
2023-03-11 22:39:27:831,-0.503722,-0.871244,-9.75045,5.31639,-2.81998,-48.8101
2023-03-11 22:39:27:841,-0.548896,-0.831387,-9.74613,5.29182,-2.84948,-48.798
2023-03-11 22:39:27:851,-0.577888,-0.802961,-9.74913,5.26479,-2.87354,-48.789
2023-03-11 22:39:27:861,-0.601761,-0.78546,-9.75473,5.241,-2.90162,-48.7816
2023-03-11 22:39:27:871,-0.596831,-0.762613,-9.77632,5.22199,-2.91949,-48.7719
2023-03-11 22:39:27:881,-0.617292,-0.748144,-9.80118,5.20295,-2.93659,-48.76
2023-03-11 22:39:27:891,-0.622099,-0.750628,-9.8111,5.19304,-2.94923,-48.7563
2023-03-11 22:39:27:901,-0.61851,-0.761303,-9.79217,5.18663,-2.95748,-48.7529
2023-03-11 22:39:27:911,-0.58875,-0.78217,-9.77574,5.18407,-2.9663,-48.7537
2023-03-11 22:39:27:921,-0.566023,-0.786877,-9.77408,5.18184,-2.97615,-48.7575
2023-03-11 22:39:27:931,-0.576952,-0.804614,-9.75522,5.18062,-2.98457,-48.7643
2023-03-11 22:39:27:941,-0.576381,-0.823631,-9.73727,5.1816,-2.99429,-48.7666
2023-03-11 22:39:27:951,-0.586838,-0.836625,-9.74773,5.18181,-3.00278,-48.7716
2023-03-11 22:39:27:961,-0.569304,-0.843957,-9.74309,5.17981,-3.01041,-48.778
2023-03-11 22:39:27:971,-0.553045,-0.840217,-9.72696,5.1761,-3.01639,-48.7824
2023-03-11 22:39:27:981,-0.565477,-0.822532,-9.73001,5.17222,-3.02415,-48.7866
2023-03-11 22:39:27:991,-0.613979,-0.821189,-9.74063,5.16705,-3.03152,-48.794
2023-03-11 22:39:28:1,-0.634011,-0.792079,-9.73829,5.16388,-3.0358,-48.8065
2023-03-11 22:39:28:11,-0.583336,-0.799719,-9.74389,5.1591,-3.03494,-48.8201
2023-03-11 22:39:28:21,-0.530606,-0.815208,-9.74957,5.15777,-3.0395,-48.8316
2023-03-11 22:39:28:31,-0.547892,-0.803192,-9.73946,5.15747,-3.04321,-48.8423
2023-03-11 22:39:28:41,-0.566833,-0.805578,-9.73592,5.15929,-3.04882,-48.8528
2023-03-11 22:39:28:51,-0.576236,-0.819694,-9.736,5.16158,-3.0547,-48.8644
2023-03-11 22:39:28:61,-0.572594,-0.831523,-9.72112,5.16602,-3.05574,-48.8745
2023-03-11 22:39:28:71,-0.554281,-0.834443,-9.71586,5.1653,-3.05553,-48.8856
2023-03-11 22:39:28:81,-0.527109,-0.847429,-9.72809,5.16976,-3.05373,-48.8907
2023-03-11 22:39:28:91,-0.509059,-0.84747,-9.73436,5.16989,-3.05186,-48.8981
2023-03-11 22:39:28:101,-0.49374,-0.847429,-9.74029,5.17266,-3.05047,-48.9017
2023-03-11 22:39:28:111,-0.499999,-0.845971,-9.74818,5.17142,-3.04951,-48.9046
2023-03-11 22:39:28:121,-0.488532,-0.845362,-9.76357,5.17626,-3.05081,-48.906
2023-03-11 22:39:28:131,-0.496196,-0.843935,-9.76511,5.17771,-3.05396,-48.9096
2023-03-11 22:39:28:141,-0.494537,-0.859289,-9.76011,5.18137,-3.06169,-48.9133
2023-03-11 22:39:28:151,-0.494844,-0.860074,-9.74735,5.18474,-3.07242,-48.9125
2023-03-11 22:39:28:161,-0.487352,-0.866114,-9.74108,5.18912,-3.07918,-48.9112
2023-03-11 22:39:28:171,-0.499725,-0.863677,-9.73617,5.19245,-3.09164,-48.9082
2023-03-11 22:39:28:181,-0.531528,-0.858802,-9.72605,5.19454,-3.10523,-48.9034
2023-03-11 22:39:28:191,-0.550447,-0.860196,-9.7187,5.19986,-3.11748,-48.8971
2023-03-11 22:39:28:201,-0.557177,-0.867844,-9.73295,5.20839,-3.12913,-48.894
2023-03-11 22:39:28:211,-0.554344,-0.87274,-9.72354,5.21296,-3.13887,-48.8907
2023-03-11 22:39:28:221,-0.564258,-0.876801,-9.71912,5.21704,-3.14792,-48.8835
2023-03-11 22:39:28:231,-0.598039,-0.873107,-9.71635,5.21805,-3.15769,-48.8806
2023-03-11 22:39:28:241,-0.607059,-0.864567,-9.71037,5.2183,-3.16499,-48.8758
2023-03-11 22:39:28:251,-0.614601,-0.864713,-9.70818,5.22178,-3.17118,-48.8743
2023-03-11 22:39:28:261,-0.617713,-0.876225,-9.70412,5.21871,-3.17332,-48.8733
2023-03-11 22:39:28:271,-0.629599,-0.872906,-9.70913,5.21857,-3.17521,-48.8733
2023-03-11 22:39:28:281,-0.62757,-0.861118,-9.71927,5.21584,-3.17614,-48.875
2023-03-11 22:39:28:291,-0.627572,-0.845147,-9.72787,5.21417,-3.17645,-48.8785
2023-03-11 22:39:28:301,-0.606388,-0.838576,-9.72918,5.21512,-3.17323,-48.8928
2023-03-11 22:39:28:311,-0.583679,-0.847166,-9.72174,5.21622,-3.16806,-48.9056
2023-03-11 22:39:28:321,-0.567401,-0.846483,-9.72735,5.21673,-3.16607,-48.9217
2023-03-11 22:39:28:331,-0.545339,-0.847907,-9.7365,5.21835,-3.16274,-48.9394
2023-03-11 22:39:28:341,-0.53771,-0.843951,-9.73385,5.2168,-3.16028,-48.9545
2023-03-11 22:39:28:351,-0.512599,-0.868615,-9.74161,5.21727,-3.15952,-48.9673
2023-03-11 22:39:28:361,-0.50282,-0.882272,-9.73572,5.2202,-3.15952,-48.9779
2023-03-11 22:39:28:371,-0.502792,-0.876918,-9.72739,5.21955,-3.15332,-48.9872
2023-03-11 22:39:28:381,-0.497454,-0.881653,-9.74892,5.22267,-3.15026,-48.9921
2023-03-11 22:39:28:391,-0.510666,-0.874826,-9.7571,5.22483,-3.14664,-48.9958
2023-03-11 22:39:28:401,-0.54232,-0.862549,-9.75367,5.22825,-3.14883,-48.9946
2023-03-11 22:39:28:411,-0.540149,-0.862947,-9.7433,5.22854,-3.14581,-48.9971
2023-03-11 22:39:28:421,-0.52037,-0.866735,-9.75744,5.2341,-3.1415,-48.9941
2023-03-11 22:39:28:431,-0.530023,-0.859156,-9.75122,5.23925,-3.1436,-48.991
2023-03-11 22:39:28:441,-0.53301,-0.866591,-9.73817,5.2467,-3.14258,-48.9862
2023-03-11 22:39:28:451,-0.527453,-0.890774,-9.73485,5.25533,-3.14362,-48.9826
2023-03-11 22:39:28:461,-0.538689,-0.912876,-9.76156,5.26228,-3.14488,-48.9794
2023-03-11 22:39:28:471,-0.5459,-0.91294,-9.76936,5.26996,-3.14576,-48.9817
2023-03-11 22:39:28:481,-0.510684,-0.891873,-9.77397,5.27615,-3.15004,-48.9834
2023-03-11 22:39:28:491,-0.460962,-0.902237,-9.75886,5.28353,-3.15592,-48.9836
2023-03-11 22:39:28:501,-0.476549,-0.922531,-9.69748,5.29154,-3.16489,-48.9788
2023-03-11 22:39:28:511,-0.562739,-0.937106,-9.64936,5.29219,-3.17991,-48.9731
2023-03-11 22:39:28:521,-0.641615,-0.916707,-9.62932,5.29018,-3.19375,-48.9708
2023-03-11 22:39:28:531,-0.659801,-0.890823,-9.62992,5.28527,-3.20082,-48.9738
2023-03-11 22:39:28:541,-0.639779,-0.86251,-9.65031,5.27318,-3.20678,-48.9781
2023-03-11 22:39:28:551,-0.632659,-0.850457,-9.66782,5.26546,-3.2103,-48.9803
2023-03-11 22:39:28:561,-0.618692,-0.82298,-9.70235,5.25439,-3.20638,-48.9865
2023-03-11 22:39:28:571,-0.600056,-0.794935,-9.73595,5.24416,-3.20291,-48.9939
2023-03-11 22:39:28:581,-0.601843,-0.785518,-9.74151,5.23501,-3.19817,-49.0013
2023-03-11 22:39:28:591,-0.60783,-0.781042,-9.74317,5.22913,-3.19286,-49.0115
2023-03-11 22:39:28:601,-0.61641,-0.781748,-9.74039,5.22983,-3.18957,-49.0219
2023-03-11 22:39:28:611,-0.582656,-0.796196,-9.73418,5.23076,-3.18496,-49.0347
2023-03-11 22:39:28:621,-0.538428,-0.830466,-9.74194,5.22867,-3.17973,-49.0451
2023-03-11 22:39:28:631,-0.532381,-0.847224,-9.74248,5.22783,-3.17652,-49.0539
2023-03-11 22:39:28:641,-0.547233,-0.845118,-9.77001,5.22103,-3.1731,-49.0625
2023-03-11 22:39:28:651,-0.547655,-0.836352,-9.77646,5.21877,-3.17156,-49.0729
2023-03-11 22:39:28:661,-0.535434,-0.834903,-9.79754,5.21577,-3.16594,-49.0786
2023-03-11 22:39:28:671,-0.550849,-0.806992,-9.82593,5.2126,-3.16146,-49.0826
2023-03-11 22:39:28:681,-0.594006,-0.803259,-9.81762,5.20809,-3.15664,-49.0849
2023-03-11 22:39:28:691,-0.640691,-0.801296,-9.79978,5.20888,-3.152,-49.0868
2023-03-11 22:39:28:701,-0.627393,-0.771584,-9.81442,5.20852,-3.13829,-49.0935
2023-03-11 22:39:28:711,-0.527423,-0.789938,-9.82998,5.21415,-3.12693,-49.1023
2023-03-11 22:39:28:721,-0.480071,-0.82365,-9.81733,5.22462,-3.12089,-49.1079
2023-03-11 22:39:28:731,-0.530927,-0.829082,-9.77042,5.23961,-3.11839,-49.1099
2023-03-11 22:39:28:741,-0.56574,-0.850615,-9.7332,5.25063,-3.11074,-49.1116
2023-03-11 22:39:28:751,-0.568264,-0.86612,-9.70623,5.26991,-3.10721,-49.1171
2023-03-11 22:39:28:761,-0.5568,-0.880578,-9.67958,5.28283,-3.10051,-49.1232
2023-03-11 22:39:28:771,-0.529623,-0.914049,-9.67644,5.29896,-3.09092,-49.1316
2023-03-11 22:39:28:781,-0.52147,-0.921429,-9.66721,5.31213,-3.08292,-49.1401
2023-03-11 22:39:28:791,-0.497317,-0.918659,-9.6833,5.32037,-3.07601,-49.1476
2023-03-11 22:39:28:801,-0.502754,-0.905158,-9.69994,5.32518,-3.06959,-49.1516
2023-03-11 22:39:28:811,-0.521913,-0.892039,-9.70266,5.33143,-3.06069,-49.1566
2023-03-11 22:39:28:821,-0.514269,-0.89003,-9.72271,5.34002,-3.05298,-49.1603
2023-03-11 22:39:28:831,-0.517778,-0.895641,-9.72273,5.34561,-3.04645,-49.166
2023-03-11 22:39:28:841,-0.542935,-0.893459,-9.70827,5.35213,-3.04086,-49.1735
2023-03-11 22:39:28:851,-0.549062,-0.877601,-9.72071,5.35858,-3.03662,-49.1817
2023-03-11 22:39:28:861,-0.532002,-0.893726,-9.73307,5.36292,-3.0299,-49.1922
2023-03-11 22:39:28:871,-0.514563,-0.885342,-9.72809,5.36791,-3.02775,-49.2015
2023-03-11 22:39:28:881,-0.530974,-0.887933,-9.73051,5.36861,-3.02906,-49.2114
2023-03-11 22:39:28:891,-0.54714,-0.88214,-9.74774,5.37091,-3.02906,-49.2221
2023-03-11 22:39:28:901,-0.54023,-0.886496,-9.74097,5.37668,-3.02695,-49.2343
2023-03-11 22:39:28:911,-0.52015,-0.920628,-9.72948,5.38287,-3.02226,-49.2415
2023-03-11 22:39:28:921,-0.53371,-0.91673,-9.72205,5.38288,-3.01845,-49.2483
2023-03-11 22:39:28:931,-0.550384,-0.899821,-9.72196,5.38203,-3.01604,-49.2558
2023-03-11 22:39:28:941,-0.565112,-0.894912,-9.70837,5.38547,-3.00972,-49.2624
2023-03-11 22:39:28:951,-0.556815,-0.900461,-9.70112,5.38829,-3.00195,-49.2678
2023-03-11 22:39:28:961,-0.553527,-0.909833,-9.72082,5.3913,-2.99036,-49.2791
2023-03-11 22:39:28:971,-0.552632,-0.905628,-9.7263,5.39387,-2.98009,-49.2873
2023-03-11 22:39:28:981,-0.547402,-0.913282,-9.72136,5.39539,-2.96572,-49.3001
2023-03-11 22:39:28:991,-0.531843,-0.914206,-9.71714,5.39581,-2.95247,-49.3136
2023-03-11 22:39:29:1,-0.515477,-0.917544,-9.70398,5.39478,-2.94149,-49.3264
2023-03-11 22:39:29:11,-0.493459,-0.928277,-9.6833,5.39152,-2.93146,-49.339
2023-03-11 22:39:29:21,-0.477121,-0.93365,-9.67444,5.38623,-2.92072,-49.3549
2023-03-11 22:39:29:31,-0.471505,-0.934237,-9.67773,5.38046,-2.91198,-49.3724
2023-03-11 22:39:29:41,-0.47666,-0.947314,-9.67851,5.37274,-2.90196,-49.3867
2023-03-11 22:39:29:51,-0.494024,-0.955939,-9.67334,5.36293,-2.89431,-49.4003
2023-03-11 22:39:29:61,-0.496614,-0.936921,-9.67105,5.34676,-2.88805,-49.4152
2023-03-11 22:39:29:71,-0.481994,-0.919276,-9.70205,5.33008,-2.88117,-49.432
2023-03-11 22:39:29:81,-0.464184,-0.88844,-9.74825,5.31198,-2.86928,-49.4488
2023-03-11 22:39:29:91,-0.447586,-0.858238,-9.76236,5.29812,-2.8598,-49.4599
2023-03-11 22:39:29:101,-0.40764,-0.860186,-9.7674,5.28158,-2.84919,-49.4729
2023-03-11 22:39:29:111,-0.373862,-0.890335,-9.7598,5.26831,-2.83793,-49.4795
2023-03-11 22:39:29:121,-0.378103,-0.894421,-9.74911,5.25722,-2.82905,-49.4814
2023-03-11 22:39:29:131,-0.392366,-0.891788,-9.73948,5.24386,-2.82209,-49.4786
2023-03-11 22:39:29:141,-0.400043,-0.886503,-9.72936,5.23461,-2.81194,-49.4717
2023-03-11 22:39:29:151,-0.408391,-0.903602,-9.74226,5.22256,-2.80693,-49.4652
2023-03-11 22:39:29:161,-0.42294,-0.902314,-9.75096,5.21051,-2.80067,-49.4581
2023-03-11 22:39:29:171,-0.416274,-0.88208,-9.76808,5.19719,-2.79861,-49.4489
2023-03-11 22:39:29:181,-0.37017,-0.882766,-9.78707,5.18432,-2.79631,-49.4406
2023-03-11 22:39:29:191,-0.364299,-0.883573,-9.80847,5.17333,-2.79916,-49.4277
2023-03-11 22:39:29:201,-0.431954,-0.874901,-9.8027,5.16413,-2.81201,-49.4184
2023-03-11 22:39:29:211,-0.49895,-0.862569,-9.74898,5.156,-2.82722,-49.4065
2023-03-11 22:39:29:221,-0.540851,-0.845698,-9.70091,5.14631,-2.83531,-49.4014
2023-03-11 22:39:29:231,-0.533576,-0.828961,-9.69336,5.13725,-2.84193,-49.402
2023-03-11 22:39:29:241,-0.509007,-0.810355,-9.70467,5.12378,-2.84446,-49.4022
2023-03-11 22:39:29:251,-0.487485,-0.79184,-9.72681,5.10868,-2.84611,-49.4003
2023-03-11 22:39:29:261,-0.500785,-0.789708,-9.75096,5.09258,-2.84491,-49.397
2023-03-11 22:39:29:271,-0.539992,-0.773867,-9.75281,5.08037,-2.84737,-49.3916
2023-03-11 22:39:29:281,-0.568293,-0.767418,-9.74704,5.0706,-2.84834,-49.39
2023-03-11 22:39:29:291,-0.577153,-0.778323,-9.73585,5.0667,-2.84875,-49.389
2023-03-11 22:39:29:301,-0.562142,-0.798758,-9.74596,5.06452,-2.8475,-49.3904
2023-03-11 22:39:29:311,-0.545213,-0.814525,-9.74363,5.06028,-2.84742,-49.3895
2023-03-11 22:39:29:321,-0.544586,-0.807919,-9.73985,5.05299,-2.84486,-49.3897
2023-03-11 22:39:29:331,-0.541316,-0.814569,-9.75982,5.04832,-2.84515,-49.3949
2023-03-11 22:39:29:341,-0.528392,-0.809271,-9.77037,5.04358,-2.84322,-49.3992
2023-03-11 22:39:29:351,-0.498053,-0.79246,-9.77532,5.0372,-2.84448,-49.4032
2023-03-11 22:39:29:361,-0.530713,-0.768608,-9.78881,5.03144,-2.84344,-49.4106
2023-03-11 22:39:29:371,-0.559716,-0.775284,-9.77938,5.02495,-2.84371,-49.4137
2023-03-11 22:39:29:380,-0.583972,-0.755496,-9.79035,5.0194,-2.84557,-49.4213
2023-03-11 22:39:29:390,-0.551285,-0.728365,-9.8185,5.01996,-2.83877,-49.4334
2023-03-11 22:39:29:400,-0.465181,-0.749822,-9.84088,5.02098,-2.83409,-49.4449
2023-03-11 22:39:29:410,-0.456531,-0.754291,-9.83859,5.02594,-2.83599,-49.4497
2023-03-11 22:39:29:420,-0.482673,-0.737362,-9.82509,5.03615,-2.8411,-49.4567
2023-03-11 22:39:29:430,-0.482306,-0.756188,-9.81283,5.0514,-2.84545,-49.4603
2023-03-11 22:39:29:441,-0.460968,-0.77791,-9.76198,5.06823,-2.84565,-49.4622
2023-03-11 22:39:29:451,-0.449003,-0.814688,-9.71801,5.08782,-2.84231,-49.4545
2023-03-11 22:39:29:461,-0.453885,-0.837168,-9.70116,5.10909,-2.84013,-49.4455
2023-03-11 22:39:29:471,-0.473765,-0.842605,-9.70872,5.12405,-2.84051,-49.4351
2023-03-11 22:39:29:481,-0.481537,-0.81331,-9.73476,5.13901,-2.8403,-49.4225
2023-03-11 22:39:29:491,-0.487423,-0.807446,-9.76384,5.154,-2.83082,-49.4044
2023-03-11 22:39:29:501,-0.475001,-0.805069,-9.77852,5.16875,-2.82243,-49.3836
2023-03-11 22:39:29:511,-0.474369,-0.801858,-9.78852,5.18661,-2.81357,-49.365
2023-03-11 22:39:29:521,-0.477656,-0.80459,-9.77905,5.20445,-2.80992,-49.3434
2023-03-11 22:39:29:531,-0.49672,-0.821367,-9.74916,5.22837,-2.80647,-49.3221
2023-03-11 22:39:29:541,-0.515495,-0.857382,-9.72979,5.25047,-2.8023,-49.3022
2023-03-11 22:39:29:551,-0.507903,-0.86307,-9.71985,5.27104,-2.80106,-49.2855
2023-03-11 22:39:29:561,-0.505612,-0.865776,-9.71694,5.29259,-2.80176,-49.2682
2023-03-11 22:39:29:571,-0.500121,-0.872121,-9.71892,5.31406,-2.80332,-49.2542
2023-03-11 22:39:29:581,-0.537472,-0.863221,-9.71646,5.33155,-2.80647,-49.2445
2023-03-11 22:39:29:591,-0.589182,-0.849286,-9.7362,5.3507,-2.81558,-49.2408
2023-03-11 22:39:29:601,-0.628795,-0.857828,-9.74994,5.3708,-2.82791,-49.2467
2023-03-11 22:39:29:611,-0.637513,-0.860916,-9.7345,5.38956,-2.83983,-49.2602
2023-03-11 22:39:29:621,-0.640091,-0.868431,-9.74158,5.40994,-2.85041,-49.2753
2023-03-11 22:39:29:631,-0.615517,-0.872732,-9.73971,5.43206,-2.85865,-49.2965
2023-03-11 22:39:29:641,-0.563624,-0.889877,-9.75168,5.45195,-2.86232,-49.3211
2023-03-11 22:39:29:651,-0.517743,-0.902078,-9.74536,5.47469,-2.86105,-49.3397
2023-03-11 22:39:29:661,-0.475316,-0.918644,-9.76511,5.49624,-2.85431,-49.3571
2023-03-11 22:39:29:671,-0.440831,-0.927199,-9.75326,5.5165,-2.84939,-49.371
2023-03-11 22:39:29:681,-0.427942,-0.944176,-9.731,5.54018,-2.84401,-49.3773
2023-03-11 22:39:29:691,-0.429114,-0.957526,-9.70552,5.56493,-2.83775,-49.3822
2023-03-11 22:39:29:701,-0.4268,-0.956897,-9.69654,5.58708,-2.8324,-49.3807
2023-03-11 22:39:29:711,-0.426027,-0.957489,-9.69062,5.60661,-2.8192,-49.3746
2023-03-11 22:39:29:721,-0.413098,-0.96944,-9.69207,5.62882,-2.81236,-49.3665
2023-03-11 22:39:29:731,-0.419133,-0.971054,-9.67204,5.64629,-2.80428,-49.3544
2023-03-11 22:39:29:741,-0.428429,-0.973764,-9.66957,5.66369,-2.79742,-49.342
2023-03-11 22:39:29:751,-0.437657,-1.00279,-9.68028,5.67965,-2.78698,-49.327
2023-03-11 22:39:29:761,-0.43335,-1.01041,-9.69189,5.69271,-2.78125,-49.3112
2023-03-11 22:39:29:771,-0.458065,-1.00279,-9.71026,5.70637,-2.7761,-49.2937
2023-03-11 22:39:29:781,-0.468093,-0.989145,-9.72815,5.71893,-2.76949,-49.2768
2023-03-11 22:39:29:791,-0.439069,-1.00512,-9.74372,5.72971,-2.76484,-49.2638
2023-03-11 22:39:29:801,-0.450117,-1.01871,-9.73749,5.74377,-2.76117,-49.2511
2023-03-11 22:39:29:811,-0.468177,-1.01906,-9.70988,5.75598,-2.75307,-49.2366
2023-03-11 22:39:29:821,-0.445064,-1.03095,-9.69375,5.76936,-2.74941,-49.2218
2023-03-11 22:39:29:831,-0.434463,-1.0446,-9.69672,5.77965,-2.74492,-49.2058
2023-03-11 22:39:29:841,-0.437194,-1.0317,-9.7073,5.78571,-2.74379,-49.1872
2023-03-11 22:39:29:851,-0.405953,-0.996972,-9.72817,5.79304,-2.74287,-49.1701
2023-03-11 22:39:29:861,-0.355366,-0.998251,-9.76222,5.79872,-2.74323,-49.152
2023-03-11 22:39:29:871,-0.340591,-1.0057,-9.79349,5.80744,-2.75029,-49.1235
2023-03-11 22:39:29:881,-0.396741,-0.996626,-9.78776,5.81549,-2.76122,-49.0925
2023-03-11 22:39:29:891,-0.458288,-0.983412,-9.72413,5.82409,-2.77419,-49.0597
2023-03-11 22:39:29:901,-0.468377,-0.984798,-9.65398,5.83488,-2.7816,-49.0277
2023-03-11 22:39:29:911,-0.487443,-0.99433,-9.6517,5.8373,-2.78863,-48.9926
2023-03-11 22:39:29:921,-0.5141,-0.967266,-9.65481,5.84315,-2.79217,-48.9565
2023-03-11 22:39:29:931,-0.492729,-0.963821,-9.66673,5.84522,-2.79155,-48.9212
2023-03-11 22:39:29:941,-0.464598,-0.949002,-9.71101,5.84755,-2.78724,-48.8779
2023-03-11 22:39:29:951,-0.498241,-0.906628,-9.75534,5.84455,-2.78492,-48.8388
2023-03-11 22:39:29:961,-0.546783,-0.895809,-9.77372,5.84567,-2.78435,-48.7983
2023-03-11 22:39:29:971,-0.63809,-0.87887,-9.79631,5.85329,-2.78971,-48.7606
2023-03-11 22:39:29:981,-0.732456,-0.863843,-9.78671,5.86272,-2.7963,-48.7364
2023-03-11 22:39:29:991,-0.764996,-0.872532,-9.76775,5.87717,-2.80198,-48.729
2023-03-11 22:39:30:1,-0.757612,-0.874725,-9.7614,5.89326,-2.80536,-48.7303
2023-03-11 22:39:30:11,-0.739512,-0.88181,-9.76682,5.91194,-2.80258,-48.7411
2023-03-11 22:39:30:21,-0.66952,-0.939827,-9.73611,5.93047,-2.79591,-48.7593
2023-03-11 22:39:30:31,-0.575263,-0.989048,-9.67914,5.94689,-2.79126,-48.7809
2023-03-11 22:39:30:41,-0.526557,-1.00504,-9.69693,5.96177,-2.78319,-48.7978
2023-03-11 22:39:30:51,-0.530255,-0.997708,-9.72331,5.977,-2.77109,-48.8142
2023-03-11 22:39:30:61,-0.517341,-1.00814,-9.70488,5.99133,-2.75514,-48.8281
2023-03-11 22:39:30:71,-0.46464,-1.0397,-9.66275,6.00253,-2.73786,-48.8398
2023-03-11 22:39:30:81,-0.385319,-1.07312,-9.65505,6.01455,-2.72218,-48.8483
2023-03-11 22:39:30:91,-0.324686,-1.07641,-9.65884,6.0209,-2.70794,-48.8498
2023-03-11 22:39:30:101,-0.336263,-1.07206,-9.68762,6.02691,-2.69469,-48.839
2023-03-11 22:39:30:111,-0.407404,-1.0464,-9.68279,6.0325,-2.68417,-48.8306
2023-03-11 22:39:30:121,-0.454716,-1.05274,-9.68032,6.036,-2.67954,-48.8274
2023-03-11 22:39:30:131,-0.432317,-1.04938,-9.68317,6.03713,-2.6683,-48.8177
2023-03-11 22:39:30:141,-0.407393,-1.05672,-9.69012,6.03954,-2.65693,-48.8067
2023-03-11 22:39:30:151,-0.384176,-1.05593,-9.69273,6.03693,-2.64724,-48.7952
2023-03-11 22:39:30:161,-0.372903,-1.04697,-9.70562,6.03576,-2.64082,-48.7814
2023-03-11 22:39:30:171,-0.376634,-1.04313,-9.71754,6.03474,-2.63603,-48.7656
2023-03-11 22:39:30:181,-0.405738,-1.03031,-9.7272,6.03819,-2.63302,-48.746
2023-03-11 22:39:30:191,-0.469748,-1.00298,-9.72399,6.03576,-2.63334,-48.7317
2023-03-11 22:39:30:201,-0.503571,-1.00868,-9.71297,6.03599,-2.63901,-48.7282
2023-03-11 22:39:30:211,-0.519309,-1.0018,-9.69281,6.03036,-2.6464,-48.7278
2023-03-11 22:39:30:221,-0.50513,-1.01452,-9.70052,6.02735,-2.65592,-48.736
2023-03-11 22:39:30:231,-0.47212,-1.02277,-9.69165,6.02501,-2.66536,-48.7473
2023-03-11 22:39:30:241,-0.454761,-1.03117,-9.68992,6.01594,-2.67542,-48.7634
2023-03-11 22:39:30:251,-0.415764,-1.0301,-9.67921,6.00712,-2.68957,-48.7825
2023-03-11 22:39:30:261,-0.385081,-1.05095,-9.68089,5.99926,-2.70274,-48.7973
2023-03-11 22:39:30:271,-0.358971,-1.03992,-9.70833,5.98902,-2.71317,-48.8089
2023-03-11 22:39:30:281,-0.344684,-1.01624,-9.71411,5.97413,-2.72161,-48.8111
2023-03-11 22:39:30:291,-0.35163,-1.04603,-9.6996,5.96279,-2.72801,-48.805
2023-03-11 22:39:30:301,-0.36187,-1.04242,-9.67785,5.94791,-2.73591,-48.7939
2023-03-11 22:39:30:311,-0.372927,-1.02431,-9.67799,5.93587,-2.74132,-48.7739
2023-03-11 22:39:30:321,-0.39711,-0.999297,-9.70805,5.91846,-2.74389,-48.7478
2023-03-11 22:39:30:331,-0.428584,-0.974185,-9.7348,5.90292,-2.74484,-48.7211
2023-03-11 22:39:30:341,-0.469986,-0.959017,-9.7307,5.88202,-2.74685,-48.6961
2023-03-11 22:39:30:351,-0.503513,-0.955634,-9.7268,5.8671,-2.74599,-48.6725
2023-03-11 22:39:30:361,-0.505133,-0.948471,-9.75409,5.85296,-2.74778,-48.6517
2023-03-11 22:39:30:371,-0.498671,-0.930052,-9.75685,5.83854,-2.74572,-48.6324
2023-03-11 22:39:30:381,-0.488468,-0.924411,-9.7539,5.82103,-2.7476,-48.618
2023-03-11 22:39:30:391,-0.49586,-0.905521,-9.74726,5.80334,-2.75026,-48.6055
2023-03-11 22:39:30:401,-0.522301,-0.895682,-9.75864,5.79037,-2.75604,-48.5989
2023-03-11 22:39:30:411,-0.530213,-0.898382,-9.77567,5.78063,-2.76052,-48.5926
2023-03-11 22:39:30:421,-0.555381,-0.888301,-9.75605,5.76992,-2.76526,-48.5875
2023-03-11 22:39:30:431,-0.568483,-0.882085,-9.75992,5.75896,-2.76442,-48.5874
2023-03-11 22:39:30:441,-0.522494,-0.862584,-9.81211,5.75007,-2.76828,-48.592
2023-03-11 22:39:30:451,-0.482819,-0.842713,-9.86765,5.74778,-2.76733,-48.5952
2023-03-11 22:39:30:461,-0.489681,-0.843627,-9.86084,5.74961,-2.77021,-48.5983
2023-03-11 22:39:30:471,-0.485685,-0.881474,-9.80948,5.75593,-2.77403,-48.6032
2023-03-11 22:39:30:481,-0.460305,-0.912055,-9.76377,5.76336,-2.77968,-48.6075
2023-03-11 22:39:30:491,-0.462535,-0.94735,-9.7355,5.77249,-2.78356,-48.6088
2023-03-11 22:39:30:501,-0.464391,-0.963644,-9.70675,5.784,-2.78813,-48.6129
2023-03-11 22:39:30:511,-0.431434,-0.963552,-9.67608,5.79237,-2.79277,-48.6114
2023-03-11 22:39:30:521,-0.417807,-1.00166,-9.67019,5.7962,-2.80049,-48.6089
2023-03-11 22:39:30:531,-0.42301,-1.02351,-9.66443,5.79813,-2.8108,-48.6047
2023-03-11 22:39:30:541,-0.433378,-0.998736,-9.67418,5.79549,-2.82269,-48.5977
2023-03-11 22:39:30:551,-0.410624,-0.97826,-9.73368,5.79357,-2.83159,-48.5918
2023-03-11 22:39:30:561,-0.375205,-0.978464,-9.75174,5.79461,-2.8459,-48.5783
2023-03-11 22:39:30:571,-0.402657,-0.977444,-9.73255,5.79386,-2.86612,-48.5592
2023-03-11 22:39:30:581,-0.461921,-0.980761,-9.70189,5.79593,-2.88656,-48.5409
2023-03-11 22:39:30:591,-0.509462,-0.968996,-9.66006,5.79352,-2.91161,-48.5193
2023-03-11 22:39:30:601,-0.550245,-0.95586,-9.649,5.78808,-2.93288,-48.4989
2023-03-11 22:39:30:611,-0.565123,-0.94642,-9.63022,5.7779,-2.9515,-48.4752
2023-03-11 22:39:30:621,-0.564233,-0.937308,-9.63344,5.76743,-2.96734,-48.4516
2023-03-11 22:39:30:631,-0.598724,-0.926097,-9.65416,5.75311,-2.9813,-48.4288
2023-03-11 22:39:30:641,-0.638372,-0.908873,-9.69449,5.73575,-2.99358,-48.4088
2023-03-11 22:39:30:651,-0.692643,-0.872516,-9.74864,5.71815,-3.00572,-48.3977
2023-03-11 22:39:30:661,-0.71833,-0.845383,-9.77374,5.70463,-3.01449,-48.3975
2023-03-11 22:39:30:671,-0.706298,-0.852273,-9.77367,5.6926,-3.01758,-48.4001
2023-03-11 22:39:30:681,-0.664073,-0.868799,-9.78758,5.68338,-3.01732,-48.4049
2023-03-11 22:39:30:691,-0.622049,-0.886241,-9.79613,5.67646,-3.01733,-48.4151
2023-03-11 22:39:30:701,-0.588492,-0.897337,-9.79212,5.67396,-3.02054,-48.4278
2023-03-11 22:39:30:711,-0.579441,-0.900671,-9.76761,5.67371,-3.02271,-48.4367
2023-03-11 22:39:30:721,-0.570852,-0.918908,-9.75187,5.67034,-3.02194,-48.4453
2023-03-11 22:39:30:731,-0.551208,-0.915335,-9.75753,5.66829,-3.01821,-48.4539
2023-03-11 22:39:30:741,-0.567942,-0.913981,-9.76856,5.66715,-3.01527,-48.46
2023-03-11 22:39:30:751,-0.604576,-0.922917,-9.7812,5.66678,-3.01318,-48.4665
2023-03-11 22:39:30:761,-0.588994,-0.892277,-9.79077,5.66882,-3.00445,-48.476
2023-03-11 22:39:30:771,-0.491858,-0.894843,-9.81701,5.67588,-2.99309,-48.484
2023-03-11 22:39:30:781,-0.444114,-0.90799,-9.79902,5.68346,-2.98487,-48.4864
2023-03-11 22:39:30:791,-0.485409,-0.916266,-9.77834,5.69558,-2.98442,-48.4879
2023-03-11 22:39:30:801,-0.525593,-0.915516,-9.74115,5.70738,-2.98193,-48.4859
2023-03-11 22:39:30:811,-0.523686,-0.930206,-9.72373,5.7223,-2.97598,-48.4872
2023-03-11 22:39:30:821,-0.495714,-0.957866,-9.69464,5.73917,-2.96967,-48.4891
2023-03-11 22:39:30:831,-0.464913,-0.999076,-9.68591,5.75573,-2.96615,-48.4843
2023-03-11 22:39:30:841,-0.472257,-1.00023,-9.66927,5.76859,-2.96131,-48.479
2023-03-11 22:39:30:851,-0.478347,-0.998528,-9.69755,5.77824,-2.95858,-48.4773
2023-03-11 22:39:30:861,-0.474653,-0.97836,-9.70231,5.78643,-2.95314,-48.4744
2023-03-11 22:39:30:871,-0.502894,-0.968873,-9.70759,5.79122,-2.95144,-48.4696
2023-03-11 22:39:30:881,-0.513565,-0.958126,-9.71678,5.79977,-2.94904,-48.4649
2023-03-11 22:39:30:891,-0.487316,-0.97149,-9.71528,5.80387,-2.94806,-48.4613
2023-03-11 22:39:30:901,-0.465146,-0.971824,-9.69725,5.80853,-2.95046,-48.4569
2023-03-11 22:39:30:911,-0.474957,-0.984813,-9.68637,5.81209,-2.95887,-48.4539
2023-03-11 22:39:30:921,-0.493934,-0.995701,-9.67314,5.81321,-2.96402,-48.4513
2023-03-11 22:39:30:931,-0.496976,-0.989888,-9.68839,5.81766,-2.97193,-48.4497
2023-03-11 22:39:30:941,-0.485305,-0.98891,-9.70775,5.81561,-2.97826,-48.4503
2023-03-11 22:39:30:951,-0.490112,-0.975275,-9.71677,5.81555,-2.98482,-48.4462
2023-03-11 22:39:30:961,-0.509785,-0.970399,-9.71814,5.81283,-2.99262,-48.4456
2023-03-11 22:39:30:971,-0.519825,-0.966132,-9.73543,5.80908,-2.99969,-48.4399
2023-03-11 22:39:30:981,-0.524756,-0.95172,-9.74786,5.80956,-3.007,-48.437
2023-03-11 22:39:30:991,-0.541296,-0.961542,-9.75234,5.80938,-3.01346,-48.4337
2023-03-11 22:39:31:1,-0.563919,-0.948671,-9.7456,5.81077,-3.01663,-48.4251
2023-03-11 22:39:31:11,-0.566597,-0.944168,-9.73301,5.81035,-3.01687,-48.4204
2023-03-11 22:39:31:21,-0.573559,-0.951723,-9.73517,5.81545,-3.01781,-48.4146
2023-03-11 22:39:31:31,-0.601837,-0.95517,-9.7231,5.81942,-3.01452,-48.4143
2023-03-11 22:39:31:41,-0.600664,-0.96182,-9.7333,5.82147,-3.01354,-48.413
2023-03-11 22:39:31:51,-0.604149,-0.956283,-9.74238,5.8259,-3.00787,-48.4173
2023-03-11 22:39:31:61,-0.597439,-0.936013,-9.76511,5.82946,-3.00397,-48.425
2023-03-11 22:39:31:71,-0.585958,-0.947162,-9.76664,5.83436,-2.99798,-48.4357
2023-03-11 22:39:31:81,-0.573307,-0.945903,-9.73951,5.84314,-2.99666,-48.4448
2023-03-11 22:39:31:91,-0.574644,-0.942884,-9.73294,5.84399,-2.99287,-48.4555
2023-03-11 22:39:31:101,-0.548182,-0.952716,-9.73017,5.85334,-2.98794,-48.4732
2023-03-11 22:39:31:111,-0.514875,-0.981815,-9.74213,5.86426,-2.97907,-48.4855
2023-03-11 22:39:31:121,-0.491393,-0.983738,-9.72257,5.87197,-2.97083,-48.5025
2023-03-11 22:39:31:131,-0.48536,-0.975105,-9.72665,5.88112,-2.96374,-48.5159
2023-03-11 22:39:31:141,-0.499878,-0.965797,-9.73466,5.89337,-2.9601,-48.5265
2023-03-11 22:39:31:151,-0.5063,-0.979984,-9.74466,5.90214,-2.95595,-48.5387
2023-03-11 22:39:31:161,-0.526104,-0.982105,-9.72748,5.913,-2.95196,-48.5493
2023-03-11 22:39:31:171,-0.527508,-0.978992,-9.70809,5.92191,-2.94779,-48.5545
2023-03-11 22:39:31:181,-0.513662,-0.992215,-9.73982,5.92908,-2.94358,-48.5613
2023-03-11 22:39:31:191,-0.522591,-0.983994,-9.7435,5.93745,-2.93329,-48.5652
2023-03-11 22:39:31:201,-0.522728,-0.983951,-9.70698,5.94845,-2.92679,-48.573
2023-03-11 22:39:31:211,-0.485445,-1.03302,-9.69877,5.95822,-2.91634,-48.5776
2023-03-11 22:39:31:221,-0.481342,-1.05391,-9.70592,5.96895,-2.91125,-48.5809
2023-03-11 22:39:31:231,-0.50324,-1.04183,-9.71793,5.97868,-2.90624,-48.5822
2023-03-11 22:39:31:241,-0.500379,-1.02075,-9.7597,5.98458,-2.89926,-48.5848
2023-03-11 22:39:31:251,-0.465948,-1.02201,-9.74894,5.99451,-2.89672,-48.5887
2023-03-11 22:39:31:261,-0.459479,-1.0481,-9.72315,6.00591,-2.8967,-48.5876
2023-03-11 22:39:31:271,-0.487632,-1.02601,-9.73652,6.01142,-2.89926,-48.5854
2023-03-11 22:39:31:281,-0.528672,-0.973239,-9.7938,6.01814,-2.90408,-48.5864
2023-03-11 22:39:31:291,-0.551103,-0.935099,-9.80504,6.02665,-2.90866,-48.5901
2023-03-11 22:39:31:301,-0.533291,-0.934384,-9.76595,6.04234,-2.90894,-48.5942
2023-03-11 22:39:31:311,-0.54282,-0.954894,-9.71154,6.05946,-2.90354,-48.6005
2023-03-11 22:39:31:321,-0.545672,-0.957172,-9.67433,6.07469,-2.90163,-48.6071
2023-03-11 22:39:31:331,-0.548179,-0.981375,-9.64221,6.08734,-2.89938,-48.6169
2023-03-11 22:39:31:341,-0.549671,-1.00246,-9.62196,6.10025,-2.90103,-48.6259
2023-03-11 22:39:31:351,-0.555204,-1.01706,-9.61136,6.1135,-2.90069,-48.6388
2023-03-11 22:39:31:361,-0.560039,-1.03579,-9.62859,6.12238,-2.90189,-48.6611
2023-03-11 22:39:31:371,-0.531653,-1.03304,-9.65867,6.13087,-2.89975,-48.68
2023-03-11 22:39:31:381,-0.484474,-1.03267,-9.69585,6.1339,-2.89942,-48.7015
2023-03-11 22:39:31:391,-0.472732,-1.03647,-9.71081,6.13937,-2.89705,-48.7206
2023-03-11 22:39:31:401,-0.50272,-1.03025,-9.71426,6.1426,-2.89454,-48.7405
2023-03-11 22:39:31:411,-0.487392,-1.03076,-9.70793,6.14133,-2.89037,-48.7608
2023-03-11 22:39:31:421,-0.45305,-1.04317,-9.69694,6.13977,-2.8844,-48.7785
2023-03-11 22:39:31:431,-0.490679,-1.04527,-9.68655,6.1338,-2.8804,-48.7896
2023-03-11 22:39:31:441,-0.53727,-1.05692,-9.65574,6.12881,-2.87757,-48.8034
2023-03-11 22:39:31:451,-0.572743,-1.03885,-9.61959,6.11935,-2.86959,-48.819
2023-03-11 22:39:31:461,-0.497573,-1.02886,-9.64737,6.10419,-2.85631,-48.8371
2023-03-11 22:39:31:471,-0.425374,-1.02122,-9.73159,6.08682,-2.84465,-48.8513
2023-03-11 22:39:31:481,-0.438037,-0.979493,-9.76761,6.07402,-2.83754,-48.8589
2023-03-11 22:39:31:491,-0.494541,-0.96327,-9.77068,6.05995,-2.83074,-48.8693
2023-03-11 22:39:31:501,-0.531474,-0.964192,-9.76326,6.04896,-2.82044,-48.879
2023-03-11 22:39:31:511,-0.524768,-0.982789,-9.76307,6.04198,-2.81576,-48.8956
2023-03-11 22:39:31:521,-0.508665,-1.0014,-9.75503,6.03429,-2.80631,-48.9081
2023-03-11 22:39:31:531,-0.485192,-1.00075,-9.73458,6.03249,-2.79675,-48.9229
2023-03-11 22:39:31:541,-0.463206,-1.01199,-9.70716,6.02631,-2.78872,-48.9355
2023-03-11 22:39:31:551,-0.45735,-1.01667,-9.70168,6.02284,-2.77974,-48.9474
2023-03-11 22:39:31:561,-0.456306,-1.01451,-9.72199,6.01597,-2.77358,-48.9581
2023-03-11 22:39:31:571,-0.442182,-0.993712,-9.71891,6.01136,-2.76683,-48.9713
2023-03-11 22:39:31:581,-0.427432,-1.0036,-9.73378,6.00333,-2.75746,-48.9808
2023-03-11 22:39:31:591,-0.431785,-0.996931,-9.76266,5.9973,-2.75341,-48.9915
2023-03-11 22:39:31:601,-0.42401,-0.987439,-9.76879,5.99414,-2.74704,-49.0009
2023-03-11 22:39:31:611,-0.429311,-0.979354,-9.74964,5.99496,-2.74308,-49.0107
2023-03-11 22:39:31:621,-0.437592,-1.00073,-9.74554,5.99567,-2.74242,-49.016
2023-03-11 22:39:31:631,-0.4373,-1.00504,-9.74268,5.99396,-2.74384,-49.0163
2023-03-11 22:39:31:641,-0.444042,-1.01423,-9.73818,5.9901,-2.74698,-49.0207
2023-03-11 22:39:31:651,-0.433143,-1.017,-9.7451,5.98528,-2.75082,-49.0236
2023-03-11 22:39:31:661,-0.443683,-0.998458,-9.75165,5.98528,-2.75399,-49.0275
2023-03-11 22:39:31:671,-0.453004,-0.999093,-9.75074,5.98625,-2.7568,-49.0289
2023-03-11 22:39:31:681,-0.4578,-1.01246,-9.73634,5.9895,-2.76069,-49.0277
2023-03-11 22:39:31:691,-0.476789,-1.00826,-9.7119,5.99314,-2.76783,-49.0284
2023-03-11 22:39:31:701,-0.506459,-1.00625,-9.6987,5.99123,-2.77163,-49.0312
2023-03-11 22:39:31:711,-0.524161,-0.99692,-9.71414,5.98891,-2.77574,-49.0333
2023-03-11 22:39:31:721,-0.522653,-0.99379,-9.72424,5.98776,-2.7799,-49.0332
2023-03-11 22:39:31:731,-0.505269,-0.986122,-9.73907,5.98636,-2.78148,-49.0332
2023-03-11 22:39:31:741,-0.49671,-0.993913,-9.75194,5.98578,-2.78138,-49.0407
2023-03-11 22:39:31:751,-0.499162,-0.986532,-9.75106,5.98871,-2.7816,-49.0485
2023-03-11 22:39:31:761,-0.499713,-0.986185,-9.72687,5.99265,-2.78077,-49.0555
2023-03-11 22:39:31:771,-0.490018,-1.00775,-9.71737,5.99908,-2.78127,-49.0657
2023-03-11 22:39:31:781,-0.48476,-1.01571,-9.72047,6.00425,-2.78052,-49.0744
2023-03-11 22:39:31:791,-0.475051,-1.02105,-9.72736,6.00813,-2.78333,-49.0853
2023-03-11 22:39:31:801,-0.476863,-1.00802,-9.71142,6.01042,-2.78407,-49.0932
2023-03-11 22:39:31:811,-0.471525,-1.00581,-9.69501,6.01418,-2.78766,-49.1048
2023-03-11 22:39:31:821,-0.464559,-1.01413,-9.69423,6.01502,-2.78636,-49.1142
2023-03-11 22:39:31:831,-0.486191,-1.00351,-9.71881,6.01607,-2.78898,-49.1262
2023-03-11 22:39:31:841,-0.486753,-1.00231,-9.74941,6.01906,-2.79346,-49.1393
2023-03-11 22:39:31:851,-0.487285,-1.01333,-9.73376,6.0222,-2.79396,-49.1503
2023-03-11 22:39:31:861,-0.463321,-1.02009,-9.72838,6.02687,-2.79514,-49.1649
2023-03-11 22:39:31:871,-0.470084,-1.02735,-9.71342,6.03114,-2.79836,-49.1772
2023-03-11 22:39:31:881,-0.487941,-1.00485,-9.69516,6.0341,-2.80204,-49.1913
2023-03-11 22:39:31:891,-0.463019,-1.02551,-9.70344,6.03721,-2.80209,-49.2086
2023-03-11 22:39:31:901,-0.456684,-1.04125,-9.69734,6.03503,-2.80652,-49.223
2023-03-11 22:39:31:911,-0.458504,-1.05074,-9.69005,6.02726,-2.81173,-49.2397
2023-03-11 22:39:31:921,-0.448685,-1.03017,-9.71647,6.02437,-2.81941,-49.2541
2023-03-11 22:39:31:931,-0.400377,-1.01213,-9.75959,6.01887,-2.82546,-49.2699
2023-03-11 22:39:31:941,-0.364787,-1.02158,-9.75074,6.01482,-2.83632,-49.2812
2023-03-11 22:39:31:951,-0.417469,-1.03216,-9.71557,6.00923,-2.85609,-49.29
2023-03-11 22:39:31:961,-0.519289,-0.99929,-9.7098,6.00486,-2.87494,-49.2989
2023-03-11 22:39:31:971,-0.566174,-0.997519,-9.68595,5.99956,-2.89344,-49.314
2023-03-11 22:39:31:981,-0.568418,-0.983863,-9.65126,5.99091,-2.90786,-49.3315
2023-03-11 22:39:31:991,-0.543866,-0.984164,-9.6606,5.98152,-2.92167,-49.3481
2023-03-11 22:39:32:1,-0.514681,-0.970116,-9.64913,5.96573,-2.93337,-49.3605
2023-03-11 22:39:32:11,-0.526139,-0.957736,-9.66522,5.9498,-2.93935,-49.3679
2023-03-11 22:39:32:21,-0.548632,-0.937494,-9.70015,5.93529,-2.94233,-49.3754
2023-03-11 22:39:32:31,-0.575676,-0.91253,-9.73602,5.92156,-2.94787,-49.3838
2023-03-11 22:39:32:41,-0.582387,-0.904119,-9.7674,5.90937,-2.94978,-49.3951
2023-03-11 22:39:32:51,-0.573548,-0.906467,-9.7915,5.89845,-2.94845,-49.4093
2023-03-11 22:39:32:61,-0.550081,-0.902374,-9.80233,5.89282,-2.94635,-49.4247
2023-03-11 22:39:32:71,-0.535715,-0.908448,-9.80073,5.89078,-2.94236,-49.4428
2023-03-11 22:39:32:81,-0.53158,-0.932439,-9.78289,5.88954,-2.94008,-49.4539
2023-03-11 22:39:32:91,-0.524242,-0.938302,-9.76402,5.89084,-2.93671,-49.466
2023-03-11 22:39:32:101,-0.504079,-0.933629,-9.75192,5.88927,-2.92988,-49.4828
2023-03-11 22:39:32:111,-0.489566,-0.935366,-9.77025,5.89143,-2.92783,-49.4928
2023-03-11 22:39:32:121,-0.519491,-0.942413,-9.77769,5.89469,-2.92462,-49.501
2023-03-11 22:39:32:131,-0.563023,-0.945023,-9.76041,5.89795,-2.92277,-49.508
2023-03-11 22:39:32:141,-0.565148,-0.9236,-9.76854,5.90208,-2.91651,-49.5204
2023-03-11 22:39:32:151,-0.491627,-0.908901,-9.82059,5.90661,-2.9053,-49.5322
2023-03-11 22:39:32:161,-0.437333,-0.923567,-9.85403,5.9186,-2.90079,-49.5407
2023-03-11 22:39:32:171,-0.499781,-0.911481,-9.82682,5.93431,-2.90458,-49.5468
2023-03-11 22:39:32:181,-0.550176,-0.921535,-9.7763,5.95339,-2.90821,-49.5504
2023-03-11 22:39:32:191,-0.574051,-0.957493,-9.72864,5.97615,-2.90478,-49.5619
2023-03-11 22:39:32:201,-0.564603,-0.979712,-9.7098,5.99939,-2.90162,-49.5723
2023-03-11 22:39:32:211,-0.527768,-0.996063,-9.7118,6.02209,-2.89367,-49.5818
2023-03-11 22:39:32:221,-0.498229,-1.00676,-9.70776,6.04231,-2.88593,-49.5889
2023-03-11 22:39:32:231,-0.505706,-1.01039,-9.71009,6.06005,-2.88015,-49.5962
2023-03-11 22:39:32:241,-0.548771,-1.00585,-9.722,6.07892,-2.87662,-49.6037
2023-03-11 22:39:32:251,-0.55589,-0.997911,-9.72075,6.10157,-2.86958,-49.6131
2023-03-11 22:39:32:261,-0.533697,-1.02896,-9.69356,6.12427,-2.86471,-49.6254
2023-03-11 22:39:32:271,-0.50189,-1.061,-9.68253,6.14311,-2.85842,-49.6385
2023-03-11 22:39:32:281,-0.502305,-1.06439,-9.6649,6.16303,-2.8523,-49.6433
2023-03-11 22:39:32:291,-0.511237,-1.05907,-9.63943,6.18055,-2.84867,-49.6542
2023-03-11 22:39:32:301,-0.525749,-1.06855,-9.63047,6.19493,-2.84721,-49.6669
2023-03-11 22:39:32:311,-0.526581,-1.07163,-9.63596,6.2035,-2.84332,-49.6819
2023-03-11 22:39:32:321,-0.510565,-1.05913,-9.64682,6.21248,-2.83958,-49.6965
2023-03-11 22:39:32:331,-0.486432,-1.05871,-9.67783,6.21981,-2.83873,-49.7088
2023-03-11 22:39:32:341,-0.499293,-1.06139,-9.71169,6.22657,-2.83718,-49.7221
2023-03-11 22:39:32:351,-0.508551,-1.03785,-9.70498,6.23329,-2.83328,-49.7354
2023-03-11 22:39:32:361,-0.499815,-1.04127,-9.71179,6.23932,-2.8274,-49.7448
2023-03-11 22:39:32:371,-0.485132,-1.04751,-9.72108,6.24592,-2.81979,-49.7548
2023-03-11 22:39:32:381,-0.495021,-1.05389,-9.72679,6.25158,-2.8121,-49.7657
2023-03-11 22:39:32:391,-0.509415,-1.05227,-9.71423,6.25573,-2.80168,-49.7762
2023-03-11 22:39:32:401,-0.508826,-1.05813,-9.70447,6.26129,-2.79268,-49.787
2023-03-11 22:39:32:411,-0.499106,-1.05629,-9.71537,6.26536,-2.78084,-49.7957
2023-03-11 22:39:32:421,-0.488416,-1.05299,-9.72508,6.27301,-2.76729,-49.8015
2023-03-11 22:39:32:431,-0.494571,-1.0573,-9.72239,6.27951,-2.75379,-49.8091
2023-03-11 22:39:32:441,-0.484198,-1.06344,-9.73975,6.28441,-2.74582,-49.8173
2023-03-11 22:39:32:451,-0.477831,-1.06052,-9.74543,6.29335,-2.73721,-49.8247
2023-03-11 22:39:32:461,-0.452527,-1.05926,-9.76008,6.30026,-2.72613,-49.8317
2023-03-11 22:39:32:471,-0.443411,-1.05139,-9.73894,6.30783,-2.71242,-49.8385
2023-03-11 22:39:32:481,-0.446088,-1.07811,-9.72068,6.31707,-2.70051,-49.8447
2023-03-11 22:39:32:491,-0.442632,-1.08351,-9.71404,6.32906,-2.6857,-49.8486
2023-03-11 22:39:32:501,-0.4236,-1.09515,-9.7068,6.34106,-2.6743,-49.8506
2023-03-11 22:39:32:511,-0.405381,-1.11175,-9.70414,6.35493,-2.6605,-49.851
2023-03-11 22:39:32:521,-0.41435,-1.10945,-9.69662,6.36393,-2.64715,-49.8491
2023-03-11 22:39:32:531,-0.413,-1.09358,-9.70718,6.37107,-2.63616,-49.8479
2023-03-11 22:39:32:541,-0.401173,-1.09916,-9.74428,6.38082,-2.62251,-49.8485
2023-03-11 22:39:32:551,-0.402264,-1.10267,-9.75327,6.3907,-2.61354,-49.846
2023-03-11 22:39:32:561,-0.41089,-1.07655,-9.73391,6.39892,-2.60742,-49.8457
2023-03-11 22:39:32:571,-0.398379,-1.07255,-9.73521,6.40917,-2.60301,-49.8476
2023-03-11 22:39:32:581,-0.421074,-1.09636,-9.70263,6.42344,-2.59901,-49.846
2023-03-11 22:39:32:591,-0.445785,-1.12122,-9.68261,6.43553,-2.59672,-49.8401
2023-03-11 22:39:32:601,-0.43,-1.1116,-9.69385,6.44044,-2.59521,-49.8417
2023-03-11 22:39:32:611,-0.373249,-1.10839,-9.69584,6.44862,-2.59133,-49.8447
2023-03-11 22:39:32:621,-0.33507,-1.14074,-9.68236,6.45602,-2.59188,-49.8439
2023-03-11 22:39:32:631,-0.357524,-1.12873,-9.65208,6.45732,-2.60109,-49.841
2023-03-11 22:39:32:641,-0.427456,-1.09458,-9.62815,6.45658,-2.61134,-49.8379
2023-03-11 22:39:32:651,-0.481496,-1.05846,-9.61884,6.45029,-2.62627,-49.841
2023-03-11 22:39:32:661,-0.473801,-1.04574,-9.64471,6.44332,-2.63621,-49.8455
2023-03-11 22:39:32:671,-0.443576,-1.02744,-9.66403,6.43245,-2.63984,-49.8476
2023-03-11 22:39:32:681,-0.429844,-1.01786,-9.68021,6.42054,-2.64196,-49.8463
2023-03-11 22:39:32:691,-0.436269,-1.00931,-9.70477,6.41189,-2.63748,-49.844
2023-03-11 22:39:32:701,-0.440635,-0.992169,-9.72649,6.40491,-2.63497,-49.836
2023-03-11 22:39:32:711,-0.465111,-0.999633,-9.73658,6.40046,-2.63252,-49.826
2023-03-11 22:39:32:721,-0.49385,-1.01394,-9.7298,6.40148,-2.62715,-49.8178
2023-03-11 22:39:32:731,-0.479198,-1.0286,-9.71835,6.39995,-2.62106,-49.8109
2023-03-11 22:39:32:741,-0.456311,-1.04347,-9.72541,6.40171,-2.61693,-49.8046
2023-03-11 22:39:32:751,-0.445946,-1.04945,-9.73214,6.40211,-2.61373,-49.8017
2023-03-11 22:39:32:761,-0.434369,-1.05268,-9.74596,6.40321,-2.61268,-49.7988
2023-03-11 22:39:32:771,-0.442074,-1.05411,-9.73379,6.40449,-2.61638,-49.7984
2023-03-11 22:39:32:781,-0.456053,-1.06468,-9.7301,6.40058,-2.62313,-49.798
2023-03-11 22:39:32:791,-0.474781,-1.06193,-9.7369,6.39777,-2.63022,-49.7996
2023-03-11 22:39:32:801,-0.511149,-1.05697,-9.74652,6.39742,-2.63784,-49.8059
2023-03-11 22:39:32:811,-0.516316,-1.05966,-9.75157,6.39287,-2.64126,-49.813
2023-03-11 22:39:32:821,-0.504994,-1.02909,-9.74973,6.39567,-2.64161,-49.8213
2023-03-11 22:39:32:831,-0.450616,-1.04351,-9.7714,6.3937,-2.64109,-49.8322
2023-03-11 22:39:32:841,-0.383566,-1.05657,-9.77472,6.39678,-2.64412,-49.8352
2023-03-11 22:39:32:851,-0.41908,-1.05766,-9.74869,6.40508,-2.65124,-49.8329
2023-03-11 22:39:32:861,-0.477984,-1.06844,-9.7191,6.41084,-2.66215,-49.834
2023-03-11 22:39:32:871,-0.48999,-1.08677,-9.69341,6.42008,-2.66602,-49.8359
2023-03-11 22:39:32:881,-0.481343,-1.0956,-9.68485,6.42703,-2.67312,-49.8373
2023-03-11 22:39:32:891,-0.468662,-1.10021,-9.68042,6.43354,-2.67733,-49.8388
2023-03-11 22:39:32:901,-0.469996,-1.10034,-9.67618,6.43862,-2.67846,-49.8369
2023-03-11 22:39:32:911,-0.463252,-1.09301,-9.68327,6.44162,-2.67891,-49.8315
2023-03-11 22:39:32:921,-0.469965,-1.08797,-9.69475,6.44277,-2.67873,-49.8256
2023-03-11 22:39:32:931,-0.461798,-1.06429,-9.70096,6.44731,-2.6794,-49.8216
2023-03-11 22:39:32:941,-0.463291,-1.05095,-9.69663,6.44514,-2.68001,-49.819
2023-03-11 22:39:32:951,-0.45592,-1.05807,-9.70641,6.44575,-2.68436,-49.8155
2023-03-11 22:39:32:961,-0.455204,-1.0572,-9.7173,6.4478,-2.68562,-49.8133
2023-03-11 22:39:32:971,-0.456297,-1.06338,-9.71863,6.45223,-2.69183,-49.8065
2023-03-11 22:39:32:981,-0.468033,-1.06603,-9.70827,6.45574,-2.69877,-49.8045
2023-03-11 22:39:32:991,-0.494611,-1.06454,-9.69023,6.46,-2.70679,-49.7987
2023-03-11 22:39:33:1,-0.479158,-1.05089,-9.67796,6.46234,-2.71316,-49.7929
2023-03-11 22:39:33:11,-0.470031,-1.07456,-9.68086,6.46599,-2.72064,-49.7889
2023-03-11 22:39:33:21,-0.477391,-1.08203,-9.68196,6.46489,-2.73289,-49.7816
2023-03-11 22:39:33:31,-0.503299,-1.04592,-9.6973,6.46117,-2.74319,-49.7772
2023-03-11 22:39:33:41,-0.527242,-1.03122,-9.71359,6.45499,-2.75441,-49.7716
2023-03-11 22:39:33:51,-0.535857,-1.04367,-9.74744,6.44981,-2.76326,-49.768
2023-03-11 22:39:33:61,-0.549999,-1.04166,-9.75543,6.45264,-2.771,-49.7628
2023-03-11 22:39:33:71,-0.572624,-1.02217,-9.76397,6.45024,-2.77448,-49.7579
2023-03-11 22:39:33:81,-0.594157,-0.998866,-9.7861,6.45249,-2.77587,-49.7555
2023-03-11 22:39:33:91,-0.583315,-1.01582,-9.79107,6.45996,-2.77361,-49.7544
2023-03-11 22:39:33:101,-0.572381,-1.04444,-9.76126,6.46631,-2.77045,-49.7559
2023-03-11 22:39:33:111,-0.553089,-1.04733,-9.73174,6.47749,-2.76598,-49.753
2023-03-11 22:39:33:121,-0.548183,-1.04249,-9.72825,6.48402,-2.76369,-49.7549
2023-03-11 22:39:33:131,-0.535293,-1.04835,-9.72973,6.49346,-2.75678,-49.7556
2023-03-11 22:39:33:141,-0.519121,-1.06011,-9.7283,6.50294,-2.75162,-49.7581
2023-03-11 22:39:33:151,-0.525844,-1.05967,-9.71168,6.515,-2.74661,-49.7591
2023-03-11 22:39:33:161,-0.504338,-1.07576,-9.71012,6.53002,-2.7424,-49.759
2023-03-11 22:39:33:171,-0.510795,-1.08732,-9.69052,6.54316,-2.73881,-49.7643
2023-03-11 22:39:33:181,-0.523895,-1.08683,-9.67853,6.55962,-2.73055,-49.7688
2023-03-11 22:39:33:191,-0.524568,-1.11215,-9.68132,6.57358,-2.7242,-49.7747
2023-03-11 22:39:33:201,-0.507525,-1.1307,-9.6658,6.58779,-2.71439,-49.7824
2023-03-11 22:39:33:211,-0.505886,-1.1351,-9.66457,6.59757,-2.70608,-49.7904
2023-03-11 22:39:33:221,-0.485008,-1.13554,-9.68142,6.60539,-2.69616,-49.7927
2023-03-11 22:39:33:231,-0.483471,-1.12094,-9.71129,6.61149,-2.68944,-49.7973
2023-03-11 22:39:33:241,-0.512224,-1.10332,-9.71271,6.61731,-2.68201,-49.8034
2023-03-11 22:39:33:251,-0.48059,-1.09595,-9.72516,6.62328,-2.67053,-49.811
2023-03-11 22:39:33:261,-0.448487,-1.0919,-9.75238,6.63268,-2.65212,-49.8166
