Timestamp,Acceleration_x,Acceleration_y,Acceleration_z,roll,pitch,yaw
2023-03-10 00:02:03:606,-0.747642,4.39302,-8.72658,-26.7479,-4.67598,83.8735
2023-03-10 00:02:03:615,-0.868073,4.39171,-8.74317,-26.7139,-4.71407,83.9136
2023-03-10 00:02:03:625,-0.960892,4.37161,-8.73999,-26.679,-4.75003,83.9569
2023-03-10 00:02:03:635,-1.01136,4.3363,-8.74215,-26.638,-4.78637,83.9969
2023-03-10 00:02:03:645,-1.06736,4.30639,-8.75009,-26.5948,-4.81925,84.0357
2023-03-10 00:02:03:655,-1.13776,4.28012,-8.75369,-26.5491,-4.85743,84.073
2023-03-10 00:02:03:665,-1.22681,4.24771,-8.76096,-26.4986,-4.89875,84.1048
2023-03-10 00:02:03:675,-1.3158,4.22351,-8.75472,-26.4494,-4.94415,84.1338
2023-03-10 00:02:03:685,-1.40179,4.20379,-8.71826,-26.3952,-4.98425,84.1467
2023-03-10 00:02:03:695,-1.45095,4.1644,-8.68849,-26.3435,-5.0245,84.1429
2023-03-10 00:02:03:705,-1.44582,4.13195,-8.66404,-26.2873,-5.06017,84.121
2023-03-10 00:02:03:715,-1.39145,4.10457,-8.63201,-26.2333,-5.09078,84.0783
2023-03-10 00:02:03:725,-1.32542,4.0942,-8.60789,-26.1843,-5.11589,84.0162
2023-03-10 00:02:03:735,-1.30143,4.1069,-8.61616,-26.1449,-5.14007,83.9402
2023-03-10 00:02:03:745,-1.27804,4.15754,-8.65179,-26.1113,-5.17065,83.8528
2023-03-10 00:02:03:755,-1.27751,4.21783,-8.69374,-26.0814,-5.20397,83.7486
2023-03-10 00:02:03:765,-1.25828,4.26995,-8.71246,-26.0521,-5.24178,83.6371
2023-03-10 00:02:03:775,-1.21651,4.28452,-8.70834,-26.0273,-5.27874,83.5085
2023-03-10 00:02:03:785,-1.17482,4.29572,-8.69415,-25.9959,-5.31792,83.3701
2023-03-10 00:02:03:795,-1.10505,4.32095,-8.71002,-25.9671,-5.3544,83.22
2023-03-10 00:02:03:805,-0.978906,4.30949,-8.73797,-25.9287,-5.38325,83.0578
2023-03-10 00:02:03:815,-0.8304,4.28281,-8.75448,-25.8909,-5.40415,82.8944
2023-03-10 00:02:03:825,-0.693208,4.30124,-8.78473,-25.8552,-5.41991,82.734
2023-03-10 00:02:03:835,-0.659536,4.31035,-8.75932,-25.824,-5.44053,82.5876
2023-03-10 00:02:03:845,-0.787222,4.32252,-8.70117,-25.7976,-5.45737,82.4617
2023-03-10 00:02:03:855,-0.831636,4.37355,-8.71475,-25.7722,-5.47382,82.3398
2023-03-10 00:02:03:865,-0.801198,4.41102,-8.74399,-25.7492,-5.48299,82.2226
2023-03-10 00:02:03:875,-0.789093,4.42639,-8.75733,-25.7277,-5.48149,82.1059
2023-03-10 00:02:03:885,-0.78229,4.42323,-8.72047,-25.7014,-5.47819,81.9913
2023-03-10 00:02:03:895,-0.734765,4.42398,-8.69995,-25.6739,-5.46808,81.8822
2023-03-10 00:02:03:905,-0.666295,4.44887,-8.7188,-25.6477,-5.45439,81.7734
2023-03-10 00:02:03:915,-0.584099,4.4639,-8.75982,-25.6267,-5.44024,81.6719
2023-03-10 00:02:03:925,-0.514956,4.47753,-8.7852,-25.6024,-5.42547,81.5804
2023-03-10 00:02:03:935,-0.493111,4.49072,-8.82194,-25.5817,-5.41185,81.5028
2023-03-10 00:02:03:945,-0.496513,4.50464,-8.8563,-25.5553,-5.40299,81.4382
2023-03-10 00:02:03:955,-0.512638,4.50425,-8.90652,-25.522,-5.39092,81.3843
2023-03-10 00:02:03:965,-0.491346,4.4678,-8.92969,-25.4782,-5.37481,81.3424
2023-03-10 00:02:03:975,-0.445869,4.4088,-8.93083,-25.4261,-5.35835,81.3072
2023-03-10 00:02:03:985,-0.464044,4.34145,-8.88964,-25.3696,-5.34244,81.2871
2023-03-10 00:02:03:995,-0.555651,4.30836,-8.84032,-25.3097,-5.3299,81.2836
2023-03-10 00:02:04:5,-0.665504,4.29921,-8.83603,-25.2497,-5.31983,81.2901
2023-03-10 00:02:04:15,-0.706007,4.2946,-8.8803,-25.1934,-5.3084,81.3005
2023-03-10 00:02:04:25,-0.682632,4.27151,-8.89204,-25.1289,-5.29757,81.3056
2023-03-10 00:02:04:35,-0.692458,4.24278,-8.87483,-25.0597,-5.28938,81.3169
2023-03-10 00:02:04:45,-0.725509,4.20155,-8.85431,-24.9879,-5.28516,81.3343
2023-03-10 00:02:04:55,-0.77936,4.16591,-8.84692,-24.9154,-5.28671,81.3541
2023-03-10 00:02:04:65,-0.850114,4.14662,-8.8495,-24.8449,-5.29756,81.3727
2023-03-10 00:02:04:75,-0.938665,4.1393,-8.84593,-24.7727,-5.3167,81.3933
2023-03-10 00:02:04:85,-0.976069,4.12495,-8.80368,-24.6968,-5.34045,81.4059
2023-03-10 00:02:04:95,-0.971311,4.09078,-8.75454,-24.6205,-5.36811,81.4104
2023-03-10 00:02:04:105,-0.980775,4.03636,-8.72008,-24.543,-5.39806,81.4116
2023-03-10 00:02:04:115,-0.99888,4.01087,-8.69923,-24.4697,-5.43283,81.4086
2023-03-10 00:02:04:125,-1.00379,4.0039,-8.7381,-24.4006,-5.46799,81.3999
2023-03-10 00:02:04:135,-0.987767,4.02013,-8.78769,-24.3367,-5.50344,81.3823
2023-03-10 00:02:04:145,-0.927819,4.01363,-8.81173,-24.271,-5.5431,81.3643
2023-03-10 00:02:04:155,-0.852473,3.99705,-8.77268,-24.2095,-5.57985,81.3396
2023-03-10 00:02:04:165,-0.840025,3.99938,-8.76194,-24.1556,-5.62115,81.3221
2023-03-10 00:02:04:175,-0.888096,4.03971,-8.77966,-24.1113,-5.66503,81.3078
2023-03-10 00:02:04:185,-0.99037,4.09872,-8.83545,-24.0742,-5.71002,81.2997
2023-03-10 00:02:04:195,-1.07177,4.16159,-8.85975,-24.035,-5.75581,81.291
2023-03-10 00:02:04:205,-1.09715,4.15427,-8.86132,-23.9864,-5.80251,81.273
2023-03-10 00:02:04:215,-1.06168,4.11573,-8.86085,-23.9356,-5.85061,81.2527
2023-03-10 00:02:04:225,-1.05017,4.10607,-8.85564,-23.8858,-5.89831,81.2239
2023-03-10 00:02:04:235,-1.09487,4.11237,-8.83735,-23.8376,-5.95351,81.2013
2023-03-10 00:02:04:245,-1.18415,4.12022,-8.82193,-23.793,-6.01444,81.1803
2023-03-10 00:02:04:255,-1.19731,4.11694,-8.84142,-23.7448,-6.07928,81.1559
2023-03-10 00:02:04:265,-1.15107,4.08469,-8.84766,-23.6933,-6.15147,81.1241
2023-03-10 00:02:04:275,-1.12798,4.04734,-8.84707,-23.643,-6.22574,81.0923
2023-03-10 00:02:04:285,-1.15431,4.031,-8.8644,-23.5897,-6.29818,81.0667
2023-03-10 00:02:04:295,-1.19794,4.00745,-8.90092,-23.5326,-6.36833,81.0425
2023-03-10 00:02:04:305,-1.20964,3.99279,-8.93959,-23.4717,-6.43605,81.02
2023-03-10 00:02:04:315,-1.22983,3.96413,-8.95371,-23.407,-6.49224,80.9989
2023-03-10 00:02:04:325,-1.24701,3.91317,-8.93858,-23.331,-6.54441,80.9774
2023-03-10 00:02:04:335,-1.24916,3.85932,-8.90413,-23.252,-6.58288,80.955
2023-03-10 00:02:04:345,-1.23557,3.81126,-8.86855,-23.1715,-6.60854,80.9343
2023-03-10 00:02:04:355,-1.18172,3.779,-8.82472,-23.0923,-6.62541,80.9121
2023-03-10 00:02:04:365,-1.12417,3.73455,-8.77957,-23.0189,-6.62945,80.8896
2023-03-10 00:02:04:375,-1.10622,3.71774,-8.74648,-22.949,-6.62468,80.8716
2023-03-10 00:02:04:385,-1.14668,3.72287,-8.75501,-22.8908,-6.61326,80.8583
2023-03-10 00:02:04:395,-1.20895,3.75569,-8.84006,-22.8288,-6.58927,80.8491
2023-03-10 00:02:04:405,-1.20138,3.78455,-8.91316,-22.7733,-6.55686,80.8324
2023-03-10 00:02:04:415,-1.11312,3.79847,-8.99587,-22.7118,-6.51939,80.8102
2023-03-10 00:02:04:425,-1.05966,3.73538,-8.98646,-22.6469,-6.48854,80.7877
2023-03-10 00:02:04:435,-1.04568,3.69345,-8.94696,-22.5856,-6.46621,80.7599
2023-03-10 00:02:04:445,-1.01517,3.65528,-8.89798,-22.5263,-6.44838,80.7334
2023-03-10 00:02:04:455,-0.946383,3.67814,-8.93095,-22.4719,-6.42979,80.7059
2023-03-10 00:02:04:465,-0.895803,3.71071,-9.02456,-22.4205,-6.40302,80.6868
2023-03-10 00:02:04:475,-0.876401,3.63492,-8.97772,-22.3775,-6.39122,80.6757
2023-03-10 00:02:04:485,-0.89144,3.67622,-8.98589,-22.3462,-6.38141,80.6762
2023-03-10 00:02:04:495,-0.982536,3.80028,-9.15079,-22.3201,-6.37406,80.6894
2023-03-10 00:02:04:505,-1.02128,3.77949,-9.14338,-22.2864,-6.37746,80.7048
2023-03-10 00:02:04:515,-0.988893,3.7652,-9.12596,-22.2499,-6.38597,80.7247
2023-03-10 00:02:04:525,-1.05415,3.74481,-9.10513,-22.2072,-6.39029,80.7559
2023-03-10 00:02:04:535,-1.13595,3.73672,-9.06829,-22.1614,-6.39484,80.7874
2023-03-10 00:02:04:545,-1.16257,3.73501,-9.08034,-22.1082,-6.38896,80.8201
2023-03-10 00:02:04:555,-1.15585,3.65708,-9.03043,-22.0445,-6.38107,80.8504
2023-03-10 00:02:04:565,-1.14571,3.59757,-8.97107,-21.9833,-6.37106,80.8853
2023-03-10 00:02:04:575,-1.17379,3.60255,-8.97949,-21.926,-6.3583,80.9224
2023-03-10 00:02:04:585,-1.18949,3.62413,-9.00727,-21.8748,-6.34904,80.9626
2023-03-10 00:02:04:595,-1.19362,3.61707,-9.02878,-21.8263,-6.34457,80.9965
2023-03-10 00:02:04:605,-1.20788,3.6164,-9.03187,-21.7842,-6.34075,81.0307
2023-03-10 00:02:04:615,-1.23937,3.65836,-9.06771,-21.7375,-6.33209,81.0617
2023-03-10 00:02:04:625,-1.24763,3.6566,-9.06672,-21.6841,-6.3244,81.0845
2023-03-10 00:02:04:635,-1.23233,3.62445,-9.04667,-21.6256,-6.31457,81.1018
2023-03-10 00:02:04:645,-1.18723,3.61457,-9.0359,-21.5636,-6.30175,81.1115
2023-03-10 00:02:04:655,-1.14542,3.58134,-9.02259,-21.504,-6.29273,81.118
2023-03-10 00:02:04:665,-1.13875,3.57165,-9.04208,-21.4453,-6.28349,81.1223
2023-03-10 00:02:04:675,-1.14896,3.58972,-9.05855,-21.3857,-6.27371,81.1248
2023-03-10 00:02:04:685,-1.14547,3.59927,-9.05733,-21.3255,-6.26565,81.1274
2023-03-10 00:02:04:695,-1.1196,3.5761,-9.05837,-21.2645,-6.25733,81.1238
2023-03-10 00:02:04:705,-1.10301,3.54895,-9.04656,-21.2062,-6.25256,81.121
2023-03-10 00:02:04:715,-1.09513,3.54097,-9.02039,-21.1468,-6.24687,81.1129
2023-03-10 00:02:04:725,-1.0793,3.52751,-8.9899,-21.0879,-6.24592,81.1078
2023-03-10 00:02:04:735,-1.04442,3.51434,-8.9936,-21.037,-6.24559,81.0991
2023-03-10 00:02:04:745,-1.03195,3.53952,-9.01537,-20.9865,-6.2415,81.0893
2023-03-10 00:02:04:755,-1.02202,3.53674,-9.02259,-20.9408,-6.23917,81.0805
2023-03-10 00:02:04:765,-1.01099,3.51934,-8.993,-20.8951,-6.2387,81.073
2023-03-10 00:02:04:775,-0.996527,3.51781,-8.96368,-20.854,-6.23683,81.0704
2023-03-10 00:02:04:785,-0.99574,3.53956,-8.99083,-20.8183,-6.23506,81.0726
2023-03-10 00:02:04:795,-1.01255,3.59246,-9.01226,-20.7843,-6.23286,81.0759
2023-03-10 00:02:04:805,-1.02843,3.59372,-9.00463,-20.7527,-6.22437,81.0841
2023-03-10 00:02:04:815,-1.04413,3.61265,-9.01203,-20.7215,-6.21287,81.0902
2023-03-10 00:02:04:825,-1.04758,3.62097,-8.98234,-20.688,-6.20325,81.0975
2023-03-10 00:02:04:835,-1.03976,3.62141,-8.96805,-20.6565,-6.19308,81.1039
2023-03-10 00:02:04:845,-1.05508,3.67081,-8.98657,-20.6323,-6.17977,81.1115
2023-03-10 00:02:04:855,-1.05385,3.69946,-9.00295,-20.6126,-6.16774,81.1218
2023-03-10 00:02:04:865,-1.03669,3.73338,-9.00249,-20.5949,-6.15542,81.1289
2023-03-10 00:02:04:875,-1.0248,3.78354,-9.03939,-20.5784,-6.14815,81.1332
2023-03-10 00:02:04:885,-1.0371,3.83774,-9.05771,-20.5635,-6.14403,81.1366
2023-03-10 00:02:04:895,-1.03427,3.86364,-9.06785,-20.5431,-6.14248,81.1354
2023-03-10 00:02:04:905,-1.03355,3.91726,-9.132,-20.5223,-6.14467,81.1369
2023-03-10 00:02:04:915,-1.02798,3.95831,-9.20384,-20.4874,-6.13967,81.1378
2023-03-10 00:02:04:925,-1.01195,3.94545,-9.19932,-20.4338,-6.13307,81.1373
2023-03-10 00:02:04:935,-1.01048,3.86151,-9.11564,-20.3664,-6.12621,81.1319
2023-03-10 00:02:04:945,-0.998221,3.77505,-8.99775,-20.2996,-6.12892,81.1281
2023-03-10 00:02:04:955,-0.990604,3.75269,-8.99722,-20.2386,-6.1342,81.1254
2023-03-10 00:02:04:965,-0.940802,3.69337,-8.95768,-20.1814,-6.1495,81.1259
2023-03-10 00:02:04:975,-0.928404,3.64184,-8.95585,-20.1332,-6.17095,81.1347
2023-03-10 00:02:04:985,-0.951384,3.56837,-8.94923,-20.0848,-6.20172,81.145
2023-03-10 00:02:04:995,-0.971804,3.54053,-8.9506,-20.0385,-6.22794,81.1599
2023-03-10 00:02:05:5,-0.994723,3.55842,-9.0006,-19.9977,-6.24773,81.182
2023-03-10 00:02:05:15,-0.999107,3.56659,-9.04272,-19.9507,-6.25609,81.2052
2023-03-10 00:02:05:25,-0.966856,3.5045,-9.00827,-19.895,-6.26311,81.232
2023-03-10 00:02:05:35,-0.972038,3.4914,-8.99087,-19.8465,-6.27101,81.2654
2023-03-10 00:02:05:45,-1.00095,3.53295,-9.05983,-19.7989,-6.27717,81.3063
2023-03-10 00:02:05:55,-1.02991,3.58881,-9.12255,-19.7535,-6.28702,81.3498
2023-03-10 00:02:05:65,-1.09658,3.61589,-9.09942,-19.6985,-6.3007,81.394
2023-03-10 00:02:05:75,-1.17257,3.60571,-9.06328,-19.6414,-6.31092,81.4404
2023-03-10 00:02:05:85,-1.20248,3.57312,-9.05688,-19.5816,-6.3221,81.4807
2023-03-10 00:02:05:95,-1.19595,3.53234,-9.03337,-19.5164,-6.33307,81.5162
2023-03-10 00:02:05:105,-1.1827,3.5286,-9.05183,-19.4485,-6.34176,81.5467
2023-03-10 00:02:05:115,-1.16556,3.53947,-9.12916,-19.3739,-6.33686,81.5724
2023-03-10 00:02:05:125,-1.16946,3.45847,-9.04886,-19.292,-6.34294,81.5891
2023-03-10 00:02:05:135,-1.19902,3.43762,-9.01745,-19.2086,-6.34297,81.6121
2023-03-10 00:02:05:145,-1.19864,3.40898,-8.98971,-19.1291,-6.35298,81.6298
2023-03-10 00:02:05:155,-1.17594,3.38051,-9.02251,-19.0533,-6.36794,81.6385
2023-03-10 00:02:05:165,-1.14084,3.33087,-9.01589,-18.9819,-6.39014,81.6419
2023-03-10 00:02:05:175,-1.15737,3.31541,-9.0244,-18.9197,-6.41283,81.6452
2023-03-10 00:02:05:185,-1.19005,3.30349,-9.06069,-18.855,-6.43164,81.6468
2023-03-10 00:02:05:195,-1.17318,3.26565,-9.0399,-18.7854,-6.45274,81.6404
2023-03-10 00:02:05:205,-1.11939,3.24201,-9.05219,-18.7172,-6.46986,81.6287
2023-03-10 00:02:05:215,-1.07904,3.24716,-9.08331,-18.6504,-6.48324,81.6126
2023-03-10 00:02:05:225,-1.01538,3.22755,-9.09402,-18.5858,-6.49579,81.5937
2023-03-10 00:02:05:235,-0.934451,3.17356,-9.0825,-18.5178,-6.51021,81.5704
2023-03-10 00:02:05:245,-0.891384,3.14844,-9.09808,-18.4586,-6.53027,81.5575
2023-03-10 00:02:05:255,-0.942751,3.18881,-9.19245,-18.4058,-6.5541,81.5514
2023-03-10 00:02:05:265,-0.997479,3.25115,-9.28698,-18.3484,-6.57053,81.5541
2023-03-10 00:02:05:275,-0.979766,3.23585,-9.29692,-18.2778,-6.5799,81.5596
2023-03-10 00:02:05:285,-0.902375,3.14315,-9.25189,-18.1963,-6.58038,81.5601
2023-03-10 00:02:05:295,-0.845687,3.05115,-9.17882,-18.1085,-6.57643,81.5694
2023-03-10 00:02:05:305,-0.832632,2.96352,-9.1183,-18.0246,-6.57764,81.5903
2023-03-10 00:02:05:315,-0.868014,2.93884,-9.06222,-17.9519,-6.58087,81.62
2023-03-10 00:02:05:325,-0.8995,2.93131,-9.06323,-17.8892,-6.58147,81.655
2023-03-10 00:02:05:335,-0.907658,2.92643,-9.08214,-17.8341,-6.58509,81.6955
2023-03-10 00:02:05:345,-0.919091,2.89655,-9.10898,-17.788,-6.58872,81.7419
2023-03-10 00:02:05:355,-0.904032,2.84744,-9.11635,-17.7446,-6.59203,81.7932
2023-03-10 00:02:05:365,-0.859124,2.83014,-9.14796,-17.7133,-6.59002,81.8532
2023-03-10 00:02:05:375,-0.849117,2.84385,-9.22012,-17.6927,-6.58695,81.9156
2023-03-10 00:02:05:385,-0.867084,2.88484,-9.29885,-17.6747,-6.58618,81.9877
2023-03-10 00:02:05:395,-0.908889,2.94127,-9.3917,-17.661,-6.58418,82.0677
2023-03-10 00:02:05:405,-0.96734,2.97238,-9.42793,-17.6393,-6.59064,82.149
2023-03-10 00:02:05:415,-0.980205,2.96529,-9.4224,-17.6109,-6.59639,82.2331
2023-03-10 00:02:05:425,-0.962437,2.94143,-9.41022,-17.5732,-6.59572,82.3124
2023-03-10 00:02:05:435,-0.917727,2.90078,-9.39108,-17.5288,-6.59769,82.3914
2023-03-10 00:02:05:445,-0.869166,2.83553,-9.36124,-17.4767,-6.60001,82.4765
2023-03-10 00:02:05:455,-0.878635,2.7599,-9.32351,-17.4278,-6.61262,82.5645
2023-03-10 00:02:05:465,-0.920225,2.69593,-9.26976,-17.3802,-6.63392,82.6588
2023-03-10 00:02:05:475,-0.966737,2.6641,-9.25694,-17.3364,-6.66026,82.7523
2023-03-10 00:02:05:485,-0.992951,2.64537,-9.2823,-17.2981,-6.69199,82.8483
2023-03-10 00:02:05:495,-1.01693,2.6459,-9.30542,-17.2668,-6.72183,82.943
2023-03-10 00:02:05:505,-1.07519,2.65639,-9.3448,-17.2404,-6.75412,83.0425
2023-03-10 00:02:05:515,-1.12697,2.6629,-9.38202,-17.2129,-6.78843,83.1401
2023-03-10 00:02:05:525,-1.13271,2.65946,-9.42139,-17.1827,-6.81705,83.2327
2023-03-10 00:02:05:535,-1.11802,2.62056,-9.40414,-17.1471,-6.84874,83.3228
2023-03-10 00:02:05:545,-1.1084,2.56585,-9.37816,-17.1106,-6.87692,83.4101
2023-03-10 00:02:05:555,-1.11285,2.51719,-9.34589,-17.0728,-6.90709,83.4959
2023-03-10 00:02:05:565,-1.11477,2.49106,-9.35548,-17.0392,-6.943,83.5813
2023-03-10 00:02:05:575,-1.12686,2.50408,-9.40298,-17.0096,-6.97803,83.6614
2023-03-10 00:02:05:585,-1.14492,2.51563,-9.44253,-16.9794,-7.02028,83.7417
2023-03-10 00:02:05:595,-1.14494,2.51809,-9.47638,-16.9424,-7.06227,83.813
2023-03-10 00:02:05:605,-1.14895,2.4717,-9.50321,-16.9032,-7.10801,83.8822
2023-03-10 00:02:05:615,-1.13025,2.43288,-9.48649,-16.8597,-7.15276,83.948
2023-03-10 00:02:05:625,-1.10685,2.4006,-9.49315,-16.8133,-7.20419,84.0099
2023-03-10 00:02:05:635,-1.1108,2.38034,-9.51224,-16.7669,-7.2584,84.0696
2023-03-10 00:02:05:645,-1.14313,2.39073,-9.53525,-16.7134,-7.31509,84.1238
2023-03-10 00:02:05:655,-1.16976,2.36062,-9.5396,-16.6519,-7.37317,84.1768
2023-03-10 00:02:05:665,-1.17259,2.29669,-9.48659,-16.5878,-7.43295,84.2258
2023-03-10 00:02:05:675,-1.15475,2.2266,-9.42802,-16.5219,-7.49217,84.2677
2023-03-10 00:02:05:685,-1.11332,2.18542,-9.40649,-16.4626,-7.55994,84.3102
2023-03-10 00:02:05:695,-1.09034,2.20548,-9.43646,-16.4098,-7.62535,84.3525
2023-03-10 00:02:05:705,-1.0589,2.23411,-9.50032,-16.3587,-7.69153,84.3918
2023-03-10 00:02:05:715,-1.01382,2.22803,-9.51147,-16.3039,-7.76321,84.4362
2023-03-10 00:02:05:725,-1.00194,2.21381,-9.50511,-16.2467,-7.83646,84.4853
2023-03-10 00:02:05:735,-1.01143,2.19131,-9.49061,-16.192,-7.91676,84.5445
2023-03-10 00:02:05:745,-1.03574,2.17434,-9.4544,-16.1391,-8.00422,84.6092
2023-03-10 00:02:05:755,-1.1056,2.18662,-9.43913,-16.0832,-8.09291,84.6894
2023-03-10 00:02:05:765,-1.1905,2.17727,-9.37782,-16.0302,-8.18616,84.7765
2023-03-10 00:02:05:775,-1.25195,2.17371,-9.34851,-15.9756,-8.28306,84.8717
2023-03-10 00:02:05:785,-1.29862,2.17586,-9.30559,-15.9251,-8.38128,84.9681
2023-03-10 00:02:05:795,-1.3412,2.16444,-9.26606,-15.8824,-8.4802,85.0728
2023-03-10 00:02:05:805,-1.41285,2.18961,-9.26373,-15.8463,-8.57984,85.1784
2023-03-10 00:02:05:815,-1.46395,2.21133,-9.23961,-15.8139,-8.68717,85.2873
2023-03-10 00:02:05:825,-1.52012,2.23485,-9.21236,-15.7931,-8.79704,85.398
2023-03-10 00:02:05:835,-1.58508,2.26954,-9.20212,-15.78,-8.90536,85.5042
2023-03-10 00:02:05:845,-1.64609,2.29835,-9.18393,-15.7732,-9.01405,85.6067
2023-03-10 00:02:05:855,-1.69322,2.32084,-9.17544,-15.7671,-9.12377,85.7047
2023-03-10 00:02:05:865,-1.69945,2.33854,-9.17725,-15.7711,-9.22821,85.7987
2023-03-10 00:02:05:875,-1.70385,2.36211,-9.20824,-15.7803,-9.33125,85.8883
2023-03-10 00:02:05:885,-1.77152,2.39988,-9.20245,-15.7962,-9.43106,85.9731
2023-03-10 00:02:05:895,-1.82172,2.41398,-9.15931,-15.8139,-9.5297,86.0521
2023-03-10 00:02:05:905,-1.83312,2.41072,-9.09336,-15.8332,-9.62861,86.123
2023-03-10 00:02:05:915,-1.82171,2.44187,-9.06823,-15.8633,-9.72426,86.1836
2023-03-10 00:02:05:925,-1.8354,2.51154,-9.06658,-15.9029,-9.82077,86.2376
2023-03-10 00:02:05:935,-1.84757,2.58298,-9.07558,-15.9542,-9.91623,86.2828
2023-03-10 00:02:05:945,-1.82716,2.62121,-9.07882,-16.0072,-10.0067,86.3226
2023-03-10 00:02:05:955,-1.81658,2.68264,-9.09661,-16.0659,-10.0995,86.3552
2023-03-10 00:02:05:965,-1.80944,2.75077,-9.15009,-16.1289,-10.1893,86.3865
2023-03-10 00:02:05:975,-1.81902,2.81059,-9.2002,-16.1904,-10.2805,86.4181
2023-03-10 00:02:05:985,-1.86262,2.84266,-9.21866,-16.2453,-10.3727,86.4452
2023-03-10 00:02:05:995,-1.88406,2.87786,-9.21569,-16.2974,-10.4676,86.4711
2023-03-10 00:02:06:5,-1.88993,2.8888,-9.23947,-16.3474,-10.5612,86.4934
2023-03-10 00:02:06:15,-1.91667,2.91826,-9.26356,-16.3969,-10.6588,86.5154
2023-03-10 00:02:06:25,-1.97162,2.93951,-9.2695,-16.4427,-10.7578,86.5353
2023-03-10 00:02:06:35,-2.05517,2.94482,-9.25324,-16.4831,-10.8601,86.5542
2023-03-10 00:02:06:45,-2.09563,2.94666,-9.22989,-16.5116,-10.9556,86.5654
2023-03-10 00:02:06:55,-2.07946,2.92577,-9.23604,-16.5419,-11.046,86.5677
2023-03-10 00:02:06:65,-2.04767,2.9342,-9.227,-16.5617,-11.1351,86.563
2023-03-10 00:02:06:75,-2.05442,2.92033,-9.21598,-16.5778,-11.2273,86.5561
2023-03-10 00:02:06:85,-2.10462,2.92167,-9.20695,-16.5951,-11.3198,86.5482
2023-03-10 00:02:06:95,-2.15893,2.93638,-9.20905,-16.6122,-11.4132,86.5374
2023-03-10 00:02:06:105,-2.16089,2.91851,-9.21698,-16.623,-11.5034,86.521
2023-03-10 00:02:06:115,-2.14614,2.90951,-9.2308,-16.6294,-11.5919,86.4969
2023-03-10 00:02:06:125,-2.14917,2.89171,-9.22126,-16.6328,-11.6751,86.4735
2023-03-10 00:02:06:135,-2.13133,2.84082,-9.16853,-16.6251,-11.7546,86.4437
2023-03-10 00:02:06:145,-2.11352,2.79958,-9.12151,-16.619,-11.835,86.4163
2023-03-10 00:02:06:155,-2.11881,2.77459,-9.1073,-16.6104,-11.9103,86.3871
2023-03-10 00:02:06:165,-2.17602,2.77422,-9.11116,-16.6037,-11.9825,86.3614
2023-03-10 00:02:06:175,-2.24677,2.78108,-9.10112,-16.5955,-12.0537,86.3329
2023-03-10 00:02:06:185,-2.30287,2.78996,-9.08954,-16.5903,-12.1218,86.3044
2023-03-10 00:02:06:195,-2.34487,2.80711,-9.08781,-16.5873,-12.1805,86.2689
2023-03-10 00:02:06:205,-2.3271,2.81437,-9.09412,-16.5808,-12.2342,86.2292
2023-03-10 00:02:06:215,-2.2934,2.80382,-9.09085,-16.5772,-12.2858,86.1877
2023-03-10 00:02:06:225,-2.27178,2.79994,-9.08578,-16.5756,-12.3347,86.1457
2023-03-10 00:02:06:235,-2.28907,2.81712,-9.08155,-16.5792,-12.3762,86.1005
2023-03-10 00:02:06:245,-2.29209,2.83717,-9.08146,-16.5828,-12.4212,86.0543
2023-03-10 00:02:06:255,-2.27742,2.85131,-9.13037,-16.586,-12.4615,86.0068
2023-03-10 00:02:06:265,-2.25057,2.87017,-9.17108,-16.5876,-12.4943,85.9583
2023-03-10 00:02:06:275,-2.25774,2.87426,-9.17005,-16.5849,-12.5276,85.9116
2023-03-10 00:02:06:285,-2.2755,2.87283,-9.15712,-16.5831,-12.5566,85.8622
2023-03-10 00:02:06:295,-2.25347,2.8491,-9.16842,-16.5771,-12.5824,85.815
2023-03-10 00:02:06:305,-2.2185,2.83725,-9.15786,-16.5689,-12.6063,85.7681
2023-03-10 00:02:06:315,-2.19159,2.81828,-9.15674,-16.5561,-12.6303,85.722
2023-03-10 00:02:06:325,-2.211,2.80921,-9.14586,-16.5372,-12.6519,85.6789
2023-03-10 00:02:06:335,-2.20965,2.80563,-9.16379,-16.5224,-12.6723,85.6366
2023-03-10 00:02:06:345,-2.20784,2.79335,-9.18948,-16.5036,-12.6926,85.5967
2023-03-10 00:02:06:355,-2.21227,2.79456,-9.18874,-16.486,-12.7136,85.5558
2023-03-10 00:02:06:365,-2.21386,2.77868,-9.16827,-16.4656,-12.7327,85.516
2023-03-10 00:02:06:375,-2.21318,2.76478,-9.15166,-16.4416,-12.7518,85.4773
2023-03-10 00:02:06:385,-2.21395,2.74729,-9.15187,-16.4189,-12.7724,85.4449
2023-03-10 00:02:06:395,-2.19721,2.72513,-9.16824,-16.3942,-12.7912,85.4084
2023-03-10 00:02:06:405,-2.20348,2.70658,-9.15104,-16.3689,-12.813,85.3734
2023-03-10 00:02:06:415,-2.21766,2.70211,-9.13723,-16.343,-12.8299,85.344
2023-03-10 00:02:06:425,-2.23726,2.69059,-9.1442,-16.3213,-12.8469,85.3152
2023-03-10 00:02:06:435,-2.26255,2.69029,-9.13947,-16.2963,-12.8628,85.2852
2023-03-10 00:02:06:445,-2.29521,2.6914,-9.13889,-16.2741,-12.8779,85.2541
2023-03-10 00:02:06:455,-2.31639,2.68951,-9.14474,-16.248,-12.8892,85.2224
2023-03-10 00:02:06:465,-2.32767,2.69045,-9.15713,-16.2248,-12.897,85.1928
2023-03-10 00:02:06:475,-2.30262,2.69613,-9.16959,-16.2016,-12.9039,85.1553
2023-03-10 00:02:06:485,-2.26104,2.67058,-9.15837,-16.1739,-12.9078,85.1147
2023-03-10 00:02:06:495,-2.25329,2.63683,-9.13832,-16.1416,-12.9126,85.0693
2023-03-10 00:02:06:505,-2.24507,2.60967,-9.10475,-16.1145,-12.9202,85.0257
2023-03-10 00:02:06:515,-2.24792,2.61512,-9.10524,-16.0868,-12.9273,84.9801
2023-03-10 00:02:06:525,-2.23103,2.62333,-9.15366,-16.0657,-12.9323,84.933
2023-03-10 00:02:06:535,-2.21958,2.6424,-9.17724,-16.0444,-12.9352,84.8838
2023-03-10 00:02:06:545,-2.20774,2.62921,-9.17316,-16.0206,-12.936,84.8382
2023-03-10 00:02:06:555,-2.20515,2.61921,-9.16965,-15.9944,-12.937,84.7903
2023-03-10 00:02:06:565,-2.17424,2.61957,-9.1656,-15.974,-12.9377,84.7449
2023-03-10 00:02:06:575,-2.14065,2.61762,-9.1816,-15.9534,-12.9386,84.6964
2023-03-10 00:02:06:585,-2.15277,2.6165,-9.18017,-15.9325,-12.9371,84.6525
2023-03-10 00:02:06:595,-2.14809,2.60765,-9.17466,-15.9097,-12.9362,84.6085
2023-03-10 00:02:06:605,-2.15802,2.61689,-9.18255,-15.8834,-12.935,84.5652
2023-03-10 00:02:06:615,-2.18222,2.62236,-9.17778,-15.8639,-12.9334,84.5252
2023-03-10 00:02:06:625,-2.19459,2.62738,-9.18149,-15.8451,-12.9315,84.4837
2023-03-10 00:02:06:635,-2.19919,2.63237,-9.17928,-15.8251,-12.9283,84.4428
2023-03-10 00:02:06:645,-2.20808,2.62473,-9.1806,-15.8051,-12.9219,84.4014
2023-03-10 00:02:06:655,-2.20114,2.62888,-9.19539,-15.7801,-12.9094,84.3587
2023-03-10 00:02:06:665,-2.18763,2.61603,-9.21811,-15.758,-12.9005,84.3157
2023-03-10 00:02:06:675,-2.17884,2.6125,-9.23993,-15.7386,-12.8885,84.2738
2023-03-10 00:02:06:685,-2.15123,2.60809,-9.24149,-15.7112,-12.8772,84.2268
2023-03-10 00:02:06:695,-2.11491,2.58211,-9.22263,-15.6829,-12.8641,84.1796
2023-03-10 00:02:06:705,-2.08364,2.56382,-9.17457,-15.6547,-12.8532,84.1342
2023-03-10 00:02:06:715,-2.07525,2.55707,-9.16708,-15.6271,-12.8425,84.0883
2023-03-10 00:02:06:725,-2.04493,2.55201,-9.15884,-15.602,-12.8378,84.0454
2023-03-10 00:02:06:735,-2.05058,2.54287,-9.14883,-15.5783,-12.837,84.0078
2023-03-10 00:02:06:744,-2.03346,2.54045,-9.15167,-15.5535,-12.8346,83.9742
2023-03-10 00:02:06:755,-2.0398,2.53416,-9.16611,-15.5372,-12.839,83.9462
2023-03-10 00:02:06:764,-2.02048,2.55042,-9.18018,-15.5211,-12.8402,83.922
2023-03-10 00:02:06:774,-2.01945,2.55016,-9.18271,-15.5065,-12.8382,83.9068
2023-03-10 00:02:06:785,-2.04508,2.54864,-9.17026,-15.4932,-12.8419,83.8941
2023-03-10 00:02:06:795,-2.04588,2.54445,-9.17331,-15.4807,-12.8458,83.8834
2023-03-10 00:02:06:805,-2.05641,2.55147,-9.16602,-15.4744,-12.8468,83.8795
2023-03-10 00:02:06:815,-2.08705,2.56082,-9.16956,-15.4719,-12.8479,83.8788
2023-03-10 00:02:06:825,-2.10449,2.56154,-9.16727,-15.4702,-12.8494,83.8846
2023-03-10 00:02:06:835,-2.10802,2.558,-9.15789,-15.4719,-12.8507,83.8964
2023-03-10 00:02:06:845,-2.12977,2.56048,-9.13795,-15.4736,-12.8503,83.9093
2023-03-10 00:02:06:855,-2.15359,2.57103,-9.13102,-15.4782,-12.8494,83.9189
2023-03-10 00:02:06:865,-2.16455,2.5889,-9.15177,-15.4865,-12.848,83.9309
2023-03-10 00:02:06:875,-2.17738,2.60853,-9.1738,-15.4946,-12.8507,83.9435
2023-03-10 00:02:06:885,-2.18425,2.62067,-9.17882,-15.5053,-12.8529,83.9599
2023-03-10 00:02:06:895,-2.16884,2.60758,-9.17195,-15.5073,-12.8555,83.9721
2023-03-10 00:02:06:905,-2.16626,2.59525,-9.15949,-15.5115,-12.8563,83.9847
2023-03-10 00:02:06:915,-2.15929,2.58173,-9.17638,-15.513,-12.8612,83.9931
2023-03-10 00:02:06:925,-2.14333,2.59146,-9.174,-15.5153,-12.87,84.0061
2023-03-10 00:02:06:935,-2.12623,2.5866,-9.18178,-15.5173,-12.8738,84.0164
2023-03-10 00:02:06:945,-2.11886,2.59414,-9.2021,-15.5188,-12.879,84.0254
2023-03-10 00:02:06:955,-2.10992,2.59577,-9.2203,-15.5238,-12.8845,84.0382
2023-03-10 00:02:06:965,-2.11446,2.59492,-9.2157,-15.5298,-12.8889,84.0521
2023-03-10 00:02:06:975,-2.1478,2.60963,-9.219,-15.5346,-12.8943,84.0668
2023-03-10 00:02:06:985,-2.17476,2.6292,-9.21557,-15.5421,-12.9,84.0859
2023-03-10 00:02:06:995,-2.1659,2.6343,-9.21057,-15.5499,-12.9056,84.1051
2023-03-10 00:02:07:5,-2.18444,2.61949,-9.20584,-15.5537,-12.9129,84.1278
2023-03-10 00:02:07:15,-2.21737,2.623,-9.20747,-15.5558,-12.9212,84.1493
2023-03-10 00:02:07:25,-2.2326,2.63133,-9.1834,-15.5587,-12.9226,84.1691
2023-03-10 00:02:07:35,-2.20083,2.60399,-9.1847,-15.551,-12.9213,84.1812
2023-03-10 00:02:07:45,-2.15975,2.59971,-9.20175,-15.5429,-12.9247,84.1897
2023-03-10 00:02:07:55,-2.18665,2.58651,-9.1962,-15.5355,-12.9278,84.2001
2023-03-10 00:02:07:65,-2.21355,2.58833,-9.19815,-15.5291,-12.9349,84.2081
2023-03-10 00:02:07:75,-2.22238,2.59471,-9.20198,-15.5172,-12.941,84.213
2023-03-10 00:02:07:85,-2.21133,2.58153,-9.18678,-15.5068,-12.9446,84.2156
2023-03-10 00:02:07:95,-2.20873,2.56478,-9.17593,-15.4991,-12.9521,84.2147
2023-03-10 00:02:07:105,-2.22589,2.55096,-9.1782,-15.491,-12.9581,84.2164
2023-03-10 00:02:07:115,-2.22167,2.55906,-9.19866,-15.4868,-12.9619,84.2162
2023-03-10 00:02:07:125,-2.22623,2.58101,-9.2108,-15.4776,-12.9634,84.2138
2023-03-10 00:02:07:135,-2.23614,2.60358,-9.2152,-15.4684,-12.9649,84.2058
2023-03-10 00:02:07:145,-2.22407,2.59609,-9.22057,-15.4608,-12.9667,84.1996
2023-03-10 00:02:07:155,-2.21912,2.5904,-9.23024,-15.449,-12.9669,84.1977
2023-03-10 00:02:07:165,-2.23954,2.58225,-9.21529,-15.4326,-12.9655,84.1921
2023-03-10 00:02:07:175,-2.24495,2.58433,-9.20446,-15.414,-12.9678,84.1845
2023-03-10 00:02:07:185,-2.22307,2.55951,-9.20302,-15.3929,-12.9694,84.1727
2023-03-10 00:02:07:195,-2.2558,2.56353,-9.19921,-15.37,-12.9698,84.1617
2023-03-10 00:02:07:205,-2.33111,2.59621,-9.21872,-15.3446,-12.9731,84.1491
2023-03-10 00:02:07:215,-2.34731,2.58311,-9.20119,-15.315,-12.976,84.1277
2023-03-10 00:02:07:225,-2.33859,2.54404,-9.14346,-15.283,-12.9804,84.098
2023-03-10 00:02:07:235,-2.36058,2.52449,-9.11068,-15.2515,-12.9943,84.063
2023-03-10 00:02:07:245,-2.40115,2.52992,-9.13171,-15.2241,-13.0113,84.0197
2023-03-10 00:02:07:255,-2.41275,2.52608,-9.18132,-15.2016,-13.0303,83.9674
2023-03-10 00:02:07:265,-2.39971,2.53432,-9.18434,-15.1753,-13.0547,83.9094
2023-03-10 00:02:07:275,-2.38739,2.55386,-9.19835,-15.1471,-13.0756,83.8424
2023-03-10 00:02:07:285,-2.35498,2.5404,-9.19927,-15.1157,-13.0951,83.7701
2023-03-10 00:02:07:295,-2.3386,2.51489,-9.18041,-15.0794,-13.1145,83.6874
2023-03-10 00:02:07:305,-2.33722,2.49531,-9.16239,-15.0443,-13.1339,83.6036
2023-03-10 00:02:07:315,-2.33152,2.4832,-9.1636,-15.0096,-13.1534,83.5159
2023-03-10 00:02:07:325,-2.31163,2.47509,-9.1667,-14.9744,-13.1687,83.4257
2023-03-10 00:02:07:335,-2.30088,2.47088,-9.16314,-14.939,-13.1818,83.3299
2023-03-10 00:02:07:345,-2.30328,2.47209,-9.17099,-14.9071,-13.1889,83.2403
2023-03-10 00:02:07:355,-2.29476,2.47668,-9.16875,-14.8767,-13.1935,83.1466
2023-03-10 00:02:07:365,-2.2405,2.47434,-9.17369,-14.8419,-13.1994,83.0504
2023-03-10 00:02:07:375,-2.18846,2.45895,-9.18665,-14.8087,-13.1974,82.9564
2023-03-10 00:02:07:385,-2.15725,2.44026,-9.19028,-14.7793,-13.1967,82.8616
2023-03-10 00:02:07:395,-2.11907,2.43186,-9.21126,-14.7503,-13.1954,82.7667
2023-03-10 00:02:07:405,-2.0813,2.42313,-9.20146,-14.7218,-13.1938,82.6795
2023-03-10 00:02:07:415,-2.07748,2.41229,-9.18376,-14.697,-13.1925,82.5984
2023-03-10 00:02:07:425,-2.133,2.40636,-9.16935,-14.6771,-13.1953,82.5253
2023-03-10 00:02:07:435,-2.18595,2.43833,-9.20061,-14.6587,-13.1944,82.4568
2023-03-10 00:02:07:445,-2.17681,2.45665,-9.23594,-14.6409,-13.1928,82.3905
2023-03-10 00:02:07:455,-2.16404,2.44178,-9.26269,-14.6264,-13.1898,82.3288
2023-03-10 00:02:07:465,-2.15272,2.44871,-9.248,-14.6077,-13.1823,82.2697
2023-03-10 00:02:07:475,-2.14772,2.42816,-9.2421,-14.5889,-13.1744,82.2124
2023-03-10 00:02:07:485,-2.14682,2.41269,-9.23132,-14.5684,-13.168,82.1593
2023-03-10 00:02:07:495,-2.15491,2.41483,-9.21363,-14.5458,-13.1647,82.1094
2023-03-10 00:02:07:505,-2.15677,2.41329,-9.20533,-14.528,-13.1572,82.0612
2023-03-10 00:02:07:515,-2.16181,2.41492,-9.2117,-14.507,-13.1522,82.0137
2023-03-10 00:02:07:525,-2.20538,2.42138,-9.21362,-14.4942,-13.1449,81.9759
2023-03-10 00:02:07:535,-2.23064,2.43128,-9.21796,-14.48,-13.1348,81.9329
2023-03-10 00:02:07:545,-2.2311,2.44138,-9.23854,-14.4602,-13.126,81.8902
2023-03-10 00:02:07:555,-2.19385,2.43519,-9.24231,-14.4446,-13.1093,81.8477
2023-03-10 00:02:07:565,-2.17523,2.41934,-9.24039,-14.4252,-13.0992,81.8045
2023-03-10 00:02:07:575,-2.18542,2.42235,-9.25506,-14.4053,-13.0881,81.7627
2023-03-10 00:02:07:585,-2.21193,2.41415,-9.23657,-14.3837,-13.073,81.7198
2023-03-10 00:02:07:595,-2.21965,2.40624,-9.22104,-14.3619,-13.0581,81.6779
2023-03-10 00:02:07:605,-2.22341,2.39958,-9.20092,-14.3377,-13.0404,81.6313
2023-03-10 00:02:07:615,-2.21671,2.37894,-9.19521,-14.3104,-13.0264,81.5876
2023-03-10 00:02:07:625,-2.21827,2.37683,-9.1783,-14.2887,-13.0147,81.542
2023-03-10 00:02:07:635,-2.23582,2.36189,-9.1709,-14.2666,-13.0035,81.4937
2023-03-10 00:02:07:645,-2.239,2.34925,-9.18833,-14.2455,-12.9895,81.4416
2023-03-10 00:02:07:655,-2.22321,2.35178,-9.21439,-14.2269,-12.9755,81.3865
2023-03-10 00:02:07:665,-2.18637,2.36566,-9.24674,-14.2096,-12.9605,81.3301
2023-03-10 00:02:07:675,-2.1682,2.35751,-9.24348,-14.1917,-12.9478,81.2725
2023-03-10 00:02:07:685,-2.16662,2.35031,-9.23153,-14.1701,-12.9378,81.2176
2023-03-10 00:02:07:695,-2.1831,2.34482,-9.22443,-14.1517,-12.9258,81.1621
2023-03-10 00:02:07:705,-2.23343,2.36712,-9.23489,-14.1391,-12.9182,81.1083
2023-03-10 00:02:07:715,-2.28154,2.39039,-9.23951,-14.1258,-12.908,81.048
2023-03-10 00:02:07:725,-2.27873,2.38507,-9.23472,-14.1091,-12.8981,80.9818
2023-03-10 00:02:07:735,-2.2634,2.37384,-9.19433,-14.0922,-12.8861,80.9104
2023-03-10 00:02:07:745,-2.22455,2.3408,-9.17736,-14.0726,-12.874,80.8355
2023-03-10 00:02:07:755,-2.19459,2.32408,-9.16396,-14.0595,-12.863,80.7588
2023-03-10 00:02:07:765,-2.16318,2.31801,-9.15225,-14.0449,-12.8545,80.6807
2023-03-10 00:02:07:775,-2.14522,2.31643,-9.14999,-14.0372,-12.8471,80.6007
2023-03-10 00:02:07:785,-2.13813,2.31702,-9.16703,-14.0263,-12.8407,80.5206
2023-03-10 00:02:07:795,-2.12696,2.33878,-9.20515,-14.0269,-12.8322,80.4435
2023-03-10 00:02:07:805,-2.12725,2.33169,-9.24041,-14.0268,-12.828,80.3693
2023-03-10 00:02:07:815,-2.13096,2.33378,-9.25078,-14.0228,-12.8197,80.2944
2023-03-10 00:02:07:825,-2.11697,2.3403,-9.268,-14.0211,-12.8125,80.2227
2023-03-10 00:02:07:835,-2.08498,2.34578,-9.28711,-14.025,-12.8012,80.1523
2023-03-10 00:02:07:845,-2.05942,2.33116,-9.3127,-14.0194,-12.7911,80.0847
2023-03-10 00:02:07:855,-2.04647,2.33626,-9.30807,-14.0164,-12.7793,80.0204
2023-03-10 00:02:07:865,-2.04121,2.32702,-9.3002,-14.018,-12.7668,79.9622
2023-03-10 00:02:07:875,-2.05162,2.33449,-9.2878,-14.0163,-12.7538,79.9106
2023-03-10 00:02:07:885,-2.04127,2.34834,-9.29041,-14.0162,-12.7398,79.8623
2023-03-10 00:02:07:895,-2.02751,2.34021,-9.26406,-14.0173,-12.7236,79.8154
2023-03-10 00:02:07:905,-2.03773,2.3194,-9.23877,-14.0202,-12.7085,79.7729
2023-03-10 00:02:07:915,-2.06809,2.31418,-9.25872,-14.0217,-12.6953,79.7409
2023-03-10 00:02:07:925,-2.09312,2.34312,-9.23653,-14.0269,-12.6808,79.7131
2023-03-10 00:02:07:935,-2.07426,2.34696,-9.23926,-14.03,-12.665,79.6807
2023-03-10 00:02:07:945,-2.01476,2.34026,-9.27945,-14.0306,-12.643,79.6498
2023-03-10 00:02:07:955,-2.00178,2.31819,-9.27241,-14.0272,-12.6234,79.625
2023-03-10 00:02:07:965,-2.01984,2.32201,-9.27451,-14.0309,-12.6049,79.6022
2023-03-10 00:02:07:975,-2.01073,2.32188,-9.28273,-14.0281,-12.5929,79.5786
2023-03-10 00:02:07:985,-2.01693,2.32115,-9.27316,-14.0299,-12.5837,79.5593
2023-03-10 00:02:07:995,-2.04023,2.32471,-9.25573,-14.0321,-12.5744,79.5451
2023-03-10 00:02:08:5,-2.07461,2.32113,-9.24156,-14.0377,-12.5674,79.5332
2023-03-10 00:02:08:15,-2.0947,2.35734,-9.2645,-14.046,-12.5645,79.524
2023-03-10 00:02:08:25,-2.08773,2.3865,-9.29799,-14.0531,-12.5631,79.5125
2023-03-10 00:02:08:35,-2.06941,2.39392,-9.29327,-14.0591,-12.5581,79.4986
2023-03-10 00:02:08:45,-2.05787,2.36629,-9.29082,-14.0604,-12.5541,79.4873
2023-03-10 00:02:08:55,-2.05048,2.33959,-9.27095,-14.0596,-12.5502,79.4787
2023-03-10 00:02:08:65,-2.04206,2.33668,-9.23248,-14.0631,-12.5487,79.4715
2023-03-10 00:02:08:75,-2.05093,2.32697,-9.22309,-14.0661,-12.5456,79.4673
2023-03-10 00:02:08:85,-2.08306,2.32314,-9.20959,-14.0699,-12.5443,79.4627
2023-03-10 00:02:08:95,-2.05214,2.32449,-9.19141,-14.0752,-12.5397,79.461
2023-03-10 00:02:08:105,-2.03226,2.31265,-9.17833,-14.0859,-12.5378,79.4616
2023-03-10 00:02:08:115,-2.0496,2.31074,-9.17522,-14.0945,-12.5357,79.4611
2023-03-10 00:02:08:125,-2.0422,2.31171,-9.18553,-14.109,-12.5356,79.4655
2023-03-10 00:02:08:135,-2.03851,2.33145,-9.21448,-14.1266,-12.5356,79.475
2023-03-10 00:02:08:145,-2.06306,2.35449,-9.22935,-14.1489,-12.5363,79.4849
2023-03-10 00:02:08:155,-2.10473,2.37455,-9.24695,-14.1746,-12.5395,79.498
2023-03-10 00:02:08:165,-2.13509,2.40046,-9.26373,-14.1993,-12.5391,79.5116
2023-03-10 00:02:08:175,-2.15177,2.41824,-9.28499,-14.228,-12.5422,79.5267
2023-03-10 00:02:08:185,-2.15725,2.4379,-9.30248,-14.2482,-12.5437,79.5379
2023-03-10 00:02:08:195,-2.18013,2.44971,-9.29856,-14.2642,-12.5407,79.5464
2023-03-10 00:02:08:205,-2.16991,2.4365,-9.27628,-14.2783,-12.5378,79.5507
2023-03-10 00:02:08:215,-2.16245,2.42731,-9.26342,-14.2919,-12.5341,79.5536
2023-03-10 00:02:08:225,-2.14809,2.42477,-9.24967,-14.3048,-12.5368,79.5522
2023-03-10 00:02:08:235,-2.11843,2.41888,-9.23502,-14.3133,-12.5396,79.5486
2023-03-10 00:02:08:245,-2.08486,2.39569,-9.22877,-14.3217,-12.5387,79.5453
2023-03-10 00:02:08:255,-2.08114,2.39306,-9.23821,-14.3324,-12.5386,79.5436
2023-03-10 00:02:08:265,-2.08495,2.4119,-9.25871,-14.3446,-12.535,79.5427
2023-03-10 00:02:08:275,-2.08306,2.43622,-9.26535,-14.3588,-12.5339,79.54
2023-03-10 00:02:08:285,-2.08212,2.43505,-9.2819,-14.3686,-12.5297,79.54
2023-03-10 00:02:08:295,-2.07883,2.44012,-9.29024,-14.375,-12.5239,79.544
2023-03-10 00:02:08:305,-2.07484,2.44003,-9.29279,-14.3836,-12.5187,79.5524
2023-03-10 00:02:08:315,-2.07993,2.43613,-9.27811,-14.387,-12.5155,79.556
2023-03-10 00:02:08:325,-2.09193,2.42748,-9.26521,-14.3912,-12.5077,79.5611
2023-03-10 00:02:08:335,-2.0955,2.42486,-9.25168,-14.3933,-12.5016,79.5687
2023-03-10 00:02:08:345,-2.09807,2.41825,-9.2448,-14.3985,-12.5013,79.5765
2023-03-10 00:02:08:355,-2.09688,2.4167,-9.24878,-14.4039,-12.5005,79.5837
2023-03-10 00:02:08:365,-2.0946,2.41239,-9.23702,-14.4044,-12.501,79.5923
2023-03-10 00:02:08:375,-2.08201,2.40695,-9.23591,-14.4052,-12.5029,79.6029
2023-03-10 00:02:08:385,-2.0836,2.41545,-9.23602,-14.4083,-12.5028,79.6121
2023-03-10 00:02:08:395,-2.09101,2.40615,-9.23611,-14.41,-12.507,79.6243
2023-03-10 00:02:08:405,-2.10219,2.41243,-9.2309,-14.4119,-12.5098,79.6331
2023-03-10 00:02:08:415,-2.11946,2.41817,-9.23424,-14.4178,-12.513,79.6464
2023-03-10 00:02:08:425,-2.12174,2.41927,-9.23667,-14.4218,-12.5166,79.6569
2023-03-10 00:02:08:435,-2.12154,2.42536,-9.24791,-14.4235,-12.5195,79.6719
2023-03-10 00:02:08:445,-2.12053,2.43404,-9.24552,-14.426,-12.5197,79.6869
2023-03-10 00:02:08:455,-2.1125,2.42402,-9.24556,-14.4305,-12.519,79.7011
2023-03-10 00:02:08:465,-2.11553,2.42452,-9.24317,-14.4338,-12.5223,79.7192
2023-03-10 00:02:08:475,-2.12344,2.43288,-9.23956,-14.4371,-12.5235,79.7349
2023-03-10 00:02:08:485,-2.11848,2.41802,-9.24376,-14.4396,-12.5238,79.7511
2023-03-10 00:02:08:495,-2.12017,2.40003,-9.24787,-14.4416,-12.526,79.7681
2023-03-10 00:02:08:505,-2.14311,2.40516,-9.24692,-14.444,-12.5312,79.7864
2023-03-10 00:02:08:515,-2.15773,2.42179,-9.23063,-14.4511,-12.5354,79.8022
2023-03-10 00:02:08:525,-2.16774,2.42942,-9.22894,-14.4555,-12.5376,79.8166
2023-03-10 00:02:08:535,-2.17189,2.42516,-9.25005,-14.4576,-12.5425,79.8295
2023-03-10 00:02:08:545,-2.15822,2.43823,-9.26121,-14.458,-12.5433,79.8418
2023-03-10 00:02:08:555,-2.15349,2.4374,-9.26427,-14.459,-12.5421,79.8566
2023-03-10 00:02:08:565,-2.17548,2.43486,-9.26078,-14.4553,-12.5404,79.8702
2023-03-10 00:02:08:575,-2.1876,2.42117,-9.25701,-14.4512,-12.5376,79.8798
2023-03-10 00:02:08:585,-2.18293,2.4219,-9.24587,-14.4455,-12.5341,79.8827
2023-03-10 00:02:08:595,-2.1717,2.42246,-9.23763,-14.4376,-12.5321,79.8872
2023-03-10 00:02:08:605,-2.14696,2.40759,-9.23221,-14.4315,-12.5282,79.8888
2023-03-10 00:02:08:615,-2.10894,2.38299,-9.23386,-14.4249,-12.5275,79.8861
2023-03-10 00:02:08:625,-2.10359,2.366,-9.23278,-14.4174,-12.5258,79.8842
2023-03-10 00:02:08:635,-2.08756,2.36089,-9.23235,-14.4119,-12.5249,79.8845
2023-03-10 00:02:08:645,-2.04561,2.35005,-9.22503,-14.4105,-12.5202,79.8849
2023-03-10 00:02:08:655,-2.04223,2.35884,-9.23922,-14.4096,-12.5152,79.8845
2023-03-10 00:02:08:665,-2.04182,2.37369,-9.25829,-14.408,-12.5105,79.8926
2023-03-10 00:02:08:675,-2.05974,2.39797,-9.26829,-14.4118,-12.5104,79.9049
2023-03-10 00:02:08:685,-2.08372,2.40852,-9.26184,-14.4147,-12.5115,79.9224
2023-03-10 00:02:08:695,-2.12583,2.41475,-9.24026,-14.419,-12.5141,79.9402
2023-03-10 00:02:08:705,-2.16792,2.42601,-9.22478,-14.4206,-12.5149,79.956
2023-03-10 00:02:08:715,-2.18541,2.41935,-9.22278,-14.4214,-12.5143,79.9671
2023-03-10 00:02:08:725,-2.1558,2.4172,-9.21253,-14.4216,-12.5079,79.9781
2023-03-10 00:02:08:735,-2.11874,2.41302,-9.1857,-14.424,-12.5021,79.9886
2023-03-10 00:02:08:745,-2.114,2.40173,-9.18464,-14.4286,-12.4995,79.9972
2023-03-10 00:02:08:755,-2.13885,2.41519,-9.19451,-14.4314,-12.4976,80.0086
2023-03-10 00:02:08:765,-2.14219,2.44369,-9.20931,-14.4337,-12.4943,80.0191
2023-03-10 00:02:08:775,-2.14673,2.44566,-9.22331,-14.4397,-12.4923,80.0294
2023-03-10 00:02:08:785,-2.13978,2.44013,-9.22409,-14.4432,-12.4869,80.0402
2023-03-10 00:02:08:795,-2.11049,2.43274,-9.21681,-14.4501,-12.4797,80.0531
2023-03-10 00:02:08:805,-2.10754,2.44176,-9.222,-14.4562,-12.474,80.0624
2023-03-10 00:02:08:815,-2.12809,2.44187,-9.23874,-14.4594,-12.4659,80.0734
2023-03-10 00:02:08:825,-2.14391,2.45423,-9.25674,-14.4673,-12.4593,80.0832
2023-03-10 00:02:08:835,-2.14361,2.46177,-9.27569,-14.4753,-12.4514,80.0923
2023-03-10 00:02:08:845,-2.14216,2.47661,-9.2852,-14.4789,-12.4435,80.0927
2023-03-10 00:02:08:855,-2.14854,2.46941,-9.29426,-14.482,-12.4332,80.0988
2023-03-10 00:02:08:865,-2.14926,2.47103,-9.29215,-14.4854,-12.4297,80.1011
2023-03-10 00:02:08:875,-2.11688,2.46988,-9.28713,-14.4828,-12.4199,80.0993
2023-03-10 00:02:08:885,-2.10454,2.47323,-9.27924,-14.4797,-12.4094,80.0918
2023-03-10 00:02:08:895,-2.0626,2.4457,-9.27596,-14.4746,-12.4003,80.0862
2023-03-10 00:02:08:905,-2.05825,2.42119,-9.26267,-14.4662,-12.3956,80.083
2023-03-10 00:02:08:915,-2.06572,2.42121,-9.22858,-14.4567,-12.3865,80.0778
2023-03-10 00:02:08:925,-2.03792,2.41281,-9.20684,-14.4477,-12.3777,80.0733
2023-03-10 00:02:08:935,-1.968,2.40044,-9.22382,-14.4431,-12.3628,80.0745
2023-03-10 00:02:08:945,-1.93487,2.38697,-9.23659,-14.4362,-12.3512,80.0764
2023-03-10 00:02:08:955,-1.97731,2.38553,-9.23412,-14.4324,-12.3447,80.0825
2023-03-10 00:02:08:965,-2.04116,2.39663,-9.23496,-14.4286,-12.3411,80.0938
2023-03-10 00:02:08:975,-2.06701,2.3949,-9.25099,-14.4228,-12.3388,80.1058
2023-03-10 00:02:08:985,-2.06376,2.39783,-9.2551,-14.4194,-12.3327,80.1177
2023-03-10 00:02:08:995,-2.06104,2.39871,-9.25562,-14.4166,-12.3314,80.1274
2023-03-10 00:02:09:5,-2.06359,2.39559,-9.25525,-14.4167,-12.3282,80.1398
2023-03-10 00:02:09:15,-2.07971,2.39764,-9.24779,-14.4196,-12.3287,80.1533
2023-03-10 00:02:09:25,-2.09222,2.40864,-9.23457,-14.4207,-12.3306,80.1675
2023-03-10 00:02:09:35,-2.11153,2.40905,-9.2231,-14.4272,-12.3324,80.1797
2023-03-10 00:02:09:45,-2.1188,2.40949,-9.22691,-14.4283,-12.3296,80.1919
2023-03-10 00:02:09:55,-2.10692,2.41101,-9.22891,-14.4282,-12.3274,80.2014
2023-03-10 00:02:09:65,-2.08472,2.39871,-9.22811,-14.4291,-12.3221,80.2084
2023-03-10 00:02:09:75,-2.07618,2.38776,-9.22438,-14.4287,-12.3185,80.2185
2023-03-10 00:02:09:85,-2.05578,2.37508,-9.20636,-14.4308,-12.3147,80.2261
2023-03-10 00:02:09:95,-2.03888,2.3743,-9.19411,-14.4311,-12.3141,80.2347
2023-03-10 00:02:09:105,-2.01634,2.37852,-9.21019,-14.4371,-12.3127,80.2443
2023-03-10 00:02:09:115,-2.01899,2.40046,-9.23406,-14.4446,-12.3139,80.2591
2023-03-10 00:02:09:125,-2.01179,2.40904,-9.25511,-14.4531,-12.3145,80.2744
2023-03-10 00:02:09:135,-2.01498,2.40947,-9.26052,-14.465,-12.3149,80.2913
2023-03-10 00:02:09:145,-2.03227,2.41648,-9.2564,-14.4763,-12.3154,80.3116
2023-03-10 00:02:09:155,-2.06298,2.4385,-9.26852,-14.4919,-12.3179,80.3362
2023-03-10 00:02:09:165,-2.09862,2.45292,-9.26774,-14.5053,-12.3176,80.3636
2023-03-10 00:02:09:175,-2.11221,2.45009,-9.25906,-14.5163,-12.3176,80.3922
2023-03-10 00:02:09:185,-2.10466,2.45783,-9.25374,-14.5263,-12.3153,80.4159
2023-03-10 00:02:09:195,-2.11751,2.45808,-9.26237,-14.5365,-12.3108,80.4406
2023-03-10 00:02:09:205,-2.12326,2.45852,-9.26742,-14.5492,-12.3067,80.471
2023-03-10 00:02:09:215,-2.11571,2.44771,-9.26623,-14.5553,-12.3003,80.4947
2023-03-10 00:02:09:225,-2.09835,2.44198,-9.25048,-14.5598,-12.2959,80.5206
2023-03-10 00:02:09:235,-2.11352,2.43418,-9.24338,-14.5648,-12.2862,80.5393
2023-03-10 00:02:09:245,-2.11416,2.4437,-9.24512,-14.5714,-12.2802,80.5599
2023-03-10 00:02:09:255,-2.11046,2.45638,-9.24474,-14.5739,-12.2746,80.5777
2023-03-10 00:02:09:265,-2.0984,2.4646,-9.23882,-14.5803,-12.2687,80.5958
2023-03-10 00:02:09:275,-2.09563,2.4585,-9.25026,-14.5839,-12.2623,80.6097
2023-03-10 00:02:09:285,-2.09634,2.45941,-9.24717,-14.589,-12.2569,80.6227
2023-03-10 00:02:09:295,-2.08449,2.47251,-9.24364,-14.5909,-12.2506,80.6349
2023-03-10 00:02:09:305,-2.07719,2.47628,-9.25419,-14.5938,-12.2467,80.6467
2023-03-10 00:02:09:315,-2.08927,2.48068,-9.26407,-14.5952,-12.244,80.6555
2023-03-10 00:02:09:325,-2.08454,2.48383,-9.26219,-14.5961,-12.2407,80.664
2023-03-10 00:02:09:335,-2.06602,2.47273,-9.25746,-14.5949,-12.237,80.6724
2023-03-10 00:02:09:345,-2.07866,2.47117,-9.24044,-14.5929,-12.2348,80.6833
2023-03-10 00:02:09:355,-2.08018,2.45739,-9.2393,-14.5918,-12.2336,80.6932
2023-03-10 00:02:09:365,-2.08236,2.45867,-9.23985,-14.5876,-12.2354,80.7014
2023-03-10 00:02:09:375,-2.07126,2.45949,-9.23786,-14.5834,-12.2341,80.7088
2023-03-10 00:02:09:385,-2.07771,2.44091,-9.23453,-14.5821,-12.2331,80.7184
2023-03-10 00:02:09:395,-2.06601,2.43684,-9.23359,-14.5805,-12.2314,80.7259
2023-03-10 00:02:09:405,-2.06522,2.44801,-9.21514,-14.5812,-12.2291,80.7292
2023-03-10 00:02:09:415,-2.05664,2.44162,-9.21201,-14.58,-12.2308,80.7369
2023-03-10 00:02:09:425,-2.04722,2.43678,-9.21606,-14.5799,-12.2312,80.7444
2023-03-10 00:02:09:435,-2.05533,2.43817,-9.21209,-14.5824,-12.2309,80.7539
2023-03-10 00:02:09:445,-2.05236,2.43662,-9.22516,-14.589,-12.229,80.7615
2023-03-10 00:02:09:455,-2.04452,2.45287,-9.25081,-14.5941,-12.228,80.7706
2023-03-10 00:02:09:465,-2.0359,2.47136,-9.2643,-14.5964,-12.2272,80.7852
2023-03-10 00:02:09:475,-2.04243,2.46715,-9.27079,-14.6011,-12.2254,80.7957
2023-03-10 00:02:09:485,-2.06613,2.46997,-9.26666,-14.6028,-12.2251,80.8063
2023-03-10 00:02:09:495,-2.08465,2.47832,-9.26383,-14.6042,-12.2254,80.8176
2023-03-10 00:02:09:505,-2.09549,2.48028,-9.25943,-14.6056,-12.2223,80.8285
2023-03-10 00:02:09:515,-2.08314,2.46614,-9.26412,-14.6023,-12.2174,80.8379
2023-03-10 00:02:09:525,-2.06408,2.46541,-9.26593,-14.6013,-12.2109,80.8468
2023-03-10 00:02:09:535,-2.07771,2.4665,-9.25931,-14.5977,-12.2103,80.8569
2023-03-10 00:02:09:545,-2.07835,2.45287,-9.25874,-14.5956,-12.2074,80.8682
2023-03-10 00:02:09:555,-2.06957,2.44079,-9.24498,-14.5888,-12.206,80.8744
2023-03-10 00:02:09:565,-2.08932,2.43719,-9.25449,-14.5882,-12.2055,80.8807
2023-03-10 00:02:09:575,-2.11778,2.45944,-9.25658,-14.5822,-12.2046,80.8842
2023-03-10 00:02:09:585,-2.10855,2.46177,-9.25685,-14.575,-12.2021,80.8881
2023-03-10 00:02:09:595,-2.07759,2.45443,-9.25299,-14.5677,-12.2019,80.8884
2023-03-10 00:02:09:605,-2.05119,2.42809,-9.2395,-14.5571,-12.1984,80.8834
2023-03-10 00:02:09:615,-2.03454,2.41739,-9.21576,-14.5445,-12.1958,80.8799
2023-03-10 00:02:09:625,-2.03521,2.41865,-9.21812,-14.5387,-12.1973,80.8786
2023-03-10 00:02:09:635,-2.02343,2.4228,-9.24204,-14.5309,-12.199,80.8756
2023-03-10 00:02:09:645,-1.99623,2.43968,-9.26959,-14.5268,-12.1961,80.8748
2023-03-10 00:02:09:655,-1.99969,2.43411,-9.26295,-14.5228,-12.1965,80.876
2023-03-10 00:02:09:665,-1.98898,2.41009,-9.25922,-14.5153,-12.1973,80.8822
2023-03-10 00:02:09:675,-1.98798,2.40232,-9.22851,-14.512,-12.2005,80.8853
2023-03-10 00:02:09:685,-1.99988,2.38279,-9.2235,-14.5116,-12.2051,80.8956
2023-03-10 00:02:09:695,-2.00719,2.40845,-9.2229,-14.5125,-12.2116,80.9105
2023-03-10 00:02:09:705,-2.01789,2.42619,-9.23968,-14.5157,-12.2169,80.9298
2023-03-10 00:02:09:715,-2.04723,2.41779,-9.25686,-14.5194,-12.2249,80.9464
2023-03-10 00:02:09:725,-2.08274,2.42152,-9.26933,-14.5248,-12.2325,80.9667
2023-03-10 00:02:09:735,-2.07135,2.43085,-9.27712,-14.53,-12.2342,80.987
2023-03-10 00:02:09:745,-2.03923,2.42697,-9.28758,-14.5286,-12.2427,81.004
2023-03-10 00:02:09:755,-2.02352,2.42346,-9.26546,-14.5263,-12.2494,81.0245
2023-03-10 00:02:09:765,-2.05154,2.40908,-9.21551,-14.5273,-12.2592,81.0505
2023-03-10 00:02:09:774,-2.09714,2.41035,-9.19329,-14.5305,-12.2749,81.0752
2023-03-10 00:02:09:784,-2.1299,2.41427,-9.20351,-14.5367,-12.2906,81.1004
2023-03-10 00:02:09:794,-2.13457,2.43112,-9.20161,-14.5485,-12.3004,81.1282
2023-03-10 00:02:09:804,-2.12357,2.45047,-9.20879,-14.5575,-12.311,81.1534
2023-03-10 00:02:09:814,-2.12324,2.46313,-9.21949,-14.5676,-12.3128,81.1751
2023-03-10 00:02:09:824,-2.12297,2.46075,-9.22703,-14.5764,-12.3164,81.1992
2023-03-10 00:02:09:834,-2.12907,2.46971,-9.22872,-14.5848,-12.3186,81.2274
2023-03-10 00:02:09:844,-2.13577,2.47655,-9.22503,-14.5929,-12.3193,81.2593
2023-03-10 00:02:09:854,-2.13908,2.48001,-9.21341,-14.5986,-12.3198,81.2838
2023-03-10 00:02:09:864,-2.14324,2.471,-9.19587,-14.606,-12.3246,81.3087
2023-03-10 00:02:09:874,-2.13371,2.45766,-9.20175,-14.6162,-12.3237,81.3333
2023-03-10 00:02:09:884,-2.14294,2.45742,-9.22121,-14.6289,-12.324,81.3582
2023-03-10 00:02:09:894,-2.15642,2.4705,-9.23932,-14.6403,-12.3221,81.3839
2023-03-10 00:02:09:904,-2.16221,2.49461,-9.26283,-14.6553,-12.3215,81.409
2023-03-10 00:02:09:914,-2.14842,2.51029,-9.29892,-14.6658,-12.3188,81.4265
2023-03-10 00:02:09:924,-2.14492,2.53921,-9.30097,-14.6761,-12.3168,81.4475
2023-03-10 00:02:09:934,-2.15825,2.51625,-9.29479,-14.6814,-12.3155,81.4638
2023-03-10 00:02:09:944,-2.17859,2.50455,-9.28242,-14.6805,-12.3109,81.476
2023-03-10 00:02:09:954,-2.17765,2.50146,-9.27706,-14.6777,-12.3067,81.4887
2023-03-10 00:02:09:964,-2.15827,2.50575,-9.26309,-14.6757,-12.3036,81.4945
2023-03-10 00:02:09:974,-2.14304,2.4949,-9.2369,-14.6717,-12.2974,81.4983
2023-03-10 00:02:09:984,-2.13763,2.48032,-9.23477,-14.6634,-12.2965,81.4988
2023-03-10 00:02:09:994,-2.14641,2.48362,-9.22245,-14.6558,-12.2898,81.4969
2023-03-10 00:02:10:4,-2.12467,2.47365,-9.21718,-14.646,-12.2807,81.4922
2023-03-10 00:02:10:14,-2.04435,2.46293,-9.24004,-14.6332,-12.2681,81.4821
2023-03-10 00:02:10:24,-1.97799,2.43916,-9.25895,-14.6177,-12.2577,81.4701
2023-03-10 00:02:10:34,-1.98902,2.42518,-9.26169,-14.6071,-12.2517,81.4642
2023-03-10 00:02:10:44,-2.02829,2.4371,-9.24364,-14.5941,-12.25,81.4621
2023-03-10 00:02:10:54,-2.04781,2.43856,-9.23866,-14.5851,-12.2501,81.4576
2023-03-10 00:02:10:64,-2.0476,2.42465,-9.24501,-14.5736,-12.2485,81.455
2023-03-10 00:02:10:74,-2.02357,2.43634,-9.25854,-14.5667,-12.2471,81.4482
2023-03-10 00:02:10:85,-2.02471,2.45132,-9.2703,-14.5628,-12.2416,81.4429
2023-03-10 00:02:10:95,-2.04038,2.4477,-9.27092,-14.5559,-12.2354,81.4402
2023-03-10 00:02:10:105,-2.04016,2.44558,-9.26531,-14.5485,-12.237,81.441
2023-03-10 00:02:10:115,-2.02387,2.44466,-9.26037,-14.5392,-12.2389,81.4389
2023-03-10 00:02:10:125,-2.00223,2.43194,-9.24738,-14.5295,-12.2391,81.4381
2023-03-10 00:02:10:135,-2.01099,2.41582,-9.2171,-14.5197,-12.2424,81.4418
2023-03-10 00:02:10:145,-1.99854,2.39355,-9.20519,-14.5117,-12.2492,81.4432
2023-03-10 00:02:10:155,-1.98711,2.39195,-9.20498,-14.5051,-12.2558,81.4469
2023-03-10 00:02:10:165,-1.99767,2.41562,-9.20304,-14.5025,-12.2618,81.4567
2023-03-10 00:02:10:175,-2.04139,2.42451,-9.21098,-14.5008,-12.2685,81.4661
2023-03-10 00:02:10:185,-2.06839,2.42072,-9.22367,-14.502,-12.2731,81.4805
2023-03-10 00:02:10:195,-2.08916,2.43488,-9.22515,-14.5066,-12.2755,81.4972
2023-03-10 00:02:10:205,-2.09575,2.44383,-9.24939,-14.509,-12.2773,81.5099
2023-03-10 00:02:10:215,-2.10238,2.45299,-9.26795,-14.5135,-12.28,81.5238
2023-03-10 00:02:10:225,-2.10917,2.45004,-9.27517,-14.514,-12.2831,81.5372
2023-03-10 00:02:10:235,-2.1298,2.45597,-9.25413,-14.5143,-12.2913,81.5492
2023-03-10 00:02:10:245,-2.13493,2.4689,-9.24002,-14.5142,-12.2975,81.5573
2023-03-10 00:02:10:255,-2.16299,2.4713,-9.2597,-14.5124,-12.304,81.5684
2023-03-10 00:02:10:265,-2.16308,2.46515,-9.28864,-14.5119,-12.3078,81.5784
2023-03-10 00:02:10:275,-2.16001,2.46935,-9.29372,-14.5099,-12.3079,81.5847
2023-03-10 00:02:10:285,-2.14052,2.4827,-9.27922,-14.5042,-12.3103,81.5856
2023-03-10 00:02:10:295,-2.13288,2.47304,-9.27593,-14.4959,-12.313,81.5835
2023-03-10 00:02:10:305,-2.13309,2.45767,-9.26189,-14.4872,-12.3161,81.5808
2023-03-10 00:02:10:315,-2.13506,2.44424,-9.24622,-14.4787,-12.3141,81.5797
2023-03-10 00:02:10:325,-2.12064,2.42918,-9.24573,-14.4668,-12.3092,81.5739
2023-03-10 00:02:10:335,-2.10123,2.42599,-9.23391,-14.4545,-12.3061,81.5705
2023-03-10 00:02:10:345,-2.10393,2.40587,-9.21324,-14.4389,-12.3044,81.5634
2023-03-10 00:02:10:355,-2.11651,2.3964,-9.2138,-14.4287,-12.2987,81.559
2023-03-10 00:02:10:365,-2.12723,2.40936,-9.22786,-14.4189,-12.2901,81.554
2023-03-10 00:02:10:375,-2.13572,2.41905,-9.24812,-14.4108,-12.2858,81.5503
2023-03-10 00:02:10:385,-2.14685,2.43442,-9.27153,-14.4016,-12.2742,81.5418
2023-03-10 00:02:10:395,-2.124,2.43588,-9.27024,-14.3922,-12.267,81.5352
2023-03-10 00:02:10:405,-2.10778,2.42997,-9.2789,-14.3771,-12.2576,81.5254
2023-03-10 00:02:10:415,-2.11363,2.42968,-9.26536,-14.3675,-12.248,81.5166
2023-03-10 00:02:10:425,-2.10997,2.42714,-9.25102,-14.3564,-12.2365,81.5043
2023-03-10 00:02:10:435,-2.09216,2.42314,-9.2503,-14.3437,-12.2281,81.4915
2023-03-10 00:02:10:445,-2.10198,2.39507,-9.25208,-14.3312,-12.2219,81.4771
2023-03-10 00:02:10:455,-2.12783,2.40471,-9.23734,-14.3199,-12.2135,81.4659
2023-03-10 00:02:10:465,-2.11146,2.39742,-9.24745,-14.3075,-12.2032,81.4515
2023-03-10 00:02:10:475,-2.10272,2.40875,-9.26529,-14.2945,-12.1941,81.4374
2023-03-10 00:02:10:485,-2.08971,2.39753,-9.2549,-14.2819,-12.1861,81.4221
2023-03-10 00:02:10:495,-2.08238,2.38818,-9.26166,-14.2681,-12.1738,81.4088
2023-03-10 00:02:10:505,-2.08552,2.38843,-9.24061,-14.2552,-12.1618,81.3959
2023-03-10 00:02:10:515,-2.07298,2.37481,-9.24027,-14.2422,-12.1488,81.3848
2023-03-10 00:02:10:525,-2.07704,2.38823,-9.24557,-14.2333,-12.1336,81.371
2023-03-10 00:02:10:535,-2.08924,2.39986,-9.24453,-14.2227,-12.1185,81.3571
2023-03-10 00:02:10:545,-2.10106,2.40106,-9.26413,-14.2099,-12.1017,81.3416
2023-03-10 00:02:10:555,-2.09585,2.39419,-9.27251,-14.1944,-12.0834,81.3226
2023-03-10 00:02:10:565,-2.08358,2.39626,-9.2647,-14.1862,-12.0643,81.3052
2023-03-10 00:02:10:575,-2.05581,2.38572,-9.27053,-14.1745,-12.0461,81.2825
2023-03-10 00:02:10:585,-2.05457,2.37204,-9.26739,-14.1614,-12.0275,81.2595
2023-03-10 00:02:10:595,-2.06267,2.37054,-9.25277,-14.1493,-12.0075,81.2368
2023-03-10 00:02:10:605,-2.05817,2.37104,-9.23124,-14.1358,-11.9856,81.2142
2023-03-10 00:02:10:615,-2.05117,2.37685,-9.23685,-14.1257,-11.9599,81.1929
2023-03-10 00:02:10:625,-2.03164,2.3778,-9.27115,-14.1139,-11.9374,81.1694
2023-03-10 00:02:10:635,-1.99197,2.37403,-9.29362,-14.1086,-11.9141,81.1437
2023-03-10 00:02:10:645,-1.9667,2.37042,-9.29524,-14.0998,-11.8934,81.1244
2023-03-10 00:02:10:655,-1.97131,2.36104,-9.29514,-14.0888,-11.875,81.1004
2023-03-10 00:02:10:665,-1.98768,2.35066,-9.29866,-14.0776,-11.8564,81.0809
2023-03-10 00:02:10:675,-1.9887,2.34997,-9.2842,-14.0668,-11.8364,81.0597
2023-03-10 00:02:10:685,-1.96649,2.33627,-9.2842,-14.0532,-11.815,81.0359
2023-03-10 00:02:10:695,-1.96836,2.34036,-9.28372,-14.0405,-11.7937,81.0143
2023-03-10 00:02:10:705,-1.94863,2.32888,-9.25635,-14.0312,-11.7789,80.9913
2023-03-10 00:02:10:715,-1.9372,2.32252,-9.24962,-14.0218,-11.7608,80.9663
2023-03-10 00:02:10:725,-1.92173,2.32441,-9.26602,-14.0152,-11.7468,80.9434
2023-03-10 00:02:10:735,-1.9488,2.32508,-9.27175,-14.0082,-11.7317,80.9219
2023-03-10 00:02:10:745,-1.95423,2.31455,-9.26361,-14.0031,-11.7185,80.9009
2023-03-10 00:02:10:755,-1.93967,2.30665,-9.25966,-13.9959,-11.7051,80.8787
2023-03-10 00:02:10:765,-1.94969,2.31871,-9.28948,-13.996,-11.6941,80.855
2023-03-10 00:02:10:775,-1.95303,2.33932,-9.32097,-13.9968,-11.6869,80.8326
2023-03-10 00:02:10:785,-1.97409,2.3552,-9.33893,-13.9953,-11.6767,80.8103
2023-03-10 00:02:10:795,-2.04875,2.37669,-9.32397,-13.9951,-11.6745,80.7845
2023-03-10 00:02:10:805,-2.23863,2.42912,-9.34423,-13.9949,-11.6766,80.7593
2023-03-10 00:02:10:815,-2.4307,2.50289,-9.38188,-13.9928,-11.6887,80.7224
2023-03-10 00:02:10:825,-2.57249,2.55268,-9.3839,-13.979,-11.7097,80.6565
2023-03-10 00:02:10:835,-2.62111,2.54571,-9.33985,-13.9481,-11.739,80.558
2023-03-10 00:02:10:845,-2.55325,2.4941,-9.28837,-13.9035,-11.7751,80.4207
2023-03-10 00:02:10:855,-2.4431,2.45485,-9.23916,-13.8489,-11.8163,80.2561
2023-03-10 00:02:10:865,-2.34132,2.42478,-9.23553,-13.7921,-11.8612,80.0644
2023-03-10 00:02:10:875,-2.21876,2.40223,-9.25642,-13.7323,-11.9078,79.854
2023-03-10 00:02:10:885,-2.0863,2.3717,-9.26081,-13.6675,-11.9524,79.628
2023-03-10 00:02:10:895,-1.99928,2.33094,-9.24041,-13.6,-11.9935,79.3975
2023-03-10 00:02:10:905,-1.96509,2.30223,-9.25247,-13.5377,-12.0292,79.1744
2023-03-10 00:02:10:915,-1.94854,2.31133,-9.29124,-13.4814,-12.0586,78.9514
2023-03-10 00:02:10:925,-1.92359,2.32255,-9.32288,-13.4251,-12.0837,78.7345
2023-03-10 00:02:10:935,-1.90972,2.31104,-9.36095,-13.3723,-12.1012,78.525
2023-03-10 00:02:10:945,-1.88262,2.30177,-9.36881,-13.3195,-12.1156,78.3241
2023-03-10 00:02:10:955,-1.87818,2.29357,-9.36241,-13.2633,-12.1279,78.1322
2023-03-10 00:02:10:965,-1.88287,2.29442,-9.36552,-13.206,-12.1385,77.9483
2023-03-10 00:02:10:975,-1.88712,2.28726,-9.35855,-13.1522,-12.1463,77.7712
2023-03-10 00:02:10:985,-1.895,2.27653,-9.34575,-13.0989,-12.1511,77.6065
2023-03-10 00:02:10:995,-1.88742,2.25203,-9.34238,-13.0445,-12.1565,77.4497
2023-03-10 00:02:11:5,-1.8788,2.23004,-9.32629,-12.9907,-12.1599,77.3042
2023-03-10 00:02:11:15,-1.892,2.21163,-9.31023,-12.9349,-12.1632,77.1695
2023-03-10 00:02:11:25,-1.90753,2.20783,-9.30396,-12.8805,-12.1629,77.0389
2023-03-10 00:02:11:35,-1.90038,2.19474,-9.31648,-12.8259,-12.1587,76.9213
2023-03-10 00:02:11:45,-1.86242,2.17087,-9.34719,-12.7742,-12.1541,76.8061
2023-03-10 00:02:11:55,-1.86566,2.14237,-9.34214,-12.7204,-12.1539,76.7017
2023-03-10 00:02:11:65,-1.89577,2.12289,-9.32915,-12.6632,-12.1537,76.6057
2023-03-10 00:02:11:75,-1.90409,2.09317,-9.31665,-12.6127,-12.1568,76.5159
2023-03-10 00:02:11:85,-1.90637,2.0704,-9.30605,-12.564,-12.1598,76.4334
2023-03-10 00:02:11:95,-1.91103,2.04031,-9.29839,-12.5143,-12.1641,76.355
2023-03-10 00:02:11:105,-1.92033,2.02809,-9.28297,-12.4739,-12.1731,76.2909
2023-03-10 00:02:11:115,-1.89912,2.01412,-9.28601,-12.4361,-12.1818,76.2296
2023-03-10 00:02:11:125,-1.86432,1.98975,-9.28893,-12.4026,-12.1904,76.1775
2023-03-10 00:02:11:135,-1.89387,1.97647,-9.27289,-12.3718,-12.1976,76.1368
2023-03-10 00:02:11:145,-1.99392,2.00425,-9.28133,-12.3497,-12.2053,76.1026
2023-03-10 00:02:11:155,-2.05348,2.03677,-9.30368,-12.3323,-12.2107,76.0725
2023-03-10 00:02:11:165,-2.06009,2.04375,-9.3327,-12.3125,-12.2184,76.0491
2023-03-10 00:02:11:175,-2.04308,2.03767,-9.34315,-12.2931,-12.2244,76.0201
2023-03-10 00:02:11:185,-2.04984,2.0212,-9.33666,-12.2718,-12.2308,75.9942
2023-03-10 00:02:11:195,-2.04133,2.00804,-9.31689,-12.2499,-12.2415,75.9717
2023-03-10 00:02:11:205,-2.01271,1.97973,-9.32077,-12.232,-12.2482,75.9511
2023-03-10 00:02:11:215,-1.98752,1.95016,-9.31082,-12.2136,-12.2564,75.9357
2023-03-10 00:02:11:225,-1.98932,1.94319,-9.29901,-12.2038,-12.2632,75.9183
2023-03-10 00:02:11:235,-1.98586,1.95578,-9.30917,-12.1973,-12.2716,75.9113
2023-03-10 00:02:11:245,-2.00337,1.97369,-9.32409,-12.1944,-12.2796,75.9119
2023-03-10 00:02:11:255,-2.07668,1.99588,-9.34405,-12.1959,-12.2839,75.9195
2023-03-10 00:02:11:265,-2.13968,2.02864,-9.36433,-12.1977,-12.2875,75.9278
2023-03-10 00:02:11:275,-2.13262,2.02202,-9.36015,-12.1964,-12.2902,75.9333
2023-03-10 00:02:11:285,-2.1392,2.01922,-9.3384,-12.1941,-12.2861,75.9375
2023-03-10 00:02:11:295,-2.13996,2.01249,-9.3171,-12.1883,-12.2862,75.9396
2023-03-10 00:02:11:305,-2.12093,2.00109,-9.29866,-12.1856,-12.2805,75.9398
2023-03-10 00:02:11:315,-2.08643,1.99048,-9.285,-12.1864,-12.2704,75.9405
2023-03-10 00:02:11:325,-2.09566,1.99718,-9.27731,-12.1882,-12.2628,75.94
2023-03-10 00:02:11:335,-2.10567,2.01094,-9.29229,-12.1981,-12.2502,75.9381
2023-03-10 00:02:11:345,-2.07592,2.02401,-9.30305,-12.2061,-12.237,75.934
2023-03-10 00:02:11:355,-2.07064,2.03753,-9.30756,-12.2116,-12.2263,75.9282
2023-03-10 00:02:11:365,-2.08045,2.03945,-9.3168,-12.2224,-12.213,75.9254
2023-03-10 00:02:11:375,-2.0604,2.0595,-9.31792,-12.2315,-12.1991,75.9186
2023-03-10 00:02:11:385,-2.02858,2.06586,-9.31706,-12.2466,-12.186,75.912
2023-03-10 00:02:11:395,-1.99642,2.06563,-9.30701,-12.2577,-12.171,75.9055
2023-03-10 00:02:11:405,-1.97134,2.07321,-9.30253,-12.2722,-12.1606,75.897
2023-03-10 00:02:11:415,-1.97141,2.08225,-9.3046,-12.2873,-12.1501,75.8914
2023-03-10 00:02:11:425,-1.977,2.09123,-9.3355,-12.3082,-12.1373,75.8896
2023-03-10 00:02:11:435,-1.97774,2.1138,-9.35014,-12.3287,-12.1301,75.8881
2023-03-10 00:02:11:445,-1.97834,2.11747,-9.3637,-12.3456,-12.1217,75.8858
2023-03-10 00:02:11:455,-1.96782,2.13303,-9.3641,-12.3625,-12.1176,75.8877
2023-03-10 00:02:11:465,-1.93931,2.14162,-9.37386,-12.38,-12.1103,75.8908
2023-03-10 00:02:11:475,-1.92241,2.13706,-9.35372,-12.3916,-12.1042,75.8937
2023-03-10 00:02:11:485,-1.92067,2.12719,-9.34445,-12.4075,-12.1007,75.9042
2023-03-10 00:02:11:495,-1.89591,2.12671,-9.34503,-12.4249,-12.0995,75.9188
2023-03-10 00:02:11:505,-1.87301,2.12573,-9.33852,-12.438,-12.1005,75.9371
2023-03-10 00:02:11:515,-1.82671,2.11394,-9.34227,-12.4573,-12.1044,75.9631
2023-03-10 00:02:11:525,-1.79374,2.11656,-9.33695,-12.4782,-12.1056,75.9976
2023-03-10 00:02:11:535,-1.80156,2.12266,-9.3451,-12.5021,-12.1051,76.0396
2023-03-10 00:02:11:545,-1.81269,2.12005,-9.34091,-12.5231,-12.1049,76.0985
2023-03-10 00:02:11:555,-1.84589,2.1399,-9.33247,-12.5498,-12.1046,76.1679
2023-03-10 00:02:11:565,-1.83592,2.13827,-9.34627,-12.5745,-12.0987,76.2469
2023-03-10 00:02:11:575,-1.80184,2.13342,-9.35319,-12.6011,-12.0939,76.333
2023-03-10 00:02:11:585,-1.82017,2.13369,-9.32905,-12.6307,-12.0879,76.4289
2023-03-10 00:02:11:595,-1.86534,2.11571,-9.31835,-12.6588,-12.0842,76.5368
2023-03-10 00:02:11:605,-1.8929,2.12339,-9.30836,-12.6879,-12.0823,76.6524
2023-03-10 00:02:11:615,-1.94033,2.14896,-9.30612,-12.722,-12.0791,76.7764
2023-03-10 00:02:11:625,-1.98174,2.16509,-9.30147,-12.759,-12.0735,76.9038
2023-03-10 00:02:11:635,-2.03321,2.18798,-9.30357,-12.7954,-12.0684,77.0356
2023-03-10 00:02:11:645,-2.06346,2.19997,-9.31695,-12.8322,-12.0636,77.1721
2023-03-10 00:02:11:655,-2.061,2.20098,-9.33101,-12.8725,-12.056,77.3078
2023-03-10 00:02:11:665,-2.0806,2.19608,-9.32081,-12.908,-12.0493,77.4433
2023-03-10 00:02:11:675,-2.11874,2.20878,-9.31414,-12.9432,-12.0408,77.5754
2023-03-10 00:02:11:685,-2.12698,2.22295,-9.32712,-12.9783,-12.0345,77.705
2023-03-10 00:02:11:695,-2.10208,2.21502,-9.32872,-13.0107,-12.0269,77.8311
2023-03-10 00:02:11:705,-2.08841,2.21358,-9.29679,-13.0393,-12.0202,77.949
2023-03-10 00:02:11:715,-2.10168,2.21333,-9.28724,-13.0714,-12.0145,78.0684
2023-03-10 00:02:11:725,-2.10094,2.21046,-9.29681,-13.1023,-12.0079,78.1841
2023-03-10 00:02:11:735,-2.09782,2.22793,-9.30731,-13.1322,-12.0002,78.2942
2023-03-10 00:02:11:745,-2.09421,2.23551,-9.31136,-13.1603,-11.9965,78.4027
2023-03-10 00:02:11:755,-2.08868,2.21992,-9.318,-13.1875,-11.9937,78.5042
2023-03-10 00:02:11:765,-2.08097,2.21919,-9.31929,-13.2157,-11.987,78.6034
2023-03-10 00:02:11:775,-2.05545,2.23374,-9.32564,-13.243,-11.9832,78.7025
2023-03-10 00:02:11:785,-2.0034,2.22869,-9.34929,-13.2692,-11.9778,78.7951
2023-03-10 00:02:11:795,-1.98722,2.22461,-9.32969,-13.2941,-11.9753,78.885
2023-03-10 00:02:11:805,-2.05728,2.2236,-9.3106,-13.3203,-11.9821,78.9796
2023-03-10 00:02:11:815,-2.1224,2.26088,-9.29656,-13.3494,-11.9899,79.0727
2023-03-10 00:02:11:825,-2.13304,2.2786,-9.29598,-13.376,-11.9937,79.1619
2023-03-10 00:02:11:835,-2.12956,2.29273,-9.29179,-13.402,-11.9985,79.2472
2023-03-10 00:02:11:845,-2.14272,2.28397,-9.27383,-13.4299,-12.0049,79.3268
2023-03-10 00:02:11:855,-2.15607,2.28277,-9.26273,-13.4559,-12.0093,79.4085
2023-03-10 00:02:11:865,-2.13407,2.29991,-9.25534,-13.4821,-12.0141,79.4857
2023-03-10 00:02:11:875,-2.13346,2.30028,-9.24902,-13.5077,-12.0167,79.5577
2023-03-10 00:02:11:885,-2.14586,2.29793,-9.24132,-13.5325,-12.0192,79.6296
2023-03-10 00:02:11:895,-2.16584,2.30378,-9.23044,-13.5561,-12.0215,79.6987
2023-03-10 00:02:11:905,-2.15053,2.28413,-9.24283,-13.5787,-12.026,79.7618
2023-03-10 00:02:11:915,-2.1467,2.29595,-9.2698,-13.6038,-12.0271,79.8273
2023-03-10 00:02:11:925,-2.14817,2.31342,-9.29064,-13.6286,-12.0249,79.8846
2023-03-10 00:02:11:935,-2.16836,2.33309,-9.2967,-13.6529,-12.0236,79.9426
2023-03-10 00:02:11:945,-2.18917,2.35536,-9.29683,-13.6782,-12.0228,80.0021
2023-03-10 00:02:11:955,-2.17707,2.36621,-9.31641,-13.7058,-12.0151,80.0566
2023-03-10 00:02:11:965,-2.15864,2.37332,-9.32037,-13.725,-12.0041,80.1029
2023-03-10 00:02:11:975,-2.15979,2.37338,-9.31249,-13.7449,-11.9961,80.1441
2023-03-10 00:02:11:985,-2.1558,2.38335,-9.31891,-13.7618,-11.9843,80.1844
2023-03-10 00:02:11:995,-2.13546,2.38521,-9.31849,-13.7809,-11.9752,80.218
2023-03-10 00:02:12:5,-2.14874,2.39834,-9.31914,-13.7943,-11.9662,80.2491
2023-03-10 00:02:12:15,-2.14268,2.39652,-9.3278,-13.8048,-11.9608,80.2777
2023-03-10 00:02:12:25,-2.13327,2.38515,-9.31509,-13.8136,-11.9525,80.3049
2023-03-10 00:02:12:35,-2.15146,2.39296,-9.29961,-13.8196,-11.9454,80.3263
2023-03-10 00:02:12:45,-2.1266,2.38096,-9.28731,-13.8236,-11.9345,80.3437
2023-03-10 00:02:12:55,-2.06026,2.36195,-9.29245,-13.8188,-11.9239,80.3543
2023-03-10 00:02:12:65,-2.0066,2.34245,-9.30825,-13.8141,-11.9138,80.3599
2023-03-10 00:02:12:75,-1.99801,2.33333,-9.29628,-13.8096,-11.9088,80.3686
2023-03-10 00:02:12:85,-2.02812,2.33797,-9.29518,-13.8013,-11.9041,80.3718
2023-03-10 00:02:12:95,-2.05703,2.33509,-9.29251,-13.7911,-11.8992,80.3755
2023-03-10 00:02:12:105,-2.06504,2.33529,-9.28773,-13.7816,-11.8966,80.3802
2023-03-10 00:02:12:115,-2.05467,2.33496,-9.29887,-13.7788,-11.8936,80.3812
2023-03-10 00:02:12:125,-2.02846,2.33641,-9.31075,-13.7742,-11.8858,80.3815
2023-03-10 00:02:12:135,-2.01132,2.32844,-9.31614,-13.7696,-11.8793,80.3873
2023-03-10 00:02:12:145,-1.99853,2.32595,-9.30733,-13.7635,-11.8722,80.3879
2023-03-10 00:02:12:155,-2.00658,2.31224,-9.29776,-13.7586,-11.8631,80.3905
2023-03-10 00:02:12:165,-2.01131,2.30733,-9.27814,-13.7511,-11.8565,80.3924
2023-03-10 00:02:12:175,-2.00621,2.30495,-9.26455,-13.7442,-11.85,80.3913
2023-03-10 00:02:12:185,-1.99599,2.30254,-9.24468,-13.7384,-11.8365,80.3944
2023-03-10 00:02:12:195,-1.99855,2.3029,-9.24068,-13.7346,-11.8263,80.3929
2023-03-10 00:02:12:205,-1.98111,2.3045,-9.26253,-13.7265,-11.8165,80.3895
2023-03-10 00:02:12:215,-1.95784,2.30752,-9.28827,-13.7228,-11.8089,80.3833
2023-03-10 00:02:12:225,-1.95328,2.31758,-9.29373,-13.7176,-11.8016,80.3766
2023-03-10 00:02:12:235,-1.94295,2.31567,-9.31274,-13.7162,-11.7937,80.373
2023-03-10 00:02:12:245,-1.92919,2.30697,-9.32947,-13.7121,-11.7945,80.3645
2023-03-10 00:02:12:255,-1.904,2.29941,-9.32345,-13.706,-11.7948,80.361
2023-03-10 00:02:12:265,-1.89909,2.29152,-9.31891,-13.7014,-11.7971,80.3563
2023-03-10 00:02:12:275,-1.90993,2.30549,-9.31498,-13.6971,-11.802,80.356
2023-03-10 00:02:12:285,-1.93275,2.30106,-9.30466,-13.6938,-11.8067,80.3584
2023-03-10 00:02:12:295,-1.94189,2.29408,-9.28577,-13.6923,-11.8118,80.3688
2023-03-10 00:02:12:305,-1.95196,2.2898,-9.26901,-13.6933,-11.8192,80.3798
2023-03-10 00:02:12:315,-1.97672,2.28575,-9.27158,-13.6941,-11.8231,80.3932
2023-03-10 00:02:12:325,-1.99695,2.29739,-9.28903,-13.6983,-11.8252,80.4101
2023-03-10 00:02:12:335,-1.99974,2.30572,-9.28986,-13.7007,-11.8248,80.4247
2023-03-10 00:02:12:345,-2.02608,2.31511,-9.28703,-13.7038,-11.8248,80.4397
2023-03-10 00:02:12:355,-2.05813,2.31934,-9.267,-13.7054,-11.8238,80.4547
2023-03-10 00:02:12:365,-2.04696,2.31015,-9.26472,-13.7074,-11.8256,80.4683
2023-03-10 00:02:12:375,-2.0424,2.30617,-9.26004,-13.7114,-11.8264,80.4781
2023-03-10 00:02:12:385,-2.05349,2.3123,-9.26588,-13.718,-11.8281,80.4859
2023-03-10 00:02:12:395,-2.06507,2.33286,-9.28087,-13.7252,-11.8297,80.4931
2023-03-10 00:02:12:405,-2.05264,2.34831,-9.30494,-13.7292,-11.8346,80.4932
2023-03-10 00:02:12:415,-2.02968,2.34867,-9.34284,-13.7352,-11.8397,80.4947
2023-03-10 00:02:12:425,-2.02696,2.35598,-9.35093,-13.7356,-11.8431,80.4919
2023-03-10 00:02:12:435,-2.02327,2.35775,-9.35033,-13.7327,-11.8436,80.4919
2023-03-10 00:02:12:445,-1.99263,2.35729,-9.33962,-13.7275,-11.8495,80.4846
2023-03-10 00:02:12:455,-1.98292,2.33961,-9.32445,-13.7218,-11.8505,80.4829
2023-03-10 00:02:12:465,-1.99422,2.34252,-9.29472,-13.7129,-11.8535,80.4799
2023-03-10 00:02:12:475,-1.99559,2.33034,-9.28424,-13.7081,-11.8544,80.4821
2023-03-10 00:02:12:485,-1.9957,2.31569,-9.29042,-13.7008,-11.8544,80.4856
2023-03-10 00:02:12:495,-2.00799,2.32234,-9.28115,-13.6964,-11.853,80.491
2023-03-10 00:02:12:505,-2.00125,2.3228,-9.28406,-13.6914,-11.852,80.4946
2023-03-10 00:02:12:515,-1.99579,2.30416,-9.27875,-13.6826,-11.8518,80.4981
2023-03-10 00:02:12:525,-1.99811,2.28434,-9.27188,-13.6754,-11.8534,80.5001
2023-03-10 00:02:12:535,-2.01891,2.28548,-9.26786,-13.6695,-11.8532,80.5081
2023-03-10 00:02:12:545,-2.01352,2.29736,-9.25613,-13.6661,-11.8507,80.5171
2023-03-10 00:02:12:555,-2.0142,2.29619,-9.2618,-13.6635,-11.8502,80.5207
2023-03-10 00:02:12:565,-2.01488,2.29147,-9.27013,-13.6615,-11.8519,80.5266
2023-03-10 00:02:12:575,-2.01728,2.29704,-9.27613,-13.6624,-11.855,80.5345
2023-03-10 00:02:12:585,-2.01903,2.30642,-9.28647,-13.6628,-11.8544,80.5423
2023-03-10 00:02:12:595,-2.0219,2.31256,-9.30011,-13.6607,-11.8511,80.5475
2023-03-10 00:02:12:605,-2.05787,2.32019,-9.29661,-13.6588,-11.8504,80.5536
2023-03-10 00:02:12:615,-2.05272,2.316,-9.2998,-13.6575,-11.8502,80.555
2023-03-10 00:02:12:625,-2.05215,2.31626,-9.2977,-13.653,-11.8498,80.5562
2023-03-10 00:02:12:635,-2.04346,2.2965,-9.30296,-13.6523,-11.8516,80.5549
2023-03-10 00:02:12:645,-2.03459,2.30807,-9.29004,-13.6507,-11.8519,80.5521
2023-03-10 00:02:12:655,-2.01122,2.29642,-9.29397,-13.6474,-11.853,80.5454
2023-03-10 00:02:12:665,-1.99394,2.28384,-9.2841,-13.6425,-11.8515,80.5415
2023-03-10 00:02:12:675,-1.97867,2.27367,-9.28332,-13.6381,-11.8535,80.5365
2023-03-10 00:02:12:685,-1.9874,2.27217,-9.27949,-13.6384,-11.8528,80.5337
2023-03-10 00:02:12:695,-2.00946,2.29498,-9.27337,-13.6411,-11.8498,80.531
2023-03-10 00:02:12:705,-2.01824,2.30544,-9.27933,-13.6413,-11.8556,80.5279
2023-03-10 00:02:12:715,-2.03606,2.31619,-9.29689,-13.6401,-11.8483,80.5262
2023-03-10 00:02:12:725,-2.0376,2.31981,-9.30639,-13.6371,-11.8436,80.5231
2023-03-10 00:02:12:735,-2.05319,2.30584,-9.32879,-13.6365,-11.8397,80.5186
2023-03-10 00:02:12:745,-2.04938,2.30869,-9.33291,-13.6321,-11.8347,80.5113
2023-03-10 00:02:12:755,-2.03532,2.289,-9.31843,-13.6251,-11.8288,80.5035
2023-03-10 00:02:12:765,-2.02649,2.27699,-9.28721,-13.6168,-11.8278,80.495
2023-03-10 00:02:12:775,-2.03791,2.26603,-9.26326,-13.6122,-11.8261,80.4864
2023-03-10 00:02:12:785,-2.03562,2.27631,-9.27154,-13.6083,-11.8257,80.477
2023-03-10 00:02:12:795,-2.02812,2.29295,-9.28647,-13.603,-11.8227,80.4643
2023-03-10 00:02:12:805,-2.03211,2.2859,-9.29013,-13.5982,-11.8183,80.4499
2023-03-10 00:02:12:815,-2.02413,2.28528,-9.29837,-13.5944,-11.8143,80.4351
2023-03-10 00:02:12:825,-1.97539,2.2824,-9.32167,-13.5911,-11.8086,80.4225
2023-03-10 00:02:12:835,-1.94227,2.28126,-9.33516,-13.586,-11.8065,80.4052
2023-03-10 00:02:12:845,-1.94254,2.273,-9.32513,-13.5797,-11.8076,80.3891
2023-03-10 00:02:12:855,-1.98532,2.27541,-9.30099,-13.5768,-11.8084,80.3756
2023-03-10 00:02:12:865,-2.03892,2.27947,-9.28065,-13.5747,-11.8157,80.3622
2023-03-10 00:02:12:875,-2.0611,2.29908,-9.28376,-13.5764,-11.8196,80.3519
2023-03-10 00:02:12:885,-2.04942,2.30532,-9.28692,-13.5772,-11.8168,80.3345
2023-03-10 00:02:12:895,-2.03338,2.31399,-9.28575,-13.5763,-11.809,80.3182
2023-03-10 00:02:12:905,-2.00225,2.31456,-9.29623,-13.5741,-11.8007,80.3044
2023-03-10 00:02:12:915,-1.96743,2.32176,-9.30028,-13.5719,-11.7929,80.2809
2023-03-10 00:02:12:925,-1.95354,2.31287,-9.29007,-13.5646,-11.7898,80.2551
2023-03-10 00:02:12:935,-1.97624,2.30213,-9.26803,-13.5562,-11.7894,80.2332
2023-03-10 00:02:12:945,-1.97556,2.30088,-9.26479,-13.5507,-11.7884,80.2164
2023-03-10 00:02:12:955,-1.97268,2.30028,-9.27812,-13.5479,-11.7856,80.1922
2023-03-10 00:02:12:965,-1.9618,2.297,-9.28877,-13.5432,-11.7801,80.1686
2023-03-10 00:02:12:975,-1.93662,2.29701,-9.32125,-13.5397,-11.7824,80.1484
2023-03-10 00:02:12:985,-1.92465,2.2974,-9.33363,-13.5358,-11.7837,80.1338
2023-03-10 00:02:12:995,-1.93571,2.30275,-9.32445,-13.5296,-11.7827,80.1179
2023-03-10 00:02:13:5,-1.92951,2.29139,-9.33201,-13.5295,-11.7837,80.1073
2023-03-10 00:02:13:15,-1.94146,2.28659,-9.33081,-13.5264,-11.7782,80.1005
2023-03-10 00:02:13:25,-1.95118,2.29393,-9.33391,-13.5222,-11.7772,80.0956
2023-03-10 00:02:13:35,-1.96946,2.29632,-9.33527,-13.5168,-11.7751,80.0971
2023-03-10 00:02:13:45,-1.98303,2.30053,-9.31884,-13.5161,-11.7717,80.0984
2023-03-10 00:02:13:55,-1.99663,2.30488,-9.305,-13.515,-11.7665,80.1027
2023-03-10 00:02:13:65,-2.0202,2.29019,-9.2852,-13.5133,-11.7624,80.1036
2023-03-10 00:02:13:75,-2.04708,2.28145,-9.28415,-13.5115,-11.7575,80.1091
2023-03-10 00:02:13:85,-2.07046,2.2963,-9.2904,-13.509,-11.7489,80.1139
2023-03-10 00:02:13:95,-2.07457,2.31767,-9.28493,-13.506,-11.7421,80.1118
2023-03-10 00:02:13:105,-2.02727,2.31438,-9.31845,-13.4968,-11.7316,80.1074
2023-03-10 00:02:13:115,-1.96515,2.315,-9.34644,-13.4869,-11.723,80.1015
2023-03-10 00:02:13:125,-1.92843,2.28182,-9.34682,-13.4761,-11.7219,80.0946
2023-03-10 00:02:13:135,-1.95241,2.26502,-9.30851,-13.4662,-11.7229,80.0879
2023-03-10 00:02:13:145,-2.00336,2.24343,-9.28872,-13.4498,-11.7245,80.0812
2023-03-10 00:02:13:155,-2.00755,2.24931,-9.29487,-13.4388,-11.7241,80.0736
2023-03-10 00:02:13:165,-2.00544,2.23262,-9.32905,-13.4305,-11.7229,80.0675
2023-03-10 00:02:13:175,-1.99729,2.24151,-9.34047,-13.4197,-11.7194,80.0591
2023-03-10 00:02:13:185,-1.97651,2.24881,-9.34088,-13.4124,-11.7174,80.0522
2023-03-10 00:02:13:195,-1.98834,2.26278,-9.32857,-13.4072,-11.7147,80.0473
2023-03-10 00:02:13:205,-1.99651,2.2424,-9.3081,-13.3981,-11.7107,80.0452
2023-03-10 00:02:13:215,-1.99814,2.22948,-9.27977,-13.3867,-11.7082,80.038
2023-03-10 00:02:13:225,-2.00184,2.22843,-9.25985,-13.3751,-11.7064,80.0323
2023-03-10 00:02:13:235,-2.01723,2.24259,-9.26211,-13.3692,-11.6986,80.0296
2023-03-10 00:02:13:245,-2.01231,2.24647,-9.27963,-13.3634,-11.6909,80.0211
2023-03-10 00:02:13:255,-2.00444,2.25016,-9.29028,-13.3572,-11.6832,80.0114
2023-03-10 00:02:13:265,-1.99053,2.24291,-9.29591,-13.3521,-11.6799,79.9993
2023-03-10 00:02:13:275,-1.97126,2.22457,-9.30373,-13.3457,-11.6739,79.9853
2023-03-10 00:02:13:285,-1.95237,2.23142,-9.31078,-13.3384,-11.6696,79.9682
2023-03-10 00:02:13:295,-1.95433,2.23075,-9.29387,-13.3317,-11.6652,79.9566
2023-03-10 00:02:13:305,-1.97111,2.22399,-9.2965,-13.3265,-11.6625,79.9409
2023-03-10 00:02:13:315,-1.96835,2.22709,-9.3006,-13.323,-11.6589,79.9306
2023-03-10 00:02:13:325,-1.94606,2.2359,-9.31273,-13.3234,-11.655,79.9159
2023-03-10 00:02:13:335,-1.95727,2.24384,-9.33238,-13.327,-11.6512,79.9045
2023-03-10 00:02:13:345,-1.9942,2.26349,-9.32844,-13.3291,-11.6491,79.8943
2023-03-10 00:02:13:355,-2.01852,2.27708,-9.3431,-13.3322,-11.6457,79.8849
2023-03-10 00:02:13:365,-2.0237,2.27405,-9.3608,-13.3322,-11.6429,79.8711
2023-03-10 00:02:13:375,-2.02787,2.28963,-9.35694,-13.3321,-11.6373,79.8557
2023-03-10 00:02:13:385,-2.02745,2.29255,-9.34147,-13.3268,-11.6322,79.8366
2023-03-10 00:02:13:395,-2.01861,2.27505,-9.32467,-13.3192,-11.6278,79.815
2023-03-10 00:02:13:405,-1.98396,2.25335,-9.31323,-13.3094,-11.625,79.7898
2023-03-10 00:02:13:415,-1.95121,2.24389,-9.28513,-13.2971,-11.6198,79.7632
2023-03-10 00:02:13:425,-1.95279,2.21261,-9.27554,-13.2871,-11.6158,79.7349
2023-03-10 00:02:13:435,-1.96938,2.21115,-9.26716,-13.2797,-11.6152,79.7076
2023-03-10 00:02:13:445,-1.98131,2.23233,-9.26422,-13.2758,-11.6125,79.6797
2023-03-10 00:02:13:455,-1.96901,2.2578,-9.28752,-13.2743,-11.6135,79.6497
2023-03-10 00:02:13:465,-1.95709,2.24774,-9.31568,-13.2698,-11.6129,79.6165
2023-03-10 00:02:13:475,-1.94837,2.23978,-9.31792,-13.2625,-11.6125,79.5837
2023-03-10 00:02:13:485,-1.92692,2.23395,-9.32688,-13.2574,-11.6145,79.5535
2023-03-10 00:02:13:495,-1.90944,2.22317,-9.34229,-13.2534,-11.6158,79.5217
2023-03-10 00:02:13:505,-1.90415,2.22453,-9.33319,-13.251,-11.6164,79.4907
2023-03-10 00:02:13:515,-1.91738,2.22908,-9.32358,-13.2485,-11.6209,79.466
2023-03-10 00:02:13:525,-1.91607,2.2225,-9.31527,-13.2476,-11.6238,79.4404
2023-03-10 00:02:13:535,-1.90015,2.21146,-9.30231,-13.2457,-11.6282,79.4117
2023-03-10 00:02:13:545,-1.90617,2.21727,-9.29619,-13.2438,-11.6289,79.3913
2023-03-10 00:02:13:555,-1.9015,2.21454,-9.29801,-13.2435,-11.6321,79.3757
2023-03-10 00:02:13:565,-1.88782,2.21752,-9.31716,-13.2442,-11.6356,79.3614
2023-03-10 00:02:13:575,-1.88884,2.22061,-9.33202,-13.2461,-11.6366,79.3486
2023-03-10 00:02:13:585,-1.8737,2.21806,-9.33144,-13.247,-11.6369,79.3408
2023-03-10 00:02:13:595,-1.85961,2.20695,-9.32788,-13.2529,-11.6353,79.3399
2023-03-10 00:02:13:605,-1.87233,2.20387,-9.33219,-13.2564,-11.6378,79.3428
2023-03-10 00:02:13:615,-1.89886,2.2129,-9.32392,-13.2621,-11.6397,79.3535
2023-03-10 00:02:13:625,-1.94154,2.23525,-9.32319,-13.273,-11.64,79.3652
2023-03-10 00:02:13:635,-1.96704,2.23903,-9.34201,-13.2795,-11.6351,79.378
2023-03-10 00:02:13:645,-1.99802,2.24706,-9.33727,-13.2859,-11.6344,79.3916
2023-03-10 00:02:13:655,-2.02719,2.25893,-9.33491,-13.2908,-11.6304,79.4073
2023-03-10 00:02:13:665,-2.04169,2.25616,-9.34051,-13.2974,-11.6302,79.4161
2023-03-10 00:02:13:675,-2.02366,2.23763,-9.34263,-13.3009,-11.6354,79.4227
2023-03-10 00:02:13:685,-1.99959,2.22564,-9.3179,-13.304,-11.6384,79.4262
2023-03-10 00:02:13:695,-1.98169,2.21191,-9.3009,-13.3054,-11.6431,79.4302
2023-03-10 00:02:13:705,-1.98506,2.21096,-9.28885,-13.3047,-11.6515,79.4331
2023-03-10 00:02:13:715,-1.99339,2.20525,-9.29044,-13.3101,-11.6579,79.4403
2023-03-10 00:02:13:725,-2.00739,2.2092,-9.28788,-13.315,-11.6636,79.4443
2023-03-10 00:02:13:735,-1.99621,2.22009,-9.31085,-13.3224,-11.6649,79.4465
2023-03-10 00:02:13:745,-1.985,2.22439,-9.32487,-13.3307,-11.6672,79.4499
2023-03-10 00:02:13:755,-1.96279,2.23193,-9.30607,-13.3349,-11.667,79.452
2023-03-10 00:02:13:765,-1.95694,2.22973,-9.28964,-13.3376,-11.666,79.4563
2023-03-10 00:02:13:775,-1.97224,2.21609,-9.2804,-13.3457,-11.6657,79.4653
2023-03-10 00:02:13:784,-2.01178,2.22537,-9.2694,-13.3519,-11.6671,79.4749
2023-03-10 00:02:13:795,-2.03007,2.22485,-9.27417,-13.3633,-11.6661,79.4827
2023-03-10 00:02:13:805,-2.01743,2.22769,-9.28081,-13.3748,-11.6641,79.489
2023-03-10 00:02:13:815,-2.03148,2.2531,-9.30059,-13.3887,-11.6615,79.488
2023-03-10 00:02:13:825,-2.06755,2.27445,-9.33131,-13.4037,-11.6611,79.4942
2023-03-10 00:02:13:835,-2.06213,2.28682,-9.35956,-13.415,-11.6578,79.4948
2023-03-10 00:02:13:845,-2.0189,2.29914,-9.37688,-13.4264,-11.6519,79.4895
2023-03-10 00:02:13:855,-1.99735,2.30487,-9.37291,-13.4347,-11.6469,79.4813
2023-03-10 00:02:13:865,-1.99201,2.29467,-9.34337,-13.4371,-11.6448,79.469
2023-03-10 00:02:13:875,-2.01425,2.29229,-9.31935,-13.4401,-11.6496,79.4576
2023-03-10 00:02:13:885,-2.02189,2.31028,-9.31466,-13.4453,-11.6498,79.4474
2023-03-10 00:02:13:895,-2.00563,2.33572,-9.31268,-13.454,-11.6505,79.4391
2023-03-10 00:02:13:905,-1.97696,2.34062,-9.30212,-13.457,-11.6467,79.4235
2023-03-10 00:02:13:915,-1.95238,2.31801,-9.30341,-13.4582,-11.6402,79.4111
2023-03-10 00:02:13:924,-1.94392,2.32023,-9.27673,-13.457,-11.6337,79.4001
2023-03-10 00:02:13:935,-1.93647,2.32392,-9.26628,-13.4616,-11.6233,79.3919
2023-03-10 00:02:13:945,-1.92755,2.32729,-9.27685,-13.4651,-11.6164,79.3836
2023-03-10 00:02:13:955,-1.91617,2.30492,-9.27751,-13.4652,-11.6092,79.3761
2023-03-10 00:02:13:965,-1.90416,2.29994,-9.27947,-13.4667,-11.6004,79.3703
2023-03-10 00:02:13:975,-1.88725,2.29562,-9.27963,-13.4656,-11.5904,79.3667
2023-03-10 00:02:13:985,-1.8783,2.27966,-9.29035,-13.4694,-11.5871,79.365
2023-03-10 00:02:13:995,-1.86644,2.29018,-9.30936,-13.4764,-11.5836,79.3668
2023-03-10 00:02:14:5,-1.85326,2.29718,-9.33769,-13.4852,-11.5781,79.3697
2023-03-10 00:02:14:15,-1.85258,2.31634,-9.35987,-13.4946,-11.5753,79.3811
2023-03-10 00:02:14:25,-1.86489,2.31906,-9.35894,-13.5022,-11.5741,79.3913
2023-03-10 00:02:14:35,-1.87795,2.31451,-9.35553,-13.5117,-11.5716,79.4063
2023-03-10 00:02:14:45,-1.9,2.30644,-9.35243,-13.5204,-11.5687,79.4251
2023-03-10 00:02:14:55,-1.91944,2.31903,-9.33954,-13.5297,-11.5671,79.4493
2023-03-10 00:02:14:65,-1.93892,2.31529,-9.34428,-13.5373,-11.5643,79.4669
2023-03-10 00:02:14:75,-1.96592,2.31192,-9.32312,-13.5443,-11.5648,79.4881
2023-03-10 00:02:14:85,-2.01722,2.32217,-9.31208,-13.5486,-11.5639,79.5133
2023-03-10 00:02:14:95,-2.11422,2.3372,-9.31139,-13.5536,-11.5599,79.5351
2023-03-10 00:02:14:105,-2.15703,2.35103,-9.31442,-13.5511,-11.5586,79.5482
2023-03-10 00:02:14:115,-2.13881,2.3468,-9.32287,-13.5469,-11.554,79.5525
2023-03-10 00:02:14:125,-2.12849,2.34407,-9.36549,-13.5378,-11.5456,79.5513
2023-03-10 00:02:14:135,-2.1108,2.33496,-9.38397,-13.5269,-11.5442,79.5352
2023-03-10 00:02:14:145,-2.13831,2.34904,-9.39568,-13.5131,-11.5467,79.5121
2023-03-10 00:02:14:155,-2.15636,2.35191,-9.39697,-13.4895,-11.5523,79.4783
2023-03-10 00:02:14:165,-2.14213,2.32184,-9.3684,-13.459,-11.561,79.4349
2023-03-10 00:02:14:175,-2.141,2.30691,-9.34829,-13.4268,-11.5684,79.3833
2023-03-10 00:02:14:185,-2.13804,2.29472,-9.34996,-13.3933,-11.5767,79.3214
2023-03-10 00:02:14:195,-2.09417,2.30051,-9.35037,-13.3577,-11.5812,79.2534
2023-03-10 00:02:14:205,-2.05075,2.2793,-9.33797,-13.3173,-11.5855,79.1781
2023-03-10 00:02:14:215,-2.081,2.25906,-9.28944,-13.2758,-11.5903,79.1
2023-03-10 00:02:14:225,-2.08082,2.23884,-9.26125,-13.2346,-11.5948,79.0173
2023-03-10 00:02:14:235,-2.03116,2.23605,-9.30193,-13.1955,-11.5987,78.9293
2023-03-10 00:02:14:245,-2.03409,2.25003,-9.32989,-13.1596,-11.6029,78.8371
2023-03-10 00:02:14:255,-2.02897,2.26251,-9.33373,-13.1181,-11.606,78.7435
2023-03-10 00:02:14:265,-1.98819,2.24341,-9.32742,-13.0781,-11.6091,78.6418
2023-03-10 00:02:14:275,-1.94669,2.20826,-9.32361,-13.0353,-11.6144,78.539
2023-03-10 00:02:14:285,-1.91497,2.1933,-9.34342,-12.9886,-11.6145,78.4342
2023-03-10 00:02:14:295,-1.88173,2.18179,-9.3709,-12.9425,-11.6198,78.3305
2023-03-10 00:02:14:305,-1.88757,2.19037,-9.34962,-12.8981,-11.6271,78.2298
2023-03-10 00:02:14:315,-1.93559,2.18833,-9.34148,-12.8549,-11.6327,78.1304
2023-03-10 00:02:14:325,-1.95424,2.17754,-9.32646,-12.8129,-11.6425,78.0328
2023-03-10 00:02:14:334,-1.93854,2.16126,-9.32768,-12.7666,-11.6494,77.9391
2023-03-10 00:02:14:345,-1.90326,2.15898,-9.34386,-12.7259,-11.6557,77.8463
2023-03-10 00:02:14:355,-1.90123,2.14859,-9.35057,-12.6878,-11.6616,77.7557
2023-03-10 00:02:14:365,-1.9157,2.1402,-9.33544,-12.6486,-11.6665,77.6705
2023-03-10 00:02:14:375,-1.92157,2.13133,-9.34239,-12.6124,-11.67,77.5923
2023-03-10 00:02:14:385,-1.9345,2.1236,-9.35699,-12.5765,-11.6749,77.5156
2023-03-10 00:02:14:395,-1.93896,2.12864,-9.35754,-12.537,-11.6763,77.4479
2023-03-10 00:02:14:405,-1.95861,2.11876,-9.34787,-12.4994,-11.6768,77.3833
2023-03-10 00:02:14:415,-1.96062,2.09554,-9.32265,-12.4615,-11.6787,77.3198
2023-03-10 00:02:14:425,-1.99241,2.07543,-9.2784,-12.425,-11.6768,77.263
2023-03-10 00:02:14:435,-2.03224,2.06185,-9.28043,-12.3895,-11.6741,77.2029
2023-03-10 00:02:14:445,-2.04994,2.077,-9.2908,-12.3543,-11.6726,77.1354
2023-03-10 00:02:14:455,-2.01104,2.07842,-9.31579,-12.3223,-11.6709,77.0667
2023-03-10 00:02:14:465,-1.99137,2.06031,-9.33644,-12.2882,-11.6693,76.9946
2023-03-10 00:02:14:475,-1.96422,2.04037,-9.33517,-12.2571,-11.668,76.9218
2023-03-10 00:02:14:485,-1.94543,2.04833,-9.35488,-12.2273,-11.6684,76.849
2023-03-10 00:02:14:495,-1.93908,2.06647,-9.37158,-12.1987,-11.6696,76.7788
2023-03-10 00:02:14:505,-1.94171,2.04991,-9.36077,-12.1714,-11.6747,76.7091
2023-03-10 00:02:14:515,-1.94318,2.03464,-9.37716,-12.1416,-11.6808,76.6414
2023-03-10 00:02:14:525,-1.93513,2.02773,-9.35928,-12.1131,-11.6848,76.575
2023-03-10 00:02:14:535,-1.94799,2.01733,-9.33369,-12.0831,-11.6878,76.5086
2023-03-10 00:02:14:545,-1.96969,2.00967,-9.33917,-12.0597,-11.6893,76.4438
2023-03-10 00:02:14:555,-1.95393,1.99126,-9.35579,-12.0379,-11.6907,76.3811
2023-03-10 00:02:14:565,-1.93443,1.99115,-9.36143,-12.0147,-11.6931,76.3211
2023-03-10 00:02:14:575,-1.94879,2.0069,-9.37622,-11.9941,-11.6952,76.2636
2023-03-10 00:02:14:585,-1.91247,1.99921,-9.38719,-11.9763,-11.6939,76.2073
2023-03-10 00:02:14:595,-1.8862,1.98928,-9.39853,-11.9568,-11.6924,76.1557
2023-03-10 00:02:14:605,-1.91383,1.98326,-9.37743,-11.9377,-11.6892,76.1083
2023-03-10 00:02:14:615,-1.93002,1.97411,-9.36691,-11.9163,-11.6846,76.0663
2023-03-10 00:02:14:625,-1.90122,1.9726,-9.36713,-11.8934,-11.6771,76.0233
2023-03-10 00:02:14:635,-1.8726,1.96123,-9.35617,-11.8748,-11.6643,75.9888
2023-03-10 00:02:14:644,-1.86139,1.94312,-9.3346,-11.8583,-11.6545,75.9582
2023-03-10 00:02:14:655,-1.84112,1.9321,-9.30035,-11.8433,-11.6438,75.9331
2023-03-10 00:02:14:665,-1.85283,1.90842,-9.29297,-11.8373,-11.6353,75.9154
2023-03-10 00:02:14:675,-1.87321,1.92436,-9.28383,-11.8372,-11.6237,75.9073
2023-03-10 00:02:14:685,-1.89247,1.94059,-9.30846,-11.8381,-11.6093,75.9043
2023-03-10 00:02:14:695,-1.91122,1.95184,-9.35588,-11.845,-11.5925,75.9028
2023-03-10 00:02:14:705,-1.95668,1.96729,-9.37789,-11.8548,-11.5732,75.9068
2023-03-10 00:02:14:715,-1.98474,2.00156,-9.39099,-11.8648,-11.5559,75.9105
2023-03-10 00:02:14:725,-1.98192,2.00874,-9.3956,-11.8722,-11.5377,75.912
2023-03-10 00:02:14:735,-1.95575,1.99153,-9.37323,-11.8769,-11.5236,75.9113
2023-03-10 00:02:14:745,-1.95222,1.97797,-9.35372,-11.8812,-11.511,75.9082
2023-03-10 00:02:14:755,-1.93397,1.97606,-9.33377,-11.8881,-11.5006,75.9056
2023-03-10 00:02:14:765,-1.92915,1.97194,-9.34793,-11.8972,-11.4932,75.8986
2023-03-10 00:02:14:775,-1.92501,1.97204,-9.35487,-11.909,-11.484,75.8928
2023-03-10 00:02:14:785,-1.91207,1.98834,-9.35256,-11.9194,-11.4751,75.8831
2023-03-10 00:02:14:795,-1.87167,2.02442,-9.39569,-11.9346,-11.4668,75.8755
2023-03-10 00:02:14:805,-1.8483,2.04544,-9.44708,-11.9533,-11.4595,75.8713
2023-03-10 00:02:14:815,-1.8587,2.02733,-9.45582,-11.9673,-11.4564,75.8687
2023-03-10 00:02:14:825,-1.89062,2.02985,-9.40834,-11.9787,-11.452,75.866
2023-03-10 00:02:14:835,-1.92775,2.03697,-9.37691,-11.9907,-11.4491,75.867
2023-03-10 00:02:14:845,-1.92982,2.05161,-9.35018,-12.001,-11.4441,75.8654
2023-03-10 00:02:14:855,-1.94222,2.05587,-9.33733,-12.0149,-11.4387,75.8608
2023-03-10 00:02:14:865,-1.95878,2.06232,-9.34263,-12.0263,-11.4344,75.8594
2023-03-10 00:02:14:875,-1.95622,2.06553,-9.34097,-12.0366,-11.4327,75.8562
2023-03-10 00:02:14:885,-1.95042,2.05659,-9.34747,-12.0497,-11.4304,75.8472
2023-03-10 00:02:14:895,-1.95865,2.05575,-9.34179,-12.0598,-11.4315,75.8371
2023-03-10 00:02:14:905,-1.98114,2.0452,-9.33574,-12.0688,-11.4323,75.8229
2023-03-10 00:02:14:915,-1.99316,2.04008,-9.35507,-12.0796,-11.4378,75.8057
2023-03-10 00:02:14:925,-1.9818,2.05649,-9.3693,-12.0934,-11.4439,75.7878
2023-03-10 00:02:14:935,-1.97007,2.05694,-9.40425,-12.1047,-11.4536,75.7686
2023-03-10 00:02:14:945,-1.94541,2.05814,-9.38455,-12.1136,-11.463,75.7477
2023-03-10 00:02:14:954,-1.95758,2.03844,-9.37174,-12.1255,-11.4741,75.7331
2023-03-10 00:02:14:964,-1.98142,2.02314,-9.35761,-12.1371,-11.4855,75.7144
2023-03-10 00:02:14:975,-2.00076,2.03439,-9.35349,-12.1499,-11.4995,75.6982
2023-03-10 00:02:14:985,-1.98395,2.04917,-9.36137,-12.1634,-11.5145,75.6789
2023-03-10 00:02:14:995,-1.98578,2.05145,-9.35682,-12.1731,-11.5238,75.6622
2023-03-10 00:02:15:5,-2.02211,2.06186,-9.3453,-12.1887,-11.5309,75.6479
2023-03-10 00:02:15:15,-2.04251,2.09102,-9.32697,-12.2008,-11.5375,75.6325
2023-03-10 00:02:15:25,-2.05284,2.08742,-9.33642,-12.2125,-11.5385,75.6111
2023-03-10 00:02:15:34,-2.05737,2.07586,-9.3377,-12.2236,-11.5402,75.5922
2023-03-10 00:02:15:44,-2.0557,2.08834,-9.34021,-12.2333,-11.5399,75.5682
2023-03-10 00:02:15:54,-2.04274,2.08626,-9.3521,-12.2399,-11.5373,75.544
2023-03-10 00:02:15:64,-1.99952,2.09486,-9.36209,-12.2493,-11.5298,75.5151
2023-03-10 00:02:15:75,-1.93285,2.09132,-9.39872,-12.258,-11.5225,75.4846
2023-03-10 00:02:15:84,-1.90504,2.07968,-9.40057,-12.2646,-11.518,75.4556
2023-03-10 00:02:15:95,-1.93008,2.05997,-9.39899,-12.2676,-11.5173,75.4284
2023-03-10 00:02:15:105,-1.96701,2.06156,-9.37776,-12.2705,-11.5164,75.4047
2023-03-10 00:02:15:114,-1.97115,2.05716,-9.37518,-12.2762,-11.5185,75.3829
2023-03-10 00:02:15:124,-1.97933,2.0596,-9.37024,-12.2796,-11.5233,75.36
2023-03-10 00:02:15:135,-2.01674,2.06878,-9.37412,-12.2846,-11.5232,75.3343
2023-03-10 00:02:15:144,-2.03449,2.07411,-9.37794,-12.293,-11.5233,75.3144
2023-03-10 00:02:15:154,-2.04442,2.08004,-9.37786,-12.2983,-11.5251,75.2902
2023-03-10 00:02:15:164,-2.03872,2.06849,-9.37924,-12.297,-11.5246,75.2595
2023-03-10 00:02:15:175,-2.01976,2.06558,-9.37285,-12.2989,-11.5216,75.2283
2023-03-10 00:02:15:185,-2.02592,2.05395,-9.35634,-12.301,-11.5225,75.1945
2023-03-10 00:02:15:195,-2.00499,2.05424,-9.33096,-12.2981,-11.5218,75.1606
2023-03-10 00:02:15:205,-1.98358,2.03031,-9.31735,-12.2962,-11.5244,75.1218
2023-03-10 00:02:15:215,-1.96684,2.03034,-9.31476,-12.2983,-11.5243,75.0831
2023-03-10 00:02:15:224,-1.9431,2.02351,-9.31814,-12.3024,-11.5256,75.0462
2023-03-10 00:02:15:235,-1.92738,2.01814,-9.30692,-12.3081,-11.5237,75.0096
2023-03-10 00:02:15:245,-1.92489,2.02137,-9.31572,-12.3171,-11.5237,74.9721
2023-03-10 00:02:15:255,-1.92873,2.02251,-9.32242,-12.3311,-11.524,74.9409
2023-03-10 00:02:15:265,-1.94573,2.05101,-9.33838,-12.3459,-11.5232,74.9084
2023-03-10 00:02:15:275,-1.93829,2.06725,-9.37433,-12.3651,-11.5237,74.8778
2023-03-10 00:02:15:285,-1.9239,2.06959,-9.36207,-12.3845,-11.5217,74.8481
2023-03-10 00:02:15:295,-1.94126,2.0613,-9.35535,-12.3994,-11.5207,74.8178
2023-03-10 00:02:15:305,-1.97918,2.07616,-9.35941,-12.4184,-11.5209,74.7896
2023-03-10 00:02:15:315,-1.98256,2.08625,-9.35139,-12.4354,-11.5158,74.7637
2023-03-10 00:02:15:325,-1.9903,2.07978,-9.34804,-12.4505,-11.5088,74.7341
2023-03-10 00:02:15:335,-1.99357,2.07609,-9.33727,-12.4686,-11.5038,74.7049
2023-03-10 00:02:15:345,-1.96966,2.09332,-9.31805,-12.4865,-11.4959,74.6729
2023-03-10 00:02:15:355,-1.9572,2.09638,-9.31698,-12.5022,-11.4864,74.6398
2023-03-10 00:02:15:365,-1.94741,2.0962,-9.31983,-12.5243,-11.4769,74.6051
2023-03-10 00:02:15:375,-1.9426,2.11797,-9.32519,-12.55,-11.4707,74.5736
2023-03-10 00:02:15:385,-1.93315,2.1406,-9.34432,-12.5781,-11.4621,74.542
2023-03-10 00:02:15:395,-1.92232,2.15952,-9.36522,-12.6044,-11.4536,74.5077
2023-03-10 00:02:15:405,-1.91932,2.15963,-9.34025,-12.6265,-11.4414,74.4719
2023-03-10 00:02:15:415,-1.90348,2.13342,-9.351,-12.6496,-11.4319,74.4364
2023-03-10 00:02:15:425,-1.89155,2.14829,-9.35761,-12.6722,-11.4257,74.4008
2023-03-10 00:02:15:435,-1.90541,2.16793,-9.3772,-12.6963,-11.416,74.366
2023-03-10 00:02:15:445,-1.90688,2.1675,-9.37036,-12.7173,-11.4066,74.3278
2023-03-10 00:02:15:455,-1.89833,2.14988,-9.33766,-12.7396,-11.4017,74.292
2023-03-10 00:02:15:465,-1.91935,2.17074,-9.33536,-12.7656,-11.3983,74.2577
2023-03-10 00:02:15:475,-1.92013,2.20271,-9.35855,-12.7909,-11.3966,74.2221
2023-03-10 00:02:15:485,-1.90151,2.20547,-9.40648,-12.8148,-11.3956,74.1861
2023-03-10 00:02:15:495,-1.88977,2.21386,-9.42093,-12.8359,-11.3955,74.1495
2023-03-10 00:02:15:505,-1.86939,2.22044,-9.42125,-12.8501,-11.3954,74.1108
2023-03-10 00:02:15:515,-1.87263,2.23694,-9.42285,-12.8673,-11.393,74.0798
2023-03-10 00:02:15:525,-1.89168,2.24789,-9.41054,-12.8815,-11.3893,74.0493
2023-03-10 00:02:15:535,-1.87465,2.23433,-9.3819,-12.8886,-11.3924,74.017
2023-03-10 00:02:15:545,-1.8668,2.21391,-9.34851,-12.8955,-11.3965,73.9835
2023-03-10 00:02:15:555,-1.87928,2.19398,-9.31153,-12.903,-11.3994,73.9565
2023-03-10 00:02:15:565,-1.9041,2.19698,-9.30682,-12.9105,-11.401,73.9313
2023-03-10 00:02:15:575,-1.89334,2.20633,-9.31208,-12.9192,-11.4045,73.9071
2023-03-10 00:02:15:585,-1.90347,2.22174,-9.31928,-12.9278,-11.407,73.8846
2023-03-10 00:02:15:595,-1.91185,2.22883,-9.30397,-12.938,-11.4112,73.8593
2023-03-10 00:02:15:605,-1.91782,2.22588,-9.32109,-12.9473,-11.4142,73.8394
2023-03-10 00:02:15:615,-1.92955,2.22976,-9.32733,-12.9576,-11.4211,73.8196
2023-03-10 00:02:15:625,-1.92946,2.22477,-9.32008,-12.969,-11.4257,73.8047
2023-03-10 00:02:15:635,-1.93177,2.21649,-9.32245,-12.9846,-11.4294,73.7874
2023-03-10 00:02:15:645,-1.92138,2.21449,-9.34413,-12.9975,-11.4335,73.772
2023-03-10 00:02:15:655,-1.901,2.22499,-9.34351,-13.0093,-11.4334,73.7563
2023-03-10 00:02:15:664,-1.89708,2.21892,-9.35155,-13.0229,-11.4289,73.7451
2023-03-10 00:02:15:674,-1.87923,2.21716,-9.35278,-13.0366,-11.4238,73.7376
2023-03-10 00:02:15:685,-1.86815,2.22143,-9.3401,-13.0518,-11.4182,73.7303
2023-03-10 00:02:15:695,-1.87885,2.22554,-9.3267,-13.0675,-11.4181,73.7247
2023-03-10 00:02:15:705,-1.92442,2.22699,-9.33256,-13.0812,-11.4165,73.7195
2023-03-10 00:02:15:715,-1.94225,2.22774,-9.32815,-13.0967,-11.4166,73.7187
2023-03-10 00:02:15:725,-1.9412,2.23218,-9.3445,-13.108,-11.4139,73.7154
2023-03-10 00:02:15:735,-1.93773,2.23363,-9.37554,-13.1185,-11.4122,73.7084
2023-03-10 00:02:15:745,-1.92848,2.24243,-9.37877,-13.1294,-11.4079,73.7015
2023-03-10 00:02:15:755,-1.8894,2.24051,-9.37024,-13.1376,-11.4038,73.6906
2023-03-10 00:02:15:765,-1.89394,2.23475,-9.36879,-13.1445,-11.4052,73.6802
2023-03-10 00:02:15:775,-1.92962,2.24307,-9.34751,-13.1501,-11.4064,73.6737
2023-03-10 00:02:15:785,-1.95943,2.25293,-9.3354,-13.1575,-11.4075,73.6664
2023-03-10 00:02:15:795,-1.96752,2.26313,-9.33367,-13.1619,-11.4079,73.6558
2023-03-10 00:02:15:805,-1.93846,2.25461,-9.33685,-13.1642,-11.4043,73.6471
2023-03-10 00:02:15:815,-1.91253,2.24385,-9.34121,-13.1681,-11.3998,73.6343
2023-03-10 00:02:15:825,-1.9131,2.24288,-9.33235,-13.1739,-11.3952,73.6276
2023-03-10 00:02:15:835,-1.91575,2.25506,-9.32102,-13.1789,-11.3925,73.6223
2023-03-10 00:02:15:845,-1.90843,2.25693,-9.31957,-13.1826,-11.3896,73.6201
2023-03-10 00:02:15:855,-1.90799,2.25124,-9.31938,-13.1832,-11.3864,73.6136
2023-03-10 00:02:15:865,-1.92489,2.24142,-9.30738,-13.182,-11.3835,73.6106
2023-03-10 00:02:15:875,-1.93374,2.22933,-9.29484,-13.1825,-11.3801,73.6062
2023-03-10 00:02:15:885,-1.94908,2.23991,-9.29425,-13.187,-11.3771,73.6007
2023-03-10 00:02:15:895,-1.95416,2.24383,-9.31498,-13.191,-11.3766,73.5918
2023-03-10 00:02:15:905,-1.9544,2.24181,-9.32756,-13.1923,-11.3733,73.5829
2023-03-10 00:02:15:915,-1.96243,2.24641,-9.33342,-13.1952,-11.3733,73.5737
2023-03-10 00:02:15:925,-1.94727,2.24404,-9.33998,-13.1978,-11.3737,73.5621
2023-03-10 00:02:15:935,-1.92213,2.24304,-9.36766,-13.1997,-11.3742,73.5512
2023-03-10 00:02:15:945,-1.92403,2.24694,-9.38138,-13.2024,-11.3739,73.5425
2023-03-10 00:02:15:955,-1.89931,2.24707,-9.35559,-13.2066,-11.373,73.5359
2023-03-10 00:02:15:965,-1.87527,2.22216,-9.33396,-13.2085,-11.3696,73.5299
2023-03-10 00:02:15:975,-1.88924,2.22814,-9.33701,-13.2103,-11.3673,73.5239
2023-03-10 00:02:15:985,-1.93851,2.24154,-9.34241,-13.2137,-11.368,73.5247
2023-03-10 00:02:15:995,-1.9822,2.26353,-9.34742,-13.2204,-11.3644,73.5284
2023-03-10 00:02:16:5,-1.9822,2.26529,-9.36951,-13.2192,-11.3571,73.5266
2023-03-10 00:02:16:15,-1.96698,2.25498,-9.3968,-13.216,-11.3502,73.5235
2023-03-10 00:02:16:25,-1.92332,2.24821,-9.39324,-13.2089,-11.3418,73.5196
2023-03-10 00:02:16:35,-1.91852,2.2223,-9.37458,-13.1993,-11.3403,73.5106
2023-03-10 00:02:16:45,-1.94273,2.21181,-9.35066,-13.1861,-11.341,73.5064
2023-03-10 00:02:16:55,-1.95512,2.20301,-9.33799,-13.175,-11.3419,73.4994
2023-03-10 00:02:16:65,-1.93616,2.19463,-9.3138,-13.1606,-11.3417,73.4895
2023-03-10 00:02:16:75,-1.91451,2.17609,-9.31734,-13.149,-11.3438,73.4774
2023-03-10 00:02:16:85,-1.90504,2.17655,-9.30908,-13.1436,-11.3471,73.4698
2023-03-10 00:02:16:94,-1.89689,2.18885,-9.30566,-13.1392,-11.352,73.4635
2023-03-10 00:02:16:104,-1.9072,2.18633,-9.30975,-13.1359,-11.3545,73.4605
2023-03-10 00:02:16:115,-1.93842,2.18508,-9.31332,-13.1329,-11.3531,73.4609
2023-03-10 00:02:16:125,-1.94228,2.1997,-9.2899,-13.1353,-11.3501,73.4618
2023-03-10 00:02:16:135,-1.9452,2.19491,-9.28659,-13.1375,-11.3461,73.4631
2023-03-10 00:02:16:145,-1.93535,2.19172,-9.31655,-13.1373,-11.3414,73.468
2023-03-10 00:02:16:155,-1.92609,2.20884,-9.32225,-13.1402,-11.3355,73.4715
2023-03-10 00:02:16:165,-1.94133,2.21742,-9.30931,-13.1414,-11.3309,73.4766
2023-03-10 00:02:16:175,-1.95588,2.20864,-9.29345,-13.1452,-11.323,73.4788
2023-03-10 00:02:16:185,-1.95335,2.19464,-9.29016,-13.1485,-11.3203,73.4819
2023-03-10 00:02:16:195,-1.95762,2.19407,-9.3018,-13.1531,-11.3119,73.4843
2023-03-10 00:02:16:205,-1.94801,2.20029,-9.30202,-13.158,-11.3074,73.4845
2023-03-10 00:02:16:215,-1.9288,2.18326,-9.30727,-13.1668,-11.304,73.4843
2023-03-10 00:02:16:225,-1.92263,2.19873,-9.3088,-13.1748,-11.3032,73.4833
2023-03-10 00:02:16:235,-1.9263,2.22384,-9.31619,-13.1823,-11.3011,73.4817
2023-03-10 00:02:16:245,-1.93372,2.22953,-9.32474,-13.1977,-11.2971,73.4814
2023-03-10 00:02:16:255,-1.9219,2.23091,-9.32422,-13.2104,-11.2925,73.4814
2023-03-10 00:02:16:265,-1.90863,2.22374,-9.34096,-13.2242,-11.2856,73.4825
2023-03-10 00:02:16:275,-1.93783,2.23162,-9.32455,-13.2335,-11.2773,73.4803
2023-03-10 00:02:16:285,-1.9693,2.25627,-9.32913,-13.246,-11.2721,73.4836
2023-03-10 00:02:16:295,-1.98138,2.27705,-9.33544,-13.2621,-11.2626,73.4815
2023-03-10 00:02:16:305,-1.95105,2.27337,-9.35822,-13.2741,-11.2524,73.4747
2023-03-10 00:02:16:315,-1.90881,2.26823,-9.37097,-13.2826,-11.2435,73.4627
2023-03-10 00:02:16:325,-1.87666,2.26346,-9.36804,-13.2878,-11.2365,73.4487
2023-03-10 00:02:16:335,-1.85176,2.26506,-9.34939,-13.2895,-11.2292,73.4347
2023-03-10 00:02:16:345,-1.82203,2.26208,-9.3328,-13.2922,-11.2246,73.4212
2023-03-10 00:02:16:355,-1.81465,2.23947,-9.34365,-13.2983,-11.2208,73.4115
2023-03-10 00:02:16:365,-1.80184,2.24215,-9.34972,-13.3002,-11.2182,73.4023
2023-03-10 00:02:16:375,-1.81516,2.24663,-9.34099,-13.3046,-11.2194,73.3989
2023-03-10 00:02:16:385,-1.84311,2.24431,-9.34897,-13.3078,-11.2194,73.3947
2023-03-10 00:02:16:395,-1.85637,2.24842,-9.36574,-13.3169,-11.2214,73.3921
2023-03-10 00:02:16:405,-1.85512,2.2437,-9.35411,-13.3205,-11.2274,73.396
2023-03-10 00:02:16:415,-1.87078,2.2392,-9.3433,-13.325,-11.2298,73.3987
2023-03-10 00:02:16:425,-1.88337,2.2411,-9.33596,-13.3292,-11.2357,73.4022
2023-03-10 00:02:16:435,-1.91381,2.2479,-9.31506,-13.3336,-11.2406,73.4054
2023-03-10 00:02:16:445,-1.92848,2.23618,-9.30682,-13.3422,-11.2421,73.4094
2023-03-10 00:02:16:455,-1.92733,2.23918,-9.32242,-13.3477,-11.2476,73.4138
2023-03-10 00:02:16:465,-1.92547,2.24653,-9.32572,-13.3563,-11.2519,73.4183
2023-03-10 00:02:16:475,-1.93537,2.2579,-9.31675,-13.3642,-11.2563,73.4205
2023-03-10 00:02:16:485,-1.91991,2.24903,-9.32369,-13.3728,-11.2647,73.427
2023-03-10 00:02:16:495,-1.92409,2.24928,-9.32267,-13.3807,-11.2711,73.432
2023-03-10 00:02:16:505,-1.9375,2.25373,-9.32645,-13.3873,-11.2782,73.4326
2023-03-10 00:02:16:515,-1.94918,2.25847,-9.32505,-13.395,-11.2847,73.4292
2023-03-10 00:02:16:525,-1.94424,2.26368,-9.30492,-13.4024,-11.2884,73.4304
2023-03-10 00:02:16:535,-1.93595,2.2695,-9.3203,-13.411,-11.295,73.4318
2023-03-10 00:02:16:545,-1.94458,2.26373,-9.32878,-13.4184,-11.2957,73.4296
2023-03-10 00:02:16:555,-1.92825,2.26342,-9.31872,-13.4269,-11.2962,73.4279
2023-03-10 00:02:16:565,-1.91711,2.26469,-9.33248,-13.4357,-11.2945,73.4292
2023-03-10 00:02:16:575,-1.9019,2.2663,-9.33054,-13.4439,-11.2968,73.4317
2023-03-10 00:02:16:585,-1.91715,2.25931,-9.34252,-13.4522,-11.2952,73.4327
2023-03-10 00:02:16:595,-1.92392,2.28018,-9.33857,-13.4576,-11.2953,73.4356
2023-03-10 00:02:16:605,-1.94422,2.29467,-9.34062,-13.4608,-11.2881,73.4404
2023-03-10 00:02:16:615,-1.97361,2.2938,-9.34737,-13.4636,-11.275,73.4487
2023-03-10 00:02:16:625,-1.92403,2.30014,-9.36983,-13.464,-11.2546,73.4535
2023-03-10 00:02:16:635,-1.85171,2.28931,-9.37548,-13.4621,-11.2292,73.4579
2023-03-10 00:02:16:645,-1.85503,2.27921,-9.34416,-13.4551,-11.207,73.4689
2023-03-10 00:02:16:655,-1.88068,2.27671,-9.3239,-13.4501,-11.1822,73.4841
2023-03-10 00:02:16:665,-1.8691,2.26761,-9.31936,-13.447,-11.1542,73.5001
2023-03-10 00:02:16:675,-1.83917,2.2719,-9.33706,-13.4429,-11.1249,73.5111
2023-03-10 00:02:16:685,-1.84789,2.28428,-9.33151,-13.4453,-11.1027,73.5281
2023-03-10 00:02:16:695,-1.91286,2.2858,-9.31802,-13.446,-11.0842,73.5462
2023-03-10 00:02:16:705,-1.94436,2.29235,-9.31918,-13.4489,-11.0702,73.5598
2023-03-10 00:02:16:715,-1.94517,2.3071,-9.35074,-13.455,-11.0591,73.5735
2023-03-10 00:02:16:725,-1.92571,2.32347,-9.35947,-13.46,-11.0504,73.584
2023-03-10 00:02:16:735,-1.93743,2.34463,-9.32812,-13.4607,-11.0449,73.5866
2023-03-10 00:02:16:745,-1.94055,2.32402,-9.309,-13.4618,-11.0409,73.5847
2023-03-10 00:02:16:755,-1.9145,2.3049,-9.29383,-13.4615,-11.0353,73.5784
2023-03-10 00:02:16:765,-1.87003,2.29428,-9.27104,-13.4592,-11.0296,73.568
2023-03-10 00:02:16:775,-1.84385,2.26981,-9.25341,-13.453,-11.0268,73.5574
2023-03-10 00:02:16:785,-1.822,2.26166,-9.25246,-13.4515,-11.024,73.5504
2023-03-10 00:02:16:795,-1.81525,2.26383,-9.26195,-13.4548,-11.0213,73.5438
2023-03-10 00:02:16:805,-1.8078,2.25838,-9.2827,-13.4573,-11.021,73.5348
2023-03-10 00:02:16:815,-1.77673,2.26196,-9.30893,-13.4633,-11.0212,73.5298
2023-03-10 00:02:16:825,-1.75366,2.26678,-9.33971,-13.4754,-11.0189,73.525
2023-03-10 00:02:16:835,-1.76687,2.29556,-9.36074,-13.4885,-11.017,73.5288
2023-03-10 00:02:16:845,-1.79213,2.31682,-9.37632,-13.5018,-11.0115,73.5329
2023-03-10 00:02:16:855,-1.82647,2.31834,-9.39732,-13.5095,-11.0096,73.5402
2023-03-10 00:02:16:865,-1.84224,2.33494,-9.40503,-13.5171,-11.0044,73.5539
2023-03-10 00:02:16:875,-1.84658,2.34687,-9.39587,-13.5268,-10.9971,73.5675
2023-03-10 00:02:16:885,-1.83969,2.344,-9.37961,-13.527,-10.987,73.5769
2023-03-10 00:02:16:895,-1.8464,2.33954,-9.35442,-13.5292,-10.9795,73.5918
2023-03-10 00:02:16:905,-1.82872,2.32807,-9.34546,-13.5332,-10.9726,73.6042
2023-03-10 00:02:16:915,-1.83637,2.31411,-9.3471,-13.5323,-10.9672,73.6163
2023-03-10 00:02:16:925,-1.88596,2.32268,-9.33436,-13.5357,-10.96,73.6326
2023-03-10 00:02:16:935,-1.88796,2.31373,-9.31968,-13.5325,-10.9495,73.6409
2023-03-10 00:02:16:945,-1.83374,2.31046,-9.33167,-13.5265,-10.9378,73.649
2023-03-10 00:02:16:955,-1.77592,2.30239,-9.37217,-13.521,-10.926,73.6549
2023-03-10 00:02:16:965,-1.78922,2.29961,-9.39952,-13.516,-10.9194,73.6614
2023-03-10 00:02:16:975,-1.83228,2.30183,-9.37036,-13.5095,-10.9183,73.6703
2023-03-10 00:02:16:985,-1.85702,2.27337,-9.34675,-13.5011,-10.9197,73.6769
2023-03-10 00:02:16:995,-1.87806,2.25945,-9.32154,-13.4896,-10.9198,73.6827
2023-03-10 00:02:17:5,-1.87418,2.25585,-9.32092,-13.4826,-10.9205,73.6861
2023-03-10 00:02:17:15,-1.8651,2.25561,-9.32182,-13.474,-10.9194,73.6866
2023-03-10 00:02:17:25,-1.86399,2.26503,-9.3274,-13.4695,-10.9226,73.6855
2023-03-10 00:02:17:35,-1.87112,2.26827,-9.32174,-13.4617,-10.9269,73.6866
2023-03-10 00:02:17:45,-1.83432,2.24979,-9.31903,-13.4555,-10.9287,73.686
2023-03-10 00:02:17:55,-1.83096,2.24865,-9.31152,-13.4462,-10.9294,73.6829
2023-03-10 00:02:17:65,-1.83788,2.22824,-9.27498,-13.4396,-10.9288,73.6841
2023-03-10 00:02:17:75,-1.83143,2.22053,-9.25691,-13.4338,-10.9267,73.6834
2023-03-10 00:02:17:85,-1.82696,2.22065,-9.26158,-13.4342,-10.9326,73.6847
2023-03-10 00:02:17:95,-1.82649,2.23878,-9.28205,-13.4364,-10.9375,73.6881
2023-03-10 00:02:17:105,-1.83333,2.24869,-9.30573,-13.4382,-10.942,73.6885
2023-03-10 00:02:17:115,-1.83633,2.2418,-9.31508,-13.4407,-10.9457,73.6911
2023-03-10 00:02:17:125,-1.83908,2.2471,-9.32424,-13.4412,-10.9529,73.6907
2023-03-10 00:02:17:135,-1.8292,2.23976,-9.33137,-13.4478,-10.962,73.6949
2023-03-10 00:02:17:145,-1.83663,2.24101,-9.33446,-13.4528,-10.9712,73.7007
2023-03-10 00:02:17:155,-1.89363,2.2673,-9.33165,-13.4606,-10.9825,73.7063
2023-03-10 00:02:17:165,-1.92878,2.28632,-9.33795,-13.4688,-10.9935,73.714
2023-03-10 00:02:17:175,-1.91643,2.27578,-9.36302,-13.4765,-11.0001,73.7192
2023-03-10 00:02:17:185,-1.91658,2.28839,-9.36097,-13.4875,-11.0062,73.7273
2023-03-10 00:02:17:195,-1.91988,2.28234,-9.3338,-13.4926,-11.0117,73.7308
2023-03-10 00:02:17:205,-1.91321,2.27491,-9.33108,-13.5002,-11.0158,73.7361
2023-03-10 00:02:17:215,-1.92017,2.28785,-9.33635,-13.5037,-11.018,73.7415
2023-03-10 00:02:17:225,-1.93331,2.29759,-9.32076,-13.5046,-11.0201,73.7443
2023-03-10 00:02:17:235,-1.92139,2.28794,-9.31523,-13.5073,-11.0199,73.7438
2023-03-10 00:02:17:245,-1.92047,2.28644,-9.30127,-13.5099,-11.0176,73.742
2023-03-10 00:02:17:255,-1.92539,2.27626,-9.31229,-13.5106,-11.0168,73.7377
2023-03-10 00:02:17:265,-1.89017,2.27594,-9.32328,-13.5134,-11.0137,73.7295
2023-03-10 00:02:17:275,-1.8612,2.28533,-9.32485,-13.5173,-11.0104,73.724
2023-03-10 00:02:17:285,-1.85097,2.28761,-9.31986,-13.518,-11.0107,73.7151
2023-03-10 00:02:17:295,-1.85092,2.28579,-9.33713,-13.5195,-11.0093,73.7059
2023-03-10 00:02:17:305,-1.83493,2.29129,-9.3538,-13.5232,-11.0107,73.6989
2023-03-10 00:02:17:315,-1.83026,2.29306,-9.35256,-13.5242,-11.0078,73.6889
2023-03-10 00:02:17:325,-1.83374,2.29708,-9.35157,-13.5251,-11.0055,73.6832
2023-03-10 00:02:17:335,-1.83774,2.28669,-9.33582,-13.5274,-11.0075,73.679
2023-03-10 00:02:17:345,-1.84051,2.29247,-9.3251,-13.5277,-11.0069,73.6774
2023-03-10 00:02:17:355,-1.83944,2.29162,-9.31123,-13.5301,-11.0091,73.6777
2023-03-10 00:02:17:365,-1.84171,2.28901,-9.3056,-13.5362,-11.0059,73.679
2023-03-10 00:02:17:375,-1.84251,2.28724,-9.31743,-13.5403,-11.0057,73.6788
2023-03-10 00:02:17:385,-1.82566,2.28084,-9.31571,-13.5429,-11.0057,73.6785
2023-03-10 00:02:17:395,-1.83406,2.27789,-9.30295,-13.5496,-11.0058,73.6814
2023-03-10 00:02:17:405,-1.83699,2.27908,-9.29432,-13.556,-11.0101,73.6823
2023-03-10 00:02:17:415,-1.84672,2.29157,-9.30654,-13.5645,-11.0133,73.6829
2023-03-10 00:02:17:425,-1.8609,2.3096,-9.3167,-13.5746,-11.0133,73.6853
2023-03-10 00:02:17:435,-1.89049,2.32542,-9.31225,-13.5847,-11.0157,73.691
2023-03-10 00:02:17:445,-1.91445,2.32363,-9.31337,-13.596,-11.022,73.6956
2023-03-10 00:02:17:455,-1.90959,2.31842,-9.3246,-13.6083,-11.0271,73.6996
2023-03-10 00:02:17:465,-1.90371,2.3206,-9.34252,-13.6145,-11.0284,73.6996
2023-03-10 00:02:17:475,-1.88094,2.31296,-9.33744,-13.62,-11.0305,73.6974
2023-03-10 00:02:17:485,-1.87432,2.30734,-9.3383,-13.6279,-11.0317,73.695
2023-03-10 00:02:17:495,-1.86002,2.29942,-9.34701,-13.6337,-11.0345,73.6913
2023-03-10 00:02:17:505,-1.84864,2.30406,-9.35989,-13.6391,-11.0358,73.6886
2023-03-10 00:02:17:515,-1.85249,2.30745,-9.37659,-13.6454,-11.0371,73.6817
2023-03-10 00:02:17:525,-1.88138,2.31025,-9.35536,-13.6488,-11.0379,73.6815
2023-03-10 00:02:17:535,-1.90766,2.31374,-9.34943,-13.6538,-11.0378,73.6832
2023-03-10 00:02:17:545,-1.90849,2.32427,-9.36546,-13.6549,-11.034,73.6784
2023-03-10 00:02:17:555,-1.86482,2.32719,-9.3747,-13.6554,-11.0298,73.6737
2023-03-10 00:02:17:565,-1.8179,2.3172,-9.36807,-13.6557,-11.0257,73.6689
2023-03-10 00:02:17:575,-1.82129,2.30105,-9.3511,-13.6496,-11.022,73.6636
2023-03-10 00:02:17:585,-1.85737,2.30939,-9.33941,-13.6504,-11.0255,73.6605
2023-03-10 00:02:17:595,-1.87212,2.29508,-9.32263,-13.6541,-11.029,73.6575
2023-03-10 00:02:17:605,-1.86587,2.29426,-9.30467,-13.6558,-11.027,73.6542
2023-03-10 00:02:17:615,-1.88529,2.30865,-9.29805,-13.6537,-11.0263,73.6487
2023-03-10 00:02:17:625,-1.89912,2.31809,-9.30031,-13.6565,-11.0284,73.6457
2023-03-10 00:02:17:635,-1.8942,2.33029,-9.29913,-13.6564,-11.0264,73.6414
2023-03-10 00:02:17:645,-1.88414,2.32012,-9.30826,-13.6563,-11.0229,73.6379
2023-03-10 00:02:17:655,-1.88331,2.32095,-9.30365,-13.6545,-11.0181,73.6339
2023-03-10 00:02:17:665,-1.87071,2.31262,-9.29368,-13.653,-11.0151,73.6251
2023-03-10 00:02:17:675,-1.87058,2.31123,-9.28775,-13.6519,-11.0118,73.6206
2023-03-10 00:02:17:685,-1.85472,2.29479,-9.29927,-13.6524,-11.0069,73.615
2023-03-10 00:02:17:695,-1.84366,2.3053,-9.32882,-13.6536,-11.004,73.6088
2023-03-10 00:02:17:705,-1.85359,2.31471,-9.34662,-13.6569,-11.0052,73.6041
2023-03-10 00:02:17:715,-1.8561,2.32976,-9.35989,-13.6589,-11.0043,73.5976
2023-03-10 00:02:17:725,-1.84611,2.33736,-9.37188,-13.6605,-11.0023,73.5912
2023-03-10 00:02:17:735,-1.84605,2.3271,-9.372,-13.6581,-11.0039,73.5854
2023-03-10 00:02:17:745,-1.85195,2.31255,-9.36643,-13.6559,-11.0054,73.5828
2023-03-10 00:02:17:755,-1.85596,2.31547,-9.3414,-13.6548,-11.0074,73.5803
2023-03-10 00:02:17:765,-1.87754,2.32544,-9.33619,-13.6574,-11.0094,73.5835
2023-03-10 00:02:17:775,-1.88035,2.32995,-9.34277,-13.6553,-11.0106,73.5839
2023-03-10 00:02:17:785,-1.88218,2.31982,-9.32711,-13.6511,-11.0118,73.586
2023-03-10 00:02:17:795,-1.90526,2.31997,-9.31511,-13.6478,-11.013,73.5942
2023-03-10 00:02:17:805,-1.92289,2.32633,-9.31227,-13.6443,-11.0133,73.602
2023-03-10 00:02:17:815,-1.90012,2.30998,-9.30221,-13.6374,-11.0069,73.6008
2023-03-10 00:02:17:825,-1.84219,2.29679,-9.32125,-13.6322,-10.9964,73.6012
2023-03-10 00:02:17:835,-1.79873,2.30173,-9.34745,-13.627,-10.9889,73.5993
2023-03-10 00:02:17:845,-1.83027,2.30018,-9.36083,-13.6213,-10.9862,73.6015
2023-03-10 00:02:17:855,-1.88168,2.30456,-9.37119,-13.6186,-10.9887,73.6035
2023-03-10 00:02:17:865,-1.89859,2.29462,-9.35977,-13.6124,-10.9944,73.6077
2023-03-10 00:02:17:875,-1.87124,2.28868,-9.34225,-13.6023,-10.9958,73.6082
2023-03-10 00:02:17:885,-1.84883,2.281,-9.34082,-13.5955,-11.0002,73.6078
2023-03-10 00:02:17:895,-1.84561,2.28899,-9.3447,-13.5883,-11.0002,73.6092
2023-03-10 00:02:17:905,-1.85912,2.29575,-9.36205,-13.5831,-11.0022,73.612
2023-03-10 00:02:17:915,-1.86847,2.28153,-9.36447,-13.5788,-11.0023,73.6172
2023-03-10 00:02:17:925,-1.88783,2.28026,-9.3202,-13.5706,-11.0035,73.6218
2023-03-10 00:02:17:935,-1.89347,2.26736,-9.30904,-13.5606,-10.9996,73.6249
2023-03-10 00:02:17:945,-1.88853,2.26046,-9.29997,-13.5526,-10.9962,73.6303
2023-03-10 00:02:17:955,-1.8957,2.25189,-9.29831,-13.5455,-10.9943,73.632
2023-03-10 00:02:17:965,-1.89268,2.25703,-9.27604,-13.5388,-10.99,73.6332
2023-03-10 00:02:17:975,-1.86532,2.24076,-9.27707,-13.5347,-10.988,73.6313
2023-03-10 00:02:17:985,-1.84032,2.234,-9.28256,-13.5281,-10.9861,73.6287
2023-03-10 00:02:17:995,-1.82326,2.22877,-9.27517,-13.5232,-10.9826,73.6274
2023-03-10 00:02:18:5,-1.82066,2.2271,-9.28371,-13.5246,-10.9808,73.6265
2023-03-10 00:02:18:15,-1.8114,2.2392,-9.30553,-13.5269,-10.9795,73.6288
2023-03-10 00:02:18:25,-1.83356,2.25593,-9.31804,-13.531,-10.9815,73.6282
2023-03-10 00:02:18:35,-1.85997,2.27331,-9.32971,-13.5398,-10.9842,73.6311
2023-03-10 00:02:18:45,-1.86838,2.27406,-9.33522,-13.5494,-10.9847,73.6363
2023-03-10 00:02:18:55,-1.87656,2.28836,-9.34105,-13.5585,-10.9844,73.6435
2023-03-10 00:02:18:65,-1.89711,2.3029,-9.34683,-13.5661,-10.9828,73.6528
2023-03-10 00:02:18:75,-1.89864,2.30629,-9.33255,-13.5743,-10.9838,73.6566
2023-03-10 00:02:18:85,-1.90658,2.30374,-9.33059,-13.5838,-10.9788,73.6591
2023-03-10 00:02:18:95,-1.89427,2.30657,-9.33852,-13.5921,-10.9747,73.6615
2023-03-10 00:02:18:105,-1.89613,2.30212,-9.33459,-13.5971,-10.9704,73.6614
2023-03-10 00:02:18:115,-1.88734,2.31248,-9.32208,-13.6034,-10.9616,73.6623
2023-03-10 00:02:18:125,-1.85346,2.29629,-9.32226,-13.6071,-10.9567,73.6568
2023-03-10 00:02:18:135,-1.82021,2.29522,-9.30743,-13.61,-10.9528,73.6493
2023-03-10 00:02:18:145,-1.81474,2.28361,-9.30588,-13.6148,-10.9477,73.6446
2023-03-10 00:02:18:155,-1.7965,2.29264,-9.32211,-13.6213,-10.9453,73.6398
2023-03-10 00:02:18:165,-1.76697,2.31162,-9.33688,-13.6272,-10.9397,73.6363
2023-03-10 00:02:18:175,-1.76986,2.31548,-9.34441,-13.6333,-10.9363,73.6323
2023-03-10 00:02:18:185,-1.77089,2.29558,-9.33676,-13.6404,-10.9338,73.6306
2023-03-10 00:02:18:195,-1.78459,2.31329,-9.33719,-13.6481,-10.9345,73.6304
2023-03-10 00:02:18:205,-1.80407,2.31529,-9.34706,-13.656,-10.935,73.6345
2023-03-10 00:02:18:215,-1.83079,2.33808,-9.35289,-13.6633,-10.9347,73.6356
2023-03-10 00:02:18:225,-1.85736,2.3561,-9.36375,-13.6709,-10.9354,73.6408
2023-03-10 00:02:18:235,-1.84044,2.34355,-9.36979,-13.6726,-10.9358,73.6453
2023-03-10 00:02:18:245,-1.81735,2.33426,-9.35457,-13.6712,-10.9348,73.6485
2023-03-10 00:02:18:255,-1.82684,2.32103,-9.33405,-13.6743,-10.9365,73.6498
2023-03-10 00:02:18:265,-1.83026,2.32681,-9.31253,-13.6773,-10.9412,73.6503
2023-03-10 00:02:18:275,-1.83392,2.32943,-9.31559,-13.6825,-10.9477,73.6526
2023-03-10 00:02:18:285,-1.8338,2.32776,-9.32363,-13.6854,-10.9495,73.657
2023-03-10 00:02:18:295,-1.84292,2.33604,-9.31992,-13.6864,-10.9557,73.6606
2023-03-10 00:02:18:305,-1.85673,2.34307,-9.33344,-13.6912,-10.9559,73.6629
2023-03-10 00:02:18:315,-1.85994,2.34783,-9.33968,-13.6934,-10.9611,73.6661
2023-03-10 00:02:18:325,-1.85246,2.35293,-9.32356,-13.6975,-10.964,73.6692
2023-03-10 00:02:18:335,-1.8378,2.33659,-9.32258,-13.695,-10.9685,73.669
2023-03-10 00:02:18:345,-1.82765,2.33604,-9.33242,-13.6967,-10.973,73.6722
2023-03-10 00:02:18:355,-1.84853,2.34848,-9.33989,-13.6997,-10.9793,73.6731
2023-03-10 00:02:18:365,-1.86295,2.35135,-9.34065,-13.6977,-10.9864,73.6709
2023-03-10 00:02:18:375,-1.86134,2.33722,-9.36299,-13.694,-10.9932,73.6718
2023-03-10 00:02:18:385,-1.85663,2.32727,-9.36526,-13.6897,-10.9995,73.6743
2023-03-10 00:02:18:395,-1.84115,2.30424,-9.34761,-13.6821,-11.0046,73.6733
2023-03-10 00:02:18:405,-1.84566,2.28561,-9.33141,-13.6725,-11.0137,73.673
2023-03-10 00:02:18:415,-1.85309,2.28082,-9.3068,-13.6654,-11.0208,73.6747
2023-03-10 00:02:18:425,-1.85905,2.278,-9.29877,-13.6587,-11.0279,73.6769
2023-03-10 00:02:18:435,-1.87043,2.27069,-9.29926,-13.6528,-11.033,73.6798
2023-03-10 00:02:18:445,-1.88286,2.25935,-9.29372,-13.6462,-11.0394,73.6854
2023-03-10 00:02:18:455,-1.92019,2.25586,-9.28649,-13.6393,-11.048,73.693
2023-03-10 00:02:18:465,-1.92946,2.2622,-9.28496,-13.6377,-11.052,73.7011
2023-03-10 00:02:18:475,-1.91482,2.27117,-9.28711,-13.6347,-11.0512,73.705
2023-03-10 00:02:18:485,-1.88017,2.27624,-9.31777,-13.633,-11.0513,73.7096
2023-03-10 00:02:18:495,-1.87745,2.27283,-9.32314,-13.6332,-11.0496,73.7149
2023-03-10 00:02:18:505,-1.90575,2.27533,-9.30939,-13.6343,-11.0505,73.7232
2023-03-10 00:02:18:515,-1.94139,2.26902,-9.30411,-13.6394,-11.0533,73.7321
2023-03-10 00:02:18:525,-1.95378,2.28467,-9.30187,-13.64,-11.0595,73.7354
2023-03-10 00:02:18:534,-1.96076,2.30581,-9.31472,-13.647,-11.0594,73.7377
2023-03-10 00:02:18:545,-1.96556,2.32414,-9.32856,-13.6544,-11.0609,73.7391
2023-03-10 00:02:18:555,-1.9578,2.34144,-9.34163,-13.664,-11.0604,73.7384
2023-03-10 00:02:18:565,-1.94929,2.34812,-9.33818,-13.6619,-11.0579,73.7324
2023-03-10 00:02:18:575,-1.94079,2.33891,-9.31681,-13.6584,-11.0549,73.7281
2023-03-10 00:02:18:585,-1.9177,2.31291,-9.29419,-13.6553,-11.05,73.7181
2023-03-10 00:02:18:595,-1.89389,2.28899,-9.27011,-13.6491,-11.0439,73.7103
2023-03-10 00:02:18:605,-1.88875,2.2806,-9.26582,-13.6498,-11.0411,73.7063
2023-03-10 00:02:18:615,-1.8765,2.27707,-9.27762,-13.6502,-11.0364,73.7025
2023-03-10 00:02:18:625,-1.86961,2.27567,-9.29302,-13.6521,-11.0278,73.6977
2023-03-10 00:02:18:635,-1.84294,2.28193,-9.31435,-13.6579,-11.0191,73.6918
2023-03-10 00:02:18:645,-1.8393,2.29082,-9.32579,-13.665,-11.0097,73.6902
2023-03-10 00:02:18:655,-1.85496,2.30543,-9.33212,-13.6703,-11.002,73.689
2023-03-10 00:02:18:665,-1.88671,2.32528,-9.32523,-13.6756,-10.9934,73.6858
2023-03-10 00:02:18:675,-1.88433,2.34016,-9.33913,-13.6834,-10.9824,73.6861
2023-03-10 00:02:18:685,-1.85683,2.3413,-9.34956,-13.6912,-10.9716,73.683
2023-03-10 00:02:18:695,-1.8509,2.34514,-9.35094,-13.6963,-10.9596,73.6768
2023-03-10 00:02:18:705,-1.84148,2.3309,-9.32678,-13.6995,-10.9474,73.6697
2023-03-10 00:02:18:715,-1.84407,2.32725,-9.30109,-13.7012,-10.9362,73.6638
2023-03-10 00:02:18:725,-1.85642,2.34075,-9.30638,-13.7071,-10.9251,73.6572
2023-03-10 00:02:18:735,-1.83464,2.33503,-9.29043,-13.707,-10.9119,73.6477
2023-03-10 00:02:18:745,-1.77404,2.32509,-9.29459,-13.7081,-10.894,73.6369
2023-03-10 00:02:18:755,-1.71427,2.32383,-9.33692,-13.7109,-10.881,73.6252
2023-03-10 00:02:18:765,-1.69634,2.31317,-9.34654,-13.7159,-10.8705,73.616
2023-03-10 00:02:18:775,-1.74164,2.31007,-9.34022,-13.7164,-10.8655,73.6139
2023-03-10 00:02:18:785,-1.78235,2.32787,-9.32722,-13.7189,-10.8633,73.6114
2023-03-10 00:02:18:795,-1.79258,2.32704,-9.33157,-13.7217,-10.8598,73.6102
2023-03-10 00:02:18:805,-1.77636,2.31459,-9.35554,-13.7259,-10.8535,73.6101
2023-03-10 00:02:18:815,-1.76354,2.31592,-9.36071,-13.7267,-10.8465,73.6045
2023-03-10 00:02:18:825,-1.75907,2.32364,-9.35877,-13.7297,-10.8443,73.6038
2023-03-10 00:02:18:835,-1.76914,2.32741,-9.33669,-13.7322,-10.8486,73.6089
2023-03-10 00:02:18:845,-1.7951,2.3221,-9.31675,-13.7316,-10.8506,73.6116
2023-03-10 00:02:18:855,-1.79494,2.31241,-9.31524,-13.7333,-10.8536,73.6162
2023-03-10 00:02:18:865,-1.78251,2.3145,-9.29469,-13.7328,-10.8556,73.621
2023-03-10 00:02:18:875,-1.7875,2.31813,-9.29222,-13.7341,-10.8607,73.6234
2023-03-10 00:02:18:885,-1.80523,2.32404,-9.29263,-13.7391,-10.8654,73.6321
2023-03-10 00:02:18:895,-1.81607,2.33277,-9.30482,-13.7459,-10.8677,73.6381
2023-03-10 00:02:18:905,-1.80595,2.32985,-9.30929,-13.7539,-10.8724,73.6471
2023-03-10 00:02:18:915,-1.82062,2.31505,-9.30469,-13.7604,-10.8747,73.6572
2023-03-10 00:02:18:925,-1.8303,2.31356,-9.31991,-13.7657,-10.8793,73.6684
2023-03-10 00:02:18:935,-1.84188,2.31984,-9.32591,-13.7724,-10.8857,73.6806
2023-03-10 00:02:18:945,-1.8446,2.32566,-9.33095,-13.7778,-10.8965,73.6908
2023-03-10 00:02:18:955,-1.84383,2.33063,-9.33,-13.7842,-10.9048,73.704
2023-03-10 00:02:18:965,-1.86901,2.33424,-9.32822,-13.795,-10.916,73.7165
2023-03-10 00:02:18:975,-1.88327,2.34712,-9.32058,-13.8056,-10.9256,73.7291
2023-03-10 00:02:18:985,-1.91935,2.34503,-9.32977,-13.8128,-10.9373,73.7414
2023-03-10 00:02:18:995,-1.93668,2.34773,-9.3322,-13.8198,-10.9471,73.7525
2023-03-10 00:02:19:5,-1.94614,2.35801,-9.31966,-13.8229,-10.9537,73.7629
2023-03-10 00:02:19:15,-1.93548,2.35863,-9.30224,-13.8287,-10.9574,73.7706
2023-03-10 00:02:19:25,-1.92398,2.36026,-9.29994,-13.8331,-10.9597,73.7757
2023-03-10 00:02:19:35,-1.91057,2.35661,-9.30607,-13.835,-10.9619,73.7785
2023-03-10 00:02:19:45,-1.89849,2.34629,-9.32367,-13.8348,-10.9608,73.7804
2023-03-10 00:02:19:55,-1.87389,2.34847,-9.31257,-13.8381,-10.9559,73.7786
2023-03-10 00:02:19:65,-1.8598,2.34801,-9.31093,-13.8399,-10.9567,73.7782
2023-03-10 00:02:19:75,-1.85763,2.3322,-9.31372,-13.8414,-10.9552,73.7795
2023-03-10 00:02:19:85,-1.83871,2.33393,-9.30889,-13.844,-10.9568,73.7772
2023-03-10 00:02:19:95,-1.83466,2.35259,-9.3001,-13.8482,-10.9586,73.7786
2023-03-10 00:02:19:105,-1.82633,2.36619,-9.316,-13.8517,-10.9581,73.779
2023-03-10 00:02:19:115,-1.79775,2.35638,-9.34133,-13.8579,-10.9552,73.7803
2023-03-10 00:02:19:125,-1.80355,2.35838,-9.33015,-13.8626,-10.9545,73.7821
2023-03-10 00:02:19:135,-1.83121,2.34893,-9.33794,-13.8657,-10.954,73.7859
2023-03-10 00:02:19:145,-1.84648,2.37113,-9.3387,-13.87,-10.9524,73.7913
2023-03-10 00:02:19:155,-1.85308,2.36418,-9.33494,-13.8706,-10.9514,73.7954
2023-03-10 00:02:19:165,-1.853,2.3562,-9.3302,-13.8708,-10.9531,73.8015
2023-03-10 00:02:19:175,-1.83732,2.35637,-9.30877,-13.8708,-10.9536,73.8049
2023-03-10 00:02:19:185,-1.8455,2.36445,-9.32106,-13.8731,-10.9546,73.8107
2023-03-10 00:02:19:195,-1.84143,2.37191,-9.34119,-13.8762,-10.9551,73.8145
2023-03-10 00:02:19:205,-1.85693,2.37136,-9.33875,-13.8763,-10.9543,73.8193
2023-03-10 00:02:19:215,-1.86,2.37821,-9.3347,-13.8744,-10.9534,73.8231
2023-03-10 00:02:19:225,-1.84423,2.38073,-9.33025,-13.871,-10.9512,73.8251
2023-03-10 00:02:19:235,-1.83127,2.36776,-9.32983,-13.8666,-10.9503,73.8264
2023-03-10 00:02:19:245,-1.83881,2.36389,-9.3312,-13.8617,-10.9512,73.8318
2023-03-10 00:02:19:255,-1.83606,2.36359,-9.32919,-13.8572,-10.9544,73.8376
2023-03-10 00:02:19:265,-1.83276,2.3482,-9.32956,-13.8506,-10.9598,73.8396
2023-03-10 00:02:19:275,-1.83707,2.34137,-9.33086,-13.8472,-10.963,73.8465
2023-03-10 00:02:19:285,-1.83529,2.35493,-9.31877,-13.8423,-10.9666,73.8554
2023-03-10 00:02:19:295,-1.84964,2.35077,-9.31674,-13.8381,-10.9713,73.8681
2023-03-10 00:02:19:305,-1.86909,2.34004,-9.34537,-13.8348,-10.9744,73.8789
2023-03-10 00:02:19:315,-1.89143,2.3374,-9.34407,-13.8327,-10.9791,73.8915
2023-03-10 00:02:19:325,-1.89505,2.3294,-9.34131,-13.8268,-10.9792,73.9023
2023-03-10 00:02:19:335,-1.88014,2.31549,-9.31624,-13.8186,-10.9777,73.9106
2023-03-10 00:02:19:345,-1.88198,2.29577,-9.28569,-13.808,-10.9805,73.9208
2023-03-10 00:02:19:355,-1.89627,2.27289,-9.26724,-13.804,-10.9788,73.932
2023-03-10 00:02:19:365,-1.89072,2.28676,-9.26713,-13.8013,-10.9784,73.9406
2023-03-10 00:02:19:375,-1.91266,2.28878,-9.27494,-13.7994,-10.9806,73.9503
2023-03-10 00:02:19:385,-1.91904,2.29191,-9.27401,-13.7969,-10.9833,73.96
2023-03-10 00:02:19:395,-1.92052,2.29138,-9.2907,-13.7961,-10.9815,73.9689
2023-03-10 00:02:19:405,-1.89062,2.28958,-9.32752,-13.7972,-10.977,73.9718
2023-03-10 00:02:19:415,-1.84509,2.30152,-9.37196,-13.7981,-10.9727,73.9756
2023-03-10 00:02:19:425,-1.83719,2.30236,-9.35809,-13.7963,-10.9722,73.9764
2023-03-10 00:02:19:435,-1.87502,2.29032,-9.31584,-13.7978,-10.9749,73.9819
2023-03-10 00:02:19:445,-1.9028,2.31391,-9.31153,-13.802,-10.9784,73.9883
2023-03-10 00:02:19:455,-1.89178,2.31624,-9.33211,-13.8062,-10.9829,73.9955
2023-03-10 00:02:19:465,-1.88412,2.34176,-9.32972,-13.8124,-10.9817,74.001
2023-03-10 00:02:19:475,-1.89065,2.3466,-9.31563,-13.8149,-10.9827,74.0041
2023-03-10 00:02:19:485,-1.88808,2.35305,-9.30108,-13.8186,-10.9834,74.0095
2023-03-10 00:02:19:495,-1.86952,2.35812,-9.30934,-13.821,-10.9836,74.0114
2023-03-10 00:02:19:505,-1.86467,2.35604,-9.29761,-13.8236,-10.9791,74.0114
2023-03-10 00:02:19:515,-1.86144,2.34139,-9.26414,-13.8213,-10.9721,74.0102
2023-03-10 00:02:19:525,-1.86026,2.31563,-9.26776,-13.8156,-10.9687,74.0096
