Timestamp,Acceleration_x,Acceleration_y,Acceleration_z,roll,pitch,yaw
2023-03-15 15:18:25:548,-0.676203,-0.624665,-9.78853,4.09305,-4.695,-14.1568
2023-03-15 15:18:25:556,-0.691285,-0.63454,-9.76893,4.09736,-4.6959,-14.1513
2023-03-15 15:18:25:566,-0.724923,-0.641105,-9.75532,4.10163,-4.70166,-14.1438
2023-03-15 15:18:25:576,-0.743057,-0.657771,-9.74263,4.10602,-4.7134,-14.1369
2023-03-15 15:18:25:586,-0.761747,-0.6841,-9.72518,4.10891,-4.72966,-14.1297
2023-03-15 15:18:25:596,-0.764002,-0.678444,-9.69889,4.112,-4.75082,-14.1211
2023-03-15 15:18:25:606,-0.788128,-0.696279,-9.69198,4.11779,-4.77336,-14.1118
2023-03-15 15:18:25:616,-0.807376,-0.680684,-9.72659,4.11985,-4.79728,-14.0992
2023-03-15 15:18:25:626,-0.792715,-0.706862,-9.70185,4.12333,-4.82048,-14.0883
2023-03-15 15:18:25:636,-0.871695,-0.694862,-9.68007,4.12622,-4.84851,-14.0706
2023-03-15 15:18:25:646,-0.935875,-0.653778,-9.73333,4.12393,-4.87902,-14.0573
2023-03-15 15:18:25:656,-0.966287,-0.655261,-9.7472,4.12478,-4.90682,-14.0461
2023-03-15 15:18:25:666,-0.99531,-0.651049,-9.71966,4.13043,-4.92833,-14.0372
2023-03-15 15:18:25:676,-1.00589,-0.661334,-9.69085,4.13943,-4.94471,-14.0301
2023-03-15 15:18:25:686,-1.03312,-0.692912,-9.6465,4.15242,-4.95926,-14.0227
2023-03-15 15:18:25:696,-1.04487,-0.695637,-9.64036,4.16214,-4.97075,-14.0183
2023-03-15 15:18:25:706,-1.02244,-0.707013,-9.6513,4.17084,-4.98079,-14.0172
2023-03-15 15:18:25:716,-0.964636,-0.735163,-9.65558,4.17855,-4.98492,-14.0192
2023-03-15 15:18:25:726,-0.949393,-0.733245,-9.63676,4.18497,-4.99173,-14.0196
2023-03-15 15:18:25:736,-0.961856,-0.721876,-9.62751,4.18711,-4.99625,-14.0242
2023-03-15 15:18:25:746,-0.913055,-0.731148,-9.63682,4.18852,-4.9958,-14.0354
2023-03-15 15:18:25:756,-0.873677,-0.750212,-9.65815,4.1929,-4.99356,-14.0479
2023-03-15 15:18:25:766,-0.837677,-0.754911,-9.66638,4.193,-4.98985,-14.052
2023-03-15 15:18:25:776,-0.813452,-0.763928,-9.68265,4.19176,-4.98957,-14.059
2023-03-15 15:18:25:786,-0.806299,-0.718707,-9.75477,4.18751,-4.9843,-14.0603
2023-03-15 15:18:25:796,-0.765454,-0.729425,-9.75393,4.18487,-4.98435,-14.0595
2023-03-15 15:18:25:806,-0.751193,-0.75696,-9.68723,4.18365,-4.98536,-14.0519
2023-03-15 15:18:25:816,-0.825652,-0.773091,-9.63322,4.18112,-4.9916,-14.0353
2023-03-15 15:18:25:826,-0.891607,-0.757714,-9.64194,4.17265,-4.99626,-14.0208
2023-03-15 15:18:25:836,-0.886192,-0.761157,-9.64157,4.16272,-4.99722,-14.0085
2023-03-15 15:18:25:846,-0.897958,-0.71957,-9.67485,4.14669,-4.99912,-13.9984
2023-03-15 15:18:25:856,-0.872872,-0.665303,-9.72935,4.12764,-4.99735,-13.9922
2023-03-15 15:18:25:866,-0.838014,-0.645903,-9.75205,4.1101,-4.99723,-13.9846
2023-03-15 15:18:25:876,-0.85924,-0.627504,-9.7352,4.09253,-5.0018,-13.9813
2023-03-15 15:18:25:886,-0.914912,-0.606482,-9.7301,4.07187,-5.00948,-13.9768
2023-03-15 15:18:25:896,-0.964312,-0.58926,-9.71863,4.05702,-5.0178,-13.9737
2023-03-15 15:18:25:906,-0.97241,-0.596087,-9.69904,4.04683,-5.02666,-13.9748
2023-03-15 15:18:25:916,-0.975276,-0.622109,-9.68403,4.04265,-5.03449,-13.979
2023-03-15 15:18:25:926,-0.956134,-0.648793,-9.66299,4.04316,-5.03893,-13.9883
2023-03-15 15:18:25:936,-0.926285,-0.664496,-9.65309,4.03967,-5.03889,-13.9984
2023-03-15 15:18:25:946,-0.911962,-0.67924,-9.65316,4.03776,-5.03577,-14.0064
2023-03-15 15:18:25:956,-0.912492,-0.678821,-9.68148,4.03035,-5.0316,-14.017
2023-03-15 15:18:25:966,-0.91233,-0.673835,-9.71031,4.02381,-5.02522,-14.0289
2023-03-15 15:18:25:976,-0.885672,-0.657333,-9.73429,4.01397,-5.01872,-14.0379
2023-03-15 15:18:25:986,-0.849547,-0.651415,-9.72796,4.00601,-5.0103,-14.0507
2023-03-15 15:18:25:996,-0.855683,-0.630061,-9.72411,3.99462,-5.00223,-14.0643
2023-03-15 15:18:26:6,-0.877677,-0.64068,-9.72747,3.98704,-4.99279,-14.076
2023-03-15 15:18:26:16,-0.848767,-0.646496,-9.69334,3.98083,-4.97884,-14.0895
2023-03-15 15:18:26:26,-0.840181,-0.602002,-9.7352,3.96666,-4.96168,-14.1008
2023-03-15 15:18:26:36,-0.78002,-0.583561,-9.77448,3.95788,-4.94034,-14.1169
2023-03-15 15:18:26:46,-0.697706,-0.624549,-9.77108,3.95144,-4.92137,-14.131
2023-03-15 15:18:26:56,-0.693181,-0.614435,-9.75982,3.95124,-4.90506,-14.1418
2023-03-15 15:18:26:66,-0.727877,-0.611831,-9.79396,3.95049,-4.89024,-14.1532
2023-03-15 15:18:26:76,-0.726605,-0.609671,-9.79478,3.95213,-4.87832,-14.1634
2023-03-15 15:18:26:86,-0.72219,-0.616527,-9.77953,3.95612,-4.86747,-14.1779
2023-03-15 15:18:26:96,-0.716954,-0.647883,-9.75021,3.96413,-4.85448,-14.1871
2023-03-15 15:18:26:106,-0.702249,-0.686758,-9.70846,3.96806,-4.84636,-14.1956
2023-03-15 15:18:26:116,-0.698691,-0.689645,-9.70897,3.97371,-4.84288,-14.2005
2023-03-15 15:18:26:126,-0.703974,-0.677938,-9.73949,3.9784,-4.83739,-14.2005
2023-03-15 15:18:26:136,-0.72371,-0.663692,-9.74154,3.98009,-4.83249,-14.1973
2023-03-15 15:18:26:146,-0.749649,-0.641805,-9.72962,3.98822,-4.83276,-14.1948
2023-03-15 15:18:26:156,-0.753666,-0.637775,-9.73674,3.99314,-4.82835,-14.1933
2023-03-15 15:18:26:166,-0.738066,-0.679694,-9.69505,3.99916,-4.82851,-14.1865
2023-03-15 15:18:26:176,-0.745946,-0.690413,-9.67089,4.00558,-4.83255,-14.1822
2023-03-15 15:18:26:186,-0.785108,-0.679216,-9.67185,4.0079,-4.83808,-14.1796
2023-03-15 15:18:26:196,-0.774732,-0.661234,-9.69006,4.00949,-4.84078,-14.175
2023-03-15 15:18:26:206,-0.74025,-0.687287,-9.69207,4.01262,-4.84547,-14.1686
2023-03-15 15:18:26:216,-0.759503,-0.690313,-9.67773,4.01746,-4.85111,-14.1569
2023-03-15 15:18:26:226,-0.805015,-0.634119,-9.72754,4.01928,-4.85339,-14.1467
2023-03-15 15:18:26:236,-0.779962,-0.661331,-9.73375,4.02778,-4.85311,-14.1342
2023-03-15 15:18:26:246,-0.737591,-0.719226,-9.68569,4.03284,-4.85301,-14.1185
2023-03-15 15:18:26:256,-0.754422,-0.736261,-9.64859,4.03416,-4.8634,-14.0955
2023-03-15 15:18:26:266,-0.864093,-0.674896,-9.66877,4.02636,-4.87995,-14.0762
2023-03-15 15:18:26:276,-0.921303,-0.59482,-9.78081,4.01521,-4.89961,-14.0626
2023-03-15 15:18:26:286,-0.911215,-0.568892,-9.80839,4.00851,-4.91116,-14.0532
2023-03-15 15:18:26:296,-0.911195,-0.61208,-9.73311,4.01004,-4.91985,-14.0471
2023-03-15 15:18:26:306,-0.922202,-0.654238,-9.6789,4.01558,-4.93465,-14.0397
2023-03-15 15:18:26:316,-0.949419,-0.643312,-9.67445,4.01549,-4.94706,-14.0308
2023-03-15 15:18:26:326,-0.99595,-0.590084,-9.74492,4.01406,-4.95726,-14.028
2023-03-15 15:18:26:336,-0.945248,-0.604074,-9.7638,4.01949,-4.95721,-14.033
2023-03-15 15:18:26:346,-0.854811,-0.69608,-9.67152,4.0349,-4.95187,-14.034
2023-03-15 15:18:26:356,-0.81603,-0.737316,-9.59519,4.04738,-4.95309,-14.0328
2023-03-15 15:18:26:366,-0.873966,-0.71269,-9.60006,4.0455,-4.96654,-14.0325
2023-03-15 15:18:26:376,-0.934914,-0.628102,-9.75656,4.03496,-4.97612,-14.0337
2023-03-15 15:18:26:386,-0.913914,-0.615272,-9.78787,4.03171,-4.98475,-14.0428
2023-03-15 15:18:26:396,-0.87526,-0.664474,-9.72529,4.03144,-4.98662,-14.0477
2023-03-15 15:18:26:406,-0.871683,-0.709253,-9.65856,4.03492,-4.98885,-14.0492
2023-03-15 15:18:26:416,-0.883914,-0.719594,-9.66836,4.03569,-4.99014,-14.0476
2023-03-15 15:18:26:426,-0.883634,-0.680767,-9.70638,4.03587,-4.98723,-14.0465
2023-03-15 15:18:26:436,-0.874788,-0.681812,-9.69745,4.03835,-4.98568,-14.0493
2023-03-15 15:18:26:446,-0.879129,-0.689711,-9.68179,4.03996,-4.98461,-14.0541
2023-03-15 15:18:26:456,-0.871579,-0.694208,-9.66237,4.03897,-4.98291,-14.0585
2023-03-15 15:18:26:466,-0.874805,-0.703816,-9.66059,4.03879,-4.98148,-14.062
2023-03-15 15:18:26:476,-0.860714,-0.679357,-9.67051,4.03911,-4.9794,-14.0667
2023-03-15 15:18:26:486,-0.851174,-0.69028,-9.70521,4.03605,-4.97545,-14.0728
2023-03-15 15:18:26:496,-0.855775,-0.675375,-9.69534,4.03378,-4.97081,-14.0775
2023-03-15 15:18:26:506,-0.857121,-0.67004,-9.70987,4.02797,-4.96601,-14.0831
2023-03-15 15:18:26:516,-0.846263,-0.674308,-9.72369,4.02196,-4.96045,-14.0877
2023-03-15 15:18:26:526,-0.827653,-0.684998,-9.70759,4.02371,-4.95761,-14.0916
2023-03-15 15:18:26:536,-0.840085,-0.685448,-9.703,4.021,-4.95429,-14.096
2023-03-15 15:18:26:546,-0.852599,-0.695185,-9.71743,4.01686,-4.95027,-14.0993
2023-03-15 15:18:26:556,-0.830065,-0.700164,-9.70887,4.01686,-4.94656,-14.1028
2023-03-15 15:18:26:566,-0.826645,-0.711722,-9.69059,4.01738,-4.94024,-14.1086
2023-03-15 15:18:26:576,-0.847064,-0.690745,-9.68237,4.01613,-4.93338,-14.114
2023-03-15 15:18:26:586,-0.83899,-0.680637,-9.69216,4.01475,-4.92853,-14.1216
2023-03-15 15:18:26:596,-0.813997,-0.685155,-9.68736,4.01032,-4.91946,-14.128
2023-03-15 15:18:26:606,-0.798137,-0.702645,-9.68963,4.00894,-4.91493,-14.1336
2023-03-15 15:18:26:616,-0.802059,-0.710212,-9.70392,4.00804,-4.91708,-14.1375
2023-03-15 15:18:26:626,-0.808831,-0.698305,-9.73945,4.00431,-4.9162,-14.1418
2023-03-15 15:18:26:636,-0.78009,-0.679008,-9.77507,4.0032,-4.91345,-14.1502
2023-03-15 15:18:26:646,-0.722914,-0.695127,-9.78946,4.00669,-4.90788,-14.1549
2023-03-15 15:18:26:656,-0.694916,-0.739367,-9.7376,4.01348,-4.90544,-14.156
2023-03-15 15:18:26:666,-0.735911,-0.750714,-9.68899,4.01544,-4.91316,-14.149
2023-03-15 15:18:26:676,-0.812354,-0.731991,-9.67919,4.01325,-4.92161,-14.1407
2023-03-15 15:18:26:686,-0.856149,-0.689225,-9.70281,4.00649,-4.92969,-14.1272
2023-03-15 15:18:26:696,-0.874005,-0.65786,-9.72055,3.99382,-4.93171,-14.1151
2023-03-15 15:18:26:706,-0.902022,-0.629018,-9.72138,3.98401,-4.93552,-14.1055
2023-03-15 15:18:26:716,-0.925295,-0.603659,-9.71558,3.97408,-4.93486,-14.099
2023-03-15 15:18:26:728,-0.944217,-0.598762,-9.70335,3.966,-4.93761,-14.0954
2023-03-15 15:18:26:736,-0.96328,-0.586105,-9.6934,3.96408,-4.93992,-14.097
2023-03-15 15:18:26:746,-0.961091,-0.589953,-9.69373,3.96109,-4.93762,-14.0994
2023-03-15 15:18:26:756,-0.963591,-0.606342,-9.69767,3.9642,-4.93301,-14.108
2023-03-15 15:18:26:766,-0.951158,-0.625714,-9.66385,3.97052,-4.93203,-14.1188
2023-03-15 15:18:26:776,-0.921937,-0.633578,-9.65584,3.97734,-4.92565,-14.1333
2023-03-15 15:18:26:786,-0.891459,-0.645913,-9.66657,3.98043,-4.91715,-14.1508
2023-03-15 15:18:26:796,-0.863839,-0.663721,-9.67975,3.98632,-4.90826,-14.1696
2023-03-15 15:18:26:806,-0.844407,-0.678343,-9.68491,3.98883,-4.89704,-14.1868
2023-03-15 15:18:26:816,-0.830821,-0.681651,-9.68828,3.99199,-4.88382,-14.2033
2023-03-15 15:18:26:826,-0.812642,-0.665511,-9.69667,3.99266,-4.87012,-14.2203
2023-03-15 15:18:26:836,-0.788732,-0.661447,-9.70099,3.98789,-4.85788,-14.2366
2023-03-15 15:18:26:846,-0.821996,-0.663441,-9.69812,3.98292,-4.84348,-14.2467
2023-03-15 15:18:26:856,-0.86525,-0.630055,-9.71123,3.9734,-4.82999,-14.256
2023-03-15 15:18:26:866,-0.867252,-0.581743,-9.75682,3.96365,-4.81534,-14.2699
2023-03-15 15:18:26:876,-0.844436,-0.570161,-9.79477,3.95296,-4.79784,-14.2879
2023-03-15 15:18:26:886,-0.760477,-0.589238,-9.78873,3.95095,-4.77812,-14.3096
2023-03-15 15:18:26:896,-0.725666,-0.633436,-9.75243,3.94992,-4.7635,-14.3269
2023-03-15 15:18:26:906,-0.770206,-0.638743,-9.71039,3.95235,-4.75374,-14.339
2023-03-15 15:18:26:916,-0.818089,-0.625078,-9.7033,3.95208,-4.74717,-14.3565
2023-03-15 15:18:26:926,-0.816013,-0.625752,-9.728,3.95146,-4.73481,-14.3708
2023-03-15 15:18:26:936,-0.786461,-0.637321,-9.74358,3.95119,-4.72334,-14.3915
2023-03-15 15:18:26:946,-0.770537,-0.656994,-9.73772,3.95248,-4.71492,-14.4084
2023-03-15 15:18:26:956,-0.78345,-0.646004,-9.74641,3.95714,-4.70516,-14.4257
2023-03-15 15:18:26:966,-0.760308,-0.626325,-9.75357,3.9618,-4.70126,-14.4433
2023-03-15 15:18:26:976,-0.727491,-0.646165,-9.77045,3.9646,-4.69834,-14.4656
2023-03-15 15:18:26:986,-0.732108,-0.660714,-9.7545,3.96958,-4.69671,-14.4805
2023-03-15 15:18:26:996,-0.745719,-0.667824,-9.71951,3.97495,-4.69878,-14.4967
2023-03-15 15:18:27:6,-0.72808,-0.678506,-9.70227,3.9846,-4.69808,-14.5125
2023-03-15 15:18:27:16,-0.711304,-0.6874,-9.67132,3.99224,-4.70046,-14.5244
2023-03-15 15:18:27:26,-0.71907,-0.697761,-9.65309,4.00068,-4.70608,-14.5342
2023-03-15 15:18:27:36,-0.729129,-0.709873,-9.66372,4.00824,-4.71097,-14.5409
2023-03-15 15:18:27:46,-0.742615,-0.692599,-9.67852,4.00807,-4.71481,-14.5433
2023-03-15 15:18:27:56,-0.758563,-0.691275,-9.70319,4.00906,-4.72043,-14.5415
2023-03-15 15:18:27:66,-0.770393,-0.685401,-9.72038,4.01071,-4.72727,-14.5402
2023-03-15 15:18:27:76,-0.802964,-0.680165,-9.70538,4.01301,-4.73478,-14.536
2023-03-15 15:18:27:86,-0.819422,-0.681436,-9.70301,4.01694,-4.74062,-14.53
2023-03-15 15:18:27:96,-0.834207,-0.678114,-9.68688,4.01545,-4.74509,-14.5229
2023-03-15 15:18:27:106,-0.86727,-0.680234,-9.69002,4.01476,-4.74823,-14.5133
2023-03-15 15:18:27:116,-0.866355,-0.650598,-9.6828,4.015,-4.74676,-14.5094
2023-03-15 15:18:27:126,-0.874207,-0.672342,-9.67441,4.01526,-4.7456,-14.5058
2023-03-15 15:18:27:136,-0.888606,-0.664234,-9.69297,4.0133,-4.74424,-14.5021
2023-03-15 15:18:27:146,-0.871361,-0.649673,-9.69768,4.01204,-4.74048,-14.5037
2023-03-15 15:18:27:156,-0.869698,-0.644298,-9.70795,4.01016,-4.73594,-14.509
2023-03-15 15:18:27:166,-0.844264,-0.640076,-9.72293,4.0088,-4.72982,-14.5133
2023-03-15 15:18:27:176,-0.807667,-0.652245,-9.72291,4.00789,-4.72087,-14.5177
2023-03-15 15:18:27:186,-0.780764,-0.660661,-9.72429,4.01111,-4.71176,-14.5235
2023-03-15 15:18:27:196,-0.762613,-0.674152,-9.72823,4.01093,-4.70842,-14.5299
2023-03-15 15:18:27:206,-0.770156,-0.669547,-9.74408,4.0142,-4.70423,-14.5362
2023-03-15 15:18:27:216,-0.757802,-0.664651,-9.7543,4.01653,-4.69953,-14.5421
2023-03-15 15:18:27:226,-0.738729,-0.649707,-9.74061,4.01834,-4.696,-14.5499
2023-03-15 15:18:27:236,-0.74338,-0.669374,-9.74387,4.02169,-4.69276,-14.5568
2023-03-15 15:18:27:246,-0.748278,-0.678079,-9.72909,4.02296,-4.69451,-14.5636
2023-03-15 15:18:27:256,-0.737077,-0.676034,-9.7241,4.02522,-4.69417,-14.5702
2023-03-15 15:18:27:266,-0.746365,-0.679866,-9.73186,4.02423,-4.69943,-14.5741
2023-03-15 15:18:27:276,-0.748392,-0.67916,-9.72373,4.02704,-4.70714,-14.578
2023-03-15 15:18:27:286,-0.760744,-0.693316,-9.70819,4.02979,-4.71376,-14.5769
2023-03-15 15:18:27:296,-0.778974,-0.689334,-9.66907,4.03383,-4.71817,-14.5748
2023-03-15 15:18:27:306,-0.797151,-0.679413,-9.66016,4.03473,-4.72115,-14.5726
2023-03-15 15:18:27:316,-0.795125,-0.673761,-9.68625,4.03257,-4.72761,-14.5722
2023-03-15 15:18:27:326,-0.795588,-0.664399,-9.71957,4.03306,-4.73348,-14.5672
2023-03-15 15:18:27:336,-0.8044,-0.651459,-9.72531,4.02818,-4.74105,-14.5626
2023-03-15 15:18:27:346,-0.819617,-0.661005,-9.71488,4.02795,-4.74384,-14.5637
2023-03-15 15:18:27:356,-0.825829,-0.662555,-9.70726,4.02991,-4.74992,-14.5598
2023-03-15 15:18:27:366,-0.845529,-0.666992,-9.71003,4.02713,-4.75407,-14.5564
2023-03-15 15:18:27:376,-0.897428,-0.646392,-9.70749,4.02247,-4.75956,-14.5529
2023-03-15 15:18:27:386,-0.93961,-0.630549,-9.68829,4.02197,-4.76601,-14.555
2023-03-15 15:18:27:396,-0.95397,-0.629618,-9.6819,4.02069,-4.76914,-14.5625
2023-03-15 15:18:27:406,-0.996108,-0.614557,-9.69084,4.01764,-4.7723,-14.5742
2023-03-15 15:18:27:416,-0.984075,-0.576831,-9.70665,4.01377,-4.76966,-14.5968
2023-03-15 15:18:27:426,-0.889019,-0.58827,-9.74005,4.01157,-4.7565,-14.6248
2023-03-15 15:18:27:436,-0.78598,-0.605892,-9.77464,4.01063,-4.74047,-14.6552
2023-03-15 15:18:27:446,-0.670164,-0.627375,-9.78094,4.0128,-4.72331,-14.6852
2023-03-15 15:18:27:456,-0.589417,-0.622266,-9.8094,4.0141,-4.70933,-14.7069
2023-03-15 15:18:27:466,-0.563059,-0.611894,-9.85882,4.01683,-4.69795,-14.7205
2023-03-15 15:18:27:476,-0.549977,-0.647963,-9.86893,4.02991,-4.68952,-14.7312
2023-03-15 15:18:27:486,-0.556303,-0.702368,-9.81267,4.04611,-4.68674,-14.7326
2023-03-15 15:18:27:496,-0.59079,-0.738381,-9.72002,4.06618,-4.68779,-14.7237
2023-03-15 15:18:27:506,-0.641692,-0.750644,-9.67496,4.08354,-4.69818,-14.7097
2023-03-15 15:18:27:516,-0.682782,-0.737746,-9.67402,4.09769,-4.70192,-14.6917
2023-03-15 15:18:27:526,-0.721038,-0.697167,-9.69087,4.1008,-4.71175,-14.6748
2023-03-15 15:18:27:536,-0.732521,-0.682247,-9.71988,4.10591,-4.7278,-14.6571
2023-03-15 15:18:27:546,-0.706001,-0.65685,-9.75501,4.10996,-4.74307,-14.6412
2023-03-15 15:18:27:556,-0.699233,-0.647403,-9.76747,4.119,-4.7587,-14.6227
2023-03-15 15:18:27:566,-0.722543,-0.659421,-9.76514,4.13698,-4.77774,-14.6013
2023-03-15 15:18:27:576,-0.755294,-0.686222,-9.73512,4.16025,-4.79543,-14.5795
2023-03-15 15:18:27:586,-0.762381,-0.735748,-9.69114,4.183,-4.81359,-14.5543
2023-03-15 15:18:27:596,-0.76986,-0.779613,-9.63006,4.21348,-4.82965,-14.5214
2023-03-15 15:18:27:606,-0.787769,-0.829583,-9.56997,4.24296,-4.84311,-14.4864
2023-03-15 15:18:27:616,-0.797372,-0.848162,-9.54583,4.2693,-4.85922,-14.4458
2023-03-15 15:18:27:626,-0.800574,-0.843871,-9.55085,4.28807,-4.87553,-14.4063
2023-03-15 15:18:27:636,-0.809644,-0.839126,-9.59996,4.29837,-4.89087,-14.3555
2023-03-15 15:18:27:646,-0.833666,-0.830103,-9.65503,4.30715,-4.90739,-14.304
2023-03-15 15:18:27:656,-0.844765,-0.800749,-9.67332,4.30849,-4.92833,-14.2513
2023-03-15 15:18:27:666,-0.85194,-0.794646,-9.69283,4.30992,-4.94965,-14.2006
2023-03-15 15:18:27:676,-0.917662,-0.766937,-9.69277,4.31081,-4.97144,-14.1498
2023-03-15 15:18:27:686,-0.975723,-0.747116,-9.68674,4.30503,-4.99669,-14.0984
2023-03-15 15:18:27:696,-0.991625,-0.735813,-9.71723,4.30133,-5.01617,-14.0501
2023-03-15 15:18:27:706,-0.975599,-0.709832,-9.76914,4.29537,-5.03122,-14.0067
2023-03-15 15:18:27:716,-0.942897,-0.706545,-9.77064,4.29291,-5.0413,-13.9651
2023-03-15 15:18:27:726,-0.934338,-0.723438,-9.75782,4.29329,-5.0595,-13.9218
2023-03-15 15:18:27:736,-0.987167,-0.743692,-9.74069,4.29796,-5.0768,-13.8816
2023-03-15 15:18:27:746,-1.03352,-0.760994,-9.70547,4.29684,-5.09935,-13.8403
2023-03-15 15:18:27:756,-1.06039,-0.762768,-9.6534,4.29544,-5.11917,-13.805
2023-03-15 15:18:27:766,-1.08256,-0.737077,-9.60598,4.28769,-5.13967,-13.7809
2023-03-15 15:18:27:776,-1.10639,-0.710632,-9.57511,4.27621,-5.16011,-13.7644
2023-03-15 15:18:27:786,-1.10229,-0.677486,-9.60194,4.2582,-5.17625,-13.7598
2023-03-15 15:18:27:796,-1.08717,-0.62763,-9.62442,4.23723,-5.1902,-13.7684
2023-03-15 15:18:27:806,-1.07337,-0.586772,-9.64953,4.20099,-5.20035,-13.7858
2023-03-15 15:18:27:816,-1.03774,-0.557301,-9.6662,4.17083,-5.20952,-13.8151
2023-03-15 15:18:27:826,-0.989645,-0.537512,-9.66014,4.13915,-5.21308,-13.8514
2023-03-15 15:18:27:836,-0.948552,-0.518939,-9.65588,4.10578,-5.21383,-13.8955
2023-03-15 15:18:27:846,-0.905179,-0.490117,-9.7046,4.07295,-5.20948,-13.9414
2023-03-15 15:18:27:856,-0.857518,-0.470139,-9.75713,4.03935,-5.20026,-13.9901
2023-03-15 15:18:27:866,-0.809949,-0.482754,-9.77412,4.01304,-5.18273,-14.0398
2023-03-15 15:18:27:876,-0.798674,-0.488154,-9.7988,3.99192,-5.16702,-14.0832
2023-03-15 15:18:27:886,-0.744641,-0.470484,-9.81845,3.97002,-5.14852,-14.1285
2023-03-15 15:18:27:896,-0.645759,-0.508809,-9.84517,3.95398,-5.1301,-14.1682
2023-03-15 15:18:27:906,-0.610321,-0.519898,-9.88152,3.94387,-5.11649,-14.1966
2023-03-15 15:18:27:916,-0.636405,-0.526802,-9.91253,3.93539,-5.10713,-14.2173
2023-03-15 15:18:27:926,-0.674179,-0.549859,-9.90634,3.93601,-5.09691,-14.2298
2023-03-15 15:18:27:936,-0.709622,-0.584445,-9.87748,3.94162,-5.09108,-14.2323
2023-03-15 15:18:27:946,-0.742169,-0.600395,-9.83348,3.94898,-5.09118,-14.2285
2023-03-15 15:18:27:956,-0.767942,-0.608415,-9.8115,3.95678,-5.08837,-14.2178
2023-03-15 15:18:27:966,-0.760966,-0.588192,-9.8198,3.9657,-5.08206,-14.2014
2023-03-15 15:18:27:976,-0.690076,-0.570629,-9.84392,3.9732,-5.07371,-14.185
2023-03-15 15:18:27:986,-0.630301,-0.56762,-9.89373,3.98667,-5.06565,-14.1602
2023-03-15 15:18:27:996,-0.595047,-0.593,-9.93268,4.00847,-5.06234,-14.1275
2023-03-15 15:18:28:6,-0.603713,-0.608172,-9.96547,4.0418,-5.06564,-14.0836
2023-03-15 15:18:28:16,-0.675305,-0.623294,-9.95782,4.08705,-5.07411,-14.0328
2023-03-15 15:18:28:26,-0.723439,-0.707871,-9.88216,4.15057,-5.08142,-13.9754
2023-03-15 15:18:28:36,-0.775466,-0.86205,-9.70506,4.22663,-5.09486,-13.904
2023-03-15 15:18:28:46,-0.881344,-0.920978,-9.59572,4.301,-5.10946,-13.8224
2023-03-15 15:18:28:56,-0.933714,-0.942767,-9.53907,4.36577,-5.12582,-13.739
2023-03-15 15:18:28:66,-0.950147,-0.958107,-9.50019,4.4247,-5.14843,-13.6637
2023-03-15 15:18:28:76,-0.949148,-0.979766,-9.44921,4.46757,-5.1784,-13.5901
2023-03-15 15:18:28:86,-1.01405,-0.956854,-9.40639,4.50207,-5.21893,-13.5243
2023-03-15 15:18:28:96,-1.10775,-0.925039,-9.41264,4.52806,-5.26543,-13.468
2023-03-15 15:18:28:106,-1.18902,-0.893174,-9.41382,4.54222,-5.31873,-13.4206
2023-03-15 15:18:28:116,-1.26657,-0.838302,-9.44623,4.54611,-5.36714,-13.3904
2023-03-15 15:18:28:126,-1.2395,-0.839559,-9.48578,4.54981,-5.41714,-13.3776
2023-03-15 15:18:28:136,-1.22023,-0.853148,-9.53346,4.54435,-5.46437,-13.3785
2023-03-15 15:18:28:146,-1.20781,-0.791527,-9.64152,4.53758,-5.50587,-13.3895
2023-03-15 15:18:28:156,-1.19305,-0.723446,-9.76415,4.53182,-5.5415,-13.4152
2023-03-15 15:18:28:166,-1.07018,-0.766576,-9.7709,4.53167,-5.56884,-13.4435
2023-03-15 15:18:28:176,-1.04534,-0.821722,-9.68827,4.53796,-5.59111,-13.4674
2023-03-15 15:18:28:186,-1.03161,-0.82102,-9.70213,4.55022,-5.60874,-13.4868
2023-03-15 15:18:28:196,-0.974343,-0.822108,-9.69071,4.56389,-5.61902,-13.5056
2023-03-15 15:18:28:206,-0.899602,-0.853753,-9.69173,4.57906,-5.62358,-13.5099
2023-03-15 15:18:28:216,-0.894718,-0.886917,-9.65802,4.59664,-5.62414,-13.5052
2023-03-15 15:18:28:226,-0.885422,-0.894992,-9.61426,4.61382,-5.62176,-13.4896
2023-03-15 15:18:28:236,-0.85992,-0.897941,-9.58228,4.62448,-5.61468,-13.4655
2023-03-15 15:18:28:246,-0.877466,-0.897403,-9.58397,4.63296,-5.60379,-13.4278
2023-03-15 15:18:28:256,-0.940537,-0.89059,-9.58075,4.63565,-5.59182,-13.3842
2023-03-15 15:18:28:266,-0.985247,-0.84642,-9.63041,4.63022,-5.58157,-13.3389
2023-03-15 15:18:28:276,-0.990522,-0.801799,-9.67555,4.61899,-5.57166,-13.3003
2023-03-15 15:18:28:286,-0.998466,-0.796864,-9.6905,4.60893,-5.56119,-13.2612
2023-03-15 15:18:28:296,-0.985994,-0.804515,-9.68499,4.602,-5.55901,-13.2273
2023-03-15 15:18:28:306,-0.969114,-0.795808,-9.69048,4.59536,-5.55776,-13.1919
2023-03-15 15:18:28:316,-1.0114,-0.784691,-9.71201,4.58465,-5.56417,-13.1559
2023-03-15 15:18:28:326,-1.08374,-0.770727,-9.73714,4.57692,-5.57096,-13.1239
2023-03-15 15:18:28:336,-1.14599,-0.762611,-9.74164,4.5681,-5.57753,-13.0936
2023-03-15 15:18:28:346,-1.19865,-0.752692,-9.7413,4.56284,-5.57725,-13.0646
2023-03-15 15:18:28:356,-1.25938,-0.741905,-9.7115,4.55639,-5.57223,-13.0433
2023-03-15 15:18:28:366,-1.32847,-0.742087,-9.66867,4.54851,-5.56313,-13.0304
2023-03-15 15:18:28:376,-1.37859,-0.730567,-9.63817,4.53776,-5.5442,-13.0349
2023-03-15 15:18:28:386,-1.35242,-0.69728,-9.61663,4.52015,-5.51394,-13.0601
2023-03-15 15:18:28:396,-1.2606,-0.664756,-9.61474,4.50148,-5.46671,-13.1108
2023-03-15 15:18:28:406,-1.09197,-0.625827,-9.63942,4.47581,-5.41269,-13.1795
2023-03-15 15:18:28:416,-0.870269,-0.594938,-9.6948,4.44945,-5.34668,-13.2664
2023-03-15 15:18:28:426,-0.633604,-0.556474,-9.74216,4.421,-5.27778,-13.3662
2023-03-15 15:18:28:436,-0.422584,-0.52955,-9.766,4.39411,-5.21705,-13.473
2023-03-15 15:18:28:446,-0.288443,-0.536776,-9.80591,4.37061,-5.16336,-13.5724
2023-03-15 15:18:28:456,-0.208172,-0.533501,-9.80197,4.35717,-5.12649,-13.662
2023-03-15 15:18:28:466,-0.172099,-0.526976,-9.77917,4.35701,-5.09518,-13.7325
2023-03-15 15:18:28:476,-0.167888,-0.582351,-9.73528,4.36391,-5.08043,-13.7845
2023-03-15 15:18:28:486,-0.197895,-0.636883,-9.68373,4.38115,-5.07769,-13.81
2023-03-15 15:18:28:496,-0.232808,-0.698841,-9.65976,4.40215,-5.08112,-13.8121
2023-03-15 15:18:28:506,-0.297159,-0.742542,-9.67737,4.42045,-5.096,-13.7854
2023-03-15 15:18:28:516,-0.381803,-0.758437,-9.69597,4.43868,-5.11732,-13.7349
2023-03-15 15:18:28:526,-0.459534,-0.778035,-9.71705,4.45869,-5.14558,-13.6579
2023-03-15 15:18:28:536,-0.558279,-0.807902,-9.69623,4.47578,-5.18178,-13.5578
2023-03-15 15:18:28:546,-0.723215,-0.81189,-9.65342,4.48827,-5.22467,-13.4331
2023-03-15 15:18:28:556,-0.891563,-0.79626,-9.65443,4.49793,-5.27169,-13.2951
2023-03-15 15:18:28:566,-1.03672,-0.770735,-9.65231,4.49785,-5.31903,-13.1526
2023-03-15 15:18:28:576,-1.16767,-0.760162,-9.65643,4.49012,-5.36889,-13.0159
2023-03-15 15:18:28:586,-1.26908,-0.71406,-9.66023,4.47744,-5.4174,-12.8759
2023-03-15 15:18:28:596,-1.35132,-0.666552,-9.68063,4.45222,-5.46188,-12.7508
2023-03-15 15:18:28:606,-1.40925,-0.622175,-9.71311,4.42671,-5.50018,-12.6358
2023-03-15 15:18:28:616,-1.45899,-0.569401,-9.73842,4.4019,-5.53077,-12.5351
2023-03-15 15:18:28:626,-1.46303,-0.516606,-9.78426,4.37674,-5.55442,-12.4536
2023-03-15 15:18:28:636,-1.44418,-0.47092,-9.82859,4.35727,-5.571,-12.3922
2023-03-15 15:18:28:646,-1.41251,-0.462061,-9.8456,4.34371,-5.58084,-12.3519
2023-03-15 15:18:28:656,-1.37282,-0.494828,-9.82451,4.34361,-5.58612,-12.3303
2023-03-15 15:18:28:666,-1.28354,-0.527048,-9.83875,4.34977,-5.58459,-12.3229
2023-03-15 15:18:28:676,-1.1947,-0.563588,-9.83154,4.36647,-5.58492,-12.3274
2023-03-15 15:18:28:686,-1.13719,-0.610883,-9.79246,4.39188,-5.58697,-12.3439
2023-03-15 15:18:28:696,-1.08891,-0.66867,-9.75202,4.41925,-5.59109,-12.3659
2023-03-15 15:18:28:706,-1.02514,-0.693723,-9.72983,4.45213,-5.59346,-12.3916
2023-03-15 15:18:28:716,-0.957403,-0.73611,-9.71994,4.48657,-5.59576,-12.4215
2023-03-15 15:18:28:726,-0.901654,-0.776474,-9.69751,4.52255,-5.5955,-12.4494
2023-03-15 15:18:28:736,-0.860718,-0.805992,-9.71183,4.55984,-5.59583,-12.4729
2023-03-15 15:18:28:746,-0.832723,-0.825496,-9.71649,4.59279,-5.59236,-12.4934
2023-03-15 15:18:28:756,-0.805108,-0.85214,-9.70179,4.62829,-5.59051,-12.5069
2023-03-15 15:18:28:766,-0.792757,-0.861926,-9.69283,4.66268,-5.5886,-12.5118
2023-03-15 15:18:28:776,-0.806286,-0.874619,-9.70545,4.69362,-5.5849,-12.5071
2023-03-15 15:18:28:786,-0.825884,-0.890007,-9.69339,4.72679,-5.58436,-12.4953
2023-03-15 15:18:28:796,-0.854543,-0.903355,-9.67624,4.76081,-5.5844,-12.48
2023-03-15 15:18:28:806,-0.884257,-0.903305,-9.63723,4.79204,-5.58162,-12.462
2023-03-15 15:18:28:816,-0.897154,-0.921002,-9.62329,4.82265,-5.58073,-12.4411
2023-03-15 15:18:28:826,-0.949489,-0.929557,-9.62773,4.85352,-5.58148,-12.4172
2023-03-15 15:18:28:836,-1.01697,-0.894754,-9.66388,4.88053,-5.58084,-12.3931
2023-03-15 15:18:28:846,-0.981159,-0.902696,-9.65667,4.90784,-5.57218,-12.3746
2023-03-15 15:18:28:856,-0.923454,-0.940754,-9.57381,4.93816,-5.5661,-12.3624
2023-03-15 15:18:28:866,-0.938657,-0.964063,-9.53969,4.962,-5.56488,-12.3519
2023-03-15 15:18:28:876,-0.963745,-0.923678,-9.59263,4.97532,-5.57319,-12.3482
2023-03-15 15:18:28:886,-0.951186,-0.898909,-9.63525,4.98178,-5.57929,-12.3509
2023-03-15 15:18:28:896,-0.914135,-0.910693,-9.62689,4.98994,-5.58918,-12.3571
2023-03-15 15:18:28:906,-0.902443,-0.927837,-9.61516,4.99804,-5.59975,-12.3632
2023-03-15 15:18:28:916,-0.903796,-0.927185,-9.63463,5.00266,-5.6077,-12.3702
2023-03-15 15:18:28:926,-0.880607,-0.885544,-9.68345,4.99937,-5.61463,-12.3707
2023-03-15 15:18:28:936,-0.856307,-0.862871,-9.71782,4.99998,-5.61862,-12.3699
2023-03-15 15:18:28:946,-0.847125,-0.863502,-9.71678,5.00278,-5.62129,-12.3658
2023-03-15 15:18:28:956,-0.867147,-0.862284,-9.70335,5.00756,-5.62333,-12.3539
2023-03-15 15:18:28:966,-0.884785,-0.867802,-9.71116,5.01057,-5.62748,-12.3357
2023-03-15 15:18:28:976,-0.888291,-0.872133,-9.72125,5.01878,-5.62751,-12.3132
2023-03-15 15:18:28:986,-0.908317,-0.873422,-9.69003,5.02854,-5.6304,-12.2876
2023-03-15 15:18:28:996,-0.947677,-0.886365,-9.66132,5.03448,-5.63622,-12.2616
2023-03-15 15:18:29:6,-0.966068,-0.872628,-9.64618,5.03706,-5.6432,-12.2285
2023-03-15 15:18:29:16,-0.960775,-0.84303,-9.64468,5.03858,-5.64781,-12.1996
2023-03-15 15:18:29:26,-0.939416,-0.848312,-9.66565,5.03703,-5.65042,-12.171
2023-03-15 15:18:29:36,-0.956437,-0.885791,-9.63834,5.03937,-5.6583,-12.1447
2023-03-15 15:18:29:46,-0.982831,-0.892291,-9.6791,5.03874,-5.66763,-12.1152
2023-03-15 15:18:29:56,-0.971781,-0.847029,-9.76733,5.03626,-5.68066,-12.088
2023-03-15 15:18:29:66,-0.938798,-0.849289,-9.8123,5.03287,-5.69303,-12.0623
2023-03-15 15:18:29:76,-0.914521,-0.883954,-9.7559,5.03929,-5.70696,-12.0373
2023-03-15 15:18:29:86,-0.917837,-0.927982,-9.67481,5.04633,-5.72959,-12.0072
2023-03-15 15:18:29:96,-0.948004,-0.929643,-9.6335,5.05191,-5.75164,-11.9748
2023-03-15 15:18:29:106,-0.987678,-0.922424,-9.63066,5.0503,-5.77206,-11.9383
2023-03-15 15:18:29:116,-1.02653,-0.888323,-9.63489,5.04232,-5.79601,-11.897
2023-03-15 15:18:29:126,-1.06246,-0.858862,-9.61786,5.03286,-5.81602,-11.8595
2023-03-15 15:18:29:136,-1.08237,-0.840775,-9.62075,5.01999,-5.8307,-11.8218
2023-03-15 15:18:29:146,-1.117,-0.811716,-9.63449,5.00354,-5.84834,-11.785
2023-03-15 15:18:29:156,-1.14797,-0.780854,-9.65388,4.99356,-5.86305,-11.7541
2023-03-15 15:18:29:166,-1.16774,-0.7681,-9.66186,4.98148,-5.87527,-11.7241
2023-03-15 15:18:29:176,-1.17819,-0.763761,-9.64992,4.97425,-5.88917,-11.7024
2023-03-15 15:18:29:186,-1.16657,-0.779681,-9.63609,4.97275,-5.89341,-11.6847
2023-03-15 15:18:29:196,-1.14974,-0.799173,-9.60702,4.97166,-5.89768,-11.6735
2023-03-15 15:18:29:206,-1.12861,-0.82507,-9.59852,4.96782,-5.89879,-11.6642
2023-03-15 15:18:29:216,-1.10206,-0.83772,-9.6079,4.96233,-5.89748,-11.6613
2023-03-15 15:18:29:226,-1.09543,-0.83262,-9.65393,4.95263,-5.89837,-11.6586
2023-03-15 15:18:29:236,-1.07046,-0.81646,-9.69047,4.94004,-5.89526,-11.656
2023-03-15 15:18:29:246,-1.05365,-0.789036,-9.732,4.92633,-5.89273,-11.6597
2023-03-15 15:18:29:256,-1.02461,-0.781754,-9.72504,4.90977,-5.88731,-11.6597
2023-03-15 15:18:29:266,-1.01757,-0.769918,-9.69831,4.89754,-5.88165,-11.658
2023-03-15 15:18:29:276,-1.03873,-0.755651,-9.69767,4.88266,-5.8775,-11.661
2023-03-15 15:18:29:286,-1.04062,-0.738199,-9.71137,4.86839,-5.8718,-11.66
2023-03-15 15:18:29:296,-1.01663,-0.723494,-9.74952,4.85618,-5.8631,-11.661
2023-03-15 15:18:29:306,-0.968072,-0.725599,-9.76503,4.84452,-5.85271,-11.6624
2023-03-15 15:18:29:316,-0.962909,-0.734455,-9.76001,4.83846,-5.84963,-11.6631
2023-03-15 15:18:29:326,-0.996952,-0.737304,-9.75355,4.83455,-5.84593,-11.6622
2023-03-15 15:18:29:336,-1.01482,-0.719427,-9.75215,4.83117,-5.84605,-11.6596
2023-03-15 15:18:29:346,-1.01426,-0.731198,-9.7405,4.83178,-5.84729,-11.6622
2023-03-15 15:18:29:356,-1.01341,-0.753966,-9.71993,4.83091,-5.84565,-11.6628
2023-03-15 15:18:29:366,-1.00836,-0.763017,-9.71881,4.8332,-5.84619,-11.6672
2023-03-15 15:18:29:376,-0.98912,-0.757915,-9.7235,4.83396,-5.84358,-11.6709
2023-03-15 15:18:29:386,-0.991734,-0.755287,-9.71521,4.8431,-5.84408,-11.6716
2023-03-15 15:18:29:396,-0.985285,-0.748732,-9.69778,4.851,-5.84027,-11.6735
2023-03-15 15:18:29:406,-0.979037,-0.772228,-9.69861,4.85731,-5.83678,-11.6751
2023-03-15 15:18:29:416,-0.968584,-0.786498,-9.68875,4.86735,-5.83496,-11.6768
2023-03-15 15:18:29:426,-0.97063,-0.799515,-9.6614,4.87427,-5.83449,-11.6763
2023-03-15 15:18:29:436,-0.972821,-0.815225,-9.65481,4.88119,-5.83186,-11.6746
2023-03-15 15:18:29:446,-0.96142,-0.819035,-9.661,4.88997,-5.82912,-11.6767
2023-03-15 15:18:29:456,-0.965411,-0.813446,-9.66334,4.90044,-5.82701,-11.6755
2023-03-15 15:18:29:466,-0.980743,-0.824149,-9.66824,4.90766,-5.82568,-11.6748
2023-03-15 15:18:29:476,-0.983883,-0.822138,-9.66667,4.91355,-5.82764,-11.6734
2023-03-15 15:18:29:486,-0.980814,-0.825601,-9.67909,4.91827,-5.82747,-11.6704
2023-03-15 15:18:29:496,-0.976646,-0.817635,-9.69655,4.92034,-5.82877,-11.6648
2023-03-15 15:18:29:506,-0.97498,-0.816286,-9.68797,4.9232,-5.83194,-11.6603
2023-03-15 15:18:29:516,-0.998906,-0.817563,-9.67562,4.92515,-5.83525,-11.6523
2023-03-15 15:18:29:526,-1.02073,-0.830435,-9.69026,4.9279,-5.8375,-11.6436
2023-03-15 15:18:29:536,-1.01168,-0.815865,-9.68361,4.92943,-5.83654,-11.6395
2023-03-15 15:18:29:546,-1.01568,-0.822368,-9.67396,4.93397,-5.83675,-11.6353
2023-03-15 15:18:29:556,-1.04943,-0.813642,-9.66318,4.93559,-5.83775,-11.6298
2023-03-15 15:18:29:566,-1.05876,-0.811301,-9.66066,4.93998,-5.83733,-11.6277
2023-03-15 15:18:29:576,-1.0705,-0.810424,-9.67109,4.94081,-5.83892,-11.6286
2023-03-15 15:18:29:586,-1.07077,-0.799582,-9.68916,4.94145,-5.83717,-11.6339
2023-03-15 15:18:29:596,-1.06324,-0.78339,-9.71082,4.94585,-5.83482,-11.6416
2023-03-15 15:18:29:606,-1.04216,-0.78468,-9.7233,4.94657,-5.82724,-11.6543
2023-03-15 15:18:29:616,-1.02128,-0.788889,-9.71911,4.94854,-5.82376,-11.6702
2023-03-15 15:18:29:626,-1.01079,-0.813204,-9.70222,4.95429,-5.81432,-11.6826
2023-03-15 15:18:29:636,-0.994625,-0.817881,-9.70658,4.96074,-5.80557,-11.6948
2023-03-15 15:18:29:646,-0.972094,-0.819719,-9.71768,4.97197,-5.79717,-11.7041
2023-03-15 15:18:29:656,-0.945406,-0.8294,-9.70582,4.98051,-5.78681,-11.7147
2023-03-15 15:18:29:666,-0.92173,-0.836205,-9.69605,4.99156,-5.77851,-11.7218
2023-03-15 15:18:29:676,-0.921112,-0.839137,-9.70172,5.00128,-5.76684,-11.7253
2023-03-15 15:18:29:686,-0.909041,-0.834122,-9.68622,5.01216,-5.75296,-11.7287
2023-03-15 15:18:29:696,-0.916488,-0.845142,-9.70093,5.02285,-5.74369,-11.7264
2023-03-15 15:18:29:706,-0.932801,-0.843369,-9.71976,5.03424,-5.73318,-11.7256
2023-03-15 15:18:29:716,-0.942899,-0.835673,-9.69835,5.04534,-5.72556,-11.7234
2023-03-15 15:18:29:726,-0.943476,-0.849232,-9.68951,5.05709,-5.71823,-11.7219
2023-03-15 15:18:29:736,-0.964465,-0.858424,-9.67423,5.06815,-5.71102,-11.7181
2023-03-15 15:18:29:746,-0.98003,-0.857813,-9.62546,5.07964,-5.7099,-11.7163
2023-03-15 15:18:29:756,-0.981104,-0.877434,-9.61261,5.08916,-5.70853,-11.7164
2023-03-15 15:18:29:766,-0.952721,-0.89034,-9.61382,5.09693,-5.70621,-11.7151
2023-03-15 15:18:29:776,-0.959833,-0.887363,-9.63786,5.10418,-5.70373,-11.7158
2023-03-15 15:18:29:786,-0.971281,-0.867015,-9.70111,5.10764,-5.70716,-11.7156
2023-03-15 15:18:29:796,-0.969973,-0.848139,-9.74821,5.11105,-5.71058,-11.7195
2023-03-15 15:18:29:806,-0.939524,-0.841794,-9.76893,5.11782,-5.70918,-11.7236
2023-03-15 15:18:29:816,-0.906848,-0.882718,-9.73441,5.13166,-5.7072,-11.727
2023-03-15 15:18:29:826,-0.90848,-0.929908,-9.65778,5.1471,-5.70918,-11.7253
2023-03-15 15:18:29:836,-0.967218,-0.934548,-9.63248,5.15949,-5.70936,-11.7173
2023-03-15 15:18:29:846,-0.999565,-0.914647,-9.62843,5.16159,-5.71334,-11.7089
2023-03-15 15:18:29:856,-1.01532,-0.888446,-9.62953,5.16094,-5.71956,-11.7029
2023-03-15 15:18:29:866,-1.03834,-0.867106,-9.65739,5.15739,-5.72241,-11.6963
2023-03-15 15:18:29:876,-1.04674,-0.833676,-9.67784,5.1514,-5.72158,-11.6918
2023-03-15 15:18:29:886,-1.02579,-0.810807,-9.67631,5.15074,-5.72334,-11.6911
2023-03-15 15:18:29:896,-1.04522,-0.802876,-9.68596,5.14532,-5.72007,-11.6952
2023-03-15 15:18:29:906,-1.05591,-0.813447,-9.6837,5.14655,-5.71786,-11.6998
2023-03-15 15:18:29:916,-1.05767,-0.819538,-9.64226,5.15292,-5.71293,-11.7063
2023-03-15 15:18:29:926,-1.05088,-0.832085,-9.61719,5.15468,-5.7117,-11.7168
2023-03-15 15:18:29:936,-1.02525,-0.866299,-9.60551,5.15733,-5.70581,-11.7306
2023-03-15 15:18:29:946,-0.991539,-0.896762,-9.6075,5.16324,-5.69807,-11.7455
2023-03-15 15:18:29:956,-0.970775,-0.905461,-9.61343,5.16592,-5.68961,-11.7573
2023-03-15 15:18:29:966,-0.965948,-0.906431,-9.63588,5.16526,-5.6819,-11.7701
2023-03-15 15:18:29:976,-0.968358,-0.890783,-9.65435,5.16425,-5.67653,-11.7815
2023-03-15 15:18:29:986,-0.934872,-0.869692,-9.67639,5.15646,-5.66283,-11.792
2023-03-15 15:18:29:996,-0.908266,-0.854862,-9.6985,5.14721,-5.65356,-11.7988
2023-03-15 15:18:30:6,-0.940699,-0.848685,-9.69608,5.13675,-5.64581,-11.8041
2023-03-15 15:18:30:16,-0.980567,-0.852958,-9.69727,5.12631,-5.63477,-11.8102
2023-03-15 15:18:30:26,-0.981583,-0.824541,-9.71265,5.11561,-5.62389,-11.8173
2023-03-15 15:18:30:36,-0.946104,-0.787818,-9.73488,5.1047,-5.60723,-11.8286
2023-03-15 15:18:30:46,-0.879548,-0.804527,-9.74296,5.09871,-5.58895,-11.843
2023-03-15 15:18:30:56,-0.858226,-0.826034,-9.71596,5.09437,-5.57765,-11.8552
2023-03-15 15:18:30:66,-0.885619,-0.819636,-9.69558,5.09443,-5.56855,-11.8627
2023-03-15 15:18:30:76,-0.915031,-0.82051,-9.70371,5.09476,-5.56151,-11.8734
2023-03-15 15:18:30:86,-0.905532,-0.834692,-9.69279,5.09195,-5.55832,-11.881
2023-03-15 15:18:30:96,-0.908471,-0.841604,-9.71519,5.08633,-5.55673,-11.8894
2023-03-15 15:18:30:106,-0.919328,-0.826292,-9.73545,5.08724,-5.55589,-11.8954
2023-03-15 15:18:30:116,-0.915892,-0.831597,-9.74316,5.08994,-5.55533,-11.9003
2023-03-15 15:18:30:126,-0.892206,-0.845338,-9.72772,5.08965,-5.55004,-11.9063
2023-03-15 15:18:30:136,-0.895234,-0.85458,-9.7205,5.0936,-5.54794,-11.9053
2023-03-15 15:18:30:146,-0.918377,-0.857715,-9.70961,5.09544,-5.5431,-11.9042
2023-03-15 15:18:30:156,-0.988795,-0.808019,-9.70661,5.10151,-5.53883,-11.9056
2023-03-15 15:18:30:166,-0.955862,-0.784031,-9.75788,5.11185,-5.51834,-11.9063
2023-03-15 15:18:30:176,-0.824606,-0.900075,-9.63604,5.12929,-5.50456,-11.9098
2023-03-15 15:18:30:186,-0.803126,-0.98286,-9.53019,5.13866,-5.50629,-11.903
2023-03-15 15:18:30:196,-0.928271,-0.878965,-9.62711,5.13001,-5.5154,-11.8915
2023-03-15 15:18:30:206,-0.968213,-0.788477,-9.72104,5.12024,-5.52514,-11.8869
2023-03-15 15:18:30:216,-0.915447,-0.837567,-9.69643,5.12089,-5.52641,-11.8863
2023-03-15 15:18:30:226,-0.908433,-0.889319,-9.63993,5.12467,-5.52494,-11.8815
2023-03-15 15:18:30:236,-0.91104,-0.887329,-9.6417,5.12842,-5.5238,-11.8762
2023-03-15 15:18:30:246,-0.904104,-0.870066,-9.67975,5.1239,-5.52596,-11.8727
2023-03-15 15:18:30:256,-0.918075,-0.850938,-9.7038,5.12181,-5.52582,-11.8673
2023-03-15 15:18:30:266,-0.952921,-0.841121,-9.67647,5.1236,-5.52555,-11.8588
2023-03-15 15:18:30:276,-0.946217,-0.869551,-9.64239,5.12219,-5.52434,-11.8513
2023-03-15 15:18:30:286,-0.923065,-0.885529,-9.64636,5.12148,-5.52047,-11.8426
2023-03-15 15:18:30:296,-0.939069,-0.844564,-9.66693,5.11473,-5.5213,-11.8332
2023-03-15 15:18:30:306,-0.944248,-0.833635,-9.6942,5.10466,-5.51455,-11.8268
2023-03-15 15:18:30:316,-0.932803,-0.852725,-9.68563,5.0949,-5.50931,-11.8241
2023-03-15 15:18:30:326,-0.910957,-0.854273,-9.66905,5.08939,-5.50563,-11.8202
2023-03-15 15:18:30:336,-0.893041,-0.861373,-9.66611,5.07885,-5.50402,-11.816
2023-03-15 15:18:30:346,-0.897367,-0.840635,-9.6794,5.06757,-5.50193,-11.8089
2023-03-15 15:18:30:356,-0.896023,-0.814378,-9.72573,5.05432,-5.49896,-11.8003
2023-03-15 15:18:30:366,-0.881318,-0.827534,-9.71729,5.04247,-5.49643,-11.7973
2023-03-15 15:18:30:376,-0.871053,-0.858431,-9.67017,5.0381,-5.49162,-11.7908
2023-03-15 15:18:30:386,-0.880548,-0.81852,-9.69195,5.02926,-5.48826,-11.7794
2023-03-15 15:18:30:396,-0.852355,-0.804289,-9.73986,5.01676,-5.47757,-11.7695
2023-03-15 15:18:30:406,-0.808147,-0.844031,-9.6778,5.00868,-5.46881,-11.7558
2023-03-15 15:18:30:416,-0.852799,-0.834213,-9.64971,4.99801,-5.46653,-11.7407
2023-03-15 15:18:30:426,-0.924311,-0.755087,-9.73871,4.98081,-5.46918,-11.7241
2023-03-15 15:18:30:436,-0.923723,-0.715311,-9.78931,4.97258,-5.46814,-11.716
2023-03-15 15:18:30:446,-0.898711,-0.741671,-9.77841,4.96825,-5.46427,-11.7038
2023-03-15 15:18:30:456,-0.883738,-0.775391,-9.74974,4.97109,-5.45994,-11.6934
2023-03-15 15:18:30:466,-0.876937,-0.798568,-9.71978,4.97524,-5.45839,-11.684
2023-03-15 15:18:30:476,-0.895123,-0.817052,-9.71446,4.9798,-5.46003,-11.6687
2023-03-15 15:18:30:486,-0.924985,-0.805894,-9.73125,4.98395,-5.46757,-11.6559
2023-03-15 15:18:30:496,-0.910403,-0.816172,-9.71398,4.98672,-5.47628,-11.6477
2023-03-15 15:18:30:506,-0.891595,-0.838426,-9.6692,4.98924,-5.48999,-11.6446
2023-03-15 15:18:30:516,-0.908579,-0.838364,-9.66025,4.98737,-5.50529,-11.6338
2023-03-15 15:18:30:526,-0.969459,-0.809524,-9.70066,4.98773,-5.52167,-11.6228
2023-03-15 15:18:30:536,-1.00834,-0.778304,-9.76631,4.98781,-5.53951,-11.6153
2023-03-15 15:18:30:546,-1.01748,-0.778129,-9.80565,4.98872,-5.55575,-11.6069
2023-03-15 15:18:30:556,-0.994977,-0.791771,-9.80826,4.99632,-5.57017,-11.6015
2023-03-15 15:18:30:566,-0.9888,-0.823471,-9.77173,5.01005,-5.58812,-11.5971
2023-03-15 15:18:30:576,-1.00549,-0.849549,-9.71177,5.03358,-5.60796,-11.5831
2023-03-15 15:18:30:586,-1.07892,-0.863125,-9.67969,5.05472,-5.62735,-11.5661
2023-03-15 15:18:30:596,-1.12311,-0.859215,-9.64842,5.07191,-5.64252,-11.5503
2023-03-15 15:18:30:606,-1.13811,-0.845866,-9.64232,5.09066,-5.65595,-11.5401
2023-03-15 15:18:30:616,-1.13576,-0.83463,-9.64118,5.10174,-5.6651,-11.5308
2023-03-15 15:18:30:626,-1.12357,-0.831116,-9.65407,5.1158,-5.66712,-11.5242
2023-03-15 15:18:30:636,-1.13983,-0.821207,-9.64672,5.13008,-5.66847,-11.5204
2023-03-15 15:18:30:646,-1.15146,-0.799007,-9.65759,5.14181,-5.67152,-11.5253
2023-03-15 15:18:30:656,-1.15406,-0.81275,-9.66155,5.16156,-5.66589,-11.5343
2023-03-15 15:18:30:666,-1.09355,-0.835357,-9.65444,5.1831,-5.65681,-11.5452
2023-03-15 15:18:30:676,-1.0289,-0.872352,-9.6111,5.20511,-5.64508,-11.5578
2023-03-15 15:18:30:686,-0.994934,-0.891255,-9.59011,5.23,-5.63296,-11.5742
2023-03-15 15:18:30:696,-0.9627,-0.913601,-9.5896,5.2482,-5.62127,-11.5918
2023-03-15 15:18:30:706,-0.918921,-0.906459,-9.59122,5.25744,-5.61616,-11.6103
2023-03-15 15:18:30:716,-0.907956,-0.907087,-9.6208,5.26728,-5.6042,-11.6263
2023-03-15 15:18:30:726,-0.879333,-0.908375,-9.63342,5.27014,-5.59421,-11.6374
2023-03-15 15:18:30:736,-0.826694,-0.905654,-9.64778,5.27537,-5.5811,-11.6481
2023-03-15 15:18:30:746,-0.791254,-0.918026,-9.66302,5.27253,-5.56455,-11.6571
2023-03-15 15:18:30:756,-0.81558,-0.910337,-9.68358,5.26541,-5.54815,-11.659
2023-03-15 15:18:30:766,-0.847519,-0.8668,-9.70156,5.25777,-5.53048,-11.6549
2023-03-15 15:18:30:776,-0.858564,-0.833772,-9.73245,5.2532,-5.51056,-11.6505
2023-03-15 15:18:30:786,-0.863033,-0.825281,-9.75372,5.24888,-5.48895,-11.6462
2023-03-15 15:18:30:796,-0.84354,-0.817905,-9.76507,5.24553,-5.46707,-11.6391
2023-03-15 15:18:30:806,-0.826366,-0.834774,-9.71882,5.24597,-5.45194,-11.6297
2023-03-15 15:18:30:816,-0.856933,-0.854466,-9.68189,5.24838,-5.44127,-11.6199
2023-03-15 15:18:30:826,-0.91222,-0.841286,-9.67464,5.24732,-5.43559,-11.6112
2023-03-15 15:18:30:836,-0.930273,-0.825044,-9.68841,5.24671,-5.42875,-11.606
2023-03-15 15:18:30:846,-0.921097,-0.84061,-9.71115,5.24677,-5.42021,-11.6027
2023-03-15 15:18:30:856,-0.911925,-0.842945,-9.72317,5.24666,-5.4122,-11.6048
2023-03-15 15:18:30:866,-0.892664,-0.836927,-9.71341,5.2514,-5.4038,-11.6092
2023-03-15 15:18:30:876,-0.87001,-0.83574,-9.71666,5.25708,-5.39382,-11.6165
2023-03-15 15:18:30:886,-0.844519,-0.863395,-9.69706,5.26208,-5.38577,-11.6231
2023-03-15 15:18:30:896,-0.840864,-0.882875,-9.68687,5.26361,-5.37934,-11.6301
2023-03-15 15:18:30:906,-0.843102,-0.877786,-9.70237,5.26614,-5.37836,-11.6359
2023-03-15 15:18:30:916,-0.792339,-0.873323,-9.72937,5.26792,-5.37665,-11.6416
2023-03-15 15:18:30:926,-0.733194,-0.880193,-9.71916,5.27084,-5.37627,-11.6461
2023-03-15 15:18:30:936,-0.723014,-0.880871,-9.71448,5.27392,-5.38376,-11.6458
2023-03-15 15:18:30:946,-0.747569,-0.879364,-9.70465,5.27828,-5.39661,-11.6409
2023-03-15 15:18:30:956,-0.779184,-0.876238,-9.69225,5.28312,-5.40806,-11.6313
2023-03-15 15:18:30:966,-0.783575,-0.901941,-9.68826,5.2902,-5.42445,-11.6162
2023-03-15 15:18:30:976,-0.824945,-0.930677,-9.62844,5.29697,-5.45081,-11.5947
2023-03-15 15:18:30:986,-0.916328,-0.910249,-9.62524,5.29823,-5.4825,-11.5667
2023-03-15 15:18:30:996,-0.969058,-0.881538,-9.66216,5.30177,-5.51778,-11.5424
2023-03-15 15:18:31:6,-1.00461,-0.885264,-9.65479,5.30135,-5.55764,-11.5156
2023-03-15 15:18:31:16,-1.03813,-0.899123,-9.60998,5.30436,-5.5952,-11.4867
2023-03-15 15:18:31:26,-1.09657,-0.907264,-9.60186,5.30169,-5.63393,-11.4603
2023-03-15 15:18:31:36,-1.15391,-0.881639,-9.60212,5.29731,-5.66738,-11.4302
2023-03-15 15:18:31:46,-1.19842,-0.874908,-9.57962,5.2933,-5.69487,-11.4068
2023-03-15 15:18:31:56,-1.18889,-0.867824,-9.55598,5.28772,-5.70975,-11.3856
2023-03-15 15:18:31:66,-1.08008,-0.861905,-9.57426,5.28366,-5.72001,-11.374
2023-03-15 15:18:31:76,-1.00648,-0.847972,-9.5493,5.2771,-5.72644,-11.3692
2023-03-15 15:18:31:86,-0.989607,-0.871924,-9.50659,5.26977,-5.73466,-11.3735
2023-03-15 15:18:31:96,-0.983161,-0.900231,-9.50764,5.2583,-5.74756,-11.3849
2023-03-15 15:18:31:106,-0.955457,-0.908828,-9.55293,5.23857,-5.76822,-11.4036
2023-03-15 15:18:31:116,-0.955968,-0.888093,-9.67054,5.21072,-5.793,-11.4313
2023-03-15 15:18:31:126,-0.946975,-0.877356,-9.79607,5.18024,-5.82104,-11.4729
2023-03-15 15:18:31:136,-0.933969,-0.861847,-9.88442,5.1497,-5.85468,-11.5191
2023-03-15 15:18:31:146,-0.916434,-0.871302,-9.95738,5.12556,-5.88976,-11.5758
2023-03-15 15:18:31:156,-0.877197,-0.901074,-9.97355,5.10737,-5.92048,-11.6291
2023-03-15 15:18:31:166,-0.879891,-0.94132,-9.8701,5.09813,-5.95886,-11.6776
2023-03-15 15:18:31:176,-1.00139,-0.922284,-9.79676,5.08858,-5.99613,-11.7168
2023-03-15 15:18:31:186,-1.01892,-0.877589,-9.79048,5.08018,-6.01654,-11.7515
2023-03-15 15:18:31:196,-0.950615,-0.879375,-9.74541,5.07567,-6.02593,-11.7783
2023-03-15 15:18:31:206,-0.858153,-0.912984,-9.71171,5.07512,-6.02643,-11.7938
2023-03-15 15:18:31:216,-0.821054,-0.9032,-9.70306,5.06962,-6.01759,-11.7903
2023-03-15 15:18:31:226,-0.804007,-0.852065,-9.73701,5.07066,-5.99496,-11.7673
2023-03-15 15:18:31:236,-0.767623,-0.889266,-9.67682,5.07837,-5.96337,-11.7235
2023-03-15 15:18:31:246,-0.767307,-0.904718,-9.59162,5.0857,-5.92287,-11.6587
2023-03-15 15:18:31:256,-0.832246,-0.877415,-9.54044,5.08864,-5.87593,-11.5723
2023-03-15 15:18:31:266,-0.89564,-0.838161,-9.52025,5.0844,-5.82419,-11.4764
2023-03-15 15:18:31:276,-0.915356,-0.825124,-9.53343,5.0806,-5.77033,-11.3749
2023-03-15 15:18:31:286,-0.955049,-0.828668,-9.56416,5.07414,-5.71883,-11.2665
2023-03-15 15:18:31:296,-1.00057,-0.828613,-9.59573,5.0625,-5.67247,-11.16
2023-03-15 15:18:31:306,-1.07318,-0.817121,-9.62944,5.05288,-5.63556,-11.0617
2023-03-15 15:18:31:316,-1.08532,-0.774154,-9.71191,5.04489,-5.60162,-10.9745
2023-03-15 15:18:31:326,-1.07477,-0.831484,-9.67212,5.04152,-5.5723,-10.8985
2023-03-15 15:18:31:336,-1.09147,-0.90725,-9.58945,5.03506,-5.55206,-10.8325
2023-03-15 15:18:31:346,-1.14686,-0.930456,-9.53908,5.02433,-5.54662,-10.7767
2023-03-15 15:18:31:356,-1.23019,-0.888645,-9.55985,5.00596,-5.55033,-10.739
2023-03-15 15:18:31:366,-1.25711,-0.860496,-9.57813,4.97867,-5.56135,-10.717
2023-03-15 15:18:31:376,-1.26915,-0.809523,-9.65187,4.94421,-5.57166,-10.7207
2023-03-15 15:18:31:386,-1.2174,-0.778907,-9.69696,4.90165,-5.58592,-10.7452
2023-03-15 15:18:31:396,-1.16806,-0.762893,-9.72344,4.86168,-5.6063,-10.7868
2023-03-15 15:18:31:406,-1.13117,-0.744915,-9.74363,4.82376,-5.62491,-10.8424
2023-03-15 15:18:31:416,-1.05904,-0.749639,-9.72626,4.78881,-5.64802,-10.9084
2023-03-15 15:18:31:426,-1.00093,-0.76796,-9.71395,4.75434,-5.67151,-10.9775
2023-03-15 15:18:31:436,-0.984448,-0.751011,-9.69002,4.72058,-5.69048,-11.0464
2023-03-15 15:18:31:446,-0.973068,-0.734586,-9.68187,4.68623,-5.71173,-11.1123
2023-03-15 15:18:31:456,-0.931957,-0.745764,-9.68881,4.64851,-5.7321,-11.177
2023-03-15 15:18:31:466,-0.899485,-0.742064,-9.69932,4.61745,-5.75371,-11.2385
2023-03-15 15:18:31:476,-0.898372,-0.720946,-9.71599,4.57879,-5.77314,-11.2888
2023-03-15 15:18:31:486,-0.910798,-0.688908,-9.74962,4.54242,-5.79791,-11.3327
2023-03-15 15:18:31:496,-0.925746,-0.65293,-9.76157,4.50669,-5.82013,-11.375
2023-03-15 15:18:31:506,-0.897107,-0.646692,-9.75533,4.47223,-5.84114,-11.4085
2023-03-15 15:18:31:516,-0.921239,-0.648727,-9.75766,4.43875,-5.86351,-11.4345
2023-03-15 15:18:31:526,-0.991331,-0.625647,-9.765,4.40774,-5.88673,-11.4498
2023-03-15 15:18:31:536,-1.02466,-0.59594,-9.79889,4.38149,-5.90915,-11.4633
2023-03-15 15:18:31:546,-0.994171,-0.572703,-9.8438,4.3555,-5.92675,-11.4766
2023-03-15 15:18:31:556,-0.965046,-0.600248,-9.84112,4.3412,-5.93904,-11.4799
2023-03-15 15:18:31:566,-0.99295,-0.654687,-9.77767,4.33733,-5.95444,-11.4758
2023-03-15 15:18:31:576,-1.07686,-0.665606,-9.71319,4.33423,-5.97247,-11.4617
2023-03-15 15:18:31:586,-1.1452,-0.661499,-9.68604,4.33021,-5.98367,-11.4467
2023-03-15 15:18:31:596,-1.19329,-0.64571,-9.69406,4.32622,-5.99444,-11.4299
2023-03-15 15:18:31:606,-1.21095,-0.657948,-9.72051,4.32282,-5.99705,-11.4181
2023-03-15 15:18:31:616,-1.22133,-0.652637,-9.71703,4.32254,-5.99437,-11.4067
2023-03-15 15:18:31:626,-1.23159,-0.666722,-9.71376,4.32521,-5.99121,-11.4048
2023-03-15 15:18:31:636,-1.2122,-0.667987,-9.71258,4.32567,-5.98315,-11.4068
2023-03-15 15:18:31:646,-1.19625,-0.674333,-9.69413,4.33028,-5.97347,-11.419
2023-03-15 15:18:31:656,-1.19027,-0.684527,-9.67572,4.33291,-5.961,-11.4384
2023-03-15 15:18:31:666,-1.17794,-0.698851,-9.65232,4.33887,-5.95047,-11.4636
2023-03-15 15:18:31:676,-1.12738,-0.744921,-9.63062,4.34395,-5.94246,-11.4995
2023-03-15 15:18:31:686,-1.08286,-0.762251,-9.59326,4.34392,-5.93934,-11.5417
2023-03-15 15:18:31:696,-1.06314,-0.738373,-9.6379,4.34115,-5.93532,-11.5852
2023-03-15 15:18:31:706,-0.99239,-0.723951,-9.70501,4.33672,-5.92801,-11.6317
2023-03-15 15:18:31:716,-0.919407,-0.721244,-9.75326,4.33518,-5.91912,-11.6796
2023-03-15 15:18:31:726,-0.83776,-0.769655,-9.70445,4.33695,-5.91143,-11.7188
2023-03-15 15:18:31:736,-0.77644,-0.806189,-9.65305,4.33633,-5.90669,-11.7462
2023-03-15 15:18:31:746,-0.793681,-0.762264,-9.66364,4.324,-5.90788,-11.7607
2023-03-15 15:18:31:756,-0.904543,-0.675492,-9.71551,4.30938,-5.91237,-11.7677
2023-03-15 15:18:31:766,-0.961561,-0.633738,-9.73484,4.29409,-5.91186,-11.7671
2023-03-15 15:18:31:776,-0.950583,-0.651663,-9.70022,4.28085,-5.90894,-11.7626
2023-03-15 15:18:31:786,-0.982166,-0.649477,-9.69584,4.26836,-5.90691,-11.754
2023-03-15 15:18:31:796,-1.03963,-0.635526,-9.74416,4.26003,-5.90552,-11.7454
2023-03-15 15:18:31:806,-1.0699,-0.602201,-9.79741,4.24875,-5.90601,-11.7343
2023-03-15 15:18:31:816,-1.06561,-0.595112,-9.80853,4.24423,-5.90094,-11.7325
2023-03-15 15:18:31:826,-1.04826,-0.613035,-9.79455,4.24785,-5.89479,-11.7292
2023-03-15 15:18:31:836,-1.0243,-0.649077,-9.77092,4.2545,-5.89347,-11.7256
2023-03-15 15:18:31:846,-1.03293,-0.671114,-9.73778,4.26705,-5.89306,-11.7267
2023-03-15 15:18:31:856,-1.04729,-0.685588,-9.70143,4.27858,-5.89863,-11.7317
2023-03-15 15:18:31:866,-1.0652,-0.685813,-9.6773,4.28927,-5.90341,-11.7373
2023-03-15 15:18:31:876,-1.05495,-0.688981,-9.67317,4.29853,-5.90665,-11.742
2023-03-15 15:18:31:886,-1.05796,-0.674587,-9.66754,4.31023,-5.90739,-11.7458
2023-03-15 15:18:31:896,-1.06806,-0.660605,-9.70418,4.31539,-5.9045,-11.7542
2023-03-15 15:18:31:906,-1.04346,-0.679164,-9.71035,4.32665,-5.89805,-11.7637
2023-03-15 15:18:31:916,-1.01126,-0.702274,-9.70473,4.34107,-5.89319,-11.7767
2023-03-15 15:18:31:926,-1.03332,-0.689324,-9.72899,4.35676,-5.88441,-11.7835
2023-03-15 15:18:31:936,-1.02526,-0.692364,-9.72841,4.37277,-5.87419,-11.7953
2023-03-15 15:18:31:946,-0.997082,-0.707563,-9.69462,4.39088,-5.863,-11.8061
2023-03-15 15:18:31:956,-1.00145,-0.73258,-9.67473,4.41013,-5.85411,-11.8169
2023-03-15 15:18:31:966,-0.999441,-0.744035,-9.65278,4.42612,-5.83946,-11.8263
2023-03-15 15:18:31:976,-0.988332,-0.7345,-9.65409,4.44204,-5.82859,-11.8401
2023-03-15 15:18:31:986,-0.988775,-0.709219,-9.6814,4.45277,-5.81342,-11.8584
2023-03-15 15:18:31:996,-0.97841,-0.721824,-9.70529,4.4677,-5.79334,-11.8793
2023-03-15 15:18:32:6,-0.9106,-0.7609,-9.68219,4.48397,-5.77827,-11.9002
2023-03-15 15:18:32:16,-0.880467,-0.77832,-9.64533,4.5034,-5.76781,-11.9162
2023-03-15 15:18:32:26,-0.912621,-0.755732,-9.64625,4.51638,-5.75799,-11.9359
2023-03-15 15:18:32:36,-0.940129,-0.724778,-9.68498,4.52795,-5.7477,-11.9518
2023-03-15 15:18:32:46,-0.878643,-0.742313,-9.71695,4.54338,-5.72975,-11.9706
2023-03-15 15:18:32:56,-0.771625,-0.818984,-9.65381,4.56624,-5.71733,-11.9849
2023-03-15 15:18:32:66,-0.781709,-0.842888,-9.61357,4.58391,-5.71309,-11.992
2023-03-15 15:18:32:76,-0.861554,-0.8101,-9.68181,4.59207,-5.71479,-11.9906
2023-03-15 15:18:32:86,-0.91942,-0.754522,-9.73821,4.59601,-5.72027,-11.9936
2023-03-15 15:18:32:96,-0.910452,-0.766905,-9.74303,4.60224,-5.72648,-12
2023-03-15 15:18:32:106,-0.899838,-0.790999,-9.68734,4.61146,-5.7306,-12.0033
2023-03-15 15:18:32:116,-0.913422,-0.799613,-9.66038,4.61637,-5.73696,-12.0019
2023-03-15 15:18:32:126,-0.954834,-0.784144,-9.66895,4.62316,-5.74764,-12.0011
2023-03-15 15:18:32:136,-0.997863,-0.759555,-9.6692,4.6238,-5.75796,-12.0023
2023-03-15 15:18:32:146,-1.02036,-0.735822,-9.66771,4.62273,-5.76775,-12.0028
2023-03-15 15:18:32:156,-1.01549,-0.705304,-9.6912,4.61612,-5.77373,-12.0032
2023-03-15 15:18:32:166,-0.991432,-0.686655,-9.70707,4.6081,-5.77693,-12.0092
2023-03-15 15:18:32:176,-0.991895,-0.687365,-9.71559,4.60742,-5.77916,-12.0178
2023-03-15 15:18:32:186,-1.00019,-0.683114,-9.72551,4.60583,-5.78556,-12.0262
2023-03-15 15:18:32:196,-0.995262,-0.652055,-9.78348,4.60753,-5.79231,-12.0356
2023-03-15 15:18:32:206,-0.957174,-0.677714,-9.75486,4.61877,-5.79487,-12.0485
2023-03-15 15:18:32:216,-0.948057,-0.703239,-9.72861,4.63789,-5.79107,-12.0576
2023-03-15 15:18:32:226,-0.86399,-0.815732,-9.59072,4.66278,-5.79127,-12.0735
2023-03-15 15:18:32:236,-0.908529,-0.81907,-9.57393,4.67754,-5.79139,-12.0729
2023-03-15 15:18:32:246,-1.01679,-0.757697,-9.6653,4.69137,-5.78938,-12.0722
2023-03-15 15:18:32:256,-0.974326,-0.823824,-9.64537,4.70288,-5.7915,-12.0778
2023-03-15 15:18:32:266,-0.967028,-0.806262,-9.65575,4.70929,-5.79092,-12.0785
2023-03-15 15:18:32:276,-0.991869,-0.750955,-9.72784,4.7131,-5.78722,-12.0762
2023-03-15 15:18:32:286,-0.943017,-0.754205,-9.73661,4.71905,-5.77887,-12.0769
2023-03-15 15:18:32:296,-0.921932,-0.794896,-9.67073,4.72652,-5.7738,-12.0788
2023-03-15 15:18:32:306,-0.980434,-0.77317,-9.67826,4.72504,-5.77397,-12.0753
2023-03-15 15:18:32:316,-0.992229,-0.746306,-9.71771,4.72364,-5.77455,-12.0761
2023-03-15 15:18:32:326,-0.978974,-0.718734,-9.72968,4.71746,-5.77685,-12.0826
2023-03-15 15:18:32:336,-0.944697,-0.716772,-9.7578,4.71816,-5.77504,-12.0905
2023-03-15 15:18:32:346,-0.910297,-0.755234,-9.70578,4.72294,-5.77804,-12.0975
2023-03-15 15:18:32:356,-0.965497,-0.753273,-9.69742,4.73084,-5.78293,-12.1014
2023-03-15 15:18:32:366,-1.02063,-0.745753,-9.70711,4.7406,-5.78729,-12.1098
2023-03-15 15:18:32:376,-1.01869,-0.756472,-9.70407,4.75264,-5.78366,-12.1202
2023-03-15 15:18:32:386,-1.00539,-0.773619,-9.69293,4.77023,-5.77701,-12.1329
2023-03-15 15:18:32:396,-0.984611,-0.79874,-9.67703,4.78834,-5.76347,-12.1501
2023-03-15 15:18:32:406,-0.960703,-0.810321,-9.67309,4.8067,-5.75166,-12.1649
2023-03-15 15:18:32:416,-0.929096,-0.810552,-9.68412,4.8157,-5.7413,-12.1867
2023-03-15 15:18:32:426,-0.871701,-0.82395,-9.67784,4.82349,-5.73201,-12.213
2023-03-15 15:18:32:436,-0.822235,-0.828198,-9.67054,4.83101,-5.72287,-12.2389
2023-03-15 15:18:32:446,-0.798524,-0.82942,-9.69504,4.83657,-5.72092,-12.261
2023-03-15 15:18:32:456,-0.786533,-0.812313,-9.7123,4.84143,-5.72291,-12.2869
2023-03-15 15:18:32:466,-0.774665,-0.830082,-9.69887,4.84691,-5.72583,-12.3036
2023-03-15 15:18:32:476,-0.760093,-0.843842,-9.67557,4.85084,-5.73376,-12.3174
2023-03-15 15:18:32:486,-0.767447,-0.832753,-9.68205,4.85129,-5.74285,-12.3213
2023-03-15 15:18:32:496,-0.793518,-0.808799,-9.70819,4.84892,-5.75617,-12.3185
2023-03-15 15:18:32:506,-0.810181,-0.814699,-9.69263,4.84561,-5.77108,-12.3096
2023-03-15 15:18:32:516,-0.849174,-0.816231,-9.68142,4.8448,-5.78731,-12.2882
2023-03-15 15:18:32:526,-0.890586,-0.806011,-9.70474,4.84639,-5.80273,-12.2597
2023-03-15 15:18:32:536,-0.934449,-0.805814,-9.70833,4.8482,-5.8157,-12.23
2023-03-15 15:18:32:546,-1.02205,-0.800791,-9.69649,4.84989,-5.83114,-12.1974
2023-03-15 15:18:32:556,-1.08657,-0.79883,-9.70824,4.84899,-5.84901,-12.1605
2023-03-15 15:18:32:566,-1.10824,-0.7942,-9.71997,4.85185,-5.86205,-12.128
2023-03-15 15:18:32:576,-1.11877,-0.79347,-9.71848,4.85686,-5.8749,-12.1013
2023-03-15 15:18:32:586,-1.1168,-0.812696,-9.69609,4.86298,-5.88256,-12.0738
2023-03-15 15:18:32:596,-1.13394,-0.811343,-9.68594,4.86767,-5.89253,-12.0495
2023-03-15 15:18:32:606,-1.15395,-0.788745,-9.70686,4.87093,-5.89944,-12.0328
2023-03-15 15:18:32:616,-1.14992,-0.789622,-9.69603,4.87391,-5.90186,-12.0202
2023-03-15 15:18:32:626,-1.14208,-0.808768,-9.66354,4.881,-5.90355,-12.0109
2023-03-15 15:18:32:636,-1.13831,-0.822087,-9.655,4.88783,-5.90716,-12.0037
2023-03-15 15:18:32:646,-1.13114,-0.822407,-9.68632,4.89103,-5.90393,-11.9979
2023-03-15 15:18:32:656,-1.08177,-0.816422,-9.6927,4.89452,-5.89747,-11.9925
2023-03-15 15:18:32:666,-1.0123,-0.824398,-9.68098,4.90025,-5.89064,-11.9896
2023-03-15 15:18:32:676,-0.96525,-0.826152,-9.68202,4.90951,-5.88563,-11.9855
2023-03-15 15:18:32:686,-0.944941,-0.843127,-9.71209,4.9188,-5.87979,-11.9802
2023-03-15 15:18:32:696,-0.909069,-0.846662,-9.71505,4.92494,-5.88108,-11.9694
2023-03-15 15:18:32:706,-0.904764,-0.850489,-9.71215,4.93202,-5.88543,-11.9564
2023-03-15 15:18:32:716,-0.930238,-0.833205,-9.69469,4.93787,-5.89308,-11.9392
2023-03-15 15:18:32:726,-0.975577,-0.821995,-9.68331,4.94565,-5.90577,-11.9229
2023-03-15 15:18:32:736,-1.02698,-0.807091,-9.65023,4.94972,-5.92241,-11.9075
2023-03-15 15:18:32:746,-1.0224,-0.839739,-9.62203,4.95401,-5.94463,-11.8986
2023-03-15 15:18:32:756,-1.00948,-0.846866,-9.61142,4.958,-5.9652,-11.8849
2023-03-15 15:18:32:766,-1.04358,-0.835917,-9.62403,4.95632,-5.98802,-11.8735
2023-03-15 15:18:32:776,-1.05578,-0.822277,-9.64239,4.95229,-6.013,-11.8609
2023-03-15 15:18:32:786,-1.03725,-0.8269,-9.64053,4.9479,-6.03868,-11.8503
2023-03-15 15:18:32:796,-1.0269,-0.814436,-9.66699,4.94265,-6.06012,-11.8372
2023-03-15 15:18:32:806,-1.04404,-0.802675,-9.67945,4.94171,-6.08418,-11.8243
2023-03-15 15:18:32:816,-1.03896,-0.796617,-9.67393,4.93391,-6.10522,-11.8082
2023-03-15 15:18:32:826,-1.02301,-0.80593,-9.65579,4.92657,-6.12601,-11.7872
2023-03-15 15:18:32:836,-1.06456,-0.818447,-9.6295,4.9201,-6.15127,-11.7628
2023-03-15 15:18:32:846,-1.12475,-0.821009,-9.62571,4.91178,-6.17306,-11.7369
2023-03-15 15:18:32:856,-1.16999,-0.798578,-9.67705,4.89629,-6.19335,-11.7077
2023-03-15 15:18:32:866,-1.17352,-0.776722,-9.71153,4.8845,-6.20915,-11.6836
2023-03-15 15:18:32:876,-1.14462,-0.763383,-9.72975,4.87234,-6.22079,-11.6612
2023-03-15 15:18:32:886,-1.11158,-0.773544,-9.72931,4.8648,-6.2315,-11.6442
2023-03-15 15:18:32:896,-1.10039,-0.791027,-9.69948,4.85844,-6.24022,-11.6213
2023-03-15 15:18:32:906,-1.12936,-0.773961,-9.69902,4.85504,-6.25049,-11.5952
2023-03-15 15:18:32:916,-1.1727,-0.753336,-9.73559,4.84767,-6.26213,-11.5729
2023-03-15 15:18:32:926,-1.21171,-0.737225,-9.73348,4.84371,-6.27403,-11.5545
2023-03-15 15:18:32:936,-1.21709,-0.73245,-9.70683,4.84039,-6.27839,-11.5336
2023-03-15 15:18:32:946,-1.2141,-0.725816,-9.68863,4.83614,-6.28543,-11.5161
2023-03-15 15:18:32:956,-1.21187,-0.726799,-9.68103,4.83581,-6.28617,-11.5069
2023-03-15 15:18:32:966,-1.20286,-0.724371,-9.67862,4.83667,-6.28275,-11.4986
2023-03-15 15:18:32:976,-1.20164,-0.709594,-9.68609,4.83991,-6.27696,-11.4958
2023-03-15 15:18:32:986,-1.1897,-0.704388,-9.68722,4.84705,-6.27239,-11.4978
2023-03-15 15:18:32:996,-1.18824,-0.738901,-9.67172,4.85643,-6.26814,-11.5043
2023-03-15 15:18:33:6,-1.17305,-0.746479,-9.64725,4.86575,-6.26495,-11.5172
2023-03-15 15:18:33:16,-1.13124,-0.769056,-9.63516,4.87735,-6.25753,-11.5297
2023-03-15 15:18:33:26,-1.10588,-0.788783,-9.63687,4.88647,-6.24719,-11.5448
2023-03-15 15:18:33:36,-1.08647,-0.809319,-9.62934,4.89824,-6.23995,-11.5578
2023-03-15 15:18:33:46,-1.07685,-0.822341,-9.66573,4.90681,-6.23236,-11.5735
2023-03-15 15:18:33:56,-1.05021,-0.787562,-9.71049,4.90766,-6.22104,-11.5881
2023-03-15 15:18:33:66,-1.03053,-0.767497,-9.72954,4.91517,-6.21147,-11.6001
2023-03-15 15:18:33:76,-1.04096,-0.77667,-9.72273,4.92118,-6.20477,-11.6116
2023-03-15 15:18:33:86,-1.04328,-0.796651,-9.69387,4.93224,-6.19079,-11.6214
2023-03-15 15:18:33:96,-1.05611,-0.778464,-9.69449,4.94076,-6.1795,-11.6247
2023-03-15 15:18:33:106,-1.02628,-0.766855,-9.71912,4.9481,-6.16231,-11.6364
2023-03-15 15:18:33:116,-0.962444,-0.788469,-9.71854,4.95991,-6.14505,-11.6411
2023-03-15 15:18:33:126,-0.944323,-0.796576,-9.70011,4.97498,-6.13364,-11.6483
2023-03-15 15:18:33:136,-0.943411,-0.812606,-9.69988,4.9876,-6.12097,-11.6535
2023-03-15 15:18:33:146,-0.940108,-0.825173,-9.68686,5.00091,-6.11169,-11.6567
2023-03-15 15:18:33:156,-0.962746,-0.823133,-9.70181,5.01374,-6.10544,-11.6575
2023-03-15 15:18:33:166,-0.97691,-0.830014,-9.72029,5.02301,-6.10057,-11.6554
2023-03-15 15:18:33:176,-0.967777,-0.847909,-9.70715,5.03518,-6.09904,-11.6529
2023-03-15 15:18:33:186,-0.944752,-0.850049,-9.70517,5.04563,-6.09997,-11.6472
2023-03-15 15:18:33:196,-0.947399,-0.831247,-9.69923,5.05835,-6.09775,-11.643
2023-03-15 15:18:33:206,-0.961952,-0.83334,-9.68957,5.06993,-6.09905,-11.6347
2023-03-15 15:18:33:216,-0.984365,-0.832427,-9.66329,5.08354,-6.10036,-11.6293
2023-03-15 15:18:33:226,-0.996936,-0.852708,-9.65194,5.09533,-6.10559,-11.6229
2023-03-15 15:18:33:236,-0.989677,-0.86518,-9.64814,5.10922,-6.10923,-11.6135
2023-03-15 15:18:33:246,-0.983747,-0.867145,-9.65346,5.11977,-6.118,-11.6
2023-03-15 15:18:33:256,-0.978951,-0.872348,-9.67353,5.13135,-6.1264,-11.5907
2023-03-15 15:18:33:266,-0.962951,-0.878318,-9.66888,5.14407,-6.13063,-11.5766
2023-03-15 15:18:33:276,-0.969804,-0.882611,-9.6739,5.15211,-6.13629,-11.5567
2023-03-15 15:18:33:286,-0.98605,-0.874635,-9.66817,5.16185,-6.14289,-11.5366
2023-03-15 15:18:33:296,-0.988891,-0.888775,-9.66142,5.16999,-6.15178,-11.5137
2023-03-15 15:18:33:306,-1.02889,-0.89544,-9.67119,5.18077,-6.16055,-11.4882
2023-03-15 15:18:33:316,-1.0542,-0.861937,-9.67085,5.18759,-6.17054,-11.4597
2023-03-15 15:18:33:326,-1.06776,-0.877809,-9.65903,5.19654,-6.17408,-11.4306
2023-03-15 15:18:33:336,-1.0792,-0.901777,-9.63745,5.20235,-6.17914,-11.4024
2023-03-15 15:18:33:346,-1.13036,-0.877706,-9.65253,5.21213,-6.17968,-11.3702
2023-03-15 15:18:33:356,-1.16492,-0.828969,-9.6516,5.2151,-6.17863,-11.3427
2023-03-15 15:18:33:366,-1.16343,-0.836906,-9.6515,5.2223,-6.17717,-11.3192
2023-03-15 15:18:33:376,-1.15112,-0.865932,-9.63224,5.22772,-6.17045,-11.2992
2023-03-15 15:18:33:386,-1.13176,-0.868045,-9.63682,5.23009,-6.16107,-11.2822
2023-03-15 15:18:33:396,-1.1311,-0.859966,-9.63946,5.23399,-6.1504,-11.2726
2023-03-15 15:18:33:406,-1.12867,-0.869547,-9.64479,5.23902,-6.14393,-11.2653
2023-03-15 15:18:33:416,-1.08883,-0.874272,-9.65663,5.24156,-6.13286,-11.2629
2023-03-15 15:18:33:426,-1.04685,-0.847071,-9.67693,5.24445,-6.12768,-11.2627
2023-03-15 15:18:33:436,-1.03099,-0.863846,-9.70087,5.24666,-6.12085,-11.2623
2023-03-15 15:18:33:446,-1.03363,-0.868172,-9.68013,5.24944,-6.11461,-11.2637
2023-03-15 15:18:33:456,-1.03681,-0.854181,-9.68455,5.25383,-6.10898,-11.2677
2023-03-15 15:18:33:466,-1.01464,-0.835171,-9.70532,5.25603,-6.10205,-11.274
2023-03-15 15:18:33:476,-0.991422,-0.851957,-9.6899,5.25765,-6.09727,-11.2784
2023-03-15 15:18:33:486,-0.988455,-0.859131,-9.66409,5.26359,-6.09402,-11.2795
2023-03-15 15:18:33:496,-1.00495,-0.852126,-9.6594,5.26759,-6.08836,-11.2803
2023-03-15 15:18:33:506,-0.99307,-0.854806,-9.65367,5.27266,-6.08498,-11.2814
2023-03-15 15:18:33:516,-0.998906,-0.875264,-9.66617,5.27332,-6.08384,-11.283
2023-03-15 15:18:33:526,-1.01599,-0.843786,-9.69975,5.27273,-6.08177,-11.2793
2023-03-15 15:18:33:536,-0.993173,-0.803956,-9.72339,5.2757,-6.07896,-11.2821
2023-03-15 15:18:33:546,-0.968255,-0.855336,-9.70294,5.27833,-6.07683,-11.2796
2023-03-15 15:18:33:556,-0.961003,-0.831289,-9.72441,5.2809,-6.07078,-11.2746
2023-03-15 15:18:33:566,-0.951243,-0.812085,-9.78189,5.2809,-6.06693,-11.2672
2023-03-15 15:18:33:576,-0.990451,-0.819727,-9.79354,5.28755,-6.06849,-11.2613
2023-03-15 15:18:33:586,-1.02591,-0.824163,-9.77407,5.30041,-6.06999,-11.2509
2023-03-15 15:18:33:596,-1.02361,-0.793208,-9.76224,5.31689,-6.07072,-11.2401
2023-03-15 15:18:33:606,-0.996798,-0.838808,-9.72042,5.34112,-6.06975,-11.2311
2023-03-15 15:18:33:616,-1.00025,-0.886517,-9.63858,5.36864,-6.06444,-11.2155
2023-03-15 15:18:33:626,-1.03937,-0.91489,-9.6248,5.39252,-6.06366,-11.199
2023-03-15 15:18:33:636,-1.06666,-0.899214,-9.68011,5.41555,-6.06502,-11.1823
2023-03-15 15:18:33:646,-1.06533,-0.863145,-9.75334,5.43895,-6.06466,-11.1689
2023-03-15 15:18:33:656,-1.03581,-0.886355,-9.75021,5.46241,-6.06485,-11.1528
2023-03-15 15:18:33:666,-1.00802,-0.932008,-9.69452,5.48821,-6.06476,-11.1377
2023-03-15 15:18:33:676,-1.02032,-0.943551,-9.68313,5.51155,-6.06995,-11.1187
2023-03-15 15:18:33:686,-1.05675,-0.907907,-9.68529,5.53476,-6.07758,-11.1015
2023-03-15 15:18:33:696,-1.07636,-0.902502,-9.67958,5.55026,-6.08744,-11.0838
2023-03-15 15:18:33:706,-1.1044,-0.888684,-9.67401,5.56501,-6.0925,-11.065
2023-03-15 15:18:33:716,-1.12021,-0.879206,-9.63997,5.58128,-6.09358,-11.0479
2023-03-15 15:18:33:726,-1.11878,-0.893394,-9.58814,5.59863,-6.09654,-11.0342
2023-03-15 15:18:33:736,-1.12699,-0.898468,-9.55978,5.61204,-6.09854,-11.0221
2023-03-15 15:18:33:746,-1.13315,-0.904416,-9.58209,5.62328,-6.09528,-11.0099
2023-03-15 15:18:33:756,-1.12992,-0.892559,-9.60401,5.63155,-6.09299,-11.0033
2023-03-15 15:18:33:766,-1.12888,-0.870801,-9.64106,5.63715,-6.09294,-11.0023
2023-03-15 15:18:33:776,-1.10919,-0.891706,-9.65033,5.65124,-6.08827,-11.0063
2023-03-15 15:18:33:786,-1.08211,-0.912278,-9.63744,5.66669,-6.07815,-11.0117
2023-03-15 15:18:33:796,-1.06199,-0.906779,-9.64247,5.67974,-6.07284,-11.021
2023-03-15 15:18:33:806,-1.06794,-0.915655,-9.66005,5.69151,-6.07009,-11.03
2023-03-15 15:18:33:816,-1.06905,-0.934351,-9.6412,5.70599,-6.06813,-11.0397
2023-03-15 15:18:33:826,-1.0492,-0.956938,-9.6292,5.71789,-6.06315,-11.0477
2023-03-15 15:18:33:836,-1.01062,-0.963157,-9.62714,5.72559,-6.05599,-11.0538
2023-03-15 15:18:33:846,-0.993486,-0.969116,-9.6212,5.73,-6.04892,-11.0587
2023-03-15 15:18:33:856,-1.00976,-0.956861,-9.64819,5.72714,-6.04182,-11.0623
2023-03-15 15:18:33:866,-1.04245,-0.902783,-9.67168,5.72129,-6.03902,-11.0684
2023-03-15 15:18:33:876,-1.03892,-0.87547,-9.71649,5.72045,-6.03436,-11.0791
2023-03-15 15:18:33:886,-0.990191,-0.874018,-9.74898,5.71663,-6.0289,-11.0911
2023-03-15 15:18:33:896,-0.94049,-0.887147,-9.74936,5.7184,-6.0245,-11.1031
2023-03-15 15:18:33:906,-0.939597,-0.908909,-9.73352,5.72475,-6.02224,-11.1146
2023-03-15 15:18:33:916,-0.952731,-0.930781,-9.68977,5.73545,-6.01741,-11.1204
2023-03-15 15:18:33:926,-0.969819,-0.971713,-9.65278,5.74664,-6.01544,-11.1267
2023-03-15 15:18:33:936,-0.967877,-0.968522,-9.64478,5.75327,-6.01873,-11.1324
2023-03-15 15:18:33:946,-0.971144,-0.938335,-9.65967,5.75615,-6.02184,-11.1351
2023-03-15 15:18:33:956,-0.96006,-0.954077,-9.67431,5.75968,-6.02428,-11.1382
2023-03-15 15:18:33:966,-0.941896,-0.961581,-9.67138,5.76273,-6.02894,-11.1398
2023-03-15 15:18:33:976,-0.945432,-0.946017,-9.68019,5.7627,-6.02925,-11.1358
2023-03-15 15:18:33:986,-0.938532,-0.948304,-9.71677,5.76375,-6.03001,-11.1289
2023-03-15 15:18:33:996,-0.940104,-0.938191,-9.72589,5.76652,-6.03335,-11.1236
2023-03-15 15:18:34:6,-0.938082,-0.936239,-9.73241,5.77005,-6.03882,-11.1147
2023-03-15 15:18:34:16,-0.963074,-0.950017,-9.70912,5.77701,-6.04394,-11.0989
2023-03-15 15:18:34:26,-0.990274,-0.965355,-9.66948,5.78909,-6.0557,-11.0821
2023-03-15 15:18:34:36,-1.0266,-0.978646,-9.63366,5.80466,-6.07109,-11.0675
2023-03-15 15:18:34:46,-1.05951,-0.980606,-9.61626,5.81624,-6.08346,-11.0486
2023-03-15 15:18:34:56,-1.09578,-0.975134,-9.62143,5.82748,-6.09295,-11.0342
2023-03-15 15:18:34:66,-1.0826,-0.987801,-9.62256,5.83773,-6.1037,-11.0233
2023-03-15 15:18:34:76,-1.05352,-1.00945,-9.62461,5.84487,-6.11348,-11.0095
2023-03-15 15:18:34:86,-1.07919,-0.977794,-9.66557,5.84984,-6.12773,-10.9979
2023-03-15 15:18:34:96,-1.09533,-0.953103,-9.70634,5.85134,-6.14154,-10.9882
2023-03-15 15:18:34:106,-1.0916,-0.965733,-9.70218,5.85711,-6.15277,-10.9803
2023-03-15 15:18:34:116,-1.10121,-0.970599,-9.65669,5.86301,-6.1594,-10.9727
2023-03-15 15:18:34:126,-1.09523,-0.965474,-9.64794,5.87302,-6.16982,-10.963
2023-03-15 15:18:34:136,-1.10384,-0.949759,-9.65742,5.87642,-6.17789,-10.9603
2023-03-15 15:18:34:146,-1.11537,-0.945916,-9.6677,5.88326,-6.18715,-10.9532
2023-03-15 15:18:34:156,-1.11858,-0.944137,-9.65486,5.88775,-6.19604,-10.9527
2023-03-15 15:18:34:166,-1.12462,-0.949956,-9.6611,5.89181,-6.20194,-10.9559
2023-03-15 15:18:34:176,-1.13184,-0.940923,-9.68436,5.89439,-6.2076,-10.9579
2023-03-15 15:18:34:186,-1.11474,-0.929811,-9.67899,5.90246,-6.21199,-10.9653
2023-03-15 15:18:34:196,-1.09173,-0.94032,-9.67675,5.91001,-6.21571,-10.9715
2023-03-15 15:18:34:206,-1.08321,-0.940884,-9.68757,5.91517,-6.21989,-10.9804
2023-03-15 15:18:34:216,-1.09811,-0.942354,-9.67994,5.92443,-6.22367,-10.989
2023-03-15 15:18:34:226,-1.10308,-0.96596,-9.63262,5.93424,-6.22053,-10.9985
2023-03-15 15:18:34:236,-1.09382,-1.0132,-9.57317,5.94578,-6.22238,-11.0097
2023-03-15 15:18:34:246,-1.07332,-1.02029,-9.56936,5.95459,-6.22628,-11.0218
2023-03-15 15:18:34:256,-1.05214,-0.99736,-9.61158,5.95566,-6.22969,-11.0296
2023-03-15 15:18:34:266,-1.04032,-0.968329,-9.64187,5.95432,-6.23099,-11.039
2023-03-15 15:18:34:276,-0.998634,-0.968049,-9.66016,5.95072,-6.22867,-11.0496
2023-03-15 15:18:34:286,-0.984489,-0.974996,-9.66758,5.94734,-6.22704,-11.0523
2023-03-15 15:18:34:296,-1.00768,-0.973756,-9.69242,5.94236,-6.22627,-11.0525
2023-03-15 15:18:34:306,-1.0083,-0.973087,-9.70962,5.93767,-6.22105,-11.0512
2023-03-15 15:18:34:316,-0.993191,-0.971079,-9.6994,5.93536,-6.21771,-11.0475
2023-03-15 15:18:34:326,-1.01206,-0.980725,-9.67059,5.93382,-6.21944,-11.0415
2023-03-15 15:18:34:336,-1.04626,-0.966547,-9.64977,5.93001,-6.22001,-11.036
2023-03-15 15:18:34:346,-1.02289,-0.950272,-9.64044,5.92978,-6.21714,-11.0284
2023-03-15 15:18:34:356,-1.0196,-0.945692,-9.67029,5.92494,-6.21374,-11.0249
2023-03-15 15:18:34:366,-1.02826,-0.962294,-9.6809,5.92389,-6.20914,-11.0175
2023-03-15 15:18:34:376,-1.04779,-0.975777,-9.70238,5.92375,-6.21131,-11.0101
2023-03-15 15:18:34:386,-1.06825,-0.953087,-9.76339,5.92586,-6.21174,-11.0076
2023-03-15 15:18:34:396,-1.06528,-0.945036,-9.79033,5.93196,-6.21355,-11.0059
2023-03-15 15:18:34:406,-1.04423,-0.973185,-9.76151,5.94554,-6.21862,-11.0096
2023-03-15 15:18:34:416,-1.00771,-1.02235,-9.71498,5.96386,-6.2222,-11.0104
2023-03-15 15:18:34:426,-1.02712,-1.02062,-9.69701,5.97744,-6.22339,-11.0064
2023-03-15 15:18:34:436,-1.05608,-1.01192,-9.68961,5.99336,-6.23303,-11.0019
2023-03-15 15:18:34:446,-1.07715,-1.01384,-9.65717,6.00791,-6.23542,-10.9973
2023-03-15 15:18:34:456,-1.10111,-1.00021,-9.64489,6.01876,-6.2392,-10.9933
2023-03-15 15:18:34:466,-1.10499,-0.977312,-9.63888,6.02739,-6.24097,-10.9875
2023-03-15 15:18:34:476,-1.11639,-0.945116,-9.63162,6.03458,-6.24203,-10.984
2023-03-15 15:18:34:486,-1.12587,-0.937139,-9.66743,6.0403,-6.23911,-10.9807
2023-03-15 15:18:34:496,-1.12867,-0.933575,-9.67286,6.05171,-6.2315,-10.9801
2023-03-15 15:18:34:506,-1.1166,-0.943719,-9.64834,6.06523,-6.22496,-10.9803
2023-03-15 15:18:34:516,-1.09918,-0.971315,-9.61033,6.07991,-6.2116,-10.981
2023-03-15 15:18:34:526,-1.10219,-0.989007,-9.5861,6.1005,-6.19727,-10.9817
2023-03-15 15:18:34:536,-1.08177,-1.01999,-9.59176,6.11389,-6.18216,-10.9834
2023-03-15 15:18:34:546,-1.05795,-1.03014,-9.62011,6.12574,-6.17095,-10.9848
2023-03-15 15:18:34:556,-1.05879,-1.02745,-9.64512,6.13478,-6.15704,-10.9855
2023-03-15 15:18:34:566,-1.07796,-1.02404,-9.67975,6.14557,-6.14551,-10.9872
2023-03-15 15:18:34:576,-1.05047,-1.01421,-9.70597,6.15746,-6.13042,-10.9895
2023-03-15 15:18:34:586,-1.00935,-1.00543,-9.68365,6.16898,-6.11557,-10.994
2023-03-15 15:18:34:596,-1.00728,-1.02916,-9.65262,6.17914,-6.10219,-10.9975
2023-03-15 15:18:34:606,-1.0452,-1.02365,-9.65259,6.18591,-6.09148,-11
2023-03-15 15:18:34:616,-1.06192,-0.991954,-9.67902,6.18532,-6.08049,-11.0044
2023-03-15 15:18:34:626,-1.05878,-0.963989,-9.73235,6.18875,-6.0696,-11.0141
2023-03-15 15:18:34:636,-1.0047,-0.929647,-9.75264,6.19729,-6.05683,-11.0231
2023-03-15 15:18:34:646,-0.944673,-0.944342,-9.71798,6.21181,-6.04172,-11.0359
2023-03-15 15:18:34:656,-0.926631,-1.02091,-9.65797,6.23136,-6.02664,-11.0433
2023-03-15 15:18:34:666,-0.987228,-1.06363,-9.61143,6.25156,-6.01642,-11.0454
2023-03-15 15:18:34:676,-1.00501,-1.0264,-9.64812,6.26191,-6.00776,-11.0475
2023-03-15 15:18:34:686,-0.97488,-1.0153,-9.69613,6.27067,-6.00139,-11.0508
2023-03-15 15:18:34:696,-0.96987,-1.01204,-9.69002,6.28074,-5.99691,-11.052
2023-03-15 15:18:34:706,-0.965916,-1.03291,-9.65174,6.29134,-5.99346,-11.0581
2023-03-15 15:18:34:716,-0.937692,-1.03154,-9.6729,6.30295,-5.99098,-11.0595
2023-03-15 15:18:34:726,-0.973389,-1.01607,-9.70295,6.31138,-5.99129,-11.0578
2023-03-15 15:18:34:736,-1.00035,-1.02521,-9.66976,6.3236,-5.99337,-11.0578
2023-03-15 15:18:34:746,-1.02165,-1.02808,-9.64664,6.33755,-5.99433,-11.0529
2023-03-15 15:18:34:756,-1.00283,-1.03623,-9.65385,6.35115,-5.9957,-11.0522
2023-03-15 15:18:34:766,-0.995076,-1.04789,-9.6594,6.36242,-5.99594,-11.0511
2023-03-15 15:18:34:776,-0.986151,-1.05999,-9.65943,6.37505,-5.99341,-11.0469
2023-03-15 15:18:34:786,-0.994017,-1.05941,-9.64555,6.38735,-5.99562,-11.04
2023-03-15 15:18:34:796,-0.993062,-1.0733,-9.63762,6.39767,-6.0009,-11.0361
2023-03-15 15:18:34:806,-0.99081,-1.07845,-9.60865,6.40909,-6.0034,-11.0282
2023-03-15 15:18:34:816,-0.984262,-1.0918,-9.60491,6.42017,-6.00888,-11.0242
2023-03-15 15:18:34:826,-0.986377,-1.10699,-9.60944,6.42599,-6.01495,-11.017
2023-03-15 15:18:34:836,-0.998084,-1.07913,-9.61408,6.42971,-6.02565,-11.0073
2023-03-15 15:18:34:846,-0.99053,-1.07624,-9.65597,6.42942,-6.03231,-10.9996
2023-03-15 15:18:34:856,-0.991131,-1.03493,-9.71444,6.43014,-6.04088,-10.9943
2023-03-15 15:18:34:866,-1.0054,-1.01521,-9.74572,6.43624,-6.05352,-10.9909
2023-03-15 15:18:34:876,-1.02728,-1.04814,-9.72016,6.44396,-6.0616,-10.9853
2023-03-15 15:18:34:886,-1.04038,-1.04618,-9.69443,6.45376,-6.07034,-10.9809
2023-03-15 15:18:34:896,-1.04042,-1.03429,-9.68986,6.46662,-6.07343,-10.9759
2023-03-15 15:18:34:906,-1.01808,-1.06227,-9.66058,6.48369,-6.07229,-10.9685
2023-03-15 15:18:34:916,-1.02263,-1.07497,-9.62385,6.49864,-6.07465,-10.959
2023-03-15 15:18:34:926,-1.01742,-1.08668,-9.63505,6.50984,-6.07484,-10.9483
2023-03-15 15:18:34:936,-1.00007,-1.10115,-9.62988,6.52583,-6.07386,-10.936
2023-03-15 15:18:34:946,-1.01609,-1.10454,-9.63327,6.53699,-6.07332,-10.9233
2023-03-15 15:18:34:956,-1.05398,-1.09146,-9.65988,6.54407,-6.07477,-10.912
2023-03-15 15:18:34:966,-1.06759,-1.066,-9.67398,6.55176,-6.07754,-10.9083
2023-03-15 15:18:34:976,-1.0517,-1.05441,-9.67916,6.56075,-6.08225,-10.9047
2023-03-15 15:18:34:986,-1.04742,-1.06972,-9.67848,6.57123,-6.08479,-10.9039
2023-03-15 15:18:34:996,-1.03792,-1.07672,-9.66256,6.58347,-6.08353,-10.9036
2023-03-15 15:18:35:6,-1.02355,-1.10408,-9.6448,6.59501,-6.08101,-10.9014
2023-03-15 15:18:35:16,-1.00288,-1.11721,-9.62295,6.60999,-6.07507,-10.8993
2023-03-15 15:18:35:26,-1.00364,-1.11709,-9.62838,6.62394,-6.07629,-10.8941
2023-03-15 15:18:35:36,-1.03226,-1.10096,-9.63482,6.63461,-6.0775,-10.8899
2023-03-15 15:18:35:46,-1.05048,-1.10553,-9.64516,6.64346,-6.07982,-10.8852
2023-03-15 15:18:35:56,-1.04486,-1.11546,-9.64363,6.65371,-6.08126,-10.8799
2023-03-15 15:18:35:66,-1.00447,-1.12236,-9.64686,6.66601,-6.07867,-10.8759
2023-03-15 15:18:35:76,-0.994694,-1.13224,-9.64958,6.67799,-6.07559,-10.8711
2023-03-15 15:18:35:86,-1.01146,-1.14655,-9.63302,6.68703,-6.07422,-10.8638
2023-03-15 15:18:35:96,-0.996388,-1.15102,-9.61116,6.69651,-6.07543,-10.8577
2023-03-15 15:18:35:106,-0.987704,-1.15739,-9.60579,6.70543,-6.07448,-10.8531
2023-03-15 15:18:35:116,-0.97544,-1.1663,-9.59767,6.71027,-6.07257,-10.845
2023-03-15 15:18:35:126,-0.98573,-1.16493,-9.59498,6.71602,-6.0741,-10.8353
2023-03-15 15:18:35:136,-0.988415,-1.14481,-9.63676,6.71666,-6.07329,-10.8254
2023-03-15 15:18:35:146,-0.960006,-1.12762,-9.68609,6.71576,-6.0738,-10.8153
2023-03-15 15:18:35:156,-0.914404,-1.13446,-9.71314,6.71936,-6.076,-10.8047
2023-03-15 15:18:35:166,-0.896011,-1.15472,-9.68986,6.722,-6.08584,-10.79
2023-03-15 15:18:35:176,-0.917492,-1.16328,-9.67685,6.72466,-6.09603,-10.7694
2023-03-15 15:18:35:186,-0.979132,-1.14825,-9.65778,6.72645,-6.11103,-10.7415
2023-03-15 15:18:35:196,-1.01865,-1.13264,-9.65817,6.72555,-6.12334,-10.7154
2023-03-15 15:18:35:206,-1.0281,-1.121,-9.67607,6.71958,-6.13985,-10.6905
2023-03-15 15:18:35:216,-1.03332,-1.08943,-9.72511,6.71687,-6.15045,-10.6589
2023-03-15 15:18:35:226,-1.05368,-1.04727,-9.74583,6.71521,-6.15999,-10.6253
2023-03-15 15:18:35:236,-1.09214,-1.05053,-9.72958,6.72084,-6.17487,-10.5913
2023-03-15 15:18:35:246,-1.15559,-1.04981,-9.68478,6.72833,-6.189,-10.56
2023-03-15 15:18:35:256,-1.20674,-1.03829,-9.67497,6.73009,-6.20253,-10.5255
2023-03-15 15:18:35:266,-1.22767,-1.01951,-9.68223,6.73521,-6.21433,-10.4967
2023-03-15 15:18:35:276,-1.17278,-0.99397,-9.69941,6.73635,-6.21948,-10.4712
2023-03-15 15:18:35:286,-1.06274,-0.983675,-9.74297,6.74373,-6.22423,-10.4485
2023-03-15 15:18:35:296,-0.968945,-1.00138,-9.77729,6.75386,-6.22923,-10.4188
2023-03-15 15:18:35:306,-1.00522,-0.993886,-9.75026,6.77046,-6.23679,-10.3831
2023-03-15 15:18:35:316,-1.12526,-1.05681,-9.71119,6.79843,-6.24801,-10.3389
2023-03-15 15:18:35:326,-1.24688,-1.10203,-9.65297,6.83303,-6.25892,-10.2916
2023-03-15 15:18:35:336,-1.28689,-1.14698,-9.55357,6.86959,-6.26923,-10.2501
2023-03-15 15:18:35:346,-1.31614,-1.20815,-9.44875,6.90397,-6.27664,-10.2171
2023-03-15 15:18:35:356,-1.34636,-1.24386,-9.41101,6.93135,-6.27681,-10.1911
2023-03-15 15:18:35:366,-1.34699,-1.21597,-9.47322,6.94243,-6.27593,-10.1703
2023-03-15 15:18:35:376,-1.28216,-1.15933,-9.54446,6.9373,-6.27466,-10.1624
2023-03-15 15:18:35:386,-1.20534,-1.09033,-9.60388,6.92472,-6.26804,-10.1746
2023-03-15 15:18:35:396,-1.13517,-1.03317,-9.63857,6.9035,-6.26049,-10.2
2023-03-15 15:18:35:406,-1.06697,-0.993207,-9.66943,6.88167,-6.25283,-10.2382
2023-03-15 15:18:35:416,-1.00705,-0.970934,-9.70531,6.85604,-6.24986,-10.2787
2023-03-15 15:18:35:426,-0.978083,-0.937191,-9.70797,6.83167,-6.25327,-10.328
2023-03-15 15:18:35:436,-1.03203,-0.888465,-9.70741,6.81104,-6.26344,-10.3819
2023-03-15 15:18:35:446,-1.07807,-0.857712,-9.72989,6.79301,-6.27325,-10.4434
2023-03-15 15:18:35:456,-1.06457,-0.855475,-9.76258,6.7875,-6.28201,-10.5119
2023-03-15 15:18:35:466,-0.981489,-0.89222,-9.73965,6.79337,-6.28516,-10.5831
2023-03-15 15:18:35:476,-0.915365,-0.965472,-9.66831,6.80432,-6.28617,-10.651
2023-03-15 15:18:35:486,-0.860577,-1.01317,-9.62904,6.82505,-6.28913,-10.7147
2023-03-15 15:18:35:496,-0.812658,-1.05785,-9.63573,6.84985,-6.28919,-10.7707
2023-03-15 15:18:35:506,-0.783706,-1.11673,-9.64223,6.87519,-6.29205,-10.8111
2023-03-15 15:18:35:516,-0.793304,-1.1246,-9.65337,6.90118,-6.29556,-10.843
2023-03-15 15:18:35:526,-0.803233,-1.17095,-9.66512,6.9287,-6.30147,-10.8578
2023-03-15 15:18:35:536,-0.866099,-1.20959,-9.64942,6.95836,-6.30983,-10.8568
2023-03-15 15:18:35:546,-0.94494,-1.23313,-9.65173,6.98481,-6.31562,-10.8441
2023-03-15 15:18:35:556,-0.975468,-1.25948,-9.64739,7.01221,-6.32106,-10.8258
2023-03-15 15:18:35:566,-0.977226,-1.29431,-9.63133,7.03936,-6.32187,-10.7989
2023-03-15 15:18:35:576,-0.976826,-1.29655,-9.59026,7.06295,-6.31742,-10.7614
2023-03-15 15:18:35:586,-1.00583,-1.28442,-9.57476,7.08032,-6.31159,-10.7182
2023-03-15 15:18:35:596,-1.04462,-1.29376,-9.58706,7.09827,-6.30679,-10.6676
2023-03-15 15:18:35:606,-1.06702,-1.3097,-9.58464,7.11273,-6.30088,-10.6161
2023-03-15 15:18:35:616,-1.05417,-1.31084,-9.58704,7.12524,-6.29343,-10.565
2023-03-15 15:18:35:626,-1.05378,-1.29762,-9.5893,7.13007,-6.28638,-10.5048
2023-03-15 15:18:35:636,-1.06765,-1.2835,-9.60806,7.13193,-6.27742,-10.4466
2023-03-15 15:18:35:646,-1.08102,-1.27234,-9.6565,7.12673,-6.27412,-10.3887
2023-03-15 15:18:35:656,-1.09573,-1.25437,-9.69531,7.12157,-6.28053,-10.3321
2023-03-15 15:18:35:666,-1.11861,-1.23838,-9.73077,7.11829,-6.28647,-10.2792
2023-03-15 15:18:35:676,-1.16015,-1.21997,-9.73182,7.11522,-6.29863,-10.2282
2023-03-15 15:18:35:686,-1.209,-1.21023,-9.69362,7.11657,-6.31346,-10.1843
2023-03-15 15:18:35:696,-1.22029,-1.21413,-9.64779,7.11525,-6.33001,-10.1446
2023-03-15 15:18:35:706,-1.17711,-1.21146,-9.66757,7.12008,-6.34591,-10.1079
2023-03-15 15:18:35:716,-1.16686,-1.207,-9.70325,7.12018,-6.36338,-10.0727
2023-03-15 15:18:35:726,-1.22938,-1.18772,-9.74684,7.12515,-6.38055,-10.0385
2023-03-15 15:18:35:736,-1.18247,-1.21196,-9.75208,7.13465,-6.38946,-10.0062
2023-03-15 15:18:35:746,-1.2032,-1.26054,-9.62639,7.14004,-6.41364,-9.97729
2023-03-15 15:18:35:756,-1.27079,-1.19931,-9.65562,7.1407,-6.43403,-9.94926
2023-03-15 15:18:35:766,-1.35744,-1.15614,-9.66718,7.13979,-6.46032,-9.93325
2023-03-15 15:18:35:776,-1.4544,-1.07278,-9.75667,7.13979,-6.47753,-9.92638
2023-03-15 15:18:35:786,-1.38994,-1.14067,-9.67593,7.1536,-6.49261,-9.93742
2023-03-15 15:18:35:796,-1.30954,-1.18517,-9.6294,7.1686,-6.50328,-9.95382
2023-03-15 15:18:35:806,-1.30423,-1.14912,-9.65406,7.18778,-6.50346,-9.97166
2023-03-15 15:18:35:816,-1.29032,-1.15314,-9.62586,7.20953,-6.49587,-9.99658
2023-03-15 15:18:35:826,-1.20382,-1.22823,-9.57429,7.24044,-6.48411,-10.0255
2023-03-15 15:18:35:836,-1.09965,-1.28517,-9.52104,7.27145,-6.46853,-10.0487
2023-03-15 15:18:35:846,-1.05174,-1.29226,-9.49692,7.29798,-6.44981,-10.0631
2023-03-15 15:18:35:856,-1.0388,-1.26978,-9.54513,7.32076,-6.42415,-10.0731
2023-03-15 15:18:35:866,-1.02196,-1.26629,-9.59222,7.34049,-6.3919,-10.078
2023-03-15 15:18:35:876,-0.998779,-1.27708,-9.59955,7.36339,-6.35656,-10.0785
2023-03-15 15:18:35:886,-0.986709,-1.29239,-9.6117,7.3898,-6.32099,-10.0682
2023-03-15 15:18:35:896,-1.04245,-1.29069,-9.60065,7.41325,-6.28618,-10.0517
2023-03-15 15:18:35:906,-1.09795,-1.30943,-9.57374,7.43745,-6.25055,-10.0321
2023-03-15 15:18:35:916,-1.11402,-1.32473,-9.53991,7.45638,-6.21312,-10.0175
2023-03-15 15:18:35:926,-1.12385,-1.32338,-9.54111,7.47622,-6.17152,-10.005
2023-03-15 15:18:35:936,-1.13736,-1.30354,-9.53497,7.49296,-6.13543,-9.9914
2023-03-15 15:18:35:946,-1.13293,-1.30013,-9.49852,7.50412,-6.09664,-9.98731
2023-03-15 15:18:35:956,-1.11236,-1.29198,-9.4939,7.51032,-6.0552,-9.98984
2023-03-15 15:18:35:966,-1.09643,-1.2769,-9.5034,7.51295,-6.0116,-10
2023-03-15 15:18:35:976,-1.08105,-1.25672,-9.50837,7.51617,-5.96963,-10.0131
2023-03-15 15:18:35:986,-1.0762,-1.24823,-9.51949,7.51791,-5.92797,-10.0352
2023-03-15 15:18:35:996,-1.07364,-1.24622,-9.52903,7.51522,-5.88555,-10.0636
2023-03-15 15:18:36:6,-1.07769,-1.23811,-9.53714,7.51865,-5.84501,-10.1082
2023-03-15 15:18:36:16,-1.05379,-1.22284,-9.53446,7.51465,-5.80451,-10.1595
2023-03-15 15:18:36:26,-1.00455,-1.24885,-9.52089,7.51512,-5.76556,-10.2158
2023-03-15 15:18:36:36,-0.933181,-1.28613,-9.50432,7.51289,-5.73024,-10.2776
2023-03-15 15:18:36:46,-0.848837,-1.30063,-9.48696,7.50129,-5.69485,-10.3458
2023-03-15 15:18:36:56,-0.723559,-1.29221,-9.4935,7.48029,-5.65906,-10.4107
2023-03-15 15:18:36:66,-0.64245,-1.29699,-9.54666,7.44983,-5.62723,-10.4679
2023-03-15 15:18:36:76,-0.660305,-1.24958,-9.56213,7.40676,-5.60917,-10.5197
2023-03-15 15:18:36:86,-0.693346,-1.17101,-9.56949,7.35358,-5.60569,-10.559
2023-03-15 15:18:36:96,-0.710333,-1.12805,-9.60158,7.2898,-5.60706,-10.593
2023-03-15 15:18:36:106,-0.732074,-1.06285,-9.68072,7.21843,-5.61525,-10.6138
2023-03-15 15:18:36:116,-0.79071,-0.985897,-9.78162,7.14316,-5.63032,-10.6249
2023-03-15 15:18:36:126,-0.900858,-0.923836,-9.89854,7.06999,-5.65192,-10.6292
2023-03-15 15:18:36:136,-1.03386,-0.867282,-9.9587,7.00856,-5.67496,-10.6272
2023-03-15 15:18:36:146,-1.13163,-0.867629,-9.98755,6.96506,-5.6946,-10.6232
2023-03-15 15:18:36:156,-1.18496,-0.896209,-9.96875,6.93987,-5.70642,-10.6121
2023-03-15 15:18:36:166,-1.2462,-0.931664,-9.92687,6.93462,-5.70577,-10.5983
2023-03-15 15:18:36:176,-1.29006,-0.986128,-9.84515,6.94503,-5.70187,-10.5834
2023-03-15 15:18:36:186,-1.32905,-1.04498,-9.7611,6.96769,-5.68465,-10.5712
2023-03-15 15:18:36:196,-1.34085,-1.0989,-9.68393,7.00125,-5.66034,-10.5647
2023-03-15 15:18:36:206,-1.35876,-1.16711,-9.60777,7.03954,-5.62992,-10.5696
2023-03-15 15:18:36:216,-1.34048,-1.21212,-9.53129,7.08006,-5.59403,-10.5844
2023-03-15 15:18:36:226,-1.24949,-1.25262,-9.49681,7.11555,-5.54873,-10.6053
2023-03-15 15:18:36:236,-1.14059,-1.28658,-9.52455,7.14813,-5.49676,-10.6398
2023-03-15 15:18:36:246,-1.03903,-1.28957,-9.5741,7.17263,-5.44024,-10.6792
2023-03-15 15:18:36:256,-0.939962,-1.28542,-9.56225,7.19631,-5.37958,-10.726
2023-03-15 15:18:36:266,-0.834565,-1.31977,-9.5312,7.21328,-5.31957,-10.7769
2023-03-15 15:18:36:276,-0.763918,-1.33003,-9.53489,7.22949,-5.25817,-10.8226
2023-03-15 15:18:36:286,-0.732036,-1.32644,-9.57079,7.23588,-5.19759,-10.8676
2023-03-15 15:18:36:296,-0.675495,-1.29376,-9.6083,7.23543,-5.13729,-10.91
2023-03-15 15:18:36:306,-0.629587,-1.26756,-9.64397,7.22984,-5.07893,-10.9507
2023-03-15 15:18:36:316,-0.595421,-1.25008,-9.65593,7.21913,-5.02488,-10.9811
2023-03-15 15:18:36:326,-0.576059,-1.25372,-9.65101,7.20775,-4.96847,-11.0076
2023-03-15 15:18:36:336,-0.590729,-1.22876,-9.67793,7.19475,-4.91803,-11.0263
2023-03-15 15:18:36:346,-0.592328,-1.2111,-9.69463,7.17771,-4.86941,-11.0384
2023-03-15 15:18:36:356,-0.595768,-1.19359,-9.73251,7.16436,-4.82046,-11.0461
2023-03-15 15:18:36:366,-0.63778,-1.1638,-9.75413,7.14864,-4.7726,-11.0527
2023-03-15 15:18:36:376,-0.660471,-1.15294,-9.76879,7.13599,-4.72981,-11.0544
2023-03-15 15:18:36:386,-0.656824,-1.14799,-9.78265,7.12961,-4.68654,-11.0563
2023-03-15 15:18:36:396,-0.66615,-1.1459,-9.79173,7.12625,-4.64472,-11.057
2023-03-15 15:18:36:406,-0.659174,-1.15269,-9.76775,7.12601,-4.60689,-11.0589
2023-03-15 15:18:36:416,-0.654147,-1.157,-9.76576,7.13292,-4.56494,-11.0581
2023-03-15 15:18:36:426,-0.643245,-1.1559,-9.75873,7.14154,-4.52727,-11.0618
2023-03-15 15:18:36:436,-0.623224,-1.1625,-9.7538,7.15642,-4.49638,-11.0658
2023-03-15 15:18:36:446,-0.640667,-1.18556,-9.72802,7.17542,-4.47273,-11.0695
2023-03-15 15:18:36:456,-0.662068,-1.21373,-9.70923,7.19661,-4.44876,-11.0748
2023-03-15 15:18:36:466,-0.679693,-1.23576,-9.67534,7.21983,-4.42637,-11.0764
2023-03-15 15:18:36:476,-0.678461,-1.25734,-9.65674,7.24217,-4.40651,-11.0721
2023-03-15 15:18:36:486,-0.65864,-1.25883,-9.64257,7.26531,-4.38874,-11.0726
2023-03-15 15:18:36:496,-0.655215,-1.26272,-9.63886,7.28071,-4.37047,-11.0703
2023-03-15 15:18:36:506,-0.671102,-1.27309,-9.6203,7.29867,-4.35323,-11.0658
2023-03-15 15:18:36:516,-0.663231,-1.27359,-9.62306,7.31512,-4.33377,-11.0589
2023-03-15 15:18:36:526,-0.656359,-1.27654,-9.63188,7.33036,-4.31321,-11.0535
2023-03-15 15:18:36:536,-0.700438,-1.27058,-9.60475,7.34493,-4.29527,-11.0463
2023-03-15 15:18:36:546,-0.706024,-1.26794,-9.58547,7.35556,-4.27412,-11.0366
2023-03-15 15:18:36:556,-0.682568,-1.26385,-9.57592,7.36164,-4.25497,-11.0237
2023-03-15 15:18:36:566,-0.688067,-1.27751,-9.5585,7.36692,-4.23607,-11.0144
2023-03-15 15:18:36:576,-0.715721,-1.29388,-9.55976,7.36734,-4.21532,-11.0045
2023-03-15 15:18:36:586,-0.743134,-1.29262,-9.62253,7.36433,-4.19447,-10.9993
2023-03-15 15:18:36:596,-0.716791,-1.24147,-9.74861,7.35415,-4.17608,-10.9944
2023-03-15 15:18:36:606,-0.701427,-1.2214,-9.78653,7.34612,-4.15846,-10.9959
2023-03-15 15:18:36:616,-0.688988,-1.2652,-9.73929,7.34747,-4.14092,-11.0013
2023-03-15 15:18:36:626,-0.672835,-1.29996,-9.70471,7.34881,-4.12777,-11.0029
2023-03-15 15:18:36:636,-0.672719,-1.29298,-9.68291,7.3482,-4.12292,-11.0093
2023-03-15 15:18:36:646,-0.68353,-1.26765,-9.62166,7.34134,-4.11743,-11.0155
2023-03-15 15:18:36:656,-0.671024,-1.27941,-9.55713,7.33495,-4.11041,-11.0261
2023-03-15 15:18:36:666,-0.653316,-1.24747,-9.61623,7.31905,-4.10138,-11.0334
2023-03-15 15:18:36:676,-0.608297,-1.17605,-9.73327,7.29889,-4.09456,-11.0462
2023-03-15 15:18:36:686,-0.606037,-1.13658,-9.72059,7.2783,-4.08578,-11.0579
2023-03-15 15:18:36:696,-0.608788,-1.22071,-9.66211,7.26753,-4.0789,-11.0662
2023-03-15 15:18:36:706,-0.623878,-1.16442,-9.72108,7.25183,-4.07094,-11.0676
2023-03-15 15:18:36:716,-0.624975,-1.09614,-9.74583,7.23989,-4.06526,-11.0724
2023-03-15 15:18:36:726,-0.636412,-1.2022,-9.62962,7.23873,-4.05846,-11.0764
2023-03-15 15:18:36:736,-0.624064,-1.24245,-9.55959,7.23593,-4.04612,-11.074
2023-03-15 15:18:36:746,-0.577347,-1.22134,-9.63054,7.23074,-4.03442,-11.0671
2023-03-15 15:18:36:756,-0.557169,-1.20385,-9.67239,7.22682,-4.02351,-11.0577
2023-03-15 15:18:36:766,-0.568199,-1.22766,-9.65058,7.22193,-4.01422,-11.0449
2023-03-15 15:18:36:776,-0.573049,-1.24309,-9.63365,7.211,-4.00933,-11.0287
2023-03-15 15:18:36:786,-0.55671,-1.23298,-9.6346,7.19697,-4.00194,-11.0089
2023-03-15 15:18:36:796,-0.58637,-1.22758,-9.64925,7.18343,-3.99807,-10.9879
2023-03-15 15:18:36:806,-0.629158,-1.19848,-9.65779,7.16457,-3.99937,-10.9639
2023-03-15 15:18:36:816,-0.655453,-1.18559,-9.67892,7.1408,-3.999,-10.9397
2023-03-15 15:18:36:826,-0.645606,-1.16782,-9.71418,7.12056,-3.99773,-10.9183
2023-03-15 15:18:36:836,-0.634372,-1.16792,-9.72849,7.10534,-3.99587,-10.9014
2023-03-15 15:18:36:846,-0.632586,-1.17742,-9.72311,7.0864,-4.00033,-10.8865
2023-03-15 15:18:36:856,-0.655703,-1.16528,-9.70735,7.0693,-4.01066,-10.8693
2023-03-15 15:18:36:866,-0.698823,-1.13054,-9.70107,7.05217,-4.01832,-10.8539
2023-03-15 15:18:36:876,-0.707861,-1.1146,-9.71315,7.03422,-4.02826,-10.841
2023-03-15 15:18:36:886,-0.696178,-1.11153,-9.75216,7.0149,-4.03254,-10.8298
2023-03-15 15:18:36:896,-0.689272,-1.09324,-9.78194,6.99979,-4.03507,-10.82
2023-03-15 15:18:36:906,-0.686338,-1.08401,-9.79046,6.98639,-4.03981,-10.8122
2023-03-15 15:18:36:916,-0.672048,-1.07655,-9.76581,6.98079,-4.04509,-10.8035
2023-03-15 15:18:36:926,-0.668159,-1.06878,-9.75586,6.97855,-4.05065,-10.7943
2023-03-15 15:18:36:936,-0.676728,-1.08696,-9.73303,6.98211,-4.05636,-10.787
2023-03-15 15:18:36:946,-0.689783,-1.12498,-9.70252,6.98494,-4.06247,-10.7745
2023-03-15 15:18:36:956,-0.684866,-1.13027,-9.67268,6.98995,-4.07242,-10.7613
2023-03-15 15:18:36:966,-0.696748,-1.13703,-9.6653,6.99892,-4.08477,-10.7483
2023-03-15 15:18:36:976,-0.732275,-1.14549,-9.64744,7.00138,-4.09418,-10.7377
2023-03-15 15:18:36:986,-0.74321,-1.15856,-9.64718,7.00318,-4.10561,-10.727
2023-03-15 15:18:36:996,-0.73163,-1.14606,-9.66919,7.00423,-4.11771,-10.7155
2023-03-15 15:18:37:6,-0.722192,-1.14999,-9.67974,7.00771,-4.12559,-10.7096
2023-03-15 15:18:37:16,-0.714754,-1.16591,-9.66603,7.01051,-4.13726,-10.6955
2023-03-15 15:18:37:26,-0.705961,-1.16919,-9.65466,7.01609,-4.14797,-10.6843
2023-03-15 15:18:37:36,-0.707976,-1.16306,-9.66076,7.01664,-4.15599,-10.6707
2023-03-15 15:18:37:46,-0.728471,-1.14153,-9.67404,7.01273,-4.16212,-10.6537
2023-03-15 15:18:37:56,-0.721541,-1.12998,-9.6844,7.01206,-4.17341,-10.6386
2023-03-15 15:18:37:66,-0.725416,-1.15039,-9.66989,7.01092,-4.18069,-10.6224
2023-03-15 15:18:37:76,-0.726622,-1.1754,-9.65896,7.01315,-4.1823,-10.6029
2023-03-15 15:18:37:86,-0.735664,-1.15674,-9.7027,7.01096,-4.19027,-10.5837
2023-03-15 15:18:37:96,-0.749556,-1.11551,-9.70877,7.00947,-4.19831,-10.5658
2023-03-15 15:18:37:106,-0.744311,-1.14983,-9.66913,7.01234,-4.20798,-10.5496
2023-03-15 15:18:37:116,-0.732885,-1.1624,-9.6678,7.01325,-4.21756,-10.5324
2023-03-15 15:18:37:126,-0.714658,-1.13227,-9.71172,7.00953,-4.22779,-10.5175
2023-03-15 15:18:37:136,-0.721719,-1.11122,-9.73651,7.00961,-4.24053,-10.5047
2023-03-15 15:18:37:146,-0.75938,-1.12987,-9.6995,7.01246,-4.25832,-10.4965
2023-03-15 15:18:37:156,-0.767858,-1.15248,-9.65775,7.01827,-4.26984,-10.4838
2023-03-15 15:18:37:166,-0.782567,-1.16298,-9.66623,7.02188,-4.28382,-10.4725
2023-03-15 15:18:37:176,-0.781698,-1.13218,-9.68611,7.02647,-4.2957,-10.4615
2023-03-15 15:18:37:186,-0.776552,-1.12533,-9.70202,7.02914,-4.30959,-10.4534
2023-03-15 15:18:37:196,-0.768244,-1.15143,-9.67739,7.03404,-4.32087,-10.4448
2023-03-15 15:18:37:206,-0.777505,-1.16088,-9.67594,7.04191,-4.33059,-10.4371
2023-03-15 15:18:37:216,-0.802613,-1.16737,-9.69432,7.04839,-4.33851,-10.4303
2023-03-15 15:18:37:226,-0.796227,-1.1603,-9.6721,7.05604,-4.34729,-10.4247
2023-03-15 15:18:37:236,-0.799976,-1.18358,-9.63388,7.06155,-4.35574,-10.417
2023-03-15 15:18:37:246,-0.814999,-1.19332,-9.61762,7.07006,-4.36325,-10.4082
2023-03-15 15:18:37:256,-0.815649,-1.1924,-9.6284,7.07352,-4.37085,-10.3981
2023-03-15 15:18:37:266,-0.799451,-1.20067,-9.63069,7.07935,-4.37396,-10.3918
2023-03-15 15:18:37:276,-0.767226,-1.20117,-9.62462,7.08133,-4.37665,-10.3874
2023-03-15 15:18:37:286,-0.769219,-1.19938,-9.64165,7.08294,-4.37868,-10.3825
2023-03-15 15:18:37:296,-0.781801,-1.19089,-9.67296,7.08485,-4.38077,-10.3765
2023-03-15 15:18:37:306,-0.7874,-1.16151,-9.70973,7.08526,-4.38257,-10.3726
2023-03-15 15:18:37:316,-0.772672,-1.1569,-9.72557,7.0848,-4.38353,-10.3709
2023-03-15 15:18:37:326,-0.733463,-1.17983,-9.70744,7.08822,-4.38331,-10.3733
2023-03-15 15:18:37:336,-0.695038,-1.20369,-9.66349,7.09385,-4.38067,-10.3698
2023-03-15 15:18:37:346,-0.682858,-1.22317,-9.65394,7.09758,-4.3825,-10.3616
2023-03-15 15:18:37:356,-0.728723,-1.20521,-9.65201,7.09558,-4.38835,-10.3516
2023-03-15 15:18:37:366,-0.746739,-1.18893,-9.67106,7.09059,-4.39455,-10.3402
2023-03-15 15:18:37:376,-0.754401,-1.16419,-9.66412,7.08762,-4.40001,-10.3313
2023-03-15 15:18:37:386,-0.759959,-1.15848,-9.67172,7.08286,-4.40682,-10.3211
2023-03-15 15:18:37:396,-0.767397,-1.14787,-9.67844,7.08226,-4.40881,-10.3093
2023-03-15 15:18:37:406,-0.778137,-1.12655,-9.6777,7.0791,-4.41457,-10.2968
2023-03-15 15:18:37:416,-0.796219,-1.13225,-9.64713,7.07932,-4.42126,-10.2867
2023-03-15 15:18:37:426,-0.810535,-1.11532,-9.64431,7.07603,-4.4316,-10.2803
2023-03-15 15:18:37:436,-0.818093,-1.11194,-9.66324,7.07685,-4.43338,-10.2728
2023-03-15 15:18:37:446,-0.810645,-1.136,-9.64355,7.08152,-4.43867,-10.2723
2023-03-15 15:18:37:456,-0.808202,-1.16072,-9.61668,7.0892,-4.44142,-10.2721
2023-03-15 15:18:37:466,-0.789695,-1.18388,-9.6471,7.09207,-4.44291,-10.274
2023-03-15 15:18:37:476,-0.786725,-1.17436,-9.66074,7.09463,-4.44056,-10.2712
2023-03-15 15:18:37:486,-0.775438,-1.17957,-9.65027,7.10151,-4.43725,-10.2682
2023-03-15 15:18:37:496,-0.745026,-1.19286,-9.65036,7.10399,-4.43542,-10.267
2023-03-15 15:18:37:506,-0.744294,-1.19762,-9.66382,7.10695,-4.43618,-10.2649
2023-03-15 15:18:37:516,-0.754899,-1.17971,-9.66932,7.10737,-4.43353,-10.265
2023-03-15 15:18:37:526,-0.770398,-1.16936,-9.65728,7.10446,-4.42914,-10.2623
2023-03-15 15:18:37:536,-0.781141,-1.15424,-9.66097,7.10169,-4.421,-10.2624
2023-03-15 15:18:37:546,-0.747881,-1.14743,-9.71573,7.09825,-4.4119,-10.2632
2023-03-15 15:18:37:556,-0.695331,-1.13986,-9.71477,7.09725,-4.39975,-10.263
2023-03-15 15:18:37:566,-0.672063,-1.14265,-9.69301,7.1011,-4.38995,-10.2563
2023-03-15 15:18:37:576,-0.688857,-1.14965,-9.67438,7.10137,-4.38338,-10.248
2023-03-15 15:18:37:586,-0.719396,-1.14795,-9.68097,7.09966,-4.37651,-10.2377
2023-03-15 15:18:37:596,-0.721621,-1.1533,-9.68181,7.09784,-4.3715,-10.2294
2023-03-15 15:18:37:606,-0.736982,-1.13659,-9.66743,7.09832,-4.36743,-10.2214
2023-03-15 15:18:37:616,-0.746186,-1.15292,-9.66392,7.10103,-4.36531,-10.2148
2023-03-15 15:18:37:626,-0.724131,-1.17161,-9.65538,7.10114,-4.35873,-10.2074
2023-03-15 15:18:37:636,-0.731022,-1.17319,-9.63111,7.10215,-4.35516,-10.2045
2023-03-15 15:18:37:646,-0.738459,-1.18395,-9.60192,7.10179,-4.35022,-10.1943
2023-03-15 15:18:37:656,-0.726913,-1.20569,-9.62547,7.09688,-4.34752,-10.1902
2023-03-15 15:18:37:666,-0.714938,-1.1791,-9.6702,7.0903,-4.34399,-10.1848
2023-03-15 15:18:37:676,-0.704907,-1.14623,-9.73304,7.08029,-4.33986,-10.1774
2023-03-15 15:18:37:686,-0.702413,-1.13275,-9.74263,7.07448,-4.33653,-10.1706
2023-03-15 15:18:37:696,-0.694253,-1.14948,-9.7083,7.07153,-4.3325,-10.1615
2023-03-15 15:18:37:706,-0.681739,-1.16845,-9.68488,7.07378,-4.3298,-10.1531
2023-03-15 15:18:37:716,-0.687278,-1.16297,-9.70043,7.07394,-4.33306,-10.1429
2023-03-15 15:18:37:726,-0.699951,-1.14703,-9.68253,7.07275,-4.33793,-10.1341
2023-03-15 15:18:37:736,-0.714185,-1.1456,-9.70349,7.07384,-4.34353,-10.1254
2023-03-15 15:18:37:746,-0.722112,-1.13412,-9.74274,7.07702,-4.34844,-10.1183
2023-03-15 15:18:37:756,-0.721051,-1.14218,-9.74758,7.07949,-4.35728,-10.1106
2023-03-15 15:18:37:766,-0.726949,-1.14358,-9.74207,7.08683,-4.36434,-10.1037
2023-03-15 15:18:37:776,-0.729709,-1.1515,-9.71904,7.09675,-4.37317,-10.095
2023-03-15 15:18:37:786,-0.7393,-1.17103,-9.67348,7.11369,-4.37855,-10.0876
2023-03-15 15:18:37:796,-0.750268,-1.20752,-9.6425,7.13216,-4.3866,-10.077
2023-03-15 15:18:37:806,-0.756498,-1.20078,-9.64182,7.14759,-4.38617,-10.0639
2023-03-15 15:18:37:816,-0.7524,-1.1966,-9.66047,7.16023,-4.38749,-10.0495
2023-03-15 15:18:37:826,-0.742562,-1.18867,-9.6835,7.16927,-4.38972,-10.035
2023-03-15 15:18:37:836,-0.739413,-1.19543,-9.6762,7.18086,-4.39103,-10.0192
2023-03-15 15:18:37:846,-0.764357,-1.19592,-9.64525,7.19225,-4.39097,-10.0008
2023-03-15 15:18:37:856,-0.781557,-1.20463,-9.62953,7.20521,-4.39243,-9.97952
2023-03-15 15:18:37:866,-0.800648,-1.19667,-9.62613,7.21446,-4.39774,-9.96196
2023-03-15 15:18:37:876,-0.807178,-1.1884,-9.65483,7.22263,-4.40002,-9.94948
2023-03-15 15:18:37:886,-0.812424,-1.17729,-9.65897,7.23163,-4.40131,-9.93682
2023-03-15 15:18:37:896,-0.796295,-1.17425,-9.67149,7.23777,-4.40187,-9.92387
2023-03-15 15:18:37:906,-0.769727,-1.16615,-9.6826,7.24905,-4.40066,-9.91543
2023-03-15 15:18:37:916,-0.759486,-1.17032,-9.68285,7.26085,-4.4007,-9.9087
2023-03-15 15:18:37:926,-0.78122,-1.1676,-9.68312,7.27431,-4.40037,-9.89937
2023-03-15 15:18:37:936,-0.802027,-1.1592,-9.69488,7.28874,-4.39866,-9.88882
2023-03-15 15:18:37:946,-0.817244,-1.16342,-9.69015,7.30671,-4.39582,-9.88349
2023-03-15 15:18:37:956,-0.815793,-1.19238,-9.6815,7.32446,-4.39177,-9.87804
2023-03-15 15:18:37:966,-0.812013,-1.20349,-9.65738,7.34599,-4.38802,-9.87376
2023-03-15 15:18:37:976,-0.793947,-1.19303,-9.66411,7.36409,-4.37948,-9.87032
2023-03-15 15:18:37:986,-0.764219,-1.19248,-9.63512,7.37905,-4.36863,-9.86542
2023-03-15 15:18:37:996,-0.739455,-1.23553,-9.61707,7.39699,-4.35975,-9.85922
2023-03-15 15:18:38:6,-0.751962,-1.25519,-9.639,7.41551,-4.35129,-9.85391
2023-03-15 15:18:38:16,-0.771618,-1.21994,-9.69196,7.43087,-4.34209,-9.84262
2023-03-15 15:18:38:26,-0.730026,-1.2062,-9.71122,7.44743,-4.33407,-9.84014
2023-03-15 15:18:38:36,-0.699238,-1.24121,-9.70016,7.46694,-4.32206,-9.83881
2023-03-15 15:18:38:46,-0.647894,-1.27341,-9.66751,7.48879,-4.31378,-9.83547
2023-03-15 15:18:38:56,-0.650523,-1.28564,-9.65346,7.5064,-4.31156,-9.82589
2023-03-15 15:18:38:66,-0.697384,-1.28361,-9.62603,7.5208,-4.3136,-9.81493
2023-03-15 15:18:38:76,-0.723947,-1.2759,-9.62263,7.52912,-4.31493,-9.79978
2023-03-15 15:18:38:86,-0.744619,-1.25429,-9.63689,7.53541,-4.3129,-9.78738
2023-03-15 15:18:38:96,-0.765056,-1.23076,-9.65083,7.54333,-4.31328,-9.77248
2023-03-15 15:18:38:106,-0.779154,-1.20828,-9.66743,7.54797,-4.31573,-9.75877
2023-03-15 15:18:38:116,-0.779402,-1.19692,-9.65945,7.55024,-4.31705,-9.74876
2023-03-15 15:18:38:126,-0.788329,-1.17409,-9.65055,7.55435,-4.31528,-9.7421
2023-03-15 15:18:38:136,-0.803472,-1.17348,-9.65356,7.55989,-4.31393,-9.73519
2023-03-15 15:18:38:146,-0.814172,-1.19315,-9.6269,7.57044,-4.30927,-9.73001
2023-03-15 15:18:38:156,-0.82315,-1.23368,-9.57993,7.58258,-4.30198,-9.72737
2023-03-15 15:18:38:166,-0.790726,-1.25842,-9.56724,7.59643,-4.29431,-9.72716
2023-03-15 15:18:38:176,-0.764954,-1.25386,-9.59091,7.60362,-4.29029,-9.724
2023-03-15 15:18:38:186,-0.750598,-1.2557,-9.65265,7.60685,-4.28359,-9.72469
2023-03-15 15:18:38:196,-0.75883,-1.27399,-9.72664,7.61276,-4.28205,-9.72837
2023-03-15 15:18:38:206,-0.741445,-1.20276,-9.7848,7.61476,-4.28391,-9.73589
2023-03-15 15:18:38:216,-0.715645,-1.21969,-9.73565,7.62685,-4.28131,-9.74837
2023-03-15 15:18:38:226,-0.728533,-1.2859,-9.63057,7.64564,-4.28001,-9.75567
2023-03-15 15:18:38:236,-0.739639,-1.30365,-9.60253,7.65799,-4.27557,-9.75894
2023-03-15 15:18:38:246,-0.712605,-1.27341,-9.67397,7.66782,-4.26955,-9.76325
2023-03-15 15:18:38:256,-0.691533,-1.2247,-9.73173,7.66999,-4.26128,-9.76358
2023-03-15 15:18:38:266,-0.665308,-1.19944,-9.75323,7.67923,-4.24879,-9.76681
2023-03-15 15:18:38:276,-0.614416,-1.22649,-9.75597,7.69196,-4.23808,-9.7727
2023-03-15 15:18:38:286,-0.60304,-1.2504,-9.71721,7.70694,-4.22982,-9.76905
2023-03-15 15:18:38:296,-0.646828,-1.2514,-9.66797,7.72404,-4.22425,-9.75961
2023-03-15 15:18:38:306,-0.681392,-1.28042,-9.63517,7.74057,-4.21923,-9.75019
2023-03-15 15:18:38:316,-0.723975,-1.2825,-9.63212,7.7562,-4.21721,-9.74086
2023-03-15 15:18:38:326,-0.713177,-1.27983,-9.65976,7.77122,-4.20867,-9.73456
2023-03-15 15:18:38:336,-0.675629,-1.28136,-9.68424,7.78393,-4.20525,-9.7233
2023-03-15 15:18:38:346,-0.660111,-1.29096,-9.69304,7.79721,-4.20096,-9.71689
2023-03-15 15:18:38:356,-0.671312,-1.30866,-9.6689,7.81112,-4.19949,-9.70457
2023-03-15 15:18:38:366,-0.683297,-1.29818,-9.66086,7.82571,-4.20133,-9.69275
2023-03-15 15:18:38:376,-0.694902,-1.30523,-9.65957,7.83971,-4.20428,-9.68227
2023-03-15 15:18:38:386,-0.674546,-1.31456,-9.64456,7.85384,-4.20315,-9.67304
2023-03-15 15:18:38:396,-0.668326,-1.3272,-9.62972,7.87056,-4.2052,-9.66581
2023-03-15 15:18:38:406,-0.680807,-1.34859,-9.62769,7.88776,-4.20965,-9.65615
2023-03-15 15:18:38:416,-0.685154,-1.35964,-9.6258,7.90189,-4.21678,-9.64595
2023-03-15 15:18:38:426,-0.693037,-1.36609,-9.60995,7.9201,-4.2282,-9.63879
2023-03-15 15:18:38:436,-0.708485,-1.37368,-9.58435,7.93406,-4.24109,-9.63183
2023-03-15 15:18:38:446,-0.717716,-1.38174,-9.58916,7.9431,-4.25285,-9.62179
2023-03-15 15:18:38:456,-0.722393,-1.37045,-9.59144,7.95178,-4.26302,-9.61164
2023-03-15 15:18:38:466,-0.723236,-1.38002,-9.59503,7.95562,-4.27117,-9.60374
2023-03-15 15:18:38:476,-0.729683,-1.37673,-9.59353,7.96125,-4.28031,-9.59336
2023-03-15 15:18:38:486,-0.739168,-1.37212,-9.58891,7.96172,-4.29196,-9.58278
2023-03-15 15:18:38:496,-0.733954,-1.34914,-9.58185,7.95996,-4.3035,-9.57017
2023-03-15 15:18:38:506,-0.745362,-1.34906,-9.60169,7.95656,-4.31074,-9.5568
2023-03-15 15:18:38:516,-0.75995,-1.35871,-9.62503,7.95128,-4.31521,-9.54108
2023-03-15 15:18:38:526,-0.763949,-1.3328,-9.64459,7.94584,-4.31844,-9.52883
2023-03-15 15:18:38:536,-0.775002,-1.31389,-9.66535,7.94157,-4.32241,-9.5159
2023-03-15 15:18:38:546,-0.775305,-1.31202,-9.66138,7.9329,-4.32207,-9.50557
2023-03-15 15:18:38:556,-0.756137,-1.3098,-9.64568,7.92857,-4.32124,-9.49725
2023-03-15 15:18:38:566,-0.752282,-1.32189,-9.62375,7.92396,-4.32285,-9.48772
2023-03-15 15:18:38:576,-0.745636,-1.3178,-9.62393,7.9211,-4.32444,-9.47541
2023-03-15 15:18:38:586,-0.756738,-1.31265,-9.64136,7.91613,-4.32586,-9.46929
2023-03-15 15:18:38:596,-0.76097,-1.28891,-9.66108,7.90712,-4.32398,-9.45956
2023-03-15 15:18:38:606,-0.758141,-1.29487,-9.66464,7.8993,-4.3259,-9.45578
2023-03-15 15:18:38:616,-0.752219,-1.29841,-9.6608,7.89461,-4.32761,-9.44962
2023-03-15 15:18:38:626,-0.744413,-1.30058,-9.66235,7.89185,-4.32902,-9.44781
2023-03-15 15:18:38:636,-0.73281,-1.30878,-9.66528,7.88785,-4.32838,-9.44522
2023-03-15 15:18:38:646,-0.744841,-1.31045,-9.67391,7.883,-4.32966,-9.44226
2023-03-15 15:18:38:656,-0.765178,-1.32118,-9.67113,7.88253,-4.33279,-9.4355
2023-03-15 15:18:38:666,-0.763935,-1.32396,-9.65693,7.88098,-4.33331,-9.4305
2023-03-15 15:18:38:676,-0.759362,-1.32541,-9.62702,7.8792,-4.33234,-9.42507
2023-03-15 15:18:38:686,-0.747573,-1.33002,-9.60285,7.87569,-4.32927,-9.41973
2023-03-15 15:18:38:696,-0.698984,-1.33707,-9.61477,7.86983,-4.32415,-9.41471
2023-03-15 15:18:38:706,-0.688027,-1.31446,-9.62555,7.86472,-4.32063,-9.40926
2023-03-15 15:18:38:716,-0.688321,-1.30726,-9.63776,7.857,-4.3191,-9.40402
2023-03-15 15:18:38:726,-0.671084,-1.30079,-9.68382,7.84988,-4.31859,-9.40129
2023-03-15 15:18:38:736,-0.667512,-1.29287,-9.72723,7.8428,-4.31904,-9.39639
2023-03-15 15:18:38:746,-0.644205,-1.31224,-9.73477,7.84108,-4.31864,-9.39287
2023-03-15 15:18:38:756,-0.615263,-1.33685,-9.72505,7.84361,-4.32235,-9.38356
2023-03-15 15:18:38:766,-0.633784,-1.33355,-9.69159,7.84559,-4.3298,-9.37193
2023-03-15 15:18:38:776,-0.678459,-1.32721,-9.64782,7.84377,-4.33887,-9.3566
2023-03-15 15:18:38:786,-0.706488,-1.3267,-9.63179,7.84201,-4.35411,-9.34031
2023-03-15 15:18:38:796,-0.742556,-1.31183,-9.63457,7.8357,-4.36806,-9.32494
2023-03-15 15:18:38:806,-0.761972,-1.28066,-9.64539,7.82439,-4.37663,-9.30444
2023-03-15 15:18:38:816,-0.754181,-1.2526,-9.65666,7.81595,-4.38716,-9.29041
2023-03-15 15:18:38:826,-0.764408,-1.24584,-9.65236,7.80598,-4.39347,-9.27716
2023-03-15 15:18:38:836,-0.770626,-1.23779,-9.63741,7.7954,-4.40257,-9.26385
2023-03-15 15:18:38:846,-0.780566,-1.23656,-9.64372,7.78454,-4.41356,-9.2497
2023-03-15 15:18:38:856,-0.805352,-1.22053,-9.64273,7.77772,-4.42168,-9.23742
2023-03-15 15:18:38:866,-0.828888,-1.22147,-9.6502,7.77261,-4.42792,-9.23018
2023-03-15 15:18:38:876,-0.832059,-1.23046,-9.64054,7.76878,-4.43615,-9.2266
2023-03-15 15:18:38:886,-0.828007,-1.25987,-9.62834,7.76626,-4.44295,-9.22554
2023-03-15 15:18:38:896,-0.812531,-1.28282,-9.63236,7.76696,-4.45204,-9.22463
2023-03-15 15:18:38:906,-0.8029,-1.28922,-9.64055,7.7639,-4.45847,-9.22493
2023-03-15 15:18:38:916,-0.774074,-1.2757,-9.63613,7.76164,-4.46122,-9.229
2023-03-15 15:18:38:926,-0.746874,-1.27841,-9.6256,7.75419,-4.46176,-9.22711
2023-03-15 15:18:38:936,-0.759506,-1.26737,-9.63835,7.74711,-4.46338,-9.22698
2023-03-15 15:18:38:946,-0.776075,-1.24666,-9.6645,7.73691,-4.46377,-9.22596
2023-03-15 15:18:38:956,-0.775063,-1.22504,-9.69448,7.72771,-4.46534,-9.22772
2023-03-15 15:18:38:966,-0.744,-1.20171,-9.73779,7.71678,-4.4656,-9.23091
2023-03-15 15:18:38:976,-0.71276,-1.21651,-9.73536,7.71132,-4.46399,-9.23267
2023-03-15 15:18:38:986,-0.702098,-1.25806,-9.68689,7.71106,-4.46297,-9.23338
2023-03-15 15:18:38:996,-0.697775,-1.27073,-9.65686,7.70963,-4.46439,-9.23125
2023-03-15 15:18:39:6,-0.73414,-1.26463,-9.6535,7.70785,-4.46798,-9.22815
2023-03-15 15:18:39:16,-0.760969,-1.24518,-9.67637,7.70523,-4.47165,-9.22364
2023-03-15 15:18:39:26,-0.748803,-1.2404,-9.70209,7.7037,-4.47757,-9.22209
2023-03-15 15:18:39:36,-0.729792,-1.23995,-9.72857,7.70283,-4.48228,-9.21772
2023-03-15 15:18:39:46,-0.730082,-1.23509,-9.73176,7.70622,-4.48444,-9.21748
2023-03-15 15:18:39:56,-0.736117,-1.24775,-9.70949,7.71345,-4.49328,-9.21503
2023-03-15 15:18:39:66,-0.730432,-1.25035,-9.69346,7.72455,-4.49949,-9.20953
2023-03-15 15:18:39:76,-0.751712,-1.26548,-9.6689,7.73437,-4.50443,-9.19917
2023-03-15 15:18:39:86,-0.773838,-1.26879,-9.62881,7.74555,-4.51164,-9.19236
2023-03-15 15:18:39:96,-0.770982,-1.2864,-9.60513,7.75497,-4.5199,-9.1832
2023-03-15 15:18:39:106,-0.763428,-1.29092,-9.59934,7.76278,-4.52756,-9.17497
2023-03-15 15:18:39:116,-0.763705,-1.29887,-9.62202,7.76832,-4.53564,-9.16834
2023-03-15 15:18:39:126,-0.76113,-1.29792,-9.65436,7.77411,-4.54283,-9.16282
2023-03-15 15:18:39:136,-0.747402,-1.28132,-9.66529,7.77825,-4.5535,-9.15648
2023-03-15 15:18:39:146,-0.762827,-1.27775,-9.64891,7.78392,-4.56124,-9.14832
2023-03-15 15:18:39:156,-0.777107,-1.29547,-9.64738,7.79093,-4.5703,-9.14169
2023-03-15 15:18:39:166,-0.778245,-1.28927,-9.6444,7.8028,-4.5811,-9.13194
2023-03-15 15:18:39:176,-0.781699,-1.28927,-9.63341,7.81142,-4.59203,-9.11948
2023-03-15 15:18:39:186,-0.791187,-1.29491,-9.6263,7.8191,-4.60353,-9.10666
2023-03-15 15:18:39:196,-0.792044,-1.3011,-9.63925,7.82299,-4.61323,-9.09161
2023-03-15 15:18:39:206,-0.786134,-1.28082,-9.66043,7.82906,-4.62103,-9.08224
2023-03-15 15:18:39:216,-0.801702,-1.27878,-9.67521,7.8348,-4.62764,-9.07195
2023-03-15 15:18:39:226,-0.821558,-1.28911,-9.68363,7.84174,-4.63548,-9.06056
2023-03-15 15:18:39:236,-0.834196,-1.26805,-9.65536,7.85006,-4.64141,-9.04927
2023-03-15 15:18:39:246,-0.817244,-1.25363,-9.66794,7.85592,-4.64846,-9.04127
2023-03-15 15:18:39:256,-0.798459,-1.2527,-9.67213,7.86426,-4.65514,-9.03701
2023-03-15 15:18:39:266,-0.81036,-1.25769,-9.66443,7.8787,-4.65939,-9.0309
2023-03-15 15:18:39:276,-0.811941,-1.27679,-9.65596,7.89055,-4.66264,-9.02477
2023-03-15 15:18:39:286,-0.806296,-1.28475,-9.64859,7.90003,-4.66816,-9.01844
2023-03-15 15:18:39:296,-0.796105,-1.29708,-9.65237,7.91049,-4.67581,-9.01217
2023-03-15 15:18:39:306,-0.790506,-1.28452,-9.64542,7.92232,-4.68046,-9.00229
2023-03-15 15:18:39:316,-0.784396,-1.28677,-9.63661,7.93398,-4.68379,-8.99587
2023-03-15 15:18:39:326,-0.787451,-1.3088,-9.6338,7.94417,-4.68973,-8.98895
2023-03-15 15:18:39:336,-0.80067,-1.30286,-9.64359,7.95508,-4.69574,-8.98046
2023-03-15 15:18:39:346,-0.799945,-1.30287,-9.65398,7.96923,-4.69528,-8.97462
2023-03-15 15:18:39:356,-0.810763,-1.31274,-9.64538,7.98216,-4.70079,-8.96459
2023-03-15 15:18:39:366,-0.818432,-1.31132,-9.62705,7.99282,-4.70731,-8.95943
2023-03-15 15:18:39:376,-0.821707,-1.31407,-9.61848,8.00408,-4.71133,-8.95526
2023-03-15 15:18:39:386,-0.803145,-1.32085,-9.62643,8.01587,-4.71349,-8.94974
2023-03-15 15:18:39:396,-0.75748,-1.33705,-9.60905,8.03108,-4.71375,-8.94614
2023-03-15 15:18:39:406,-0.763754,-1.36836,-9.60322,8.0443,-4.71277,-8.93575
2023-03-15 15:18:39:416,-0.761355,-1.37265,-9.63049,8.05276,-4.71219,-8.92768
2023-03-15 15:18:39:426,-0.73749,-1.36494,-9.68167,8.06158,-4.71334,-8.91949
2023-03-15 15:18:39:436,-0.733575,-1.35209,-9.7191,8.07207,-4.71738,-8.91315
2023-03-15 15:18:39:446,-0.703953,-1.37914,-9.70475,8.0857,-4.71862,-8.90646
2023-03-15 15:18:39:456,-0.675099,-1.39389,-9.65507,8.09814,-4.72324,-8.89537
2023-03-15 15:18:39:466,-0.669868,-1.40774,-9.62187,8.10958,-4.73597,-8.88001
2023-03-15 15:18:39:476,-0.714256,-1.41823,-9.58669,8.11698,-4.74828,-8.86201
2023-03-15 15:18:39:486,-0.763793,-1.41685,-9.55072,8.12649,-4.76556,-8.84253
2023-03-15 15:18:39:496,-0.800896,-1.40641,-9.53505,8.1234,-4.78539,-8.82537
2023-03-15 15:18:39:506,-0.813813,-1.37057,-9.55546,8.11851,-4.80186,-8.80536
2023-03-15 15:18:39:516,-0.82389,-1.33979,-9.57572,8.10141,-4.81972,-8.78732
2023-03-15 15:18:39:526,-0.810541,-1.31682,-9.62263,8.08437,-4.83563,-8.77136
2023-03-15 15:18:39:536,-0.83969,-1.30945,-9.64298,8.07342,-4.85461,-8.75228
2023-03-15 15:18:39:546,-0.87259,-1.29792,-9.62265,8.06297,-4.86991,-8.74111
2023-03-15 15:18:39:556,-0.872603,-1.29915,-9.61527,8.05235,-4.88294,-8.72552
2023-03-15 15:18:39:566,-0.866617,-1.31049,-9.61948,8.04869,-4.8993,-8.71495
2023-03-15 15:18:39:576,-0.874179,-1.31816,-9.61628,8.04261,-4.91128,-8.70398
2023-03-15 15:18:39:586,-0.882817,-1.3537,-9.62908,8.03849,-4.9241,-8.69278
2023-03-15 15:18:39:596,-0.874473,-1.36258,-9.61695,8.03347,-4.93549,-8.68246
2023-03-15 15:18:39:606,-0.847371,-1.36095,-9.62634,8.02654,-4.94558,-8.67267
2023-03-15 15:18:39:616,-0.835972,-1.34621,-9.62734,8.01713,-4.95518,-8.66238
2023-03-15 15:18:39:626,-0.863328,-1.33793,-9.64414,8.00693,-4.96665,-8.65306
2023-03-15 15:18:39:636,-0.912955,-1.32405,-9.65497,7.99472,-4.97585,-8.64471
2023-03-15 15:18:39:646,-0.923911,-1.29657,-9.66681,7.9821,-4.98198,-8.63928
2023-03-15 15:18:39:656,-0.897717,-1.27942,-9.71107,7.96926,-4.98599,-8.63877
2023-03-15 15:18:39:666,-0.840124,-1.28335,-9.73535,7.95884,-4.98882,-8.63887
2023-03-15 15:18:39:676,-0.805576,-1.3007,-9.72093,7.95739,-4.99033,-8.63517
2023-03-15 15:18:39:686,-0.82686,-1.30818,-9.6917,7.95994,-4.99197,-8.63244
2023-03-15 15:18:39:696,-0.871896,-1.28696,-9.66131,7.95857,-4.99488,-8.62679
2023-03-15 15:18:39:706,-0.877088,-1.27903,-9.67249,7.95733,-4.99897,-8.6198
2023-03-15 15:18:39:716,-0.846385,-1.29871,-9.68968,7.96169,-4.99894,-8.61516
2023-03-15 15:18:39:726,-0.830107,-1.2969,-9.68402,7.96783,-4.9954,-8.6123
2023-03-15 15:18:39:736,-0.820683,-1.29366,-9.7006,7.97597,-4.99757,-8.6071
2023-03-15 15:18:39:746,-0.819055,-1.29896,-9.69134,7.98424,-4.99789,-8.60084
2023-03-15 15:18:39:756,-0.826828,-1.30529,-9.67069,7.99562,-4.99618,-8.59242
2023-03-15 15:18:39:766,-0.82,-1.32652,-9.66887,8.01001,-4.99801,-8.58514
2023-03-15 15:18:39:776,-0.841916,-1.32173,-9.67038,8.01965,-5.00168,-8.57682
2023-03-15 15:18:39:786,-0.854794,-1.30852,-9.6712,8.03462,-5.01112,-8.56825
2023-03-15 15:18:39:796,-0.862714,-1.32178,-9.65466,8.04886,-5.01965,-8.56411
2023-03-15 15:18:39:806,-0.852577,-1.33748,-9.60177,8.06437,-5.02632,-8.55879
2023-03-15 15:18:39:816,-0.822725,-1.36035,-9.58606,8.08092,-5.03273,-8.55086
2023-03-15 15:18:39:826,-0.8225,-1.38029,-9.56195,8.09216,-5.04238,-8.54421
2023-03-15 15:18:39:836,-0.823925,-1.39189,-9.5682,8.10299,-5.04978,-8.53058
2023-03-15 15:18:39:846,-0.838627,-1.35704,-9.60279,8.10991,-5.05663,-8.52053
2023-03-15 15:18:39:856,-0.848323,-1.38016,-9.58481,8.11812,-5.06558,-8.50831
2023-03-15 15:18:39:866,-0.867051,-1.37708,-9.56945,8.12099,-5.07815,-8.49306
2023-03-15 15:18:39:876,-0.880732,-1.36404,-9.59258,8.11963,-5.08871,-8.47964
2023-03-15 15:18:39:886,-0.878315,-1.35872,-9.60935,8.11739,-5.09685,-8.46728
2023-03-15 15:18:39:896,-0.895881,-1.31641,-9.63227,8.11033,-5.10408,-8.45501
2023-03-15 15:18:39:906,-0.904773,-1.28372,-9.66537,8.10301,-5.11337,-8.44771
2023-03-15 15:18:39:916,-0.902146,-1.30747,-9.66795,8.10414,-5.11947,-8.44085
2023-03-15 15:18:39:926,-0.904333,-1.32539,-9.65242,8.10609,-5.12707,-8.43043
2023-03-15 15:18:39:936,-0.905367,-1.30851,-9.63642,8.10399,-5.13443,-8.41801
2023-03-15 15:18:39:946,-0.902275,-1.32259,-9.63282,8.10521,-5.13918,-8.40934
2023-03-15 15:18:39:956,-0.9177,-1.31878,-9.62659,8.10788,-5.14438,-8.40013
2023-03-15 15:18:39:966,-0.919827,-1.31318,-9.6382,8.10559,-5.15214,-8.38982
2023-03-15 15:18:39:976,-0.931204,-1.30274,-9.65639,8.10337,-5.15869,-8.38135
2023-03-15 15:18:39:986,-0.937496,-1.30753,-9.67405,8.10346,-5.16264,-8.37631
2023-03-15 15:18:39:996,-0.926493,-1.2885,-9.6818,8.10285,-5.16553,-8.37179
2023-03-15 15:18:40:6,-0.90971,-1.29053,-9.6646,8.10836,-5.16633,-8.36992
2023-03-15 15:18:40:16,-0.905979,-1.30936,-9.64345,8.11272,-5.1694,-8.36843
2023-03-15 15:18:40:26,-0.905935,-1.32272,-9.66035,8.11993,-5.17062,-8.36737
2023-03-15 15:18:40:36,-0.908689,-1.32257,-9.66186,8.12531,-5.17201,-8.36156
2023-03-15 15:18:40:46,-0.900028,-1.32089,-9.63096,8.13125,-5.17336,-8.35959
2023-03-15 15:18:40:56,-0.899622,-1.3229,-9.62097,8.13869,-5.17236,-8.35491
2023-03-15 15:18:40:66,-0.916304,-1.33327,-9.64517,8.14479,-5.17042,-8.35341
2023-03-15 15:18:40:76,-0.933568,-1.33962,-9.63603,8.15186,-5.16947,-8.35193
2023-03-15 15:18:40:86,-0.892512,-1.34398,-9.59083,8.1588,-5.16562,-8.35142
2023-03-15 15:18:40:96,-0.875227,-1.38455,-9.58156,8.16901,-5.16068,-8.35011
2023-03-15 15:18:40:106,-0.86555,-1.39462,-9.59816,8.17859,-5.15967,-8.34722
2023-03-15 15:18:40:116,-0.861849,-1.39536,-9.65322,8.18498,-5.15308,-8.34762
2023-03-15 15:18:40:126,-0.842402,-1.37901,-9.7069,8.19176,-5.14516,-8.34418
2023-03-15 15:18:40:136,-0.830201,-1.36856,-9.72437,8.19841,-5.14259,-8.3444
2023-03-15 15:18:40:146,-0.816886,-1.41794,-9.68303,8.2071,-5.138,-8.34181
2023-03-15 15:18:40:156,-0.816883,-1.45026,-9.62274,8.21587,-5.13623,-8.33609
2023-03-15 15:18:40:166,-0.833895,-1.4361,-9.60437,8.22529,-5.13589,-8.32956
2023-03-15 15:18:40:176,-0.862741,-1.40963,-9.61224,8.22538,-5.13551,-8.31766
2023-03-15 15:18:40:186,-0.874738,-1.36456,-9.63035,8.22334,-5.13746,-8.31233
2023-03-15 15:18:40:196,-0.875657,-1.32548,-9.64522,8.2145,-5.14268,-8.30441
2023-03-15 15:18:40:206,-0.86461,-1.31084,-9.65069,8.21053,-5.14463,-8.29792
2023-03-15 15:18:40:216,-0.868944,-1.32478,-9.63914,8.20833,-5.14751,-8.29414
2023-03-15 15:18:40:226,-0.896916,-1.3147,-9.63947,8.21138,-5.14971,-8.28996
2023-03-15 15:18:40:236,-0.919285,-1.30527,-9.62174,8.21315,-5.15542,-8.28867
2023-03-15 15:18:40:246,-0.928858,-1.3344,-9.60373,8.21916,-5.1599,-8.28592
2023-03-15 15:18:40:256,-0.898359,-1.34702,-9.58994,8.22976,-5.16227,-8.2816
2023-03-15 15:18:40:266,-0.904302,-1.38533,-9.57703,8.24048,-5.15981,-8.28001
2023-03-15 15:18:40:276,-0.903679,-1.41398,-9.54987,8.24628,-5.15972,-8.27803
2023-03-15 15:18:40:286,-0.901888,-1.44639,-9.56328,8.25235,-5.15906,-8.27488
2023-03-15 15:18:40:296,-0.881665,-1.42507,-9.60596,8.25306,-5.15731,-8.26986
2023-03-15 15:18:40:306,-0.864521,-1.38367,-9.63499,8.24716,-5.15789,-8.26723
2023-03-15 15:18:40:316,-0.877361,-1.39084,-9.63757,8.24441,-5.15873,-8.26648
2023-03-15 15:18:40:326,-0.915043,-1.39065,-9.64278,8.239,-5.15789,-8.26256
2023-03-15 15:18:40:336,-0.921545,-1.37508,-9.65002,8.23387,-5.1562,-8.26117
2023-03-15 15:18:40:346,-0.906245,-1.34375,-9.66397,8.23221,-5.15316,-8.26163
2023-03-15 15:18:40:356,-0.857157,-1.33291,-9.69546,8.23002,-5.1469,-8.26416
2023-03-15 15:18:40:366,-0.800039,-1.33965,-9.69934,8.22629,-5.13858,-8.26359
2023-03-15 15:18:40:376,-0.803232,-1.34212,-9.68705,8.2261,-5.13347,-8.25954
2023-03-15 15:18:40:386,-0.860144,-1.33074,-9.68449,8.22562,-5.1329,-8.25403
2023-03-15 15:18:40:396,-0.881657,-1.3236,-9.66117,8.22614,-5.13482,-8.25368
2023-03-15 15:18:40:406,-0.882868,-1.34708,-9.64967,8.22927,-5.13442,-8.25162
2023-03-15 15:18:40:416,-0.871852,-1.34369,-9.65718,8.23433,-5.1317,-8.24831
2023-03-15 15:18:40:426,-0.849404,-1.33569,-9.67126,8.23783,-5.12808,-8.24725
2023-03-15 15:18:40:436,-0.848874,-1.34831,-9.67534,8.24497,-5.12499,-8.24072
2023-03-15 15:18:40:446,-0.875529,-1.34891,-9.65932,8.25325,-5.12649,-8.23874
2023-03-15 15:18:40:456,-0.89088,-1.34132,-9.66154,8.26058,-5.12862,-8.23746
2023-03-15 15:18:40:466,-0.882936,-1.35762,-9.64475,8.27024,-5.13079,-8.23611
2023-03-15 15:18:40:476,-0.885422,-1.38681,-9.61406,8.28071,-5.12705,-8.23047
2023-03-15 15:18:40:486,-0.875749,-1.38994,-9.62526,8.29184,-5.12791,-8.22298
2023-03-15 15:18:40:496,-0.86185,-1.3747,-9.63579,8.30233,-5.12776,-8.21966
2023-03-15 15:18:40:506,-0.883573,-1.38601,-9.62464,8.31052,-5.12907,-8.21781
2023-03-15 15:18:40:516,-0.88317,-1.39761,-9.60146,8.32359,-5.13089,-8.21519
2023-03-15 15:18:40:526,-0.866194,-1.41874,-9.60753,8.3371,-5.13359,-8.21141
2023-03-15 15:18:40:536,-0.8606,-1.41595,-9.60971,8.35139,-5.13398,-8.20746
2023-03-15 15:18:40:546,-0.874273,-1.40934,-9.60498,8.36235,-5.13409,-8.20451
2023-03-15 15:18:40:556,-0.874506,-1.42377,-9.5937,8.37146,-5.13789,-8.20113
2023-03-15 15:18:40:566,-0.874115,-1.42409,-9.58437,8.37778,-5.1425,-8.19352
2023-03-15 15:18:40:576,-0.873269,-1.41929,-9.58579,8.38486,-5.1456,-8.18689
2023-03-15 15:18:40:586,-0.87744,-1.41719,-9.60393,8.38835,-5.1484,-8.17924
2023-03-15 15:18:40:596,-0.863304,-1.40866,-9.62132,8.39063,-5.15126,-8.16907
2023-03-15 15:18:40:606,-0.868996,-1.38912,-9.61366,8.389,-5.15101,-8.16005
2023-03-15 15:18:40:616,-0.876903,-1.38101,-9.61045,8.38712,-5.14958,-8.15299
2023-03-15 15:18:40:626,-0.87447,-1.38469,-9.62116,8.38329,-5.14885,-8.14146
2023-03-15 15:18:40:636,-0.891804,-1.38048,-9.63456,8.38384,-5.14871,-8.1323
2023-03-15 15:18:40:646,-0.898743,-1.37655,-9.62371,8.38245,-5.14648,-8.12632
2023-03-15 15:18:40:656,-0.89045,-1.37763,-9.62355,8.38401,-5.14481,-8.1174
2023-03-15 15:18:40:666,-0.891009,-1.3661,-9.64622,8.38329,-5.143,-8.11166
2023-03-15 15:18:40:676,-0.908533,-1.36625,-9.64426,8.38411,-5.14297,-8.10891
2023-03-15 15:18:40:686,-0.897368,-1.3728,-9.64125,8.38639,-5.14501,-8.10655
2023-03-15 15:18:40:696,-0.899577,-1.3809,-9.64224,8.38914,-5.14385,-8.10378
2023-03-15 15:18:40:706,-0.909314,-1.38204,-9.63305,8.39257,-5.14302,-8.10298
2023-03-15 15:18:40:716,-0.890616,-1.39579,-9.63982,8.3952,-5.14133,-8.10138
2023-03-15 15:18:40:726,-0.878977,-1.3954,-9.64206,8.4006,-5.14008,-8.09855
2023-03-15 15:18:40:736,-0.894845,-1.39285,-9.63177,8.40626,-5.13658,-8.09718
2023-03-15 15:18:40:746,-0.893005,-1.37479,-9.62895,8.40601,-5.13387,-8.09599
2023-03-15 15:18:40:756,-0.863076,-1.37017,-9.63456,8.40846,-5.12892,-8.09737
2023-03-15 15:18:40:766,-0.850434,-1.39394,-9.62995,8.41308,-5.12375,-8.09877
2023-03-15 15:18:40:776,-0.833637,-1.40781,-9.62218,8.4172,-5.12065,-8.09636
2023-03-15 15:18:40:786,-0.837659,-1.40911,-9.64478,8.42245,-5.11211,-8.09249
2023-03-15 15:18:40:796,-0.851611,-1.38941,-9.68758,8.42968,-5.10987,-8.08794
2023-03-15 15:18:40:806,-0.827091,-1.39789,-9.69656,8.43715,-5.10496,-8.08669
2023-03-15 15:18:40:816,-0.798522,-1.42712,-9.65296,8.44764,-5.10111,-8.08479
2023-03-15 15:18:40:826,-0.787394,-1.46627,-9.60565,8.46014,-5.10291,-8.07656
2023-03-15 15:18:40:836,-0.812986,-1.46776,-9.62023,8.46778,-5.10716,-8.0645
2023-03-15 15:18:40:846,-0.857141,-1.4097,-9.63645,8.47029,-5.11609,-8.05303
2023-03-15 15:18:40:856,-0.887104,-1.40032,-9.63505,8.46989,-5.12111,-8.04477
2023-03-15 15:18:40:866,-0.905101,-1.39564,-9.62913,8.47125,-5.12549,-8.0331
2023-03-15 15:18:40:876,-0.894859,-1.38117,-9.64554,8.47119,-5.12797,-8.02399
2023-03-15 15:18:40:886,-0.876566,-1.34886,-9.64638,8.47096,-5.12774,-8.0146
2023-03-15 15:18:40:896,-0.899936,-1.3506,-9.63193,8.47058,-5.12942,-8.00487
2023-03-15 15:18:40:906,-0.912113,-1.35048,-9.62547,8.47486,-5.12779,-7.99658
2023-03-15 15:18:40:916,-0.912578,-1.35723,-9.60717,8.48134,-5.12973,-7.98555
2023-03-15 15:18:40:926,-0.919237,-1.36383,-9.60966,8.48835,-5.12983,-7.98242
2023-03-15 15:18:40:936,-0.911976,-1.38372,-9.59138,8.49833,-5.12839,-7.97704
2023-03-15 15:18:40:946,-0.924373,-1.41173,-9.59379,8.50993,-5.12757,-7.97493
2023-03-15 15:18:40:956,-0.910703,-1.42294,-9.60401,8.52314,-5.1285,-7.97507
2023-03-15 15:18:40:966,-0.886171,-1.43213,-9.61194,8.52789,-5.12462,-7.97679
2023-03-15 15:18:40:976,-0.855459,-1.43486,-9.59293,8.5331,-5.12226,-7.97942
2023-03-15 15:18:40:986,-0.839015,-1.44676,-9.58792,8.53646,-5.12221,-7.9793
2023-03-15 15:18:40:996,-0.861106,-1.4457,-9.60499,8.5351,-5.12036,-7.97741
