Timestamp,Acceleration_x,Acceleration_y,Acceleration_z,roll,pitch,yaw
2023-03-11 16:31:30:626,-0.741416,0.548389,-9.55339,-4.00981,-3.69145,85.5162
2023-03-11 16:31:30:633,-0.73584,0.554135,-9.57725,-3.987,-3.68486,85.5189
2023-03-11 16:31:30:643,-0.710444,0.589695,-9.60423,-3.97501,-3.67863,85.5144
2023-03-11 16:31:30:653,-0.683539,0.604578,-9.6407,-3.97082,-3.66902,85.5059
2023-03-11 16:31:30:663,-0.639637,0.618202,-9.68554,-3.97064,-3.65434,85.4927
2023-03-11 16:31:30:673,-0.606374,0.623408,-9.72965,-3.97781,-3.64048,85.4795
2023-03-11 16:31:30:683,-0.585053,0.643101,-9.75497,-3.98727,-3.62408,85.4673
2023-03-11 16:31:30:693,-0.557516,0.677589,-9.75429,-3.9994,-3.60433,85.4567
2023-03-11 16:31:30:703,-0.536445,0.653726,-9.73119,-4.00859,-3.58812,85.4465
2023-03-11 16:31:30:713,-0.572961,0.664774,-9.7109,-4.02332,-3.57101,85.4419
2023-03-11 16:31:30:723,-0.593201,0.686159,-9.72288,-4.0354,-3.55895,85.4377
2023-03-11 16:31:30:733,-0.581574,0.681671,-9.76437,-4.05045,-3.53723,85.4389
2023-03-11 16:31:30:743,-0.538819,0.688425,-9.80575,-4.06468,-3.51246,85.4387
2023-03-11 16:31:30:754,-0.502829,0.681712,-9.79514,-4.07679,-3.48817,85.4385
2023-03-11 16:31:30:764,-0.514631,0.667303,-9.73959,-4.08829,-3.46483,85.4379
2023-03-11 16:31:30:773,-0.520824,0.661743,-9.73284,-4.0968,-3.44179,85.4384
2023-03-11 16:31:30:783,-0.514163,0.672272,-9.78085,-4.10748,-3.41158,85.44
2023-03-11 16:31:30:794,-0.470548,0.668432,-9.8243,-4.11476,-3.37935,85.4422
2023-03-11 16:31:30:803,-0.392211,0.657886,-9.84397,-4.12138,-3.346,85.444
2023-03-11 16:31:30:813,-0.359315,0.625697,-9.88246,-4.11976,-3.31678,85.447
2023-03-11 16:31:30:823,-0.408276,0.623909,-9.90312,-4.11173,-3.28495,85.4528
2023-03-11 16:31:30:834,-0.444148,0.622284,-9.9046,-4.1013,-3.25822,85.4623
2023-03-11 16:31:30:843,-0.462193,0.59846,-9.87427,-4.08208,-3.22842,85.4771
2023-03-11 16:31:30:853,-0.44343,0.599122,-9.7942,-4.05955,-3.19509,85.4893
2023-03-11 16:31:30:863,-0.376848,0.558198,-9.72042,-4.03573,-3.15808,85.4982
2023-03-11 16:31:30:873,-0.340592,0.528029,-9.71545,-4.01495,-3.12669,85.5057
2023-03-11 16:31:30:883,-0.353076,0.541455,-9.77163,-3.99553,-3.10636,85.5132
2023-03-11 16:31:30:894,-0.432459,0.566985,-9.77263,-3.97867,-3.10379,85.5165
2023-03-11 16:31:30:903,-0.507318,0.553697,-9.69363,-3.96728,-3.11392,85.5178
2023-03-11 16:31:30:913,-0.555942,0.532062,-9.56569,-3.95781,-3.13765,85.5156
2023-03-11 16:31:30:923,-0.5697,0.533308,-9.45501,-3.96211,-3.17225,85.5074
2023-03-11 16:31:30:933,-0.552024,0.530175,-9.40576,-3.97494,-3.21063,85.4933
2023-03-11 16:31:30:943,-0.564663,0.575699,-9.48912,-4.00472,-3.25812,85.4719
2023-03-11 16:31:30:953,-0.602251,0.684094,-9.62082,-4.05209,-3.31632,85.4523
2023-03-11 16:31:30:963,-0.671668,0.732664,-9.70077,-4.10675,-3.38065,85.4329
2023-03-11 16:31:30:973,-0.72708,0.756741,-9.74632,-4.16518,-3.44777,85.408
2023-03-11 16:31:30:983,-0.748018,0.795604,-9.71652,-4.222,-3.51304,85.3849
2023-03-11 16:31:30:993,-0.735863,0.813638,-9.64507,-4.28047,-3.5764,85.3649
2023-03-11 16:31:31:3,-0.705595,0.825561,-9.59822,-4.34185,-3.63163,85.3428
2023-03-11 16:31:31:13,-0.675043,0.8429,-9.63928,-4.40716,-3.67659,85.3278
2023-03-11 16:31:31:23,-0.653821,0.890441,-9.74314,-4.47523,-3.71788,85.3152
2023-03-11 16:31:31:33,-0.677536,0.942689,-9.80701,-4.54122,-3.75137,85.3101
2023-03-11 16:31:31:43,-0.687111,0.956791,-9.82825,-4.6031,-3.78153,85.3093
2023-03-11 16:31:31:53,-0.6577,0.952499,-9.82481,-4.66154,-3.80656,85.3184
2023-03-11 16:31:31:63,-0.665747,0.958219,-9.82093,-4.71493,-3.82289,85.335
2023-03-11 16:31:31:73,-0.686291,0.994648,-9.79485,-4.76478,-3.83209,85.3538
2023-03-11 16:31:31:83,-0.677303,1.00593,-9.79849,-4.81004,-3.83208,85.3806
2023-03-11 16:31:31:93,-0.653355,1.00849,-9.84266,-4.84969,-3.82409,85.4079
2023-03-11 16:31:31:103,-0.636893,1.02661,-9.87392,-4.88625,-3.81511,85.4398
2023-03-11 16:31:31:113,-0.652273,1.02788,-9.86492,-4.91577,-3.8058,85.4722
2023-03-11 16:31:31:123,-0.682324,1.00749,-9.85598,-4.93623,-3.79808,85.504
2023-03-11 16:31:31:133,-0.710745,1.00987,-9.83663,-4.94744,-3.79426,85.5329
2023-03-11 16:31:31:143,-0.710435,0.98889,-9.80187,-4.95229,-3.79029,85.5554
2023-03-11 16:31:31:153,-0.718338,0.970727,-9.78718,-4.9536,-3.79136,85.5741
2023-03-11 16:31:31:163,-0.728205,0.966228,-9.77683,-4.95081,-3.79677,85.5874
2023-03-11 16:31:31:173,-0.724659,0.954316,-9.74166,-4.94618,-3.80465,85.5973
2023-03-11 16:31:31:183,-0.727434,0.915407,-9.72521,-4.93855,-3.81058,85.5988
2023-03-11 16:31:31:193,-0.748035,0.894248,-9.71207,-4.93005,-3.81895,85.5896
2023-03-11 16:31:31:203,-0.749232,0.876436,-9.71431,-4.91981,-3.82533,85.577
2023-03-11 16:31:31:213,-0.701835,0.871123,-9.78198,-4.90926,-3.82779,85.5599
2023-03-11 16:31:31:223,-0.653362,0.89908,-9.84925,-4.89686,-3.82542,85.5346
2023-03-11 16:31:31:233,-0.594215,0.875098,-9.87523,-4.88261,-3.82025,85.5115
2023-03-11 16:31:31:243,-0.565429,0.847201,-9.86646,-4.86047,-3.81501,85.4874
2023-03-11 16:31:31:253,-0.555726,0.832186,-9.82851,-4.83242,-3.81234,85.4635
2023-03-11 16:31:31:263,-0.539449,0.792475,-9.74919,-4.79842,-3.8105,85.4428
2023-03-11 16:31:31:273,-0.551292,0.750295,-9.65715,-4.76671,-3.81197,85.4258
2023-03-11 16:31:31:283,-0.548589,0.716242,-9.59258,-4.73665,-3.81468,85.4151
2023-03-11 16:31:31:293,-0.537174,0.700867,-9.52964,-4.71447,-3.81875,85.4064
2023-03-11 16:31:31:303,-0.534615,0.691992,-9.49538,-4.70137,-3.82708,85.397
2023-03-11 16:31:31:313,-0.552291,0.714819,-9.51778,-4.69783,-3.83616,85.3903
2023-03-11 16:31:31:323,-0.599354,0.751558,-9.56423,-4.70811,-3.853,85.3915
2023-03-11 16:31:31:333,-0.647307,0.76303,-9.61223,-4.73041,-3.87175,85.3939
2023-03-11 16:31:31:343,-0.676488,0.779064,-9.64131,-4.75135,-3.89413,85.401
2023-03-11 16:31:31:353,-0.690144,0.802064,-9.65247,-4.78122,-3.91478,85.4029
2023-03-11 16:31:31:363,-0.7,0.834994,-9.68451,-4.81444,-3.93366,85.4063
2023-03-11 16:31:31:373,-0.719197,0.867913,-9.7296,-4.84924,-3.95019,85.4063
2023-03-11 16:31:31:383,-0.720984,0.879007,-9.74546,-4.8843,-3.96321,85.408
2023-03-11 16:31:31:393,-0.705866,0.908214,-9.75388,-4.91995,-3.97533,85.41
2023-03-11 16:31:31:403,-0.684074,0.91047,-9.7852,-4.95813,-3.98625,85.412
2023-03-11 16:31:31:413,-0.680411,0.919556,-9.78171,-4.99218,-3.99514,85.417
2023-03-11 16:31:31:423,-0.72377,0.935334,-9.77022,-5.02347,-4.00339,85.4219
2023-03-11 16:31:31:433,-0.726453,0.939187,-9.76015,-5.05526,-4.00605,85.4297
2023-03-11 16:31:31:443,-0.693564,0.974616,-9.75231,-5.08056,-4.00369,85.4398
2023-03-11 16:31:31:454,-0.650218,0.972692,-9.74359,-5.10645,-3.99514,85.4491
2023-03-11 16:31:31:464,-0.635617,0.956949,-9.72832,-5.12876,-3.98173,85.4561
2023-03-11 16:31:31:473,-0.66272,0.947014,-9.7262,-5.14789,-3.97154,85.4684
2023-03-11 16:31:31:483,-0.684125,0.968522,-9.74272,-5.16371,-3.96257,85.4838
2023-03-11 16:31:31:493,-0.699782,0.990885,-9.75233,-5.18087,-3.95099,85.5
2023-03-11 16:31:31:503,-0.682115,0.988773,-9.74706,-5.19444,-3.9411,85.5155
2023-03-11 16:31:31:513,-0.665978,0.991088,-9.74871,-5.20743,-3.92874,85.5269
2023-03-11 16:31:31:523,-0.656398,1.00385,-9.74757,-5.22451,-3.91375,85.5396
2023-03-11 16:31:31:533,-0.650006,1.01061,-9.76983,-5.23673,-3.89861,85.5543
2023-03-11 16:31:31:543,-0.648199,1.01138,-9.77453,-5.24788,-3.88279,85.5683
2023-03-11 16:31:31:553,-0.64105,1.00991,-9.77776,-5.25794,-3.86941,85.5816
2023-03-11 16:31:31:564,-0.636663,1.02085,-9.77291,-5.26244,-3.86334,85.5916
2023-03-11 16:31:31:573,-0.625045,1.00276,-9.75022,-5.26196,-3.85187,85.6009
2023-03-11 16:31:31:583,-0.593987,0.966635,-9.74711,-5.25384,-3.83828,85.615
2023-03-11 16:31:31:593,-0.548123,0.949174,-9.75894,-5.24809,-3.82142,85.6255
2023-03-11 16:31:31:603,-0.536392,0.945685,-9.7855,-5.23882,-3.80678,85.6412
2023-03-11 16:31:31:613,-0.540061,0.955707,-9.81594,-5.23193,-3.79135,85.6607
2023-03-11 16:31:31:623,-0.542159,0.942072,-9.80644,-5.21964,-3.77911,85.6817
2023-03-11 16:31:31:634,-0.54719,0.923315,-9.78488,-5.20327,-3.76508,85.706
2023-03-11 16:31:31:643,-0.563306,0.908687,-9.75736,-5.18499,-3.75713,85.7351
2023-03-11 16:31:31:654,-0.576579,0.897712,-9.73493,-5.16654,-3.74504,85.762
2023-03-11 16:31:31:664,-0.588795,0.88337,-9.72288,-5.14601,-3.73697,85.7934
2023-03-11 16:31:31:674,-0.612374,0.878097,-9.71937,-5.12895,-3.73091,85.8224
2023-03-11 16:31:31:683,-0.639821,0.865881,-9.71082,-5.11096,-3.72897,85.8524
2023-03-11 16:31:31:693,-0.677684,0.860481,-9.71332,-5.09226,-3.72733,85.8795
2023-03-11 16:31:31:703,-0.726766,0.859713,-9.71622,-5.07481,-3.72935,85.8999
2023-03-11 16:31:31:713,-0.748986,0.86259,-9.69522,-5.06073,-3.73308,85.9178
2023-03-11 16:31:31:723,-0.741275,0.855814,-9.68026,-5.04592,-3.73699,85.9318
2023-03-11 16:31:31:733,-0.693911,0.854378,-9.67181,-5.03634,-3.73893,85.9341
2023-03-11 16:31:31:743,-0.656374,0.845346,-9.67086,-5.02073,-3.74184,85.9299
2023-03-11 16:31:31:753,-0.606245,0.839973,-9.68329,-5.00849,-3.74575,85.9214
2023-03-11 16:31:31:763,-0.566331,0.841301,-9.71179,-5.00048,-3.7568,85.9117
2023-03-11 16:31:31:773,-0.547901,0.843003,-9.72002,-4.99578,-3.76985,85.9046
2023-03-11 16:31:31:783,-0.552415,0.833402,-9.70752,-4.9864,-3.78912,85.8988
2023-03-11 16:31:31:793,-0.563839,0.829749,-9.72239,-4.97746,-3.81307,85.9011
2023-03-11 16:31:31:803,-0.61174,0.824033,-9.72259,-4.97124,-3.84377,85.9096
2023-03-11 16:31:31:813,-0.65374,0.805942,-9.6857,-4.96337,-3.87705,85.9259
2023-03-11 16:31:31:823,-0.702792,0.813368,-9.65569,-4.95716,-3.91342,85.9482
2023-03-11 16:31:31:833,-0.757151,0.82263,-9.65761,-4.9592,-3.95035,85.9707
2023-03-11 16:31:31:843,-0.823194,0.858392,-9.67389,-4.96644,-3.97963,85.9993
2023-03-11 16:31:31:853,-0.849516,0.874897,-9.67379,-4.9798,-4.00645,86.0317
2023-03-11 16:31:31:863,-0.859289,0.881865,-9.68451,-4.99474,-4.02875,86.06
2023-03-11 16:31:31:873,-0.86877,0.893816,-9.69486,-5.01038,-4.04917,86.0888
2023-03-11 16:31:31:883,-0.875679,0.914065,-9.68804,-5.02979,-4.06678,86.113
2023-03-11 16:31:31:893,-0.87426,0.916552,-9.6569,-5.0518,-4.08453,86.134
2023-03-11 16:31:31:903,-0.865703,0.927249,-9.63246,-5.07608,-4.09419,86.154
2023-03-11 16:31:31:913,-0.822467,0.941915,-9.63486,-5.10342,-4.10139,86.1683
2023-03-11 16:31:31:923,-0.749366,0.961998,-9.70617,-5.13145,-4.09944,86.1767
2023-03-11 16:31:31:933,-0.685465,0.999696,-9.82185,-5.16223,-4.09145,86.1865
2023-03-11 16:31:31:943,-0.607709,1.03517,-9.92525,-5.18886,-4.0714,86.199
2023-03-11 16:31:31:953,-0.552751,1.04343,-10.0001,-5.20526,-4.04978,86.2161
2023-03-11 16:31:31:963,-0.528854,1.04322,-9.98812,-5.20653,-4.0178,86.2422
2023-03-11 16:31:31:973,-0.540282,1.02522,-9.95009,-5.19522,-3.98282,86.2756
2023-03-11 16:31:31:983,-0.581333,0.999365,-9.94328,-5.1754,-3.94775,86.3159
2023-03-11 16:31:31:993,-0.55027,0.980284,-9.91349,-5.14646,-3.91014,86.3602
2023-03-11 16:31:32:3,-0.515815,0.94487,-9.86157,-5.10479,-3.86885,86.409
2023-03-11 16:31:32:13,-0.529139,0.909409,-9.81167,-5.05401,-3.82523,86.458
2023-03-11 16:31:32:23,-0.572072,0.899651,-9.78569,-5.00362,-3.78215,86.5183
2023-03-11 16:31:32:33,-0.60399,0.879417,-9.76772,-4.94386,-3.73813,86.5766
2023-03-11 16:31:32:43,-0.624935,0.8596,-9.76821,-4.87951,-3.69506,86.6366
2023-03-11 16:31:32:53,-0.642059,0.839189,-9.79448,-4.81194,-3.64734,86.6974
2023-03-11 16:31:32:63,-0.63773,0.828195,-9.80599,-4.73669,-3.60151,86.7506
2023-03-11 16:31:32:73,-0.646197,0.788977,-9.77682,-4.65653,-3.55826,86.8003
2023-03-11 16:31:32:83,-0.64738,0.752157,-9.71753,-4.56973,-3.52123,86.8411
2023-03-11 16:31:32:93,-0.681239,0.71497,-9.68307,-4.48382,-3.49176,86.8764
2023-03-11 16:31:32:103,-0.71581,0.697781,-9.6746,-4.40396,-3.47526,86.8965
2023-03-11 16:31:32:113,-0.741933,0.678277,-9.63429,-4.32625,-3.46311,86.9052
2023-03-11 16:31:32:123,-0.744689,0.651347,-9.57156,-4.25778,-3.45902,86.9045
2023-03-11 16:31:32:133,-0.752874,0.624184,-9.53741,-4.19702,-3.46534,86.8887
2023-03-11 16:31:32:143,-0.777276,0.635499,-9.57682,-4.14801,-3.47844,86.8633
2023-03-11 16:31:32:153,-0.783543,0.666616,-9.62609,-4.1126,-3.49514,86.8263
2023-03-11 16:31:32:163,-0.749005,0.704169,-9.66544,-4.08345,-3.51397,86.7756
2023-03-11 16:31:32:173,-0.705533,0.716637,-9.70425,-4.05582,-3.52893,86.7186
2023-03-11 16:31:32:183,-0.667042,0.726865,-9.70073,-4.03206,-3.54045,86.6589
2023-03-11 16:31:32:193,-0.662395,0.703144,-9.66811,-4.0062,-3.55243,86.5972
2023-03-11 16:31:32:203,-0.664589,0.713863,-9.65103,-3.98257,-3.56188,86.536
2023-03-11 16:31:32:213,-0.657198,0.723126,-9.66608,-3.96298,-3.56869,86.48
2023-03-11 16:31:32:223,-0.6476,0.716303,-9.6573,-3.94441,-3.56909,86.4277
2023-03-11 16:31:32:233,-0.613341,0.711958,-9.66104,-3.93033,-3.56961,86.3783
2023-03-11 16:31:32:243,-0.545092,0.681458,-9.67995,-3.92048,-3.56069,86.3324
2023-03-11 16:31:32:253,-0.519919,0.690254,-9.69445,-3.91887,-3.55301,86.29
2023-03-11 16:31:32:263,-0.525971,0.709589,-9.7026,-3.91857,-3.5423,86.263
2023-03-11 16:31:32:273,-0.502175,0.712264,-9.67998,-3.92571,-3.52975,86.2387
2023-03-11 16:31:32:283,-0.494324,0.710304,-9.67518,-3.93477,-3.51871,86.2226
2023-03-11 16:31:32:293,-0.511958,0.712255,-9.7327,-3.9441,-3.50538,86.2152
2023-03-11 16:31:32:303,-0.541024,0.757189,-9.80891,-3.95891,-3.50009,86.2165
2023-03-11 16:31:32:313,-0.551252,0.78019,-9.90143,-3.96983,-3.5001,86.2221
2023-03-11 16:31:32:323,-0.60735,0.790597,-9.93133,-3.97224,-3.49973,86.2276
2023-03-11 16:31:32:333,-0.669245,0.78369,-9.89893,-3.96279,-3.50455,86.2391
2023-03-11 16:31:32:343,-0.694497,0.746665,-9.85368,-3.951,-3.50768,86.2504
2023-03-11 16:31:32:353,-0.683331,0.720069,-9.78022,-3.93485,-3.513,86.2587
2023-03-11 16:31:32:363,-0.688283,0.708107,-9.7087,-3.9195,-3.5149,86.2621
2023-03-11 16:31:32:373,-0.690738,0.68404,-9.66942,-3.90757,-3.5136,86.2584
2023-03-11 16:31:32:383,-0.681208,0.669906,-9.6426,-3.90203,-3.51183,86.2516
2023-03-11 16:31:32:393,-0.661017,0.667975,-9.65416,-3.89516,-3.50841,86.2432
2023-03-11 16:31:32:403,-0.642467,0.680613,-9.68038,-3.89739,-3.50665,86.2277
2023-03-11 16:31:32:413,-0.653612,0.713529,-9.72507,-3.9028,-3.50419,86.2073
2023-03-11 16:31:32:423,-0.669216,0.718775,-9.72006,-3.90769,-3.50662,86.1881
2023-03-11 16:31:32:433,-0.678318,0.709079,-9.7088,-3.91267,-3.50579,86.1641
2023-03-11 16:31:32:443,-0.680279,0.707209,-9.68085,-3.91797,-3.50553,86.1357
2023-03-11 16:31:32:453,-0.657595,0.703435,-9.6624,-3.92565,-3.50231,86.1001
2023-03-11 16:31:32:463,-0.656118,0.704346,-9.66851,-3.93553,-3.49806,86.0614
2023-03-11 16:31:32:473,-0.662795,0.727088,-9.68187,-3.94906,-3.4941,86.0209
2023-03-11 16:31:32:483,-0.631248,0.743826,-9.68658,-3.96805,-3.4869,85.9767
2023-03-11 16:31:32:493,-0.588901,0.745324,-9.7018,-3.99106,-3.47564,85.9273
2023-03-11 16:31:32:503,-0.539398,0.772244,-9.70667,-4.01504,-3.46743,85.8776
2023-03-11 16:31:32:513,-0.500078,0.794995,-9.73235,-4.04116,-3.45829,85.8306
2023-03-11 16:31:32:523,-0.495589,0.802867,-9.77155,-4.07171,-3.44501,85.7827
2023-03-11 16:31:32:533,-0.487952,0.814553,-9.82679,-4.09826,-3.43685,85.7351
2023-03-11 16:31:32:543,-0.468162,0.83971,-9.88158,-4.12126,-3.43114,85.6932
2023-03-11 16:31:32:553,-0.464116,0.843673,-9.90867,-4.13657,-3.43109,85.6516
2023-03-11 16:31:32:563,-0.495737,0.832617,-9.86414,-4.14677,-3.43082,85.6116
2023-03-11 16:31:32:573,-0.50165,0.792657,-9.80609,-4.15255,-3.43213,85.5782
2023-03-11 16:31:32:583,-0.470922,0.778262,-9.77299,-4.15219,-3.43212,85.5497
2023-03-11 16:31:32:593,-0.45447,0.776477,-9.73509,-4.15282,-3.42316,85.5232
2023-03-11 16:31:32:604,-0.44965,0.750243,-9.74792,-4.14839,-3.41192,85.5032
2023-03-11 16:31:32:613,-0.466416,0.77356,-9.81018,-4.14648,-3.40158,85.4909
2023-03-11 16:31:32:623,-0.457789,0.78285,-9.85324,-4.14021,-3.38744,85.4852
2023-03-11 16:31:32:633,-0.434257,0.792754,-9.88114,-4.12674,-3.37336,85.4842
2023-03-11 16:31:32:643,-0.453332,0.784584,-9.88917,-4.10338,-3.36163,85.4848
2023-03-11 16:31:32:653,-0.493559,0.748162,-9.87932,-4.07183,-3.3541,85.4902
2023-03-11 16:31:32:663,-0.528495,0.724268,-9.81585,-4.03775,-3.35558,85.4943
2023-03-11 16:31:32:673,-0.53169,0.693094,-9.7626,-4.00254,-3.36134,85.4957
2023-03-11 16:31:32:683,-0.501024,0.653372,-9.73764,-3.96686,-3.36585,85.4967
2023-03-11 16:31:32:693,-0.472182,0.64634,-9.72663,-3.93321,-3.37222,85.4983
2023-03-11 16:31:32:703,-0.436582,0.645604,-9.71928,-3.90565,-3.37607,85.5041
2023-03-11 16:31:32:713,-0.414157,0.636235,-9.75119,-3.87808,-3.38699,85.5106
2023-03-11 16:31:32:723,-0.448229,0.647994,-9.82483,-3.85478,-3.39868,85.5187
2023-03-11 16:31:32:733,-0.493625,0.68003,-9.85755,-3.82958,-3.41803,85.5388
2023-03-11 16:31:32:743,-0.547491,0.672131,-9.82871,-3.80018,-3.43988,85.5661
2023-03-11 16:31:32:753,-0.599501,0.642321,-9.75173,-3.76779,-3.46121,85.5967
2023-03-11 16:31:32:763,-0.635037,0.613562,-9.64312,-3.73242,-3.47843,85.6238
2023-03-11 16:31:32:774,-0.655788,0.587364,-9.56746,-3.70198,-3.49282,85.6497
2023-03-11 16:31:32:784,-0.651038,0.557032,-9.58164,-3.67565,-3.50427,85.6767
2023-03-11 16:31:32:794,-0.622524,0.568045,-9.62062,-3.65406,-3.5074,85.702
2023-03-11 16:31:32:804,-0.595651,0.567062,-9.69686,-3.63773,-3.50864,85.7276
2023-03-11 16:31:32:813,-0.591182,0.586034,-9.77312,-3.62409,-3.50772,85.7534
2023-03-11 16:31:32:823,-0.615371,0.596261,-9.82802,-3.61118,-3.50474,85.7785
2023-03-11 16:31:32:833,-0.648893,0.611839,-9.82353,-3.59585,-3.50557,85.8085
2023-03-11 16:31:32:843,-0.654616,0.593208,-9.76503,-3.57583,-3.50165,85.8348
2023-03-11 16:31:32:853,-0.613903,0.566481,-9.71874,-3.55861,-3.49269,85.8613
2023-03-11 16:31:32:863,-0.565028,0.532927,-9.70642,-3.54374,-3.48166,85.8805
2023-03-11 16:31:32:873,-0.59708,0.539565,-9.69663,-3.53054,-3.47789,85.9013
2023-03-11 16:31:32:884,-0.615429,0.546971,-9.69152,-3.52125,-3.47303,85.9223
2023-03-11 16:31:32:894,-0.604412,0.536691,-9.70026,-3.51357,-3.4685,85.9392
2023-03-11 16:31:32:903,-0.563334,0.539025,-9.71185,-3.51,-3.46169,85.9618
2023-03-11 16:31:32:913,-0.544667,0.531937,-9.71704,-3.50734,-3.45789,85.9795
2023-03-11 16:31:32:923,-0.548565,0.522295,-9.71963,-3.50398,-3.45349,86.005
2023-03-11 16:31:32:933,-0.580155,0.557304,-9.75251,-3.50064,-3.45623,86.0292
2023-03-11 16:31:32:943,-0.646558,0.580601,-9.77328,-3.49766,-3.4634,86.0528
2023-03-11 16:31:32:954,-0.704147,0.55728,-9.72793,-3.49717,-3.47691,86.0684
2023-03-11 16:31:32:964,-0.742576,0.534889,-9.64602,-3.50051,-3.49295,86.0808
2023-03-11 16:31:32:974,-0.76037,0.527553,-9.58794,-3.50903,-3.51099,86.0839
2023-03-11 16:31:32:984,-0.73309,0.516379,-9.56203,-3.5268,-3.52899,86.0779
2023-03-11 16:31:32:994,-0.688355,0.533044,-9.55633,-3.5551,-3.54804,86.0628
2023-03-11 16:31:33:4,-0.640677,0.564663,-9.56445,-3.59351,-3.56568,86.0423
2023-03-11 16:31:33:14,-0.553116,0.574517,-9.59139,-3.63926,-3.58328,86.0199
2023-03-11 16:31:33:24,-0.474029,0.59905,-9.72055,-3.68828,-3.5981,85.9928
2023-03-11 16:31:33:34,-0.51193,0.675482,-9.91053,-3.73888,-3.61671,85.9759
2023-03-11 16:31:33:44,-0.594439,0.73366,-9.99136,-3.78429,-3.64357,85.9611
2023-03-11 16:31:33:54,-0.692587,0.740544,-9.95693,-3.82341,-3.6725,85.958
2023-03-11 16:31:33:64,-0.727901,0.709331,-9.87533,-3.84877,-3.69861,85.9514
2023-03-11 16:31:33:74,-0.741807,0.672831,-9.76301,-3.86759,-3.72319,85.9413
2023-03-11 16:31:33:84,-0.752956,0.634278,-9.64795,-3.88807,-3.73904,85.9281
2023-03-11 16:31:33:94,-0.728828,0.612051,-9.56905,-3.91193,-3.75559,85.9127
2023-03-11 16:31:33:104,-0.693924,0.604169,-9.54316,-3.94605,-3.76835,85.8909
2023-03-11 16:31:33:114,-0.656585,0.617666,-9.58339,-3.98959,-3.7742,85.869
2023-03-11 16:31:33:124,-0.638726,0.662333,-9.66511,-4.04019,-3.78369,85.8431
2023-03-11 16:31:33:134,-0.604942,0.720005,-9.74642,-4.09691,-3.79054,85.8207
2023-03-11 16:31:33:144,-0.570015,0.751795,-9.8044,-4.1537,-3.79514,85.8008
2023-03-11 16:31:33:154,-0.549845,0.758305,-9.83475,-4.20671,-3.79584,85.7843
2023-03-11 16:31:33:164,-0.550557,0.772685,-9.82061,-4.25881,-3.79402,85.7723
2023-03-11 16:31:33:174,-0.550804,0.77664,-9.80732,-4.30614,-3.79064,85.7678
2023-03-11 16:31:33:183,-0.574634,0.776218,-9.76706,-4.34939,-3.78343,85.7716
2023-03-11 16:31:33:194,-0.602831,0.774404,-9.71945,-4.39175,-3.77096,85.7793
2023-03-11 16:31:33:203,-0.606594,0.767894,-9.70095,-4.43426,-3.75711,85.7939
2023-03-11 16:31:33:214,-0.6083,0.801674,-9.71839,-4.47946,-3.74215,85.8097
2023-03-11 16:31:33:224,-0.612867,0.829674,-9.74681,-4.52596,-3.72249,85.8298
2023-03-11 16:31:33:234,-0.623513,0.859821,-9.78093,-4.57616,-3.70165,85.8462
2023-03-11 16:31:33:244,-0.636624,0.889254,-9.79982,-4.62037,-3.68179,85.8628
2023-03-11 16:31:33:254,-0.628325,0.916628,-9.78487,-4.66192,-3.66454,85.8797
2023-03-11 16:31:33:264,-0.617568,0.929606,-9.7874,-4.70309,-3.64799,85.8923
2023-03-11 16:31:33:274,-0.603796,0.929544,-9.79622,-4.73315,-3.63137,85.8963
2023-03-11 16:31:33:284,-0.595885,0.93909,-9.79537,-4.76111,-3.61729,85.8962
2023-03-11 16:31:33:294,-0.602208,0.920171,-9.77404,-4.78391,-3.60821,85.8935
2023-03-11 16:31:33:303,-0.61644,0.910997,-9.72661,-4.80694,-3.60363,85.8854
2023-03-11 16:31:33:314,-0.622003,0.912273,-9.6962,-4.83143,-3.60197,85.8739
2023-03-11 16:31:33:324,-0.608061,0.916354,-9.67706,-4.8577,-3.60352,85.8646
2023-03-11 16:31:33:333,-0.601138,0.923541,-9.67027,-4.88431,-3.60287,85.8408
2023-03-11 16:31:33:344,-0.59044,0.936119,-9.69284,-4.91317,-3.60545,85.8197
2023-03-11 16:31:33:354,-0.581912,0.970068,-9.74,-4.94476,-3.60728,85.7942
2023-03-11 16:31:33:364,-0.576882,0.985669,-9.77601,-4.97419,-3.61107,85.7718
2023-03-11 16:31:33:374,-0.569571,1.0163,-9.82736,-5.00155,-3.61691,85.7458
2023-03-11 16:31:33:384,-0.567908,1.02998,-9.85244,-5.02494,-3.62635,85.7229
2023-03-11 16:31:33:394,-0.56683,1.01984,-9.85679,-5.03719,-3.63206,85.7027
2023-03-11 16:31:33:403,-0.585985,0.993283,-9.8477,-5.04205,-3.63548,85.6853
2023-03-11 16:31:33:414,-0.623921,0.977894,-9.8249,-5.03844,-3.63963,85.6694
2023-03-11 16:31:33:424,-0.629692,0.969922,-9.83982,-5.03176,-3.64284,85.6577
2023-03-11 16:31:33:434,-0.607133,0.970129,-9.85563,-5.02486,-3.64394,85.6483
2023-03-11 16:31:33:444,-0.577938,0.96061,-9.85386,-5.01233,-3.64424,85.6384
2023-03-11 16:31:33:453,-0.551992,0.931557,-9.83889,-4.99859,-3.64696,85.6287
2023-03-11 16:31:33:464,-0.55125,0.91207,-9.7979,-4.97467,-3.65197,85.6228
2023-03-11 16:31:33:473,-0.573254,0.897038,-9.73965,-4.95403,-3.6573,85.6202
2023-03-11 16:31:33:483,-0.602568,0.87135,-9.69109,-4.9313,-3.66863,85.6243
2023-03-11 16:31:33:493,-0.630939,0.864848,-9.64945,-4.91146,-3.67449,85.6344
2023-03-11 16:31:33:503,-0.658931,0.870496,-9.61251,-4.89543,-3.67897,85.6471
2023-03-11 16:31:33:513,-0.673752,0.862322,-9.60087,-4.87871,-3.68559,85.6617
2023-03-11 16:31:33:524,-0.684655,0.863881,-9.61602,-4.86954,-3.68622,85.6806
2023-03-11 16:31:33:534,-0.701697,0.879845,-9.64514,-4.86016,-3.68577,85.6966
2023-03-11 16:31:33:544,-0.735694,0.878618,-9.68755,-4.85462,-3.68317,85.7119
2023-03-11 16:31:33:554,-0.745343,0.886016,-9.71435,-4.84565,-3.68228,85.7234
2023-03-11 16:31:33:564,-0.73493,0.888972,-9.72754,-4.8362,-3.6741,85.7341
2023-03-11 16:31:33:574,-0.742018,0.883812,-9.74488,-4.82535,-3.66845,85.7406
2023-03-11 16:31:33:584,-0.750892,0.879348,-9.75189,-4.81572,-3.65904,85.7393
2023-03-11 16:31:33:594,-0.734582,0.865778,-9.74477,-4.80668,-3.6529,85.7354
2023-03-11 16:31:33:604,-0.710673,0.85549,-9.74992,-4.79636,-3.64171,85.7285
2023-03-11 16:31:33:613,-0.683726,0.859059,-9.74672,-4.7873,-3.63041,85.7174
2023-03-11 16:31:33:623,-0.648762,0.831003,-9.70661,-4.78352,-3.61331,85.7016
2023-03-11 16:31:33:634,-0.622571,0.81034,-9.68438,-4.77558,-3.59681,85.686
2023-03-11 16:31:33:644,-0.635019,0.832051,-9.68615,-4.77508,-3.58258,85.6695
2023-03-11 16:31:33:654,-0.638803,0.844441,-9.72131,-4.77332,-3.56227,85.6565
2023-03-11 16:31:33:664,-0.585103,0.862401,-9.77576,-4.76968,-3.54292,85.6387
2023-03-11 16:31:33:674,-0.527488,0.847691,-9.79455,-4.76625,-3.52083,85.62
2023-03-11 16:31:33:684,-0.513059,0.81709,-9.7616,-4.7569,-3.49588,85.6039
2023-03-11 16:31:33:693,-0.516772,0.802548,-9.7649,-4.74809,-3.47614,85.5878
2023-03-11 16:31:33:703,-0.529968,0.810939,-9.7579,-4.73972,-3.45713,85.5735
2023-03-11 16:31:33:714,-0.50785,0.811835,-9.75741,-4.73147,-3.44282,85.5634
2023-03-11 16:31:33:724,-0.495904,0.802519,-9.76982,-4.71815,-3.42599,85.5537
2023-03-11 16:31:33:734,-0.468368,0.811513,-9.75879,-4.71027,-3.40722,85.5443
2023-03-11 16:31:33:743,-0.429191,0.796298,-9.75921,-4.69984,-3.39372,85.5387
2023-03-11 16:31:33:754,-0.435484,0.792155,-9.78679,-4.68948,-3.38159,85.5362
2023-03-11 16:31:33:764,-0.472233,0.794397,-9.78504,-4.6779,-3.37348,85.5337
2023-03-11 16:31:33:774,-0.483147,0.784105,-9.76807,-4.66681,-3.36859,85.5394
2023-03-11 16:31:33:784,-0.50581,0.784435,-9.75453,-4.65173,-3.36666,85.5438
2023-03-11 16:31:33:794,-0.53559,0.763027,-9.74275,-4.63429,-3.37133,85.5456
2023-03-11 16:31:33:804,-0.549222,0.74533,-9.69789,-4.62078,-3.37201,85.5504
2023-03-11 16:31:33:814,-0.555733,0.724523,-9.67167,-4.60437,-3.37699,85.5545
2023-03-11 16:31:33:824,-0.555398,0.710755,-9.66989,-4.59119,-3.38041,85.5591
2023-03-11 16:31:33:834,-0.549515,0.725446,-9.67774,-4.58433,-3.38656,85.5666
2023-03-11 16:31:33:844,-0.566989,0.735888,-9.69449,-4.58006,-3.39351,85.5729
2023-03-11 16:31:33:854,-0.560751,0.748522,-9.70963,-4.58416,-3.40007,85.5811
2023-03-11 16:31:33:864,-0.567899,0.748439,-9.73081,-4.58766,-3.40575,85.5878
2023-03-11 16:31:33:874,-0.577762,0.762414,-9.72608,-4.59004,-3.41578,85.5964
2023-03-11 16:31:33:883,-0.584503,0.760912,-9.71342,-4.59644,-3.42325,85.6048
2023-03-11 16:31:33:894,-0.596598,0.763364,-9.72727,-4.60446,-3.43058,85.613
2023-03-11 16:31:33:904,-0.614997,0.775399,-9.72494,-4.61077,-3.43215,85.6233
2023-03-11 16:31:33:914,-0.64031,0.777274,-9.69855,-4.61779,-3.43838,85.6328
2023-03-11 16:31:33:924,-0.636745,0.788198,-9.69671,-4.62543,-3.44404,85.6375
2023-03-11 16:31:33:934,-0.610681,0.797476,-9.69986,-4.6367,-3.44762,85.6458
2023-03-11 16:31:33:944,-0.613453,0.796073,-9.70502,-4.64915,-3.44741,85.6477
2023-03-11 16:31:33:954,-0.620162,0.795303,-9.73238,-4.66471,-3.44748,85.6481
2023-03-11 16:31:33:964,-0.614816,0.815018,-9.73343,-4.68117,-3.44958,85.6476
2023-03-11 16:31:33:973,-0.600337,0.824868,-9.73492,-4.69717,-3.45114,85.6479
2023-03-11 16:31:33:984,-0.568042,0.837109,-9.74051,-4.71536,-3.45108,85.6476
2023-03-11 16:31:33:994,-0.563429,0.849648,-9.7472,-4.73134,-3.44766,85.6442
2023-03-11 16:31:34:4,-0.550581,0.860516,-9.75185,-4.74931,-3.44678,85.6417
2023-03-11 16:31:34:14,-0.531138,0.867922,-9.7598,-4.76378,-3.44945,85.6396
2023-03-11 16:31:34:24,-0.537054,0.856425,-9.76406,-4.78015,-3.4493,85.6379
2023-03-11 16:31:34:34,-0.536137,0.852661,-9.75277,-4.79511,-3.45372,85.637
2023-03-11 16:31:34:44,-0.553877,0.85689,-9.74434,-4.81374,-3.45582,85.6434
2023-03-11 16:31:34:54,-0.565767,0.857391,-9.72019,-4.82831,-3.46014,85.647
2023-03-11 16:31:34:63,-0.572559,0.862028,-9.71057,-4.84255,-3.45882,85.6512
2023-03-11 16:31:34:73,-0.579043,0.883112,-9.72099,-4.857,-3.45762,85.6534
2023-03-11 16:31:34:83,-0.594805,0.900517,-9.7606,-4.87282,-3.4586,85.6603
2023-03-11 16:31:34:94,-0.600875,0.917159,-9.78513,-4.88646,-3.45912,85.6659
2023-03-11 16:31:34:103,-0.599596,0.913682,-9.77814,-4.8961,-3.46283,85.6712
2023-03-11 16:31:34:113,-0.609672,0.900918,-9.76978,-4.90244,-3.46839,85.6746
2023-03-11 16:31:34:124,-0.614274,0.905418,-9.75742,-4.90624,-3.4702,85.6722
2023-03-11 16:31:34:133,-0.593025,0.889168,-9.72542,-4.90897,-3.47336,85.6688
2023-03-11 16:31:34:144,-0.585509,0.865502,-9.68586,-4.91171,-3.4801,85.6635
2023-03-11 16:31:34:154,-0.58874,0.871858,-9.70331,-4.9125,-3.48858,85.6598
2023-03-11 16:31:34:164,-0.582587,0.891484,-9.74729,-4.91795,-3.49642,85.6533
2023-03-11 16:31:34:174,-0.569534,0.911246,-9.81537,-4.92656,-3.507,85.6487
2023-03-11 16:31:34:184,-0.558676,0.926477,-9.86791,-4.93783,-3.5144,85.6467
2023-03-11 16:31:34:194,-0.55723,0.924227,-9.8589,-4.94008,-3.52255,85.6465
2023-03-11 16:31:34:204,-0.593055,0.915398,-9.81644,-4.94053,-3.53941,85.6489
2023-03-11 16:31:34:214,-0.635229,0.903918,-9.76433,-4.93493,-3.55623,85.6506
2023-03-11 16:31:34:223,-0.674909,0.88355,-9.73168,-4.92705,-3.57211,85.6556
2023-03-11 16:31:34:233,-0.716408,0.893621,-9.70144,-4.91753,-3.59303,85.6632
2023-03-11 16:31:34:244,-0.731274,0.89881,-9.68328,-4.91655,-3.60989,85.672
2023-03-11 16:31:34:254,-0.734595,0.892378,-9.66991,-4.91054,-3.61773,85.6807
2023-03-11 16:31:34:264,-0.738362,0.885366,-9.66396,-4.90615,-3.62275,85.6842
2023-03-11 16:31:34:274,-0.731781,0.893017,-9.66999,-4.90139,-3.62388,85.688
2023-03-11 16:31:34:284,-0.718903,0.897226,-9.68647,-4.89643,-3.62066,85.6888
2023-03-11 16:31:34:294,-0.691097,0.888563,-9.70886,-4.89279,-3.61293,85.6829
2023-03-11 16:31:34:304,-0.66606,0.888363,-9.72641,-4.88587,-3.60295,85.6752
2023-03-11 16:31:34:314,-0.639971,0.894282,-9.72898,-4.88088,-3.596,85.6635
2023-03-11 16:31:34:324,-0.608354,0.882454,-9.73696,-4.87536,-3.58808,85.6517
2023-03-11 16:31:34:334,-0.601218,0.869454,-9.74906,-4.86998,-3.58018,85.6376
2023-03-11 16:31:34:343,-0.594356,0.861331,-9.76354,-4.86433,-3.57078,85.6275
2023-03-11 16:31:34:353,-0.573727,0.863313,-9.76726,-4.8587,-3.56371,85.6173
2023-03-11 16:31:34:364,-0.55733,0.853647,-9.72184,-4.85404,-3.55619,85.6082
2023-03-11 16:31:34:374,-0.578188,0.843134,-9.68068,-4.84973,-3.55316,85.6002
2023-03-11 16:31:34:384,-0.619732,0.853649,-9.67681,-4.8483,-3.54692,85.5959
2023-03-11 16:31:34:394,-0.623633,0.851182,-9.69557,-4.84751,-3.54102,85.5916
2023-03-11 16:31:34:404,-0.616055,0.885152,-9.71929,-4.84728,-3.53057,85.5856
2023-03-11 16:31:34:414,-0.57701,0.874946,-9.74496,-4.84948,-3.51946,85.5775
2023-03-11 16:31:34:424,-0.561433,0.858078,-9.74033,-4.84959,-3.5083,85.5719
2023-03-11 16:31:34:434,-0.585236,0.867907,-9.75327,-4.84678,-3.50088,85.5628
2023-03-11 16:31:34:444,-0.602348,0.887598,-9.76692,-4.84575,-3.49451,85.5555
2023-03-11 16:31:34:454,-0.589256,0.877489,-9.76765,-4.84516,-3.4893,85.5435
2023-03-11 16:31:34:464,-0.563283,0.861214,-9.75989,-4.84339,-3.48682,85.5305
2023-03-11 16:31:34:473,-0.533319,0.854163,-9.77063,-4.84112,-3.48113,85.5189
2023-03-11 16:31:34:484,-0.529413,0.866144,-9.77665,-4.83576,-3.47694,85.5091
2023-03-11 16:31:34:494,-0.540566,0.86504,-9.77418,-4.82916,-3.47651,85.4987
2023-03-11 16:31:34:504,-0.556435,0.849851,-9.75722,-4.82333,-3.47518,85.4906
2023-03-11 16:31:34:514,-0.563938,0.839248,-9.75863,-4.81506,-3.4725,85.4897
2023-03-11 16:31:34:524,-0.570576,0.845264,-9.73725,-4.80447,-3.46785,85.4863
2023-03-11 16:31:34:534,-0.578147,0.82283,-9.72456,-4.79299,-3.46223,85.4854
2023-03-11 16:31:34:544,-0.582897,0.806698,-9.70617,-4.78243,-3.45935,85.4884
2023-03-11 16:31:34:554,-0.584982,0.81115,-9.70138,-4.76764,-3.46013,85.4881
2023-03-11 16:31:34:564,-0.590725,0.809979,-9.70667,-4.75733,-3.45599,85.4868
2023-03-11 16:31:34:574,-0.58142,0.804059,-9.72678,-4.74499,-3.45312,85.4831
2023-03-11 16:31:34:584,-0.575384,0.812205,-9.75132,-4.73912,-3.45065,85.481
2023-03-11 16:31:34:594,-0.568144,0.813651,-9.76154,-4.7317,-3.44978,85.4767
2023-03-11 16:31:34:604,-0.554812,0.792275,-9.72749,-4.72298,-3.45011,85.4736
2023-03-11 16:31:34:614,-0.565463,0.784743,-9.70583,-4.71602,-3.45408,85.4692
2023-03-11 16:31:34:624,-0.55985,0.793286,-9.69011,-4.71229,-3.45482,85.4677
2023-03-11 16:31:34:634,-0.569006,0.791604,-9.6896,-4.70859,-3.4506,85.4662
2023-03-11 16:31:34:644,-0.579831,0.787917,-9.68825,-4.70868,-3.44965,85.4639
2023-03-11 16:31:34:654,-0.577205,0.795649,-9.68475,-4.70888,-3.4499,85.4625
2023-03-11 16:31:34:664,-0.582674,0.798051,-9.6946,-4.7155,-3.44803,85.4588
2023-03-11 16:31:34:674,-0.597068,0.803527,-9.71088,-4.7197,-3.44662,85.4551
2023-03-11 16:31:34:684,-0.593887,0.811304,-9.73188,-4.72399,-3.44013,85.4529
2023-03-11 16:31:34:694,-0.597789,0.824177,-9.71576,-4.72904,-3.43496,85.4515
2023-03-11 16:31:34:703,-0.593291,0.814662,-9.71332,-4.73413,-3.4301,85.4444
2023-03-11 16:31:34:714,-0.564607,0.822224,-9.732,-4.74258,-3.4212,85.4375
2023-03-11 16:31:34:723,-0.561512,0.835793,-9.75978,-4.74441,-3.41708,85.4295
2023-03-11 16:31:34:733,-0.534698,0.849558,-9.76466,-4.75175,-3.41047,85.4232
2023-03-11 16:31:34:744,-0.521126,0.85422,-9.7749,-4.758,-3.40364,85.4138
2023-03-11 16:31:34:754,-0.509061,0.86463,-9.76583,-4.76246,-3.39906,85.404
2023-03-11 16:31:34:764,-0.490934,0.862245,-9.77517,-4.76717,-3.39569,85.3982
2023-03-11 16:31:34:774,-0.503738,0.869492,-9.78124,-4.76994,-3.39447,85.3889
2023-03-11 16:31:34:784,-0.493646,0.872122,-9.76261,-4.76845,-3.39635,85.3824
2023-03-11 16:31:34:794,-0.508695,0.867104,-9.74726,-4.76637,-3.39581,85.3797
2023-03-11 16:31:34:804,-0.52862,0.859771,-9.76137,-4.76172,-3.39988,85.3785
2023-03-11 16:31:34:814,-0.538698,0.865233,-9.74937,-4.75508,-3.40651,85.381
2023-03-11 16:31:34:824,-0.56129,0.857251,-9.73311,-4.74841,-3.40823,85.3834
2023-03-11 16:31:34:834,-0.569379,0.839619,-9.72141,-4.73745,-3.4101,85.3895
2023-03-11 16:31:34:844,-0.593271,0.841205,-9.74324,-4.72884,-3.41352,85.395
2023-03-11 16:31:34:854,-0.611645,0.845834,-9.76563,-4.7204,-3.41857,85.4011
2023-03-11 16:31:34:864,-0.627622,0.840611,-9.75497,-4.7096,-3.4232,85.4069
2023-03-11 16:31:34:874,-0.628409,0.827333,-9.73096,-4.69603,-3.42314,85.4069
2023-03-11 16:31:34:884,-0.610457,0.805107,-9.70384,-4.68377,-3.42167,85.4029
2023-03-11 16:31:34:894,-0.601063,0.784449,-9.66903,-4.6752,-3.42543,85.399
2023-03-11 16:31:34:904,-0.599096,0.783603,-9.67529,-4.66998,-3.42623,85.3942
2023-03-11 16:31:34:914,-0.575739,0.774831,-9.72231,-4.66301,-3.42603,85.3882
2023-03-11 16:31:34:924,-0.551504,0.810661,-9.77614,-4.65826,-3.42907,85.3848
2023-03-11 16:31:34:934,-0.524544,0.819748,-9.82045,-4.65435,-3.42928,85.3763
2023-03-11 16:31:34:944,-0.529224,0.809086,-9.7994,-4.64642,-3.43048,85.3664
2023-03-11 16:31:34:954,-0.545927,0.786523,-9.77128,-4.63928,-3.43939,85.3609
2023-03-11 16:31:34:964,-0.574502,0.775857,-9.72881,-4.62859,-3.44539,85.3596
2023-03-11 16:31:34:974,-0.592738,0.774292,-9.68243,-4.62149,-3.45488,85.3611
2023-03-11 16:31:34:984,-0.616326,0.78217,-9.65738,-4.61441,-3.46243,85.3678
2023-03-11 16:31:34:994,-0.607448,0.790758,-9.65655,-4.61341,-3.46676,85.3737
2023-03-11 16:31:35:4,-0.601542,0.794428,-9.64884,-4.61267,-3.47118,85.3798
2023-03-11 16:31:35:14,-0.619795,0.795202,-9.66188,-4.61704,-3.47535,85.3897
2023-03-11 16:31:35:24,-0.656547,0.812358,-9.68017,-4.62183,-3.47679,85.3976
2023-03-11 16:31:35:34,-0.684632,0.8183,-9.68778,-4.63134,-3.48068,85.4073
2023-03-11 16:31:35:44,-0.709729,0.833936,-9.68588,-4.63838,-3.47906,85.4124
2023-03-11 16:31:35:54,-0.702053,0.851636,-9.69855,-4.64922,-3.47631,85.4108
2023-03-11 16:31:35:64,-0.673781,0.861441,-9.71749,-4.65966,-3.47299,85.4082
2023-03-11 16:31:35:74,-0.649715,0.849759,-9.74738,-4.66623,-3.4674,85.4012
2023-03-11 16:31:35:84,-0.62796,0.85618,-9.76866,-4.67482,-3.46093,85.3921
2023-03-11 16:31:35:94,-0.597487,0.86788,-9.77114,-4.68159,-3.45333,85.3804
2023-03-11 16:31:35:104,-0.559751,0.872895,-9.79786,-4.68611,-3.44684,85.3654
2023-03-11 16:31:35:114,-0.519462,0.872603,-9.78691,-4.69513,-3.43849,85.3509
2023-03-11 16:31:35:124,-0.500869,0.861739,-9.76174,-4.69936,-3.43258,85.3356
2023-03-11 16:31:35:134,-0.533191,0.86828,-9.74382,-4.7023,-3.43045,85.3238
2023-03-11 16:31:35:144,-0.529599,0.867283,-9.73809,-4.70531,-3.4251,85.3108
2023-03-11 16:31:35:154,-0.521556,0.883325,-9.77923,-4.70704,-3.42071,85.3047
2023-03-11 16:31:35:164,-0.495191,0.880336,-9.79418,-4.70432,-3.41427,85.2949
2023-03-11 16:31:35:174,-0.474694,0.870419,-9.77065,-4.70129,-3.41301,85.2872
2023-03-11 16:31:35:184,-0.503968,0.857581,-9.75989,-4.69408,-3.41592,85.2828
2023-03-11 16:31:35:194,-0.538754,0.856235,-9.75571,-4.68603,-3.42201,85.2828
2023-03-11 16:31:35:204,-0.56181,0.849069,-9.74805,-4.67957,-3.42824,85.2852
2023-03-11 16:31:35:214,-0.562028,0.831105,-9.74942,-4.66828,-3.43523,85.2862
2023-03-11 16:31:35:224,-0.542477,0.827161,-9.76242,-4.65857,-3.44211,85.2886
2023-03-11 16:31:35:234,-0.543824,0.828472,-9.76891,-4.64625,-3.44271,85.2961
2023-03-11 16:31:35:243,-0.553621,0.827192,-9.75776,-4.63657,-3.44891,85.3003
2023-03-11 16:31:35:253,-0.565616,0.799759,-9.74858,-4.62415,-3.45692,85.3042
2023-03-11 16:31:35:264,-0.60083,0.7967,-9.73878,-4.61084,-3.46832,85.3133
2023-03-11 16:31:35:274,-0.626478,0.794108,-9.72989,-4.60027,-3.47626,85.3229
2023-03-11 16:31:35:284,-0.634605,0.801626,-9.6904,-4.59254,-3.4851,85.3307
2023-03-11 16:31:35:294,-0.653074,0.786799,-9.68835,-4.58365,-3.49473,85.3354
2023-03-11 16:31:35:303,-0.664885,0.784224,-9.69982,-4.57334,-3.49893,85.3362
2023-03-11 16:31:35:314,-0.654491,0.786182,-9.70602,-4.56774,-3.50089,85.3422
2023-03-11 16:31:35:324,-0.639255,0.792915,-9.70727,-4.5615,-3.50146,85.3422
2023-03-11 16:31:35:334,-0.620672,0.78074,-9.71674,-4.55659,-3.49921,85.3435
2023-03-11 16:31:35:344,-0.607662,0.774119,-9.72447,-4.55253,-3.49973,85.3407
2023-03-11 16:31:35:354,-0.604788,0.782644,-9.73136,-4.54429,-3.49911,85.3341
2023-03-11 16:31:35:364,-0.575804,0.789462,-9.74314,-4.54091,-3.50122,85.3289
2023-03-11 16:31:35:374,-0.559021,0.780239,-9.74368,-4.53758,-3.50537,85.3255
2023-03-11 16:31:35:384,-0.572068,0.767236,-9.73455,-4.53112,-3.50565,85.3234
2023-03-11 16:31:35:394,-0.578616,0.756003,-9.71559,-4.52362,-3.503,85.3256
2023-03-11 16:31:35:403,-0.592468,0.76033,-9.69348,-4.52141,-3.49906,85.3271
2023-03-11 16:31:35:414,-0.615993,0.778597,-9.68318,-4.5219,-3.49195,85.3315
2023-03-11 16:31:35:424,-0.620464,0.784674,-9.69525,-4.52435,-3.48341,85.3381
2023-03-11 16:31:35:434,-0.611965,0.783194,-9.711,-4.52618,-3.47437,85.3405
2023-03-11 16:31:35:444,-0.611035,0.786291,-9.73569,-4.53047,-3.46747,85.3383
2023-03-11 16:31:35:454,-0.606042,0.795252,-9.75925,-4.53595,-3.46181,85.338
2023-03-11 16:31:35:463,-0.581927,0.80428,-9.77521,-4.53911,-3.45771,85.3337
2023-03-11 16:31:35:473,-0.574126,0.813484,-9.76762,-4.54275,-3.45004,85.3284
2023-03-11 16:31:35:483,-0.556353,0.821801,-9.76096,-4.5441,-3.44382,85.3204
2023-03-11 16:31:35:494,-0.531538,0.811365,-9.76343,-4.54618,-3.44356,85.312
2023-03-11 16:31:35:503,-0.536613,0.795229,-9.7456,-4.54943,-3.44464,85.3065
2023-03-11 16:31:35:514,-0.544898,0.793054,-9.73601,-4.54864,-3.44814,85.3023
2023-03-11 16:31:35:524,-0.535433,0.788193,-9.73341,-4.54858,-3.45517,85.298
2023-03-11 16:31:35:533,-0.534534,0.784652,-9.73462,-4.54624,-3.45957,85.2943
2023-03-11 16:31:35:543,-0.533204,0.776873,-9.73468,-4.54686,-3.46277,85.2944
2023-03-11 16:31:35:554,-0.527015,0.797767,-9.72892,-4.54652,-3.4663,85.2981
2023-03-11 16:31:35:564,-0.534415,0.798978,-9.71651,-4.54772,-3.46696,85.3023
2023-03-11 16:31:35:574,-0.570384,0.773366,-9.7195,-4.54542,-3.46994,85.3091
2023-03-11 16:31:35:583,-0.586074,0.781504,-9.71353,-4.54167,-3.47666,85.3201
2023-03-11 16:31:35:594,-0.605647,0.790163,-9.74316,-4.54326,-3.48117,85.3263
2023-03-11 16:31:35:604,-0.604819,0.776796,-9.7405,-4.54328,-3.48484,85.3381
2023-03-11 16:31:35:614,-0.585708,0.755621,-9.73962,-4.53955,-3.48962,85.3499
2023-03-11 16:31:35:623,-0.552286,0.753728,-9.7578,-4.53969,-3.49014,85.3621
2023-03-11 16:31:35:634,-0.516683,0.727037,-9.72833,-4.53958,-3.49183,85.371
2023-03-11 16:31:35:643,-0.518303,0.690992,-9.6624,-4.54313,-3.49507,85.3791
2023-03-11 16:31:35:654,-0.581143,0.690055,-9.63425,-4.54799,-3.50181,85.3925
2023-03-11 16:31:35:664,-0.606367,0.711037,-9.65665,-4.56193,-3.50521,85.4078
2023-03-11 16:31:35:674,-0.590245,0.730429,-9.69984,-4.58174,-3.51094,85.424
2023-03-11 16:31:35:684,-0.558693,0.759635,-9.76022,-4.60412,-3.51567,85.4393
2023-03-11 16:31:35:694,-0.529252,0.785937,-9.80237,-4.62602,-3.51934,85.4516
2023-03-11 16:31:35:703,-0.506859,0.793405,-9.80255,-4.64733,-3.52483,85.4665
2023-03-11 16:31:35:714,-0.515151,0.79712,-9.77855,-4.66907,-3.53999,85.4814
2023-03-11 16:31:35:724,-0.553194,0.806301,-9.74947,-4.69227,-3.55575,85.4974
2023-03-11 16:31:35:733,-0.561379,0.822457,-9.75425,-4.71195,-3.56769,85.5193
2023-03-11 16:31:35:743,-0.498095,0.827242,-9.74049,-4.72701,-3.57502,85.5435
2023-03-11 16:31:35:754,-0.50468,0.815649,-9.68428,-4.74428,-3.58687,85.5698
2023-03-11 16:31:35:763,-0.568893,0.837056,-9.67025,-4.76401,-3.59578,85.6011
2023-03-11 16:31:35:773,-0.61695,0.87191,-9.6907,-4.78743,-3.60763,85.6376
2023-03-11 16:31:35:784,-0.639023,0.886628,-9.69363,-4.8093,-3.61976,85.6749
2023-03-11 16:31:35:793,-0.665469,0.889681,-9.71146,-4.83067,-3.62436,85.7118
2023-03-11 16:31:35:804,-0.680257,0.911539,-9.73536,-4.84745,-3.63063,85.7495
2023-03-11 16:31:35:813,-0.683966,0.931444,-9.75254,-4.8648,-3.63184,85.7818
2023-03-11 16:31:35:824,-0.675938,0.942084,-9.76697,-4.88245,-3.63884,85.8108
2023-03-11 16:31:35:834,-0.675881,0.923826,-9.77466,-4.89699,-3.64155,85.8354
2023-03-11 16:31:35:844,-0.6649,0.930402,-9.77416,-4.91097,-3.64556,85.8564
2023-03-11 16:31:35:854,-0.657734,0.960752,-9.77999,-4.92415,-3.64956,85.873
2023-03-11 16:31:35:864,-0.65058,0.952031,-9.7771,-4.93743,-3.65383,85.8889
2023-03-11 16:31:35:874,-0.6546,0.929947,-9.74132,-4.94285,-3.65804,85.9011
2023-03-11 16:31:35:884,-0.689371,0.943877,-9.71052,-4.95249,-3.66652,85.9125
2023-03-11 16:31:35:894,-0.697425,0.950394,-9.70689,-4.95836,-3.67602,85.9181
2023-03-11 16:31:35:904,-0.695859,0.970985,-9.7497,-4.9702,-3.68469,85.9251
2023-03-11 16:31:35:914,-0.659581,0.975982,-9.80042,-4.98046,-3.68961,85.9275
2023-03-11 16:31:35:924,-0.616872,0.95811,-9.78146,-4.98552,-3.69137,85.9316
2023-03-11 16:31:35:934,-0.620426,0.935835,-9.7594,-4.98384,-3.69852,85.9322
2023-03-11 16:31:35:944,-0.651955,0.954784,-9.73222,-4.97942,-3.70409,85.9345
2023-03-11 16:31:35:954,-0.67193,0.946769,-9.72151,-4.97202,-3.7112,85.9371
2023-03-11 16:31:35:964,-0.682837,0.926946,-9.72324,-4.96752,-3.72032,85.9357
2023-03-11 16:31:35:974,-0.668232,0.920389,-9.72157,-4.95919,-3.72489,85.9365
2023-03-11 16:31:35:984,-0.648105,0.91429,-9.71323,-4.95307,-3.72445,85.9324
2023-03-11 16:31:35:994,-0.632889,0.900919,-9.72281,-4.94776,-3.72328,85.9325
2023-03-11 16:31:36:4,-0.644573,0.909356,-9.72939,-4.94153,-3.72494,85.9333
2023-03-11 16:31:36:14,-0.661319,0.919975,-9.73422,-4.9355,-3.72689,85.933
2023-03-11 16:31:36:24,-0.68797,0.913652,-9.73147,-4.92907,-3.73131,85.9291
2023-03-11 16:31:36:34,-0.682319,0.911661,-9.7196,-4.9212,-3.73653,85.9297
2023-03-11 16:31:36:44,-0.673914,0.901305,-9.71192,-4.91028,-3.74009,85.9288
2023-03-11 16:31:36:54,-0.672465,0.897761,-9.7038,-4.89912,-3.74137,85.925
2023-03-11 16:31:36:64,-0.683565,0.886126,-9.71458,-4.89023,-3.74134,85.9233
2023-03-11 16:31:36:74,-0.663691,0.8684,-9.7057,-4.87796,-3.73937,85.9204
2023-03-11 16:31:36:84,-0.650205,0.856601,-9.71965,-4.86901,-3.736,85.9172
2023-03-11 16:31:36:94,-0.654406,0.858912,-9.73155,-4.86037,-3.73451,85.9131
2023-03-11 16:31:36:104,-0.653821,0.861029,-9.73733,-4.85161,-3.73565,85.9112
2023-03-11 16:31:36:114,-0.655959,0.853962,-9.74953,-4.8413,-3.73492,85.9123
2023-03-11 16:31:36:124,-0.660336,0.854805,-9.75321,-4.83252,-3.73473,85.9128
2023-03-11 16:31:36:134,-0.678451,0.845348,-9.74211,-4.82223,-3.73507,85.9094
2023-03-11 16:31:36:143,-0.675339,0.846135,-9.72315,-4.81433,-3.73139,85.9064
2023-03-11 16:31:36:154,-0.66711,0.845361,-9.70952,-4.80629,-3.72863,85.907
2023-03-11 16:31:36:164,-0.667374,0.83881,-9.70737,-4.79691,-3.7293,85.9065
2023-03-11 16:31:36:174,-0.666628,0.835115,-9.70785,-4.78573,-3.72754,85.9043
2023-03-11 16:31:36:184,-0.675794,0.829309,-9.71219,-4.78106,-3.72294,85.9015
2023-03-11 16:31:36:194,-0.669483,0.827163,-9.72994,-4.77434,-3.72121,85.8975
2023-03-11 16:31:36:204,-0.668921,0.824182,-9.73285,-4.7687,-3.71718,85.8905
2023-03-11 16:31:36:214,-0.661923,0.817167,-9.72794,-4.76386,-3.71404,85.8829
2023-03-11 16:31:36:224,-0.649975,0.814392,-9.72424,-4.7584,-3.70793,85.8734
2023-03-11 16:31:36:234,-0.639005,0.821609,-9.72463,-4.75376,-3.70035,85.8628
2023-03-11 16:31:36:244,-0.614567,0.816522,-9.73029,-4.74554,-3.69323,85.8497
2023-03-11 16:31:36:253,-0.593661,0.810309,-9.73664,-4.74434,-3.68666,85.842
2023-03-11 16:31:36:264,-0.595575,0.827266,-9.74158,-4.73681,-3.68172,85.8318
2023-03-11 16:31:36:274,-0.597692,0.834577,-9.76058,-4.73242,-3.67767,85.8222
2023-03-11 16:31:36:283,-0.594887,0.835941,-9.77142,-4.72824,-3.6726,85.8145
2023-03-11 16:31:36:293,-0.578972,0.829763,-9.7567,-4.7226,-3.67152,85.8013
2023-03-11 16:31:36:303,-0.574899,0.820946,-9.73566,-4.71549,-3.67344,85.7901
2023-03-11 16:31:36:314,-0.586033,0.809465,-9.70603,-4.71058,-3.6725,85.785
2023-03-11 16:31:36:323,-0.593172,0.803283,-9.6862,-4.70279,-3.67248,85.7823
2023-03-11 16:31:36:334,-0.586252,0.797723,-9.68032,-4.69679,-3.6728,85.7776
2023-03-11 16:31:36:343,-0.575077,0.796997,-9.68132,-4.69325,-3.67308,85.7732
2023-03-11 16:31:36:354,-0.562755,0.81533,-9.69607,-4.6928,-3.67044,85.7705
2023-03-11 16:31:36:363,-0.565038,0.808265,-9.71784,-4.6919,-3.66828,85.7694
2023-03-11 16:31:36:374,-0.572493,0.803772,-9.73827,-4.69579,-3.66514,85.7726
2023-03-11 16:31:36:384,-0.56842,0.796889,-9.74777,-4.699,-3.66216,85.775
2023-03-11 16:31:36:393,-0.576469,0.783252,-9.72733,-4.70134,-3.65634,85.7791
2023-03-11 16:31:36:404,-0.57132,0.784558,-9.71425,-4.705,-3.64985,85.7873
2023-03-11 16:31:36:414,-0.57143,0.788409,-9.69374,-4.70687,-3.64819,85.7937
2023-03-11 16:31:36:424,-0.565384,0.785036,-9.70506,-4.71293,-3.64975,85.7987
2023-03-11 16:31:36:434,-0.552137,0.802016,-9.74902,-4.72118,-3.64843,85.8035
2023-03-11 16:31:36:444,-0.553743,0.828539,-9.79248,-4.73396,-3.65114,85.8067
2023-03-11 16:31:36:453,-0.533302,0.839205,-9.80297,-4.7462,-3.65906,85.8092
2023-03-11 16:31:36:464,-0.509135,0.837404,-9.79916,-4.75728,-3.6713,85.8117
2023-03-11 16:31:36:474,-0.520316,0.824099,-9.76716,-4.76888,-3.68822,85.8154
2023-03-11 16:31:36:484,-0.557035,0.82559,-9.71696,-4.77567,-3.70659,85.8224
2023-03-11 16:31:36:494,-0.587607,0.831389,-9.68088,-4.78616,-3.73003,85.8274
2023-03-11 16:31:36:503,-0.619299,0.832915,-9.66887,-4.79658,-3.75405,85.8399
2023-03-11 16:31:36:514,-0.649255,0.849313,-9.6606,-4.80954,-3.776,85.8606
2023-03-11 16:31:36:523,-0.674919,0.852215,-9.65808,-4.82727,-3.79434,85.8793
2023-03-11 16:31:36:534,-0.710331,0.864191,-9.66247,-4.84583,-3.81215,85.9004
2023-03-11 16:31:36:544,-0.733869,0.882746,-9.67685,-4.86551,-3.82682,85.9201
2023-03-11 16:31:36:554,-0.751183,0.90158,-9.69689,-4.88329,-3.83906,85.9401
2023-03-11 16:31:36:564,-0.771635,0.892987,-9.7183,-4.90057,-3.85096,85.957
2023-03-11 16:31:36:574,-0.779446,0.892087,-9.72,-4.9156,-3.85812,85.9724
2023-03-11 16:31:36:584,-0.756623,0.880137,-9.73211,-4.93167,-3.85918,85.98
2023-03-11 16:31:36:594,-0.723758,0.880686,-9.7469,-4.95074,-3.8569,85.9882
2023-03-11 16:31:36:604,-0.702741,0.897662,-9.75053,-4.96661,-3.85814,85.9879
2023-03-11 16:31:36:614,-0.686806,0.895904,-9.76132,-4.98494,-3.85462,85.9833
2023-03-11 16:31:36:623,-0.649283,0.895807,-9.74443,-5.00411,-3.85219,85.9785
2023-03-11 16:31:36:633,-0.634322,0.885581,-9.72043,-5.01785,-3.85577,85.9736
2023-03-11 16:31:36:644,-0.665341,0.900846,-9.69348,-5.03682,-3.85936,85.9711
2023-03-11 16:31:36:654,-0.675252,0.905261,-9.69178,-5.05739,-3.86385,85.9666
2023-03-11 16:31:36:664,-0.666692,0.925846,-9.73572,-5.07551,-3.8602,85.9636
2023-03-11 16:31:36:674,-0.62436,0.934521,-9.75722,-5.09574,-3.8572,85.9613
2023-03-11 16:31:36:684,-0.604693,0.925701,-9.74836,-5.10875,-3.85335,85.9562
2023-03-11 16:31:36:693,-0.613319,0.923344,-9.74161,-5.12346,-3.84974,85.954
2023-03-11 16:31:36:704,-0.633347,0.917041,-9.73674,-5.13616,-3.84875,85.9525
2023-03-11 16:31:36:714,-0.639221,0.925343,-9.74038,-5.14802,-3.84885,85.953
2023-03-11 16:31:36:724,-0.625688,0.933426,-9.77473,-5.1602,-3.84727,85.9524
2023-03-11 16:31:36:733,-0.630295,0.957592,-9.78989,-5.1692,-3.8456,85.9544
2023-03-11 16:31:36:743,-0.627978,0.960404,-9.77873,-5.17814,-3.84603,85.9533
2023-03-11 16:31:36:754,-0.635393,0.956048,-9.75129,-5.18686,-3.84672,85.9606
2023-03-11 16:31:36:763,-0.634557,0.956005,-9.7362,-5.19262,-3.84902,85.9623
2023-03-11 16:31:36:774,-0.661978,0.931149,-9.72459,-5.19543,-3.85034,85.9626
2023-03-11 16:31:36:783,-0.669696,0.927128,-9.70469,-5.19736,-3.85441,85.9659
2023-03-11 16:31:36:793,-0.660035,0.934884,-9.70832,-5.20048,-3.85648,85.9684
2023-03-11 16:31:36:804,-0.655782,0.929955,-9.70322,-5.20432,-3.86289,85.9718
2023-03-11 16:31:36:813,-0.671075,0.907595,-9.70116,-5.20824,-3.8667,85.9739
2023-03-11 16:31:36:823,-0.67317,0.899846,-9.70808,-5.21273,-3.87104,85.9747
2023-03-11 16:31:36:833,-0.662942,0.909064,-9.69874,-5.21891,-3.87642,85.9777
2023-03-11 16:31:36:844,-0.672554,0.91409,-9.70062,-5.22723,-3.88484,85.9789
2023-03-11 16:31:36:854,-0.685727,0.901037,-9.70885,-5.2336,-3.88999,85.9843
2023-03-11 16:31:36:864,-0.690946,0.899742,-9.7096,-5.24039,-3.89578,85.9888
2023-03-11 16:31:36:874,-0.706131,0.906534,-9.70145,-5.25041,-3.90175,85.9929
2023-03-11 16:31:36:884,-0.709644,0.909378,-9.70645,-5.26396,-3.90881,85.9982
2023-03-11 16:31:36:894,-0.708716,0.917742,-9.70382,-5.27816,-3.91125,86.0036
2023-03-11 16:31:36:904,-0.725658,0.912273,-9.70541,-5.2918,-3.91377,86.0091
2023-03-11 16:31:36:914,-0.749146,0.92291,-9.69653,-5.30354,-3.91422,86.0102
2023-03-11 16:31:36:923,-0.744944,0.940189,-9.70137,-5.31407,-3.91079,86.0118
2023-03-11 16:31:36:934,-0.739178,0.933153,-9.71008,-5.32561,-3.90771,86.0153
2023-03-11 16:31:36:943,-0.712885,0.926139,-9.70618,-5.33965,-3.90278,86.0157
2023-03-11 16:31:36:954,-0.703529,0.93584,-9.72791,-5.35177,-3.89284,86.0104
2023-03-11 16:31:36:964,-0.69519,0.955256,-9.73605,-5.36615,-3.88533,86.0057
2023-03-11 16:31:36:974,-0.671272,0.947484,-9.7378,-5.38193,-3.87483,86.0007
2023-03-11 16:31:36:984,-0.648517,0.947322,-9.72843,-5.40028,-3.86368,85.9943
2023-03-11 16:31:36:994,-0.640473,0.957496,-9.74107,-5.41941,-3.85189,85.9831
2023-03-11 16:31:37:4,-0.621553,0.967843,-9.74066,-5.43403,-3.84074,85.9745
2023-03-11 16:31:37:14,-0.60946,0.963037,-9.74069,-5.44816,-3.8297,85.963
2023-03-11 16:31:37:24,-0.599259,0.973031,-9.75619,-5.46008,-3.82089,85.95
2023-03-11 16:31:37:34,-0.583798,0.981521,-9.75745,-5.47097,-3.81423,85.9405
2023-03-11 16:31:37:44,-0.584732,0.980033,-9.74331,-5.48044,-3.80573,85.9332
2023-03-11 16:31:37:54,-0.581155,0.980155,-9.73742,-5.49117,-3.79994,85.924
2023-03-11 16:31:37:63,-0.573099,0.971216,-9.73243,-5.5008,-3.79445,85.9195
2023-03-11 16:31:37:74,-0.566149,0.980535,-9.73044,-5.51148,-3.79044,85.9159
2023-03-11 16:31:37:84,-0.563608,0.982039,-9.72325,-5.52,-3.78853,85.9117
2023-03-11 16:31:37:94,-0.598915,0.988155,-9.72851,-5.52849,-3.78962,85.909
2023-03-11 16:31:37:104,-0.610381,1.00374,-9.75452,-5.53537,-3.78515,85.9124
2023-03-11 16:31:37:113,-0.623712,0.999401,-9.75493,-5.54241,-3.78411,85.9169
2023-03-11 16:31:37:123,-0.629242,0.982317,-9.75632,-5.54641,-3.78767,85.9182
2023-03-11 16:31:37:133,-0.642043,1.0007,-9.72042,-5.54844,-3.79332,85.922
2023-03-11 16:31:37:144,-0.625769,0.995272,-9.67787,-5.55021,-3.79367,85.9222
2023-03-11 16:31:37:154,-0.607924,0.976071,-9.66287,-5.55296,-3.79337,85.9219
2023-03-11 16:31:37:164,-0.61422,0.987812,-9.69913,-5.55873,-3.79418,85.9224
2023-03-11 16:31:37:174,-0.606779,0.994698,-9.75297,-5.56529,-3.79378,85.9227
2023-03-11 16:31:37:184,-0.606999,1.00792,-9.81552,-5.57143,-3.79999,85.9186
2023-03-11 16:31:37:194,-0.61174,1.02509,-9.83431,-5.57847,-3.80451,85.9163
2023-03-11 16:31:37:204,-0.589438,1.00803,-9.81247,-5.57727,-3.81035,85.9144
2023-03-11 16:31:37:213,-0.593751,0.992035,-9.76648,-5.57341,-3.81747,85.9111
2023-03-11 16:31:37:224,-0.610263,0.995247,-9.71228,-5.56878,-3.82594,85.9134
2023-03-11 16:31:37:234,-0.634305,1.00332,-9.69373,-5.565,-3.83253,85.9191
2023-03-11 16:31:37:244,-0.648672,0.997049,-9.67391,-5.566,-3.84177,85.9247
2023-03-11 16:31:37:253,-0.654822,0.986789,-9.64336,-5.56539,-3.84889,85.9355
2023-03-11 16:31:37:263,-0.652601,0.971999,-9.62683,-5.57095,-3.85623,85.9417
2023-03-11 16:31:37:273,-0.67712,0.985148,-9.61504,-5.5695,-3.86251,85.9507
2023-03-11 16:31:37:283,-0.698973,1.00508,-9.63885,-5.57393,-3.86869,85.9571
2023-03-11 16:31:37:293,-0.693086,1.00791,-9.67797,-5.57865,-3.87892,85.9662
2023-03-11 16:31:37:303,-0.703802,1.01417,-9.69711,-5.58114,-3.88385,85.9729
2023-03-11 16:31:37:313,-0.700536,1.00311,-9.71097,-5.58796,-3.88543,85.9757
2023-03-11 16:31:37:323,-0.688163,1.01471,-9.73613,-5.59063,-3.88648,85.9764
2023-03-11 16:31:37:334,-0.680142,1.0334,-9.75611,-5.60059,-3.88839,85.9771
2023-03-11 16:31:37:344,-0.66684,1.02173,-9.7617,-5.60435,-3.88497,85.9771
2023-03-11 16:31:37:354,-0.656961,1.01268,-9.78204,-5.6069,-3.88123,85.9792
2023-03-11 16:31:37:364,-0.652023,1.02782,-9.76407,-5.61487,-3.88008,85.977
2023-03-11 16:31:37:374,-0.641339,1.01557,-9.72103,-5.61891,-3.87807,85.9776
2023-03-11 16:31:37:384,-0.671851,1.00722,-9.70038,-5.6197,-3.87946,85.9763
2023-03-11 16:31:37:394,-0.697688,1.01533,-9.68619,-5.62067,-3.88234,85.977
2023-03-11 16:31:37:403,-0.678151,1.01363,-9.69938,-5.62291,-3.87697,85.9767
2023-03-11 16:31:37:414,-0.660199,1.02002,-9.74569,-5.61994,-3.87021,85.9761
2023-03-11 16:31:37:424,-0.629355,1.01167,-9.76999,-5.61761,-3.86266,85.9707
2023-03-11 16:31:37:434,-0.598763,1.00438,-9.74934,-5.60927,-3.86127,85.9683
2023-03-11 16:31:37:444,-0.621853,1.00655,-9.74862,-5.60411,-3.86038,85.9654
2023-03-11 16:31:37:453,-0.640207,0.991834,-9.75273,-5.59078,-3.86075,85.9647
2023-03-11 16:31:37:463,-0.62793,0.985999,-9.74017,-5.58123,-3.86127,85.9621
2023-03-11 16:31:37:474,-0.61673,0.974334,-9.75736,-5.5689,-3.86354,85.961
2023-03-11 16:31:37:484,-0.597863,0.978571,-9.76934,-5.55623,-3.86556,85.9618
2023-03-11 16:31:37:494,-0.612216,0.978218,-9.7425,-5.54237,-3.86849,85.965
2023-03-11 16:31:37:504,-0.629333,0.969534,-9.7141,-5.53062,-3.87355,85.9688
2023-03-11 16:31:37:514,-0.655009,0.96103,-9.69213,-5.51742,-3.88036,85.9715
2023-03-11 16:31:37:524,-0.652943,0.959642,-9.69563,-5.50892,-3.88549,85.9782
2023-03-11 16:31:37:534,-0.678425,0.962551,-9.68126,-5.49696,-3.89029,85.9844
2023-03-11 16:31:37:544,-0.685942,0.940718,-9.69414,-5.48748,-3.89356,85.9892
2023-03-11 16:31:37:554,-0.677166,0.933635,-9.70896,-5.47431,-3.89864,85.9961
2023-03-11 16:31:37:564,-0.675673,0.935288,-9.70185,-5.46144,-3.90482,86.0021
2023-03-11 16:31:37:574,-0.675912,0.915685,-9.70735,-5.45102,-3.90734,86.0074
2023-03-11 16:31:37:584,-0.677809,0.900241,-9.69386,-5.44034,-3.91098,86.0096
2023-03-11 16:31:37:594,-0.672141,0.894877,-9.69284,-5.43154,-3.91388,86.0136
2023-03-11 16:31:37:604,-0.687035,0.905993,-9.6748,-5.42508,-3.92002,86.0174
2023-03-11 16:31:37:614,-0.698445,0.898653,-9.67928,-5.42111,-3.92529,86.0234
2023-03-11 16:31:37:624,-0.699199,0.901125,-9.69251,-5.4189,-3.93244,86.0305
2023-03-11 16:31:37:634,-0.707158,0.905707,-9.69958,-5.41903,-3.93753,86.0355
2023-03-11 16:31:37:644,-0.721067,0.908783,-9.68502,-5.42184,-3.94102,86.0446
2023-03-11 16:31:37:654,-0.722642,0.907492,-9.68117,-5.42429,-3.94324,86.0515
2023-03-11 16:31:37:664,-0.71575,0.935698,-9.6825,-5.43347,-3.94306,86.0574
2023-03-11 16:31:37:674,-0.724034,0.951662,-9.68055,-5.43752,-3.93637,86.0598
2023-03-11 16:31:37:684,-0.717222,0.954793,-9.68064,-5.44432,-3.93361,86.0627
2023-03-11 16:31:37:693,-0.709274,0.958401,-9.70167,-5.45098,-3.9254,86.0611
2023-03-11 16:31:37:704,-0.686279,0.956787,-9.7148,-5.45933,-3.9208,86.0604
2023-03-11 16:31:37:713,-0.678461,0.966494,-9.71493,-5.46945,-3.91467,86.0569
2023-03-11 16:31:37:723,-0.658062,0.9768,-9.72105,-5.47889,-3.90623,86.052
2023-03-11 16:31:37:734,-0.628175,0.976613,-9.74683,-5.48523,-3.89951,86.046
2023-03-11 16:31:37:744,-0.611697,0.971768,-9.74147,-5.49371,-3.89499,86.0415
2023-03-11 16:31:37:754,-0.600367,0.966273,-9.73701,-5.50158,-3.88975,86.038
2023-03-11 16:31:37:764,-0.610108,0.980057,-9.73755,-5.50468,-3.88217,86.0301
2023-03-11 16:31:37:774,-0.626349,0.974331,-9.7311,-5.50754,-3.8774,86.0262
2023-03-11 16:31:37:783,-0.623452,0.966833,-9.72533,-5.51339,-3.87079,86.0244
2023-03-11 16:31:37:794,-0.620987,0.966814,-9.71822,-5.51873,-3.8695,86.0255
2023-03-11 16:31:37:804,-0.628591,0.981038,-9.72389,-5.52305,-3.86693,86.0246
2023-03-11 16:31:37:813,-0.645366,0.980328,-9.7526,-5.52518,-3.86216,86.0296
2023-03-11 16:31:37:824,-0.637071,0.975652,-9.77709,-5.52907,-3.85501,86.0327
2023-03-11 16:31:37:834,-0.642924,0.966959,-9.76002,-5.52862,-3.85196,86.0343
2023-03-11 16:31:37:844,-0.680673,0.966432,-9.75314,-5.52867,-3.84887,86.0368
2023-03-11 16:31:37:854,-0.684963,0.973672,-9.72911,-5.52349,-3.84287,86.0351
2023-03-11 16:31:37:864,-0.658078,0.948799,-9.68154,-5.51958,-3.83966,86.031
2023-03-11 16:31:37:874,-0.644241,0.936073,-9.65874,-5.51549,-3.837,86.0247
2023-03-11 16:31:37:883,-0.635392,0.938408,-9.68895,-5.51335,-3.83212,86.016
2023-03-11 16:31:37:893,-0.614827,0.946292,-9.70803,-5.51747,-3.83039,86.0117
2023-03-11 16:31:37:904,-0.598499,0.9483,-9.74936,-5.52182,-3.82677,86.0035
2023-03-11 16:31:37:914,-0.57405,0.964677,-9.76877,-5.5285,-3.82324,85.997
2023-03-11 16:31:37:923,-0.557119,0.949806,-9.75385,-5.5278,-3.8232,85.9918
2023-03-11 16:31:37:934,-0.549977,0.934646,-9.72463,-5.53202,-3.82794,85.9832
2023-03-11 16:31:37:944,-0.568569,0.957381,-9.71766,-5.53336,-3.83258,85.9847
2023-03-11 16:31:37:954,-0.588213,0.967837,-9.71174,-5.53819,-3.84188,85.9862
2023-03-11 16:31:37:964,-0.626069,0.969149,-9.68572,-5.54795,-3.8528,85.9922
2023-03-11 16:31:37:974,-0.644863,0.976916,-9.67534,-5.55327,-3.8618,86.0024
2023-03-11 16:31:37:984,-0.658693,0.994175,-9.66115,-5.56248,-3.87101,86.0126
2023-03-11 16:31:37:994,-0.677812,0.997226,-9.64393,-5.56978,-3.88009,86.0274
2023-03-11 16:31:38:3,-0.722594,1.01069,-9.65242,-5.57859,-3.88629,86.0393
2023-03-11 16:31:38:14,-0.739439,1.0279,-9.66508,-5.59195,-3.88702,86.0485
2023-03-11 16:31:38:24,-0.742196,1.02957,-9.67723,-5.60018,-3.88885,86.0551
2023-03-11 16:31:38:34,-0.715645,1.01788,-9.69724,-5.61234,-3.88836,86.0612
2023-03-11 16:31:38:44,-0.697041,1.0326,-9.7131,-5.62127,-3.88357,86.0647
2023-03-11 16:31:38:54,-0.675968,1.02509,-9.73113,-5.63276,-3.8807,86.0604
2023-03-11 16:31:38:64,-0.667055,1.01653,-9.75041,-5.6417,-3.87446,86.0578
2023-03-11 16:31:38:74,-0.639988,1.02577,-9.76973,-5.65118,-3.87302,86.0505
2023-03-11 16:31:38:84,-0.608093,1.03454,-9.7775,-5.6624,-3.86709,86.0417
2023-03-11 16:31:38:94,-0.595088,1.02333,-9.73586,-5.67103,-3.86413,86.0326
2023-03-11 16:31:38:104,-0.616495,1.01225,-9.71489,-5.67823,-3.86659,86.0239
2023-03-11 16:31:38:114,-0.626731,1.0303,-9.72396,-5.68872,-3.86634,86.0207
2023-03-11 16:31:38:124,-0.633771,1.05025,-9.73519,-5.69704,-3.86723,86.0169
2023-03-11 16:31:38:134,-0.605918,1.07513,-9.77545,-5.70421,-3.86765,86.0145
2023-03-11 16:31:38:144,-0.571029,1.04898,-9.78891,-5.70693,-3.86439,86.0126
2023-03-11 16:31:38:154,-0.55798,1.03336,-9.76681,-5.70437,-3.86467,86.0113
2023-03-11 16:31:38:164,-0.612522,1.03083,-9.74976,-5.69664,-3.86792,86.0116
2023-03-11 16:31:38:174,-0.638921,1.01337,-9.74526,-5.68943,-3.87079,86.0134
2023-03-11 16:31:38:184,-0.640286,1.01201,-9.74499,-5.68075,-3.8769,86.0162
2023-03-11 16:31:38:194,-0.648595,0.993106,-9.73231,-5.67394,-3.88049,86.0199
2023-03-11 16:31:38:203,-0.630202,0.988489,-9.72906,-5.66482,-3.88551,86.0241
2023-03-11 16:31:38:214,-0.622834,0.980247,-9.70679,-5.65526,-3.89369,86.0268
2023-03-11 16:31:38:224,-0.652908,0.971137,-9.69134,-5.64502,-3.90067,86.0296
2023-03-11 16:31:38:234,-0.671487,0.971121,-9.6814,-5.63927,-3.90967,86.0321
2023-03-11 16:31:38:244,-0.672597,0.976623,-9.6854,-5.63756,-3.91876,86.0357
2023-03-11 16:31:38:254,-0.685807,0.981122,-9.68365,-5.63748,-3.92413,86.0417
2023-03-11 16:31:38:264,-0.688826,0.994539,-9.68937,-5.63859,-3.92865,86.0452
2023-03-11 16:31:38:274,-0.67929,0.989825,-9.70908,-5.64066,-3.93393,86.0505
2023-03-11 16:31:38:284,-0.686994,0.988225,-9.71866,-5.64267,-3.93916,86.0531
2023-03-11 16:31:38:294,-0.694961,0.983366,-9.72455,-5.64474,-3.94233,86.0544
2023-03-11 16:31:38:304,-0.707686,0.986332,-9.71324,-5.64586,-3.9488,86.0553
2023-03-11 16:31:38:314,-0.71898,0.985807,-9.7076,-5.64201,-3.95654,86.0538
2023-03-11 16:31:38:323,-0.727827,0.971057,-9.68641,-5.64199,-3.96488,86.0502
2023-03-11 16:31:38:333,-0.715881,0.969008,-9.68239,-5.63769,-3.97446,86.0426
2023-03-11 16:31:38:344,-0.727258,0.972919,-9.67409,-5.63896,-3.98119,86.0336
2023-03-11 16:31:38:354,-0.706601,0.969526,-9.68882,-5.64506,-3.98577,86.0253
2023-03-11 16:31:38:364,-0.678534,0.973728,-9.70715,-5.65139,-3.98716,86.0139
2023-03-11 16:31:38:374,-0.670706,0.966816,-9.70963,-5.65835,-3.98987,86.001
2023-03-11 16:31:38:384,-0.646485,0.975792,-9.70083,-5.66436,-3.98492,85.9891
2023-03-11 16:31:38:394,-0.615628,0.973681,-9.71681,-5.6714,-3.97866,85.9784
2023-03-11 16:31:38:404,-0.572711,0.980759,-9.73693,-5.68034,-3.96723,85.9698
2023-03-11 16:31:38:414,-0.561796,0.98071,-9.7536,-5.68771,-3.95718,85.964
2023-03-11 16:31:38:424,-0.56595,0.997588,-9.76857,-5.69652,-3.94567,85.9566
2023-03-11 16:31:38:433,-0.568757,1.01131,-9.78875,-5.70337,-3.94251,85.9558
2023-03-11 16:31:38:444,-0.585546,1.02101,-9.77709,-5.71235,-3.94308,85.9603
2023-03-11 16:31:38:454,-0.630085,1.01303,-9.74884,-5.71692,-3.9454,85.9689
2023-03-11 16:31:38:463,-0.660972,1.00286,-9.70382,-5.71608,-3.95148,85.9771
2023-03-11 16:31:38:473,-0.700016,0.99667,-9.70347,-5.71581,-3.95566,85.9925
2023-03-11 16:31:38:484,-0.745697,1.00771,-9.69396,-5.71417,-3.96125,86.0084
2023-03-11 16:31:38:494,-0.773575,1.0158,-9.6933,-5.71559,-3.96167,86.0228
2023-03-11 16:31:38:504,-0.796278,1.00964,-9.68046,-5.71397,-3.96542,86.0375
2023-03-11 16:31:38:514,-0.815097,1.00681,-9.68252,-5.71576,-3.9651,86.0486
2023-03-11 16:31:38:524,-0.817938,1.01323,-9.66986,-5.71568,-3.96497,86.0551
2023-03-11 16:31:38:534,-0.805989,0.990941,-9.66078,-5.71584,-3.96212,86.0605
2023-03-11 16:31:38:544,-0.793795,0.984715,-9.65868,-5.71461,-3.95264,86.0606
2023-03-11 16:31:38:554,-0.766971,0.993067,-9.67841,-5.71729,-3.94361,86.0552
2023-03-11 16:31:38:564,-0.742861,0.992893,-9.69253,-5.72183,-3.93146,86.049
2023-03-11 16:31:38:574,-0.716471,0.986792,-9.68483,-5.72788,-3.91991,86.0405
2023-03-11 16:31:38:584,-0.680677,0.982788,-9.66529,-5.7337,-3.9033,86.0281
2023-03-11 16:31:38:594,-0.622986,0.980184,-9.65306,-5.74304,-3.88383,86.0194
2023-03-11 16:31:38:604,-0.574375,0.979188,-9.63887,-5.75666,-3.86154,86.0109
2023-03-11 16:31:38:614,-0.560475,0.97619,-9.65443,-5.77036,-3.83614,86.0044
2023-03-11 16:31:38:624,-0.534183,0.998365,-9.70156,-5.78873,-3.81146,86.0003
2023-03-11 16:31:38:634,-0.511949,1.03783,-9.7618,-5.81264,-3.78912,85.9962
2023-03-11 16:31:38:644,-0.485622,1.06938,-9.8308,-5.83417,-3.76482,85.9943
2023-03-11 16:31:38:654,-0.44991,1.08908,-9.85627,-5.85199,-3.75018,85.9928
2023-03-11 16:31:38:664,-0.446987,1.08522,-9.85684,-5.86821,-3.74077,85.9963
2023-03-11 16:31:38:674,-0.492053,1.06992,-9.818,-5.87773,-3.73954,86.0056
2023-03-11 16:31:38:684,-0.522298,1.05314,-9.76801,-5.88435,-3.74696,86.0183
2023-03-11 16:31:38:694,-0.547568,1.04095,-9.73628,-5.88556,-3.75823,86.0341
2023-03-11 16:31:38:704,-0.561322,1.04256,-9.7135,-5.88942,-3.77176,86.0564
2023-03-11 16:31:38:714,-0.547688,1.04892,-9.69064,-5.89394,-3.78372,86.0795
2023-03-11 16:31:38:724,-0.49876,1.03316,-9.68937,-5.89509,-3.79353,86.1038
2023-03-11 16:31:38:734,-0.444442,1.02665,-9.72415,-5.90086,-3.80118,86.1342
2023-03-11 16:31:38:744,-0.441377,1.02666,-9.74447,-5.90219,-3.80669,86.1733
2023-03-11 16:31:38:754,-0.480169,1.03284,-9.73135,-5.90264,-3.80899,86.2219
2023-03-11 16:31:38:763,-0.485695,1.02295,-9.70414,-5.90125,-3.81108,86.2779
2023-03-11 16:31:38:774,-0.475457,1.00297,-9.70667,-5.89953,-3.80881,86.3405
2023-03-11 16:31:38:784,-0.490574,0.989969,-9.71764,-5.89714,-3.80898,86.4106
2023-03-11 16:31:38:794,-0.514208,0.994171,-9.71231,-5.89555,-3.80996,86.4884
2023-03-11 16:31:38:804,-0.534106,0.988645,-9.69933,-5.89466,-3.81085,86.5734
2023-03-11 16:31:38:814,-0.559627,0.985393,-9.67373,-5.89851,-3.81078,86.6591
2023-03-11 16:31:38:823,-0.530759,1.00138,-9.64984,-5.90654,-3.80905,86.7515
2023-03-11 16:31:38:834,-0.452341,0.984079,-9.64221,-5.91952,-3.80473,86.8477
2023-03-11 16:31:38:844,-0.450341,0.981097,-9.63427,-5.93346,-3.80258,86.9507
2023-03-11 16:31:38:853,-0.49132,0.988292,-9.63452,-5.95373,-3.79921,87.0587
2023-03-11 16:31:38:864,-0.507978,1.01367,-9.66872,-5.97488,-3.79515,87.1786
2023-03-11 16:31:38:874,-0.503299,1.04947,-9.73534,-6.00194,-3.79128,87.2982
2023-03-11 16:31:38:884,-0.493575,1.06551,-9.77731,-6.02853,-3.78634,87.4219
2023-03-11 16:31:38:894,-0.52107,1.07616,-9.77772,-6.05073,-3.7828,87.5472
2023-03-11 16:31:38:903,-0.575006,1.08986,-9.79533,-6.07436,-3.7879,87.6738
2023-03-11 16:31:38:913,-0.578461,1.08487,-9.79901,-6.0913,-3.79588,87.803
2023-03-11 16:31:38:923,-0.584808,1.0781,-9.77066,-6.10343,-3.80647,87.9307
2023-03-11 16:31:38:934,-0.624769,1.07101,-9.73166,-6.11584,-3.81823,88.0587
2023-03-11 16:31:38:944,-0.64435,1.05928,-9.6922,-6.12682,-3.83284,88.1848
2023-03-11 16:31:38:954,-0.674445,1.06217,-9.69125,-6.1408,-3.85049,88.3085
2023-03-11 16:31:38:964,-0.708535,1.07144,-9.6821,-6.15743,-3.87515,88.4297
2023-03-11 16:31:38:974,-0.759533,1.08568,-9.68286,-6.17494,-3.90335,88.5473
2023-03-11 16:31:38:984,-0.794587,1.09649,-9.69334,-6.19519,-3.93094,88.6588
2023-03-11 16:31:38:994,-0.820774,1.1086,-9.70051,-6.2133,-3.96061,88.7603
2023-03-11 16:31:39:4,-0.846789,1.11644,-9.73274,-6.23139,-3.98981,88.8559
2023-03-11 16:31:39:14,-0.892585,1.12616,-9.72834,-6.24914,-4.01919,88.9447
2023-03-11 16:31:39:24,-0.900612,1.13255,-9.69944,-6.26557,-4.0498,89.0205
2023-03-11 16:31:39:34,-0.921253,1.11799,-9.66426,-6.28023,-4.08169,89.0871
2023-03-11 16:31:39:44,-0.939794,1.11101,-9.64228,-6.29591,-4.11035,89.1432
2023-03-11 16:31:39:54,-0.964585,1.11372,-9.64302,-6.31631,-4.14336,89.1862
2023-03-11 16:31:39:64,-0.977675,1.12907,-9.64913,-6.33732,-4.17379,89.2233
2023-03-11 16:31:39:74,-0.987045,1.12941,-9.66583,-6.35818,-4.20155,89.2469
2023-03-11 16:31:39:84,-0.976033,1.15361,-9.67946,-6.38136,-4.22654,89.2611
2023-03-11 16:31:39:94,-0.96935,1.16152,-9.70343,-6.40617,-4.25023,89.2657
2023-03-11 16:31:39:104,-0.952976,1.16511,-9.72698,-6.42737,-4.27228,89.267
2023-03-11 16:31:39:114,-0.923554,1.16487,-9.72875,-6.44832,-4.29036,89.2558
2023-03-11 16:31:39:124,-0.883825,1.16456,-9.71821,-6.466,-4.30493,89.2365
2023-03-11 16:31:39:134,-0.855677,1.17983,-9.69554,-6.47756,-4.31716,89.2122
2023-03-11 16:31:39:144,-0.822779,1.16178,-9.68831,-6.48931,-4.32322,89.186
2023-03-11 16:31:39:154,-0.810524,1.15513,-9.67811,-6.50463,-4.32718,89.1597
2023-03-11 16:31:39:164,-0.771214,1.15182,-9.694,-6.51673,-4.32525,89.1328
2023-03-11 16:31:39:174,-0.740037,1.15889,-9.70337,-6.53018,-4.32079,89.1038
2023-03-11 16:31:39:184,-0.722704,1.14184,-9.70111,-6.53882,-4.31389,89.0791
2023-03-11 16:31:39:194,-0.709985,1.14291,-9.69833,-6.54881,-4.30647,89.0559
2023-03-11 16:31:39:204,-0.701407,1.13781,-9.69595,-6.56006,-4.29881,89.0348
2023-03-11 16:31:39:214,-0.700947,1.14899,-9.70088,-6.56778,-4.28931,89.0128
2023-03-11 16:31:39:224,-0.69275,1.16294,-9.70096,-6.57594,-4.27735,88.9927
2023-03-11 16:31:39:234,-0.686362,1.17306,-9.70927,-6.58468,-4.26785,88.9726
2023-03-11 16:31:39:244,-0.665444,1.17453,-9.70618,-6.59513,-4.25793,88.9554
2023-03-11 16:31:39:254,-0.678307,1.16864,-9.71096,-6.60476,-4.25254,88.9415
2023-03-11 16:31:39:263,-0.673499,1.16556,-9.71595,-6.61185,-4.24537,88.9264
2023-03-11 16:31:39:274,-0.667595,1.17592,-9.70267,-6.62003,-4.2382,88.916
2023-03-11 16:31:39:284,-0.675404,1.15567,-9.68853,-6.62985,-4.23603,88.9068
2023-03-11 16:31:39:294,-0.689074,1.15818,-9.68571,-6.63515,-4.24062,88.9018
2023-03-11 16:31:39:303,-0.694466,1.16227,-9.6938,-6.64025,-4.24189,88.8977
2023-03-11 16:31:39:314,-0.709571,1.1814,-9.7081,-6.64702,-4.2421,88.8957
2023-03-11 16:31:39:324,-0.715068,1.17725,-9.72603,-6.65275,-4.24561,88.8943
2023-03-11 16:31:39:334,-0.72425,1.17561,-9.73031,-6.65664,-4.24465,88.8946
2023-03-11 16:31:39:344,-0.709546,1.17658,-9.70872,-6.65988,-4.24359,88.8958
2023-03-11 16:31:39:354,-0.687547,1.14785,-9.68406,-6.66633,-4.24406,88.8944
2023-03-11 16:31:39:364,-0.680062,1.13399,-9.66228,-6.66698,-4.24147,88.8947
2023-03-11 16:31:39:374,-0.702163,1.14239,-9.65244,-6.66955,-4.24135,88.8945
2023-03-11 16:31:39:384,-0.706622,1.15227,-9.68157,-6.67366,-4.2429,88.8983
2023-03-11 16:31:39:394,-0.664182,1.15111,-9.73007,-6.68146,-4.24252,88.896
2023-03-11 16:31:39:403,-0.637268,1.15908,-9.73785,-6.68864,-4.24058,88.8972
2023-03-11 16:31:39:414,-0.620192,1.15935,-9.74558,-6.69923,-4.24284,88.8994
2023-03-11 16:31:39:423,-0.623157,1.16662,-9.75946,-6.70865,-4.25067,88.9032
2023-03-11 16:31:39:433,-0.647404,1.17046,-9.74803,-6.71615,-4.26663,88.9108
2023-03-11 16:31:39:443,-0.688957,1.17434,-9.72011,-6.72097,-4.2846,88.9217
2023-03-11 16:31:39:453,-0.713855,1.17117,-9.67374,-6.72625,-4.29895,88.9391
2023-03-11 16:31:39:463,-0.745082,1.16251,-9.63003,-6.7339,-4.31378,88.959
2023-03-11 16:31:39:474,-0.752861,1.17561,-9.61541,-6.7388,-4.32075,88.9784
2023-03-11 16:31:39:484,-0.755165,1.17523,-9.62285,-6.74978,-4.32838,88.9969
2023-03-11 16:31:39:494,-0.753118,1.18366,-9.63217,-6.75955,-4.33469,89.0175
2023-03-11 16:31:39:504,-0.783717,1.18392,-9.63785,-6.77241,-4.33702,89.0354
2023-03-11 16:31:39:513,-0.81008,1.18506,-9.63457,-6.7831,-4.34147,89.0552
2023-03-11 16:31:39:524,-0.816799,1.19542,-9.64227,-6.79377,-4.3425,89.0702
2023-03-11 16:31:39:534,-0.813272,1.20388,-9.64763,-6.80726,-4.34222,89.0829
2023-03-11 16:31:39:544,-0.806416,1.21333,-9.65829,-6.82239,-4.34451,89.0916
2023-03-11 16:31:39:554,-0.781096,1.19711,-9.67405,-6.83849,-4.34446,89.0902
2023-03-11 16:31:39:564,-0.751526,1.20796,-9.71305,-6.8517,-4.34394,89.0878
2023-03-11 16:31:39:574,-0.743229,1.24073,-9.72726,-6.86528,-4.34136,89.0843
2023-03-11 16:31:39:584,-0.711717,1.24242,-9.72768,-6.87973,-4.33906,89.0794
2023-03-11 16:31:39:594,-0.683579,1.22259,-9.70142,-6.89249,-4.34184,89.0717
2023-03-11 16:31:39:604,-0.68786,1.23475,-9.71588,-6.90492,-4.34183,89.0681
2023-03-11 16:31:39:614,-0.696948,1.25409,-9.73316,-6.91901,-4.34393,89.0645
2023-03-11 16:31:39:624,-0.711037,1.2802,-9.77763,-6.92943,-4.34608,89.0644
2023-03-11 16:31:39:634,-0.715922,1.28261,-9.8068,-6.9358,-4.34687,89.0613
2023-03-11 16:31:39:644,-0.711745,1.25802,-9.78383,-6.93338,-4.35043,89.058
2023-03-11 16:31:39:654,-0.724126,1.23771,-9.74529,-6.93211,-4.35572,89.0574
2023-03-11 16:31:39:664,-0.747548,1.22794,-9.70118,-6.92183,-4.35999,89.057
2023-03-11 16:31:39:674,-0.756603,1.21111,-9.68948,-6.90916,-4.36188,89.0562
2023-03-11 16:31:39:684,-0.754587,1.21055,-9.67846,-6.89545,-4.36112,89.0564
2023-03-11 16:31:39:694,-0.73939,1.20298,-9.67412,-6.88543,-4.3581,89.0576
2023-03-11 16:31:39:704,-0.712412,1.18624,-9.68389,-6.87628,-4.35776,89.0567
2023-03-11 16:31:39:714,-0.704742,1.17635,-9.69893,-6.8633,-4.35762,89.059
2023-03-11 16:31:39:724,-0.72657,1.17833,-9.69085,-6.8543,-4.35887,89.0602
2023-03-11 16:31:39:734,-0.745923,1.17295,-9.69078,-6.84777,-4.36403,89.0587
2023-03-11 16:31:39:744,-0.763102,1.1833,-9.67782,-6.84135,-4.37016,89.0577
2023-03-11 16:31:39:754,-0.771304,1.1766,-9.67227,-6.83437,-4.37941,89.0562
2023-03-11 16:31:39:764,-0.770546,1.18034,-9.67619,-6.8258,-4.38839,89.0516
2023-03-11 16:31:39:774,-0.765006,1.17445,-9.67119,-6.81826,-4.39684,89.0485
2023-03-11 16:31:39:784,-0.760272,1.16783,-9.66755,-6.81041,-4.40383,89.0459
2023-03-11 16:31:39:794,-0.73653,1.16793,-9.67632,-6.80552,-4.40886,89.0442
2023-03-11 16:31:39:804,-0.737344,1.16316,-9.68076,-6.79753,-4.41375,89.0389
2023-03-11 16:31:39:813,-0.727302,1.15387,-9.69063,-6.79329,-4.4185,89.0392
2023-03-11 16:31:39:824,-0.719315,1.1452,-9.68337,-6.78829,-4.42357,89.0411
2023-03-11 16:31:39:833,-0.725469,1.14354,-9.65765,-6.78701,-4.42738,89.0438
2023-03-11 16:31:39:843,-0.733519,1.13282,-9.63479,-6.78292,-4.43165,89.0503
2023-03-11 16:31:39:854,-0.741738,1.13642,-9.6344,-6.78485,-4.43412,89.0563
2023-03-11 16:31:39:864,-0.761562,1.15621,-9.64508,-6.78799,-4.43748,89.0629
2023-03-11 16:31:39:874,-0.769482,1.15754,-9.65986,-6.79523,-4.43659,89.074
2023-03-11 16:31:39:883,-0.773711,1.16039,-9.65317,-6.80639,-4.43958,89.0843
2023-03-11 16:31:39:893,-0.772644,1.15832,-9.65212,-6.8178,-4.44068,89.0946
2023-03-11 16:31:39:903,-0.770635,1.17349,-9.66074,-6.83265,-4.44447,89.1012
2023-03-11 16:31:39:914,-0.757406,1.18507,-9.65655,-6.84621,-4.44622,89.1075
2023-03-11 16:31:39:924,-0.75479,1.18704,-9.66056,-6.85868,-4.4439,89.1151
2023-03-11 16:31:39:934,-0.745958,1.18,-9.70111,-6.87347,-4.44169,89.1202
2023-03-11 16:31:39:944,-0.748811,1.20239,-9.70867,-6.8873,-4.44164,89.126
2023-03-11 16:31:39:954,-0.7475,1.20063,-9.70746,-6.9006,-4.44224,89.1261
2023-03-11 16:31:39:963,-0.733631,1.20035,-9.70322,-6.91275,-4.44274,89.1277
2023-03-11 16:31:39:974,-0.718634,1.19612,-9.7014,-6.92253,-4.44556,89.1253
2023-03-11 16:31:39:983,-0.707718,1.19255,-9.69647,-6.93337,-4.44818,89.1223
2023-03-11 16:31:39:994,-0.680825,1.1764,-9.69423,-6.9435,-4.45061,89.1174
2023-03-11 16:31:40:4,-0.656951,1.1696,-9.71271,-6.95631,-4.45126,89.1156
2023-03-11 16:31:40:14,-0.662651,1.17437,-9.70837,-6.9639,-4.45602,89.1152
2023-03-11 16:31:40:24,-0.646001,1.18085,-9.69056,-6.97409,-4.45708,89.1154
2023-03-11 16:31:40:34,-0.610294,1.16445,-9.66131,-6.98077,-4.45829,89.1223
2023-03-11 16:31:40:43,-0.55243,1.1575,-9.65115,-6.99036,-4.46312,89.1298
2023-03-11 16:31:40:54,-0.502942,1.14294,-9.67139,-6.99639,-4.46831,89.1434
2023-03-11 16:31:40:64,-0.467823,1.13467,-9.73599,-6.99545,-4.46905,89.1658
2023-03-11 16:31:40:74,-0.486197,1.14265,-9.83281,-6.99424,-4.47575,89.1982
2023-03-11 16:31:40:84,-0.567202,1.14071,-9.90361,-6.98568,-4.49055,89.2431
2023-03-11 16:31:40:94,-0.635988,1.12693,-9.91841,-6.96759,-4.50602,89.3001
2023-03-11 16:31:40:104,-0.673772,1.09574,-9.85489,-6.94426,-4.52296,89.3624
2023-03-11 16:31:40:114,-0.659246,1.03823,-9.75566,-6.91397,-4.54109,89.4318
2023-03-11 16:31:40:124,-0.63684,1.00798,-9.69885,-6.88403,-4.54753,89.508
2023-03-11 16:31:40:134,-0.608009,0.995362,-9.70428,-6.85158,-4.55139,89.5894
2023-03-11 16:31:40:144,-0.590415,0.962577,-9.73514,-6.81359,-4.55456,89.6815
2023-03-11 16:31:40:154,-0.613367,0.945416,-9.7758,-6.77924,-4.56277,89.7788
2023-03-11 16:31:40:164,-0.653099,0.94707,-9.8292,-6.7422,-4.57916,89.8847
2023-03-11 16:31:40:174,-0.68819,0.935408,-9.86392,-6.70207,-4.59583,89.9951
2023-03-11 16:31:40:184,-0.735336,0.947847,-9.90001,-6.65953,-4.61844,90.1117
2023-03-11 16:31:40:194,-0.790363,0.94934,-9.92248,-6.61453,-4.64666,90.2333
2023-03-11 16:31:40:204,-0.845079,0.927511,-9.90054,-6.5634,-4.67818,90.3535
2023-03-11 16:31:40:214,-0.901708,0.903449,-9.85738,-6.50983,-4.7121,90.4722
2023-03-11 16:31:40:224,-0.953671,0.898136,-9.77509,-6.45743,-4.74422,90.5914
2023-03-11 16:31:40:234,-0.973527,0.888163,-9.69449,-6.40978,-4.77468,90.704
2023-03-11 16:31:40:244,-0.965553,0.872399,-9.62942,-6.36644,-4.80168,90.8128
2023-03-11 16:31:40:254,-0.931306,0.861942,-9.57454,-6.32162,-4.82527,90.9128
2023-03-11 16:31:40:264,-0.894363,0.862417,-9.51527,-6.2856,-4.84505,91.0094
2023-03-11 16:31:40:274,-0.870521,0.861264,-9.46779,-6.25833,-4.86019,91.1029
2023-03-11 16:31:40:284,-0.878737,0.884339,-9.44908,-6.2402,-4.87827,91.1927
2023-03-11 16:31:40:294,-0.87768,0.927277,-9.43291,-6.23492,-4.89067,91.2814
2023-03-11 16:31:40:304,-0.839078,0.951473,-9.45762,-6.23932,-4.90666,91.3688
2023-03-11 16:31:40:314,-0.804682,1.00685,-9.53462,-6.25312,-4.91563,91.4549
2023-03-11 16:31:40:323,-0.769444,1.06379,-9.63794,-6.2756,-4.92126,91.5392
2023-03-11 16:31:40:334,-0.754618,1.13356,-9.73924,-6.30094,-4.92513,91.6251
2023-03-11 16:31:40:344,-0.731235,1.18352,-9.83176,-6.31962,-4.92703,91.7124
2023-03-11 16:31:40:354,-0.743323,1.20525,-9.89236,-6.33391,-4.93008,91.8062
2023-03-11 16:31:40:363,-0.793367,1.20786,-9.90395,-6.34096,-4.9385,91.9019
2023-03-11 16:31:40:374,-0.835616,1.1882,-9.84709,-6.33503,-4.94626,92.0009
2023-03-11 16:31:40:384,-0.884494,1.15766,-9.76135,-6.32069,-4.95319,92.1008
2023-03-11 16:31:40:393,-0.932722,1.13543,-9.69946,-6.3041,-4.95686,92.2013
2023-03-11 16:31:40:403,-0.938934,1.11873,-9.65087,-6.28577,-4.9548,92.2979
2023-03-11 16:31:40:413,-0.899312,1.09446,-9.60855,-6.26871,-4.94254,92.3917
2023-03-11 16:31:40:423,-0.833946,1.0706,-9.59855,-6.25417,-4.92722,92.4799
2023-03-11 16:31:40:434,-0.796512,1.05774,-9.59426,-6.2433,-4.91678,92.5641
2023-03-11 16:31:40:444,-0.840844,1.0569,-9.59719,-6.23439,-4.90807,92.6527
2023-03-11 16:31:40:453,-0.861697,1.08782,-9.63974,-6.23533,-4.89762,92.7427
2023-03-11 16:31:40:463,-0.834941,1.12674,-9.71999,-6.24134,-4.88287,92.8303
2023-03-11 16:31:40:474,-0.82453,1.16523,-9.76987,-6.24772,-4.86485,92.9198
2023-03-11 16:31:40:483,-0.857143,1.19792,-9.78115,-6.25495,-4.83969,93.0078
2023-03-11 16:31:40:494,-0.901574,1.20149,-9.79384,-6.25899,-4.81531,93.0969
2023-03-11 16:31:40:504,-0.873534,1.21478,-9.80808,-6.26072,-4.79034,93.1805
2023-03-11 16:31:40:514,-0.850245,1.20669,-9.80853,-6.26374,-4.76896,93.2586
2023-03-11 16:31:40:524,-0.88086,1.21809,-9.77353,-6.25825,-4.75006,93.3353
2023-03-11 16:31:40:534,-0.917203,1.23296,-9.72624,-6.25523,-4.72632,93.4125
2023-03-11 16:31:40:544,-0.912535,1.26234,-9.66881,-6.25542,-4.70397,93.4855
2023-03-11 16:31:40:554,-0.867043,1.27559,-9.63844,-6.25999,-4.67741,93.5487
2023-03-11 16:31:40:564,-0.813372,1.29113,-9.6334,-6.27221,-4.64822,93.6069
2023-03-11 16:31:40:574,-0.776788,1.33855,-9.66039,-6.28985,-4.61988,93.6616
2023-03-11 16:31:40:584,-0.753766,1.3622,-9.72413,-6.30837,-4.5957,93.7143
2023-03-11 16:31:40:594,-0.721687,1.38356,-9.75143,-6.32539,-4.58147,93.7616
2023-03-11 16:31:40:604,-0.705234,1.38403,-9.73473,-6.34099,-4.56992,93.8078
2023-03-11 16:31:40:614,-0.714584,1.37417,-9.70196,-6.35138,-4.56613,93.8542
2023-03-11 16:31:40:624,-0.707701,1.34932,-9.661,-6.35546,-4.56599,93.901
2023-03-11 16:31:40:634,-0.691691,1.32281,-9.61713,-6.36105,-4.56994,93.9505
2023-03-11 16:31:40:644,-0.70514,1.30247,-9.58175,-6.36455,-4.577,94.0031
2023-03-11 16:31:40:654,-0.699159,1.28781,-9.59091,-6.36945,-4.57979,94.0637
2023-03-11 16:31:40:663,-0.699605,1.29655,-9.63266,-6.37694,-4.57905,94.1285
2023-03-11 16:31:40:674,-0.680052,1.31279,-9.61802,-6.38969,-4.57279,94.2029
2023-03-11 16:31:40:684,-0.63174,1.30611,-9.58261,-6.39945,-4.56551,94.2823
2023-03-11 16:31:40:694,-0.621785,1.32489,-9.56878,-6.40837,-4.55162,94.3705
2023-03-11 16:31:40:704,-0.604827,1.33378,-9.55196,-6.42237,-4.55021,94.4637
2023-03-11 16:31:40:713,-0.640508,1.32717,-9.56502,-6.44258,-4.55744,94.5678
2023-03-11 16:31:40:723,-0.738587,1.35233,-9.57115,-6.46209,-4.57178,94.6806
2023-03-11 16:31:40:733,-0.835699,1.36677,-9.58571,-6.48625,-4.58841,94.7983
2023-03-11 16:31:40:744,-0.903498,1.37253,-9.62536,-6.51291,-4.59759,94.922
2023-03-11 16:31:40:754,-0.950572,1.3969,-9.66339,-6.53883,-4.60883,95.0445
2023-03-11 16:31:40:764,-0.939905,1.41145,-9.73086,-6.56125,-4.61491,95.1676
2023-03-11 16:31:40:774,-0.924294,1.43111,-9.81275,-6.57763,-4.61688,95.2831
2023-03-11 16:31:40:784,-0.917489,1.43865,-9.84354,-6.58761,-4.61527,95.3925
2023-03-11 16:31:40:794,-0.901388,1.40707,-9.84428,-6.57856,-4.61302,95.4951
2023-03-11 16:31:40:804,-0.898884,1.36523,-9.82227,-6.55945,-4.61604,95.5922
2023-03-11 16:31:40:814,-0.932991,1.2902,-9.77803,-6.5271,-4.62221,95.6864
2023-03-11 16:31:40:823,-0.973079,1.2374,-9.72964,-6.48014,-4.63663,95.7708
2023-03-11 16:31:40:833,-1.02325,1.19603,-9.68613,-6.42657,-4.6569,95.8547
2023-03-11 16:31:40:844,-1.0545,1.11766,-9.64898,-6.36704,-4.67009,95.9307
2023-03-11 16:31:40:854,-1.05727,1.04414,-9.62845,-6.30059,-4.67984,95.9959
2023-03-11 16:31:40:864,-1.06721,0.988671,-9.62661,-6.23637,-4.68519,96.054
2023-03-11 16:31:40:874,-1.09976,0.956976,-9.60728,-6.17553,-4.68726,96.1005
2023-03-11 16:31:40:884,-1.12829,0.921759,-9.56745,-6.12282,-4.67908,96.1365
2023-03-11 16:31:40:894,-1.1276,0.901248,-9.52409,-6.08339,-4.66174,96.1562
2023-03-11 16:31:40:904,-1.07247,0.89308,-9.52536,-6.0541,-4.63652,96.1582
2023-03-11 16:31:40:913,-1.00759,0.890901,-9.54233,-6.03541,-4.59833,96.1419
2023-03-11 16:31:40:924,-0.927281,0.896063,-9.5428,-6.02736,-4.55901,96.1075
2023-03-11 16:31:40:934,-0.852548,0.896844,-9.52873,-6.0295,-4.52304,96.0533
2023-03-11 16:31:40:944,-0.779008,0.898512,-9.54557,-6.04623,-4.48994,95.9785
2023-03-11 16:31:40:954,-0.717907,0.909656,-9.54894,-6.07525,-4.4656,95.8846
2023-03-11 16:31:40:964,-0.640476,0.908611,-9.54269,-6.11323,-4.4512,95.7761
2023-03-11 16:31:40:974,-0.55316,0.914928,-9.55085,-6.16248,-4.44825,95.652
2023-03-11 16:31:40:984,-0.45095,0.940202,-9.57468,-6.21974,-4.45615,95.5191
2023-03-11 16:31:40:994,-0.365111,0.953574,-9.58166,-6.2819,-4.4718,95.3814
2023-03-11 16:31:41:4,-0.327221,0.945451,-9.56642,-6.35145,-4.49979,95.2491
2023-03-11 16:31:41:14,-0.278666,0.947149,-9.55615,-6.4255,-4.53618,95.1211
2023-03-11 16:31:41:24,-0.269966,0.968637,-9.54677,-6.50353,-4.58518,95.0031
2023-03-11 16:31:41:34,-0.313165,0.985625,-9.53431,-6.5938,-4.63969,94.8978
2023-03-11 16:31:41:44,-0.327039,1.00526,-9.53435,-6.68823,-4.70005,94.8079
2023-03-11 16:31:41:53,-0.299734,1.04464,-9.5393,-6.78885,-4.76662,94.7334
2023-03-11 16:31:41:63,-0.315875,1.07314,-9.54408,-6.89267,-4.84336,94.6726
2023-03-11 16:31:41:74,-0.364026,1.0783,-9.54726,-7.00074,-4.92766,94.6284
2023-03-11 16:31:41:84,-0.486483,1.12109,-9.58418,-7.10522,-5.0255,94.6067
2023-03-11 16:31:41:94,-0.671088,1.18091,-9.61308,-7.21588,-5.13313,94.6032
2023-03-11 16:31:41:104,-0.869365,1.21299,-9.60086,-7.323,-5.25038,94.6165
2023-03-11 16:31:41:114,-1.03691,1.25035,-9.56083,-7.43806,-5.37008,94.6401
2023-03-11 16:31:41:124,-1.14344,1.29883,-9.51534,-7.55535,-5.49225,94.666
2023-03-11 16:31:41:134,-1.20416,1.32578,-9.44853,-7.67593,-5.61185,94.6903
2023-03-11 16:31:41:143,-1.30376,1.35422,-9.37322,-7.80085,-5.7215,94.7143
2023-03-11 16:31:41:154,-1.41657,1.40585,-9.30437,-7.93345,-5.8318,94.7407
2023-03-11 16:31:41:164,-1.51011,1.46583,-9.32951,-8.0716,-5.93336,94.7638
2023-03-11 16:31:41:174,-1.58824,1.57838,-9.45951,-8.21945,-6.02964,94.7778
2023-03-11 16:31:41:184,-1.60905,1.67088,-9.5427,-8.36887,-6.11527,94.7801
2023-03-11 16:31:41:193,-1.61,1.69012,-9.50254,-8.51204,-6.19452,94.7692
2023-03-11 16:31:41:204,-1.62679,1.6941,-9.46318,-8.64733,-6.26663,94.7447
2023-03-11 16:31:41:214,-1.66821,1.734,-9.48511,-8.78186,-6.33969,94.7091
2023-03-11 16:31:41:224,-1.73806,1.78161,-9.48177,-8.92059,-6.40815,94.6613
2023-03-11 16:31:41:234,-1.7798,1.8045,-9.48453,-9.06382,-6.47124,94.5993
2023-03-11 16:31:41:244,-1.74524,1.85449,-9.51136,-9.20944,-6.52214,94.5205
2023-03-11 16:31:41:254,-1.6338,1.90949,-9.60028,-9.36178,-6.56154,94.4263
2023-03-11 16:31:41:264,-1.52862,1.97273,-9.70225,-9.50689,-6.58694,94.32
2023-03-11 16:31:41:274,-1.406,2.02565,-9.76011,-9.64603,-6.60164,94.2002
2023-03-11 16:31:41:284,-1.26875,2.02138,-9.81159,-9.77315,-6.60748,94.0759
2023-03-11 16:31:41:294,-1.11414,1.99572,-9.87403,-9.88446,-6.605,93.9467
2023-03-11 16:31:41:304,-1.04348,2.01319,-9.9513,-9.98439,-6.60256,93.8264
2023-03-11 16:31:41:314,-1.03575,2.01608,-9.99148,-10.0681,-6.59992,93.7198
2023-03-11 16:31:41:324,-1.05565,1.99095,-10.0065,-10.1306,-6.59479,93.6258
2023-03-11 16:31:41:334,-1.05629,1.97113,-9.95582,-10.175,-6.58094,93.5384
2023-03-11 16:31:41:344,-1.04696,1.93865,-9.89619,-10.2038,-6.554,93.4608
2023-03-11 16:31:41:354,-1.04331,1.89965,-9.86998,-10.2228,-6.51622,93.3908
2023-03-11 16:31:41:364,-1.02349,1.86703,-9.84925,-10.2313,-6.47324,93.3289
2023-03-11 16:31:41:374,-1.02673,1.84082,-9.79738,-10.2293,-6.43124,93.2718
2023-03-11 16:31:41:384,-1.02928,1.81665,-9.75983,-10.2195,-6.38736,93.2134
2023-03-11 16:31:41:394,-0.989059,1.78421,-9.73168,-10.2032,-6.35224,93.1576
2023-03-11 16:31:41:404,-0.940937,1.75271,-9.73295,-10.1793,-6.3166,93.0991
2023-03-11 16:31:41:414,-0.934947,1.71127,-9.76373,-10.1477,-6.28693,93.0395
2023-03-11 16:31:41:423,-0.935489,1.66813,-9.77536,-10.1053,-6.26023,92.982
2023-03-11 16:31:41:433,-0.953111,1.62642,-9.74621,-10.0552,-6.2372,92.9277
2023-03-11 16:31:41:443,-0.966018,1.58008,-9.72449,-10.0008,-6.21467,92.8726
2023-03-11 16:31:41:453,-0.964507,1.54346,-9.67036,-9.94172,-6.19395,92.8173
2023-03-11 16:31:41:463,-0.921093,1.49364,-9.61594,-9.87773,-6.16978,92.7614
2023-03-11 16:31:41:473,-0.879718,1.44934,-9.57265,-9.8148,-6.14719,92.7037
2023-03-11 16:31:41:483,-0.829107,1.41421,-9.54476,-9.75023,-6.12022,92.644
2023-03-11 16:31:41:493,-0.785506,1.3715,-9.52431,-9.68743,-6.09305,92.5863
2023-03-11 16:31:41:503,-0.748122,1.34715,-9.51346,-9.63561,-6.06825,92.5312
2023-03-11 16:31:41:513,-0.706613,1.33598,-9.48925,-9.58476,-6.04104,92.4807
2023-03-11 16:31:41:523,-0.688587,1.32519,-9.48613,-9.54316,-6.01998,92.4433
2023-03-11 16:31:41:533,-0.696533,1.34586,-9.4558,-9.51145,-6.00001,92.413
2023-03-11 16:31:41:543,-0.688792,1.33952,-9.43629,-9.49031,-5.98006,92.3873
2023-03-11 16:31:41:554,-0.692882,1.3372,-9.42537,-9.47951,-5.96317,92.3656
2023-03-11 16:31:41:564,-0.736442,1.37649,-9.4213,-9.48123,-5.95118,92.352
2023-03-11 16:31:41:573,-0.769688,1.43322,-9.4649,-9.48941,-5.94126,92.3484
2023-03-11 16:31:41:583,-0.795927,1.48374,-9.52354,-9.51521,-5.9381,92.3438
2023-03-11 16:31:41:593,-0.823145,1.53788,-9.56995,-9.54545,-5.93923,92.3487
2023-03-11 16:31:41:604,-0.849492,1.56299,-9.58774,-9.57505,-5.93951,92.3518
2023-03-11 16:31:41:613,-0.860107,1.58282,-9.62523,-9.60785,-5.93765,92.3571
2023-03-11 16:31:41:623,-0.856305,1.61268,-9.66234,-9.64085,-5.94221,92.362
2023-03-11 16:31:41:633,-0.873725,1.62617,-9.6576,-9.66965,-5.94603,92.3642
2023-03-11 16:31:41:644,-0.888235,1.63308,-9.63444,-9.69992,-5.95531,92.3649
2023-03-11 16:31:41:654,-0.882788,1.62091,-9.58184,-9.72657,-5.96563,92.367
2023-03-11 16:31:41:663,-0.895977,1.61543,-9.54208,-9.75675,-5.98141,92.365
2023-03-11 16:31:41:674,-0.895163,1.62867,-9.55222,-9.78734,-5.99809,92.365
2023-03-11 16:31:41:683,-0.926096,1.66488,-9.58324,-9.82589,-6.01418,92.367
2023-03-11 16:31:41:694,-0.932208,1.71424,-9.62789,-9.86408,-6.03014,92.368
2023-03-11 16:31:41:704,-0.922011,1.73841,-9.66537,-9.90566,-6.04084,92.3742
2023-03-11 16:31:41:714,-0.910874,1.74409,-9.67769,-9.94769,-6.05717,92.3768
2023-03-11 16:31:41:723,-0.895695,1.76118,-9.68685,-9.98057,-6.07345,92.3824
2023-03-11 16:31:41:733,-0.891339,1.77075,-9.68874,-10.0107,-6.0904,92.3893
2023-03-11 16:31:41:743,-0.893398,1.78588,-9.65974,-10.04,-6.11011,92.3992
2023-03-11 16:31:41:753,-0.907422,1.78142,-9.62371,-10.0654,-6.1311,92.4117
2023-03-11 16:31:41:763,-0.919223,1.78741,-9.61615,-10.0897,-6.15609,92.4262
2023-03-11 16:31:41:774,-0.943493,1.80097,-9.60223,-10.1108,-6.18281,92.4477
2023-03-11 16:31:41:784,-0.948704,1.79519,-9.58259,-10.1293,-6.20814,92.4725
2023-03-11 16:31:41:794,-0.963625,1.79387,-9.54533,-10.1466,-6.23473,92.5028
2023-03-11 16:31:41:803,-1.00233,1.80045,-9.53157,-10.166,-6.26216,92.537
2023-03-11 16:31:41:814,-1.04968,1.80495,-9.52754,-10.1894,-6.28826,92.5706
2023-03-11 16:31:41:824,-1.07851,1.79933,-9.54774,-10.2077,-6.31817,92.6059
2023-03-11 16:31:41:834,-1.08084,1.80085,-9.56923,-10.2274,-6.34272,92.6409
2023-03-11 16:31:41:844,-1.07462,1.81242,-9.56634,-10.2477,-6.36941,92.6734
2023-03-11 16:31:41:853,-1.08308,1.82103,-9.57206,-10.2694,-6.39377,92.7045
2023-03-11 16:31:41:863,-1.09095,1.81926,-9.58196,-10.2905,-6.41557,92.7369
2023-03-11 16:31:41:873,-1.10034,1.81967,-9.60141,-10.3099,-6.43909,92.7675
2023-03-11 16:31:41:883,-1.09561,1.83136,-9.59252,-10.3273,-6.4635,92.7932
2023-03-11 16:31:41:894,-1.086,1.8223,-9.55208,-10.3444,-6.48812,92.8193
2023-03-11 16:31:41:904,-1.08949,1.79494,-9.52455,-10.3565,-6.51339,92.8429
2023-03-11 16:31:41:914,-1.10421,1.795,-9.52586,-10.3724,-6.53926,92.8675
2023-03-11 16:31:41:924,-1.11401,1.79588,-9.54556,-10.39,-6.56485,92.8907
2023-03-11 16:31:41:933,-1.12814,1.81156,-9.56035,-10.4079,-6.59121,92.9121
2023-03-11 16:31:41:943,-1.10695,1.80192,-9.54282,-10.4254,-6.61768,92.9311
2023-03-11 16:31:41:954,-1.09966,1.78617,-9.53763,-10.4397,-6.64495,92.9495
2023-03-11 16:31:41:964,-1.11337,1.79806,-9.54356,-10.4586,-6.67364,92.9698
2023-03-11 16:31:41:974,-1.13274,1.80282,-9.54889,-10.4768,-6.70579,92.9873
2023-03-11 16:31:41:984,-1.15751,1.80273,-9.55934,-10.4945,-6.73814,93.0071
2023-03-11 16:31:41:994,-1.16078,1.80155,-9.54657,-10.5127,-6.76697,93.0266
2023-03-11 16:31:42:4,-1.15799,1.80774,-9.55507,-10.5274,-6.79041,93.0489
2023-03-11 16:31:42:14,-1.18056,1.80856,-9.56108,-10.545,-6.81451,93.0687
2023-03-11 16:31:42:24,-1.20953,1.80878,-9.54211,-10.5628,-6.84263,93.0938
2023-03-11 16:31:42:34,-1.24288,1.80704,-9.49526,-10.5784,-6.87169,93.116
2023-03-11 16:31:42:44,-1.25173,1.80108,-9.47858,-10.5986,-6.90046,93.1378
2023-03-11 16:31:42:54,-1.22389,1.81352,-9.46708,-10.6196,-6.92287,93.1519
2023-03-11 16:31:42:64,-1.23408,1.81903,-9.44867,-10.6444,-6.94721,93.1619
2023-03-11 16:31:42:74,-1.25052,1.82266,-9.47075,-10.6707,-6.97028,93.1724
2023-03-11 16:31:42:84,-1.23236,1.82861,-9.48994,-10.7018,-6.99397,93.1827
2023-03-11 16:31:42:94,-1.20855,1.84557,-9.49709,-10.7343,-7.01906,93.1883
2023-03-11 16:31:42:104,-1.19901,1.84667,-9.51026,-10.7679,-7.04496,93.1888
2023-03-11 16:31:42:114,-1.17458,1.86004,-9.53468,-10.8037,-7.07047,93.1864
2023-03-11 16:31:42:124,-1.15683,1.86984,-9.56308,-10.8371,-7.09421,93.1866
2023-03-11 16:31:42:134,-1.13009,1.86892,-9.56903,-10.869,-7.12057,93.1885
2023-03-11 16:31:42:144,-1.11172,1.85823,-9.57468,-10.8974,-7.14726,93.19
2023-03-11 16:31:42:154,-1.10182,1.84375,-9.58227,-10.9216,-7.17652,93.1958
2023-03-11 16:31:42:164,-1.09429,1.83437,-9.57224,-10.9448,-7.20434,93.2056
2023-03-11 16:31:42:174,-1.10927,1.81796,-9.56729,-10.9639,-7.2353,93.2204
2023-03-11 16:31:42:184,-1.12766,1.79347,-9.55163,-10.9788,-7.26514,93.2467
2023-03-11 16:31:42:194,-1.15506,1.76357,-9.52913,-10.9884,-7.29608,93.2722
2023-03-11 16:31:42:204,-1.17914,1.75893,-9.50556,-10.9984,-7.32787,93.3036
2023-03-11 16:31:42:214,-1.20798,1.73782,-9.49687,-11.0116,-7.36303,93.3413
2023-03-11 16:31:42:224,-1.21681,1.72024,-9.47787,-11.0212,-7.3917,93.3781
2023-03-11 16:31:42:234,-1.24118,1.71023,-9.4645,-11.0373,-7.42038,93.419
2023-03-11 16:31:42:244,-1.25687,1.69425,-9.45679,-11.0514,-7.45099,93.4632
2023-03-11 16:31:42:254,-1.26873,1.68808,-9.45574,-11.069,-7.48411,93.5062
2023-03-11 16:31:42:264,-1.26592,1.69115,-9.4428,-11.089,-7.51304,93.5466
2023-03-11 16:31:42:274,-1.25848,1.68731,-9.47346,-11.1178,-7.54734,93.5911
2023-03-11 16:31:42:284,-1.26076,1.71152,-9.55551,-11.1469,-7.5801,93.6351
2023-03-11 16:31:42:294,-1.2769,1.74554,-9.63367,-11.179,-7.61051,93.6834
2023-03-11 16:31:42:304,-1.30503,1.77338,-9.67206,-11.2073,-7.64081,93.7288
2023-03-11 16:31:42:314,-1.32,1.79756,-9.67495,-11.2347,-7.66771,93.7812
2023-03-11 16:31:42:324,-1.33285,1.81282,-9.65956,-11.2621,-7.68879,93.8358
2023-03-11 16:31:42:334,-1.30403,1.81923,-9.67303,-11.2886,-7.70219,93.8923
2023-03-11 16:31:42:343,-1.26831,1.82458,-9.66613,-11.3111,-7.71407,93.9503
2023-03-11 16:31:42:354,-1.23626,1.84455,-9.68807,-11.334,-7.71733,94.0128
2023-03-11 16:31:42:364,-1.2343,1.87435,-9.70196,-11.3562,-7.71494,94.0789
2023-03-11 16:31:42:374,-1.21835,1.87502,-9.70878,-11.3781,-7.70833,94.1493
2023-03-11 16:31:42:384,-1.19507,1.88177,-9.69835,-11.394,-7.70313,94.2232
2023-03-11 16:31:42:394,-1.19132,1.88724,-9.66481,-11.4065,-7.69619,94.3002
2023-03-11 16:31:42:403,-1.19107,1.88952,-9.6507,-11.4125,-7.69104,94.3792
2023-03-11 16:31:42:414,-1.20108,1.91989,-9.63038,-11.4154,-7.68686,94.4623
2023-03-11 16:31:42:424,-1.14246,1.90461,-9.56729,-11.4162,-7.68202,94.5492
2023-03-11 16:31:42:434,-1.1113,1.88346,-9.52564,-11.4122,-7.68263,94.6371
2023-03-11 16:31:42:444,-1.14639,1.87681,-9.51266,-11.41,-7.68953,94.7315
2023-03-11 16:31:42:454,-1.22419,1.88966,-9.50534,-11.4063,-7.69478,94.8281
2023-03-11 16:31:42:463,-1.29783,1.89788,-9.51678,-11.4002,-7.70876,94.9286
2023-03-11 16:31:42:474,-1.35177,1.93072,-9.5185,-11.391,-7.72364,95.0363
2023-03-11 16:31:42:484,-1.38837,1.92795,-9.52127,-11.3813,-7.74028,95.1457
2023-03-11 16:31:42:494,-1.43247,1.9287,-9.52544,-11.3744,-7.75869,95.2493
2023-03-11 16:31:42:503,-1.49356,1.94483,-9.55077,-11.3691,-7.77913,95.351
2023-03-11 16:31:42:514,-1.52107,1.97055,-9.54055,-11.3622,-7.79793,95.4497
2023-03-11 16:31:42:523,-1.55276,1.97231,-9.53958,-11.3505,-7.81193,95.5468
2023-03-11 16:31:42:534,-1.59742,1.9834,-9.53405,-11.3352,-7.82889,95.638
2023-03-11 16:31:42:544,-1.67722,2.00984,-9.44726,-11.3165,-7.84202,95.7244
2023-03-11 16:31:42:554,-1.76203,2.00652,-9.33476,-11.297,-7.84768,95.8075
2023-03-11 16:31:42:564,-1.83236,2.0484,-9.30462,-11.2802,-7.84373,95.8797
2023-03-11 16:31:42:574,-1.83884,2.09592,-9.38027,-11.2671,-7.82818,95.9375
2023-03-11 16:31:42:584,-1.79518,2.16695,-9.47473,-11.2566,-7.8016,95.9831
2023-03-11 16:31:42:594,-1.72873,2.22184,-9.54533,-11.2432,-7.76347,96.0084
2023-03-11 16:31:42:604,-1.63034,2.23937,-9.62597,-11.2219,-7.71567,96.0208
2023-03-11 16:31:42:614,-1.53168,2.2443,-9.66857,-11.1887,-7.65748,96.0174
2023-03-11 16:31:42:624,-1.43053,2.23389,-9.70366,-11.1421,-7.58727,96.0085
2023-03-11 16:31:42:634,-1.36995,2.23085,-9.7472,-11.0863,-7.51696,95.9928
2023-03-11 16:31:42:644,-1.31956,2.23656,-9.76902,-11.0219,-7.446,95.9722
2023-03-11 16:31:42:654,-1.24182,2.23818,-9.76043,-10.9439,-7.36835,95.948
2023-03-11 16:31:42:664,-1.19535,2.2386,-9.74104,-10.8549,-7.28936,95.9203
2023-03-11 16:31:42:674,-1.20551,2.22832,-9.75281,-10.7552,-7.20916,95.8927
2023-03-11 16:31:42:684,-1.25487,2.26619,-9.81748,-10.6423,-7.12934,95.8642
2023-03-11 16:31:42:694,-1.26652,2.27109,-9.87769,-10.5144,-7.05358,95.8309
2023-03-11 16:31:42:704,-1.21616,2.2145,-9.8897,-10.3679,-6.98298,95.788
2023-03-11 16:31:42:713,-1.14237,2.15681,-9.88969,-10.2038,-6.91078,95.7338
2023-03-11 16:31:42:724,-1.07743,2.06331,-9.85516,-10.0215,-6.84612,95.6684
2023-03-11 16:31:42:734,-1.0249,1.95358,-9.79332,-9.8263,-6.78493,95.5995
2023-03-11 16:31:42:743,-0.977646,1.85355,-9.75119,-9.61863,-6.73141,95.5272
2023-03-11 16:31:42:754,-0.937249,1.7637,-9.73615,-9.40676,-6.68507,95.4567
2023-03-11 16:31:42:764,-0.911815,1.65829,-9.72466,-9.18282,-6.63793,95.3847
2023-03-11 16:31:42:774,-0.925977,1.58085,-9.69247,-8.95518,-6.59214,95.3194
2023-03-11 16:31:42:784,-0.909648,1.50989,-9.63247,-8.72582,-6.54972,95.2551
2023-03-11 16:31:42:793,-0.847068,1.39436,-9.55358,-8.49373,-6.50817,95.1985
2023-03-11 16:31:42:803,-0.814868,1.30675,-9.49245,-8.26451,-6.46915,95.1443
2023-03-11 16:31:42:814,-0.816636,1.26047,-9.42199,-8.04461,-6.43876,95.0925
2023-03-11 16:31:42:824,-0.82255,1.1959,-9.40562,-7.82982,-6.41602,95.051
2023-03-11 16:31:42:833,-0.862296,1.17382,-9.41816,-7.62468,-6.40032,95.0154
2023-03-11 16:31:42:844,-0.908807,1.15408,-9.43884,-7.4388,-6.39162,94.9871
2023-03-11 16:31:42:854,-0.908918,1.1437,-9.48472,-7.26125,-6.3878,94.9621
2023-03-11 16:31:42:864,-0.907582,1.13736,-9.53802,-7.09593,-6.38908,94.9427
2023-03-11 16:31:42:874,-0.914908,1.15056,-9.56187,-6.94002,-6.39982,94.9294
2023-03-11 16:31:42:884,-0.934534,1.14878,-9.53041,-6.79368,-6.41934,94.9193
2023-03-11 16:31:42:894,-0.939655,1.11141,-9.47004,-6.65592,-6.44419,94.9147
2023-03-11 16:31:42:903,-0.919276,1.06628,-9.42839,-6.52378,-6.47017,94.9117
2023-03-11 16:31:42:914,-0.921027,1.04703,-9.42016,-6.40647,-6.50001,94.918
2023-03-11 16:31:42:923,-0.923424,1.03154,-9.46323,-6.3012,-6.53344,94.9379
2023-03-11 16:31:42:934,-0.955619,1.02058,-9.52013,-6.2055,-6.56437,94.9653
2023-03-11 16:31:42:944,-0.952871,1.03656,-9.53793,-6.1181,-6.59607,95.0064
2023-03-11 16:31:42:954,-0.933173,1.01696,-9.53406,-6.03526,-6.62305,95.05
2023-03-11 16:31:42:964,-0.909694,1.00712,-9.53183,-5.96219,-6.6414,95.1044
2023-03-11 16:31:42:973,-0.942358,0.991876,-9.4802,-5.89448,-6.65621,95.1726
2023-03-11 16:31:42:984,-0.986807,0.953597,-9.41024,-5.84043,-6.66888,95.2496
2023-03-11 16:31:42:994,-1.04903,0.970868,-9.36018,-5.79475,-6.68608,95.3356
2023-03-11 16:31:43:4,-1.1134,0.978793,-9.37894,-5.76369,-6.70581,95.4207
2023-03-11 16:31:43:14,-1.16425,0.983189,-9.39912,-5.75,-6.73119,95.5097
2023-03-11 16:31:43:24,-1.17589,0.996575,-9.41935,-5.74981,-6.76047,95.5896
2023-03-11 16:31:43:34,-1.18028,1.01098,-9.40121,-5.75611,-6.79933,95.6633
2023-03-11 16:31:43:44,-1.21996,1.00571,-9.34485,-5.77167,-6.85067,95.7315
2023-03-11 16:31:43:54,-1.27387,1.01728,-9.34832,-5.79652,-6.90807,95.7947
2023-03-11 16:31:43:64,-1.307,1.04743,-9.36736,-5.83612,-6.97646,95.8533
2023-03-11 16:31:43:74,-1.32447,1.0746,-9.36699,-5.88852,-7.0437,95.9049
2023-03-11 16:31:43:84,-1.35905,1.0865,-9.40175,-5.95051,-7.1206,95.9517
2023-03-11 16:31:43:94,-1.38807,1.10732,-9.45844,-6.02386,-7.20132,95.9994
2023-03-11 16:31:43:104,-1.42407,1.1616,-9.53939,-6.1075,-7.2854,96.043
2023-03-11 16:31:43:113,-1.46656,1.20454,-9.56204,-6.19339,-7.37204,96.083
2023-03-11 16:31:43:124,-1.50127,1.22464,-9.57339,-6.28098,-7.45948,96.1238
2023-03-11 16:31:43:134,-1.53336,1.24809,-9.59702,-6.37484,-7.54153,96.1638
2023-03-11 16:31:43:144,-1.56389,1.27497,-9.62412,-6.47119,-7.62357,96.2042
2023-03-11 16:31:43:154,-1.58629,1.29217,-9.63727,-6.57346,-7.70434,96.2417
2023-03-11 16:31:43:164,-1.61895,1.31109,-9.67647,-6.67078,-7.78173,96.2763
2023-03-11 16:31:43:174,-1.62123,1.35181,-9.70774,-6.76585,-7.84815,96.3124
2023-03-11 16:31:43:184,-1.59886,1.34515,-9.70046,-6.84983,-7.90801,96.346
2023-03-11 16:31:43:194,-1.57338,1.31449,-9.69522,-6.92488,-7.95988,96.3795
2023-03-11 16:31:43:204,-1.56421,1.29263,-9.69285,-6.99148,-7.99957,96.4129
2023-03-11 16:31:43:214,-1.54811,1.27539,-9.70568,-7.04855,-8.02803,96.4434
2023-03-11 16:31:43:224,-1.53965,1.26828,-9.76351,-7.10008,-8.05085,96.4761
2023-03-11 16:31:43:234,-1.55294,1.27857,-9.80148,-7.14147,-8.06884,96.509
2023-03-11 16:31:43:244,-1.56075,1.25856,-9.76527,-7.17481,-8.07913,96.5371
2023-03-11 16:31:43:254,-1.53806,1.22426,-9.6824,-7.20121,-8.08425,96.5643
2023-03-11 16:31:43:264,-1.47665,1.20315,-9.57442,-7.22171,-8.08447,96.5844
2023-03-11 16:31:43:274,-1.41318,1.16193,-9.49795,-7.23761,-8.07682,96.603
2023-03-11 16:31:43:284,-1.40961,1.14851,-9.45044,-7.25855,-8.07517,96.6183
2023-03-11 16:31:43:294,-1.42669,1.16694,-9.46034,-7.28239,-8.07836,96.6315
2023-03-11 16:31:43:304,-1.44967,1.20712,-9.49982,-7.31591,-8.08598,96.6457
2023-03-11 16:31:43:314,-1.47673,1.25559,-9.58354,-7.35357,-8.0916,96.6604
2023-03-11 16:31:43:324,-1.49721,1.29252,-9.65898,-7.38905,-8.09317,96.6774
2023-03-11 16:31:43:334,-1.5099,1.31428,-9.72599,-7.41618,-8.09215,96.6913
2023-03-11 16:31:43:344,-1.5145,1.30368,-9.77012,-7.43239,-8.08896,96.7038
2023-03-11 16:31:43:354,-1.52439,1.29648,-9.80877,-7.43837,-8.07777,96.7119
2023-03-11 16:31:43:364,-1.52975,1.28569,-9.82489,-7.4337,-8.05963,96.7178
2023-03-11 16:31:43:374,-1.49206,1.25085,-9.79224,-7.41473,-8.03525,96.7187
2023-03-11 16:31:43:384,-1.46187,1.20162,-9.75287,-7.38315,-8.00254,96.7175
2023-03-11 16:31:43:394,-1.45918,1.17117,-9.72004,-7.34694,-7.96907,96.7136
2023-03-11 16:31:43:404,-1.452,1.13708,-9.70209,-7.30359,-7.93188,96.7083
2023-03-11 16:31:43:414,-1.4487,1.11241,-9.68885,-7.26059,-7.8927,96.6994
2023-03-11 16:31:43:424,-1.43523,1.0882,-9.63799,-7.21845,-7.84784,96.6876
2023-03-11 16:31:43:434,-1.41335,1.05345,-9.60177,-7.17472,-7.79777,96.6709
2023-03-11 16:31:43:444,-1.41674,1.04958,-9.58499,-7.13705,-7.7479,96.6515
2023-03-11 16:31:43:454,-1.39896,1.0462,-9.58695,-7.10246,-7.69447,96.6243
2023-03-11 16:31:43:464,-1.34199,1.06262,-9.6127,-7.06923,-7.63355,96.5908
2023-03-11 16:31:43:473,-1.28336,1.06998,-9.61862,-7.03742,-7.57086,96.5461
2023-03-11 16:31:43:484,-1.22287,1.05922,-9.58277,-7.00581,-7.50586,96.4979
2023-03-11 16:31:43:493,-1.19442,1.03349,-9.55209,-6.97201,-7.44857,96.4454
2023-03-11 16:31:43:504,-1.20188,1.0277,-9.57511,-6.94133,-7.40011,96.3905
2023-03-11 16:31:43:514,-1.19647,1.04383,-9.63587,-6.90837,-7.35949,96.3332
2023-03-11 16:31:43:523,-1.17388,1.04647,-9.66859,-6.87238,-7.32203,96.2697
2023-03-11 16:31:43:534,-1.15648,1.03642,-9.67366,-6.83533,-7.29047,96.2048
2023-03-11 16:31:43:544,-1.13189,1.04158,-9.66104,-6.79548,-7.26381,96.1361
2023-03-11 16:31:43:554,-1.13743,1.022,-9.62064,-6.76078,-7.23694,96.0692
2023-03-11 16:31:43:564,-1.16257,1.00735,-9.60666,-6.72378,-7.21075,96.0048
2023-03-11 16:31:43:574,-1.16316,1.02311,-9.65235,-6.692,-7.184,95.9408
2023-03-11 16:31:43:584,-1.09531,1.03721,-9.70944,-6.66316,-7.15419,95.8745
2023-03-11 16:31:43:594,-1.04213,1.05159,-9.73905,-6.63885,-7.12485,95.8133
2023-03-11 16:31:43:604,-1.02644,1.05879,-9.73251,-6.61931,-7.09945,95.753
2023-03-11 16:31:43:614,-1.05608,1.06706,-9.69759,-6.60076,-7.06866,95.6986
2023-03-11 16:31:43:624,-1.06783,1.10149,-9.7133,-6.58396,-7.03653,95.6487
2023-03-11 16:31:43:634,-1.05404,1.15563,-9.77248,-6.56862,-6.99858,95.6034
2023-03-11 16:31:43:644,-1.04186,1.17938,-9.79154,-6.5604,-6.96064,95.5596
2023-03-11 16:31:43:654,-1.03938,1.19433,-9.71439,-6.5545,-6.92036,95.5206
2023-03-11 16:31:43:664,-1.02529,1.18763,-9.59731,-6.55054,-6.87661,95.481
2023-03-11 16:31:43:674,-1.03897,1.18052,-9.56167,-6.54908,-6.83062,95.4397
2023-03-11 16:31:43:684,-1.06066,1.21876,-9.61301,-6.55264,-6.7846,95.399
2023-03-11 16:31:43:693,-1.04645,1.27753,-9.66433,-6.56081,-6.73553,95.3559
2023-03-11 16:31:43:704,-1.00273,1.30758,-9.73044,-6.56674,-6.6857,95.3088
2023-03-11 16:31:43:714,-0.952483,1.31296,-9.77286,-6.56563,-6.6398,95.2545
2023-03-11 16:31:43:724,-0.865002,1.28796,-9.78655,-6.55361,-6.59487,95.1934
2023-03-11 16:31:43:734,-0.777338,1.24842,-9.74255,-6.53526,-6.55423,95.1345
2023-03-11 16:31:43:744,-0.731496,1.19346,-9.65828,-6.50658,-6.52106,95.0709
2023-03-11 16:31:43:754,-0.740691,1.13386,-9.56958,-6.47354,-6.50305,95.0137
2023-03-11 16:31:43:764,-0.771138,1.11051,-9.49757,-6.43721,-6.49609,94.9696
2023-03-11 16:31:43:774,-0.833837,1.08791,-9.44682,-6.41212,-6.5024,94.9342
2023-03-11 16:31:43:784,-0.933595,1.0626,-9.42789,-6.39496,-6.51715,94.9095
2023-03-11 16:31:43:794,-1.04546,1.05989,-9.42866,-6.39414,-6.54039,94.89
2023-03-11 16:31:43:804,-1.15105,1.09896,-9.45055,-6.41472,-6.56871,94.8778
2023-03-11 16:31:43:814,-1.27082,1.1355,-9.4878,-6.45236,-6.6047,94.8665
2023-03-11 16:31:43:824,-1.32649,1.18077,-9.55991,-6.50648,-6.63959,94.854
2023-03-11 16:31:43:834,-1.29477,1.26067,-9.59644,-6.57466,-6.66867,94.8364
2023-03-11 16:31:43:844,-1.19106,1.26423,-9.56719,-6.64141,-6.68306,94.8152
2023-03-11 16:31:43:854,-1.14393,1.27136,-9.498,-6.71896,-6.68789,94.7882
2023-03-11 16:31:43:864,-1.15816,1.31358,-9.43996,-6.80693,-6.68982,94.7627
2023-03-11 16:31:43:874,-1.11421,1.34246,-9.38782,-6.90542,-6.69169,94.7368
2023-03-11 16:31:43:884,-1.05059,1.35507,-9.39795,-7.0118,-6.69198,94.7077
2023-03-11 16:31:43:894,-1.0562,1.42102,-9.50438,-7.12556,-6.69165,94.6866
2023-03-11 16:31:43:904,-1.09119,1.51307,-9.6254,-7.24427,-6.69063,94.6624
2023-03-11 16:31:43:914,-1.12065,1.53729,-9.69589,-7.35933,-6.68255,94.6446
2023-03-11 16:31:43:924,-1.13551,1.54599,-9.75104,-7.46859,-6.67344,94.6278
2023-03-11 16:31:43:934,-1.14253,1.55895,-9.77506,-7.56412,-6.65422,94.6062
2023-03-11 16:31:43:944,-1.14159,1.53611,-9.72221,-7.64978,-6.63078,94.5854
2023-03-11 16:31:43:954,-1.12799,1.49243,-9.65923,-7.72451,-6.60434,94.5619
2023-03-11 16:31:43:964,-1.07749,1.46552,-9.61646,-7.79358,-6.57496,94.5323
2023-03-11 16:31:43:974,-1.03019,1.45473,-9.64733,-7.86424,-6.54307,94.4958
2023-03-11 16:31:43:984,-0.994167,1.42963,-9.70186,-7.93241,-6.51196,94.4594
2023-03-11 16:31:43:994,-0.968423,1.43769,-9.75988,-7.99559,-6.49104,94.4158
2023-03-11 16:31:44:4,-0.980629,1.4348,-9.75981,-8.06016,-6.47968,94.37
2023-03-11 16:31:44:13,-1.02036,1.40963,-9.71497,-8.12542,-6.48239,94.3218
2023-03-11 16:31:44:24,-1.08077,1.39588,-9.7068,-8.19161,-6.4954,94.2764
2023-03-11 16:31:44:34,-1.13123,1.40164,-9.68414,-8.25654,-6.51583,94.2298
2023-03-11 16:31:44:43,-1.13088,1.4133,-9.63787,-8.31638,-6.533,94.1802
2023-03-11 16:31:44:53,-1.08855,1.3745,-9.57887,-8.36921,-6.54638,94.1268
2023-03-11 16:31:44:63,-1.00796,1.33445,-9.56888,-8.41328,-6.5646,94.0688
2023-03-11 16:31:44:74,-0.963357,1.33152,-9.58735,-8.45788,-6.59158,94.0113
2023-03-11 16:31:44:84,-1.02377,1.31938,-9.58811,-8.50045,-6.63106,93.962
2023-03-11 16:31:44:93,-1.15455,1.32285,-9.6194,-8.54325,-6.68228,93.9133
2023-03-11 16:31:44:104,-1.28626,1.3765,-9.69222,-8.58248,-6.73178,93.8719
2023-03-11 16:31:44:114,-1.34599,1.4069,-9.71716,-8.62679,-6.77184,93.8343
2023-03-11 16:31:44:124,-1.32624,1.42712,-9.73775,-8.66179,-6.79673,93.7913
2023-03-11 16:31:44:134,-1.21883,1.46282,-9.82215,-8.68768,-6.8052,93.7397
2023-03-11 16:31:44:144,-1.12002,1.48606,-9.87183,-8.70622,-6.80563,93.6838
2023-03-11 16:31:44:154,-1.0726,1.47387,-9.87429,-8.70593,-6.80939,93.6267
2023-03-11 16:31:44:164,-1.11168,1.42614,-9.79354,-8.68873,-6.82229,93.5711
2023-03-11 16:31:44:174,-1.15687,1.35696,-9.6546,-8.65448,-6.84817,93.5171
2023-03-11 16:31:44:184,-1.21321,1.28506,-9.53614,-8.61035,-6.88425,93.4645
2023-03-11 16:31:44:194,-1.25546,1.26247,-9.48049,-8.56943,-6.9158,93.4117
2023-03-11 16:31:44:204,-1.24357,1.25108,-9.48185,-8.532,-6.93911,93.365
2023-03-11 16:31:44:214,-1.19745,1.2666,-9.53946,-8.50006,-6.94357,93.3174
2023-03-11 16:31:44:224,-1.13446,1.29727,-9.59959,-8.47047,-6.9378,93.271
2023-03-11 16:31:44:234,-1.04376,1.29519,-9.62585,-8.44414,-6.92817,93.2271
2023-03-11 16:31:44:244,-0.97619,1.27854,-9.62664,-8.41875,-6.91365,93.1854
2023-03-11 16:31:44:254,-0.951592,1.25224,-9.59649,-8.3959,-6.90444,93.1507
2023-03-11 16:31:44:264,-0.975943,1.21413,-9.52698,-8.37368,-6.90427,93.125
2023-03-11 16:31:44:274,-1.02537,1.20262,-9.47763,-8.3579,-6.91009,93.1056
2023-03-11 16:31:44:284,-1.0756,1.1933,-9.42666,-8.356,-6.91758,93.0977
2023-03-11 16:31:44:294,-1.13147,1.17397,-9.35092,-8.36471,-6.92515,93.0974
2023-03-11 16:31:44:304,-1.19225,1.17013,-9.30645,-8.38723,-6.93097,93.1064
2023-03-11 16:31:44:314,-1.27113,1.19326,-9.30647,-8.42526,-6.93081,93.1217
2023-03-11 16:31:44:324,-1.3395,1.23275,-9.29646,-8.47812,-6.92907,93.1383
2023-03-11 16:31:44:334,-1.38643,1.28148,-9.32632,-8.54864,-6.91808,93.1562
2023-03-11 16:31:44:344,-1.36968,1.31366,-9.39604,-8.63118,-6.90391,93.169
2023-03-11 16:31:44:353,-1.3145,1.35714,-9.48871,-8.72652,-6.89286,93.1722
2023-03-11 16:31:44:364,-1.28046,1.41136,-9.53924,-8.83814,-6.88419,93.1718
2023-03-11 16:31:44:374,-1.27637,1.45993,-9.53085,-8.95977,-6.88674,93.165
2023-03-11 16:31:44:384,-1.29985,1.50347,-9.54892,-9.08947,-6.90443,93.1527
2023-03-11 16:31:44:393,-1.36481,1.59001,-9.58251,-9.23079,-6.9332,93.1426
2023-03-11 16:31:44:404,-1.43734,1.67452,-9.60661,-9.3801,-6.96711,93.128
2023-03-11 16:31:44:414,-1.46702,1.75629,-9.62594,-9.53482,-7.00756,93.1076
2023-03-11 16:31:44:423,-1.4536,1.79863,-9.64683,-9.68543,-7.04713,93.0834
2023-03-11 16:31:44:434,-1.45394,1.85185,-9.70098,-9.828,-7.08405,93.0516
2023-03-11 16:31:44:444,-1.47575,1.88594,-9.70749,-9.96299,-7.12201,93.0149
2023-03-11 16:31:44:453,-1.5286,1.86182,-9.63029,-10.0846,-7.16492,92.9728
2023-03-11 16:31:44:464,-1.5744,1.84196,-9.52114,-10.1996,-7.20376,92.9265
2023-03-11 16:31:44:473,-1.609,1.85269,-9.43732,-10.3152,-7.23902,92.869
2023-03-11 16:31:44:483,-1.60806,1.85905,-9.39257,-10.4285,-7.26415,92.8054
2023-03-11 16:31:44:493,-1.59498,1.87865,-9.36789,-10.5425,-7.27266,92.7254
2023-03-11 16:31:44:503,-1.56394,1.91069,-9.36342,-10.6607,-7.26699,92.6286
2023-03-11 16:31:44:513,-1.48559,1.96422,-9.38203,-10.7768,-7.24595,92.5261
2023-03-11 16:31:44:523,-1.40675,1.99162,-9.38795,-10.8964,-7.21159,92.4069
2023-03-11 16:31:44:533,-1.33089,2.01384,-9.43219,-11.016,-7.16445,92.2723
2023-03-11 16:31:44:544,-1.23546,2.04536,-9.48812,-11.1379,-7.11036,92.1292
2023-03-11 16:31:44:553,-1.12692,2.10159,-9.53182,-11.2571,-7.05087,91.9727
2023-03-11 16:31:44:563,-1.03445,2.14628,-9.58405,-11.3725,-6.9922,91.8083
2023-03-11 16:31:44:574,-0.968126,2.18975,-9.61685,-11.4847,-6.93964,91.641
2023-03-11 16:31:44:583,-0.921913,2.21168,-9.63505,-11.5923,-6.89086,91.473
2023-03-11 16:31:44:593,-0.885107,2.22853,-9.61394,-11.6939,-6.85073,91.3063
2023-03-11 16:31:44:604,-0.858347,2.23256,-9.60246,-11.7889,-6.81538,91.1412
2023-03-11 16:31:44:614,-0.83956,2.22908,-9.56645,-11.8785,-6.78898,90.9819
2023-03-11 16:31:44:623,-0.82602,2.21154,-9.54451,-11.9658,-6.77142,90.8285
2023-03-11 16:31:44:633,-0.838397,2.20736,-9.51368,-12.0481,-6.76245,90.6842
2023-03-11 16:31:44:644,-0.871264,2.22165,-9.51982,-12.1284,-6.75927,90.5466
2023-03-11 16:31:44:654,-0.906862,2.23141,-9.56171,-12.2109,-6.76379,90.4234
2023-03-11 16:31:44:663,-0.947172,2.27413,-9.57172,-12.293,-6.76862,90.3107
2023-03-11 16:31:44:674,-0.985288,2.30485,-9.57798,-12.3706,-6.77655,90.2036
2023-03-11 16:31:44:683,-0.998236,2.30508,-9.58912,-12.4406,-6.78258,90.1015
2023-03-11 16:31:44:694,-1.02009,2.30757,-9.60618,-12.5072,-6.78115,90.0112
2023-03-11 16:31:44:703,-1.00598,2.31045,-9.59832,-12.5634,-6.77297,89.9276
2023-03-11 16:31:44:713,-0.997621,2.28981,-9.56186,-12.6119,-6.75761,89.8537
2023-03-11 16:31:44:724,-0.995583,2.26388,-9.54641,-12.6506,-6.73745,89.7843
2023-03-11 16:31:44:734,-1.01244,2.26704,-9.56111,-12.6886,-6.71142,89.7243
2023-03-11 16:31:44:743,-1.01015,2.27399,-9.59509,-12.7201,-6.68426,89.6745
2023-03-11 16:31:44:753,-0.993115,2.26502,-9.62655,-12.7476,-6.64715,89.6294
2023-03-11 16:31:44:764,-0.992245,2.24533,-9.63392,-12.7692,-6.60773,89.591
2023-03-11 16:31:44:774,-1.01585,2.23601,-9.60384,-12.7829,-6.56691,89.5552
2023-03-11 16:31:44:784,-1.05812,2.21603,-9.5723,-12.795,-6.52296,89.5245
2023-03-11 16:31:44:794,-1.0798,2.20792,-9.54095,-12.803,-6.48493,89.4949
2023-03-11 16:31:44:804,-1.09607,2.20289,-9.52712,-12.8116,-6.44615,89.466
2023-03-11 16:31:44:814,-1.09246,2.19363,-9.49181,-12.8182,-6.40469,89.4402
2023-03-11 16:31:44:824,-1.08967,2.172,-9.46974,-12.8213,-6.36735,89.4086
2023-03-11 16:31:44:834,-1.09041,2.17142,-9.44011,-12.8248,-6.33029,89.3729
2023-03-11 16:31:44:844,-1.09622,2.17343,-9.40825,-12.833,-6.30205,89.3347
2023-03-11 16:31:44:854,-1.10289,2.16351,-9.41511,-12.8408,-6.27353,89.2918
2023-03-11 16:31:44:864,-1.08547,2.13896,-9.41866,-12.8481,-6.24665,89.2474
2023-03-11 16:31:44:874,-1.06461,2.13288,-9.39831,-12.8585,-6.22403,89.1982
2023-03-11 16:31:44:884,-1.03274,2.12589,-9.41232,-12.8745,-6.20326,89.1431
2023-03-11 16:31:44:894,-1.00722,2.1218,-9.43464,-12.8902,-6.18324,89.084
2023-03-11 16:31:44:903,-0.979018,2.12717,-9.46653,-12.9107,-6.16059,89.0245
2023-03-11 16:31:44:913,-0.95394,2.14031,-9.50054,-12.9288,-6.13633,88.962
2023-03-11 16:31:44:924,-0.914392,2.14424,-9.5228,-12.9522,-6.11553,88.9061
2023-03-11 16:31:44:934,-0.890104,2.15716,-9.53359,-12.9744,-6.09441,88.8485
2023-03-11 16:31:44:943,-0.870418,2.16974,-9.51422,-12.9984,-6.07239,88.794
2023-03-11 16:31:44:953,-0.873456,2.16364,-9.48388,-13.0181,-6.05408,88.7471
2023-03-11 16:31:44:964,-0.882759,2.17956,-9.48841,-13.041,-6.03773,88.703
2023-03-11 16:31:44:973,-0.895637,2.19462,-9.49923,-13.0675,-6.01999,88.6674
2023-03-11 16:31:44:984,-0.8789,2.2052,-9.49937,-13.0905,-6.00086,88.6295
2023-03-11 16:31:44:993,-0.847376,2.20304,-9.51308,-13.1123,-5.9797,88.5953
2023-03-11 16:31:45:4,-0.862411,2.19561,-9.50818,-13.1339,-5.96019,88.5674
2023-03-11 16:31:45:14,-0.882805,2.2108,-9.50155,-13.1562,-5.94408,88.5464
2023-03-11 16:31:45:23,-0.914692,2.22164,-9.49787,-13.1753,-5.93459,88.529
2023-03-11 16:31:45:33,-0.924922,2.22493,-9.50711,-13.1952,-5.92292,88.5141
2023-03-11 16:31:45:43,-0.919173,2.2323,-9.53951,-13.2175,-5.91076,88.4988
2023-03-11 16:31:45:54,-0.91603,2.24043,-9.56538,-13.2396,-5.89814,88.4893
2023-03-11 16:31:45:64,-0.917548,2.26715,-9.56331,-13.2582,-5.89011,88.483
2023-03-11 16:31:45:73,-0.923539,2.26655,-9.54662,-13.276,-5.88173,88.4752
2023-03-11 16:31:45:84,-0.938141,2.25594,-9.51873,-13.2912,-5.87507,88.4714
2023-03-11 16:31:45:93,-0.956426,2.25528,-9.5002,-13.3016,-5.87257,88.4691
2023-03-11 16:31:45:104,-0.973376,2.26715,-9.49829,-13.3115,-5.86919,88.4711
2023-03-11 16:31:45:114,-1.00158,2.27409,-9.50023,-13.3239,-5.87172,88.4709
2023-03-11 16:31:45:124,-1.01845,2.26909,-9.50311,-13.3309,-5.87353,88.4693
2023-03-11 16:31:45:134,-1.01813,2.25938,-9.51069,-13.3385,-5.875,88.4693
2023-03-11 16:31:45:144,-1.0191,2.26147,-9.51004,-13.3413,-5.87481,88.4675
2023-03-11 16:31:45:154,-1.02128,2.26397,-9.49851,-13.3425,-5.87609,88.4616
2023-03-11 16:31:45:164,-1.00339,2.25548,-9.48786,-13.3426,-5.88064,88.4542
2023-03-11 16:31:45:174,-0.993975,2.23483,-9.49452,-13.3393,-5.88214,88.443
2023-03-11 16:31:45:184,-0.976737,2.24396,-9.50594,-13.3395,-5.88816,88.4376
2023-03-11 16:31:45:194,-0.94028,2.24408,-9.51339,-13.3371,-5.89113,88.4276
2023-03-11 16:31:45:204,-0.94074,2.2508,-9.51512,-13.3325,-5.8937,88.4207
2023-03-11 16:31:45:214,-0.926384,2.2503,-9.51908,-13.3259,-5.896,88.4147
2023-03-11 16:31:45:224,-0.879961,2.25203,-9.51552,-13.3205,-5.90273,88.4083
2023-03-11 16:31:45:234,-0.843665,2.27748,-9.53363,-13.3107,-5.90055,88.4064
2023-03-11 16:31:45:244,-0.814409,2.28536,-9.58453,-13.3027,-5.90236,88.4129
2023-03-11 16:31:45:254,-0.808487,2.31073,-9.62165,-13.2875,-5.90684,88.4228
2023-03-11 16:31:45:264,-0.807136,2.33264,-9.6488,-13.2666,-5.91364,88.4422
2023-03-11 16:31:45:274,-0.821307,2.34422,-9.66413,-13.239,-5.92,88.4715
2023-03-11 16:31:45:284,-0.848767,2.3542,-9.64872,-13.204,-5.91907,88.5143
2023-03-11 16:31:45:294,-0.86237,2.34233,-9.61686,-13.16,-5.91647,88.5597
2023-03-11 16:31:45:304,-0.85902,2.31674,-9.58788,-13.1068,-5.91427,88.6152
2023-03-11 16:31:45:314,-0.860864,2.29586,-9.54986,-13.0502,-5.91218,88.6771
2023-03-11 16:31:45:324,-0.889582,2.27763,-9.54363,-12.9898,-5.91203,88.748
2023-03-11 16:31:45:334,-0.930478,2.28917,-9.5508,-12.9266,-5.90931,88.8269
2023-03-11 16:31:45:344,-0.948516,2.28939,-9.55305,-12.8619,-5.90968,88.909
2023-03-11 16:31:45:354,-0.965865,2.27095,-9.5221,-12.7978,-5.91203,88.995
2023-03-11 16:31:45:364,-0.995006,2.23042,-9.48321,-12.7289,-5.91655,89.0825
2023-03-11 16:31:45:374,-1.00851,2.19074,-9.4513,-12.66,-5.91802,89.1712
2023-03-11 16:31:45:384,-1.01612,2.17038,-9.43058,-12.5935,-5.92268,89.259
2023-03-11 16:31:45:394,-1.04068,2.12371,-9.40883,-12.5228,-5.93039,89.3478
2023-03-11 16:31:45:404,-1.0488,2.11677,-9.40384,-12.455,-5.94004,89.4353
2023-03-11 16:31:45:414,-1.05594,2.10419,-9.42294,-12.391,-5.95009,89.5226
2023-03-11 16:31:45:424,-1.06505,2.09642,-9.46411,-12.3263,-5.95883,89.6066
2023-03-11 16:31:45:434,-1.07541,2.10174,-9.45932,-12.2679,-5.96985,89.6934
2023-03-11 16:31:45:444,-1.04171,2.07241,-9.43924,-12.2102,-5.9793,89.7757
2023-03-11 16:31:45:454,-1.01801,2.04812,-9.41948,-12.1554,-5.99075,89.8621
2023-03-11 16:31:45:464,-0.982936,2.04629,-9.42057,-12.1095,-6.00015,89.9456
2023-03-11 16:31:45:474,-0.960109,2.03791,-9.48423,-12.0692,-6.01304,90.0342
2023-03-11 16:31:45:484,-0.97479,2.05783,-9.56072,-12.0323,-6.02944,90.1247
2023-03-11 16:31:45:494,-1.00619,2.05978,-9.57526,-11.9961,-6.04702,90.2182
2023-03-11 16:31:45:504,-1.0179,2.02338,-9.53453,-11.9561,-6.0591,90.316
2023-03-11 16:31:45:514,-0.989818,2.00138,-9.53099,-11.9186,-6.07376,90.4146
2023-03-11 16:31:45:524,-0.973186,1.9944,-9.59386,-11.8789,-6.08568,90.5151
2023-03-11 16:31:45:534,-0.994335,2.00565,-9.67168,-11.8367,-6.09389,90.6166
2023-03-11 16:31:45:544,-1.02521,2.0024,-9.71736,-11.7889,-6.1002,90.719
2023-03-11 16:31:45:554,-1.07958,1.98915,-9.72792,-11.735,-6.10965,90.8237
2023-03-11 16:31:45:564,-1.11341,1.95877,-9.69447,-11.6699,-6.10948,90.9209
2023-03-11 16:31:45:574,-1.12103,1.89266,-9.61729,-11.5921,-6.10012,91.0086
2023-03-11 16:31:45:584,-1.10021,1.82252,-9.50354,-11.5099,-6.08389,91.0883
2023-03-11 16:31:45:594,-1.04794,1.77355,-9.37968,-11.4243,-6.05176,91.1571
2023-03-11 16:31:45:604,-0.994881,1.73206,-9.27573,-11.3441,-6.01828,91.218
2023-03-11 16:31:45:614,-0.914441,1.72357,-9.21623,-11.2795,-5.97963,91.2707
2023-03-11 16:31:45:624,-0.84033,1.73182,-9.17022,-11.2226,-5.93951,91.3202
2023-03-11 16:31:45:634,-0.810314,1.72523,-9.1632,-11.187,-5.89716,91.3656
2023-03-11 16:31:45:644,-0.802398,1.74818,-9.17086,-11.1719,-5.87029,91.4128
2023-03-11 16:31:45:654,-0.800808,1.78984,-9.23731,-11.1819,-5.85585,91.4622
2023-03-11 16:31:45:664,-0.808637,1.84899,-9.31129,-11.2082,-5.84721,91.5115
2023-03-11 16:31:45:674,-0.819562,1.91997,-9.36932,-11.2506,-5.85496,91.5616
2023-03-11 16:31:45:683,-0.820996,1.96709,-9.38212,-11.313,-5.86859,91.618
2023-03-11 16:31:45:694,-0.861052,2.02836,-9.38672,-11.383,-5.89818,91.6807
2023-03-11 16:31:45:704,-0.939986,2.1134,-9.41733,-11.4664,-5.94105,91.749
2023-03-11 16:31:45:714,-1.00728,2.18927,-9.47048,-11.5548,-5.99086,91.8254
2023-03-11 16:31:45:724,-1.09724,2.262,-9.54644,-11.6469,-6.0492,91.9077
2023-03-11 16:31:45:734,-1.16515,2.31902,-9.61207,-11.7359,-6.11716,91.9952
2023-03-11 16:31:45:744,-1.22506,2.33946,-9.69214,-11.8191,-6.18638,92.0856
2023-03-11 16:31:45:754,-1.3071,2.34649,-9.75299,-11.8887,-6.25918,92.1746
2023-03-11 16:31:45:764,-1.38307,2.34938,-9.7691,-11.946,-6.33418,92.268
2023-03-11 16:31:45:774,-1.44234,2.33411,-9.79144,-11.9829,-6.40213,92.3594
2023-03-11 16:31:45:784,-1.44416,2.30218,-9.81521,-12.0023,-6.46891,92.4514
2023-03-11 16:31:45:794,-1.45072,2.23919,-9.83138,-12.0009,-6.52988,92.5389
2023-03-11 16:31:45:804,-1.48608,2.19702,-9.81903,-11.9847,-6.59096,92.6214
2023-03-11 16:31:45:814,-1.5177,2.13138,-9.78818,-11.9488,-6.64905,92.6995
2023-03-11 16:31:45:824,-1.55637,2.07766,-9.76671,-11.898,-6.69809,92.777
2023-03-11 16:31:45:834,-1.57563,2.0152,-9.71539,-11.8277,-6.73646,92.8486
2023-03-11 16:31:45:844,-1.56041,1.92145,-9.60585,-11.7389,-6.76533,92.9128
2023-03-11 16:31:45:854,-1.51461,1.82372,-9.47469,-11.6425,-6.78734,92.968
2023-03-11 16:31:45:864,-1.44145,1.74937,-9.39961,-11.5398,-6.79875,93.0134
2023-03-11 16:31:45:874,-1.35384,1.70178,-9.35995,-11.4399,-6.79785,93.0475
2023-03-11 16:31:45:884,-1.2988,1.66449,-9.33306,-11.3407,-6.78931,93.0777
2023-03-11 16:31:45:893,-1.2681,1.64818,-9.30806,-11.2434,-6.77311,93.0961
2023-03-11 16:31:45:904,-1.22187,1.63376,-9.28843,-11.1518,-6.74662,93.1146
2023-03-11 16:31:45:914,-1.15673,1.61693,-9.28148,-11.0693,-6.70929,93.1237
2023-03-11 16:31:45:923,-1.06356,1.59023,-9.27769,-10.9985,-6.66385,93.1304
2023-03-11 16:31:45:934,-0.932861,1.57692,-9.24393,-10.9368,-6.61369,93.131
2023-03-11 16:31:45:944,-0.82735,1.59348,-9.27482,-10.8984,-6.56557,93.132
2023-03-11 16:31:45:954,-0.79244,1.64575,-9.31764,-10.8792,-6.52102,93.1381
2023-03-11 16:31:45:964,-0.801183,1.70181,-9.38779,-10.8815,-6.48411,93.1582
2023-03-11 16:31:45:974,-0.845333,1.75906,-9.41415,-10.9019,-6.45809,93.19
2023-03-11 16:31:45:983,-0.920443,1.83444,-9.43801,-10.9323,-6.44831,93.2319
2023-03-11 16:31:45:994,-1.01372,1.90322,-9.4752,-10.9732,-6.4516,93.2804
2023-03-11 16:31:46:4,-1.11173,1.9553,-9.5151,-11.0199,-6.46036,93.3315
2023-03-11 16:31:46:14,-1.19629,2.00442,-9.55504,-11.0653,-6.47808,93.3847
2023-03-11 16:31:46:24,-1.24584,2.05724,-9.56501,-11.1094,-6.50148,93.4345
2023-03-11 16:31:46:34,-1.30189,2.06883,-9.56579,-11.1485,-6.52547,93.4792
2023-03-11 16:31:46:44,-1.35283,2.06209,-9.55329,-11.1811,-6.54834,93.5233
2023-03-11 16:31:46:54,-1.36398,2.0559,-9.55477,-11.2106,-6.56534,93.5553
2023-03-11 16:31:46:63,-1.35676,2.05233,-9.54987,-11.2306,-6.57663,93.5785
2023-03-11 16:31:46:74,-1.35308,2.06344,-9.55443,-11.2466,-6.5825,93.5974
2023-03-11 16:31:46:83,-1.34502,2.05249,-9.55998,-11.2575,-6.57443,93.6095
2023-03-11 16:31:46:94,-1.3165,2.03053,-9.57307,-11.2618,-6.56082,93.6118
2023-03-11 16:31:46:104,-1.25604,2.01035,-9.59226,-11.2623,-6.53752,93.6099
2023-03-11 16:31:46:114,-1.18084,2.01128,-9.6023,-11.2574,-6.50638,93.5987
2023-03-11 16:31:46:124,-1.11539,2.00411,-9.61009,-11.253,-6.47147,93.5862
2023-03-11 16:31:46:134,-1.06276,1.98513,-9.62182,-11.2472,-6.43654,93.5736
2023-03-11 16:31:46:144,-1.03207,1.97961,-9.62082,-11.2393,-6.39982,93.5591
2023-03-11 16:31:46:154,-1.00174,1.96598,-9.608,-11.2278,-6.366,93.5446
2023-03-11 16:31:46:164,-0.994998,1.94144,-9.59815,-11.2205,-6.33161,93.5311
2023-03-11 16:31:46:174,-0.999479,1.92614,-9.57579,-11.2073,-6.29975,93.5166
2023-03-11 16:31:46:184,-0.987188,1.89986,-9.53384,-11.1938,-6.26651,93.5047
2023-03-11 16:31:46:194,-0.959305,1.87543,-9.49221,-11.1801,-6.23463,93.4933
2023-03-11 16:31:46:204,-0.922592,1.85515,-9.48202,-11.165,-6.20273,93.4814
2023-03-11 16:31:46:214,-0.897478,1.8475,-9.50829,-11.1545,-6.17115,93.4725
2023-03-11 16:31:46:224,-0.882673,1.85331,-9.53567,-11.145,-6.14264,93.4665
2023-03-11 16:31:46:234,-0.864561,1.86479,-9.57633,-11.1356,-6.11668,93.4612
2023-03-11 16:31:46:244,-0.861551,1.85665,-9.62258,-11.1249,-6.09914,93.4588
2023-03-11 16:31:46:254,-0.86167,1.84936,-9.62319,-11.1139,-6.0884,93.4615
2023-03-11 16:31:46:263,-0.883815,1.8315,-9.62002,-11.1018,-6.08524,93.4628
2023-03-11 16:31:46:274,-0.93047,1.83809,-9.60432,-11.0899,-6.09083,93.4636
2023-03-11 16:31:46:284,-0.988447,1.83899,-9.55794,-11.0784,-6.10089,93.4708
