Timestamp,Acceleration_x,Acceleration_y,Acceleration_z,roll,pitch,yaw
2023-03-11 15:13:45:678,-0.688831,-0.396948,-9.71839,2.23811,-4.47121,84.5474
2023-03-11 15:13:45:684,-0.64747,-0.399578,-9.72911,2.25411,-4.4505,84.5224
2023-03-11 15:13:45:694,-0.608935,-0.399223,-9.72668,2.26894,-4.43291,84.4963
2023-03-11 15:13:45:704,-0.611206,-0.402875,-9.73231,2.2803,-4.41789,84.4732
2023-03-11 15:13:45:714,-0.619447,-0.4176,-9.72866,2.29482,-4.40505,84.452
2023-03-11 15:13:45:725,-0.63676,-0.4236,-9.72593,2.30879,-4.39091,84.4314
2023-03-11 15:13:45:735,-0.643011,-0.425594,-9.71377,2.31899,-4.37874,84.4147
2023-03-11 15:13:45:745,-0.638252,-0.425411,-9.71106,2.32579,-4.36538,84.4004
2023-03-11 15:13:45:755,-0.630434,-0.405225,-9.72415,2.32854,-4.35359,84.3884
2023-03-11 15:13:45:765,-0.601005,-0.404428,-9.74727,2.3318,-4.34081,84.3767
2023-03-11 15:13:45:775,-0.578868,-0.403101,-9.74271,2.33204,-4.32557,84.3656
2023-03-11 15:13:45:785,-0.575291,-0.404912,-9.72813,2.3325,-4.31631,84.3577
2023-03-11 15:13:45:795,-0.581989,-0.403405,-9.73026,2.32831,-4.31197,84.3501
2023-03-11 15:13:45:805,-0.614251,-0.362291,-9.74027,2.32467,-4.30869,84.347
2023-03-11 15:13:45:815,-0.632549,-0.345657,-9.76525,2.3154,-4.305,84.3484
2023-03-11 15:13:45:825,-0.656508,-0.337355,-9.77884,2.30528,-4.30317,84.3499
2023-03-11 15:13:45:835,-0.66481,-0.340839,-9.77272,2.30032,-4.30379,84.3523
2023-03-11 15:13:45:845,-0.68603,-0.348247,-9.74487,2.29448,-4.30585,84.3567
2023-03-11 15:13:45:855,-0.710793,-0.354209,-9.71569,2.2897,-4.30493,84.3579
2023-03-11 15:13:45:865,-0.718156,-0.369254,-9.69152,2.28497,-4.31009,84.3577
2023-03-11 15:13:45:875,-0.713768,-0.370487,-9.70592,2.27747,-4.31319,84.3596
2023-03-11 15:13:45:885,-0.714577,-0.359288,-9.71928,2.2687,-4.32122,84.3596
2023-03-11 15:13:45:895,-0.721969,-0.349444,-9.74213,2.25349,-4.32911,84.3609
2023-03-11 15:13:45:905,-0.727955,-0.325935,-9.75956,2.23851,-4.33987,84.3577
2023-03-11 15:13:45:915,-0.746126,-0.307147,-9.77578,2.22346,-4.35442,84.3552
2023-03-11 15:13:45:925,-0.768581,-0.298869,-9.78224,2.2072,-4.36636,84.3524
2023-03-11 15:13:45:935,-0.778455,-0.291105,-9.77259,2.19586,-4.3751,84.3527
2023-03-11 15:13:45:945,-0.791607,-0.273971,-9.77522,2.18172,-4.38577,84.3521
2023-03-11 15:13:45:955,-0.783162,-0.271887,-9.8069,2.17312,-4.39519,84.3536
2023-03-11 15:13:45:965,-0.776256,-0.278436,-9.81407,2.16327,-4.402,84.3555
2023-03-11 15:13:45:975,-0.769624,-0.305807,-9.78763,2.15667,-4.40808,84.3593
2023-03-11 15:13:45:985,-0.785387,-0.315394,-9.75147,2.14951,-4.4124,84.363
2023-03-11 15:13:45:995,-0.810281,-0.288424,-9.74558,2.14318,-4.41813,84.3683
2023-03-11 15:13:46:5,-0.819242,-0.244831,-9.76859,2.13893,-4.42252,84.374
2023-03-11 15:13:46:15,-0.818,-0.24117,-9.79273,2.1348,-4.42767,84.3821
2023-03-11 15:13:46:24,-0.810928,-0.252642,-9.81498,2.13258,-4.43256,84.3866
2023-03-11 15:13:46:35,-0.787971,-0.260996,-9.83904,2.13574,-4.43535,84.3867
2023-03-11 15:13:46:44,-0.768416,-0.270583,-9.86671,2.14027,-4.43703,84.386
2023-03-11 15:13:46:54,-0.76294,-0.277035,-9.88247,2.14428,-4.44024,84.3853
2023-03-11 15:13:46:64,-0.76508,-0.288932,-9.85545,2.15437,-4.45004,84.3828
2023-03-11 15:13:46:74,-0.794139,-0.333712,-9.787,2.16797,-4.46108,84.3826
2023-03-11 15:13:46:84,-0.834894,-0.367733,-9.72618,2.18503,-4.47249,84.383
2023-03-11 15:13:46:94,-0.856408,-0.382689,-9.68968,2.19781,-4.48672,84.3863
2023-03-11 15:13:46:104,-0.873614,-0.365022,-9.67409,2.2088,-4.49568,84.3905
2023-03-11 15:13:46:114,-0.839179,-0.343944,-9.69785,2.21382,-4.50006,84.3934
2023-03-11 15:13:46:125,-0.811271,-0.310628,-9.73499,2.21849,-4.5007,84.3955
2023-03-11 15:13:46:135,-0.818551,-0.303142,-9.75605,2.22169,-4.50063,84.398
2023-03-11 15:13:46:145,-0.833635,-0.309156,-9.74504,2.22723,-4.49726,84.4018
2023-03-11 15:13:46:155,-0.851346,-0.331835,-9.71188,2.23605,-4.49284,84.4051
2023-03-11 15:13:46:165,-0.850505,-0.363734,-9.67959,2.2428,-4.48408,84.4092
2023-03-11 15:13:46:175,-0.816672,-0.385521,-9.66887,2.25262,-4.47503,84.4115
2023-03-11 15:13:46:185,-0.773132,-0.399274,-9.67721,2.257,-4.46473,84.4097
2023-03-11 15:13:46:195,-0.754744,-0.39365,-9.67628,2.25738,-4.45385,84.4096
2023-03-11 15:13:46:205,-0.762021,-0.410552,-9.6741,2.25188,-4.44208,84.4128
2023-03-11 15:13:46:215,-0.748218,-0.394115,-9.68512,2.24219,-4.4358,84.414
2023-03-11 15:13:46:225,-0.746234,-0.347439,-9.7141,2.22347,-4.42726,84.4146
2023-03-11 15:13:46:234,-0.775918,-0.304731,-9.76716,2.20121,-4.4242,84.4174
2023-03-11 15:13:46:245,-0.809618,-0.267977,-9.81245,2.18097,-4.41825,84.4188
2023-03-11 15:13:46:255,-0.842494,-0.262022,-9.83859,2.16793,-4.41537,84.4179
2023-03-11 15:13:46:265,-0.856234,-0.24984,-9.85879,2.15641,-4.40701,84.4171
2023-03-11 15:13:46:275,-0.808816,-0.275098,-9.84155,2.15629,-4.39895,84.4124
2023-03-11 15:13:46:284,-0.752758,-0.341123,-9.79896,2.16367,-4.38719,84.4026
2023-03-11 15:13:46:294,-0.725213,-0.385415,-9.75373,2.17279,-4.37673,84.3911
2023-03-11 15:13:46:304,-0.722402,-0.405418,-9.73832,2.17588,-4.36373,84.3811
2023-03-11 15:13:46:314,-0.734744,-0.391841,-9.75441,2.17878,-4.35358,84.3715
2023-03-11 15:13:46:324,-0.719,-0.377017,-9.77722,2.17794,-4.34262,84.3586
2023-03-11 15:13:46:334,-0.680777,-0.384005,-9.80168,2.18111,-4.32818,84.3465
2023-03-11 15:13:46:344,-0.626943,-0.383551,-9.7874,2.18545,-4.30988,84.3346
2023-03-11 15:13:46:354,-0.58675,-0.379666,-9.76421,2.18868,-4.2876,84.3293
2023-03-11 15:13:46:364,-0.581899,-0.38254,-9.76312,2.19365,-4.26975,84.3282
2023-03-11 15:13:46:374,-0.595191,-0.366264,-9.75218,2.19703,-4.25397,84.3308
2023-03-11 15:13:46:384,-0.613271,-0.349885,-9.75792,2.20088,-4.24367,84.3349
2023-03-11 15:13:46:394,-0.631404,-0.352193,-9.76494,2.20638,-4.23516,84.3397
2023-03-11 15:13:46:404,-0.634034,-0.362161,-9.73752,2.21071,-4.2297,84.3457
2023-03-11 15:13:46:414,-0.624138,-0.385615,-9.70228,2.2141,-4.22733,84.3517
2023-03-11 15:13:46:424,-0.63828,-0.410606,-9.67791,2.21509,-4.23193,84.3571
2023-03-11 15:13:46:434,-0.68027,-0.406985,-9.65322,2.20803,-4.23826,84.3677
2023-03-11 15:13:46:444,-0.747443,-0.388808,-9.66227,2.19486,-4.25182,84.377
2023-03-11 15:13:46:454,-0.799141,-0.333413,-9.71184,2.17055,-4.26871,84.3886
2023-03-11 15:13:46:464,-0.825057,-0.279509,-9.77879,2.14425,-4.28772,84.3951
2023-03-11 15:13:46:475,-0.837957,-0.234844,-9.83293,2.11754,-4.3038,84.3942
2023-03-11 15:13:46:484,-0.853564,-0.213401,-9.85825,2.09415,-4.32199,84.3923
2023-03-11 15:13:46:494,-0.846992,-0.208493,-9.84601,2.07501,-4.33671,84.3857
2023-03-11 15:13:46:504,-0.817812,-0.222685,-9.81695,2.05978,-4.3481,84.3752
2023-03-11 15:13:46:514,-0.759817,-0.25296,-9.76506,2.05196,-4.35206,84.3668
2023-03-11 15:13:46:524,-0.715839,-0.302141,-9.7104,2.04656,-4.35261,84.3569
2023-03-11 15:13:46:534,-0.703556,-0.325692,-9.66716,2.03875,-4.34792,84.3495
2023-03-11 15:13:46:544,-0.722034,-0.308417,-9.66088,2.02629,-4.34414,84.3488
2023-03-11 15:13:46:554,-0.752239,-0.280906,-9.69893,2.01208,-4.34421,84.3526
2023-03-11 15:13:46:565,-0.79334,-0.249252,-9.77081,1.9949,-4.3325,84.3545
2023-03-11 15:13:46:575,-0.837126,-0.241125,-9.85731,1.98041,-4.32247,84.3586
2023-03-11 15:13:46:585,-0.854703,-0.235551,-9.92329,1.97331,-4.307,84.3601
2023-03-11 15:13:46:595,-0.840392,-0.272259,-9.9231,1.97696,-4.29242,84.3532
2023-03-11 15:13:46:605,-0.796629,-0.354086,-9.87015,1.99165,-4.27588,84.3369
2023-03-11 15:13:46:615,-0.711718,-0.427927,-9.78245,2.01079,-4.26035,84.312
2023-03-11 15:13:46:625,-0.647235,-0.51338,-9.68198,2.03235,-4.24697,84.2799
2023-03-11 15:13:46:635,-0.62676,-0.575487,-9.59675,2.04818,-4.23889,84.2442
2023-03-11 15:13:46:645,-0.648811,-0.595094,-9.54991,2.05038,-4.2396,84.2097
2023-03-11 15:13:46:655,-0.678503,-0.602464,-9.55793,2.03649,-4.24682,84.1752
2023-03-11 15:13:46:665,-0.692949,-0.565201,-9.63125,2.00505,-4.25611,84.1449
2023-03-11 15:13:46:675,-0.734532,-0.44006,-9.72283,1.96241,-4.26519,84.115
2023-03-11 15:13:46:685,-0.783693,-0.34269,-9.80713,1.91719,-4.27754,84.083
2023-03-11 15:13:46:695,-0.75076,-0.325208,-9.80869,1.87324,-4.28418,84.0507
2023-03-11 15:13:46:705,-0.674735,-0.359815,-9.73741,1.8375,-4.29118,84.0157
2023-03-11 15:13:46:715,-0.627014,-0.380287,-9.61956,1.80343,-4.29511,83.9854
2023-03-11 15:13:46:725,-0.621383,-0.38442,-9.5016,1.76191,-4.29932,83.9593
2023-03-11 15:13:46:735,-0.636026,-0.398107,-9.41511,1.7091,-4.31188,83.9421
2023-03-11 15:13:46:745,-0.664331,-0.378312,-9.33165,1.64193,-4.3271,83.9304
2023-03-11 15:13:46:755,-0.720363,-0.301025,-9.31749,1.55403,-4.35029,83.9296
2023-03-11 15:13:46:765,-0.743344,-0.242006,-9.40779,1.4512,-4.36717,83.9349
2023-03-11 15:13:46:775,-0.742175,-0.22795,-9.46647,1.34267,-4.38319,83.9421
2023-03-11 15:13:46:785,-0.768562,-0.161883,-9.62964,1.223,-4.39346,83.9521
2023-03-11 15:13:46:795,-0.764993,0.0350977,-9.90847,1.09394,-4.40341,83.9644
2023-03-11 15:13:46:805,-0.742196,0.271699,-10.2179,0.969229,-4.41068,83.9748
2023-03-11 15:13:46:815,-0.693296,0.364446,-10.3249,0.867581,-4.41794,83.9859
2023-03-11 15:13:46:825,-0.612432,0.282065,-10.1703,0.802158,-4.41695,83.9955
2023-03-11 15:13:46:835,-0.554795,0.14445,-9.95146,0.760138,-4.41854,84.0075
2023-03-11 15:13:46:845,-0.567059,0.0710634,-9.77892,0.721692,-4.42553,84.0309
2023-03-11 15:13:46:855,-0.618589,0.0611943,-9.67348,0.678671,-4.4428,84.0667
2023-03-11 15:13:46:865,-0.647812,0.102053,-9.67541,0.625232,-4.46012,84.111
2023-03-11 15:13:46:875,-0.692392,0.169187,-9.73136,0.563741,-4.47968,84.1633
2023-03-11 15:13:46:885,-0.779508,0.223793,-9.80726,0.497748,-4.50391,84.2177
2023-03-11 15:13:46:895,-0.892822,0.222269,-9.87374,0.439132,-4.53008,84.2807
2023-03-11 15:13:46:905,-0.956622,0.17236,-9.87542,0.388771,-4.55519,84.336
2023-03-11 15:13:46:915,-0.968784,0.0814621,-9.77973,0.351827,-4.57619,84.3806
2023-03-11 15:13:46:925,-0.932209,-0.0385367,-9.6766,0.322232,-4.59177,84.4149
2023-03-11 15:13:46:935,-0.914946,-0.138291,-9.55618,0.296519,-4.59639,84.4372
2023-03-11 15:13:46:945,-0.854068,-0.20857,-9.45241,0.263364,-4.59589,84.4516
2023-03-11 15:13:46:955,-0.730001,-0.284698,-9.4341,0.216841,-4.5928,84.4599
2023-03-11 15:13:46:965,-0.603097,-0.304444,-9.51696,0.147786,-4.59195,84.4613
2023-03-11 15:13:46:975,-0.531614,-0.260094,-9.60208,0.0586918,-4.59691,84.4637
2023-03-11 15:13:46:985,-0.549518,-0.222982,-9.64323,-0.0437777,-4.61085,84.4728
2023-03-11 15:13:46:995,-0.674635,-0.205498,-9.62457,-0.154668,-4.63156,84.4863
2023-03-11 15:13:47:5,-0.820627,-0.210978,-9.59964,-0.273523,-4.65827,84.5067
2023-03-11 15:13:47:15,-0.896569,-0.210857,-9.56931,-0.396805,-4.68219,84.5236
2023-03-11 15:13:47:25,-0.890305,-0.155223,-9.62151,-0.530562,-4.70118,84.5313
2023-03-11 15:13:47:35,-0.827358,-0.0511138,-9.71197,-0.669267,-4.7131,84.5353
2023-03-11 15:13:47:45,-0.781317,0.048067,-9.75482,-0.816807,-4.71565,84.5306
2023-03-11 15:13:47:55,-0.747722,0.0907324,-9.76545,-0.961711,-4.71965,84.5275
2023-03-11 15:13:47:65,-0.699129,0.10572,-9.71701,-1.10506,-4.72131,84.5213
2023-03-11 15:13:47:75,-0.664448,0.110141,-9.62366,-1.25169,-4.72279,84.5149
2023-03-11 15:13:47:85,-0.654531,0.114893,-9.53963,-1.40382,-4.72443,84.5121
2023-03-11 15:13:47:95,-0.608003,0.154105,-9.47839,-1.56562,-4.7299,84.5131
2023-03-11 15:13:47:105,-0.534004,0.207484,-9.44291,-1.7402,-4.74203,84.5182
2023-03-11 15:13:47:115,-0.51414,0.273411,-9.44125,-1.93098,-4.76634,84.5286
2023-03-11 15:13:47:125,-0.584738,0.372003,-9.53167,-2.13879,-4.80607,84.5491
2023-03-11 15:13:47:135,-0.70021,0.483175,-9.64237,-2.36013,-4.85695,84.5769
2023-03-11 15:13:47:145,-0.780745,0.53505,-9.68926,-2.58042,-4.91836,84.6041
2023-03-11 15:13:47:155,-0.818994,0.493179,-9.63273,-2.79939,-4.98492,84.6254
2023-03-11 15:13:47:165,-0.828324,0.468015,-9.60007,-3.01714,-5.05042,84.6479
2023-03-11 15:13:47:175,-0.850759,0.474647,-9.56011,-3.23842,-5.11088,84.6695
2023-03-11 15:13:47:185,-0.857017,0.437583,-9.50166,-3.46386,-5.16682,84.687
2023-03-11 15:13:47:195,-0.84724,0.457472,-9.50106,-3.69444,-5.22298,84.7059
2023-03-11 15:13:47:205,-0.870364,0.598155,-9.75992,-3.94266,-5.27225,84.7308
2023-03-11 15:13:47:215,-0.930458,0.880217,-10.1473,-4.19851,-5.32495,84.7577
2023-03-11 15:13:47:225,-1.04826,1.18225,-10.4352,-4.44365,-5.3875,84.7866
2023-03-11 15:13:47:235,-1.14344,1.33389,-10.5189,-4.65013,-5.45039,84.8115
2023-03-11 15:13:47:244,-1.14875,1.30175,-10.3932,-4.8041,-5.50254,84.8312
2023-03-11 15:13:47:254,-1.10623,1.14714,-10.1324,-4.91269,-5.53877,84.8422
2023-03-11 15:13:47:265,-1.08891,1.00596,-9.84329,-4.99256,-5.56976,84.8487
2023-03-11 15:13:47:275,-1.07421,0.88462,-9.66405,-5.06605,-5.58925,84.856
2023-03-11 15:13:47:285,-1.05295,0.880311,-9.63097,-5.14742,-5.60337,84.8634
2023-03-11 15:13:47:294,-1.0471,0.963578,-9.74888,-5.23916,-5.61425,84.8712
2023-03-11 15:13:47:305,-1.08603,1.03094,-9.88937,-5.33126,-5.62848,84.8801
2023-03-11 15:13:47:315,-1.15121,1.11924,-9.99577,-5.41767,-5.64242,84.8905
2023-03-11 15:13:47:325,-1.21413,1.19508,-10.0326,-5.49327,-5.65668,84.8992
2023-03-11 15:13:47:335,-1.24103,1.18547,-9.95775,-5.55106,-5.66578,84.8973
2023-03-11 15:13:47:345,-1.21813,1.1313,-9.8325,-5.59216,-5.67199,84.889
2023-03-11 15:13:47:355,-1.16072,1.08812,-9.74872,-5.62587,-5.67674,84.8729
2023-03-11 15:13:47:365,-1.11397,1.07285,-9.71538,-5.65446,-5.67523,84.8498
2023-03-11 15:13:47:375,-1.0655,1.07398,-9.67523,-5.68049,-5.67657,84.8277
2023-03-11 15:13:47:385,-1.02394,1.04955,-9.64372,-5.70993,-5.67627,84.8044
2023-03-11 15:13:47:395,-1.00854,1.03378,-9.63009,-5.73775,-5.67376,84.7821
2023-03-11 15:13:47:405,-1.05353,1.04823,-9.67717,-5.77113,-5.67608,84.7589
2023-03-11 15:13:47:415,-1.13503,1.13114,-9.77518,-5.80659,-5.68297,84.7412
2023-03-11 15:13:47:425,-1.20395,1.18561,-9.84826,-5.8384,-5.69399,84.7217
2023-03-11 15:13:47:435,-1.20115,1.18882,-9.85902,-5.85976,-5.69851,84.7013
2023-03-11 15:13:47:445,-1.18198,1.15226,-9.80897,-5.86507,-5.6947,84.6695
2023-03-11 15:13:47:455,-1.11204,1.11532,-9.81039,-5.8647,-5.68268,84.6357
2023-03-11 15:13:47:465,-1.07362,1.18142,-9.88993,-5.86044,-5.67382,84.5964
2023-03-11 15:13:47:475,-1.05856,1.23918,-9.94832,-5.8511,-5.663,84.5526
2023-03-11 15:13:47:485,-1.06476,1.27215,-9.99647,-5.82687,-5.65651,84.51
2023-03-11 15:13:47:495,-1.07229,1.27876,-10.0544,-5.78455,-5.64606,84.4598
2023-03-11 15:13:47:505,-1.08293,1.28427,-10.1287,-5.72846,-5.63559,84.4037
2023-03-11 15:13:47:515,-1.13929,1.3315,-10.2066,-5.65709,-5.62582,84.345
2023-03-11 15:13:47:525,-1.16756,1.37516,-10.241,-5.56021,-5.6195,84.2801
2023-03-11 15:13:47:535,-1.15107,1.31082,-10.1641,-5.43232,-5.61244,84.2049
2023-03-11 15:13:47:545,-1.1319,1.19783,-10.0144,-5.27961,-5.5996,84.1226
2023-03-11 15:13:47:555,-1.12225,1.121,-9.89415,-5.11469,-5.58501,84.034
2023-03-11 15:13:47:565,-1.09479,1.06637,-9.84815,-4.94106,-5.56646,83.9413
2023-03-11 15:13:47:575,-1.06263,0.994292,-9.75747,-4.76014,-5.54607,83.8441
2023-03-11 15:13:47:585,-1.05675,0.947526,-9.74066,-4.5777,-5.52836,83.7396
2023-03-11 15:13:47:595,-1.04445,1.02552,-9.91834,-4.39901,-5.51286,83.6357
2023-03-11 15:13:47:605,-1.09838,1.17332,-10.1269,-4.21748,-5.50023,83.5332
2023-03-11 15:13:47:615,-1.12843,1.20995,-10.158,-4.01454,-5.49335,83.4219
2023-03-11 15:13:47:625,-1.11205,1.10498,-9.96494,-3.77715,-5.48384,83.2957
2023-03-11 15:13:47:635,-1.03869,0.884593,-9.6903,-3.51516,-5.46512,83.1552
2023-03-11 15:13:47:645,-0.942938,0.661623,-9.50044,-3.24185,-5.44096,83.01
2023-03-11 15:13:47:655,-0.875578,0.496927,-9.40536,-2.97586,-5.41386,82.8644
2023-03-11 15:13:47:665,-0.813025,0.393535,-9.35323,-2.72958,-5.38333,82.719
2023-03-11 15:13:47:675,-0.751559,0.301295,-9.36282,-2.49523,-5.35314,82.5804
2023-03-11 15:13:47:685,-0.721829,0.286934,-9.51076,-2.2854,-5.32271,82.4472
2023-03-11 15:13:47:695,-0.754507,0.389752,-9.68964,-2.10042,-5.29777,82.3236
2023-03-11 15:13:47:705,-0.776637,0.434302,-9.76357,-1.91922,-5.27502,82.21
2023-03-11 15:13:47:715,-0.778224,0.358208,-9.69249,-1.73127,-5.24506,82.1023
2023-03-11 15:13:47:725,-0.756517,0.243074,-9.56147,-1.5397,-5.21006,82.0001
2023-03-11 15:13:47:735,-0.73299,0.128295,-9.44541,-1.35865,-5.16556,81.9053
2023-03-11 15:13:47:745,-0.705073,0.0268471,-9.39926,-1.18807,-5.11672,81.8183
2023-03-11 15:13:47:755,-0.650181,-0.00786157,-9.4223,-1.0323,-5.06998,81.7368
2023-03-11 15:13:47:765,-0.594985,-0.00396466,-9.47119,-0.897301,-5.02079,81.6648
2023-03-11 15:13:47:775,-0.566001,-0.0366839,-9.49485,-0.781184,-4.97675,81.601
2023-03-11 15:13:47:785,-0.578318,-0.0651084,-9.52023,-0.674084,-4.93589,81.5499
2023-03-11 15:13:47:795,-0.611536,-0.0437691,-9.55789,-0.578461,-4.89902,81.5104
2023-03-11 15:13:47:804,-0.644532,-0.0227566,-9.58622,-0.493958,-4.86835,81.4787
2023-03-11 15:13:47:814,-0.661466,-0.0102476,-9.63683,-0.419562,-4.84216,81.4582
2023-03-11 15:13:47:825,-0.680622,0.0066572,-9.67835,-0.350443,-4.81799,81.4375
2023-03-11 15:13:47:835,-0.675965,-0.00872733,-9.68229,-0.286593,-4.79871,81.4231
2023-03-11 15:13:47:845,-0.672493,-0.0230585,-9.65935,-0.224637,-4.78247,81.4083
2023-03-11 15:13:47:855,-0.66556,-0.0673072,-9.61773,-0.166759,-4.76723,81.397
2023-03-11 15:13:47:865,-0.667466,-0.108409,-9.58358,-0.110052,-4.75782,81.3913
2023-03-11 15:13:47:875,-0.687028,-0.12296,-9.58768,-0.065236,-4.75079,81.3858
2023-03-11 15:13:47:885,-0.721235,-0.0859944,-9.63644,-0.0274639,-4.74803,81.3865
2023-03-11 15:13:47:895,-0.774727,-0.0307999,-9.71108,-0.00237797,-4.74967,81.386
2023-03-11 15:13:47:905,-0.794566,-0.00531086,-9.76261,0.0208247,-4.75686,81.3881
2023-03-11 15:13:47:915,-0.794794,-0.00902406,-9.77622,0.0432636,-4.76402,81.3873
2023-03-11 15:13:47:925,-0.779951,-0.0212201,-9.74693,0.0675179,-4.76967,81.3875
2023-03-11 15:13:47:935,-0.733003,-0.0660585,-9.71157,0.0960548,-4.77636,81.3922
2023-03-11 15:13:47:945,-0.718261,-0.109018,-9.69008,0.122583,-4.78228,81.397
2023-03-11 15:13:47:955,-0.729101,-0.101912,-9.69326,0.144613,-4.79021,81.4063
2023-03-11 15:13:47:965,-0.773111,-0.0731535,-9.70406,0.16032,-4.80304,81.4242
2023-03-11 15:13:47:975,-0.817029,-0.0537414,-9.72066,0.176199,-4.81419,81.4427
2023-03-11 15:13:47:985,-0.835066,-0.0425661,-9.7366,0.188511,-4.82023,81.4662
2023-03-11 15:13:47:995,-0.847985,-0.0239277,-9.78208,0.198762,-4.82949,81.4944
2023-03-11 15:13:48:5,-0.859587,-0.000162949,-9.80806,0.21048,-4.83577,81.5161
2023-03-11 15:13:48:15,-0.86158,0.00647103,-9.80052,0.228567,-4.84052,81.5382
2023-03-11 15:13:48:25,-0.867736,-0.0198643,-9.77427,0.252242,-4.84543,81.5581
2023-03-11 15:13:48:35,-0.856571,-0.0508449,-9.75865,0.276119,-4.8509,81.5758
2023-03-11 15:13:48:45,-0.847432,-0.0666622,-9.73139,0.30237,-4.85376,81.5878
2023-03-11 15:13:48:55,-0.836448,-0.0874186,-9.70998,0.327639,-4.85845,81.6014
2023-03-11 15:13:48:65,-0.826559,-0.0895207,-9.72298,0.350504,-4.86327,81.6144
2023-03-11 15:13:48:75,-0.834597,-0.0696872,-9.7497,0.364514,-4.86852,81.6207
2023-03-11 15:13:48:85,-0.822109,-0.0653304,-9.79862,0.379614,-4.87533,81.6264
2023-03-11 15:13:48:95,-0.819234,-0.0701815,-9.78345,0.403659,-4.88193,81.6311
2023-03-11 15:13:48:105,-0.807178,-0.111469,-9.75285,0.427471,-4.89014,81.6347
2023-03-11 15:13:48:115,-0.786314,-0.138835,-9.69556,0.451233,-4.89556,81.6412
2023-03-11 15:13:48:125,-0.772899,-0.166014,-9.66545,0.472763,-4.90462,81.6451
2023-03-11 15:13:48:135,-0.786091,-0.159975,-9.66128,0.488987,-4.91595,81.652
2023-03-11 15:13:48:145,-0.786525,-0.144103,-9.64132,0.498974,-4.92414,81.6624
2023-03-11 15:13:48:154,-0.773872,-0.151964,-9.62169,0.501793,-4.93312,81.6744
2023-03-11 15:13:48:164,-0.786635,-0.155352,-9.65441,0.498279,-4.94133,81.6873
2023-03-11 15:13:48:174,-0.799358,-0.110512,-9.72795,0.493197,-4.9505,81.704
2023-03-11 15:13:48:185,-0.833007,-0.0556571,-9.79601,0.490057,-4.96326,81.7226
2023-03-11 15:13:48:194,-0.864865,-0.017296,-9.83036,0.484245,-4.97522,81.7469
2023-03-11 15:13:48:205,-0.870143,-0.0150878,-9.83486,0.48802,-4.98537,81.7702
2023-03-11 15:13:48:215,-0.864963,-0.0300532,-9.82112,0.499799,-4.99392,81.7915
2023-03-11 15:13:48:225,-0.865524,-0.063594,-9.78362,0.51391,-5.00285,81.8119
2023-03-11 15:13:48:235,-0.854171,-0.108323,-9.74244,0.529067,-5.01432,81.8304
2023-03-11 15:13:48:245,-0.832582,-0.118529,-9.73621,0.539646,-5.02291,81.8453
2023-03-11 15:13:48:255,-0.800913,-0.121975,-9.73774,0.54513,-5.03709,81.8614
2023-03-11 15:13:48:265,-0.790607,-0.136075,-9.72714,0.551166,-5.05734,81.8744
2023-03-11 15:13:48:275,-0.811257,-0.15066,-9.72531,0.554554,-5.07857,81.8948
2023-03-11 15:13:48:285,-0.857953,-0.131855,-9.7164,0.551636,-5.10711,81.9164
2023-03-11 15:13:48:295,-0.908307,-0.105016,-9.72656,0.547948,-5.13548,81.9423
2023-03-11 15:13:48:305,-0.951094,-0.0772997,-9.7579,0.543086,-5.16809,81.9693
2023-03-11 15:13:48:315,-0.971369,-0.0327911,-9.75491,0.53489,-5.19457,81.9987
2023-03-11 15:13:48:325,-0.993291,-0.0226037,-9.76293,0.527515,-5.21795,82.0271
2023-03-11 15:13:48:335,-1.00499,-0.0300601,-9.73153,0.522134,-5.23844,82.0525
2023-03-11 15:13:48:345,-1.00414,-0.053864,-9.68938,0.521544,-5.25391,82.077
2023-03-11 15:13:48:355,-0.997185,-0.0826134,-9.67535,0.522013,-5.26523,82.0958
2023-03-11 15:13:48:365,-1.00338,-0.0797227,-9.69477,0.520184,-5.27611,82.1122
2023-03-11 15:13:48:375,-1.01679,-0.0459333,-9.73091,0.518691,-5.29328,82.1232
2023-03-11 15:13:48:385,-1.05079,-0.0116578,-9.7856,0.515898,-5.30637,82.13
2023-03-11 15:13:48:395,-1.07671,0.0350802,-9.81526,0.515687,-5.32094,82.1286
2023-03-11 15:13:48:405,-1.09336,0.0550738,-9.84083,0.522515,-5.33779,82.116
2023-03-11 15:13:48:415,-1.08239,0.0726092,-9.84452,0.531028,-5.35315,82.0959
2023-03-11 15:13:48:425,-1.02061,0.0357111,-9.8195,0.543824,-5.37061,82.0649
2023-03-11 15:13:48:435,-0.923016,-0.00468273,-9.77179,0.556893,-5.38572,82.0248
2023-03-11 15:13:48:445,-0.857103,-0.0386257,-9.71785,0.572565,-5.4043,81.9799
2023-03-11 15:13:48:455,-0.858222,-0.0478154,-9.70343,0.583836,-5.42331,81.9375
2023-03-11 15:13:48:465,-0.847107,-0.0636854,-9.71401,0.593519,-5.44594,81.8972
2023-03-11 15:13:48:475,-0.8349,-0.0342726,-9.73629,0.597221,-5.46677,81.8639
2023-03-11 15:13:48:485,-0.811744,-0.00838501,-9.78007,0.598483,-5.48456,81.8355
2023-03-11 15:13:48:495,-0.752286,-0.0403586,-9.782,0.605889,-5.50076,81.8109
2023-03-11 15:13:48:505,-0.748673,-0.0741547,-9.74615,0.609091,-5.51468,81.7986
2023-03-11 15:13:48:515,-0.776488,-0.0632642,-9.74615,0.612586,-5.52809,81.8004
2023-03-11 15:13:48:525,-0.793277,-0.0695482,-9.74928,0.616349,-5.5404,81.8129
2023-03-11 15:13:48:535,-0.814747,-0.0836629,-9.72789,0.620682,-5.55007,81.832
2023-03-11 15:13:48:545,-0.835058,-0.0926587,-9.70855,0.62709,-5.55695,81.8623
2023-03-11 15:13:48:555,-0.861543,-0.105676,-9.6902,0.629817,-5.56429,81.8964
2023-03-11 15:13:48:565,-0.89854,-0.101653,-9.68593,0.630902,-5.57124,81.9373
2023-03-11 15:13:48:575,-0.925989,-0.0978365,-9.70896,0.633306,-5.58159,81.9797
2023-03-11 15:13:48:585,-0.947719,-0.0870571,-9.72364,0.634255,-5.5936,82.0218
2023-03-11 15:13:48:595,-0.954773,-0.0973915,-9.76385,0.636758,-5.60568,82.0598
2023-03-11 15:13:48:605,-0.976528,-0.119535,-9.75466,0.639891,-5.62127,82.099
2023-03-11 15:13:48:615,-0.977534,-0.108859,-9.78392,0.642213,-5.64516,82.1327
2023-03-11 15:13:48:625,-0.994494,-0.105877,-9.7909,0.647606,-5.66664,82.161
2023-03-11 15:13:48:635,-1.01848,-0.113387,-9.74517,0.655167,-5.69194,82.1889
2023-03-11 15:13:48:645,-1.01556,-0.120128,-9.70467,0.666608,-5.71884,82.2135
2023-03-11 15:13:48:655,-1.01876,-0.133493,-9.68095,0.674419,-5.74574,82.2363
2023-03-11 15:13:48:665,-1.02425,-0.125769,-9.67687,0.678433,-5.77338,82.2588
2023-03-11 15:13:48:675,-1.02752,-0.125744,-9.68374,0.681075,-5.80111,82.2804
2023-03-11 15:13:48:685,-1.03918,-0.12278,-9.71463,0.681815,-5.82909,82.3015
2023-03-11 15:13:48:695,-1.04573,-0.093387,-9.74863,0.679606,-5.85058,82.3227
2023-03-11 15:13:48:705,-1.06154,-0.0731067,-9.74817,0.676604,-5.8747,82.3415
2023-03-11 15:13:48:715,-1.06767,-0.0609518,-9.75174,0.674341,-5.88673,82.3622
2023-03-11 15:13:48:725,-1.03936,-0.0726299,-9.75035,0.67308,-5.89896,82.3816
2023-03-11 15:13:48:735,-1.02153,-0.0730463,-9.74266,0.672274,-5.91039,82.4041
2023-03-11 15:13:48:745,-1.01881,-0.067095,-9.74045,0.672325,-5.92415,82.4292
2023-03-11 15:13:48:755,-1.00674,-0.0435976,-9.74045,0.667044,-5.93475,82.4565
2023-03-11 15:13:48:765,-1.02324,-0.0357164,-9.73601,0.661475,-5.94211,82.4883
2023-03-11 15:13:48:775,-1.04315,-0.0463506,-9.74143,0.653817,-5.95243,82.5243
2023-03-11 15:13:48:785,-1.07117,-0.0351626,-9.73454,0.647473,-5.96141,82.5636
2023-03-11 15:13:48:795,-1.11278,-0.0114957,-9.71929,0.640502,-5.969,82.6058
2023-03-11 15:13:48:805,-1.15764,-0.00448504,-9.74313,0.630915,-5.97355,82.6461
2023-03-11 15:13:48:815,-1.1785,0.0050661,-9.7824,0.627109,-5.97692,82.6825
2023-03-11 15:13:48:825,-1.19745,0.0212772,-9.8201,0.623854,-5.98058,82.7103
2023-03-11 15:13:48:835,-1.17968,0.0283761,-9.83614,0.62413,-5.98063,82.7329
2023-03-11 15:13:48:845,-1.16634,0.0264295,-9.84017,0.629205,-5.98927,82.7504
2023-03-11 15:13:48:855,-1.16255,-0.00138293,-9.82871,0.641207,-5.99922,82.7621
2023-03-11 15:13:48:865,-1.15558,-0.0262391,-9.80934,0.657868,-6.00826,82.7713
2023-03-11 15:13:48:875,-1.14727,-0.0435676,-9.81096,0.674429,-6.01905,82.7749
2023-03-11 15:13:48:885,-1.12371,-0.0435665,-9.82249,0.693848,-6.02884,82.7777
2023-03-11 15:13:48:895,-1.10012,-0.0374637,-9.80191,0.721604,-6.03851,82.7788
2023-03-11 15:13:48:905,-1.10677,-0.0537331,-9.79089,0.748169,-6.04703,82.781
2023-03-11 15:13:48:915,-1.15668,-0.0658854,-9.74194,0.781899,-6.05334,82.7832
2023-03-11 15:13:48:925,-1.20505,-0.070911,-9.68452,0.81771,-6.0593,82.7836
2023-03-11 15:13:48:935,-1.23321,-0.11119,-9.63541,0.854017,-6.05841,82.7801
2023-03-11 15:13:48:945,-1.19909,-0.146472,-9.60694,0.887544,-6.05333,82.7687
2023-03-11 15:13:48:955,-1.10576,-0.155743,-9.5987,0.916091,-6.03971,82.752
2023-03-11 15:13:48:965,-1.01756,-0.172198,-9.60619,0.940769,-6.02627,82.7286
2023-03-11 15:13:48:975,-0.958971,-0.185052,-9.63343,0.959783,-6.01914,82.7016
2023-03-11 15:13:48:985,-0.977089,-0.165409,-9.66345,0.970706,-6.014,82.6781
2023-03-11 15:13:48:995,-1.02135,-0.157973,-9.70466,0.98163,-6.00829,82.654
2023-03-11 15:13:49:5,-1.00831,-0.152755,-9.78736,0.989518,-6.00115,82.6278
2023-03-11 15:13:49:15,-0.934427,-0.126388,-9.83395,1.00079,-5.99361,82.6018
2023-03-11 15:13:49:25,-0.866832,-0.156814,-9.83305,1.01811,-5.98259,82.5722
2023-03-11 15:13:49:35,-0.833948,-0.213021,-9.79464,1.03942,-5.97812,82.5435
2023-03-11 15:13:49:45,-0.817831,-0.242806,-9.73898,1.0606,-5.97871,82.5147
2023-03-11 15:13:49:55,-0.803775,-0.263853,-9.69341,1.07375,-5.98126,82.4929
2023-03-11 15:13:49:65,-0.83639,-0.257284,-9.68207,1.0788,-5.99213,82.4818
2023-03-11 15:13:49:74,-0.884797,-0.2189,-9.6816,1.07571,-6.00571,82.4815
2023-03-11 15:13:49:84,-0.942605,-0.207372,-9.68016,1.06653,-6.02051,82.4911
2023-03-11 15:13:49:94,-0.992402,-0.17909,-9.69017,1.05642,-6.02517,82.505
2023-03-11 15:13:49:104,-1.0405,-0.14872,-9.7097,1.04732,-6.02677,82.5207
2023-03-11 15:13:49:114,-1.08402,-0.13456,-9.74219,1.03721,-6.02546,82.5403
2023-03-11 15:13:49:124,-1.1192,-0.125583,-9.75104,1.02914,-6.02209,82.5614
2023-03-11 15:13:49:134,-1.12078,-0.128043,-9.73737,1.02826,-6.01363,82.5758
2023-03-11 15:13:49:144,-1.10184,-0.162264,-9.70574,1.0322,-6.00057,82.5808
2023-03-11 15:13:49:154,-1.10463,-0.184814,-9.67744,1.03941,-5.98485,82.5825
2023-03-11 15:13:49:164,-1.11744,-0.187666,-9.65133,1.04824,-5.9672,82.5744
2023-03-11 15:13:49:174,-1.11316,-0.194505,-9.67576,1.05192,-5.94209,82.5563
2023-03-11 15:13:49:184,-1.08193,-0.170701,-9.74024,1.05359,-5.91845,82.5287
2023-03-11 15:13:49:194,-1.00322,-0.14163,-9.79591,1.05508,-5.8839,82.4882
2023-03-11 15:13:49:204,-0.899504,-0.134443,-9.81588,1.05875,-5.85413,82.4295
2023-03-11 15:13:49:214,-0.811127,-0.14864,-9.8526,1.06499,-5.82931,82.3624
2023-03-11 15:13:49:224,-0.729429,-0.154995,-9.88085,1.07166,-5.81599,82.2868
2023-03-11 15:13:49:234,-0.67964,-0.158034,-9.87219,1.08031,-5.81564,82.2079
2023-03-11 15:13:49:244,-0.6108,-0.156065,-9.84995,1.09346,-5.82636,82.1273
2023-03-11 15:13:49:254,-0.540374,-0.203058,-9.78293,1.10991,-5.84859,82.0514
2023-03-11 15:13:49:264,-0.503741,-0.256128,-9.7023,1.12124,-5.88546,81.985
2023-03-11 15:13:49:274,-0.522652,-0.264601,-9.6562,1.12559,-5.93705,81.9356
2023-03-11 15:13:49:284,-0.598292,-0.252078,-9.62951,1.12243,-5.99735,81.9089
2023-03-11 15:13:49:294,-0.731714,-0.203807,-9.63104,1.10931,-6.06105,81.9071
2023-03-11 15:13:49:304,-0.873798,-0.134235,-9.65588,1.08869,-6.12415,81.9319
2023-03-11 15:13:49:314,-1.01584,-0.068565,-9.66722,1.06116,-6.18107,81.9774
2023-03-11 15:13:49:324,-1.14677,-0.0361047,-9.66083,1.03624,-6.22879,82.0402
2023-03-11 15:13:49:334,-1.23082,-0.0111294,-9.63979,1.01586,-6.26096,82.1099
2023-03-11 15:13:49:344,-1.25617,-0.0122065,-9.64276,0.997299,-6.27507,82.1855
2023-03-11 15:13:49:354,-1.23304,-0.0240211,-9.6793,0.980944,-6.27499,82.2547
2023-03-11 15:13:49:364,-1.17766,-0.0347091,-9.7372,0.964766,-6.26805,82.3184
2023-03-11 15:13:49:374,-1.12574,-0.0367473,-9.77588,0.954297,-6.26283,82.3757
2023-03-11 15:13:49:384,-1.13085,-0.0342378,-9.81365,0.943388,-6.26223,82.422
2023-03-11 15:13:49:394,-1.17275,-0.0439485,-9.85382,0.93985,-6.26716,82.4641
2023-03-11 15:13:49:404,-1.18849,-0.0725619,-9.85246,0.942227,-6.27974,82.4948
2023-03-11 15:13:49:414,-1.19299,-0.107899,-9.82887,0.952122,-6.29781,82.5141
2023-03-11 15:13:49:424,-1.19885,-0.134579,-9.80595,0.959675,-6.32173,82.5274
2023-03-11 15:13:49:434,-1.18894,-0.163336,-9.77239,0.971827,-6.35631,82.5284
2023-03-11 15:13:49:444,-1.1842,-0.194051,-9.72213,0.982778,-6.39231,82.5241
2023-03-11 15:13:49:454,-1.18098,-0.214189,-9.65138,0.997429,-6.42906,82.5132
2023-03-11 15:13:49:464,-1.19039,-0.239655,-9.59589,1.00716,-6.46494,82.5001
2023-03-11 15:13:49:474,-1.19415,-0.241973,-9.57408,1.00943,-6.50034,82.4923
2023-03-11 15:13:49:484,-1.21695,-0.215242,-9.57853,1.00614,-6.52921,82.4865
2023-03-11 15:13:49:494,-1.24027,-0.174764,-9.61963,0.994975,-6.55134,82.4815
2023-03-11 15:13:49:504,-1.22708,-0.154696,-9.65858,0.985251,-6.56426,82.475
2023-03-11 15:13:49:514,-1.1918,-0.162451,-9.6684,0.974811,-6.56991,82.4718
2023-03-11 15:13:49:524,-1.15285,-0.162254,-9.67611,0.967389,-6.57034,82.467
2023-03-11 15:13:49:534,-1.12524,-0.161494,-9.69354,0.96008,-6.56616,82.4617
2023-03-11 15:13:49:544,-1.11061,-0.155046,-9.70005,0.948439,-6.55966,82.4565
2023-03-11 15:13:49:554,-1.09434,-0.157039,-9.70971,0.936729,-6.55279,82.4503
2023-03-11 15:13:49:564,-1.07579,-0.148106,-9.72731,0.923006,-6.54964,82.4432
2023-03-11 15:13:49:574,-1.06962,-0.101923,-9.75763,0.904752,-6.54703,82.4388
2023-03-11 15:13:49:584,-1.07756,-0.0744915,-9.79745,0.890134,-6.54592,82.4344
2023-03-11 15:13:49:594,-1.08804,-0.0450907,-9.81997,0.871711,-6.54998,82.4289
2023-03-11 15:13:49:604,-1.11314,-0.0352773,-9.83485,0.859795,-6.5559,82.429
2023-03-11 15:13:49:614,-1.14168,-0.0189028,-9.8206,0.849972,-6.56727,82.4305
2023-03-11 15:13:49:625,-1.14966,-0.0332667,-9.80121,0.844657,-6.57345,82.4338
2023-03-11 15:13:49:634,-1.13875,-0.0531406,-9.79018,0.841698,-6.58103,82.4374
2023-03-11 15:13:49:644,-1.13563,-0.0585543,-9.7858,0.840163,-6.58248,82.4392
2023-03-11 15:13:49:655,-1.14457,-0.0659933,-9.78324,0.843567,-6.58748,82.443
2023-03-11 15:13:49:665,-1.15044,-0.0683232,-9.77319,0.851725,-6.59002,82.4473
2023-03-11 15:13:49:675,-1.17375,-0.0919434,-9.73687,0.861623,-6.59095,82.4535
2023-03-11 15:13:49:685,-1.17364,-0.123436,-9.6933,0.872056,-6.59303,82.4599
2023-03-11 15:13:49:695,-1.18489,-0.149477,-9.65977,0.886328,-6.59548,82.4676
2023-03-11 15:13:49:705,-1.17994,-0.162907,-9.65514,0.894121,-6.59405,82.4778
2023-03-11 15:13:49:715,-1.17343,-0.162338,-9.6548,0.900971,-6.59007,82.4853
2023-03-11 15:13:49:725,-1.16077,-0.180535,-9.65484,0.905675,-6.58716,82.4924
2023-03-11 15:13:49:735,-1.17295,-0.174923,-9.64394,0.907351,-6.58186,82.4996
2023-03-11 15:13:49:745,-1.17002,-0.139709,-9.63117,0.908419,-6.57569,82.5028
2023-03-11 15:13:49:755,-1.15866,-0.120391,-9.62197,0.906901,-6.57112,82.506
2023-03-11 15:13:49:765,-1.17593,-0.127081,-9.6362,0.903423,-6.5663,82.5099
2023-03-11 15:13:49:775,-1.18738,-0.138933,-9.70582,0.894916,-6.56053,82.514
2023-03-11 15:13:49:785,-1.18756,-0.116301,-9.77564,0.885189,-6.55272,82.512
2023-03-11 15:13:49:795,-1.15855,-0.0932681,-9.81534,0.874741,-6.54467,82.51
2023-03-11 15:13:49:804,-1.12476,-0.112202,-9.80861,0.868842,-6.54064,82.5052
2023-03-11 15:13:49:815,-1.10792,-0.149895,-9.77022,0.861749,-6.53568,82.4981
2023-03-11 15:13:49:825,-1.11654,-0.145769,-9.71318,0.859258,-6.5326,82.4916
2023-03-11 15:13:49:835,-1.12358,-0.139275,-9.7021,0.848796,-6.5307,82.4845
2023-03-11 15:13:49:845,-1.14757,-0.0952818,-9.72423,0.833659,-6.52867,82.4795
2023-03-11 15:13:49:855,-1.13249,-0.0582174,-9.75281,0.817838,-6.5278,82.4745
2023-03-11 15:13:49:865,-1.1019,-0.0262389,-9.76571,0.803382,-6.52764,82.4682
2023-03-11 15:13:49:875,-1.08071,-0.020974,-9.74462,0.787514,-6.52487,82.4639
2023-03-11 15:13:49:885,-1.09328,-0.0317298,-9.73522,0.781199,-6.52406,82.4634
2023-03-11 15:13:49:895,-1.10956,-0.0335364,-9.7189,0.777937,-6.52177,82.4626
2023-03-11 15:13:49:905,-1.123,-0.0376566,-9.70121,0.777557,-6.5211,82.4636
2023-03-11 15:13:49:915,-1.12632,-0.0628484,-9.70396,0.780809,-6.51912,82.4686
2023-03-11 15:13:49:925,-1.11201,-0.0713956,-9.68994,0.784877,-6.5133,82.4672
2023-03-11 15:13:49:935,-1.10636,-0.0909851,-9.69405,0.790881,-6.50648,82.4669
2023-03-11 15:13:49:945,-1.11328,-0.100919,-9.71348,0.795184,-6.49892,82.4673
2023-03-11 15:13:49:954,-1.11915,-0.0964895,-9.73138,0.800962,-6.48757,82.4669
2023-03-11 15:13:49:965,-1.11254,-0.103017,-9.7461,0.802448,-6.47938,82.465
2023-03-11 15:13:49:975,-1.08652,-0.0995049,-9.75987,0.803346,-6.47105,82.4608
2023-03-11 15:13:49:985,-1.05768,-0.105482,-9.74659,0.803465,-6.46531,82.4573
2023-03-11 15:13:49:995,-1.07156,-0.113194,-9.73779,0.806534,-6.46048,82.4543
2023-03-11 15:13:50:5,-1.11165,-0.102199,-9.74425,0.809002,-6.46274,82.4529
2023-03-11 15:13:50:15,-1.13369,-0.0858426,-9.75327,0.811769,-6.46252,82.4497
2023-03-11 15:13:50:25,-1.09471,-0.0785909,-9.7611,0.815365,-6.45789,82.445
2023-03-11 15:13:50:35,-1.03143,-0.100285,-9.75029,0.820826,-6.45215,82.444
2023-03-11 15:13:50:45,-1.00697,-0.105177,-9.74168,0.83088,-6.45003,82.4428
2023-03-11 15:13:50:55,-1.04004,-0.0845691,-9.75978,0.834946,-6.44973,82.4451
2023-03-11 15:13:50:64,-1.08549,-0.047335,-9.7939,0.837542,-6.44703,82.4569
2023-03-11 15:13:50:74,-1.10107,-0.0397594,-9.83987,0.846136,-6.44603,82.4657
2023-03-11 15:13:50:84,-1.08351,-0.0366576,-9.84372,0.859578,-6.44288,82.474
2023-03-11 15:13:50:94,-1.06376,-0.0521723,-9.81926,0.880278,-6.4336,82.4857
2023-03-11 15:13:50:104,-1.04633,-0.0594219,-9.78345,0.904033,-6.4263,82.5005
2023-03-11 15:13:50:115,-1.0439,-0.0812679,-9.76819,0.932316,-6.41581,82.5174
2023-03-11 15:13:50:125,-1.03751,-0.0956529,-9.75236,0.960315,-6.40437,82.5344
2023-03-11 15:13:50:135,-1.04018,-0.103897,-9.75034,0.99159,-6.39354,82.5507
2023-03-11 15:13:50:145,-1.03334,-0.101879,-9.75894,1.02102,-6.38894,82.5726
2023-03-11 15:13:50:155,-1.06119,-0.100544,-9.7615,1.04976,-6.38475,82.5972
2023-03-11 15:13:50:165,-1.0895,-0.0866984,-9.78319,1.08335,-6.37347,82.6236
2023-03-11 15:13:50:175,-1.06224,-0.118945,-9.75612,1.11942,-6.36561,82.6485
2023-03-11 15:13:50:185,-1.04958,-0.163893,-9.71229,1.15938,-6.35938,82.6668
2023-03-11 15:13:50:195,-1.06746,-0.174342,-9.72487,1.19512,-6.35633,82.6909
2023-03-11 15:13:50:205,-1.07802,-0.1764,-9.73092,1.2297,-6.35596,82.7127
2023-03-11 15:13:50:215,-1.10385,-0.20097,-9.7091,1.26305,-6.35446,82.7358
2023-03-11 15:13:50:225,-1.1364,-0.221996,-9.65813,1.29613,-6.35805,82.7566
2023-03-11 15:13:50:235,-1.15752,-0.237442,-9.63283,1.32637,-6.36322,82.7749
2023-03-11 15:13:50:245,-1.15322,-0.244185,-9.6236,1.35284,-6.36637,82.7918
2023-03-11 15:13:50:255,-1.13721,-0.236199,-9.64937,1.37449,-6.37336,82.8064
2023-03-11 15:13:50:264,-1.13903,-0.22415,-9.66686,1.39196,-6.3757,82.8193
2023-03-11 15:13:50:274,-1.13903,-0.223189,-9.67742,1.40727,-6.37843,82.8287
2023-03-11 15:13:50:285,-1.1183,-0.222884,-9.68047,1.42283,-6.37982,82.8369
2023-03-11 15:13:50:294,-1.0839,-0.230387,-9.67828,1.43689,-6.38095,82.8378
2023-03-11 15:13:50:304,-1.06044,-0.234597,-9.69555,1.44774,-6.38258,82.8389
2023-03-11 15:13:50:314,-1.05715,-0.23203,-9.70582,1.45935,-6.38533,82.838
2023-03-11 15:13:50:324,-1.03121,-0.242549,-9.69898,1.46765,-6.38278,82.8392
2023-03-11 15:13:50:334,-1.0004,-0.257189,-9.67617,1.47804,-6.38522,82.839
2023-03-11 15:13:50:344,-0.980199,-0.252497,-9.68233,1.48148,-6.38778,82.839
2023-03-11 15:13:50:354,-0.991533,-0.234519,-9.72036,1.48487,-6.39292,82.8431
2023-03-11 15:13:50:364,-1.01543,-0.212371,-9.74758,1.48507,-6.40093,82.8521
2023-03-11 15:13:50:374,-1.03596,-0.191443,-9.78691,1.4861,-6.40822,82.8591
2023-03-11 15:13:50:384,-1.04269,-0.17698,-9.80298,1.49104,-6.41732,82.8693
2023-03-11 15:13:50:395,-1.0623,-0.171818,-9.80864,1.49341,-6.42421,82.8835
2023-03-11 15:13:50:405,-1.07131,-0.178986,-9.78141,1.50164,-6.43064,82.8959
2023-03-11 15:13:50:414,-1.07215,-0.188864,-9.75205,1.51451,-6.43725,82.9105
2023-03-11 15:13:50:425,-1.07123,-0.210027,-9.7311,1.52826,-6.44416,82.9249
2023-03-11 15:13:50:435,-1.07117,-0.225459,-9.72631,1.54687,-6.44781,82.9431
2023-03-11 15:13:50:445,-1.07609,-0.22846,-9.71992,1.56604,-6.44908,82.9588
2023-03-11 15:13:50:455,-1.10015,-0.236073,-9.73895,1.58382,-6.4538,82.9736
2023-03-11 15:13:50:465,-1.09992,-0.236406,-9.76135,1.5988,-6.46121,82.993
2023-03-11 15:13:50:475,-1.10496,-0.259532,-9.73431,1.61467,-6.46464,83.0093
2023-03-11 15:13:50:485,-1.1005,-0.268902,-9.68164,1.63314,-6.47341,83.0268
2023-03-11 15:13:50:495,-1.07939,-0.276437,-9.66227,1.65167,-6.47888,83.0463
2023-03-11 15:13:50:505,-1.07362,-0.296704,-9.68106,1.66845,-6.48285,83.062
2023-03-11 15:13:50:515,-1.09614,-0.27416,-9.73969,1.68026,-6.49203,83.0786
2023-03-11 15:13:50:525,-1.11983,-0.21965,-9.86323,1.69322,-6.49661,83.095
2023-03-11 15:13:50:535,-1.09126,-0.140205,-9.96887,1.70946,-6.50047,83.1132
2023-03-11 15:13:50:545,-1.04645,-0.121877,-9.98566,1.73871,-6.50396,83.1255
2023-03-11 15:13:50:555,-1.01573,-0.218562,-9.9148,1.78152,-6.5049,83.1383
2023-03-11 15:13:50:565,-1.00283,-0.310598,-9.79169,1.83842,-6.5058,83.1573
2023-03-11 15:13:50:575,-1.04111,-0.377438,-9.69373,1.89421,-6.51071,83.1863
2023-03-11 15:13:50:585,-1.09804,-0.340415,-9.69259,1.93969,-6.51485,83.2213
2023-03-11 15:13:50:595,-1.13894,-0.245643,-9.76105,1.97842,-6.52446,83.2632
2023-03-11 15:13:50:605,-1.13976,-0.212215,-9.84399,2.01678,-6.52891,83.3029
2023-03-11 15:13:50:615,-1.13756,-0.200908,-9.87499,2.06066,-6.53201,83.3472
2023-03-11 15:13:50:625,-1.17891,-0.200351,-9.83163,2.11643,-6.52836,83.396
2023-03-11 15:13:50:635,-1.19802,-0.229549,-9.74981,2.18038,-6.52119,83.443
2023-03-11 15:13:50:645,-1.19411,-0.269468,-9.66695,2.24722,-6.51029,83.4907
2023-03-11 15:13:50:655,-1.18906,-0.320857,-9.62584,2.31519,-6.49849,83.5429
2023-03-11 15:13:50:665,-1.18827,-0.331226,-9.67035,2.38299,-6.47786,83.5932
2023-03-11 15:13:50:675,-1.19093,-0.305942,-9.78026,2.44774,-6.45643,83.6396
2023-03-11 15:13:50:685,-1.2021,-0.24421,-9.92417,2.51264,-6.43762,83.687
2023-03-11 15:13:50:695,-1.22075,-0.202197,-9.97475,2.59193,-6.41554,83.7274
2023-03-11 15:13:50:705,-1.21019,-0.242809,-9.91866,2.68823,-6.38632,83.7661
2023-03-11 15:13:50:715,-1.17203,-0.354352,-9.81072,2.79801,-6.35429,83.8009
2023-03-11 15:13:50:725,-1.11411,-0.438809,-9.68454,2.91123,-6.31486,83.8303
2023-03-11 15:13:50:735,-1.05512,-0.524047,-9.58638,3.02365,-6.2789,83.86
2023-03-11 15:13:50:745,-1.04715,-0.571137,-9.55993,3.12515,-6.24729,83.8901
2023-03-11 15:13:50:755,-1.08267,-0.553566,-9.62838,3.21649,-6.22533,83.9195
2023-03-11 15:13:50:765,-1.14743,-0.461773,-9.73878,3.29487,-6.19922,83.9517
2023-03-11 15:13:50:775,-1.14363,-0.441607,-9.7851,3.37857,-6.16481,83.9795
2023-03-11 15:13:50:785,-1.06144,-0.546246,-9.68894,3.471,-6.13814,84.0023
2023-03-11 15:13:50:795,-1.02993,-0.592367,-9.6315,3.56372,-6.11136,84.0235
2023-03-11 15:13:50:805,-1.05943,-0.605835,-9.60855,3.65005,-6.08823,84.0457
2023-03-11 15:13:50:815,-1.07628,-0.656988,-9.55699,3.7338,-6.06549,84.066
2023-03-11 15:13:50:825,-1.07995,-0.689145,-9.53716,3.80981,-6.04975,84.0858
2023-03-11 15:13:50:835,-1.06625,-0.710562,-9.51869,3.88032,-6.02866,84.1048
2023-03-11 15:13:50:845,-1.03327,-0.739991,-9.51077,3.94487,-6.00911,84.119
2023-03-11 15:13:50:855,-1.004,-0.742652,-9.53517,3.99812,-5.98633,84.131
2023-03-11 15:13:50:865,-1.00112,-0.733722,-9.56267,4.0443,-5.96297,84.1412
2023-03-11 15:13:50:875,-0.970585,-0.730371,-9.6078,4.0804,-5.94539,84.1531
2023-03-11 15:13:50:885,-0.964353,-0.744044,-9.62435,4.11379,-5.92868,84.1615
2023-03-11 15:13:50:895,-0.977324,-0.759601,-9.61862,4.14179,-5.91806,84.1698
2023-03-11 15:13:50:905,-0.983599,-0.773003,-9.61952,4.16509,-5.90973,84.1801
2023-03-11 15:13:50:915,-0.996945,-0.781005,-9.64815,4.18297,-5.90326,84.1864
2023-03-11 15:13:50:925,-0.992852,-0.777379,-9.65632,4.19946,-5.90078,84.1937
2023-03-11 15:13:50:935,-0.983125,-0.783507,-9.64081,4.21453,-5.90236,84.1997
2023-03-11 15:13:50:945,-0.971377,-0.796322,-9.62934,4.22408,-5.90401,84.2048
2023-03-11 15:13:50:955,-0.963419,-0.783169,-9.62925,4.22983,-5.91126,84.2118
2023-03-11 15:13:50:965,-0.981948,-0.76976,-9.66661,4.23093,-5.91731,84.2209
2023-03-11 15:13:50:975,-0.993377,-0.769771,-9.6777,4.23218,-5.92355,84.2299
2023-03-11 15:13:50:985,-1.00439,-0.753464,-9.66289,4.23218,-5.92712,84.2393
2023-03-11 15:13:50:995,-1.00666,-0.744952,-9.69188,4.23112,-5.92838,84.2456
2023-03-11 15:13:51:5,-1.02077,-0.726611,-9.735,4.23181,-5.93385,84.2561
2023-03-11 15:13:51:15,-1.03386,-0.704015,-9.74617,4.2261,-5.9377,84.2649
2023-03-11 15:13:51:25,-1.07446,-0.677657,-9.76691,4.22622,-5.9431,84.2772
2023-03-11 15:13:51:35,-1.08698,-0.693996,-9.75363,4.23597,-5.94649,84.2883
2023-03-11 15:13:51:45,-1.0691,-0.745975,-9.69602,4.24514,-5.94485,84.2947
2023-03-11 15:13:51:55,-1.05374,-0.771359,-9.64151,4.2554,-5.94272,84.2992
2023-03-11 15:13:51:65,-1.04414,-0.750435,-9.64196,4.2632,-5.93869,84.3026
2023-03-11 15:13:51:75,-1.04185,-0.735575,-9.69027,4.26935,-5.93555,84.3026
2023-03-11 15:13:51:85,-1.03575,-0.707928,-9.72309,4.27074,-5.92628,84.3029
2023-03-11 15:13:51:95,-1.04286,-0.688615,-9.74422,4.27605,-5.92138,84.2991
2023-03-11 15:13:51:105,-1.04249,-0.682993,-9.7432,4.27856,-5.91283,84.2921
2023-03-11 15:13:51:115,-1.02706,-0.692993,-9.73121,4.28565,-5.9057,84.2883
2023-03-11 15:13:51:125,-1.00622,-0.714421,-9.7146,4.29425,-5.89913,84.2788
2023-03-11 15:13:51:135,-0.991581,-0.734493,-9.68812,4.30293,-5.88742,84.2668
2023-03-11 15:13:51:145,-0.970226,-0.752674,-9.68719,4.30562,-5.87576,84.2564
2023-03-11 15:13:51:155,-0.94195,-0.745346,-9.6743,4.31418,-5.86719,84.2482
2023-03-11 15:13:51:165,-0.931018,-0.73905,-9.65886,4.31856,-5.85863,84.2371
2023-03-11 15:13:51:175,-0.923196,-0.748058,-9.65249,4.32292,-5.84773,84.2289
2023-03-11 15:13:51:185,-0.909357,-0.750143,-9.65375,4.32242,-5.83557,84.2187
2023-03-11 15:13:51:195,-0.930183,-0.739681,-9.67794,4.31809,-5.82744,84.2148
2023-03-11 15:13:51:205,-0.941701,-0.728234,-9.66951,4.31171,-5.82284,84.212
2023-03-11 15:13:51:215,-0.968924,-0.738036,-9.65011,4.30455,-5.8157,84.2111
2023-03-11 15:13:51:225,-0.969159,-0.741415,-9.64133,4.29143,-5.80561,84.2129
2023-03-11 15:13:51:235,-0.971917,-0.717333,-9.65765,4.27974,-5.79229,84.2093
2023-03-11 15:13:51:245,-0.952408,-0.709051,-9.67639,4.26347,-5.78092,84.2069
2023-03-11 15:13:51:255,-0.929527,-0.726921,-9.68685,4.24509,-5.77249,84.2024
2023-03-11 15:13:51:265,-0.939896,-0.709341,-9.71451,4.22569,-5.76616,84.198
2023-03-11 15:13:51:275,-0.949754,-0.659324,-9.77722,4.20509,-5.75865,84.1915
2023-03-11 15:13:51:285,-0.921497,-0.619703,-9.83851,4.18658,-5.75134,84.1827
2023-03-11 15:13:51:295,-0.85028,-0.621081,-9.83429,4.17399,-5.74544,84.1742
2023-03-11 15:13:51:305,-0.823683,-0.658175,-9.78107,4.16646,-5.74259,84.165
2023-03-11 15:13:51:315,-0.845147,-0.683817,-9.73657,4.15869,-5.74507,84.1619
2023-03-11 15:13:51:325,-0.891938,-0.696718,-9.70193,4.14755,-5.75312,84.1637
2023-03-11 15:13:51:335,-0.950197,-0.687244,-9.68667,4.13517,-5.76415,84.1675
2023-03-11 15:13:51:345,-0.980605,-0.649276,-9.71,4.11887,-5.77475,84.178
2023-03-11 15:13:51:355,-0.995876,-0.604596,-9.73661,4.09593,-5.77902,84.1879
2023-03-11 15:13:51:365,-1.00131,-0.589968,-9.74182,4.07546,-5.78047,84.2008
2023-03-11 15:13:51:375,-1.00667,-0.571782,-9.74363,4.05616,-5.78099,84.214
2023-03-11 15:13:51:385,-1.00606,-0.563997,-9.75261,4.03903,-5.78214,84.2301
2023-03-11 15:13:51:395,-1.04127,-0.567535,-9.73129,4.02521,-5.78263,84.2459
2023-03-11 15:13:51:405,-1.05223,-0.58369,-9.71494,4.01858,-5.78083,84.2569
2023-03-11 15:13:51:415,-1.02602,-0.6003,-9.70848,4.01409,-5.77736,84.2637
2023-03-11 15:13:51:425,-1.02257,-0.609832,-9.72827,4.01049,-5.77274,84.2707
2023-03-11 15:13:51:435,-1.01737,-0.607447,-9.73109,4.00801,-5.77158,84.2717
2023-03-11 15:13:51:445,-1.02477,-0.62713,-9.72531,4.00497,-5.7698,84.2679
2023-03-11 15:13:51:455,-1.02693,-0.650105,-9.71057,4.00485,-5.7668,84.2624
2023-03-11 15:13:51:465,-1.02247,-0.651126,-9.7184,4.00424,-5.76295,84.2573
2023-03-11 15:13:51:475,-1.00073,-0.654312,-9.71732,3.99919,-5.76195,84.2475
2023-03-11 15:13:51:485,-0.98639,-0.670495,-9.70602,3.99416,-5.75818,84.2369
2023-03-11 15:13:51:495,-1.00383,-0.646371,-9.71618,3.98716,-5.7601,84.2253
2023-03-11 15:13:51:505,-1.01991,-0.618468,-9.74619,3.97526,-5.76028,84.2182
2023-03-11 15:13:51:515,-1.00575,-0.609827,-9.74921,3.96619,-5.75996,84.2063
2023-03-11 15:13:51:525,-0.953867,-0.597221,-9.75972,3.95659,-5.75858,84.194
2023-03-11 15:13:51:535,-0.903019,-0.615326,-9.75058,3.95213,-5.74823,84.18
2023-03-11 15:13:51:545,-0.902184,-0.63392,-9.73995,3.95191,-5.74252,84.1683
2023-03-11 15:13:51:555,-0.94971,-0.637238,-9.73068,3.9497,-5.73653,84.1638
2023-03-11 15:13:51:565,-0.974677,-0.633099,-9.74383,3.94752,-5.72961,84.1628
2023-03-11 15:13:51:575,-0.980032,-0.609313,-9.76248,3.94531,-5.7198,84.1597
2023-03-11 15:13:51:585,-0.963535,-0.606398,-9.76975,3.94452,-5.7133,84.1558
2023-03-11 15:13:51:595,-0.940319,-0.614638,-9.75842,3.94669,-5.70224,84.1539
2023-03-11 15:13:51:605,-0.919514,-0.64949,-9.73615,3.95487,-5.69246,84.1517
2023-03-11 15:13:51:615,-0.921258,-0.663424,-9.72357,3.96084,-5.68231,84.1491
2023-03-11 15:13:51:625,-0.943414,-0.660961,-9.71483,3.96463,-5.67381,84.1473
2023-03-11 15:13:51:635,-0.942686,-0.641203,-9.73117,3.96932,-5.67023,84.1459
2023-03-11 15:13:51:645,-0.938201,-0.624034,-9.7296,3.97808,-5.66814,84.142
2023-03-11 15:13:51:655,-0.926591,-0.644388,-9.70851,3.98372,-5.66763,84.1376
2023-03-11 15:13:51:665,-0.920599,-0.669589,-9.68134,3.99435,-5.66786,84.1302
2023-03-11 15:13:51:675,-0.937384,-0.673527,-9.7025,4.00263,-5.67042,84.1258
2023-03-11 15:13:51:685,-0.936411,-0.673123,-9.71216,4.00461,-5.677,84.1244
2023-03-11 15:13:51:695,-0.932033,-0.680822,-9.69245,4.00706,-5.6769,84.1244
2023-03-11 15:13:51:705,-0.937811,-0.686144,-9.69569,4.00915,-5.68121,84.125
2023-03-11 15:13:51:715,-0.95046,-0.663582,-9.70102,4.00741,-5.68273,84.1271
2023-03-11 15:13:51:725,-0.962728,-0.674047,-9.71595,4.00869,-5.6862,84.1293
2023-03-11 15:13:51:735,-0.97171,-0.674091,-9.69029,4.00892,-5.68797,84.1354
2023-03-11 15:13:51:745,-0.997133,-0.675809,-9.6935,4.00892,-5.68819,84.1419
2023-03-11 15:13:51:755,-1.0272,-0.640148,-9.70416,4.00523,-5.68714,84.1516
2023-03-11 15:13:51:765,-1.03326,-0.640116,-9.73064,4.00282,-5.68544,84.1614
2023-03-11 15:13:51:775,-1.01868,-0.645577,-9.7323,3.99872,-5.67998,84.1705
2023-03-11 15:13:51:785,-1.002,-0.629562,-9.73621,3.99196,-5.67457,84.1757
2023-03-11 15:13:51:795,-0.994063,-0.614102,-9.73775,3.98673,-5.666,84.1812
2023-03-11 15:13:51:805,-1.0063,-0.605727,-9.74253,3.98502,-5.65848,84.184
2023-03-11 15:13:51:815,-0.995544,-0.599372,-9.74081,3.98315,-5.65098,84.1853
2023-03-11 15:13:51:825,-0.971013,-0.596209,-9.73718,3.9796,-5.64187,84.1853
2023-03-11 15:13:51:835,-0.967298,-0.611274,-9.73691,3.9817,-5.63458,84.1788
2023-03-11 15:13:51:845,-0.941835,-0.615736,-9.74494,3.98283,-5.6249,84.1698
2023-03-11 15:13:51:855,-0.937831,-0.592928,-9.75029,3.98504,-5.61425,84.1673
2023-03-11 15:13:51:865,-0.912646,-0.591145,-9.78059,3.98662,-5.60719,84.1605
2023-03-11 15:13:51:875,-0.891435,-0.584376,-9.77687,3.98904,-5.59762,84.1526
2023-03-11 15:13:51:885,-0.882548,-0.614807,-9.7424,3.99839,-5.59171,84.1484
2023-03-11 15:13:51:895,-0.863124,-0.635007,-9.74298,4.00698,-5.5849,84.1433
2023-03-11 15:13:51:905,-0.873005,-0.631785,-9.76132,4.0138,-5.58124,84.1449
2023-03-11 15:13:51:915,-0.906213,-0.621178,-9.76176,4.02297,-5.57882,84.1476
2023-03-11 15:13:51:925,-0.904638,-0.63072,-9.73115,4.03678,-5.58274,84.1529
2023-03-11 15:13:51:935,-0.910799,-0.64157,-9.71309,4.04727,-5.58547,84.1566
2023-03-11 15:13:51:945,-0.914568,-0.641234,-9.71128,4.05734,-5.58714,84.1611
2023-03-11 15:13:51:955,-0.944237,-0.629553,-9.72312,4.06833,-5.58943,84.1675
2023-03-11 15:13:51:965,-0.987037,-0.633943,-9.72825,4.07856,-5.59168,84.1765
2023-03-11 15:13:51:975,-0.991786,-0.667096,-9.71261,4.08784,-5.59135,84.1846
2023-03-11 15:13:51:985,-1.01028,-0.672096,-9.69487,4.10121,-5.58901,84.1941
2023-03-11 15:13:51:995,-1.01224,-0.669293,-9.67433,4.11056,-5.58445,84.2003
2023-03-11 15:13:52:5,-0.972748,-0.687347,-9.65801,4.12214,-5.58164,84.2043
2023-03-11 15:13:52:15,-0.927978,-0.700581,-9.66133,4.13082,-5.57968,84.2013
2023-03-11 15:13:52:25,-0.925718,-0.697031,-9.67923,4.13747,-5.57324,84.1955
2023-03-11 15:13:52:35,-0.905957,-0.690284,-9.72013,4.14343,-5.56687,84.1841
2023-03-11 15:13:52:45,-0.874211,-0.680075,-9.77026,4.14361,-5.55942,84.1751
2023-03-11 15:13:52:55,-0.830679,-0.677857,-9.78663,4.14156,-5.55704,84.162
2023-03-11 15:13:52:65,-0.820688,-0.673226,-9.75819,4.14257,-5.55722,84.1529
2023-03-11 15:13:52:75,-0.865513,-0.681418,-9.73682,4.14263,-5.56407,84.1481
2023-03-11 15:13:52:85,-0.925377,-0.682506,-9.72955,4.14456,-5.57013,84.1471
2023-03-11 15:13:52:95,-0.951689,-0.658742,-9.72322,4.1401,-5.5741,84.1531
2023-03-11 15:13:52:105,-0.930928,-0.649684,-9.73508,4.1341,-5.57546,84.1534
2023-03-11 15:13:52:115,-0.883864,-0.631981,-9.73989,4.12637,-5.57677,84.1544
2023-03-11 15:13:52:125,-0.860063,-0.588578,-9.74749,4.11677,-5.57049,84.1575
2023-03-11 15:13:52:135,-0.86613,-0.580154,-9.76704,4.1131,-5.57079,84.1627
2023-03-11 15:13:52:145,-0.915699,-0.58253,-9.7398,4.11169,-5.5728,84.1687
2023-03-11 15:13:52:155,-0.971746,-0.614956,-9.7001,4.1172,-5.5775,84.1754
2023-03-11 15:13:52:165,-0.97799,-0.622997,-9.68198,4.12163,-5.57425,84.1862
2023-03-11 15:13:52:175,-0.957694,-0.64086,-9.68112,4.12358,-5.57274,84.1913
2023-03-11 15:13:52:185,-0.915763,-0.639289,-9.69789,4.12641,-5.56872,84.1934
2023-03-11 15:13:52:195,-0.876799,-0.618676,-9.73037,4.13053,-5.56205,84.1936
2023-03-11 15:13:52:205,-0.867645,-0.619115,-9.76633,4.13149,-5.5567,84.1931
2023-03-11 15:13:52:215,-0.850695,-0.632444,-9.79128,4.13363,-5.55423,84.1894
2023-03-11 15:13:52:225,-0.862137,-0.618602,-9.80405,4.14084,-5.56205,84.1887
2023-03-11 15:13:52:235,-0.859868,-0.63074,-9.74655,4.15477,-5.57002,84.1865
2023-03-11 15:13:52:245,-0.880744,-0.668201,-9.69607,4.1673,-5.57641,84.1909
2023-03-11 15:13:52:255,-0.926282,-0.705466,-9.67593,4.1782,-5.58619,84.1987
2023-03-11 15:13:52:265,-0.9611,-0.695221,-9.67641,4.18271,-5.5941,84.2101
2023-03-11 15:13:52:275,-0.976021,-0.686083,-9.68564,4.18943,-5.59868,84.2196
2023-03-11 15:13:52:285,-0.953465,-0.690641,-9.69567,4.19167,-5.60563,84.2258
2023-03-11 15:13:52:295,-0.949396,-0.687532,-9.70871,4.19347,-5.61457,84.2314
2023-03-11 15:13:52:305,-0.976023,-0.668187,-9.70399,4.18836,-5.62158,84.2382
2023-03-11 15:13:52:315,-1.01682,-0.663702,-9.70237,4.18392,-5.63625,84.2436
2023-03-11 15:13:52:325,-1.05117,-0.657047,-9.75211,4.17445,-5.6492,84.2444
2023-03-11 15:13:52:335,-1.03026,-0.640562,-9.81921,4.16791,-5.66528,84.2396
2023-03-11 15:13:52:345,-1.00591,-0.63549,-9.82808,4.16186,-5.68375,84.2301
2023-03-11 15:13:52:355,-1.01613,-0.637586,-9.80816,4.16016,-5.69662,84.2175
2023-03-11 15:13:52:365,-1.01256,-0.662701,-9.74932,4.16147,-5.71411,84.2052
2023-03-11 15:13:52:375,-1.0048,-0.674979,-9.71022,4.16333,-5.73286,84.1853
2023-03-11 15:13:52:385,-0.984424,-0.685344,-9.70381,4.16789,-5.751,84.165
2023-03-11 15:13:52:395,-0.983918,-0.668862,-9.68759,4.16929,-5.76602,84.1456
2023-03-11 15:13:52:405,-0.99049,-0.710941,-9.65436,4.17253,-5.78363,84.1274
2023-03-11 15:13:52:415,-0.968547,-0.762893,-9.64564,4.17621,-5.80034,84.1138
2023-03-11 15:13:52:425,-0.971995,-0.743685,-9.64968,4.17739,-5.81582,84.1079
2023-03-11 15:13:52:435,-0.973594,-0.707546,-9.67249,4.17434,-5.82412,84.1045
2023-03-11 15:13:52:445,-0.961329,-0.678147,-9.70742,4.16718,-5.82992,84.104
2023-03-11 15:13:52:455,-0.947131,-0.656827,-9.76066,4.1543,-5.83026,84.1125
2023-03-11 15:13:52:465,-0.900662,-0.661268,-9.7987,4.14996,-5.82887,84.1247
2023-03-11 15:13:52:475,-0.878791,-0.674016,-9.79984,4.15104,-5.82334,84.1386
2023-03-11 15:13:52:485,-0.93169,-0.701598,-9.7869,4.15534,-5.82596,84.1574
2023-03-11 15:13:52:495,-1.01719,-0.705336,-9.73705,4.15774,-5.83021,84.1822
2023-03-11 15:13:52:505,-1.08703,-0.690858,-9.6851,4.16111,-5.83543,84.2115
2023-03-11 15:13:52:515,-1.11557,-0.694785,-9.63187,4.15878,-5.83819,84.2403
2023-03-11 15:13:52:525,-1.11691,-0.687911,-9.64431,4.15253,-5.84114,84.2588
2023-03-11 15:13:52:535,-1.09273,-0.638895,-9.69391,4.14074,-5.84093,84.269
2023-03-11 15:13:52:545,-1.07408,-0.58843,-9.76228,4.12814,-5.84365,84.2717
2023-03-11 15:13:52:555,-1.02906,-0.552314,-9.82161,4.11307,-5.84356,84.2681
2023-03-11 15:13:52:565,-0.981157,-0.550491,-9.86845,4.10485,-5.8495,84.261
2023-03-11 15:13:52:575,-0.924847,-0.574083,-9.87493,4.10699,-5.85628,84.2517
2023-03-11 15:13:52:585,-0.93782,-0.627901,-9.81463,4.11877,-5.86768,84.2399
2023-03-11 15:13:52:595,-0.981476,-0.681833,-9.71643,4.1379,-5.88582,84.2286
2023-03-11 15:13:52:605,-1.02159,-0.732054,-9.6463,4.15955,-5.90591,84.2208
2023-03-11 15:13:52:615,-1.01866,-0.757821,-9.60903,4.17776,-5.92572,84.212
2023-03-11 15:13:52:625,-1.00612,-0.771362,-9.58832,4.1924,-5.93956,84.2012
2023-03-11 15:13:52:635,-0.980411,-0.784857,-9.60361,4.20166,-5.95053,84.1911
2023-03-11 15:13:52:645,-0.942509,-0.784745,-9.61197,4.2046,-5.9585,84.1825
2023-03-11 15:13:52:655,-0.903176,-0.796679,-9.64356,4.20394,-5.97249,84.1792
2023-03-11 15:13:52:665,-0.914906,-0.804004,-9.63642,4.19964,-5.98817,84.175
2023-03-11 15:13:52:675,-0.969609,-0.792074,-9.62504,4.1963,-6.00433,84.1755
2023-03-11 15:13:52:685,-1.01072,-0.788078,-9.63437,4.19,-6.02174,84.1854
2023-03-11 15:13:52:695,-1.03161,-0.785731,-9.64073,4.1811,-6.03566,84.1955
2023-03-11 15:13:52:705,-1.06043,-0.8065,-9.63984,4.17187,-6.04894,84.2084
2023-03-11 15:13:52:715,-1.08956,-0.800165,-9.65848,4.16036,-6.05957,84.2243
2023-03-11 15:13:52:725,-1.09798,-0.750549,-9.68023,4.14735,-6.06276,84.2407
2023-03-11 15:13:52:735,-1.08263,-0.729097,-9.69584,4.13236,-6.06508,84.2595
2023-03-11 15:13:52:745,-1.06352,-0.704992,-9.68998,4.1169,-6.06412,84.2744
2023-03-11 15:13:52:755,-1.04674,-0.70873,-9.68657,4.10302,-6.06168,84.2891
2023-03-11 15:13:52:765,-1.0126,-0.717869,-9.67852,4.09121,-6.06055,84.3034
2023-03-11 15:13:52:775,-1.03881,-0.73004,-9.6648,4.08044,-6.05834,84.317
2023-03-11 15:13:52:785,-1.08664,-0.740375,-9.67122,4.06937,-6.05801,84.3335
2023-03-11 15:13:52:795,-1.07703,-0.730008,-9.69978,4.05496,-6.05054,84.351
2023-03-11 15:13:52:805,-1.02579,-0.690721,-9.77461,4.03949,-6.04056,84.3665
2023-03-11 15:13:52:815,-0.967168,-0.666619,-9.8332,4.02706,-6.03039,84.3826
2023-03-11 15:13:52:825,-0.967962,-0.661292,-9.84954,4.01272,-6.02391,84.3978
2023-03-11 15:13:52:835,-0.999328,-0.636854,-9.82872,4.00151,-6.02115,84.4142
2023-03-11 15:13:52:845,-1.03239,-0.606018,-9.75808,3.99547,-6.01938,84.4326
2023-03-11 15:13:52:855,-1.04924,-0.621536,-9.70102,3.98952,-6.01732,84.4535
2023-03-11 15:13:52:865,-1.03357,-0.627329,-9.66326,3.98912,-6.01427,84.4758
2023-03-11 15:13:52:875,-1.02882,-0.646443,-9.64706,3.99151,-6.00956,84.5007
2023-03-11 15:13:52:885,-1.03623,-0.6905,-9.65212,3.99411,-6.00294,84.5264
2023-03-11 15:13:52:895,-1.07857,-0.698229,-9.66446,4.00091,-5.98907,84.557
2023-03-11 15:13:52:905,-1.14151,-0.698313,-9.70251,4.00622,-5.97562,84.5921
2023-03-11 15:13:52:915,-1.17753,-0.704229,-9.74017,4.009,-5.96003,84.6289
2023-03-11 15:13:52:925,-1.14638,-0.728893,-9.77924,4.01561,-5.93147,84.6669
2023-03-11 15:13:52:935,-1.07996,-0.74384,-9.79334,4.02075,-5.89367,84.7007
2023-03-11 15:13:52:945,-1.0376,-0.752317,-9.79302,4.02872,-5.84749,84.7274
2023-03-11 15:13:52:955,-0.992218,-0.781468,-9.77119,4.03919,-5.79662,84.7559
2023-03-11 15:13:52:964,-0.94129,-0.78683,-9.7622,4.05013,-5.74091,84.7843
2023-03-11 15:13:52:975,-0.892925,-0.752746,-9.78399,4.0551,-5.69106,84.8117
2023-03-11 15:13:52:985,-0.863936,-0.718976,-9.79411,4.06017,-5.64021,84.835
2023-03-11 15:13:52:995,-0.844087,-0.747198,-9.73331,4.06679,-5.59451,84.8602
2023-03-11 15:13:53:5,-0.859053,-0.759364,-9.66761,4.07435,-5.55805,84.8851
2023-03-11 15:13:53:15,-0.917679,-0.757516,-9.63299,4.08406,-5.5272,84.9099
2023-03-11 15:13:53:25,-0.939289,-0.748297,-9.6109,4.09127,-5.49925,84.9297
2023-03-11 15:13:53:34,-0.921504,-0.744888,-9.61687,4.09921,-5.4747,84.9486
2023-03-11 15:13:53:45,-0.876724,-0.748839,-9.61229,4.10242,-5.45426,84.9592
2023-03-11 15:13:53:55,-0.862772,-0.751051,-9.60868,4.1063,-5.43694,84.9635
2023-03-11 15:13:53:65,-0.888055,-0.766432,-9.6469,4.10712,-5.42733,84.9666
2023-03-11 15:13:53:75,-0.934955,-0.755508,-9.67243,4.09797,-5.42797,84.9661
2023-03-11 15:13:53:85,-0.954664,-0.737612,-9.67929,4.08719,-5.4288,84.9637
2023-03-11 15:13:53:95,-0.955924,-0.720722,-9.66192,4.07386,-5.43463,84.954
2023-03-11 15:13:53:105,-0.950553,-0.700484,-9.64747,4.05708,-5.43828,84.9433
2023-03-11 15:13:53:115,-0.930687,-0.683922,-9.62211,4.03372,-5.44204,84.9313
2023-03-11 15:13:53:125,-0.917147,-0.668871,-9.60464,4.00749,-5.44838,84.9139
2023-03-11 15:13:53:135,-0.922386,-0.651215,-9.59193,3.97209,-5.45284,84.8943
2023-03-11 15:13:53:145,-0.942624,-0.627147,-9.58851,3.93492,-5.45713,84.8736
2023-03-11 15:13:53:155,-0.911624,-0.612023,-9.60384,3.89147,-5.46,84.8551
2023-03-11 15:13:53:165,-0.899186,-0.579707,-9.62434,3.84155,-5.46526,84.833
2023-03-11 15:13:53:175,-0.908184,-0.542693,-9.65803,3.78689,-5.46625,84.8085
2023-03-11 15:13:53:185,-0.923888,-0.517004,-9.70458,3.73177,-5.46982,84.7852
2023-03-11 15:13:53:195,-0.939507,-0.46864,-9.74208,3.6746,-5.47925,84.7592
2023-03-11 15:13:53:205,-0.973488,-0.429343,-9.77982,3.61527,-5.48522,84.7329
2023-03-11 15:13:53:215,-1.02225,-0.397852,-9.80007,3.56249,-5.49072,84.705
2023-03-11 15:13:53:225,-1.02278,-0.373559,-9.84102,3.5119,-5.49631,84.6768
2023-03-11 15:13:53:235,-0.984533,-0.359551,-9.86681,3.46407,-5.49739,84.6411
2023-03-11 15:13:53:245,-0.964839,-0.350761,-9.87152,3.42352,-5.49887,84.6023
2023-03-11 15:13:53:255,-0.990327,-0.355111,-9.85248,3.388,-5.49797,84.565
2023-03-11 15:13:53:265,-1.04727,-0.362074,-9.83725,3.354,-5.493,84.5272
2023-03-11 15:13:53:275,-1.06392,-0.359618,-9.82418,3.32398,-5.48661,84.484
2023-03-11 15:13:53:285,-1.0253,-0.353297,-9.81754,3.30035,-5.47852,84.4372
2023-03-11 15:13:53:295,-0.970005,-0.368725,-9.83557,3.27953,-5.46951,84.3834
2023-03-11 15:13:53:305,-0.958252,-0.384205,-9.85768,3.25988,-5.45799,84.3264
2023-03-11 15:13:53:315,-0.916642,-0.366563,-9.84928,3.24826,-5.4456,84.2658
2023-03-11 15:13:53:325,-0.863431,-0.3835,-9.81395,3.24052,-5.4321,84.202
2023-03-11 15:13:53:335,-0.835864,-0.41762,-9.8006,3.2366,-5.42137,84.1363
2023-03-11 15:13:53:345,-0.806499,-0.437351,-9.77289,3.24149,-5.40845,84.0717
2023-03-11 15:13:53:355,-0.778371,-0.464635,-9.74667,3.24675,-5.39871,84.0074
2023-03-11 15:13:53:365,-0.755703,-0.50512,-9.71676,3.25543,-5.39099,83.9493
2023-03-11 15:13:53:375,-0.718267,-0.529672,-9.70047,3.25812,-5.37965,83.8921
2023-03-11 15:13:53:385,-0.723498,-0.547742,-9.694,3.26094,-5.37266,83.844
2023-03-11 15:13:53:395,-0.73847,-0.543726,-9.69256,3.26231,-5.36498,83.8015
2023-03-11 15:13:53:405,-0.722013,-0.53343,-9.70934,3.26224,-5.35504,83.7657
2023-03-11 15:13:53:415,-0.696692,-0.543449,-9.7313,3.26147,-5.34494,83.737
2023-03-11 15:13:53:425,-0.691204,-0.544713,-9.73963,3.26446,-5.33602,83.7167
2023-03-11 15:13:53:435,-0.724266,-0.547896,-9.75509,3.2676,-5.3295,83.7093
2023-03-11 15:13:53:445,-0.771457,-0.538706,-9.76666,3.2669,-5.32129,83.7098
2023-03-11 15:13:53:455,-0.793195,-0.53211,-9.74228,3.26715,-5.31469,83.7143
2023-03-11 15:13:53:465,-0.807505,-0.53872,-9.72522,3.26964,-5.30839,83.7207
2023-03-11 15:13:53:475,-0.809834,-0.556298,-9.70685,3.26839,-5.30312,83.7272
2023-03-11 15:13:53:485,-0.798779,-0.561005,-9.68389,3.26733,-5.29724,83.7345
2023-03-11 15:13:53:495,-0.798957,-0.575209,-9.67522,3.26547,-5.2969,83.7413
2023-03-11 15:13:53:505,-0.800449,-0.556245,-9.72123,3.26181,-5.29919,83.7476
2023-03-11 15:13:53:515,-0.785383,-0.521473,-9.80799,3.25182,-5.29851,83.7538
2023-03-11 15:13:53:525,-0.779079,-0.501861,-9.85312,3.24481,-5.30452,83.7631
2023-03-11 15:13:53:535,-0.792738,-0.536207,-9.8261,3.24466,-5.31544,83.7731
2023-03-11 15:13:53:545,-0.802217,-0.575701,-9.7694,3.24908,-5.33485,83.7845
2023-03-11 15:13:53:555,-0.833567,-0.586492,-9.73266,3.25148,-5.36162,83.7952
2023-03-11 15:13:53:565,-0.874954,-0.570259,-9.71527,3.25407,-5.38654,83.8081
2023-03-11 15:13:53:575,-0.917456,-0.551276,-9.72547,3.25192,-5.41199,83.8258
2023-03-11 15:13:53:585,-0.933329,-0.510426,-9.75002,3.24632,-5.43739,83.8399
2023-03-11 15:13:53:595,-0.942999,-0.478424,-9.75754,3.23758,-5.46058,83.8593
2023-03-11 15:13:53:605,-0.945103,-0.457622,-9.753,3.23443,-5.47899,83.8831
2023-03-11 15:13:53:615,-0.94321,-0.466217,-9.76564,3.23167,-5.49873,83.905
2023-03-11 15:13:53:625,-0.971964,-0.480213,-9.73873,3.23281,-5.51251,83.9289
2023-03-11 15:13:53:635,-0.971225,-0.502125,-9.6901,3.24007,-5.52918,83.9531
2023-03-11 15:13:53:644,-0.98065,-0.536336,-9.67676,3.25106,-5.54384,83.9768
2023-03-11 15:13:53:655,-0.970323,-0.550816,-9.65213,3.25848,-5.55587,84.0015
2023-03-11 15:13:53:665,-0.973934,-0.552341,-9.66263,3.26275,-5.56411,84.0206
2023-03-11 15:13:53:675,-0.990178,-0.551312,-9.69453,3.26691,-5.5732,84.047
2023-03-11 15:13:53:685,-1.01083,-0.539065,-9.73738,3.26753,-5.58379,84.065
2023-03-11 15:13:53:695,-1.01674,-0.505963,-9.75842,3.26672,-5.59248,84.0881
2023-03-11 15:13:53:705,-1.01039,-0.522972,-9.75021,3.26544,-5.60526,84.1058
2023-03-11 15:13:53:715,-1.00536,-0.529212,-9.7284,3.26529,-5.61522,84.1196
2023-03-11 15:13:53:725,-1.02136,-0.528969,-9.72693,3.26337,-5.62543,84.1297
2023-03-11 15:13:53:735,-1.0456,-0.520232,-9.72567,3.26286,-5.6309,84.1343
2023-03-11 15:13:53:745,-1.00849,-0.508567,-9.74332,3.25581,-5.63588,84.1375
2023-03-11 15:13:53:755,-0.935249,-0.496536,-9.7469,3.24915,-5.6385,84.1399
2023-03-11 15:13:53:765,-0.875093,-0.507408,-9.75665,3.2447,-5.64071,84.1382
2023-03-11 15:13:53:775,-0.85469,-0.507923,-9.78299,3.24312,-5.64557,84.1373
2023-03-11 15:13:53:785,-0.868295,-0.493739,-9.77285,3.24153,-5.65211,84.1407
2023-03-11 15:13:53:795,-0.887801,-0.478057,-9.76543,3.23937,-5.65913,84.1517
2023-03-11 15:13:53:805,-0.922025,-0.470771,-9.76471,3.23992,-5.66484,84.1623
2023-03-11 15:13:53:815,-0.945615,-0.466295,-9.76464,3.24036,-5.6708,84.1777
2023-03-11 15:13:53:825,-0.937701,-0.471347,-9.77573,3.24101,-5.67626,84.1946
2023-03-11 15:13:53:835,-0.948133,-0.481327,-9.7699,3.24634,-5.6784,84.2145
2023-03-11 15:13:53:845,-0.97634,-0.494292,-9.75501,3.25427,-5.67918,84.2324
2023-03-11 15:13:53:855,-1.00806,-0.505702,-9.71494,3.26622,-5.67634,84.2507
2023-03-11 15:13:53:865,-1.02112,-0.509521,-9.70025,3.27705,-5.67769,84.27
2023-03-11 15:13:53:875,-1.02151,-0.505717,-9.70587,3.28532,-5.67753,84.2867
2023-03-11 15:13:53:885,-1.00344,-0.526955,-9.71666,3.29719,-5.67937,84.2955
2023-03-11 15:13:53:895,-0.984526,-0.547983,-9.69987,3.30658,-5.68471,84.3003
2023-03-11 15:13:53:905,-0.968521,-0.552249,-9.70327,3.31292,-5.68981,84.301
2023-03-11 15:13:53:915,-0.967635,-0.551937,-9.71456,3.31781,-5.69424,84.2975
2023-03-11 15:13:53:925,-0.96281,-0.541523,-9.70573,3.32038,-5.70327,84.296
2023-03-11 15:13:53:935,-0.953782,-0.537306,-9.71007,3.32528,-5.71234,84.2923
2023-03-11 15:13:53:945,-0.945846,-0.539351,-9.71558,3.32846,-5.72039,84.2918
2023-03-11 15:13:53:955,-0.939785,-0.549796,-9.70901,3.32886,-5.72896,84.2936
2023-03-11 15:13:53:965,-0.938881,-0.556245,-9.72352,3.33059,-5.73966,84.3028
2023-03-11 15:13:53:975,-0.950539,-0.548659,-9.72725,3.33113,-5.75153,84.3115
2023-03-11 15:13:53:985,-0.971717,-0.540145,-9.73421,3.3322,-5.75945,84.3222
2023-03-11 15:13:53:995,-1.01615,-0.551594,-9.74993,3.33397,-5.76603,84.3347
2023-03-11 15:13:54:5,-1.05507,-0.539335,-9.73886,3.33851,-5.77523,84.3461
2023-03-11 15:13:54:15,-1.06156,-0.519155,-9.76211,3.33937,-5.78254,84.3597
2023-03-11 15:13:54:25,-1.03723,-0.532578,-9.76749,3.3461,-5.78786,84.3742
2023-03-11 15:13:54:35,-0.996348,-0.539627,-9.75863,3.35383,-5.7855,84.385
2023-03-11 15:13:54:45,-0.970124,-0.554038,-9.72677,3.36613,-5.78275,84.3976
2023-03-11 15:13:54:55,-0.983972,-0.570564,-9.65505,3.3801,-5.7793,84.413
2023-03-11 15:13:54:64,-0.991414,-0.600043,-9.63072,3.39064,-5.77628,84.431
2023-03-11 15:13:54:75,-0.996768,-0.602271,-9.6494,3.4002,-5.77094,84.4473
2023-03-11 15:13:54:85,-1.00739,-0.560993,-9.67035,3.40491,-5.76734,84.4652
2023-03-11 15:13:54:95,-1.02279,-0.539017,-9.68929,3.40569,-5.76492,84.4839
2023-03-11 15:13:54:105,-1.04232,-0.545879,-9.70448,3.40284,-5.76073,84.4988
2023-03-11 15:13:54:115,-1.04766,-0.555205,-9.70737,3.39821,-5.7644,84.5109
2023-03-11 15:13:54:125,-1.05153,-0.530764,-9.70892,3.39212,-5.76467,84.519
2023-03-11 15:13:54:135,-1.04626,-0.542339,-9.71298,3.38799,-5.76785,84.5227
2023-03-11 15:13:54:145,-1.05191,-0.544138,-9.7168,3.38561,-5.7733,84.5239
2023-03-11 15:13:54:155,-1.0468,-0.534812,-9.71398,3.37958,-5.7766,84.5182
2023-03-11 15:13:54:165,-1.03781,-0.538463,-9.71998,3.37858,-5.77842,84.5116
2023-03-11 15:13:54:175,-1.0249,-0.539547,-9.72604,3.37683,-5.77783,84.5033
2023-03-11 15:13:54:185,-0.997839,-0.536823,-9.71797,3.37643,-5.77982,84.4911
2023-03-11 15:13:54:195,-0.974061,-0.538461,-9.71309,3.37494,-5.78256,84.4786
2023-03-11 15:13:54:205,-0.960712,-0.548945,-9.71132,3.37376,-5.7842,84.4681
2023-03-11 15:13:54:215,-0.970912,-0.560067,-9.71846,3.37181,-5.7882,84.4599
2023-03-11 15:13:54:225,-0.972775,-0.552755,-9.75808,3.36994,-5.79173,84.4499
2023-03-11 15:13:54:235,-0.930678,-0.5557,-9.77798,3.36361,-5.79479,84.4385
2023-03-11 15:13:54:245,-0.886357,-0.587776,-9.77106,3.36753,-5.79935,84.4257
2023-03-11 15:13:54:255,-0.899619,-0.614778,-9.72736,3.37042,-5.80598,84.4221
2023-03-11 15:13:54:265,-0.952193,-0.613634,-9.71124,3.36868,-5.8186,84.4214
2023-03-11 15:13:54:275,-1.01021,-0.578452,-9.71974,3.36235,-5.83345,84.4238
2023-03-11 15:13:54:285,-1.05175,-0.546494,-9.75242,3.35281,-5.84696,84.4282
2023-03-11 15:13:54:295,-1.07609,-0.519084,-9.73574,3.34577,-5.85567,84.4368
2023-03-11 15:13:54:305,-1.07104,-0.530867,-9.72532,3.33936,-5.85844,84.4435
2023-03-11 15:13:54:315,-1.07295,-0.531407,-9.71248,3.337,-5.85978,84.4499
2023-03-11 15:13:54:325,-1.09544,-0.517745,-9.6861,3.33335,-5.86138,84.4591
2023-03-11 15:13:54:335,-1.108,-0.52461,-9.66077,3.3296,-5.86086,84.4647
2023-03-11 15:13:54:345,-1.10875,-0.514881,-9.66738,3.328,-5.85559,84.466
2023-03-11 15:13:54:355,-1.10466,-0.522631,-9.66446,3.32496,-5.85231,84.4655
2023-03-11 15:13:54:365,-1.05758,-0.539199,-9.67388,3.32311,-5.84264,84.4561
2023-03-11 15:13:54:375,-1.01072,-0.546617,-9.68204,3.32561,-5.83286,84.4419
2023-03-11 15:13:54:385,-0.997133,-0.558399,-9.69267,3.32265,-5.82226,84.4245
2023-03-11 15:13:54:395,-0.988715,-0.572151,-9.71956,3.31704,-5.81425,84.4059
2023-03-11 15:13:54:405,-0.965724,-0.567325,-9.74968,3.31419,-5.81005,84.3854
2023-03-11 15:13:54:415,-0.932792,-0.54581,-9.74795,3.31036,-5.7992,84.364
2023-03-11 15:13:54:425,-0.909248,-0.559684,-9.71858,3.30582,-5.79259,84.3441
2023-03-11 15:13:54:435,-0.919008,-0.568669,-9.71917,3.30027,-5.78902,84.3262
2023-03-11 15:13:54:445,-0.923783,-0.552173,-9.73178,3.28916,-5.784,84.3116
2023-03-11 15:13:54:455,-0.938562,-0.524497,-9.74937,3.27653,-5.7782,84.2978
2023-03-11 15:13:54:465,-0.893113,-0.520844,-9.76666,3.26884,-5.76684,84.2889
2023-03-11 15:13:54:475,-0.823233,-0.523562,-9.7492,3.26267,-5.75886,84.2784
2023-03-11 15:13:54:485,-0.803854,-0.54912,-9.71682,3.25618,-5.75128,84.2693
2023-03-11 15:13:54:495,-0.841209,-0.560522,-9.67554,3.25361,-5.74782,84.2677
2023-03-11 15:13:54:505,-0.896758,-0.557698,-9.67036,3.24663,-5.74566,84.2713
2023-03-11 15:13:54:515,-0.940848,-0.535896,-9.71992,3.23316,-5.74796,84.2809
2023-03-11 15:13:54:525,-0.934066,-0.508859,-9.75924,3.21929,-5.74833,84.2881
2023-03-11 15:13:54:535,-0.916424,-0.503261,-9.77259,3.20778,-5.74944,84.2984
2023-03-11 15:13:54:545,-0.904611,-0.511902,-9.77056,3.19785,-5.74853,84.3071
2023-03-11 15:13:54:555,-0.912535,-0.523542,-9.74154,3.19141,-5.75139,84.3173
2023-03-11 15:13:54:565,-0.927479,-0.526021,-9.69811,3.18112,-5.75382,84.3247
2023-03-11 15:13:54:575,-0.932858,-0.536167,-9.68315,3.17335,-5.76543,84.3337
2023-03-11 15:13:54:585,-0.949893,-0.531728,-9.69922,3.16282,-5.777,84.3448
2023-03-11 15:13:54:595,-0.967271,-0.515384,-9.73013,3.146,-5.78825,84.3544
2023-03-11 15:13:54:605,-0.968209,-0.499793,-9.74578,3.13693,-5.80029,84.3644
2023-03-11 15:13:54:615,-0.987012,-0.494949,-9.75072,3.12664,-5.81474,84.3713
2023-03-11 15:13:54:624,-1.00984,-0.487838,-9.74216,3.12007,-5.82926,84.3802
2023-03-11 15:13:54:634,-1.01183,-0.500558,-9.71837,3.11377,-5.84281,84.3926
2023-03-11 15:13:54:644,-1.00039,-0.518835,-9.70794,3.10781,-5.8517,84.403
2023-03-11 15:13:54:654,-1.00073,-0.519426,-9.70185,3.10285,-5.86207,84.4099
2023-03-11 15:13:54:665,-1.00165,-0.521072,-9.71773,3.09529,-5.86925,84.4187
2023-03-11 15:13:54:675,-1.00596,-0.523138,-9.715,3.08674,-5.87615,84.4276
2023-03-11 15:13:54:684,-1.03438,-0.522214,-9.6971,3.08144,-5.88645,84.4348
2023-03-11 15:13:54:695,-1.0645,-0.503554,-9.70848,3.07183,-5.8958,84.4469
2023-03-11 15:13:54:704,-1.07266,-0.491092,-9.72453,3.06453,-5.9022,84.4533
2023-03-11 15:13:54:714,-1.08246,-0.468737,-9.7148,3.05104,-5.91059,84.4615
2023-03-11 15:13:54:724,-1.08561,-0.46779,-9.72702,3.03981,-5.91685,84.4732
2023-03-11 15:13:54:734,-1.06968,-0.475846,-9.72244,3.03115,-5.91653,84.4783
2023-03-11 15:13:54:744,-1.05121,-0.485049,-9.72186,3.02303,-5.91755,84.481
2023-03-11 15:13:54:754,-1.04021,-0.491437,-9.71869,3.01252,-5.91585,84.482
2023-03-11 15:13:54:764,-1.04467,-0.490014,-9.71062,3.0041,-5.91442,84.48
2023-03-11 15:13:54:774,-1.03606,-0.484685,-9.71698,2.99518,-5.91219,84.4794
2023-03-11 15:13:54:784,-1.01005,-0.463839,-9.72824,2.98488,-5.9069,84.4768
2023-03-11 15:13:54:794,-1.00761,-0.458326,-9.75167,2.97414,-5.90308,84.4727
2023-03-11 15:13:54:804,-0.991991,-0.450581,-9.7776,2.96584,-5.90102,84.4683
2023-03-11 15:13:54:814,-0.981056,-0.435092,-9.77568,2.95567,-5.89984,84.4617
2023-03-11 15:13:54:824,-0.963265,-0.429005,-9.76705,2.94935,-5.90192,84.4567
2023-03-11 15:13:54:835,-0.935299,-0.437069,-9.74417,2.94344,-5.90309,84.449
2023-03-11 15:13:54:844,-0.922891,-0.474138,-9.70686,2.94284,-5.90827,84.4447
2023-03-11 15:13:54:854,-0.924995,-0.496012,-9.70526,2.94341,-5.90894,84.4412
2023-03-11 15:13:54:865,-0.938415,-0.487784,-9.70842,2.94143,-5.91439,84.4389
2023-03-11 15:13:54:875,-0.966099,-0.477416,-9.73463,2.93487,-5.92068,84.438
2023-03-11 15:13:54:885,-1.00052,-0.46559,-9.76866,2.92786,-5.92551,84.4372
2023-03-11 15:13:54:895,-1.00016,-0.465062,-9.75211,2.92573,-5.93218,84.4392
2023-03-11 15:13:54:905,-0.972659,-0.457448,-9.71259,2.9263,-5.93716,84.4412
2023-03-11 15:13:54:915,-0.972664,-0.474551,-9.70585,2.92685,-5.94306,84.4459
2023-03-11 15:13:54:925,-0.983543,-0.497821,-9.71836,2.92043,-5.94662,84.4499
2023-03-11 15:13:54:935,-0.986807,-0.473836,-9.73695,2.91647,-5.95127,84.4535
2023-03-11 15:13:54:945,-0.968304,-0.474894,-9.78121,2.91286,-5.9536,84.4578
2023-03-11 15:13:54:955,-0.948788,-0.484186,-9.79215,2.91203,-5.9617,84.4599
2023-03-11 15:13:54:965,-0.958323,-0.486966,-9.75691,2.91269,-5.96839,84.4622
2023-03-11 15:13:54:975,-0.986699,-0.494809,-9.7284,2.91332,-5.98236,84.4707
2023-03-11 15:13:54:985,-1.02974,-0.495092,-9.73091,2.91054,-5.99884,84.4808
2023-03-11 15:13:54:995,-1.06992,-0.470167,-9.75033,2.91108,-6.01467,84.4924
2023-03-11 15:13:55:5,-1.08829,-0.437607,-9.73757,2.90856,-6.0273,84.504
2023-03-11 15:13:55:15,-1.08285,-0.432865,-9.72613,2.90472,-6.03113,84.516
2023-03-11 15:13:55:25,-1.0907,-0.419931,-9.73268,2.90224,-6.03737,84.5296
2023-03-11 15:13:55:35,-1.10636,-0.40241,-9.7361,2.90088,-6.04213,84.545
2023-03-11 15:13:55:45,-1.12006,-0.396797,-9.74564,2.90391,-6.04588,84.5576
2023-03-11 15:13:55:55,-1.11859,-0.395956,-9.72026,2.90739,-6.03953,84.5679
2023-03-11 15:13:55:65,-1.10486,-0.417749,-9.70909,2.91515,-6.03451,84.5785
2023-03-11 15:13:55:75,-1.08112,-0.450715,-9.70187,2.92656,-6.02176,84.5804
2023-03-11 15:13:55:85,-1.04713,-0.455166,-9.69871,2.9381,-6.01145,84.5818
2023-03-11 15:13:55:95,-1.02028,-0.464704,-9.7314,2.94621,-6.0023,84.5847
2023-03-11 15:13:55:105,-1.02809,-0.462624,-9.75171,2.95249,-5.99337,84.5798
2023-03-11 15:13:55:115,-1.02892,-0.443288,-9.76064,2.95488,-5.98839,84.5739
2023-03-11 15:13:55:125,-0.997218,-0.43616,-9.76344,2.96223,-5.97824,84.5665
2023-03-11 15:13:55:135,-0.977254,-0.443468,-9.73464,2.97073,-5.97617,84.5557
2023-03-11 15:13:55:145,-0.978688,-0.461438,-9.72577,2.97679,-5.97171,84.5446
2023-03-11 15:13:55:155,-0.996479,-0.477038,-9.73078,2.98641,-5.96698,84.5342
2023-03-11 15:13:55:165,-1.0028,-0.471761,-9.73261,2.99345,-5.96093,84.5253
2023-03-11 15:13:55:175,-0.951105,-0.466433,-9.73058,2.99962,-5.95499,84.517
2023-03-11 15:13:55:185,-0.872008,-0.488154,-9.74477,3.01069,-5.94681,84.5085
2023-03-11 15:13:55:195,-0.859658,-0.484473,-9.75668,3.02042,-5.93853,84.5033
2023-03-11 15:13:55:205,-0.916047,-0.468781,-9.76639,3.02731,-5.93393,84.5051
2023-03-11 15:13:55:215,-0.969365,-0.462426,-9.76109,3.03921,-5.93248,84.5116
2023-03-11 15:13:55:225,-0.999237,-0.453286,-9.77957,3.05121,-5.93341,84.5239
2023-03-11 15:13:55:235,-0.996934,-0.451775,-9.78171,3.06709,-5.92953,84.5345
2023-03-11 15:13:55:245,-0.966847,-0.471273,-9.76447,3.08576,-5.92406,84.5473
2023-03-11 15:13:55:255,-0.964544,-0.507034,-9.73413,3.1039,-5.92016,84.5604
2023-03-11 15:13:55:265,-0.963902,-0.536297,-9.70356,3.12431,-5.92007,84.573
2023-03-11 15:13:55:275,-0.97592,-0.55408,-9.68029,3.14436,-5.92226,84.5842
2023-03-11 15:13:55:285,-0.990239,-0.554968,-9.66984,3.15949,-5.92919,84.5988
2023-03-11 15:13:55:295,-0.989703,-0.550791,-9.65875,3.17318,-5.93567,84.6111
2023-03-11 15:13:55:305,-0.990247,-0.537471,-9.67779,3.18319,-5.93783,84.6253
2023-03-11 15:13:55:315,-0.991232,-0.511774,-9.70291,3.1904,-5.9423,84.6343
2023-03-11 15:13:55:325,-0.97799,-0.518824,-9.73458,3.19983,-5.94891,84.6495
2023-03-11 15:13:55:335,-0.969297,-0.532129,-9.72373,3.2079,-5.95336,84.6678
2023-03-11 15:13:55:345,-0.984714,-0.539111,-9.70365,3.21947,-5.95671,84.6886
2023-03-11 15:13:55:355,-1.00021,-0.548288,-9.70734,3.22826,-5.96023,84.7106
2023-03-11 15:13:55:365,-1.01938,-0.551076,-9.71451,3.23911,-5.96429,84.7314
2023-03-11 15:13:55:375,-1.01305,-0.542134,-9.70902,3.24952,-5.96974,84.757
2023-03-11 15:13:55:385,-1.00491,-0.54584,-9.72215,3.25846,-5.97442,84.7832
2023-03-11 15:13:55:395,-1.01223,-0.561904,-9.73619,3.27059,-5.97219,84.8084
2023-03-11 15:13:55:405,-0.983755,-0.56269,-9.72529,3.28093,-5.97303,84.8373
2023-03-11 15:13:55:415,-0.942441,-0.561799,-9.70593,3.29204,-5.967,84.8699
2023-03-11 15:13:55:425,-0.918162,-0.587677,-9.67399,3.3032,-5.96052,84.9078
2023-03-11 15:13:55:435,-0.90177,-0.599065,-9.68603,3.31122,-5.95182,84.9494
2023-03-11 15:13:55:445,-0.888901,-0.575195,-9.72046,3.31472,-5.94259,84.9982
2023-03-11 15:13:55:455,-0.882011,-0.55104,-9.76926,3.31685,-5.93018,85.0566
2023-03-11 15:13:55:465,-0.871006,-0.53185,-9.76615,3.32404,-5.92063,85.1204
2023-03-11 15:13:55:475,-0.876627,-0.538131,-9.75915,3.33281,-5.90903,85.1877
2023-03-11 15:13:55:485,-0.887015,-0.537093,-9.73796,3.34493,-5.89494,85.2637
2023-03-11 15:13:55:495,-0.886442,-0.550702,-9.70478,3.35386,-5.87657,85.3461
2023-03-11 15:13:55:505,-0.892612,-0.563255,-9.67909,3.36295,-5.86332,85.4327
2023-03-11 15:13:55:515,-0.913692,-0.548186,-9.67853,3.36828,-5.84796,85.5223
2023-03-11 15:13:55:525,-0.922799,-0.54557,-9.72301,3.37426,-5.83708,85.6109
2023-03-11 15:13:55:535,-0.891247,-0.53811,-9.74529,3.37962,-5.8271,85.7039
2023-03-11 15:13:55:545,-0.890564,-0.512583,-9.74096,3.3856,-5.82159,85.7979
2023-03-11 15:13:55:555,-0.885843,-0.519383,-9.73919,3.39195,-5.82022,85.896
2023-03-11 15:13:55:565,-0.895899,-0.521406,-9.73048,3.40019,-5.82168,85.9937
2023-03-11 15:13:55:575,-0.927054,-0.520316,-9.72268,3.41144,-5.82198,86.0939
2023-03-11 15:13:55:585,-0.966035,-0.543856,-9.7272,3.42327,-5.82191,86.1999
2023-03-11 15:13:55:594,-0.958161,-0.563396,-9.75599,3.43258,-5.82093,86.3076
2023-03-11 15:13:55:605,-0.913473,-0.570183,-9.75479,3.44082,-5.8133,86.4128
2023-03-11 15:13:55:615,-0.931406,-0.57243,-9.71272,3.44895,-5.81138,86.5174
2023-03-11 15:13:55:625,-0.970145,-0.569426,-9.68474,3.45249,-5.81035,86.6236
2023-03-11 15:13:55:635,-0.97434,-0.565486,-9.68285,3.4603,-5.81334,86.7307
2023-03-11 15:13:55:645,-0.97677,-0.560356,-9.71426,3.46576,-5.81401,86.8398
2023-03-11 15:13:55:655,-0.981018,-0.54511,-9.75357,3.47124,-5.81589,86.9485
2023-03-11 15:13:55:665,-0.984,-0.538604,-9.7935,3.47298,-5.81749,87.053
2023-03-11 15:13:55:675,-0.958663,-0.556346,-9.8082,3.48169,-5.81672,87.1569
2023-03-11 15:13:55:685,-0.951101,-0.600939,-9.78014,3.492,-5.82368,87.2619
2023-03-11 15:13:55:695,-0.97889,-0.604036,-9.73325,3.50575,-5.83601,87.3614
2023-03-11 15:13:55:705,-1.02158,-0.592817,-9.70031,3.51479,-5.84918,87.4634
2023-03-11 15:13:55:715,-1.05795,-0.583977,-9.70558,3.52139,-5.86596,87.5628
2023-03-11 15:13:55:725,-1.08817,-0.542337,-9.70004,3.52217,-5.88446,87.6616
2023-03-11 15:13:55:735,-1.10375,-0.516205,-9.71008,3.52298,-5.89942,87.7613
2023-03-11 15:13:55:745,-1.10165,-0.500954,-9.70733,3.52733,-5.91112,87.8515
2023-03-11 15:13:55:755,-1.09685,-0.488398,-9.72221,3.5305,-5.92122,87.9411
2023-03-11 15:13:55:765,-1.09873,-0.487064,-9.736,3.53559,-5.92597,88.024
2023-03-11 15:13:55:775,-1.10006,-0.502921,-9.73387,3.5466,-5.93112,88.1083
2023-03-11 15:13:55:785,-1.08461,-0.52903,-9.72092,3.56458,-5.93233,88.1871
2023-03-11 15:13:55:795,-1.04685,-0.556566,-9.7073,3.5839,-5.93187,88.2593
2023-03-11 15:13:55:805,-1.01014,-0.602569,-9.6973,3.60749,-5.93058,88.33
2023-03-11 15:13:55:815,-0.994558,-0.642354,-9.70092,3.63249,-5.92806,88.3997
2023-03-11 15:13:55:825,-0.990946,-0.653094,-9.71105,3.65552,-5.93004,88.4668
2023-03-11 15:13:55:835,-0.996659,-0.656729,-9.7246,3.67407,-5.93162,88.532
2023-03-11 15:13:55:845,-0.986824,-0.656861,-9.71124,3.68929,-5.93517,88.6013
2023-03-11 15:13:55:855,-0.977185,-0.656458,-9.69064,3.70648,-5.93859,88.6675
2023-03-11 15:13:55:865,-0.988204,-0.652351,-9.68738,3.71998,-5.94209,88.7341
2023-03-11 15:13:55:875,-1.02657,-0.657613,-9.69199,3.73411,-5.94777,88.8048
2023-03-11 15:13:55:885,-1.04163,-0.64749,-9.70876,3.7434,-5.95206,88.8741
2023-03-11 15:13:55:895,-0.998985,-0.645201,-9.72617,3.75261,-5.95901,88.9395
2023-03-11 15:13:55:905,-0.97161,-0.65207,-9.69397,3.76459,-5.96109,89.0048
2023-03-11 15:13:55:915,-0.975807,-0.680325,-9.68762,3.77663,-5.96454,89.0714
2023-03-11 15:13:55:925,-0.980209,-0.674425,-9.70188,3.78956,-5.97199,89.1362
2023-03-11 15:13:55:935,-1.01435,-0.660204,-9.71677,3.79901,-5.98289,89.2013
2023-03-11 15:13:55:945,-1.04943,-0.656762,-9.70514,3.8096,-5.99343,89.2686
2023-03-11 15:13:55:955,-1.06184,-0.664771,-9.69289,3.82129,-6.00117,89.3345
2023-03-11 15:13:55:965,-1.0548,-0.658267,-9.68138,3.83045,-6.00621,89.4003
2023-03-11 15:13:55:975,-1.04173,-0.656845,-9.67454,3.83853,-6.00917,89.4636
2023-03-11 15:13:55:985,-1.04104,-0.656791,-9.66749,3.84198,-6.01045,89.5255
2023-03-11 15:13:55:995,-1.02787,-0.653868,-9.67909,3.84867,-6.0152,89.5879
2023-03-11 15:13:56:5,-1.01898,-0.634548,-9.69004,3.85535,-6.0187,89.6473
2023-03-11 15:13:56:15,-1.01158,-0.635602,-9.70221,3.85869,-6.02784,89.7059
2023-03-11 15:13:56:25,-1.04051,-0.657694,-9.70651,3.86016,-6.03896,89.7663
2023-03-11 15:13:56:35,-1.05448,-0.658327,-9.70431,3.86554,-6.05317,89.8229
2023-03-11 15:13:56:45,-1.07321,-0.658406,-9.71346,3.87174,-6.06603,89.8783
2023-03-11 15:13:56:55,-1.08564,-0.65547,-9.717,3.87709,-6.08043,89.9369
2023-03-11 15:13:56:65,-1.10007,-0.653252,-9.73008,3.88031,-6.09713,89.9939
2023-03-11 15:13:56:75,-1.11208,-0.657718,-9.72611,3.88866,-6.11752,90.0484
2023-03-11 15:13:56:85,-1.09564,-0.666536,-9.70653,3.89695,-6.13474,90.1007
2023-03-11 15:13:56:95,-1.09944,-0.67107,-9.69137,3.90637,-6.15183,90.1506
2023-03-11 15:13:56:105,-1.10409,-0.660967,-9.66995,3.91307,-6.16656,90.1968
2023-03-11 15:13:56:115,-1.11049,-0.650524,-9.67747,3.91634,-6.18334,90.2457
2023-03-11 15:13:56:125,-1.10503,-0.666755,-9.68216,3.9193,-6.20154,90.2919
2023-03-11 15:13:56:135,-1.12992,-0.67422,-9.6718,3.92211,-6.21904,90.3359
2023-03-11 15:13:56:145,-1.13601,-0.689121,-9.6702,3.92622,-6.23339,90.38
2023-03-11 15:13:56:155,-1.11306,-0.677154,-9.68949,3.92866,-6.25011,90.4202
2023-03-11 15:13:56:165,-1.11906,-0.663256,-9.69542,3.9295,-6.26146,90.4562
2023-03-11 15:13:56:175,-1.12432,-0.658366,-9.70545,3.92879,-6.27171,90.492
2023-03-11 15:13:56:185,-1.13013,-0.659282,-9.69955,3.92699,-6.28041,90.5275
2023-03-11 15:13:56:195,-1.11081,-0.663036,-9.68804,3.92994,-6.28993,90.5584
2023-03-11 15:13:56:205,-1.10649,-0.67338,-9.68893,3.9293,-6.29814,90.5915
2023-03-11 15:13:56:215,-1.10405,-0.668746,-9.65968,3.9331,-6.30385,90.619
2023-03-11 15:13:56:225,-1.08779,-0.672353,-9.66048,3.9365,-6.31063,90.6459
2023-03-11 15:13:56:235,-1.08466,-0.673902,-9.69516,3.93937,-6.31655,90.6718
2023-03-11 15:13:56:245,-1.09889,-0.657947,-9.72553,3.93661,-6.32299,90.6976
2023-03-11 15:13:56:255,-1.10572,-0.654962,-9.73269,3.93709,-6.33245,90.7253
2023-03-11 15:13:56:265,-1.11375,-0.632056,-9.74546,3.93367,-6.34046,90.7521
2023-03-11 15:13:56:275,-1.11878,-0.621355,-9.74035,3.93632,-6.34873,90.775
2023-03-11 15:13:56:285,-1.11338,-0.635622,-9.72986,3.94139,-6.35989,90.798
2023-03-11 15:13:56:295,-1.10342,-0.657882,-9.70657,3.94758,-6.36806,90.8174
2023-03-11 15:13:56:305,-1.10757,-0.674948,-9.68396,3.95486,-6.37431,90.8377
2023-03-11 15:13:56:315,-1.11226,-0.68263,-9.66147,3.96315,-6.38223,90.8556
2023-03-11 15:13:56:325,-1.13164,-0.704478,-9.62399,3.97172,-6.39094,90.8719
2023-03-11 15:13:56:335,-1.15211,-0.710654,-9.6136,3.97858,-6.39854,90.8893
2023-03-11 15:13:56:345,-1.15259,-0.6938,-9.6324,3.9768,-6.40709,90.9075
2023-03-11 15:13:56:355,-1.16756,-0.673813,-9.63826,3.97691,-6.4136,90.9216
2023-03-11 15:13:56:365,-1.17394,-0.651341,-9.64529,3.97259,-6.41262,90.9342
2023-03-11 15:13:56:375,-1.15103,-0.666269,-9.66956,3.96979,-6.41247,90.9433
2023-03-11 15:13:56:385,-1.11646,-0.682752,-9.7084,3.96259,-6.40997,90.9514
2023-03-11 15:13:56:395,-1.08937,-0.68389,-9.74349,3.95773,-6.40989,90.9597
2023-03-11 15:13:56:405,-1.08478,-0.672585,-9.75373,3.94998,-6.40785,90.9636
2023-03-11 15:13:56:415,-1.11048,-0.672884,-9.72896,3.94429,-6.41273,90.9679
2023-03-11 15:13:56:425,-1.10928,-0.684728,-9.70562,3.93585,-6.41915,90.9697
2023-03-11 15:13:56:435,-1.11023,-0.661005,-9.71636,3.92613,-6.42384,90.9744
2023-03-11 15:13:56:445,-1.11461,-0.614271,-9.72718,3.91107,-6.42879,90.9783
2023-03-11 15:13:56:455,-1.12458,-0.592156,-9.70787,3.90171,-6.43407,90.9831
2023-03-11 15:13:56:465,-1.11648,-0.576437,-9.70763,3.8896,-6.43524,90.9845
2023-03-11 15:13:56:475,-1.09858,-0.555005,-9.70476,3.87539,-6.43487,90.9879
2023-03-11 15:13:56:485,-1.09032,-0.545026,-9.71106,3.8681,-6.43481,90.9927
2023-03-11 15:13:56:495,-1.10152,-0.560379,-9.70519,3.86042,-6.43167,90.9991
2023-03-11 15:13:56:505,-1.10489,-0.577142,-9.68527,3.85836,-6.43377,91.0015
2023-03-11 15:13:56:515,-1.09135,-0.602838,-9.67034,3.86039,-6.43491,91.0037
2023-03-11 15:13:56:525,-1.07724,-0.643694,-9.65698,3.86409,-6.43438,91.008
2023-03-11 15:13:56:535,-1.08409,-0.652268,-9.66636,3.86503,-6.43267,91.0106
2023-03-11 15:13:56:545,-1.07997,-0.643305,-9.69988,3.86358,-6.43189,91.0103
2023-03-11 15:13:56:555,-1.0934,-0.651214,-9.71659,3.86136,-6.43253,91.011
2023-03-11 15:13:56:565,-1.09771,-0.649016,-9.71143,3.85687,-6.43068,91.0108
2023-03-11 15:13:56:575,-1.08354,-0.642995,-9.6803,3.85329,-6.42673,91.0084
2023-03-11 15:13:56:585,-1.07813,-0.646678,-9.65939,3.84488,-6.42928,91.0042
2023-03-11 15:13:56:595,-1.11466,-0.640751,-9.67876,3.83153,-6.43588,91.0003
2023-03-11 15:13:56:605,-1.13752,-0.595215,-9.71876,3.81657,-6.44484,90.998
2023-03-11 15:13:56:615,-1.14306,-0.581356,-9.7613,3.8013,-6.44946,90.9926
2023-03-11 15:13:56:625,-1.10787,-0.576776,-9.77248,3.78921,-6.45079,90.9842
2023-03-11 15:13:56:635,-1.06964,-0.60036,-9.74533,3.7802,-6.45304,90.9725
2023-03-11 15:13:56:645,-1.07702,-0.610577,-9.70787,3.77473,-6.45477,90.962
2023-03-11 15:13:56:655,-1.11175,-0.627989,-9.68746,3.77204,-6.45965,90.9523
2023-03-11 15:13:56:665,-1.12031,-0.624963,-9.66871,3.76938,-6.46398,90.9407
2023-03-11 15:13:56:675,-1.1282,-0.617985,-9.68433,3.75963,-6.46874,90.9293
2023-03-11 15:13:56:685,-1.11841,-0.585915,-9.70553,3.75095,-6.4708,90.9187
2023-03-11 15:13:56:695,-1.13511,-0.557749,-9.74275,3.739,-6.47272,90.9066
2023-03-11 15:13:56:705,-1.14572,-0.540733,-9.7497,3.72957,-6.47356,90.8975
2023-03-11 15:13:56:715,-1.1369,-0.546642,-9.74718,3.72686,-6.47153,90.887
2023-03-11 15:13:56:725,-1.12782,-0.547442,-9.72666,3.72382,-6.46614,90.8737
2023-03-11 15:13:56:735,-1.10931,-0.584686,-9.71287,3.72371,-6.46409,90.8645
2023-03-11 15:13:56:745,-1.09679,-0.586888,-9.69765,3.72045,-6.45816,90.8559
2023-03-11 15:13:56:755,-1.09358,-0.583257,-9.70517,3.71793,-6.44941,90.8467
2023-03-11 15:13:56:765,-1.08071,-0.576559,-9.70055,3.71426,-6.44028,90.8381
2023-03-11 15:13:56:775,-1.08991,-0.569879,-9.68604,3.70918,-6.42913,90.831
2023-03-11 15:13:56:785,-1.12764,-0.586364,-9.68045,3.70633,-6.42313,90.8196
2023-03-11 15:13:56:795,-1.14959,-0.593378,-9.65324,3.70387,-6.41357,90.8094
2023-03-11 15:13:56:805,-1.13078,-0.590884,-9.67375,3.69826,-6.40198,90.7952
2023-03-11 15:13:56:815,-1.11161,-0.586109,-9.72063,3.69265,-6.39121,90.7732
2023-03-11 15:13:56:825,-1.10803,-0.589788,-9.74029,3.68697,-6.38649,90.7515
2023-03-11 15:13:56:835,-1.12721,-0.591516,-9.72458,3.68155,-6.37922,90.7302
2023-03-11 15:13:56:845,-1.15272,-0.597908,-9.69928,3.67208,-6.37004,90.7067
2023-03-11 15:13:56:855,-1.17695,-0.581082,-9.68889,3.6627,-6.35703,90.6863
2023-03-11 15:13:56:865,-1.19347,-0.556107,-9.6826,3.64911,-6.35012,90.6624
2023-03-11 15:13:56:875,-1.18764,-0.543954,-9.65619,3.63294,-6.33383,90.6404
2023-03-11 15:13:56:885,-1.16954,-0.540728,-9.67505,3.61951,-6.31255,90.6139
2023-03-11 15:13:56:895,-1.14815,-0.519106,-9.70055,3.60345,-6.2864,90.5854
2023-03-11 15:13:56:905,-1.12232,-0.51216,-9.7368,3.58443,-6.25777,90.5559
2023-03-11 15:13:56:915,-1.0803,-0.508006,-9.78205,3.57082,-6.23196,90.5234
2023-03-11 15:13:56:925,-1.05596,-0.492232,-9.81736,3.55804,-6.20101,90.4915
2023-03-11 15:13:56:935,-1.05088,-0.492046,-9.80395,3.5522,-6.16969,90.4607
2023-03-11 15:13:56:945,-1.07389,-0.505358,-9.77166,3.55204,-6.13766,90.4335
2023-03-11 15:13:56:955,-1.10161,-0.520744,-9.72788,3.55315,-6.10303,90.4096
2023-03-11 15:13:56:965,-1.10464,-0.530956,-9.72163,3.55405,-6.06718,90.3783
2023-03-11 15:13:56:975,-1.05802,-0.531361,-9.72504,3.5565,-6.03145,90.3455
2023-03-11 15:13:56:985,-1.02981,-0.542603,-9.74921,3.55794,-5.99371,90.3113
2023-03-11 15:13:56:995,-1.00489,-0.524043,-9.75606,3.55323,-5.95675,90.2731
2023-03-11 15:13:57:5,-1.00826,-0.505559,-9.73956,3.54967,-5.92074,90.2348
2023-03-11 15:13:57:15,-1.02347,-0.501259,-9.72693,3.54742,-5.88809,90.1948
2023-03-11 15:13:57:25,-1.02548,-0.498284,-9.75632,3.54396,-5.86034,90.1497
2023-03-11 15:13:57:35,-1.00806,-0.481141,-9.80073,3.54501,-5.82914,90.0996
2023-03-11 15:13:57:45,-0.966456,-0.484663,-9.8229,3.5461,-5.80153,90.0421
2023-03-11 15:13:57:55,-0.936683,-0.498418,-9.81024,3.54886,-5.77581,89.9771
2023-03-11 15:13:57:65,-0.906719,-0.515688,-9.7643,3.56102,-5.75531,89.912
2023-03-11 15:13:57:75,-0.875376,-0.549711,-9.6975,3.57614,-5.73651,89.844
2023-03-11 15:13:57:85,-0.837443,-0.577459,-9.66999,3.59048,-5.72127,89.7778
2023-03-11 15:13:57:95,-0.843812,-0.577248,-9.69395,3.59961,-5.7098,89.7162
2023-03-11 15:13:57:105,-0.842105,-0.563693,-9.74517,3.6064,-5.69776,89.6566
2023-03-11 15:13:57:115,-0.809824,-0.563908,-9.7748,3.60967,-5.69149,89.5955
2023-03-11 15:13:57:125,-0.778506,-0.566698,-9.81593,3.61781,-5.68704,89.536
2023-03-11 15:13:57:135,-0.767782,-0.616022,-9.76686,3.63184,-5.6879,89.4819
2023-03-11 15:13:57:145,-0.814906,-0.653771,-9.72179,3.64451,-5.69778,89.4369
2023-03-11 15:13:57:155,-0.88005,-0.636298,-9.72858,3.65047,-5.71779,89.3972
2023-03-11 15:13:57:165,-0.918856,-0.593763,-9.74162,3.6539,-5.74147,89.3648
2023-03-11 15:13:57:175,-0.967336,-0.582958,-9.74117,3.65889,-5.76386,89.3366
2023-03-11 15:13:57:185,-0.995183,-0.574101,-9.71382,3.66532,-5.78518,89.3167
2023-03-11 15:13:57:195,-1.01712,-0.58361,-9.70842,3.66751,-5.80398,89.3002
2023-03-11 15:13:57:205,-1.03432,-0.580698,-9.69357,3.67057,-5.82282,89.2849
2023-03-11 15:13:57:215,-1.05986,-0.576468,-9.67417,3.67522,-5.83694,89.271
2023-03-11 15:13:57:225,-1.08491,-0.593603,-9.64899,3.67881,-5.84452,89.2596
2023-03-11 15:13:57:235,-1.08245,-0.617992,-9.62058,3.68125,-5.84608,89.2469
2023-03-11 15:13:57:245,-1.05443,-0.652634,-9.61282,3.68579,-5.84487,89.2336
2023-03-11 15:13:57:255,-1.04431,-0.644665,-9.64048,3.68614,-5.84322,89.2209
2023-03-11 15:13:57:265,-1.05147,-0.607902,-9.68603,3.67879,-5.84044,89.2115
2023-03-11 15:13:57:275,-1.06714,-0.61065,-9.70874,3.67676,-5.8322,89.2
2023-03-11 15:13:57:285,-1.06498,-0.619792,-9.72965,3.67291,-5.82484,89.1851
2023-03-11 15:13:57:295,-1.01638,-0.609419,-9.72867,3.66927,-5.81725,89.1665
2023-03-11 15:13:57:305,-0.996384,-0.609911,-9.69991,3.66692,-5.80855,89.1456
2023-03-11 15:13:57:315,-1.02563,-0.61167,-9.69789,3.66469,-5.8063,89.126
2023-03-11 15:13:57:325,-1.06495,-0.606928,-9.7251,3.65714,-5.80483,89.1055
2023-03-11 15:13:57:335,-1.10454,-0.570827,-9.7299,3.65015,-5.80405,89.0851
2023-03-11 15:13:57:345,-1.08845,-0.543236,-9.74993,3.64182,-5.79588,89.0594
2023-03-11 15:13:57:355,-1.02001,-0.55769,-9.75195,3.63648,-5.77985,89.0345
2023-03-11 15:13:57:365,-0.949439,-0.577223,-9.74161,3.63088,-5.76492,89.009
2023-03-11 15:13:57:375,-0.936898,-0.584564,-9.75858,3.62688,-5.75135,88.9821
2023-03-11 15:13:57:385,-0.972294,-0.584099,-9.74864,3.62497,-5.74297,88.9582
2023-03-11 15:13:57:395,-1.00836,-0.586151,-9.71132,3.62481,-5.73274,88.9327
2023-03-11 15:13:57:405,-0.999894,-0.588064,-9.6998,3.62692,-5.72197,88.908
2023-03-11 15:13:57:415,-0.97922,-0.587969,-9.69912,3.62826,-5.706,88.8785
2023-03-11 15:13:57:425,-0.950467,-0.608649,-9.71059,3.63052,-5.69039,88.8487
2023-03-11 15:13:57:435,-0.925581,-0.606936,-9.7189,3.63214,-5.67558,88.8198
2023-03-11 15:13:57:445,-0.901198,-0.613936,-9.7338,3.63557,-5.66095,88.7906
2023-03-11 15:13:57:455,-0.903258,-0.610342,-9.71481,3.63554,-5.65172,88.7612
2023-03-11 15:13:57:465,-0.906159,-0.631077,-9.68976,3.6326,-5.6419,88.7385
2023-03-11 15:13:57:475,-0.907415,-0.618617,-9.68584,3.62548,-5.63593,88.71
2023-03-11 15:13:57:485,-0.908778,-0.603209,-9.70448,3.61922,-5.62903,88.6843
2023-03-11 15:13:57:495,-0.885193,-0.613507,-9.68958,3.61256,-5.62202,88.6589
2023-03-11 15:13:57:505,-0.848125,-0.630107,-9.67163,3.60675,-5.61254,88.6346
2023-03-11 15:13:57:515,-0.811588,-0.628853,-9.65684,3.59949,-5.60789,88.6104
2023-03-11 15:13:57:525,-0.812702,-0.627796,-9.6755,3.58967,-5.60679,88.5887
2023-03-11 15:13:57:535,-0.827021,-0.620471,-9.69145,3.57246,-5.60943,88.569
2023-03-11 15:13:57:545,-0.855582,-0.609702,-9.71742,3.55359,-5.62059,88.5555
2023-03-11 15:13:57:555,-0.894719,-0.57476,-9.73723,3.53358,-5.63268,88.5428
2023-03-11 15:13:57:565,-0.946266,-0.547273,-9.74616,3.51129,-5.644,88.5424
2023-03-11 15:13:57:575,-1.00458,-0.538668,-9.75014,3.48985,-5.65814,88.5385
2023-03-11 15:13:57:585,-1.03517,-0.521617,-9.75154,3.47195,-5.67064,88.537
2023-03-11 15:13:57:595,-1.0478,-0.512102,-9.76452,3.4537,-5.68195,88.5361
2023-03-11 15:13:57:605,-1.04402,-0.522599,-9.77416,3.43936,-5.69055,88.5378
2023-03-11 15:13:57:615,-1.02824,-0.55127,-9.71956,3.43003,-5.69802,88.5391
2023-03-11 15:13:57:625,-1.06331,-0.546518,-9.70454,3.41624,-5.70611,88.5427
2023-03-11 15:13:57:635,-1.13645,-0.484895,-9.75521,3.39917,-5.71267,88.5486
2023-03-11 15:13:57:645,-1.16844,-0.474479,-9.74405,3.39161,-5.71191,88.5501
2023-03-11 15:13:57:655,-1.15959,-0.505986,-9.68231,3.38479,-5.70597,88.5479
2023-03-11 15:13:57:665,-1.16092,-0.532009,-9.66813,3.37475,-5.69581,88.5399
2023-03-11 15:13:57:675,-1.15151,-0.501204,-9.71797,3.36911,-5.6781,88.5201
2023-03-11 15:13:57:685,-1.09173,-0.474872,-9.74769,3.35934,-5.65775,88.4961
2023-03-11 15:13:57:695,-1.02565,-0.487475,-9.77323,3.35109,-5.64007,88.4658
2023-03-11 15:13:57:705,-0.976185,-0.511481,-9.76003,3.34584,-5.62024,88.4294
2023-03-11 15:13:57:715,-0.932085,-0.536511,-9.72335,3.34234,-5.60427,88.3863
2023-03-11 15:13:57:725,-0.911975,-0.516749,-9.76091,3.3371,-5.58828,88.339
2023-03-11 15:13:57:735,-0.878684,-0.519334,-9.7963,3.33646,-5.56531,88.2971
2023-03-11 15:13:57:745,-0.855445,-0.574887,-9.74497,3.33722,-5.54798,88.2555
2023-03-11 15:13:57:755,-0.848937,-0.589325,-9.72573,3.33929,-5.53383,88.2164
2023-03-11 15:13:57:765,-0.886419,-0.548633,-9.77968,3.33632,-5.51553,88.1853
2023-03-11 15:13:57:775,-0.890534,-0.572601,-9.76872,3.33709,-5.4984,88.1545
2023-03-11 15:13:57:785,-0.866925,-0.618021,-9.71363,3.33782,-5.47527,88.1302
2023-03-11 15:13:57:795,-0.895469,-0.623082,-9.67232,3.33958,-5.45335,88.1075
2023-03-11 15:13:57:805,-0.900634,-0.598171,-9.65373,3.33904,-5.42954,88.0868
2023-03-11 15:13:57:815,-0.884105,-0.587312,-9.64998,3.33734,-5.40202,88.0683
2023-03-11 15:13:57:825,-0.868948,-0.606551,-9.66091,3.33224,-5.37719,88.0507
2023-03-11 15:13:57:835,-0.856396,-0.608169,-9.69471,3.32377,-5.34883,88.0313
2023-03-11 15:13:57:845,-0.827982,-0.58766,-9.72904,3.3131,-5.31569,88.0107
2023-03-11 15:13:57:855,-0.787314,-0.591545,-9.74665,3.29988,-5.28342,87.9903
2023-03-11 15:13:57:865,-0.763122,-0.601864,-9.72477,3.29291,-5.25574,87.9709
2023-03-11 15:13:57:875,-0.760772,-0.592884,-9.70391,3.28345,-5.234,87.9507
2023-03-11 15:13:57:885,-0.78585,-0.571576,-9.6945,3.26299,-5.21595,87.9367
2023-03-11 15:13:57:895,-0.822708,-0.528471,-9.71657,3.2444,-5.19748,87.9245
2023-03-11 15:13:57:905,-0.867122,-0.517369,-9.70886,3.21795,-5.17875,87.9161
2023-03-11 15:13:57:915,-0.870524,-0.477391,-9.72234,3.18605,-5.16592,87.9088
2023-03-11 15:13:57:925,-0.867909,-0.404616,-9.78716,3.1502,-5.15086,87.9066
2023-03-11 15:13:57:935,-0.847273,-0.38045,-9.82499,3.11779,-5.13453,87.8939
2023-03-11 15:13:57:945,-0.84292,-0.386242,-9.80699,3.09148,-5.11535,87.8769
2023-03-11 15:13:57:955,-0.816662,-0.397709,-9.77824,3.07375,-5.09652,87.8631
2023-03-11 15:13:57:965,-0.795998,-0.411819,-9.76897,3.05778,-5.07886,87.8489
2023-03-11 15:13:57:975,-0.797396,-0.415484,-9.76609,3.04602,-5.06275,87.8344
2023-03-11 15:13:57:985,-0.793039,-0.417333,-9.79819,3.03768,-5.05412,87.819
2023-03-11 15:13:57:995,-0.770333,-0.422953,-9.81057,3.03026,-5.04354,87.7995
2023-03-11 15:13:58:5,-0.780341,-0.450898,-9.80578,3.02309,-5.03671,87.7827
2023-03-11 15:13:58:15,-0.824177,-0.446583,-9.83569,3.02375,-5.02936,87.7659
2023-03-11 15:13:58:25,-0.824796,-0.440677,-9.83913,3.02678,-5.02223,87.751
2023-03-11 15:13:58:35,-0.803448,-0.461537,-9.79648,3.03535,-5.01949,87.7335
2023-03-11 15:13:58:45,-0.798802,-0.49946,-9.76584,3.04384,-5.01921,87.7218
2023-03-11 15:13:58:55,-0.826223,-0.534301,-9.73941,3.04941,-5.02286,87.706
2023-03-11 15:13:58:65,-0.875439,-0.509653,-9.77359,3.05209,-5.02545,87.6962
2023-03-11 15:13:58:75,-0.913761,-0.47043,-9.78906,3.05982,-5.0282,87.6875
2023-03-11 15:13:58:85,-0.878027,-0.49103,-9.77002,3.06601,-5.02603,87.6791
2023-03-11 15:13:58:95,-0.833208,-0.542929,-9.74555,3.07835,-5.02332,87.6641
2023-03-11 15:13:58:105,-0.830814,-0.554562,-9.73626,3.0932,-5.02672,87.6527
2023-03-11 15:13:58:115,-0.873533,-0.532555,-9.73877,3.10526,-5.0249,87.6381
2023-03-11 15:13:58:125,-0.899839,-0.533221,-9.75099,3.1181,-5.02391,87.6272
2023-03-11 15:13:58:135,-0.878102,-0.551658,-9.74187,3.13261,-5.02088,87.6125
2023-03-11 15:13:58:145,-0.838453,-0.567615,-9.73376,3.14557,-5.01678,87.591
2023-03-11 15:13:58:155,-0.829264,-0.566943,-9.72039,3.15845,-5.00868,87.5697
2023-03-11 15:13:58:165,-0.797419,-0.560075,-9.71484,3.17557,-4.99855,87.548
2023-03-11 15:13:58:175,-0.782798,-0.567268,-9.72315,3.18831,-4.98973,87.5285
2023-03-11 15:13:58:185,-0.776486,-0.570353,-9.69787,3.20048,-4.98714,87.5078
2023-03-11 15:13:58:195,-0.745222,-0.586501,-9.70364,3.2118,-4.98239,87.4915
2023-03-11 15:13:58:205,-0.712996,-0.605873,-9.69155,3.22312,-4.97917,87.4736
2023-03-11 15:13:58:215,-0.707291,-0.603125,-9.67855,3.23429,-4.98184,87.4583
2023-03-11 15:13:58:225,-0.726224,-0.593328,-9.67524,3.23904,-4.98784,87.4468
2023-03-11 15:13:58:235,-0.746785,-0.573787,-9.68746,3.23814,-4.99076,87.4373
2023-03-11 15:13:58:245,-0.753515,-0.562394,-9.69597,3.23893,-4.99839,87.4307
2023-03-11 15:13:58:255,-0.749354,-0.550562,-9.72122,3.23544,-5.00311,87.4302
2023-03-11 15:13:58:265,-0.767172,-0.536752,-9.74871,3.23554,-5.00861,87.4321
2023-03-11 15:13:58:275,-0.772982,-0.530887,-9.74689,3.23618,-5.01167,87.4395
2023-03-11 15:13:58:285,-0.778638,-0.540354,-9.74735,3.23652,-5.01752,87.4473
2023-03-11 15:13:58:295,-0.799418,-0.556188,-9.73091,3.23719,-5.02674,87.4558
2023-03-11 15:13:58:305,-0.815886,-0.544074,-9.70815,3.23171,-5.04286,87.4675
2023-03-11 15:13:58:315,-0.843867,-0.51948,-9.72932,3.22753,-5.05856,87.4843
2023-03-11 15:13:58:325,-0.897538,-0.499936,-9.74947,3.21802,-5.07622,87.4983
2023-03-11 15:13:58:335,-0.91404,-0.48108,-9.74607,3.2105,-5.0912,87.5115
2023-03-11 15:13:58:345,-0.922634,-0.477285,-9.75298,3.2066,-5.1049,87.5244
2023-03-11 15:13:58:355,-0.934387,-0.483679,-9.75964,3.20314,-5.11751,87.536
2023-03-11 15:13:58:365,-0.925309,-0.482464,-9.73791,3.19983,-5.12755,87.5462
2023-03-11 15:13:58:375,-0.940578,-0.483061,-9.71527,3.20038,-5.13225,87.5531
2023-03-11 15:13:58:385,-0.905229,-0.503961,-9.69385,3.20106,-5.13756,87.5573
2023-03-11 15:13:58:395,-0.834461,-0.511278,-9.69033,3.19619,-5.13811,87.5573
2023-03-11 15:13:58:405,-0.771309,-0.510114,-9.71956,3.19041,-5.1352,87.5527
2023-03-11 15:13:58:415,-0.715564,-0.509132,-9.76161,3.18697,-5.13958,87.5478
2023-03-11 15:13:58:425,-0.721432,-0.490023,-9.78859,3.17823,-5.14687,87.5466
2023-03-11 15:13:58:435,-0.763934,-0.463385,-9.79355,3.17348,-5.1645,87.5469
2023-03-11 15:13:58:445,-0.801855,-0.477561,-9.79975,3.1712,-5.18399,87.5465
2023-03-11 15:13:58:455,-0.859066,-0.478739,-9.79329,3.16836,-5.20205,87.551
2023-03-11 15:13:58:465,-0.866306,-0.477136,-9.80361,3.16812,-5.21909,87.5506
2023-03-11 15:13:58:475,-0.846751,-0.490913,-9.80277,3.17658,-5.2381,87.5494
2023-03-11 15:13:58:485,-0.835321,-0.506206,-9.76987,3.18198,-5.25837,87.5516
2023-03-11 15:13:58:495,-0.849626,-0.525449,-9.69724,3.18839,-5.28655,87.5511
2023-03-11 15:13:58:505,-0.853008,-0.52893,-9.70123,3.19696,-5.30731,87.552
2023-03-11 15:13:58:515,-0.879591,-0.560432,-9.66834,3.20332,-5.33581,87.5502
2023-03-11 15:13:58:525,-0.907658,-0.506741,-9.74209,3.20812,-5.35513,87.5561
2023-03-11 15:13:58:535,-0.895069,-0.540242,-9.72079,3.21569,-5.36749,87.5573
2023-03-11 15:13:58:545,-0.870739,-0.581713,-9.65266,3.22842,-5.38018,87.5522
2023-03-11 15:13:58:555,-0.840885,-0.55233,-9.66943,3.23133,-5.39146,87.5535
2023-03-11 15:13:58:565,-0.783176,-0.555021,-9.73089,3.23364,-5.39777,87.5508
2023-03-11 15:13:58:575,-0.756427,-0.589571,-9.7215,3.23767,-5.40946,87.5543
2023-03-11 15:13:58:585,-0.781082,-0.606077,-9.71881,3.23785,-5.42631,87.5624
2023-03-11 15:13:58:595,-0.796111,-0.595525,-9.75295,3.23099,-5.44468,87.577
2023-03-11 15:13:58:605,-0.780876,-0.595167,-9.78038,3.22182,-5.47404,87.5961
2023-03-11 15:13:58:615,-0.808288,-0.583777,-9.74687,3.21495,-5.50695,87.6238
2023-03-11 15:13:58:625,-0.901859,-0.56858,-9.68373,3.20435,-5.54208,87.6533
2023-03-11 15:13:58:635,-1.01577,-0.518024,-9.73279,3.19611,-5.5798,87.6901
2023-03-11 15:13:58:645,-1.02712,-0.546141,-9.81247,3.18786,-5.60685,87.7305
2023-03-11 15:13:58:655,-1.11135,-0.600209,-9.70825,3.18078,-5.65343,87.7673
2023-03-11 15:13:58:665,-1.2331,-0.48882,-9.82099,3.16546,-5.68403,87.806
2023-03-11 15:13:58:675,-1.25445,-0.470612,-9.7772,3.15131,-5.71474,87.8476
2023-03-11 15:13:58:684,-1.3105,-0.452584,-9.68257,3.13629,-5.73744,87.8751
2023-03-11 15:13:58:694,-1.3265,-0.394495,-9.64463,3.12631,-5.74402,87.8963
2023-03-11 15:13:58:705,-1.2654,-0.407147,-9.6254,3.12035,-5.74084,87.9021
2023-03-11 15:13:58:715,-1.08813,-0.434374,-9.6362,3.11653,-5.72677,87.8941
2023-03-11 15:13:58:725,-0.956661,-0.475024,-9.68595,3.11407,-5.7089,87.8744
2023-03-11 15:13:58:735,-0.920835,-0.505309,-9.70622,3.11003,-5.69772,87.8539
2023-03-11 15:13:58:745,-0.916691,-0.502808,-9.78686,3.10552,-5.69397,87.8275
2023-03-11 15:13:58:755,-0.950809,-0.489792,-9.84378,3.10636,-5.69645,87.8038
2023-03-11 15:13:58:765,-0.962525,-0.522282,-9.84585,3.11252,-5.69681,87.778
2023-03-11 15:13:58:775,-0.952007,-0.574935,-9.75058,3.11855,-5.70177,87.7532
2023-03-11 15:13:58:785,-0.952213,-0.566868,-9.66127,3.12111,-5.70993,87.7306
2023-03-11 15:13:58:795,-0.963932,-0.533535,-9.65271,3.11768,-5.71764,87.7143
2023-03-11 15:13:58:805,-1.0078,-0.492704,-9.68825,3.1108,-5.71701,87.7044
2023-03-11 15:13:58:815,-1.01291,-0.468009,-9.74975,3.10252,-5.71106,87.6963
2023-03-11 15:13:58:825,-0.975899,-0.468231,-9.78057,3.0909,-5.70891,87.6898
2023-03-11 15:13:58:835,-0.937583,-0.49425,-9.78814,3.08343,-5.70288,87.6836
2023-03-11 15:13:58:845,-0.92984,-0.521803,-9.76463,3.07992,-5.69683,87.6816
2023-03-11 15:13:58:855,-0.995222,-0.527198,-9.70241,3.07584,-5.69362,87.6842
2023-03-11 15:13:58:865,-1.09863,-0.527185,-9.62204,3.07083,-5.69214,87.6917
2023-03-11 15:13:58:875,-1.15121,-0.526381,-9.60859,3.06389,-5.68572,87.6959
2023-03-11 15:13:58:885,-1.15066,-0.495987,-9.61759,3.0505,-5.67936,87.6933
2023-03-11 15:13:58:895,-1.1022,-0.471811,-9.65572,3.03472,-5.66549,87.6877
2023-03-11 15:13:58:905,-1.02494,-0.455693,-9.69093,3.01833,-5.6432,87.6762
2023-03-11 15:13:58:915,-0.957921,-0.466527,-9.68597,3.00188,-5.62344,87.6589
2023-03-11 15:13:58:925,-0.920861,-0.460557,-9.68331,2.98519,-5.60743,87.6399
2023-03-11 15:13:58:935,-0.905951,-0.460128,-9.71123,2.96605,-5.59605,87.621
2023-03-11 15:13:58:945,-0.863858,-0.465904,-9.74556,2.94766,-5.59061,87.6011
2023-03-11 15:13:58:955,-0.826016,-0.467298,-9.75179,2.92858,-5.59099,87.5773
2023-03-11 15:13:58:965,-0.851568,-0.449132,-9.74415,2.9083,-5.60031,87.559
2023-03-11 15:13:58:975,-0.893994,-0.430656,-9.77796,2.8833,-5.61787,87.5529
2023-03-11 15:13:58:985,-0.964586,-0.396313,-9.82179,2.85899,-5.63448,87.5497
2023-03-11 15:13:58:995,-0.988709,-0.357696,-9.86539,2.83907,-5.65423,87.5517
2023-03-11 15:13:59:5,-0.988704,-0.350116,-9.8802,2.82264,-5.66643,87.5544
2023-03-11 15:13:59:15,-1.03804,-0.358958,-9.85936,2.80963,-5.68097,87.5628
2023-03-11 15:13:59:25,-1.10131,-0.345893,-9.84586,2.80119,-5.69338,87.5728
2023-03-11 15:13:59:35,-1.14326,-0.358767,-9.81833,2.80016,-5.70228,87.5874
2023-03-11 15:13:59:45,-1.1857,-0.382547,-9.79131,2.80742,-5.71037,87.5996
2023-03-11 15:13:59:55,-1.20195,-0.379402,-9.76762,2.81732,-5.71225,87.6074
2023-03-11 15:13:59:65,-1.17933,-0.421379,-9.7235,2.8291,-5.70793,87.6156
2023-03-11 15:13:59:75,-1.13565,-0.450697,-9.68128,2.84279,-5.698,87.6131
2023-03-11 15:13:59:85,-1.08864,-0.460807,-9.69559,2.85197,-5.69042,87.6083
2023-03-11 15:13:59:95,-1.06818,-0.469637,-9.67718,2.86183,-5.67827,87.5995
2023-03-11 15:13:59:105,-1.05664,-0.457404,-9.68207,2.87177,-5.66228,87.5907
2023-03-11 15:13:59:115,-1.04026,-0.45364,-9.69436,2.87573,-5.64858,87.5784
2023-03-11 15:13:59:125,-1.02009,-0.446961,-9.70223,2.87811,-5.63252,87.5625
2023-03-11 15:13:59:135,-1.00179,-0.426178,-9.72191,2.88108,-5.61131,87.5422
2023-03-11 15:13:59:145,-0.977171,-0.422291,-9.73883,2.88329,-5.59137,87.5238
2023-03-11 15:13:59:155,-0.956299,-0.453951,-9.7496,2.89007,-5.57131,87.5024
2023-03-11 15:13:59:165,-0.929412,-0.459231,-9.73898,2.89922,-5.5513,87.4749
2023-03-11 15:13:59:175,-0.906547,-0.458293,-9.7023,2.90802,-5.53264,87.4454
2023-03-11 15:13:59:185,-0.874249,-0.483239,-9.69537,2.91566,-5.51825,87.4169
2023-03-11 15:13:59:194,-0.851288,-0.512797,-9.69327,2.92181,-5.5015,87.3892
2023-03-11 15:13:59:205,-0.808384,-0.534928,-9.70675,2.92287,-5.49044,87.3613
2023-03-11 15:13:59:215,-0.765088,-0.507952,-9.74581,2.9218,-5.48126,87.3377
2023-03-11 15:13:59:225,-0.801912,-0.482638,-9.75651,2.91446,-5.47756,87.3175
2023-03-11 15:13:59:235,-0.865899,-0.454322,-9.76085,2.90962,-5.47989,87.3043
2023-03-11 15:13:59:245,-0.913,-0.443337,-9.76878,2.90888,-5.47925,87.2978
2023-03-11 15:13:59:255,-0.93498,-0.451843,-9.75819,2.91151,-5.46997,87.2952
2023-03-11 15:13:59:265,-0.922514,-0.459732,-9.74221,2.91571,-5.45871,87.2951
2023-03-11 15:13:59:275,-0.926465,-0.466196,-9.72745,2.91907,-5.44507,87.2973
2023-03-11 15:13:59:285,-0.961996,-0.461192,-9.73198,2.92336,-5.43228,87.2994
2023-03-11 15:13:59:295,-0.970998,-0.449498,-9.73243,2.92922,-5.41441,87.302
2023-03-11 15:13:59:305,-0.959556,-0.453166,-9.70988,2.93742,-5.3926,87.297
2023-03-11 15:13:59:315,-0.943095,-0.491981,-9.70232,2.94752,-5.37502,87.2873
2023-03-11 15:13:59:325,-0.937186,-0.527124,-9.72711,2.95385,-5.3609,87.2771
2023-03-11 15:13:59:335,-0.914277,-0.489324,-9.78549,2.95624,-5.34793,87.2618
2023-03-11 15:13:59:345,-0.873188,-0.453193,-9.84258,2.95833,-5.3328,87.2446
2023-03-11 15:13:59:355,-0.837906,-0.494658,-9.81564,2.96853,-5.32155,87.2237
2023-03-11 15:13:59:365,-0.824085,-0.565459,-9.72494,2.98194,-5.3142,87.1993
2023-03-11 15:13:59:375,-0.836111,-0.600415,-9.68268,2.98916,-5.31565,87.1765
2023-03-11 15:13:59:385,-0.857187,-0.587441,-9.68342,2.99373,-5.3172,87.1539
2023-03-11 15:13:59:395,-0.885313,-0.542646,-9.67507,2.99135,-5.32328,87.1273
2023-03-11 15:13:59:405,-0.909801,-0.463747,-9.73426,2.98306,-5.31954,87.1043
2023-03-11 15:13:59:415,-0.864122,-0.452684,-9.75744,2.97532,-5.30528,87.0816
2023-03-11 15:13:59:425,-0.787732,-0.506361,-9.68476,2.97232,-5.29061,87.0561
2023-03-11 15:13:59:435,-0.78069,-0.502273,-9.66433,2.97126,-5.27455,87.0337
2023-03-11 15:13:59:445,-0.779771,-0.487325,-9.68065,2.96814,-5.2548,87.0213
2023-03-11 15:13:59:455,-0.748965,-0.507698,-9.64192,2.96586,-5.23178,87.0087
2023-03-11 15:13:59:465,-0.72634,-0.550244,-9.60931,2.9614,-5.20608,86.9982
2023-03-11 15:13:59:475,-0.700442,-0.551365,-9.60024,2.94996,-5.17852,86.9929
2023-03-11 15:13:59:485,-0.671139,-0.537362,-9.58439,2.93287,-5.15056,86.9892
2023-03-11 15:13:59:495,-0.671193,-0.508381,-9.61075,2.90629,-5.12486,86.9941
2023-03-11 15:13:59:505,-0.641894,-0.498796,-9.7304,2.87961,-5.09316,87.004
2023-03-11 15:13:59:515,-0.627644,-0.518063,-9.75585,2.84491,-5.07528,87.0133
2023-03-11 15:13:59:525,-0.690481,-0.433558,-9.89618,2.80703,-5.06228,87.0223
2023-03-11 15:13:59:535,-0.717909,-0.419376,-9.8958,2.77255,-5.06097,87.0405
2023-03-11 15:13:59:545,-0.849444,-0.429769,-9.84301,2.7431,-5.06933,87.0595
2023-03-11 15:13:59:555,-0.98893,-0.360248,-9.86438,2.71276,-5.07795,87.0787
2023-03-11 15:13:59:565,-1.04664,-0.300144,-9.87439,2.68956,-5.08149,87.0882
2023-03-11 15:13:59:575,-0.90373,-0.28816,-9.89834,2.67647,-5.06832,87.0842
2023-03-11 15:13:59:585,-0.664509,-0.383104,-9.82155,2.6769,-5.05,87.0704
2023-03-11 15:13:59:595,-0.554534,-0.461003,-9.76242,2.68041,-5.04203,87.0527
2023-03-11 15:13:59:605,-0.580313,-0.445751,-9.81011,2.68101,-5.04275,87.0486
2023-03-11 15:13:59:615,-0.672109,-0.423888,-9.83872,2.67872,-5.05134,87.0562
2023-03-11 15:13:59:625,-0.744187,-0.439814,-9.81054,2.68095,-5.06805,87.0742
2023-03-11 15:13:59:635,-0.807634,-0.457316,-9.75826,2.6853,-5.08307,87.0951
2023-03-11 15:13:59:645,-0.865997,-0.455443,-9.70969,2.69267,-5.10035,87.1213
2023-03-11 15:13:59:655,-0.899106,-0.414364,-9.70412,2.68868,-5.11177,87.1502
2023-03-11 15:13:59:665,-0.915092,-0.367573,-9.72756,2.68582,-5.11779,87.1825
2023-03-11 15:13:59:675,-0.878342,-0.363379,-9.7571,2.68771,-5.12105,87.212
2023-03-11 15:13:59:685,-0.820054,-0.401137,-9.77066,2.69488,-5.11903,87.2414
2023-03-11 15:13:59:695,-0.766192,-0.432916,-9.74656,2.70606,-5.1191,87.2705
2023-03-11 15:13:59:704,-0.758597,-0.450053,-9.7343,2.71253,-5.1219,87.2955
2023-03-11 15:13:59:714,-0.795781,-0.448319,-9.72548,2.71997,-5.13687,87.3293
2023-03-11 15:13:59:725,-0.845444,-0.449008,-9.69817,2.72526,-5.15877,87.3641
2023-03-11 15:13:59:735,-0.887109,-0.452863,-9.70226,2.72641,-5.1851,87.4002
2023-03-11 15:13:59:745,-0.921687,-0.447963,-9.71965,2.72605,-5.21596,87.4365
2023-03-11 15:13:59:755,-0.941079,-0.437333,-9.73314,2.72256,-5.24667,87.4775
2023-03-11 15:13:59:765,-0.967102,-0.434251,-9.73702,2.71933,-5.27493,87.5166
2023-03-11 15:13:59:775,-1.0005,-0.420729,-9.73893,2.71581,-5.307,87.5619
2023-03-11 15:13:59:785,-1.0138,-0.426173,-9.7369,2.71902,-5.3391,87.611
2023-03-11 15:13:59:795,-1.0295,-0.421109,-9.72394,2.71796,-5.36782,87.6587
2023-03-11 15:13:59:805,-1.05299,-0.412735,-9.7179,2.71937,-5.39738,87.7057
2023-03-11 15:13:59:815,-1.07499,-0.414312,-9.70313,2.7163,-5.42291,87.7545
2023-03-11 15:13:59:825,-1.08348,-0.41929,-9.71397,2.71299,-5.44364,87.8024
2023-03-11 15:13:59:835,-1.06826,-0.399189,-9.7488,2.71076,-5.45554,87.8501
2023-03-11 15:13:59:845,-1.03218,-0.398172,-9.78514,2.70962,-5.4621,87.8944
2023-03-11 15:13:59:855,-0.973715,-0.401139,-9.78817,2.71139,-5.46464,87.94
2023-03-11 15:13:59:865,-0.897959,-0.400629,-9.79951,2.71632,-5.4603,87.9944
2023-03-11 15:13:59:875,-0.832179,-0.402616,-9.79052,2.72761,-5.45311,88.049
2023-03-11 15:13:59:885,-0.84012,-0.414772,-9.75533,2.74046,-5.44131,88.1062
2023-03-11 15:13:59:895,-0.869941,-0.416764,-9.721,2.75446,-5.43414,88.1708
2023-03-11 15:13:59:905,-0.85811,-0.409342,-9.74648,2.76794,-5.42207,88.2406
2023-03-11 15:13:59:915,-0.78586,-0.394784,-9.79608,2.77695,-5.40949,88.3166
2023-03-11 15:13:59:925,-0.638061,-0.352488,-9.8402,2.78946,-5.39673,88.4018
2023-03-11 15:13:59:935,-0.389479,-0.328387,-9.90994,2.80673,-5.38272,88.4904
2023-03-11 15:13:59:945,-0.0637829,-0.366322,-10.0338,2.82612,-5.37306,88.5895
2023-03-11 15:13:59:955,0.114446,-0.346769,-10.1486,2.8561,-5.38488,88.7195
2023-03-11 15:13:59:965,-0.0207157,-0.305899,-10.1637,2.89166,-5.41159,88.8956
2023-03-11 15:13:59:975,-0.312165,-0.308167,-10.0983,2.9457,-5.45802,89.1193
2023-03-11 15:13:59:985,-0.54,-0.30167,-10.0022,3.01376,-5.49947,89.3768
2023-03-11 15:13:59:995,-0.65408,-0.354961,-9.90998,3.0991,-5.5314,89.6541
2023-03-11 15:14:00:5,-0.673384,-0.450134,-9.84851,3.1913,-5.55057,89.9486
2023-03-11 15:14:00:15,-0.697372,-0.516361,-9.76491,3.29038,-5.55998,90.2542
2023-03-11 15:14:00:25,-0.755148,-0.570432,-9.68385,3.39297,-5.56767,90.5734
2023-03-11 15:14:00:35,-0.841804,-0.581956,-9.65538,3.48956,-5.57786,90.8997
2023-03-11 15:14:00:45,-0.894244,-0.602559,-9.6729,3.57896,-5.59328,91.2302
2023-03-11 15:14:00:55,-0.932311,-0.608346,-9.70348,3.66338,-5.60771,91.5592
2023-03-11 15:14:00:65,-1.00402,-0.615854,-9.72679,3.7471,-5.62746,91.8814
2023-03-11 15:14:00:75,-1.08362,-0.645618,-9.69384,3.83022,-5.65384,92.1935
2023-03-11 15:14:00:85,-1.1697,-0.694453,-9.60781,3.91533,-5.68515,92.4963
2023-03-11 15:14:00:95,-1.23941,-0.734284,-9.54017,4.00077,-5.72748,92.7889
2023-03-11 15:14:00:105,-1.30245,-0.745003,-9.49166,4.07604,-5.77189,93.0641
2023-03-11 15:14:00:115,-1.33815,-0.742182,-9.47775,4.14012,-5.81837,93.3189
2023-03-11 15:14:00:125,-1.33385,-0.734486,-9.47784,4.19686,-5.86731,93.5533
2023-03-11 15:14:00:135,-1.31114,-0.744122,-9.48119,4.24049,-5.92017,93.7675
2023-03-11 15:14:00:145,-1.32659,-0.742043,-9.49143,4.27489,-5.97453,93.9656
2023-03-11 15:14:00:155,-1.36588,-0.723634,-9.5032,4.30448,-6.03318,94.1476
2023-03-11 15:14:00:165,-1.39754,-0.717816,-9.51621,4.3302,-6.09467,94.3119
2023-03-11 15:14:00:175,-1.43299,-0.720645,-9.51728,4.34775,-6.15314,94.4535
2023-03-11 15:14:00:184,-1.46076,-0.71802,-9.52862,4.3628,-6.21371,94.5792
2023-03-11 15:14:00:195,-1.48599,-0.729949,-9.53527,4.37379,-6.27012,94.6832
2023-03-11 15:14:00:205,-1.49068,-0.74659,-9.54147,4.38421,-6.32722,94.7682
2023-03-11 15:14:00:215,-1.479,-0.75465,-9.5577,4.386,-6.37647,94.8374
2023-03-11 15:14:00:225,-1.48526,-0.758109,-9.56914,4.38548,-6.42191,94.8896
2023-03-11 15:14:00:235,-1.45282,-0.765342,-9.58357,4.37737,-6.46953,94.9218
2023-03-11 15:14:00:245,-1.39156,-0.735992,-9.64822,4.36564,-6.50609,94.9357
2023-03-11 15:14:00:255,-1.3312,-0.69377,-9.72794,4.34961,-6.54064,94.9363
2023-03-11 15:14:00:265,-1.27851,-0.683354,-9.78349,4.33836,-6.56753,94.9276
2023-03-11 15:14:00:275,-1.25048,-0.689188,-9.77231,4.33291,-6.59348,94.9095
2023-03-11 15:14:00:285,-1.23388,-0.682368,-9.76188,4.32635,-6.62037,94.8917
2023-03-11 15:14:00:295,-1.22754,-0.658018,-9.76556,4.32305,-6.63954,94.8717
2023-03-11 15:14:00:305,-1.20707,-0.656344,-9.75743,4.32284,-6.657,94.8518
2023-03-11 15:14:00:315,-1.19199,-0.679285,-9.74959,4.32575,-6.66599,94.83
2023-03-11 15:14:00:325,-1.21081,-0.690349,-9.73781,4.32959,-6.67574,94.81
2023-03-11 15:14:00:335,-1.23151,-0.694337,-9.73417,4.33597,-6.68035,94.7885
2023-03-11 15:14:00:345,-1.22478,-0.728884,-9.7232,4.34943,-6.68074,94.7651
2023-03-11 15:14:00:355,-1.20403,-0.774288,-9.69689,4.36719,-6.68193,94.7371
2023-03-11 15:14:00:365,-1.17826,-0.774719,-9.71274,4.38732,-6.682,94.7113
2023-03-11 15:14:00:375,-1.17596,-0.797016,-9.69333,4.41043,-6.6781,94.6863
2023-03-11 15:14:00:385,-1.18562,-0.834589,-9.63786,4.43333,-6.67669,94.6584
2023-03-11 15:14:00:395,-1.19706,-0.855973,-9.59316,4.45269,-6.67294,94.6289
2023-03-11 15:14:00:405,-1.19172,-0.858519,-9.5807,4.47251,-6.6647,94.5958
2023-03-11 15:14:00:415,-1.17097,-0.860371,-9.5827,4.49016,-6.65688,94.5605
2023-03-11 15:14:00:425,-1.14551,-0.860958,-9.58767,4.50398,-6.64915,94.5218
2023-03-11 15:14:00:435,-1.11516,-0.861877,-9.58376,4.51597,-6.63432,94.4797
2023-03-11 15:14:00:445,-1.08963,-0.857963,-9.57666,4.52887,-6.62439,94.4336
2023-03-11 15:14:00:455,-1.07105,-0.862554,-9.59063,4.53633,-6.60954,94.3834
2023-03-11 15:14:00:465,-1.04562,-0.842521,-9.59351,4.5386,-6.59394,94.3335
2023-03-11 15:14:00:475,-1.04569,-0.846308,-9.59609,4.5403,-6.57924,94.2857
2023-03-11 15:14:00:485,-1.04529,-0.837347,-9.58785,4.53867,-6.57267,94.2405
2023-03-11 15:14:00:495,-1.05036,-0.812817,-9.5881,4.53202,-6.56609,94.1927
2023-03-11 15:14:00:505,-1.07645,-0.798843,-9.60372,4.52091,-6.55682,94.141
2023-03-11 15:14:00:515,-1.07608,-0.805564,-9.60247,4.50845,-6.54222,94.0894
2023-03-11 15:14:00:525,-1.02128,-0.813743,-9.60567,4.49372,-6.52705,94.036
2023-03-11 15:14:00:535,-0.978363,-0.808833,-9.61581,4.47301,-6.51104,93.9831
2023-03-11 15:14:00:545,-0.955483,-0.808625,-9.62124,4.44626,-6.5008,93.9309
2023-03-11 15:14:00:555,-0.997508,-0.780634,-9.659,4.41677,-6.49334,93.8867
2023-03-11 15:14:00:565,-0.997807,-0.704823,-9.76642,4.37817,-6.4794,93.8432
2023-03-11 15:14:00:575,-0.964699,-0.73967,-9.7334,4.34649,-6.47484,93.7964
2023-03-11 15:14:00:585,-1.00463,-0.726983,-9.73906,4.31374,-6.47268,93.7471
2023-03-11 15:14:00:595,-0.990551,-0.710201,-9.75705,4.28155,-6.47462,93.706
2023-03-11 15:14:00:605,-1.07989,-0.66971,-9.70974,4.24693,-6.47376,93.6663
2023-03-11 15:14:00:615,-1.14034,-0.641399,-9.71543,4.21732,-6.47467,93.6278
2023-03-11 15:14:00:625,-1.13544,-0.642116,-9.6943,4.18955,-6.47055,93.5853
2023-03-11 15:14:00:635,-1.10673,-0.660556,-9.65498,4.16476,-6.46836,93.5413
2023-03-11 15:14:00:645,-1.07522,-0.634209,-9.72247,4.1341,-6.46592,93.4952
2023-03-11 15:14:00:655,-1.07141,-0.593243,-9.82636,4.10692,-6.46544,93.4451
2023-03-11 15:14:00:665,-1.0646,-0.586851,-9.89122,4.08467,-6.4675,93.3967
2023-03-11 15:14:00:675,-1.0701,-0.601884,-9.88614,4.06743,-6.4724,93.3449
2023-03-11 15:14:00:685,-1.09815,-0.626623,-9.82842,4.06038,-6.47785,93.2919
2023-03-11 15:14:00:695,-1.13322,-0.642016,-9.77483,4.06193,-6.48775,93.2372
2023-03-11 15:14:00:705,-1.16685,-0.6685,-9.75583,4.06987,-6.49493,93.182
2023-03-11 15:14:00:715,-1.18296,-0.688048,-9.7425,4.0802,-6.50248,93.1249
2023-03-11 15:14:00:725,-1.19349,-0.736272,-9.70611,4.09147,-6.50858,93.0652
2023-03-11 15:14:00:735,-1.2035,-0.734117,-9.67592,4.10164,-6.51413,93.0009
2023-03-11 15:14:00:745,-1.18299,-0.73935,-9.6796,4.11237,-6.51765,92.9352
2023-03-11 15:14:00:755,-1.11464,-0.737128,-9.69071,4.11936,-6.51557,92.8649
2023-03-11 15:14:00:765,-1.07846,-0.754307,-9.68556,4.12675,-6.51444,92.7911
2023-03-11 15:14:00:775,-1.08794,-0.777052,-9.67172,4.13416,-6.51475,92.7158
2023-03-11 15:14:00:785,-1.076,-0.7729,-9.68452,4.13981,-6.51601,92.644
2023-03-11 15:14:00:795,-1.03842,-0.75576,-9.68872,4.14546,-6.51775,92.5694
2023-03-11 15:14:00:805,-1.00276,-0.767638,-9.65105,4.15333,-6.51756,92.4925
2023-03-11 15:14:00:815,-0.96343,-0.79488,-9.63047,4.15777,-6.52125,92.416
2023-03-11 15:14:00:825,-1.00142,-0.80548,-9.5995,4.15633,-6.53701,92.3449
2023-03-11 15:14:00:835,-1.06402,-0.774644,-9.62051,4.14673,-6.55905,92.2793
2023-03-11 15:14:00:845,-1.13592,-0.724502,-9.64298,4.13321,-6.58637,92.214
2023-03-11 15:14:00:855,-1.16316,-0.698116,-9.65046,4.11607,-6.6088,92.1497
2023-03-11 15:14:00:865,-1.15297,-0.668694,-9.65144,4.09507,-6.63032,92.0865
2023-03-11 15:14:00:875,-1.15581,-0.651455,-9.65077,4.07118,-6.6526,92.0234
2023-03-11 15:14:00:885,-1.15708,-0.61699,-9.66221,4.04652,-6.67534,91.9658
2023-03-11 15:14:00:895,-1.1918,-0.569154,-9.66306,4.01709,-6.6908,91.9103
2023-03-11 15:14:00:905,-1.18741,-0.573779,-9.66064,3.99372,-6.70613,91.8527
2023-03-11 15:14:00:915,-1.16997,-0.580729,-9.67889,3.97039,-6.72165,91.794
2023-03-11 15:14:00:925,-1.15882,-0.591002,-9.68074,3.94771,-6.73558,91.7361
2023-03-11 15:14:00:935,-1.18269,-0.586161,-9.68563,3.92654,-6.74488,91.6806
2023-03-11 15:14:00:945,-1.21491,-0.575418,-9.69411,3.90671,-6.75601,91.6272
2023-03-11 15:14:00:955,-1.24197,-0.586362,-9.70814,3.88404,-6.76247,91.5773
2023-03-11 15:14:00:965,-1.2153,-0.595816,-9.71981,3.86443,-6.76575,91.5229
2023-03-11 15:14:00:975,-1.1983,-0.585467,-9.74008,3.84748,-6.76418,91.4666
2023-03-11 15:14:00:985,-1.19687,-0.563066,-9.74638,3.83056,-6.7638,91.407
2023-03-11 15:14:00:995,-1.19599,-0.55751,-9.76411,3.81352,-6.75981,91.3457
2023-03-11 15:14:01:5,-1.1945,-0.561419,-9.77223,3.79622,-6.75978,91.2853
2023-03-11 15:14:01:15,-1.17778,-0.544085,-9.78101,3.78172,-6.75762,91.2195
2023-03-11 15:14:01:25,-1.16339,-0.531969,-9.75979,3.76919,-6.75542,91.1532
2023-03-11 15:14:01:35,-1.14309,-0.556102,-9.72011,3.75838,-6.7541,91.0788
2023-03-11 15:14:01:45,-1.12996,-0.573015,-9.6787,3.74426,-6.75439,91.0049
2023-03-11 15:14:01:55,-1.13141,-0.576331,-9.69303,3.72934,-6.76113,90.9277
2023-03-11 15:14:01:65,-1.15243,-0.550563,-9.72856,3.71232,-6.76719,90.8547
2023-03-11 15:14:01:75,-1.16824,-0.540857,-9.72683,3.6941,-6.77525,90.7791
2023-03-11 15:14:01:85,-1.18697,-0.530043,-9.72693,3.67455,-6.78889,90.7054
2023-03-11 15:14:01:95,-1.18809,-0.501294,-9.74621,3.65668,-6.79767,90.6361
2023-03-11 15:14:01:105,-1.15822,-0.493574,-9.73494,3.63845,-6.80486,90.5649
2023-03-11 15:14:01:115,-1.13584,-0.495549,-9.70133,3.62484,-6.80806,90.4942
2023-03-11 15:14:01:125,-1.1314,-0.486652,-9.71188,3.61258,-6.81012,90.4263
2023-03-11 15:14:01:135,-1.13484,-0.45971,-9.73202,3.5974,-6.80786,90.3685
2023-03-11 15:14:01:145,-1.13029,-0.459258,-9.73589,3.58734,-6.80019,90.3112
2023-03-11 15:14:01:155,-1.12257,-0.476681,-9.73994,3.57988,-6.79719,90.2584
2023-03-11 15:14:01:165,-1.12694,-0.482849,-9.74944,3.57,-6.79632,90.2076
2023-03-11 15:14:01:174,-1.12017,-0.491959,-9.76642,3.56186,-6.79806,90.1642
2023-03-11 15:14:01:185,-1.12109,-0.543529,-9.72761,3.55219,-6.80765,90.1189
2023-03-11 15:14:01:195,-1.15985,-0.533706,-9.74048,3.53782,-6.82402,90.0828
2023-03-11 15:14:01:205,-1.23386,-0.44748,-9.84491,3.52082,-6.84151,90.0526
2023-03-11 15:14:01:215,-1.25799,-0.443798,-9.86481,3.50885,-6.85309,90.0239
2023-03-11 15:14:01:225,-1.25743,-0.492228,-9.76232,3.50425,-6.86164,89.9876
2023-03-11 15:14:01:235,-1.28434,-0.489383,-9.75547,3.50049,-6.86898,89.9563
