Timestamp,Acceleration_x,Acceleration_y,Acceleration_z,roll,pitch,yaw
2023-01-13 09:56:32:947,-0.0472199,-0.156319,-1.0007,0.148505,-0.0473422,0.83795
2023-01-13 09:56:32:955,-0.0436424,-0.156312,-1.00308,0.148639,-0.0472972,0.83814
2023-01-13 09:56:32:965,-0.0414179,-0.15449,-1.00141,0.148531,-0.0472359,0.838266
2023-01-13 09:56:32:975,-0.0398698,-0.150457,-0.995128,0.148364,-0.0471023,0.838323
2023-01-13 09:56:32:985,-0.0368443,-0.146372,-0.989706,0.148125,-0.0469977,0.838308
2023-01-13 09:56:32:995,-0.0362283,-0.143695,-0.987357,0.147822,-0.0468059,0.838204
2023-01-13 09:56:33:5,-0.03852,-0.141649,-0.987046,0.147554,-0.0467075,0.837949
2023-01-13 09:56:33:15,-0.0429582,-0.142225,-0.988421,0.147293,-0.0466721,0.837741
2023-01-13 09:56:33:25,-0.0503284,-0.142428,-0.989834,0.147117,-0.0466615,0.837579
2023-01-13 09:56:33:35,-0.0550781,-0.142041,-0.990241,0.147006,-0.0466338,0.837459
2023-01-13 09:56:33:45,-0.0546761,-0.141152,-0.990664,0.146772,-0.0464405,0.837364
2023-01-13 09:56:33:55,-0.050458,-0.142089,-0.991474,0.146598,-0.0462625,0.837438
2023-01-13 09:56:33:65,-0.0471304,-0.142767,-0.99153,0.146443,-0.0461191,0.83755
2023-01-13 09:56:33:75,-0.0426382,-0.143215,-0.991525,0.146253,-0.0459406,0.837752
2023-01-13 09:56:33:85,-0.0395184,-0.1428,-0.988835,0.146086,-0.0458649,0.837947
2023-01-13 09:56:33:95,-0.037186,-0.142451,-0.987196,0.145904,-0.0457504,0.838096
2023-01-13 09:56:33:105,-0.0359409,-0.14134,-0.984325,0.145842,-0.0457415,0.838268
2023-01-13 09:56:33:115,-0.0363516,-0.1412,-0.984222,0.145838,-0.0456791,0.838372
2023-01-13 09:56:33:125,-0.037331,-0.141541,-0.983772,0.145866,-0.0456768,0.838389
2023-01-13 09:56:33:135,-0.0406592,-0.142921,-0.983316,0.145894,-0.045706,0.838331
2023-01-13 09:56:33:145,-0.0424205,-0.144261,-0.984111,0.145988,-0.0456821,0.838221
2023-01-13 09:56:33:155,-0.0449537,-0.145108,-0.985487,0.146094,-0.0456289,0.838099
2023-01-13 09:56:33:165,-0.0476551,-0.147434,-0.989944,0.146287,-0.045595,0.837944
2023-01-13 09:56:33:175,-0.0466956,-0.147988,-0.99386,0.146382,-0.0455345,0.837888
2023-01-13 09:56:33:185,-0.0452347,-0.148803,-0.996778,0.146509,-0.0455108,0.837842
2023-01-13 09:56:33:195,-0.0435241,-0.14772,-0.997613,0.146549,-0.0455123,0.837796
2023-01-13 09:56:33:205,-0.04434,-0.147716,-0.995823,0.146534,-0.0454775,0.837785
2023-01-13 09:56:33:215,-0.0415506,-0.14442,-0.990867,0.146465,-0.0454916,0.837821
2023-01-13 09:56:33:225,-0.0390182,-0.143269,-0.988167,0.14645,-0.0454725,0.837833
2023-01-13 09:56:33:235,-0.0374492,-0.142073,-0.986963,0.146504,-0.0455211,0.837786
2023-01-13 09:56:33:245,-0.0368221,-0.142497,-0.986794,0.146652,-0.0456277,0.837758
2023-01-13 09:56:33:255,-0.0419991,-0.145387,-0.987927,0.146841,-0.045881,0.837728
2023-01-13 09:56:33:265,-0.0470722,-0.149237,-0.991465,0.147039,-0.0461336,0.837666
2023-01-13 09:56:33:275,-0.0469499,-0.150935,-0.995242,0.147207,-0.0463148,0.837631
2023-01-13 09:56:33:286,-0.0420866,-0.151958,-0.997723,0.147319,-0.0464428,0.837622
2023-01-13 09:56:33:296,-0.0381668,-0.152067,-0.998244,0.147321,-0.0465645,0.837609
2023-01-13 09:56:33:306,-0.0402051,-0.151206,-0.99782,0.147201,-0.0467643,0.837526
2023-01-13 09:56:33:316,-0.0435996,-0.150602,-0.993573,0.147053,-0.0470354,0.837426
2023-01-13 09:56:33:326,-0.0482143,-0.148258,-0.989653,0.146841,-0.0473658,0.837308
2023-01-13 09:56:33:336,-0.0514303,-0.144594,-0.985207,0.146668,-0.0476738,0.837147
2023-01-13 09:56:33:346,-0.0519076,-0.142752,-0.983947,0.146525,-0.0478828,0.83702
2023-01-13 09:56:33:356,-0.0531457,-0.143146,-0.984065,0.146372,-0.0480514,0.836976
2023-01-13 09:56:33:366,-0.0534843,-0.142917,-0.984138,0.146269,-0.0482282,0.836871
2023-01-13 09:56:33:376,-0.0533726,-0.144708,-0.986166,0.146193,-0.0483781,0.836789
2023-01-13 09:56:33:386,-0.0535602,-0.145506,-0.988827,0.146115,-0.0484633,0.836664
2023-01-13 09:56:33:396,-0.0531926,-0.147962,-0.991153,0.146074,-0.048519,0.836604
2023-01-13 09:56:33:406,-0.051135,-0.149093,-0.993628,0.146022,-0.0485035,0.836591
2023-01-13 09:56:33:416,-0.0504852,-0.147413,-0.995391,0.145871,-0.048442,0.836433
2023-01-13 09:56:33:426,-0.0503019,-0.146898,-0.994476,0.145666,-0.0483944,0.836326
2023-01-13 09:56:33:436,-0.0498542,-0.145,-0.992279,0.145503,-0.0482599,0.836266
2023-01-13 09:56:33:446,-0.0477898,-0.143199,-0.990141,0.145298,-0.0481528,0.836148
2023-01-13 09:56:33:456,-0.0477434,-0.141497,-0.988013,0.145111,-0.0480627,0.836127
2023-01-13 09:56:33:466,-0.0487847,-0.139421,-0.987134,0.144929,-0.0479934,0.836086
2023-01-13 09:56:33:476,-0.0478268,-0.140559,-0.987313,0.144815,-0.0479519,0.836154
2023-01-13 09:56:33:486,-0.0458802,-0.141545,-0.988007,0.144693,-0.0479134,0.836173
2023-01-13 09:56:33:496,-0.0458958,-0.142524,-0.988739,0.144571,-0.0479298,0.836258
2023-01-13 09:56:33:506,-0.0467165,-0.142665,-0.990999,0.144519,-0.0479686,0.836357
2023-01-13 09:56:33:516,-0.0445471,-0.143732,-0.991562,0.144481,-0.0480756,0.836435
2023-01-13 09:56:33:526,-0.0418539,-0.144759,-0.992248,0.144427,-0.0481746,0.836592
2023-01-13 09:56:33:536,-0.0405811,-0.144675,-0.992121,0.144328,-0.0482735,0.836694
2023-01-13 09:56:33:546,-0.0391662,-0.142949,-0.990108,0.14416,-0.0484145,0.836802
2023-01-13 09:56:33:555,-0.0393891,-0.141741,-0.988256,0.143952,-0.0485322,0.836814
2023-01-13 09:56:33:566,-0.0406342,-0.140816,-0.988215,0.14381,-0.0486572,0.836759
2023-01-13 09:56:33:576,-0.0415594,-0.140033,-0.988341,0.143644,-0.048796,0.836648
2023-01-13 09:56:33:586,-0.0441274,-0.140214,-0.98838,0.143504,-0.0488784,0.836494
2023-01-13 09:56:33:596,-0.0442764,-0.140371,-0.987583,0.143366,-0.0489734,0.836317
2023-01-13 09:56:33:606,-0.0442012,-0.141367,-0.989458,0.143262,-0.0491225,0.836087
2023-01-13 09:56:33:616,-0.046262,-0.140999,-0.991476,0.143258,-0.0492672,0.835814
2023-01-13 09:56:33:626,-0.0477276,-0.143566,-0.994305,0.143155,-0.0494489,0.835624
2023-01-13 09:56:33:636,-0.0493027,-0.1435,-0.994081,0.143022,-0.0497595,0.835403
2023-01-13 09:56:33:646,-0.050829,-0.14243,-0.993177,0.142922,-0.0499702,0.835254
2023-01-13 09:56:33:656,-0.0527038,-0.142048,-0.992256,0.142713,-0.050215,0.835103
2023-01-13 09:56:33:666,-0.0536542,-0.141106,-0.98898,0.142472,-0.0504417,0.834929
2023-01-13 09:56:33:676,-0.0531734,-0.139701,-0.986093,0.142317,-0.0506636,0.834839
2023-01-13 09:56:33:686,-0.0523471,-0.137125,-0.984136,0.142148,-0.05091,0.834661
2023-01-13 09:56:33:696,-0.054219,-0.136551,-0.984881,0.141958,-0.0511191,0.834453
2023-01-13 09:56:33:706,-0.0566315,-0.138266,-0.988632,0.141952,-0.0513415,0.834284
2023-01-13 09:56:33:716,-0.0615217,-0.138646,-0.989846,0.141959,-0.0515553,0.834198
2023-01-13 09:56:33:726,-0.0643405,-0.140002,-0.991515,0.141902,-0.0517456,0.834086
2023-01-13 09:56:33:736,-0.0636081,-0.139909,-0.992278,0.141814,-0.0517739,0.834149
2023-01-13 09:56:33:746,-0.058447,-0.139784,-0.991198,0.141758,-0.0516516,0.834288
2023-01-13 09:56:33:756,-0.053608,-0.141052,-0.990372,0.141732,-0.0515092,0.834475
2023-01-13 09:56:33:766,-0.0497041,-0.143769,-0.990821,0.141683,-0.051438,0.834606
2023-01-13 09:56:33:776,-0.0470344,-0.144679,-0.991209,0.141732,-0.0514005,0.83482
2023-01-13 09:56:33:786,-0.0482047,-0.145549,-0.990497,0.141712,-0.0514126,0.835004
2023-01-13 09:56:33:796,-0.0484344,-0.148266,-0.991607,0.141623,-0.0514859,0.835212
2023-01-13 09:56:33:806,-0.0488182,-0.147763,-0.993154,0.141528,-0.051575,0.835425
2023-01-13 09:56:33:816,-0.0462797,-0.145447,-0.994261,0.141429,-0.0516807,0.835687
2023-01-13 09:56:33:826,-0.0444678,-0.142713,-0.992065,0.141207,-0.0518404,0.835847
2023-01-13 09:56:33:836,-0.0430306,-0.139845,-0.988401,0.140997,-0.0520373,0.835998
2023-01-13 09:56:33:846,-0.0428396,-0.138262,-0.986846,0.140779,-0.0522355,0.836061
2023-01-13 09:56:33:856,-0.0436274,-0.136813,-0.987723,0.140602,-0.0524944,0.836001
2023-01-13 09:56:33:866,-0.0444258,-0.136719,-0.989115,0.140409,-0.0527606,0.835865
2023-01-13 09:56:33:876,-0.0448093,-0.136264,-0.990662,0.140265,-0.0530499,0.835682
2023-01-13 09:56:33:886,-0.0489551,-0.135749,-0.991507,0.140116,-0.0533332,0.835418
2023-01-13 09:56:33:896,-0.0542875,-0.134826,-0.987116,0.139948,-0.0536027,0.835106
2023-01-13 09:56:33:906,-0.0564362,-0.134652,-0.986731,0.139889,-0.0537944,0.834717
2023-01-13 09:56:33:916,-0.0559182,-0.136678,-0.98955,0.139871,-0.0539314,0.834329
2023-01-13 09:56:33:926,-0.0574705,-0.139117,-0.992817,0.139852,-0.0541212,0.833952
2023-01-13 09:56:33:936,-0.0602102,-0.141292,-0.995668,0.139874,-0.0543181,0.83361
2023-01-13 09:56:33:946,-0.0647411,-0.142735,-0.99587,0.13972,-0.0545724,0.833265
2023-01-13 09:56:33:956,-0.066262,-0.140762,-0.993455,0.13962,-0.0547624,0.832974
2023-01-13 09:56:33:966,-0.0641687,-0.139039,-0.99192,0.139388,-0.0548593,0.832718
2023-01-13 09:56:33:976,-0.0611122,-0.138424,-0.990853,0.139107,-0.0549581,0.83258
2023-01-13 09:56:33:986,-0.0568261,-0.137727,-0.987689,0.138837,-0.0550214,0.832469
2023-01-13 09:56:33:995,-0.0553926,-0.136241,-0.989119,0.138572,-0.055134,0.832405
2023-01-13 09:56:34:5,-0.0536288,-0.136495,-0.989334,0.138327,-0.0552487,0.832311
2023-01-13 09:56:34:16,-0.0535354,-0.135899,-0.988419,0.138117,-0.0553785,0.832163
2023-01-13 09:56:34:26,-0.0513887,-0.134906,-0.988081,0.13795,-0.0554931,0.832021
2023-01-13 09:56:34:35,-0.0509354,-0.136657,-0.989269,0.137809,-0.0556331,0.831849
2023-01-13 09:56:34:45,-0.0477088,-0.137807,-0.988941,0.137708,-0.0557238,0.831679
2023-01-13 09:56:34:55,-0.0412528,-0.138426,-0.992108,0.137606,-0.0558094,0.831458
2023-01-13 09:56:34:65,-0.0361666,-0.138971,-0.995123,0.137485,-0.0559689,0.831217
2023-01-13 09:56:34:76,-0.0361605,-0.139764,-0.998249,0.137382,-0.0562309,0.830824
2023-01-13 09:56:34:85,-0.0400143,-0.138503,-0.997851,0.137239,-0.0564867,0.830264
2023-01-13 09:56:34:96,-0.0420676,-0.136207,-0.994976,0.136989,-0.0568289,0.829686
2023-01-13 09:56:34:105,-0.0462534,-0.133187,-0.991403,0.13661,-0.0571868,0.829028
2023-01-13 09:56:34:116,-0.0506725,-0.130524,-0.987421,0.136279,-0.0575843,0.828323
2023-01-13 09:56:34:126,-0.0533632,-0.12783,-0.983771,0.135962,-0.0579598,0.827573
2023-01-13 09:56:34:136,-0.0586745,-0.125101,-0.982843,0.135675,-0.0584152,0.826809
2023-01-13 09:56:34:146,-0.0635606,-0.125501,-0.982467,0.135443,-0.0588247,0.826076
2023-01-13 09:56:34:156,-0.0679948,-0.124237,-0.979503,0.13538,-0.0592176,0.825382
2023-01-13 09:56:34:166,-0.0711253,-0.124769,-0.980487,0.135366,-0.0595859,0.824817
2023-01-13 09:56:34:176,-0.0732038,-0.126955,-0.983676,0.135412,-0.0599477,0.824345
2023-01-13 09:56:34:186,-0.0736303,-0.128932,-0.985425,0.135537,-0.0603045,0.823972
2023-01-13 09:56:34:196,-0.0747547,-0.132498,-0.988477,0.135677,-0.060652,0.823698
2023-01-13 09:56:34:206,-0.0755934,-0.133761,-0.990862,0.135854,-0.060916,0.823555
2023-01-13 09:56:34:216,-0.0779259,-0.134356,-0.990488,0.135956,-0.0611848,0.823527
2023-01-13 09:56:34:226,-0.0778077,-0.133709,-0.989432,0.136046,-0.0613112,0.823553
2023-01-13 09:56:34:236,-0.0763247,-0.133176,-0.988191,0.136197,-0.0613854,0.823687
2023-01-13 09:56:34:245,-0.0738434,-0.13406,-0.986316,0.136309,-0.0614464,0.823926
2023-01-13 09:56:34:256,-0.0698554,-0.134264,-0.985487,0.136443,-0.0614646,0.824186
2023-01-13 09:56:34:266,-0.0666365,-0.134796,-0.986736,0.136624,-0.0613724,0.824428
2023-01-13 09:56:34:276,-0.0605932,-0.136784,-0.990291,0.136854,-0.0612489,0.824667
2023-01-13 09:56:34:286,-0.0581592,-0.139843,-0.994492,0.137059,-0.0611053,0.824942
2023-01-13 09:56:34:296,-0.0567916,-0.140456,-0.997641,0.137224,-0.0609375,0.825154
2023-01-13 09:56:34:306,-0.055661,-0.140968,-0.99944,0.137373,-0.0608393,0.825415
2023-01-13 09:56:34:316,-0.0545054,-0.140022,-0.997775,0.137358,-0.0607337,0.825615
2023-01-13 09:56:34:326,-0.0559213,-0.137721,-0.995329,0.1373,-0.0606543,0.825791
2023-01-13 09:56:34:336,-0.0541088,-0.13712,-0.993819,0.137225,-0.0606087,0.825894
2023-01-13 09:56:34:346,-0.0532113,-0.135337,-0.990823,0.137044,-0.0605739,0.825934
2023-01-13 09:56:34:356,-0.0532232,-0.13359,-0.987552,0.136906,-0.0605065,0.825963
2023-01-13 09:56:34:366,-0.0542911,-0.132455,-0.986774,0.136781,-0.0604789,0.825967
2023-01-13 09:56:34:376,-0.0563834,-0.13044,-0.988278,0.13671,-0.0604438,0.825943
2023-01-13 09:56:34:385,-0.059916,-0.132175,-0.990294,0.136686,-0.0605214,0.825854
2023-01-13 09:56:34:395,-0.0648624,-0.132653,-0.991515,0.13668,-0.0605731,0.825746
2023-01-13 09:56:34:405,-0.0676092,-0.13294,-0.992545,0.13663,-0.060521,0.825684
2023-01-13 09:56:34:415,-0.0675892,-0.133215,-0.991111,0.136629,-0.0604316,0.825722
2023-01-13 09:56:34:426,-0.0653754,-0.134228,-0.990019,0.136623,-0.0601751,0.825777
2023-01-13 09:56:34:436,-0.0624312,-0.133923,-0.989845,0.136628,-0.0599293,0.825819
2023-01-13 09:56:34:446,-0.0604748,-0.134009,-0.989483,0.136736,-0.059679,0.82586
2023-01-13 09:56:34:456,-0.0571808,-0.13616,-0.988563,0.136881,-0.0594642,0.826029
2023-01-13 09:56:34:466,-0.0569039,-0.138483,-0.987528,0.137043,-0.0592035,0.8262
2023-01-13 09:56:34:475,-0.0557339,-0.139342,-0.986484,0.137229,-0.0590729,0.826398
2023-01-13 09:56:34:486,-0.0544623,-0.140965,-0.989014,0.137409,-0.0589907,0.826591
2023-01-13 09:56:34:495,-0.0535922,-0.140528,-0.989738,0.137654,-0.0588467,0.826812
2023-01-13 09:56:34:506,-0.0524999,-0.141984,-0.990868,0.13779,-0.0587922,0.827018
2023-01-13 09:56:34:515,-0.0534013,-0.14065,-0.98964,0.137862,-0.0587454,0.827108
2023-01-13 09:56:34:526,-0.0548613,-0.140493,-0.989385,0.137943,-0.0587267,0.827187
2023-01-13 09:56:34:536,-0.0571914,-0.139539,-0.989606,0.138061,-0.0587684,0.827281
2023-01-13 09:56:34:545,-0.055855,-0.138337,-0.989816,0.138186,-0.0588069,0.827329
2023-01-13 09:56:34:555,-0.0558418,-0.138119,-0.992294,0.138311,-0.0588009,0.827419
2023-01-13 09:56:34:566,-0.0575118,-0.138608,-0.989881,0.138396,-0.0587438,0.827488
2023-01-13 09:56:34:576,-0.0574285,-0.136713,-0.985949,0.138559,-0.0587132,0.827505
2023-01-13 09:56:34:586,-0.0536759,-0.138283,-0.989276,0.138804,-0.0586048,0.82752
2023-01-13 09:56:34:595,-0.0490806,-0.141064,-0.991629,0.139064,-0.0585434,0.827557
2023-01-13 09:56:34:606,-0.0474389,-0.143887,-0.991789,0.139311,-0.0584936,0.827531
2023-01-13 09:56:34:616,-0.0468512,-0.145389,-0.994628,0.139585,-0.0585403,0.827408
2023-01-13 09:56:34:625,-0.049845,-0.145217,-0.995393,0.139732,-0.0586229,0.827284
2023-01-13 09:56:34:636,-0.0512935,-0.145321,-0.996015,0.139844,-0.0586893,0.827083
2023-01-13 09:56:34:645,-0.0513043,-0.143792,-0.996197,0.139952,-0.0588245,0.826876
2023-01-13 09:56:34:656,-0.0519264,-0.142192,-0.993498,0.139918,-0.0590235,0.826662
2023-01-13 09:56:34:666,-0.0534123,-0.141592,-0.992989,0.139925,-0.0591967,0.826336
2023-01-13 09:56:34:675,-0.0594466,-0.139835,-0.990757,0.139818,-0.0594208,0.826001
2023-01-13 09:56:34:686,-0.064442,-0.138542,-0.989287,0.139719,-0.0596153,0.82572
2023-01-13 09:56:34:695,-0.0678699,-0.138449,-0.989889,0.139633,-0.0598413,0.825518
2023-01-13 09:56:34:706,-0.0672328,-0.138533,-0.989251,0.139563,-0.0600283,0.825321
2023-01-13 09:56:34:716,-0.0672981,-0.140049,-0.990527,0.139539,-0.0601282,0.825149
2023-01-13 09:56:34:725,-0.0677913,-0.14001,-0.991788,0.139489,-0.060219,0.825032
2023-01-13 09:56:34:736,-0.0665193,-0.139317,-0.99112,0.139427,-0.0603088,0.825003
2023-01-13 09:56:34:745,-0.0673601,-0.138037,-0.990588,0.139331,-0.0603626,0.82492
2023-01-13 09:56:34:755,-0.0677856,-0.13685,-0.989364,0.139185,-0.0604385,0.824933
2023-01-13 09:56:34:766,-0.0684424,-0.135657,-0.988468,0.139026,-0.0603625,0.825026
2023-01-13 09:56:34:775,-0.0668384,-0.133512,-0.98838,0.138852,-0.0602233,0.825076
2023-01-13 09:56:34:786,-0.065128,-0.133005,-0.98855,0.138695,-0.0601359,0.825192
2023-01-13 09:56:34:796,-0.0639911,-0.132302,-0.989641,0.138573,-0.059977,0.825333
2023-01-13 09:56:34:806,-0.0620868,-0.132364,-0.987317,0.138464,-0.0597642,0.82555
2023-01-13 09:56:34:816,-0.0604003,-0.131446,-0.987116,0.138401,-0.0596115,0.825653
2023-01-13 09:56:34:825,-0.0590901,-0.132709,-0.98868,0.138295,-0.0594485,0.825831
2023-01-13 09:56:34:836,-0.0559725,-0.135311,-0.99212,0.138277,-0.0593159,0.826027
2023-01-13 09:56:34:845,-0.0555309,-0.136235,-0.994198,0.138275,-0.0591914,0.826249
2023-01-13 09:56:34:856,-0.0548982,-0.136563,-0.993309,0.13821,-0.0590704,0.8265
2023-01-13 09:56:34:866,-0.0547338,-0.134586,-0.990455,0.138099,-0.0589456,0.826768
2023-01-13 09:56:34:875,-0.0536525,-0.133549,-0.987557,0.137992,-0.0587998,0.826927
2023-01-13 09:56:34:886,-0.0536264,-0.132122,-0.985014,0.137952,-0.0586919,0.827024
2023-01-13 09:56:34:895,-0.0517106,-0.132291,-0.984768,0.137951,-0.0585979,0.82715
2023-01-13 09:56:34:906,-0.0512798,-0.134601,-0.987269,0.138059,-0.0584622,0.827255
2023-01-13 09:56:34:916,-0.0506074,-0.138142,-0.991433,0.138146,-0.0583869,0.827288
2023-01-13 09:56:34:925,-0.0508578,-0.13977,-0.995629,0.138238,-0.0582518,0.827271
2023-01-13 09:56:34:936,-0.0531666,-0.139889,-0.996077,0.138308,-0.05814,0.827268
2023-01-13 09:56:34:946,-0.0547284,-0.139488,-0.994936,0.138314,-0.0580711,0.827284
2023-01-13 09:56:34:955,-0.0535284,-0.138193,-0.992553,0.138305,-0.0580015,0.827313
2023-01-13 09:56:34:966,-0.0524421,-0.137383,-0.992585,0.138238,-0.0578899,0.827324
2023-01-13 09:56:34:976,-0.0529999,-0.138395,-0.993311,0.138184,-0.0578318,0.827318
2023-01-13 09:56:34:985,-0.0534151,-0.137651,-0.991207,0.138113,-0.0577861,0.827313
2023-01-13 09:56:34:995,-0.0513895,-0.136885,-0.989609,0.138078,-0.0577307,0.827271
2023-01-13 09:56:35:5,-0.0515409,-0.137448,-0.990533,0.137978,-0.0576816,0.82723
2023-01-13 09:56:35:15,-0.051844,-0.136534,-0.988596,0.137897,-0.0577031,0.827112
2023-01-13 09:56:35:25,-0.0513028,-0.134534,-0.989158,0.137808,-0.0577648,0.826994
2023-01-13 09:56:35:35,-0.0544161,-0.133667,-0.991068,0.137697,-0.0578461,0.826947
2023-01-13 09:56:35:45,-0.0579268,-0.133592,-0.991843,0.13761,-0.0580154,0.826795
2023-01-13 09:56:35:55,-0.06134,-0.134187,-0.992351,0.13752,-0.0581013,0.826661
2023-01-13 09:56:35:65,-0.0652708,-0.134698,-0.991629,0.13742,-0.058177,0.826523
2023-01-13 09:56:35:75,-0.0645937,-0.13456,-0.988621,0.137331,-0.0581436,0.826495
2023-01-13 09:56:35:85,-0.0587333,-0.133774,-0.985639,0.137349,-0.0579826,0.826463
2023-01-13 09:56:35:95,-0.0562109,-0.134742,-0.988335,0.137403,-0.0577533,0.826403
2023-01-13 09:56:35:105,-0.0550341,-0.137391,-0.991299,0.137536,-0.0576265,0.826387
2023-01-13 09:56:35:116,-0.0544282,-0.140037,-0.991847,0.13772,-0.0575296,0.82634
2023-01-13 09:56:35:125,-0.0553431,-0.139752,-0.992046,0.1378,-0.0573418,0.826375
2023-01-13 09:56:35:135,-0.0564659,-0.14059,-0.989273,0.137847,-0.0572809,0.826397
2023-01-13 09:56:35:145,-0.0557883,-0.139208,-0.984094,0.137895,-0.0572099,0.826478
2023-01-13 09:56:35:155,-0.0539337,-0.138251,-0.980996,0.137905,-0.057134,0.826503
2023-01-13 09:56:35:166,-0.0530591,-0.138691,-0.981848,0.13806,-0.0571012,0.8265
2023-01-13 09:56:35:175,-0.0517937,-0.139489,-0.985708,0.138232,-0.0570451,0.82646
2023-01-13 09:56:35:185,-0.0530081,-0.14085,-0.991286,0.138409,-0.0570858,0.826481
2023-01-13 09:56:35:195,-0.0562029,-0.141086,-0.994092,0.13853,-0.0571165,0.826483
2023-01-13 09:56:35:205,-0.0583504,-0.140847,-0.996904,0.138674,-0.0571593,0.826515
2023-01-13 09:56:35:216,-0.0583883,-0.140078,-0.998,0.138805,-0.0572249,0.826525
2023-01-13 09:56:35:225,-0.0589298,-0.139345,-0.995157,0.138841,-0.0572823,0.826596
2023-01-13 09:56:35:235,-0.059738,-0.138186,-0.991329,0.138803,-0.0573515,0.826656
2023-01-13 09:56:35:246,-0.0550817,-0.139646,-0.992107,0.138824,-0.0573204,0.826684
2023-01-13 09:56:35:255,-0.0538331,-0.140535,-0.992828,0.138892,-0.0573175,0.826736
2023-01-13 09:56:35:265,-0.0523457,-0.140656,-0.993778,0.138877,-0.0573439,0.826719
2023-01-13 09:56:35:275,-0.0554011,-0.143748,-0.995611,0.138876,-0.0574461,0.826667
2023-01-13 09:56:35:285,-0.0615775,-0.145114,-0.995217,0.138886,-0.0575281,0.826643
2023-01-13 09:56:35:296,-0.0638864,-0.142425,-0.993293,0.138846,-0.0576379,0.82672
2023-01-13 09:56:35:305,-0.0625543,-0.141071,-0.992917,0.13874,-0.0576412,0.826758
2023-01-13 09:56:35:316,-0.0601163,-0.138863,-0.993135,0.138574,-0.0576735,0.826895
2023-01-13 09:56:35:326,-0.0579283,-0.138922,-0.991336,0.138311,-0.0576666,0.826973
2023-01-13 09:56:35:336,-0.0574013,-0.136382,-0.986692,0.13814,-0.0576598,0.827074
2023-01-13 09:56:35:346,-0.0569917,-0.133172,-0.984112,0.138027,-0.0576557,0.827191
2023-01-13 09:56:35:356,-0.0568509,-0.133122,-0.985058,0.137933,-0.0575898,0.82721
2023-01-13 09:56:35:366,-0.0569094,-0.134359,-0.988454,0.137877,-0.0575562,0.827297
2023-01-13 09:56:35:375,-0.0575568,-0.13473,-0.990889,0.137811,-0.0575674,0.82734
2023-01-13 09:56:35:386,-0.0555648,-0.135893,-0.993281,0.137747,-0.0575037,0.827401
2023-01-13 09:56:35:395,-0.0551643,-0.137311,-0.99365,0.137718,-0.0573883,0.827442
2023-01-13 09:56:35:406,-0.0560678,-0.136669,-0.992112,0.137616,-0.0573313,0.82739
2023-01-13 09:56:35:416,-0.0566011,-0.133787,-0.989603,0.137449,-0.0572679,0.827388
2023-01-13 09:56:35:425,-0.0568469,-0.133638,-0.989419,0.137282,-0.0571092,0.827268
2023-01-13 09:56:35:435,-0.0555254,-0.131604,-0.988723,0.137132,-0.0569787,0.827165
2023-01-13 09:56:35:445,-0.0572933,-0.129764,-0.987711,0.136994,-0.0568216,0.827071
2023-01-13 09:56:35:455,-0.0564528,-0.128533,-0.987205,0.13687,-0.0566591,0.826957
2023-01-13 09:56:35:466,-0.0568429,-0.125178,-0.984949,0.136819,-0.0564058,0.826815
2023-01-13 09:56:35:475,-0.058255,-0.12377,-0.98379,0.136814,-0.0561177,0.826676
2023-01-13 09:56:35:486,-0.0563967,-0.123626,-0.98429,0.136844,-0.0557518,0.82647
2023-01-13 09:56:35:496,-0.0540724,-0.124563,-0.986041,0.136905,-0.0554195,0.8263
2023-01-13 09:56:35:505,-0.0553404,-0.126585,-0.986109,0.137091,-0.0551462,0.826178
2023-01-13 09:56:35:516,-0.0581649,-0.129781,-0.986717,0.137341,-0.0549652,0.826073
2023-01-13 09:56:35:526,-0.0590666,-0.129262,-0.987265,0.137583,-0.054817,0.826038
2023-01-13 09:56:35:535,-0.0585353,-0.131002,-0.989075,0.137882,-0.0546446,0.82603
2023-01-13 09:56:35:546,-0.0588197,-0.131599,-0.987976,0.138096,-0.0545023,0.826115
2023-01-13 09:56:35:556,-0.0586855,-0.131951,-0.987943,0.138431,-0.0543616,0.82626
2023-01-13 09:56:35:566,-0.0579455,-0.13264,-0.988344,0.138807,-0.0542088,0.826488
2023-01-13 09:56:35:576,-0.0565016,-0.135753,-0.988849,0.139204,-0.054092,0.826774
2023-01-13 09:56:35:585,-0.054142,-0.137229,-0.989521,0.139622,-0.0539626,0.827084
2023-01-13 09:56:35:595,-0.0506412,-0.140147,-0.993559,0.140049,-0.0538698,0.827383
2023-01-13 09:56:35:605,-0.049993,-0.142996,-0.995986,0.140421,-0.0537337,0.827654
2023-01-13 09:56:35:615,-0.049068,-0.144555,-0.998778,0.140762,-0.0536473,0.827981
2023-01-13 09:56:35:625,-0.0474764,-0.143607,-0.997988,0.141087,-0.0535527,0.828242
2023-01-13 09:56:35:635,-0.0477706,-0.142461,-0.993585,0.141252,-0.0534952,0.828451
2023-01-13 09:56:35:645,-0.0482221,-0.141044,-0.99126,0.141461,-0.0534486,0.828663
2023-01-13 09:56:35:655,-0.0496913,-0.139585,-0.985522,0.14164,-0.0533993,0.828845
2023-01-13 09:56:35:665,-0.0508625,-0.139754,-0.981965,0.141819,-0.0534199,0.828962
2023-01-13 09:56:35:675,-0.0522602,-0.140581,-0.984149,0.142133,-0.0534153,0.829041
2023-01-13 09:56:35:685,-0.0544429,-0.143532,-0.990008,0.142494,-0.0534251,0.829045
2023-01-13 09:56:35:695,-0.057635,-0.147118,-0.997534,0.142908,-0.0534368,0.829013
2023-01-13 09:56:35:705,-0.0624328,-0.149102,-1.00206,0.143274,-0.0534626,0.829052
2023-01-13 09:56:35:715,-0.0674775,-0.149707,-1.00341,0.143521,-0.0534422,0.829098
2023-01-13 09:56:35:725,-0.0703965,-0.146955,-1.00069,0.143627,-0.0533013,0.829173
2023-01-13 09:56:35:735,-0.0679911,-0.14426,-0.997202,0.143612,-0.053031,0.829315
2023-01-13 09:56:35:745,-0.0624123,-0.142191,-0.992335,0.14361,-0.0526661,0.829534
2023-01-13 09:56:35:755,-0.0588711,-0.141286,-0.987624,0.143589,-0.0522492,0.829809
2023-01-13 09:56:35:766,-0.0561908,-0.141674,-0.985067,0.143604,-0.0518414,0.830126
2023-01-13 09:56:35:775,-0.0548478,-0.142236,-0.984837,0.143718,-0.0514656,0.830494
2023-01-13 09:56:35:785,-0.0521061,-0.142316,-0.985859,0.143841,-0.0510873,0.830918
2023-01-13 09:56:35:796,-0.049265,-0.143308,-0.987341,0.144026,-0.0508134,0.831362
2023-01-13 09:56:35:806,-0.0469972,-0.143396,-0.988193,0.14423,-0.0505688,0.831792
2023-01-13 09:56:35:816,-0.0451422,-0.143552,-0.989404,0.144367,-0.0502976,0.832219
2023-01-13 09:56:35:826,-0.0444871,-0.143602,-0.9885,0.144477,-0.0500828,0.832554
2023-01-13 09:56:35:836,-0.0433981,-0.142542,-0.986902,0.144619,-0.0498942,0.832896
2023-01-13 09:56:35:846,-0.0415223,-0.142083,-0.988033,0.144691,-0.0496704,0.833178
2023-01-13 09:56:35:856,-0.0422795,-0.143651,-0.989674,0.144812,-0.0494755,0.833408
2023-01-13 09:56:35:866,-0.0428917,-0.143228,-0.991094,0.144914,-0.0493382,0.833509
2023-01-13 09:56:35:876,-0.0426645,-0.144022,-0.992119,0.145014,-0.0492103,0.833595
2023-01-13 09:56:35:886,-0.0452776,-0.143672,-0.991182,0.14511,-0.049134,0.833682
2023-01-13 09:56:35:896,-0.0434855,-0.142425,-0.991903,0.145256,-0.0490102,0.833715
2023-01-13 09:56:35:906,-0.0414396,-0.142769,-0.993083,0.145448,-0.0488783,0.833725
2023-01-13 09:56:35:916,-0.0399117,-0.144947,-0.993534,0.145623,-0.0487952,0.833753
2023-01-13 09:56:35:926,-0.0389748,-0.146461,-0.99362,0.145764,-0.0487768,0.83371
2023-01-13 09:56:35:936,-0.0418565,-0.14881,-0.994612,0.145879,-0.0488245,0.833619
2023-01-13 09:56:35:946,-0.0444939,-0.149358,-0.995502,0.145926,-0.0489125,0.833471
2023-01-13 09:56:35:956,-0.0443928,-0.150706,-0.998469,0.145955,-0.0488775,0.833282
2023-01-13 09:56:35:966,-0.044243,-0.150424,-0.998008,0.145846,-0.0488811,0.833044
2023-01-13 09:56:35:976,-0.046221,-0.148168,-0.995001,0.145707,-0.0489143,0.832834
2023-01-13 09:56:35:986,-0.0477949,-0.146627,-0.993361,0.145525,-0.0490454,0.832612
2023-01-13 09:56:35:995,-0.0512934,-0.145659,-0.992882,0.145321,-0.0491124,0.83243
2023-01-13 09:56:36:6,-0.0537507,-0.145367,-0.991988,0.145054,-0.0491893,0.832243
2023-01-13 09:56:36:16,-0.05357,-0.145153,-0.991826,0.144754,-0.0492341,0.83208
2023-01-13 09:56:36:26,-0.0511441,-0.141672,-0.990386,0.144409,-0.0492688,0.832054
2023-01-13 09:56:36:36,-0.0504123,-0.140568,-0.989323,0.144141,-0.049258,0.832006
2023-01-13 09:56:36:46,-0.0518362,-0.140918,-0.989033,0.143884,-0.0492356,0.831922
2023-01-13 09:56:36:55,-0.0521751,-0.139319,-0.986942,0.143645,-0.0491783,0.831812
2023-01-13 09:56:36:66,-0.0513898,-0.138679,-0.986711,0.143414,-0.0491223,0.831819
2023-01-13 09:56:36:76,-0.0517767,-0.138013,-0.987364,0.143233,-0.0490846,0.831776
2023-01-13 09:56:36:86,-0.0526276,-0.13783,-0.986925,0.143044,-0.0489742,0.831764
2023-01-13 09:56:36:95,-0.0520141,-0.137197,-0.985469,0.142886,-0.0488108,0.831797
2023-01-13 09:56:36:106,-0.0509103,-0.137474,-0.98745,0.142765,-0.0486715,0.831863
2023-01-13 09:56:36:116,-0.0498207,-0.137903,-0.989131,0.142669,-0.0484678,0.831896
2023-01-13 09:56:36:126,-0.0476865,-0.139566,-0.991589,0.142513,-0.0482985,0.832015
2023-01-13 09:56:36:136,-0.0477044,-0.139677,-0.992151,0.142393,-0.0481525,0.832082
2023-01-13 09:56:36:146,-0.0469466,-0.139879,-0.991951,0.142204,-0.0479823,0.832248
2023-01-13 09:56:36:156,-0.0465224,-0.138342,-0.989976,0.142027,-0.0478452,0.832438
2023-01-13 09:56:36:166,-0.0464731,-0.135788,-0.986577,0.141877,-0.0477295,0.832595
2023-01-13 09:56:36:176,-0.0465167,-0.136622,-0.986547,0.141765,-0.0476163,0.832813
2023-01-13 09:56:36:186,-0.0446334,-0.13856,-0.987642,0.141689,-0.0474725,0.833045
2023-01-13 09:56:36:196,-0.0419929,-0.138149,-0.986438,0.141583,-0.0473552,0.833242
2023-01-13 09:56:36:206,-0.0416687,-0.140253,-0.988866,0.14155,-0.047136,0.833398
2023-01-13 09:56:36:216,-0.0421055,-0.141335,-0.991125,0.141507,-0.0470661,0.833557
2023-01-13 09:56:36:226,-0.04155,-0.143116,-0.9919,0.141435,-0.0469772,0.833652
2023-01-13 09:56:36:236,-0.0434169,-0.142693,-0.992089,0.141402,-0.0469932,0.833705
2023-01-13 09:56:36:246,-0.0447683,-0.141735,-0.991948,0.141328,-0.0468773,0.833831
2023-01-13 09:56:36:256,-0.0451538,-0.140715,-0.993299,0.141269,-0.0467929,0.8339
2023-01-13 09:56:36:266,-0.0456909,-0.13955,-0.993945,0.141174,-0.046691,0.83396
2023-01-13 09:56:36:276,-0.0449714,-0.140541,-0.995165,0.141111,-0.0466978,0.834044
2023-01-13 09:56:36:286,-0.0428499,-0.141236,-0.996284,0.140973,-0.0466572,0.834181
2023-01-13 09:56:36:296,-0.0401335,-0.142125,-0.99712,0.140777,-0.046667,0.834318
2023-01-13 09:56:36:306,-0.0390833,-0.140295,-0.994375,0.140539,-0.0466645,0.83446
2023-01-13 09:56:36:316,-0.0398339,-0.137862,-0.99066,0.140258,-0.0466557,0.834533
2023-01-13 09:56:36:326,-0.0401294,-0.135976,-0.989094,0.139904,-0.0466784,0.834599
2023-01-13 09:56:36:336,-0.0423336,-0.134014,-0.989121,0.139669,-0.0467493,0.834564
2023-01-13 09:56:36:346,-0.0448507,-0.134475,-0.991511,0.13954,-0.0469259,0.834475
2023-01-13 09:56:36:356,-0.0491754,-0.135268,-0.992149,0.139417,-0.0470687,0.834405
2023-01-13 09:56:36:366,-0.0511827,-0.135784,-0.992085,0.139247,-0.0471995,0.834329
2023-01-13 09:56:36:376,-0.049206,-0.135471,-0.993092,0.139098,-0.0471966,0.834236
2023-01-13 09:56:36:386,-0.0476377,-0.134572,-0.992227,0.138894,-0.0471229,0.834182
2023-01-13 09:56:36:395,-0.0485802,-0.137115,-0.994126,0.138713,-0.0470367,0.834219
2023-01-13 09:56:36:405,-0.0491514,-0.140224,-0.994146,0.138568,-0.0470187,0.834304
2023-01-13 09:56:36:415,-0.0484298,-0.140314,-0.993125,0.138364,-0.046944,0.834351
2023-01-13 09:56:36:426,-0.0487512,-0.138455,-0.990656,0.138143,-0.0469572,0.834479
2023-01-13 09:56:36:435,-0.0484806,-0.136542,-0.984656,0.137901,-0.0470075,0.834644
2023-01-13 09:56:36:445,-0.0474449,-0.134555,-0.980486,0.137724,-0.0470238,0.834716
2023-01-13 09:56:36:456,-0.0446003,-0.134961,-0.983479,0.137601,-0.0470864,0.834792
2023-01-13 09:56:36:466,-0.0429753,-0.136287,-0.986885,0.137475,-0.0471239,0.834858
2023-01-13 09:56:36:476,-0.0435925,-0.136645,-0.98965,0.137395,-0.0472118,0.834869
2023-01-13 09:56:36:486,-0.0453742,-0.136079,-0.990421,0.137293,-0.0472481,0.834868
2023-01-13 09:56:36:496,-0.0467526,-0.134754,-0.990381,0.137179,-0.0473002,0.834846
2023-01-13 09:56:36:506,-0.0474793,-0.133063,-0.990588,0.137095,-0.0473432,0.834791
2023-01-13 09:56:36:516,-0.0489877,-0.133655,-0.990893,0.137005,-0.0473953,0.83472
2023-01-13 09:56:36:526,-0.0499099,-0.132423,-0.989174,0.136963,-0.0474491,0.834596
2023-01-13 09:56:36:536,-0.0497717,-0.130546,-0.986701,0.136898,-0.0474549,0.834567
2023-01-13 09:56:36:546,-0.0484539,-0.131866,-0.987131,0.136934,-0.0475264,0.834495
2023-01-13 09:56:36:556,-0.047416,-0.133361,-0.989039,0.137019,-0.0476428,0.83443
2023-01-13 09:56:36:566,-0.0490462,-0.134941,-0.992227,0.137192,-0.0477574,0.834379
2023-01-13 09:56:36:575,-0.0531401,-0.136324,-0.992062,0.137345,-0.0479282,0.834353
2023-01-13 09:56:36:585,-0.0539784,-0.137379,-0.991998,0.1375,-0.0479855,0.834425
2023-01-13 09:56:36:595,-0.0511747,-0.137439,-0.993584,0.13761,-0.0480355,0.834478
2023-01-13 09:56:36:606,-0.0492733,-0.137095,-0.99368,0.13769,-0.0480933,0.834503
2023-01-13 09:56:36:616,-0.0486668,-0.137318,-0.992873,0.137761,-0.0481334,0.834409
2023-01-13 09:56:36:626,-0.0499404,-0.136924,-0.99152,0.137769,-0.0481301,0.834373
2023-01-13 09:56:36:635,-0.0517241,-0.136458,-0.990428,0.137757,-0.0481562,0.834352
2023-01-13 09:56:36:645,-0.0520101,-0.137049,-0.990711,0.13777,-0.0481881,0.834312
2023-01-13 09:56:36:655,-0.050877,-0.136852,-0.99171,0.137775,-0.048153,0.834325
2023-01-13 09:56:36:665,-0.0502014,-0.138479,-0.992628,0.137809,-0.0482188,0.834322
2023-01-13 09:56:36:675,-0.0503082,-0.1368,-0.993439,0.137805,-0.0481794,0.834334
2023-01-13 09:56:36:685,-0.051274,-0.135876,-0.992414,0.137784,-0.048162,0.834342
2023-01-13 09:56:36:696,-0.0505282,-0.135687,-0.992324,0.137703,-0.0481695,0.83448
2023-01-13 09:56:36:705,-0.0497802,-0.134805,-0.991475,0.137596,-0.0481569,0.834518
2023-01-13 09:56:36:716,-0.0491535,-0.13359,-0.989972,0.13753,-0.0481133,0.83455
2023-01-13 09:56:36:725,-0.0477192,-0.134209,-0.990704,0.137469,-0.0479721,0.8346
2023-01-13 09:56:36:735,-0.0466428,-0.135253,-0.991439,0.13748,-0.0478708,0.834622
2023-01-13 09:56:36:746,-0.0449813,-0.13548,-0.992333,0.137418,-0.0477379,0.834719
2023-01-13 09:56:36:755,-0.0466371,-0.135215,-0.992855,0.137414,-0.0476459,0.83476
2023-01-13 09:56:36:765,-0.0482674,-0.134265,-0.991675,0.13736,-0.047576,0.83479
2023-01-13 09:56:36:775,-0.047653,-0.134752,-0.991199,0.137332,-0.047473,0.834784
2023-01-13 09:56:36:785,-0.0480132,-0.134686,-0.992131,0.137279,-0.0473995,0.83478
2023-01-13 09:56:36:795,-0.0487566,-0.134815,-0.993936,0.137228,-0.0473431,0.834785
2023-01-13 09:56:36:805,-0.0484372,-0.135795,-0.99266,0.137179,-0.047219,0.834895
2023-01-13 09:56:36:815,-0.0468899,-0.133598,-0.988977,0.137082,-0.0471118,0.834988
2023-01-13 09:56:36:825,-0.0443857,-0.130803,-0.985299,0.136944,-0.0470008,0.835056
2023-01-13 09:56:36:835,-0.0418116,-0.131892,-0.985511,0.136892,-0.0470012,0.835195
2023-01-13 09:56:36:845,-0.0429744,-0.132277,-0.986631,0.136942,-0.0469759,0.835223
2023-01-13 09:56:36:855,-0.0430868,-0.132875,-0.985675,0.136965,-0.0469566,0.835286
2023-01-13 09:56:36:865,-0.0427223,-0.133414,-0.984566,0.137093,-0.0470277,0.835292
2023-01-13 09:56:36:875,-0.0424016,-0.133316,-0.986648,0.137292,-0.0470267,0.835296
2023-01-13 09:56:36:885,-0.0417768,-0.134098,-0.990511,0.137421,-0.0470022,0.835258
2023-01-13 09:56:36:895,-0.0436058,-0.136725,-0.993765,0.137565,-0.0470767,0.835179
2023-01-13 09:56:36:905,-0.0448069,-0.137849,-0.995097,0.13768,-0.0471228,0.835097
2023-01-13 09:56:36:915,-0.0451456,-0.136419,-0.994156,0.137714,-0.0471251,0.835031
2023-01-13 09:56:36:925,-0.0457727,-0.137624,-0.995585,0.1378,-0.047223,0.834956
2023-01-13 09:56:36:935,-0.0475804,-0.139093,-0.994946,0.137837,-0.0473094,0.834821
2023-01-13 09:56:36:945,-0.048453,-0.138633,-0.991586,0.137895,-0.0474642,0.834742
2023-01-13 09:56:36:956,-0.0481753,-0.13627,-0.988561,0.137813,-0.0475273,0.83471
2023-01-13 09:56:36:966,-0.0471504,-0.135794,-0.989502,0.137796,-0.0476682,0.834625
2023-01-13 09:56:36:976,-0.0498526,-0.137182,-0.993135,0.137802,-0.0477915,0.834566
2023-01-13 09:56:36:986,-0.0534137,-0.137868,-0.995918,0.137843,-0.0478984,0.83444
2023-01-13 09:56:36:996,-0.0565579,-0.139352,-0.996176,0.137855,-0.0479844,0.834428
2023-01-13 09:56:37:6,-0.0562131,-0.140463,-0.997052,0.137788,-0.0479305,0.834443
2023-01-13 09:56:37:15,-0.0543124,-0.13942,-0.996654,0.13774,-0.0478209,0.8345
2023-01-13 09:56:37:26,-0.0514036,-0.139093,-0.993681,0.137629,-0.0476823,0.834602
2023-01-13 09:56:37:35,-0.0490942,-0.139425,-0.991301,0.13751,-0.0475923,0.834709
2023-01-13 09:56:37:45,-0.0471827,-0.13907,-0.988831,0.137429,-0.0475079,0.834785
2023-01-13 09:56:37:56,-0.0458004,-0.13881,-0.988175,0.13738,-0.0473393,0.834881
2023-01-13 09:56:37:65,-0.044583,-0.140413,-0.990218,0.137335,-0.0472353,0.835067
2023-01-13 09:56:37:75,-0.0422783,-0.140335,-0.991409,0.137321,-0.0471937,0.835136
2023-01-13 09:56:37:85,-0.0400305,-0.139348,-0.990806,0.13731,-0.0471481,0.835246
2023-01-13 09:56:37:95,-0.0389548,-0.138868,-0.989147,0.13722,-0.047131,0.835277
2023-01-13 09:56:37:106,-0.0385402,-0.13748,-0.98848,0.137089,-0.0470963,0.835241
2023-01-13 09:56:37:115,-0.0403181,-0.136687,-0.987371,0.136978,-0.0470658,0.835153
2023-01-13 09:56:37:125,-0.0422772,-0.137007,-0.988434,0.136916,-0.0470417,0.834994
2023-01-13 09:56:37:135,-0.043645,-0.136232,-0.988581,0.13686,-0.0470564,0.8349
2023-01-13 09:56:37:145,-0.0443066,-0.136386,-0.991587,0.136901,-0.0471348,0.834733
2023-01-13 09:56:37:156,-0.0475573,-0.136166,-0.991547,0.136894,-0.0471705,0.834556
2023-01-13 09:56:37:166,-0.0486123,-0.136641,-0.992593,0.136887,-0.0472397,0.834426
2023-01-13 09:56:37:175,-0.0471129,-0.138217,-0.995375,0.136872,-0.0472839,0.834308
2023-01-13 09:56:37:185,-0.0470576,-0.137544,-0.996174,0.136899,-0.0473066,0.834102
2023-01-13 09:56:37:195,-0.0473999,-0.1382,-0.996465,0.136903,-0.0474348,0.833916
2023-01-13 09:56:37:205,-0.0509007,-0.139335,-0.995869,0.13677,-0.0475745,0.833721
2023-01-13 09:56:37:215,-0.0541831,-0.139342,-0.992455,0.136618,-0.0476644,0.833508
2023-01-13 09:56:37:226,-0.0535628,-0.137772,-0.990466,0.136407,-0.0476252,0.833339
2023-01-13 09:56:37:235,-0.0489344,-0.135753,-0.989861,0.136146,-0.0476044,0.833254
2023-01-13 09:56:37:245,-0.0486122,-0.134426,-0.990691,0.135934,-0.0475507,0.833132
2023-01-13 09:56:37:255,-0.0474914,-0.133515,-0.990393,0.135723,-0.0475639,0.833023
2023-01-13 09:56:37:265,-0.0499997,-0.133718,-0.989007,0.13557,-0.047582,0.832909
2023-01-13 09:56:37:275,-0.053438,-0.132774,-0.99045,0.135383,-0.0476571,0.832858
2023-01-13 09:56:37:285,-0.054019,-0.134756,-0.992927,0.135311,-0.0477003,0.832823
2023-01-13 09:56:37:295,-0.052762,-0.133793,-0.994212,0.135195,-0.0476727,0.832847
2023-01-13 09:56:37:305,-0.0527996,-0.133715,-0.992589,0.135029,-0.0476603,0.832907
2023-01-13 09:56:37:316,-0.0513779,-0.133003,-0.990628,0.134866,-0.0476365,0.8329
2023-01-13 09:56:37:325,-0.0493379,-0.131614,-0.989828,0.134604,-0.0475726,0.832908
2023-01-13 09:56:37:335,-0.0486583,-0.131993,-0.989271,0.13443,-0.0475183,0.832893
2023-01-13 09:56:37:345,-0.0483637,-0.130875,-0.989594,0.134278,-0.0475168,0.832944
2023-01-13 09:56:37:355,-0.0495389,-0.130474,-0.989509,0.13414,-0.0474499,0.83296
2023-01-13 09:56:37:365,-0.0495562,-0.129125,-0.988489,0.13406,-0.0473836,0.83295
2023-01-13 09:56:37:375,-0.0494639,-0.128504,-0.987574,0.13397,-0.0472768,0.833
2023-01-13 09:56:37:385,-0.0493249,-0.128416,-0.989927,0.133896,-0.047233,0.832996
2023-01-13 09:56:37:395,-0.0471794,-0.127358,-0.99075,0.133896,-0.047147,0.833043
2023-01-13 09:56:37:406,-0.04483,-0.1249,-0.987226,0.133834,-0.0469194,0.833077
2023-01-13 09:56:37:416,-0.0437516,-0.125595,-0.986207,0.13384,-0.0467685,0.833082
2023-01-13 09:56:37:426,-0.0437631,-0.127987,-0.988761,0.133852,-0.0466313,0.833164
2023-01-13 09:56:37:436,-0.0432452,-0.13039,-0.990602,0.133868,-0.0465631,0.833212
2023-01-13 09:56:37:446,-0.04389,-0.130395,-0.989096,0.133963,-0.0465032,0.833245
2023-01-13 09:56:37:456,-0.0433994,-0.130741,-0.988462,0.134088,-0.046401,0.833265
2023-01-13 09:56:37:465,-0.0437276,-0.13028,-0.986921,0.134209,-0.0463633,0.833407
2023-01-13 09:56:37:475,-0.0451828,-0.130274,-0.986135,0.134408,-0.0463308,0.833471
2023-01-13 09:56:37:485,-0.0462496,-0.132901,-0.986169,0.134614,-0.0463144,0.833554
2023-01-13 09:56:37:496,-0.0458236,-0.134312,-0.987773,0.134841,-0.0462855,0.833664
2023-01-13 09:56:37:505,-0.0452188,-0.136769,-0.992379,0.135124,-0.0462676,0.833806
2023-01-13 09:56:37:515,-0.0448587,-0.139644,-0.996079,0.135381,-0.0462093,0.833999
2023-01-13 09:56:37:525,-0.0432925,-0.140552,-0.998235,0.135554,-0.0461693,0.834189
2023-01-13 09:56:37:535,-0.0413396,-0.140017,-1.00006,0.135651,-0.0461036,0.834383
2023-01-13 09:56:37:545,-0.0416271,-0.138073,-0.997214,0.135608,-0.0461128,0.834482
2023-01-13 09:56:37:555,-0.0419513,-0.135781,-0.995938,0.135569,-0.0461026,0.834565
2023-01-13 09:56:37:565,-0.0417191,-0.135942,-0.995617,0.135579,-0.0461205,0.834593
2023-01-13 09:56:37:575,-0.0427958,-0.136784,-0.994441,0.1356,-0.0461506,0.834596
2023-01-13 09:56:37:586,-0.0445501,-0.135398,-0.99183,0.135606,-0.046245,0.834588
2023-01-13 09:56:37:595,-0.0462806,-0.134624,-0.989911,0.135526,-0.046271,0.834631
2023-01-13 09:56:37:605,-0.0476221,-0.133541,-0.990549,0.135505,-0.0463928,0.834637
2023-01-13 09:56:37:615,-0.0482218,-0.132761,-0.993362,0.135472,-0.046543,0.834627
2023-01-13 09:56:37:625,-0.0517627,-0.134958,-0.996908,0.135493,-0.0466747,0.834709
2023-01-13 09:56:37:635,-0.0528647,-0.136657,-0.99755,0.135406,-0.0467638,0.834791
2023-01-13 09:56:37:645,-0.0514783,-0.136631,-0.996397,0.135264,-0.0467953,0.834866
2023-01-13 09:56:37:655,-0.0488012,-0.133333,-0.99115,0.135132,-0.0467657,0.835024
2023-01-13 09:56:37:665,-0.0460863,-0.132435,-0.987249,0.135009,-0.046688,0.835143
2023-01-13 09:56:37:676,-0.0454536,-0.133224,-0.986764,0.134969,-0.0466738,0.835283
2023-01-13 09:56:37:685,-0.0455813,-0.135666,-0.988282,0.134992,-0.0466438,0.835467
2023-01-13 09:56:37:696,-0.0450839,-0.13539,-0.988545,0.134986,-0.0465707,0.835581
2023-01-13 09:56:37:705,-0.0432704,-0.136286,-0.989222,0.134994,-0.0465246,0.835654
2023-01-13 09:56:37:715,-0.043017,-0.136344,-0.988297,0.134924,-0.0464646,0.835728
2023-01-13 09:56:37:725,-0.0427328,-0.136504,-0.988895,0.134833,-0.0464518,0.835793
2023-01-13 09:56:37:735,-0.0440219,-0.134166,-0.986948,0.134727,-0.0464561,0.835811
2023-01-13 09:56:37:746,-0.0465691,-0.132705,-0.986167,0.134638,-0.0465046,0.835774
2023-01-13 09:56:37:756,-0.0491717,-0.132074,-0.986962,0.134597,-0.0465658,0.835743
2023-01-13 09:56:37:765,-0.0503692,-0.131572,-0.989707,0.13458,-0.0466553,0.835743
2023-01-13 09:56:37:776,-0.0498492,-0.133085,-0.992868,0.134598,-0.0466808,0.83568
2023-01-13 09:56:37:785,-0.0522855,-0.132789,-0.992513,0.134657,-0.0466958,0.835684
2023-01-13 09:56:37:795,-0.0559552,-0.132107,-0.989805,0.13468,-0.0466596,0.835744
2023-01-13 09:56:37:805,-0.0543054,-0.132321,-0.991104,0.134721,-0.0466001,0.835831
2023-01-13 09:56:37:816,-0.0513518,-0.133168,-0.992993,0.134773,-0.046594,0.835909
2023-01-13 09:56:37:826,-0.0508241,-0.133767,-0.994329,0.134825,-0.0466242,0.836004
2023-01-13 09:56:37:835,-0.0534824,-0.134779,-0.992839,0.134936,-0.0466691,0.836098
2023-01-13 09:56:37:846,-0.0553301,-0.135044,-0.990997,0.135008,-0.0466518,0.83628
2023-01-13 09:56:37:855,-0.0502211,-0.135277,-0.991679,0.135049,-0.0465148,0.836448
2023-01-13 09:56:37:866,-0.0451768,-0.134281,-0.991231,0.135059,-0.0463801,0.836523
2023-01-13 09:56:37:876,-0.0427056,-0.13493,-0.991708,0.135059,-0.0462291,0.836623
2023-01-13 09:56:37:885,-0.0436155,-0.135811,-0.994577,0.135007,-0.0460396,0.836721
2023-01-13 09:56:37:896,-0.046708,-0.136626,-0.996122,0.134981,-0.0459179,0.836802
2023-01-13 09:56:37:905,-0.0491682,-0.136206,-0.994467,0.134856,-0.045872,0.836881
2023-01-13 09:56:37:916,-0.0495674,-0.135494,-0.994525,0.134738,-0.0457881,0.836954
2023-01-13 09:56:37:926,-0.0480772,-0.134714,-0.992093,0.134633,-0.0457138,0.837137
2023-01-13 09:56:37:935,-0.0467044,-0.133369,-0.990631,0.134489,-0.045601,0.837278
2023-01-13 09:56:37:946,-0.044025,-0.13278,-0.990779,0.134371,-0.0454752,0.837361
2023-01-13 09:56:37:955,-0.0424223,-0.132843,-0.991565,0.134234,-0.045325,0.837506
2023-01-13 09:56:37:965,-0.0406135,-0.133366,-0.992699,0.13407,-0.0452607,0.837657
2023-01-13 09:56:37:975,-0.0396555,-0.132405,-0.993302,0.133935,-0.045298,0.837766
2023-01-13 09:56:37:985,-0.0407201,-0.130115,-0.993319,0.133758,-0.0452249,0.837818
2023-01-13 09:56:37:995,-0.0413622,-0.129688,-0.991997,0.133497,-0.0451272,0.837918
2023-01-13 09:56:38:5,-0.0416599,-0.128282,-0.991132,0.133276,-0.0449952,0.837928
2023-01-13 09:56:38:16,-0.0406815,-0.12609,-0.989099,0.133036,-0.0449142,0.83787
2023-01-13 09:56:38:26,-0.0428275,-0.126003,-0.987231,0.132884,-0.0448176,0.83785
2023-01-13 09:56:38:35,-0.0447275,-0.125473,-0.987379,0.132796,-0.0447733,0.837807
2023-01-13 09:56:38:45,-0.045119,-0.128148,-0.990451,0.132706,-0.0446973,0.837788
2023-01-13 09:56:38:55,-0.0440723,-0.12993,-0.992448,0.132652,-0.0446261,0.837751
2023-01-13 09:56:38:66,-0.0455121,-0.130412,-0.9934,0.132577,-0.0446166,0.837753
2023-01-13 09:56:38:76,-0.0449878,-0.131029,-0.990752,0.132406,-0.0445947,0.837833
2023-01-13 09:56:38:85,-0.0420886,-0.128991,-0.987505,0.132325,-0.044606,0.837869
2023-01-13 09:56:38:95,-0.0405753,-0.127642,-0.988265,0.132286,-0.0446268,0.837893
2023-01-13 09:56:38:105,-0.0417908,-0.12891,-0.988273,0.132264,-0.044579,0.837895
2023-01-13 09:56:38:115,-0.0417045,-0.129186,-0.989059,0.132233,-0.0445785,0.837916
2023-01-13 09:56:38:125,-0.0412988,-0.129792,-0.990252,0.132179,-0.0445643,0.837901
2023-01-13 09:56:38:135,-0.0411732,-0.131214,-0.98994,0.132146,-0.0445386,0.837864
2023-01-13 09:56:38:145,-0.0402243,-0.130394,-0.990873,0.132162,-0.0445024,0.837878
2023-01-13 09:56:38:155,-0.0417886,-0.131503,-0.992409,0.132216,-0.044564,0.837821
2023-01-13 09:56:38:165,-0.0433582,-0.13172,-0.994039,0.132259,-0.0445981,0.837752
2023-01-13 09:56:38:175,-0.0443153,-0.133206,-0.995719,0.132268,-0.044677,0.837637
2023-01-13 09:56:38:185,-0.0445885,-0.133415,-0.996163,0.132281,-0.0447531,0.837599
2023-01-13 09:56:38:195,-0.0452258,-0.132844,-0.994188,0.132287,-0.0448397,0.837576
2023-01-13 09:56:38:205,-0.0446952,-0.130622,-0.990495,0.13219,-0.0449315,0.837602
2023-01-13 09:56:38:215,-0.0445023,-0.129276,-0.989932,0.132138,-0.0450037,0.837603
2023-01-13 09:56:38:225,-0.0458735,-0.130389,-0.992032,0.132145,-0.0450925,0.8376
2023-01-13 09:56:38:236,-0.0470914,-0.130814,-0.995065,0.132206,-0.0452091,0.837519
2023-01-13 09:56:38:245,-0.0492819,-0.132833,-0.998957,0.132197,-0.0453395,0.837552
2023-01-13 09:56:38:255,-0.0514526,-0.131512,-0.99837,0.132101,-0.0453801,0.837607
2023-01-13 09:56:38:265,-0.0509057,-0.129743,-0.993888,0.132057,-0.045363,0.837656
2023-01-13 09:56:38:275,-0.0467066,-0.128508,-0.989938,0.131951,-0.0452741,0.837682
2023-01-13 09:56:38:286,-0.0444906,-0.127419,-0.987805,0.131902,-0.0451855,0.837691
2023-01-13 09:56:38:295,-0.0431963,-0.12775,-0.987337,0.131936,-0.045093,0.837668
2023-01-13 09:56:38:306,-0.040818,-0.130022,-0.987176,0.131991,-0.0449963,0.837729
2023-01-13 09:56:38:316,-0.0396546,-0.130132,-0.988761,0.13203,-0.044902,0.837757
2023-01-13 09:56:38:326,-0.0399747,-0.131005,-0.990526,0.132145,-0.0449189,0.837842
2023-01-13 09:56:38:336,-0.0424287,-0.13309,-0.992378,0.132218,-0.0449834,0.837928
2023-01-13 09:56:38:346,-0.0404422,-0.135008,-0.995122,0.132294,-0.0450675,0.838058
2023-01-13 09:56:38:356,-0.0407601,-0.134347,-0.994244,0.132291,-0.0451345,0.838117
2023-01-13 09:56:38:366,-0.0400219,-0.132682,-0.991701,0.132227,-0.0452301,0.838139
2023-01-13 09:56:38:375,-0.0407945,-0.129991,-0.987351,0.132109,-0.0452909,0.838158
2023-01-13 09:56:38:385,-0.0425275,-0.127925,-0.984676,0.132056,-0.0454108,0.838075
2023-01-13 09:56:38:395,-0.0432577,-0.12824,-0.987201,0.132063,-0.0454648,0.837994
2023-01-13 09:56:38:405,-0.0445449,-0.130776,-0.991381,0.132142,-0.0455619,0.837878
2023-01-13 09:56:38:415,-0.046865,-0.132661,-0.994875,0.132308,-0.0456703,0.837833
2023-01-13 09:56:38:426,-0.0473483,-0.134538,-0.997462,0.132474,-0.0457472,0.837751
2023-01-13 09:56:38:435,-0.0462264,-0.135682,-0.998759,0.132575,-0.0458645,0.837687
2023-01-13 09:56:38:446,-0.0463006,-0.135032,-0.999409,0.132662,-0.0459346,0.837571
2023-01-13 09:56:38:456,-0.0474965,-0.135589,-0.997315,0.132666,-0.0460715,0.837469
2023-01-13 09:56:38:466,-0.0531307,-0.134435,-0.993627,0.132713,-0.0462177,0.837339
2023-01-13 09:56:38:476,-0.0568774,-0.131886,-0.988672,0.132666,-0.0463444,0.837288
2023-01-13 09:56:38:486,-0.0545,-0.132167,-0.989176,0.132659,-0.0464225,0.837308
2023-01-13 09:56:38:496,-0.0495136,-0.132194,-0.989749,0.132607,-0.0463823,0.837379
2023-01-13 09:56:38:506,-0.0468389,-0.133421,-0.991957,0.132639,-0.0463392,0.83745
2023-01-13 09:56:38:516,-0.0493359,-0.134643,-0.994351,0.132616,-0.0463717,0.83746
2023-01-13 09:56:38:526,-0.0505067,-0.134106,-0.994739,0.132591,-0.0464751,0.8375
2023-01-13 09:56:38:536,-0.0500689,-0.133766,-0.995201,0.132551,-0.0465593,0.837596
2023-01-13 09:56:38:546,-0.0504215,-0.132284,-0.99494,0.132447,-0.0466172,0.837732
2023-01-13 09:56:38:556,-0.0483724,-0.131511,-0.993557,0.132355,-0.0466509,0.837816
2023-01-13 09:56:38:566,-0.0462051,-0.130274,-0.993479,0.132188,-0.0466172,0.837947
2023-01-13 09:56:38:576,-0.0439921,-0.129222,-0.991925,0.13201,-0.0466078,0.838043
2023-01-13 09:56:38:586,-0.0434406,-0.128215,-0.990751,0.131759,-0.0466069,0.838092
2023-01-13 09:56:38:596,-0.0434544,-0.1279,-0.989088,0.13156,-0.0466657,0.83818
2023-01-13 09:56:38:606,-0.044542,-0.127179,-0.987922,0.131358,-0.0466134,0.838173
2023-01-13 09:56:38:616,-0.0450087,-0.126488,-0.989468,0.131255,-0.0465981,0.838165
2023-01-13 09:56:38:626,-0.0445959,-0.125752,-0.989601,0.131134,-0.0464907,0.838136
2023-01-13 09:56:38:636,-0.0447974,-0.125567,-0.988863,0.131004,-0.0464063,0.838111
2023-01-13 09:56:38:646,-0.0449925,-0.124956,-0.989237,0.130942,-0.0463152,0.838033
2023-01-13 09:56:38:656,-0.0454291,-0.126367,-0.990699,0.130897,-0.0462193,0.837892
2023-01-13 09:56:38:666,-0.0436655,-0.127866,-0.992133,0.130852,-0.0461701,0.837902
2023-01-13 09:56:38:676,-0.0441477,-0.127716,-0.992842,0.130917,-0.0461642,0.837867
2023-01-13 09:56:38:686,-0.0455984,-0.127871,-0.992635,0.130927,-0.0462122,0.837838
2023-01-13 09:56:38:696,-0.0469325,-0.127406,-0.990686,0.130893,-0.0461873,0.837838
2023-01-13 09:56:38:706,-0.0461686,-0.128055,-0.99002,0.130857,-0.0461442,0.83787
2023-01-13 09:56:38:716,-0.0432686,-0.128437,-0.989908,0.130868,-0.0461556,0.83793
2023-01-13 09:56:38:726,-0.0421346,-0.127011,-0.989603,0.130901,-0.0461591,0.837984
2023-01-13 09:56:38:736,-0.0407646,-0.127077,-0.989717,0.130864,-0.0461443,0.838063
2023-01-13 09:56:38:746,-0.0405952,-0.127738,-0.988432,0.130937,-0.0461502,0.838102
2023-01-13 09:56:38:756,-0.0414636,-0.127934,-0.987279,0.131062,-0.0462118,0.838062
2023-01-13 09:56:38:766,-0.041275,-0.128388,-0.990011,0.131231,-0.0462621,0.838023
2023-01-13 09:56:38:776,-0.0406858,-0.131269,-0.994864,0.131377,-0.0462694,0.838003
2023-01-13 09:56:38:786,-0.041506,-0.133954,-0.998176,0.131497,-0.0463043,0.837902
2023-01-13 09:56:38:796,-0.0425598,-0.133307,-0.998111,0.131536,-0.0463815,0.837821
2023-01-13 09:56:38:806,-0.0418353,-0.132869,-0.998618,0.131499,-0.0464767,0.837725
2023-01-13 09:56:38:816,-0.0423097,-0.132826,-0.997172,0.131452,-0.0466394,0.837617
2023-01-13 09:56:38:826,-0.0432557,-0.130916,-0.992492,0.131375,-0.0468325,0.837453
2023-01-13 09:56:38:836,-0.0445907,-0.127991,-0.989619,0.131286,-0.0470369,0.837335
2023-01-13 09:56:38:846,-0.0472671,-0.128305,-0.990004,0.131213,-0.0471704,0.837159
2023-01-13 09:56:38:856,-0.0501127,-0.128124,-0.990746,0.131209,-0.0473375,0.836971
2023-01-13 09:56:38:866,-0.0528986,-0.129827,-0.995039,0.131253,-0.0474933,0.836831
2023-01-13 09:56:38:876,-0.0567417,-0.131198,-0.996474,0.131307,-0.0475938,0.836738
2023-01-13 09:56:38:886,-0.0567789,-0.131516,-0.997358,0.131223,-0.0476613,0.836691
2023-01-13 09:56:38:896,-0.0532311,-0.130746,-0.995271,0.131167,-0.0476701,0.836702
2023-01-13 09:56:38:906,-0.0508286,-0.131026,-0.993522,0.131082,-0.0476074,0.836768
2023-01-13 09:56:38:916,-0.0480817,-0.131611,-0.992156,0.130947,-0.047554,0.836788
2023-01-13 09:56:38:926,-0.0471216,-0.130201,-0.988688,0.130916,-0.0474983,0.836834
2023-01-13 09:56:38:936,-0.0478058,-0.13176,-0.988233,0.130861,-0.0474576,0.836907
2023-01-13 09:56:38:946,-0.0456637,-0.133209,-0.989433,0.130824,-0.0474524,0.837029
2023-01-13 09:56:38:956,-0.0451042,-0.133216,-0.991434,0.130769,-0.0474447,0.837099
2023-01-13 09:56:38:966,-0.0447985,-0.133699,-0.992653,0.130703,-0.0474731,0.837194
2023-01-13 09:56:38:976,-0.0438943,-0.131187,-0.99154,0.130607,-0.0475288,0.83727
2023-01-13 09:56:38:986,-0.0434626,-0.131132,-0.990725,0.130521,-0.0475913,0.837278
2023-01-13 09:56:38:996,-0.0443375,-0.131219,-0.990359,0.130398,-0.0476504,0.83724
2023-01-13 09:56:39:5,-0.043838,-0.12908,-0.988752,0.130254,-0.0476927,0.837198
2023-01-13 09:56:39:16,-0.0434392,-0.128804,-0.991192,0.13018,-0.0477496,0.837089
2023-01-13 09:56:39:26,-0.0441941,-0.128369,-0.994217,0.130175,-0.0477797,0.836964
2023-01-13 09:56:39:36,-0.0459344,-0.130971,-0.994145,0.130197,-0.0478546,0.836805
2023-01-13 09:56:39:46,-0.0493555,-0.129975,-0.992011,0.130194,-0.0479302,0.836699
2023-01-13 09:56:39:56,-0.0474848,-0.130758,-0.993973,0.130245,-0.04799,0.836545
2023-01-13 09:56:39:66,-0.0461591,-0.130571,-0.994277,0.130284,-0.0480819,0.836404
2023-01-13 09:56:39:76,-0.0471688,-0.131296,-0.994876,0.130358,-0.0481778,0.836247
2023-01-13 09:56:39:86,-0.0509522,-0.132138,-0.994533,0.130354,-0.0483457,0.836132
2023-01-13 09:56:39:96,-0.0539894,-0.131374,-0.992841,0.130295,-0.0484913,0.836073
2023-01-13 09:56:39:106,-0.0527406,-0.13246,-0.995806,0.130263,-0.0486034,0.836067
2023-01-13 09:56:39:116,-0.050943,-0.131871,-0.996473,0.130187,-0.0486547,0.836042
2023-01-13 09:56:39:126,-0.0497607,-0.130798,-0.99538,0.129998,-0.0486995,0.835956
2023-01-13 09:56:39:136,-0.0498783,-0.128643,-0.992797,0.129773,-0.0487869,0.835878
2023-01-13 09:56:39:146,-0.0527711,-0.127462,-0.991249,0.129569,-0.0488661,0.83582
2023-01-13 09:56:39:156,-0.0549848,-0.126481,-0.990129,0.129391,-0.0489506,0.83583
2023-01-13 09:56:39:166,-0.0553195,-0.124109,-0.989019,0.129149,-0.048974,0.835888
2023-01-13 09:56:39:176,-0.0536899,-0.124267,-0.988447,0.128998,-0.0489701,0.835965
2023-01-13 09:56:39:186,-0.0521263,-0.12488,-0.988468,0.128814,-0.0489535,0.835969
2023-01-13 09:56:39:196,-0.0524589,-0.125321,-0.989341,0.128704,-0.0489006,0.836035
2023-01-13 09:56:39:206,-0.0522314,-0.123495,-0.989162,0.128595,-0.0488696,0.836055
2023-01-13 09:56:39:216,-0.0518865,-0.123989,-0.990687,0.128491,-0.048838,0.836151
2023-01-13 09:56:39:226,-0.0511373,-0.124975,-0.992305,0.128376,-0.0487136,0.836226
2023-01-13 09:56:39:236,-0.0510606,-0.123861,-0.992178,0.128278,-0.0485946,0.836358
2023-01-13 09:56:39:246,-0.0492964,-0.121941,-0.990493,0.128164,-0.0484255,0.836468
2023-01-13 09:56:39:256,-0.0461866,-0.12087,-0.989652,0.12804,-0.0482951,0.836529
2023-01-13 09:56:39:266,-0.0448135,-0.121362,-0.99089,0.127977,-0.0482073,0.836593
2023-01-13 09:56:39:276,-0.0449739,-0.120559,-0.991886,0.127938,-0.04809,0.836695
2023-01-13 09:56:39:286,-0.0446379,-0.120832,-0.992194,0.127917,-0.0479413,0.836739
2023-01-13 09:56:39:296,-0.0444454,-0.123158,-0.992574,0.127923,-0.0479098,0.83675
2023-01-13 09:56:39:306,-0.0462336,-0.12459,-0.992532,0.12793,-0.0478856,0.836815
2023-01-13 09:56:39:316,-0.0464769,-0.122298,-0.991364,0.127935,-0.0478648,0.836896
2023-01-13 09:56:39:326,-0.0458612,-0.122734,-0.989481,0.127934,-0.0478705,0.83702
2023-01-13 09:56:39:336,-0.0440428,-0.122629,-0.988772,0.127984,-0.0478601,0.837142
2023-01-13 09:56:39:346,-0.0430747,-0.124342,-0.990272,0.128113,-0.0478697,0.837235
2023-01-13 09:56:39:356,-0.0424503,-0.126037,-0.991561,0.128207,-0.0478709,0.837374
2023-01-13 09:56:39:366,-0.0426376,-0.12653,-0.991814,0.128337,-0.0478595,0.837403
2023-01-13 09:56:39:376,-0.0439394,-0.127317,-0.992036,0.128421,-0.0479068,0.837425
2023-01-13 09:56:39:386,-0.0435425,-0.127059,-0.992514,0.128524,-0.0479089,0.837377
2023-01-13 09:56:39:396,-0.0422218,-0.127579,-0.994232,0.128633,-0.0479355,0.837341
2023-01-13 09:56:39:406,-0.0438319,-0.127096,-0.995153,0.128711,-0.048031,0.837289
2023-01-13 09:56:39:416,-0.0446859,-0.126405,-0.994568,0.128772,-0.0481637,0.837212
2023-01-13 09:56:39:426,-0.0448893,-0.126189,-0.994186,0.128818,-0.0482034,0.837143
2023-01-13 09:56:39:436,-0.0447306,-0.126779,-0.995335,0.128865,-0.0483315,0.83695
2023-01-13 09:56:39:446,-0.0453012,-0.127657,-0.994546,0.128831,-0.0483988,0.836736
2023-01-13 09:56:39:456,-0.0466398,-0.12624,-0.992271,0.128832,-0.048524,0.836531
2023-01-13 09:56:39:466,-0.0481769,-0.125214,-0.991697,0.128816,-0.0486477,0.836351
2023-01-13 09:56:39:476,-0.0502116,-0.123485,-0.990185,0.128779,-0.0487465,0.836154
2023-01-13 09:56:39:485,-0.0553645,-0.124038,-0.99051,0.12881,-0.048883,0.835934
2023-01-13 09:56:39:495,-0.0581557,-0.126141,-0.994685,0.128896,-0.0490404,0.835756
2023-01-13 09:56:39:506,-0.0608686,-0.126461,-0.996642,0.128981,-0.0491492,0.835676
2023-01-13 09:56:39:516,-0.0592933,-0.126765,-0.994803,0.128961,-0.0491443,0.835632
2023-01-13 09:56:39:526,-0.0578321,-0.127537,-0.994243,0.128935,-0.0490688,0.835673
2023-01-13 09:56:39:536,-0.0540227,-0.12731,-0.991558,0.128915,-0.0489902,0.835751
2023-01-13 09:56:39:546,-0.0511447,-0.128736,-0.992054,0.128938,-0.0488962,0.835928
2023-01-13 09:56:39:556,-0.049001,-0.128938,-0.989732,0.129005,-0.0488078,0.836112
2023-01-13 09:56:39:566,-0.0481536,-0.129445,-0.988711,0.129076,-0.0487625,0.836363
2023-01-13 09:56:39:576,-0.0466628,-0.130065,-0.988566,0.129126,-0.0487141,0.836551
2023-01-13 09:56:39:586,-0.0456055,-0.129621,-0.988397,0.129233,-0.0487104,0.836794
2023-01-13 09:56:39:596,-0.0446172,-0.130335,-0.990772,0.129302,-0.0486644,0.836958
2023-01-13 09:56:39:606,-0.0437101,-0.130906,-0.991748,0.129347,-0.0486882,0.837071
2023-01-13 09:56:39:616,-0.0419573,-0.128932,-0.990525,0.129324,-0.0487041,0.837177
2023-01-13 09:56:39:626,-0.0422744,-0.12804,-0.989342,0.129353,-0.0487099,0.837143
2023-01-13 09:56:39:636,-0.0422779,-0.127402,-0.989271,0.129396,-0.0487075,0.837057
2023-01-13 09:56:39:645,-0.0443648,-0.129342,-0.993537,0.129459,-0.048731,0.836922
2023-01-13 09:56:39:655,-0.0459756,-0.129716,-0.996334,0.129568,-0.0487707,0.836781
2023-01-13 09:56:39:666,-0.0503154,-0.131897,-0.995748,0.129621,-0.0488669,0.836628
2023-01-13 09:56:39:676,-0.0513268,-0.130335,-0.993593,0.129619,-0.0489277,0.836487
2023-01-13 09:56:39:686,-0.0486472,-0.129004,-0.992948,0.129708,-0.0490087,0.836367
2023-01-13 09:56:39:695,-0.0475761,-0.129403,-0.993851,0.129732,-0.0490407,0.836208
2023-01-13 09:56:39:706,-0.0493953,-0.13113,-0.995008,0.129775,-0.0491574,0.836111
2023-01-13 09:56:39:716,-0.0531717,-0.131107,-0.992849,0.129828,-0.0493384,0.835985
2023-01-13 09:56:39:726,-0.0586467,-0.131926,-0.991545,0.129925,-0.0495089,0.835884
2023-01-13 09:56:39:736,-0.0571101,-0.131619,-0.993161,0.129978,-0.0494836,0.83572
2023-01-13 09:56:39:746,-0.054436,-0.131818,-0.995755,0.129961,-0.0494534,0.83565
2023-01-13 09:56:39:756,-0.051676,-0.131295,-0.995075,0.129975,-0.0494388,0.835603
2023-01-13 09:56:39:766,-0.0529009,-0.130458,-0.994577,0.129869,-0.0494747,0.835514
2023-01-13 09:56:39:776,-0.0547567,-0.128056,-0.992748,0.129718,-0.049526,0.835477
2023-01-13 09:56:39:786,-0.0560383,-0.126484,-0.991492,0.129618,-0.0495661,0.835492
2023-01-13 09:56:39:796,-0.055918,-0.125882,-0.990312,0.129503,-0.049508,0.835484
2023-01-13 09:56:39:806,-0.0540665,-0.124418,-0.988387,0.12937,-0.0494178,0.835541
2023-01-13 09:56:39:816,-0.0517916,-0.124194,-0.989058,0.129293,-0.0493256,0.835545
2023-01-13 09:56:39:826,-0.0497808,-0.125082,-0.990888,0.129188,-0.049173,0.835542
2023-01-13 09:56:39:836,-0.0502107,-0.12586,-0.992081,0.129115,-0.0490156,0.835512
2023-01-13 09:56:39:846,-0.0504755,-0.126934,-0.99435,0.129038,-0.0489152,0.835523
2023-01-13 09:56:39:856,-0.0512981,-0.126351,-0.995205,0.128992,-0.0488562,0.835471
2023-01-13 09:56:39:866,-0.0517642,-0.124695,-0.99467,0.128881,-0.0487267,0.835476
2023-01-13 09:56:39:876,-0.0511357,-0.125316,-0.994608,0.128786,-0.0486292,0.835502
2023-01-13 09:56:39:886,-0.0514771,-0.124646,-0.993639,0.128645,-0.0485015,0.835538
2023-01-13 09:56:39:896,-0.0518905,-0.123677,-0.992149,0.128528,-0.0483079,0.83555
2023-01-13 09:56:39:905,-0.0500828,-0.122447,-0.990749,0.128373,-0.0480888,0.835622
2023-01-13 09:56:39:915,-0.0488398,-0.122335,-0.991251,0.128242,-0.0479606,0.83571
2023-01-13 09:56:39:925,-0.0499338,-0.123327,-0.991376,0.128158,-0.0478317,0.835807
2023-01-13 09:56:39:935,-0.0475642,-0.122974,-0.991352,0.128097,-0.0477012,0.835958
2023-01-13 09:56:39:945,-0.0459159,-0.120858,-0.989708,0.128016,-0.0476063,0.836116
2023-01-13 09:56:39:955,-0.0464384,-0.121341,-0.987538,0.12796,-0.0474815,0.836239
2023-01-13 09:56:39:965,-0.0447183,-0.120033,-0.985691,0.127943,-0.0473749,0.836369
2023-01-13 09:56:39:975,-0.0437239,-0.120246,-0.986793,0.127989,-0.0472908,0.836555
2023-01-13 09:56:39:985,-0.0420938,-0.12122,-0.986979,0.128115,-0.0471599,0.836639
2023-01-13 09:56:39:995,-0.0408931,-0.122082,-0.987385,0.128238,-0.047027,0.836693
2023-01-13 09:56:40:5,-0.0397021,-0.124032,-0.990038,0.128374,-0.0469299,0.836703
2023-01-13 09:56:40:15,-0.0408106,-0.126775,-0.991272,0.128549,-0.0468521,0.836682
2023-01-13 09:56:40:26,-0.0435907,-0.1273,-0.991422,0.128754,-0.0468072,0.836594
2023-01-13 09:56:40:35,-0.0430378,-0.127347,-0.992263,0.128979,-0.0467164,0.836518
2023-01-13 09:56:40:46,-0.0426473,-0.128957,-0.9952,0.129233,-0.0466902,0.83643
2023-01-13 09:56:40:55,-0.0440237,-0.128996,-0.994862,0.129454,-0.0467143,0.836313
2023-01-13 09:56:40:66,-0.0449677,-0.130043,-0.995824,0.12969,-0.0467737,0.836151
2023-01-13 09:56:40:76,-0.0462948,-0.131193,-0.996401,0.129831,-0.0468399,0.836076
2023-01-13 09:56:40:86,-0.0480185,-0.13084,-0.996128,0.129969,-0.0469422,0.835979
2023-01-13 09:56:40:96,-0.0484972,-0.129722,-0.993305,0.130084,-0.0470663,0.835933
2023-01-13 09:56:40:105,-0.0486134,-0.128867,-0.991635,0.130175,-0.0471657,0.835891
2023-01-13 09:56:40:115,-0.0501746,-0.129192,-0.993398,0.130296,-0.0472572,0.835842
2023-01-13 09:56:40:125,-0.0513754,-0.131115,-0.997607,0.130408,-0.0474149,0.835826
2023-01-13 09:56:40:135,-0.0529165,-0.132481,-0.999613,0.130522,-0.0474972,0.835826
2023-01-13 09:56:40:146,-0.0558165,-0.132271,-0.997638,0.130518,-0.0475211,0.835926
2023-01-13 09:56:40:155,-0.0532545,-0.13132,-0.995533,0.130482,-0.0474627,0.836069
2023-01-13 09:56:40:165,-0.05061,-0.128344,-0.992643,0.130441,-0.04738,0.836131
2023-01-13 09:56:40:176,-0.0476477,-0.129479,-0.992537,0.130439,-0.0472297,0.836265
2023-01-13 09:56:40:185,-0.0468832,-0.130728,-0.992298,0.130479,-0.0470913,0.836335
2023-01-13 09:56:40:196,-0.0457844,-0.131297,-0.99075,0.130555,-0.0469627,0.836458
2023-01-13 09:56:40:205,-0.0440713,-0.132565,-0.989833,0.130571,-0.0467894,0.836547
2023-01-13 09:56:40:215,-0.0429682,-0.133037,-0.99063,0.130548,-0.0466473,0.836672
2023-01-13 09:56:40:226,-0.040877,-0.133177,-0.990957,0.13055,-0.0465035,0.836737
2023-01-13 09:56:40:236,-0.0415333,-0.133524,-0.991305,0.130562,-0.0465129,0.836806
2023-01-13 09:56:40:246,-0.0415889,-0.131339,-0.989153,0.130488,-0.0464918,0.836854
2023-01-13 09:56:40:256,-0.0408972,-0.127977,-0.987058,0.130374,-0.0465272,0.83685
2023-01-13 09:56:40:266,-0.0430515,-0.126509,-0.987506,0.130292,-0.0465864,0.836829
2023-01-13 09:56:40:276,-0.0443631,-0.127045,-0.990032,0.130284,-0.046689,0.836775
2023-01-13 09:56:40:286,-0.0449339,-0.128944,-0.994472,0.13033,-0.0467192,0.836755
2023-01-13 09:56:40:296,-0.0464423,-0.130023,-0.997407,0.130402,-0.0467553,0.836735
2023-01-13 09:56:40:306,-0.0487276,-0.130652,-0.995086,0.130502,-0.0468289,0.836711
2023-01-13 09:56:40:316,-0.0476912,-0.130221,-0.994379,0.130616,-0.046764,0.836625
2023-01-13 09:56:40:326,-0.0444827,-0.13041,-0.995703,0.130669,-0.046779,0.83659
2023-01-13 09:56:40:336,-0.0440104,-0.130076,-0.995933,0.130725,-0.0468083,0.836529
2023-01-13 09:56:40:346,-0.0453549,-0.132397,-0.996587,0.130724,-0.0469355,0.836421
2023-01-13 09:56:40:355,-0.050266,-0.132089,-0.99455,0.130769,-0.0470675,0.836303
2023-01-13 09:56:40:365,-0.0528456,-0.131054,-0.99187,0.130758,-0.0471442,0.836233
2023-01-13 09:56:40:376,-0.0508961,-0.130481,-0.991893,0.130721,-0.0471545,0.836229
2023-01-13 09:56:40:386,-0.0484737,-0.130611,-0.994004,0.130675,-0.047111,0.836332
2023-01-13 09:56:40:396,-0.0466769,-0.131204,-0.994608,0.130639,-0.0471035,0.836373
2023-01-13 09:56:40:405,-0.046258,-0.130174,-0.993649,0.130535,-0.0471359,0.836418
2023-01-13 09:56:40:415,-0.0497621,-0.128602,-0.991202,0.1304,-0.0471069,0.836447
2023-01-13 09:56:40:425,-0.0506525,-0.127742,-0.990974,0.13032,-0.0470924,0.836502
2023-01-13 09:56:40:435,-0.0493777,-0.127862,-0.991789,0.130211,-0.0470778,0.836558
2023-01-13 09:56:40:446,-0.0477156,-0.127347,-0.991983,0.13012,-0.0470497,0.836713
2023-01-13 09:56:40:455,-0.0471575,-0.126812,-0.99253,0.130014,-0.0469267,0.836814
2023-01-13 09:56:40:466,-0.0472037,-0.126192,-0.992797,0.129881,-0.046895,0.836927
2023-01-13 09:56:40:476,-0.0467753,-0.12528,-0.99289,0.129759,-0.0468442,0.837013
2023-01-13 09:56:40:486,-0.0471545,-0.124178,-0.992119,0.129628,-0.0467846,0.837062
2023-01-13 09:56:40:496,-0.0463568,-0.124227,-0.993154,0.129547,-0.0466828,0.837105
2023-01-13 09:56:40:506,-0.0470001,-0.124576,-0.993832,0.129391,-0.0466557,0.83716
2023-01-13 09:56:40:516,-0.0461003,-0.124464,-0.994174,0.129259,-0.0465109,0.837246
2023-01-13 09:56:40:526,-0.0443953,-0.123551,-0.993683,0.129118,-0.0463786,0.837259
2023-01-13 09:56:40:536,-0.0444397,-0.121767,-0.99259,0.128969,-0.0462431,0.837315
2023-01-13 09:56:40:545,-0.0449881,-0.121247,-0.990864,0.128834,-0.0461221,0.837326
2023-01-13 09:56:40:555,-0.0446827,-0.119632,-0.988358,0.128681,-0.0459731,0.837347
2023-01-13 09:56:40:565,-0.0448676,-0.119257,-0.987421,0.128552,-0.0458417,0.837368
2023-01-13 09:56:40:576,-0.0435251,-0.120931,-0.987154,0.128496,-0.0457421,0.837436
2023-01-13 09:56:40:585,-0.0435413,-0.121837,-0.987903,0.12848,-0.045702,0.837471
2023-01-13 09:56:40:596,-0.0442417,-0.121724,-0.988104,0.128585,-0.0457407,0.837555
2023-01-13 09:56:40:605,-0.0455121,-0.124325,-0.989004,0.128649,-0.045749,0.837647
2023-01-13 09:56:40:615,-0.0450325,-0.125648,-0.991876,0.12878,-0.0456977,0.837739
2023-01-13 09:56:40:626,-0.0430004,-0.125905,-0.992493,0.128849,-0.0456869,0.837753
2023-01-13 09:56:40:635,-0.0442295,-0.126052,-0.991303,0.128976,-0.0456473,0.837788
2023-01-13 09:56:40:645,-0.0442261,-0.127045,-0.991679,0.129007,-0.0456862,0.837804
2023-01-13 09:56:40:655,-0.0445832,-0.127502,-0.992633,0.129111,-0.0456538,0.837857
2023-01-13 09:56:40:665,-0.0443502,-0.127474,-0.992189,0.129251,-0.0456232,0.837819
2023-01-13 09:56:40:675,-0.0420373,-0.128965,-0.994773,0.129317,-0.0456847,0.837816
2023-01-13 09:56:40:686,-0.0423736,-0.130457,-0.998231,0.129464,-0.0456598,0.837748
2023-01-13 09:56:40:696,-0.0416826,-0.130176,-1.00003,0.129554,-0.0457497,0.837683
2023-01-13 09:56:40:705,-0.0398784,-0.131082,-1.00094,0.129588,-0.0457909,0.837539
2023-01-13 09:56:40:716,-0.0403433,-0.133549,-1.00046,0.129538,-0.0458778,0.837392
2023-01-13 09:56:40:726,-0.0409152,-0.131091,-0.995702,0.129456,-0.0459137,0.837187
2023-01-13 09:56:40:736,-0.0411163,-0.125661,-0.991619,0.12928,-0.0459934,0.836996
2023-01-13 09:56:40:746,-0.0436209,-0.122945,-0.988419,0.129109,-0.0460555,0.836713
2023-01-13 09:56:40:755,-0.0479419,-0.122351,-0.988567,0.129022,-0.046183,0.836473
2023-01-13 09:56:40:765,-0.0525269,-0.124525,-0.993345,0.128989,-0.0462862,0.836199
2023-01-13 09:56:40:776,-0.0570672,-0.126425,-0.996401,0.128954,-0.0463709,0.83601
2023-01-13 09:56:40:785,-0.0563411,-0.126955,-0.996331,0.128919,-0.0463995,0.835919
2023-01-13 09:56:40:796,-0.0562556,-0.125666,-0.994724,0.128836,-0.046391,0.83588
2023-01-13 09:56:40:806,-0.0526095,-0.124666,-0.991355,0.128751,-0.0462761,0.835883
2023-01-13 09:56:40:816,-0.0491844,-0.125574,-0.989456,0.128757,-0.0462036,0.835921
2023-01-13 09:56:40:826,-0.0479545,-0.126068,-0.988986,0.128774,-0.0461251,0.835959
2023-01-13 09:56:40:836,-0.0473682,-0.127413,-0.987288,0.128776,-0.0460203,0.836055
2023-01-13 09:56:40:846,-0.0472745,-0.127583,-0.985931,0.128859,-0.0459626,0.836142
2023-01-13 09:56:40:856,-0.0461968,-0.126599,-0.985805,0.129023,-0.0458978,0.836256
2023-01-13 09:56:40:866,-0.0453323,-0.127774,-0.987615,0.129119,-0.0458868,0.836359
2023-01-13 09:56:40:876,-0.0437785,-0.12937,-0.99086,0.129249,-0.0458805,0.836421
2023-01-13 09:56:40:886,-0.0430877,-0.12936,-0.99278,0.129296,-0.0458548,0.836513
2023-01-13 09:56:40:896,-0.0435755,-0.129553,-0.993486,0.129346,-0.0458523,0.836589
2023-01-13 09:56:40:906,-0.0425904,-0.129462,-0.993373,0.129422,-0.0458891,0.836638
2023-01-13 09:56:40:916,-0.0421018,-0.129468,-0.996268,0.129408,-0.0459031,0.836652
2023-01-13 09:56:40:926,-0.0428567,-0.128958,-0.996876,0.129442,-0.0459466,0.836658
2023-01-13 09:56:40:936,-0.0431855,-0.130062,-0.997919,0.129464,-0.0460249,0.836654
2023-01-13 09:56:40:946,-0.0451957,-0.130144,-0.995653,0.1295,-0.0460946,0.836647
2023-01-13 09:56:40:956,-0.0434035,-0.129003,-0.994229,0.129531,-0.0461237,0.836546
2023-01-13 09:56:40:966,-0.0423279,-0.130155,-0.995162,0.129571,-0.0461541,0.836476
2023-01-13 09:56:40:976,-0.0424764,-0.130032,-0.994059,0.129586,-0.0462203,0.836373
2023-01-13 09:56:40:986,-0.0435336,-0.13284,-0.997396,0.129619,-0.0462882,0.836286
2023-01-13 09:56:40:996,-0.050579,-0.132781,-0.996776,0.129607,-0.0464792,0.836168
2023-01-13 09:56:41:5,-0.0538292,-0.133448,-0.995049,0.129561,-0.0465997,0.836031
2023-01-13 09:56:41:16,-0.0523421,-0.131593,-0.994354,0.129432,-0.0466169,0.835954
2023-01-13 09:56:41:26,-0.0507773,-0.130961,-0.993165,0.129318,-0.0466013,0.835894
2023-01-13 09:56:41:36,-0.0489257,-0.129803,-0.99372,0.129131,-0.0466139,0.83591
2023-01-13 09:56:41:46,-0.0488241,-0.128755,-0.993519,0.128986,-0.0466577,0.835897
2023-01-13 09:56:41:55,-0.0529873,-0.128939,-0.99287,0.128818,-0.046725,0.835912
2023-01-13 09:56:41:66,-0.0537739,-0.127613,-0.992644,0.128574,-0.0467406,0.836038
2023-01-13 09:56:41:76,-0.0528897,-0.127508,-0.992903,0.128365,-0.0467306,0.83612
2023-01-13 09:56:41:85,-0.0497649,-0.127204,-0.993947,0.128199,-0.0467259,0.836296
2023-01-13 09:56:41:96,-0.0480036,-0.125693,-0.994313,0.128032,-0.0466756,0.836453
2023-01-13 09:56:41:106,-0.0467719,-0.124762,-0.995656,0.127842,-0.046594,0.83659
2023-01-13 09:56:41:116,-0.0455985,-0.124711,-0.994426,0.127612,-0.0465555,0.836715
2023-01-13 09:56:41:125,-0.0460832,-0.124044,-0.992801,0.127394,-0.0464647,0.836807
2023-01-13 09:56:41:135,-0.0458842,-0.123078,-0.991732,0.127171,-0.0463503,0.836911
2023-01-13 09:56:41:146,-0.0447412,-0.122013,-0.990507,0.126908,-0.0462662,0.837016
2023-01-13 09:56:41:155,-0.0456483,-0.120788,-0.991182,0.126678,-0.0460736,0.837084
2023-01-13 09:56:41:165,-0.045333,-0.119673,-0.990911,0.126439,-0.045941,0.837068
2023-01-13 09:56:41:175,-0.0457782,-0.11923,-0.989741,0.126115,-0.0457855,0.83707
2023-01-13 09:56:41:185,-0.0457869,-0.119626,-0.989036,0.125973,-0.0456421,0.837113
2023-01-13 09:56:41:195,-0.046091,-0.119091,-0.988605,0.125895,-0.0454797,0.837225
2023-01-13 09:56:41:205,-0.0444325,-0.119839,-0.990233,0.125763,-0.0453984,0.837309
2023-01-13 09:56:41:215,-0.0434313,-0.121758,-0.993033,0.125696,-0.0453752,0.837445
2023-01-13 09:56:41:225,-0.0427737,-0.121946,-0.99414,0.125629,-0.0453292,0.837591
2023-01-13 09:56:41:235,-0.0412406,-0.120473,-0.993137,0.125601,-0.0452598,0.837726
2023-01-13 09:56:41:245,-0.0387599,-0.120659,-0.991812,0.125543,-0.0452397,0.837864
2023-01-13 09:56:41:255,-0.0388558,-0.121084,-0.991876,0.12549,-0.0452175,0.837963
2023-01-13 09:56:41:265,-0.0376533,-0.121335,-0.991514,0.125431,-0.0452109,0.837997
2023-01-13 09:56:41:275,-0.0373526,-0.122045,-0.991381,0.125445,-0.0451916,0.838006
2023-01-13 09:56:41:285,-0.0376151,-0.123338,-0.992464,0.125486,-0.0452586,0.837945
2023-01-13 09:56:41:295,-0.0381239,-0.12366,-0.992748,0.125552,-0.0452856,0.837788
2023-01-13 09:56:41:305,-0.0402403,-0.124088,-0.994106,0.125583,-0.0452969,0.837656
2023-01-13 09:56:41:316,-0.0405012,-0.124425,-0.996396,0.125588,-0.0453599,0.837532
2023-01-13 09:56:41:326,-0.0416558,-0.125495,-0.99921,0.125591,-0.0454538,0.837413
2023-01-13 09:56:41:336,-0.0436719,-0.123146,-0.997918,0.125521,-0.0455386,0.837321
2023-01-13 09:56:41:346,-0.0442315,-0.121583,-0.996827,0.125426,-0.0456763,0.837204
2023-01-13 09:56:41:356,-0.044936,-0.119737,-0.993889,0.125276,-0.0457956,0.837051
2023-01-13 09:56:41:366,-0.0468625,-0.117074,-0.986917,0.12509,-0.045891,0.836816
2023-01-13 09:56:41:376,-0.0466304,-0.116469,-0.984919,0.124949,-0.0459511,0.836631
2023-01-13 09:56:41:386,-0.0467337,-0.115989,-0.986262,0.124902,-0.0460202,0.836398
2023-01-13 09:56:41:396,-0.0509539,-0.117476,-0.990036,0.124941,-0.0460651,0.836235
2023-01-13 09:56:41:406,-0.0560146,-0.120944,-0.996003,0.124993,-0.0461142,0.836046
2023-01-13 09:56:41:416,-0.0611966,-0.12398,-0.998998,0.125063,-0.0461578,0.83591
2023-01-13 09:56:41:426,-0.0624508,-0.124102,-0.9978,0.125017,-0.046149,0.835872
2023-01-13 09:56:41:436,-0.0572101,-0.121262,-0.994705,0.12502,-0.0460657,0.835984
2023-01-13 09:56:41:446,-0.0524689,-0.120052,-0.991863,0.124967,-0.0458827,0.836128
2023-01-13 09:56:41:456,-0.0484016,-0.120355,-0.989088,0.124943,-0.0457077,0.836376
2023-01-13 09:56:41:466,-0.0462285,-0.121862,-0.987281,0.124963,-0.0455846,0.836612
2023-01-13 09:56:41:476,-0.0443394,-0.122979,-0.98689,0.125038,-0.0454644,0.836919
2023-01-13 09:56:41:486,-0.0409151,-0.124978,-0.990625,0.12518,-0.0453428,0.837152
2023-01-13 09:56:41:496,-0.0387418,-0.127421,-0.995091,0.125388,-0.0452831,0.837417
2023-01-13 09:56:41:506,-0.0382015,-0.129061,-0.998875,0.125468,-0.0452716,0.837576
2023-01-13 09:56:41:516,-0.036052,-0.127958,-0.998068,0.125476,-0.0452777,0.83768
2023-01-13 09:56:41:526,-0.0350468,-0.12694,-0.995607,0.125457,-0.0452344,0.837755
2023-01-13 09:56:41:536,-0.0360677,-0.123493,-0.991946,0.125349,-0.0452459,0.83774
2023-01-13 09:56:41:546,-0.0389562,-0.120167,-0.98799,0.125236,-0.0452887,0.837659
2023-01-13 09:56:41:556,-0.0394938,-0.12055,-0.987792,0.125238,-0.0453536,0.837487
2023-01-13 09:56:41:566,-0.0413098,-0.12099,-0.991737,0.125294,-0.0454375,0.837343
2023-01-13 09:56:41:576,-0.0438151,-0.123852,-0.995614,0.125406,-0.0455563,0.837099
2023-01-13 09:56:41:586,-0.0458635,-0.125512,-0.995443,0.125477,-0.0456502,0.836886
2023-01-13 09:56:41:596,-0.0471421,-0.125389,-0.996317,0.125531,-0.0457574,0.836704
2023-01-13 09:56:41:606,-0.0477975,-0.12556,-0.996259,0.125576,-0.0458138,0.836591
2023-01-13 09:56:41:616,-0.0465398,-0.124405,-0.996096,0.125573,-0.0458761,0.836473
2023-01-13 09:56:41:626,-0.0467924,-0.125268,-0.996653,0.125613,-0.0460322,0.836371
2023-01-13 09:56:41:636,-0.0512391,-0.125498,-0.994311,0.125575,-0.0462169,0.836266
2023-01-13 09:56:41:646,-0.052791,-0.125697,-0.992456,0.125503,-0.0463285,0.836168
2023-01-13 09:56:41:656,-0.0519623,-0.12386,-0.991993,0.125485,-0.0463648,0.836068
2023-01-13 09:56:41:666,-0.0478617,-0.122626,-0.992415,0.125406,-0.0463883,0.836008
2023-01-13 09:56:41:676,-0.0449387,-0.122821,-0.991367,0.125332,-0.0463997,0.835921
2023-01-13 09:56:41:686,-0.0472552,-0.122939,-0.990639,0.125342,-0.0464054,0.835845
2023-01-13 09:56:41:696,-0.0503427,-0.122481,-0.990419,0.125402,-0.0464179,0.835795
2023-01-13 09:56:41:706,-0.050954,-0.122972,-0.992489,0.125468,-0.0465001,0.835779
2023-01-13 09:56:41:716,-0.0516984,-0.125366,-0.995317,0.125499,-0.0465543,0.835771
2023-01-13 09:56:41:726,-0.051715,-0.126059,-0.997127,0.125522,-0.0465634,0.835778
2023-01-13 09:56:41:736,-0.0511046,-0.124013,-0.993848,0.125548,-0.04659,0.835808
2023-01-13 09:56:41:746,-0.0502116,-0.122869,-0.991884,0.125569,-0.0465846,0.835852
2023-01-13 09:56:41:756,-0.0497876,-0.123933,-0.992023,0.125562,-0.0465247,0.835873
2023-01-13 09:56:41:766,-0.0488408,-0.123774,-0.99157,0.125547,-0.0465225,0.835931
2023-01-13 09:56:41:776,-0.0482752,-0.125536,-0.994234,0.125554,-0.0464611,0.835985
2023-01-13 09:56:41:786,-0.0484876,-0.124886,-0.994707,0.125535,-0.0463708,0.836031
2023-01-13 09:56:41:796,-0.0487052,-0.124461,-0.993722,0.125533,-0.0462716,0.836079
2023-01-13 09:56:41:806,-0.0461182,-0.12422,-0.994453,0.12546,-0.0461457,0.836173
2023-01-13 09:56:41:816,-0.0467041,-0.123804,-0.995567,0.125403,-0.0460182,0.836224
2023-01-13 09:56:41:826,-0.0472205,-0.123194,-0.995044,0.12533,-0.0458984,0.836286
2023-01-13 09:56:41:836,-0.0475632,-0.123196,-0.993641,0.125252,-0.0457617,0.836407
2023-01-13 09:56:41:846,-0.0459026,-0.121471,-0.992868,0.125124,-0.0456643,0.836531
2023-01-13 09:56:41:856,-0.0448843,-0.120194,-0.990633,0.125003,-0.0455652,0.836606
2023-01-13 09:56:41:866,-0.0439506,-0.120146,-0.989699,0.124978,-0.0454579,0.836694
2023-01-13 09:56:41:876,-0.044019,-0.120379,-0.991345,0.124898,-0.0454361,0.836845
2023-01-13 09:56:41:886,-0.0428604,-0.120279,-0.992227,0.124903,-0.0453677,0.837005
2023-01-13 09:56:41:896,-0.042351,-0.120912,-0.992676,0.124912,-0.0452999,0.837097
2023-01-13 09:56:41:906,-0.0404594,-0.120158,-0.991524,0.124939,-0.0453186,0.837234
2023-01-13 09:56:41:916,-0.0398547,-0.120852,-0.992413,0.124929,-0.0452566,0.837296
2023-01-13 09:56:41:926,-0.0393586,-0.122816,-0.993576,0.124958,-0.0452279,0.837342
2023-01-13 09:56:41:936,-0.0399751,-0.122397,-0.992312,0.124997,-0.0451642,0.83733
2023-01-13 09:56:41:946,-0.0399155,-0.122221,-0.990723,0.125037,-0.0451498,0.837415
2023-01-13 09:56:41:956,-0.0393932,-0.120891,-0.99115,0.12508,-0.0451107,0.837444
2023-01-13 09:56:41:966,-0.0382125,-0.121987,-0.994353,0.125199,-0.0451251,0.837373
2023-01-13 09:56:41:976,-0.0387473,-0.124007,-0.997394,0.125223,-0.0452689,0.837326
2023-01-13 09:56:41:986,-0.0394288,-0.12279,-0.997625,0.125289,-0.0453071,0.837269
2023-01-13 09:56:41:996,-0.0403025,-0.122983,-0.998236,0.125258,-0.0454091,0.837127
2023-01-13 09:56:42:6,-0.0431863,-0.122024,-0.995659,0.125173,-0.0455097,0.836954
2023-01-13 09:56:42:16,-0.0429127,-0.119204,-0.991752,0.125075,-0.0456884,0.836772
2023-01-13 09:56:42:26,-0.0443155,-0.115934,-0.988913,0.124996,-0.045829,0.836582
2023-01-13 09:56:42:36,-0.0464775,-0.115824,-0.989214,0.125006,-0.0459812,0.836374
2023-01-13 09:56:42:46,-0.0499463,-0.116926,-0.990919,0.125022,-0.046181,0.836153
2023-01-13 09:56:42:56,-0.0563065,-0.119177,-0.991686,0.125118,-0.046346,0.835968
2023-01-13 09:56:42:66,-0.0601128,-0.11982,-0.993241,0.125197,-0.0465392,0.835795
2023-01-13 09:56:42:76,-0.0583445,-0.121512,-0.995247,0.125282,-0.0465288,0.835709
2023-01-13 09:56:42:86,-0.0546724,-0.122041,-0.995159,0.125395,-0.0464118,0.835719
2023-01-13 09:56:42:96,-0.049578,-0.122025,-0.99435,0.125467,-0.0462909,0.835842
2023-01-13 09:56:42:106,-0.0477402,-0.122929,-0.99184,0.125554,-0.0461881,0.835988
2023-01-13 09:56:42:115,-0.0475661,-0.123329,-0.989686,0.125627,-0.0460924,0.836178
2023-01-13 09:56:42:125,-0.047577,-0.124633,-0.990061,0.125769,-0.0460461,0.836356
2023-01-13 09:56:42:136,-0.0450306,-0.125651,-0.991747,0.125931,-0.0459879,0.836633
2023-01-13 09:56:42:145,-0.0424672,-0.125721,-0.991367,0.126118,-0.0459437,0.836882
2023-01-13 09:56:42:155,-0.0404452,-0.124729,-0.991253,0.126269,-0.0459282,0.836986
2023-01-13 09:56:42:166,-0.0392074,-0.124663,-0.991323,0.126412,-0.0459278,0.83711
2023-01-13 09:56:42:176,-0.0391593,-0.123606,-0.990551,0.126553,-0.045958,0.837245
2023-01-13 09:56:42:186,-0.0392449,-0.122663,-0.990268,0.126688,-0.0459694,0.83726
2023-01-13 09:56:42:196,-0.0415396,-0.123633,-0.990703,0.126896,-0.0459924,0.837225
2023-01-13 09:56:42:206,-0.0430714,-0.125031,-0.993694,0.127074,-0.0460703,0.837143
2023-01-13 09:56:42:216,-0.0431838,-0.125227,-0.995805,0.127231,-0.0461174,0.837049
2023-01-13 09:56:42:226,-0.04613,-0.126126,-0.996498,0.127446,-0.0461716,0.836942
2023-01-13 09:56:42:236,-0.0487906,-0.125625,-0.992978,0.127642,-0.0462751,0.836829
2023-01-13 09:56:42:246,-0.0471196,-0.124862,-0.992801,0.127809,-0.0463266,0.836729
2023-01-13 09:56:42:256,-0.0442469,-0.125338,-0.993077,0.128046,-0.0463824,0.836598
2023-01-13 09:56:42:266,-0.0444486,-0.122922,-0.991761,0.128275,-0.0465427,0.836491
2023-01-13 09:56:42:276,-0.0460387,-0.123917,-0.991218,0.128585,-0.046781,0.836345
2023-01-13 09:56:42:286,-0.0493963,-0.122131,-0.98749,0.128926,-0.0470237,0.836207
2023-01-13 09:56:42:296,-0.0521632,-0.122611,-0.985927,0.129321,-0.0471787,0.836061
2023-01-13 09:56:42:306,-0.0506561,-0.121641,-0.985492,0.129702,-0.0473532,0.835991
2023-01-13 09:56:42:316,-0.0497152,-0.120137,-0.984566,0.130055,-0.0474455,0.835865
2023-01-13 09:56:42:326,-0.0484432,-0.119979,-0.983304,0.130492,-0.04756,0.835768
2023-01-13 09:56:42:335,-0.050154,-0.11967,-0.981317,0.131021,-0.0476969,0.835658
2023-01-13 09:56:42:346,-0.0513144,-0.124071,-0.985523,0.131693,-0.0478972,0.835576
2023-01-13 09:56:42:356,-0.0530961,-0.129724,-0.993823,0.132406,-0.0480727,0.835576
2023-01-13 09:56:42:366,-0.0528866,-0.133508,-0.998626,0.133197,-0.0482951,0.835581
2023-01-13 09:56:42:376,-0.0510055,-0.133827,-0.999828,0.133836,-0.0484602,0.835643
2023-01-13 09:56:42:386,-0.0508561,-0.132194,-0.99708,0.13437,-0.0486145,0.835707
2023-01-13 09:56:42:396,-0.0494985,-0.13246,-0.993425,0.134852,-0.0487029,0.835731
2023-01-13 09:56:42:405,-0.0471567,-0.131352,-0.991045,0.13535,-0.0488103,0.835754
2023-01-13 09:56:42:415,-0.046667,-0.130777,-0.988693,0.13588,-0.0488982,0.835734
2023-01-13 09:56:42:426,-0.0472945,-0.13121,-0.988477,0.136423,-0.048939,0.835688
2023-01-13 09:56:42:436,-0.0476025,-0.13072,-0.989661,0.137015,-0.04896,0.835591
2023-01-13 09:56:42:446,-0.0467519,-0.130468,-0.98991,0.137628,-0.0489425,0.835439
2023-01-13 09:56:42:456,-0.0468912,-0.132189,-0.991358,0.138256,-0.0489898,0.835282
2023-01-13 09:56:42:466,-0.0476049,-0.133161,-0.993242,0.138934,-0.0490799,0.835215
2023-01-13 09:56:42:476,-0.048922,-0.133536,-0.991918,0.139595,-0.0491516,0.835063
2023-01-13 09:56:42:486,-0.0497474,-0.133836,-0.990509,0.140238,-0.049257,0.834965
2023-01-13 09:56:42:496,-0.0477675,-0.133224,-0.989762,0.140829,-0.0493292,0.834916
2023-01-13 09:56:42:505,-0.0463367,-0.133705,-0.988632,0.141423,-0.049402,0.834843
2023-01-13 09:56:42:516,-0.047354,-0.134952,-0.988482,0.142096,-0.0495244,0.834826
2023-01-13 09:56:42:526,-0.0472563,-0.134549,-0.987146,0.142803,-0.0496771,0.834763
2023-01-13 09:56:42:536,-0.0468795,-0.133199,-0.986154,0.14348,-0.0498395,0.834724
2023-01-13 09:56:42:546,-0.0463431,-0.133023,-0.985516,0.144203,-0.0500419,0.834672
2023-01-13 09:56:42:555,-0.0459863,-0.132829,-0.984825,0.145015,-0.0502487,0.834602
2023-01-13 09:56:42:566,-0.044006,-0.132701,-0.983272,0.145904,-0.0504204,0.83449
2023-01-13 09:56:42:576,-0.0412193,-0.131782,-0.98189,0.146787,-0.0506087,0.83425
2023-01-13 09:56:42:586,-0.0413224,-0.131036,-0.978531,0.147788,-0.0508719,0.834016
2023-01-13 09:56:42:596,-0.0434006,-0.130436,-0.976028,0.148888,-0.0511338,0.833671
2023-01-13 09:56:42:605,-0.0448333,-0.131948,-0.975699,0.1502,-0.0513957,0.833309
2023-01-13 09:56:42:616,-0.0451367,-0.132013,-0.974643,0.151591,-0.0516525,0.832877
2023-01-13 09:56:42:626,-0.0454341,-0.13442,-0.975804,0.153084,-0.0520048,0.832443
2023-01-13 09:56:42:636,-0.0457122,-0.139417,-0.979941,0.154741,-0.0522887,0.831992
2023-01-13 09:56:42:646,-0.0486066,-0.143492,-0.984131,0.156381,-0.0526919,0.831524
2023-01-13 09:56:42:656,-0.0528757,-0.147729,-0.986947,0.158124,-0.0530722,0.831049
2023-01-13 09:56:42:666,-0.0529419,-0.148618,-0.986628,0.159824,-0.0534405,0.830715
2023-01-13 09:56:42:676,-0.0552811,-0.148922,-0.98352,0.161528,-0.0538692,0.830377
2023-01-13 09:56:42:686,-0.0552938,-0.14876,-0.979471,0.16324,-0.0542862,0.829981
2023-01-13 09:56:42:696,-0.0541551,-0.149956,-0.978642,0.165098,-0.0547327,0.829653
2023-01-13 09:56:42:706,-0.0547673,-0.15188,-0.979826,0.167048,-0.0552016,0.829284
2023-01-13 09:56:42:716,-0.0572792,-0.154424,-0.979745,0.169066,-0.0557463,0.828972
2023-01-13 09:56:42:726,-0.0612019,-0.157842,-0.979348,0.171171,-0.0562139,0.828601
2023-01-13 09:56:42:736,-0.0609355,-0.159731,-0.979251,0.173321,-0.0567003,0.828347
2023-01-13 09:56:42:746,-0.0587986,-0.163621,-0.979948,0.17547,-0.0570677,0.828133
2023-01-13 09:56:42:756,-0.055448,-0.166037,-0.979392,0.177773,-0.0573984,0.827964
2023-01-13 09:56:42:766,-0.053049,-0.168174,-0.977609,0.180192,-0.0577851,0.827783
2023-01-13 09:56:42:776,-0.05268,-0.169711,-0.974359,0.182674,-0.0581422,0.827557
2023-01-13 09:56:42:786,-0.0515207,-0.171567,-0.970122,0.185197,-0.0584915,0.827387
2023-01-13 09:56:42:796,-0.0529696,-0.172418,-0.964753,0.187863,-0.0587829,0.827202
2023-01-13 09:56:42:806,-0.053372,-0.172739,-0.96285,0.190636,-0.0591076,0.826921
2023-01-13 09:56:42:816,-0.0549901,-0.174806,-0.961383,0.193547,-0.0595285,0.826701
2023-01-13 09:56:42:826,-0.0555613,-0.177207,-0.961845,0.196591,-0.0599602,0.826468
2023-01-13 09:56:42:836,-0.0577224,-0.179178,-0.962748,0.199845,-0.0604852,0.826289
2023-01-13 09:56:42:846,-0.0545915,-0.18222,-0.965929,0.203165,-0.0609874,0.826102
2023-01-13 09:56:42:855,-0.0541158,-0.185955,-0.967977,0.206616,-0.0616133,0.825865
2023-01-13 09:56:42:866,-0.0558827,-0.186665,-0.964531,0.210083,-0.0623225,0.825598
2023-01-13 09:56:42:876,-0.0566956,-0.188056,-0.963521,0.21366,-0.0629738,0.825348
2023-01-13 09:56:42:886,-0.0540964,-0.190938,-0.962872,0.217471,-0.0636636,0.825073
2023-01-13 09:56:42:896,-0.0561626,-0.193108,-0.956643,0.221429,-0.0643783,0.824746
2023-01-13 09:56:42:906,-0.0595966,-0.195686,-0.949216,0.225516,-0.0650178,0.824437
2023-01-13 09:56:42:916,-0.055313,-0.19877,-0.946321,0.229899,-0.0656687,0.824011
2023-01-13 09:56:42:926,-0.0526398,-0.201372,-0.944398,0.234536,-0.0663487,0.823544
2023-01-13 09:56:42:936,-0.0595571,-0.209711,-0.942239,0.239406,-0.0671295,0.822975
2023-01-13 09:56:42:946,-0.0644844,-0.218252,-0.941027,0.244517,-0.067935,0.822378
2023-01-13 09:56:42:956,-0.0607832,-0.225266,-0.944839,0.249824,-0.0686962,0.821769
2023-01-13 09:56:42:966,-0.0622225,-0.23198,-0.948658,0.255279,-0.0695057,0.821205
2023-01-13 09:56:42:976,-0.0650218,-0.238058,-0.950627,0.260856,-0.0704219,0.820553
2023-01-13 09:56:42:986,-0.0647541,-0.243916,-0.954906,0.266586,-0.0713352,0.819926
2023-01-13 09:56:42:996,-0.066423,-0.24796,-0.951962,0.272392,-0.072243,0.819267
2023-01-13 09:56:43:6,-0.0673023,-0.252898,-0.947407,0.278244,-0.0730919,0.818551
2023-01-13 09:56:43:16,-0.0665278,-0.258177,-0.940316,0.284116,-0.0738798,0.817777
2023-01-13 09:56:43:26,-0.0654682,-0.264528,-0.934341,0.290212,-0.0747058,0.816928
2023-01-13 09:56:43:36,-0.065835,-0.274405,-0.934668,0.296379,-0.0755186,0.816099
2023-01-13 09:56:43:46,-0.0653928,-0.282208,-0.934642,0.30274,-0.0763718,0.815178
2023-01-13 09:56:43:56,-0.0665355,-0.288393,-0.933498,0.309198,-0.0773073,0.814196
2023-01-13 09:56:43:66,-0.069097,-0.29251,-0.932597,0.315823,-0.0782436,0.813068
2023-01-13 09:56:43:76,-0.0728817,-0.298317,-0.932181,0.322462,-0.0791573,0.811994
2023-01-13 09:56:43:86,-0.0766259,-0.304452,-0.929825,0.329255,-0.0800789,0.810903
2023-01-13 09:56:43:96,-0.0795814,-0.311137,-0.926722,0.336021,-0.0808968,0.809881
2023-01-13 09:56:43:106,-0.0790143,-0.315396,-0.91898,0.342881,-0.0817331,0.808855
2023-01-13 09:56:43:116,-0.0795675,-0.322294,-0.910708,0.349875,-0.0825194,0.807847
2023-01-13 09:56:43:126,-0.0823041,-0.331294,-0.90545,0.357054,-0.0832838,0.806793
2023-01-13 09:56:43:135,-0.0817932,-0.335489,-0.900988,0.364411,-0.0841663,0.805805
2023-01-13 09:56:43:146,-0.0814357,-0.341106,-0.901733,0.371999,-0.0850198,0.804789
2023-01-13 09:56:43:156,-0.0862304,-0.347837,-0.904365,0.379735,-0.0859098,0.803811
2023-01-13 09:56:43:166,-0.0884487,-0.354122,-0.905586,0.387593,-0.0867781,0.802878
2023-01-13 09:56:43:176,-0.0898277,-0.363677,-0.898095,0.395559,-0.0876576,0.801996
2023-01-13 09:56:43:186,-0.0899802,-0.369644,-0.883696,0.403516,-0.0884897,0.801218
2023-01-13 09:56:43:196,-0.0884631,-0.37528,-0.877415,0.411731,-0.0892765,0.800373
2023-01-13 09:56:43:206,-0.0905493,-0.385225,-0.874883,0.420166,-0.0901385,0.799545
2023-01-13 09:56:43:216,-0.0921129,-0.393725,-0.87383,0.428754,-0.0910041,0.798755
2023-01-13 09:56:43:226,-0.0924191,-0.400452,-0.870945,0.437566,-0.0919038,0.797991
2023-01-13 09:56:43:236,-0.094847,-0.405354,-0.863632,0.446441,-0.0927185,0.797273
2023-01-13 09:56:43:246,-0.0925534,-0.414491,-0.85306,0.455449,-0.0934756,0.796582
2023-01-13 09:56:43:256,-0.0911685,-0.426601,-0.835557,0.464706,-0.0943005,0.795885
2023-01-13 09:56:43:266,-0.096305,-0.440502,-0.824933,0.474408,-0.0951357,0.79521
2023-01-13 09:56:43:276,-0.0990319,-0.461683,-0.83553,0.484584,-0.0960851,0.794683
2023-01-13 09:56:43:286,-0.103117,-0.484642,-0.855877,0.495049,-0.0971433,0.794177
2023-01-13 09:56:43:296,-0.108283,-0.504718,-0.875746,0.505612,-0.0983885,0.793727
2023-01-13 09:56:43:306,-0.112958,-0.517852,-0.88874,0.515901,-0.0996773,0.79336
2023-01-13 09:56:43:316,-0.115413,-0.525693,-0.891193,0.525795,-0.100896,0.793087
2023-01-13 09:56:43:326,-0.114296,-0.530682,-0.879545,0.535148,-0.102163,0.793047
2023-01-13 09:56:43:336,-0.110462,-0.529043,-0.849863,0.544104,-0.103339,0.793168
2023-01-13 09:56:43:346,-0.104909,-0.525937,-0.818708,0.552921,-0.104496,0.793242
2023-01-13 09:56:43:356,-0.0987497,-0.527421,-0.803651,0.561964,-0.105674,0.793463
2023-01-13 09:56:43:366,-0.0959399,-0.533754,-0.804105,0.571386,-0.106944,0.793511
2023-01-13 09:56:43:376,-0.0972491,-0.545007,-0.810958,0.581027,-0.108285,0.793435
2023-01-13 09:56:43:386,-0.103437,-0.555138,-0.816217,0.590718,-0.109739,0.793289
2023-01-13 09:56:43:396,-0.107251,-0.56512,-0.810985,0.600339,-0.111172,0.793062
2023-01-13 09:56:43:406,-0.111428,-0.572926,-0.795167,0.609766,-0.112578,0.792849
2023-01-13 09:56:43:416,-0.11711,-0.582309,-0.776784,0.619281,-0.113891,0.792654
2023-01-13 09:56:43:426,-0.123376,-0.594107,-0.769306,0.629148,-0.115098,0.792476
2023-01-13 09:56:43:436,-0.126641,-0.611703,-0.776354,0.639271,-0.116348,0.792314
2023-01-13 09:56:43:446,-0.127785,-0.627014,-0.786502,0.649379,-0.117575,0.792249
2023-01-13 09:56:43:456,-0.129949,-0.636408,-0.79415,0.659344,-0.118799,0.792197
2023-01-13 09:56:43:466,-0.12962,-0.64017,-0.796106,0.668902,-0.120007,0.792223
2023-01-13 09:56:43:476,-0.129337,-0.636656,-0.789137,0.678148,-0.12123,0.792182
2023-01-13 09:56:43:486,-0.131631,-0.634621,-0.774581,0.687066,-0.122589,0.792149
2023-01-13 09:56:43:496,-0.129815,-0.631257,-0.74907,0.695643,-0.123818,0.792191
2023-01-13 09:56:43:506,-0.128106,-0.628332,-0.710528,0.704209,-0.125034,0.792203
2023-01-13 09:56:43:516,-0.127021,-0.630723,-0.687696,0.713149,-0.126173,0.792365
2023-01-13 09:56:43:526,-0.121532,-0.63881,-0.679076,0.722529,-0.127328,0.792485
2023-01-13 09:56:43:536,-0.118646,-0.648747,-0.67894,0.732505,-0.128676,0.792578
2023-01-13 09:56:43:546,-0.119879,-0.665012,-0.690753,0.742804,-0.130097,0.792453
2023-01-13 09:56:43:556,-0.12582,-0.680627,-0.703913,0.75332,-0.131704,0.792184
2023-01-13 09:56:43:566,-0.127302,-0.692763,-0.714859,0.763737,-0.13341,0.791872
2023-01-13 09:56:43:576,-0.127562,-0.702335,-0.713831,0.77391,-0.135295,0.791495
2023-01-13 09:56:43:586,-0.130084,-0.712493,-0.704951,0.783833,-0.137225,0.791031
2023-01-13 09:56:43:596,-0.133927,-0.728235,-0.687192,0.793643,-0.139071,0.790498
2023-01-13 09:56:43:606,-0.139649,-0.747369,-0.665604,0.803529,-0.140951,0.789923
2023-01-13 09:56:43:616,-0.144163,-0.770164,-0.662669,0.813681,-0.142753,0.789305
2023-01-13 09:56:43:626,-0.149691,-0.800375,-0.683535,0.823992,-0.144462,0.788636
2023-01-13 09:56:43:635,-0.157607,-0.831836,-0.71767,0.834265,-0.146192,0.787844
2023-01-13 09:56:43:646,-0.162635,-0.861685,-0.757233,0.843991,-0.147836,0.787048
2023-01-13 09:56:43:656,-0.166802,-0.882911,-0.788353,0.852756,-0.149423,0.786197
2023-01-13 09:56:43:666,-0.172909,-0.894661,-0.804138,0.860083,-0.150901,0.785408
2023-01-13 09:56:43:676,-0.176587,-0.893179,-0.798576,0.865897,-0.152181,0.784751
2023-01-13 09:56:43:686,-0.176096,-0.880713,-0.769063,0.87021,-0.153328,0.784122
2023-01-13 09:56:43:696,-0.175695,-0.865514,-0.722728,0.873401,-0.154341,0.78374
2023-01-13 09:56:43:706,-0.178619,-0.849256,-0.674648,0.876027,-0.155301,0.783565
2023-01-13 09:56:43:716,-0.180391,-0.841132,-0.640718,0.878548,-0.156106,0.783489
2023-01-13 09:56:43:726,-0.180084,-0.844838,-0.63334,0.881272,-0.15681,0.783539
2023-01-13 09:56:43:736,-0.176184,-0.857848,-0.651941,0.884115,-0.157409,0.783618
2023-01-13 09:56:43:746,-0.172769,-0.872561,-0.682228,0.886742,-0.158046,0.783802
2023-01-13 09:56:43:756,-0.172195,-0.880071,-0.706634,0.888771,-0.158555,0.783951
2023-01-13 09:56:43:766,-0.174183,-0.877551,-0.715926,0.889952,-0.159056,0.784029
2023-01-13 09:56:43:776,-0.173704,-0.866736,-0.706346,0.890247,-0.1596,0.784177
2023-01-13 09:56:43:786,-0.171535,-0.849881,-0.68498,0.889811,-0.160067,0.784463
2023-01-13 09:56:43:796,-0.168361,-0.83581,-0.662029,0.888887,-0.160502,0.784812
2023-01-13 09:56:43:806,-0.166168,-0.822827,-0.64302,0.887828,-0.160895,0.785166
2023-01-13 09:56:43:816,-0.165508,-0.81122,-0.633778,0.886721,-0.161256,0.785518
2023-01-13 09:56:43:826,-0.165133,-0.805807,-0.635084,0.885611,-0.16152,0.785856
2023-01-13 09:56:43:836,-0.164634,-0.802699,-0.641572,0.884491,-0.161709,0.786221
2023-01-13 09:56:43:846,-0.164659,-0.802046,-0.651207,0.883244,-0.161785,0.786515
2023-01-13 09:56:43:856,-0.166112,-0.800411,-0.657659,0.881697,-0.161668,0.78677
2023-01-13 09:56:43:866,-0.166033,-0.79601,-0.657673,0.879914,-0.161495,0.787149
2023-01-13 09:56:43:876,-0.163888,-0.790753,-0.655022,0.877865,-0.161209,0.787471
2023-01-13 09:56:43:886,-0.163209,-0.783969,-0.648463,0.875569,-0.160974,0.787841
2023-01-13 09:56:43:896,-0.166756,-0.781178,-0.642876,0.873292,-0.160692,0.788154
2023-01-13 09:56:43:906,-0.169489,-0.782285,-0.646112,0.870874,-0.160301,0.788522
2023-01-13 09:56:43:916,-0.170887,-0.780271,-0.644849,0.868489,-0.160104,0.788891
2023-01-13 09:56:43:926,-0.17107,-0.784551,-0.656677,0.866141,-0.1599,0.789316
2023-01-13 09:56:43:936,-0.169077,-0.791251,-0.674683,0.863527,-0.159641,0.789794
2023-01-13 09:56:43:946,-0.163388,-0.791621,-0.680521,0.860648,-0.159453,0.790209
2023-01-13 09:56:43:956,-0.152368,-0.787017,-0.682423,0.857426,-0.159149,0.7907
2023-01-13 09:56:43:966,-0.139741,-0.786911,-0.689578,0.853902,-0.158614,0.791054
2023-01-13 09:56:43:976,-0.12743,-0.790004,-0.698734,0.850078,-0.157842,0.791112
2023-01-13 09:56:43:986,-0.126116,-0.786766,-0.696958,0.845803,-0.156887,0.790862
2023-01-13 09:56:43:996,-0.134875,-0.780481,-0.690837,0.841343,-0.15582,0.790328
2023-01-13 09:56:44:6,-0.142462,-0.775928,-0.690872,0.836757,-0.154575,0.789706
2023-01-13 09:56:44:16,-0.140845,-0.777471,-0.704395,0.832025,-0.153022,0.789059
2023-01-13 09:56:44:26,-0.137651,-0.778305,-0.717178,0.826977,-0.151319,0.788207
2023-01-13 09:56:44:36,-0.137744,-0.778369,-0.725433,0.821597,-0.149494,0.787199
2023-01-13 09:56:44:46,-0.144308,-0.776198,-0.725656,0.815839,-0.147591,0.785998
2023-01-13 09:56:44:56,-0.158324,-0.770356,-0.71942,0.809804,-0.145837,0.784747
2023-01-13 09:56:44:66,-0.168781,-0.767004,-0.719055,0.803523,-0.144156,0.783574
2023-01-13 09:56:44:76,-0.173175,-0.763371,-0.721976,0.796928,-0.142458,0.782559
2023-01-13 09:56:44:86,-0.173927,-0.75736,-0.723198,0.790043,-0.14075,0.781738
2023-01-13 09:56:44:96,-0.172472,-0.752608,-0.723312,0.782904,-0.139148,0.781172
2023-01-13 09:56:44:106,-0.169368,-0.749618,-0.72933,0.775615,-0.13765,0.780805
2023-01-13 09:56:44:115,-0.166368,-0.749676,-0.741145,0.768099,-0.136266,0.7806
2023-01-13 09:56:44:125,-0.167644,-0.745438,-0.751629,0.760353,-0.135035,0.780538
2023-01-13 09:56:44:136,-0.16995,-0.739778,-0.760097,0.752198,-0.133915,0.780588
2023-01-13 09:56:44:146,-0.169203,-0.727463,-0.759719,0.743439,-0.132879,0.780967
2023-01-13 09:56:44:156,-0.166331,-0.713555,-0.754569,0.734265,-0.131941,0.781537
2023-01-13 09:56:44:166,-0.164331,-0.701927,-0.754109,0.724824,-0.130996,0.782379
2023-01-13 09:56:44:176,-0.162936,-0.692955,-0.758774,0.715214,-0.130106,0.783344
2023-01-13 09:56:44:186,-0.160096,-0.680393,-0.760407,0.705376,-0.12933,0.784501
2023-01-13 09:56:44:196,-0.153869,-0.669263,-0.763368,0.695314,-0.128482,0.785801
2023-01-13 09:56:44:206,-0.150838,-0.656872,-0.767006,0.685069,-0.127736,0.787273
2023-01-13 09:56:44:216,-0.144506,-0.642258,-0.76973,0.674679,-0.12703,0.788886
2023-01-13 09:56:44:226,-0.135655,-0.628511,-0.767596,0.664169,-0.126156,0.790533
2023-01-13 09:56:44:236,-0.134896,-0.616224,-0.765578,0.653604,-0.125302,0.792252
2023-01-13 09:56:44:246,-0.136155,-0.611368,-0.777515,0.643219,-0.124373,0.793962
2023-01-13 09:56:44:256,-0.13311,-0.609745,-0.795162,0.632854,-0.123401,0.795728
2023-01-13 09:56:44:266,-0.12743,-0.602131,-0.806389,0.62233,-0.122333,0.797516
2023-01-13 09:56:44:276,-0.123986,-0.587852,-0.810315,0.61153,-0.121174,0.799221
2023-01-13 09:56:44:286,-0.120083,-0.566828,-0.80632,0.600557,-0.119841,0.800872
2023-01-13 09:56:44:296,-0.117042,-0.545728,-0.797788,0.589458,-0.118455,0.802466
2023-01-13 09:56:44:306,-0.113997,-0.527059,-0.787404,0.578438,-0.117042,0.804057
2023-01-13 09:56:44:316,-0.113288,-0.515335,-0.789334,0.567763,-0.115597,0.805605
2023-01-13 09:56:44:326,-0.114986,-0.511259,-0.80488,0.557468,-0.114107,0.806982
2023-01-13 09:56:44:336,-0.116841,-0.515767,-0.833326,0.547497,-0.112646,0.808334
2023-01-13 09:56:44:346,-0.114863,-0.516804,-0.855378,0.537445,-0.111162,0.809702
2023-01-13 09:56:44:356,-0.114538,-0.504807,-0.855805,0.527103,-0.1097,0.811044
2023-01-13 09:56:44:366,-0.111718,-0.484826,-0.847017,0.516543,-0.108102,0.812463
2023-01-13 09:56:44:376,-0.103225,-0.461644,-0.8308,0.505986,-0.106516,0.813818
2023-01-13 09:56:44:386,-0.0993782,-0.446477,-0.820498,0.495684,-0.104913,0.81514
2023-01-13 09:56:44:396,-0.104727,-0.442965,-0.827275,0.485913,-0.103459,0.816402
2023-01-13 09:56:44:405,-0.109705,-0.451635,-0.853175,0.476642,-0.102074,0.817665
2023-01-13 09:56:44:415,-0.111222,-0.461058,-0.886791,0.467456,-0.100672,0.818993
2023-01-13 09:56:44:426,-0.110032,-0.455856,-0.905869,0.458039,-0.0992716,0.820347
2023-01-13 09:56:44:436,-0.104474,-0.438744,-0.904447,0.44822,-0.0978506,0.821831
2023-01-13 09:56:44:446,-0.09861,-0.41625,-0.889259,0.438075,-0.0964218,0.823314
2023-01-13 09:56:44:456,-0.0952161,-0.395169,-0.867273,0.4279,-0.0950237,0.824794
2023-01-13 09:56:44:466,-0.0915363,-0.379692,-0.857088,0.418038,-0.0936606,0.826342
2023-01-13 09:56:44:476,-0.0908573,-0.37709,-0.870756,0.408708,-0.0924419,0.827865
2023-01-13 09:56:44:486,-0.0922561,-0.381412,-0.898495,0.399739,-0.0913434,0.829385
2023-01-13 09:56:44:496,-0.0937302,-0.375728,-0.914474,0.390753,-0.0902282,0.830891
2023-01-13 09:56:44:506,-0.0923038,-0.358202,-0.910958,0.381538,-0.0890876,0.832543
2023-01-13 09:56:44:516,-0.0869977,-0.337403,-0.894944,0.372207,-0.0879465,0.834195
2023-01-13 09:56:44:526,-0.0822514,-0.323761,-0.882931,0.363136,-0.0867947,0.835862
2023-01-13 09:56:44:536,-0.0801309,-0.31592,-0.88257,0.354478,-0.085732,0.837508
2023-01-13 09:56:44:546,-0.0807849,-0.311715,-0.889888,0.346228,-0.0847157,0.839177
2023-01-13 09:56:44:556,-0.0815127,-0.309846,-0.906891,0.338324,-0.0838329,0.84078
2023-01-13 09:56:44:566,-0.0807171,-0.305855,-0.926024,0.330544,-0.0829687,0.842411
2023-01-13 09:56:44:576,-0.081806,-0.295335,-0.931275,0.322741,-0.0821559,0.844054
2023-01-13 09:56:44:586,-0.0795741,-0.281862,-0.922083,0.314914,-0.0812636,0.84575
2023-01-13 09:56:44:596,-0.0783686,-0.26984,-0.914149,0.3073,-0.0803561,0.847433
2023-01-13 09:56:44:606,-0.0765561,-0.263602,-0.915723,0.299962,-0.0793247,0.849128
2023-01-13 09:56:44:616,-0.0743734,-0.264527,-0.925479,0.292912,-0.0783113,0.850785
2023-01-13 09:56:44:626,-0.0725104,-0.261708,-0.937637,0.28609,-0.0773616,0.852433
2023-01-13 09:56:44:636,-0.0735868,-0.257404,-0.953282,0.279461,-0.0765209,0.854134
2023-01-13 09:56:44:646,-0.0759739,-0.252263,-0.962169,0.272881,-0.0757017,0.85576
2023-01-13 09:56:44:656,-0.0743949,-0.243838,-0.96236,0.266208,-0.0748937,0.857472
2023-01-13 09:56:44:666,-0.0721245,-0.236024,-0.953918,0.25945,-0.0739949,0.859189
2023-01-13 09:56:44:676,-0.0688923,-0.225647,-0.943015,0.252708,-0.0730491,0.860979
2023-01-13 09:56:44:686,-0.0628672,-0.217054,-0.936654,0.246163,-0.0721167,0.862698
2023-01-13 09:56:44:696,-0.0585996,-0.212435,-0.939363,0.239943,-0.0711394,0.864331
2023-01-13 09:56:44:706,-0.0580714,-0.209176,-0.946275,0.233963,-0.0701825,0.865766
2023-01-13 09:56:44:716,-0.0581796,-0.205781,-0.953686,0.22824,-0.0692387,0.867071
2023-01-13 09:56:44:726,-0.0556208,-0.198481,-0.957749,0.22263,-0.0681903,0.868281
2023-01-13 09:56:44:736,-0.0537321,-0.193086,-0.95411,0.217083,-0.0670694,0.869351
2023-01-13 09:56:44:746,-0.0536386,-0.189269,-0.950429,0.211639,-0.06585,0.870314
2023-01-13 09:56:44:756,-0.042944,-0.182637,-0.9503,0.206472,-0.064627,0.871112
2023-01-13 09:56:44:766,-0.0417674,-0.175921,-0.941908,0.201754,-0.0639866,0.871872
2023-01-13 09:56:44:776,-0.0534859,-0.192517,-0.971598,0.197359,-0.063133,0.872382
2023-01-13 09:56:44:786,-0.0552692,-0.196325,-0.993091,0.192782,-0.0620913,0.872859
2023-01-13 09:56:44:796,-0.0487131,-0.188166,-0.995221,0.187901,-0.061066,0.873404
2023-01-13 09:56:44:806,-0.0439521,-0.16952,-0.980342,0.182791,-0.0601007,0.873788
2023-01-13 09:56:44:816,-0.0509937,-0.154485,-0.965289,0.177689,-0.0592153,0.87407
2023-01-13 09:56:44:826,-0.0678116,-0.154033,-0.964122,0.172809,-0.0585316,0.87442
2023-01-13 09:56:44:836,-0.0808697,-0.164519,-0.98322,0.168254,-0.0578825,0.874901
2023-01-13 09:56:44:846,-0.0786613,-0.170857,-1.00419,0.163661,-0.0571766,0.875806
2023-01-13 09:56:44:855,-0.0624939,-0.162554,-1.00727,0.158737,-0.0565518,0.876999
2023-01-13 09:56:44:866,-0.0483199,-0.146588,-0.996859,0.153576,-0.0559435,0.878283
2023-01-13 09:56:44:876,-0.0415728,-0.135739,-0.985324,0.148271,-0.0553941,0.879531
2023-01-13 09:56:44:886,-0.0389047,-0.121595,-0.968677,0.142939,-0.0548553,0.880655
2023-01-13 09:56:44:896,-0.0357029,-0.107946,-0.954677,0.137764,-0.0543975,0.881679
2023-01-13 09:56:44:906,-0.0365656,-0.101187,-0.952346,0.132963,-0.05399,0.88257
2023-01-13 09:56:44:916,-0.0406466,-0.101722,-0.95992,0.128569,-0.0535119,0.883311
2023-01-13 09:56:44:926,-0.0432089,-0.101414,-0.966512,0.12442,-0.0531064,0.884005
2023-01-13 09:56:44:936,-0.0434243,-0.095764,-0.971011,0.120426,-0.0526781,0.884626
2023-01-13 09:56:44:946,-0.0432365,-0.0903414,-0.974369,0.116601,-0.0522636,0.88512
2023-01-13 09:56:44:956,-0.0411888,-0.0888497,-0.981478,0.112891,-0.0517968,0.885592
2023-01-13 09:56:44:966,-0.0393411,-0.0869481,-0.986393,0.109342,-0.0513161,0.886037
2023-01-13 09:56:44:976,-0.0381758,-0.081522,-0.982996,0.105767,-0.0508584,0.886374
2023-01-13 09:56:44:986,-0.0388057,-0.0754675,-0.976527,0.10225,-0.0504158,0.88657
2023-01-13 09:56:44:996,-0.0368011,-0.0706469,-0.972125,0.0988755,-0.049878,0.886688
2023-01-13 09:56:45:6,-0.0368904,-0.0661588,-0.970383,0.0956491,-0.0493533,0.886677
2023-01-13 09:56:45:16,-0.0380948,-0.0620747,-0.972204,0.0927582,-0.0488338,0.886579
2023-01-13 09:56:45:26,-0.0401379,-0.0590806,-0.974161,0.0900924,-0.0484052,0.886382
2023-01-13 09:56:45:36,-0.0428282,-0.0566351,-0.974087,0.0876136,-0.0480058,0.886145
2023-01-13 09:56:45:46,-0.0443071,-0.0548442,-0.977261,0.0853561,-0.0476745,0.885903
2023-01-13 09:56:45:56,-0.0450627,-0.0526985,-0.981156,0.0832623,-0.0472842,0.885657
2023-01-13 09:56:45:66,-0.0441324,-0.0518321,-0.984449,0.0813232,-0.0469343,0.885359
2023-01-13 09:56:45:76,-0.0428706,-0.0513487,-0.985483,0.0795562,-0.0466383,0.885079
2023-01-13 09:56:45:86,-0.0409568,-0.048801,-0.984109,0.077866,-0.0463367,0.884777
2023-01-13 09:56:45:95,-0.0407937,-0.0469833,-0.98392,0.0763163,-0.0460915,0.884471
2023-01-13 09:56:45:106,-0.0425819,-0.0461838,-0.98302,0.0749071,-0.0457947,0.884166
2023-01-13 09:56:45:116,-0.0424748,-0.0448175,-0.982995,0.0736298,-0.0455504,0.88387
2023-01-13 09:56:45:126,-0.0415325,-0.0434186,-0.980916,0.0724769,-0.0453217,0.883543
2023-01-13 09:56:45:135,-0.0396626,-0.0425287,-0.979201,0.0715095,-0.0450657,0.883208
2023-01-13 09:56:45:145,-0.0327572,-0.0426204,-0.978743,0.0706629,-0.0448444,0.882856
2023-01-13 09:56:45:155,-0.021335,-0.0448411,-0.981997,0.0699646,-0.0445928,0.882405
2023-01-13 09:56:45:165,-0.0107904,-0.0471211,-0.98969,0.069466,-0.0444612,0.881757
2023-01-13 09:56:45:175,-0.013031,-0.0496942,-0.996428,0.0690078,-0.0445419,0.880868
2023-01-13 09:56:45:185,-0.0213658,-0.0511693,-0.999439,0.0685587,-0.0446828,0.879764
2023-01-13 09:56:45:196,-0.0266603,-0.0519468,-1.00025,0.0681143,-0.0448197,0.878587
2023-01-13 09:56:45:206,-0.0289921,-0.0490248,-0.997838,0.067676,-0.0449427,0.877318
2023-01-13 09:56:45:216,-0.0342228,-0.0486836,-0.994638,0.067268,-0.0450577,0.875966
2023-01-13 09:56:45:226,-0.0373843,-0.0482733,-0.991178,0.0669464,-0.0452022,0.874572
2023-01-13 09:56:45:236,-0.0396065,-0.0493498,-0.988508,0.0668489,-0.0453939,0.873215
2023-01-13 09:56:45:246,-0.0425763,-0.0517457,-0.989227,0.0668357,-0.0456151,0.871918
2023-01-13 09:56:45:256,-0.0447106,-0.0538386,-0.989981,0.0669332,-0.0459574,0.870656
2023-01-13 09:56:45:266,-0.0468955,-0.0562222,-0.993433,0.0671207,-0.046317,0.869489
2023-01-13 09:56:45:276,-0.0496364,-0.0578301,-0.997016,0.0673291,-0.0467588,0.868402
2023-01-13 09:56:45:286,-0.0528699,-0.0576585,-0.997943,0.0675235,-0.0472683,0.867412
2023-01-13 09:56:45:296,-0.0548833,-0.0587428,-1.00155,0.06778,-0.0478031,0.866504
2023-01-13 09:56:45:306,-0.0567611,-0.0584787,-1.00218,0.0679911,-0.048341,0.865684
2023-01-13 09:56:45:316,-0.0580602,-0.0556965,-0.997816,0.0681486,-0.0488297,0.864927
2023-01-13 09:56:45:326,-0.0610563,-0.0538776,-0.994084,0.0683526,-0.0493401,0.864288
2023-01-13 09:56:45:336,-0.0588698,-0.0502237,-0.988279,0.0685351,-0.0497398,0.863685
2023-01-13 09:56:45:346,-0.0575212,-0.0481209,-0.986199,0.0687894,-0.0501726,0.863191
2023-01-13 09:56:45:356,-0.0591527,-0.0486393,-0.986437,0.0692481,-0.0506532,0.862739
2023-01-13 09:56:45:365,-0.0615974,-0.0501133,-0.98859,0.0698659,-0.0511917,0.862393
2023-01-13 09:56:45:376,-0.0618456,-0.0493338,-0.99043,0.0705093,-0.0516409,0.862101
2023-01-13 09:56:45:386,-0.0625188,-0.0509738,-0.993014,0.0712722,-0.051975,0.861879
2023-01-13 09:56:45:396,-0.0602082,-0.0516929,-0.994079,0.0721037,-0.0522816,0.861734
2023-01-13 09:56:45:406,-0.0563023,-0.0526207,-0.990504,0.0729726,-0.0525372,0.861664
2023-01-13 09:56:45:416,-0.0516944,-0.0520028,-0.984958,0.0739564,-0.0527532,0.86157
2023-01-13 09:56:45:426,-0.0479236,-0.051798,-0.980882,0.0749954,-0.0529018,0.861416
2023-01-13 09:56:45:436,-0.0477235,-0.052296,-0.978663,0.0762001,-0.0530817,0.861204
2023-01-13 09:56:45:446,-0.0469152,-0.0547934,-0.977979,0.0775994,-0.0533112,0.861017
2023-01-13 09:56:45:456,-0.0476213,-0.0562756,-0.977029,0.0791019,-0.0536015,0.860771
2023-01-13 09:56:45:466,-0.0481868,-0.0595532,-0.980874,0.0807932,-0.0538772,0.860441
2023-01-13 09:56:45:476,-0.0475622,-0.0615534,-0.982518,0.082611,-0.0542163,0.86015
2023-01-13 09:56:45:486,-0.0483751,-0.0640573,-0.984675,0.084484,-0.0545286,0.859757
2023-01-13 09:56:45:496,-0.0493941,-0.0631942,-0.981919,0.0864737,-0.0550025,0.85929
2023-01-13 09:56:45:506,-0.0520026,-0.0636949,-0.979885,0.0885389,-0.0555371,0.85888
2023-01-13 09:56:45:516,-0.0526299,-0.0668348,-0.979697,0.0907747,-0.0559996,0.858432
2023-01-13 09:56:45:526,-0.0491585,-0.0683151,-0.980902,0.0931406,-0.0564999,0.857977
2023-01-13 09:56:45:536,-0.051065,-0.0722362,-0.979024,0.0957118,-0.05704,0.857509
2023-01-13 09:56:45:546,-0.0552394,-0.0766312,-0.979033,0.0984649,-0.0576375,0.857045
2023-01-13 09:56:45:556,-0.0519276,-0.0804697,-0.980514,0.101375,-0.058167,0.856598
2023-01-13 09:56:45:566,-0.0508882,-0.0817975,-0.978787,0.104375,-0.0588385,0.856114
2023-01-13 09:56:45:576,-0.0528913,-0.0844091,-0.978762,0.107576,-0.059517,0.855581
2023-01-13 09:56:45:586,-0.0547566,-0.0887907,-0.976121,0.110942,-0.0602644,0.854984
2023-01-13 09:56:45:596,-0.0589883,-0.0915395,-0.975848,0.11443,-0.0609655,0.854352
2023-01-13 09:56:45:606,-0.0605266,-0.0929415,-0.973034,0.118107,-0.0617469,0.853701
2023-01-13 09:56:45:616,-0.061566,-0.0966014,-0.971262,0.121903,-0.0625406,0.853142
2023-01-13 09:56:45:626,-0.0608986,-0.102089,-0.970034,0.125961,-0.0633907,0.85253
2023-01-13 09:56:45:636,-0.0618031,-0.108076,-0.971907,0.130204,-0.0642572,0.851967
2023-01-13 09:56:45:646,-0.063973,-0.114799,-0.974773,0.134551,-0.0652077,0.851431
2023-01-13 09:56:45:656,-0.0660106,-0.119141,-0.974358,0.139007,-0.0661722,0.850889
2023-01-13 09:56:45:666,-0.0683825,-0.123718,-0.972653,0.143596,-0.067218,0.850399
2023-01-13 09:56:45:676,-0.0681964,-0.128445,-0.972541,0.148327,-0.0681602,0.849927
2023-01-13 09:56:45:686,-0.0679132,-0.131105,-0.968572,0.153111,-0.0691719,0.849486
2023-01-13 09:56:45:696,-0.0682743,-0.135172,-0.965401,0.157999,-0.0701445,0.848998
2023-01-13 09:56:45:706,-0.0679452,-0.138874,-0.963937,0.162969,-0.0710826,0.848475
2023-01-13 09:56:45:716,-0.0706218,-0.145528,-0.966326,0.168189,-0.0720522,0.847985
2023-01-13 09:56:45:726,-0.0765753,-0.154197,-0.972051,0.173532,-0.0730233,0.847429
2023-01-13 09:56:45:736,-0.0812495,-0.1607,-0.974843,0.17899,-0.0739829,0.846972
2023-01-13 09:56:45:746,-0.0816312,-0.165939,-0.974166,0.184388,-0.0749696,0.846563
2023-01-13 09:56:45:756,-0.0826528,-0.175009,-0.977977,0.189853,-0.0759374,0.846253
2023-01-13 09:56:45:766,-0.0804423,-0.180569,-0.977807,0.19536,-0.0768809,0.845932
2023-01-13 09:56:45:776,-0.0792295,-0.184634,-0.970363,0.20086,-0.077897,0.845655
2023-01-13 09:56:45:786,-0.0821981,-0.190393,-0.963819,0.206345,-0.0789796,0.845398
2023-01-13 09:56:45:796,-0.0827907,-0.197166,-0.956351,0.211944,-0.0800897,0.845233
2023-01-13 09:56:45:806,-0.0837679,-0.205513,-0.9535,0.217794,-0.0811927,0.845076
2023-01-13 09:56:45:816,-0.0847826,-0.2131,-0.952739,0.22377,-0.082357,0.844994
2023-01-13 09:56:45:826,-0.08602,-0.226009,-0.960138,0.22988,-0.0835363,0.844924
2023-01-13 09:56:45:836,-0.0842732,-0.235585,-0.965086,0.236081,-0.0847719,0.844946
2023-01-13 09:56:45:846,-0.0845434,-0.242887,-0.966703,0.242267,-0.0861109,0.844935
2023-01-13 09:56:45:856,-0.0860716,-0.247243,-0.963982,0.248349,-0.0874265,0.844939
2023-01-13 09:56:45:866,-0.0873056,-0.249903,-0.958788,0.25433,-0.0887553,0.844958
2023-01-13 09:56:45:876,-0.0889369,-0.252862,-0.950972,0.260308,-0.0900866,0.844984
2023-01-13 09:56:45:886,-0.0904476,-0.254537,-0.936886,0.266266,-0.0914473,0.844962
2023-01-13 09:56:45:896,-0.0915142,-0.258679,-0.923488,0.272439,-0.0926876,0.84495
2023-01-13 09:56:45:906,-0.0897886,-0.26451,-0.917009,0.278824,-0.0939253,0.844864
2023-01-13 09:56:45:916,-0.0900492,-0.276385,-0.92238,0.285588,-0.0950966,0.844762
2023-01-13 09:56:45:926,-0.0915177,-0.2905,-0.936484,0.292629,-0.0963024,0.844586
2023-01-13 09:56:45:936,-0.0928566,-0.303977,-0.952692,0.299741,-0.0974629,0.844345
2023-01-13 09:56:45:946,-0.0966104,-0.312317,-0.962432,0.306705,-0.0987003,0.844135
2023-01-13 09:56:45:956,-0.100309,-0.317683,-0.964278,0.313412,-0.0998072,0.84386
2023-01-13 09:56:45:966,-0.102687,-0.315217,-0.954204,0.319872,-0.100879,0.843671
2023-01-13 09:56:45:976,-0.103938,-0.310266,-0.935956,0.326162,-0.101902,0.843486
2023-01-13 09:56:45:986,-0.108256,-0.309181,-0.912795,0.33249,-0.102887,0.843248
2023-01-13 09:56:45:996,-0.112258,-0.307037,-0.890372,0.338961,-0.10389,0.84311
2023-01-13 09:56:46:6,-0.114618,-0.312539,-0.883455,0.345775,-0.104818,0.843036
2023-01-13 09:56:46:16,-0.111711,-0.324606,-0.890025,0.353081,-0.105775,0.84307
2023-01-13 09:56:46:26,-0.105637,-0.337823,-0.906882,0.360777,-0.106739,0.84312
2023-01-13 09:56:46:36,-0.102681,-0.353148,-0.928516,0.368636,-0.107633,0.843141
2023-01-13 09:56:46:46,-0.107601,-0.364381,-0.944234,0.376419,-0.10854,0.842978
2023-01-13 09:56:46:56,-0.115294,-0.372053,-0.948902,0.383899,-0.109428,0.842835
2023-01-13 09:56:46:66,-0.119328,-0.371012,-0.940965,0.390952,-0.11036,0.842789
2023-01-13 09:56:46:76,-0.119312,-0.36718,-0.914037,0.3977,-0.111257,0.842829
2023-01-13 09:56:46:86,-0.116906,-0.364493,-0.871502,0.404408,-0.112101,0.843014
2023-01-13 09:56:46:96,-0.11413,-0.358724,-0.829276,0.4114,-0.11293,0.843218
2023-01-13 09:56:46:106,-0.112397,-0.361174,-0.808802,0.419108,-0.113773,0.84341
2023-01-13 09:56:46:116,-0.112093,-0.37241,-0.810381,0.427653,-0.114779,0.843589
2023-01-13 09:56:46:126,-0.112607,-0.38827,-0.826941,0.437033,-0.115787,0.843652
2023-01-13 09:56:46:136,-0.114165,-0.406925,-0.851484,0.44694,-0.116823,0.843673
2023-01-13 09:56:46:146,-0.115189,-0.422747,-0.873696,0.456947,-0.117741,0.843619
2023-01-13 09:56:46:155,-0.112753,-0.433509,-0.881882,0.4668,-0.118562,0.8435
2023-01-13 09:56:46:166,-0.109779,-0.442545,-0.865635,0.476389,-0.119294,0.84326
2023-01-13 09:56:46:176,-0.110045,-0.447564,-0.834504,0.485978,-0.119918,0.842958
2023-01-13 09:56:46:186,-0.10833,-0.456312,-0.811795,0.495849,-0.120532,0.84261
2023-01-13 09:56:46:196,-0.109376,-0.473776,-0.810438,0.506309,-0.121231,0.842125
2023-01-13 09:56:46:206,-0.111608,-0.495589,-0.825567,0.517209,-0.122049,0.841456
2023-01-13 09:56:46:216,-0.116397,-0.51465,-0.841164,0.52835,-0.122972,0.840689
2023-01-13 09:56:46:226,-0.12275,-0.530253,-0.857011,0.539408,-0.123965,0.839892
2023-01-13 09:56:46:236,-0.121726,-0.542395,-0.873125,0.550267,-0.124958,0.839088
2023-01-13 09:56:46:246,-0.116947,-0.548919,-0.875983,0.560744,-0.12587,0.838287
2023-01-13 09:56:46:256,-0.109095,-0.54808,-0.861121,0.570635,-0.126656,0.837377
2023-01-13 09:56:46:266,-0.105525,-0.544584,-0.834581,0.580076,-0.127268,0.836307
2023-01-13 09:56:46:276,-0.108017,-0.541614,-0.803682,0.589356,-0.127739,0.835075
2023-01-13 09:56:46:286,-0.111333,-0.538098,-0.78056,0.598818,-0.128113,0.833666
2023-01-13 09:56:46:296,-0.114847,-0.539676,-0.767565,0.608574,-0.128354,0.832203
2023-01-13 09:56:46:306,-0.120024,-0.545141,-0.763103,0.618695,-0.12863,0.830573
2023-01-13 09:56:46:316,-0.128097,-0.554064,-0.761334,0.629031,-0.128797,0.82889
2023-01-13 09:56:46:326,-0.134775,-0.560999,-0.75116,0.639478,-0.129039,0.827233
2023-01-13 09:56:46:336,-0.136854,-0.572165,-0.730925,0.650084,-0.1293,0.825746
2023-01-13 09:56:46:346,-0.132752,-0.587621,-0.705061,0.660966,-0.129505,0.824442
2023-01-13 09:56:46:356,-0.124042,-0.607116,-0.686612,0.672381,-0.12979,0.823139
2023-01-13 09:56:46:366,-0.123027,-0.635439,-0.694372,0.684555,-0.130094,0.821722
2023-01-13 09:56:46:375,-0.129813,-0.669886,-0.721207,0.697314,-0.130599,0.820134
2023-01-13 09:56:46:385,-0.141017,-0.70459,-0.758795,0.710278,-0.131139,0.818507
2023-01-13 09:56:46:395,-0.147893,-0.730142,-0.79263,0.722869,-0.131812,0.816847
2023-01-13 09:56:46:406,-0.156248,-0.745162,-0.811159,0.734802,-0.132682,0.815243
2023-01-13 09:56:46:416,-0.161718,-0.754047,-0.821532,0.745818,-0.13369,0.813867
2023-01-13 09:56:46:426,-0.161552,-0.755351,-0.815607,0.755874,-0.134921,0.812668
2023-01-13 09:56:46:436,-0.151664,-0.754856,-0.804036,0.765138,-0.136141,0.811683
2023-01-13 09:56:46:446,-0.134692,-0.752766,-0.785508,0.773611,-0.137282,0.810769
2023-01-13 09:56:46:456,-0.120479,-0.749078,-0.76127,0.781504,-0.138167,0.809788
2023-01-13 09:56:46:466,-0.117927,-0.74752,-0.736601,0.789006,-0.138697,0.808529
2023-01-13 09:56:46:476,-0.125808,-0.750152,-0.718983,0.796348,-0.139021,0.80714
2023-01-13 09:56:46:486,-0.137919,-0.756555,-0.709491,0.803562,-0.139204,0.805567
2023-01-13 09:56:46:496,-0.144706,-0.765382,-0.705973,0.810651,-0.139257,0.804032
2023-01-13 09:56:46:506,-0.147357,-0.774157,-0.705504,0.817513,-0.139285,0.802486
2023-01-13 09:56:46:516,-0.143642,-0.783554,-0.71279,0.824084,-0.139224,0.801058
2023-01-13 09:56:46:526,-0.134917,-0.794363,-0.724024,0.830295,-0.139097,0.799522
2023-01-13 09:56:46:536,-0.120974,-0.807869,-0.733335,0.836006,-0.138771,0.797944
2023-01-13 09:56:46:546,-0.114561,-0.814619,-0.727471,0.841055,-0.138188,0.796127
2023-01-13 09:56:46:556,-0.124907,-0.81541,-0.707617,0.845465,-0.137239,0.794095
2023-01-13 09:56:46:566,-0.142457,-0.815372,-0.687866,0.849509,-0.136113,0.792109
2023-01-13 09:56:46:576,-0.154975,-0.819071,-0.674698,0.853398,-0.134886,0.790219
2023-01-13 09:56:46:586,-0.16212,-0.825277,-0.674949,0.857164,-0.133562,0.788506
2023-01-13 09:56:46:596,-0.167416,-0.833815,-0.685939,0.860775,-0.13228,0.787066
2023-01-13 09:56:46:606,-0.169498,-0.841261,-0.698662,0.864059,-0.131088,0.785803
2023-01-13 09:56:46:616,-0.16834,-0.845297,-0.707614,0.866834,-0.130066,0.784755
2023-01-13 09:56:46:626,-0.164739,-0.845273,-0.708885,0.869066,-0.129202,0.78395
2023-01-13 09:56:46:636,-0.162616,-0.841246,-0.701375,0.870694,-0.128449,0.783357
2023-01-13 09:56:46:646,-0.16057,-0.834618,-0.688585,0.871835,-0.127816,0.783001
2023-01-13 09:56:46:656,-0.156038,-0.828411,-0.677575,0.872632,-0.127342,0.782837
2023-01-13 09:56:46:666,-0.15278,-0.823419,-0.672202,0.873326,-0.127052,0.782734
2023-01-13 09:56:46:676,-0.153552,-0.819427,-0.670093,0.873698,-0.126984,0.782826
2023-01-13 09:56:46:686,-0.15201,-0.813746,-0.669707,0.873885,-0.127059,0.783059
2023-01-13 09:56:46:696,-0.148829,-0.806471,-0.667384,0.873808,-0.12732,0.783456
2023-01-13 09:56:46:706,-0.146574,-0.801349,-0.663177,0.873444,-0.127709,0.783978
2023-01-13 09:56:46:716,-0.142105,-0.796739,-0.657582,0.872834,-0.12807,0.784625
2023-01-13 09:56:46:726,-0.136882,-0.79012,-0.6515,0.872095,-0.128373,0.78535
2023-01-13 09:56:46:736,-0.130782,-0.783635,-0.646818,0.871275,-0.128659,0.786108
2023-01-13 09:56:46:746,-0.126345,-0.783455,-0.64814,0.870389,-0.128831,0.78687
2023-01-13 09:56:46:756,-0.128841,-0.786512,-0.649822,0.869438,-0.129015,0.78757
2023-01-13 09:56:46:766,-0.131463,-0.789275,-0.649416,0.868424,-0.129283,0.788301
2023-01-13 09:56:46:776,-0.131092,-0.791686,-0.652256,0.867361,-0.12957,0.789007
2023-01-13 09:56:46:786,-0.129393,-0.792641,-0.655309,0.866107,-0.129891,0.789715
2023-01-13 09:56:46:796,-0.129294,-0.792379,-0.658433,0.864855,-0.130296,0.790412
2023-01-13 09:56:46:806,-0.127211,-0.792562,-0.659945,0.863459,-0.130772,0.791048
2023-01-13 09:56:46:816,-0.127906,-0.795089,-0.666136,0.861983,-0.1312,0.791636
2023-01-13 09:56:46:826,-0.132693,-0.806191,-0.684927,0.860343,-0.131452,0.792235
2023-01-13 09:56:46:836,-0.130436,-0.820529,-0.70381,0.858055,-0.13121,0.792803
2023-01-13 09:56:46:846,-0.133689,-0.813383,-0.690372,0.855336,-0.131342,0.793378
2023-01-13 09:56:46:856,-0.134653,-0.806903,-0.680713,0.852424,-0.131608,0.793911
2023-01-13 09:56:46:866,-0.138202,-0.808705,-0.685065,0.849386,-0.131729,0.794384
2023-01-13 09:56:46:876,-0.139441,-0.805883,-0.687078,0.846,-0.131918,0.794908
2023-01-13 09:56:46:886,-0.131072,-0.796098,-0.678983,0.842291,-0.132193,0.795496
2023-01-13 09:56:46:896,-0.12091,-0.78892,-0.673809,0.838466,-0.132354,0.796016
2023-01-13 09:56:46:906,-0.113644,-0.787813,-0.680266,0.834694,-0.132294,0.796329
2023-01-13 09:56:46:916,-0.110773,-0.79258,-0.699062,0.830814,-0.132091,0.796381
2023-01-13 09:56:46:926,-0.10899,-0.798768,-0.719728,0.826762,-0.131628,0.796155
2023-01-13 09:56:46:936,-0.114457,-0.801556,-0.733487,0.82217,-0.13086,0.795681
2023-01-13 09:56:46:946,-0.124595,-0.799086,-0.738324,0.816888,-0.129666,0.795067
2023-01-13 09:56:46:956,-0.137435,-0.792492,-0.731109,0.810963,-0.128208,0.794424
2023-01-13 09:56:46:966,-0.144693,-0.782403,-0.723043,0.804659,-0.126592,0.79386
2023-01-13 09:56:46:976,-0.148219,-0.778518,-0.726115,0.798077,-0.124963,0.793277
2023-01-13 09:56:46:985,-0.150655,-0.77918,-0.736488,0.7912,-0.123372,0.792824
2023-01-13 09:56:46:996,-0.149296,-0.776217,-0.74898,0.783949,-0.121768,0.792472
2023-01-13 09:56:47:6,-0.147553,-0.768947,-0.754625,0.776212,-0.120221,0.792147
2023-01-13 09:56:47:16,-0.145409,-0.756867,-0.750923,0.767947,-0.118805,0.791869
2023-01-13 09:56:47:26,-0.146403,-0.742122,-0.744089,0.759253,-0.117401,0.791757
2023-01-13 09:56:47:36,-0.145458,-0.73295,-0.746099,0.750325,-0.116002,0.791749
2023-01-13 09:56:47:46,-0.143722,-0.730759,-0.755908,0.741227,-0.114694,0.791841
2023-01-13 09:56:47:56,-0.148114,-0.729559,-0.768555,0.731876,-0.113598,0.792013
2023-01-13 09:56:47:66,-0.149841,-0.726434,-0.785422,0.722208,-0.112684,0.792389
2023-01-13 09:56:47:76,-0.141886,-0.721356,-0.803078,0.712026,-0.111734,0.792962
2023-01-13 09:56:47:86,-0.134334,-0.705769,-0.802002,0.701065,-0.110733,0.79366
2023-01-13 09:56:47:96,-0.131898,-0.680001,-0.781246,0.689516,-0.109752,0.794493
2023-01-13 09:56:47:106,-0.129427,-0.656292,-0.761052,0.677686,-0.108695,0.795449
2023-01-13 09:56:47:116,-0.126329,-0.6393,-0.750595,0.665953,-0.107704,0.796501
2023-01-13 09:56:47:126,-0.124252,-0.632726,-0.761663,0.654399,-0.106662,0.797634
2023-01-13 09:56:47:136,-0.123031,-0.632475,-0.787465,0.643029,-0.105629,0.798832
2023-01-13 09:56:47:146,-0.122065,-0.626559,-0.807405,0.631436,-0.104529,0.800055
2023-01-13 09:56:47:155,-0.117735,-0.608634,-0.810529,0.619373,-0.103409,0.801388
2023-01-13 09:56:47:165,-0.111324,-0.580825,-0.797867,0.606854,-0.102174,0.802806
2023-01-13 09:56:47:175,-0.10437,-0.555472,-0.778093,0.594214,-0.100825,0.80417
2023-01-13 09:56:47:185,-0.102832,-0.539157,-0.76938,0.581945,-0.0994424,0.805457
2023-01-13 09:56:47:196,-0.104099,-0.536937,-0.784764,0.570211,-0.0981227,0.806752
2023-01-13 09:56:47:206,-0.109346,-0.541779,-0.81391,0.558868,-0.0967918,0.808002
2023-01-13 09:56:47:216,-0.106338,-0.538375,-0.838296,0.547442,-0.0954119,0.809352
2023-01-13 09:56:47:226,-0.0968562,-0.517593,-0.840429,0.535667,-0.0941223,0.810739
2023-01-13 09:56:47:236,-0.0909754,-0.493698,-0.827211,0.523719,-0.0927732,0.812042
2023-01-13 09:56:47:246,-0.0902379,-0.475116,-0.818253,0.511794,-0.0912412,0.8133
2023-01-13 09:56:47:256,-0.0919797,-0.457492,-0.8114,0.500138,-0.0897747,0.814563
2023-01-13 09:56:47:266,-0.0939143,-0.447542,-0.821641,0.488873,-0.0883006,0.815874
2023-01-13 09:56:47:276,-0.0946489,-0.444927,-0.844701,0.47801,-0.0869215,0.817188
2023-01-13 09:56:47:286,-0.0945775,-0.442075,-0.866122,0.467279,-0.0856949,0.818605
2023-01-13 09:56:47:296,-0.0921628,-0.426507,-0.870482,0.456318,-0.084483,0.820157
2023-01-13 09:56:47:306,-0.0888441,-0.405837,-0.862513,0.445317,-0.0833246,0.82174
2023-01-13 09:56:47:316,-0.0871879,-0.388917,-0.851777,0.434485,-0.0822028,0.823489
2023-01-13 09:56:47:326,-0.0862434,-0.379047,-0.854387,0.423974,-0.0812405,0.825248
2023-01-13 09:56:47:335,-0.0825323,-0.375421,-0.872322,0.413853,-0.0803862,0.82708
2023-01-13 09:56:47:345,-0.0799509,-0.370766,-0.892488,0.403883,-0.0795199,0.829038
2023-01-13 09:56:47:355,-0.0773075,-0.356817,-0.894714,0.393835,-0.0787541,0.831091
2023-01-13 09:56:47:365,-0.0744261,-0.338282,-0.886681,0.383862,-0.0780627,0.833154
2023-01-13 09:56:47:375,-0.0728854,-0.324822,-0.881133,0.374203,-0.0774571,0.835166
